timestamp,accel_x,accel_y,accel_z,gyro_x,gyro_y,gyro_z
0,-32,-1992,48,-45,24,-9
5,-24,-1992,64,-44,25,-7
10,-32,-2000,48,-43,26,-8
15,-8,-1992,64,-43,25,-8
20,-16,-1992,64,-41,28,-7
25,-24,-2000,48,-41,30,-8
30,8,-1992,56,-40,31,-9
35,-8,-2000,64,-37,31,-9
40,-8,-1984,64,-35,35,-9
45,-8,-1984,80,-33,34,-11
50,-24,-1984,64,-33,34,-12
55,0,-2000,72,-36,35,-12
60,0,-1992,32,-38,37,-14
65,0,-1960,40,-43,37,-17
70,-8,-1968,56,-49,37,-19
75,8,-1968,72,-52,39,-21
80,16,-1976,48,-57,39,-24
85,0,-1984,64,-66,41,-26
90,0,-1984,56,-70,42,-27
95,8,-1976,40,-75,44,-28
100,8,-2000,64,-79,48,-29
105,24,-1984,56,-83,51,-29
110,24,-2000,64,-87,55,-27
115,24,-1984,64,-91,56,-28
120,24,-2000,40,-96,58,-27
125,16,-1984,72,-102,61,-25
130,32,-1992,64,-110,65,-26
135,32,-1992,64,-115,69,-26
140,16,-1976,88,-121,73,-28
145,8,-2000,56,-126,78,-29
150,24,-1992,64,-129,83,-33
155,40,-2024,64,-130,87,-34
160,16,-2024,56,-131,89,-37
165,32,-2024,64,-135,90,-41
170,56,-2040,64,-136,90,-42
175,64,-2032,64,-135,89,-44
180,64,-2000,64,-132,89,-44
185,40,-2040,104,-129,91,-43
190,56,-2024,64,-125,91,-43
195,80,-2032,72,-120,93,-45
200,80,-2032,48,-117,93,-45
205,56,-2040,56,-117,96,-46
210,56,-2000,40,-120,98,-46
215,72,-2008,48,-123,98,-46
220,40,-2016,48,-128,100,-46
225,56,-2008,64,-130,101,-43
230,48,-2000,64,-130,100,-38
235,40,-2008,64,-127,98,-33
240,64,-1992,96,-124,96,-28
245,32,-1960,80,-118,91,-21
250,16,-1952,64,-116,86,-13
255,0,-1936,64,-116,81,-6
260,-8,-1920,88,-118,78,1
265,16,-1936,64,-123,75,8
270,-16,-1912,96,-128,72,13
275,-16,-1952,96,-134,70,17
280,-8,-1960,80,-142,70,19
285,-8,-1968,72,-154,70,20
290,24,-1992,96,-161,70,20
295,48,-1984,104,-173,72,17
300,24,-1992,80,-183,73,16
305,32,-1984,80,-193,74,12
310,40,-1984,80,-203,76,11
315,56,-1984,88,-210,76,8
320,56,-1984,104,-211,76,7
325,40,-1984,136,-212,74,5
330,72,-1976,120,-213,70,6
335,80,-2000,144,-208,67,7
340,64,-1992,112,-206,64,10
345,88,-2016,120,-203,62,12
350,88,-2000,96,-201,61,17
355,88,-2000,72,-197,61,20
360,72,-2008,72,-194,61,23
365,80,-2000,80,-197,63,26
370,96,-1992,72,-200,66,29
375,104,-1992,72,-204,70,32
380,104,-1984,112,-209,74,33
385,112,-1984,72,-214,77,34
390,96,-1952,72,-222,79,35
395,104,-1944,72,-228,82,34
400,112,-1928,104,-236,83,34
405,128,-1880,80,-246,84,33
410,120,-1944,56,-259,88,30
415,128,-1912,64,-273,91,28
420,120,-1896,16,-287,99,25
425,120,-1920,48,-306,110,22
430,120,-1928,16,-325,120,19
435,144,-1952,24,-341,130,18
440,128,-1944,16,-356,137,17
445,112,-1952,8,-365,142,18
450,112,-1952,8,-371,145,21
455,72,-1928,16,-378,144,26
460,80,-1960,-16,-382,139,32
465,40,-1976,0,-383,131,38
470,40,-1984,-64,-387,121,45
475,32,-1984,-72,-390,109,54
480,16,-2000,-88,-394,96,63
485,-8,-2008,-144,-393,84,71
490,0,-2024,-120,-395,73,79
495,-8,-2024,-160,-397,58,85
500,-64,-2048,-168,-396,42,90
505,-96,-2024,-208,-399,21,94
510,-128,-1984,-256,-401,-3,95
515,-120,-1984,-216,-402,-28,96
520,-160,-1968,-224,-401,-58,93
525,-144,-1968,-232,-397,-93,88
530,-184,-1928,-216,-388,-131,82
535,-216,-1896,-208,-384,-172,74
540,-232,-1832,-200,-379,-213,61
545,-272,-1816,-208,-376,-258,44
550,-352,-1752,-168,-369,-302,28
555,-352,-1704,-88,-362,-342,8
560,-368,-1680,-64,-351,-382,-11
565,-408,-1600,-48,-337,-417,-29
570,-448,-1608,-24,-323,-442,-46
575,-376,-1632,40,-312,-455,-66
580,-384,-1608,80,-300,-457,-84
585,-376,-1624,80,-285,-445,-101
590,-336,-1656,136,-271,-427,-114
595,-288,-1720,152,-269,-407,-124
600,-256,-1792,176,-278,-385,-131
605,-200,-1864,208,-296,-359,-134
610,-176,-1944,208,-322,-331,-137
615,-136,-2048,168,-350,-305,-137
620,-112,-2112,144,-387,-279,-128
625,-72,-2232,96,-429,-254,-118
630,-56,-2336,104,-465,-232,-103
635,0,-2432,56,-488,-209,-88
640,72,-2496,96,-500,-184,-74
645,112,-2584,96,-497,-155,-60
650,136,-2632,88,-480,-128,-46
655,176,-2648,144,-449,-105,-33
660,176,-2640,168,-408,-89,-17
665,192,-2624,184,-364,-76,2
670,160,-2592,176,-322,-69,25
675,160,-2544,168,-282,-73,52
680,112,-2496,160,-240,-84,81
685,72,-2488,152,-199,-99,112
690,16,-2384,128,-156,-115,150
695,-64,-2304,104,-120,-129,185
700,-88,-2240,72,-95,-143,217
705,-136,-2160,56,-85,-157,246
710,-192,-2104,48,-86,-168,268
715,-248,-2024,16,-99,-177,286
720,-280,-1968,16,-119,-181,300
725,-320,-1904,8,-147,-185,307
730,-368,-1848,16,-177,-189,308
735,-384,-1808,16,-208,-196,309
740,-424,-1744,24,-235,-203,306
745,-456,-1712,0,-261,-210,304
750,-488,-1680,-24,-284,-218,299
755,-464,-1640,-48,-303,-223,291
760,-464,-1616,-48,-316,-228,284
765,-496,-1624,-64,-322,-229,274
770,-488,-1592,-72,-325,-225,267
775,-464,-1632,-80,-325,-218,261
780,-416,-1672,-72,-324,-205,252
785,-368,-1688,-80,-321,-189,243
790,-328,-1720,-96,-318,-170,232
795,-264,-1776,-120,-315,-149,220
800,-232,-1816,-144,-317,-127,208
805,-160,-1824,-136,-318,-103,194
810,-128,-1880,-136,-321,-81,181
815,-128,-1896,-128,-319,-60,169
820,-96,-1952,-112,-317,-44,159
825,-80,-1944,-112,-309,-33,149
830,-88,-1976,-80,-299,-26,142
835,-64,-2008,-104,-287,-18,137
840,-104,-1984,-72,-275,-12,131
845,-96,-2000,-64,-258,-5,130
850,-104,-1992,-40,-244,6,127
855,-96,-1984,-48,-232,15,122
860,-112,-1984,0,-219,23,118
865,-104,-1968,0,-210,33,113
870,-104,-1976,48,-198,45,108
875,-128,-1936,64,-188,60,103
880,-128,-1920,48,-179,79,95
885,-128,-1888,72,-176,100,83
890,-152,-1880,80,-174,116,70
895,-176,-1872,72,-175,131,55
900,-184,-1848,80,-178,141,40
905,-216,-1848,80,-183,153,25
910,-248,-1840,104,-187,166,13
915,-264,-1880,88,-186,182,0
920,-256,-1904,112,-182,202,-11
925,-296,-1912,144,-177,228,-22
930,-304,-1928,136,-172,256,-28
935,-280,-1976,152,-172,283,-42
940,-312,-2008,192,-172,307,-57
945,-352,-2040,192,-166,326,-63
950,-304,-2088,256,-150,337,-70
955,-312,-2144,232,-131,340,-75
960,-312,-2152,248,-106,342,-77
965,-328,-2168,288,-82,340,-79
970,-352,-2192,272,-61,334,-81
975,-360,-2192,264,-41,325,-81
980,-376,-2176,216,-21,310,-80
985,-408,-2168,216,-4,295,-81
990,-424,-2160,240,0,284,-85
995,-448,-2176,192,0,277,-87
1000,-488,-2184,176,-3,272,-87
1005,-504,-2232,192,-8,266,-84
1010,-488,-2240,176,-14,256,-84
1015,-536,-2272,176,-20,243,-86
1020,-544,-2312,176,-25,227,-87
1025,-600,-2320,112,-30,203,-85
1030,-608,-2352,104,-37,177,-85
1035,-640,-2392,32,-48,154,-82
1040,-640,-2424,24,-56,131,-76
1045,-648,-2456,32,-62,116,-66
1050,-648,-2496,40,-56,107,-53
1055,-648,-2600,48,-39,104,-33
1060,-616,-2672,64,-12,101,-8
1065,-568,-2704,72,27,104,18
1070,-520,-2816,64,78,118,45
1075,-472,-2864,16,132,131,63
1080,-440,-2896,-48,190,140,87
1085,-400,-2912,-136,249,136,107
1090,-352,-2896,-264,297,115,119
1095,-256,-2816,-352,333,88,110
1100,-200,-2760,-400,354,61,89
1105,-152,-2664,-536,363,32,63
1110,-128,-2584,-640,365,5,31
1115,-112,-2496,-728,353,-11,-9
1120,-64,-2424,-800,330,-10,-53
1125,-8,-2344,-816,287,4,-91
1130,24,-2264,-856,236,25,-120
1135,40,-2192,-848,181,46,-138
1140,104,-2136,-824,139,64,-152
1145,104,-2104,-776,122,78,-157
1150,128,-2056,-728,124,85,-152
1155,136,-1992,-672,146,84,-137
1160,128,-1944,-624,175,74,-112
1165,120,-1864,-544,206,55,-76
1170,144,-1800,-488,237,29,-33
1175,152,-1744,-440,260,4,20
1180,136,-1712,-400,271,-21,71
1185,112,-1712,-360,276,-44,112
1190,48,-1696,-376,278,-61,144
1195,72,-1752,-320,274,-77,165
1200,72,-1808,-328,267,-103,172
1205,72,-1840,-296,255,-136,168
1210,64,-1928,-272,232,-176,157
1215,64,-1992,-232,210,-215,131
1220,48,-2072,-240,195,-251,95
1225,56,-2168,-192,186,-282,47
1230,48,-2264,-224,187,-300,-10
1235,48,-2280,-248,188,-308,-72
1240,40,-2312,-280,177,-304,-135
1245,64,-2368,-304,156,-289,-195
1250,64,-2392,-280,133,-267,-253
1255,56,-2376,-328,119,-242,-304
1260,56,-2376,-336,108,-213,-340
1265,56,-2336,-312,109,-187,-362
1270,40,-2304,-352,126,-164,-375
1275,56,-2232,-336,153,-144,-376
1280,56,-2168,-368,184,-128,-368
1285,56,-2080,-360,214,-116,-359
1290,64,-2000,-336,244,-106,-345
1295,64,-1936,-368,272,-100,-327
1300,96,-1872,-296,299,-98,-309
1305,40,-1736,-320,322,-107,-292
1310,40,-1656,-272,323,-117,-263
1315,24,-1584,-272,304,-128,-231
1320,48,-1560,-240,277,-141,-199
1325,48,-1488,-240,257,-156,-171
1330,72,-1440,-216,232,-171,-153
1335,56,-1424,-152,198,-178,-143
1340,48,-1424,-152,166,-183,-141
1345,40,-1384,-120,134,-190,-142
1350,40,-1392,-104,105,-198,-144
1355,16,-1400,-56,83,-208,-151
1360,8,-1440,-64,64,-217,-161
1365,-8,-1464,-72,51,-228,-171
1370,0,-1480,-56,38,-238,-181
1375,-32,-1520,-48,23,-248,-192
1380,-32,-1552,-56,14,-260,-203
1385,0,-1576,-72,6,-268,-209
1390,16,-1616,-56,-1,-275,-215
1395,48,-1648,-72,-9,-283,-225
1400,64,-1672,-56,-20,-292,-236
1405,88,-1680,-56,-32,-302,-243
1410,96,-1672,-64,-40,-311,-251
1415,120,-1712,-56,-51,-319,-257
1420,144,-1720,-24,-58,-324,-261
1425,168,-1696,-8,-65,-328,-257
1430,144,-1704,8,-73,-331,-249
1435,168,-1688,64,-82,-335,-234
1440,136,-1696,64,-85,-346,-214
1445,128,-1688,112,-83,-362,-187
1450,128,-1696,184,-68,-385,-155
1455,104,-1680,216,-48,-415,-119
1460,80,-1680,240,-25,-451,-81
1465,40,-1696,288,-2,-492,-37
1470,8,-1664,304,25,-533,8
1475,-24,-1688,304,49,-572,55
1480,-72,-1720,336,68,-609,102
1485,-96,-1696,296,84,-642,149
1490,-144,-1752,320,98,-670,197
1495,-176,-1776,296,110,-690,243
1500,-208,-1800,208,116,-701,286
1505,-208,-1840,168,108,-698,325
1510,-216,-1872,96,92,-675,358
1515,-208,-1896,16,64,-636,381
1520,-144,-1904,-72,23,-582,400
1525,-104,-1928,-112,-24,-520,402
1530,-16,-1896,-104,-67,-459,391
1535,64,-1920,-104,-98,-394,368
1540,160,-1968,0,-107,-337,337
1545,192,-2016,64,-99,-293,290
1550,280,-2096,128,-86,-261,228
1555,392,-2160,152,-82,-232,157
1560,384,-2264,280,-96,-206,71
1565,448,-2392,296,-114,-214,-6
1570,608,-2440,432,-131,-210,-90
1575,520,-2536,528,-157,-169,-168
1580,512,-2632,600,-146,-178,-226
1585,488,-2624,632,-106,-196,-277
1590,424,-2616,672,-59,-218,-305
1595,504,-2544,672,-4,-263,-310
1600,568,-2464,720,52,-279,-303
1605,472,-2384,688,81,-259,-281
1610,368,-2336,576,114,-270,-247
1615,344,-2352,424,153,-288,-214
1620,120,-2376,200,186,-275,-205
1625,-56,-2384,-64,182,-268,-172
1630,-112,-2432,-288,108,-281,-126
1635,-96,-2488,-464,-5,-303,-81
1640,-48,-2592,-584,-131,-311,-51
1645,-104,-2776,-608,-240,-315,-33
1650,-136,-2936,-576,-315,-312,-20
1655,-120,-3080,-496,-331,-323,-20
1660,-120,-3152,-440,-278,-342,-34
1665,-104,-3144,-424,-166,-349,-55
1670,-24,-3056,-392,-24,-337,-81
1675,120,-2928,-424,119,-300,-109
1680,160,-2784,-544,226,-235,-144
1685,208,-2648,-600,284,-162,-180
1690,248,-2536,-704,305,-90,-201
1695,248,-2488,-720,311,-44,-210
1700,240,-2400,-864,316,-33,-211
1705,192,-2272,-928,317,-56,-213
1710,136,-2152,-952,304,-98,-212
1715,72,-2072,-960,278,-151,-205
1720,0,-1944,-936,247,-208,-193
1725,-24,-1856,-904,216,-260,-181
1730,-88,-1696,-840,192,-305,-174
1735,-112,-1632,-720,174,-337,-168
1740,-136,-1600,-616,152,-360,-164
1745,-192,-1568,-560,124,-370,-169
1750,-224,-1544,-480,97,-368,-176
1755,-264,-1632,-416,72,-358,-178
1760,-248,-1656,-328,45,-340,-176
1765,-248,-1736,-304,23,-318,-173
1770,-232,-1744,-312,2,-298,-163
1775,-248,-1824,-296,-18,-267,-144
1780,-208,-1888,-304,-38,-232,-122
1785,-192,-1912,-320,-58,-184,-95
1790,-136,-1960,-280,-78,-124,-64
1795,-144,-1976,-288,-99,-58,-34
1800,-112,-2040,-288,-120,10,2
1805,-72,-2080,-296,-147,72,39
1810,-48,-2088,-296,-179,128,75
1815,-24,-2144,-256,-204,176,112
1820,56,-2168,-232,-222,216,148
1825,64,-2168,-240,-234,248,178
1830,72,-2160,-208,-242,270,210
1835,96,-2136,-208,-242,283,237
1840,120,-2120,-192,-234,284,259
1845,128,-2064,-184,-216,279,274
1850,120,-1984,-176,-196,266,286
1855,144,-1944,-208,-177,248,293
1860,120,-1880,-240,-164,226,299
1865,72,-1784,-240,-151,200,299
1870,56,-1728,-256,-148,174,303
1875,48,-1688,-264,-150,150,307
1880,0,-1624,-240,-152,128,306
1885,8,-1560,-280,-146,112,303
1890,-16,-1504,-272,-140,104,297
1895,-32,-1464,-248,-139,103,293
1900,-48,-1448,-248,-139,110,287
1905,-64,-1432,-224,-141,123,279
1910,-40,-1416,-208,-138,139,268
1915,-96,-1400,-192,-132,162,248
1920,-64,-1400,-176,-129,183,225
1925,-104,-1400,-144,-131,204,206
1930,-104,-1400,-136,-137,223,189
1935,-112,-1456,-64,-145,240,171
1940,-128,-1464,-88,-141,256,146
1945,-128,-1480,-64,-138,274,131
1950,-128,-1552,-56,-143,294,121
1955,-128,-1600,-16,-148,319,113
1960,-128,-1672,-8,-149,348,106
1965,-120,-1752,56,-140,380,96
1970,-104,-1784,64,-125,417,85
1975,-112,-1848,88,-109,454,81
1980,-96,-1912,88,-93,488,77
1985,-112,-1928,120,-80,519,75
1990,-112,-1952,152,-64,544,73
1995,-88,-1944,168,-48,562,71
2000,-72,-1944,208,-32,577,67
2005,-48,-1936,224,-16,586,58
2010,-8,-1896,240,5,592,49
2015,8,-1888,304,33,597,31
2020,24,-1880,352,60,602,11
2025,96,-1880,384,94,614,-14
2030,88,-1872,336,126,630,-43
2035,72,-1848,368,153,652,-78
2040,72,-1840,344,170,676,-114
2045,88,-1872,320,172,699,-151
2050,96,-1904,272,167,714,-190
2055,64,-1952,240,151,722,-230
2060,56,-1960,200,130,724,-269
2065,48,-1984,144,108,720,-304
2070,8,-2016,144,92,711,-337
2075,-16,-2032,96,77,694,-365
2080,-80,-1992,88,67,666,-385
2085,-128,-2024,120,62,627,-398
2090,-200,-2048,104,65,580,-396
2095,-272,-2048,128,70,525,-387
2100,-368,-2064,176,79,469,-366
2105,-392,-2048,192,87,419,-340
2110,-496,-2168,240,99,380,-306
2115,-520,-2176,248,119,349,-260
2120,-600,-2240,336,136,327,-211
2125,-672,-2264,344,148,308,-159
2130,-704,-2328,384,158,291,-98
2135,-664,-2416,464,172,267,-39
2140,-736,-2440,440,203,249,24
2145,-704,-2440,416,232,229,82
2150,-664,-2416,416,253,203,130
2155,-608,-2408,408,269,174,172
2160,-536,-2320,456,282,150,202
2165,-408,-2304,504,301,136,224
2170,-304,-2232,544,327,138,230
2175,-176,-2176,552,359,146,223
2180,-80,-2160,560,387,164,211
2185,-24,-2136,512,403,191,193
2190,32,-2176,432,399,225,178
2195,-8,-2232,312,371,256,171
2200,8,-2376,168,309,284,168
2205,0,-2528,64,218,303,167
2210,0,-2728,-48,118,308,162
2215,-32,-2904,-184,26,299,159
2220,-104,-2992,-264,-44,275,163
2225,-120,-3032,-392,-83,240,177
2230,-184,-3032,-424,-85,201,202
2235,-240,-3000,-512,-61,165,234
2240,-232,-2968,-560,-17,129,265
2245,-160,-2816,-648,32,100,296
2250,-144,-2640,-752,79,78,323
2255,-128,-2480,-848,120,64,347
2260,-112,-2288,-904,151,53,368
2265,-48,-2088,-920,174,41,386
2270,0,-1976,-912,190,28,398
2275,56,-1872,-888,206,23,410
2280,120,-1736,-840,224,26,424
2285,168,-1656,-800,236,41,432
2290,224,-1624,-704,242,64,431
2295,280,-1560,-624,237,89,424
2300,320,-1552,-520,221,117,416
2305,384,-1600,-448,197,142,401
2310,400,-1624,-352,160,165,374
2315,400,-1728,-224,121,183,344
2320,432,-1816,-152,87,193,316
2325,416,-1928,-88,63,196,283
2330,408,-2040,-16,45,192,243
2335,384,-2128,16,34,178,198
2340,328,-2232,56,25,155,155
2345,288,-2312,0,15,121,113
2350,232,-2384,-40,3,79,72
2355,168,-2432,-72,-12,33,32
2360,80,-2448,-152,-27,-11,-7
2365,8,-2472,-184,-41,-49,-47
2370,-80,-2480,-232,-57,-81,-89
2375,-136,-2488,-264,-65,-107,-127
2380,-240,-2456,-224,-65,-129,-158
2385,-304,-2400,-224,-58,-143,-173
2390,-360,-2352,-216,-40,-150,-179
2395,-376,-2264,-216,-16,-156,-174
2400,-408,-2216,-200,7,-153,-160
2405,-400,-2152,-184,33,-149,-143
2410,-408,-2072,-176,58,-145,-125
2415,-368,-1992,-216,75,-135,-107
2420,-344,-1864,-192,81,-127,-92
2425,-296,-1800,-224,73,-119,-77
2430,-248,-1728,-192,47,-112,-66
2435,-200,-1624,-168,18,-112,-66
2440,-176,-1560,-144,-15,-117,-74
2445,-128,-1504,-160,-42,-135,-86
2450,-104,-1504,-128,-67,-154,-99
2455,-16,-1496,-152,-83,-171,-111
2460,8,-1488,-104,-87,-186,-122
2465,56,-1416,-96,-85,-203,-139
2470,48,-1384,-88,-92,-216,-163
2475,64,-1416,-64,-105,-228,-188
2480,80,-1416,-56,-119,-242,-210
2485,80,-1416,-64,-131,-259,-232
2490,64,-1440,-32,-146,-273,-252
2495,88,-1464,-40,-159,-290,-263
2500,96,-1480,-16,-173,-319,-266
2505,112,-1504,-24,-184,-349,-272
2510,136,-1560,-32,-196,-374,-276
2515,144,-1600,16,-211,-395,-273
2520,160,-1640,-8,-226,-417,-269
2525,160,-1664,0,-237,-439,-263
2530,176,-1736,64,-246,-462,-257
2535,192,-1776,72,-255,-485,-255
2540,184,-1800,88,-256,-507,-250
2545,144,-1800,152,-249,-531,-240
2550,136,-1832,136,-231,-550,-227
2555,152,-1816,216,-205,-567,-204
2560,104,-1824,224,-173,-584,-175
2565,72,-1832,216,-146,-593,-140
2570,48,-1800,240,-114,-601,-98
2575,8,-1752,272,-89,-608,-46
2580,0,-1792,256,-67,-616,7
2585,-48,-1760,272,-51,-624,56
2590,-72,-1760,272,-36,-634,105
2595,-88,-1784,256,-23,-647,156
2600,-128,-1776,272,-11,-656,205
2605,-128,-1776,248,0,-669,252
2610,-128,-1784,232,9,-677,298
2615,-128,-1808,256,16,-678,338
2620,-120,-1792,216,22,-669,369
2625,-88,-1832,160,26,-649,388
2630,-56,-1864,128,22,-621,403
2635,0,-1888,88,9,-584,408
2640,64,-1928,64,-14,-542,401
2645,112,-1936,0,-48,-496,382
2650,176,-1984,-40,-89,-449,350
2655,192,-2000,-48,-140,-406,308
2660,232,-2024,-24,-185,-369,258
2665,288,-2104,48,-210,-334,208
2670,304,-2160,104,-218,-306,154
2675,280,-2224,224,-211,-285,98
2680,400,-2296,328,-185,-261,40
2685,440,-2392,448,-150,-231,-19
2690,472,-2448,584,-110,-195,-85
2695,488,-2472,672,-58,-162,-149
2700,480,-2496,760,-2,-137,-206
2705,472,-2496,784,55,-118,-259
2710,456,-2456,808,107,-107,-303
2715,504,-2392,800,159,-106,-334
2720,440,-2296,744,196,-109,-362
2725,408,-2200,728,212,-114,-378
2730,424,-2136,656,210,-126,-382
2735,384,-2072,592,195,-144,-378
2740,352,-2056,568,168,-165,-368
2745,256,-2112,496,133,-184,-366
2750,160,-2144,424,96,-196,-372
2755,88,-2232,352,52,-199,-378
2760,0,-2328,296,1,-197,-380
2765,-48,-2432,216,-54,-195,-371
2770,-88,-2568,64,-116,-189,-359
2775,-112,-2728,48,-184,-175,-348
2780,-104,-2840,24,-240,-154,-337
2785,-64,-2936,-16,-265,-135,-328
2790,-24,-2960,-56,-247,-115,-319
2795,24,-2904,-72,-183,-102,-303
2800,88,-2840,-152,-94,-88,-283
2805,120,-2712,-240,-4,-69,-256
2810,144,-2592,-416,72,-43,-226
2815,128,-2480,-544,112,-19,-192
2820,128,-2368,-696,119,-8,-165
2825,112,-2280,-824,100,-15,-141
2830,96,-2200,-944,68,-40,-121
2835,88,-2096,-952,27,-76,-107
2840,48,-2016,-944,-14,-120,-101
2845,-8,-1960,-872,-47,-167,-102
2850,-64,-1872,-808,-65,-213,-114
2855,-96,-1792,-712,-62,-258,-127
2860,-120,-1736,-576,-42,-298,-142
2865,-144,-1680,-472,-15,-330,-158
2870,-176,-1656,-400,4,-347,-173
2875,-216,-1656,-368,7,-346,-191
2880,-208,-1712,-296,3,-323,-206
2885,-240,-1768,-232,-6,-282,-217
2890,-288,-1808,-200,-18,-231,-223
2895,-296,-1864,-184,-28,-176,-220
2900,-288,-1912,-208,-37,-124,-209
2905,-296,-1968,-208,-49,-75,-191
2910,-304,-1992,-296,-59,-28,-163
2915,-256,-2040,-280,-73,22,-128
2920,-200,-2080,-272,-91,72,-89
2925,-136,-2104,-304,-115,124,-49
2930,-96,-2160,-296,-142,170,-7
2935,-72,-2200,-256,-170,211,35
2940,32,-2248,-208,-198,247,75
2945,80,-2296,-184,-221,280,121
2950,144,-2304,-168,-236,307,164
2955,208,-2304,-144,-246,326,204
2960,240,-2296,-104,-249,338,240
2965,280,-2264,-72,-245,343,265
2970,304,-2232,-56,-233,347,285
2975,304,-2184,-64,-210,344,297
2980,288,-2080,-88,-187,338,304
2985,272,-2000,-120,-167,329,301
2990,216,-1912,-128,-152,320,297
2995,200,-1824,-104,-140,309,286
3000,184,-1768,-96,-132,297,273
3005,160,-1688,-112,-126,290,255
3010,136,-1608,-96,-119,288,237
3015,120,-1528,-96,-111,289,217
3020,72,-1472,-104,-97,296,201
3025,40,-1424,-128,-88,303,194
3030,8,-1400,-96,-90,311,177
3035,-16,-1384,-80,-96,321,162
3040,-56,-1376,-48,-102,334,151
3045,-96,-1384,-48,-106,344,137
3050,-88,-1400,-56,-111,357,124
3055,-128,-1424,-16,-127,375,104
3060,-128,-1472,-40,-148,396,90
3065,-168,-1488,0,-171,424,77
3070,-184,-1536,-16,-196,458,67
3075,-216,-1560,8,-214,497,58
3080,-232,-1600,48,-229,539,54
3085,-200,-1672,64,-237,583,51
3090,-208,-1704,72,-233,628,44
3095,-176,-1752,48,-221,671,35
3100,-200,-1760,104,-203,710,27
3105,-192,-1720,232,-181,741,22
3110,-224,-1792,120,-160,765,21
3115,-168,-1784,160,-137,782,20
3120,-152,-1800,160,-115,793,21
3125,-120,-1792,176,-94,801,20
3130,-80,-1792,200,-70,804,18
3135,-32,-1744,192,-46,805,11
3140,8,-1736,168,-24,803,-1
3145,64,-1696,168,-6,798,-18
3150,120,-1664,152,8,785,-36
3155,168,-1608,168,18,770,-56
3160,160,-1600,184,28,752,-76
3165,176,-1592,200,35,733,-98
3170,96,-1584,192,41,718,-116
3175,72,-1608,200,39,700,-132
3180,8,-1632,184,28,685,-146
3185,-40,-1704,200,6,668,-156
3190,-64,-1784,232,-20,642,-166
3195,-120,-1856,232,-47,610,-178
3200,-144,-1952,232,-74,573,-187
3205,-168,-2008,240,-98,532,-191
3210,-216,-2104,288,-115,489,-192
3215,-296,-2232,328,-115,448,-188
3220,-344,-2232,296,-105,415,-182
3225,-360,-2280,304,-84,394,-170
3230,-392,-2336,328,-59,383,-154
3235,-416,-2408,336,-35,374,-133
3240,-432,-2416,384,-5,364,-110
3245,-440,-2448,368,27,354,-86
3250,-464,-2448,432,61,338,-58
3255,-440,-2424,432,91,321,-29
3260,-440,-2392,432,123,304,0
3265,-416,-2352,488,155,291,25
3270,-336,-2296,544,190,287,46
3275,-248,-2272,560,228,291,60
3280,-184,-2216,616,270,307,64
3285,-128,-2176,656,314,325,60
3290,-32,-2128,720,360,348,50
3295,24,-2064,784,399,370,40
3300,120,-2048,824,434,391,30
3305,200,-2024,792,469,408,17
3310,216,-2064,688,496,427,3
3315,168,-2112,584,506,453,-6
3320,104,-2224,384,482,476,-3
3325,32,-2304,168,406,487,5
3330,8,-2488,16,284,476,17
3335,-48,-2664,-232,141,446,26
3340,-128,-2824,-376,3,395,36
3345,-248,-2968,-528,-115,336,52
3350,-384,-3064,-696,-205,280,81
3355,-504,-3120,-808,-264,240,121
3360,-544,-3152,-904,-285,221,169
3365,-544,-3088,-984,-276,214,223
3370,-488,-2992,-968,-234,218,274
3375,-416,-2872,-936,-162,221,320
3380,-312,-2688,-920,-63,219,354
3385,-176,-2552,-864,48,211,376
3390,-80,-2352,-816,163,206,390
3395,24,-2176,-720,269,205,395
3400,144,-2032,-664,359,208,396
3405,224,-1920,-616,424,211,395
3410,320,-1800,-504,455,214,389
3415,360,-1728,-440,456,216,384
3420,392,-1696,-336,428,213,372
3425,432,-1696,-328,374,202,357
3430,432,-1728,-216,305,190,341
3435,416,-1824,-160,225,177,320
3440,376,-1912,-88,135,167,289
3445,320,-2000,-48,42,157,256
3450,264,-2064,72,-41,142,222
3455,200,-2136,56,-113,120,184
3460,144,-2200,64,-176,89,142
3465,88,-2264,56,-223,51,98
3470,48,-2336,8,-257,4,50
3475,24,-2384,-56,-276,-44,-2
3480,-112,-2368,-128,-277,-94,-54
3485,-136,-2408,-136,-267,-140,-102
3490,-216,-2424,-168,-244,-174,-144
3495,-320,-2400,-200,-210,-198,-181
3500,-344,-2376,-216,-173,-213,-210
3505,-384,-2336,-232,-131,-210,-230
3510,-440,-2248,-224,-85,-199,-243
3515,-440,-2192,-232,-49,-179,-243
3520,-416,-2088,-192,-12,-156,-235
3525,-432,-2000,-184,12,-138,-220
3530,-432,-1864,-200,20,-128,-206
3535,-384,-1800,-176,11,-129,-192
3540,-304,-1736,-136,-10,-134,-182
3545,-248,-1648,-144,-33,-137,-176
3550,-176,-1584,-88,-60,-139,-174
3555,-104,-1528,-128,-83,-146,-175
3560,-32,-1456,-136,-108,-160,-181
3565,32,-1424,-112,-136,-177,-191
3570,72,-1416,-104,-168,-196,-200
3575,128,-1416,-88,-193,-223,-206
3580,136,-1400,-80,-208,-255,-213
3585,160,-1408,-72,-215,-290,-216
3590,176,-1424,-96,-218,-324,-224
3595,144,-1448,-80,-216,-357,-234
3600,152,-1440,-48,-203,-394,-237
3605,160,-1456,-64,-195,-441,-240
3610,160,-1480,-24,-190,-482,-241
3615,184,-1568,-24,-191,-513,-241
3620,152,-1608,-8,-200,-545,-233
3625,128,-1664,40,-213,-578,-225
3630,144,-1704,24,-215,-613,-218
3635,152,-1752,24,-214,-639,-210
3640,168,-1808,24,-211,-658,-205
3645,128,-1808,24,-201,-668,-200
3650,120,-1832,56,-188,-674,-191
3655,112,-1864,80,-173,-672,-176
3660,136,-1888,144,-151,-668,-157
3665,152,-1880,136,-128,-660,-133
3670,144,-1872,152,-104,-654,-107
3675,136,-1848,192,-83,-648,-73
3680,136,-1840,272,-59,-645,-29
3685,104,-1784,296,-32,-646,21
3690,96,-1760,320,-4,-653,72
3695,104,-1712,376,26,-668,124
3700,56,-1712,400,60,-687,176
3705,32,-1656,392,89,-708,227
3710,16,-1632,424,110,-724,275
3715,8,-1576,400,123,-732,321
3720,-8,-1568,376,127,-733,363
3725,16,-1544,360,117,-724,398
3730,8,-1536,344,101,-706,428
3735,0,-1560,256,78,-679,452
3740,40,-1632,200,48,-643,469
3745,24,-1616,136,11,-602,473
3750,32,-1664,88,-36,-564,468
3755,56,-1728,72,-91,-528,454
3760,120,-1760,32,-146,-493,427
3765,152,-1808,64,-198,-459,391
3770,208,-1888,64,-241,-423,346
3775,240,-1984,120,-270,-388,294
3780,280,-2096,232,-281,-352,234
3785,320,-2200,344,-271,-322,169
3790,368,-2336,432,-248,-295,100
3795,384,-2456,536,-211,-268,27
3800,440,-2560,552,-167,-240,-45
3805,472,-2656,640,-123,-212,-121
3810,480,-2624,656,-75,-181,-190
3815,496,-2600,680,-23,-152,-251
3820,504,-2528,680,21,-128,-300
3825,536,-2496,688,66,-111,-331
3830,520,-2416,648,124,-102,-348
3835,504,-2328,624,181,-106,-351
3840,488,-2248,504,226,-114,-344
3845,448,-2240,400,241,-120,-335
3850,368,-2256,320,220,-117,-338
3855,272,-2240,232,163,-101,-350
3860,224,-2296,168,76,-79,-365
3865,168,-2464,96,-33,-55,-376
3870,104,-2584,24,-152,-33,-383
3875,96,-2760,-40,-265,-10,-395
3880,128,-2888,-104,-349,14,-406
3885,168,-3000,-96,-390,47,-416
3890,224,-3064,-88,-389,88,-427
3895,248,-3072,-8,-353,126,-446
3900,280,-3008,8,-284,159,-453
3905,368,-2880,-40,-191,191,-454
3910,392,-2752,-56,-100,223,-447
3915,384,-2592,-128,-22,252,-425
3920,376,-2400,-304,32,272,-393
3925,360,-2280,-448,56,275,-354
3930,288,-2152,-560,59,259,-311
3935,248,-2040,-696,39,225,-271
3940,176,-1952,-808,0,183,-233
3945,96,-1864,-840,-50,138,-204
3950,0,-1784,-856,-100,96,-177
3955,-88,-1720,-824,-137,56,-155
3960,-120,-1680,-808,-147,15,-138
3965,-168,-1648,-744,-138,-24,-125
3970,-272,-1640,-544,-117,-64,-119
3975,-376,-1624,-504,-100,-98,-121
3980,-400,-1648,-328,-91,-123,-129
3985,-416,-1736,-272,-94,-135,-144
3990,-448,-1784,-272,-108,-132,-162
3995,-520,-1856,-176,-125,-117,-175
4000,-560,-1992,-112,-132,-94,-185
4005,-488,-1928,-144,-131,-68,-189
4010,-592,-2152,-176,-117,-35,-186
4015,-544,-2128,-136,-96,2,-175
4020,-528,-2200,-216,-74,49,-158
4025,-488,-2232,-272,-54,110,-134
4030,-384,-2272,-344,-41,183,-106
4035,-328,-2296,-312,-39,255,-78
4040,-296,-2280,-336,-44,322,-49
4045,-144,-2296,-280,-52,375,-15
4050,-64,-2328,-216,-74,414,18
4055,16,-2280,-192,-101,437,54
4060,136,-2288,-128,-129,449,91
4065,184,-2304,-128,-157,454,129
4070,272,-2216,-88,-179,455,165
4075,304,-2232,-96,-190,454,196
4080,336,-2208,-16,-195,450,221
4085,272,-2248,-24,-194,440,239
4090,328,-2016,-112,-190,424,250
4095,392,-1936,-104,-186,405,254
4100,368,-1840,-136,-188,385,256
4105,352,-1744,-120,-193,365,256
4110,296,-1656,-160,-200,346,257
4115,296,-1632,-120,-204,329,258
4120,288,-1584,-16,-206,310,255
4125,168,-1464,-152,-205,296,253
4130,104,-1424,-112,-199,281,254
4135,80,-1376,-136,-199,272,259
4140,64,-1304,-160,-199,273,262
4145,16,-1408,-136,-195,276,258
4150,0,-1408,-104,-183,289,244
4155,-80,-1376,-72,-176,308,229
4160,-72,-1432,-88,-185,330,212
4165,-120,-1504,-120,-197,357,191
4170,-160,-1504,-96,-209,382,170
4175,-224,-1472,-72,-221,408,149
4180,-248,-1512,-48,-240,435,137
4185,-280,-1560,-64,-259,464,125
4190,-312,-1608,24,-274,497,117
4195,-344,-1688,-8,-278,529,110
4200,-376,-1616,32,-273,564,104
4205,-296,-1672,48,-266,592,98
4210,-312,-1728,88,-263,621,94
4215,-312,-1768,96,-259,649,94
4220,-352,-1784,96,-247,677,94
4225,-256,-1768,88,-236,701,98
4230,-296,-1816,168,-220,722,99
4235,-216,-1800,160,-201,740,97
4240,-152,-1832,288,-181,751,94
4245,-160,-1816,280,-158,755,82
4250,-104,-1800,280,-130,750,66
4255,-56,-1792,328,-107,742,43
4260,0,-1800,368,-84,736,15
4265,48,-1800,392,-57,736,-16
4270,48,-1712,392,-33,740,-51
4275,40,-1744,456,-11,746,-89
4280,104,-1840,432,8,756,-127
4285,120,-1784,424,22,765,-166
4290,16,-1904,416,24,767,-206
4295,144,-1760,328,25,761,-244
4300,-40,-1848,352,25,747,-279
4305,-8,-1928,248,26,725,-310
4310,56,-1904,160,25,695,-337
4315,-64,-2000,136,21,661,-358
4320,-112,-1976,112,13,623,-370
4325,-160,-2032,72,2,580,-373
4330,-192,-2024,120,-8,525,-365
4335,-272,-2056,104,-13,465,-348
4340,-320,-2096,176,-10,405,-320
4345,-360,-2160,256,11,350,-287
4350,-408,-2120,320,43,304,-248
4355,-416,-2256,376,82,269,-207
4360,-624,-2216,320,124,242,-157
4365,-616,-2240,616,166,220,-103
4370,-664,-2280,568,205,199,-50
4375,-696,-2240,568,242,179,4
4380,-776,-2224,696,271,159,57
4385,-784,-2312,568,289,142,106
4390,-672,-2240,528,297,130,150
4395,-584,-2248,544,302,119,184
4400,-520,-2200,528,303,114,209
4405,-392,-2168,488,302,108,225
4410,-272,-2120,456,300,96,229
4415,-168,-2088,520,294,82,223
4420,-8,-2056,368,275,75,219
4425,56,-2136,256,246,83,214
4430,16,-2328,112,215,110,200
4435,-104,-2456,-96,164,135,191
4440,-104,-2648,-280,67,147,194
4445,-152,-2968,-296,-59,147,201
4450,-120,-3184,-360,-174,138,207
4455,-128,-3360,-424,-255,116,211
4460,-208,-3432,-472,-285,89,228
4465,-296,-3480,-464,-263,63,260
4470,-304,-3384,-512,-203,46,296
4475,-272,-3264,-568,-118,32,331
4480,-240,-3152,-616,-26,23,356
4485,-136,-2944,-712,68,14,372
4490,-80,-2736,-728,151,7,385
4495,16,-2536,-800,225,4,387
4500,80,-2352,-840,295,12,386
4505,184,-2160,-856,356,31,384
4510,240,-1968,-824,397,57,371
4515,320,-1744,-792,410,85,357
4520,352,-1656,-744,408,111,346
4525,400,-1552,-640,386,133,337
4530,440,-1496,-584,354,153,328
4535,496,-1488,-472,318,171,320
4540,448,-1584,-336,266,191,307
4545,496,-1560,-280,213,211,293
4550,488,-1664,-168,161,235,272
4555,464,-1752,-72,109,253,247
4560,424,-1872,-32,59,260,216
4565,344,-1976,56,13,247,181
4570,248,-2136,72,-24,214,149
4575,160,-2192,80,-51,165,113
4580,48,-2280,56,-73,100,75
4585,-56,-2360,-40,-92,28,37
4590,-120,-2440,-72,-107,-48,2
4595,-208,-2448,-168,-116,-125,-38
4600,-320,-2456,-200,-121,-196,-78
4605,-392,-2424,-232,-122,-256,-115
4610,-440,-2408,-272,-124,-300,-144
4615,-520,-2368,-320,-124,-322,-168
4620,-544,-2312,-240,-115,-330,-181
4625,-576,-2264,-232,-95,-325,-187
4630,-560,-2200,-240,-66,-309,-186
4635,-584,-2096,-216,-34,-290,-182
4640,-552,-1992,-216,-10,-274,-179
4645,-504,-1928,-184,2,-264,-176
4650,-448,-1800,-224,3,-260,-169
4655,-376,-1704,-216,-10,-258,-163
4660,-328,-1624,-224,-35,-262,-160
4665,-232,-1568,-248,-67,-270,-161
4670,-192,-1480,-240,-103,-282,-166
4675,-112,-1448,-248,-142,-297,-168
4680,-88,-1392,-216,-178,-320,-173
4685,-16,-1384,-216,-211,-345,-178
4690,40,-1328,-192,-236,-373,-187
4695,72,-1280,-208,-257,-399,-197
4700,128,-1280,-160,-272,-422,-202
4705,112,-1304,-120,-280,-451,-212
4710,160,-1272,-88,-276,-478,-217
4715,168,-1320,-136,-269,-507,-227
4720,168,-1344,-120,-264,-532,-236
4725,192,-1368,-112,-250,-555,-239
4730,168,-1432,-88,-240,-579,-239
4735,176,-1488,-80,-234,-604,-234
4740,152,-1536,-64,-231,-626,-219
4745,176,-1616,-32,-227,-650,-205
4750,176,-1688,-32,-222,-670,-191
4755,160,-1736,8,-218,-689,-180
4760,160,-1784,40,-215,-707,-171
4765,168,-1816,16,-208,-721,-163
4770,168,-1880,48,-203,-732,-152
4775,152,-1896,64,-197,-746,-138
4780,128,-1888,96,-188,-760,-121
4785,128,-1880,128,-177,-773,-100
4790,112,-1872,128,-165,-781,-71
4795,96,-1824,144,-147,-783,-37
4800,96,-1840,184,-128,-779,4
4805,112,-1776,208,-106,-772,49
4810,96,-1768,208,-81,-759,93
4815,80,-1752,232,-52,-747,141
4820,56,-1680,296,-24,-736,190
4825,56,-1608,320,4,-726,239
4830,40,-1552,328,30,-721,289
4835,56,-1520,384,55,-714,337
4840,48,-1496,376,76,-703,380
4845,64,-1504,336,87,-683,415
4850,40,-1520,352,88,-657,440
4855,104,-1560,312,74,-628,456
4860,104,-1608,232,50,-594,463
4865,144,-1664,216,15,-555,462
4870,144,-1744,152,-32,-513,454
4875,160,-1808,104,-84,-472,436
4880,160,-1888,72,-134,-437,412
4885,176,-1928,88,-175,-404,381
4890,200,-1976,96,-201,-371,347
4895,224,-2040,160,-210,-338,308
4900,208,-2120,192,-199,-300,260
4905,216,-2224,240,-172,-259,210
4910,248,-2336,336,-140,-217,152
4915,240,-2408,424,-107,-175,89
4920,248,-2488,480,-78,-134,21
4925,256,-2552,560,-54,-97,-49
4930,232,-2592,568,-42,-67,-116
4935,256,-2608,576,-35,-43,-178
4940,248,-2568,616,-27,-30,-232
4945,216,-2584,664,-13,-29,-280
4950,152,-2504,672,14,-37,-307
4955,104,-2400,712,49,-53,-317
4960,152,-2296,696,95,-78,-315
4965,144,-2168,624,132,-108,-305
4970,104,-2128,552,149,-135,-288
4975,16,-2096,432,149,-151,-278
4980,-48,-2168,272,116,-145,-281
4985,-88,-2288,128,42,-121,-297
4990,-168,-2376,80,-69,-86,-323
4995,-208,-2552,48,-196,-46,-346
5000,-224,-2696,-8,-319,-12,-364
5005,-176,-2864,-32,-426,14,-380
5010,-128,-2960,-88,-498,32,-395
5015,-24,-3072,-96,-521,42,-414
5020,40,-3112,-80,-497,47,-426
5025,104,-3104,-96,-435,42,-434
5030,176,-3048,-160,-340,29,-423
5035,184,-2968,-200,-231,8,-398
5040,232,-2864,-376,-121,-9,-354
5045,192,-2736,-464,-32,-22,-298
5050,264,-2648,-600,31,-36,-238
5055,248,-2520,-712,76,-52,-178
5060,152,-2376,-760,103,-84,-126
5065,88,-2232,-784,123,-139,-80
5070,16,-2080,-792,141,-211,-35
5075,-24,-1944,-872,158,-286,4
5080,-104,-1776,-872,169,-350,33
5085,-136,-1624,-864,168,-396,48
5090,-192,-1544,-808,156,-423,51
5095,-208,-1480,-768,128,-428,41
5100,-288,-1456,-736,85,-418,20
5105,-280,-1528,-632,29,-398,-1
5110,-296,-1560,-536,-31,-377,-20
5115,-256,-1664,-464,-87,-357,-37
5120,-240,-1776,-360,-130,-338,-52
5125,-256,-1872,-336,-166,-314,-60
5130,-240,-1960,-288,-197,-280,-59
5135,-232,-2032,-264,-221,-229,-50
5140,-216,-2104,-304,-235,-162,-39
5145,-168,-2192,-304,-249,-84,-25
5150,-136,-2224,-328,-265,0,-7
5155,-56,-2320,-320,-279,81,12
5160,-48,-2376,-336,-295,152,32
5165,0,-2392,-352,-303,211,54
5170,48,-2408,-312,-303,259,85
5175,128,-2416,-264,-295,292,118
5180,184,-2416,-288,-282,312,151
5185,240,-2424,-224,-259,321,181
5190,232,-2376,-216,-232,324,209
5195,240,-2344,-216,-201,320,234
5200,232,-2296,-224,-167,313,257
5205,272,-2224,-240,-136,307,276
5210,200,-2120,-240,-110,296,289
5215,176,-2048,-216,-97,277,299
5220,104,-1936,-248,-94,249,307
5225,64,-1832,-280,-100,215,317
5230,40,-1728,-296,-108,179,329
5235,-24,-1616,-304,-121,148,338
5240,-48,-1568,-352,-138,123,348
5245,-136,-1464,-328,-157,105,359
5250,-128,-1416,-376,-176,95,372
5255,-168,-1360,-328,-195,95,383
5260,-184,-1312,-336,-214,103,388
5265,-224,-1312,-320,-231,117,390
5270,-248,-1320,-296,-252,135,384
5275,-288,-1328,-272,-271,158,379
5280,-320,-1376,-192,-283,179,372
5285,-328,-1424,-152,-289,199,367
5290,-320,-1480,-88,-288,219,352
5295,-328,-1528,-72,-282,241,334
5300,-336,-1584,-64,-273,268,317
5305,-304,-1656,-40,-262,302,299
5310,-344,-1736,-56,-251,344,273
5315,-272,-1792,-88,-235,384,257
5320,-248,-1808,-80,-226,430,237
5325,-216,-1856,-72,-229,475,205
5330,-208,-1912,-48,-234,511,173
5335,-176,-1936,-40,-234,539,154
5340,-136,-1976,-48,-230,562,144
5345,-128,-1984,-8,-218,579,136
5350,-104,-1968,48,-199,591,130
5355,-96,-1960,56,-179,598,122
5360,-72,-1968,64,-160,604,116
5365,-16,-1952,80,-143,609,107
5370,-32,-1928,64,-127,614,100
5375,32,-1912,64,-114,621,94
5380,16,-1872,96,-104,630,83
5385,72,-1848,88,-91,640,73
5390,64,-1792,80,-81,655,60
5395,80,-1784,104,-71,672,45
5400,96,-1752,112,-59,687,30
5405,112,-1744,160,-48,706,9
5410,96,-1760,200,-34,728,-12
5415,80,-1768,224,-21,750,-35
5420,56,-1800,264,-6,777,-60
5425,32,-1832,288,12,805,-85
5430,-8,-1864,320,30,836,-114
5435,-40,-1936,312,50,862,-140
5440,-48,-1944,296,74,885,-167
5445,0,-1984,336,102,905,-194
5450,-56,-1960,312,129,926,-219
5455,-64,-1952,304,154,948,-243
5460,-64,-1904,304,176,965,-264
5465,-72,-1856,256,189,979,-288
5470,-104,-1800,264,198,983,-308
5475,-88,-1784,248,207,986,-324
5480,-80,-1776,256,216,988,-336
5485,-112,-1736,256,217,992,-345
5490,-112,-1752,304,208,996,-354
5495,-120,-1800,328,194,1000,-362
5500,-128,-1840,352,172,999,-371
5505,-168,-1888,448,155,994,-378
5510,-240,-1928,504,139,983,-387
5515,-304,-2016,568,131,967,-394
5520,-336,-2072,632,124,945,-398
5525,-408,-2112,640,126,916,-395
5530,-480,-2136,592,130,877,-384
5535,-512,-2168,592,132,829,-368
5540,-560,-2192,504,128,773,-347
5545,-616,-2200,360,114,707,-319
5550,-632,-2168,216,89,631,-285
5555,-688,-2192,80,49,550,-249
5560,-752,-2192,-72,-2,462,-206
5565,-784,-2232,-192,-60,370,-162
5570,-808,-2288,-272,-119,280,-121
5575,-880,-2368,-360,-176,195,-78
5580,-920,-2464,-360,-221,114,-36
5585,-944,-2600,-360,-258,40,4
5590,-1048,-2728,-296,-271,-26,44
5595,-976,-2912,-312,-262,-84,82
5600,-976,-3008,-256,-235,-126,118
5605,-1008,-3088,-176,-188,-150,156
5610,-984,-3168,-144,-129,-164,202
5615,-952,-3184,-72,-65,-170,255
5620,-856,-3240,-72,7,-172,318
5625,-680,-3232,-96,91,-164,385
5630,-536,-3216,-256,176,-145,451
5635,-336,-3136,-424,254,-117,506
5640,-72,-3056,-600,313,-80,543
5645,184,-2920,-752,350,-45,551
5650,408,-2760,-944,368,-12,530
5655,608,-2600,-1048,364,25,484
5660,752,-2432,-1152,349,59,427
5665,848,-2248,-1176,319,95,368
5670,928,-2104,-1192,274,130,317
5675,992,-2008,-1144,224,169,270
5680,1064,-1928,-1032,177,212,235
5685,1056,-1880,-896,147,256,201
5690,1088,-1832,-752,135,296,165
5695,1088,-1808,-616,141,325,129
5700,1056,-1816,-536,157,346,88
5705,960,-1856,-440,173,357,50
5710,880,-1904,-376,182,350,15
5715,728,-1920,-352,181,323,-10
5720,584,-1960,-344,168,272,-26
5725,480,-2008,-384,145,203,-37
5730,328,-2064,-416,116,127,-46
5735,168,-2096,-464,79,45,-50
5740,8,-2144,-448,37,-34,-56
5745,-160,-2168,-488,-7,-109,-59
5750,-312,-2200,-504,-51,-176,-59
5755,-464,-2264,-504,-101,-226,-60
5760,-616,-2312,-496,-143,-262,-57
5765,-664,-2360,-512,-186,-277,-61
5770,-736,-2424,-480,-215,-274,-61
5775,-728,-2440,-472,-226,-254,-62
5780,-728,-2440,-408,-219,-216,-65
5785,-656,-2456,-336,-191,-168,-76
5790,-600,-2416,-272,-145,-118,-89
5795,-496,-2360,-240,-83,-70,-103
5800,-416,-2352,-176,-18,-33,-119
5805,-312,-2248,-184,41,-8,-134
5810,-208,-2176,-160,95,6,-144
5815,-128,-2072,-200,137,12,-153
5820,-80,-1984,-200,164,11,-167
5825,-24,-1904,-176,180,12,-176
5830,72,-1832,-224,178,14,-187
5835,120,-1744,-232,168,17,-194
5840,168,-1704,-272,148,19,-198
5845,208,-1672,-256,121,22,-201
5850,288,-1624,-264,88,20,-204
5855,304,-1584,-240,56,16,-206
5860,320,-1584,-192,18,7,-208
5865,352,-1584,-168,-14,-11,-214
5870,368,-1584,-152,-37,-34,-218
5875,384,-1576,-128,-52,-62,-223
5880,392,-1608,-80,-55,-89,-229
5885,392,-1616,-88,-55,-120,-239
5890,376,-1672,-104,-54,-149,-250
5895,312,-1688,-96,-50,-182,-259
5900,240,-1744,-72,-48,-215,-264
5905,224,-1808,-88,-43,-248,-267
5910,152,-1848,-72,-33,-278,-267
5915,120,-1864,-120,-21,-302,-268
5920,72,-1864,-160,-16,-329,-274
5925,24,-1872,-160,-26,-347,-281
5930,-16,-1880,-152,-46,-357,-289
5935,-72,-1880,-112,-71,-368,-298
5940,-96,-1896,-128,-92,-376,-307
5945,-128,-1888,-112,-107,-380,-315
5950,-152,-1888,-80,-117,-383,-318
5955,-192,-1896,-64,-117,-383,-320
5960,-208,-1872,-64,-111,-388,-321
5965,-216,-1824,-40,-102,-393,-319
5970,-192,-1832,0,-98,-400,-320
5975,-208,-1808,0,-90,-407,-317
5980,-160,-1792,-16,-88,-419,-304
5985,-128,-1768,16,-92,-435,-291
5990,-104,-1736,48,-100,-448,-276
5995,-64,-1688,48,-112,-456,-259
6000,-8,-1664,48,-124,-458,-242
6005,0,-1632,64,-136,-460,-223
6010,80,-1648,56,-141,-463,-203
6015,128,-1632,72,-143,-468,-188
6020,176,-1656,96,-141,-472,-170
6025,208,-1672,64,-134,-475,-156
6030,256,-1680,80,-125,-478,-142
6035,304,-1696,72,-114,-478,-127
6040,272,-1696,72,-108,-475,-110
6045,304,-1728,72,-103,-470,-93
6050,304,-1768,80,-97,-463,-77
6055,296,-1808,80,-94,-457,-61
6060,264,-1808,96,-90,-449,-46
6065,256,-1824,120,-84,-441,-31
6070,248,-1832,96,-78,-434,-18
6075,216,-1840,88,-73,-426,-3
6080,160,-1832,96,-66,-418,11
6085,136,-1840,120,-63,-415,26
6090,96,-1808,104,-59,-414,43
6095,64,-1808,120,-52,-418,65
6100,48,-1808,120,-45,-425,87
6105,8,-1768,160,-43,-432,109
6110,-8,-1752,168,-42,-436,130
6115,0,-1728,184,-41,-438,149
6120,-16,-1696,248,-42,-433,163
6125,-8,-1712,240,-44,-426,176
6130,8,-1728,248,-43,-421,186
6135,16,-1720,328,-41,-424,192
6140,-8,-1728,336,-41,-434,197
6145,-8,-1728,336,-44,-454,200
6150,-16,-1736,352,-55,-479,206
6155,0,-1776,384,-66,-503,209
6160,-8,-1744,408,-75,-523,210
6165,8,-1776,400,-80,-538,212
6170,8,-1824,448,-85,-551,210
6175,0,-1800,464,-89,-560,206
6180,0,-1808,456,-88,-567,201
6185,-8,-1856,424,-91,-573,193
6190,-8,-1896,456,-96,-577,185
6195,0,-1952,448,-100,-577,180
6200,40,-2000,480,-102,-576,176
6205,56,-2048,472,-107,-578,172
6210,72,-2112,496,-110,-583,165
6215,96,-2192,536,-117,-592,160
6220,104,-2208,552,-122,-602,152
6225,128,-2232,520,-123,-616,141
6230,120,-2248,520,-137,-631,127
6235,120,-2240,552,-153,-646,112
6240,128,-2232,568,-160,-657,100
6245,80,-2224,544,-161,-663,86
6250,104,-2232,520,-161,-664,79
6255,64,-2208,496,-165,-659,75
6260,104,-2208,472,-169,-647,72
6265,128,-2200,464,-165,-625,73
6270,184,-2200,416,-159,-595,79
6275,200,-2216,384,-161,-559,85
6280,232,-2208,328,-172,-518,92
6285,256,-2240,264,-194,-474,97
6290,312,-2272,208,-226,-425,105
6295,336,-2280,104,-267,-373,110
6300,392,-2312,32,-313,-320,116
6305,416,-2360,-40,-362,-264,113
6310,416,-2408,-136,-406,-209,104
6315,448,-2440,-224,-444,-152,96
6320,488,-2544,-328,-480,-95,76
6325,536,-2544,-416,-500,-37,62
6330,624,-2552,-528,-517,29,49
6335,656,-2600,-600,-547,96,15
6340,640,-2584,-680,-587,158,-32
6345,672,-2688,-712,-634,220,-73
6350,688,-2888,-608,-662,284,-97
6355,640,-2960,-512,-642,323,-132
6360,632,-2952,-536,-564,325,-170
6365,584,-2904,-552,-473,312,-195
6370,528,-2816,-576,-394,293,-202
6375,432,-2808,-608,-336,272,-205
6380,320,-2736,-608,-283,254,-198
6385,208,-2672,-688,-222,236,-187
6390,40,-2552,-760,-164,213,-170
6395,-80,-2464,-808,-114,184,-149
6400,-136,-2296,-912,-71,159,-122
6405,-240,-2096,-888,-35,139,-93
6410,-296,-1976,-928,0,118,-66
6415,-352,-1864,-888,32,100,-41
6420,-400,-1728,-880,61,83,-20
6425,-432,-1608,-856,89,62,3
6430,-400,-1552,-792,111,43,27
6435,-400,-1472,-776,124,28,54
6440,-400,-1408,-720,128,15,80
6445,-408,-1368,-712,122,7,106
6450,-424,-1368,-680,106,8,131
6455,-392,-1376,-648,77,18,154
6460,-352,-1424,-656,41,36,173
6465,-296,-1472,-592,-8,72,181
6470,-280,-1480,-600,-67,118,179
6475,-216,-1592,-528,-133,169,175
6480,-152,-1672,-528,-199,219,164
6485,-120,-1808,-464,-267,264,155
6490,-56,-1928,-424,-318,303,140
6495,0,-1992,-424,-341,332,117
6500,64,-2096,-424,-353,356,95
6505,120,-2208,-392,-355,373,73
6510,144,-2288,-400,-349,385,53
6515,184,-2368,-384,-331,392,37
6520,200,-2376,-424,-310,396,27
6525,176,-2408,-392,-294,394,25
6530,160,-2472,-336,-285,387,30
6535,128,-2472,-328,-262,369,34
6540,80,-2456,-360,-235,347,47
6545,32,-2392,-320,-216,325,68
6550,32,-2368,-304,-200,304,90
6555,-56,-2288,-304,-182,284,109
6560,-96,-2224,-312,-158,266,135
6565,-112,-2152,-296,-144,256,163
6570,-144,-2056,-272,-128,245,184
6575,-152,-2016,-320,-109,236,205
6580,-160,-1944,-312,-93,232,223
6585,-176,-1848,-312,-82,235,236
6590,-224,-1776,-328,-84,242,245
6595,-192,-1728,-312,-96,255,248
6600,-224,-1648,-256,-112,272,246
6605,-232,-1592,-264,-129,290,242
6610,-176,-1544,-216,-149,308,236
6615,-168,-1528,-256,-163,326,230
6620,-152,-1512,-208,-175,345,220
6625,-128,-1496,-224,-182,364,208
6630,-128,-1512,-200,-184,380,192
6635,-120,-1480,-184,-179,391,178
6640,-120,-1512,-192,-184,405,173
6645,-120,-1472,-216,-194,420,173
6650,-72,-1656,-128,-224,440,179
6655,-88,-1696,-120,-220,449,161
6660,-80,-1792,-88,-190,455,141
6665,-120,-1776,-160,-149,464,125
6670,-80,-1768,-208,-123,472,116
6675,-88,-1880,-160,-121,479,117
6680,-96,-1912,-160,-127,485,119
6685,-104,-1960,-168,-117,491,118
6690,-96,-1976,-136,-98,494,112
6695,-112,-1960,-168,-86,494,113
6700,-112,-1976,-128,-81,490,118
6705,-104,-1968,-88,-80,483,124
6710,-112,-1984,-128,-75,474,129
6715,-112,-1992,-80,-71,466,133
6720,-112,-1984,-64,-63,457,135
6725,-120,-1976,-88,-51,448,136
6730,-128,-1960,-80,-38,442,132
6735,-144,-1960,-72,-26,437,126
6740,-144,-1920,-32,-14,430,115
6745,-144,-1896,-72,0,421,101
6750,-200,-1856,-8,14,414,85
6755,-208,-1808,-8,27,404,70
6760,-224,-1776,16,36,391,55
6765,-240,-1728,-32,42,382,39
6770,-248,-1704,-32,45,376,27
6775,-248,-1720,-16,45,372,15
6780,-264,-1688,8,43,366,6
6785,-280,-1672,-32,38,362,0
6790,-288,-1648,8,33,359,-5
6795,-264,-1712,24,29,355,-9
6800,-264,-1744,64,24,349,-13
6805,-240,-1792,72,19,341,-16
6810,-224,-1856,80,13,332,-23
6815,-200,-1880,80,9,324,-31
6820,-184,-1920,96,11,315,-39
6825,-136,-1960,112,14,310,-49
6830,-128,-2000,128,18,306,-59
6835,-128,-1984,104,26,303,-70
6840,-112,-1992,120,36,302,-81
6845,-80,-1992,112,46,301,-90
6850,-48,-1992,96,59,302,-99
6855,-56,-1968,120,72,305,-108
6860,-64,-1928,120,84,311,-115
6865,-40,-1880,136,96,318,-121
6870,-16,-1864,160,105,328,-126
6875,-8,-1880,168,112,340,-129
6880,-8,-1880,224,113,353,-129
6885,48,-1880,240,115,366,-129
6890,-32,-1896,208,110,379,-128
6895,-32,-1880,216,104,393,-126
6900,-72,-1912,224,99,401,-124
6905,-72,-1936,256,96,405,-120
6910,-80,-1960,224,95,404,-118
6915,-104,-1944,224,97,397,-116
6920,-128,-1952,192,100,389,-115
6925,-128,-1984,104,102,379,-111
6930,-168,-1984,96,98,368,-107
6935,-208,-1992,40,85,359,-104
6940,-184,-2024,-8,66,352,-106
6945,-192,-2024,-64,41,345,-108
6950,-192,-2048,-112,14,326,-112
6955,-208,-2040,-104,-12,304,-114
6960,-208,-2088,-136,-29,273,-111
6965,-224,-2112,-152,-45,232,-108
6970,-248,-2128,-176,-60,189,-102
6975,-280,-2160,-200,-75,148,-92
6980,-304,-2176,-184,-91,114,-82
6985,-328,-2176,-168,-107,83,-70
6990,-352,-2224,-136,-119,52,-57
6995,-352,-2272,-128,-125,24,-39
7000,-392,-2304,-64,-123,-1,-20
7005,-432,-2344,-40,-112,-22,0
7010,-416,-2408,72,-90,-41,26
7015,-368,-2480,128,-61,-53,51
7020,-352,-2480,168,-25,-65,77
7025,-328,-2496,168,9,-75,101
7030,-296,-2504,240,36,-79,130
7035,-240,-2512,184,61,-84,148
7040,-200,-2448,136,98,-82,161
7045,-128,-2416,112,122,-77,176
7050,-112,-2312,56,141,-69,180
7055,-48,-2240,32,157,-69,173
7060,-8,-2104,-56,182,-75,155
7065,32,-2056,-80,197,-89,131
7070,8,-1944,-128,212,-109,97
7075,8,-1864,-184,214,-131,69
7080,-64,-1736,-304,204,-151,43
7085,-96,-1672,-368,169,-166,27
7090,-160,-1624,-456,117,-179,12
7095,-184,-1592,-512,53,-188,-3
7100,-216,-1592,-560,-9,-192,-18
7105,-256,-1584,-608,-70,-193,-33
7110,-264,-1560,-600,-120,-187,-46
7115,-240,-1528,-600,-162,-184,-62
7120,-224,-1536,-528,-193,-190,-78
7125,-152,-1536,-424,-210,-213,-92
7130,-128,-1560,-320,-211,-253,-101
7135,-136,-1632,-240,-193,-313,-109
7140,-128,-1656,-176,-150,-380,-103
7145,-128,-1688,-120,-94,-447,-91
7150,-160,-1752,-104,-34,-508,-68
7155,-160,-1776,-80,11,-558,-43
7160,-200,-1824,-120,43,-596,-13
7165,-208,-1864,-192,61,-623,12
7170,-208,-1912,-208,62,-641,29
7175,-208,-1976,-248,54,-650,40
7180,-184,-1976,-296,41,-655,46
7185,-160,-2032,-280,27,-660,46
7190,-120,-2048,-288,8,-661,44
7195,-72,-2048,-280,-13,-658,36
7200,-24,-2072,-264,-29,-653,32
7205,24,-1992,-264,-43,-652,25
7210,80,-2000,-232,-53,-657,23
7215,88,-1944,-216,-59,-666,26
7220,120,-1880,-192,-56,-679,31
7225,152,-1824,-200,-52,-694,38
7230,120,-1760,-184,-51,-709,48
7235,96,-1712,-248,-52,-722,54
7240,72,-1720,-216,-60,-735,63
7245,24,-1704,-176,-60,-744,75
7250,40,-1672,-184,-68,-751,82
7255,-8,-1632,-152,-82,-759,85
7260,-8,-1560,-192,-106,-770,87
7265,0,-1544,-184,-153,-780,82
7270,-32,-1640,-136,-211,-792,76
7275,-32,-1648,-96,-240,-805,72
7280,24,-1712,-120,-228,-819,65
7285,16,-1720,-112,-193,-828,56
7290,8,-1696,-136,-150,-837,37
7295,48,-1712,-120,-119,-844,15
7300,-16,-1648,-160,-107,-846,-8
7305,56,-1768,-112,-119,-841,-12
7310,56,-1744,-120,-120,-835,-35
7315,104,-1736,-64,-108,-829,-42
7320,104,-1744,-80,-94,-819,-46
7325,144,-1760,-32,-78,-811,-48
7330,176,-1640,-104,-43,-803,-40
7335,232,-1736,48,-24,-796,-34
7340,184,-1664,64,41,-801,-47
7345,224,-1632,56,114,-804,-44
7350,240,-1608,88,171,-802,-37
7355,216,-1552,104,220,-799,-36
7360,248,-1528,152,259,-793,-42
7365,280,-1536,216,286,-784,-44
7370,272,-1520,232,305,-776,-47
7375,360,-1504,256,319,-770,-48
7380,384,-1512,240,327,-766,-52
7385,400,-1520,272,333,-761,-58
7390,408,-1528,296,334,-759,-59
7395,440,-1480,256,332,-752,-58
7400,472,-1480,272,308,-734,-53
7405,448,-1464,200,278,-702,-61
7410,464,-1464,144,244,-667,-72
7415,432,-1432,88,204,-632,-86
7420,456,-1400,24,166,-601,-96
7425,464,-1360,-24,120,-578,-106
7430,424,-1328,-24,73,-561,-118
7435,408,-1320,-104,37,-555,-124
7440,392,-1272,-184,9,-556,-127
7445,368,-1176,-168,-23,-553,-127
7450,368,-1112,-136,-70,-539,-109
7455,304,-1024,-200,-125,-507,-98
7460,224,-1000,-208,-176,-457,-86
7465,168,-920,-248,-222,-410,-68
7470,168,-896,-304,-277,-372,-35
7475,96,-824,-368,-331,-341,11
7480,80,-824,-408,-376,-320,57
7485,56,-800,-440,-415,-311,102
7490,72,-792,-456,-454,-313,138
7495,88,-776,-464,-501,-332,168
7500,96,-792,-480,-550,-367,190
7505,64,-784,-456,-599,-420,209
7510,8,-760,-432,-643,-478,228
7515,-8,-768,-384,-686,-534,250
7520,-24,-792,-312,-726,-581,272
7525,-64,-824,-304,-771,-622,296
7530,-96,-848,-232,-820,-653,317
7535,-112,-840,-296,-876,-677,335
7540,-96,-864,-376,-933,-686,353
7545,-128,-832,-464,-990,-687,371
7550,-144,-848,-512,-1045,-685,390
7555,-192,-872,-536,-1105,-686,412
7560,-176,-872,-528,-1161,-690,434
7565,-200,-880,-520,-1220,-697,458
7570,-152,-920,-528,-1280,-708,477
7575,-144,-928,-528,-1341,-720,500
7580,-112,-944,-536,-1402,-722,526
7585,-32,-1008,-664,-1461,-689,559
7590,96,-1104,-776,-1525,-632,592
7595,240,-1176,-936,-1596,-551,625
7600,400,-1288,-1120,-1690,-441,663
7605,624,-1424,-1264,-1800,-301,702
7610,864,-1648,-1416,-1917,-140,741
7615,1088,-1952,-1528,-2028,27,782
7620,1312,-2320,-1616,-2119,192,822
7625,1504,-2760,-1608,-2184,344,861
7630,1832,-3384,-1632,-2254,474,848
7635,2016,-4096,-1608,-2331,594,818
7640,1856,-4976,-1712,-2432,704,770
7645,1344,-6112,-2008,-2598,757,706
7650,896,-7096,-2176,-2810,706,658
7655,192,-7744,-2432,-3021,620,604
7660,-416,-7968,-2608,-3196,566,560
7665,-768,-7544,-2816,-3279,566,539
7670,-808,-6616,-2928,-3284,580,542
7675,-968,-5680,-2976,-3254,590,574
7680,-1192,-4960,-2896,-3238,545,636
7685,-1552,-4400,-2784,-3251,445,689
7690,-1816,-4040,-2568,-3283,322,737
7695,-2064,-3592,-2448,-3288,204,771
7700,-2192,-3248,-2280,-3297,112,773
7705,-2312,-2864,-2104,-3324,54,751
7710,-2408,-2512,-1848,-3359,38,717
7715,-2480,-2176,-1600,-3396,67,653
7720,-2512,-1856,-1336,-3434,142,566
7725,-2424,-1504,-1008,-3470,254,463
7730,-2304,-1208,-728,-3517,374,353
7735,-2232,-960,-440,-3560,442,210
7740,-2072,-792,-208,-3581,468,82
7745,-1864,-568,-160,-3580,458,2
7750,-1640,-600,-56,-3587,424,-45
7755,-1376,-576,-64,-3603,360,-72
7760,-1136,-584,-200,-3623,270,-88
7765,-928,-632,-328,-3656,186,-105
7770,-784,-760,-408,-3669,118,-123
7775,-704,-976,-480,-3632,67,-132
7780,-624,-1176,-512,-3539,33,-122
7785,-440,-1280,-552,-3376,3,-98
7790,-264,-1360,-648,-3182,-31,-69
7795,-120,-1368,-736,-2998,-74,-45
7800,0,-1376,-792,-2860,-131,-36
7805,136,-1400,-768,-2753,-197,-22
7810,184,-1376,-760,-2654,-261,2
7815,296,-1392,-728,-2563,-325,42
7820,376,-1384,-656,-2496,-411,69
7825,416,-1352,-560,-2460,-500,105
7830,320,-1344,-440,-2448,-578,143
7835,272,-1352,-368,-2448,-627,202
7840,304,-1384,-232,-2465,-653,263
7845,88,-1296,-64,-2482,-652,321
7850,128,-1264,48,-2462,-629,410
7855,128,-1168,64,-2415,-588,494
7860,32,-1160,232,-2352,-549,567
7865,-72,-1088,288,-2269,-546,638
7870,-120,-1016,312,-2178,-589,690
7875,-296,-912,256,-2098,-662,738
7880,-328,-856,200,-2033,-747,771
7885,-440,-704,168,-2000,-829,788
7890,-496,-624,144,-1981,-906,790
7895,-600,-504,96,-1970,-975,777
7900,-784,-376,80,-1954,-1021,746
7905,-816,-256,-8,-1917,-1047,720
7910,-800,-232,-112,-1858,-1044,700
7915,-936,-72,-264,-1786,-1017,678
7920,-776,-80,-368,-1706,-985,667
7925,-904,72,-416,-1639,-957,648
7930,-808,136,-480,-1577,-966,646
7935,-688,192,-552,-1519,-1019,648
7940,-672,240,-672,-1457,-1101,657
7945,-664,312,-808,-1399,-1188,670
7950,-608,352,-952,-1353,-1267,705
7955,-560,352,-1040,-1317,-1342,745
7960,-528,320,-1088,-1292,-1415,790
7965,-456,320,-1224,-1286,-1480,834
7970,-392,336,-1360,-1311,-1533,878
7975,-352,344,-1464,-1353,-1563,923
7980,-336,296,-1536,-1393,-1566,968
7985,-336,248,-1472,-1432,-1560,1015
7990,-400,208,-1456,-1469,-1566,1060
7995,-488,104,-1400,-1492,-1576,1110
8000,-576,72,-1272,-1483,-1608,1171
8005,-544,-32,-1296,-1424,-1662,1232
8010,-624,-16,-1400,-1308,-1696,1320
8015,-488,-88,-1536,-1146,-1692,1429
8020,-496,112,-1392,-990,-1658,1524
8025,-32408,22216,-32192,-2240,2317,2792
8030,13192,3800,13880,-6348,10318,6054
8035,9560,-3040,488,-2028,6226,3420
8040,1048,-3776,-2560,25,3720,1259
8045,-1392,-1768,-1016,-1977,1800,991
8050,-2648,3456,-4032,-3014,766,1581
8055,-2256,6032,-5504,-2801,886,2164
8060,864,8728,-9240,-2723,726,2535
8065,888,6160,-7904,-3256,329,2126
8070,-56,328,-5104,-3999,-716,1382
8075,-1584,-472,-4560,-4278,-1245,1042
8080,-672,-488,-4096,-4406,-1189,907
8085,-2696,-856,-5600,-4120,-909,521
8090,-1520,1352,-5640,-3778,-796,313
8095,-2016,1472,-6896,-3315,-332,-93
8100,-1384,-384,-7264,-2735,214,-396
8105,-1616,784,-6160,-2488,705,-727
8110,-456,-72,-5752,-2289,988,-853
8115,-800,512,-5328,-2084,1126,-946
8120,-1320,1280,-4664,-2082,1227,-891
8125,-2192,1944,-4832,-1821,1336,-837
8130,-1944,2376,-3912,-1741,1406,-731
8135,-952,-576,-3816,-1285,1491,-757
8140,-1640,944,-3672,-1227,1542,-639
8145,-944,-376,-2776,-966,1704,-651
8150,-1424,-208,-2720,-731,1906,-667
8155,-1584,472,-3072,-536,2008,-549
8160,-1432,-128,-2640,-605,2035,-362
8165,96,-1256,-3080,-611,2046,-79
8170,-456,-704,-3016,-616,2208,-123
8175,-512,-104,-3528,-775,2217,-122
8180,-208,-720,-3240,-1208,2168,-70
8185,-200,-1128,-2984,-1791,2174,117
8190,-1264,-1608,-2152,-2481,2168,323
8195,-1008,-1352,-1984,-3044,1856,892
8200,136,-848,-1704,-3792,1730,1204
8205,-448,528,-920,-4859,1889,854
8210,-1168,1200,-128,-6020,1909,501
8215,-184,928,232,-6572,1894,337
8220,-712,1488,208,-6688,1928,137
8225,-488,1208,536,-6536,1858,99
8230,-1632,2512,0,-5885,1793,27
8235,-1272,2712,24,-4985,1724,87
8240,-696,1688,320,-3709,1542,-199
8245,-2168,4288,328,-2185,1210,-510
8250,-2208,4000,208,-349,1013,-310
8255,-1600,2944,-304,1296,887,-137
8260,-568,2128,-528,2510,852,-33
8265,-48,1216,1336,3431,796,-171
8270,-1832,1368,2176,5062,270,-263
8275,-944,1144,776,7175,7,180
8280,-440,704,-1960,8669,591,317
8285,-264,736,-3856,8593,870,182
8290,-208,760,-4768,7442,958,-12
8295,-328,848,-5080,5763,934,-188
8300,0,1072,-5536,3841,728,-325
8305,336,1072,-4952,1689,535,-340
8310,-48,648,-3224,-90,472,-351
8315,8,616,-2216,-873,403,-346
8320,48,1072,-2000,-1110,319,-394
8325,-96,280,-1792,-1134,285,-417
8330,40,272,-1992,-1056,290,-428
8335,-24,472,-2376,-962,316,-425
8340,240,576,-2472,-1045,344,-386
8345,-80,312,-2480,-1144,338,-357
8350,216,1024,-2688,-1222,340,-330
8355,336,792,-2480,-1370,376,-260
8360,48,1352,-2488,-1454,365,-241
8365,216,1152,-2296,-1483,376,-200
8370,328,1208,-2168,-1412,411,-143
8375,200,1456,-2048,-1282,452,-126
8380,24,1272,-2048,-1078,449,-57
8385,176,1528,-2256,-841,450,19
8390,184,1400,-2280,-663,452,106
8395,264,1528,-2424,-504,435,123
8400,344,1328,-2624,-352,379,88
8405,104,1192,-2504,-258,425,75
8410,256,1168,-2400,-206,445,93
8415,256,1232,-2456,-127,428,99
8420,320,1128,-2456,-63,421,128
8425,304,904,-2368,-2,431,83
8430,224,1072,-2432,66,424,27
8435,336,1136,-2400,71,397,-12
8440,96,1264,-2288,74,375,-39
8445,216,1096,-2168,60,344,-15
8450,56,1328,-2064,53,335,-41
8455,112,1344,-1984,69,315,-54
8460,80,1216,-1944,167,337,-72
8465,-96,1200,-1824,293,374,-78
8470,-208,1256,-1752,421,374,-58
8475,-184,1224,-1744,558,360,-29
8480,-232,1304,-1808,667,351,3
8485,-176,1176,-1816,726,341,37
8490,-216,1136,-1864,800,337,67
8495,-152,1160,-1856,862,341,91
8500,-144,1080,-1816,903,347,125
8505,-40,1000,-1824,943,352,161
8510,-40,952,-1864,973,356,184
8515,48,936,-1888,967,354,203
8520,64,880,-1832,955,345,213
8525,112,856,-1800,984,329,217
8530,88,776,-1760,1038,310,212
8535,48,608,-1808,1107,286,201
8540,104,552,-1936,1164,258,190
8545,104,488,-1968,1193,227,171
8550,152,584,-2056,1202,194,148
8555,368,864,-2232,1146,182,132
8560,344,920,-2272,1018,203,122
8565,240,688,-2216,862,225,109
8570,192,568,-2200,755,228,100
8575,176,568,-2208,678,217,94
8580,176,520,-2176,621,206,84
8585,176,576,-2216,584,194,75
8590,128,544,-2184,561,186,71
8595,104,464,-2192,556,178,64
8600,152,496,-2304,553,172,60
8605,160,512,-2280,543,170,60
8610,128,536,-2304,542,175,59
8615,160,488,-2352,529,178,57
8620,136,480,-2336,502,177,53
8625,216,464,-2384,463,186,50
8630,264,440,-2368,419,184,46
8635,208,480,-2392,377,175,42
8640,240,472,-2432,337,167,39
8645,224,464,-2432,299,152,32
8650,208,464,-2392,260,147,28
8655,200,424,-2416,229,140,24
8660,208,432,-2376,209,129,20
8665,256,448,-2408,193,121,16
8670,272,472,-2440,178,108,14
8675,264,496,-2400,159,99,10
8680,240,480,-2360,149,97,9
8685,240,456,-2360,141,88,6
8690,184,432,-2384,130,76,3
8695,232,448,-2320,113,67,1
8700,240,424,-2320,99,61,0
8705,224,392,-2320,84,52,-1
8710,232,424,-2312,71,44,0
8715,224,400,-2280,61,35,-1
8720,240,408,-2248,50,26,-3
8725,240,400,-2272,39,19,-5
8730,224,400,-2280,27,11,-7
8735,232,432,-2296,15,1,-9
8740,208,392,-2272,12,-14,-11
8745,208,408,-2240,11,-27,-11
8750,208,384,-2320,11,-40,-12
8755,184,432,-2296,1,-49,-15
8760,200,416,-2280,-11,-56,-16
8765,168,440,-2288,-27,-62,-17
8770,160,432,-2248,-45,-64,-20
8775,184,408,-2248,-62,-69,-22
8780,168,416,-2224,-77,-74,-23
8785,160,432,-2216,-89,-81,-25
8790,152,416,-2248,-101,-87,-26
8795,136,440,-2216,-116,-95,-27
8800,144,424,-2224,-130,-109,-27
8805,152,416,-2232,-144,-118,-26
8810,136,416,-2248,-156,-125,-24
8815,144,424,-2208,-171,-131,-25
8820,160,448,-2216,-185,-139,-24
8825,168,432,-2216,-197,-145,-24
8830,168,432,-2232,-205,-155,-24
8835,160,432,-2208,-207,-166,-23
8840,160,432,-2176,-201,-180,-24
8845,152,464,-2216,-185,-189,-24
8850,152,432,-2248,-164,-196,-20
8855,168,504,-2248,-140,-205,-25
8860,168,432,-2288,-118,-204,-25
8865,128,496,-2320,-102,-199,-27
8870,152,448,-2352,-96,-199,-29
8875,120,416,-2344,-83,-197,-25
8880,128,488,-2312,-79,-194,-23
8885,184,520,-2360,-83,-192,-18
8890,112,464,-2312,-85,-187,-13
8895,80,472,-2376,-87,-190,-17
8900,96,472,-2320,-97,-190,-17
8905,136,440,-2304,-106,-185,-17
8910,112,472,-2288,-118,-182,-13
8915,120,456,-2312,-128,-180,-12
8920,104,472,-2304,-142,-181,-13
8925,120,520,-2296,-156,-179,-15
8930,72,456,-2248,-171,-182,-14
8935,80,472,-2240,-170,-187,-16
8940,64,512,-2248,-165,-192,-19
8945,88,496,-2232,-157,-194,-19
8950,64,504,-2272,-144,-194,-20
8955,72,520,-2264,-129,-194,-18
8960,72,512,-2240,-118,-190,-17
8965,72,520,-2256,-104,-185,-18
8970,56,520,-2256,-93,-181,-21
8975,40,472,-2216,-86,-176,-25
8980,48,512,-2248,-80,-169,-25
8985,40,480,-2248,-78,-157,-25
8990,56,480,-2264,-73,-143,-24
8995,56,504,-2216,-73,-127,-24
9000,64,504,-2208,-76,-113,-25
9005,40,488,-2240,-78,-100,-26
9010,48,528,-2200,-81,-91,-25
9015,32,520,-2216,-84,-81,-26
9020,32,472,-2176,-88,-76,-26
9025,8,496,-2200,-89,-71,-27
9030,40,488,-2184,-87,-67,-27
9035,32,496,-2160,-79,-66,-26
9040,40,464,-2152,-71,-70,-26
9045,32,504,-2192,-61,-72,-24
9050,16,488,-2200,-49,-72,-25
9055,40,496,-2184,-35,-71,-23
9060,16,488,-2232,-24,-67,-22
9065,32,488,-2264,-18,-60,-21
9070,24,488,-2264,-13,-49,-21
9075,24,472,-2232,-10,-36,-18
9080,16,480,-2248,-6,-23,-16
9085,40,496,-2272,-4,-9,-13
9090,40,512,-2264,-7,7,-11
9095,8,464,-2280,-8,20,-8
9100,16,488,-2296,-7,28,-10
9105,16,488,-2288,-8,37,-12
9110,24,488,-2296,-11,50,-13
9115,24,472,-2296,-12,58,-11
9120,24,464,-2312,-11,59,-11
9125,16,480,-2288,-9,62,-9
9130,48,488,-2312,-9,69,-5
9135,24,528,-2344,-14,77,-4
9140,64,480,-2320,-20,84,-2
9145,56,480,-2288,-28,93,0
9150,64,456,-2304,-35,99,0
9155,32,456,-2312,-41,106,1
9160,32,448,-2296,-42,111,2
9165,48,480,-2288,-46,115,4
9170,56,512,-2280,-52,121,5
9175,56,520,-2248,-61,129,9
9180,64,472,-2264,-71,139,11
9185,72,464,-2240,-79,150,12
9190,80,480,-2232,-87,159,11
9195,104,456,-2208,-91,166,11
9200,80,496,-2232,-95,171,10
9205,88,480,-2200,-96,172,9
9210,56,488,-2208,-95,174,11
9215,80,488,-2192,-91,173,11
9220,88,488,-2216,-85,170,12
9225,72,488,-2208,-75,171,13
9230,104,464,-2232,-68,165,16
9235,96,472,-2232,-63,161,15
9240,128,496,-2224,-61,156,14
9245,112,488,-2256,-56,150,14
9250,112,480,-2240,-56,144,15
9255,104,496,-2248,-53,136,12
9260,112,472,-2240,-52,128,12
9265,104,480,-2256,-52,122,12
9270,88,488,-2264,-49,113,11
9275,104,496,-2248,-48,103,12
9280,104,504,-2256,-46,96,11
9285,112,488,-2264,-46,90,11
9290,112,472,-2272,-46,84,12
9295,104,456,-2296,-46,78,11
9300,128,472,-2264,-45,74,11
9305,112,472,-2288,-46,71,10
9310,104,496,-2264,-47,66,10
9315,96,488,-2288,-50,63,10
9320,128,472,-2208,-53,57,9
9325,104,488,-2264,-56,53,8
9330,96,496,-2248,-59,46,7
9335,120,488,-2264,-61,39,6
9340,104,488,-2272,-65,34,6
9345,136,488,-2232,-67,30,4
9350,96,496,-2240,-70,26,2
9355,112,504,-2240,-73,21,0
9360,112,496,-2240,-77,18,-1
9365,120,496,-2224,-76,12,-3
9370,112,512,-2216,-75,6,-4
9375,104,504,-2256,-72,2,-6
9380,120,488,-2224,-69,-1,-6
9385,104,496,-2208,-66,-6,-8
9390,96,504,-2232,-59,-9,-8
9395,104,488,-2184,-55,-15,-11
9400,128,496,-2216,-51,-19,-11
9405,112,480,-2248,-48,-24,-13
9410,104,496,-2224,-46,-28,-14
9415,104,512,-2248,-44,-31,-14
9420,104,504,-2232,-43,-34,-15
9425,112,496,-2232,-40,-37,-16
9430,104,488,-2240,-40,-41,-17
9435,96,488,-2248,-39,-43,-17
9440,96,480,-2240,-38,-44,-17
9445,80,512,-2224,-38,-46,-17
9450,80,504,-2232,-39,-47,-18
9455,80,496,-2240,-39,-47,-17
9460,96,512,-2280,-39,-48,-17
9465,112,488,-2248,-39,-48,-18
9470,88,488,-2256,-38,-50,-16
9475,104,496,-2264,-37,-50,-16
9480,88,496,-2240,-37,-49,-16
9485,104,504,-2272,-37,-47,-16
9490,104,480,-2288,-36,-46,-15
9495,88,488,-2248,-35,-45,-15
9500,88,504,-2256,-37,-43,-15
9505,88,496,-2272,-36,-41,-14
9510,64,488,-2248,-38,-37,-14
9515,64,488,-2248,-39,-34,-13
9520,88,488,-2288,-42,-30,-12
9525,80,512,-2256,-44,-28,-11
9530,80,480,-2272,-45,-25,-11
9535,80,496,-2240,-47,-23,-11
9540,80,480,-2248,-47,-24,-11
9545,48,496,-2232,-47,-23,-12
9550,88,480,-2240,-47,-22,-11
9555,88,504,-2264,-49,-20,-12
9560,104,488,-2256,-51,-19,-10
9565,80,448,-2288,-53,-18,-10
9570,64,480,-2256,-49,-19,-9
9575,80,464,-2256,-48,-17,-9
9580,64,488,-2256,-46,-16,-8
9585,64,496,-2272,-47,-14,-9
9590,56,496,-2280,-45,-11,-8
9595,56,496,-2240,-46,-10,-7
9600,56,488,-2232,-49,-8,-7
9605,80,496,-2232,-50,-4,-8
9610,64,496,-2240,-54,-2,-7
9615,64,496,-2224,-55,2,-8
9620,64,480,-2248,-55,6,-7
9625,64,504,-2272,-52,8,-7
9630,88,480,-2256,-52,10,-6
9635,48,512,-2280,-50,11,-5
9640,64,480,-2240,-52,14,-5
9645,64,488,-2264,-54,18,-4
9650,72,488,-2256,-55,21,-4
9655,80,504,-2224,-55,26,-3
9660,64,496,-2224,-54,27,-2
9665,80,480,-2240,-55,28,-2
9670,48,504,-2264,-54,29,-3
9675,24,512,-2224,-55,30,-3
9680,88,504,-2248,-54,32,-3
9685,72,496,-2256,-55,32,-3
9690,96,496,-2288,-55,33,-2
9695,88,480,-2264,-55,35,-2
9700,56,496,-2256,-54,35,-2
9705,80,512,-2272,-54,37,0
9710,80,496,-2256,-53,38,-1
9715,104,496,-2256,-54,38,-2
9720,64,496,-2256,-55,39,0
9725,80,496,-2248,-55,40,-1
9730,120,448,-2232,-54,40,0
9735,72,488,-2224,-54,42,0
9740,104,496,-2256,-53,42,0
9745,88,496,-2248,-51,42,0
9750,64,504,-2240,-52,42,0
9755,80,488,-2256,-51,43,1
9760,88,480,-2248,-49,45,-1
9765,88,496,-2232,-49,45,0
9770,104,488,-2232,-47,46,1
9775,80,488,-2248,-48,45,0
9780,96,520,-2256,-47,45,0
9785,48,432,-2336,-47,43,0
9790,96,504,-2240,-48,42,0
9795,88,504,-2216,-48,42,0
9800,72,504,-2216,-49,42,-2
9805,96,496,-2232,-49,40,-1
9810,88,520,-2264,-51,39,-1
9815,96,496,-2256,-49,40,-1
9820,72,504,-2232,-49,41,-1
9825,72,504,-2240,-48,39,-2
9830,104,520,-2240,-48,39,-2
9835,56,512,-2264,-46,37,-3
9840,96,496,-2264,-49,36,-2
9845,80,528,-2248,-47,34,-2
9850,80,504,-2248,-47,33,-3
9855,96,488,-2272,-46,31,-2
9860,96,480,-2248,-47,30,-3
9865,96,488,-2280,-47,29,-4
9870,88,496,-2224,-45,26,-4
9875,104,512,-2272,-47,25,-5
9880,80,504,-2264,-48,23,-5
9885,88,480,-2264,-48,22,-5
9890,112,488,-2248,-47,19,-5
9895,80,488,-2232,-49,17,-6
9900,96,464,-2264,-50,16,-4
9905,88,488,-2240,-50,14,-4
9910,96,496,-2240,-50,13,-5
9915,80,504,-2248,-51,11,-6
9920,104,496,-2288,-51,11,-5
9925,72,504,-2240,-52,8,-4
9930,88,528,-2248,-52,6,-4
9935,96,488,-2248,-52,5,-5
9940,112,504,-2256,-53,5,-7
9945,88,520,-2256,-52,4,-6
9950,72,496,-2224,-50,4,-6
9955,64,496,-2232,-53,4,-7
9960,104,504,-2240,-52,4,-7
9965,72,520,-2256,-53,4,-7
9970,56,512,-2256,-51,4,-8
9975,96,496,-2272,-51,4,-8
9980,72,496,-2248,-51,3,-7
9985,88,512,-2248,-51,2,-8
9990,80,504,-2240,-51,2,-7
9995,80,504,-2248,-51,2,-8
10000,104,488,-2208,-51,1,-6
10005,88,496,-2240,-52,2,-8
10010,96,512,-2240,-50,3,-8
10015,88,504,-2256,-51,2,-7
10020,88,496,-2264,-51,3,-8
10025,80,496,-2256,-52,5,-7
10030,80,512,-2272,-51,4,-8
10035,96,480,-2224,-50,4,-6
10040,72,488,-2240,-49,6,-7
10045,80,504,-2248,-50,6,-7
10050,96,488,-2256,-48,5,-7
10055,96,496,-2248,-47,5,-6
10060,96,472,-2248,-48,7,-6
10065,80,480,-2232,-47,7,-5
10070,72,512,-2240,-48,8,-8
10075,96,504,-2248,-48,9,-6
10080,80,488,-2224,-48,9,-6
10085,80,504,-2240,-48,8,-5
10090,72,488,-2248,-48,9,-6
10095,80,488,-2248,-48,11,-5
10100,72,504,-2256,-49,11,-6
10105,80,488,-2256,-50,11,-6
10110,24,432,-2224,-52,13,-5
10115,72,496,-2232,-51,13,-5
10120,64,496,-2248,-52,14,-5
10125,48,512,-2256,-51,15,-4
10130,64,512,-2264,-50,14,-5
10135,96,512,-2264,-48,14,-5
10140,88,512,-2224,-48,14,-6
10145,64,504,-2248,-46,14,-4
10150,72,504,-2248,-46,15,-5
10155,80,520,-2256,-47,17,-5
10160,72,512,-2232,-48,20,-3
10165,80,512,-2256,-48,20,-3
10170,64,504,-2264,-47,20,-3
10175,96,488,-2240,-47,20,-3
10180,72,496,-2256,-47,23,-3
10185,96,496,-2248,-47,23,-4
10190,56,504,-2264,-48,23,-4
10195,104,504,-2248,-48,23,-5
10200,88,488,-2264,-50,23,-3
10205,104,488,-2256,-54,22,-4
10210,88,512,-2216,-53,22,-4
10215,88,488,-2248,-49,24,-4
10220,72,520,-2232,-45,23,-3
10225,96,488,-2288,-42,24,-3
10230,96,488,-2280,-44,25,-3
10235,88,496,-2248,-43,25,-4
10240,72,512,-2240,-45,27,-3
10245,72,504,-2256,-46,27,-3
10250,64,512,-2264,-46,29,-4
10255,88,496,-2224,-45,29,-4
10260,80,496,-2232,-48,28,-3
10265,88,512,-2248,-51,28,-4
10270,96,496,-2264,-53,27,-4
10275,96,488,-2256,-53,25,-3
10280,80,504,-2224,-55,22,-3
10285,96,512,-2256,-52,25,-4
10290,104,496,-2232,-49,27,-3
10295,80,520,-2248,-49,28,-3
10300,88,504,-2256,-48,25,-3
10305,88,480,-2248,-47,25,-4
10310,88,528,-2232,-49,23,-4
10315,88,504,-2232,-49,24,-4
10320,80,496,-2216,-48,23,-4
10325,64,504,-2240,-49,22,-3
10330,72,568,-2280,-49,21,-3
10335,72,520,-2256,-51,22,-4
10340,72,512,-2264,-50,22,-6
10345,96,480,-2240,-51,23,-4
10350,88,504,-2232,-51,22,-4
10355,96,520,-2240,-50,22,-4
10360,72,504,-2256,-49,22,-4
10365,80,504,-2248,-50,21,-6
10370,72,504,-2240,-49,19,-5
10375,96,496,-2256,-49,19,-6
10380,80,520,-2248,-48,17,-5
10385,88,512,-2232,-48,17,-6
10390,88,512,-2248,-46,17,-7
10395,80,504,-2256,-47,16,-6
10400,88,504,-2256,-47,16,-6
10405,96,512,-2280,-48,14,-5
10410,96,496,-2256,-49,15,-7
10415,104,520,-2256,-50,15,-6
10420,112,512,-2240,-50,14,-6
10425,80,504,-2240,-50,14,-6
10430,80,520,-2240,-49,15,-6
10435,80,512,-2224,-50,15,-6
10440,80,520,-2240,-49,15,-5
10445,96,496,-2232,-50,15,-5
10450,80,520,-2248,-50,15,-5
10455,96,488,-2288,-51,14,-6
10460,72,512,-2224,-49,14,-6
10465,88,488,-2272,-50,14,-6
10470,88,480,-2232,-49,14,-5
10475,96,496,-2224,-51,14,-5
10480,96,472,-2280,-51,14,-6
10485,72,512,-2232,-52,13,-7
10490,72,504,-2264,-52,13,-5
10495,80,504,-2256,-51,13,-4
10500,96,504,-2256,-53,14,-4
10505,88,488,-2248,-51,14,-6
10510,80,512,-2248,-52,13,-5
10515,72,512,-2224,-52,13,-5
10520,96,504,-2224,-51,13,-7
10525,56,504,-2264,-52,13,-6
10530,88,496,-2248,-50,12,-6
10535,104,496,-2232,-50,12,-5
10540,88,504,-2240,-50,13,-5
10545,88,488,-2240,-51,12,-6
10550,88,512,-2224,-50,12,-5
10555,88,488,-2248,-50,12,-5
10560,64,504,-2232,-50,13,-7
10565,88,512,-2264,-51,14,-5
10570,72,512,-2256,-51,14,-5
10575,104,504,-2240,-51,15,-5
10580,88,512,-2248,-52,16,-6
10585,96,504,-2224,-52,17,-5
10590,96,512,-2240,-52,15,-5
10595,80,496,-2248,-51,16,-5
10600,96,520,-2224,-50,15,-4
10605,72,512,-2248,-52,16,-6
10610,88,496,-2232,-52,16,-5
10615,88,520,-2232,-51,17,-5
10620,88,504,-2224,-48,17,-6
10625,88,512,-2224,-47,16,-5
10630,96,496,-2240,-48,17,-5
10635,80,504,-2240,-47,16,-6
10640,72,512,-2216,-47,16,-4
10645,104,504,-2224,-48,16,-5
10650,72,520,-2248,-50,18,-4
10655,88,496,-2248,-49,18,-6
10660,80,504,-2256,-49,17,-4
10665,96,512,-2248,-49,17,-4
10670,88,512,-2224,-49,19,-4
10675,96,512,-2224,-48,19,-4
10680,104,488,-2240,-48,20,-4
10685,96,512,-2232,-48,20,-4
10690,72,496,-2248,-49,19,-4
10695,64,528,-2256,-49,20,-5
10700,88,480,-2232,-50,21,-4
10705,88,504,-2232,-51,19,-5
10710,88,496,-2264,-50,19,-6
10715,88,520,-2232,-50,18,-3
10720,72,512,-2240,-49,18,-3
10725,80,512,-2216,-47,18,-3
10730,56,504,-2232,-45,17,-5
10735,88,496,-2240,-43,16,-4
10740,96,496,-2248,-44,17,-5
10745,80,504,-2240,-43,17,-4
10750,56,520,-2248,-44,19,-5
10755,96,528,-2232,-44,20,-4
10760,112,496,-2264,-42,19,-4
10765,88,496,-2240,-41,18,-4
10770,80,536,-2264,-42,18,-4
10775,72,536,-2264,-42,18,-5
10780,80,512,-2272,-42,18,-5
10785,64,528,-2224,-42,17,-5
10790,64,512,-2264,-44,16,-5
10795,72,512,-2232,-48,17,-6
10800,88,504,-2240,-53,17,-6
10805,96,496,-2216,-54,16,-6
10810,96,480,-2224,-53,15,-5
10815,64,512,-2296,-52,15,-4
10820,64,520,-2232,-49,13,-5
10825,72,520,-2256,-48,15,-5
10830,96,504,-2248,-47,15,-5
10835,120,488,-2232,-47,16,-5
10840,72,504,-2208,-47,17,-5
10845,96,512,-2224,-47,17,-5
10850,96,512,-2256,-46,17,-6
10855,56,512,-2232,-46,16,-4
10860,88,496,-2248,-45,15,-6
10865,64,496,-2256,-45,14,-6
10870,88,512,-2240,-45,14,-6
10875,112,496,-2272,-44,15,-6
10880,80,520,-2264,-44,16,-6
10885,104,512,-2248,-46,16,-6
10890,80,520,-2248,-44,16,-4
10895,88,496,-2280,-45,16,-7
10900,88,496,-2224,-46,17,-5
10905,96,504,-2264,-46,17,-6
10910,80,504,-2272,-47,14,-5
10915,88,512,-2248,-48,15,-6
10920,80,504,-2272,-48,14,-6
10925,88,536,-2248,-47,14,-5
10930,80,504,-2248,-48,14,-6
10935,80,512,-2264,-48,15,-7
10940,72,512,-2240,-46,14,-6
10945,56,512,-2232,-46,13,-6
10950,72,504,-2272,-46,14,-5
10955,72,512,-2224,-45,14,-5
10960,72,512,-2224,-43,13,-6
10965,104,496,-2256,-45,14,-4
10970,64,520,-2232,-45,14,-4
10975,96,512,-2264,-44,13,-5
10980,56,512,-2272,-45,14,-5
10985,80,496,-2256,-44,14,-4
10990,88,496,-2240,-45,15,-4
10995,72,512,-2264,-43,15,-5
11000,88,512,-2224,-44,14,-5
11005,72,496,-2264,-44,14,-6
11010,88,528,-2264,-45,15,-6
11015,56,512,-2232,-45,15,-6
11020,80,488,-2232,-45,15,-5
11025,80,520,-2256,-43,14,-6
11030,88,520,-2264,-44,15,-5
11035,80,496,-2224,-46,16,-4
11040,72,512,-2216,-45,16,-5
11045,88,512,-2240,-46,17,-5
11050,88,504,-2256,-45,16,-6
11055,72,504,-2224,-47,16,-7
11060,96,504,-2272,-46,17,-6
11065,104,528,-2224,-45,16,-6
11070,88,520,-2256,-46,17,-5
11075,64,520,-2256,-47,18,-4
11080,88,504,-2232,-48,17,-4
11085,80,504,-2232,-47,16,-4
11090,80,488,-2256,-48,16,-5
11095,96,504,-2256,-47,16,-6
11100,88,496,-2216,-48,15,-6
11105,80,496,-2224,-49,15,-5
11110,72,520,-2248,-46,15,-6
11115,72,512,-2240,-48,14,-5
11120,80,512,-2240,-48,14,-4
11125,80,480,-2272,-48,15,-5
11130,88,512,-2232,-48,17,-6
11135,72,504,-2240,-47,16,-6
11140,104,512,-2240,-48,16,-5
11145,96,496,-2256,-50,17,-3
11150,80,512,-2240,-48,15,-5
11155,72,504,-2240,-49,16,-5
11160,88,512,-2248,-49,17,-5
11165,88,480,-2232,-48,19,-4
11170,72,504,-2248,-49,18,-5
11175,72,504,-2256,-49,17,-5
11180,80,520,-2232,-47,17,-4
11185,80,512,-2232,-46,17,-4
11190,96,488,-2248,-46,19,-5
11195,64,520,-2240,-46,18,-4
11200,88,512,-2248,-46,17,-6
11205,72,520,-2248,-45,17,-6
11210,88,512,-2256,-45,18,-5
11215,88,520,-2248,-46,17,-5
11220,96,504,-2232,-47,18,-4
11225,88,520,-2248,-46,17,-4
11230,64,528,-2240,-47,16,-6
11235,80,496,-2240,-47,16,-5
11240,56,520,-2240,-47,18,-6
11245,88,480,-2248,-48,18,-7
11250,80,496,-2232,-49,18,-5
11255,80,512,-2240,-47,17,-5
11260,88,536,-2224,-47,17,-5
11265,88,512,-2248,-46,18,-4
11270,88,520,-2256,-46,18,-4
11275,96,512,-2240,-47,18,-5
11280,96,512,-2224,-46,17,-5
11285,88,512,-2248,-47,17,-4
11290,88,528,-2240,-45,16,-4
11295,88,520,-2232,-45,17,-6
11300,56,512,-2248,-46,16,-5
11305,104,456,-2256,-43,15,-5
11310,80,512,-2224,-44,15,-6
11315,72,528,-2256,-44,16,-7
11320,88,512,-2272,-46,18,-4
11325,88,504,-2216,-45,17,-5
11330,80,496,-2248,-45,18,-4
11335,96,512,-2264,-44,19,-4
11340,80,504,-2240,-45,20,-6
11345,72,536,-2248,-45,20,-4
11350,80,496,-2248,-46,19,-4
11355,80,512,-2264,-44,18,-6
11360,80,512,-2240,-46,18,-6
11365,80,520,-2264,-48,17,-7
11370,80,480,-2232,-50,16,-5
11375,88,512,-2232,-53,15,-5
11380,64,528,-2208,-53,14,-7
11385,80,536,-2208,-53,14,-6
11390,72,520,-2232,-49,14,-7
11395,80,504,-2240,-46,15,-6
11400,80,496,-2248,-44,15,-7
11405,88,496,-2232,-43,16,-6
11410,88,488,-2256,-45,17,-6
11415,104,480,-2256,-45,16,-4
11420,104,496,-2240,-42,17,-6
11425,72,528,-2240,-42,17,-6
11430,96,504,-2240,-43,16,-5
11435,80,520,-2216,-44,16,-6
11440,56,536,-2248,-45,16,-6
11445,88,528,-2264,-45,16,-5
11450,88,504,-2256,-46,17,-5
11455,64,512,-2232,-46,18,-5
11460,80,512,-2232,-45,18,-6
11465,64,488,-2232,-45,18,-6
11470,80,504,-2248,-44,17,-5
11475,72,512,-2264,-44,17,-5
11480,72,512,-2248,-42,17,-5
11485,72,520,-2248,-43,17,-5
11490,88,512,-2240,-43,17,-5
11495,80,512,-2240,-43,17,-6
11500,80,512,-2240,-44,18,-6
11505,80,496,-2248,-45,18,-6
11510,96,504,-2240,-43,18,-7
11515,80,512,-2240,-43,17,-5
11520,80,488,-2232,-42,16,-5
11525,88,480,-2216,-43,16,-5
11530,96,512,-2248,-43,16,-5
11535,80,528,-2240,-43,17,-6
11540,80,496,-2256,-42,16,-5
11545,88,528,-2232,-42,16,-5
11550,80,504,-2240,-44,17,-5
11555,80,504,-2248,-45,18,-4
11560,96,496,-2264,-44,18,-5
11565,96,496,-2240,-44,19,-5
11570,80,504,-2240,-43,18,-5
11575,80,512,-2256,-43,19,-6
11580,64,520,-2248,-42,19,-5
11585,88,496,-2232,-43,18,-4
11590,72,520,-2192,-44,18,-4
11595,80,512,-2248,-42,19,-6
11600,88,496,-2248,-43,20,-5
11605,72,496,-2248,-42,19,-6
11610,72,496,-2256,-43,19,-4
11615,96,472,-2232,-43,19,-5
11620,88,520,-2240,-45,20,-5
11625,96,488,-2248,-46,19,-6
11630,96,472,-2280,-46,17,-5
11635,112,512,-2256,-44,17,-5
11640,56,504,-2248,-44,18,-5
11645,88,520,-2240,-43,18,-5
11650,88,504,-2272,-44,18,-5
11655,96,472,-2248,-45,17,-5
11660,72,520,-2256,-46,16,-6
11665,64,512,-2240,-47,16,-4
11670,72,520,-2264,-45,15,-4
11675,72,512,-2248,-46,14,-5
11680,80,496,-2232,-46,15,-6
11685,96,504,-2264,-46,15,-6
11690,72,512,-2264,-47,15,-6
11695,96,512,-2240,-46,15,-6
11700,104,496,-2240,-46,17,-6
11705,64,512,-2256,-47,17,-6
11710,80,496,-2224,-47,17,-5
11715,72,504,-2256,-46,16,-5
11720,88,488,-2264,-47,17,-6
11725,72,520,-2264,-49,16,-5
11730,88,488,-2248,-49,17,-6
11735,96,496,-2240,-49,16,-6
11740,80,512,-2232,-49,15,-5
11745,88,496,-2264,-49,15,-5
11750,88,520,-2256,-48,14,-5
11755,80,488,-2224,-47,15,-6
11760,80,496,-2264,-44,15,-6
11765,72,520,-2232,-43,15,-6
11770,64,504,-2248,-43,14,-5
11775,104,488,-2256,-43,14,-5
11780,88,520,-2224,-44,15,-4
11785,88,504,-2264,-43,16,-4
11790,104,504,-2240,-44,15,-4
11795,96,496,-2248,-45,15,-6
11800,72,512,-2248,-45,16,-5
11805,88,520,-2256,-45,16,-5
11810,64,528,-2280,-44,17,-6
11815,56,520,-2256,-45,16,-6
11820,104,480,-2248,-45,16,-6
11825,96,512,-2256,-45,17,-6
11830,88,512,-2248,-45,18,-5
11835,96,496,-2224,-46,17,-4
11840,80,512,-2224,-46,17,-3
11845,104,488,-2264,-47,17,-4
11850,8,504,-2272,-45,17,-5
11855,104,488,-2272,-44,16,-6
11860,80,504,-2240,-43,15,-4
11865,88,496,-2288,-43,15,-4
11870,80,496,-2280,-43,17,-4
11875,64,520,-2256,-45,18,-4
11880,80,504,-2248,-44,20,-5
11885,88,496,-2240,-44,21,-4
11890,64,528,-2264,-43,20,-5
11895,88,496,-2264,-43,21,-5
11900,96,496,-2256,-45,20,-3
11905,72,520,-2248,-45,20,-4
11910,96,552,-2224,-43,20,-4
11915,80,504,-2232,-44,20,-5
11920,88,496,-2240,-46,19,-4
11925,88,512,-2240,-49,19,-4
11930,80,488,-2224,-50,17,-4
11935,88,512,-2240,-51,16,-4
11940,96,512,-2248,-49,17,-3
11945,104,504,-2232,-47,17,-4
11950,72,512,-2256,-46,18,-5
11955,96,488,-2240,-45,18,-4
11960,136,536,-2200,-46,20,-5
11965,72,496,-2232,-45,20,-5
11970,80,520,-2272,-46,20,-5
11975,80,512,-2232,-47,20,-4
11980,112,504,-2240,-46,19,-4
11985,72,504,-2256,-47,19,-3
11990,96,520,-2256,-46,19,-4
11995,88,528,-2264,-46,18,-4
12000,80,488,-2288,-48,17,-5
12005,96,496,-2256,-48,17,-5
12010,64,520,-2232,-45,18,-5
12015,80,504,-2240,-46,17,-5
12020,88,496,-2224,-46,18,-4
12025,64,496,-2248,-47,17,-5
12030,96,488,-2224,-46,16,-6
12035,72,504,-2256,-46,17,-6
12040,72,520,-2256,-47,17,-5
12045,104,504,-2232,-48,17,-6
12050,88,504,-2248,-48,19,-6
12055,88,496,-2240,-47,18,-5
12060,80,512,-2248,-47,19,-5
12065,88,512,-2248,-46,19,-5
12070,56,512,-2240,-46,18,-6
12075,80,512,-2256,-46,17,-5
12080,96,480,-2232,-47,18,-5
12085,88,520,-2280,-45,19,-4
12090,96,488,-2272,-46,19,-4
12095,80,504,-2232,-45,18,-5
12100,88,512,-2232,-44,18,-3
12105,104,504,-2232,-44,18,-4
12110,96,488,-2232,-45,18,-4
12115,72,496,-2248,-46,18,-5
12120,80,496,-2232,-46,16,-4
12125,96,496,-2272,-46,18,-5
12130,112,480,-2224,-44,17,-5
12135,96,504,-2232,-45,17,-5
12140,72,512,-2224,-45,17,-5
12145,88,504,-2240,-47,17,-4
12150,96,512,-2264,-47,17,-5
12155,88,528,-2280,-45,16,-5
12160,80,504,-2264,-43,15,-5
12165,88,536,-2264,-43,16,-5
12170,64,536,-2240,-43,16,-5
12175,104,496,-2240,-45,17,-5
12180,72,520,-2216,-45,16,-5
12185,80,496,-2264,-45,16,-6
12190,88,520,-2264,-44,15,-6
12195,88,504,-2248,-46,17,-5
12200,88,488,-2264,-46,17,-5
12205,96,480,-2224,-46,16,-6
12210,72,496,-2256,-46,16,-5
12215,72,496,-2232,-46,17,-6
12220,96,496,-2256,-46,17,-4
12225,72,536,-2256,-47,17,-4
12230,104,464,-2224,-46,17,-5
12235,112,464,-2240,-48,17,-3
12240,64,520,-2248,-49,16,-5
12245,88,504,-2248,-49,16,-6
12250,80,504,-2248,-50,16,-6
12255,80,512,-2240,-47,17,-5
12260,96,496,-2240,-46,16,-4
12265,112,504,-2256,-48,15,-5
12270,88,496,-2232,-46,16,-6
12275,80,512,-2248,-47,14,-5
12280,72,512,-2224,-47,15,-5
12285,72,512,-2256,-46,15,-5
12290,88,512,-2264,-46,16,-4
12295,96,520,-2216,-47,15,-6
12300,64,528,-2240,-47,17,-6
12305,72,520,-2248,-47,15,-5
12310,72,520,-2208,-46,16,-6
12315,72,504,-2208,-46,15,-5
12320,88,504,-2240,-48,15,-5
12325,80,520,-2256,-48,16,-4
12330,96,504,-2248,-47,15,-6
12335,72,512,-2232,-46,17,-5
12340,88,520,-2272,-48,16,-5
12345,88,528,-2264,-47,16,-5
12350,104,512,-2216,-48,16,-5
12355,88,504,-2232,-47,16,-6
12360,72,504,-2248,-47,16,-5
12365,88,488,-2256,-46,17,-5
12370,96,496,-2216,-46,17,-6
12375,80,504,-2248,-45,17,-6
12380,72,520,-2224,-44,18,-5
12385,80,496,-2240,-44,18,-5
12390,96,520,-2272,-44,17,-6
12395,56,512,-2232,-46,17,-5
12400,72,496,-2224,-45,19,-5
12405,80,520,-2264,-46,19,-5
12410,80,512,-2248,-48,20,-4
12415,96,504,-2256,-47,19,-3
12420,64,512,-2240,-47,19,-4
12425,64,520,-2256,-46,19,-5
12430,88,528,-2256,-46,19,-4
12435,80,512,-2240,-46,18,-6
12440,88,496,-2256,-47,18,-5
12445,80,512,-2232,-45,18,-5
12450,88,480,-2232,-46,18,-4
12455,88,496,-2264,-47,18,-4
12460,96,528,-2264,-47,18,-6
12465,80,520,-2264,-46,16,-5
12470,80,496,-2240,-46,14,-5
12475,72,504,-2272,-45,16,-6
12480,112,504,-2264,-46,16,-4
12485,64,496,-2248,-46,20,-4
12490,80,504,-2240,-47,19,-5
12495,72,528,-2256,-46,21,-4
12500,112,520,-2232,-45,21,-3
12505,72,504,-2248,-45,20,-4
12510,80,504,-2240,-44,20,-5
12515,64,520,-2240,-41,18,-5
12520,88,512,-2264,-42,19,-5
12525,96,496,-2256,-44,19,-5
12530,56,512,-2232,-46,18,-6
12535,88,504,-2232,-48,17,-6
12540,72,512,-2216,-50,16,-6
12545,96,496,-2232,-50,16,-6
12550,80,520,-2232,-47,15,-6
12555,80,512,-2256,-45,15,-5
12560,80,520,-2240,-44,14,-4
12565,88,504,-2240,-45,15,-4
12570,80,520,-2240,-47,16,-6
12575,104,520,-2240,-49,18,-6
12580,96,504,-2232,-46,19,-5
12585,96,488,-2232,-46,18,-4
12590,88,520,-2248,-45,16,-4
12595,88,504,-2264,-47,18,-5
12600,88,512,-2240,-46,17,-6
12605,80,504,-2264,-46,16,-5
12610,80,512,-2288,-44,16,-6
12615,112,472,-2240,-45,17,-4
12620,88,528,-2256,-42,17,-4
12625,88,520,-2232,-43,16,-4
12630,80,504,-2248,-45,16,-6
12635,80,536,-2248,-45,18,-5
12640,64,512,-2224,-45,16,-4
12645,80,496,-2232,-45,15,-4
12650,72,520,-2256,-45,15,-6
12655,80,504,-2256,-45,15,-5
12660,80,528,-2232,-45,15,-5
12665,96,504,-2224,-46,16,-5
12670,88,496,-2280,-45,17,-4
12675,104,472,-2248,-46,17,-4
12680,104,504,-2216,-45,16,-4
12685,64,512,-2240,-45,16,-6
12690,80,496,-2224,-47,18,-5
12695,80,512,-2264,-46,16,-5
12700,88,496,-2256,-46,16,-5
12705,64,496,-2224,-45,15,-6
12710,72,496,-2240,-45,15,-5
12715,72,512,-2232,-45,17,-4
12720,80,544,-2256,-47,16,-4
12725,80,504,-2256,-46,16,-5
12730,72,520,-2240,-45,15,-5
12735,96,496,-2264,-47,18,-3
12740,80,504,-2272,-45,17,-3
12745,72,520,-2240,-46,18,-3
12750,80,520,-2240,-45,18,-5
12755,96,496,-2232,-46,17,-6
12760,88,488,-2280,-47,18,-6
12765,64,512,-2248,-47,17,-5
12770,80,488,-2224,-46,18,-4
12775,88,512,-2256,-45,18,-4
12780,72,512,-2248,-45,18,-6
12785,64,512,-2224,-45,17,-4
12790,88,528,-2232,-45,17,-6
12795,56,504,-2264,-44,18,-7
12800,72,528,-2248,-43,17,-5
12805,88,504,-2240,-45,18,-6
12810,96,512,-2264,-46,18,-5
12815,72,520,-2232,-45,18,-6
12820,88,520,-2256,-45,18,-5
12825,80,480,-2192,-46,19,-6
12830,112,504,-2256,-47,18,-5
12835,112,496,-2248,-47,19,-5
12840,72,504,-2240,-46,18,-5
12845,80,504,-2248,-45,17,-5
12850,64,512,-2248,-47,19,-5
12855,80,504,-2272,-47,18,-5
12860,72,512,-2248,-47,18,-4
12865,80,528,-2256,-46,16,-5
12870,96,512,-2232,-46,18,-5
12875,96,512,-2280,-46,17,-4
12880,72,520,-2264,-47,18,-4
12885,80,504,-2256,-46,17,-4
12890,104,512,-2248,-45,18,-6
12895,72,520,-2240,-46,18,-7
12900,56,520,-2256,-48,18,-5
12905,80,512,-2256,-47,18,-5
12910,72,512,-2232,-47,17,-4
12915,96,504,-2232,-48,19,-5
12920,88,512,-2232,-46,19,-5
12925,88,504,-2264,-47,18,-5
12930,88,504,-2232,-47,17,-5
12935,64,536,-2224,-45,16,-4
12940,96,496,-2248,-44,16,-4
12945,88,504,-2240,-46,16,-4
12950,88,488,-2232,-46,17,-5
12955,88,496,-2216,-46,19,-5
12960,80,520,-2232,-48,18,-4
12965,104,504,-2240,-46,15,-4
12970,88,544,-2232,-47,17,-4
12975,112,504,-2256,-48,17,-3
12980,96,520,-2248,-46,17,-4
12985,80,496,-2240,-46,15,-4
12990,64,504,-2240,-46,16,-4
12995,80,496,-2240,-47,17,-5
13000,80,512,-2240,-47,17,-5
13005,72,520,-2248,-45,17,-6
13010,80,512,-2240,-48,17,-5
13015,72,512,-2240,-48,18,-5
13020,88,504,-2240,-47,16,-5
13025,88,496,-2232,-47,15,-4
13030,64,520,-2216,-45,17,-4
13035,64,520,-2232,-45,17,-4
13040,96,504,-2232,-45,15,-5
13045,104,512,-2248,-43,15,-3
13050,32,480,-2232,-43,16,-5
13055,96,496,-2272,-44,16,-5
13060,64,528,-2256,-45,17,-5
13065,64,520,-2232,-45,17,-5
13070,104,520,-2240,-45,16,-6
13075,80,504,-2240,-44,17,-6
13080,72,520,-2224,-46,17,-5
13085,80,504,-2240,-47,17,-5
13090,80,512,-2256,-46,18,-4
13095,88,504,-2232,-47,18,-4
13100,72,512,-2224,-46,18,-5
13105,88,496,-2232,-48,18,-6
13110,80,520,-2256,-48,16,-5
13115,72,520,-2240,-48,17,-6
13120,80,504,-2216,-48,17,-5
13125,80,504,-2248,-48,18,-5
13130,88,520,-2256,-49,17,-5
13135,80,512,-2232,-46,17,-5
13140,64,504,-2240,-46,16,-5
13145,80,488,-2240,-45,16,-5
13150,88,472,-2256,-47,16,-5
13155,96,456,-2352,-46,15,-5
13160,96,496,-2248,-48,16,-4
13165,80,504,-2256,-47,15,-5
13170,88,496,-2248,-47,17,-4
13175,96,512,-2272,-48,17,-5
13180,80,512,-2240,-49,17,-4
13185,96,512,-2264,-49,18,-4
13190,72,528,-2224,-50,17,-4
13195,72,520,-2240,-50,17,-3
13200,88,504,-2256,-48,16,-4
13205,80,496,-2248,-49,17,-5
13210,88,472,-2256,-48,17,-5
13215,96,504,-2280,-48,18,-3
13220,88,520,-2240,-49,17,-4
13225,80,520,-2248,-46,17,-5
13230,72,512,-2248,-46,16,-4
13235,96,528,-2240,-46,15,-3
13240,88,536,-2248,-49,17,-5
13245,80,520,-2216,-48,17,-4
13250,72,512,-2232,-46,18,-3
13255,80,528,-2256,-46,17,-5
13260,72,496,-2248,-47,18,-5
13265,112,512,-2288,-46,16,-6
13270,88,512,-2256,-46,18,-5
13275,96,512,-2240,-47,17,-5
13280,104,520,-2264,-47,18,-5
13285,88,536,-2256,-48,17,-4
13290,96,496,-2240,-47,16,-4
13295,88,504,-2224,-47,16,-3
13300,112,488,-2264,-45,16,-3
13305,96,504,-2232,-47,16,-5
13310,88,520,-2232,-46,16,-5
13315,96,512,-2240,-46,16,-5
13320,64,520,-2256,-45,15,-5
13325,72,520,-2256,-44,16,-5
13330,96,504,-2256,-45,17,-4
13335,64,520,-2280,-44,17,-5
13340,96,520,-2248,-44,17,-4
13345,80,504,-2232,-44,16,-3
13350,96,504,-2272,-46,15,-4
13355,96,520,-2224,-47,16,-4
13360,80,512,-2232,-48,18,-5
13365,72,504,-2240,-47,17,-5
13370,88,496,-2272,-46,16,-4
13375,96,496,-2240,-47,17,-5
13380,72,504,-2224,-47,19,-5
13385,80,520,-2264,-46,17,-3
13390,88,480,-2264,-45,17,-4
13395,88,536,-2240,-47,15,-6
13400,88,512,-2224,-46,16,-5
13405,80,488,-2240,-47,17,-5
13410,88,528,-2240,-47,16,-4
13415,72,520,-2232,-47,16,-4
13420,96,480,-2216,-48,16,-4
13425,104,520,-2272,-47,17,-5
13430,80,512,-2224,-48,15,-4
13435,80,504,-2240,-46,16,-5
13440,80,512,-2256,-45,15,-7
13445,72,520,-2224,-43,15,-6
13450,88,504,-2248,-42,14,-5
13455,72,544,-2256,-41,16,-5
13460,88,496,-2264,-43,17,-4
13465,56,512,-2232,-44,17,-6
13470,80,496,-2240,-44,17,-6
13475,80,512,-2240,-44,19,-5
13480,88,512,-2256,-45,18,-4
13485,80,512,-2224,-46,18,-3
13490,72,520,-2240,-46,18,-4
13495,96,528,-2240,-46,18,-6
13500,72,504,-2248,-46,17,-4
13505,88,504,-2264,-44,17,-5
13510,88,504,-2256,-45,14,-7
13515,80,496,-2272,-45,15,-6
13520,80,520,-2232,-44,15,-6
13525,80,512,-2240,-43,17,-6
13530,72,512,-2248,-42,18,-4
13535,80,536,-2248,-43,17,-5
13540,88,512,-2256,-42,18,-5
13545,88,504,-2264,-41,18,-4
13550,88,536,-2248,-41,19,-4
13555,80,512,-2248,-41,19,-5
13560,88,520,-2232,-43,20,-5
13565,72,504,-2224,-46,20,-5
13570,88,496,-2232,-48,19,-6
13575,96,504,-2248,-44,18,-5
13580,96,512,-2256,-42,18,-6
13585,72,512,-2248,-37,19,-6
13590,64,520,-2264,-37,19,-4
13595,40,496,-2272,-39,19,-4
13600,104,488,-2256,-42,20,-6
13605,96,512,-2240,-45,22,-5
13610,80,496,-2216,-41,20,-5
13615,72,528,-2256,-43,20,-6
13620,96,504,-2248,-43,21,-4
13625,96,512,-2240,-45,20,-5
13630,64,536,-2256,-47,19,-5
13635,64,528,-2248,-47,18,-5
13640,88,520,-2248,-48,19,-4
13645,56,488,-2264,-47,20,-4
13650,88,512,-2240,-47,19,-6
13655,112,504,-2248,-46,19,-5
13660,88,512,-2264,-46,21,-4
13665,96,504,-2256,-44,20,-6
13670,88,504,-2232,-46,20,-5
13675,64,512,-2232,-47,19,-5
13680,96,512,-2240,-47,18,-4
13685,64,512,-2256,-49,17,-4
13690,88,528,-2248,-49,17,-4
13695,96,488,-2232,-49,17,-3
13700,32,440,-2248,-50,17,-4
13705,64,520,-2264,-50,18,-4
13710,88,496,-2232,-52,19,-4
13715,88,520,-2248,-51,18,-3
13720,80,504,-2248,-52,16,-5
13725,80,504,-2224,-52,16,-6
13730,112,512,-2248,-52,16,-4
13735,88,536,-2224,-53,16,-4
13740,96,520,-2248,-52,16,-4
13745,96,496,-2240,-52,16,-4
13750,112,512,-2264,-50,16,-5
13755,96,520,-2272,-51,16,-5
13760,72,520,-2232,-49,17,-5
13765,88,504,-2256,-47,17,-6
13770,88,504,-2256,-49,16,-4
13775,96,512,-2240,-49,16,-4
13780,88,512,-2248,-48,17,-6
13785,120,504,-2240,-48,17,-6
13790,96,504,-2256,-48,16,-6
13795,80,520,-2240,-49,17,-6
13800,80,512,-2240,-50,16,-5
13805,56,528,-2240,-49,16,-5
13810,152,504,-2216,-48,16,-3
13815,80,520,-2248,-48,17,-6
13820,96,496,-2240,-48,18,-4
13825,104,496,-2224,-50,19,-5
13830,72,528,-2224,-48,19,-6
13835,104,512,-2240,-48,19,-5
13840,88,480,-2256,-48,18,-5
13845,80,504,-2248,-47,18,-7
13850,72,520,-2248,-47,19,-7
13855,88,488,-2224,-49,20,-6
13860,88,504,-2232,-49,20,-5
13865,64,504,-2240,-50,19,-5
13870,96,512,-2256,-49,19,-4
13875,72,504,-2248,-48,19,-5
13880,80,520,-2224,-48,17,-5
13885,80,520,-2224,-48,16,-6
13890,96,520,-2248,-49,16,-4
13895,72,528,-2248,-47,18,-6
13900,72,528,-2232,-48,17,-4
13905,72,520,-2224,-48,17,-6
13910,80,528,-2256,-48,17,-5
13915,96,512,-2248,-49,17,-5
13920,120,584,-2224,-47,16,-4
13925,80,496,-2224,-48,17,-5
13930,80,536,-2272,-48,18,-6
13935,72,504,-2264,-46,19,-6
13940,96,512,-2216,-47,20,-5
13945,96,496,-2248,-48,19,-5
13950,96,520,-2280,-48,21,-4
13955,96,504,-2240,-48,19,-6
13960,88,536,-2240,-48,19,-6
13965,96,504,-2256,-49,18,-5
13970,64,472,-2224,-47,18,-7
13975,72,520,-2256,-47,18,-7
13980,80,512,-2264,-46,18,-6
13985,72,520,-2240,-46,17,-6
13990,80,512,-2240,-46,17,-6
13995,88,488,-2240,-46,17,-7
14000,88,504,-2240,-46,17,-6
14005,96,504,-2240,-46,17,-4
14010,80,520,-2240,-49,16,-5
14015,88,512,-2256,-48,16,-5
14020,88,504,-2264,-47,16,-5
14025,72,520,-2232,-47,16,-5
14030,72,512,-2264,-46,16,-5
14035,72,504,-2256,-45,15,-5
14040,96,512,-2264,-46,16,-6
14045,80,520,-2224,-45,17,-6
14050,88,496,-2248,-45,17,-5
14055,88,504,-2248,-44,16,-4
14060,88,504,-2280,-45,16,-4
14065,80,520,-2272,-44,16,-4
14070,88,512,-2272,-43,16,-5
14075,96,520,-2240,-44,17,-5
14080,88,520,-2248,-44,16,-4
14085,64,520,-2264,-46,16,-5
14090,80,496,-2248,-45,18,-4
14095,88,504,-2248,-45,18,-5
14100,88,520,-2224,-46,17,-5
14105,72,512,-2264,-45,17,-5
14110,80,504,-2232,-45,17,-5
14115,72,512,-2224,-46,18,-5
14120,104,536,-2232,-45,19,-5
14125,80,504,-2224,-44,19,-5
14130,96,512,-2272,-44,20,-5
14135,72,520,-2232,-47,20,-5
14140,72,520,-2256,-45,20,-4
14145,72,520,-2248,-46,20,-6
14150,88,504,-2272,-46,20,-6
14155,104,504,-2224,-45,18,-5
14160,88,528,-2216,-44,19,-4
14165,96,520,-2248,-44,19,-5
14170,96,512,-2248,-46,19,-5
14175,64,512,-2224,-46,18,-5
14180,104,496,-2232,-46,20,-4
14185,80,504,-2240,-47,20,-5
14190,96,504,-2248,-47,20,-6
14195,96,512,-2280,-49,20,-5
14200,80,536,-2240,-49,18,-5
14205,80,496,-2232,-47,18,-4
14210,96,512,-2264,-48,17,-4
14215,64,536,-2248,-48,16,-5
14220,80,504,-2248,-46,17,-5
14225,80,496,-2248,-46,18,-4
14230,72,504,-2256,-47,18,-4
14235,72,504,-2248,-47,18,-5
14240,96,504,-2240,-48,18,-5
14245,88,528,-2248,-47,17,-5
14250,104,512,-2248,-49,17,-6
14255,104,512,-2216,-49,17,-5
14260,80,504,-2216,-49,16,-5
14265,80,544,-2200,-47,16,-6
14270,88,520,-2216,-47,17,-5
14275,80,528,-2240,-47,17,-5
14280,104,520,-2256,-47,17,-5
14285,112,512,-2224,-47,17,-5
14290,72,536,-2264,-46,17,-6
14295,96,512,-2248,-46,17,-6
14300,104,488,-2256,-46,17,-5
14305,80,496,-2248,-47,17,-6
14310,88,496,-2248,-47,17,-5
14315,112,488,-2240,-47,17,-6
14320,80,520,-2216,-46,16,-5
14325,104,504,-2216,-46,17,-5
14330,104,536,-2256,-46,18,-4
14335,88,512,-2240,-45,16,-5
14340,96,512,-2232,-46,15,-4
14345,80,496,-2216,-44,15,-5
14350,96,504,-2232,-45,15,-5
14355,88,512,-2248,-48,16,-5
14360,104,528,-2240,-45,15,-5
14365,88,504,-2248,-45,16,-6
14370,88,536,-2232,-46,14,-6
14375,96,512,-2264,-45,14,-6
14380,96,488,-2216,-47,13,-6
14385,80,528,-2272,-45,14,-6
14390,88,528,-2240,-45,15,-6
14395,96,496,-2248,-45,16,-6
14400,88,504,-2256,-45,18,-5
14405,88,496,-2264,-45,18,-6
14410,112,488,-2232,-43,17,-6
14415,96,512,-2256,-44,17,-6
14420,80,520,-2264,-43,16,-5
14425,96,512,-2224,-42,15,-4
14430,88,488,-2240,-43,17,-5
14435,96,504,-2232,-45,17,-5
14440,88,512,-2232,-46,15,-6
14445,88,512,-2216,-49,15,-6
14450,104,536,-2240,-51,14,-7
14455,88,496,-2240,-52,12,-6
14460,80,528,-2240,-49,13,-6
14465,72,544,-2232,-47,12,-6
14470,56,536,-2240,-44,13,-5
14475,96,488,-2296,-42,13,-5
14480,72,512,-2264,-43,16,-6
14485,88,520,-2224,-44,16,-5
14490,64,520,-2240,-44,18,-5
14495,80,520,-2240,-43,17,-7
14500,80,528,-2256,-44,18,-6
14505,72,536,-2264,-43,15,-5
14510,88,504,-2256,-44,17,-5
14515,40,544,-2240,-45,16,-7
14520,88,520,-2208,-45,16,-7
14525,80,520,-2288,-46,14,-5
14530,80,520,-2256,-46,15,-6
14535,80,528,-2232,-46,16,-5
14540,80,512,-2240,-45,15,-6
14545,88,520,-2248,-47,17,-4
14550,96,512,-2248,-44,18,-3
14555,80,512,-2264,-43,16,-5
14560,72,504,-2240,-44,17,-6
14565,72,520,-2248,-44,18,-6
14570,112,496,-2248,-44,17,-7
14575,72,520,-2240,-45,16,-5
14580,88,520,-2248,-45,17,-6
14585,80,544,-2232,-46,17,-5
14590,80,520,-2272,-45,17,-5
14595,80,520,-2224,-44,16,-5
14600,96,528,-2240,-45,15,-5
14605,96,480,-2264,-46,15,-5
14610,88,512,-2232,-45,16,-6
14615,64,504,-2248,-46,16,-5
14620,88,528,-2232,-47,17,-5
14625,88,488,-2248,-46,16,-5
14630,80,496,-2240,-45,17,-4
14635,88,520,-2272,-44,17,-4
14640,104,520,-2272,-44,17,-6
14645,96,496,-2232,-43,19,-5
14650,88,512,-2248,-43,18,-4
14655,88,504,-2232,-44,19,-4
14660,88,520,-2240,-44,19,-5
14665,72,544,-2248,-44,19,-6
14670,88,512,-2240,-45,19,-6
14675,96,512,-2256,-45,19,-5
14680,80,504,-2256,-46,18,-5
14685,88,504,-2240,-45,17,-5
14690,88,480,-2264,-43,17,-4
14695,96,512,-2264,-42,17,-5
14700,88,512,-2240,-42,17,-5
14705,72,512,-2232,-43,16,-5
14710,96,496,-2248,-45,18,-4
14715,88,496,-2272,-47,17,-6
14720,88,520,-2232,-47,19,-5
14725,72,520,-2248,-47,18,-5
14730,64,528,-2248,-47,17,-5
14735,80,536,-2240,-47,17,-6
14740,88,504,-2240,-48,16,-5
14745,96,496,-2232,-49,17,-5
14750,72,528,-2224,-48,17,-5
14755,88,528,-2224,-47,16,-6
14760,80,512,-2232,-48,16,-4
14765,72,536,-2232,-46,15,-4
14770,88,528,-2248,-47,15,-5
14775,88,528,-2280,-46,14,-6
14780,72,520,-2280,-44,14,-5
14785,80,536,-2240,-45,14,-5
14790,88,488,-2264,-46,14,-7
14795,88,512,-2208,-45,15,-7
14800,80,520,-2216,-49,16,-7
14805,88,520,-2248,-48,14,-5
14810,112,472,-2256,-49,15,-5
14815,80,496,-2256,-46,15,-6
14820,80,528,-2248,-46,14,-5
14825,88,520,-2272,-45,14,-4
14830,56,520,-2248,-44,14,-6
14835,80,520,-2264,-43,14,-6
14840,72,528,-2248,-45,14,-6
14845,80,528,-2248,-44,15,-6
14850,104,520,-2272,-45,15,-6
14855,80,512,-2240,-46,14,-6
14860,64,528,-2248,-47,15,-7
14865,72,496,-2256,-46,14,-5
14870,120,480,-2248,-47,14,-5
14875,104,520,-2264,-47,16,-6
14880,120,536,-2256,-46,17,-6
14885,88,512,-2208,-45,16,-5
14890,96,496,-2248,-46,16,-5
14895,72,512,-2248,-46,16,-6
14900,32,456,-2232,-48,15,-5
14905,80,520,-2216,-46,16,-4
14910,80,528,-2232,-47,16,-5
14915,88,520,-2272,-47,15,-6
14920,80,512,-2240,-46,14,-6
14925,88,520,-2232,-44,13,-7
14930,112,496,-2224,-44,12,-6
14935,72,504,-2248,-43,13,-6
14940,96,520,-2224,-44,14,-6
14945,96,528,-2224,-44,13,-6
14950,88,504,-2240,-43,14,-4
14955,80,520,-2256,-44,15,-5
14960,80,520,-2256,-44,15,-5
14965,104,504,-2264,-45,17,-6
14970,80,520,-2216,-45,16,-7
14975,80,512,-2264,-45,17,-6
14980,64,520,-2248,-45,17,-8
14985,72,528,-2240,-44,16,-7
14990,80,504,-2248,-45,17,-5
14995,96,528,-2288,-46,17,-5
