timestamp,accel_x,accel_y,accel_z,gyro_x,gyro_y,gyro_z
0,232,-1920,-184,305,1419,101
5,216,-1888,-184,311,1402,106
10,216,-1864,-200,319,1386,106
15,184,-1872,-184,325,1373,107
20,152,-1840,-184,328,1362,106
25,136,-1856,-192,329,1350,104
30,152,-1880,-192,324,1334,99
35,128,-1872,-200,316,1313,97
40,136,-1888,-208,305,1288,91
45,104,-1912,-216,288,1262,91
50,88,-1936,-240,269,1235,87
55,80,-1928,-240,251,1208,93
60,56,-1936,-248,231,1181,95
65,40,-1936,-232,216,1153,103
70,24,-1888,-264,199,1122,110
75,40,-1904,-304,181,1102,123
80,32,-1880,-304,167,1082,127
85,40,-1864,-304,153,1062,137
90,64,-1872,-320,142,1040,143
95,64,-1896,-352,131,1016,152
100,80,-1952,-280,121,993,159
105,96,-1960,-320,111,969,172
110,80,-1968,-296,102,945,178
115,88,-1992,-312,94,921,189
120,88,-2000,-304,84,897,196
125,96,-2000,-304,76,874,208
130,80,-1992,-304,74,852,210
135,112,-2000,-304,72,834,216
140,96,-2008,-296,73,815,216
145,72,-1992,-304,74,794,221
150,72,-2016,-312,75,771,219
155,88,-2040,-312,74,744,222
160,56,-2072,-336,74,716,220
165,80,-2088,-336,71,689,218
170,80,-2136,-304,70,665,211
175,88,-2184,-328,68,645,204
180,80,-2200,-320,68,630,186
185,88,-2216,-328,66,620,171
190,96,-2224,-352,61,611,150
195,80,-2240,-376,54,608,128
200,96,-2240,-376,43,606,103
205,72,-2232,-408,36,607,82
210,24,-2168,-352,30,609,59
215,-24,-2112,-344,29,611,45
220,-56,-2088,-328,33,613,33
225,-104,-2064,-328,38,612,28
230,-144,-2016,-280,46,607,25
235,-160,-1968,-240,50,597,28
240,-176,-1928,-264,55,578,36
245,-208,-1904,-208,57,555,44
250,-208,-1848,-192,59,524,50
255,-224,-1792,-176,58,489,59
260,-216,-1792,-168,55,445,64
265,-184,-1800,-104,52,398,69
270,-160,-1824,-96,50,347,70
275,-160,-1840,-64,46,295,72
280,-104,-1904,-32,41,243,71
285,-56,-1968,-32,41,195,69
290,-8,-2040,-24,40,157,68
295,32,-2128,-40,41,118,64
300,24,-2152,-16,39,92,58
305,8,-2216,-72,37,69,52
310,8,-2240,-104,32,53,44
315,8,-2240,-104,33,41,37
320,-48,-2208,-144,35,32,27
325,-16,-2192,-160,38,26,21
330,-64,-2112,-184,41,18,15
335,-64,-2104,-208,44,11,11
340,-64,-2104,-208,50,0,9
345,-72,-2056,-232,57,-8,6
350,-88,-2064,-216,66,-22,5
355,-64,-2016,-208,79,-32,5
360,-72,-2000,-232,88,-40,3
365,-40,-1992,-184,96,-44,4
370,-40,-1992,-208,102,-46,2
375,-8,-1976,-200,108,-47,1
380,-32,-1976,-208,112,-48,-1
385,0,-1968,-208,114,-47,-5
390,0,-1968,-184,114,-46,-8
395,24,-1984,-208,113,-41,-17
400,40,-1984,-224,112,-33,-20
405,56,-2008,-256,111,-22,-28
410,64,-2032,-280,108,-7,-32
415,64,-2048,-288,103,4,-35
420,88,-2064,-296,96,18,-38
425,96,-2064,-312,90,31,-41
430,88,-2064,-304,80,41,-40
435,104,-2048,-352,70,48,-43
440,72,-2040,-352,57,53,-41
445,88,-2040,-360,48,56,-42
450,104,-2024,-352,40,57,-39
455,64,-2040,-344,34,54,-39
460,64,-2040,-368,30,47,-32
465,56,-2000,-344,29,41,-30
470,56,-2016,-352,27,37,-25
475,64,-2008,-296,23,33,-24
480,56,-2040,-320,21,31,-19
485,64,-2048,-320,19,29,-19
490,64,-2024,-288,19,29,-15
495,48,-2032,-336,16,30,-16
500,48,-2072,-288,12,30,-13
505,40,-2048,-272,7,32,-14
510,16,-2016,-320,4,31,-11
515,8,-2048,-296,0,30,-12
520,-40,-2024,-320,-5,29,-8
525,-48,-2000,-328,-11,31,-9
530,-48,-2024,-344,-18,30,-4
535,-56,-2016,-320,-24,31,-2
540,-48,-2024,-352,-29,33,4
545,-72,-2000,-336,-33,33,4
550,-64,-2008,-336,-37,36,8
555,-72,-2008,-336,-40,38,6
560,-56,-2008,-352,-43,41,8
565,-32,-2024,-304,-45,44,5
570,-40,-2008,-368,-44,44,4
575,-32,-2008,-320,-43,45,0
580,-48,-2008,-320,-42,45,1
585,-16,-2024,-304,-44,41,-4
590,-8,-2032,-328,-45,38,-3
595,0,-2032,-328,-45,35,-7
600,0,-2032,-296,-47,31,-7
605,16,-2048,-288,-49,27,-10
610,16,-2048,-304,-49,21,-10
615,24,-2056,-280,-49,14,-12
620,8,-2024,-240,-51,10,-9
625,-8,-2056,-280,-52,4,-11
630,8,-2056,-296,-52,-1,-7
635,0,-2048,-304,-54,-3,-8
640,-8,-2056,-280,-56,-5,-6
645,32,-2040,-272,-59,-6,-8
650,40,-2040,-288,-61,-8,-3
655,-8,-2024,-264,-62,-7,-5
660,56,-2040,-264,-62,-6,-1
665,64,-2048,-272,-61,-5,-1
670,24,-2000,-256,-57,-4,2
675,24,-2008,-272,-54,-2,1
680,32,-2024,-288,-54,2,5
685,48,-2016,-248,-52,7,4
690,24,-2024,-248,-52,14,7
695,32,-2032,-232,-52,18,6
700,40,-2024,-240,-52,22,8
705,24,-2032,-216,-54,28,7
710,32,-2048,-232,-53,31,7
715,40,-2056,-232,-52,32,7
720,56,-2032,-240,-51,35,9
725,56,-2048,-224,-48,38,7
730,40,-2056,-208,-45,38,6
735,56,-2040,-256,-42,39,4
740,32,-2048,-224,-37,40,3
745,56,-2056,-232,-33,43,1
750,24,-2056,-224,-30,42,1
755,56,-2064,-200,-26,43,0
760,48,-2056,-248,-25,42,-1
765,32,-2040,-224,-22,43,-3
770,32,-2048,-248,-18,45,0
775,48,-2048,-264,-14,44,-1
780,24,-2048,-248,-13,47,-4
785,32,-2056,-256,-11,47,-6
790,56,-2056,-240,-11,49,-9
795,24,-2056,-232,-7,52,-11
800,32,-2064,-240,-2,58,-11
805,64,-2056,-272,2,62,-14
810,48,-2032,-256,4,65,-13
815,16,-2040,-248,5,69,-15
820,32,-2040,-264,4,72,-17
825,40,-2064,-256,4,74,-18
830,16,-2040,-248,3,75,-19
835,16,-1856,-296,2,75,-19
840,16,-2008,-360,0,74,-21
845,40,-2048,-184,2,75,-21
850,-32,-2040,-192,4,74,-20
855,-16,-2024,-320,8,71,-20
860,40,-2056,-280,9,70,-19
865,16,-2008,-192,11,69,-20
870,8,-2200,-160,14,67,-20
875,-32,-2032,-336,15,64,-20
880,-8,-2016,-256,16,63,-20
885,0,-2008,-248,16,62,-19
890,16,-2024,-264,17,59,-20
895,16,-2032,-248,18,58,-17
900,16,-1976,-176,16,56,-16
905,-16,-2040,-232,20,52,-14
910,-16,-2040,-232,20,49,-13
915,-8,-2040,-248,19,45,-10
920,-16,-2032,-264,18,42,-11
925,-32,-2040,-216,17,39,-8
930,-40,-1992,-208,17,34,-9
935,-24,-2016,-240,16,29,-6
940,-24,-2016,-248,14,24,-7
945,-8,-2032,-248,13,18,-5
950,0,-2024,-216,13,14,-8
955,-8,-2056,-216,12,10,-5
960,8,-2048,-240,12,5,-7
965,-8,-2024,-240,12,2,-4
970,-8,-2024,-248,15,1,-4
975,16,-2024,-224,14,-2,-2
980,-16,-2032,-240,14,-4,-3
985,-16,-2040,-240,14,-5,-2
990,0,-2032,-256,14,-5,-3
995,-16,-2024,-248,14,-5,-2
1000,-16,-2024,-256,14,-6,-5
1005,0,-2040,-272,13,-7,-3
1010,16,-2032,-224,15,-7,-6
1015,0,-2032,-232,15,-6,-4
1020,8,-2056,-240,16,-6,-4
1025,16,-2056,-232,17,-5,-5
1030,24,-2032,-232,16,-6,-7
1035,24,-2032,-240,17,-6,-4
1040,8,-2040,-240,16,-5,-8
1045,48,-2016,-232,17,-3,-5
1050,32,-2048,-248,17,-3,-9
1055,24,-2048,-256,18,-2,-7
1060,24,-2040,-264,19,-1,-10
1065,0,-2032,-264,22,2,-7
1070,16,-2056,-224,19,2,-11
1075,16,-2040,-248,15,4,-10
1080,-16,-2040,-232,14,4,-13
1085,32,-2072,-208,13,6,-10
1090,16,-2032,-240,13,6,-15
1095,8,-2024,-224,12,6,-15
1100,16,-2032,-216,10,5,-17
1105,16,-2024,-232,8,5,-15
1110,16,-2040,-232,8,6,-18
1115,16,-2048,-240,8,6,-16
1120,24,-2032,-224,8,8,-19
1125,16,-2016,-232,8,9,-17
1130,16,-2040,-256,3,9,-18
1135,8,-2040,-224,1,9,-15
1140,16,-2032,-200,1,9,-17
1145,24,-2048,-248,0,12,-15
1150,16,-2024,-216,-1,14,-16
1155,24,-2056,-248,-3,16,-15
1160,24,-2040,-208,-5,20,-19
1165,24,-2024,-200,-7,21,-17
1170,16,-2016,-240,-7,25,-20
1175,24,-2040,-216,-10,27,-19
1180,16,-2048,-208,-12,27,-21
1185,16,-2032,-248,-13,29,-19
1190,8,-2048,-240,-15,30,-21
1195,24,-2048,-248,-18,29,-19
1200,32,-2048,-240,-19,29,-20
1205,16,-2056,-248,-20,29,-17
1210,8,-2024,-240,-22,29,-18
1215,48,-2048,-216,-23,28,-16
1220,32,-2016,-248,-22,28,-17
1225,16,-2024,-216,-24,31,-15
1230,32,-2032,-224,-24,31,-18
1235,40,-2024,-232,-24,34,-15
1240,48,-2032,-248,-23,36,-19
1245,56,-2032,-248,-21,39,-18
1250,32,-2024,-288,-21,43,-18
1255,56,-2032,-256,-22,49,-17
1260,56,-2040,-248,-25,53,-17
1265,40,-2032,-264,-24,59,-15
1270,104,-2040,-256,-26,65,-14
1275,72,-2048,-240,-27,71,-13
1280,80,-2024,-264,-29,78,-13
1285,80,-2056,-264,-31,85,-9
1290,48,-2040,-272,-33,91,-10
1295,56,-2032,-248,-34,93,-8
1300,40,-2040,-280,-37,95,-9
1305,72,-2064,-240,-37,96,-7
1310,72,-2064,-232,-38,97,-7
1315,48,-2048,-264,-38,100,-5
1320,40,-2048,-272,-38,100,-6
1325,56,-2056,-240,-41,102,-6
1330,64,-2056,-272,-40,106,-5
1335,80,-2056,-232,-38,111,-6
1340,80,-2040,-216,-38,115,-7
1345,64,-2048,-248,-39,122,-7
1350,80,-2048,-224,-41,127,-7
1355,96,-2024,-256,-38,132,-8
1360,88,-2024,-232,-37,134,-9
1365,80,-2032,-224,-38,138,-9
1370,56,-2040,-240,-37,141,-8
1375,64,-2016,-240,-34,144,-10
1380,64,-2032,-256,-33,149,-10
1385,56,-2024,-232,-31,153,-12
1390,72,-2040,-216,-33,156,-12
1395,40,-2048,-240,-33,159,-13
1400,56,-2048,-224,-33,162,-13
1405,80,-2032,-280,-32,163,-15
1410,64,-2032,-240,-31,166,-15
1415,40,-2048,-216,-31,169,-16
1420,72,-2056,-232,-32,171,-15
1425,56,-2048,-240,-34,173,-17
1430,56,-2048,-224,-36,177,-16
1435,56,-2040,-216,-37,179,-19
1440,56,-2056,-200,-37,178,-18
1445,72,-2024,-224,-37,182,-22
1450,64,-2032,-232,-37,184,-21
1455,32,-2040,-240,-37,185,-21
1460,48,-2032,-240,-36,188,-20
1465,48,-2040,-224,-37,188,-20
1470,32,-2024,-240,-37,188,-16
1475,56,-2064,-232,-35,189,-18
1480,32,-2048,-272,-37,189,-14
1485,48,-2032,-264,-37,190,-16
1490,24,-2032,-232,-36,189,-12
1495,48,-2040,-256,-36,189,-15
1500,40,-2032,-240,-36,190,-14
1505,64,-2032,-248,-37,190,-15
1510,72,-2032,-272,-39,189,-15
1515,80,-2056,-240,-40,192,-18
1520,72,-2056,-216,-40,194,-18
1525,80,-2032,-240,-41,196,-21
1530,48,-2024,-232,-41,196,-20
1535,80,-2040,-240,-41,196,-25
1540,56,-2032,-232,-41,197,-23
1545,48,-2048,-248,-40,197,-25
1550,32,-2040,-272,-40,196,-22
1555,16,-2056,-248,-42,193,-23
1560,24,-2040,-224,-42,192,-18
1565,8,-2048,-248,-42,190,-20
1570,24,-2064,-240,-41,187,-17
1575,16,-2040,-232,-42,185,-20
1580,24,-2048,-256,-42,183,-16
1585,8,-2032,-240,-42,177,-18
1590,16,-2040,-240,-42,173,-16
1595,40,-2048,-240,-40,168,-20
1600,24,-2032,-240,-40,164,-17
1605,24,-2048,-256,-39,160,-20
1610,24,-2048,-256,-40,154,-18
1615,32,-2032,-240,-40,152,-21
1620,40,-2032,-248,-40,149,-20
1625,16,-2024,-240,-42,146,-20
1630,40,-2024,-256,-41,144,-18
1635,48,-2064,-264,-42,143,-21
1640,8,-2040,-240,-44,141,-19
1645,16,-2024,-256,-45,140,-22
1650,24,-2040,-248,-47,135,-21
1655,40,-2048,-272,-48,132,-24
1660,40,-2048,-248,-48,129,-23
1665,40,-2056,-256,-49,126,-25
1670,24,-2048,-280,-50,123,-24
1675,56,-2040,-272,-53,117,-27
1680,24,-2032,-224,-55,114,-23
1685,64,-2032,-272,-57,111,-26
1690,40,-2032,-296,-58,109,-25
1695,24,-2024,-272,-59,107,-28
1700,40,-2040,-240,-60,108,-28
1705,56,-2008,-264,-61,106,-33
1710,48,-2024,-288,-61,107,-33
1715,48,-2008,-288,-62,111,-38
1720,56,-2000,-280,-63,116,-38
1725,64,-2008,-296,-66,119,-43
1730,64,-2016,-288,-71,124,-43
1735,96,-2048,-296,-75,130,-47
1740,80,-2024,-272,-78,136,-47
1745,96,-2024,-312,-77,140,-50
1750,80,-2008,-320,-77,145,-47
1755,80,-2008,-288,-77,151,-49
1760,104,-2008,-288,-78,159,-45
1765,120,-1992,-328,-83,167,-46
1770,120,-1992,-312,-88,180,-45
1775,152,-2000,-312,-92,193,-47
1780,144,-2000,-288,-96,208,-45
1785,160,-1992,-296,-100,220,-48
1790,144,-1976,-264,-103,232,-45
1795,152,-1984,-288,-108,244,-46
1800,176,-1992,-280,-112,257,-44
1805,184,-1984,-280,-119,272,-43
1810,152,-1976,-320,-127,288,-39
1815,152,-1968,-288,-133,304,-36
1820,160,-1952,-264,-138,318,-32
1825,128,-1944,-256,-142,333,-26
1830,136,-1952,-216,-148,346,-20
1835,136,-1952,-256,-154,357,-16
1840,144,-1928,-248,-161,366,-9
1845,128,-1936,-224,-166,374,-3
1850,112,-1984,-240,-167,379,3
1855,120,-1984,-232,-170,380,9
1860,120,-2016,-240,-172,378,15
1865,120,-2048,-248,-172,375,20
1870,112,-2064,-216,-171,371,24
1875,128,-2096,-200,-174,361,27
1880,88,-2136,-192,-175,348,29
1885,80,-2144,-216,-175,335,29
1890,104,-2160,-232,-177,322,29
1895,80,-2136,-216,-179,310,28
1900,112,-2160,-232,-181,300,24
1905,72,-2112,-248,-181,293,22
1910,64,-2104,-288,-179,284,17
1915,80,-2104,-272,-179,276,15
1920,80,-2080,-272,-178,270,11
1925,80,-2072,-280,-176,265,10
1930,56,-2032,-248,-173,259,8
1935,40,-2048,-288,-169,256,7
1940,24,-2032,-240,-167,254,6
1945,32,-2016,-288,-165,250,6
1950,16,-2032,-232,-163,245,5
1955,32,-2024,-208,-158,240,4
1960,56,-2056,-216,-156,231,2
1965,40,-2040,-232,-155,220,2
1970,24,-2024,-208,-155,207,0
1975,16,-2000,-232,-158,193,2
1980,32,-2040,-200,-166,171,0
1985,56,-2040,-216,-167,152,0
1990,32,-2024,-216,-169,138,-2
1995,72,-2040,-216,-172,126,-3
2000,64,-2024,-232,-173,118,-5
2005,72,-2056,-232,-172,113,-9
2010,88,-2008,-240,-173,106,-12
2015,112,-2064,-248,-173,101,-13
2020,120,-2056,-280,-175,98,-18
2025,112,-2048,-272,-173,99,-19
2030,136,-2072,-264,-171,102,-23
2035,136,-2056,-272,-167,106,-24
2040,160,-2064,-280,-164,109,-31
2045,152,-2064,-272,-157,112,-33
2050,152,-2056,-280,-153,115,-39
2055,152,-2048,-240,-146,118,-42
2060,160,-2056,-296,-139,121,-45
2065,160,-2072,-256,-133,124,-46
2070,152,-2048,-256,-125,127,-50
2075,144,-2056,-240,-120,129,-51
2080,184,-2064,-256,-115,131,-52
2085,192,-2072,-288,-110,133,-52
2090,184,-2064,-224,-108,133,-55
2095,168,-2048,-240,-102,136,-54
2100,184,-2032,-264,-95,141,-57
2105,176,-2024,-248,-86,145,-55
2110,192,-2008,-232,-82,148,-55
2115,184,-2016,-224,-76,151,-50
2120,200,-1992,-248,-72,154,-50
2125,208,-2016,-232,-65,154,-44
2130,184,-2008,-248,-57,157,-46
2135,208,-2008,-240,-54,158,-40
2140,200,-2016,-224,-48,156,-39
2145,224,-2016,-248,-45,156,-33
2150,232,-1984,-224,-40,154,-32
2155,224,-2000,-232,-38,152,-27
2160,240,-2000,-256,-37,151,-25
2165,232,-1992,-224,-35,150,-20
2170,248,-1984,-232,-33,150,-21
2175,240,-1968,-224,-30,151,-16
2180,248,-1968,-248,-28,154,-14
2185,248,-1968,-200,-27,158,-10
2190,232,-1968,-224,-23,162,-11
2195,280,-1984,-232,-20,164,-4
2200,240,-1960,-240,-18,168,-2
2205,256,-1992,-224,-13,169,7
2210,256,-1992,-232,-8,172,11
2215,248,-2008,-264,-2,177,20
2220,280,-2000,-240,5,179,23
2225,280,-1984,-264,8,181,30
2230,272,-1992,-232,13,183,34
2235,256,-2016,-256,19,184,42
2240,264,-2016,-272,24,185,45
2245,264,-1976,-288,29,186,50
2250,248,-1992,-264,31,186,53
2255,280,-1992,-296,33,189,60
2260,264,-2008,-312,34,189,62
2265,272,-1984,-296,34,186,69
2270,272,-1984,-312,35,186,70
2275,272,-1984,-304,36,187,78
2280,272,-1976,-320,35,185,78
2285,288,-1968,-320,33,185,81
2290,296,-1984,-296,25,184,81
2295,280,-2032,-288,20,180,83
2300,272,-2000,-272,16,179,82
2305,264,-2016,-312,12,177,85
2310,248,-2032,-280,13,174,84
2315,248,-2040,-256,17,172,88
2320,232,-2032,-240,23,169,88
2325,248,-2040,-264,31,164,93
2330,232,-2024,-272,36,159,94
2335,208,-2056,-256,43,154,98
2340,224,-2040,-224,47,150,99
2345,216,-2016,-248,51,143,103
2350,240,-2032,-224,52,136,103
2355,256,-2040,-216,59,127,106
2360,256,-2032,-240,66,118,105
2365,224,-2024,-216,73,110,107
2370,232,-2032,-240,79,102,104
2375,232,-2040,-256,83,98,106
2380,272,-2048,-208,88,92,103
2385,256,-2032,-184,93,87,103
2390,288,-2024,-192,100,81,102
2395,280,-2048,-184,110,76,101
2400,264,-2024,-192,121,73,102
2405,272,-2048,-152,135,70,102
2410,280,-2064,-160,147,67,102
2415,280,-2080,-136,160,59,102
2420,248,-2128,-168,170,49,100
2425,200,-2144,-160,180,31,99
2430,176,-2256,-192,193,5,95
2435,160,-2320,-216,210,-26,91
2440,192,-2464,-336,217,-55,84
2445,200,-2520,-472,200,-73,74
2450,256,-2544,-608,150,-70,58
2455,288,-2528,-704,76,-56,38
2460,304,-2504,-696,3,-33,18
2465,296,-2480,-600,-37,-4,-3
2470,264,-2376,-512,-28,37,-13
2475,232,-2288,-464,8,81,-19
2480,184,-2232,-392,50,131,-20
2485,168,-2136,-304,79,180,-18
2490,144,-2096,-232,104,223,-12
2495,152,-2064,-192,126,250,-7
2500,136,-2040,-120,145,260,2
2505,168,-2032,-112,160,253,10
2510,112,-2016,-88,172,230,19
2515,144,-2040,-64,181,196,24
2520,104,-2048,-88,186,142,30
2525,64,-2032,-96,182,87,35
2530,56,-2048,-80,176,32,38
2535,56,-2032,-152,165,-20,40
2540,32,-2008,-184,152,-65,42
2545,40,-1992,-208,140,-103,41
2550,56,-2000,-192,127,-131,41
2555,80,-1984,-256,119,-148,37
2560,88,-1984,-256,113,-154,35
2565,72,-2008,-320,110,-147,31
2570,72,-2008,-344,108,-134,30
2575,48,-2016,-344,109,-109,27
2580,40,-2032,-368,115,-86,27
2585,64,-2024,-352,123,-63,27
2590,40,-2048,-376,129,-39,30
2595,24,-2016,-392,138,-15,32
2600,56,-2032,-400,143,9,37
2605,40,-2016,-392,146,33,36
2610,48,-2008,-432,146,52,38
2615,48,-1992,-384,143,67,34
2620,56,-1928,-400,138,77,33
2625,48,-1912,-368,133,82,26
2630,24,-1856,-416,126,78,23
2635,8,-1856,-352,120,71,20
2640,0,-1856,-384,115,64,19
2645,-64,-1840,-392,111,55,15
2650,-80,-1856,-384,106,48,19
2655,-96,-1816,-336,102,41,22
2660,-144,-1856,-352,98,33,28
2665,-152,-1848,-328,92,26,32
2670,-176,-1864,-360,84,17,41
2675,-192,-1864,-392,77,9,43
2680,-224,-1872,-392,65,3,53
2685,-248,-1856,-416,51,-6,56
2690,-240,-1864,-424,45,-11,63
2695,-224,-1896,-440,38,-11,62
2700,-224,-1904,-448,35,-13,69
2705,-192,-1920,-440,30,-11,68
2710,-184,-1936,-416,25,-10,70
2715,-152,-1952,-456,19,-7,66
2720,-152,-1960,-440,13,-5,65
2725,-152,-1976,-424,6,0,58
2730,-136,-1976,-464,-3,4,56
2735,-120,-1992,-424,-9,9,48
2740,-136,-1976,-424,-16,12,47
2745,-112,-1976,-416,-21,16,42
2750,-96,-1992,-408,-24,20,43
2755,-120,-1992,-424,-25,21,39
2760,-144,-1976,-440,-27,22,43
2765,-128,-1992,-432,-30,22,41
2770,-152,-2000,-448,-34,23,45
2775,-160,-1984,-440,-39,25,46
2780,-160,-1992,-432,-48,27,50
2785,-160,-1992,-472,-55,31,49
2790,-168,-2016,-416,-64,35,55
2795,-120,-2000,-456,-73,38,57
2800,-152,-2000,-432,-82,42,60
2805,-152,-2000,-424,-89,48,59
2810,-168,-1992,-440,-96,52,66
2815,-152,-1984,-416,-103,58,68
2820,-160,-2000,-400,-111,63,74
2825,-152,-2000,-416,-119,67,78
2830,-160,-1992,-368,-122,72,84
2835,-152,-1984,-384,-128,74,87
2840,-160,-2000,-432,-133,74,96
2845,-168,-1992,-408,-139,77,97
2850,-152,-2008,-400,-143,79,103
2855,-168,-1976,-376,-148,81,104
2860,-168,-2008,-360,-153,81,107
2865,-160,-1992,-360,-155,83,106
2870,-144,-1976,-368,-158,86,106
2875,-104,-1984,-352,-160,87,104
2880,-152,-2008,-336,-161,89,102
2885,-128,-2000,-328,-161,94,100
2890,-96,-2016,-328,-158,98,101
2895,-96,-2024,-320,-157,102,94
2900,-104,-2056,-312,-154,106,94
2905,-96,-2048,-328,-154,109,89
2910,-88,-2048,-328,-159,113,87
2915,-88,-2072,-320,-164,116,82
2920,-96,-2024,-312,-169,120,80
2925,-96,-2048,-312,-176,122,77
2930,-88,-2056,-344,-179,122,74
2935,-88,-2040,-336,-184,121,71
2940,-96,-2032,-360,-185,116,70
2945,-128,-2024,-344,-187,113,68
2950,-128,-1992,-352,-187,104,66
2955,-136,-1984,-312,-183,95,62
2960,-160,-1976,-336,-179,85,62
2965,-160,-1984,-344,-177,74,59
2970,-136,-1992,-328,-175,63,60
2975,-160,-1984,-320,-172,54,57
2980,-168,-2000,-336,-171,46,58
2985,-168,-1968,-352,-172,42,57
2990,-152,-1992,-320,-177,39,56
2995,-136,-2000,-328,-188,39,54
3000,-152,-1968,-328,-194,39,55
3005,-104,-1984,-296,-196,43,54
3010,-96,-2000,-296,-198,46,54
3015,-88,-2008,-288,-199,52,55
3020,-88,-2000,-320,-198,58,57
3025,-64,-2016,-288,-197,66,57
3030,-48,-2016,-288,-193,74,58
3035,-40,-2024,-288,-188,82,58
3040,-56,-2008,-296,-185,89,58
3045,-24,-2000,-296,-183,96,58
3050,-40,-2016,-296,-181,100,57
3055,-32,-2056,-288,-181,103,57
3060,-48,-2056,-280,-177,107,57
3065,-56,-2048,-304,-173,112,58
3070,-40,-2064,-288,-170,122,58
3075,-72,-2040,-328,-167,131,57
3080,-48,-2056,-312,-165,138,53
3085,-80,-2032,-312,-165,142,52
3090,-96,-2032,-296,-165,148,48
3095,-96,-2048,-296,-162,156,49
3100,-96,-2032,-336,-161,164,49
3105,-104,-2072,-272,-158,173,53
3110,-96,-2032,-320,-152,181,54
3115,-96,-2032,-280,-145,182,57
3120,-96,-2032,-304,-141,186,58
3125,-104,-2024,-296,-142,187,61
3130,-112,-2040,-280,-143,187,64
3135,-96,-2040,-296,-141,187,69
3140,-80,-2032,-256,-141,189,71
3145,-96,-2040,-240,-140,186,71
3150,-80,-2056,-248,-137,186,69
3155,-88,-2024,-216,-134,184,69
3160,-96,-2040,-232,-129,184,68
3165,-88,-2016,-240,-124,183,66
3170,-96,-2016,-248,-118,182,63
3175,-120,-2032,-256,-117,183,62
3180,-64,-2048,-304,-113,185,57
3185,-88,-1992,-192,-108,191,55
3190,-144,-2000,-440,-105,196,50
3195,-56,-1928,-280,-101,203,47
3200,0,-2072,-280,-97,212,41
3205,-88,-2048,-240,-95,222,39
3210,-80,-2040,-240,-89,228,31
3215,-88,-1880,-240,-81,233,27
3220,-80,-1992,-256,-70,239,23
3225,-96,-2000,-256,-59,245,22
3230,-88,-2032,-232,-48,250,15
3235,-152,-2000,-224,-39,253,12
3240,-96,-2016,-224,-25,250,13
3245,-88,-2048,-272,-19,251,11
3250,-96,-2032,-240,-14,252,2
3255,-112,-2048,-248,-10,251,-5
3260,-104,-2072,-248,-6,249,-14
3265,-112,-2072,-216,-4,249,-17
3270,-128,-2064,-256,-1,248,-28
3275,-120,-2096,-216,4,242,-31
3280,-112,-2080,-240,8,237,-35
3285,-96,-2088,-216,13,231,-35
3290,-96,-2096,-248,17,227,-42
3295,-112,-2080,-224,21,225,-41
3300,-112,-2088,-248,27,224,-43
3305,-80,-2064,-264,33,227,-44
3310,-96,-2072,-232,38,228,-52
3315,-96,-2072,-264,46,229,-55
3320,-80,-2064,-240,56,236,-60
3325,-80,-2080,-248,70,240,-61
3330,-88,-2072,-232,84,245,-66
3335,-88,-2072,-264,98,251,-67
3340,-80,-2080,-240,110,256,-72
3345,-96,-2072,-248,121,258,-72
3350,-96,-2072,-248,133,260,-76
3355,-104,-2072,-184,140,264,-76
3360,-112,-2080,-232,147,269,-79
3365,-112,-2080,-224,154,272,-79
3370,-104,-2104,-200,161,275,-80
3375,-144,-2136,-208,167,278,-74
3380,-128,-2120,-216,175,281,-75
3385,-136,-2112,-200,179,283,-68
3390,-128,-2144,-192,182,285,-66
3395,-112,-2192,-192,188,287,-57
3400,-104,-2232,-224,187,286,-51
3405,-136,-2264,-280,182,281,-37
3410,-136,-2328,-304,176,273,-25
3415,-152,-2360,-384,168,262,-6
3420,-152,-2432,-424,154,245,11
3425,-152,-2472,-416,133,229,31
3430,-136,-2560,-464,103,212,50
3435,-128,-2536,-456,66,200,67
3440,-152,-2512,-440,44,192,77
3445,-144,-2448,-400,38,188,91
3450,-112,-2360,-360,50,180,97
3455,-136,-2272,-288,75,167,99
3460,-96,-2176,-264,109,148,89
3465,-96,-2120,-264,147,122,80
3470,-104,-2096,-256,185,98,63
3475,-96,-2096,-288,214,79,49
3480,-72,-2104,-304,234,70,28
3485,-72,-2104,-248,251,76,14
3490,-72,-2088,-216,263,92,-4
3495,-56,-2072,-232,273,119,-20
3500,-40,-2056,-200,285,152,-38
3505,-48,-2024,-216,299,190,-51
3510,-16,-2016,-208,309,226,-66
3515,-40,-1984,-232,312,258,-78
3520,-24,-1968,-240,311,283,-89
3525,-48,-1928,-240,308,300,-94
3530,-48,-1912,-280,303,312,-98
3535,-72,-1872,-272,299,319,-97
3540,-80,-1848,-280,294,319,-98
3545,-88,-1824,-288,292,317,-92
3550,-88,-1808,-288,288,308,-90
3555,-80,-1792,-304,287,297,-82
3560,-96,-1768,-280,282,282,-75
3565,-104,-1768,-320,273,262,-68
3570,-96,-1800,-360,261,238,-60
3575,-96,-1816,-360,246,211,-53
3580,-80,-1816,-400,229,186,-45
3585,-72,-1856,-400,213,164,-36
3590,-64,-1848,-416,195,142,-30
3595,-56,-1832,-448,173,129,-25
3600,-48,-1856,-472,156,120,-21
3605,-40,-1856,-496,142,112,-15
3610,-24,-1848,-528,126,108,-11
3615,0,-1840,-528,110,104,-7
3620,-8,-1864,-528,93,100,-2
3625,8,-1848,-592,76,99,2
3630,24,-1832,-608,58,101,7
3635,32,-1848,-632,42,106,10
3640,32,-1864,-608,25,115,15
3645,72,-1856,-640,5,135,19
3650,96,-1864,-656,-14,155,21
3655,136,-1872,-624,-32,178,22
3660,120,-1872,-632,-46,198,23
3665,144,-1904,-616,-57,216,22
3670,152,-1928,-624,-67,232,20
3675,176,-1936,-584,-79,244,16
3680,152,-1960,-552,-92,253,11
3685,200,-1992,-528,-104,257,7
3690,152,-2008,-544,-112,259,4
3695,128,-2040,-512,-119,261,0
3700,128,-2072,-480,-128,255,-1
3705,128,-2064,-456,-134,245,-3
3710,72,-2080,-432,-141,228,-5
3715,64,-2104,-400,-149,208,-7
3720,40,-2088,-384,-155,184,-9
3725,8,-2080,-344,-160,162,-13
3730,-8,-2096,-336,-164,139,-14
3735,-40,-2112,-328,-171,117,-17
3740,-64,-2112,-312,-176,94,-19
3745,-64,-2128,-304,-180,71,-23
3750,-88,-2136,-304,-187,47,-27
3755,-96,-2144,-272,-196,29,-35
3760,-80,-2120,-312,-205,14,-41
3765,-88,-2144,-312,-213,3,-50
3770,-88,-2088,-312,-222,-4,-53
3775,-64,-2080,-344,-230,-6,-59
3780,-72,-2064,-304,-236,-5,-63
3785,-40,-2064,-280,-234,-5,-70
3790,-32,-2048,-304,-229,-4,-73
3795,-48,-2016,-312,-223,-4,-77
3800,-24,-2000,-264,-217,-5,-78
3805,-16,-1960,-280,-214,-8,-81
3810,8,-1992,-256,-213,-13,-80
3815,0,-1976,-272,-213,-19,-79
3820,8,-1944,-272,-210,-23,-76
3825,32,-1912,-224,-208,-29,-76
3830,0,-1904,-208,-205,-34,-72
3835,40,-1936,-240,-202,-41,-73
3840,24,-1912,-256,-196,-50,-73
3845,24,-1912,-256,-192,-58,-76
3850,32,-1928,-272,-191,-67,-75
3855,32,-1912,-256,-192,-78,-75
3860,48,-1912,-256,-193,-87,-73
3865,48,-1920,-264,-196,-98,-74
3870,56,-1936,-264,-200,-108,-71
3875,48,-1920,-280,-204,-116,-73
3880,80,-1960,-248,-211,-125,-69
3885,72,-1968,-312,-213,-129,-66
3890,88,-1960,-296,-212,-132,-59
3895,96,-1952,-264,-209,-133,-59
3900,112,-1984,-280,-208,-134,-53
3905,112,-1992,-288,-202,-134,-53
3910,104,-1984,-264,-195,-133,-49
3915,104,-2008,-280,-186,-128,-49
3920,104,-2000,-264,-177,-122,-44
3925,136,-2024,-264,-166,-118,-46
3930,112,-2032,-288,-154,-113,-43
3935,136,-2024,-272,-145,-110,-46
3940,136,-2040,-240,-136,-107,-44
3945,136,-2048,-280,-130,-102,-47
3950,136,-2008,-280,-124,-100,-47
3955,136,-2040,-256,-120,-95,-51
3960,160,-2048,-280,-114,-90,-49
3965,144,-2032,-248,-107,-88,-49
3970,144,-2040,-256,-100,-85,-45
3975,144,-2008,-264,-93,-81,-45
3980,168,-2032,-224,-85,-77,-44
3985,192,-2040,-264,-77,-72,-45
3990,192,-2000,-248,-68,-70,-42
3995,168,-2032,-232,-62,-65,-45
4000,184,-2024,-256,-55,-61,-44
4005,184,-2016,-288,-49,-55,-48
4010,200,-2016,-224,-44,-51,-46
4015,184,-2000,-240,-34,-45,-49
4020,200,-2008,-232,-27,-40,-47
4025,168,-1976,-256,-23,-35,-49
4030,176,-1984,-200,-13,-29,-45
4035,176,-1992,-232,-6,-26,-46
4040,168,-1976,-192,2,-21,-42
4045,160,-1984,-168,10,-17,-43
4050,168,-2008,-192,19,-15,-39
4055,176,-2024,-200,26,-12,-39
4060,184,-2024,-200,32,-9,-33
4065,192,-2024,-176,37,-9,-33
4070,184,-2000,-168,43,-9,-26
4075,200,-1992,-168,47,-7,-26
4080,224,-2008,-192,51,-6,-21
4085,216,-1984,-224,55,-5,-20
4090,208,-1968,-240,57,-4,-17
4095,208,-1968,-240,59,-7,-17
4100,216,-1992,-264,59,-9,-14
4105,216,-1976,-272,58,-10,-15
4110,232,-2000,-256,60,-13,-12
4115,224,-1992,-256,62,-16,-11
4120,200,-2000,-200,66,-18,-7
4125,208,-2008,-232,72,-23,-4
4130,224,-2032,-216,75,-23,1
4135,208,-2000,-256,81,-27,3
4140,192,-2008,-240,87,-30,9
4145,208,-2048,-200,94,-33,13
4150,208,-2040,-224,100,-39,17
4155,208,-2072,-200,106,-45,20
4160,184,-2080,-168,112,-54,26
4165,184,-2072,-152,119,-65,28
4170,184,-2080,-160,129,-80,35
4175,176,-2080,-112,138,-97,38
4180,144,-2064,-80,146,-115,43
4185,152,-2088,-64,155,-135,51
4190,104,-2088,-72,164,-156,61
4195,112,-2104,-88,172,-178,67
4200,120,-2112,-24,185,-202,77
4205,168,-2192,24,198,-223,86
4210,80,-2160,16,214,-245,94
4215,64,-2192,24,230,-267,101
4220,32,-2312,-24,251,-291,102
4225,24,-2456,-88,288,-322,101
4230,40,-2632,-176,319,-353,102
4235,96,-2728,-360,329,-378,92
4240,160,-2744,-520,296,-387,72
4245,240,-2792,-632,219,-381,40
4250,272,-2792,-688,116,-369,-1
4255,312,-2776,-672,34,-351,-41
4260,344,-2664,-608,1,-322,-76
4265,336,-2520,-504,21,-274,-105
4270,288,-2384,-448,66,-205,-124
4275,232,-2264,-392,120,-103,-136
4280,200,-2192,-360,186,-16,-137
4285,144,-2120,-296,242,60,-132
4290,88,-2096,-272,290,109,-123
4295,64,-2048,-208,324,136,-114
4300,-8,-2056,-176,351,142,-106
4305,-32,-2056,-152,366,125,-96
4310,-80,-2000,-192,372,95,-85
4315,-112,-1960,-160,366,48,-72
4320,-112,-1936,-184,354,-8,-63
4325,-104,-1880,-216,337,-71,-49
4330,-96,-1832,-272,307,-142,-41
4335,-80,-1800,-272,274,-191,-39
4340,-80,-1768,-312,239,-228,-41
4345,-40,-1760,-336,204,-256,-42
4350,-64,-1720,-400,177,-272,-45
4355,-64,-1712,-408,158,-282,-46
4360,-64,-1696,-432,146,-284,-48
4365,-80,-1720,-472,137,-278,-45
4370,-88,-1688,-496,130,-266,-43
4375,-96,-1688,-528,122,-249,-39
4380,-96,-1664,-536,118,-232,-37
4385,-96,-1648,-560,114,-205,-35
4390,-144,-1656,-576,109,-183,-38
4395,-176,-1656,-576,100,-161,-39
4400,-208,-1672,-576,89,-147,-43
4405,-248,-1696,-560,81,-141,-42
4410,-264,-1688,-616,71,-139,-43
4415,-288,-1752,-568,58,-144,-41
4420,-304,-1824,-568,43,-154,-41
4425,-320,-1848,-568,27,-162,-37
4430,-304,-1904,-528,11,-168,-36
4435,-296,-1952,-512,-4,-168,-31
4440,-280,-1992,-456,-23,-160,-31
4445,-232,-2072,-440,-32,-143,-28
4450,-216,-2080,-448,-37,-116,-28
4455,-184,-2104,-384,-36,-85,-24
4460,-152,-2144,-368,-35,-47,-22
4465,-96,-2176,-344,-31,-9,-15
4470,-72,-2216,-344,-25,33,-9
4475,-16,-2232,-352,-19,74,5
4480,16,-2272,-296,-12,111,15
4485,48,-2256,-296,-3,146,28
4490,48,-2280,-328,7,182,35
4495,88,-2264,-304,11,209,44
4500,88,-2224,-304,16,230,47
4505,88,-2200,-280,21,248,53
4510,40,-2160,-280,30,263,57
4515,24,-2104,-224,40,272,65
4520,0,-2040,-240,51,272,70
4525,-40,-2032,-232,59,265,84
4530,-56,-1976,-168,68,256,90
4535,-72,-1928,-184,76,246,99
4540,-96,-1888,-176,86,235,98
4545,-128,-1848,-144,91,227,102
4550,-112,-1840,-120,93,220,101
4555,-144,-1784,-112,86,212,102
4560,-104,-1776,-112,75,206,99
4565,-112,-1776,-104,60,202,101
4570,-136,-1784,-104,40,201,97
4575,-104,-1792,-104,17,201,98
4580,-96,-1792,-96,-7,203,94
4585,-96,-1816,-104,-26,208,97
4590,-96,-1840,-128,-43,217,96
4595,-80,-1856,-136,-60,229,102
4600,-64,-1856,-112,-73,242,100
4605,-72,-1896,-120,-79,255,102
4610,-40,-1912,-104,-86,267,100
4615,-24,-1928,-120,-89,282,104
4620,-24,-1928,-144,-90,295,103
4625,-8,-1920,-152,-93,303,105
4630,-40,-1904,-168,-93,310,102
4635,-32,-1928,-128,-91,315,103
4640,-56,-1904,-160,-88,319,98
4645,-72,-1896,-168,-84,320,95
4650,-64,-1912,-152,-79,321,88
4655,-80,-1928,-136,-78,320,85
4660,-80,-1920,-176,-76,317,79
4665,-96,-1888,-160,-77,315,75
4670,-96,-1928,-160,-79,315,69
4675,-96,-1896,-152,-81,311,66
4680,-112,-1904,-160,-84,308,60
4685,-96,-1928,-176,-87,306,57
4690,-80,-1920,-136,-88,304,51
4695,-72,-1936,-136,-90,300,43
4700,-64,-1920,-144,-94,294,31
4705,-64,-1920,-152,-95,289,25
4710,-72,-1952,-144,-95,285,15
4715,-56,-1920,-160,-96,280,10
4720,-56,-1928,-136,-99,274,-1
4725,-64,-1944,-120,-101,268,-6
4730,-40,-1968,-168,-102,264,-15
4735,-40,-1968,-120,-102,259,-19
4740,-56,-1992,-104,-104,255,-25
4745,-80,-2000,-56,-102,250,-30
4750,-72,-2008,-80,-100,243,-37
4755,-80,-2040,-80,-99,236,-41
4760,-88,-2000,-72,-95,228,-49
4765,-88,-2040,-56,-93,224,-51
4770,-88,-2056,-40,-90,224,-59
4775,-72,-2072,-64,-85,225,-62
4780,-88,-2064,-56,-78,231,-67
4785,-72,-2080,-32,-70,238,-72
4790,-72,-2080,-32,-59,244,-78
4795,-64,-2072,-8,-47,251,-80
4800,-40,-2080,-16,-36,257,-85
4805,-56,-2096,-8,-24,265,-87
4810,-32,-2104,-8,-9,271,-94
4815,-48,-2128,-8,3,274,-96
4820,-24,-2136,8,15,275,-99
4825,-80,-2144,32,24,276,-99
4830,-72,-2128,40,33,275,-98
4835,-96,-2144,16,40,268,-100
4840,-104,-2168,-16,47,257,-100
4845,-144,-2160,48,51,245,-97
4850,-152,-2184,24,56,233,-96
4855,-176,-2192,32,61,225,-93
4860,-192,-2160,24,65,213,-87
4865,-176,-2168,72,70,204,-81
4870,-184,-2192,64,80,193,-79
4875,-168,-2200,88,91,183,-75
4880,-160,-2192,96,101,173,-70
4885,-144,-2240,128,113,169,-64
4890,-96,-2216,136,128,165,-59
4895,-88,-2256,136,144,158,-56
4900,-48,-2256,200,156,154,-55
4905,-24,-2248,248,162,152,-56
4910,0,-2240,208,170,152,-59
4915,32,-2256,320,180,155,-60
4920,88,-2248,304,189,161,-65
4925,120,-2224,368,207,171,-69
4930,176,-2248,352,232,191,-75
4935,176,-2264,376,263,216,-82
4940,176,-2320,352,288,239,-81
4945,144,-2464,336,309,258,-75
4950,80,-2616,248,325,273,-54
4955,-16,-2776,96,333,274,-28
4960,-64,-2904,-24,328,273,-2
4965,-72,-3064,-200,299,287,23
4970,-80,-3112,-352,233,313,45
4975,-88,-3088,-384,186,350,59
4980,-152,-2952,-360,162,374,70
4985,-224,-2736,-344,167,356,75
4990,-288,-2552,-376,189,289,77
4995,-360,-2384,-384,222,192,77
5000,-376,-2304,-440,248,93,82
5005,-400,-2216,-440,261,15,82
5010,-392,-2176,-448,269,-33,87
5015,-352,-2096,-440,274,-57,89
5020,-264,-2024,-432,280,-49,95
5025,-240,-1888,-432,286,-22,94
5030,-176,-1776,-448,284,17,93
5035,-88,-1648,-456,279,65,87
5040,-40,-1600,-480,266,117,83
5045,24,-1488,-480,240,170,72
5050,104,-1416,-472,209,221,64
5055,144,-1344,-520,172,269,51
5060,208,-1272,-528,136,312,41
5065,200,-1264,-544,103,346,27
5070,192,-1288,-528,74,361,17
5075,184,-1376,-472,42,357,9
5080,168,-1456,-464,18,335,8
5085,120,-1584,-488,-9,296,8
5090,48,-1696,-472,-48,250,13
5095,-32,-1800,-464,-94,208,16
5100,-112,-1872,-464,-144,169,25
5105,-176,-1904,-424,-189,134,30
5110,-200,-1984,-432,-224,104,40
5115,-256,-1984,-400,-245,75,42
5120,-288,-2000,-392,-253,41,49
5125,-304,-2008,-352,-252,0,49
5130,-288,-2016,-312,-243,-36,51
5135,-272,-2056,-336,-235,-71,46
5140,-264,-2032,-328,-224,-102,41
5145,-256,-2064,-328,-212,-132,29
5150,-224,-2080,-328,-204,-161,22
5155,-184,-2088,-392,-200,-182,6
5160,-176,-2072,-384,-202,-200,-4
5165,-112,-2088,-376,-209,-217,-22
5170,-88,-2096,-368,-216,-235,-31
5175,-96,-2080,-328,-225,-253,-48
5180,-96,-2072,-336,-237,-286,-58
5185,-80,-2072,-296,-247,-316,-71
5190,-88,-2048,-296,-261,-349,-79
5195,-96,-2048,-256,-271,-384,-90
5200,-96,-2008,-240,-280,-420,-94
5205,-160,-2000,-232,-286,-452,-104
5210,-168,-1968,-256,-289,-482,-106
5215,-160,-1952,-240,-286,-507,-107
5220,-184,-1936,-232,-282,-533,-102
5225,-152,-1928,-240,-276,-558,-105
5230,-168,-1880,-256,-269,-584,-105
5235,-96,-1904,-240,-262,-605,-112
5240,-96,-1912,-232,-258,-622,-120
5245,-88,-1896,-240,-250,-637,-134
5250,-16,-1952,-248,-241,-652,-144
5255,16,-1952,-264,-239,-660,-165
5260,32,-1952,-240,-243,-664,-184
5265,56,-1976,-232,-250,-664,-204
5270,48,-1960,-240,-259,-661,-216
5275,72,-1960,-240,-266,-654,-223
5280,104,-1952,-240,-271,-654,-223
5285,128,-1968,-240,-271,-656,-221
5290,96,-1936,-240,-267,-653,-220
5295,112,-1920,-200,-262,-649,-219
5300,104,-1880,-192,-257,-641,-209
5305,104,-1856,-200,-247,-626,-205
5310,120,-1856,-168,-235,-610,-196
5315,120,-1848,-160,-219,-588,-193
5320,112,-1840,-160,-203,-567,-183
5325,144,-1848,-152,-185,-542,-175
5330,176,-1904,-136,-169,-518,-164
5335,216,-1904,-176,-155,-491,-161
5340,248,-1912,-152,-143,-468,-158
5345,232,-1928,-136,-141,-446,-158
5350,240,-1904,-152,-142,-423,-154
5355,224,-1928,-96,-146,-401,-154
5360,264,-1928,-96,-150,-381,-152
5365,248,-1936,-120,-152,-362,-150
5370,272,-1912,-104,-151,-342,-143
5375,216,-1912,-112,-152,-322,-135
5380,224,-1920,-96,-148,-307,-124
5385,192,-1928,-80,-142,-288,-112
5390,168,-1912,-72,-135,-270,-97
5395,168,-1952,-72,-129,-256,-86
5400,136,-1904,-72,-124,-243,-71
5405,136,-1928,-104,-118,-230,-60
5410,120,-1904,-80,-114,-219,-47
5415,128,-1904,-72,-110,-210,-40
5420,112,-1920,-112,-104,-203,-29
5425,152,-1976,-104,-97,-199,-20
5430,144,-1976,-104,-91,-196,-12
5435,144,-1992,-128,-87,-193,-5
5440,152,-2024,-136,-90,-191,5
5445,160,-1984,-88,-94,-189,9
5450,152,-2104,-96,-99,-184,16
5455,184,-2104,-104,-105,-175,18
5460,192,-2040,-216,-109,-167,22
5465,208,-2064,-160,-116,-160,24
5470,120,-2136,-152,-120,-156,25
5475,168,-2104,-224,-126,-154,24
5480,272,-2136,-64,-133,-157,24
5485,200,-2168,-128,-137,-163,21
5490,152,-2176,-288,-138,-171,20
5495,200,-2200,-160,-130,-183,17
5500,240,-2232,-80,-114,-194,15
5505,216,-2288,-64,-90,-203,12
5510,208,-2296,-72,-64,-210,8
5515,176,-2336,-24,-37,-218,3
5520,176,-2376,-24,-8,-224,-4
5525,184,-2384,48,18,-232,-13
5530,144,-2384,64,43,-239,-21
5535,120,-2376,72,67,-245,-26
5540,80,-2368,128,90,-249,-31
5545,112,-2336,160,114,-256,-32
5550,104,-2336,168,145,-265,-30
5555,64,-2312,200,171,-273,-27
5560,48,-2312,280,198,-284,-25
5565,32,-2288,296,224,-296,-19
5570,-8,-2344,312,246,-313,-17
5575,-64,-2440,312,274,-336,-18
5580,-56,-2600,304,316,-375,-23
5585,-48,-2792,168,374,-422,-26
5590,-24,-2904,64,418,-463,-34
5595,48,-2984,-144,416,-498,-61
5600,64,-2936,-376,321,-522,-99
5605,104,-2880,-464,199,-518,-143
5610,112,-2760,-448,108,-498,-179
5615,136,-2592,-368,83,-478,-198
5620,176,-2400,-384,112,-453,-207
5625,192,-2264,-336,157,-405,-210
5630,192,-2208,-352,195,-341,-214
5635,160,-2136,-328,232,-271,-212
5640,120,-2096,-320,275,-202,-212
5645,120,-2080,-320,315,-147,-210
5650,88,-2024,-368,340,-101,-209
5655,72,-1968,-384,353,-74,-204
5660,88,-1872,-456,344,-59,-202
5665,80,-1808,-496,320,-55,-197
5670,80,-1752,-552,290,-68,-194
5675,64,-1648,-552,248,-102,-184
5680,32,-1568,-584,202,-156,-177
5685,-16,-1512,-608,142,-223,-168
5690,-96,-1416,-616,79,-300,-161
5695,-192,-1312,-624,15,-378,-146
5700,-312,-1216,-616,-43,-453,-132
5705,-384,-1136,-632,-87,-532,-103
5710,-416,-1120,-640,-116,-583,-84
5715,-480,-1120,-608,-121,-620,-57
5720,-536,-1184,-576,-113,-646,-35
5725,-472,-1336,-560,-95,-660,-14
5730,-408,-1544,-544,-80,-659,-3
5735,-336,-1712,-568,-72,-641,1
5740,-248,-1888,-504,-75,-615,-8
5745,-184,-2048,-488,-89,-582,-21
5750,-112,-2104,-464,-106,-538,-40
5755,-72,-2184,-488,-120,-482,-57
5760,-24,-2176,-480,-137,-399,-78
5765,48,-2216,-480,-149,-320,-92
5770,88,-2240,-480,-168,-238,-106
5775,144,-2224,-448,-190,-151,-112
5780,128,-2208,-456,-217,-71,-119
5785,136,-2200,-456,-239,1,-112
5790,160,-2160,-464,-254,57,-102
5795,152,-2168,-408,-263,104,-81
5800,144,-2136,-376,-259,139,-58
5805,152,-2136,-384,-246,163,-24
5810,160,-2176,-368,-221,180,3
5815,152,-2152,-336,-193,184,30
5820,136,-2136,-376,-167,183,50
5825,112,-2144,-376,-139,175,70
5830,136,-2080,-368,-116,164,86
5835,104,-2064,-368,-99,150,110
5840,80,-2024,-344,-92,132,124
5845,48,-1968,-336,-91,114,138
5850,0,-1888,-296,-99,97,145
5855,0,-1816,-256,-120,76,158
5860,-24,-1768,-256,-146,43,170
5865,-32,-1768,-224,-170,23,184
5870,-56,-1760,-216,-177,13,190
5875,-40,-1760,-176,-180,13,198
5880,-48,-1744,-216,-183,17,199
5885,-40,-1760,-160,-189,24,204
5890,-80,-1776,-200,-195,36,203
5895,-64,-1792,-232,-204,50,204
5900,-72,-1792,-200,-217,67,196
5905,-72,-1824,-216,-221,82,201
5910,-80,-1848,-200,-225,94,199
5915,-80,-1864,-224,-230,106,201
5920,-96,-1872,-168,-232,115,199
5925,-96,-1880,-176,-234,121,201
5930,-120,-1872,-200,-234,124,199
5935,-96,-1904,-192,-233,125,202
5940,-104,-1912,-200,-230,124,198
5945,-136,-1904,-208,-228,118,194
5950,-168,-1912,-208,-222,109,184
5955,-168,-1928,-184,-212,98,177
5960,-168,-1920,-160,-200,88,168
5965,-176,-1944,-176,-189,77,156
5970,-176,-1944,-144,-178,70,142
5975,-176,-1944,-120,-171,64,132
5980,-184,-1928,-104,-163,59,117
5985,-168,-1944,-104,-156,57,105
5990,-152,-1920,-104,-148,55,89
5995,-168,-1912,-104,-139,56,79
6000,-168,-1920,-48,-130,57,61
6005,-168,-1928,-56,-120,59,48
6010,-168,-1936,-80,-110,60,32
6015,-160,-1936,-64,-103,64,18
6020,-144,-1944,-64,-94,65,3
6025,-152,-1960,-80,-89,67,-8
6030,-152,-1976,-80,-89,65,-23
6035,-128,-1976,-88,-86,64,-35
6040,-96,-2000,-120,-84,62,-48
6045,-120,-2024,-112,-79,59,-58
6050,-96,-2064,-136,-74,59,-68
6055,-112,-2096,-96,-69,62,-72
6060,-80,-2160,-104,-64,70,-78
6065,-64,-2176,-120,-59,81,-82
6070,-8,-2208,-96,-52,100,-88
6075,8,-2256,-96,-45,117,-89
6080,8,-2248,-104,-36,132,-95
6085,32,-2248,-48,-24,143,-105
6090,64,-2256,-64,-7,146,-122
6095,32,-2232,-48,16,140,-137
6100,16,-2200,-72,42,127,-152
6105,-48,-2192,-96,70,104,-160
6110,-96,-2176,-104,98,80,-161
6115,-160,-2168,-96,122,56,-154
6120,-192,-2208,-56,143,36,-132
6125,-248,-2240,-24,167,25,-108
6130,-232,-2296,0,181,22,-85
6135,-248,-2336,56,194,25,-59
6140,-232,-2336,88,211,32,-35
6145,-224,-2360,136,228,45,-9
6150,-200,-2368,208,247,63,13
6155,-144,-2408,240,268,81,33
6160,-112,-2408,296,284,98,54
6165,-16,-2496,312,300,115,81
6170,72,-2648,224,315,135,121
6175,120,-2856,136,335,164,170
6180,168,-2976,8,358,183,200
6185,256,-3112,-192,336,200,216
6190,328,-3176,-440,267,223,218
6195,360,-3176,-464,186,265,214
6200,344,-3088,-456,129,318,203
6205,248,-2888,-392,115,357,191
6210,88,-2624,-320,146,361,181
6215,-24,-2408,-360,204,323,169
6220,-80,-2280,-328,273,256,160
6225,-88,-2128,-472,331,170,141
6230,-160,-2080,-584,372,76,127
6235,-224,-1992,-640,375,18,118
6240,-232,-1896,-680,360,-12,117
6245,-240,-1864,-712,337,-7,119
6250,-184,-1752,-768,313,33,130
6255,-128,-1672,-792,292,102,141
6260,-88,-1608,-776,267,194,154
6265,24,-1552,-768,237,300,163
6270,128,-1496,-792,204,408,174
6275,256,-1472,-800,166,507,181
6280,336,-1416,-784,128,595,182
6285,416,-1440,-760,87,638,177
6290,480,-1480,-712,63,654,169
6295,504,-1552,-696,46,647,158
6300,496,-1600,-624,30,625,149
6305,440,-1712,-640,16,597,141
6310,400,-1776,-560,-5,562,139
6315,328,-1824,-552,-30,528,134
6320,248,-1880,-456,-58,485,128
6325,144,-1920,-424,-86,435,121
6330,16,-1904,-376,-109,376,111
6335,-80,-1960,-376,-133,295,100
6340,-104,-1976,-384,-150,229,92
6345,-184,-1984,-360,-164,164,75
6350,-200,-2016,-352,-176,107,60
6355,-248,-2000,-376,-188,63,38
6360,-264,-1976,-408,-205,32,22
6365,-264,-1944,-424,-222,14,2
6370,-240,-1968,-456,-238,10,-11
6375,-192,-1928,-440,-247,15,-26
6380,-160,-1920,-408,-250,26,-35
6385,-136,-1904,-416,-249,44,-46
6390,-80,-1872,-400,-242,53,-49
6395,-80,-1880,-336,-231,59,-54
6400,-80,-1888,-360,-216,62,-51
6405,-32,-1856,-328,-199,61,-51
6410,8,-1872,-264,-187,58,-46
6415,32,-1880,-288,-178,52,-46
6420,48,-1888,-264,-174,43,-41
6425,64,-1880,-248,-176,33,-42
6430,88,-1872,-224,-182,21,-39
6435,48,-1848,-240,-188,10,-44
6440,88,-1864,-216,-198,-7,-45
6445,88,-1832,-216,-210,-19,-52
6450,104,-1800,-192,-222,-36,-54
6455,80,-1816,-208,-229,-52,-61
6460,96,-1800,-224,-233,-69,-61
6465,104,-1784,-256,-231,-83,-69
6470,72,-1776,-208,-230,-93,-75
6475,48,-1760,-200,-224,-101,-81
6480,56,-1736,-256,-221,-106,-84
6485,64,-1776,-256,-214,-109,-94
6490,72,-1784,-312,-209,-105,-96
6495,64,-1808,-304,-207,-100,-102
6500,56,-1800,-288,-203,-92,-103
6505,64,-1816,-288,-201,-86,-108
6510,64,-1824,-288,-199,-82,-109
6515,64,-1824,-296,-198,-80,-113
6520,72,-1872,-288,-195,-83,-109
6525,88,-1872,-264,-191,-88,-108
6530,72,-1888,-232,-190,-96,-101
6535,88,-1872,-264,-188,-108,-99
6540,104,-1904,-240,-185,-119,-90
6545,104,-1912,-216,-180,-130,-87
6550,120,-1912,-224,-176,-137,-80
6555,136,-1920,-216,-173,-144,-78
6560,128,-1920,-208,-173,-151,-72
6565,136,-1920,-208,-172,-157,-71
6570,144,-1928,-208,-170,-161,-65
6575,160,-1928,-232,-168,-164,-63
6580,152,-1936,-224,-160,-167,-59
6585,152,-1952,-208,-155,-168,-60
6590,184,-1952,-208,-151,-170,-56
6595,176,-1976,-192,-149,-172,-57
6600,176,-1992,-176,-147,-172,-56
6605,200,-2016,-184,-146,-171,-58
6610,168,-2048,-128,-144,-169,-55
6615,176,-2048,-144,-141,-169,-52
6620,152,-2080,-128,-135,-168,-44
6625,144,-2088,-72,-126,-166,-38
6630,152,-2152,-88,-116,-162,-28
6635,160,-2168,-64,-102,-158,-20
6640,168,-2224,-40,-88,-153,-10
6645,176,-2264,-64,-74,-147,-1
6650,232,-2304,-56,-60,-148,7
6655,248,-2312,-48,-49,-150,12
6660,272,-2368,8,-34,-157,18
6665,280,-2408,-8,-16,-165,18
6670,288,-2432,32,5,-172,18
6675,304,-2448,64,24,-178,14
6680,296,-2440,56,45,-182,13
6685,304,-2416,56,67,-187,8
6690,288,-2400,48,88,-189,3
6695,288,-2368,64,113,-192,-9
6700,272,-2344,48,145,-196,-17
6705,280,-2328,72,171,-197,-28
6710,296,-2336,104,197,-198,-32
6715,304,-2312,144,225,-193,-40
6720,296,-2304,144,254,-190,-45
6725,256,-2304,152,285,-186,-53
6730,240,-2328,96,313,-189,-61
6735,264,-2400,64,333,-196,-76
6740,232,-2544,-16,360,-202,-95
6745,264,-2712,-112,395,-200,-110
6750,312,-2840,-336,415,-197,-133
6755,312,-2968,-496,374,-195,-167
6760,240,-3048,-656,288,-183,-203
6765,192,-3040,-616,194,-168,-232
6770,232,-3016,-528,138,-153,-253
6775,224,-2904,-496,129,-132,-270
6780,264,-2720,-456,149,-86,-283
6785,264,-2544,-440,176,-7,-289
6790,216,-2360,-448,206,89,-296
6795,144,-2168,-440,239,180,-294
6800,112,-2040,-464,270,248,-279
6805,32,-1936,-504,298,282,-255
6810,-56,-1824,-552,319,274,-225
6815,-96,-1776,-600,327,238,-196
6820,-184,-1688,-624,322,181,-176
6825,-288,-1592,-672,305,97,-161
6830,-400,-1480,-672,273,-7,-148
6835,-480,-1424,-664,238,-127,-136
6840,-576,-1336,-600,207,-247,-123
6845,-616,-1320,-640,194,-356,-108
6850,-624,-1352,-624,193,-443,-96
6855,-624,-1392,-624,200,-515,-85
6860,-600,-1504,-600,204,-550,-77
6865,-552,-1608,-576,196,-564,-70
6870,-480,-1728,-576,170,-565,-68
6875,-416,-1816,-528,127,-551,-67
6880,-304,-1928,-528,76,-528,-64
6885,-208,-1976,-528,31,-499,-58
6890,-168,-1976,-512,-12,-459,-59
6895,-72,-1992,-464,-44,-416,-61
6900,-16,-2032,-432,-58,-361,-70
6905,48,-2016,-424,-59,-301,-76
6910,88,-2016,-416,-51,-224,-80
6915,112,-2008,-392,-42,-162,-76
6920,120,-2008,-400,-34,-106,-67
6925,120,-2016,-400,-27,-59,-50
6930,104,-2032,-424,-25,-23,-29
6935,112,-2032,-456,-27,3,-4
6940,88,-2040,-472,-26,18,16
6945,112,-2056,-496,-25,22,36
6950,96,-2064,-512,-15,20,50
6955,80,-2048,-472,0,23,65
6960,64,-2048,-440,27,36,71
6965,88,-2064,-416,62,58,74
6970,32,-2040,-384,104,88,67
6975,32,-1952,-376,126,113,62
6980,16,-1848,-304,127,127,69
6985,24,-1872,-248,117,130,87
6990,-24,-1800,-224,101,127,89
6995,-32,-1776,-192,78,120,88
7000,-16,-1824,-184,54,115,82
7005,-8,-1792,-200,41,117,86
7010,8,-1792,-232,36,139,82
7015,0,-1824,-224,30,164,81
7020,-8,-1808,-248,21,191,75
7025,16,-1808,-256,13,218,72
7030,16,-1808,-272,5,241,69
7035,-8,-1800,-272,-2,259,76
7040,-32,-1784,-288,-8,275,82
7045,-8,-1784,-328,-14,290,91
7050,-24,-1792,-264,-19,303,95
7055,-32,-1792,-272,-20,314,105
7060,-88,-1752,-264,-22,324,104
7065,-80,-1768,-248,-23,338,103
7070,-104,-1784,-232,-21,351,99
7075,-96,-1808,-224,-14,360,99
7080,-80,-1832,-184,-5,364,92
7085,-80,-1832,-176,3,368,88
7090,-88,-1896,-200,8,372,78
7095,-88,-1896,-120,11,372,72
7100,-80,-1896,-152,14,374,60
7105,-96,-1928,-80,14,375,52
7110,-96,-1952,-80,14,373,37
7115,-96,-1944,-72,14,368,25
7120,-128,-1936,-56,15,365,11
7125,-184,-1912,-24,14,359,-1
7130,-184,-1920,0,17,354,-19
7135,-208,-1896,-8,22,351,-32
7140,-184,-1880,16,29,349,-46
7145,-200,-1896,-24,35,348,-57
7150,-224,-1880,32,39,345,-71
7155,-176,-1920,24,44,342,-80
7160,-176,-1944,64,48,338,-92
7165,-152,-1936,8,51,331,-101
7170,-160,-1968,16,50,315,-112
7175,-176,-1960,24,47,295,-119
7180,-152,-2008,40,40,271,-128
7185,-136,-2040,16,29,247,-133
7190,-128,-2072,40,24,223,-144
7195,-136,-2088,24,19,204,-149
7200,-120,-2104,-16,21,188,-160
7205,-112,-2120,-8,24,173,-167
7210,-144,-2144,8,32,158,-176
7215,-144,-2168,32,41,141,-177
7220,-160,-2192,48,51,119,-180
7225,-184,-2232,64,64,102,-172
7230,-208,-2248,88,76,90,-165
7235,-200,-2304,120,87,84,-147
7240,-200,-2312,136,104,84,-133
7245,-200,-2304,184,123,90,-112
7250,-192,-2320,168,141,92,-93
7255,-152,-2296,296,158,93,-70
7260,-104,-2328,336,177,91,-52
7265,-96,-2320,440,199,85,-34
7270,-80,-2320,472,222,78,-17
7275,-64,-2336,560,257,75,-2
7280,-24,-2360,600,290,81,5
7285,-16,-2344,648,324,100,15
7290,0,-2376,720,360,128,22
7295,40,-2400,712,394,161,32
7300,64,-2400,720,420,196,44
7305,152,-2504,624,435,225,62
7310,208,-2672,552,451,249,87
7315,136,-2936,384,479,266,124
7320,112,-3128,8,493,264,163
7325,120,-3256,-296,441,262,197
7330,160,-3368,-616,289,299,198
7335,128,-3352,-696,149,362,188
7340,8,-3208,-632,55,403,183
7345,-208,-2952,-520,40,392,200
7350,-352,-2624,-432,75,322,221
7355,-432,-2312,-456,109,209,237
7360,-416,-2072,-528,122,87,240
7365,-392,-1912,-632,121,-12,239
7370,-296,-1752,-728,107,-73,236
7375,-144,-1616,-776,87,-96,235
7380,0,-1520,-904,63,-78,231
7385,136,-1424,-912,57,-33,229
7390,240,-1384,-952,54,37,226
7395,352,-1384,-936,50,120,226
7400,392,-1384,-904,41,217,226
7405,480,-1480,-880,31,317,227
7410,520,-1552,-792,16,412,227
7415,544,-1672,-744,-2,493,225
7420,536,-1792,-688,-25,558,221
7425,496,-1888,-608,-52,605,213
7430,464,-1928,-544,-82,630,198
7435,416,-1984,-472,-131,628,183
7440,352,-2000,-440,-178,601,166
7445,280,-1984,-440,-224,552,142
7450,184,-2008,-416,-266,483,120
7455,80,-1952,-384,-305,396,96
7460,-32,-1976,-416,-344,300,76
7465,-112,-1944,-368,-381,203,56
7470,-200,-1952,-352,-410,109,34
7475,-296,-1944,-320,-433,22,13
7480,-352,-1912,-320,-448,-50,-8
7485,-408,-1912,-288,-455,-118,-23
7490,-456,-1864,-272,-453,-161,-36
7495,-472,-1864,-240,-445,-190,-46
7500,-448,-1832,-264,-431,-214,-49
7505,-440,-1800,-248,-414,-228,-49
7510,-384,-1816,-256,-391,-240,-43
7515,-320,-1792,-240,-370,-247,-40
7520,-280,-1768,-256,-348,-253,-36
7525,-224,-1776,-232,-324,-259,-32
7530,-152,-1768,-216,-299,-265,-27
7535,-96,-1744,-216,-280,-270,-24
7540,-56,-1784,-168,-267,-276,-24
7545,0,-1784,-136,-265,-284,-28
7550,32,-1784,-136,-274,-294,-34
7555,88,-1768,-112,-284,-304,-42
7560,112,-1800,-120,-289,-313,-39
7565,144,-1824,-96,-298,-328,-40
7570,168,-1816,-120,-307,-347,-41
7575,168,-1792,-136,-319,-362,-51
7580,200,-1816,-144,-332,-373,-60
7585,216,-1784,-184,-345,-385,-76
7590,184,-1720,-184,-362,-399,-88
7595,168,-1696,-224,-369,-407,-100
7600,152,-1680,-208,-369,-413,-112
7605,136,-1696,-232,-360,-417,-124
7610,136,-1680,-264,-346,-419,-127
7615,112,-1656,-192,-328,-415,-135
7620,64,-1664,-280,-305,-408,-137
7625,96,-1824,-224,-283,-396,-139
7630,152,-1736,-168,-265,-381,-138
7635,72,-1768,-88,-249,-361,-136
7640,128,-1784,-184,-236,-340,-121
7645,200,-1784,-200,-226,-326,-112
7650,136,-1832,-112,-221,-313,-101
7655,128,-1864,-96,-216,-305,-94
7660,104,-1848,-128,-209,-298,-82
7665,144,-1872,-96,-202,-295,-72
7670,168,-1880,-72,-196,-291,-58
7675,168,-1880,-80,-188,-288,-47
7680,208,-1880,-72,-177,-285,-31
7685,224,-1888,-112,-163,-282,-21
7690,224,-1912,-104,-149,-279,-3
7695,232,-1920,-96,-131,-273,4
7700,216,-1976,-96,-120,-265,13
7705,192,-1984,-88,-106,-257,15
7710,184,-2000,-48,-96,-246,20
7715,216,-2024,-56,-88,-233,20
7720,200,-2000,-64,-80,-217,22
7725,168,-2040,-48,-69,-199,20
7730,184,-2080,-56,-59,-181,25
7735,200,-2096,-40,-51,-166,22
7740,192,-2144,-48,-44,-158,26
7745,184,-2184,-48,-38,-155,24
7750,184,-2240,-48,-32,-160,28
7755,136,-2296,-56,-27,-168,26
7760,128,-2320,-56,-23,-180,28
7765,56,-2344,-16,-17,-193,26
7770,32,-2400,-32,-12,-210,31
7775,0,-2432,-16,-3,-234,29
7780,0,-2520,-8,4,-264,29
7785,0,-2576,8,10,-302,21
7790,0,-2616,64,18,-340,14
7795,48,-2672,80,29,-376,-3
7800,56,-2680,120,44,-408,-16
7805,96,-2656,152,58,-426,-38
7810,104,-2632,200,78,-440,-58
7815,120,-2592,240,105,-450,-81
7820,80,-2552,320,141,-457,-98
7825,64,-2472,376,189,-464,-117
7830,8,-2416,416,244,-471,-127
7835,-40,-2288,480,302,-485,-137
7840,-56,-2232,464,356,-504,-135
7845,-56,-2224,416,401,-527,-132
7850,-8,-2296,344,417,-564,-138
7855,-8,-2472,208,457,-584,-147
7860,40,-2848,16,550,-573,-138
7865,168,-3064,-328,646,-564,-134
7870,336,-3144,-832,635,-558,-148
7875,504,-3160,-1192,468,-531,-196
7880,640,-3088,-1224,209,-467,-252
7885,840,-2920,-1024,8,-374,-306
7890,968,-2592,-912,-62,-273,-352
7895,968,-2272,-960,-67,-172,-405
7900,880,-1968,-1008,-55,-61,-467
7905,656,-1664,-1096,-17,74,-505
7910,376,-1496,-1128,23,160,-513
7915,64,-1368,-1128,48,198,-507
7920,-136,-1320,-1120,64,190,-486
7925,-432,-1304,-1064,80,154,-457
7930,-648,-1336,-984,109,106,-416
7935,-848,-1456,-864,157,57,-374
7940,-936,-1672,-744,210,8,-326
7945,-952,-1888,-704,242,-47,-281
7950,-912,-2048,-640,235,-109,-240
7955,-776,-2184,-640,188,-183,-205
7960,-680,-2224,-616,107,-233,-175
7965,-528,-2288,-552,41,-271,-151
7970,-400,-2216,-496,-17,-294,-128
7975,-216,-2168,-480,-64,-304,-108
7980,-80,-2112,-448,-111,-294,-83
7985,112,-2040,-416,-153,-265,-60
7990,256,-2000,-384,-186,-215,-36
7995,368,-1928,-416,-204,-144,-15
8000,440,-1928,-360,-204,-59,7
8005,536,-1952,-400,-190,31,36
8010,600,-1984,-368,-154,142,53
8015,624,-1984,-400,-119,229,63
8020,608,-1984,-392,-87,301,72
8025,576,-1960,-448,-61,360,80
8030,504,-1944,-416,-36,403,91
8035,432,-1920,-440,-19,432,102
8040,328,-1896,-432,0,454,117
8045,256,-1856,-432,22,475,129
8050,176,-1848,-456,51,505,142
8055,176,-1824,-448,94,554,147
8060,88,-1752,-392,138,626,143
8065,-8,-1600,-344,158,658,135
8070,0,-1560,-256,134,652,153
8075,-16,-1576,-176,86,618,154
8080,-32,-1592,-192,58,584,152
8085,-48,-1640,-208,45,563,154
8090,-80,-1616,-192,26,547,147
8095,-88,-1640,-184,8,533,141
8100,-96,-1648,-240,-9,525,139
8105,-96,-1672,-200,-27,525,134
8110,-96,-1712,-200,-43,531,130
8115,-96,-1712,-200,-60,542,127
8120,-120,-1712,-216,-66,550,128
8125,-104,-1728,-240,-74,554,129
8130,-112,-1720,-248,-81,556,130
8135,-96,-1744,-216,-90,557,131
8140,-96,-1760,-264,-95,553,129
8145,-112,-1792,-216,-102,545,129
8150,-136,-1808,-232,-100,534,125
8155,-120,-1840,-224,-98,524,123
8160,-104,-1864,-208,-94,510,114
8165,-104,-1880,-184,-86,493,104
8170,-120,-1896,-152,-76,479,92
8175,-128,-1920,-136,-68,466,82
8180,-144,-1936,-112,-59,452,71
8185,-160,-1912,-96,-47,438,61
8190,-176,-1904,-64,-36,425,49
8195,-168,-1912,-48,-27,415,40
8200,-208,-1896,-16,-23,404,28
8205,-224,-1912,-32,-17,396,18
8210,-184,-1912,-32,-10,384,5
8215,-192,-1936,-8,-6,371,-10
8220,-184,-1920,-24,3,350,-25
8225,-192,-1936,0,11,331,-39
8230,-152,-1904,32,18,310,-54
8235,-120,-1920,-8,23,288,-69
8240,-152,-1928,24,27,261,-86
8245,-152,-1928,24,30,232,-100
8250,-144,-1952,40,30,206,-116
8255,-160,-1936,0,24,178,-125
8260,-184,-1968,8,17,148,-137
8265,-168,-2016,-16,7,117,-139
8270,-216,-2048,-48,-1,80,-144
8275,-224,-2072,-8,-5,54,-142
8280,-200,-2104,-40,-5,35,-141
8285,-184,-2120,-32,-3,27,-137
8290,-160,-2128,-32,0,22,-139
8295,-168,-2144,-16,6,17,-136
8300,-152,-2152,-32,13,7,-141
8305,-80,-2176,-72,17,-8,-139
8310,-72,-2224,-56,23,-24,-141
8315,-56,-2216,-64,30,-34,-134
8320,-40,-2240,-104,39,-29,-128
8325,0,-2256,-88,50,-12,-116
8330,40,-2264,-24,62,16,-110
8335,64,-2272,8,74,47,-98
8340,104,-2280,72,90,76,-89
8345,120,-2280,120,110,101,-75
8350,128,-2264,216,134,117,-61
8355,128,-2288,200,162,129,-42
8360,144,-2256,288,191,136,-27
8365,144,-2296,368,223,144,-5
8370,64,-2224,272,256,154,18
8375,128,-2288,544,298,172,42
8380,88,-2288,568,332,193,61
8385,40,-2304,616,366,222,87
8390,8,-2336,584,388,250,110
8395,56,-2400,584,406,269,140
8400,72,-2576,512,427,278,171
8405,64,-2816,360,465,275,212
8410,104,-2992,64,478,255,243
8415,112,-3104,-288,407,225,264
8420,120,-3160,-568,258,210,264
8425,104,-3144,-632,120,242,269
8430,-56,-3008,-648,35,265,278
8435,-232,-2792,-592,25,245,307
8440,-488,-2584,-512,38,182,342
8445,-592,-2360,-456,59,83,364
8450,-600,-2152,-472,64,-31,353
8455,-536,-1960,-576,58,-148,334
8460,-416,-1808,-656,41,-253,310
8465,-240,-1736,-776,17,-336,292
8470,-88,-1704,-920,-20,-388,266
8475,88,-1688,-1032,-53,-382,243
8480,216,-1640,-1088,-89,-300,226
8485,360,-1624,-1152,-111,-187,219
8490,464,-1632,-1128,-128,-50,213
8495,576,-1728,-1072,-132,96,216
8500,704,-1848,-992,-120,234,212
8505,768,-1952,-920,-106,352,203
8510,784,-2040,-904,-93,453,190
8515,776,-2128,-784,-91,533,179
8520,720,-2184,-728,-105,588,158
8525,648,-2200,-616,-129,613,138
8530,568,-2192,-528,-157,600,105
8535,472,-2136,-504,-190,557,81
8540,384,-2096,-512,-213,485,49
8545,256,-2072,-488,-228,392,16
8550,176,-2064,-480,-247,292,-20
8555,24,-2016,-480,-266,190,-54
8560,-80,-2016,-464,-292,97,-90
8565,-176,-1984,-480,-317,13,-120
8570,-256,-1960,-496,-344,-55,-146
8575,-360,-1920,-464,-371,-105,-165
8580,-472,-1864,-448,-397,-142,-181
8585,-504,-1848,-424,-428,-165,-181
8590,-512,-1808,-432,-443,-177,-180
8595,-512,-1776,-416,-445,-179,-167
8600,-496,-1784,-384,-437,-178,-154
8605,-448,-1776,-352,-426,-176,-139
8610,-376,-1720,-320,-410,-176,-126
8615,-312,-1712,-280,-399,-180,-111
8620,-208,-1696,-264,-390,-188,-101
8625,-96,-1744,-240,-387,-198,-92
8630,-72,-1688,-240,-391,-209,-85
8635,-16,-1672,-200,-405,-230,-76
8640,40,-1656,-216,-418,-250,-70
8645,112,-1672,-224,-424,-270,-61
8650,168,-1672,-208,-427,-288,-62
8655,200,-1656,-264,-438,-303,-68
8660,240,-1664,-240,-450,-313,-74
8665,272,-1672,-296,-457,-320,-82
8670,288,-1696,-312,-460,-321,-101
8675,328,-1736,-336,-458,-313,-123
8680,352,-1728,-320,-462,-301,-147
8685,344,-1744,-360,-465,-285,-169
8690,352,-1768,-360,-466,-267,-179
8695,400,-1776,-344,-463,-248,-187
8700,392,-1768,-352,-457,-223,-206
8705,384,-1760,-304,-449,-198,-220
8710,392,-1768,-288,-438,-172,-228
8715,352,-1768,-328,-425,-150,-228
8720,336,-1808,-312,-412,-129,-226
8725,304,-1808,-256,-397,-117,-219
8730,256,-1832,-344,-386,-104,-207
8735,208,-1824,-312,-379,-94,-193
8740,176,-1856,-304,-384,-86,-182
8745,176,-1856,-280,-392,-82,-168
8750,160,-1856,-328,-404,-79,-155
8755,168,-1840,-288,-414,-74,-144
8760,144,-1816,-304,-425,-71,-130
8765,168,-1856,-280,-431,-71,-120
8770,176,-1824,-296,-432,-67,-112
8775,184,-1792,-336,-432,-65,-103
8780,184,-1792,-328,-433,-59,-89
8785,224,-1824,-328,-428,-53,-78
8790,208,-1816,-328,-421,-48,-72
8795,192,-1800,-312,-420,-48,-66
8800,168,-1808,-336,-422,-49,-63
8805,192,-1856,-328,-426,-53,-60
8810,176,-1880,-312,-432,-61,-57
8815,152,-1920,-272,-440,-67,-56
8820,120,-1960,-320,-445,-74,-51
8825,112,-1976,-304,-454,-81,-54
8830,120,-2032,-296,-459,-87,-60
8835,136,-2048,-352,-466,-92,-79
8840,72,-2080,-312,-475,-98,-110
8845,72,-2088,-256,-492,-124,-113
8850,72,-2120,-312,-505,-143,-111
8855,88,-2136,-296,-515,-157,-117
8860,96,-2208,-304,-520,-164,-130
8865,48,-2192,-256,-523,-170,-141
8870,120,-2208,-288,-528,-179,-137
8875,152,-2304,-264,-522,-182,-136
8880,184,-2328,-264,-508,-177,-148
8885,200,-2368,-232,-504,-174,-154
8890,216,-2416,-224,-500,-176,-153
8895,240,-2464,-200,-493,-187,-153
8900,272,-2496,-152,-468,-198,-162
8905,288,-2480,-184,-445,-211,-172
8910,312,-2512,-128,-423,-227,-175
8915,320,-2536,-128,-388,-240,-182
8920,304,-2464,-128,-336,-243,-197
8925,280,-2400,-80,-313,-257,-185
8930,344,-2448,-32,-296,-282,-152
8935,360,-2448,8,-255,-303,-136
8940,360,-2456,48,-202,-321,-118
8945,408,-2464,24,-134,-332,-112
8950,392,-2504,64,-47,-336,-115
8955,360,-2400,8,28,-332,-113
8960,496,-2536,32,87,-321,-106
8965,296,-2352,8,160,-293,-127
8970,256,-2272,-8,170,-293,-115
8975,240,-2272,0,126,-310,-87
8980,280,-2320,0,93,-326,-49
8985,288,-2328,-32,87,-332,-23
8990,248,-2352,-40,99,-334,-1
8995,272,-2336,-144,114,-336,11
9000,280,-2320,-200,124,-333,25
9005,296,-2376,-264,130,-329,29
9010,312,-2400,-352,129,-322,35
9015,288,-2440,-448,125,-315,29
9020,256,-2464,-568,122,-311,26
9025,248,-2432,-712,114,-309,18
9030,344,-2424,-904,101,-296,10
9035,352,-2408,-1056,81,-266,-6
9040,400,-2480,-1104,50,-222,-11
9045,376,-2544,-1112,11,-184,-24
9050,312,-2584,-1144,-29,-158,-46
9055,216,-2584,-1120,-67,-125,-75
9060,136,-2504,-1128,-71,-95,-89
9065,56,-2424,-1128,-37,-60,-100
9070,-24,-2320,-1144,19,-32,-94
9075,-96,-2184,-1216,85,-14,-85
9080,-184,-2048,-1200,151,-10,-69
9085,-192,-1968,-1176,217,-18,-53
9090,-216,-1960,-1200,279,-39,-34
9095,-256,-1928,-1208,328,-64,-25
9100,-272,-1912,-1192,359,-101,-9
9105,-280,-1896,-1208,376,-151,4
9110,-224,-1920,-1184,380,-181,16
9115,-192,-1960,-1160,370,-188,17
9120,-152,-1992,-1112,358,-173,18
9125,-104,-2040,-1080,343,-139,10
9130,-64,-2088,-1072,320,-93,1
9135,0,-2104,-1016,288,-41,-18
9140,72,-2152,-1008,249,12,-35
9145,88,-2184,-992,212,68,-58
9150,128,-2208,-1000,180,122,-75
9155,136,-2216,-992,154,191,-88
9160,152,-2216,-992,131,250,-91
9165,144,-2248,-976,115,309,-94
9170,144,-2216,-968,103,363,-90
9175,120,-2256,-952,94,412,-86
9180,72,-2216,-944,95,454,-74
9185,32,-2192,-896,97,484,-62
9190,-16,-2152,-888,102,504,-40
9195,-48,-2088,-792,106,516,-16
9200,-80,-2032,-752,109,522,20
9205,-72,-2008,-688,120,525,63
9210,-96,-1920,-656,135,523,102
9215,-96,-1864,-608,148,511,133
9220,-96,-1792,-600,161,489,168
9225,-96,-1776,-576,174,460,180
9230,-96,-1744,-552,186,439,195
9235,-64,-1728,-544,201,420,216
9240,-56,-1752,-512,218,405,227
9245,-56,-1696,-544,243,398,209
9250,-56,-1696,-520,258,407,190
9255,-32,-1688,-520,273,423,177
9260,-40,-1712,-504,306,441,169
9265,-88,-1712,-464,358,477,166
9270,-216,-1592,-368,366,468,153
9275,-200,-1408,-344,332,408,155
9280,-240,-1448,-264,244,321,175
9285,-256,-1520,-280,189,251,190
9290,-288,-1480,-296,184,213,203
9295,-288,-1464,-368,188,188,219
9300,-256,-1424,-320,184,162,232
9305,-240,-1400,-384,167,135,226
9310,-240,-1360,-360,150,108,227
9315,-256,-1344,-312,129,76,230
9320,-192,-1288,-392,123,52,247
9325,-208,-1344,-280,112,31,253
9330,-152,-1304,-320,124,2,274
9335,-112,-1376,-272,141,-24,289
9340,-56,-1400,-296,158,-49,300
9345,8,-1424,-296,152,-57,277
9350,8,-1456,-256,127,-56,241
9355,0,-1528,-272,98,-56,203
9360,24,-1496,-240,75,-52,171
9365,-16,-1536,-240,57,-48,135
9370,16,-1576,-232,47,-49,122
9375,-48,-1576,-176,41,-55,106
9380,-48,-1568,-216,46,-67,111
9385,-8,-1584,-256,50,-67,104
9390,-64,-1560,-216,45,-65,83
9395,-80,-1576,-232,36,-62,60
9400,-128,-1568,-216,28,-54,42
9405,-168,-1616,-184,27,-43,30
9410,-328,-1648,-152,34,-28,28
9415,-104,-1672,-128,84,-44,63
9420,-112,-1688,-152,132,-33,72
9425,-96,-1760,-192,123,-12,45
9430,-88,-1768,-168,88,13,10
9435,-64,-1840,-136,57,34,-14
9440,-72,-1848,-152,39,52,-27
9445,-40,-1880,-136,27,76,-33
9450,-16,-1968,-128,18,97,-37
9455,16,-2056,-168,18,112,-32
9460,16,-2048,-112,25,124,-22
9465,48,-2064,-144,32,135,-15
9470,56,-2112,-128,34,147,-12
9475,16,-2152,-80,34,154,-11
9480,0,-2160,-48,39,155,-3
9485,16,-2216,-64,57,148,11
9490,-32,-2248,-16,80,140,23
9495,-32,-2288,-24,109,132,35
9500,-48,-2296,-8,141,127,43
9505,-40,-2312,24,169,126,48
9510,-80,-2336,64,203,125,45
9515,-88,-2288,64,238,126,47
9520,-96,-2288,64,264,136,43
9525,-136,-2280,152,283,154,34
9530,-160,-2264,144,296,179,22
9535,-208,-2264,176,304,210,13
9540,-184,-2320,240,312,242,6
9545,-216,-2336,216,321,272,2
9550,-216,-2392,256,334,294,0
9555,-216,-2448,288,343,308,2
9560,-192,-2496,264,352,318,-2
9565,-208,-2528,312,357,322,-1
9570,-208,-2552,336,364,316,0
9575,-192,-2592,304,371,308,2
9580,-216,-2616,376,382,291,3
9585,-208,-2624,352,399,272,7
9590,-224,-2616,352,417,257,9
9595,-224,-2608,352,439,246,12
9600,-248,-2584,296,461,239,9
9605,-208,-2576,304,481,238,9
9610,-144,-2560,208,503,240,0
9615,-152,-2552,88,521,238,-16
9620,-120,-2520,64,528,235,-44
9625,-136,-2480,-72,522,225,-81
9630,-192,-2448,-176,491,218,-116
9635,-224,-2400,-312,454,215,-141
9640,-240,-2400,-392,405,209,-164
9645,-280,-2336,-496,344,192,-178
9650,-336,-2288,-640,277,161,-197
9655,-360,-2256,-784,207,115,-204
9660,-384,-2216,-888,140,60,-197
9665,-408,-2184,-1040,63,4,-172
9670,-352,-2144,-1168,-27,-42,-143
9675,-280,-2080,-1368,-124,-73,-98
9680,-240,-1992,-1464,-233,-95,-57
9685,-120,-1880,-1496,-317,-107,0
9690,-24,-1760,-1504,-391,-120,46
9695,104,-1656,-1496,-462,-141,90
9700,176,-1592,-1448,-521,-175,123
9705,256,-1576,-1304,-566,-217,159
9710,352,-1472,-1176,-578,-261,184
9715,384,-1600,-1056,-556,-299,209
9720,328,-1616,-1024,-516,-323,221
9725,424,-1792,-816,-470,-337,235
9730,424,-1776,-688,-429,-342,236
9735,400,-1880,-608,-398,-347,229
9740,328,-1848,-744,-380,-349,213
9745,256,-1792,-552,-384,-348,198
9750,144,-2008,-528,-401,-354,170
9755,280,-1968,-472,-406,-362,130
9760,112,-1984,-496,-404,-371,81
9765,96,-1952,-560,-413,-373,42
9770,88,-1944,-584,-433,-362,0
9775,112,-1952,-600,-461,-340,-34
9780,152,-1872,-576,-502,-305,-77
9785,80,-1912,-664,-535,-267,-98
9790,32,-1864,-672,-557,-225,-122
9795,48,-1816,-608,-565,-183,-133
9800,32,-1808,-624,-564,-152,-145
9805,32,-1784,-600,-557,-131,-150
9810,48,-1808,-552,-544,-113,-162
9815,16,-1800,-520,-524,-99,-161
9820,16,-1808,-528,-501,-89,-156
9825,-16,-1816,-480,-483,-87,-144
9830,-16,-1800,-464,-471,-84,-136
9835,8,-1792,-480,-452,-85,-120
9840,48,-1800,-488,-436,-82,-111
9845,64,-1776,-456,-426,-79,-107
9850,120,-1760,-456,-418,-84,-111
9855,112,-1752,-480,-415,-91,-109
9860,144,-1768,-488,-420,-105,-117
9865,128,-1824,-424,-432,-129,-127
9870,168,-1840,-424,-436,-151,-126
9875,168,-1864,-424,-442,-168,-121
9880,176,-1896,-432,-442,-177,-120
9885,192,-1888,-424,-440,-178,-120
9890,208,-1912,-432,-440,-166,-126
9895,248,-1912,-432,-443,-146,-132
9900,240,-1936,-408,-447,-122,-147
9905,232,-1984,-400,-447,-100,-153
9910,264,-1968,-432,-447,-77,-167
9915,272,-2016,-424,-442,-55,-183
9920,384,-1936,-472,-444,-36,-208
9925,376,-1896,-440,-502,14,-297
9930,128,-2008,-264,-571,67,-401
9935,216,-2032,-400,-524,74,-342
9940,152,-2032,-320,-455,82,-278
9945,200,-1992,-344,-379,87,-213
9950,200,-1960,-344,-323,99,-179
9955,184,-1976,-312,-285,114,-155
9960,192,-1928,-304,-252,122,-133
9965,216,-1952,-368,-218,129,-110
9970,224,-1952,-360,-193,129,-93
9975,240,-1928,-320,-178,132,-73
9980,256,-1920,-320,-161,140,-42
9985,304,-1928,-336,-144,153,-18
9990,328,-1952,-336,-129,168,-11
9995,344,-1968,-360,-119,184,-6
10000,344,-1976,-336,-112,200,-5
10005,288,-1968,-360,-105,219,-6
10010,304,-2024,-392,-99,238,-10
10015,264,-2040,-400,-96,254,-12
10020,240,-2080,-408,-92,269,-14
10025,224,-2112,-376,-91,281,-12
10030,192,-2160,-368,-88,288,-12
10035,144,-2200,-296,-82,287,-11
10040,120,-2216,-264,-72,283,-15
10045,112,-2208,-224,-55,275,-15
10050,64,-2200,-160,-30,266,-23
10055,72,-2184,-136,3,253,-27
10060,72,-2144,-88,47,238,-28
10065,88,-2104,-80,97,220,-26
10070,112,-2080,-64,158,206,-15
10075,136,-2048,-64,218,195,2
10080,176,-2024,-112,276,187,22
10085,232,-2008,-120,326,181,51
10090,288,-2040,-160,369,178,74
10095,288,-2064,-144,393,181,95
10100,320,-2104,-192,406,188,109
10105,288,-2152,-224,409,196,124
10110,328,-2240,-240,405,202,134
10115,272,-2328,-288,394,202,143
10120,248,-2408,-280,378,192,149
10125,184,-2456,-352,367,169,156
10130,136,-2480,-456,366,149,165
10135,136,-2504,-592,367,133,175
10140,80,-2536,-712,372,122,187
10145,32,-2584,-888,377,115,189
10150,32,-2664,-1008,366,104,185
10155,-8,-2680,-1184,333,93,172
10160,-32,-2648,-1360,280,85,154
10165,-96,-2568,-1400,211,78,127
10170,-160,-2496,-1432,148,61,103
10175,-248,-2352,-1424,86,32,78
10180,-336,-2112,-1424,41,-1,60
10185,-360,-1968,-1352,14,-32,45
10190,-416,-1832,-1296,2,-59,32
10195,-488,-1720,-1192,3,-92,27
10200,-480,-1648,-1112,16,-120,32
10205,-440,-1632,-1016,36,-146,36
10210,-400,-1664,-960,55,-170,41
10215,-368,-1704,-864,76,-190,42
10220,-272,-1816,-776,87,-204,40
10225,-240,-1904,-688,92,-211,29
10230,-120,-1984,-632,88,-209,19
10235,-56,-2072,-584,79,-197,4
10240,-16,-2096,-560,73,-174,-10
10245,80,-2120,-592,71,-129,-24
10250,120,-2096,-560,75,-78,-34
10255,184,-2096,-616,76,-19,-43
10260,200,-2136,-640,71,46,-45
10265,256,-2168,-680,65,121,-43
10270,288,-2192,-712,58,195,-33
10275,312,-2240,-736,50,263,-21
10280,304,-2264,-752,43,315,-5
10285,272,-2248,-784,31,352,12
10290,240,-2272,-744,16,375,35
10295,240,-2248,-768,1,389,59
10300,176,-2224,-680,-31,396,83
10305,96,-2232,-632,-37,394,98
10310,8,-2168,-600,-30,387,118
10315,-72,-2136,-568,-9,379,137
10320,-104,-2072,-544,13,373,155
10325,-120,-2040,-472,44,372,167
10330,-96,-1992,-440,83,369,181
10335,-176,-1968,-416,111,360,184
10340,-160,-1856,-408,122,337,193
10345,-128,-1832,-400,114,310,203
10350,-112,-1824,-424,106,293,206
10355,-72,-1776,-432,103,292,203
10360,-32,-1776,-400,101,307,202
10365,-48,-1728,-400,103,329,193
10370,-32,-1704,-400,108,352,190
10375,8,-1688,-376,113,381,189
10380,72,-1672,-336,108,412,191
10385,80,-1664,-328,96,439,189
10390,120,-1648,-288,83,459,191
10395,112,-1632,-248,73,469,188
10400,128,-1600,-224,71,481,186
10405,104,-1576,-176,79,489,178
10410,120,-1560,-168,92,491,174
10415,80,-1520,-152,105,489,169
10420,80,-1512,-192,109,484,169
10425,88,-1440,-232,98,474,162
10430,112,-1400,-256,80,461,152
10435,64,-1360,-296,56,445,129
10440,48,-1320,-296,29,435,112
10445,80,-1344,-344,-3,431,89
10450,56,-1328,-352,-34,438,68
10455,80,-1344,-392,-68,450,53
10460,56,-1384,-408,-98,465,49
10465,48,-1432,-384,-127,479,50
10470,16,-1432,-368,-147,494,59
10475,0,-1416,-352,-162,505,63
10480,-48,-1416,-312,-172,514,70
10485,-80,-1416,-352,-181,519,71
10490,-88,-1384,-328,-186,519,73
10495,-96,-1376,-360,-193,514,66
10500,-104,-1352,-376,-206,503,55
10505,-120,-1344,-352,-223,493,36
10510,-104,-1352,-352,-235,485,20
10515,-144,-1352,-288,-253,476,-4
10520,-136,-1408,-216,-274,463,-25
10525,-120,-1432,-184,-298,453,-48
10530,-96,-1480,-144,-327,443,-69
10535,-152,-1520,-104,-361,428,-88
10540,-160,-1592,-64,-392,406,-99
10545,-208,-1688,-80,-426,374,-106
10550,-192,-1736,-112,-461,334,-104
10555,-208,-1752,-128,-502,281,-102
10560,-200,-1816,-176,-526,237,-94
10565,-192,-1848,-248,-551,197,-96
10570,-152,-1880,-288,-583,156,-99
10575,-160,-1904,-256,-627,105,-118
10580,-136,-1928,-288,-676,38,-137
10585,-128,-1936,-280,-722,-35,-160
10590,-192,-1904,-280,-758,-103,-177
10595,-208,-1936,-232,-788,-165,-192
10600,-216,-1904,-240,-813,-219,-199
10605,-200,-1880,-240,-846,-274,-204
10610,-224,-1792,-264,-881,-314,-200
10615,-216,-1744,-232,-921,-353,-199
10620,-240,-1680,-240,-955,-396,-195
10625,-272,-1608,-256,-978,-445,-201
10630,-248,-1552,-320,-989,-494,-199
10635,-240,-1536,-312,-1016,-539,-196
10640,-192,-1528,-312,-1032,-575,-201
10645,-216,-1528,-328,-1032,-593,-210
10650,-248,-1496,-336,-1022,-595,-219
10655,-240,-1568,-240,-1023,-586,-218
10660,-208,-1576,-168,-1024,-572,-217
10665,-240,-1560,-104,-1033,-565,-216
10670,-336,-1512,-160,-1063,-582,-207
10675,-352,-1472,-248,-1109,-619,-197
10680,-368,-1512,-360,-1152,-675,-180
10685,-368,-1552,-440,-1170,-747,-173
10690,-448,-1632,-368,-1176,-830,-173
10695,-504,-1696,-328,-1142,-925,-176
10700,-576,-1712,-344,-1087,-1013,-178
10705,-632,-1736,-384,-1048,-1107,-174
10710,-704,-1696,-432,-1017,-1173,-164
10715,-816,-1632,-488,-1017,-1231,-151
10720,-880,-1568,-560,-1048,-1288,-120
10725,-904,-1496,-624,-1124,-1352,-88
10730,-888,-1504,-888,-1219,-1407,-52
10735,-896,-1408,-1056,-1350,-1478,-6
10740,-840,-1448,-1328,-1513,-1589,50
10745,-800,-1568,-1536,-1671,-1746,96
10750,-712,-1840,-1648,-1765,-1927,141
10755,-552,-2024,-1632,-1786,-2141,204
10760,-424,-2176,-1424,-1789,-2294,257
10765,-336,-2248,-1200,-1749,-2410,311
10770,-184,-2216,-952,-1671,-2496,365
10775,-96,-2160,-688,-1593,-2571,416
10780,-40,-2080,-464,-1518,-2637,464
10785,48,-2048,-288,-1427,-2679,512
10790,104,-1976,-96,-1327,-2703,552
10795,168,-1912,72,-1223,-2721,578
10800,232,-1928,168,-1111,-2727,590
10805,264,-1896,232,-1001,-2719,575
10810,280,-1912,264,-884,-2703,551
10815,336,-1976,312,-815,-2703,520
10820,376,-1992,272,-779,-2719,494
10825,368,-2008,120,-778,-2737,473
10830,368,-1992,80,-802,-2750,460
10835,376,-1992,-96,-842,-2754,447
10840,352,-1888,-216,-881,-2747,426
10845,312,-1736,-288,-924,-2748,408
10850,360,-1560,-400,-984,-2768,389
10855,296,-1496,-440,-1047,-2802,364
10860,288,-1424,-488,-1052,-2838,332
10865,208,-1352,-544,-1002,-2859,309
10870,192,-1320,-544,-948,-2862,298
10875,136,-1304,-480,-900,-2832,295
10880,144,-1312,-440,-839,-2758,303
10885,160,-1232,-384,-772,-2644,318
10890,208,-1144,-288,-733,-2514,334
10895,272,-992,-344,-714,-2378,345
10900,360,-808,-368,-732,-2259,344
10905,400,-640,-448,-782,-2183,338
10910,376,-408,-520,-846,-2145,314
10915,360,-248,-632,-957,-2151,293
10920,304,-104,-632,-1065,-2179,261
10925,216,24,-688,-1149,-2210,232
10930,96,192,-680,-1206,-2239,206
10935,40,288,-736,-1237,-2258,185
10940,8,368,-736,-1260,-2260,166
10945,-24,408,-712,-1272,-2251,150
10950,16,464,-656,-1274,-2218,144
10955,32,488,-624,-1282,-2153,138
10960,0,512,-600,-1303,-2065,130
10965,-64,560,-648,-1344,-1987,127
10970,-88,504,-696,-1411,-1989,133
10975,-152,488,-776,-1464,-2024,139
10980,-184,472,-792,-1517,-2069,151
10985,-224,472,-768,-1575,-2119,165
10990,-328,448,-728,-1631,-2152,174
10995,-448,384,-712,-1671,-2183,179
11000,-552,416,-776,-1707,-2218,175
11005,-632,416,-848,-1776,-2272,184
11010,-664,288,-792,-1854,-2338,181
11015,-696,304,-872,-1842,-2380,187
11020,-528,320,-816,-1826,-2390,177
11025,-664,408,-1080,-1806,-2379,148
11030,-488,352,-1144,-1905,-2403,175
11035,-288,344,-1080,-2042,-2389,190
11040,-112,288,-1064,-2118,-2344,173
11045,32,280,-1024,-2123,-2308,149
11050,288,224,-976,-2099,-2295,116
11055,392,224,-944,-2092,-2291,70
11060,520,200,-880,-2090,-2281,19
11065,672,160,-760,-2076,-2267,-25
11070,808,48,-816,-2011,-2294,-65
11075,768,-48,-1040,-1954,-2374,-101
11080,528,-120,-1224,-1950,-2477,-135
11085,112,-200,-1288,-2036,-2545,-139
11090,-216,-328,-1120,-2153,-2551,-109
11095,-376,-552,-1104,-2244,-2500,-65
11100,-416,-792,-1112,-2288,-2444,-60
11105,-904,-1024,-984,-2286,-2456,-122
11110,-1328,-1200,-1088,-2248,-2640,-179
11115,-2088,-1264,-984,-2256,-2971,-165
11120,-2592,-1288,-976,-2288,-3544,-74
11125,-3160,-1488,-992,-2342,-4089,64
11130,-3256,-1864,-1184,-2499,-4557,177
11135,-3816,-1432,-944,-2651,-4946,160
11140,-4032,-1344,-440,-2624,-5374,233
11145,-3792,-952,-288,-2355,-5798,413
11150,-3368,-632,-376,-2113,-6250,591
11155,-3304,-560,-856,-1863,-6737,861
11160,-3104,-504,-1488,-1613,-7173,1187
11165,-2680,-512,-2352,-1390,-7358,1623
11170,-2256,-560,-2888,-1220,-7219,2146
11175,-2232,-464,-3352,-1045,-6894,2500
11180,-2368,-664,-3328,-904,-6572,2891
11185,-2688,-976,-4056,-796,-6302,3325
11190,-3712,-1352,-2736,-1013,-5847,3689
11195,-6160,-2416,-2376,-1215,-5660,3954
11200,-8424,-3032,-2576,-1491,-5801,3942
11205,-12584,-3880,-1864,-1924,-6063,3861
11210,-14008,-5152,-1072,-2075,-6309,4165
11215,-15080,-6176,408,-1649,-6390,4826
11220,-14928,-6728,1160,-644,-6599,5835
11225,-13480,-7408,1360,902,-6675,6380
11230,-9784,-7400,1456,2012,-6417,6373
11235,-7960,-6360,2832,2604,-6050,5957
11240,-6976,-4680,3560,2885,-6215,5515
11245,-6056,-2808,3960,2908,-6886,4939
11250,-5168,-1312,2688,2602,-7494,4088
11255,-3408,176,488,2019,-7388,3283
11260,-2560,1504,-304,1253,-6169,2627
11265,-2000,1904,592,1023,-4093,2399
11270,-1728,2464,1872,1723,-2081,2548
11275,-1648,2912,3032,2954,-866,2661
11280,-1376,3312,2072,3744,-873,2683
11285,-1344,3184,440,3984,-807,2699
11290,-184,2328,-544,3624,-741,2277
11295,-968,1464,-1208,2697,-1117,978
11300,-3568,760,-80,1041,-1630,-546
11305,-4360,328,1048,-266,-1661,-1310
11310,-4904,296,1640,-748,-1288,-1648
11315,-4872,224,1800,-615,-992,-1759
11320,-4912,528,1912,-452,-1017,-1616
11325,-3816,640,1528,-514,-1476,-1193
11330,-2744,600,904,-708,-1950,-821
11335,-2392,696,616,-847,-2486,-495
11340,-2328,1104,352,-953,-3117,-200
11345,-2152,1632,88,-995,-3726,126
11350,-1832,1920,-352,-1054,-4249,371
11355,-1520,2024,-424,-1117,-4504,459
11360,-1088,2136,-296,-1185,-4538,289
11365,-896,2056,80,-1182,-4409,-4
11370,-1056,1960,408,-1074,-4183,-275
11375,-936,1792,688,-896,-4026,-353
11380,-136,1352,984,-693,-4057,-308
11385,-168,840,1136,-432,-4114,-309
11390,0,336,1040,-148,-4306,-261
11395,328,-168,880,109,-4521,-227
11400,632,-456,648,301,-4565,-367
11405,512,-560,536,465,-4426,-600
11410,480,-648,424,600,-4159,-782
11415,576,-616,304,697,-3816,-871
11420,640,-680,296,754,-3468,-913
11425,504,-632,264,794,-3185,-972
11430,296,-552,192,807,-2971,-1061
11435,168,-536,272,751,-2850,-1080
11440,-72,-480,456,667,-2778,-1022
11445,-376,-416,768,615,-2770,-908
11450,-680,-8,920,576,-2863,-783
11455,-1280,384,1064,512,-3074,-761
11460,-1528,616,1048,409,-3364,-776
11465,-2032,568,1072,306,-3588,-796
11470,-2160,496,1128,273,-3702,-864
11475,-2224,720,928,334,-3766,-943
11480,-2432,848,1000,330,-3809,-1066
11485,-2224,952,800,245,-3866,-1152
11490,-1848,960,712,101,-3931,-1234
11495,-1424,920,488,24,-3952,-1288
11500,-856,1088,120,16,-3915,-1303
11505,-88,1000,-80,-4,-3835,-1287
11510,632,1312,-288,-66,-3679,-1251
11515,1136,1504,-120,-289,-3528,-1209
11520,1808,1792,-88,-576,-3395,-1153
11525,1968,1888,432,-985,-3263,-1085
11530,2216,1992,1104,-1414,-3171,-949
11535,2248,1984,1888,-1816,-3094,-873
11540,2176,2040,2440,-1915,-3017,-867
11545,2096,2064,2784,-1853,-2913,-881
11550,1904,1920,2880,-1777,-2802,-889
11555,1816,1680,2968,-1693,-2648,-901
11560,1760,1512,2912,-1573,-2487,-913
11565,1856,1376,2800,-1443,-2306,-884
11570,1984,1176,2656,-1265,-2084,-791
11575,2032,1024,2440,-1024,-1851,-734
11580,2048,992,2176,-775,-1582,-672
11585,1960,952,2096,-559,-1383,-590
11590,1960,776,2104,-456,-1224,-450
11595,1992,608,2208,-398,-1069,-288
11600,2008,456,2312,-379,-892,-175
11605,2008,312,2544,-417,-709,-115
11610,1968,168,2864,-511,-506,-54
11615,1672,-8,3144,-597,-332,2
11620,1480,-56,3288,-608,-243,30
11625,1368,-128,3288,-527,-214,34
11630,1280,-152,3112,-378,-207,65
11635,1176,-176,2944,-133,-220,100
11640,1208,-64,2640,76,-244,110
11645,1360,-32,2528,195,-244,122
11650,1448,-40,2448,260,-212,115
11655,1432,-24,2344,313,-160,95
11660,1400,-24,2216,352,-102,72
11665,1424,-24,2112,368,-35,52
11670,1336,-72,2080,363,54,50
11675,1320,-104,2056,376,144,35
11680,1240,-152,1992,406,226,29
11685,1176,-192,1840,472,298,29
11690,1000,-224,1752,547,356,27
11695,872,-232,1584,631,396,20
11700,760,-272,1432,715,418,10
11705,712,-280,1288,782,449,-2
11710,672,-240,1256,824,479,-16
11715,624,-160,1184,835,508,-36
11720,600,-96,1200,812,530,-40
11725,592,-32,1200,760,547,-40
11730,632,48,1272,689,565,-26
11735,776,64,1296,582,608,-16
11740,760,152,1272,468,664,1
11745,784,200,1408,344,736,24
11750,840,208,1432,230,805,59
11755,872,168,1384,131,878,89
11760,816,248,1568,42,954,121
11765,792,88,1576,-30,1019,146
11770,680,96,1536,-101,1079,167
11775,560,48,1656,-171,1134,177
11780,416,-8,1672,-240,1179,195
11785,216,-32,1760,-317,1224,196
11790,40,-88,1840,-373,1251,194
11795,-96,-208,1976,-394,1246,180
11800,-176,-224,1992,-380,1229,150
11805,-240,-336,2056,-372,1229,116
11810,-264,-248,2056,-368,1238,88
11815,-224,-248,2064,-359,1249,52
11820,-192,-280,2040,-350,1260,27
11825,-128,-352,1992,-340,1277,5
11830,-136,-336,1952,-330,1302,-16
11835,-136,-360,1928,-323,1344,-50
11840,-128,-376,1920,-314,1379,-68
11845,-160,-416,1968,-306,1414,-86
11850,-176,-440,1984,-297,1453,-93
11855,-256,-456,2024,-288,1495,-99
11860,-336,-504,2040,-276,1530,-89
11865,-384,-512,2056,-261,1552,-74
11870,-392,-504,2048,-238,1572,-61
11875,-384,-448,2056,-201,1593,-63
11880,-416,-424,2064,-164,1611,-66
11885,-416,-432,2080,-134,1626,-76
11890,-456,-400,2080,-100,1632,-82
11895,-448,-392,2104,-61,1645,-89
11900,-432,-392,2112,-13,1659,-93
11905,-392,-328,2048,44,1677,-103
11910,-344,-328,2056,82,1705,-101
11915,-352,-272,1984,105,1724,-110
11920,-312,-224,1920,132,1738,-129
11925,-288,-192,1880,159,1770,-155
11930,-304,-184,1864,178,1818,-167
11935,-336,-192,1872,205,1858,-191
11940,-352,-144,1832,243,1886,-202
11945,-448,-128,1896,257,1913,-217
11950,-520,-176,1976,276,1922,-232
11955,-592,-136,1936,310,1905,-262
11960,-672,-128,1896,356,1887,-306
11965,-720,-112,1848,394,1868,-352
11970,-736,-96,1760,415,1850,-379
11975,-720,-96,1784,421,1843,-400
11980,-776,-40,1712,431,1835,-426
11985,-736,-16,1744,427,1820,-438
11990,-720,24,1712,401,1801,-436
11995,-744,56,1696,378,1790,-442
12000,-776,88,1704,366,1779,-443
12005,-840,128,1696,355,1766,-437
12010,-824,208,1696,342,1749,-426
12015,-896,136,1752,325,1733,-423
12020,-1008,176,1752,333,1694,-432
12025,-1000,128,1728,344,1646,-429
12030,-1064,88,1720,349,1609,-422
12035,-1136,112,1672,364,1565,-428
12040,-1216,120,1608,361,1509,-434
12045,-1312,8,1632,325,1465,-434
12050,-1312,56,1536,334,1404,-449
12055,-1336,16,1528,313,1358,-456
12060,-1328,32,1504,258,1326,-458
12065,-1312,-8,1480,216,1300,-465
12070,-1272,16,1400,194,1280,-470
12075,-1296,-24,1376,192,1262,-474
12080,-1304,8,1368,194,1229,-468
12085,-1312,40,1368,186,1189,-463
12090,-1320,56,1336,170,1138,-453
12095,-1384,48,1432,140,1096,-445
12100,-1408,0,1424,126,1044,-433
12105,-1424,32,1424,123,978,-429
12110,-1456,56,1320,112,919,-418
12115,-1512,24,1288,82,869,-405
12120,-1512,-32,1272,50,820,-413
12125,-1584,-56,1216,39,777,-411
12130,-1560,-120,1216,56,719,-404
12135,-1568,-160,1168,62,665,-393
12140,-1568,-144,1144,53,622,-387
12145,-1552,-176,1152,42,579,-390
12150,-1528,-224,1136,44,545,-385
12155,-1536,-192,1128,44,513,-381
12160,-1480,-184,1096,34,488,-370
12165,-1496,-208,1152,10,473,-362
12170,-1448,-224,1200,-2,457,-355
12175,-1464,-224,1208,7,439,-347
12180,-1488,-240,1224,14,423,-336
12185,-1504,-240,1272,14,405,-326
12190,-1464,-240,1328,17,390,-317
12195,-1488,-280,1352,30,364,-314
12200,-1528,-280,1408,54,337,-297
12205,-1576,-288,1424,65,310,-275
12210,-1576,-304,1416,63,291,-259
12215,-1608,-304,1400,66,277,-247
12220,-1624,-336,1472,69,259,-231
12225,-1640,-344,1440,77,230,-214
12230,-1624,-320,1424,91,195,-198
12235,-1648,-312,1472,87,167,-181
12240,-1640,-328,1464,83,141,-164
12245,-1600,-320,1400,91,109,-128
12250,-1552,-336,1448,76,97,-98
12255,-1520,-328,1464,66,86,-79
12260,-1488,-280,1480,55,80,-59
12265,-1464,-320,1440,36,77,-42
12270,-1432,-296,1408,32,77,-22
12275,-1376,-304,1440,33,84,-1
12280,-1368,-312,1440,38,86,12
12285,-1320,-320,1448,48,79,32
12290,-1304,-312,1456,55,75,46
12295,-1288,-312,1456,59,69,62
12300,-1272,-264,1440,64,53,68
12305,-1272,-240,1472,68,36,73
12310,-1264,-240,1440,62,18,77
12315,-1248,-208,1456,50,-4,84
12320,-1232,-200,1448,40,-27,91
12325,-1256,-152,1424,27,-49,96
12330,-1232,-144,1408,7,-67,100
12335,-1248,-112,1408,-22,-81,106
12340,-1216,-128,1408,-44,-100,111
12345,-1184,-136,1424,-46,-127,119
12350,-1192,-160,1408,-53,-150,120
12355,-1192,-128,1408,-58,-172,115
12360,-1208,-96,1400,-63,-189,109
12365,-1192,-88,1456,-68,-205,109
12370,-1184,-40,1440,-74,-221,107
12375,-1184,-72,1456,-81,-237,108
12380,-1184,-96,1464,-90,-250,108
12385,-1192,-40,1488,-99,-265,108
12390,-1232,-56,1544,-108,-278,103
12395,-1240,-24,1544,-107,-295,101
12400,-1216,-32,1576,-110,-309,97
12405,-1224,-24,1552,-118,-316,95
12410,-1224,-32,1568,-123,-321,90
12415,-1232,-24,1584,-119,-322,84
12420,-1240,-24,1584,-119,-317,77
12425,-1240,-16,1576,-128,-314,76
12430,-1224,-24,1608,-145,-314,73
12435,-1192,-24,1632,-156,-313,74
12440,-1192,-8,1632,-161,-309,74
12445,-1176,-32,1632,-157,-300,77
12450,-1152,-32,1616,-146,-286,73
12455,-1136,-40,1640,-133,-263,74
12460,-1128,-32,1640,-123,-245,69
12465,-1136,-24,1664,-115,-228,68
12470,-1120,-32,1648,-109,-216,62
12475,-1136,-8,1656,-102,-205,61
12480,-1104,-24,1688,-97,-194,57
12485,-1104,-24,1672,-91,-185,58
12490,-1104,-8,1656,-86,-175,53
12495,-1080,-32,1648,-83,-167,53
12500,-1000,8,1648,-84,-155,47
12505,-1056,-40,1640,-88,-139,46
12510,-1024,-32,1616,-87,-125,40
12515,-1008,-56,1688,-87,-110,38
12520,-992,-64,1648,-82,-94,32
12525,-976,-64,1664,-70,-78,29
12530,-976,-96,1680,-60,-64,23
12535,-1008,-64,1696,-49,-50,19
12540,-984,-48,1720,-43,-38,11
12545,-984,-40,1704,-38,-29,9
12550,-984,-80,1680,-36,-24,4
12555,-1008,-32,1728,-36,-18,4
12560,-968,-88,1712,-35,-14,-1
12565,-984,-56,1704,-32,-8,0
12570,-1000,-80,1704,-30,-1,-6
12575,-984,-112,1680,-26,8,-6
12580,-960,-112,1656,-20,19,-14
12585,-1000,-80,1640,-15,31,-16
12590,-1000,-112,1632,-8,42,-22
12595,-1024,-120,1632,-1,54,-25
12600,-1032,-112,1600,6,66,-31
12605,-1032,-120,1600,10,75,-33
12610,-1048,-120,1568,13,83,-39
12615,-1048,-128,1576,14,87,-38
12620,-1064,-112,1560,12,90,-41
12625,-1088,-104,1592,11,92,-39
12630,-1096,-120,1584,6,94,-45
12635,-1096,-112,1600,-4,95,-42
12640,-1112,-120,1592,-11,93,-45
12645,-1128,-120,1608,-13,93,-40
12650,-1112,-128,1560,-17,94,-40
12655,-1112,-144,1576,-21,98,-37
12660,-1128,-152,1600,-23,104,-36
12665,-1136,-168,1568,-25,113,-33
12670,-1128,-160,1592,-23,121,-34
12675,-1136,-152,1600,-22,128,-30
12680,-1144,-160,1600,-17,134,-32
12685,-1128,-152,1568,-17,138,-30
12690,-1136,-160,1632,-21,144,-30
12695,-1152,-152,1624,-24,146,-26
12700,-1144,-152,1608,-26,146,-23
12705,-1136,-128,1584,-38,152,-16
12710,-1160,-184,1600,-42,151,-9
12715,-1144,-144,1584,-13,143,-4
12720,-1184,-152,1568,-1,144,-7
12725,-1152,-152,1560,2,143,-4
12730,-1176,-120,1560,4,143,-4
12735,-1176,-136,1520,5,140,-1
12740,-1176,-128,1536,11,134,0
12745,-1168,-112,1536,13,129,2
12750,-1160,-104,1552,10,123,2
12755,-1160,-96,1552,7,116,2
12760,-1136,-96,1536,5,109,3
12765,-1144,-88,1536,0,99,6
12770,-1152,-104,1560,-7,90,5
12775,-1152,-88,1520,-16,82,6
12780,-1136,-112,1592,-22,74,5
12785,-1128,-88,1584,-25,69,8
12790,-1128,-136,1584,-25,65,7
12795,-1120,-136,1584,-25,65,10
12800,-1152,-104,1560,-23,64,9
12805,-1136,-120,1576,-24,60,10
12810,-1128,-104,1568,-25,57,9
12815,-1136,-112,1576,-27,53,9
12820,-1136,-120,1584,-26,47,8
12825,-1136,-112,1560,-26,40,9
12830,-1144,-128,1584,-26,34,7
12835,-1120,-112,1600,-27,29,6
12840,-1136,-104,1616,-28,27,6
12845,-1128,-120,1608,-29,26,6
12850,-1128,-120,1600,-27,29,4
12855,-1128,-128,1616,-25,32,6
12860,-1120,-96,1592,-20,38,4
12865,-1120,-104,1584,-17,46,1
12870,-1104,-112,1600,-13,53,0
12875,-1096,-104,1568,-9,60,-1
12880,-1088,-104,1592,-7,66,-3
12885,-1096,-96,1592,-4,70,-4
12890,-1112,-104,1600,-2,69,-5
12895,-1096,-96,1600,-3,68,-7
12900,-1088,-112,1600,-4,65,-6
12905,-1112,-120,1560,-6,60,-6
12910,-1104,-128,1584,-5,56,-7
12915,-1112,-96,1592,-5,53,-8
12920,-1120,-104,1592,-5,50,-7
12925,-1096,-128,1600,-6,48,-9
12930,-1120,-112,1600,-7,47,-8
12935,-1112,-96,1608,-7,49,-9
12940,-1104,-104,1600,-6,50,-9
12945,-1120,-112,1568,-6,53,-10
12950,-1104,-112,1600,-4,55,-10
12955,-1104,-112,1600,-4,59,-12
12960,-1112,-120,1592,-4,62,-13
12965,-1112,-104,1600,-3,66,-14
12970,-1088,-128,1576,-4,67,-14
12975,-1120,-112,1584,-4,68,-15
12980,-1112,-112,1576,-3,69,-14
12985,-1128,-112,1576,-3,68,-15
12990,-1120,-104,1560,-4,65,-14
12995,-1120,-112,1576,-6,61,-13
13000,-1128,-128,1568,-8,58,-10
13005,-1144,-88,1584,-13,56,-10
13010,-1120,-120,1576,-12,52,-6
13015,-1128,-112,1552,-13,52,-9
13020,-1120,-128,1576,-8,52,-9
13025,-1120,-112,1552,-4,51,-10
13030,-1144,-112,1568,1,51,-9
13035,-1120,-112,1584,2,52,-11
13040,-1144,-96,1552,3,51,-10
13045,-1120,-96,1560,3,50,-12
13050,-1128,-104,1576,4,46,-11
13055,-1104,-80,1552,2,41,-13
13060,-1136,-96,1584,-4,35,-11
13065,-1128,-88,1576,-6,29,-13
13070,-1128,-64,1568,-10,22,-12
13075,-1128,-128,1560,-14,16,-14
13080,-1128,-144,1568,-19,12,-13
13085,-1120,-104,1584,-22,8,-15
13090,-1136,-112,1576,-28,4,-14
13095,-1128,-128,1568,-32,2,-17
13100,-1120,-152,1552,-39,1,-16
13105,-1128,-128,1576,-44,1,-16
13110,-1128,-128,1592,-48,3,-13
13115,-1136,-136,1608,-50,6,-14
13120,-1104,-136,1576,-50,8,-12
13125,-1120,-136,1592,-52,12,-12
13130,-1120,-120,1592,-51,14,-8
13135,-1136,-112,1608,-49,16,-8
13140,-1128,-112,1600,-46,17,-5
13145,-1112,-112,1632,-44,17,-6
13150,-1120,-128,1632,-41,18,-3
13155,-1120,-128,1608,-42,15,-5
13160,-1136,-128,1624,-39,15,-1
13165,-1128,-112,1616,-38,14,-3
13170,-1120,-136,1616,-37,14,-1
13175,-1120,-120,1632,-34,13,-2
13180,-1128,-120,1592,-34,13,1
13185,-1128,-104,1600,-33,14,-3
13190,-1112,-128,1584,-31,15,1
13195,-1120,-112,1576,-29,17,-1
13200,-1120,-112,1608,-24,19,2
13205,-1120,-96,1584,-20,21,0
13210,-1120,-96,1600,-17,24,1
13215,-1096,-112,1600,-13,27,-3
13220,-1128,-88,1600,-11,30,-2
13225,-1112,-96,1592,-15,31,-4
13230,-1112,-112,1584,-15,31,-1
13235,-1112,-96,1600,-15,30,-4
13240,-1104,-112,1568,-17,26,-1
13245,-1104,-104,1608,-17,23,-4
13250,-1112,-104,1624,-16,22,-2
13255,-1088,-96,1592,-15,22,-5
13260,-1104,-120,1600,-15,22,-2
13265,-1096,-120,1600,-15,25,-6
13270,-1104,-112,1600,-18,29,-4
13275,-1120,-104,1600,-19,31,-6
13280,-1080,-128,1624,-22,33,-3
13285,-1096,-144,1584,-22,34,-6
13290,-1112,-120,1584,-17,36,-3
13295,-1088,-120,1600,-9,41,-7
13300,-1104,-128,1600,-3,46,-6
13305,-1088,-136,1592,-5,50,-10
13310,-1120,-128,1584,-6,52,-8
13315,-1120,-120,1600,-5,53,-12
13320,-1104,-120,1576,-3,52,-9
13325,-1112,-120,1608,0,51,-13
13330,-1112,-128,1600,0,51,-11
13335,-1112,-120,1616,0,51,-12
13340,-1112,-136,1616,2,53,-10
13345,-1104,-136,1592,4,56,-14
13350,-1080,-144,1608,5,58,-13
13355,-1104,-112,1608,4,62,-16
13360,-1080,-128,1576,3,64,-14
13365,-1080,-112,1576,-1,68,-15
13370,-1088,-112,1600,-2,70,-12
13375,-1088,-112,1608,-2,74,-12
13380,-1088,-120,1608,-5,74,-9
13385,-1096,-136,1608,-10,76,-11
13390,-1088,-120,1616,-13,75,-7
13395,-1112,-128,1568,-13,72,-8
13400,-1104,-120,1592,-14,70,-6
13405,-1096,-120,1592,-14,68,-8
13410,-1104,-112,1592,-13,67,-7
13415,-1120,-128,1584,-12,65,-9
13420,-1096,-128,1568,-12,68,-9
13425,-1112,-120,1576,-10,69,-10
13430,-1104,-136,1592,-9,70,-9
13435,-1112,-112,1584,-9,71,-11
13440,-1104,-120,1624,-8,72,-8
13445,-1096,-96,1584,-6,72,-11
13450,-1112,-104,1600,-8,73,-9
13455,-1120,-112,1584,-6,74,-11
13460,-1104,-88,1584,-7,73,-9
13465,-1096,-120,1600,-7,72,-11
13470,-1104,-96,1576,-6,71,-9
13475,-1104,-128,1632,-4,71,-11
13480,-1104,-112,1600,-7,70,-9
13485,-1104,-120,1616,-7,69,-11
13490,-1104,-112,1592,-7,69,-10
13495,-1120,-128,1600,-7,67,-10
13500,-1096,-96,1600,-9,66,-9
13505,-1112,-112,1600,-11,65,-9
13510,-1104,-104,1608,-12,63,-7
13515,-1120,-96,1608,-14,62,-7
13520,-1104,-120,1592,-16,63,-7
13525,-1128,-96,1600,-18,63,-8
13530,-1096,-128,1608,-19,62,-7
13535,-1104,-96,1616,-20,63,-8
13540,-1120,-120,1600,-21,63,-6
13545,-1120,-120,1576,-19,62,-4
13550,-1096,-136,1600,-18,63,-3
13555,-1120,-120,1584,-19,63,-3
13560,-1104,-144,1576,-18,60,-4
13565,-1112,-112,1568,-19,60,-4
13570,-1120,-112,1608,-19,61,-3
13575,-1112,-120,1584,-18,60,-2
13580,-1112,-128,1600,-21,58,-1
13585,-1104,-128,1616,-24,55,-2
13590,-1128,-128,1624,-27,53,-2
13595,-1120,-120,1608,-30,49,-2
13600,-1112,-128,1600,-31,47,-1
13605,-1112,-120,1600,-28,46,-1
13610,-1120,-120,1608,-22,46,-2
13615,-1080,-128,1600,-20,47,-2
13620,-1112,-120,1592,-19,49,-4
13625,-1120,-144,1576,-17,53,-4
13630,-1096,-120,1584,-16,55,-5
13635,-1120,-112,1600,-15,54,-6
13640,-1128,-96,1616,-13,54,-5
13645,-1104,-104,1616,-14,54,-5
13650,-1112,-112,1576,-15,54,-5
13655,-1104,-128,1600,-18,51,-4
13660,-1120,-104,1608,-19,51,-6
13665,-1112,-112,1608,-19,51,-5
13670,-1112,-128,1584,-18,51,-5
13675,-1096,-128,1608,-19,52,-1
13680,-1104,-104,1640,-20,53,-2
13685,-1120,-144,1600,-20,52,-2
13690,-1104,-128,1600,-21,51,-3
13695,-1112,-128,1568,-22,51,-2
13700,-1112,-128,1576,-21,52,-5
13705,-1112,-120,1600,-21,53,-3
13710,-1120,-120,1608,-20,53,-5
13715,-1104,-144,1624,-21,54,-3
13720,-1112,-128,1608,-20,57,-5
13725,-1088,-112,1608,-19,57,-1
13730,-1096,-120,1600,-16,57,-2
13735,-1104,-128,1616,-14,57,-1
13740,-1112,-128,1608,-14,58,-5
13745,-1112,-104,1600,-13,59,-3
13750,-952,-40,1592,-11,59,-4
13755,-1032,-104,1520,-12,60,-3
13760,-1072,-104,1632,-10,59,-3
13765,-1096,-104,1600,-10,61,-2
13770,-1200,-144,1616,-9,61,-4
13775,-1096,-24,1624,-10,59,-2
13780,-1176,-176,1624,-11,60,-3
13785,-1136,-72,1656,-11,59,-2
13790,-1088,-104,1584,-13,59,-5
13795,-1064,-160,1600,-14,58,-5
13800,-1104,-128,1576,-14,57,-6
13805,-1104,-112,1600,-15,57,-4
13810,-1088,-144,1584,-15,59,-8
13815,-1096,-144,1616,-17,60,-6
13820,-1080,-80,1616,-16,59,-8
13825,-1096,-120,1600,-15,59,-6
13830,-1080,-112,1584,-14,59,-7
13835,-1096,-128,1608,-13,59,-6
13840,-1112,-120,1592,-12,58,-8
13845,-1056,-128,1592,-10,58,-6
13850,-1104,-128,1576,-9,58,-8
13855,-1080,-128,1608,-8,58,-5
13860,-1112,-120,1592,-8,59,-8
13865,-1112,-96,1600,-11,60,-6
13870,-1104,-104,1600,-14,63,-9
13875,-1104,-112,1600,-17,62,-9
13880,-1112,-112,1600,-16,62,-10
13885,-1112,-112,1592,-16,60,-5
13890,-1112,-128,1616,-15,58,-7
13895,-1096,-128,1592,-17,60,-4
13900,-1120,-120,1608,-18,58,-6
13905,-1104,-136,1600,-20,55,-3
13910,-1104,-120,1608,-21,53,-5
13915,-1096,-128,1600,-21,52,-2
13920,-1104,-120,1616,-23,49,-4
13925,-1096,-120,1608,-26,47,-1
13930,-1112,-104,1592,-30,47,-3
13935,-1096,-128,1592,-32,45,0
13940,-1096,-128,1608,-32,43,-3
13945,-1096,-136,1592,-29,41,0
13950,-1112,-120,1616,-31,42,-3
13955,-1112,-112,1632,-38,43,-2
13960,-1120,-128,1632,-42,44,-6
13965,-1120,-112,1608,-41,44,-4
13970,-1120,-128,1592,-39,42,-5
13975,-1112,-120,1616,-37,41,-3
13980,-1104,-136,1600,-35,41,-7
13985,-1112,-144,1592,-33,41,-5
13990,-1120,-144,1592,-30,45,-8
13995,-1128,-136,1600,-26,48,-6
14000,-1104,-128,1592,-24,50,-9
14005,-1120,-96,1608,-26,51,-5
14010,-1104,-96,1616,-26,51,-6
14015,-1120,-120,1616,-27,55,-2
14020,-1096,-136,1624,-27,56,-3
14025,-1104,-136,1584,-25,57,0
14030,-1104,-112,1600,-24,58,1
14035,-1120,-96,1600,-25,57,5
14040,-1112,-112,1608,-26,55,4
14045,-1120,-104,1608,-28,53,7
14050,-1104,-128,1584,-29,50,6
14055,-1104,-128,1592,-31,47,7
14060,-1112,-144,1568,-29,42,5
14065,-1104,-120,1576,-29,38,7
14070,-1112,-128,1584,-27,35,4
14075,-1080,-120,1584,-26,34,7
14080,-1096,-136,1576,-25,34,5
14085,-1088,-152,1560,-25,34,8
14090,-1120,-120,1600,-25,36,5
14095,-1120,-128,1600,-22,37,8
14100,-1104,-120,1600,-21,36,5
14105,-1104,-104,1600,-21,36,6
14110,-1104,-128,1584,-21,38,4
14115,-1112,-112,1616,-22,37,6
14120,-1104,-112,1616,-24,36,5
14125,-1112,-128,1616,-24,36,6
14130,-1088,-128,1600,-25,36,4
14135,-1088,-136,1616,-26,36,6
14140,-1080,-136,1616,-27,37,4
14145,-1112,-128,1632,-27,37,6
14150,-1080,-128,1608,-27,37,4
14155,-1104,-128,1600,-27,37,7
14160,-1120,-128,1600,-29,38,6
14165,-1096,-128,1624,-28,41,7
14170,-1104,-120,1584,-25,41,6
14175,-1080,-112,1616,-25,40,9
14180,-1104,-120,1592,-24,43,7
14185,-1088,-136,1584,-24,43,8
14190,-1088,-144,1616,-23,44,9
14195,-1104,-120,1592,-23,45,10
14200,-1096,-120,1632,-23,45,9
14205,-1088,-128,1616,-24,46,10
14210,-1104,-128,1624,-23,49,9
14215,-1088,-120,1616,-22,52,11
14220,-1080,-144,1624,-21,55,10
14225,-1104,-136,1616,-20,57,12
14230,-1056,-144,1624,-20,57,12
14235,-1096,-112,1608,-19,60,12
14240,-1088,-128,1600,-19,64,13
14245,-1104,-112,1624,-20,64,15
14250,-1104,-112,1600,-20,63,14
14255,-1104,-112,1616,-19,66,16
14260,-1088,-152,1568,-16,68,14
14265,-1088,-152,1608,-12,71,13
14270,-1104,-136,1584,-10,72,12
14275,-1088,-136,1608,-8,71,11
14280,-1080,-144,1624,-8,73,10
14285,-1080,-152,1608,-5,75,8
14290,-1080,-144,1608,-5,76,8
14295,-1096,-104,1640,-7,76,9
14300,-1072,-112,1616,-12,79,8
14305,-1080,-112,1608,-16,79,7
14310,-1080,-120,1616,-21,80,7
14315,-1072,-144,1624,-24,82,7
14320,-1056,-136,1616,-25,85,6
14325,-1096,-128,1656,-25,87,5
14330,-1080,-136,1632,-26,93,7
14335,-1088,-112,1608,-26,98,7
14340,-1096,-144,1656,-29,107,6
14345,-1080,-144,1640,-24,116,5
14350,-1096,-144,1624,-15,126,4
14355,-1072,-136,1592,-6,132,8
14360,-1096,-144,1632,1,138,9
14365,-1088,-120,1640,5,143,8
14370,-1096,-120,1600,7,148,7
14375,-1104,-128,1592,8,150,5
14380,-1096,-104,1600,11,150,7
14385,-1112,-104,1616,10,148,6
14390,-1104,-104,1608,10,146,8
14395,-1112,-112,1584,13,142,7
14400,-1120,-96,1616,13,140,6
14405,-1112,-104,1616,14,139,6
14410,-1096,-128,1592,14,137,6
14415,-1096,-136,1600,14,136,6
14420,-1088,-96,1560,12,132,7
14425,-1096,-112,1592,13,134,5
14430,-1120,-120,1584,15,136,4
14435,-1104,-144,1576,14,135,3
14440,-1088,-136,1592,16,136,3
14445,-1104,-144,1584,19,133,4
14450,-1104,-136,1592,22,133,3
14455,-1120,-104,1592,23,132,-2
14460,-1120,-136,1584,24,129,0
14465,-1120,-128,1576,29,122,-3
14470,-1104,-112,1584,28,120,-3
14475,-1112,-128,1576,28,117,-5
14480,-1104,-128,1536,27,113,-4
14485,-1120,-120,1576,24,109,-6
14490,-1120,-88,1576,22,104,-5
14495,-1120,-96,1584,19,98,-8
14500,-1136,-112,1576,13,94,-8
14505,-1112,-120,1576,9,90,-9
14510,-1136,-96,1576,4,87,-9
14515,-1120,-120,1600,2,84,-11
14520,-1128,-112,1592,0,83,-6
14525,-1120,-120,1584,0,82,-7
14530,-1128,-96,1568,-3,80,-5
14535,-1128,-96,1568,-3,79,-5
14540,-1120,-104,1576,-3,78,-2
14545,-1128,-104,1552,-5,76,-1
14550,-1128,-88,1584,-7,73,2
14555,-1128,-96,1592,-10,70,0
14560,-1096,-88,1584,-13,67,2
14565,-1120,-72,1584,-17,64,0
14570,-1136,-88,1592,-18,62,4
14575,-1112,-112,1568,-17,60,0
14580,-1112,-104,1584,-15,62,3
14585,-1120,-96,1584,-9,65,-2
14590,-1128,-72,1584,-5,66,1
14595,-1120,-96,1568,-1,66,-1
14600,-1128,-72,1584,-2,65,1
14605,-1128,-88,1592,-6,62,-2
14610,-1120,-104,1592,-13,60,1
14615,-1104,-112,1584,-17,58,-2
14620,-1120,-112,1576,-20,56,2
14625,-1096,-104,1608,-22,53,-1
14630,-1104,-136,1608,-24,53,1
14635,-1104,-120,1576,-24,52,0
14640,-1104,-128,1576,-22,49,2
14645,-1112,-144,1584,-21,49,-3
14650,-1112,-160,1592,-16,49,-2
14655,-1104,-144,1592,-13,50,-6
14660,-1112,-144,1576,-7,51,-6
14665,-1128,-144,1592,-3,54,-10
14670,-1136,-128,1592,-2,55,-9
14675,-1112,-136,1592,1,55,-14
14680,-1128,-144,1568,4,54,-13
14685,-1120,-136,1600,5,53,-16
14690,-1128,-128,1560,6,51,-14
14695,-1120,-120,1544,8,49,-16
14700,-1136,-112,1584,8,48,-14
14705,-1120,-120,1584,9,47,-16
14710,-1128,-96,1552,10,44,-12
14715,-1112,-120,1584,12,41,-14
14720,-1112,-112,1584,11,40,-12
14725,-1112,-112,1592,10,39,-14
14730,-1120,-112,1600,9,35,-11
14735,-1120,-72,1608,6,33,-13
14740,-1120,-88,1584,6,33,-10
14745,-1104,-112,1576,7,31,-11
14750,-1120,-64,1584,4,29,-10
14755,-1104,-88,1608,1,27,-12
14760,-1128,-64,1624,-1,25,-10
14765,-1128,-56,1608,-5,23,-11
14770,-1120,-80,1600,-8,21,-8
14775,-1128,-56,1584,-12,22,-10
14780,-1112,-48,1608,-17,25,-8
14785,-1120,-80,1600,-20,24,-8
14790,-1112,-48,1608,-25,25,-6
14795,-1112,-80,1592,-28,25,-6
14800,-1112,-96,1616,-31,25,-2
14805,-1120,-72,1592,-33,24,-4
14810,-1104,-104,1632,-35,24,-2
14815,-1104,-104,1608,-36,24,-3
14820,-1088,-128,1656,-36,24,-1
14825,-1096,-152,1608,-35,25,-3
14830,-1096,-160,1632,-34,26,0
14835,-1096,-152,1600,-31,28,-2
14840,-1104,-128,1592,-29,29,-2
14845,-1088,-160,1600,-24,33,-6
14850,-1080,-144,1600,-19,35,-8
14855,-1120,-128,1608,-16,34,-11
14860,-1120,-120,1600,-13,35,-10
14865,-1128,-120,1584,-12,32,-15
14870,-1120,-128,1576,-9,32,-16
14875,-1128,-112,1600,-6,31,-18
14880,-1120,-112,1592,-6,30,-18
14885,-1120,-136,1608,-8,29,-21
14890,-1112,-152,1592,-9,30,-20
14895,-1128,-112,1568,-9,31,-21
14900,-1128,-120,1576,-11,32,-18
14905,-1096,-112,1592,-10,33,-19
14910,-1112,-112,1600,-10,34,-15
14915,-1080,-112,1600,-11,34,-14
14920,-1120,-104,1600,-11,35,-10
14925,-1120,-96,1592,-11,37,-9
14930,-1088,-96,1560,-10,39,-7
14935,-1104,-80,1592,-11,39,-7
14940,-1104,-88,1608,-13,38,-7
14945,-1096,-64,1608,-15,37,-7
14950,-1080,-80,1600,-19,38,-5
14955,-1096,-104,1576,-26,33,-5
14960,-1088,-96,1616,-29,30,-3
14965,-1088,-104,1616,-32,27,-3
14970,-1080,-104,1600,-34,27,-5
14975,-1088,-112,1608,-34,24,-6
14980,-1112,-104,1608,-32,24,-7
14985,-1096,-104,1592,-33,24,-7
14990,-1112,-96,1608,-30,22,-7
14995,-1104,-96,1592,-32,21,-9
