timestamp,accel_x,accel_y,accel_z,gyro_x,gyro_y,gyro_z
0,72,-2008,-8,-38,-7,2
5,72,-2024,32,-39,-5,-1
10,88,-2024,8,-39,-3,-3
15,96,-2008,-8,-40,-1,-4
20,80,-2000,24,-41,0,-5
25,72,-2016,24,-39,1,-6
30,80,-2008,32,-37,1,-8
35,64,-2000,-32,-38,1,-10
40,80,-2016,16,-36,1,-11
45,72,-2008,-8,-37,-1,-11
50,72,-1992,-8,-33,-5,-10
55,64,-2008,-32,-33,-8,-10
60,64,-2000,16,-34,-10,-9
65,80,-2024,-16,-36,-11,-9
70,72,-2000,16,-39,-13,-10
75,24,-2056,0,-44,-13,-10
80,72,-2000,-8,-49,-13,-10
85,64,-2016,24,-52,-8,-12
90,80,-2000,24,-57,-3,-11
95,80,-2008,0,-61,3,-12
100,104,-2008,0,-71,6,-11
105,104,-2000,32,-81,10,-13
110,128,-2008,0,-90,13,-17
115,104,-2000,16,-100,15,-21
120,128,-2024,56,-109,15,-24
125,120,-2032,48,-115,14,-24
130,88,-2016,8,-119,10,-25
135,96,-2016,40,-123,5,-26
140,88,-2016,48,-126,1,-28
145,88,-2008,40,-127,-3,-26
150,80,-2016,56,-125,-6,-25
155,88,-2024,64,-121,-5,-24
160,104,-2008,64,-118,-7,-24
165,120,-2016,72,-115,-6,-23
170,112,-2008,64,-114,-3,-25
175,120,-2016,72,-112,1,-26
180,80,-2000,56,-110,5,-27
185,56,-2048,48,-110,11,-29
190,96,-2016,56,-107,17,-32
195,80,-2000,48,-105,21,-33
200,96,-2000,32,-103,24,-34
205,112,-2016,48,-100,25,-36
210,112,-1984,40,-98,24,-38
215,120,-1984,64,-95,20,-40
220,144,-1992,64,-92,15,-40
225,128,-1960,48,-89,7,-39
230,112,-1960,72,-86,-3,-38
235,128,-1960,72,-82,-14,-39
240,144,-1976,80,-83,-22,-37
245,104,-1976,72,-84,-31,-36
250,96,-1976,64,-87,-38,-36
255,96,-1984,72,-91,-41,-33
260,96,-1968,64,-98,-39,-30
265,80,-1984,72,-103,-36,-28
270,72,-2008,40,-109,-29,-27
275,112,-2024,48,-114,-21,-27
280,120,-2024,64,-118,-14,-26
285,144,-2024,64,-123,-6,-27
290,136,-2040,64,-125,-3,-27
295,136,-2048,56,-125,-1,-28
300,160,-2008,64,-126,-1,-29
305,160,-2024,88,-124,-2,-29
310,168,-2016,72,-124,-7,-28
315,176,-2016,64,-123,-11,-28
320,168,-2024,72,-121,-14,-29
325,160,-2008,72,-122,-15,-30
330,192,-2024,56,-123,-13,-32
335,168,-2024,40,-122,-11,-34
340,184,-2000,64,-124,-9,-37
345,168,-2016,64,-125,-7,-39
350,160,-1992,48,-125,-6,-43
355,176,-1992,64,-127,-4,-42
360,144,-1976,40,-131,-1,-40
365,136,-1960,56,-132,0,-36
370,152,-1968,40,-132,1,-31
375,136,-1944,40,-130,5,-25
380,128,-1936,48,-130,9,-19
385,128,-1912,40,-129,14,-11
390,104,-1896,72,-128,17,-4
395,128,-1904,64,-128,15,3
400,128,-1872,104,-126,15,11
405,96,-1872,88,-126,13,19
410,128,-1880,96,-126,9,28
415,104,-1872,112,-127,4,37
420,96,-1864,136,-126,-3,45
425,96,-1888,128,-130,-11,52
430,88,-1856,152,-134,-16,62
435,120,-1904,104,-134,-24,67
440,136,-1912,128,-135,-28,74
445,128,-1936,112,-139,-32,81
450,112,-1920,184,-143,-34,87
455,152,-1952,160,-147,-34,93
460,160,-1952,112,-153,-33,98
465,144,-1976,120,-159,-30,102
470,136,-1960,120,-166,-28,105
475,152,-1976,96,-171,-23,107
480,136,-1968,72,-175,-16,109
485,136,-1992,112,-179,-8,109
490,152,-1992,80,-179,1,107
495,192,-2000,104,-179,8,106
500,176,-2016,88,-177,15,105
505,192,-2040,80,-175,20,105
510,184,-2040,104,-169,22,108
515,192,-2056,80,-162,24,111
520,184,-2056,80,-156,28,114
525,160,-2040,72,-150,30,121
530,176,-2064,56,-146,35,127
535,144,-2072,72,-140,41,132
540,136,-2048,56,-138,45,138
545,152,-2056,24,-139,51,141
550,128,-2056,56,-140,56,145
555,112,-2048,32,-148,61,147
560,88,-2056,16,-157,65,148
565,104,-2072,24,-163,69,150
570,72,-2032,24,-167,71,151
575,56,-2048,16,-172,69,154
580,24,-2048,0,-176,62,159
585,16,-2056,16,-177,54,166
590,-16,-2064,24,-176,43,171
595,-24,-2056,-32,-173,32,180
600,-64,-2056,0,-168,20,188
605,-56,-2072,-24,-162,5,196
610,-80,-2024,-40,-155,-16,205
615,-72,-2040,-40,-150,-38,214
620,-120,-2024,-40,-149,-64,223
625,-136,-1992,-80,-147,-99,231
630,-160,-1992,-96,-142,-138,244
635,-192,-1968,-72,-133,-183,257
640,-208,-1952,-120,-120,-229,272
645,-232,-1912,-136,-106,-272,287
650,-280,-1872,-160,-93,-317,300
655,-344,-1832,-216,-88,-362,311
660,-384,-1816,-224,-92,-409,321
665,-424,-1768,-208,-99,-459,325
670,-480,-1728,-216,-108,-511,329
675,-576,-1728,-200,-119,-571,331
680,-576,-1720,-136,-122,-627,326
685,-592,-1704,-88,-123,-676,323
690,-520,-1712,-80,-123,-713,314
695,-448,-1752,-8,-117,-729,299
700,-432,-1760,56,-108,-729,279
705,-384,-1792,104,-96,-720,254
710,-328,-1856,160,-77,-703,225
715,-304,-1912,208,-61,-675,200
720,-216,-1984,152,-48,-643,181
725,-128,-2032,136,-55,-609,163
730,-64,-2088,160,-68,-566,140
735,-40,-2136,112,-90,-518,126
740,16,-2144,64,-129,-472,115
745,104,-2168,64,-177,-419,111
750,136,-2176,80,-225,-367,109
755,152,-2168,88,-268,-325,112
760,240,-2176,112,-298,-290,114
765,256,-2192,144,-310,-255,118
770,256,-2176,200,-312,-228,121
775,280,-2208,208,-311,-212,123
780,304,-2200,216,-301,-195,129
785,312,-2168,240,-288,-180,136
790,304,-2184,240,-269,-164,143
795,272,-2200,256,-248,-147,150
800,224,-2184,264,-228,-131,159
805,120,-2152,256,-213,-117,171
810,88,-2120,264,-203,-108,186
815,56,-2096,272,-196,-103,201
820,24,-2056,232,-184,-97,215
825,-48,-1992,168,-170,-90,227
830,-120,-1984,152,-155,-81,233
835,-120,-1864,80,-141,-71,239
840,-160,-1896,96,-131,-54,242
845,-208,-1872,80,-128,-37,243
850,-200,-1840,80,-130,-16,241
855,-208,-1840,64,-134,5,236
860,-216,-1816,48,-142,27,227
865,-248,-1816,40,-151,51,217
870,-248,-1808,40,-165,74,206
875,-240,-1816,32,-177,101,194
880,-264,-1832,32,-192,126,178
885,-280,-1848,16,-201,146,165
890,-264,-1848,40,-204,161,154
895,-200,-1848,32,-203,172,150
900,-224,-1856,32,-202,184,138
905,-208,-1856,56,-200,196,126
910,-192,-1864,24,-189,206,120
915,-208,-1856,56,-179,212,116
920,-168,-1872,64,-171,216,110
925,-144,-1896,112,-152,212,103
930,-112,-1912,80,-124,206,96
935,-120,-1920,104,-109,202,87
940,-112,-1872,136,-94,196,76
945,-120,-1912,136,-84,189,63
950,-104,-1952,168,-67,180,56
955,-128,-1936,184,-50,177,46
960,-168,-1936,232,-35,176,36
965,-192,-1944,240,-14,181,28
970,-208,-1936,240,18,187,23
975,-192,-1912,232,55,199,13
980,-184,-1888,248,86,214,7
985,-208,-1872,248,109,230,-1
990,-184,-1856,232,125,243,-13
995,-184,-1840,216,131,268,-19
1000,-128,-1808,240,119,305,-26
1005,-192,-1816,280,80,350,-37
1010,-184,-1872,296,30,392,-49
1015,-232,-1936,384,-12,425,-62
1020,-296,-1976,424,-21,444,-77
1025,-248,-2000,448,-7,445,-76
1030,-296,-1984,472,7,444,-74
1035,-280,-1976,448,16,439,-72
1040,-288,-1944,392,10,435,-76
1045,-296,-1960,360,-13,425,-86
1050,-312,-1936,296,-37,413,-95
1055,-232,-1912,360,-47,398,-104
1060,-288,-1976,296,-44,384,-108
1065,-288,-1912,288,-39,371,-108
1070,-320,-1936,264,-42,361,-111
1075,-336,-1880,320,-50,355,-111
1080,-304,-1920,400,-64,354,-112
1085,-272,-1880,464,-76,356,-116
1090,-288,-1976,408,-85,360,-120
1095,-248,-1976,584,-88,364,-125
1100,-288,-1976,536,-84,371,-129
1105,-248,-2096,576,-76,376,-131
1110,-256,-2088,592,-61,379,-132
1115,-288,-2120,600,-45,377,-128
1120,-264,-2152,592,-28,370,-120
1125,-312,-2192,488,-15,352,-109
1130,-496,-2240,520,-15,323,-93
1135,-304,-2312,248,-37,277,-73
1140,-336,-2216,96,-80,226,-51
1145,-504,-2320,0,-135,180,-27
1150,-448,-2408,-176,-194,140,-1
1155,-448,-2488,-144,-247,106,23
1160,-480,-2576,-48,-290,83,49
1165,-496,-2672,-128,-310,77,71
1170,-400,-2816,56,-306,92,91
1175,-240,-2840,184,-264,136,103
1180,-264,-2896,336,-183,190,107
1185,-256,-2984,328,-72,238,111
1190,-240,-3048,472,60,283,127
1195,-136,-3088,568,211,327,158
1200,-64,-3104,624,385,365,190
1205,96,-3104,520,578,377,203
1210,136,-2952,408,753,359,189
1215,120,-2656,-24,876,324,166
1220,-88,-2552,-128,912,278,129
1225,32,-2288,-528,849,219,78
1230,32,-2184,-736,696,155,26
1235,16,-2128,-920,471,112,-29
1240,24,-2080,-864,228,97,-76
1245,56,-1992,-936,22,114,-105
1250,-104,-2064,-816,-121,166,-124
1255,8,-1944,-680,-200,243,-135
1260,-96,-2032,-648,-219,325,-142
1265,0,-2000,-576,-193,407,-149
1270,40,-1992,-472,-143,479,-165
1275,32,-2008,-392,-70,537,-179
1280,64,-2024,-376,19,580,-185
1285,88,-2072,-288,113,601,-185
1290,32,-2032,-376,203,606,-181
1295,120,-1984,-232,274,592,-173
1300,40,-2056,-328,330,558,-161
1305,0,-2056,-192,362,502,-140
1310,-32,-2120,-272,379,436,-115
1315,-16,-2096,-248,383,369,-89
1320,24,-2184,-176,378,307,-65
1325,-40,-2144,-232,373,248,-59
1330,-56,-2216,-240,370,197,-61
1335,-48,-2152,-176,362,153,-67
1340,-136,-2176,-224,348,110,-82
1345,-152,-2208,-224,319,71,-107
1350,-152,-2184,-248,280,37,-135
1355,-120,-2216,-272,234,8,-165
1360,-128,-2216,-200,187,-12,-198
1365,-120,-2208,-216,152,-23,-233
1370,-104,-2176,-160,125,-25,-263
1375,-104,-2176,-192,108,-17,-290
1380,-88,-2168,-192,102,-6,-313
1385,-72,-2120,-128,108,10,-332
1390,-96,-2048,-112,129,20,-347
1395,-80,-2024,-120,161,34,-359
1400,-72,-1912,-128,195,47,-368
1405,-40,-1880,-96,217,65,-376
1410,-40,-1832,-120,231,80,-387
1415,-16,-1768,-192,245,90,-399
1420,8,-1712,-192,258,100,-415
1425,0,-1608,-200,291,103,-439
1430,0,-1544,-216,298,107,-443
1435,-8,-1512,-200,282,112,-442
1440,64,-1488,-144,264,105,-442
1445,24,-1472,-192,243,89,-436
1450,0,-1448,-120,217,63,-423
1455,-24,-1552,-24,197,33,-407
1460,-8,-1504,16,179,-2,-389
1465,32,-1448,32,169,-40,-368
1470,24,-1472,88,167,-80,-349
1475,16,-1440,120,177,-119,-329
1480,8,-1488,104,187,-159,-303
1485,0,-1496,256,191,-203,-278
1490,48,-1472,40,188,-243,-260
1495,32,-1472,88,177,-279,-245
1500,48,-1488,80,158,-309,-235
1505,56,-1504,72,136,-332,-228
1510,80,-1520,72,114,-356,-226
1515,152,-1544,56,95,-377,-230
1520,96,-1616,0,81,-395,-242
1525,152,-1624,56,63,-407,-252
1530,80,-1504,-40,48,-414,-262
1535,160,-1632,104,41,-421,-272
1540,168,-1648,88,38,-430,-279
1545,168,-1640,184,38,-440,-278
1550,184,-1672,216,44,-450,-272
1555,216,-1728,264,64,-459,-261
1560,264,-1816,448,124,-443,-262
1565,152,-1736,392,234,-407,-259
1570,112,-1704,368,314,-402,-237
1575,40,-1592,368,349,-429,-198
1580,72,-1568,368,339,-482,-135
1585,96,-1584,456,305,-532,-59
1590,88,-1600,472,276,-564,15
1595,72,-1640,520,259,-590,88
1600,64,-1608,488,253,-608,155
1605,48,-1624,544,254,-621,215
1610,56,-1632,512,256,-625,268
1615,64,-1632,512,251,-621,316
1620,136,-1632,464,235,-610,354
1625,168,-1632,512,212,-585,378
1630,192,-1648,320,182,-547,392
1635,280,-1704,288,148,-497,389
1640,264,-1696,208,117,-440,368
1645,288,-1696,208,71,-396,338
1650,288,-1760,184,8,-365,299
1655,328,-1848,256,-61,-352,255
1660,424,-1992,296,-124,-347,204
1665,424,-2136,456,-168,-337,143
1670,496,-2256,560,-193,-328,83
1675,520,-2400,680,-201,-325,22
1680,560,-2504,824,-189,-325,-38
1685,536,-2568,864,-164,-320,-92
1690,528,-2608,960,-125,-312,-138
1695,472,-2632,1008,-68,-306,-175
1700,496,-2600,1008,1,-310,-202
1705,464,-2528,920,82,-313,-219
1710,504,-2472,880,152,-313,-224
1715,512,-2384,824,208,-310,-215
1720,512,-2344,720,254,-308,-199
1725,456,-2288,608,283,-313,-193
1730,360,-2288,536,285,-322,-198
1735,264,-2264,400,251,-334,-205
1740,208,-2336,248,174,-340,-204
1745,168,-2440,64,61,-330,-194
1750,184,-2616,-32,-77,-294,-184
1755,208,-2832,-112,-223,-243,-188
1760,232,-3064,-96,-337,-178,-193
1765,312,-3184,-40,-376,-103,-203
1770,336,-3272,16,-344,-36,-225
1775,352,-3272,56,-255,3,-242
1780,360,-3232,80,-128,11,-252
1785,384,-3104,24,0,9,-255
1790,424,-2992,-64,105,11,-242
1795,440,-2832,-176,184,20,-222
1800,432,-2680,-280,234,32,-200
1805,424,-2536,-384,261,36,-177
1810,408,-2424,-456,269,34,-152
1815,376,-2264,-560,262,26,-126
1820,328,-2120,-600,233,6,-103
1825,224,-1992,-648,192,-23,-78
1830,160,-1880,-640,145,-65,-55
1835,96,-1736,-592,107,-119,-31
1840,8,-1624,-600,82,-175,-9
1845,-48,-1520,-520,63,-224,9
1850,-112,-1472,-472,53,-261,25
1855,-176,-1408,-432,45,-280,33
1860,-248,-1408,-336,30,-279,33
1865,-336,-1440,-248,24,-268,22
1870,-392,-1440,-216,14,-253,9
1875,-448,-1488,-144,-10,-234,-1
1880,-456,-1576,-72,-49,-212,-4
1885,-480,-1632,-32,-78,-189,3
1890,-448,-1664,-16,-105,-156,19
1895,-472,-1736,-24,-137,-115,34
1900,-416,-1840,-56,-163,-69,55
1905,-384,-1880,-88,-195,-19,83
1910,-352,-1920,-128,-233,36,115
1915,-304,-1976,-104,-278,90,156
1920,-232,-2008,-120,-317,140,195
1925,-192,-2040,-120,-349,182,238
1930,-128,-2104,-120,-373,217,284
1935,-32,-2160,-40,-388,239,317
1940,24,-2144,-32,-384,251,351
1945,128,-2144,0,-371,253,381
1950,200,-2112,-24,-344,250,397
1955,208,-2024,-8,-310,244,400
1960,256,-2000,32,-280,237,402
1965,272,-1936,24,-244,224,395
1970,320,-1880,-40,-209,208,385
1975,280,-1768,-48,-181,193,371
1980,312,-1688,-80,-171,175,358
1985,288,-1584,-64,-183,159,350
1990,272,-1544,-80,-212,146,348
1995,232,-1512,-56,-246,132,343
2000,184,-1440,-80,-279,119,336
2005,24,-1392,-72,-319,105,338
2010,128,-1392,-72,-378,82,349
2015,184,-1504,8,-422,74,344
2020,96,-1488,64,-416,94,304
2025,-32,-1480,32,-380,127,273
2030,-40,-1456,16,-352,161,255
2035,-112,-1472,16,-333,187,244
2040,-128,-1472,16,-325,208,235
2045,-128,-1512,32,-322,229,225
2050,-168,-1528,32,-324,251,211
2055,-168,-1544,64,-326,274,197
2060,-216,-1584,64,-324,300,180
2065,-200,-1632,72,-315,328,166
2070,-240,-1664,88,-301,358,151
2075,-256,-1656,112,-294,387,143
2080,-248,-1704,152,-307,413,138
2085,-312,-1648,112,-330,436,133
2090,-232,-1800,224,-369,458,131
2095,-224,-1920,304,-378,480,112
2100,-240,-1912,328,-334,507,94
2105,-184,-1928,368,-259,534,84
2110,-200,-1864,392,-188,561,72
2115,-160,-1824,360,-137,589,58
2120,-136,-1792,400,-105,614,43
2125,-112,-1768,400,-82,635,26
2130,-56,-1784,416,-65,650,9
2135,-80,-1792,432,-54,661,-12
2140,16,-1768,408,-46,664,-36
2145,24,-1760,424,-43,660,-62
2150,48,-1776,440,-42,649,-91
2155,32,-1800,408,-40,637,-123
2160,24,-1856,416,-41,620,-158
2165,40,-1920,392,-43,610,-186
2170,24,-1984,432,-45,608,-214
2175,-8,-2032,408,-43,612,-243
2180,-24,-2080,408,-30,616,-271
2185,-72,-2136,368,-18,616,-299
2190,-64,-2144,416,-3,605,-324
2195,-120,-2144,376,11,577,-342
2200,-224,-2144,376,17,535,-349
2205,-304,-2128,376,21,478,-341
2210,-360,-2144,360,24,411,-319
2215,-432,-2176,360,32,349,-280
2220,-504,-2232,392,42,297,-230
2225,-560,-2264,424,55,265,-174
2230,-608,-2296,480,68,251,-112
2235,-656,-2344,520,81,250,-50
2240,-640,-2376,624,90,259,13
2245,-640,-2424,648,95,270,72
2250,-608,-2424,696,100,285,127
2255,-496,-2448,776,110,298,175
2260,-400,-2392,824,127,311,208
2265,-248,-2344,856,154,324,227
2270,-104,-2288,952,193,342,230
2275,16,-2240,936,244,367,223
2280,128,-2120,928,310,392,200
2285,288,-2112,800,371,423,170
2290,376,-2120,664,423,457,138
2295,336,-2112,416,451,492,105
2300,272,-2152,136,432,522,80
2305,224,-2288,-48,341,542,55
2310,112,-2464,-328,194,549,23
2315,-8,-2664,-496,27,534,-11
2320,-104,-2848,-608,-138,497,-38
2325,-192,-3000,-680,-262,444,-48
2330,-272,-3064,-744,-327,384,-31
2335,-304,-3096,-824,-340,336,6
2340,-320,-3080,-864,-324,301,60
2345,-360,-2968,-936,-288,283,121
2350,-400,-2904,-960,-237,278,181
2355,-416,-2776,-968,-169,277,239
2360,-432,-2592,-912,-91,273,299
2365,-320,-2496,-856,-18,262,359
2370,-256,-2360,-776,64,235,408
2375,-136,-2216,-720,151,200,454
2380,-88,-2088,-648,232,168,497
2385,8,-1944,-568,303,143,531
2390,24,-1800,-528,359,119,556
2395,120,-1720,-440,392,98,570
2400,184,-1624,-416,400,79,570
2405,232,-1632,-360,380,68,549
2410,280,-1656,-296,332,68,514
2415,296,-1744,-232,266,80,464
2420,320,-1832,-144,191,104,400
2425,296,-1920,-64,121,133,324
2430,280,-1992,48,59,151,244
2435,248,-2056,48,3,153,159
2440,192,-2128,64,-54,134,68
2445,128,-2208,64,-109,94,-25
2450,96,-2248,64,-157,34,-115
2455,24,-2304,32,-193,-40,-199
2460,-48,-2304,-24,-218,-123,-274
2465,-104,-2360,-80,-228,-204,-332
2470,-144,-2336,-160,-226,-274,-374
2475,-192,-2312,-224,-213,-326,-399
2480,-248,-2264,-272,-192,-359,-408
2485,-296,-2216,-264,-166,-372,-402
2490,-360,-2152,-272,-132,-370,-386
2495,-416,-2096,-256,-97,-357,-359
2500,-432,-2016,-264,-67,-343,-327
2505,-464,-1976,-232,-43,-330,-296
2510,-456,-1880,-232,-32,-319,-260
2515,-408,-1824,-224,-30,-318,-225
2520,-344,-1752,-184,-34,-321,-195
2525,-280,-1688,-184,-42,-328,-170
2530,-192,-1608,-136,-49,-337,-155
2535,-104,-1536,-128,-56,-341,-146
2540,-56,-1496,-88,-63,-342,-140
2545,8,-1416,-64,-73,-339,-138
2550,80,-1384,-40,-84,-336,-137
2555,128,-1360,-40,-94,-336,-139
2560,144,-1328,-32,-105,-336,-144
2565,208,-1344,24,-116,-343,-154
2570,192,-1304,8,-125,-357,-167
2575,208,-1312,-8,-132,-373,-178
2580,240,-1368,8,-143,-394,-190
2585,248,-1368,24,-151,-416,-200
2590,272,-1424,40,-157,-440,-205
2595,256,-1432,24,-162,-465,-204
2600,264,-1464,64,-163,-491,-201
2605,288,-1512,80,-165,-518,-199
2610,272,-1560,96,-165,-547,-197
2615,272,-1608,120,-165,-575,-194
2620,256,-1664,160,-167,-602,-186
2625,248,-1712,168,-165,-630,-179
2630,232,-1752,232,-161,-657,-168
2635,184,-1784,272,-150,-681,-154
2640,128,-1824,304,-128,-698,-137
2645,120,-1856,328,-107,-712,-107
2650,48,-1904,392,-65,-710,-76
2655,-48,-1856,392,-18,-709,-28
2660,-72,-1848,416,7,-717,40
2665,-104,-1792,400,22,-722,111
2670,-64,-1848,408,42,-722,178
2675,-88,-1856,344,70,-712,232
2680,-112,-1808,376,101,-694,281
2685,-64,-1784,368,129,-673,322
2690,-24,-1800,352,149,-654,356
2695,-8,-1800,304,158,-634,382
2700,32,-1824,344,160,-616,398
2705,64,-1848,336,163,-593,406
2710,80,-1864,304,163,-573,409
2715,128,-1856,264,153,-550,404
2720,200,-1856,216,132,-526,390
2725,232,-1848,216,104,-492,371
2730,296,-1856,184,81,-446,344
2735,384,-1872,232,61,-389,308
2740,440,-1928,272,46,-322,263
2745,496,-1976,336,43,-256,206
2750,560,-2072,360,48,-191,145
2755,624,-2192,416,57,-134,75
2760,664,-2256,480,67,-82,-6
2765,728,-2336,552,78,-39,-88
2770,784,-2376,608,92,-4,-176
2775,824,-2392,640,106,21,-265
2780,816,-2376,680,131,31,-350
2785,760,-2352,704,163,27,-419
2790,648,-2264,696,198,12,-468
2795,584,-2224,656,238,-12,-498
2800,472,-2184,640,274,-39,-510
2805,360,-2152,560,299,-59,-506
2810,240,-2208,488,306,-65,-503
2815,128,-2256,408,299,-54,-503
2820,8,-2328,320,276,-31,-502
2825,-40,-2440,224,239,-2,-486
2830,232,-2656,144,190,41,-473
2835,-304,-2760,104,145,105,-486
2840,-224,-2976,72,59,106,-438
2845,-256,-3120,104,-21,98,-398
2850,-120,-3280,40,-52,99,-366
2855,-104,-3376,40,-41,109,-359
2860,-96,-3368,0,-1,111,-358
2865,-88,-3304,-88,58,98,-351
2870,-56,-3160,-248,116,74,-340
2875,-24,-2992,-440,147,57,-322
2880,-24,-2832,-584,155,48,-291
2885,-40,-2600,-704,161,34,-260
2890,-80,-2424,-776,172,-3,-230
2895,-112,-2208,-792,179,-56,-205
2900,-120,-2048,-752,176,-113,-184
2905,-128,-1888,-720,164,-168,-166
2910,-184,-1728,-664,156,-216,-151
2915,-192,-1616,-656,148,-251,-138
2920,-176,-1504,-592,138,-265,-128
2925,-184,-1464,-480,116,-259,-124
2930,-224,-1432,-432,84,-234,-123
2935,-224,-1456,-328,43,-202,-123
2940,-224,-1520,-248,8,-169,-123
2945,-240,-1600,-168,-26,-136,-124
2950,-216,-1712,-64,-58,-110,-124
2955,-216,-1776,-32,-86,-90,-122
2960,-184,-1880,-8,-114,-71,-113
2965,-192,-1920,-48,-138,-45,-98
2970,-128,-1992,-64,-165,-7,-83
2975,-120,-2048,-48,-188,41,-61
2980,-88,-2096,-40,-212,94,-39
2985,-16,-2144,-80,-234,146,-14
2990,-8,-2152,-128,-258,193,15
2995,16,-2184,-120,-272,235,48
3000,96,-2256,-56,-282,272,84
3005,112,-2272,-48,-283,301,120
3010,128,-2304,-8,-273,323,156
3015,128,-2312,8,-250,335,190
3020,144,-2304,-8,-215,340,221
3025,152,-2280,0,-171,338,246
3030,152,-2200,0,-126,334,264
3035,152,-2136,-16,-90,326,273
3040,120,-2056,-16,-62,316,276
3045,128,-1984,-48,-46,304,272
3050,112,-1928,-72,-46,294,261
3055,88,-1840,-56,-60,280,253
3060,72,-1736,-112,-84,266,241
3065,80,-1608,-104,-117,254,227
3070,48,-1544,-112,-148,247,216
3075,8,-1480,-88,-187,246,204
3080,-24,-1416,-96,-221,247,194
3085,-40,-1400,-88,-247,250,183
3090,-88,-1344,-40,-266,256,173
3095,-104,-1328,-8,-274,263,166
3100,-104,-1312,0,-278,269,159
3105,-88,-1352,8,-276,277,150
3110,-120,-1336,24,-269,285,137
3115,-144,-1360,64,-256,301,123
3120,-128,-1416,72,-243,324,104
3125,-192,-1432,80,-223,354,86
3130,-160,-1480,72,-207,387,74
3135,-184,-1528,96,-198,425,65
3140,-224,-1560,128,-184,466,59
3145,-200,-1640,160,-166,508,54
3150,-192,-1680,168,-143,550,54
3155,-200,-1712,168,-120,592,58
3160,-160,-1760,208,-97,634,66
3165,-152,-1808,208,-73,673,72
3170,-136,-1808,232,-47,709,77
3175,-136,-1808,200,-22,739,80
3180,-112,-1848,232,4,761,81
3185,-72,-1832,240,31,783,81
3190,-32,-1840,288,57,801,76
3195,16,-1816,328,78,814,65
3200,64,-1832,384,96,825,46
3205,128,-1808,440,110,831,18
3210,184,-1816,472,125,833,-14
3215,192,-1832,544,140,835,-57
3220,192,-1792,544,157,833,-105
3225,200,-1776,552,174,830,-148
3230,176,-1760,552,187,829,-191
3235,144,-1704,512,186,822,-235
3240,88,-1656,464,176,804,-272
3245,64,-1632,432,150,769,-305
3250,-8,-1632,432,115,721,-329
3255,-72,-1680,376,75,658,-344
3260,-112,-1680,360,37,588,-346
3265,-208,-1720,328,1,515,-338
3270,-304,-1752,312,-32,447,-318
3275,-384,-1824,320,-61,384,-291
3280,-456,-1888,376,-77,335,-256
3285,-576,-1960,432,-77,303,-217
3290,-632,-1992,536,-63,287,-171
3295,-664,-2088,536,-35,284,-123
3300,-720,-2120,608,-5,288,-73
3305,-728,-2192,624,27,296,-23
3310,-736,-2216,656,52,308,25
3315,-664,-2224,680,67,318,70
3320,-616,-2224,704,78,324,111
3325,-552,-2248,688,85,326,146
3330,-416,-2216,656,86,331,175
3335,-304,-2152,648,83,340,192
3340,-200,-2104,688,78,348,195
3345,-96,-2088,688,79,360,187
3350,0,-2024,752,90,373,165
3355,128,-2032,760,108,386,144
3360,216,-2024,720,136,394,117
3365,248,-2064,640,155,404,89
3370,272,-2120,520,161,424,63
3375,312,-2256,336,138,453,39
3380,256,-2400,168,85,488,12
3385,168,-2576,16,-6,515,-10
3390,120,-2840,-24,-122,524,-25
3395,136,-3048,-72,-222,508,-31
3400,80,-3248,-72,-272,465,-22
3405,-64,-3352,-152,-270,396,-1
3410,-208,-3408,-152,-227,320,43
3415,-352,-3360,-232,-150,250,104
3420,-408,-3264,-288,-57,198,168
3425,-400,-3184,-392,35,169,225
3430,-392,-3008,-512,124,157,272
3435,-392,-2792,-592,198,149,303
3440,-328,-2624,-672,263,156,321
3445,-288,-2376,-752,310,175,335
3450,-240,-2152,-800,339,206,339
3455,-128,-1984,-784,341,241,335
3460,-88,-1816,-752,322,279,321
3465,-8,-1608,-656,295,309,309
3470,40,-1496,-584,259,330,295
3475,120,-1400,-464,222,343,284
3480,184,-1360,-328,189,348,265
3485,240,-1328,-216,156,344,246
3490,240,-1384,-96,121,335,222
3495,248,-1480,16,88,319,194
3500,232,-1592,80,52,294,162
3505,240,-1728,160,25,262,131
3510,208,-1856,192,-6,223,95
3515,184,-1976,208,-36,172,53
3520,152,-2080,168,-71,114,9
3525,112,-2176,160,-107,46,-31
3530,56,-2272,96,-141,-29,-70
3535,-8,-2336,48,-180,-109,-107
3540,-80,-2376,0,-218,-188,-145
3545,-120,-2416,8,-254,-261,-184
3550,-144,-2448,-80,-281,-325,-221
3555,-208,-2456,-88,-293,-371,-251
3560,-288,-2440,-112,-285,-402,-270
3565,-304,-2432,-88,-258,-412,-276
3570,-352,-2384,-96,-216,-410,-272
3575,-376,-2320,-96,-163,-400,-260
3580,-392,-2256,-88,-108,-389,-244
3585,-376,-2176,-88,-63,-378,-225
3590,-376,-2112,-88,-33,-372,-204
3595,-352,-2000,-112,-19,-368,-182
3600,-344,-1904,-112,-25,-366,-161
3605,-312,-1824,-136,-50,-371,-141
3610,-264,-1736,-112,-82,-377,-123
3615,-208,-1616,-96,-122,-382,-105
3620,-160,-1576,-72,-156,-391,-91
3625,-128,-1480,-56,-181,-400,-82
3630,-88,-1424,-64,-197,-410,-78
3635,-32,-1368,-24,-207,-423,-79
3640,0,-1304,-16,-213,-437,-85
3645,64,-1288,16,-213,-451,-94
3650,112,-1280,8,-208,-468,-105
3655,152,-1256,24,-201,-487,-118
3660,176,-1312,80,-193,-508,-139
3665,200,-1296,72,-176,-530,-165
3670,168,-1344,72,-164,-545,-179
3675,136,-1360,112,-154,-567,-188
3680,152,-1440,120,-148,-595,-185
3685,144,-1472,176,-151,-629,-179
3690,128,-1552,200,-156,-668,-170
3695,128,-1608,224,-164,-712,-160
3700,128,-1672,200,-163,-754,-156
3705,128,-1720,216,-164,-795,-152
3710,120,-1744,224,-168,-830,-149
3715,128,-1800,216,-173,-859,-142
3720,88,-1800,224,-180,-879,-134
3725,96,-1824,208,-186,-893,-120
3730,104,-1832,240,-183,-896,-101
3735,88,-1848,264,-181,-888,-74
3740,128,-1816,256,-171,-867,-45
3745,112,-1824,296,-160,-841,-11
3750,120,-1768,328,-144,-810,25
3755,88,-1728,360,-123,-779,67
3760,128,-1712,376,-97,-753,111
3765,112,-1696,408,-63,-734,161
3770,88,-1664,464,-28,-722,210
3775,96,-1648,504,6,-718,263
3780,96,-1648,496,38,-717,313
3785,112,-1640,480,56,-719,357
3790,128,-1632,496,63,-721,398
3795,120,-1640,432,57,-726,431
3800,112,-1624,400,40,-731,455
3805,120,-1672,392,23,-730,473
3810,120,-1712,304,1,-722,478
3815,104,-1720,272,-21,-706,473
3820,96,-1760,184,-57,-676,455
3825,80,-1776,152,-101,-632,430
3830,112,-1840,136,-145,-575,393
3835,144,-1936,176,-184,-507,346
3840,176,-2000,224,-211,-439,285
3845,240,-2128,304,-225,-376,216
3850,304,-2240,464,-226,-321,142
3855,376,-2320,528,-208,-275,55
3860,408,-2392,616,-176,-234,-39
3865,456,-2376,640,-139,-201,-136
3870,496,-2424,720,-104,-169,-225
3875,528,-2424,712,-77,-136,-301
3880,536,-2368,776,-51,-106,-374
3885,544,-2328,800,-16,-78,-437
3890,448,-2240,816,33,-52,-480
3895,472,-2152,792,83,-42,-493
3900,400,-2048,752,125,-57,-486
3905,392,-1984,688,156,-93,-453
3910,360,-1976,592,179,-127,-419
3915,272,-2016,568,186,-149,-394
3920,144,-2064,456,167,-157,-380
3925,48,-2120,384,115,-156,-376
3930,-8,-2232,312,32,-149,-372
3935,-64,-2384,224,-69,-139,-367
3940,-56,-2536,136,-171,-124,-357
3945,-40,-2744,128,-259,-102,-344
3950,-64,-2904,152,-319,-74,-337
3955,-32,-3072,160,-345,-55,-333
3960,-24,-3136,136,-330,-48,-328
3965,24,-3208,120,-277,-58,-319
3970,120,-3176,80,-189,-83,-299
3975,80,-3112,-16,-79,-114,-271
3980,120,-3008,-160,29,-138,-233
3985,168,-2816,-408,106,-142,-198
3990,128,-2632,-568,133,-126,-167
3995,120,-2504,-632,139,-121,-135
4000,48,-2352,-744,140,-143,-106
4005,64,-2192,-704,143,-189,-85
4010,48,-2064,-704,144,-249,-71
4015,8,-1928,-728,140,-309,-66
4020,-8,-1816,-712,129,-362,-66
4025,-40,-1712,-680,114,-400,-76
4030,-72,-1632,-624,89,-419,-91
4035,-104,-1600,-536,53,-423,-110
4040,-128,-1600,-448,6,-414,-130
4045,-128,-1632,-360,-47,-403,-149
4050,-144,-1704,-216,-96,-390,-161
4055,-136,-1816,-136,-143,-373,-167
4060,-144,-1880,-80,-182,-350,-166
4065,-192,-1952,-32,-216,-318,-157
4070,-184,-2040,-8,-241,-277,-140
4075,-152,-2064,-40,-261,-223,-118
4080,-144,-2192,-56,-276,-155,-92
4085,-112,-2232,-80,-290,-77,-63
4090,-64,-2304,-56,-300,4,-34
4095,-8,-2344,-88,-304,78,-3
4100,24,-2336,-56,-306,142,31
4105,96,-2424,-56,-302,195,72
4110,152,-2424,-32,-291,235,118
4115,168,-2440,-16,-277,265,164
4120,216,-2432,-8,-256,286,211
4125,248,-2448,16,-228,298,254
4130,272,-2392,-24,-196,304,287
4135,264,-2328,-8,-165,307,318
4140,256,-2232,-64,-138,308,338
4145,280,-2144,-96,-121,306,350
4150,256,-2016,-120,-117,302,355
4155,248,-1960,-112,-128,295,356
4160,184,-1808,-144,-143,282,354
4165,160,-1696,-128,-170,266,355
4170,144,-1624,-160,-204,246,356
4175,136,-1488,-136,-242,215,351
4180,128,-1448,-160,-279,184,343
4185,88,-1416,-128,-301,164,324
4190,96,-1352,-160,-311,152,309
4195,56,-1320,-128,-311,151,289
4200,-32,-1240,-112,-308,156,275
4205,-80,-1176,-120,-310,155,270
4210,-104,-1240,-104,-327,151,266
4215,-80,-1264,-88,-347,150,257
4220,-128,-1288,-40,-356,157,237
4225,-144,-1336,0,-356,166,214
4230,-200,-1392,32,-329,177,186
4235,-248,-1432,32,-293,195,163
4240,-304,-1464,64,-268,217,144
4245,-336,-1480,40,-254,244,133
4250,-328,-1536,64,-252,272,124
4255,-328,-1600,120,-249,305,115
4260,-328,-1656,96,-247,340,104
4265,-344,-1688,128,-241,374,98
4270,-328,-1712,152,-235,405,93
4275,-336,-1768,160,-224,431,95
4280,-320,-1760,176,-215,451,99
4285,-288,-1792,192,-202,465,105
4290,-272,-1824,200,-191,474,111
4295,-224,-1816,200,-178,480,115
4300,-160,-1800,232,-169,484,118
4305,-136,-1784,216,-159,484,115
4310,-104,-1768,224,-148,481,105
4315,-64,-1736,264,-140,479,90
4320,-8,-1696,288,-125,482,70
4325,48,-1664,280,-110,483,41
4330,80,-1632,336,-96,489,2
4335,120,-1616,352,-79,497,-36
4340,152,-1632,376,-65,508,-77
4345,144,-1616,392,-48,522,-122
4350,192,-1640,392,-29,539,-162
4355,224,-1672,384,-19,561,-202
4360,224,-1728,376,-22,583,-244
4365,208,-1768,336,-29,600,-284
4370,184,-1816,336,-42,608,-323
4375,152,-1888,304,-59,605,-357
4380,96,-1920,328,-76,584,-381
4385,24,-1936,328,-90,543,-395
4390,-48,-1984,304,-97,488,-395
4395,-120,-1992,304,-96,428,-384
4400,-216,-2032,336,-85,370,-358
4405,-320,-2048,384,-64,320,-322
4410,-352,-2096,360,-35,280,-276
4415,-448,-2128,384,-3,254,-226
4420,-472,-2168,448,24,237,-173
4425,-520,-2216,456,47,224,-118
4430,-600,-2240,536,59,218,-62
4435,-616,-2304,536,65,211,-6
4440,-640,-2320,552,73,207,45
4445,-632,-2328,584,82,205,88
4450,-616,-2328,600,94,203,119
4455,-576,-2264,608,111,206,142
4460,-512,-2192,680,121,219,158
4465,-424,-2144,736,141,239,155
4470,-360,-2048,784,168,266,142
4475,-232,-2048,784,201,295,125
4480,-128,-1992,728,243,320,99
4485,-24,-1968,616,276,340,79
4490,24,-1936,448,272,350,64
4495,104,-1992,280,217,352,58
4500,112,-2112,88,124,354,56
4505,80,-2312,-112,9,359,52
4510,32,-2560,-184,-128,360,49
4515,-56,-2840,-320,-270,348,41
4520,-88,-3112,-304,-383,321,36
4525,-112,-3344,-368,-447,291,39
4530,-152,-3536,-344,-460,263,53
4535,-272,-3600,-304,-424,236,88
4540,-256,-3592,-344,-349,209,141
4545,-184,-3504,-328,-246,179,193
4550,-168,-3400,-392,-126,145,243
4555,-128,-3256,-448,4,109,288
4560,-88,-3080,-584,126,73,319
4565,-32,-2944,-712,237,46,334
4570,40,-2712,-848,335,41,340
4575,104,-2528,-904,407,65,339
4580,168,-2320,-960,450,107,333
4585,224,-2128,-928,461,156,321
4590,272,-1952,-872,450,202,309
4595,352,-1800,-824,431,242,300
4600,440,-1696,-688,398,280,289
4605,496,-1576,-600,364,321,273
4610,552,-1512,-432,329,356,252
4615,576,-1520,-376,293,378,233
4620,552,-1536,-200,262,389,213
4625,528,-1616,-112,231,387,193
4630,464,-1704,-48,193,370,172
4635,400,-1824,32,152,335,151
4640,336,-1936,64,102,286,128
4645,280,-2048,88,55,225,104
4650,192,-2136,64,13,159,78
4655,96,-2224,-24,-22,80,49
4660,8,-2296,-48,-56,-6,20
4665,-88,-2360,-104,-89,-96,-13
4670,-168,-2408,-120,-118,-170,-49
4675,-296,-2440,-240,-139,-253,-83
4680,-392,-2496,-240,-159,-325,-115
4685,-488,-2464,-240,-167,-381,-140
4690,-560,-2416,-208,-163,-416,-153
4695,-576,-2392,-216,-146,-437,-155
4700,-584,-2360,-208,-120,-449,-148
4705,-576,-2312,-200,-84,-450,-139
4710,-568,-2232,-184,-49,-445,-128
4715,-544,-2168,-216,-23,-435,-119
4720,-496,-2064,-224,-7,-426,-105
4725,-488,-2032,-200,-1,-421,-93
4730,-376,-1952,-256,-6,-419,-80
4735,-296,-1856,-264,-24,-419,-74
4740,-256,-1768,-232,-43,-423,-74
4745,-168,-1720,-200,-62,-430,-80
4750,-128,-1640,-208,-77,-437,-87
4755,-80,-1568,-168,-86,-446,-95
4760,16,-1504,-136,-91,-456,-103
4765,64,-1480,-120,-95,-468,-112
4770,128,-1464,-88,-96,-481,-123
4775,168,-1424,-48,-94,-496,-133
4780,192,-1424,-104,-89,-513,-144
4785,256,-1408,-96,-86,-533,-155
4790,280,-1392,-104,-83,-555,-165
4795,280,-1416,-80,-82,-577,-173
4800,288,-1456,-64,-83,-600,-180
4805,328,-1472,-80,-79,-627,-185
4810,320,-1496,-40,-82,-657,-187
4815,320,-1520,-40,-89,-682,-183
4820,328,-1608,-24,-104,-704,-174
4825,328,-1616,0,-121,-726,-168
4830,328,-1648,8,-136,-746,-160
4835,288,-1712,40,-150,-768,-151
4840,312,-1704,40,-165,-788,-142
4845,264,-1688,40,-173,-808,-133
4850,240,-1696,48,-183,-825,-121
4855,216,-1664,32,-191,-839,-106
4860,176,-1656,40,-199,-850,-87
4865,120,-1640,64,-204,-857,-62
4870,104,-1608,64,-203,-863,-32
4875,64,-1568,104,-198,-866,3
4880,40,-1536,128,-187,-867,42
4885,0,-1480,184,-174,-862,85
4890,-8,-1488,200,-156,-853,133
4895,-56,-1440,184,-137,-838,181
4900,-48,-1424,240,-120,-825,232
4905,-48,-1424,272,-100,-809,282
4910,-48,-1408,248,-85,-789,328
4915,-40,-1424,224,-77,-763,369
4920,-32,-1456,160,-79,-728,399
4925,0,-1488,136,-92,-692,420
4930,16,-1560,128,-120,-656,430
4935,48,-1584,88,-151,-625,431
4940,88,-1672,64,-177,-601,426
4945,64,-1688,88,-193,-582,417
4950,136,-1744,64,-200,-566,406
4955,216,-1808,24,-200,-551,394
4960,272,-1880,56,-195,-529,379
4965,280,-1920,64,-185,-505,360
4970,320,-1968,64,-167,-475,337
4975,344,-2016,128,-142,-441,313
4980,328,-2080,168,-114,-407,285
4985,360,-2144,232,-84,-376,251
4990,360,-2192,328,-51,-352,215
4995,344,-2256,384,-16,-336,173
5000,264,-2248,424,23,-331,125
5005,216,-2256,472,59,-336,72
5010,160,-2256,560,92,-353,24
5015,176,-2320,688,132,-367,-18
5020,-136,-2168,616,199,-369,-62
5025,-176,-2056,584,194,-426,-65
5030,-136,-2104,632,117,-502,-45
5035,-176,-2072,728,36,-547,-27
5040,-184,-2064,744,-11,-562,-12
5045,-248,-2024,792,-37,-560,7
5050,-256,-2008,912,-53,-552,27
5055,-248,-1976,904,-66,-546,45
5060,-224,-1960,912,-75,-542,60
5065,-208,-1960,904,-84,-535,71
5070,-136,-1984,912,-101,-528,77
5075,-120,-2000,872,-131,-518,82
5080,-8,-2088,840,-165,-505,72
5085,88,-2208,760,-205,-482,47
5090,176,-2296,688,-255,-449,10
5095,264,-2384,624,-314,-408,-37
5100,320,-2464,584,-381,-366,-91
5105,424,-2584,480,-451,-335,-139
5110,408,-2664,480,-511,-312,-189
5115,464,-2776,464,-557,-306,-234
5120,416,-2864,432,-581,-316,-269
5125,368,-2904,344,-581,-336,-294
5130,368,-2920,256,-569,-354,-307
5135,384,-2920,112,-557,-353,-310
5140,464,-2928,48,-547,-325,-315
5145,536,-2896,-96,-533,-273,-318
5150,568,-2880,-112,-504,-193,-319
5155,592,-2880,-224,-460,-109,-320
5160,592,-2768,-208,-404,-39,-323
5165,584,-2784,-304,-348,23,-338
5170,544,-2784,-368,-302,55,-341
5175,496,-2720,-432,-252,61,-331
5180,432,-2672,-520,-208,45,-305
5185,376,-2584,-624,-178,12,-269
5190,280,-2488,-712,-161,-33,-224
5195,256,-2408,-808,-154,-81,-178
5200,160,-2288,-944,-152,-124,-135
5205,64,-2208,-992,-153,-159,-100
5210,0,-2080,-1056,-154,-182,-67
5215,-104,-1984,-1080,-158,-197,-40
5220,-144,-1928,-1064,-163,-208,-16
5225,-232,-1840,-1024,-163,-214,3
5230,-296,-1832,-1000,-159,-220,16
5235,-368,-1776,-960,-155,-226,30
5240,-408,-1776,-952,-152,-230,44
5245,-384,-1792,-920,-158,-232,59
5250,-360,-1816,-904,-171,-228,76
5255,-312,-1840,-832,-198,-218,84
5260,-256,-1872,-776,-236,-199,87
5265,-192,-1824,-656,-281,-169,85
5270,-184,-1960,-680,-331,-130,79
5275,-152,-2000,-568,-379,-85,66
5280,-128,-2056,-576,-420,-36,47
5285,-104,-2128,-528,-450,8,26
5290,-112,-2168,-496,-467,51,9
5295,-56,-2216,-472,-474,91,-6
5300,8,-2240,-448,-473,132,-18
5305,56,-2296,-448,-466,170,-24
5310,112,-2296,-440,-458,202,-24
5315,128,-2296,-456,-450,231,-21
5320,176,-2304,-440,-436,252,-11
5325,200,-2280,-440,-419,267,1
5330,208,-2296,-424,-400,274,18
5335,184,-2256,-400,-377,273,43
5340,168,-2208,-376,-351,266,73
5345,152,-2200,-336,-321,255,104
5350,96,-2144,-360,-291,240,139
5355,88,-2096,-312,-261,223,174
5360,32,-2040,-320,-233,204,212
5365,32,-1968,-304,-209,184,251
5370,-24,-1928,-280,-192,165,287
5375,-64,-1888,-264,-179,147,321
5380,-80,-1800,-296,-174,133,352
5385,-72,-1752,-296,-171,122,376
5390,-96,-1696,-296,-173,117,393
5395,-128,-1656,-312,-178,123,406
5400,-128,-1640,-304,-185,134,417
5405,-152,-1616,-320,-192,152,424
5410,-224,-1576,-328,-198,171,430
5415,-128,-1608,-296,-200,188,435
5420,-136,-1568,-288,-202,218,415
5425,-144,-1592,-288,-200,256,387
5430,-144,-1624,-264,-200,298,361
5435,-152,-1600,-208,-195,339,332
5440,-128,-1608,-216,-187,380,305
5445,-128,-1648,-200,-181,425,277
5450,-120,-1688,-152,-174,472,255
5455,-88,-1696,-152,-166,515,236
5460,-72,-1744,-136,-159,557,216
5465,-48,-1768,-128,-150,591,197
5470,-32,-1792,-128,-137,619,183
5475,-32,-1840,-120,-123,638,178
5480,0,-1856,-96,-110,653,174
5485,-8,-1888,-136,-97,667,171
5490,48,-1904,-120,-79,680,176
5495,40,-1896,-128,-66,696,173
5500,48,-1920,-96,-57,719,171
5505,88,-1944,-64,-44,742,171
5510,144,-1928,-48,-27,770,167
5515,128,-1904,-16,-4,799,156
5520,144,-1896,24,30,823,143
5525,152,-1864,40,60,839,133
5530,152,-1832,24,79,846,128
5535,120,-1776,64,88,844,120
5540,144,-1768,72,94,835,110
5545,136,-1712,72,99,830,92
5550,112,-1680,96,100,835,69
5555,40,-1616,96,98,850,48
5560,72,-1656,128,91,869,26
5565,48,-1648,144,83,892,1
5570,8,-1648,200,75,909,-24
5575,0,-1672,240,74,918,-48
5580,-40,-1704,304,77,917,-73
5585,-64,-1720,312,89,905,-96
5590,-96,-1760,312,102,887,-116
5595,-104,-1792,328,118,861,-134
5600,-120,-1816,352,141,835,-149
5605,-128,-1832,328,169,809,-159
5610,-136,-1848,296,205,788,-168
5615,-192,-1856,288,241,775,-176
5620,-208,-1896,272,276,764,-185
5625,-232,-1944,240,304,755,-189
5630,-240,-1968,216,323,747,-193
5635,-224,-1984,200,329,737,-196
5640,-248,-2008,192,326,717,-201
5645,-264,-2056,208,313,698,-203
5650,-280,-2104,216,297,675,-205
5655,-288,-2136,272,288,655,-207
5660,-232,-2192,336,286,639,-211
5665,-232,-2192,360,296,626,-220
5670,-192,-2248,432,310,619,-231
5675,-168,-2216,504,331,612,-248
5680,-144,-2224,528,356,608,-265
5685,-144,-2176,544,389,606,-280
5690,-112,-2160,528,427,600,-295
5695,-104,-2136,488,466,592,-302
5700,-80,-2104,464,502,577,-304
5705,-64,-2096,384,524,552,-299
5710,-88,-2048,288,525,518,-293
5715,-104,-2048,280,508,479,-282
5720,-128,-2048,152,473,435,-265
5725,-144,-2064,40,429,394,-245
5730,-160,-2040,-40,379,358,-225
5735,-208,-2064,-136,317,326,-206
5740,-240,-2168,-280,245,295,-189
5745,-280,-2248,-344,167,267,-173
5750,-336,-2384,-432,90,241,-159
5755,-392,-2480,-488,19,219,-146
5760,-408,-2608,-536,-44,197,-131
5765,-488,-2704,-608,-98,174,-116
5770,-536,-2736,-664,-135,153,-96
5775,-544,-2776,-720,-153,139,-74
5780,-512,-2768,-736,-156,131,-51
5785,-424,-2776,-768,-148,126,-31
5790,-312,-2712,-792,-128,126,-15
5795,-192,-2664,-752,-97,128,-3
5800,-96,-2576,-736,-52,137,5
5805,-32,-2544,-768,1,158,13
5810,80,-2384,-656,60,181,16
5815,168,-2256,-664,120,203,20
5820,272,-2120,-616,174,221,25
5825,368,-2016,-544,217,234,32
5830,440,-1928,-488,254,245,38
5835,488,-1840,-448,279,249,45
5840,512,-1784,-440,290,244,49
5845,568,-1768,-400,288,231,51
5850,560,-1792,-376,272,211,51
5855,488,-1752,-352,247,186,50
5860,456,-1816,-288,212,157,45
5865,400,-1880,-232,166,123,38
5870,368,-1968,-176,114,87,29
5875,312,-1992,-136,53,50,9
5880,272,-2064,-112,-12,11,-17
5885,208,-2104,-104,-73,-27,-51
5890,168,-2160,-72,-128,-62,-91
5895,120,-2216,-72,-175,-94,-135
5900,104,-2256,-72,-216,-121,-178
5905,40,-2272,-80,-236,-140,-222
5910,0,-2312,-56,-242,-151,-259
5915,0,-2328,-48,-233,-152,-290
5920,-40,-2312,-56,-206,-147,-312
5925,-80,-2264,-8,-165,-138,-328
5930,-120,-2248,-24,-114,-119,-340
5935,-120,-2160,-40,-56,-92,-346
5940,-104,-2144,-88,-7,-55,-351
5945,-120,-2048,-56,35,-15,-349
5950,-88,-1992,-88,67,26,-349
5955,-32,-1936,-120,91,59,-350
5960,0,-1856,-144,107,78,-349
5965,56,-1800,-120,110,81,-339
5970,104,-1720,-88,110,74,-329
5975,144,-1664,-80,107,60,-317
5980,184,-1624,-72,102,37,-303
5985,208,-1584,-56,85,9,-292
5990,208,-1544,-16,62,-24,-277
5995,224,-1536,-64,33,-59,-263
6000,216,-1512,-24,-4,-98,-252
6005,208,-1520,-16,-39,-134,-241
6010,224,-1560,-24,-65,-171,-225
6015,168,-1552,-8,-91,-207,-214
6020,168,-1600,-8,-120,-244,-203
6025,136,-1632,-56,-142,-280,-192
6030,144,-1656,-72,-168,-312,-183
6035,136,-1680,-80,-198,-337,-183
6040,136,-1728,-48,-223,-352,-183
6045,120,-1776,0,-240,-360,-189
6050,144,-1800,-8,-249,-365,-196
6055,152,-1816,32,-253,-366,-207
6060,160,-1856,8,-249,-368,-218
6065,152,-1872,32,-237,-372,-231
6070,184,-1888,88,-225,-379,-245
6075,168,-1904,112,-207,-385,-257
6080,168,-1936,152,-187,-392,-267
6085,152,-1928,128,-168,-396,-271
6090,152,-1920,160,-152,-399,-271
6095,144,-1920,168,-141,-400,-265
6100,104,-1872,168,-133,-398,-255
6105,104,-1848,160,-129,-393,-236
6110,104,-1832,168,-125,-387,-208
6115,120,-1768,160,-127,-383,-179
6120,112,-1736,200,-137,-382,-148
6125,136,-1688,144,-148,-385,-117
6130,160,-1728,200,-162,-387,-85
6135,176,-1648,184,-174,-391,-54
6140,208,-1632,176,-183,-398,-22
6145,200,-1608,152,-190,-410,4
6150,224,-1616,208,-197,-424,27
6155,232,-1656,232,-201,-439,47
6160,240,-1696,256,-200,-454,60
6165,240,-1728,296,-199,-469,71
6170,240,-1800,368,-196,-484,80
6175,280,-1856,392,-190,-496,88
6180,264,-1920,408,-183,-506,97
6185,272,-1968,440,-171,-516,107
6190,272,-2024,472,-154,-523,116
6195,272,-2032,496,-131,-535,124
6200,240,-2064,504,-106,-545,130
6205,208,-2072,528,-71,-552,137
6210,200,-2040,496,-30,-553,143
6215,184,-1960,496,9,-544,147
6220,168,-1888,472,45,-524,152
6225,168,-1808,440,74,-497,156
6230,184,-1728,416,99,-471,159
6235,200,-1680,376,113,-451,156
6240,248,-1592,368,113,-435,152
6245,208,-1544,392,97,-427,145
6250,240,-1536,424,65,-430,137
6255,200,-1528,408,28,-437,128
6260,216,-1520,400,-15,-447,121
6265,192,-1568,408,-67,-457,117
6270,216,-1608,400,-122,-466,116
6275,248,-1632,368,-183,-465,118
6280,232,-1704,312,-254,-454,117
6285,232,-1776,288,-326,-434,121
6290,232,-1888,296,-393,-409,123
6295,248,-1952,232,-443,-381,121
6300,232,-1976,192,-487,-351,118
6305,256,-2016,136,-527,-316,117
6310,248,-2104,64,-563,-278,112
6315,208,-2168,40,-583,-245,104
6320,216,-2232,-48,-574,-225,90
6325,240,-2256,-168,-557,-217,65
6330,248,-2272,-304,-559,-212,33
6335,248,-2368,-320,-583,-210,1
6340,256,-2472,-368,-618,-211,-45
6345,280,-2512,-392,-666,-225,-103
6350,296,-2648,-408,-742,-245,-168
6355,224,-2744,-232,-820,-264,-228
6360,176,-2864,-112,-847,-283,-267
6365,160,-2864,-72,-799,-306,-293
6370,152,-2720,-136,-716,-340,-324
6375,112,-2584,-192,-659,-361,-352
6380,64,-2464,-264,-608,-360,-359
6385,32,-2328,-280,-536,-338,-343
6390,-32,-2152,-304,-453,-308,-320
6395,-88,-2000,-344,-364,-284,-284
6400,-88,-1856,-392,-274,-271,-237
6405,-120,-1688,-400,-203,-262,-186
6410,-120,-1560,-440,-156,-266,-140
6415,-128,-1472,-472,-135,-275,-99
6420,-120,-1400,-472,-138,-285,-62
6425,-104,-1368,-504,-159,-291,-24
6430,-104,-1344,-536,-194,-287,12
6435,-72,-1368,-504,-238,-275,48
6440,-40,-1360,-504,-278,-262,80
6445,16,-1408,-456,-318,-248,111
6450,80,-1448,-432,-361,-237,141
6455,200,-1456,-408,-400,-230,168
6460,208,-1512,-312,-433,-227,187
6465,248,-1584,-296,-457,-227,198
6470,280,-1624,-240,-468,-225,204
6475,288,-1640,-296,-475,-217,203
6480,272,-1688,-288,-489,-203,200
6485,232,-1720,-328,-504,-189,196
6490,200,-1680,-352,-510,-179,190
6495,152,-1728,-360,-529,-175,181
6500,80,-1760,-376,-545,-185,166
6505,40,-1760,-408,-562,-200,157
6510,-16,-1792,-440,-599,-229,137
6515,-72,-1896,-384,-624,-264,132
6520,-96,-1872,-432,-588,-305,126
6525,-160,-1904,-432,-552,-355,122
6530,-200,-1856,-472,-523,-408,121
6535,-192,-1856,-456,-507,-458,123
6540,-232,-1808,-504,-501,-503,126
6545,-256,-1760,-488,-498,-547,130
6550,-272,-1744,-472,-488,-590,136
6555,-280,-1712,-456,-480,-627,142
6560,-256,-1720,-472,-473,-661,143
6565,-304,-1664,-448,-454,-694,144
6570,-280,-1632,-440,-434,-716,151
6575,-296,-1640,-424,-411,-724,157
6580,-280,-1656,-360,-378,-717,163
6585,-256,-1672,-328,-333,-703,157
6590,-232,-1656,-368,-272,-686,156
6595,-192,-1656,-360,-213,-668,155
6600,-152,-1600,-400,-173,-653,159
6605,-136,-1568,-376,-153,-637,160
6610,-112,-1520,-440,-147,-625,164
6615,-40,-1512,-480,-149,-617,169
6620,-40,-1464,-456,-151,-614,177
6625,8,-1416,-512,-152,-614,192
6630,24,-1400,-496,-152,-620,208
6635,72,-1368,-480,-153,-638,229
6640,48,-1312,-456,-154,-667,257
6645,56,-1304,-440,-157,-701,293
6650,32,-1304,-392,-154,-743,328
6655,16,-1376,-336,-156,-786,368
6660,24,-1400,-336,-161,-821,409
6665,-16,-1480,-232,-168,-844,447
6670,-56,-1488,-240,-160,-857,474
6675,-48,-1608,-208,-161,-851,508
6680,-72,-1640,-152,-156,-831,528
6685,-88,-1696,-160,-143,-811,531
6690,-88,-1752,-176,-124,-787,526
6695,-128,-1704,-248,-117,-765,515
6700,-72,-1776,-256,-143,-748,517
6705,-72,-1768,-264,-169,-748,502
6710,-48,-1728,-360,-178,-767,485
6715,40,-1736,-344,-202,-791,486
6720,8,-1744,-336,-228,-824,480
6725,-8,-1648,-312,-247,-859,476
6730,8,-1704,-272,-260,-883,486
6735,-88,-1624,-240,-259,-902,482
6740,-120,-1528,-296,-234,-905,494
6745,-160,-1496,-336,-220,-888,516
6750,-240,-1400,-416,-229,-852,535
6755,-328,-1368,-432,-239,-799,547
6760,-408,-1272,-496,-236,-732,558
6765,-440,-1240,-584,-252,-662,569
6770,-416,-1168,-640,-272,-603,575
6775,-320,-1152,-712,-300,-568,579
6780,-208,-1040,-688,-345,-555,584
6785,-80,-976,-720,-404,-558,592
6790,48,-960,-728,-470,-575,598
6795,152,-920,-672,-537,-593,594
6800,272,-856,-616,-599,-608,582
6805,336,-832,-592,-647,-610,561
6810,400,-800,-568,-688,-590,531
6815,472,-784,-520,-722,-538,492
6820,504,-768,-528,-757,-452,447
6825,552,-792,-520,-804,-337,401
6830,584,-816,-480,-853,-201,359
6835,624,-816,-440,-902,-64,322
6840,664,-840,-408,-946,35,291
6845,648,-848,-304,-976,128,268
6850,672,-904,-248,-992,175,259
6855,656,-904,-264,-983,179,266
6860,664,-928,-296,-972,151,284
6865,656,-952,-480,-973,113,312
6870,640,-968,-704,-1005,76,335
6875,576,-1000,-1056,-1070,58,352
6880,408,-1016,-1464,-1168,69,368
6885,336,-1168,-1976,-1297,98,385
6890,192,-1272,-2528,-1449,159,403
6895,8,-1536,-2984,-1606,264,418
6900,-112,-1840,-3352,-1758,419,420
6905,-176,-2240,-3464,-1898,621,385
6910,-128,-2760,-3408,-2019,829,288
6915,160,-3256,-3320,-2134,1015,121
6920,616,-4112,-3008,-2327,1166,-130
6925,752,-4672,-2688,-2551,1285,-458
6930,952,-5512,-2248,-2853,1366,-771
6935,856,-6400,-1640,-3216,1441,-1067
6940,400,-7240,-1056,-3510,1517,-1291
6945,64,-7936,-688,-3632,1636,-1354
6950,-616,-7848,-568,-3468,1858,-1270
6955,-1176,-7096,-520,-3067,2126,-1033
6960,-1024,-6096,-880,-2583,2247,-650
6965,-944,-4960,-1208,-2243,2180,-293
6970,-928,-3976,-1464,-2114,2017,53
6975,-856,-3200,-1400,-2158,1808,369
6980,-904,-2624,-1208,-2294,1615,624
6985,-1056,-2168,-1064,-2455,1428,837
6990,-1176,-1808,-976,-2624,1227,1011
6995,-1472,-1496,-904,-2794,1026,1160
7000,-1448,-1248,-1048,-2978,823,1290
7005,-1432,-848,-1184,-3222,628,1379
7010,-1592,-432,-1160,-3561,442,1447
7015,-1648,-48,-1072,-3987,253,1524
7020,-1064,-216,-680,-4441,95,1517
7025,-1280,208,-416,-4775,48,1375
7030,-856,56,-176,-5043,88,1268
7035,-992,272,88,-5153,217,1063
7040,-848,-24,184,-5082,388,878
7045,-1080,80,208,-4808,578,699
7050,-1016,-144,344,-4412,701,597
7055,-992,-88,240,-3840,769,539
7060,-960,368,-96,-3247,753,534
7065,-728,400,-280,-2844,689,561
7070,-648,336,-232,-2640,596,546
7075,-632,200,-176,-2545,480,516
7080,-504,16,-168,-2507,346,503
7085,-392,-216,-240,-2508,182,505
7090,-328,-360,-400,-2552,-3,520
7095,-328,-464,-576,-2623,-195,539
7100,-288,-608,-640,-2683,-375,572
7105,-208,-808,-736,-2705,-557,616
7110,-56,-960,-896,-2649,-755,650
7115,-32,-984,-1160,-2507,-963,650
7120,-24,-968,-1440,-2317,-1144,622
7125,-112,-960,-1664,-2135,-1291,576
7130,-176,-1008,-1840,-1978,-1425,512
7135,-424,-976,-2008,-1823,-1562,436
7140,-680,-936,-2144,-1691,-1719,389
7145,-984,-928,-2232,-1591,-1898,374
7150,-1296,-904,-2256,-1493,-2096,406
7155,-1640,-800,-2384,-1397,-2306,479
7160,-1968,-648,-2488,-1309,-2529,576
7165,-2232,-560,-2456,-1239,-2778,678
7170,-2488,-456,-2424,-1175,-3036,788
7175,-2648,-296,-2512,-1103,-3269,893
7180,-2632,-168,-2544,-1024,-3454,1000
7185,-2496,-128,-2600,-935,-3601,1099
7190,-2360,-88,-2600,-847,-3699,1195
7195,-2192,-144,-2632,-764,-3731,1293
7200,-1944,-192,-2608,-691,-3683,1402
7205,-1544,-408,-2528,-614,-3537,1496
7210,-1352,-208,-2448,-560,-3307,1566
7215,-792,-192,-2368,-566,-3036,1631
7220,-368,-144,-2424,-627,-2762,1681
7225,-64,-8,-2480,-753,-2494,1721
7230,416,-96,-2488,-937,-2191,1790
7235,1128,-360,-2312,-1096,-1874,1815
7240,1600,-384,-2248,-1121,-1526,1719
7245,2088,-8,-2256,-1019,-1129,1653
7250,2720,160,-2280,-958,-741,1640
7255,3592,-288,-2040,-926,-415,1581
7260,4032,-32,-2232,-752,-84,1419
7265,4136,504,-2392,-548,288,1324
7270,4328,128,-2944,-495,644,1277
7275,2520,880,-4384,-481,1183,1155
7280,-480,1928,-8816,-768,2010,1307
7285,-5712,1928,-10544,-2807,3619,2001
7290,-1696,1808,-3984,-7081,5785,3303
7295,-1424,1264,-2848,-8329,6279,3417
7300,-40,2400,-896,-7022,6694,3129
7305,480,1952,-712,-4340,6596,2809
7310,-584,1984,-2464,-2790,5608,2553
7315,-1808,152,-3568,-2054,4517,2292
7320,-2440,3768,-7048,-1533,4199,1911
7325,-664,4176,-4488,-1915,2330,1526
7330,-3656,2688,-3760,-1423,-1,1115
7335,-1904,3472,-3368,-986,-805,962
7340,-1192,1584,-4192,-762,-854,783
7345,-1248,2240,-4768,-825,-736,606
7350,-1560,1872,-4592,-1206,-778,518
7355,-848,720,-4072,-1250,-699,446
7360,-1200,-176,-4920,-996,-600,459
7365,-856,-1448,-4464,-817,-379,540
7370,-1128,-528,-4776,-498,-216,636
7375,-1376,-184,-4296,-346,-42,730
7380,-1496,448,-3872,-250,153,789
7385,-1304,656,-3632,-141,343,844
7390,-1872,936,-3464,-21,500,896
7395,-1384,1192,-3568,61,597,893
7400,-1096,1216,-3600,165,631,842
7405,-1280,1224,-3408,287,647,784
7410,-1504,1232,-3136,365,663,711
7415,-672,752,-3072,398,685,611
7420,-176,632,-3008,484,752,509
7425,-224,-32,-2384,508,791,411
7430,-400,328,-2408,500,808,343
7435,392,-40,-2392,496,848,302
7440,-288,144,-2296,507,947,255
7445,-184,624,-2408,467,1019,187
7450,-712,1000,-2512,438,1064,155
7455,-600,552,-2168,396,1103,137
7460,-512,456,-2000,337,1112,98
7465,-120,496,-1952,276,1116,53
7470,-176,728,-1960,243,1131,1
7475,8,768,-1920,193,1134,-40
7480,216,440,-1808,168,1128,-123
7485,-24,712,-1864,161,1095,-208
7490,-136,696,-1848,131,1013,-268
7495,-216,768,-1936,137,948,-333
7500,-640,568,-1784,123,887,-374
7505,-728,456,-1632,123,840,-418
7510,-448,584,-1680,131,786,-412
7515,-512,792,-1816,121,753,-445
7520,-832,832,-1800,94,735,-473
7525,-792,984,-1936,69,705,-449
7530,-512,472,-1648,2,675,-447
7535,-784,880,-1808,3,666,-437
7540,-456,496,-1720,-58,631,-427
7545,-992,864,-1808,-70,601,-401
7550,-712,688,-1680,-145,558,-346
7555,-624,752,-1672,-159,539,-289
7560,-648,648,-1864,-151,507,-220
7565,-600,784,-1920,-157,491,-173
7570,-256,472,-1848,-166,480,-138
7575,-456,408,-1920,-136,486,-133
7580,-312,312,-1960,-119,490,-99
7585,-320,264,-2048,-97,492,-61
7590,-88,304,-2104,-69,512,-63
7595,-192,168,-2152,-66,503,-102
7600,-256,104,-2288,-38,471,-103
7605,-56,-24,-2288,-7,464,-97
7610,-192,256,-2440,29,477,-138
7615,-320,136,-2384,25,480,-173
7620,-240,440,-2592,62,477,-151
7625,-312,504,-2600,56,494,-199
7630,-360,488,-2560,40,504,-248
7635,-336,432,-2560,59,508,-265
7640,-352,608,-2608,75,516,-256
7645,-384,608,-2552,33,523,-265
7650,-216,464,-2552,25,529,-275
7655,-576,816,-2648,36,531,-274
7660,-416,752,-2600,4,508,-243
7665,-248,640,-2544,-10,494,-238
7670,-328,600,-2568,-14,471,-229
7675,-240,592,-2536,-30,432,-202
7680,-248,568,-2528,-46,390,-162
7685,-120,520,-2440,-61,350,-113
7690,-104,408,-2432,-72,322,-78
7695,-128,352,-2416,-84,307,-59
7700,-128,304,-2344,-95,295,-49
7705,-120,296,-2288,-102,282,-49
7710,-120,216,-2272,-94,268,-50
7715,-120,256,-2240,-90,259,-52
7720,-48,288,-2240,-84,247,-57
7725,-80,264,-2224,-78,234,-62
7730,-80,312,-2208,-68,230,-73
7735,-96,376,-2176,-59,221,-80
7740,-56,272,-2224,-51,218,-88
7745,-96,408,-2192,-37,215,-102
7750,-112,272,-2112,-37,207,-98
7755,-64,200,-2088,-27,201,-100
7760,-120,328,-2120,-16,192,-107
7765,-120,272,-2112,-6,184,-100
7770,-40,224,-2120,6,181,-99
7775,-72,200,-2136,19,185,-107
7780,-112,272,-2160,33,193,-112
7785,-56,232,-2104,40,198,-107
7790,-72,232,-2144,48,202,-111
7795,-104,264,-2136,50,210,-116
7800,-88,264,-2096,50,210,-110
7805,-56,240,-2128,50,213,-103
7810,-40,232,-2072,46,211,-97
7815,-72,256,-2112,40,210,-97
7820,-72,216,-2072,36,206,-92
7825,-40,216,-2120,39,203,-89
7830,-56,240,-2176,42,197,-95
7835,-64,232,-2152,43,195,-95
7840,8,120,-2208,63,186,-106
7845,-88,328,-2328,61,193,-119
7850,-48,264,-2304,57,193,-103
7855,8,240,-2328,53,191,-97
7860,-56,240,-2312,48,189,-95
7865,-56,240,-2312,41,189,-96
7870,-24,248,-2336,30,186,-97
7875,-48,264,-2336,35,177,-96
7880,-40,224,-2352,33,178,-100
7885,-80,256,-2376,18,184,-99
7890,-16,312,-2432,16,175,-90
7895,-48,280,-2424,11,160,-82
7900,40,192,-2456,5,148,-77
7905,40,248,-2464,9,122,-73
7910,56,184,-2440,6,118,-73
7915,80,152,-2472,-7,115,-67
7920,56,184,-2448,-22,111,-58
7925,24,40,-2400,-25,109,-49
7930,-8,256,-2384,-6,96,-44
7935,24,176,-2416,-1,104,-46
7940,32,168,-2376,-11,97,-40
7945,16,224,-2344,-34,89,-36
7950,48,144,-2408,-34,84,-33
7955,24,184,-2288,-37,80,-29
7960,120,320,-2368,-29,66,-22
7965,8,280,-2336,-18,55,-27
7970,56,208,-2320,-19,55,-20
7975,40,160,-2352,-27,49,-20
7980,8,192,-2296,-27,47,-23
7985,-24,256,-2312,-18,40,-31
7990,-32,184,-2344,-3,30,-37
7995,32,224,-2288,11,14,-38
8000,-120,208,-2336,38,-3,-46
8005,-24,160,-2352,31,0,-40
8010,-32,152,-2296,12,5,-31
8015,-24,160,-2272,-5,11,-21
8020,-16,240,-2264,-13,16,-14
8025,104,288,-2288,-10,10,-14
8030,-112,176,-2280,2,-4,-22
8035,-32,232,-2256,-22,5,-21
8040,-56,192,-2232,-57,9,-18
8045,-40,192,-2200,-82,12,-14
8050,-8,168,-2192,-95,14,-12
8055,16,176,-2216,-104,7,-10
8060,16,192,-2200,-110,-6,-7
8065,-16,200,-2192,-114,-18,-6
8070,-8,192,-2208,-121,-28,-3
8075,0,176,-2200,-128,-35,-1
8080,8,168,-2216,-132,-42,-2
8085,0,168,-2208,-137,-49,-1
8090,8,192,-2216,-137,-55,-1
8095,8,184,-2224,-137,-59,0
8100,-24,208,-2264,-136,-63,0
8105,-40,216,-2240,-142,-66,1
8110,-24,232,-2224,-146,-73,1
8115,-24,224,-2240,-149,-77,1
8120,-8,216,-2240,-149,-83,1
8125,-8,232,-2248,-146,-89,2
8130,-8,232,-2248,-145,-96,3
8135,-24,200,-2256,-143,-102,2
8140,-16,240,-2264,-145,-108,2
8145,-8,232,-2272,-146,-114,1
8150,-8,232,-2288,-146,-118,2
8155,0,232,-2280,-142,-123,2
8160,0,216,-2304,-135,-126,3
8165,-16,248,-2336,-126,-128,4
8170,-8,216,-2352,-116,-129,5
8175,-40,272,-2352,-106,-129,5
8180,-40,256,-2352,-98,-126,4
8185,-40,264,-2352,-96,-123,3
8190,-40,240,-2352,-92,-122,2
8195,-56,248,-2384,-92,-122,0
8200,-32,224,-2368,-92,-122,1
8205,-24,256,-2320,-92,-120,0
8210,-24,232,-2352,-92,-120,-5
8215,-24,232,-2336,-86,-116,-13
8220,-64,248,-2320,-86,-117,-21
8225,-64,256,-2328,-96,-123,-17
8230,-80,264,-2288,-103,-130,-15
8235,-32,248,-2296,-103,-134,-15
8240,-104,264,-2312,-99,-132,-16
8245,-88,296,-2288,-103,-131,-19
8250,-80,280,-2248,-105,-128,-19
8255,-56,272,-2280,-105,-126,-18
8260,-80,280,-2256,-105,-121,-18
8265,-96,288,-2272,-98,-119,-17
8270,-72,272,-2288,-90,-119,-17
8275,-56,256,-2256,-83,-118,-17
8280,-88,288,-2280,-76,-116,-16
8285,-128,296,-2248,-70,-114,-15
8290,-120,280,-2304,-65,-112,-16
8295,-120,272,-2280,-58,-109,-17
8300,-120,288,-2288,-50,-107,-16
8305,-128,312,-2272,-41,-101,-15
8310,-120,304,-2240,-39,-95,-14
8315,-144,296,-2248,-37,-87,-13
8320,-128,280,-2240,-33,-78,-11
8325,-128,296,-2232,-30,-69,-10
8330,-136,280,-2232,-29,-61,-8
8335,-128,256,-2256,-28,-50,-9
8340,-96,256,-2280,-22,-43,-8
8345,-80,256,-2280,-19,-36,-7
8350,-120,288,-2296,-20,-27,-5
8355,-144,280,-2240,-22,-19,-6
8360,-128,272,-2232,-29,-11,-7
8365,-128,264,-2280,-34,-6,-8
8370,-128,256,-2232,-36,-5,-9
8375,-128,248,-2256,-35,-2,-9
8380,-104,224,-2272,-32,5,-9
8385,-112,264,-2264,-28,12,-8
8390,-72,248,-2288,-26,19,-6
8395,-104,256,-2280,-23,22,-6
8400,-112,272,-2304,-22,25,-5
8405,-128,304,-2272,-20,27,-5
8410,-128,256,-2272,-20,27,-5
8415,-120,264,-2272,-20,31,-6
8420,-128,240,-2312,-20,36,-5
8425,-96,216,-2280,-15,39,-5
8430,-112,232,-2312,-16,44,-6
8435,-88,256,-2304,-17,49,-8
8440,-104,248,-2304,-18,53,-7
8445,-104,256,-2296,-21,57,-6
8450,-96,248,-2288,-25,62,-7
8455,-104,240,-2264,-24,65,-6
8460,-96,240,-2304,-23,67,-5
8465,-112,240,-2328,-23,68,-5
8470,-112,240,-2312,-23,70,-5
8475,-96,240,-2304,-23,72,-4
8480,-96,232,-2328,-23,74,-5
8485,-72,232,-2280,-22,76,-4
8490,-80,248,-2312,-22,79,-5
8495,-96,232,-2288,-23,80,-4
8500,-80,224,-2272,-26,83,-4
8505,-96,248,-2264,-30,83,-4
8510,-96,208,-2272,-34,85,-5
8515,-80,240,-2272,-37,88,-3
8520,-88,232,-2272,-42,88,-3
8525,-80,224,-2304,-45,88,-1
8530,-56,208,-2264,-48,87,-3
8535,-88,224,-2264,-50,86,-1
8540,-96,264,-2264,-51,85,-1
8545,-80,240,-2272,-48,84,-1
8550,-64,216,-2312,-48,81,-1
8555,-72,256,-2296,-48,78,0
8560,-80,240,-2264,-46,77,0
8565,-88,248,-2280,-46,73,0
8570,-80,248,-2280,-47,70,-2
8575,-64,232,-2304,-48,67,-1
8580,-72,224,-2296,-50,65,-1
8585,-88,240,-2288,-50,64,-1
8590,-56,256,-2224,-54,62,-1
8595,-80,240,-2248,-59,59,-2
8600,-64,232,-2280,-60,58,-1
8605,-88,264,-2248,-60,58,-2
8610,-88,248,-2248,-60,55,-2
8615,-64,248,-2280,-60,52,-3
8620,-64,248,-2240,-58,49,-3
8625,-80,288,-2264,-58,47,-2
8630,-48,232,-2248,-55,45,-3
8635,-64,256,-2272,-51,44,-3
8640,-72,288,-2288,-45,41,-2
8645,-88,280,-2304,-40,39,-3
8650,-48,248,-2280,-39,37,-3
8655,-72,240,-2256,-39,37,-3
8660,-72,256,-2264,-38,34,-2
8665,-64,240,-2280,-38,32,-3
8670,-56,248,-2272,-37,31,-3
8675,-72,240,-2280,-38,30,-4
8680,-56,240,-2288,-38,27,-4
8685,-56,232,-2288,-37,26,-5
8690,-72,256,-2256,-37,24,-6
8695,-72,240,-2272,-38,23,-4
8700,-72,264,-2272,-36,20,-4
8705,-72,272,-2256,-34,16,-4
8710,-64,256,-2272,-32,14,-5
8715,-64,248,-2288,-33,11,-6
8720,-72,240,-2280,-33,11,-6
8725,-72,240,-2280,-34,10,-6
8730,-64,248,-2272,-34,9,-6
8735,-72,256,-2296,-37,9,-6
8740,-48,232,-2304,-39,8,-6
8745,-56,248,-2312,-40,8,-7
8750,-72,256,-2256,-42,7,-5
8755,-64,248,-2272,-43,7,-5
8760,-48,240,-2312,-45,4,-4
8765,-56,248,-2288,-47,4,-7
8770,-64,240,-2272,-46,2,-6
8775,-88,248,-2288,-45,-2,-6
8780,-72,248,-2264,-45,-1,-8
8785,-80,248,-2288,-46,-2,-6
8790,-72,256,-2296,-47,-1,-7
8795,-96,256,-2312,-47,0,-6
8800,-80,264,-2272,-48,-1,-6
8805,-72,232,-2280,-50,0,-5
8810,-88,232,-2264,-52,0,-5
8815,-72,256,-2264,-52,2,-5
8820,-64,240,-2264,-51,2,-5
8825,-64,256,-2288,-50,3,-4
8830,-80,240,-2280,-50,4,-5
8835,-96,280,-2288,-48,5,-4
8840,-80,256,-2264,-47,4,-4
8845,-72,248,-2288,-46,5,-5
8850,-72,240,-2280,-46,5,-5
8855,-72,232,-2312,-49,6,-5
8860,-80,256,-2288,-46,5,-3
8865,-64,256,-2280,-45,5,-4
8870,-80,248,-2280,-46,6,-5
8875,-80,256,-2280,-44,6,-6
8880,-80,256,-2304,-41,6,-6
8885,-80,248,-2280,-43,6,-6
8890,-88,248,-2280,-44,6,-6
8895,-80,256,-2272,-45,9,-6
8900,-80,240,-2256,-44,11,-5
8905,-88,240,-2296,-43,11,-6
8910,-96,240,-2288,-42,13,-5
8915,-88,256,-2272,-42,13,-5
8920,-88,240,-2280,-40,14,-5
8925,-72,240,-2280,-40,13,-4
8930,-80,248,-2272,-38,14,-4
8935,-80,248,-2272,-41,14,-4
8940,-96,248,-2256,-43,13,-5
8945,-88,264,-2280,-46,15,-5
8950,-80,248,-2296,-46,16,-4
8955,-80,248,-2296,-47,16,-4
8960,-96,240,-2280,-46,15,-3
8965,-112,240,-2280,-44,15,-5
8970,-88,240,-2280,-43,16,-4
8975,-72,248,-2304,-42,17,-5
8980,-80,248,-2304,-43,17,-4
8985,-48,232,-2296,-45,18,-4
8990,-80,240,-2288,-48,19,-4
8995,-112,256,-2280,-49,21,-5
9000,-80,248,-2312,-47,21,-5
9005,-80,248,-2288,-47,21,-5
9010,-80,232,-2280,-46,21,-5
9015,-80,248,-2288,-47,21,-4
9020,-72,232,-2288,-49,23,-4
9025,-80,232,-2256,-48,23,-5
9030,-80,248,-2256,-48,23,-4
9035,-56,248,-2280,-48,24,-4
9040,-72,240,-2280,-47,23,-3
9045,-64,216,-2280,-49,22,-3
9050,-72,256,-2288,-48,24,-3
9055,-64,256,-2272,-48,23,-4
9060,-88,256,-2304,-47,24,-4
9065,-64,232,-2272,-48,23,-4
9070,-80,248,-2272,-48,22,-5
9075,-80,256,-2272,-48,22,-5
9080,-88,264,-2280,-46,22,-5
9085,-80,240,-2288,-47,22,-5
9090,-88,256,-2264,-47,22,-4
9095,-72,232,-2248,-47,23,-6
9100,-88,256,-2248,-47,24,-6
9105,-80,256,-2272,-46,22,-7
9110,-96,240,-2272,-46,21,-5
9115,-64,216,-2288,-46,22,-6
9120,-80,264,-2272,-45,23,-4
9125,-72,280,-2272,-44,22,-5
9130,-72,224,-2288,-43,22,-4
9135,-80,232,-2288,-42,21,-4
9140,-56,248,-2288,-39,20,-5
9145,-88,240,-2264,-40,20,-5
9150,-96,248,-2312,-40,21,-5
9155,-40,232,-2280,-41,20,-3
9160,-72,232,-2280,-43,21,-5
9165,-80,248,-2256,-45,19,-5
9170,-88,256,-2288,-45,18,-4
9175,-72,240,-2288,-46,17,-5
9180,-96,264,-2272,-47,16,-7
9185,-80,232,-2272,-46,15,-5
9190,-72,248,-2264,-45,15,-4
9195,-80,248,-2280,-44,15,-6
9200,-64,224,-2280,-44,15,-5
9205,-96,248,-2264,-44,16,-4
9210,-96,256,-2280,-44,16,-4
9215,-80,224,-2296,-42,18,-4
9220,-72,232,-2304,-41,17,-5
9225,-56,256,-2320,-43,17,-5
9230,-56,240,-2280,-45,17,-5
9235,-48,240,-2280,-47,16,-4
9240,-80,248,-2304,-48,17,-4
9245,-96,248,-2312,-48,18,-5
9250,-88,240,-2256,-47,16,-3
9255,-72,224,-2280,-47,16,-3
9260,-56,240,-2304,-48,16,-6
9265,-64,224,-2296,-48,16,-5
9270,-88,272,-2280,-49,16,-4
9275,-80,248,-2296,-47,15,-5
9280,-64,240,-2312,-47,14,-5
9285,-72,248,-2296,-46,14,-7
9290,-64,248,-2296,-46,13,-5
9295,-72,240,-2272,-47,14,-6
9300,-80,240,-2304,-45,15,-5
9305,-88,240,-2296,-46,16,-6
9310,-72,232,-2256,-46,15,-7
9315,-40,240,-2280,-46,16,-6
9320,-88,256,-2272,-45,17,-5
9325,-96,256,-2296,-45,17,-5
9330,-72,256,-2280,-44,14,-5
9335,-72,240,-2264,-45,15,-6
9340,-80,264,-2272,-44,15,-5
9345,-96,256,-2280,-43,16,-6
9350,-72,232,-2280,-44,15,-5
9355,-80,248,-2280,-45,15,-6
9360,-80,232,-2280,-44,15,-6
9365,-64,240,-2288,-43,15,-5
9370,-72,248,-2280,-45,14,-5
9375,-80,248,-2288,-47,16,-4
9380,-80,248,-2280,-46,16,-4
9385,-80,224,-2272,-48,15,-5
9390,-80,256,-2248,-48,15,-5
9395,-80,248,-2296,-49,16,-5
9400,-72,224,-2288,-47,15,-4
9405,-80,248,-2272,-46,15,-7
9410,-64,240,-2272,-44,14,-5
9415,-80,256,-2280,-43,14,-6
9420,-72,224,-2304,-43,17,-6
9425,-96,248,-2288,-44,18,-7
9430,-80,240,-2304,-46,18,-6
9435,-72,264,-2264,-44,18,-5
9440,-80,248,-2264,-43,17,-5
9445,-80,248,-2304,-42,18,-4
9450,-80,264,-2312,-42,18,-5
9455,-80,232,-2320,-44,18,-6
9460,-80,256,-2280,-45,17,-5
9465,-56,224,-2256,-46,18,-6
9470,-80,232,-2288,-48,18,-5
9475,-80,240,-2280,-50,17,-5
9480,-80,264,-2256,-53,17,-5
9485,-72,232,-2264,-52,16,-5
9490,-80,256,-2296,-49,16,-4
9495,-80,240,-2264,-48,16,-5
9500,-80,240,-2288,-45,15,-6
9505,-72,240,-2288,-43,15,-7
9510,-96,256,-2304,-43,16,-5
9515,-72,240,-2264,-45,16,-5
9520,-96,264,-2304,-46,16,-5
9525,-64,224,-2288,-47,16,-5
9530,-80,224,-2288,-45,17,-4
9535,-72,248,-2288,-46,18,-5
9540,-72,240,-2304,-47,17,-5
9545,-64,224,-2272,-45,18,-5
9550,-72,248,-2272,-46,19,-4
9555,-64,280,-2256,-44,20,-4
9560,-72,248,-2264,-43,20,-6
9565,-64,248,-2240,-44,20,-5
9570,-72,224,-2272,-43,19,-5
9575,-64,248,-2296,-43,19,-6
9580,-72,264,-2248,-45,19,-5
9585,-56,232,-2280,-43,18,-5
9590,-80,240,-2296,-43,17,-5
9595,-72,256,-2264,-45,19,-5
9600,-64,256,-2288,-43,17,-4
9605,-72,232,-2296,-42,17,-5
9610,-88,264,-2288,-44,18,-4
9615,-96,272,-2288,-46,18,-5
9620,-88,240,-2280,-46,19,-5
9625,-48,240,-2296,-47,18,-6
9630,-72,256,-2272,-47,17,-6
9635,-56,224,-2256,-47,17,-5
9640,-80,264,-2272,-45,17,-5
9645,-80,248,-2264,-44,18,-4
9650,-80,248,-2264,-45,17,-5
9655,-72,240,-2304,-43,17,-6
9660,-88,248,-2280,-43,16,-4
9665,-48,256,-2264,-44,16,-5
9670,-56,256,-2264,-44,15,-7
9675,-72,224,-2288,-44,15,-6
9680,-88,272,-2288,-44,16,-6
9685,-64,256,-2256,-44,17,-5
9690,-80,256,-2264,-43,17,-4
9695,-72,256,-2264,-45,17,-6
9700,-64,240,-2256,-46,16,-5
9705,-88,256,-2256,-46,17,-6
9710,-64,232,-2280,-45,17,-6
9715,-72,248,-2304,-46,16,-5
9720,-80,240,-2264,-46,16,-5
9725,-80,256,-2256,-44,16,-4
9730,-80,248,-2296,-44,15,-5
9735,-80,224,-2272,-45,14,-5
9740,-80,232,-2288,-45,15,-5
9745,-48,240,-2280,-46,15,-5
9750,-64,240,-2320,-46,17,-5
9755,-80,248,-2264,-46,16,-6
9760,-72,232,-2288,-46,16,-6
9765,-48,256,-2280,-47,15,-5
9770,-96,288,-2360,-48,16,-5
9775,-72,232,-2288,-49,15,-5
9780,-64,248,-2264,-49,14,-4
9785,-88,264,-2296,-49,14,-5
9790,-96,264,-2256,-48,14,-5
9795,-80,248,-2272,-47,14,-5
9800,-80,248,-2280,-47,14,-5
9805,-104,256,-2272,-48,15,-6
9810,-88,264,-2264,-48,14,-5
9815,-80,240,-2288,-46,14,-6
9820,-48,224,-2272,-46,14,-6
9825,-80,248,-2296,-46,16,-6
9830,-72,248,-2272,-48,17,-5
9835,-80,248,-2264,-47,17,-4
9840,-56,256,-2312,-47,19,-4
9845,-64,248,-2280,-47,17,-5
9850,-80,224,-2288,-45,18,-5
9855,-80,264,-2280,-44,19,-6
9860,-72,240,-2256,-44,20,-5
9865,-88,248,-2304,-44,19,-5
9870,-80,240,-2264,-45,18,-5
9875,-72,232,-2328,-46,20,-4
9880,-64,256,-2264,-45,20,-4
9885,-72,232,-2272,-44,20,-5
9890,-56,248,-2272,-43,19,-4
9895,-56,232,-2264,-46,17,-6
9900,-72,256,-2264,-44,18,-6
9905,-88,272,-2280,-45,18,-4
9910,-88,280,-2256,-46,18,-5
9915,-72,240,-2272,-45,18,-5
9920,-64,240,-2288,-46,18,-5
9925,-72,272,-2272,-46,18,-4
9930,-96,240,-2272,-46,19,-5
9935,-80,256,-2296,-45,18,-6
9940,-56,248,-2288,-44,17,-5
9945,-72,248,-2288,-42,15,-5
9950,-48,256,-2296,-39,17,-4
9955,-72,248,-2288,-42,18,-6
9960,-80,240,-2280,-46,19,-6
9965,-64,248,-2272,-45,21,-6
9970,-88,248,-2288,-45,21,-6
9975,-72,240,-2288,-43,20,-5
9980,-80,248,-2272,-44,20,-4
9985,-80,240,-2312,-44,20,-4
9990,-80,240,-2304,-43,19,-5
9995,-80,240,-2280,-44,17,-5
10000,-56,248,-2272,-44,18,-6
10005,-72,240,-2272,-45,18,-4
10010,-48,224,-2272,-47,16,-4
10015,-48,232,-2256,-50,17,-5
10020,-80,240,-2264,-48,16,-5
10025,-64,248,-2280,-49,15,-6
10030,-64,240,-2296,-47,15,-5
10035,-80,232,-2264,-45,14,-5
10040,-64,240,-2272,-44,16,-4
10045,-72,216,-2264,-43,17,-5
10050,-64,240,-2288,-44,16,-4
10055,-72,248,-2288,-46,16,-5
10060,-80,240,-2272,-47,17,-6
10065,-64,248,-2296,-45,18,-5
10070,-80,256,-2256,-44,18,-4
10075,-72,240,-2288,-43,17,-6
10080,-56,248,-2296,-44,16,-6
10085,-72,272,-2264,-45,17,-6
10090,-80,312,-2288,-44,18,-5
10095,-56,248,-2296,-44,17,-5
10100,-80,264,-2264,-43,17,-5
10105,-80,256,-2256,-44,17,-5
10110,-80,240,-2304,-41,17,-5
10115,-80,264,-2272,-44,17,-6
10120,-96,264,-2264,-45,17,-5
10125,-72,240,-2288,-43,18,-4
10130,-56,240,-2280,-44,18,-6
10135,-72,248,-2272,-45,18,-5
10140,-96,240,-2280,-45,18,-5
10145,-88,248,-2264,-46,18,-4
10150,-48,248,-2280,-46,18,-6
10155,-72,240,-2272,-46,18,-5
10160,-72,240,-2288,-45,18,-6
10165,-56,256,-2288,-45,16,-5
10170,-80,264,-2304,-44,17,-5
10175,-80,264,-2312,-45,17,-4
10180,-112,264,-2288,-43,18,-4
10185,-72,248,-2312,-44,19,-4
10190,-80,264,-2280,-44,19,-5
10195,-72,272,-2280,-43,18,-5
10200,-72,240,-2264,-42,18,-4
10205,-88,272,-2288,-43,18,-5
10210,-56,232,-2288,-44,17,-5
10215,-80,264,-2296,-44,17,-6
10220,-72,264,-2264,-45,16,-6
10225,-80,232,-2272,-44,16,-6
10230,-72,240,-2256,-43,17,-4
10235,-56,248,-2248,-44,18,-6
10240,-48,224,-2288,-46,17,-4
10245,-64,216,-2248,-45,19,-5
10250,-72,240,-2248,-46,18,-3
10255,-80,240,-2288,-44,19,-5
10260,-72,232,-2312,-43,18,-6
10265,-96,240,-2280,-43,17,-5
10270,-40,256,-2304,-44,18,-5
10275,-72,248,-2256,-46,19,-5
10280,-64,232,-2296,-46,17,-5
10285,-80,240,-2312,-47,19,-5
10290,-72,256,-2288,-48,18,-6
10295,-56,240,-2272,-47,16,-6
10300,-80,248,-2280,-48,18,-7
10305,-72,264,-2280,-47,16,-5
10310,-72,240,-2280,-46,17,-5
10315,-72,256,-2296,-47,16,-6
10320,-72,256,-2288,-47,17,-6
10325,-88,256,-2288,-47,17,-4
10330,-80,256,-2272,-46,16,-4
10335,-80,232,-2272,-47,17,-5
10340,-56,248,-2264,-46,18,-5
10345,-88,264,-2280,-45,17,-6
10350,-64,232,-2288,-44,18,-5
10355,-64,224,-2256,-45,18,-4
10360,-56,216,-2272,-45,19,-5
10365,-88,272,-2288,-47,19,-4
10370,-48,232,-2320,-46,18,-4
10375,-72,256,-2296,-46,19,-6
10380,-80,248,-2280,-45,19,-5
10385,-80,256,-2248,-45,18,-4
10390,-80,264,-2296,-46,18,-5
10395,-64,248,-2264,-47,18,-6
10400,-80,256,-2296,-47,18,-6
10405,-72,232,-2264,-45,17,-4
10410,-56,232,-2312,-46,16,-4
10415,-80,256,-2280,-45,17,-5
10420,-80,240,-2280,-45,18,-4
10425,-80,264,-2264,-46,18,-5
10430,-64,240,-2296,-44,18,-5
10435,-80,272,-2288,-45,18,-5
10440,-80,240,-2272,-47,17,-5
10445,-72,240,-2280,-46,18,-6
10450,-72,240,-2280,-46,18,-6
10455,-72,248,-2272,-48,18,-5
10460,-40,304,-2296,-48,17,-4
10465,-88,240,-2248,-48,17,-5
10470,-64,240,-2288,-48,17,-4
10475,-80,256,-2296,-47,18,-5
10480,-64,224,-2272,-48,17,-6
10485,-72,264,-2288,-46,17,-5
10490,-56,216,-2304,-47,17,-5
10495,-72,240,-2320,-46,17,-5
10500,-64,232,-2280,-47,17,-4
10505,-112,280,-2272,-47,17,-5
10510,-72,240,-2296,-45,16,-4
10515,-88,248,-2304,-45,15,-5
10520,-80,272,-2280,-45,17,-5
10525,-72,256,-2304,-46,19,-5
10530,-72,256,-2288,-47,20,-5
10535,-72,240,-2296,-48,18,-5
10540,-72,256,-2296,-46,19,-5
10545,-64,272,-2280,-44,19,-4
10550,-80,248,-2256,-46,18,-4
10555,-72,248,-2288,-45,17,-5
10560,-72,240,-2280,-44,17,-5
10565,-80,256,-2296,-45,16,-4
10570,-48,232,-2264,-44,17,-5
10575,-88,240,-2256,-48,17,-4
10580,-80,264,-2272,-50,16,-4
10585,-88,264,-2256,-54,15,-5
10590,-72,248,-2272,-50,14,-5
10595,-88,272,-2272,-48,14,-4
10600,-80,240,-2312,-47,13,-4
10605,-88,240,-2280,-44,14,-4
10610,-80,248,-2256,-42,13,-5
10615,-64,224,-2296,-44,12,-6
10620,-56,248,-2264,-48,13,-5
10625,-72,248,-2296,-47,13,-5
10630,-80,256,-2248,-45,13,-5
10635,-96,240,-2272,-43,13,-5
10640,-64,256,-2272,-43,13,-4
10645,-64,224,-2280,-45,14,-5
10650,-56,256,-2280,-45,15,-4
10655,-64,264,-2304,-44,17,-4
10660,-72,240,-2256,-43,17,-5
10665,-56,248,-2264,-43,17,-5
10670,-80,240,-2264,-44,16,-4
10675,-56,240,-2280,-43,16,-4
10680,-80,248,-2280,-46,16,-7
10685,-88,248,-2288,-46,16,-5
10690,-56,256,-2272,-47,15,-5
10695,-64,240,-2248,-47,15,-5
10700,-64,232,-2312,-47,16,-5
10705,-40,264,-2256,-46,17,-3
10710,-72,256,-2240,-46,17,-4
10715,-56,248,-2296,-46,17,-6
10720,-80,256,-2272,-47,17,-5
10725,-88,256,-2264,-47,17,-5
10730,-88,264,-2264,-46,15,-7
10735,-80,240,-2280,-48,18,-7
10740,-80,256,-2280,-47,17,-5
10745,-72,224,-2280,-46,19,-5
10750,-72,232,-2256,-45,18,-5
10755,-80,256,-2280,-46,16,-5
10760,-64,232,-2264,-45,17,-5
10765,-80,256,-2288,-45,17,-4
10770,-80,256,-2272,-43,17,-5
10775,-72,232,-2296,-44,18,-5
10780,-64,256,-2264,-46,16,-4
10785,-80,256,-2288,-45,16,-5
10790,-80,248,-2320,-44,16,-5
10795,-88,272,-2288,-44,15,-5
10800,-72,232,-2272,-42,16,-4
10805,-64,232,-2264,-43,18,-3
10810,-96,264,-2272,-45,17,-3
10815,-72,272,-2280,-46,18,-5
10820,-96,272,-2280,-45,18,-4
10825,-64,240,-2272,-45,18,-4
10830,-88,240,-2304,-46,18,-6
10835,-72,256,-2240,-45,18,-5
10840,-80,240,-2256,-44,17,-5
10845,-64,240,-2280,-44,19,-5
10850,-72,216,-2304,-44,19,-6
10855,-64,248,-2248,-45,19,-5
10860,-96,256,-2280,-47,18,-4
10865,-80,256,-2280,-46,18,-4
10870,-72,240,-2288,-46,17,-5
10875,-80,256,-2256,-45,16,-5
10880,-72,248,-2304,-46,16,-5
10885,-72,248,-2280,-47,17,-5
10890,-80,248,-2304,-47,17,-6
10895,-48,232,-2304,-46,16,-6
10900,-80,280,-2304,-47,16,-6
10905,-64,240,-2288,-46,15,-5
10910,-56,240,-2248,-44,15,-5
10915,-64,240,-2304,-45,17,-5
10920,-56,224,-2288,-45,17,-6
10925,-64,232,-2264,-45,17,-6
10930,-64,248,-2304,-45,17,-5
10935,-56,224,-2288,-45,18,-5
10940,-72,256,-2264,-46,18,-5
10945,-16,296,-2352,-45,19,-4
10950,-64,240,-2272,-45,19,-5
10955,-80,264,-2280,-46,20,-5
10960,-64,272,-2256,-46,20,-5
10965,-96,272,-2248,-46,18,-4
10970,-56,232,-2264,-47,19,-4
10975,-80,256,-2288,-46,17,-4
10980,-56,240,-2280,-48,18,-4
10985,-72,248,-2272,-47,19,-5
10990,-64,232,-2296,-45,17,-5
10995,-72,256,-2256,-47,16,-5
11000,-72,248,-2296,-45,17,-6
11005,-72,248,-2280,-45,17,-4
11010,-64,248,-2296,-46,17,-4
11015,-64,248,-2264,-48,18,-5
11020,-48,216,-2312,-48,17,-4
11025,-80,248,-2296,-48,17,-5
11030,-72,232,-2280,-47,16,-6
11035,-72,240,-2280,-46,17,-5
11040,-72,240,-2272,-46,17,-5
11045,-72,248,-2280,-47,17,-7
11050,-40,208,-2208,-46,18,-6
11055,-96,256,-2264,-46,17,-4
11060,-88,256,-2304,-45,18,-4
11065,-72,256,-2248,-46,18,-5
11070,-72,248,-2280,-43,18,-4
11075,-88,248,-2296,-42,18,-5
11080,-88,264,-2280,-45,17,-5
11085,-80,232,-2304,-46,18,-5
11090,-88,256,-2280,-46,20,-4
11095,-72,240,-2328,-45,20,-4
11100,-80,264,-2296,-44,18,-4
11105,-32,248,-2288,-46,20,-4
11110,-72,232,-2312,-45,21,-4
11115,-104,272,-2280,-46,19,-5
11120,-72,232,-2272,-46,17,-5
11125,-80,256,-2304,-46,17,-5
11130,-64,256,-2264,-46,16,-4
11135,-72,248,-2256,-47,16,-5
11140,-72,256,-2248,-49,17,-4
11145,-72,248,-2272,-52,16,-4
11150,-80,256,-2280,-51,16,-6
11155,-88,256,-2280,-49,15,-6
11160,-88,272,-2296,-47,17,-6
11165,-64,248,-2240,-45,19,-5
11170,-96,264,-2272,-44,19,-5
11175,-72,248,-2264,-44,18,-6
11180,-80,264,-2280,-47,16,-5
11185,-72,240,-2256,-48,17,-6
11190,-72,256,-2272,-46,18,-5
11195,-80,272,-2288,-45,19,-4
11200,-80,256,-2288,-45,18,-5
11205,-88,248,-2248,-47,19,-6
11210,-96,256,-2288,-46,17,-4
11215,-72,256,-2272,-48,19,-5
11220,-72,248,-2288,-46,17,-5
11225,-88,240,-2272,-46,17,-5
11230,-80,248,-2272,-45,16,-5
11235,-88,272,-2288,-45,16,-6
11240,-72,248,-2264,-46,17,-6
11245,-88,264,-2256,-46,17,-5
11250,-80,248,-2304,-47,16,-5
11255,-80,264,-2264,-47,17,-7
11260,-56,256,-2280,-47,17,-5
11265,-80,224,-2272,-47,18,-4
11270,-80,248,-2288,-48,18,-5
11275,-80,248,-2280,-49,17,-5
11280,-72,264,-2296,-49,18,-6
11285,-80,272,-2296,-48,18,-5
11290,-80,272,-2304,-49,18,-5
11295,-72,264,-2272,-49,18,-6
11300,-80,248,-2280,-49,18,-4
11305,-72,240,-2296,-46,19,-6
11310,-112,272,-2280,-47,18,-5
11315,-64,264,-2288,-47,17,-4
11320,-88,272,-2296,-46,18,-4
11325,-88,248,-2304,-47,19,-5
11330,-64,248,-2272,-46,17,-6
11335,-56,240,-2272,-46,16,-5
11340,-80,240,-2272,-46,17,-5
11345,-72,248,-2248,-48,16,-5
11350,-40,264,-2288,-48,18,-4
11355,-72,232,-2296,-46,17,-5
11360,-72,232,-2272,-45,17,-5
11365,-80,264,-2304,-48,17,-6
11370,-48,272,-2288,-46,17,-6
11375,-72,248,-2264,-47,17,-6
11380,-64,232,-2272,-47,16,-5
11385,-80,264,-2256,-46,17,-6
11390,-56,240,-2256,-47,17,-7
11395,-64,248,-2264,-45,16,-6
11400,-80,256,-2256,-45,18,-5
11405,-48,232,-2280,-44,18,-4
11410,-104,248,-2288,-46,18,-5
11415,-64,248,-2288,-48,16,-5
11420,-80,232,-2272,-46,16,-5
11425,-72,232,-2280,-46,18,-4
11430,-64,256,-2272,-47,18,-2
11435,-96,248,-2288,-49,17,-5
11440,-88,272,-2280,-47,18,-5
11445,-80,264,-2272,-48,17,-4
11450,-88,248,-2280,-50,16,-5
11455,-72,264,-2312,-50,18,-5
11460,-96,280,-2304,-49,16,-6
11465,-72,264,-2264,-50,17,-6
11470,-72,264,-2264,-49,16,-5
11475,-56,280,-2240,-47,18,-4
11480,-64,248,-2272,-47,17,-4
11485,-80,248,-2272,-47,17,-5
11490,-80,248,-2304,-48,17,-5
11495,-56,248,-2264,-48,17,-6
11500,-80,264,-2280,-46,17,-6
11505,-80,248,-2280,-49,17,-5
11510,-80,264,-2280,-50,16,-5
11515,-72,256,-2304,-50,17,-7
11520,-72,256,-2304,-49,17,-6
11525,-72,240,-2288,-50,17,-6
11530,-96,280,-2304,-48,18,-5
11535,-72,256,-2272,-47,17,-6
11540,-72,248,-2272,-47,17,-5
11545,-88,280,-2280,-45,16,-4
11550,-72,256,-2288,-45,17,-6
11555,-80,248,-2256,-46,16,-6
11560,-56,248,-2296,-46,16,-5
11565,-64,248,-2272,-48,15,-5
11570,-64,232,-2288,-47,16,-5
11575,-72,256,-2296,-47,16,-5
11580,-80,232,-2280,-48,15,-6
11585,-48,320,-2288,-49,16,-5
11590,-48,240,-2256,-48,15,-5
11595,-64,256,-2248,-48,18,-5
11600,-56,256,-2264,-46,17,-4
11605,-64,240,-2280,-48,16,-5
11610,-48,232,-2288,-48,17,-5
11615,-80,256,-2288,-48,17,-5
11620,-72,256,-2264,-46,18,-4
11625,-72,272,-2272,-48,16,-5
11630,-48,240,-2280,-48,17,-5
11635,-80,240,-2304,-45,17,-5
11640,-72,240,-2272,-45,15,-4
11645,-72,248,-2280,-48,16,-5
11650,-96,288,-2272,-47,17,-5
11655,-56,248,-2272,-46,18,-6
11660,-72,240,-2288,-47,18,-5
11665,-72,232,-2304,-45,17,-5
11670,-64,240,-2296,-47,17,-5
11675,-80,264,-2288,-46,17,-6
11680,-72,264,-2264,-46,16,-6
11685,-72,264,-2272,-45,16,-6
11690,-88,248,-2248,-46,16,-6
11695,-64,264,-2288,-50,17,-5
11700,-72,248,-2264,-50,16,-5
11705,-72,240,-2264,-51,16,-5
11710,-72,240,-2280,-53,16,-5
11715,-56,240,-2240,-51,15,-6
11720,-56,248,-2264,-49,14,-7
11725,-80,232,-2296,-48,16,-4
11730,-80,232,-2288,-45,17,-4
11735,-72,240,-2304,-45,16,-4
11740,-72,280,-2296,-44,16,-5
11745,-80,248,-2280,-47,16,-4
11750,-48,248,-2288,-47,17,-6
11755,-72,240,-2264,-46,18,-5
11760,-72,240,-2312,-46,17,-5
11765,-96,256,-2272,-45,17,-5
11770,-96,248,-2272,-46,18,-5
11775,-48,232,-2328,-47,18,-5
11780,-72,248,-2272,-46,18,-6
11785,-72,256,-2280,-46,19,-5
11790,-88,240,-2240,-45,18,-6
11795,-80,248,-2248,-44,17,-5
11800,-80,232,-2288,-45,17,-6
11805,-80,240,-2288,-47,16,-4
11810,-80,264,-2272,-47,16,-5
11815,-72,248,-2312,-46,16,-6
11820,-64,240,-2264,-48,16,-5
11825,-72,240,-2288,-47,16,-4
11830,-64,240,-2288,-48,17,-5
11835,-80,256,-2248,-48,17,-6
11840,-72,264,-2296,-49,16,-6
11845,-80,240,-2280,-49,15,-6
11850,-64,240,-2272,-48,17,-4
11855,-56,256,-2288,-47,17,-5
11860,-48,240,-2224,-48,18,-5
11865,-88,264,-2256,-47,18,-5
11870,-56,240,-2272,-47,19,-3
11875,-48,256,-2288,-49,18,-5
11880,-88,248,-2296,-47,16,-5
11885,-56,248,-2256,-46,17,-5
11890,-64,256,-2256,-45,17,-4
11895,-56,264,-2296,-45,17,-5
11900,-72,232,-2272,-44,17,-5
11905,-88,248,-2288,-45,18,-5
11910,-64,240,-2232,-48,18,-6
11915,-56,240,-2304,-48,17,-5
11920,-104,272,-2248,-45,17,-6
11925,-72,256,-2272,-44,17,-6
11930,-72,264,-2248,-44,19,-5
11935,-88,256,-2264,-46,18,-5
11940,-72,248,-2280,-48,19,-4
11945,-72,240,-2296,-47,18,-6
11950,-64,256,-2256,-48,17,-5
11955,-64,264,-2272,-47,16,-5
11960,-56,264,-2304,-46,15,-4
11965,-72,248,-2288,-47,16,-3
11970,-72,232,-2272,-47,16,-5
11975,-80,248,-2296,-46,16,-4
11980,-56,256,-2264,-46,16,-5
11985,-48,232,-2256,-46,16,-5
11990,-88,240,-2264,-47,17,-6
11995,-88,248,-2272,-47,16,-6
12000,-80,232,-2288,-46,17,-7
12005,-64,248,-2296,-46,18,-6
12010,-80,232,-2288,-47,17,-5
12015,-56,240,-2336,-46,16,-4
12020,-48,256,-2288,-46,16,-5
12025,-72,240,-2264,-46,18,-5
12030,-72,248,-2288,-45,18,-5
12035,-80,248,-2232,-44,18,-6
12040,-88,248,-2288,-45,17,-6
12045,-88,264,-2264,-44,17,-6
12050,-72,232,-2264,-46,16,-6
12055,-56,248,-2256,-46,16,-5
12060,-88,256,-2256,-46,16,-6
12065,-80,248,-2272,-46,16,-5
12070,-72,232,-2272,-46,17,-6
12075,-64,256,-2264,-46,17,-7
12080,-112,256,-2288,-45,16,-6
12085,-72,264,-2272,-45,18,-4
12090,-64,240,-2264,-44,17,-5
12095,-80,256,-2280,-44,17,-4
12100,-64,248,-2296,-43,17,-4
12105,-72,264,-2272,-43,17,-4
12110,-64,248,-2272,-43,17,-5
12115,-80,248,-2248,-43,17,-5
12120,-72,248,-2224,-44,17,-5
12125,-48,272,-2264,-46,18,-4
12130,-72,232,-2272,-45,18,-5
12135,-88,256,-2272,-44,19,-4
12140,-96,256,-2280,-44,20,-4
12145,-72,256,-2256,-44,19,-4
12150,-80,264,-2248,-44,18,-5
12155,-88,256,-2280,-44,18,-5
12160,-88,248,-2272,-44,18,-4
12165,-88,256,-2256,-44,17,-6
12170,-56,240,-2272,-45,18,-5
12175,-48,232,-2272,-45,17,-4
12180,-72,248,-2296,-45,17,-5
12185,-56,248,-2288,-42,16,-5
12190,-64,240,-2328,-42,15,-5
12195,-80,256,-2288,-45,16,-5
12200,-72,264,-2288,-45,17,-5
12205,-88,264,-2304,-46,19,-5
12210,-80,256,-2312,-45,18,-7
12215,-64,248,-2280,-45,18,-6
12220,-88,240,-2280,-43,18,-5
12225,-72,256,-2248,-45,19,-4
12230,-64,248,-2272,-44,18,-4
12235,-80,232,-2272,-42,18,-6
12240,-64,224,-2264,-42,17,-6
12245,-64,248,-2264,-42,16,-6
12250,-88,248,-2288,-43,15,-6
12255,-72,256,-2264,-45,16,-6
12260,-72,240,-2264,-49,15,-4
12265,-64,248,-2272,-49,16,-5
12270,-80,256,-2288,-48,17,-7
12275,-72,264,-2304,-45,16,-6
12280,-64,240,-2296,-42,17,-5
12285,-72,256,-2288,-42,17,-4
12290,-72,256,-2296,-43,18,-5
12295,-80,256,-2280,-45,17,-6
12300,-88,272,-2304,-43,17,-5
12305,-80,256,-2256,-44,17,-5
12310,-72,256,-2304,-43,18,-4
12315,-64,240,-2304,-43,17,-4
12320,-80,232,-2312,-43,17,-5
12325,-64,248,-2264,-42,18,-5
12330,-72,248,-2216,-43,18,-6
12335,-80,248,-2296,-43,18,-6
12340,-72,240,-2280,-45,18,-5
12345,-56,240,-2280,-44,18,-5
12350,-72,256,-2264,-44,17,-5
12355,-64,264,-2264,-44,18,-6
12360,-56,232,-2272,-44,18,-6
12365,-64,272,-2272,-42,18,-5
12370,-64,240,-2272,-42,18,-5
12375,-72,256,-2264,-45,18,-5
12380,-56,248,-2272,-46,18,-4
12385,-80,256,-2288,-45,17,-5
12390,-72,272,-2280,-45,17,-4
12395,-80,264,-2280,-45,15,-5
12400,-80,264,-2296,-46,15,-6
12405,-64,232,-2272,-45,18,-4
12410,-80,240,-2304,-47,17,-5
12415,-72,248,-2264,-45,17,-7
12420,-56,264,-2272,-43,17,-6
12425,-64,256,-2264,-46,18,-5
12430,-88,248,-2264,-45,17,-6
12435,-88,256,-2264,-44,17,-5
12440,-64,240,-2304,-43,17,-5
12445,-64,248,-2280,-43,17,-6
12450,-80,240,-2272,-44,16,-6
12455,-88,272,-2296,-42,16,-4
12460,-72,248,-2288,-43,17,-5
12465,-64,232,-2288,-44,17,-5
12470,-88,272,-2288,-44,15,-4
12475,-72,248,-2288,-44,16,-6
12480,-64,240,-2264,-43,17,-6
12485,-72,240,-2240,-43,18,-5
12490,-64,248,-2280,-46,18,-5
12495,-88,248,-2264,-44,18,-5
12500,-80,264,-2272,-47,17,-5
12505,-64,264,-2272,-47,17,-5
12510,-56,264,-2280,-46,17,-4
12515,-88,256,-2312,-46,17,-5
12520,-88,232,-2272,-45,15,-6
12525,-80,256,-2280,-45,16,-5
12530,-48,224,-2248,-44,17,-5
12535,-72,248,-2280,-44,16,-5
12540,-56,264,-2264,-46,16,-4
12545,-56,248,-2264,-45,17,-6
12550,-72,256,-2272,-45,17,-6
12555,-80,232,-2272,-46,17,-4
12560,-72,248,-2288,-47,17,-5
12565,-56,256,-2272,-45,17,-4
12570,-80,280,-2296,-46,17,-4
12575,-72,256,-2304,-47,17,-4
12580,-80,272,-2280,-45,17,-5
12585,-72,240,-2280,-46,17,-4
12590,-64,256,-2240,-45,16,-5
12595,-80,272,-2256,-44,16,-6
12600,-56,248,-2304,-44,15,-6
12605,-72,248,-2288,-45,17,-6
12610,-48,240,-2296,-44,15,-6
12615,-72,232,-2280,-44,16,-6
12620,-72,256,-2304,-44,16,-5
12625,-88,264,-2280,-44,17,-4
12630,-80,256,-2288,-42,17,-5
12635,-64,248,-2280,-44,17,-6
12640,-80,248,-2240,-44,16,-4
12645,-64,256,-2264,-46,16,-4
12650,-80,248,-2280,-46,16,-5
12655,-80,232,-2288,-46,17,-6
12660,-64,240,-2280,-46,18,-6
12665,-64,248,-2264,-45,18,-4
12670,-72,240,-2296,-46,19,-5
12675,-80,264,-2272,-44,17,-6
12680,-80,232,-2304,-44,15,-5
12685,-80,240,-2272,-45,17,-5
12690,-64,240,-2312,-44,16,-5
12695,-88,232,-2264,-43,17,-5
12700,-64,264,-2264,-44,16,-4
12705,-72,248,-2256,-44,16,-5
12710,-48,224,-2264,-45,16,-4
12715,-64,248,-2272,-44,16,-5
12720,-72,256,-2288,-46,17,-5
12725,-72,264,-2256,-44,17,-5
12730,-72,240,-2272,-45,16,-4
12735,-72,240,-2288,-44,15,-4
12740,-64,256,-2304,-44,17,-4
12745,-56,256,-2312,-44,17,-5
12750,-80,264,-2256,-43,17,-6
12755,-24,216,-2328,-44,17,-6
12760,-64,256,-2288,-44,17,-5
12765,-80,256,-2288,-44,17,-6
12770,-80,248,-2248,-45,16,-6
12775,-64,240,-2264,-44,18,-5
12780,-80,248,-2280,-41,17,-5
12785,-56,232,-2272,-41,16,-5
12790,-80,256,-2272,-44,16,-6
12795,-72,256,-2256,-45,17,-6
12800,-72,256,-2272,-44,18,-4
12805,-80,272,-2296,-43,18,-5
12810,-64,248,-2304,-42,18,-5
12815,-96,240,-2304,-41,19,-5
12820,-64,240,-2272,-42,19,-5
12825,-56,248,-2304,-42,19,-4
12830,-64,240,-2280,-42,18,-5
12835,-72,248,-2296,-43,17,-6
12840,-72,248,-2248,-43,18,-6
12845,-64,232,-2288,-46,18,-6
12850,-88,248,-2248,-49,16,-6
12855,-72,240,-2256,-49,15,-6
12860,-64,240,-2240,-47,15,-6
12865,-64,240,-2320,-45,16,-5
12870,-48,224,-2280,-45,16,-5
12875,-80,240,-2280,-44,16,-6
12880,-72,232,-2288,-41,16,-6
12885,-80,256,-2304,-41,15,-6
12890,-80,224,-2296,-44,16,-6
12895,-72,256,-2288,-44,17,-7
12900,-72,264,-2272,-44,17,-6
12905,-64,240,-2272,-41,16,-5
12910,-72,248,-2296,-43,16,-6
12915,-56,248,-2280,-45,17,-4
12920,-88,256,-2272,-44,17,-5
12925,-64,248,-2312,-43,17,-6
12930,-56,240,-2264,-43,17,-5
12935,-72,272,-2288,-43,17,-6
12940,-64,248,-2248,-44,16,-5
12945,-64,240,-2296,-41,16,-6
12950,-48,216,-2272,-45,17,-5
12955,-80,264,-2296,-46,17,-6
12960,-80,240,-2256,-45,16,-6
12965,-72,256,-2296,-45,16,-5
12970,-96,256,-2264,-47,16,-5
12975,-72,240,-2280,-47,15,-6
12980,-72,272,-2264,-47,16,-5
12985,-72,264,-2280,-47,16,-5
12990,-72,240,-2256,-47,15,-6
12995,-72,280,-2288,-47,15,-7
13000,-64,248,-2288,-46,16,-5
13005,-72,264,-2288,-46,16,-6
13010,-64,248,-2264,-47,16,-5
13015,-72,272,-2256,-47,17,-6
13020,-56,240,-2288,-47,17,-6
13025,-88,264,-2288,-44,17,-5
13030,-80,264,-2248,-44,17,-5
13035,-48,240,-2272,-44,17,-6
13040,-64,256,-2296,-45,17,-5
13045,-72,264,-2280,-46,18,-5
13050,-80,240,-2288,-44,18,-6
13055,-80,248,-2272,-47,16,-5
13060,-88,256,-2280,-45,16,-6
13065,-88,248,-2264,-44,17,-6
13070,-72,248,-2280,-43,18,-5
13075,-112,200,-2312,-44,18,-5
13080,-72,240,-2272,-45,18,-5
13085,-48,248,-2296,-45,19,-5
13090,-72,240,-2288,-45,18,-5
13095,-80,240,-2296,-45,19,-6
13100,-64,248,-2288,-44,18,-6
13105,-64,248,-2280,-45,17,-7
13110,-64,240,-2304,-44,19,-5
13115,-72,256,-2320,-44,17,-5
13120,-72,256,-2264,-43,17,-4
13125,-72,216,-2280,-45,17,-5
13130,-88,232,-2296,-45,17,-4
13135,-56,248,-2280,-47,16,-4
13140,-88,256,-2256,-47,17,-4
13145,-80,256,-2280,-48,16,-5
13150,-80,280,-2280,-46,16,-5
13155,-80,240,-2248,-46,16,-4
13160,-72,232,-2304,-45,15,-4
13165,-56,248,-2304,-45,16,-4
13170,-56,224,-2256,-45,16,-5
13175,-72,272,-2296,-45,16,-6
13180,-72,248,-2272,-45,17,-5
13185,-80,280,-2264,-46,17,-3
13190,-64,248,-2296,-45,16,-4
13195,-72,232,-2296,-45,16,-5
13200,-32,248,-2256,-48,17,-5
13205,-72,248,-2272,-46,18,-6
13210,-64,240,-2240,-48,17,-5
13215,-80,240,-2288,-47,17,-6
13220,-64,264,-2272,-45,16,-4
13225,-56,232,-2288,-47,17,-5
13230,-56,248,-2280,-48,17,-5
13235,-88,272,-2272,-49,17,-5
13240,-80,272,-2296,-45,18,-6
13245,-64,248,-2288,-46,18,-6
13250,-72,256,-2288,-47,18,-5
13255,-80,272,-2280,-47,18,-5
13260,-72,232,-2296,-47,17,-6
13265,-72,248,-2288,-46,17,-5
13270,-80,264,-2272,-46,18,-4
13275,-64,248,-2288,-46,19,-5
13280,-80,240,-2256,-47,18,-4
13285,-88,272,-2280,-46,17,-4
13290,-56,264,-2288,-45,17,-5
13295,-64,240,-2280,-45,17,-4
13300,-80,256,-2280,-45,17,-5
13305,-56,232,-2272,-46,18,-6
13310,-64,256,-2288,-46,17,-5
13315,-64,256,-2312,-44,16,-5
13320,-80,264,-2296,-44,17,-5
13325,-96,256,-2280,-45,15,-5
13330,-80,232,-2288,-45,16,-4
13335,-56,232,-2280,-44,16,-4
13340,-72,256,-2272,-44,16,-5
13345,-80,248,-2304,-46,17,-6
13350,-80,248,-2264,-44,16,-5
13355,-72,224,-2280,-45,17,-5
13360,-72,240,-2288,-48,17,-6
13365,-80,264,-2256,-49,17,-6
13370,-80,256,-2272,-48,17,-5
13375,-80,240,-2312,-48,16,-5
13380,-88,240,-2272,-46,16,-4
13385,-56,240,-2304,-46,15,-4
13390,-80,256,-2296,-44,17,-5
13395,-40,192,-2272,-45,17,-4
13400,-56,248,-2264,-45,18,-4
13405,-88,232,-2288,-46,17,-3
13410,-72,224,-2272,-47,15,-4
13415,-80,256,-2264,-48,17,-5
13420,-64,248,-2280,-47,17,-5
13425,-72,248,-2272,-46,17,-5
13430,-64,264,-2288,-46,16,-5
13435,-88,256,-2296,-48,15,-6
13440,-104,256,-2264,-47,16,-6
13445,-72,232,-2312,-48,16,-5
13450,-80,240,-2280,-47,17,-6
13455,-96,248,-2280,-46,19,-6
13460,-80,264,-2280,-45,18,-4
13465,-80,264,-2264,-47,18,-5
13470,-64,248,-2216,-47,18,-5
13475,-72,264,-2272,-46,16,-5
13480,-48,256,-2280,-46,17,-6
13485,-80,256,-2248,-44,15,-5
13490,-64,256,-2256,-46,17,-4
13495,-64,256,-2248,-50,17,-5
13500,-72,248,-2248,-50,16,-4
13505,-104,232,-2232,-50,15,-5
13510,-56,240,-2272,-49,17,-5
13515,-72,248,-2280,-48,16,-4
13520,-64,248,-2280,-46,15,-4
13525,-80,264,-2280,-46,16,-5
13530,-56,248,-2296,-45,16,-4
13535,-72,240,-2296,-47,17,-6
13540,-80,224,-2280,-47,17,-5
13545,-56,224,-2248,-46,18,-4
13550,-72,256,-2264,-47,17,-6
13555,-72,256,-2296,-45,17,-5
13560,-80,256,-2312,-45,17,-6
13565,-64,216,-2280,-46,18,-7
13570,-64,240,-2304,-45,17,-6
13575,-80,240,-2296,-45,18,-4
13580,-72,272,-2304,-46,19,-4
13585,-88,264,-2264,-46,18,-5
13590,-64,240,-2288,-46,18,-5
13595,-56,240,-2264,-44,18,-5
13600,-72,248,-2272,-46,18,-6
13605,-56,256,-2280,-47,16,-5
13610,-96,232,-2256,-47,17,-6
13615,-72,240,-2312,-47,17,-4
13620,-56,240,-2264,-47,17,-4
13625,-72,240,-2280,-47,16,-4
13630,-56,248,-2280,-48,16,-5
13635,-72,256,-2280,-48,18,-5
13640,-72,248,-2264,-47,18,-6
13645,-88,264,-2264,-47,17,-5
13650,-72,248,-2280,-47,18,-6
13655,-56,224,-2248,-46,17,-5
13660,-72,256,-2272,-46,17,-6
13665,-88,248,-2280,-45,18,-5
13670,-72,256,-2288,-46,17,-5
13675,-72,240,-2280,-45,16,-6
13680,-48,232,-2264,-44,17,-6
13685,-64,264,-2264,-45,16,-5
13690,-80,256,-2280,-43,15,-4
13695,-80,264,-2280,-44,17,-3
13700,-96,248,-2272,-44,17,-6
13705,-104,256,-2264,-47,16,-4
13710,-80,256,-2280,-46,18,-5
13715,-56,264,-2272,-45,17,-5
13720,-72,264,-2296,-44,16,-6
13725,-64,264,-2248,-44,17,-5
13730,-64,256,-2280,-46,18,-5
13735,-80,224,-2280,-48,17,-5
13740,-80,256,-2256,-47,16,-5
13745,-56,264,-2248,-46,16,-5
13750,-64,248,-2272,-47,15,-5
13755,-72,264,-2288,-48,15,-5
13760,-96,248,-2280,-47,14,-6
13765,-56,256,-2296,-48,16,-5
13770,-72,256,-2280,-48,17,-5
13775,-72,256,-2296,-50,17,-3
13780,-80,264,-2272,-50,17,-4
13785,-64,240,-2280,-48,17,-4
13790,-80,240,-2248,-48,16,-4
13795,-80,256,-2288,-48,16,-5
13800,-72,256,-2272,-47,17,-5
13805,-72,240,-2288,-48,17,-4
13810,-72,232,-2272,-47,16,-5
13815,-96,248,-2288,-48,16,-5
13820,-56,256,-2280,-47,16,-5
13825,-56,240,-2216,-47,16,-6
13830,-48,240,-2296,-45,16,-6
13835,-64,264,-2288,-46,18,-5
13840,-64,240,-2296,-46,17,-3
13845,-72,256,-2280,-46,17,-5
13850,-56,256,-2272,-47,17,-5
13855,-72,280,-2280,-48,17,-5
13860,-72,256,-2248,-46,17,-5
13865,-80,256,-2296,-45,17,-6
13870,-104,256,-2296,-45,17,-5
13875,-80,272,-2272,-47,17,-6
13880,-72,248,-2280,-46,16,-5
13885,-72,240,-2272,-48,16,-6
13890,-64,256,-2272,-46,17,-5
13895,-40,240,-2248,-46,16,-6
13900,-80,224,-2264,-46,17,-6
13905,-64,232,-2264,-46,18,-6
13910,-64,256,-2296,-49,16,-4
13915,-88,256,-2296,-46,16,-5
13920,-88,256,-2272,-47,17,-7
13925,-80,248,-2288,-48,17,-5
13930,-72,240,-2264,-47,16,-5
13935,-64,256,-2280,-47,16,-6
13940,-56,240,-2256,-46,18,-6
13945,-80,256,-2304,-47,16,-5
13950,-96,248,-2264,-47,18,-4
13955,-72,248,-2304,-48,17,-5
13960,-72,232,-2280,-47,18,-3
13965,-96,272,-2272,-47,17,-5
13970,-80,248,-2288,-47,17,-5
13975,-64,256,-2272,-45,18,-5
13980,-64,272,-2304,-44,17,-5
13985,-88,264,-2296,-45,16,-4
13990,-64,248,-2280,-45,16,-3
13995,-80,264,-2280,-45,17,-5
14000,-88,256,-2280,-46,18,-4
14005,-64,232,-2296,-46,17,-5
14010,-80,240,-2264,-46,18,-5
14015,-80,280,-2256,-47,18,-4
14020,-80,240,-2304,-46,18,-5
14025,-80,232,-2272,-46,17,-5
14030,-88,248,-2264,-47,19,-5
14035,-56,248,-2240,-46,19,-5
14040,-64,256,-2272,-46,17,-5
14045,-72,256,-2248,-46,18,-5
14050,-64,240,-2272,-45,18,-5
14055,-72,256,-2312,-48,18,-6
14060,-72,264,-2248,-47,17,-4
14065,-80,264,-2264,-47,17,-5
14070,-64,248,-2280,-46,16,-5
14075,-80,256,-2272,-44,14,-5
14080,-80,256,-2304,-44,14,-5
14085,-64,232,-2304,-47,15,-5
14090,-64,232,-2296,-48,17,-4
14095,-80,248,-2304,-47,18,-4
14100,-56,248,-2272,-48,18,-5
14105,-88,272,-2288,-46,17,-6
14110,-56,256,-2288,-45,17,-4
14115,-80,256,-2256,-46,18,-5
14120,-72,288,-2288,-47,18,-5
14125,-72,240,-2296,-47,16,-5
14130,-64,264,-2256,-46,15,-5
14135,-96,240,-2280,-46,15,-4
14140,-64,248,-2264,-47,16,-4
14145,-88,256,-2288,-49,15,-4
14150,-72,272,-2304,-50,15,-5
14155,-56,248,-2256,-49,14,-5
14160,-64,256,-2288,-46,14,-7
14165,-96,264,-2248,-46,16,-4
14170,-72,232,-2288,-44,17,-5
14175,-80,248,-2272,-44,17,-5
14180,-64,280,-2288,-45,16,-5
14185,-80,240,-2296,-46,17,-4
14190,-72,248,-2296,-47,17,-5
14195,-80,256,-2296,-44,17,-4
14200,-64,232,-2296,-45,16,-4
14205,-80,256,-2304,-43,18,-5
14210,-72,264,-2280,-44,18,-5
14215,-64,248,-2264,-44,17,-6
14220,-56,224,-2272,-44,17,-5
14225,-88,248,-2256,-43,18,-4
14230,-72,256,-2280,-42,17,-5
14235,-88,248,-2280,-43,17,-5
14240,-64,240,-2272,-44,17,-4
14245,-80,256,-2248,-45,15,-3
14250,-40,264,-2304,-44,15,-5
14255,-72,256,-2296,-46,17,-5
14260,-88,264,-2288,-46,18,-4
14265,-96,256,-2272,-46,17,-5
14270,-80,248,-2280,-44,17,-4
14275,-40,248,-2248,-46,17,-5
14280,-80,264,-2272,-45,16,-5
14285,-72,248,-2264,-46,16,-5
14290,-80,264,-2296,-47,17,-6
14295,-64,232,-2264,-46,17,-5
14300,-48,240,-2288,-44,17,-6
14305,-80,224,-2288,-44,18,-4
14310,-80,240,-2288,-43,18,-6
14315,-64,256,-2288,-45,19,-3
14320,-72,256,-2288,-45,18,-4
14325,-72,232,-2240,-44,17,-4
14330,-88,248,-2256,-44,17,-5
14335,-64,248,-2272,-43,16,-4
14340,-72,256,-2272,-45,18,-5
14345,-80,248,-2296,-44,17,-6
14350,-88,232,-2272,-43,17,-5
14355,-104,256,-2352,-44,16,-5
14360,-72,264,-2288,-44,17,-6
14365,-80,256,-2296,-42,16,-5
14370,-80,248,-2296,-44,17,-5
14375,-88,248,-2288,-44,17,-6
14380,-80,248,-2296,-46,18,-7
14385,-56,248,-2272,-45,17,-4
14390,-64,264,-2248,-45,17,-5
14395,-80,256,-2280,-44,17,-4
14400,-72,248,-2304,-46,16,-4
14405,-64,232,-2312,-47,17,-5
14410,-64,240,-2280,-45,16,-6
14415,-72,264,-2304,-46,17,-6
14420,-96,264,-2264,-46,17,-5
14425,-88,248,-2272,-48,16,-5
14430,-88,264,-2296,-48,17,-6
14435,-72,280,-2280,-49,16,-5
14440,-72,240,-2264,-46,17,-5
14445,-88,272,-2272,-47,17,-5
14450,-80,272,-2272,-46,16,-5
14455,-80,256,-2264,-45,15,-4
14460,-80,248,-2280,-45,16,-5
14465,-56,232,-2304,-44,16,-6
14470,-72,280,-2280,-45,16,-6
14475,-72,256,-2272,-44,17,-6
14480,-64,240,-2296,-43,16,-5
14485,-56,264,-2272,-45,16,-4
14490,-72,248,-2272,-45,16,-4
14495,-72,264,-2256,-46,16,-4
14500,-88,248,-2256,-45,16,-5
14505,-88,256,-2304,-43,17,-5
14510,-56,240,-2280,-44,17,-5
14515,-64,264,-2272,-45,17,-5
14520,-80,256,-2272,-45,18,-5
14525,-104,264,-2296,-45,17,-6
14530,-64,272,-2272,-47,17,-4
14535,-88,248,-2296,-47,18,-5
14540,-64,264,-2280,-46,17,-6
14545,-96,248,-2304,-47,18,-5
14550,-88,256,-2288,-45,18,-5
14555,-64,248,-2296,-45,17,-5
14560,-72,248,-2264,-45,17,-5
14565,-72,248,-2248,-45,17,-5
14570,-72,256,-2264,-44,18,-4
14575,-72,248,-2288,-46,18,-5
14580,-48,248,-2248,-47,18,-5
14585,-40,224,-2288,-45,17,-6
14590,-56,240,-2312,-46,17,-4
14595,-80,248,-2304,-48,17,-4
14600,-56,240,-2256,-47,17,-3
14605,-64,256,-2296,-44,18,-4
14610,-80,248,-2272,-45,16,-6
14615,-56,248,-2304,-45,17,-5
14620,-80,264,-2288,-44,18,-4
14625,-80,256,-2264,-46,18,-4
14630,-56,240,-2272,-44,16,-4
14635,-80,264,-2312,-46,17,-5
14640,-72,256,-2312,-46,17,-4
14645,-88,272,-2272,-47,17,-5
14650,-80,248,-2264,-46,16,-5
14655,-64,256,-2288,-48,18,-5
14660,-80,256,-2256,-45,18,-4
14665,-80,264,-2296,-45,16,-6
14670,-64,240,-2296,-42,17,-5
14675,-88,240,-2312,-44,17,-4
14680,-64,240,-2272,-42,17,-4
14685,-72,240,-2296,-44,17,-5
14690,-72,248,-2264,-45,17,-5
14695,-72,240,-2272,-46,16,-7
14700,-88,264,-2288,-46,15,-5
14705,-72,256,-2280,-46,16,-5
14710,-72,264,-2288,-46,15,-5
14715,-72,232,-2280,-44,16,-5
14720,-72,256,-2304,-44,15,-4
14725,-72,248,-2240,-44,16,-5
14730,-96,272,-2304,-47,17,-5
14735,-88,264,-2288,-45,18,-5
14740,-72,248,-2288,-46,18,-5
14745,-64,240,-2256,-44,18,-3
14750,-48,232,-2304,-42,19,-4
14755,-72,256,-2288,-43,17,-5
14760,-72,240,-2272,-43,17,-6
14765,-48,224,-2256,-45,17,-5
14770,-64,232,-2288,-42,15,-7
14775,-72,264,-2304,-43,16,-6
14780,-56,240,-2256,-45,15,-5
14785,-104,288,-2264,-46,15,-6
14790,0,288,-2240,-47,15,-6
14795,-56,272,-2200,-49,14,-5
14800,-48,168,-2288,-47,15,-4
14805,-64,256,-2288,-46,15,-6
14810,-104,256,-2304,-44,16,-6
14815,-88,248,-2280,-42,17,-4
14820,-72,240,-2320,-42,17,-5
14825,-72,256,-2304,-44,16,-6
14830,-72,208,-2272,-45,16,-5
14835,-104,384,-2312,-42,17,-6
14840,-64,240,-2264,-42,18,-6
14845,-88,248,-2264,-42,17,-5
14850,-88,264,-2304,-44,17,-5
14855,-64,256,-2280,-44,17,-4
14860,-80,304,-2328,-44,17,-5
14865,-32,296,-2320,-44,18,-4
14870,-56,272,-2256,-45,16,-4
14875,-120,272,-2296,-46,15,-4
14880,-64,272,-2264,-44,15,-4
14885,-32,224,-2312,-45,16,-4
14890,-104,272,-2296,-45,16,-4
14895,-96,248,-2328,-46,16,-5
14900,0,248,-2232,-48,17,-5
14905,-72,184,-2312,-47,17,-3
14910,-56,104,-2272,-47,16,-5
14915,-88,264,-2288,-47,17,-5
14920,-56,248,-2280,-47,17,-5
14925,-72,272,-2280,-46,17,-5
14930,-48,240,-2280,-47,18,-5
14935,-136,216,-2240,-47,18,-6
14940,-80,224,-2336,-49,17,-5
14945,-64,320,-2368,-48,18,-4
14950,-24,216,-2208,-48,17,-5
14955,-40,304,-2344,-47,18,-4
14960,-24,224,-2176,-45,18,-5
14965,64,224,-2256,-45,18,-4
14970,-40,264,-2352,-45,17,-4
14975,-72,280,-2240,-46,16,-5
14980,0,312,-2216,-45,16,-4
14985,-56,344,-2248,-44,17,-4
14990,-56,240,-2320,-44,17,-4
14995,-56,264,-2256,-46,17,-5
