timestamp,accel_x,accel_y,accel_z,gyro_x,gyro_y,gyro_z
0,-80,-1992,-40,-41,17,-8
5,-64,-2000,-40,-40,15,-7
10,-80,-2032,-40,-40,15,-7
15,-80,-1992,-16,-41,14,-7
20,-56,-1992,-64,-42,13,-8
25,-80,-2000,-56,-43,14,-10
30,-80,-2008,-32,-44,15,-9
35,-64,-1992,-32,-47,16,-11
40,-64,-1984,-32,-49,16,-9
45,-64,-1984,-16,-51,16,-9
50,-72,-2016,-32,-51,16,-8
55,-80,-1992,0,-50,16,-6
60,-88,-2008,-32,-51,17,-8
65,-72,-1992,-24,-52,17,-6
70,-96,-2016,-24,-53,17,-6
75,-72,-2016,-24,-55,19,-4
80,-80,-2008,-56,-54,20,-5
85,-80,-2000,-72,-56,18,-3
90,-80,-1992,-72,-59,21,-1
95,-80,-2016,-40,-61,22,0
100,-64,-1992,-48,-62,26,0
105,-56,-2016,-24,-64,26,1
110,-88,-2016,-32,-66,28,2
115,-64,-2032,-80,-68,31,1
120,-64,-2008,-64,-68,32,2
125,-80,-2016,-64,-71,33,2
130,-64,-2008,-40,-74,34,2
135,-80,-2000,-48,-79,33,3
140,-88,-1984,-56,-81,33,5
145,-96,-1984,-80,-85,35,7
150,-88,-2000,-80,-89,36,9
155,-88,-2008,-72,-93,37,9
160,-104,-1992,-48,-103,39,11
165,-112,-1984,-56,-109,41,11
170,-120,-1992,-64,-116,44,12
175,-104,-2000,-24,-119,49,11
180,-120,-1984,0,-119,49,12
185,-104,-2000,-24,-116,51,13
190,-120,-2024,-40,-114,51,13
195,-128,-2008,-24,-111,53,14
200,-112,-2024,-16,-113,54,15
205,-112,-2024,-24,-117,56,18
210,-120,-2024,-24,-120,57,20
215,-128,-2024,-40,-125,59,22
220,-136,-2000,-24,-132,55,25
225,-136,-2016,-24,-136,54,29
230,-144,-2008,-24,-140,53,32
235,-144,-1992,-48,-146,50,36
240,-152,-1992,-32,-150,49,39
245,-128,-1984,-16,-150,48,44
250,-168,-1976,-32,-151,51,48
255,-152,-1984,-24,-149,54,51
260,-128,-1984,16,-149,60,52
265,-136,-1984,-16,-150,65,54
270,-136,-1984,-8,-150,69,55
275,-160,-1992,-16,-151,74,52
280,-136,-1992,-24,-152,77,48
285,-128,-2000,-40,-153,80,44
290,-128,-2024,-24,-155,85,39
295,-144,-1984,-40,-155,89,32
300,-136,-2008,-40,-157,94,24
305,-128,-1984,-48,-159,101,17
310,-128,-1976,-32,-160,106,9
315,-144,-2000,-40,-163,109,2
320,-128,-1984,-48,-162,113,-5
325,-128,-2000,-48,-161,119,-12
330,-128,-1968,-32,-156,127,-17
335,-128,-1984,-40,-151,136,-23
340,-136,-1984,-16,-145,145,-29
345,-120,-1976,0,-142,154,-34
350,-128,-1976,16,-138,161,-39
355,-128,-1984,-8,-134,170,-43
360,-120,-1960,-32,-132,177,-48
365,-104,-1992,0,-129,185,-54
370,-128,-1984,16,-127,192,-60
375,-120,-1984,-16,-128,199,-66
380,-120,-1984,-8,-127,205,-71
385,-120,-1984,64,-129,212,-77
390,-128,-1984,0,-132,218,-85
395,-120,-2000,8,-134,223,-91
400,-128,-1976,8,-133,230,-96
405,-184,-1960,24,-136,231,-103
410,-160,-2000,-24,-144,230,-107
415,-136,-1992,-32,-151,227,-108
420,-176,-2000,-8,-164,222,-111
425,-224,-2016,-32,-177,214,-108
430,-232,-2008,-56,-194,201,-104
435,-192,-2024,-16,-210,191,-99
440,-240,-2032,-32,-223,183,-95
445,-168,-2016,-56,-229,179,-92
450,-176,-2016,-40,-233,182,-94
455,-168,-2000,-24,-234,188,-100
460,-144,-2024,-32,-232,193,-103
465,-176,-1992,-24,-228,197,-107
470,-128,-2008,-72,-227,199,-111
475,-176,-1984,-40,-231,198,-118
480,-152,-1960,-56,-234,194,-122
485,-136,-1984,-64,-237,189,-126
490,-136,-1992,-80,-243,183,-130
495,-128,-1976,-104,-244,177,-135
500,-128,-1992,-128,-247,173,-138
505,-128,-2024,-104,-247,174,-141
510,-128,-2016,-96,-250,177,-144
515,-56,-2104,-128,-251,181,-146
520,-72,-2056,-144,-251,184,-150
525,-72,-2016,-160,-252,191,-153
530,-24,-2056,-200,-252,200,-157
535,-16,-2016,-208,-255,209,-163
540,8,-2024,-216,-260,224,-166
545,16,-2008,-256,-265,244,-170
550,24,-1984,-264,-270,270,-172
555,64,-1976,-288,-277,299,-172
560,40,-1968,-344,-277,329,-173
565,112,-1960,-312,-279,361,-176
570,112,-1904,-344,-287,394,-177
575,184,-1880,-344,-297,426,-174
580,208,-1880,-336,-311,459,-173
585,248,-1792,-376,-330,493,-169
590,256,-1760,-344,-356,526,-160
595,288,-1736,-304,-374,558,-154
600,352,-1696,-280,-393,589,-150
605,376,-1656,-272,-411,616,-141
610,392,-1664,-192,-423,642,-130
615,408,-1656,-160,-429,664,-123
620,416,-1696,-136,-427,683,-117
625,392,-1752,-96,-424,700,-110
630,408,-1816,-64,-420,712,-105
635,392,-1856,-56,-416,718,-98
640,392,-1984,-16,-413,717,-95
645,368,-2032,0,-408,709,-94
650,336,-2160,-8,-402,695,-92
655,280,-2256,-32,-393,673,-93
660,240,-2360,-8,-383,647,-96
665,176,-2416,-64,-370,617,-99
670,112,-2488,-56,-356,592,-102
675,48,-2528,-64,-339,571,-107
680,-8,-2552,-80,-323,548,-113
685,-80,-2520,-56,-305,531,-116
690,-128,-2544,-64,-290,514,-127
695,-168,-2560,-32,-277,500,-139
700,-144,-2520,-16,-255,493,-151
705,-224,-2456,-16,-225,490,-170
710,-224,-2432,32,-194,490,-190
715,-200,-2376,24,-151,492,-206
720,-192,-2312,48,-91,500,-230
725,-160,-2256,24,-41,505,-253
730,-144,-2176,8,-14,509,-274
735,-120,-2120,56,-11,511,-289
740,-96,-2096,16,-16,516,-304
745,-64,-2016,32,-18,516,-314
750,0,-2008,72,-26,520,-315
755,24,-1960,80,-35,520,-312
760,88,-1912,40,-45,515,-307
765,112,-1832,40,-67,510,-301
770,136,-1840,32,-104,506,-288
775,176,-1808,48,-133,500,-275
780,224,-1800,32,-153,496,-263
785,224,-1784,0,-162,491,-257
790,288,-1800,-16,-169,480,-251
795,256,-1768,-16,-168,469,-246
800,304,-1800,0,-171,458,-238
805,288,-1824,-24,-177,444,-229
810,304,-1800,-8,-177,428,-221
815,304,-1840,24,-175,412,-213
820,296,-1856,8,-174,394,-208
825,264,-1856,-16,-171,376,-207
830,272,-1864,-56,-175,360,-204
835,248,-1848,-40,-176,346,-203
840,256,-1840,-40,-180,335,-203
845,256,-1824,-56,-184,330,-203
850,240,-1856,-56,-184,331,-205
855,224,-1840,-32,-186,338,-208
860,232,-1880,-8,-188,345,-212
865,208,-1888,-56,-189,352,-215
870,224,-1904,8,-185,359,-215
875,224,-1928,8,-179,363,-211
880,232,-1952,32,-173,364,-205
885,240,-1976,8,-161,364,-196
890,240,-1992,0,-148,363,-186
895,256,-2000,16,-134,362,-176
900,248,-1984,40,-118,358,-165
905,264,-2008,0,-103,352,-152
910,256,-1984,-32,-95,347,-138
915,280,-2000,-32,-92,340,-122
920,264,-2008,-24,-99,330,-108
925,272,-1976,-32,-104,317,-91
930,248,-2000,-48,-106,304,-78
935,248,-1992,8,-104,286,-64
940,232,-1992,24,-104,268,-52
945,248,-2000,24,-102,246,-39
950,216,-2008,8,-102,223,-27
955,224,-2048,16,-99,203,-17
960,184,-2040,24,-94,185,-11
965,168,-2056,64,-91,169,-7
970,184,-2064,16,-91,151,-4
975,176,-2088,56,-89,135,-4
980,192,-2096,40,-82,123,-5
985,168,-2080,32,-73,117,-7
990,160,-2032,16,-69,113,-8
995,184,-2000,8,-77,111,-5
1000,200,-2032,16,-86,112,-5
1005,216,-2008,40,-92,113,-6
1010,240,-2016,80,-91,117,-9
1015,256,-2008,112,-83,119,-10
1020,296,-2016,152,-74,118,-11
1025,304,-2000,144,-62,113,-8
1030,304,-2032,224,-53,102,-3
1035,328,-2008,240,-47,88,1
1040,312,-2024,224,-44,72,10
1045,328,-2056,272,-47,56,24
1050,360,-2056,168,-49,40,35
1055,360,-2064,168,-55,23,45
1060,376,-2096,200,-66,12,53
1065,384,-2104,200,-71,4,60
1070,384,-2120,168,-76,0,62
1075,392,-2160,152,-80,0,60
1080,384,-2200,128,-83,3,55
1085,400,-2264,104,-83,10,46
1090,400,-2288,48,-78,17,36
1095,416,-2368,48,-68,22,24
1100,320,-2432,56,-50,24,7
1105,392,-2528,8,-31,22,-12
1110,368,-2592,56,-10,17,-34
1115,304,-2616,16,13,14,-57
1120,296,-2672,-16,35,5,-79
1125,272,-2648,-72,56,-7,-95
1130,272,-2680,-160,78,-15,-109
1135,240,-2664,-208,90,-14,-121
1140,256,-2680,-240,102,-9,-126
1145,296,-2648,-328,130,13,-131
1150,120,-2544,-424,182,64,-143
1155,80,-2480,-552,204,95,-131
1160,128,-2424,-584,173,87,-93
1165,136,-2432,-648,142,83,-52
1170,152,-2392,-672,119,89,-11
1175,168,-2312,-664,107,101,25
1180,152,-2296,-672,101,107,53
1185,160,-2248,-672,100,106,77
1190,192,-2216,-728,103,98,96
1195,184,-2184,-744,103,87,112
1200,176,-2128,-744,102,68,127
1205,192,-2096,-744,98,43,136
1210,144,-2032,-760,92,15,140
1215,120,-1984,-776,85,-16,139
1220,104,-1928,-792,80,-47,133
1225,64,-1880,-776,69,-75,123
1230,-8,-1840,-760,60,-97,108
1235,-40,-1824,-760,54,-114,94
1240,-112,-1768,-728,48,-122,82
1245,-128,-1728,-704,46,-123,68
1250,-168,-1752,-672,51,-112,54
1255,-192,-1752,-592,59,-92,45
1260,-208,-1768,-560,70,-67,34
1265,-208,-1760,-512,86,-39,25
1270,-192,-1800,-496,96,-14,22
1275,-208,-1856,-432,104,9,22
1280,-216,-1888,-400,110,32,32
1285,-208,-1920,-352,114,60,45
1290,-184,-1976,-336,115,90,62
1295,-152,-1992,-304,115,118,79
1300,-112,-2048,-288,112,146,99
1305,-104,-2056,-272,106,170,126
1310,-80,-2088,-280,94,188,152
1315,-64,-2096,-232,79,194,176
1320,-40,-2128,-248,65,192,202
1325,-40,-2120,-216,52,186,231
1330,-48,-2144,-288,41,177,259
1335,-16,-2120,-272,30,172,285
1340,-8,-2056,-312,23,160,309
1345,-16,-2032,-336,12,152,333
1350,16,-1984,-352,3,144,351
1355,8,-1968,-312,-4,137,366
1360,8,-1904,-344,-7,123,377
1365,-16,-1880,-352,-6,104,387
1370,-8,-1824,-328,1,80,389
1375,-24,-1800,-328,6,52,387
1380,32,-1720,-272,10,20,379
1385,-88,-1728,-328,10,-11,371
1390,-96,-1696,-288,10,-35,354
1395,-104,-1704,-288,8,-56,340
1400,-112,-1720,-288,1,-70,325
1405,-104,-1720,-280,-3,-75,307
1410,-144,-1704,-272,-14,-72,293
1415,-152,-1704,-296,-26,-61,279
1420,-144,-1760,-240,-37,-45,268
1425,-184,-1736,-216,-44,-27,259
1430,-184,-1752,-208,-48,-4,253
1435,-192,-1784,-200,-57,18,249
1440,-208,-1800,-224,-68,38,251
1445,-208,-1776,-192,-81,55,253
1450,-232,-1784,-192,-98,68,258
1455,-216,-1816,-160,-114,80,265
1460,-200,-1848,-192,-126,90,273
1465,-184,-1880,-128,-138,97,279
1470,-200,-1880,-96,-147,102,285
1475,-168,-1912,-136,-151,106,290
1480,-168,-1912,-104,-152,109,293
1485,-144,-1952,-64,-153,108,296
1490,-176,-1904,-16,-147,109,296
1495,-128,-1928,-24,-143,107,296
1500,-120,-1896,0,-129,108,286
1505,-136,-1912,40,-109,118,271
1510,-128,-1872,24,-85,128,255
1515,-168,-1864,48,-62,138,237
1520,-144,-1880,64,-38,152,215
1525,-136,-1872,88,-12,176,187
1530,-120,-1872,72,14,203,164
1535,-120,-1872,96,36,234,132
1540,-128,-1872,96,56,265,100
1545,-112,-1872,160,77,295,69
1550,-88,-1904,120,94,322,38
1555,-72,-1888,128,113,353,11
1560,-48,-1888,120,126,381,-18
1565,-32,-1904,128,134,408,-47
1570,-56,-1880,104,140,429,-74
1575,-32,-1880,72,139,444,-98
1580,-8,-1888,64,133,449,-120
1585,8,-1848,-16,127,452,-140
1590,40,-1856,-64,112,456,-153
1595,-40,-1880,-32,90,459,-167
1600,8,-1880,-48,87,455,-171
1605,-8,-1880,-56,90,442,-173
1610,-48,-1944,-24,89,433,-175
1615,-104,-1976,-16,86,422,-172
1620,-128,-2024,40,85,411,-165
1625,-208,-2064,64,87,399,-154
1630,-264,-2128,56,91,388,-140
1635,-336,-2208,72,96,380,-120
1640,-360,-2248,104,102,373,-98
1645,-424,-2296,136,113,368,-72
1650,-424,-2296,176,122,365,-49
1655,-408,-2352,200,135,358,-18
1660,-448,-2344,272,147,350,3
1665,-440,-2336,288,162,341,23
1670,-416,-2360,296,183,329,39
1675,-432,-2336,328,211,318,54
1680,-416,-2296,336,249,311,69
1685,-376,-2248,344,286,306,75
1690,-344,-2256,336,323,306,73
1695,-320,-2200,360,361,314,71
1700,-272,-2208,336,387,326,68
1705,-216,-2200,264,412,345,69
1710,-184,-2272,168,421,372,71
1715,-136,-2344,80,414,408,73
1720,-88,-2424,-56,387,446,71
1725,-96,-2504,-128,339,481,68
1730,-120,-2592,-240,278,503,58
1735,-128,-2672,-320,208,506,52
1740,-128,-2752,-352,151,492,54
1745,-136,-2776,-352,118,465,58
1750,-192,-2736,-400,114,421,69
1755,-248,-2680,-448,133,365,87
1760,-264,-2584,-512,161,307,105
1765,-296,-2472,-576,188,253,120
1770,-272,-2376,-688,207,209,133
1775,-240,-2248,-808,213,178,142
1780,-200,-2168,-912,198,160,152
1785,-152,-2088,-984,167,155,161
1790,-128,-2008,-1016,125,158,170
1795,-72,-1976,-1000,78,169,178
1800,-8,-1912,-936,35,176,186
1805,56,-1856,-880,8,180,194
1810,176,-1728,-752,-2,188,205
1815,208,-1704,-664,4,205,219
1820,272,-1688,-584,25,232,227
1825,320,-1664,-480,52,268,232
1830,424,-1680,-368,81,304,230
1835,432,-1704,-320,112,334,220
1840,440,-1784,-256,140,357,202
1845,464,-1840,-176,165,360,182
1850,448,-1904,-160,190,348,160
1855,440,-1984,-184,212,316,131
1860,400,-2048,-160,231,269,99
1865,368,-2136,-184,240,208,63
1870,336,-2184,-224,238,149,28
1875,256,-2288,-272,225,91,-11
1880,168,-2360,-304,195,34,-51
1885,80,-2416,-336,155,-16,-90
1890,40,-2448,-392,109,-58,-132
1895,-48,-2448,-408,57,-88,-171
1900,-128,-2480,-384,4,-107,-204
1905,-184,-2448,-384,-39,-118,-233
1910,-264,-2456,-360,-76,-126,-256
1915,-328,-2432,-296,-105,-132,-272
1920,-360,-2360,-320,-122,-134,-277
1925,-280,-2288,-280,-129,-126,-274
1930,-248,-2192,-280,-121,-105,-263
1935,-200,-2104,-280,-106,-82,-253
1940,-128,-2000,-272,-89,-57,-243
1945,-104,-1928,-304,-75,-32,-232
1950,-56,-1856,-280,-68,-7,-224
1955,-24,-1752,-288,-66,11,-216
1960,32,-1728,-296,-72,26,-210
1965,64,-1664,-248,-83,36,-206
1970,88,-1592,-256,-98,39,-203
1975,104,-1568,-248,-116,32,-202
1980,104,-1544,-224,-139,19,-204
1985,144,-1520,-192,-162,3,-209
1990,184,-1520,-160,-184,-18,-215
1995,192,-1504,-152,-202,-40,-222
2000,208,-1504,-168,-216,-62,-230
2005,208,-1512,-152,-227,-81,-240
2010,184,-1496,-144,-239,-99,-252
2015,208,-1528,-128,-256,-117,-262
2020,192,-1544,-136,-277,-132,-273
2025,168,-1616,-232,-298,-148,-285
2030,176,-1624,-184,-316,-166,-296
2035,184,-1648,-160,-331,-187,-307
2040,176,-1704,-144,-343,-211,-317
2045,192,-1712,-144,-350,-237,-327
2050,168,-1768,-160,-353,-260,-336
2055,184,-1792,-168,-352,-280,-341
2060,144,-1824,-104,-346,-298,-345
2065,144,-1840,-88,-337,-311,-344
2070,112,-1824,-72,-324,-317,-334
2075,152,-1848,-32,-300,-323,-319
2080,96,-1864,0,-276,-330,-300
2085,64,-1832,0,-249,-339,-271
2090,40,-1832,48,-217,-350,-239
2095,-16,-1832,64,-183,-366,-203
2100,-32,-1808,64,-147,-389,-163
2105,-80,-1784,88,-106,-419,-118
2110,-96,-1760,104,-64,-459,-68
2115,-152,-1752,120,-25,-501,-15
2120,-168,-1720,176,14,-544,39
2125,-216,-1704,168,50,-580,89
2130,-232,-1712,176,78,-611,136
2135,-232,-1704,168,102,-628,178
2140,-200,-1720,152,124,-635,217
2145,-200,-1712,96,136,-629,248
2150,-168,-1704,72,138,-616,268
2155,-128,-1704,64,130,-594,281
2160,-72,-1744,8,110,-568,286
2165,-24,-1768,-48,82,-538,283
2170,0,-1792,-48,47,-509,273
2175,32,-1816,-72,10,-481,258
2180,96,-1880,-64,-27,-460,240
2185,152,-1952,-56,-62,-440,221
2190,240,-1992,-24,-92,-417,200
2195,272,-2104,24,-114,-389,177
2200,320,-2224,72,-125,-357,149
2205,392,-2344,128,-138,-323,118
2210,448,-2424,208,-143,-287,82
2215,496,-2536,264,-138,-252,41
2220,600,-2576,272,-128,-220,-7
2225,568,-2608,304,-114,-191,-57
2230,624,-2640,344,-98,-166,-104
2235,632,-2584,304,-87,-139,-149
2240,656,-2544,296,-83,-112,-190
2245,624,-2520,304,-77,-89,-218
2250,616,-2416,312,-76,-69,-236
2255,624,-2368,360,-71,-55,-246
2260,592,-2296,384,-61,-44,-248
2265,576,-2224,416,-48,-45,-242
2270,568,-2200,456,-35,-54,-231
2275,480,-2160,464,-20,-65,-219
2280,496,-2152,440,-8,-75,-209
2285,456,-2160,432,-5,-79,-205
2290,384,-2208,344,-14,-74,-210
2295,320,-2272,272,-39,-60,-222
2300,232,-2352,176,-82,-41,-240
2305,168,-2480,72,-136,-20,-256
2310,120,-2536,24,-193,2,-270
2315,96,-2648,-32,-247,21,-283
2320,80,-2688,-32,-284,39,-292
2325,88,-2720,-120,-304,57,-297
2330,104,-2712,-120,-302,77,-302
2335,112,-2680,-136,-273,96,-300
2340,136,-2632,-192,-225,115,-290
2345,192,-2584,-248,-170,137,-271
2350,208,-2552,-312,-116,164,-245
2355,200,-2464,-416,-71,193,-213
2360,176,-2448,-488,-34,229,-181
2365,160,-2400,-584,-14,258,-148
2370,152,-2376,-680,5,278,-120
2375,136,-2368,-712,18,281,-101
2380,104,-2328,-776,26,264,-83
2385,64,-2248,-824,27,222,-69
2390,24,-2168,-880,20,162,-57
2395,-56,-2080,-832,11,90,-49
2400,-96,-1992,-840,5,12,-40
2405,-192,-1904,-832,10,-63,-37
2410,-216,-1800,-768,25,-118,-38
2415,-280,-1704,-712,48,-174,-42
2420,-320,-1688,-688,74,-211,-51
2425,-384,-1632,-616,99,-228,-64
2430,-408,-1648,-600,115,-229,-76
2435,-424,-1680,-544,117,-220,-87
2440,-424,-1704,-512,109,-206,-95
2445,-464,-1744,-528,97,-186,-99
2450,-432,-1800,-480,77,-160,-97
2455,-408,-1824,-504,54,-128,-90
2460,-384,-1888,-472,21,-88,-81
2465,-312,-1896,-488,-12,-44,-70
2470,-256,-1968,-464,-48,-1,-51
2475,-200,-2008,-440,-87,42,-30
2480,-128,-2048,-432,-125,81,-6
2485,-72,-2080,-360,-162,115,23
2490,0,-2128,-304,-195,143,53
2495,56,-2184,-328,-220,167,89
2500,120,-2200,-288,-234,185,127
2505,176,-2184,-288,-240,197,167
2510,200,-2200,-240,-236,202,205
2515,256,-2216,-208,-224,202,242
2520,272,-2176,-224,-208,192,275
2525,264,-2080,-176,-189,178,307
2530,256,-2032,-192,-164,157,330
2535,224,-1968,-184,-141,132,348
2540,216,-1872,-192,-117,108,362
2545,200,-1800,-216,-100,88,371
2550,144,-1720,-192,-85,74,377
2555,136,-1664,-208,-72,63,381
2560,88,-1640,-192,-65,54,381
2565,16,-1544,-248,-62,52,377
2570,-16,-1504,-272,-64,53,370
2575,-24,-1488,-288,-73,59,361
2580,-72,-1472,-288,-86,69,347
2585,-104,-1472,-272,-103,83,329
2590,-128,-1464,-256,-119,97,310
2595,-144,-1480,-248,-137,115,287
2600,-160,-1496,-208,-154,131,267
2605,-168,-1536,-200,-165,148,249
2610,-208,-1560,-176,-169,165,230
2615,-248,-1576,-120,-169,186,213
2620,-232,-1632,-96,-168,210,201
2625,-232,-1680,-96,-161,236,186
2630,-216,-1744,-40,-148,261,179
2635,-224,-1792,-56,-136,287,173
2640,-216,-1800,-40,-120,313,170
2645,-200,-1856,-40,-108,339,166
2650,-160,-1888,-32,-99,362,165
2655,-184,-1904,-16,-90,382,167
2660,-152,-1928,48,-77,398,167
2665,-160,-1944,64,-62,410,168
2670,-160,-1936,72,-49,420,167
2675,-136,-1920,120,-36,433,164
2680,-144,-1888,136,-24,451,156
2685,-144,-1848,176,-11,470,146
2690,-120,-1856,160,5,486,131
2695,-128,-1824,192,21,500,113
2700,-96,-1840,248,37,512,91
2705,-96,-1840,176,46,518,66
2710,-88,-1848,200,48,521,42
2715,-64,-1888,176,49,525,18
2720,-24,-1920,152,44,531,-11
2725,-56,-1912,112,43,538,-40
2730,-40,-1968,112,39,549,-72
2735,-16,-1960,88,43,563,-100
2740,0,-1976,64,48,577,-130
2745,0,-1992,40,58,584,-158
2750,-24,-2016,40,66,579,-185
2755,-64,-2032,8,73,559,-205
2760,-104,-2040,8,78,528,-220
2765,-144,-2112,64,80,486,-227
2770,-208,-2160,64,83,444,-224
2775,-280,-2240,48,85,401,-212
2780,-360,-2288,88,92,367,-191
2785,-432,-2368,88,109,346,-160
2790,-464,-2392,112,130,335,-122
2795,-536,-2432,136,154,331,-78
2800,-576,-2424,160,170,328,-29
2805,-608,-2456,160,183,325,22
2810,-616,-2448,192,193,319,77
2815,-544,-2392,176,201,308,128
2820,-544,-2392,288,189,312,171
2825,-456,-2352,312,209,301,202
2830,-400,-2272,392,245,289,220
2835,-312,-2192,416,284,281,225
2840,-208,-2152,504,317,283,214
2845,-136,-2136,560,362,283,200
2850,-120,-2048,544,421,292,178
2855,-88,-2024,480,459,308,152
2860,-104,-2072,344,468,327,126
2865,-112,-2168,184,444,353,107
2870,-120,-2296,24,387,377,93
2875,-120,-2456,-136,298,399,81
2880,-112,-2576,-264,193,418,68
2885,-120,-2688,-384,105,426,59
2890,-120,-2752,-440,47,419,52
2895,-176,-2832,-520,28,404,53
2900,-208,-2840,-624,40,377,60
2905,-208,-2808,-688,75,349,77
2910,-208,-2720,-760,119,318,102
2915,-152,-2608,-832,152,289,131
2920,-112,-2504,-928,167,263,159
2925,-104,-2384,-936,168,243,191
2930,-24,-2272,-976,168,222,221
2935,-24,-2128,-1008,165,204,250
2940,0,-2008,-960,162,196,277
2945,64,-1928,-936,154,196,304
2950,152,-1848,-872,142,196,326
2955,200,-1760,-760,135,199,345
2960,296,-1704,-656,137,205,365
2965,352,-1704,-552,145,212,376
2970,384,-1712,-448,155,219,383
2975,424,-1736,-384,162,225,384
2980,424,-1824,-272,165,230,378
2985,432,-1912,-200,167,237,361
2990,448,-2000,-112,171,241,335
2995,384,-2096,-72,176,239,298
3000,328,-2232,-48,186,229,255
3005,288,-2288,8,195,209,208
3010,224,-2400,32,208,178,154
3015,152,-2472,-16,215,137,97
3020,64,-2496,-64,216,87,42
3025,-24,-2528,-144,212,32,-16
3030,-120,-2544,-208,194,-25,-70
3035,-216,-2536,-288,167,-76,-123
3040,-280,-2528,-320,134,-119,-171
3045,-368,-2496,-360,101,-153,-211
3050,-408,-2464,-336,69,-178,-242
3055,-448,-2392,-320,46,-193,-259
3060,-480,-2304,-288,33,-210,-269
3065,-456,-2224,-248,31,-223,-274
3070,-424,-2080,-256,34,-232,-274
3075,-400,-1984,-248,36,-234,-269
3080,-360,-1896,-248,32,-230,-261
3085,-320,-1768,-224,15,-215,-248
3090,-264,-1680,-240,-13,-200,-236
3095,-192,-1592,-168,-49,-188,-234
3100,-136,-1528,-168,-86,-178,-236
3105,-112,-1464,-144,-119,-176,-237
3110,-72,-1416,-112,-144,-179,-237
3115,-48,-1368,-88,-162,-188,-238
3120,-16,-1360,-88,-173,-200,-239
3125,32,-1336,-96,-179,-214,-246
3130,80,-1328,-48,-183,-230,-253
3135,88,-1328,-40,-188,-247,-262
3140,120,-1328,-72,-197,-262,-268
3145,144,-1344,-56,-208,-277,-275
3150,168,-1376,-104,-221,-294,-284
3155,200,-1408,-104,-234,-317,-292
3160,184,-1440,-88,-245,-346,-299
3165,192,-1504,-112,-257,-377,-308
3170,200,-1544,-96,-266,-411,-316
3175,184,-1600,-144,-276,-445,-322
3180,200,-1640,-144,-282,-470,-323
3185,192,-1704,-120,-285,-492,-326
3190,216,-1736,-104,-285,-513,-327
3195,192,-1752,-104,-278,-528,-324
3200,176,-1776,-80,-267,-541,-318
3205,144,-1768,-64,-249,-552,-306
3210,120,-1760,-8,-224,-564,-286
3215,72,-1784,0,-192,-572,-261
3220,72,-1752,72,-155,-581,-230
3225,64,-1744,72,-113,-586,-193
3230,56,-1744,104,-67,-590,-154
3235,40,-1712,192,-20,-593,-112
3240,16,-1704,192,25,-598,-70
3245,48,-1688,200,63,-604,-25
3250,-16,-1632,216,94,-611,22
3255,16,-1672,208,119,-617,68
3260,32,-1656,208,134,-620,112
3265,40,-1632,232,140,-621,150
3270,8,-1640,184,139,-620,188
3275,0,-1616,160,124,-615,221
3280,-16,-1624,200,98,-612,251
3285,-8,-1632,176,66,-615,275
3290,0,-1672,160,28,-615,293
3295,0,-1688,144,-14,-608,307
3300,48,-1776,128,-56,-584,311
3305,88,-1856,128,-97,-539,308
3310,136,-1920,120,-134,-481,291
3315,208,-2016,144,-169,-415,264
3320,296,-2184,224,-193,-348,226
3325,288,-2288,216,-209,-288,177
3330,432,-2424,296,-213,-241,123
3335,520,-2536,344,-215,-202,62
3340,576,-2632,376,-221,-166,-7
3345,648,-2680,368,-228,-131,-78
3350,672,-2712,392,-231,-93,-147
3355,704,-2680,448,-226,-51,-214
3360,696,-2656,464,-207,-7,-273
3365,664,-2576,448,-180,34,-323
3370,632,-2544,496,-144,67,-356
3375,624,-2472,552,-99,87,-370
3380,608,-2392,568,-51,98,-370
3385,560,-2312,552,-4,97,-360
3390,520,-2264,592,38,87,-342
3395,456,-2224,560,76,74,-319
3400,400,-2240,512,95,61,-302
3405,336,-2288,440,86,52,-293
3410,224,-2368,376,49,41,-289
3415,136,-2464,288,-9,32,-289
3420,64,-2560,184,-81,21,-290
3425,-8,-2696,80,-159,14,-290
3430,-104,-2760,-72,-225,13,-283
3435,-88,-2848,-112,-262,21,-272
3440,-72,-2848,-208,-257,33,-257
3445,-32,-2848,-320,-220,56,-242
3450,8,-2784,-416,-160,90,-225
3455,56,-2736,-584,-95,128,-205
3460,64,-2664,-712,-49,163,-188
3465,48,-2544,-856,-27,192,-167
3470,24,-2456,-936,-28,211,-147
3475,-16,-2368,-1032,-40,210,-129
3480,-24,-2296,-1032,-50,194,-115
3485,-56,-2200,-1024,-50,159,-106
3490,-16,-2128,-944,-44,111,-106
3495,-32,-2008,-920,-28,55,-114
3500,-64,-1936,-856,-9,1,-132
3505,-120,-1856,-760,9,-47,-154
3510,-160,-1792,-632,27,-88,-177
3515,-232,-1784,-512,38,-120,-201
3520,-256,-1784,-432,43,-142,-224
3525,-272,-1800,-392,48,-152,-244
3530,-328,-1824,-376,45,-147,-259
3535,-288,-1888,-336,34,-136,-266
3540,-344,-1928,-328,21,-120,-265
3545,-328,-1944,-344,5,-98,-257
3550,-312,-2000,-360,-11,-72,-239
3555,-296,-2040,-376,-31,-47,-212
3560,-240,-2072,-376,-55,-10,-178
3565,-176,-2120,-360,-83,29,-139
3570,-128,-2136,-392,-110,74,-94
3575,-56,-2184,-328,-136,117,-44
3580,-8,-2224,-320,-154,162,8
3585,48,-2256,-272,-168,205,53
3590,144,-2256,-264,-183,247,110
3595,184,-2272,-208,-196,285,167
3600,232,-2288,-200,-213,318,221
3605,240,-2264,-176,-226,338,268
3610,272,-2216,-184,-231,349,306
3615,296,-2160,-168,-231,349,335
3620,272,-2096,-184,-227,337,352
3625,256,-2000,-168,-221,316,360
3630,240,-1928,-184,-218,292,360
3635,216,-1848,-216,-219,266,354
3640,208,-1784,-224,-221,241,346
3645,168,-1704,-248,-225,222,334
3650,136,-1608,-232,-227,214,320
3655,128,-1544,-240,-224,216,304
3660,96,-1496,-208,-217,225,289
3665,104,-1456,-224,-213,240,271
3670,88,-1400,-224,-207,260,254
3675,72,-1392,-240,-204,284,236
3680,56,-1352,-248,-205,309,219
3685,32,-1328,-232,-213,332,201
3690,0,-1336,-216,-225,355,189
3695,-48,-1344,-192,-234,382,177
3700,-56,-1344,-184,-249,409,170
3705,-72,-1392,-128,-261,432,164
3710,-72,-1416,-128,-271,459,156
3715,-96,-1464,-112,-278,493,150
3720,-112,-1480,-80,-285,525,142
3725,-112,-1504,-64,-289,559,135
3730,-128,-1560,-72,-291,589,132
3735,-120,-1608,-64,-288,616,131
3740,-136,-1656,-24,-281,637,130
3745,-144,-1696,-32,-268,657,129
3750,-184,-1736,0,-250,669,130
3755,-216,-1760,24,-232,674,127
3760,-216,-1776,40,-211,673,126
3765,-216,-1832,64,-185,669,120
3770,-216,-1816,104,-157,661,112
3775,-176,-1808,136,-127,655,97
3780,-168,-1816,128,-93,648,80
3785,-144,-1800,160,-55,642,56
3790,-120,-1792,200,-21,637,26
3795,-128,-1768,176,11,630,-8
3800,-120,-1760,152,37,623,-44
3805,-136,-1752,128,54,614,-78
3810,-152,-1752,96,62,602,-113
3815,-136,-1776,72,60,591,-144
3820,-152,-1808,64,50,583,-175
3825,-144,-1824,0,33,579,-205
3830,-144,-1888,-32,13,580,-234
3835,-168,-1904,-24,-12,575,-263
3840,-128,-1960,-32,-36,563,-286
3845,-128,-2000,-40,-62,539,-306
3850,-136,-2016,-48,-85,506,-322
3855,-176,-2088,-16,-102,468,-326
3860,-184,-2136,16,-111,428,-321
3865,-200,-2184,32,-110,385,-301
3870,-256,-2232,112,-107,344,-270
3875,-272,-2256,144,-96,310,-227
3880,-328,-2296,168,-81,280,-178
3885,-336,-2360,184,-62,254,-125
3890,-352,-2376,184,-45,233,-66
3895,-360,-2400,208,-32,212,-1
3900,-344,-2432,208,-25,196,62
3905,-336,-2440,232,-26,184,120
3910,-296,-2464,272,-29,176,168
3915,-272,-2424,304,-33,172,211
3920,-208,-2424,360,-30,168,242
3925,-144,-2384,408,-12,174,255
3930,-104,-2368,424,17,197,255
3935,-32,-2328,464,41,222,239
3940,8,-2304,512,59,252,215
3945,88,-2240,568,81,287,187
3950,128,-2224,632,104,326,151
3955,152,-2176,648,131,361,114
3960,184,-2176,608,165,389,80
3965,192,-2168,576,193,417,58
3970,104,-2288,496,209,437,36
3975,144,-2296,240,207,444,22
3980,128,-2416,16,163,456,13
3985,64,-2520,-184,84,475,8
3990,16,-2656,-344,-14,494,2
3995,-72,-2744,-456,-105,498,-1
4000,-168,-2800,-576,-166,482,0
4005,-280,-2864,-696,-182,447,10
4010,-328,-2880,-712,-162,400,27
4015,-424,-2848,-760,-113,350,50
4020,-480,-2784,-840,-49,298,80
4025,-512,-2688,-912,14,252,112
4030,-472,-2552,-968,60,215,141
4035,-424,-2456,-1040,84,191,170
4040,-376,-2296,-1048,90,171,199
4045,-264,-2176,-1096,91,158,228
4050,-248,-2048,-1088,89,158,257
4055,-128,-1944,-1048,87,166,286
4060,-32,-1840,-984,85,180,313
4065,80,-1736,-896,85,194,335
4070,152,-1648,-776,97,209,353
4075,328,-1576,-648,114,223,368
4080,312,-1536,-504,130,234,380
4085,360,-1560,-416,146,239,391
4090,408,-1560,-264,158,236,398
4095,440,-1624,-192,161,232,398
4100,448,-1736,-96,158,229,387
4105,424,-1832,0,153,221,367
4110,408,-1984,-40,144,208,335
4115,344,-2128,16,129,186,292
4120,280,-2248,-8,108,154,245
4125,184,-2368,-88,88,111,192
4130,168,-2456,-96,74,58,137
4135,64,-2504,-184,61,-1,78
4140,-24,-2560,-232,38,-64,16
4145,-104,-2560,-280,6,-125,-45
4150,-168,-2584,-376,-29,-181,-101
4155,-240,-2600,-376,-61,-221,-149
4160,-288,-2592,-376,-77,-246,-187
4165,-368,-2536,-336,-87,-261,-219
4170,-408,-2512,-368,-81,-263,-238
4175,-416,-2424,-392,-66,-252,-243
4180,-424,-2328,-368,-58,-222,-237
4185,-424,-2240,-368,-57,-183,-227
4190,-392,-2112,-368,-58,-151,-218
4195,-320,-2024,-368,-64,-123,-206
4200,-296,-1944,-328,-73,-98,-196
4205,-192,-1872,-296,-85,-79,-184
4210,-128,-1752,-272,-94,-69,-174
4215,-40,-1728,-224,-101,-71,-171
4220,-40,-1632,-208,-106,-71,-168
4225,32,-1520,-184,-107,-76,-166
4230,88,-1488,-168,-110,-88,-164
4235,152,-1440,-128,-117,-108,-167
4240,176,-1384,-128,-126,-132,-172
4245,216,-1328,-104,-135,-156,-175
4250,224,-1296,-64,-147,-187,-184
4255,248,-1280,-72,-154,-226,-198
4260,256,-1288,-32,-159,-265,-212
4265,216,-1272,-64,-163,-307,-230
4270,216,-1296,-40,-169,-348,-243
4275,168,-1344,-32,-172,-387,-254
4280,112,-1376,-40,-177,-429,-264
4285,104,-1456,-40,-186,-472,-270
4290,48,-1456,-72,-199,-522,-275
4295,16,-1536,-112,-216,-571,-280
4300,-16,-1576,-72,-232,-617,-282
4305,-8,-1624,-80,-247,-665,-285
4310,-56,-1656,-96,-258,-707,-284
4315,-72,-1672,-72,-259,-740,-277
4320,-80,-1712,-72,-255,-761,-264
4325,-96,-1696,-40,-246,-771,-242
4330,-112,-1736,0,-228,-774,-215
4335,-104,-1744,16,-202,-772,-183
4340,-112,-1704,48,-171,-764,-145
4345,-120,-1672,48,-136,-757,-102
4350,-112,-1680,64,-96,-752,-61
4355,-72,-1680,120,-48,-749,-17
4360,-64,-1656,152,-1,-747,26
4365,-40,-1656,192,45,-750,67
4370,-8,-1672,184,85,-751,107
4375,16,-1672,192,118,-750,146
4380,40,-1712,192,140,-748,181
4385,32,-1752,192,152,-750,215
4390,64,-1768,152,153,-751,245
4395,72,-1776,104,146,-754,271
4400,32,-1824,80,130,-752,293
4405,112,-1824,16,97,-746,311
4410,120,-1856,-48,58,-729,326
4415,120,-1872,-88,10,-697,334
4420,208,-1904,-152,-38,-652,331
4425,216,-1912,-168,-84,-600,316
4430,264,-1992,-128,-124,-545,284
4435,296,-2088,-40,-161,-496,241
4440,336,-2240,64,-184,-455,186
4445,392,-2384,120,-192,-417,125
4450,448,-2512,248,-197,-379,57
4455,472,-2592,336,-199,-337,-12
4460,528,-2688,392,-195,-289,-81
4465,568,-2720,440,-186,-239,-150
4470,592,-2736,488,-171,-185,-221
4475,632,-2704,448,-152,-133,-286
4480,640,-2640,488,-127,-90,-345
4485,632,-2552,536,-96,-56,-388
4490,616,-2480,552,-58,-33,-412
4495,592,-2416,552,-17,-24,-420
4500,544,-2320,544,17,-31,-409
4505,536,-2232,520,50,-47,-388
4510,496,-2176,408,81,-57,-370
4515,432,-2248,336,98,-50,-358
4520,368,-2344,240,82,-28,-355
4525,256,-2488,112,26,-4,-357
4530,136,-2608,64,-53,14,-363
4535,48,-2792,-16,-148,31,-368
4540,-24,-2952,-64,-232,47,-373
4545,40,-3064,-152,-291,69,-378
4550,88,-3136,-152,-311,95,-389
4555,144,-3112,-160,-288,114,-403
4560,136,-3040,-152,-228,126,-405
4565,136,-2984,-240,-138,125,-383
4570,160,-2840,-352,-44,116,-346
4575,144,-2672,-544,31,107,-304
4580,144,-2536,-712,84,110,-259
4585,56,-2392,-888,108,114,-213
4590,-48,-2232,-1000,128,110,-166
4595,-104,-2072,-1112,143,92,-127
4600,-128,-1968,-1096,153,67,-97
4605,-128,-1880,-1152,159,35,-77
4610,-128,-1728,-1072,164,5,-71
4615,-96,-1672,-984,166,-16,-73
4620,-168,-1640,-920,163,-34,-88
4625,-152,-1608,-808,148,-49,-111
4630,-184,-1640,-656,122,-64,-139
4635,-184,-1720,-536,96,-76,-168
4640,-184,-1800,-416,69,-82,-193
4645,-200,-1920,-392,47,-78,-213
4650,-208,-2016,-336,34,-62,-228
4655,-216,-2080,-336,25,-38,-236
4660,-200,-2144,-336,17,-6,-237
4665,-176,-2176,-408,9,25,-229
4670,-168,-2184,-424,1,53,-210
4675,-112,-2216,-440,-9,96,-181
4680,-64,-2216,-448,-24,145,-142
4685,0,-2224,-440,-44,199,-99
4690,40,-2240,-392,-60,254,-48
4695,128,-2256,-384,-67,308,7
4700,168,-2264,-336,-62,361,63
4705,192,-2248,-312,-53,407,122
4710,248,-2280,-256,-40,440,178
4715,256,-2208,-232,-33,462,232
4720,280,-2208,-232,-31,467,279
4725,296,-2168,-240,-38,461,308
4730,256,-2112,-192,-49,442,336
4735,248,-2040,-240,-61,412,353
4740,224,-1968,-248,-75,380,360
4745,176,-1944,-256,-101,351,361
4750,144,-1864,-240,-126,326,355
4755,104,-1752,-264,-141,300,340
4760,120,-1728,-264,-144,284,321
4765,80,-1640,-288,-140,280,300
4770,40,-1544,-288,-131,283,280
4775,8,-1512,-296,-119,290,261
4780,-8,-1472,-312,-105,299,241
4785,-8,-1408,-368,-87,311,223
4790,-56,-1352,-336,-75,324,210
4795,-72,-1312,-344,-70,337,201
4800,-64,-1328,-328,-66,352,195
4805,-120,-1296,-312,-62,371,193
4810,-136,-1296,-264,-59,390,189
4815,-152,-1344,-216,-58,404,183
4820,-176,-1360,-168,-64,419,176
4825,-208,-1408,-96,-76,436,166
4830,-224,-1440,-56,-86,449,155
4835,-264,-1472,-104,-99,455,135
4840,-256,-1504,-64,-114,463,119
4845,-240,-1552,-48,-133,474,103
4850,-240,-1600,-24,-150,493,91
4855,-208,-1656,-24,-157,515,80
4860,-200,-1696,8,-154,542,72
4865,-152,-1728,-16,-145,567,66
4870,-144,-1728,8,-131,592,58
4875,-120,-1760,64,-111,620,50
4880,-88,-1760,48,-85,643,39
4885,-64,-1768,104,-57,655,25
4890,-32,-1768,136,-28,661,9
4895,-16,-1752,160,3,659,-11
4900,-16,-1736,152,31,649,-32
4905,0,-1720,152,52,636,-56
4910,16,-1728,152,62,625,-84
4915,24,-1736,176,65,620,-115
4920,32,-1736,152,64,625,-152
4925,32,-1728,200,59,632,-189
4930,32,-1744,224,49,639,-224
4935,32,-1744,192,40,645,-255
4940,0,-1744,176,30,646,-282
4945,64,-1792,168,20,640,-301
4950,40,-1768,168,14,626,-311
4955,48,-1840,80,1,607,-316
4960,16,-1792,48,-19,578,-316
4965,-32,-1832,32,-49,544,-312
4970,-56,-1888,-24,-76,509,-302
4975,-88,-1968,-16,-104,477,-289
4980,-144,-2000,-24,-127,452,-270
4985,-192,-2072,32,-141,432,-250
4990,-256,-2128,72,-156,417,-229
4995,-288,-2200,88,-159,406,-207
5000,-328,-2256,136,-153,393,-185
5005,-376,-2320,160,-152,380,-169
5010,-408,-2400,248,-142,365,-145
5015,-408,-2448,248,-122,344,-119
5020,-400,-2488,288,-97,320,-91
5025,-392,-2496,344,-59,294,-66
5030,-392,-2520,376,-17,274,-46
5035,-408,-2512,392,23,255,-32
5040,-392,-2528,432,53,241,-23
5045,-376,-2464,440,66,236,-18
5050,-368,-2504,432,54,242,-11
5055,-320,-2448,536,57,246,-3
5060,-256,-2432,568,71,254,2
5065,-224,-2408,616,85,270,3
5070,-144,-2320,664,101,287,3
5075,-120,-2288,616,122,301,5
5080,-72,-2240,576,145,303,10
5085,-88,-2208,456,157,292,20
5090,-80,-2272,256,139,272,39
5095,-64,-2384,64,92,249,61
5100,-104,-2520,-168,25,230,90
5105,-96,-2688,-352,-59,211,116
5110,-136,-2840,-440,-135,188,134
5115,-208,-2992,-472,-183,158,153
5120,-264,-3088,-528,-192,117,170
5125,-312,-3128,-584,-164,69,192
5130,-360,-3144,-648,-102,21,219
5135,-328,-3056,-728,-19,-19,247
5140,-256,-2896,-792,65,-49,274
5145,-136,-2712,-888,137,-64,295
5150,-88,-2520,-960,184,-68,311
5155,-32,-2320,-1040,210,-71,320
5160,128,-2152,-1088,215,-73,328
5165,200,-1984,-1192,202,-72,338
5170,288,-1888,-1160,173,-65,348
5175,328,-1800,-1120,137,-55,358
5180,384,-1800,-1008,102,-46,371
5185,416,-1752,-872,68,-33,385
5190,448,-1760,-704,40,-17,399
5195,528,-1808,-560,17,1,412
5200,568,-1864,-400,2,20,415
5205,584,-2000,-288,-10,41,402
5210,560,-2056,-144,-17,61,377
5215,552,-2128,-64,-18,77,341
5220,504,-2264,8,-15,89,298
5225,448,-2384,-8,-9,84,249
5230,416,-2464,-56,0,59,198
5235,368,-2504,-120,14,24,140
5240,328,-2544,-176,31,-15,78
5245,248,-2536,-264,46,-60,15
5250,168,-2544,-368,52,-106,-50
5255,96,-2520,-408,52,-147,-111
5260,32,-2488,-472,44,-183,-170
5265,-40,-2472,-512,37,-208,-219
5270,-80,-2392,-544,30,-216,-257
5275,-120,-2336,-488,23,-208,-282
5280,-184,-2264,-488,16,-193,-293
5285,-208,-2184,-432,10,-173,-292
5290,-232,-2160,-392,3,-154,-283
5295,-224,-2056,-368,-6,-135,-264
5300,-224,-1976,-304,-19,-107,-242
5305,-184,-1912,-272,-38,-78,-217
5310,-128,-1824,-312,-57,-54,-193
5315,-96,-1744,-288,-78,-35,-174
5320,-72,-1632,-224,-99,-26,-162
5325,-8,-1584,-224,-125,-27,-153
5330,56,-1544,-216,-149,-35,-146
5335,80,-1496,-184,-169,-52,-139
5340,96,-1448,-136,-189,-82,-138
5345,104,-1448,-104,-206,-120,-137
5350,136,-1416,-96,-221,-159,-140
5355,112,-1432,-80,-229,-197,-147
5360,136,-1408,-64,-234,-232,-154
5365,152,-1408,-96,-230,-262,-166
5370,152,-1432,-120,-228,-290,-180
5375,144,-1464,-144,-218,-316,-196
5380,128,-1464,-104,-211,-337,-216
5385,104,-1464,-152,-208,-354,-235
5390,104,-1496,-152,-212,-366,-248
5395,88,-1536,-152,-221,-377,-254
5400,80,-1560,-144,-234,-393,-262
5405,64,-1592,-144,-249,-412,-267
5410,72,-1648,-144,-262,-436,-270
5415,72,-1656,-96,-266,-460,-277
5420,56,-1648,-112,-267,-484,-278
5425,88,-1688,-72,-264,-504,-268
5430,88,-1640,-88,-250,-523,-252
5435,128,-1648,-112,-234,-539,-232
5440,104,-1648,-72,-212,-551,-202
5445,104,-1616,-96,-188,-560,-166
5450,56,-1584,-32,-162,-570,-128
5455,80,-1560,-8,-137,-578,-87
5460,72,-1552,0,-110,-581,-49
5465,72,-1528,48,-85,-583,-11
5470,32,-1480,64,-59,-583,26
5475,48,-1488,80,-34,-581,62
5480,64,-1472,88,-12,-580,98
5485,88,-1472,136,10,-580,132
5490,136,-1488,136,32,-581,162
5495,168,-1504,144,51,-580,184
5500,184,-1544,208,71,-579,200
5505,240,-1576,224,90,-576,211
5510,240,-1608,248,111,-572,215
5515,280,-1632,216,132,-570,216
5520,312,-1688,224,142,-570,213
5525,304,-1704,200,145,-573,209
5530,328,-1712,152,139,-581,205
5535,312,-1728,136,122,-593,199
5540,264,-1728,104,100,-603,197
5545,208,-1752,64,73,-608,194
5550,152,-1768,56,40,-607,192
5555,80,-1800,64,4,-605,188
5560,32,-1880,88,-39,-598,185
5565,8,-1976,176,-85,-585,177
5570,-40,-2080,184,-132,-567,169
5575,-40,-2224,240,-178,-548,160
5580,0,-2360,312,-228,-529,150
5585,-8,-2480,360,-276,-511,147
5590,16,-2600,376,-319,-502,138
5595,40,-2696,472,-353,-503,123
5600,88,-2744,496,-380,-511,103
5605,144,-2768,472,-395,-522,77
5610,168,-2744,440,-399,-532,47
5615,160,-2672,448,-390,-539,13
5620,168,-2640,472,-368,-542,-18
5625,168,-2560,472,-344,-541,-46
5630,136,-2504,448,-319,-535,-66
5635,120,-2448,400,-297,-528,-82
5640,120,-2408,328,-282,-517,-91
5645,136,-2336,272,-279,-497,-98
5650,192,-2352,208,-286,-470,-98
5655,240,-2336,184,-304,-436,-97
5660,296,-2408,112,-324,-387,-94
5665,352,-2488,64,-350,-337,-96
5670,384,-2568,32,-375,-288,-102
5675,432,-2704,-48,-400,-244,-109
5680,480,-2840,-96,-429,-198,-121
5685,544,-2984,-208,-458,-154,-139
5690,600,-3112,-256,-487,-110,-161
5695,696,-3224,-352,-512,-62,-176
5700,752,-3288,-424,-526,-9,-190
5705,816,-3328,-448,-518,52,-205
5710,880,-3328,-456,-488,116,-219
5715,920,-3344,-464,-436,179,-234
5720,904,-3280,-488,-371,236,-252
5725,832,-3168,-544,-302,282,-275
5730,728,-3056,-600,-232,316,-289
5735,624,-2944,-752,-169,337,-281
5740,464,-2704,-944,-108,344,-261
5745,344,-2488,-1008,-60,340,-232
5750,176,-2208,-1184,-25,331,-189
5755,80,-2024,-1272,-12,325,-128
5760,-24,-1816,-1336,-14,314,-71
5765,-88,-1672,-1352,-27,300,-22
5770,-128,-1552,-1344,-42,286,14
5775,-128,-1496,-1224,-57,273,44
5780,-136,-1456,-1120,-63,262,67
5785,-152,-1456,-1008,-57,254,82
5790,-192,-1480,-912,-41,249,91
5795,-176,-1520,-784,-15,245,94
5800,-184,-1592,-720,13,243,91
5805,-176,-1624,-672,30,241,85
5810,-152,-1680,-656,37,242,75
5815,-128,-1744,-664,28,249,62
5820,-104,-1816,-688,11,271,45
5825,-56,-1888,-704,-10,303,24
5830,-48,-1936,-720,-30,344,2
5835,-40,-2008,-736,-56,389,-16
5840,-8,-2064,-768,-90,433,-34
5845,0,-2112,-768,-130,473,-46
5850,-16,-2120,-760,-169,510,-53
5855,-40,-2216,-744,-199,540,-45
5860,-8,-2280,-640,-229,556,-25
5865,-16,-2304,-600,-237,555,-2
5870,-32,-2320,-552,-230,544,24
5875,-40,-2336,-504,-217,524,54
5880,-16,-2312,-480,-206,503,86
5885,-24,-2272,-456,-194,478,119
5890,-32,-2240,-432,-180,454,152
5895,-24,-2160,-392,-166,428,182
5900,-16,-2128,-416,-151,402,210
5905,-8,-2080,-384,-133,374,238
5910,-48,-2000,-392,-116,346,262
5915,-16,-1936,-392,-100,311,283
5920,-48,-1816,-408,-88,276,304
5925,-88,-1728,-416,-82,239,319
5930,-128,-1624,-440,-80,204,332
5935,-160,-1544,-496,-84,175,346
5940,-216,-1480,-480,-98,150,361
5945,-264,-1448,-504,-117,131,374
5950,-304,-1400,-488,-138,122,388
5955,-304,-1368,-456,-154,122,406
5960,-360,-1400,-448,-169,128,422
5965,-296,-1416,-400,-179,132,444
5970,-272,-1456,-352,-184,150,456
5975,-232,-1480,-304,-177,186,455
5980,-144,-1552,-240,-160,231,455
5985,-128,-1576,-184,-134,282,444
5990,-88,-1664,-168,-107,333,432
5995,-24,-1720,-136,-86,381,419
6000,-8,-1744,-176,-64,419,405
6005,40,-1752,-160,-50,437,393
6010,64,-1768,-184,-47,430,384
6015,128,-1792,-184,-42,414,363
6020,88,-1816,-208,-20,403,333
6025,136,-1808,-232,-4,392,311
6030,104,-1832,-224,-5,384,288
6035,80,-1832,-208,-5,381,263
6040,40,-1856,-232,-9,383,242
6045,16,-1848,-232,-14,388,225
6050,-24,-1896,-216,-22,396,211
6055,-48,-1888,-216,-34,403,199
6060,-40,-1880,-224,-52,411,190
6065,-72,-1848,-224,-74,419,173
6070,-96,-1864,-200,-93,429,163
6075,-104,-1832,-192,-104,439,156
6080,-80,-1832,-168,-110,451,152
6085,-88,-1840,-176,-108,468,140
6090,-72,-1808,-184,-100,485,130
6095,-88,-1784,-192,-86,507,115
6100,-80,-1784,-200,-66,526,95
6105,-80,-1784,-168,-41,539,72
6110,-104,-1752,-160,-14,546,49
6115,-88,-1784,-144,12,542,25
6120,-80,-1760,-152,38,531,-1
6125,-88,-1784,-120,65,523,-31
6130,-64,-1816,-72,83,513,-61
6135,-104,-1800,-96,85,504,-93
6140,-120,-1792,-96,79,495,-118
6145,-144,-1784,-88,72,486,-141
6150,-152,-1808,-32,63,482,-158
6155,-216,-1792,-8,53,473,-172
6160,-208,-1776,-8,49,469,-180
6165,-256,-1776,8,50,466,-183
6170,-232,-1768,24,56,468,-182
6175,-208,-1808,16,62,477,-174
6180,-192,-1832,64,62,493,-165
6185,-160,-1888,88,63,515,-158
6190,-176,-1864,96,66,538,-151
6195,-128,-1920,112,67,560,-145
6200,-112,-1952,80,62,576,-140
6205,-80,-1960,64,54,592,-138
6210,-72,-1984,0,41,606,-138
6215,-40,-1976,-64,22,621,-137
6220,-32,-1960,-128,2,639,-136
6225,40,-1976,-128,-22,656,-137
6230,104,-1984,-152,-44,671,-138
6235,152,-1952,-104,-55,691,-143
6240,168,-1976,-24,-54,716,-148
6245,216,-1984,-24,-42,746,-155
6250,216,-1976,16,-25,782,-162
6255,240,-2000,64,-13,820,-172
6260,264,-2040,96,-13,855,-179
6265,288,-2056,120,-14,879,-188
6270,256,-2120,160,-19,892,-198
6275,216,-2104,168,-22,893,-205
6280,192,-2136,176,-27,891,-208
6285,152,-2128,144,-36,885,-203
6290,64,-2080,120,-53,873,-194
6295,8,-2064,96,-80,859,-185
6300,-40,-2080,88,-109,846,-173
6305,-96,-2056,72,-138,836,-160
6310,-120,-2088,72,-163,827,-149
6315,-144,-2128,104,-185,821,-138
6320,-224,-2136,152,-201,811,-133
6325,-280,-2216,208,-214,795,-134
6330,-328,-2280,312,-221,767,-139
6335,-392,-2328,424,-215,733,-148
6340,-416,-2384,488,-211,692,-159
6345,-488,-2424,568,-205,653,-177
6350,-552,-2504,584,-187,613,-192
6355,-640,-2504,632,-158,574,-205
6360,-672,-2504,632,-118,539,-213
6365,-728,-2456,648,-87,510,-225
6370,-744,-2416,616,-65,487,-230
6375,-760,-2368,592,-53,466,-230
6380,-784,-2288,568,-42,442,-224
6385,-728,-2232,512,-45,416,-215
6390,-672,-2176,464,-55,395,-200
6395,-592,-2112,424,-65,365,-188
6400,-416,-1984,336,-67,332,-180
6405,-384,-2048,280,-88,310,-180
6410,-288,-2032,192,-98,278,-186
6415,-216,-2040,24,-84,233,-188
6420,-200,-2008,-200,-83,185,-190
6425,-160,-2024,-432,-101,125,-187
6430,-184,-2032,-624,-140,49,-187
6435,-176,-2072,-904,-209,-39,-182
6440,-216,-2080,-1152,-298,-128,-174
6445,-200,-2120,-1384,-391,-207,-166
6450,-128,-2200,-1592,-467,-265,-161
6455,-112,-2288,-1640,-520,-296,-150
6460,-64,-2392,-1648,-550,-307,-134
6465,-40,-2480,-1704,-539,-303,-111
6470,-40,-2640,-1600,-492,-297,-82
6475,-8,-2776,-1520,-403,-294,-42
6480,-32,-2872,-1472,-287,-300,7
6485,-16,-2944,-1376,-163,-315,69
6490,24,-3008,-1304,-44,-336,139
6495,80,-3024,-1208,60,-353,214
6500,128,-2992,-1176,150,-363,291
6505,136,-2920,-1112,230,-373,362
6510,208,-2824,-1072,297,-388,427
6515,240,-2720,-1032,354,-418,480
6520,256,-2592,-976,402,-464,519
6525,280,-2496,-976,439,-522,542
6530,296,-2376,-960,459,-583,549
6535,288,-2280,-920,456,-636,536
6540,264,-2192,-896,434,-673,510
6545,256,-2104,-856,394,-697,468
6550,264,-2048,-776,342,-700,414
6555,256,-1992,-712,293,-683,352
6560,192,-1944,-600,248,-648,281
6565,232,-1928,-600,207,-601,201
6570,224,-1928,-600,173,-550,119
6575,256,-1968,-528,145,-499,35
6580,288,-1976,-552,126,-451,-56
6585,304,-2000,-544,109,-397,-139
6590,272,-2040,-576,93,-344,-214
6595,272,-2088,-560,88,-303,-279
6600,272,-2112,-576,88,-271,-334
6605,216,-2128,-576,90,-242,-378
6610,200,-2176,-568,99,-221,-411
6615,144,-2208,-560,113,-212,-431
6620,104,-2200,-568,134,-214,-438
6625,104,-2200,-496,157,-218,-432
6630,56,-2176,-496,183,-228,-418
6635,88,-2184,-472,207,-237,-389
6640,48,-2136,-456,233,-245,-352
6645,96,-2096,-424,247,-268,-325
6650,144,-2080,-432,258,-284,-276
6655,128,-2008,-400,262,-291,-221
6660,152,-2000,-400,258,-297,-167
6665,144,-1936,-424,243,-311,-119
6670,176,-1944,-392,221,-329,-77
6675,200,-1872,-384,201,-345,-41
6680,208,-1816,-392,182,-358,-16
6685,240,-1800,-384,162,-365,0
6690,240,-1736,-376,142,-373,10
6695,232,-1656,-376,126,-380,11
6700,224,-1616,-352,108,-384,3
6705,232,-1536,-392,88,-385,-11
6710,232,-1488,-376,66,-385,-33
6715,264,-1456,-400,37,-383,-63
6720,248,-1384,-448,3,-377,-98
6725,288,-1400,-400,-38,-369,-137
6730,272,-1344,-384,-78,-361,-180
6735,232,-1352,-320,-114,-357,-224
6740,240,-1360,-296,-147,-354,-264
6745,208,-1360,-240,-173,-343,-298
6750,136,-1360,-192,-185,-333,-324
6755,104,-1384,-216,-191,-326,-343
6760,96,-1416,-168,-196,-323,-349
6765,48,-1448,-128,-196,-320,-347
6770,0,-1480,-104,-192,-316,-337
6775,-16,-1472,-80,-188,-314,-317
6780,8,-1536,-80,-181,-317,-291
6785,8,-1584,-128,-176,-325,-259
6790,8,-1656,-96,-166,-337,-223
6795,16,-1696,-24,-151,-354,-185
6800,24,-1760,-40,-125,-375,-146
6805,8,-1816,-8,-96,-398,-111
6810,-8,-1848,8,-59,-422,-76
6815,16,-1912,48,-19,-445,-42
6820,8,-1928,32,19,-471,-14
6825,16,-1960,-8,46,-495,9
6830,-16,-1968,-16,62,-517,29
6835,8,-1920,-56,72,-536,46
6840,-16,-1856,-88,72,-553,60
6845,-8,-1776,-160,67,-571,76
6850,0,-1696,-192,58,-593,93
6855,0,-1600,-224,42,-611,109
6860,0,-1520,-272,28,-628,121
6865,0,-1432,-232,7,-641,134
6870,-8,-1368,-224,-6,-655,143
6875,8,-1352,-200,-22,-669,150
6880,-8,-1376,-104,-36,-681,152
6885,80,-1416,8,-38,-691,150
6890,-16,-1512,0,-39,-699,145
6895,80,-1664,136,-45,-704,142
6900,-8,-1768,160,-54,-713,140
6905,8,-1832,160,-58,-719,141
6910,56,-1920,104,-57,-728,146
6915,72,-2088,232,-52,-736,154
6920,104,-2160,232,-45,-744,164
6925,128,-2200,184,-39,-751,175
6930,144,-2216,192,-37,-753,184
6935,144,-2200,96,-43,-753,194
6940,160,-2168,96,-51,-745,201
6945,184,-2128,72,-60,-725,208
6950,168,-2112,48,-65,-697,213
6955,216,-2120,88,-67,-665,215
6960,176,-2040,-8,-68,-636,218
6965,176,-2144,112,-62,-618,220
6970,320,-2112,248,-58,-609,221
6975,328,-2168,216,-54,-609,221
6980,344,-2160,216,-52,-609,214
6985,376,-2304,240,-58,-604,205
6990,368,-2224,400,-75,-590,190
6995,384,-2248,360,-100,-569,174
7000,400,-2328,280,-126,-541,155
7005,432,-2312,296,-142,-513,133
7010,400,-2248,312,-147,-484,109
7015,432,-2232,304,-148,-454,86
7020,432,-2184,200,-146,-423,63
7025,448,-2120,184,-140,-387,38
7030,464,-2056,80,-142,-347,18
7035,392,-2008,-16,-152,-302,-1
7040,512,-1936,-96,-176,-257,-18
7045,480,-1984,-336,-219,-209,-32
7050,472,-1960,-440,-275,-166,-39
7055,448,-1968,-536,-343,-128,-47
7060,424,-2032,-632,-419,-95,-56
7065,352,-2104,-568,-499,-65,-66
7070,328,-2248,-664,-570,-39,-81
7075,232,-2408,-640,-627,-17,-95
7080,192,-2480,-608,-667,-4,-108
7085,240,-2576,-520,-685,3,-117
7090,224,-2664,-512,-681,5,-125
7095,200,-2744,-472,-663,3,-138
7100,184,-2792,-440,-632,-7,-151
7105,128,-2800,-328,-595,-27,-165
7110,112,-2768,-336,-556,-56,-180
7115,32,-2696,-240,-508,-89,-193
7120,0,-2656,-168,-462,-116,-199
7125,-96,-2536,-216,-407,-138,-211
7130,-208,-2448,-272,-341,-152,-217
7135,-312,-2328,-248,-285,-154,-209
7140,-464,-2200,-416,-250,-139,-188
7145,-504,-2024,-464,-237,-108,-157
7150,-568,-1952,-560,-246,-70,-122
7155,-504,-1800,-600,-281,-31,-86
7160,-464,-1544,-648,-335,4,-52
7165,-416,-1496,-624,-398,28,-25
7170,-352,-1424,-664,-467,41,-3
7175,-248,-1360,-656,-535,44,24
7180,-176,-1304,-720,-604,43,52
7185,-88,-1312,-664,-668,38,79
7190,-64,-1368,-600,-722,32,106
7195,48,-1376,-536,-768,33,132
7200,232,-1312,-824,-795,40,154
7205,288,-1496,-648,-804,53,168
7210,176,-1528,-552,-800,76,177
7215,368,-1656,-504,-786,105,177
7220,480,-1656,-624,-769,139,167
7225,336,-1720,-752,-755,175,150
7230,344,-1872,-784,-742,211,130
7235,200,-1904,-624,-724,242,106
7240,368,-1928,-776,-711,270,83
7245,264,-1928,-776,-703,289,58
7250,216,-1968,-800,-702,298,34
7255,184,-1976,-832,-698,306,9
7260,120,-1976,-800,-696,311,-14
7265,120,-1936,-880,-696,309,-36
7270,136,-1976,-800,-685,306,-50
7275,-24,-1888,-640,-671,301,-61
7280,-96,-1880,-824,-653,299,-70
7285,-120,-1840,-752,-635,295,-76
7290,-104,-1816,-688,-614,291,-78
7295,-280,-1800,-704,-594,287,-77
7300,-248,-1776,-624,-573,282,-71
7305,-200,-1712,-552,-560,278,-64
7310,-320,-1512,-792,-556,274,-54
7315,-368,-1528,-680,-560,273,-42
7320,-352,-1584,-632,-569,274,-29
7325,-368,-1504,-640,-584,276,-13
7330,-336,-1464,-608,-603,268,3
7335,-376,-1440,-632,-624,251,23
7340,-408,-1408,-592,-641,225,46
7345,-408,-1336,-584,-649,191,73
7350,-312,-1392,-520,-643,153,102
7355,-360,-1304,-464,-624,110,132
7360,-320,-1312,-384,-596,67,158
7365,-248,-1288,-368,-559,25,183
7370,-192,-1280,-448,-517,-14,203
7375,-256,-1296,-328,-479,-54,219
7380,-248,-1328,-304,-444,-94,230
7385,-272,-1312,-328,-415,-134,235
7390,-288,-1368,-288,-392,-174,235
7395,-304,-1408,-312,-376,-219,229
7400,-312,-1408,-336,-366,-269,220
7405,-344,-1424,-352,-358,-323,208
7410,-352,-1464,-328,-347,-382,194
7415,-392,-1488,-312,-335,-444,184
7420,-480,-1480,-368,-322,-511,175
7425,-456,-1544,-304,-314,-586,178
7430,-496,-1584,-272,-298,-668,181
7435,-520,-1616,-288,-285,-760,190
7440,-560,-1640,-208,-267,-859,207
7445,-608,-1664,-216,-244,-955,226
7450,-624,-1640,-224,-215,-1045,248
7455,-664,-1680,-232,-196,-1122,273
7460,-648,-1672,-272,-174,-1174,296
7465,-712,-1640,-344,-155,-1202,310
7470,-704,-1672,-392,-135,-1200,320
7475,-672,-1648,-464,-116,-1181,319
7480,-640,-1632,-568,-110,-1148,322
7485,-544,-1600,-624,-117,-1115,328
7490,-464,-1568,-656,-135,-1091,338
7495,-344,-1576,-616,-162,-1073,349
7500,-200,-1568,-592,-186,-1063,360
7505,-88,-1568,-544,-210,-1057,370
7510,-40,-1592,-464,-224,-1051,376
7515,32,-1616,-376,-237,-1042,392
7520,136,-1616,-360,-244,-1027,401
7525,200,-1616,-328,-257,-999,411
7530,224,-1552,-328,-283,-968,423
7535,288,-1600,-320,-317,-935,436
7540,280,-1536,-432,-349,-901,448
7545,272,-1592,-456,-398,-863,462
7550,224,-1560,-608,-433,-820,469
7555,216,-1592,-680,-466,-767,469
7560,208,-1584,-736,-499,-706,459
7565,256,-1592,-744,-526,-642,441
7570,296,-1520,-776,-535,-576,413
7575,360,-1488,-704,-552,-511,386
7580,400,-1472,-592,-572,-445,361
7585,456,-1456,-432,-589,-376,334
7590,544,-1472,-304,-594,-313,299
7595,584,-1448,-224,-592,-251,267
7600,616,-1432,-176,-583,-198,236
7605,584,-1416,-152,-571,-149,213
7610,560,-1376,-128,-560,-101,198
7615,520,-1368,-176,-560,-58,187
7620,568,-1312,-192,-580,-19,171
7625,408,-1320,-224,-597,26,174
7630,376,-1296,-288,-630,61,171
7635,296,-1248,-240,-667,93,170
7640,184,-1152,-328,-699,118,174
7645,112,-1112,-320,-726,139,183
7650,40,-1048,-304,-749,147,198
7655,-16,-968,-256,-770,153,222
7660,-104,-880,-232,-784,150,249
7665,-128,-832,-192,-795,130,281
7670,-176,-752,-144,-796,103,315
7675,-232,-712,-80,-791,71,351
7680,-280,-688,-16,-781,38,387
7685,-320,-600,-48,-767,-1,416
7690,-376,-464,-112,-771,-36,446
7695,-472,-416,-176,-796,-66,464
7700,-560,-344,-312,-825,-85,474
7705,-600,-248,-480,-863,-95,488
7710,-552,-320,-608,-921,-103,486
7715,-640,-392,-752,-973,-110,474
7720,-640,-440,-864,-1024,-125,465
7725,-544,-624,-968,-1079,-133,459
7730,-480,-808,-1080,-1134,-121,451
7735,-392,-976,-1256,-1198,-76,441
7740,-240,-1104,-1456,-1284,-1,425
7745,-144,-1240,-1688,-1399,93,399
7750,48,-1488,-1984,-1551,214,358
7755,32,-1656,-2320,-1748,367,296
7760,160,-2008,-2576,-1977,529,220
7765,136,-2784,-2592,-2182,661,164
7770,224,-3624,-2688,-2292,685,77
7775,264,-4720,-2520,-2337,628,-28
7780,320,-5792,-2344,-2323,535,-145
7785,416,-6592,-2104,-2324,500,-298
7790,336,-7304,-1744,-2277,552,-459
7795,88,-7344,-1384,-2126,704,-620
7800,-424,-6888,-1192,-1880,904,-563
7805,-56,-5792,-1248,-1693,1077,-371
7810,-8,-5016,-1176,-1563,1244,-248
7815,-128,-4264,-1080,-1461,1361,-156
7820,-272,-3552,-1000,-1411,1415,-56
7825,-384,-2952,-824,-1407,1435,56
7830,-480,-2424,-704,-1442,1448,175
7835,-504,-2024,-528,-1519,1460,291
7840,-504,-1544,-272,-1592,1462,392
7845,-416,-1152,-184,-1697,1453,461
7850,-336,-776,-48,-1807,1427,487
7855,-248,-392,16,-1899,1399,472
7860,-136,-64,-24,-1951,1366,420
7865,-72,248,-184,-1978,1325,340
7870,-64,504,-304,-2030,1290,250
7875,-40,840,-392,-2092,1271,165
7880,-48,1072,-552,-2118,1254,73
7885,-32,1376,-664,-2098,1251,-23
7890,32,1424,-704,-2054,1278,-120
7895,32,1640,-840,-1931,1333,-177
7900,152,1736,-1000,-1810,1396,-210
7905,232,1560,-984,-1767,1448,-258
7910,168,1568,-920,-1738,1482,-302
7915,200,1376,-824,-1749,1460,-324
7920,96,1112,-576,-1815,1380,-362
7925,0,912,-424,-1865,1264,-383
7930,-200,808,-384,-1890,1137,-385
7935,-384,664,-392,-1952,1004,-377
7940,-472,512,-432,-2047,871,-343
7945,-600,464,-544,-2155,743,-294
7950,-712,384,-632,-2280,633,-240
7955,-784,264,-792,-2394,555,-181
7960,-824,232,-888,-2492,500,-136
7965,-896,216,-1088,-2561,462,-107
7970,-904,272,-1288,-2598,427,-92
7975,-896,424,-1472,-2629,378,-89
7980,-848,432,-1592,-2660,324,-89
7985,-840,544,-1720,-2653,264,-101
7990,-880,616,-1768,-2645,192,-136
7995,-864,648,-1768,-2660,93,-171
8000,-800,800,-1824,-2681,0,-209
8005,-760,1168,-2392,-2708,-87,-249
8010,-736,1560,-2568,-2855,-176,-273
8015,-800,1912,-2536,-3018,-144,-259
8020,-496,1960,-3392,-3061,-141,-239
8025,720,3288,-7576,-3717,-638,-389
8030,1432,2376,-14712,-5796,-1524,-465
8035,-6464,6064,-12232,-7975,-195,-397
8040,3264,4016,-9840,-9846,452,-59
8045,4144,7344,-9392,-8660,-300,-141
8050,-520,1760,-144,-7055,730,-220
8055,-2200,3032,-2768,-5444,-75,14
8060,176,1912,-4880,-4013,-864,21
8065,1368,0,-6144,-3302,-1024,53
8070,560,456,-7352,-3460,-912,53
8075,232,-1840,-8240,-3548,-824,71
8080,56,-2632,-8224,-3564,-538,22
8085,560,-2208,-7608,-3589,-132,-22
8090,-392,-208,-7088,-3374,150,-26
8095,-568,344,-6272,-3335,147,21
8100,-152,1144,-6096,-3196,92,53
8105,-680,1464,-6400,-2876,65,34
8110,-504,1456,-6416,-2535,64,36
8115,-80,1480,-5760,-2412,94,71
8120,424,1536,-4960,-2335,177,99
8125,-80,1160,-4624,-2127,217,110
8130,280,736,-4512,-1814,219,95
8135,432,1208,-4168,-1665,197,81
8140,192,424,-3976,-1663,148,65
8145,232,-1408,-3464,-1657,132,88
8150,504,-3192,-3336,-1559,136,70
8155,1120,-3216,-3896,-992,307,-148
8160,1192,-3728,-3120,-617,394,-527
8165,568,-3216,-3960,-231,503,-865
8170,960,-4360,-3320,-184,652,-1084
8175,544,-1768,-3976,-155,823,-1165
8180,168,-1688,-3496,-384,1031,-1176
8185,120,-1344,-3176,-708,1239,-1165
8190,-16,-440,-3176,-978,1321,-1094
8195,-120,-488,-2616,-1321,1283,-1005
8200,-416,-376,-2320,-1613,1198,-953
8205,-328,128,-2040,-1909,1120,-882
8210,-392,728,-2008,-2150,1051,-834
8215,-432,1168,-1744,-2446,949,-759
8220,-728,1568,-1448,-2637,856,-640
8225,-616,1856,-1216,-2612,801,-456
8230,-648,2032,-992,-2396,750,-276
8235,-320,2112,-816,-2040,699,-33
8240,-240,2032,-640,-1590,669,163
8245,32,2072,-688,-1050,650,331
8250,208,2216,-872,-516,635,402
8255,392,2128,-968,-64,633,416
8260,144,2168,-944,247,588,381
8265,56,2208,-1000,412,463,371
8270,208,2136,-1208,508,323,350
8275,264,1984,-1368,514,219,278
8280,320,1776,-1448,458,158,184
8285,304,1616,-1496,372,141,74
8290,120,1528,-1464,274,151,-20
8295,-8,1400,-1392,179,178,-82
8300,-40,1328,-1440,136,196,-117
8305,-184,1240,-1520,143,203,-117
8310,-136,1104,-1584,182,182,-89
8315,-112,920,-1656,238,133,-29
8320,-96,752,-1584,290,60,41
8325,-8,544,-1536,347,-40,121
8330,-24,360,-1544,425,-147,177
8335,112,248,-1568,508,-240,219
8340,128,152,-1600,553,-326,238
8345,248,128,-1656,591,-411,246
8350,208,320,-1736,622,-471,235
8355,48,568,-1832,663,-513,214
8360,24,712,-1872,691,-526,185
8365,40,832,-1848,686,-496,168
8370,208,760,-1928,698,-435,148
8375,200,984,-2072,698,-379,103
8380,72,1032,-2112,641,-347,67
8385,152,1072,-2152,556,-339,47
8390,96,912,-2168,482,-337,36
8395,64,888,-2120,414,-342,46
8400,192,896,-2080,349,-346,50
8405,224,872,-2088,291,-349,54
8410,200,832,-2056,240,-345,47
8415,96,880,-1984,206,-331,32
8420,120,1016,-2056,189,-323,34
8425,48,1080,-2072,149,-327,33
8430,56,1008,-2088,108,-318,45
8435,144,888,-2152,59,-298,59
8440,352,688,-2160,38,-275,61
8445,128,584,-2120,53,-245,33
8450,48,432,-2112,91,-222,26
8455,-40,584,-2080,147,-181,28
8460,56,760,-2128,157,-147,39
8465,232,768,-2032,176,-112,17
8470,-208,768,-2112,178,-116,-20
8475,-48,832,-2000,197,-68,-21
8480,8,864,-2048,254,-64,-11
8485,-120,880,-2184,291,-90,-6
8490,-192,776,-2248,328,-86,12
8495,-16,760,-2480,374,-57,35
8500,-104,672,-2664,389,-50,55
8505,-144,704,-2776,401,-15,83
8510,-64,552,-2688,389,16,113
8515,-96,536,-2760,384,28,136
8520,24,520,-2840,359,43,163
8525,-8,584,-2872,317,52,180
8530,112,584,-2816,279,72,189
8535,120,584,-2656,245,113,191
8540,224,560,-2624,225,140,179
8545,184,560,-2528,201,140,141
8550,216,440,-2448,177,119,111
8555,176,400,-2488,154,89,96
8560,152,344,-2456,133,47,83
8565,144,360,-2392,123,9,72
8570,160,384,-2408,121,-26,61
8575,208,384,-2440,121,-47,52
8580,136,384,-2472,135,-64,46
8585,200,336,-2488,146,-73,39
8590,184,328,-2456,146,-76,38
8595,192,304,-2432,145,-73,37
8600,160,312,-2384,142,-68,35
8605,136,304,-2384,136,-67,34
8610,96,280,-2312,129,-70,47
8615,328,408,-2480,137,-78,81
8620,240,416,-2368,119,-64,66
8625,144,392,-2344,106,-58,41
8630,88,400,-2304,98,-59,29
8635,104,400,-2288,90,-59,23
8640,96,416,-2304,82,-63,17
8645,80,456,-2232,67,-66,9
8650,88,400,-2192,50,-64,0
8655,56,416,-2144,37,-65,-8
8660,64,416,-2176,32,-72,-16
8665,88,424,-2184,31,-82,-21
8670,56,416,-2248,32,-89,-22
8675,16,400,-2240,29,-92,-20
8680,8,432,-2224,13,-91,-19
8685,64,432,-2200,-5,-83,-19
8690,96,440,-2192,-23,-68,-19
8695,96,424,-2184,-34,-59,-18
8700,72,448,-2208,-43,-50,-18
8705,88,408,-2200,-52,-42,-17
8710,48,360,-2224,-59,-34,-15
8715,80,400,-2224,-68,-28,-14
8720,72,408,-2232,-72,-25,-12
8725,56,400,-2192,-75,-28,-9
8730,56,400,-2184,-80,-31,-9
8735,48,392,-2200,-84,-34,-7
8740,-8,408,-2248,-88,-33,-5
8745,8,384,-2224,-90,-28,-4
8750,16,408,-2264,-87,-18,-3
8755,24,416,-2256,-85,-7,0
8760,56,416,-2280,-85,-1,1
8765,8,432,-2280,-89,-6,0
8770,88,424,-2256,-86,-9,0
8775,88,416,-2248,-80,-24,-1
8780,40,432,-2224,-72,-44,-4
8785,64,432,-2232,-55,-66,-5
8790,72,416,-2240,-34,-81,-8
8795,96,416,-2288,-14,-91,-12
8800,80,472,-2248,0,-94,-14
8805,88,416,-2232,15,-95,-16
8810,104,400,-2264,31,-96,-17
8815,56,400,-2328,46,-100,-19
8820,64,440,-2224,57,-107,-21
8825,88,432,-2192,63,-119,-23
8830,56,408,-2168,62,-131,-25
8835,40,448,-2184,55,-143,-25
8840,16,432,-2184,38,-148,-24
8845,24,416,-2224,20,-158,-25
8850,32,448,-2240,6,-164,-26
8855,32,440,-2232,-1,-162,-25
8860,-24,472,-2208,-3,-159,-22
8865,-24,416,-2176,-2,-154,-19
8870,-48,424,-2264,10,-150,-16
8875,0,448,-2288,16,-155,-10
8880,-16,496,-2216,14,-155,-6
8885,40,480,-2240,14,-145,-3
8890,104,376,-2328,23,-123,-4
8895,48,208,-2360,25,-98,-4
8900,56,200,-2400,4,-79,-2
8905,40,312,-2376,-45,-75,-1
8910,88,368,-2240,-95,-84,0
8915,96,408,-2184,-121,-107,0
8920,16,440,-2080,-122,-140,-6
8925,-56,408,-2056,-100,-169,-12
8930,-72,400,-2088,-62,-192,-20
8935,144,448,-2176,-22,-205,-27
8940,-56,312,-2184,11,-196,-36
8945,-128,368,-2144,33,-206,-41
8950,-8,408,-2144,47,-204,-40
8955,-32,448,-2160,57,-207,-45
8960,-40,424,-2176,77,-212,-46
8965,-24,376,-2176,98,-206,-43
8970,-8,400,-2208,112,-194,-42
8975,32,368,-2264,115,-177,-39
8980,-8,392,-2320,110,-158,-35
8985,-40,384,-2416,96,-143,-31
8990,-56,360,-2424,70,-126,-28
8995,-80,368,-2464,41,-115,-27
9000,-104,408,-2504,16,-107,-25
9005,-96,384,-2504,-10,-101,-24
9010,-96,392,-2512,-31,-97,-21
9015,-72,424,-2472,-51,-94,-19
9020,-56,408,-2440,-71,-90,-18
9025,-64,416,-2376,-84,-85,-14
9030,-64,416,-2384,-99,-77,-13
9035,-48,416,-2336,-109,-61,-12
9040,-24,392,-2288,-114,-45,-11
9045,-8,392,-2264,-116,-32,-12
9050,-40,424,-2248,-115,-27,-11
9055,-32,400,-2200,-114,-25,-9
9060,-48,424,-2200,-109,-29,-8
9065,-40,416,-2168,-101,-32,-10
9070,-32,408,-2192,-91,-35,-10
9075,-16,368,-2184,-76,-36,-11
9080,-40,400,-2184,-64,-40,-10
9085,-40,344,-2184,-56,-47,-10
9090,-56,360,-2192,-51,-55,-13
9095,-32,376,-2200,-44,-61,-14
9100,-64,368,-2216,-34,-66,-16
9105,-80,400,-2288,-23,-72,-17
9110,-48,384,-2336,-15,-72,-19
9115,-48,384,-2336,-11,-68,-19
9120,-72,408,-2352,-12,-62,-19
9125,-80,400,-2328,-17,-58,-20
9130,-120,360,-2304,-24,-58,-23
9135,-72,360,-2288,-33,-63,-24
9140,-64,400,-2240,-39,-68,-26
9145,-80,400,-2272,-42,-75,-25
9150,-56,408,-2256,-45,-79,-25
9155,-64,408,-2216,-50,-81,-25
9160,-80,408,-2232,-55,-83,-24
9165,-72,416,-2216,-54,-86,-26
9170,-88,408,-2216,-50,-90,-26
9175,-80,416,-2224,-42,-99,-28
9180,-104,400,-2232,-35,-107,-30
9185,-104,392,-2280,-30,-121,-32
9190,-96,392,-2272,-31,-132,-35
9195,-104,384,-2280,-31,-144,-33
9200,-112,336,-2312,-36,-162,-32
9205,-96,352,-2312,-49,-183,-33
9210,-112,368,-2320,-68,-207,-31
9215,-128,336,-2368,-74,-227,-31
9220,-104,368,-2344,-84,-243,-29
9225,-112,248,-2352,-88,-253,-23
9230,-64,584,-2368,-99,-253,-13
9235,-200,472,-2232,-134,-232,-22
9240,-144,400,-2264,-134,-212,-21
9245,-96,392,-2240,-130,-183,-17
9250,-96,336,-2168,-114,-155,-4
9255,-112,400,-2200,-102,-136,4
9260,-112,432,-2184,-83,-117,-2
9265,-120,456,-2216,-54,-105,-6
9270,-112,456,-2224,-35,-101,-7
9275,-136,448,-2224,-32,-102,-6
9280,-104,464,-2280,-24,-118,-6
9285,-128,448,-2280,-9,-139,-3
9290,-152,400,-2256,4,-152,7
9295,-112,448,-2344,15,-147,26
9300,-120,392,-2368,29,-138,30
9305,-152,304,-2408,45,-123,39
9310,-208,112,-2408,73,-103,49
9315,-280,176,-2488,133,-78,46
9320,-296,248,-2480,178,-61,38
9325,-176,56,-2360,187,-48,42
9330,-168,-152,-2296,232,-38,19
9335,-184,-104,-2264,297,-31,-15
9340,-80,-16,-2256,346,-22,-51
9345,-192,-168,-2264,383,-32,-78
9350,-128,-64,-2288,420,-58,-101
9355,-168,-24,-2416,455,-80,-111
9360,-128,-24,-2464,491,-84,-125
9365,-160,-152,-2552,535,-79,-139
9370,32,-88,-2656,575,-72,-158
9375,16,160,-2776,581,-65,-157
9380,-208,-24,-2600,558,-54,-141
9385,-256,280,-2712,561,-51,-172
9390,-280,-120,-2616,571,-39,-173
9395,-96,128,-2664,591,-15,-153
9400,-120,-96,-2576,611,10,-160
9405,-184,-192,-2624,704,31,-168
9410,-104,-152,-2640,777,52,-159
9415,-224,-120,-2576,841,83,-145
9420,-216,-184,-2560,962,95,-96
9425,136,-192,-2592,1026,85,-61
9430,8,80,-2568,1083,72,-103
9435,-104,328,-2672,1098,36,-121
9440,-264,376,-2616,1103,-34,-127
9445,-120,672,-2856,1158,-133,-138
9450,-56,744,-2944,1199,-207,-166
9455,-104,864,-2952,1128,-233,-184
9460,-304,1024,-2992,1046,-230,-201
9465,-328,1192,-2944,944,-208,-188
9470,-296,1472,-3104,880,-170,-172
9475,-208,1688,-3392,879,-116,-169
9480,-240,1680,-3552,986,-93,-162
9485,-344,1472,-3608,1103,-117,-154
9490,-448,1288,-3640,1192,-119,-146
9495,-384,1072,-3656,1152,-92,-123
9500,-408,912,-3448,999,-41,-108
9505,-360,632,-3128,779,-20,-84
9510,-416,464,-2816,592,17,-69
9515,-408,392,-2648,497,42,-62
9520,-376,304,-2512,456,59,-58
9525,-336,240,-2480,432,68,-57
9530,-336,136,-2384,416,69,-59
9535,-280,64,-2288,403,65,-63
9540,-288,-32,-2224,389,55,-62
9545,-248,-144,-2184,380,46,-59
9550,-208,-256,-2224,373,46,-57
9555,-176,-336,-2264,361,50,-58
9560,-160,-416,-2272,340,50,-62
9565,-112,-448,-2336,323,44,-66
9570,-112,-456,-2400,309,34,-74
9575,-88,-424,-2416,299,28,-83
9580,-80,-376,-2376,284,23,-93
9585,-72,-304,-2376,270,11,-105
9590,-8,-240,-2368,262,-13,-121
9595,-24,-168,-2320,258,-40,-135
9600,-80,-64,-2280,255,-72,-150
9605,-72,-16,-2296,249,-100,-161
9610,-104,56,-2232,239,-120,-171
9615,-112,72,-2200,232,-137,-177
9620,-120,120,-2152,224,-150,-184
9625,-120,160,-2144,211,-165,-184
9630,-128,176,-2096,183,-186,-182
9635,-112,152,-2064,153,-218,-178
9640,-104,192,-2144,134,-249,-174
9645,-80,184,-2168,116,-264,-176
9650,-104,160,-2176,96,-264,-184
9655,-96,96,-2200,87,-264,-187
9660,-88,80,-2256,82,-274,-192
9665,-72,32,-2344,76,-281,-200
9670,-40,24,-2464,77,-283,-203
9675,-16,-64,-2544,75,-289,-206
9680,8,-96,-2552,65,-305,-210
9685,72,-56,-2616,60,-339,-217
9690,56,-136,-2536,35,-371,-229
9695,104,-152,-2504,7,-414,-236
9700,144,-152,-2512,-9,-465,-249
9705,136,-184,-2448,-20,-518,-266
9710,96,-184,-2448,1,-575,-286
9715,48,-216,-2360,49,-617,-311
9720,8,-152,-2384,95,-629,-330
9725,-96,-184,-2392,116,-609,-342
9730,-144,-128,-2400,120,-574,-353
9735,-168,-96,-2296,102,-542,-363
9740,-208,-136,-2192,84,-534,-364
9745,-184,-104,-2168,86,-539,-345
9750,-168,-72,-2160,90,-563,-333
9755,-128,-8,-2272,105,-597,-324
9760,-184,64,-2288,96,-629,-304
9765,-184,96,-2296,84,-671,-290
9770,-200,200,-2376,83,-717,-283
9775,-192,232,-2392,68,-753,-268
9780,-232,312,-2392,33,-774,-254
9785,-344,384,-2360,-10,-791,-250
9790,-360,384,-2272,-69,-808,-246
9795,-432,336,-2224,-113,-823,-240
9800,-472,384,-2200,-144,-850,-241
9805,-560,360,-2248,-191,-879,-244
9810,-640,304,-2280,-240,-915,-236
9815,-680,288,-2336,-300,-943,-227
9820,-648,200,-2288,-368,-964,-215
9825,-592,120,-2280,-426,-979,-210
9830,-520,120,-2336,-468,-989,-205
9835,-432,80,-2400,-511,-994,-212
9840,-336,40,-2376,-547,-986,-218
9845,-264,-8,-2304,-565,-967,-221
9850,-216,-32,-2232,-567,-955,-240
9855,-128,-72,-2168,-562,-961,-259
9860,-112,-72,-2096,-545,-975,-279
9865,-136,-88,-2120,-521,-999,-301
9870,-216,8,-2120,-496,-1028,-323
9875,-264,32,-2200,-499,-1062,-339
9880,-368,104,-2184,-520,-1089,-348
9885,-424,112,-2296,-549,-1110,-345
9890,-496,176,-2328,-578,-1126,-338
9895,-584,208,-2296,-613,-1132,-325
9900,-656,320,-2296,-642,-1131,-315
9905,-680,312,-2200,-678,-1125,-307
9910,-728,336,-2128,-708,-1121,-308
9915,-792,352,-2064,-729,-1119,-318
9920,-832,320,-2064,-739,-1119,-330
9925,-848,312,-2056,-739,-1125,-341
9930,-872,264,-1976,-728,-1139,-352
9935,-936,200,-1928,-717,-1167,-359
9940,-1016,176,-1848,-696,-1206,-362
9945,-1072,160,-1832,-664,-1237,-359
9950,-1168,152,-1944,-624,-1253,-348
9955,-1200,136,-1960,-592,-1255,-328
9960,-1256,136,-1976,-565,-1245,-307
9965,-1272,136,-1976,-541,-1228,-288
9970,-1296,144,-1960,-521,-1209,-276
9975,-1288,168,-1848,-514,-1192,-272
9980,-1288,136,-1776,-514,-1169,-271
9985,-1240,72,-1640,-510,-1143,-269
9990,-1168,0,-1608,-492,-1119,-265
9995,-1112,-120,-1616,-460,-1104,-257
10000,-1104,-240,-1544,-424,-1093,-241
10005,-1080,-328,-1568,-382,-1076,-230
10010,-1032,-424,-1600,-340,-1041,-213
10015,-1008,-448,-1544,-302,-979,-192
10020,-960,-504,-1536,-265,-896,-172
10025,-896,-576,-1472,-212,-800,-152
10030,-864,-608,-1536,-135,-705,-131
10035,-808,-600,-1600,-32,-623,-96
10040,-720,-640,-1568,64,-554,-61
10045,-704,-680,-1480,140,-485,-15
10050,-560,-592,-1456,238,-395,35
10055,-480,-480,-1488,322,-299,76
10060,-312,-632,-1392,351,-223,93
10065,-168,-760,-1136,424,-149,101
10070,-312,-864,-976,589,-50,130
10075,-352,-816,-1024,785,17,182
10080,-272,-912,-1016,908,61,258
10085,-168,-992,-1112,997,131,324
10090,-352,-960,-1248,1058,230,329
10095,-472,-968,-1344,1066,337,333
10100,-360,-1024,-1320,953,408,384
10105,-208,-1160,-1192,797,504,433
10110,-360,-1000,-1264,741,672,426
10115,-328,-848,-1424,736,795,419
10120,-392,-624,-1552,661,806,382
10125,-136,-576,-1504,553,840,377
10130,-288,-560,-1736,525,982,407
10135,-248,-520,-1816,411,1053,452
10140,-128,-520,-1808,274,1117,480
10145,-200,-592,-1704,217,1200,486
10150,-208,-712,-1648,322,1338,487
10155,-216,-872,-1576,538,1527,469
10160,-232,-936,-1560,801,1727,431
10165,-264,-984,-1504,1038,1904,377
10170,-368,-968,-1456,1219,2071,324
10175,-352,-944,-1496,1364,2195,265
10180,-448,-824,-1512,1463,2261,221
10185,-456,-656,-1656,1496,2308,184
10190,-648,-456,-1752,1524,2359,177
10195,-648,-368,-1856,1544,2411,212
10200,-728,-208,-1888,1544,2458,247
10205,-832,-112,-1928,1548,2509,293
10210,-896,-56,-1936,1558,2580,350
10215,-888,0,-1920,1572,2672,407
10220,-912,-56,-1840,1593,2790,458
10225,-856,-176,-1776,1624,2926,495
10230,-784,-216,-1824,1653,3061,513
10235,-712,-360,-1832,1660,3189,507
10240,-440,-512,-1896,1658,3291,491
10245,-544,-664,-1792,1680,3390,462
10250,-432,-864,-1824,1690,3358,375
10255,-96,-928,-1968,1706,3294,269
10260,-120,-928,-2096,1742,3266,195
10265,-56,-1000,-2160,1788,3210,132
10270,88,-1016,-2200,1857,3123,92
10275,-104,-1032,-2208,1941,3025,67
10280,-96,-952,-2256,2015,2865,19
10285,-136,-840,-2320,2042,2695,-33
10290,-208,-768,-2344,2008,2541,-69
10295,-248,-712,-2264,1948,2405,-74
10300,-248,-656,-2272,1884,2296,-65
10305,-288,-616,-2288,1829,2235,-52
10310,-408,-584,-2184,1774,2210,-45
10315,-504,-520,-2200,1709,2161,-95
10320,-552,-632,-2224,1642,2142,-157
10325,-648,-768,-2376,1609,2166,-197
10330,-648,-792,-2488,1580,2162,-235
10335,-536,-840,-2712,1535,2121,-273
10340,-624,-960,-2736,1470,2060,-302
10345,-640,-1136,-2768,1427,1907,-318
10350,-560,-1224,-2848,1416,1732,-307
10355,-440,-1288,-2912,1405,1537,-299
10360,-376,-1320,-2912,1380,1334,-275
10365,-248,-1440,-2840,1342,1140,-227
10370,-96,-1512,-2792,1308,962,-162
10375,80,-1592,-2768,1282,815,-99
10380,296,-1656,-2768,1273,696,-48
10385,424,-1664,-2696,1279,602,-27
10390,544,-1680,-2656,1290,513,-29
10395,648,-1592,-2632,1302,428,-64
10400,720,-1528,-2624,1303,373,-113
10405,760,-1456,-2560,1303,347,-178
10410,760,-1392,-2512,1301,311,-237
10415,784,-1280,-2448,1278,261,-302
10420,656,-1176,-2336,1238,222,-377
10425,544,-1088,-2384,1193,178,-433
10430,496,-1032,-2488,1117,159,-486
10435,432,-1048,-2504,1011,150,-530
10440,336,-1072,-2488,875,162,-574
10445,272,-1144,-2480,726,185,-623
10450,272,-1224,-2480,598,227,-662
10455,328,-1384,-2424,492,307,-690
10460,296,-1496,-2280,426,392,-701
10465,616,-1592,-2304,434,468,-697
10470,784,-1680,-2272,475,599,-705
10475,856,-1752,-2144,541,740,-716
10480,1008,-1888,-2048,632,839,-715
10485,1104,-1944,-2000,741,895,-714
10490,1248,-1984,-2056,860,933,-712
10495,1392,-1904,-2144,969,967,-716
10500,1544,-1864,-2272,1065,997,-739
10505,1600,-1736,-2336,1157,1046,-722
10510,1704,-1512,-2408,1211,1077,-676
10515,1688,-1344,-2392,1228,1094,-661
10520,1632,-1200,-2408,1233,1117,-650
10525,1544,-1056,-2424,1224,1174,-644
10530,1488,-968,-2384,1199,1259,-644
10535,1400,-952,-2272,1163,1349,-646
10540,1440,-856,-2248,1105,1427,-647
10545,1376,-848,-2216,1020,1525,-645
10550,1336,-912,-2112,919,1625,-643
10555,1312,-968,-2008,834,1714,-648
10560,1248,-1016,-1920,776,1792,-650
10565,1208,-1064,-1832,753,1856,-653
10570,1144,-1128,-1712,765,1912,-655
10575,1088,-1184,-1664,805,1961,-649
10580,1048,-1232,-1680,864,2007,-632
10585,1032,-1248,-1720,923,2057,-605
10590,1032,-1264,-1736,978,2123,-574
10595,1032,-1208,-1736,1030,2195,-533
10600,1056,-1120,-1728,1072,2270,-484
10605,1136,-1016,-1712,1098,2335,-435
10610,1248,-928,-1672,1103,2381,-385
10615,1328,-840,-1560,1085,2415,-336
10620,1376,-760,-1448,1045,2442,-293
10625,1408,-664,-1360,996,2465,-255
10630,1368,-592,-1184,938,2472,-233
10635,1432,-552,-1072,873,2452,-214
10640,1400,-480,-1040,786,2419,-194
10645,1280,-416,-904,682,2381,-164
10650,1320,-464,-880,577,2320,-130
10655,1248,-480,-808,475,2245,-112
10660,1208,-496,-776,384,2166,-101
10665,1176,-624,-760,311,2096,-100
10670,1088,-712,-688,263,2033,-94
10675,1224,-872,-624,273,1976,-74
10680,1216,-904,-608,339,1925,-61
10685,1224,-1008,-640,425,1899,-42
10690,1056,-1136,-624,510,1863,-34
10695,904,-1208,-552,608,1809,4
10700,1080,-1496,-488,733,1724,36
10705,1136,-1624,-480,893,1618,66
10710,1088,-1648,-448,1052,1500,74
10715,904,-1656,-416,1185,1364,87
10720,808,-1744,-384,1288,1197,102
10725,744,-1808,-384,1343,1021,115
10730,656,-1928,-344,1365,873,160
10735,456,-1848,-288,1351,710,194
10740,440,-1736,-344,1335,553,230
10745,472,-1672,-408,1276,441,307
10750,344,-1640,-336,1139,350,377
10755,576,-1664,-392,973,250,439
10760,728,-1800,-400,813,170,481
10765,880,-1704,-440,681,93,472
10770,808,-1664,-464,597,46,467
10775,984,-1704,-376,573,-3,502
10780,1136,-1720,-496,624,-86,534
10785,1176,-1704,-496,718,-180,579
10790,1304,-1776,-488,841,-280,653
10795,1488,-1896,-536,998,-385,712
10800,1456,-1936,-584,1163,-473,741
10805,1416,-1952,-496,1310,-538,760
10810,1424,-2000,-464,1467,-596,799
10815,1448,-2016,-480,1626,-649,840
10820,1424,-2008,-472,1745,-671,877
10825,1368,-1992,-520,1798,-669,930
10830,1352,-1960,-544,1782,-642,995
10835,1320,-1864,-624,1709,-606,1046
10840,1424,-1776,-680,1568,-559,1096
10845,1376,-1672,-672,1394,-507,1147
10850,1360,-1568,-624,1224,-466,1201
10855,1368,-1480,-632,1065,-445,1248
10860,1296,-1456,-576,922,-439,1279
10865,1168,-1432,-528,804,-453,1272
10870,1080,-1448,-432,724,-474,1256
10875,1000,-1416,-384,680,-503,1230
10880,856,-1424,-392,669,-526,1204
10885,880,-1424,-432,678,-533,1166
10890,632,-1240,-448,695,-528,1110
10895,696,-1312,-408,734,-521,1102
10900,536,-1280,-440,782,-527,1073
10905,552,-1304,-448,830,-539,1057
10910,488,-1304,-400,869,-569,1041
10915,456,-1272,-408,885,-632,1025
10920,176,-1232,-368,887,-710,1026
10925,328,-1264,-272,893,-792,1093
10930,272,-1224,-248,910,-892,1149
10935,320,-1200,-192,933,-997,1214
10940,376,-1200,-136,962,-1106,1271
10945,424,-1192,-80,991,-1207,1314
10950,552,-1312,-64,1000,-1281,1337
10955,672,-1416,-8,1001,-1323,1332
10960,720,-1480,16,992,-1329,1312
10965,800,-1568,-24,960,-1314,1285
10970,944,-1680,8,902,-1267,1241
10975,1048,-1752,-56,830,-1210,1174
10980,1176,-1752,-160,745,-1147,1093
10985,1248,-1904,-104,656,-1074,1000
10990,1272,-1960,-136,590,-997,902
10995,1360,-2000,-144,556,-930,800
11000,1376,-2056,-144,540,-873,690
11005,1400,-2112,-224,543,-819,578
11010,1272,-2072,-320,560,-762,471
11015,1296,-2128,-264,585,-714,380
11020,1176,-2224,-240,619,-693,296
11025,968,-2328,-248,661,-691,229
11030,880,-2352,-344,692,-697,173
11035,704,-2400,-464,688,-697,140
11040,464,-2448,-560,647,-695,129
11045,344,-2424,-648,574,-700,148
11050,168,-2400,-712,499,-724,196
11055,152,-2432,-768,421,-776,258
11060,104,-2496,-768,342,-854,310
11065,72,-2544,-776,270,-956,343
11070,0,-2616,-768,210,-1046,375
11075,-8,-2680,-720,192,-1112,412
11080,104,-2816,-648,206,-1140,460
11085,96,-2792,-728,259,-1146,488
11090,64,-2744,-784,322,-1115,524
11095,216,-2760,-800,356,-1038,590
11100,360,-2720,-792,363,-937,647
11105,552,-2696,-824,374,-842,662
11110,768,-2584,-920,384,-762,643
11115,880,-2480,-920,365,-696,596
11120,1008,-2400,-944,325,-642,544
11125,1144,-2288,-936,275,-590,486
11130,1232,-2240,-832,224,-541,417
11135,1224,-2168,-792,185,-500,350
11140,1264,-2184,-696,146,-468,296
11145,1216,-2152,-592,120,-444,251
11150,1136,-2160,-440,114,-434,210
11155,1032,-2176,-328,143,-441,190
11160,936,-2136,-296,199,-465,188
11165,848,-2176,-208,248,-503,205
11170,712,-2208,-144,312,-554,247
11175,624,-2208,-152,399,-608,297
11180,416,-2192,-120,475,-673,367
11185,360,-2280,-80,524,-749,442
11190,288,-2272,-104,548,-816,500
11195,184,-2360,-96,541,-859,544
11200,160,-2432,-40,514,-880,583
11205,96,-2480,-64,477,-885,605
11210,8,-2512,-56,414,-884,603
11215,-104,-2552,-88,328,-873,589
11220,-120,-2592,-112,242,-854,572
11225,-128,-2584,-160,165,-829,540
11230,-160,-2632,-168,96,-805,491
11235,-144,-2632,-192,45,-770,434
11240,-144,-2624,-208,9,-716,381
11245,-72,-2640,-224,-16,-646,331
11250,-96,-2600,-256,-22,-562,279
11255,-56,-2584,-200,-22,-478,228
11260,-8,-2568,-160,-14,-404,178
11265,88,-2552,-112,-9,-341,137
11270,144,-2520,-104,-14,-289,109
11275,224,-2496,-88,-34,-254,92
11280,432,-2496,-72,-79,-227,84
11285,552,-2496,-88,-142,-184,72
11290,664,-2504,-80,-208,-134,58
11295,816,-2448,-40,-282,-91,49
11300,912,-2408,-48,-355,-52,47
11305,960,-2384,-120,-426,-4,51
11310,1016,-2384,-240,-493,31,67
11315,1040,-2384,-360,-557,39,83
11320,1024,-2384,-472,-612,22,104
11325,1008,-2400,-600,-662,-21,111
11330,984,-2392,-776,-711,-84,122
11335,840,-2328,-912,-758,-147,148
11340,672,-2200,-1136,-812,-204,198
11345,872,-2280,-1336,-908,-249,281
11350,688,-2528,-1256,-1004,-246,279
11355,360,-2656,-1440,-1027,-257,243
11360,264,-2736,-1496,-1035,-239,258
11365,64,-2784,-1520,-1052,-219,298
11370,64,-2856,-1448,-1049,-211,355
11375,-120,-2904,-1336,-995,-206,395
11380,-128,-2952,-1200,-884,-214,444
11385,-216,-2832,-1080,-743,-241,473
11390,-208,-2712,-1016,-598,-277,503
11395,-224,-2568,-920,-457,-317,524
11400,-144,-2432,-840,-319,-353,538
11405,-128,-2272,-792,-186,-387,540
11410,-128,-2064,-760,-83,-420,523
11415,-88,-1880,-776,-18,-453,505
11420,-56,-1744,-712,6,-488,478
11425,-72,-1600,-648,10,-531,446
11430,-72,-1480,-608,11,-586,412
11435,-120,-1408,-608,12,-655,386
11440,-232,-1304,-504,2,-739,362
11445,-296,-1224,-432,-2,-839,344
11450,-424,-1184,-376,-6,-943,333
11455,-456,-1168,-296,-12,-1039,331
11460,-472,-1192,-304,-18,-1119,329
11465,-576,-1176,-256,-32,-1178,319
11470,-584,-1232,-208,-46,-1220,323
11475,-592,-1216,-176,-63,-1252,330
11480,-584,-1296,-112,-80,-1278,344
11485,-560,-1352,-80,-94,-1300,369
11490,-528,-1400,-16,-107,-1317,403
11495,-512,-1480,24,-109,-1314,439
11500,-472,-1512,112,-93,-1287,483
11505,-432,-1624,152,-52,-1234,531
11510,-360,-1736,312,31,-1170,588
11515,-416,-1808,400,138,-1108,649
11520,-336,-1920,512,263,-1045,726
11525,-272,-2024,552,400,-958,800
11530,-256,-2112,576,525,-872,878
11535,-96,-2224,640,629,-808,940
11540,-48,-2352,584,741,-747,986
11545,8,-2368,464,846,-678,1017
11550,8,-2408,272,901,-635,1036
11555,88,-2200,88,885,-637,1047
11560,256,-2072,-88,798,-652,1055
11565,336,-1984,-272,659,-649,1046
11570,376,-1944,-416,494,-629,1020
11575,376,-1840,-560,339,-612,958
11580,376,-1728,-776,189,-593,907
11585,336,-1584,-808,16,-573,848
11590,344,-1576,-840,-143,-543,791
11595,288,-1472,-808,-266,-502,719
11600,352,-1544,-736,-324,-418,698
11605,328,-1536,-624,-328,-313,670
11610,256,-1512,-616,-291,-207,639
11615,216,-1488,-592,-263,-121,609
11620,80,-1464,-536,-271,-62,570
11625,-40,-1368,-472,-301,-17,532
11630,-56,-1424,-336,-320,28,505
11635,-112,-1392,-168,-258,80,471
11640,-160,-1440,0,-120,145,449
11645,-256,-1416,88,65,195,423
11650,-320,-1392,128,275,229,395
11655,-344,-1408,192,489,260,368
11660,-344,-1344,152,658,287,333
11665,-368,-1376,128,843,319,299
11670,-344,-1464,152,1010,345,252
11675,-440,-1376,240,1167,376,195
11680,-424,-1392,208,1313,421,168
11685,-424,-1408,272,1435,497,152
11690,-400,-1512,336,1523,584,130
11695,-384,-1600,360,1583,661,114
11700,-320,-1656,368,1608,736,86
11705,-264,-1680,392,1587,815,44
11710,-176,-1688,408,1562,909,-26
11715,-112,-1696,328,1550,1021,-111
11720,96,-1648,296,1524,1145,-213
11725,112,-1552,136,1481,1285,-332
11730,152,-1392,-80,1423,1429,-454
11735,280,-1224,-264,1319,1566,-568
11740,376,-1152,-320,1159,1675,-683
11745,400,-1000,-464,1000,1746,-807
11750,456,-880,-608,853,1795,-895
11755,472,-680,-792,668,1812,-960
11760,600,-800,-824,418,1789,-995
11765,544,-1008,-736,145,1718,-1057
11770,432,-864,-896,-55,1615,-1095
11775,320,-1224,-760,-291,1486,-1047
11780,296,-1208,-776,-516,1338,-995
11785,168,-1680,-592,-727,1192,-947
11790,-216,-1856,-400,-848,1037,-914
11795,-520,-1960,-336,-882,884,-819
11800,-504,-2064,-336,-882,732,-712
11805,-768,-2448,-96,-874,598,-655
11810,-752,-2368,-224,-725,479,-585
11815,-888,-2464,-336,-509,409,-493
11820,-960,-2144,-680,-285,355,-400
11825,-928,-2080,-944,-123,319,-289
11830,-848,-2120,-1160,-43,285,-215
11835,-840,-2024,-1464,25,244,-182
11840,-720,-1912,-1736,74,208,-150
11845,-664,-1800,-1976,48,184,-138
11850,-568,-1872,-2080,-58,160,-137
11855,-480,-1984,-2112,-198,134,-139
11860,-328,-2160,-2024,-334,117,-137
11865,-144,-2376,-1912,-444,125,-127
11870,24,-2568,-1824,-528,164,-111
11875,176,-2776,-1688,-591,229,-87
11880,344,-2928,-1496,-630,302,-57
11885,496,-3040,-1344,-646,371,-20
11890,640,-3120,-1224,-638,425,20
11895,736,-3160,-1080,-595,459,66
11900,840,-3144,-976,-522,474,110
11905,928,-3128,-944,-421,467,153
11910,976,-3064,-944,-294,441,193
11915,1040,-2984,-936,-156,404,224
11920,1056,-2840,-1008,-21,361,247
11925,1080,-2696,-1056,92,323,254
11930,1088,-2536,-1088,171,302,240
11935,1024,-2344,-1120,222,293,208
11940,1032,-2272,-1160,242,295,168
11945,952,-2032,-1000,241,304,119
11950,888,-1944,-920,224,308,68
11955,800,-1816,-888,195,305,9
11960,736,-1744,-768,162,299,-53
11965,640,-1704,-672,125,290,-117
11970,576,-1680,-608,86,278,-184
11975,480,-1656,-584,43,270,-248
11980,400,-1680,-488,-4,264,-310
11985,336,-1720,-448,-48,266,-370
11990,240,-1728,-472,-87,273,-427
11995,144,-1744,-448,-112,287,-474
12000,40,-1760,-472,-119,306,-511
12005,-64,-1768,-472,-113,327,-534
12010,-128,-1776,-536,-96,350,-544
12015,-192,-1752,-528,-72,368,-538
12020,-232,-1752,-544,-41,378,-516
12025,-232,-1736,-544,-6,384,-483
12030,-176,-1704,-560,30,389,-442
12035,-128,-1744,-520,67,398,-396
12040,-48,-1752,-496,105,414,-352
12045,88,-1768,-440,145,431,-308
12050,152,-1840,-376,184,451,-273
12055,248,-1904,-272,218,466,-238
12060,336,-1944,-224,247,468,-206
12065,344,-1984,-176,265,451,-175
12070,368,-1992,-152,272,411,-145
12075,368,-2048,-128,275,351,-117
12080,336,-2048,-112,266,277,-92
12085,352,-2064,-144,254,199,-69
12090,352,-2088,-224,231,129,-52
12095,288,-2064,-232,203,75,-40
12100,272,-2112,-264,169,30,-33
12105,224,-2072,-352,129,-6,-38
12110,248,-2104,-344,96,-23,-55
12115,232,-2080,-328,78,-21,-78
12120,264,-2072,-296,70,-4,-98
12125,264,-2096,-272,68,29,-116
12130,256,-2088,-240,66,62,-145
12135,272,-2064,-160,79,99,-174
12140,272,-2096,-112,115,144,-201
12145,296,-2080,-72,171,186,-230
12150,344,-2112,-8,236,224,-259
12155,352,-2096,0,296,252,-289
12160,312,-2112,-8,353,265,-323
12165,304,-2104,-16,404,258,-369
12170,272,-2064,-32,445,235,-415
12175,232,-2000,-8,482,208,-446
12180,176,-2000,-32,506,176,-456
12185,136,-1872,-104,519,140,-453
12190,152,-1816,-184,506,105,-423
12195,120,-1792,-200,462,80,-371
12200,104,-1776,-168,398,59,-310
12205,112,-1776,-184,341,37,-258
12210,104,-1776,-168,292,11,-216
12215,120,-1760,-184,255,-16,-175
12220,128,-1768,-144,222,-42,-136
12225,152,-1784,-224,197,-73,-101
12230,160,-1776,-200,172,-105,-66
12235,176,-1768,-192,152,-138,-36
12240,184,-1760,-256,135,-174,-13
12245,208,-1728,-264,119,-205,6
12250,232,-1712,-232,110,-229,21
12255,224,-1696,-184,103,-250,34
12260,184,-1680,-184,103,-270,44
12265,160,-1728,-80,116,-294,51
12270,160,-1792,-48,143,-322,60
12275,112,-1768,16,181,-352,69
12280,80,-1776,8,218,-383,77
12285,80,-1752,-24,243,-400,91
12290,80,-1728,-16,262,-390,111
12295,96,-1664,-32,272,-358,133
12300,112,-1640,0,283,-317,153
12305,120,-1624,32,307,-281,174
12310,144,-1640,128,342,-259,198
12315,128,-1656,176,388,-250,224
12320,184,-1712,280,443,-255,250
12325,200,-1728,312,499,-271,277
12330,208,-1704,384,550,-300,307
12335,208,-1736,472,595,-337,338
12340,168,-1728,496,629,-385,375
12345,160,-1712,496,656,-445,416
12350,128,-1704,520,671,-510,458
12355,80,-1664,464,676,-573,499
12360,16,-1616,448,672,-624,539
12365,-40,-1560,448,667,-665,579
12370,-56,-1560,392,661,-691,616
12375,-104,-1504,336,651,-706,644
12380,-88,-1472,296,642,-715,664
12385,-88,-1416,312,623,-716,678
12390,-80,-1376,280,595,-710,690
12395,-40,-1296,272,561,-695,694
12400,-24,-1288,192,524,-672,695
12405,48,-1280,200,470,-651,691
12410,104,-1288,168,400,-637,666
12415,184,-1392,176,314,-630,639
12420,208,-1296,80,220,-626,609
12425,272,-1384,112,95,-605,603
12430,304,-1448,64,-56,-573,598
12435,360,-1496,-32,-197,-542,576
12440,384,-1592,0,-308,-503,561
12445,448,-1688,40,-360,-461,544
12450,472,-1672,56,-341,-413,524
12455,480,-1504,-32,-296,-369,496
12460,536,-1616,32,-286,-330,504
12465,592,-1672,104,-279,-309,499
12470,640,-1728,184,-263,-310,470
12475,648,-1856,240,-232,-327,424
12480,688,-1872,208,-176,-327,383
12485,736,-1992,248,-110,-311,345
12490,752,-2184,224,-36,-276,319
12495,816,-2192,24,69,-236,283
12500,840,-2168,-136,152,-178,232
12505,872,-2072,-440,198,-85,195
12510,912,-2144,-632,192,33,170
12515,944,-2072,-840,169,154,127
12520,1016,-2040,-1096,112,265,98
12525,1056,-1984,-1304,20,358,51
12530,1080,-1952,-1440,-93,435,8
12535,1040,-1968,-1440,-216,492,-29
12540,944,-2008,-1424,-322,524,-64
12545,776,-2008,-1288,-408,523,-94
12550,608,-2112,-1128,-467,504,-110
12555,440,-2272,-872,-492,480,-119
12560,328,-2456,-624,-482,467,-128
12565,120,-2584,-328,-441,471,-136
12570,-40,-2696,-48,-373,493,-136
12575,-112,-2840,192,-290,530,-130
12580,-232,-2944,432,-178,567,-135
12585,-336,-3000,496,-57,607,-148
12590,-296,-3048,424,32,653,-157
12595,-312,-3080,288,75,701,-180
12600,-368,-3016,88,69,751,-217
12605,-416,-2960,-184,22,811,-255
12610,-520,-2776,-424,-79,872,-290
12615,-576,-2592,-656,-220,929,-300
12620,-568,-2440,-800,-384,976,-286
12625,-568,-2360,-888,-545,1014,-251
12630,-488,-2288,-976,-693,1032,-203
12635,-400,-2232,-976,-828,1032,-158
12640,-192,-2216,-1072,-948,1018,-106
12645,-24,-2248,-1096,-1049,1000,-67
12650,160,-2272,-1064,-1127,991,-44
12655,216,-2352,-992,-1181,993,-26
12660,264,-2488,-928,-1206,996,-7
12665,328,-2608,-816,-1207,1001,13
12670,376,-2768,-672,-1174,1019,42
12675,432,-2912,-576,-1106,1034,61
12680,576,-3008,-520,-1011,1054,63
12685,592,-3048,-448,-893,1077,54
12690,592,-3072,-504,-758,1108,43
12695,600,-3056,-576,-610,1154,40
12700,520,-2992,-680,-470,1210,49
12705,496,-2920,-840,-347,1271,60
12710,480,-2760,-960,-242,1340,71
12715,456,-2608,-1040,-151,1424,77
12720,416,-2456,-1128,-80,1508,69
12725,424,-2280,-1168,-39,1581,43
12730,384,-2240,-1128,-38,1664,20
12735,400,-2176,-1120,-31,1767,13
12740,360,-2080,-1096,-51,1871,9
12745,360,-1992,-1096,-108,1966,15
12750,288,-1976,-1032,-186,2060,31
12755,264,-1952,-960,-273,2149,49
12760,256,-1968,-872,-351,2230,72
12765,192,-1960,-856,-411,2294,96
12770,144,-1936,-792,-451,2340,113
12775,104,-1944,-744,-477,2373,124
12780,56,-1872,-696,-493,2389,131
12785,-16,-1864,-672,-499,2388,137
12790,-88,-1808,-672,-497,2375,141
12795,-128,-1808,-688,-488,2347,148
12800,-216,-1792,-680,-465,2306,154
12805,-280,-1744,-680,-432,2259,158
12810,-368,-1688,-624,-391,2206,167
12815,-472,-1640,-624,-344,2153,178
12820,-536,-1600,-648,-294,2104,189
12825,-544,-1568,-680,-246,2064,201
12830,-560,-1528,-688,-212,2035,212
12835,-536,-1512,-784,-195,2012,218
12840,-504,-1504,-832,-194,1998,222
12845,-480,-1520,-824,-211,1984,218
12850,-432,-1576,-824,-239,1967,213
12855,-384,-1632,-848,-273,1944,205
12860,-352,-1712,-776,-303,1914,198
12865,-280,-1792,-728,-321,1878,185
12870,-288,-1848,-704,-320,1830,169
12875,-312,-1888,-648,-306,1773,158
12880,-296,-1904,-656,-280,1709,150
12885,-328,-1936,-680,-254,1643,146
12890,-352,-1888,-752,-225,1573,139
12895,-392,-1864,-808,-200,1505,135
12900,-424,-1832,-808,-185,1443,135
12905,-440,-1776,-848,-177,1385,138
12910,-464,-1744,-864,-173,1330,143
12915,-456,-1728,-832,-166,1272,147
12920,-440,-1680,-760,-149,1207,154
12925,-408,-1672,-704,-126,1140,169
12930,-384,-1656,-688,-99,1071,187
12935,-328,-1672,-592,-76,1003,209
12940,-288,-1720,-560,-56,933,225
12945,-296,-1768,-504,-38,861,242
12950,-288,-1816,-488,-21,793,257
12955,-296,-1856,-480,-3,731,267
12960,-280,-1864,-472,9,671,271
12965,-304,-1904,-504,11,615,271
12970,-312,-1888,-560,6,568,264
12975,-272,-1920,-632,-5,526,252
12980,-264,-1896,-712,-22,498,231
12985,-200,-1928,-736,-45,475,202
12990,-128,-1920,-744,-78,458,169
12995,-72,-1928,-736,-116,442,133
13000,24,-1936,-752,-148,425,98
13005,56,-1952,-728,-170,402,66
13010,104,-1984,-720,-181,377,39
13015,152,-1984,-720,-183,360,12
13020,144,-1960,-760,-182,356,-14
13025,160,-1976,-744,-180,365,-39
13030,152,-1960,-728,-179,384,-63
13035,128,-1936,-752,-179,405,-83
13040,96,-1920,-808,-182,425,-97
13045,88,-1952,-792,-194,439,-106
13050,96,-1976,-824,-215,445,-111
13055,96,-2040,-840,-239,448,-108
13060,64,-2056,-864,-262,447,-105
13065,72,-2072,-936,-287,443,-95
13070,56,-2176,-896,-315,443,-82
13075,56,-2248,-824,-320,447,-76
13080,0,-2256,-784,-301,449,-66
13085,40,-2288,-696,-264,449,-55
13090,32,-2312,-616,-205,450,-44
13095,64,-2296,-504,-136,452,-37
13100,112,-2272,-464,-62,457,-27
13105,160,-2200,-440,3,465,-19
13110,168,-2152,-440,45,477,-15
13115,208,-2112,-456,66,490,-15
13120,160,-2128,-456,64,500,-19
13125,128,-2072,-480,45,499,-24
13130,104,-2080,-560,10,492,-32
13135,56,-2088,-624,-42,479,-43
13140,16,-2080,-688,-106,470,-54
13145,8,-2104,-752,-182,471,-66
13150,-32,-2096,-856,-260,486,-78
13155,-24,-2136,-880,-332,517,-88
13160,-16,-2168,-888,-383,550,-100
13165,-40,-2216,-896,-409,584,-111
13170,8,-2248,-848,-412,611,-122
13175,112,-2232,-776,-391,633,-130
13180,144,-2288,-768,-351,651,-141
13185,216,-2304,-776,-304,669,-152
13190,280,-2320,-728,-249,685,-164
13195,304,-2312,-672,-192,698,-172
13200,312,-2296,-672,-137,704,-175
13205,288,-2208,-624,-91,701,-175
13210,272,-2128,-616,-57,695,-173
13215,240,-2056,-600,-32,685,-168
13220,200,-1984,-504,-14,673,-158
13225,120,-1904,-496,0,655,-146
13230,96,-1872,-464,9,633,-126
13235,56,-1840,-440,11,606,-101
13240,-32,-1776,-416,6,576,-76
13245,-80,-1784,-384,-1,541,-49
13250,-128,-1784,-376,-8,502,-24
13255,-216,-1760,-376,-12,461,-1
13260,-272,-1760,-392,-14,422,22
13265,-304,-1736,-432,-16,384,44
13270,-368,-1736,-464,-17,351,64
13275,-408,-1728,-504,-19,321,80
13280,-408,-1728,-592,-32,292,92
13285,-400,-1768,-608,-53,269,98
13290,-400,-1816,-672,-80,246,98
13295,-368,-1872,-680,-111,222,92
13300,-384,-1928,-664,-140,197,81
13305,-368,-1976,-696,-158,172,70
13310,-384,-2024,-688,-171,158,56
13315,-360,-2104,-728,-180,153,39
13320,-376,-2112,-728,-177,148,19
13325,-368,-2168,-744,-165,141,1
13330,-336,-2208,-768,-156,128,-14
13335,-344,-2232,-768,-149,107,-24
13340,-272,-2280,-760,-142,78,-33
13345,-264,-2264,-704,-136,43,-38
13350,-224,-2288,-712,-123,5,-40
13355,-192,-2272,-648,-107,-30,-39
13360,-152,-2240,-592,-90,-62,-39
13365,-128,-2232,-504,-75,-88,-40
13370,-104,-2208,-504,-59,-112,-43
13375,-72,-2208,-464,-45,-134,-47
13380,-128,-2184,-488,-34,-156,-54
13385,-128,-2184,-504,-27,-180,-57
13390,-152,-2144,-544,-26,-204,-60
13395,-152,-2184,-608,-29,-229,-61
13400,-208,-2112,-592,-38,-253,-60
13405,-216,-2120,-672,-56,-273,-59
13410,-248,-2120,-688,-77,-294,-61
13415,-232,-2136,-760,-99,-314,-54
13420,-192,-2112,-832,-119,-318,-40
13425,-136,-2112,-760,-140,-305,-29
13430,-136,-2144,-696,-153,-277,-20
13435,-128,-2208,-624,-161,-234,-16
13440,-96,-2240,-520,-161,-191,-9
13445,-40,-2296,-504,-156,-162,-1
13450,40,-2296,-392,-149,-150,13
13455,40,-2352,-456,-143,-153,34
13460,56,-2376,-504,-140,-164,57
13465,104,-2416,-592,-149,-177,80
13470,88,-2432,-592,-167,-187,97
13475,96,-2424,-632,-190,-200,110
13480,104,-2464,-688,-212,-214,120
13485,80,-2480,-720,-237,-224,124
13490,72,-2472,-744,-267,-234,123
13495,16,-2496,-704,-293,-237,116
13500,-16,-2496,-696,-308,-234,104
13505,-32,-2488,-656,-311,-224,88
13510,-72,-2440,-656,-302,-212,73
13515,-128,-2368,-656,-285,-203,61
13520,-168,-2288,-648,-260,-200,53
13525,-240,-2176,-600,-227,-203,51
13530,-208,-2088,-544,-193,-215,52
13535,-240,-2000,-448,-152,-232,55
13540,-256,-1912,-416,-103,-254,55
13545,-296,-1808,-392,-57,-276,55
13550,-328,-1688,-344,-16,-294,57
13555,-320,-1632,-336,14,-307,62
13560,-336,-1520,-304,34,-314,70
13565,-328,-1456,-304,44,-319,78
13570,-288,-1400,-288,49,-320,87
13575,-256,-1336,-240,52,-317,92
13580,-200,-1272,-192,55,-319,96
13585,-144,-1240,-136,59,-329,92
13590,-96,-1248,-80,69,-345,84
13595,-40,-1232,48,92,-365,82
13600,-32,-1216,80,131,-392,85
13605,-24,-1192,72,171,-429,90
13610,-24,-1152,88,212,-475,107
13615,-96,-1112,64,259,-534,132
13620,-432,-928,-160,305,-599,166
13625,-120,-1008,-240,288,-695,177
13630,-248,-968,-416,287,-720,233
13635,-280,-992,-624,288,-694,323
13640,-272,-1000,-840,253,-654,404
13645,-216,-1048,-952,188,-611,466
13650,-136,-1224,-1136,97,-571,505
13655,-112,-1360,-1256,-7,-521,531
13660,-40,-1488,-1272,-106,-463,545
13665,40,-1648,-1280,-201,-402,551
13670,152,-1840,-1232,-278,-338,541
13675,248,-2008,-1104,-331,-272,521
13680,360,-2208,-992,-353,-203,491
13685,448,-2408,-896,-359,-141,452
13690,584,-2608,-784,-358,-79,410
13695,656,-2752,-696,-352,-12,359
13700,648,-2880,-600,-342,63,309
13705,664,-2928,-544,-321,148,265
13710,600,-2928,-560,-282,236,228
13715,512,-2864,-568,-229,321,201
13720,432,-2800,-712,-168,394,181
13725,376,-2728,-792,-113,457,170
13730,288,-2648,-848,-63,509,167
13735,200,-2616,-880,-24,543,167
13740,96,-2528,-864,-1,562,165
13745,40,-2504,-864,10,572,163
13750,-16,-2432,-840,9,577,159
13755,-80,-2424,-864,6,578,155
13760,-96,-2408,-784,7,580,152
13765,-136,-2360,-720,16,580,151
13770,-192,-2320,-656,36,587,151
13775,-232,-2312,-608,64,597,153
13780,-280,-2248,-600,96,614,156
13785,-360,-2216,-600,130,637,165
13790,-424,-2176,-632,160,661,181
13795,-480,-2096,-616,183,686,199
13800,-488,-2024,-608,201,705,224
13805,-496,-1952,-624,211,720,247
13810,-480,-1864,-576,216,729,270
13815,-440,-1808,-512,214,734,288
13820,-400,-1752,-504,204,736,300
13825,-392,-1720,-456,187,740,308
13830,-336,-1720,-456,168,747,315
13835,-248,-1720,-424,139,757,319
13840,-144,-1712,-416,113,774,316
13845,-88,-1752,-424,81,795,309
13850,-16,-1792,-384,48,814,291
13855,16,-1800,-392,17,834,267
13860,88,-1856,-344,-8,853,237
13865,96,-1864,-336,-28,873,204
13870,128,-1912,-336,-42,895,166
13875,136,-1976,-336,-50,917,126
13880,120,-2000,-304,-50,939,82
13885,120,-2032,-320,-43,962,39
13890,56,-2040,-344,-25,983,-3
13895,32,-2080,-352,4,1000,-41
13900,-24,-2088,-384,40,1014,-73
13905,-64,-2096,-432,82,1026,-98
13910,-128,-2056,-472,121,1038,-115
13915,-168,-2048,-496,152,1052,-126
13920,-248,-2024,-528,174,1064,-130
13925,-328,-2000,-496,192,1069,-129
13930,-376,-2008,-496,204,1064,-124
13935,-440,-1984,-448,218,1049,-116
13940,-480,-1992,-408,229,1030,-104
13945,-504,-1976,-392,239,1010,-92
13950,-528,-1984,-344,251,993,-80
13955,-576,-1976,-344,260,980,-67
13960,-568,-1976,-352,270,970,-56
13965,-616,-1960,-368,272,965,-45
13970,-632,-1976,-384,268,962,-33
13975,-632,-1984,-400,255,962,-22
13980,-624,-1968,-432,240,964,-13
13985,-608,-1984,-440,225,966,-6
13990,-624,-1960,-472,208,967,-2
13995,-584,-1976,-472,188,969,-1
14000,-560,-2008,-464,169,967,-3
14005,-536,-2016,-464,155,961,-9
14010,-520,-2056,-448,149,948,-15
14015,-504,-2072,-416,150,932,-21
14020,-488,-2080,-408,153,913,-26
14025,-464,-2088,-424,158,900,-29
14030,-440,-2080,-432,163,886,-27
14035,-432,-2056,-456,168,871,-25
14040,-416,-2040,-456,168,858,-20
14045,-408,-2024,-472,166,847,-15
14050,-400,-2024,-488,161,838,-9
14055,-408,-2016,-488,153,825,-4
14060,-400,-2024,-504,149,808,1
14065,-392,-2032,-472,146,793,6
14070,-408,-2048,-440,145,780,10
14075,-392,-2088,-456,149,767,17
14080,-432,-2048,-416,155,760,26
14085,-392,-2096,-456,163,762,38
14090,-416,-2088,-504,172,768,52
14095,-392,-2056,-504,179,776,67
14100,-312,-2072,-432,183,782,79
14105,-320,-1992,-480,195,787,86
14110,-288,-2016,-480,210,783,88
14115,-240,-1968,-472,225,771,87
14120,-216,-1960,-464,243,753,79
14125,-216,-1920,-480,257,732,67
14130,-224,-1872,-480,269,707,53
14135,-208,-1848,-544,278,680,36
14140,-208,-1840,-536,280,653,14
14145,-224,-1840,-576,275,631,-10
14150,-256,-1848,-592,260,611,-36
14155,-264,-1888,-584,243,591,-60
14160,-296,-1904,-576,227,571,-83
14165,-304,-1968,-576,220,551,-102
14170,-312,-1952,-552,213,529,-115
14175,-360,-1976,-560,206,509,-129
14180,-416,-2016,-544,196,487,-138
14185,-448,-1992,-560,186,461,-141
14190,-456,-2048,-616,179,432,-138
14195,-480,-2032,-624,173,397,-127
14200,-472,-2056,-696,162,366,-114
14205,-512,-2048,-720,142,340,-99
14210,-496,-2096,-752,116,316,-82
14215,-528,-2088,-768,83,290,-68
14220,-544,-2128,-728,57,262,-47
14225,-560,-2152,-736,37,234,-25
14230,-528,-2176,-736,23,213,-2
14235,-512,-2192,-744,5,198,24
14240,-480,-2176,-712,-19,191,46
14245,-392,-2176,-712,-45,187,68
14250,-328,-2160,-664,-71,187,82
14255,-256,-2120,-656,-91,187,89
14260,-232,-2096,-616,-103,190,87
14265,-192,-2048,-600,-108,186,84
14270,-200,-2000,-608,-106,177,78
14275,-184,-1928,-608,-100,163,73
14280,-120,-1864,-600,-94,149,64
14285,-120,-1808,-584,-90,135,54
14290,-80,-1744,-528,-91,121,38
14295,-56,-1704,-552,-97,108,22
14300,16,-1688,-552,-106,94,5
14305,48,-1648,-504,-110,81,-14
14310,112,-1648,-504,-108,72,-33
14315,136,-1648,-528,-110,66,-55
14320,160,-1664,-528,-114,63,-75
14325,144,-1672,-504,-123,66,-97
14330,144,-1744,-488,-131,69,-113
14335,144,-1768,-488,-133,76,-125
14340,128,-1848,-496,-137,87,-136
14345,128,-1904,-472,-137,106,-142
14350,136,-1960,-448,-134,127,-148
14355,152,-2024,-448,-123,155,-153
14360,152,-2112,-424,-108,182,-156
14365,120,-2168,-408,-89,204,-157
14370,120,-2216,-424,-67,219,-154
14375,96,-2256,-440,-44,235,-152
14380,48,-2312,-440,-20,247,-143
14385,64,-2280,-472,-1,256,-129
14390,64,-2296,-520,12,267,-112
14395,72,-2296,-520,16,282,-98
14400,72,-2256,-488,15,293,-81
14405,96,-2208,-520,13,304,-65
14410,88,-2136,-480,12,316,-52
14415,96,-2096,-456,12,327,-44
14420,72,-2048,-448,12,339,-37
14425,72,-2016,-448,7,350,-31
14430,64,-1984,-424,-6,363,-25
14435,88,-2008,-424,-19,373,-21
14440,72,-1992,-392,-29,383,-18
14445,88,-1976,-440,-38,391,-16
14450,80,-1984,-416,-46,399,-16
14455,48,-2000,-416,-48,402,-18
14460,56,-1984,-424,-46,404,-19
14465,16,-1976,-440,-47,405,-18
14470,0,-1960,-472,-52,407,-18
14475,-16,-1944,-504,-59,404,-18
14480,-48,-1936,-488,-67,400,-15
14485,-72,-1952,-512,-77,396,-12
14490,-80,-1920,-552,-88,390,-7
14495,-88,-1920,-560,-98,388,-2
14500,-128,-1936,-552,-104,387,3
14505,-112,-1944,-544,-112,389,7
14510,-120,-1936,-568,-120,397,10
14515,-104,-1960,-512,-125,406,14
14520,-112,-1984,-504,-129,421,14
14525,-80,-1992,-536,-131,435,17
14530,-72,-1992,-512,-130,449,20
14535,-64,-2048,-496,-127,467,19
14540,-24,-2072,-480,-122,479,18
14545,-8,-2072,-464,-118,490,17
14550,-8,-2096,-448,-110,495,17
14555,-8,-2080,-456,-100,496,15
14560,-32,-2064,-432,-91,490,14
14565,-24,-2072,-448,-81,486,15
14570,-40,-2072,-432,-73,482,17
14575,-40,-2032,-432,-65,478,19
14580,-40,-2040,-440,-59,475,22
14585,-24,-2008,-440,-53,474,27
14590,-16,-2016,-432,-48,474,33
14595,0,-2000,-440,-38,476,40
14600,24,-1984,-408,-28,480,46
14605,16,-1984,-432,-16,484,49
14610,16,-1976,-448,-3,486,49
14615,16,-1984,-432,5,488,51
14620,32,-1952,-440,11,490,50
14625,32,-1952,-480,10,493,50
14630,40,-1968,-456,5,494,50
14635,16,-1976,-464,0,495,47
14640,-48,-1984,-416,-4,497,43
14645,8,-1984,-488,-6,497,42
14650,-24,-1984,-456,-9,498,39
14655,-32,-2008,-488,-8,497,37
14660,-16,-2016,-488,-7,497,34
14665,-72,-2024,-480,-9,497,29
14670,-80,-2024,-488,-10,493,24
14675,-104,-2016,-520,-11,488,20
14680,-104,-2040,-512,-15,478,15
14685,-120,-2056,-528,-17,464,8
14690,-136,-2064,-520,-15,446,3
14695,-152,-2104,-480,-14,424,-2
14700,-152,-2096,-472,-17,401,-6
14705,-152,-2104,-480,-18,375,-9
14710,-200,-2096,-464,-16,354,-10
14715,-232,-2088,-480,-14,333,-13
14720,-200,-2104,-464,-7,314,-18
14725,-192,-2096,-472,2,297,-20
14730,-208,-2088,-448,11,285,-26
14735,-208,-2080,-472,21,274,-31
14740,-168,-2088,-488,28,264,-35
14745,-176,-2064,-488,32,254,-39
14750,-136,-2080,-480,34,241,-43
14755,-144,-2024,-488,33,228,-46
14760,-128,-2016,-496,29,215,-49
14765,-112,-2016,-472,23,198,-52
14770,-128,-1992,-512,14,180,-53
14775,-128,-2008,-504,2,162,-52
14780,-128,-1984,-504,-7,144,-49
14785,-136,-1984,-496,-16,124,-43
14790,-128,-1976,-488,-20,106,-37
14795,-128,-2000,-472,-22,88,-31
14800,-120,-1984,-472,-20,73,-24
14805,-120,-1984,-472,-16,59,-17
14810,-112,-1984,-456,-8,47,-12
14815,-128,-1984,-456,1,38,-8
14820,-128,-1984,-456,7,31,-2
14825,-112,-2000,-480,17,24,-1
14830,-120,-2024,-472,24,21,-1
14835,-112,-1984,-472,30,18,-2
14840,-72,-2008,-504,33,18,-6
14845,-72,-1992,-504,38,18,-11
14850,-56,-2000,-520,41,18,-16
14855,-80,-1984,-464,45,17,-19
14860,-48,-2016,-504,48,14,-25
14865,-72,-2016,-464,49,12,-29
14870,-64,-2016,-488,47,8,-32
14875,-56,-2032,-472,45,5,-33
14880,-88,-1992,-488,40,1,-34
14885,-80,-2008,-528,32,-1,-35
14890,-72,-2016,-520,22,-3,-35
14895,-88,-2008,-520,9,-4,-33
14900,-104,-1992,-520,-2,-6,-32
14905,-96,-1992,-504,-13,-9,-32
14910,-80,-2016,-496,-20,-11,-30
14915,-56,-2008,-528,-26,-10,-28
14920,-80,-1984,-528,-34,-10,-26
14925,-104,-1976,-536,-40,-10,-24
14930,-96,-2000,-488,-45,-13,-21
14935,-88,-2008,-464,-46,-17,-17
14940,-96,-2016,-472,-47,-24,-14
14945,-88,-2000,-472,-43,-29,-12
14950,-88,-2032,-448,-37,-35,-7
14955,-112,-2016,-488,-32,-37,-6
14960,-112,-2000,-464,-25,-41,-4
14965,-104,-2016,-512,-18,-44,-4
14970,-128,-2008,-440,-12,-44,-5
14975,-112,-2032,-456,-10,-46,-5
14980,-104,-2000,-456,-10,-48,-7
14985,-112,-2000,-464,-12,-49,-8
14990,-112,-1984,-496,-18,-49,-11
