timestamp,accel_x,accel_y,accel_z,gyro_x,gyro_y,gyro_z
0,96,-2040,16,2,26,-9
5,72,-2040,-8,3,24,-11
10,104,-2048,-24,3,25,-9
15,88,-2032,32,4,25,-11
20,96,-2056,-24,4,26,-9
25,104,-2056,24,5,29,-12
30,80,-2016,16,2,30,-9
35,96,-2040,24,2,32,-10
40,72,-2032,8,1,31,-8
45,80,-2032,16,-1,33,-9
50,88,-2016,48,-2,34,-5
55,96,-2040,64,-5,33,-7
60,96,-2032,32,-5,31,-3
65,96,-2016,16,-7,29,-5
70,88,-2056,32,-8,27,-2
75,80,-2024,-24,-8,26,-4
80,80,-2016,24,-8,25,-2
85,104,-2040,16,-10,24,-6
90,96,-2024,16,-12,23,-2
95,88,-2032,-8,-12,23,-4
100,80,-2032,48,-13,21,-2
105,96,-2016,32,-15,21,-5
110,80,-2024,16,-15,20,-3
115,72,-2040,24,-15,18,-6
120,88,-2040,24,-15,18,-3
125,88,-2024,40,-16,18,-5
130,56,-2032,48,-15,16,-3
135,64,-2040,40,-17,15,-6
140,64,-2032,24,-16,13,-3
145,80,-2032,24,-15,15,-4
150,64,-2008,8,-14,14,-1
155,80,-2040,8,-12,13,-3
160,80,-2040,8,-14,12,-2
165,96,-2048,32,-13,9,-4
170,96,-2032,8,-15,8,-1
175,88,-2024,48,-16,8,-3
180,104,-2040,16,-17,7,-2
185,80,-2016,24,-19,7,-2
190,104,-2016,32,-19,7,-2
195,88,-2048,16,-19,7,-2
200,112,-2032,40,-19,7,-1
205,88,-2048,32,-20,9,-1
210,96,-2040,0,-20,9,-1
215,88,-2032,24,-21,9,-4
220,104,-2032,8,-22,11,-3
225,120,-2048,32,-23,10,-4
230,120,-2048,40,-24,10,-3
235,80,-2024,8,-25,10,-4
240,88,-2032,16,-25,9,-4
245,72,-2040,40,-25,7,-4
250,80,-2040,32,-26,7,-3
255,96,-2040,8,-27,8,-3
260,80,-2024,16,-26,8,-3
265,88,-2032,16,-27,8,-2
270,104,-2048,8,-25,8,-1
275,88,-2032,40,-24,8,2
280,88,-2040,32,-23,8,4
285,72,-2016,40,-22,7,4
290,96,-2032,32,-25,6,6
295,72,-2016,16,-28,5,6
300,80,-2016,16,-32,4,5
305,88,-2032,8,-34,1,6
310,96,-2048,16,-35,-1,6
315,88,-2024,-8,-37,0,8
320,80,-2032,24,-37,-1,9
325,56,-2056,32,-37,-1,11
330,80,-2032,24,-36,0,12
335,64,-2040,48,-37,-3,11
340,72,-2032,40,-37,-8,12
345,80,-2008,0,-37,-13,11
350,72,-2032,8,-39,-19,11
355,80,-2056,16,-40,-24,10
360,88,-2048,0,-40,-27,8
365,80,-2048,8,-39,-30,9
370,64,-2064,16,-39,-32,8
375,64,-2056,48,-39,-34,10
380,56,-2032,48,-42,-35,9
385,48,-2032,48,-42,-36,10
390,48,-2016,32,-41,-38,9
395,56,-2024,48,-38,-39,10
400,48,-2032,8,-36,-39,10
405,56,-2032,8,-33,-39,12
410,40,-2032,0,-33,-40,10
415,40,-2056,-16,-31,-43,13
420,40,-2016,16,-30,-44,13
425,48,-2048,8,-28,-46,17
430,56,-2048,32,-24,-49,15
435,48,-2040,64,-23,-52,18
440,56,-2056,40,-20,-56,15
445,72,-2064,64,-25,-63,17
450,80,-2040,16,-27,-71,15
455,88,-2064,24,-32,-77,15
460,104,-2048,16,-38,-81,13
465,80,-2048,16,-43,-83,14
470,72,-2024,-32,-50,-85,14
475,56,-1992,32,-54,-81,15
480,72,-2000,8,-56,-77,15
485,48,-1984,40,-57,-71,18
490,48,-2008,8,-57,-67,14
495,48,-2016,64,-57,-66,15
500,48,-1992,40,-56,-64,12
505,80,-2040,56,-54,-64,14
510,56,-2024,16,-57,-66,12
515,72,-2024,40,-59,-68,13
520,104,-2032,0,-62,-70,9
525,88,-2016,8,-67,-72,13
530,72,-2040,16,-71,-74,11
535,88,-2008,-8,-78,-75,14
540,64,-2000,0,-84,-74,11
545,72,-2032,-16,-87,-72,13
550,96,-2024,0,-90,-69,9
555,80,-2064,-16,-90,-64,9
560,104,-2056,40,-90,-59,4
565,88,-1952,-80,-89,-54,2
570,144,-2000,-152,-89,-48,-2
575,120,-2064,-80,-91,-41,-3
580,136,-2032,40,-91,-36,-8
585,136,-2040,-32,-93,-30,-7
590,144,-2088,-152,-93,-23,-15
595,168,-2048,-8,-93,-14,-14
600,112,-1984,-48,-95,-5,-16
605,112,-1968,-24,-98,3,-17
610,120,-2032,-64,-102,13,-20
615,168,-2056,-56,-108,21,-20
620,152,-2016,-40,-111,27,-20
625,152,-2064,-72,-114,34,-19
630,88,-2000,-192,-118,40,-19
635,200,-2048,16,-125,46,-14
640,176,-1992,-120,-133,51,-17
645,96,-2016,-56,-143,57,-15
650,112,-1976,-176,-153,63,-15
655,144,-2032,-88,-164,70,-13
660,96,-1928,-200,-175,79,-16
665,152,-1984,-224,-181,91,-18
670,152,-2032,-88,-190,99,-23
675,248,-1984,-192,-196,107,-23
680,160,-2080,-8,-198,112,-26
685,232,-2080,-48,-198,119,-27
690,208,-2064,-72,-200,130,-32
695,240,-2064,-80,-201,141,-34
700,232,-2040,-104,-201,153,-41
705,264,-2032,-128,-200,167,-45
710,264,-1976,-136,-201,185,-52
715,272,-1984,-128,-206,203,-58
720,200,-1960,-104,-212,226,-66
725,192,-2032,-56,-223,245,-68
730,264,-1904,-184,-231,265,-73
735,248,-1968,-128,-241,286,-70
740,184,-1928,-144,-252,306,-75
745,304,-2016,-136,-260,326,-72
750,240,-1960,-176,-271,343,-72
755,192,-1896,-136,-280,359,-67
760,256,-1936,-144,-289,378,-63
765,216,-1896,-256,-298,396,-56
770,184,-1920,-136,-307,413,-51
775,216,-1872,-184,-315,432,-42
780,200,-1928,-200,-327,446,-36
785,176,-2000,-112,-338,462,-28
790,144,-1888,-304,-345,473,-22
795,128,-1824,-160,-350,482,-12
800,208,-1904,-88,-354,489,-6
805,176,-2064,-16,-353,493,1
810,152,-2032,-144,-350,494,8
815,160,-2064,-160,-343,495,17
820,72,-2128,-24,-332,497,26
825,128,-2128,-24,-323,497,32
830,56,-2160,8,-314,498,38
835,64,-2160,-96,-300,498,41
840,80,-2152,-32,-292,492,43
845,112,-2136,-56,-287,482,43
850,72,-2176,-48,-283,469,40
855,56,-2152,-96,-278,456,35
860,80,-2152,-72,-270,439,30
865,56,-2104,-80,-264,422,24
870,64,-2096,-176,-265,405,16
875,72,-2056,-136,-269,390,7
880,16,-1984,-136,-272,376,1
885,-24,-2080,-80,-276,360,-5
890,16,-2040,-96,-275,347,-9
895,80,-2056,-8,-277,335,-15
900,16,-2168,-104,-279,321,-19
905,40,-2096,-72,-276,308,-23
910,-24,-1944,0,-273,291,-26
915,32,-2008,-24,-270,276,-31
920,8,-2088,-24,-266,262,-36
925,72,-2144,40,-264,247,-42
930,160,-2088,-72,-260,232,-48
935,160,-2064,-112,-259,217,-57
940,88,-2016,-128,-260,203,-69
945,176,-2000,-120,-265,193,-80
950,160,-2104,-56,-264,188,-91
955,144,-2160,24,-264,184,-102
960,152,-2096,-72,-270,182,-109
965,152,-2048,-16,-271,181,-117
970,136,-1984,-48,-262,181,-120
975,176,-2056,-8,-241,181,-126
980,168,-2056,-64,-215,182,-133
985,104,-2032,-72,-212,194,-146
990,120,-2040,-32,-221,209,-153
995,232,-2048,-64,-226,222,-155
1000,144,-2016,-32,-228,229,-155
1005,184,-1976,-8,-232,232,-158
1010,144,-1992,-32,-234,239,-160
1015,184,-2032,-40,-234,240,-162
1020,192,-2024,-72,-219,237,-166
1025,184,-2032,-56,-217,237,-170
1030,200,-2208,-8,-201,234,-170
1035,168,-2008,-128,-183,234,-171
1040,224,-1992,-88,-166,234,-171
1045,200,-1992,-56,-166,236,-169
1050,104,-1968,-152,-172,239,-158
1055,176,-1944,-104,-164,238,-153
1060,280,-1904,-192,-156,233,-143
1065,120,-1944,-80,-151,224,-141
1070,200,-1920,0,-152,219,-131
1075,200,-1920,-64,-150,221,-131
1080,272,-1968,-120,-139,222,-125
1085,200,-1992,8,-125,223,-116
1090,320,-2032,-24,-84,228,-99
1095,304,-2008,-24,-48,239,-93
1100,304,-1968,-8,-32,246,-84
1105,328,-1928,-56,-45,261,-82
1110,312,-1968,-64,-72,271,-75
1115,296,-1928,24,-86,278,-70
1120,296,-1960,-136,-89,283,-62
1125,304,-1904,0,-90,280,-58
1130,312,-1888,-40,-83,279,-47
1135,320,-1800,8,-80,278,-44
1140,320,-1944,-112,-75,280,-36
1145,376,-1872,-112,-73,289,-29
1150,344,-1880,-144,-73,299,-20
1155,312,-2104,40,-73,306,-20
1160,344,-1816,-104,-75,313,-7
1165,304,-1936,-72,-78,314,0
1170,272,-1912,-80,-85,314,13
1175,248,-1912,-24,-93,313,19
1180,248,-1952,-48,-97,313,32
1185,224,-1976,-72,-101,310,39
1190,224,-1928,-120,-104,310,47
1195,224,-1952,-56,-104,307,48
1200,256,-1968,-128,-107,302,54
1205,336,-2024,-24,-109,296,54
1210,288,-1984,-120,-112,288,58
1215,312,-2000,-128,-114,274,55
1220,272,-1992,-112,-116,265,56
1225,288,-2040,-128,-117,253,54
1230,328,-1976,-104,-113,247,54
1235,328,-2000,-64,-109,245,51
1240,392,-1984,-120,-102,241,53
1245,280,-1968,-96,-96,242,51
1250,280,-1864,-152,-96,241,52
1255,216,-1984,-112,-99,243,50
1260,200,-2000,-128,-97,240,50
1265,360,-2016,-152,-97,238,48
1270,376,-1984,-8,-88,235,53
1275,296,-1984,-72,-82,229,51
1280,368,-1912,-200,-74,222,54
1285,264,-2072,-208,-63,214,54
1290,368,-2040,-80,-46,209,51
1295,304,-2032,-104,-26,202,45
1300,320,-2016,-48,-16,195,42
1305,360,-2000,-48,-13,187,41
1310,384,-2048,80,-4,181,42
1315,320,-1992,-40,7,174,37
1320,432,-1928,8,10,164,42
1325,376,-2008,64,16,155,46
1330,392,-2024,80,31,156,53
1335,392,-1992,40,42,157,55
1340,408,-2008,64,43,160,61
1345,400,-2024,-56,44,164,63
1350,416,-2000,112,43,173,65
1355,416,-1848,24,38,178,68
1360,480,-1976,-16,24,182,65
1365,368,-1960,8,6,182,67
1370,448,-1976,0,-4,177,73
1375,424,-2048,88,-8,164,82
1380,400,-2072,64,-8,154,96
1385,440,-2184,208,-2,144,111
1390,416,-2176,144,9,137,129
1395,296,-2248,16,13,133,149
1400,336,-2128,136,14,121,170
1405,312,-2248,56,5,107,193
1410,320,-2288,-24,-17,85,211
1415,312,-2344,-136,-46,61,224
1420,416,-2608,-152,-65,39,228
1425,520,-2784,-320,-60,26,222
1430,488,-3056,-416,-48,-2,187
1435,624,-3064,-488,-75,-39,128
1440,544,-3168,-464,-146,-70,48
1445,520,-2960,-544,-227,-71,-25
1450,408,-2736,-464,-263,-30,-76
1455,344,-2624,-480,-223,45,-95
1460,232,-2432,-352,-139,136,-98
1465,128,-2328,-264,-61,219,-91
1470,-24,-2216,-152,-3,279,-86
1475,64,-2112,-192,42,313,-70
1480,-32,-2096,-24,85,312,-52
1485,-40,-2120,-16,126,275,-28
1490,-32,-2168,-8,162,222,-7
1495,-40,-2200,-32,169,160,11
1500,-24,-2240,-40,161,86,20
1505,-32,-2192,-104,138,0,26
1510,-64,-2192,-184,109,-98,22
1515,-56,-2120,-208,91,-197,26
1520,-56,-2064,-328,82,-275,30
1525,0,-2032,-336,78,-330,34
1530,8,-1952,-384,73,-363,32
1535,56,-1920,-456,72,-376,35
1540,80,-1856,-488,71,-371,27
1545,200,-1752,-408,63,-354,22
1550,64,-1752,-472,60,-322,16
1555,56,-1712,-488,61,-279,13
1560,40,-1656,-512,60,-238,6
1565,-16,-1608,-544,57,-203,7
1570,72,-1600,-528,54,-184,6
1575,-64,-1568,-576,51,-176,17
1580,-104,-1552,-584,55,-175,25
1585,-152,-1552,-608,53,-179,34
1590,-192,-1592,-672,37,-187,41
1595,-200,-1672,-648,4,-192,49
1600,-240,-1808,-608,-52,-201,46
1605,-248,-1888,-608,-93,-200,46
1610,-216,-1992,-576,-117,-187,47
1615,-216,-2040,-576,-125,-159,51
1620,-216,-2056,-536,-136,-135,47
1625,-184,-2056,-528,-148,-110,44
1630,-168,-2032,-520,-148,-76,36
1635,-120,-2056,-440,-134,-41,36
1640,-120,-2040,-392,-122,-12,35
1645,-96,-2016,-432,-107,12,42
1650,-64,-1992,-408,-92,39,47
1655,-24,-2008,-400,-83,52,59
1660,16,-2000,-360,-73,63,67
1665,64,-2040,-360,-62,75,77
1670,32,-2056,-312,-50,88,80
1675,72,-2072,-312,-34,95,98
1680,104,-2064,-296,-19,109,108
1685,144,-2072,-336,-3,132,112
1690,160,-2072,-344,8,160,109
1695,144,-2048,-320,16,192,109
1700,136,-2024,-384,22,221,100
1705,96,-1992,-352,20,250,101
1710,120,-1864,-424,17,269,98
1715,32,-1904,-416,19,286,108
1720,-16,-1872,-392,22,298,116
1725,-48,-1872,-368,22,303,135
1730,-80,-1848,-360,27,297,146
1735,-208,-1888,-440,26,291,156
1740,-144,-1856,-328,14,283,157
1745,-168,-1880,-304,5,270,161
1750,-176,-1896,-288,-3,255,159
1755,-208,-1896,-272,-14,241,162
1760,-200,-1904,-312,-28,222,159
1765,-216,-1880,-280,-42,207,158
1770,-200,-1880,-288,-56,193,152
1775,-176,-1896,-296,-66,182,147
1780,-168,-1888,-296,-72,171,139
1785,-136,-1896,-296,-78,164,132
1790,-128,-1896,-280,-86,159,123
1795,-96,-1936,-264,-91,153,123
1800,-96,-1920,-280,-87,147,117
1805,-112,-1896,-360,-82,145,108
1810,-56,-1928,-304,-80,149,97
1815,-32,-1920,-256,-80,148,92
1820,-32,-1928,-288,-78,151,81
1825,-40,-1928,-232,-80,150,73
1830,16,-1888,-344,-85,151,63
1835,-64,-1928,-184,-83,153,60
1840,-8,-1952,-240,-79,151,53
1845,-24,-1968,-248,-77,156,44
1850,-24,-1952,-200,-77,157,36
1855,-40,-1968,-168,-77,157,28
1860,-48,-1928,-152,-73,158,21
1865,-40,-2000,-152,-71,161,14
1870,-24,-2008,-128,-73,166,6
1875,-16,-2032,-128,-74,173,-2
1880,0,-2032,-104,-72,178,-8
1885,64,-2000,-80,-71,185,-17
1890,-24,-2000,-112,-70,188,-23
1895,-64,-1976,-88,-66,188,-29
1900,-24,-1968,-96,-56,185,-28
1905,-16,-1992,-144,-54,187,-32
1910,-8,-1984,-72,-56,193,-44
1915,32,-2008,-128,-57,198,-59
1920,8,-1992,-112,-59,208,-69
1925,32,-1960,-96,-58,214,-78
1930,32,-1992,-96,-62,224,-86
1935,32,-1976,-96,-66,233,-94
1940,40,-2000,-80,-71,245,-99
1945,32,-2000,-80,-73,256,-105
1950,24,-2032,-48,-75,269,-110
1955,64,-2112,-40,-75,286,-117
1960,64,-2064,-72,-71,305,-123
1965,72,-2048,-64,-64,325,-131
1970,104,-2088,-32,-58,345,-139
1975,88,-2080,-16,-49,365,-149
1980,96,-2112,-24,-37,380,-157
1985,88,-2112,-64,-25,394,-165
1990,72,-2112,-40,-15,407,-170
1995,56,-2128,-48,-5,420,-177
2000,72,-2144,0,8,431,-179
2005,48,-2128,16,25,438,-182
2010,32,-2168,24,43,445,-179
2015,8,-2152,48,64,445,-176
2020,-8,-2176,40,88,443,-164
2025,8,-2168,88,113,438,-154
2030,-24,-2144,120,139,435,-141
2035,-48,-2136,152,158,432,-124
2040,-72,-2104,152,178,427,-104
2045,-88,-2096,184,194,422,-86
2050,-96,-2096,208,207,415,-63
2055,-96,-2064,256,218,410,-43
2060,-112,-2088,320,230,405,-23
2065,-144,-2088,376,240,398,-7
2070,-136,-2120,352,250,389,16
2075,-160,-2184,336,256,376,39
2080,-208,-2312,312,258,360,91
2085,-248,-2504,280,259,343,148
2090,-224,-2696,144,255,311,219
2095,-112,-2944,0,235,269,274
2100,-56,-3080,-208,173,231,319
2105,104,-3184,-376,80,211,350
2110,200,-3240,-512,-4,224,349
2115,200,-3176,-520,-76,255,329
2120,160,-3064,-504,-103,284,311
2125,96,-2928,-456,-71,294,289
2130,40,-2752,-472,12,269,267
2135,-48,-2552,-520,99,188,240
2140,-96,-2408,-592,184,98,226
2145,-128,-2272,-592,242,18,203
2150,-96,-2240,-648,280,-32,185
2155,-96,-2176,-624,310,-44,166
2160,-104,-2136,-616,338,-24,155
2165,-88,-2064,-664,365,22,140
2170,-72,-1968,-696,382,95,132
2175,0,-1864,-680,387,187,123
2180,48,-1776,-704,384,292,115
2185,112,-1704,-712,374,393,99
2190,168,-1608,-712,355,501,89
2195,240,-1600,-672,333,575,74
2200,272,-1568,-696,310,632,61
2205,320,-1576,-680,288,668,41
2210,328,-1568,-648,260,685,21
2215,304,-1616,-576,232,685,4
2220,288,-1680,-552,203,666,-3
2225,224,-1696,-528,171,630,-10
2230,160,-1736,-512,133,579,-7
2235,96,-1776,-464,97,517,-5
2240,16,-1752,-440,61,433,5
2245,-56,-1776,-400,22,356,6
2250,-88,-1744,-384,-8,279,11
2255,-152,-1744,-392,-33,202,6
2260,-208,-1720,-376,-52,128,4
2265,-248,-1720,-408,-65,61,-5
2270,-232,-1736,-344,-80,-1,-13
2275,-232,-1728,-376,-88,-55,-27
2280,-216,-1736,-384,-91,-97,-38
2285,-216,-1800,-416,-87,-130,-54
2290,-152,-1792,-400,-80,-155,-64
2295,-136,-1832,-416,-75,-171,-83
2300,-112,-1856,-432,-73,-180,-91
2305,-16,-1824,-360,-71,-179,-102
2310,-56,-1856,-464,-71,-175,-105
2315,-24,-1872,-456,-73,-170,-107
2320,-16,-1824,-496,-77,-164,-101
2325,-16,-1848,-448,-86,-161,-98
2330,24,-1784,-440,-97,-166,-93
2335,8,-1792,-440,-109,-174,-92
2340,8,-1768,-432,-121,-191,-84
2345,16,-1800,-376,-127,-216,-76
2350,16,-1808,-376,-135,-249,-66
2355,64,-1840,-344,-138,-278,-63
2360,56,-1856,-352,-139,-305,-57
2365,104,-1896,-352,-143,-329,-61
2370,136,-1920,-336,-154,-346,-69
2375,168,-1976,-344,-170,-358,-94
2380,232,-1984,-376,-181,-366,-113
2385,240,-2000,-416,-197,-366,-144
2390,296,-1984,-416,-224,-365,-177
2395,296,-1960,-368,-243,-358,-191
2400,312,-1992,-344,-244,-354,-187
2405,320,-1944,-400,-228,-345,-192
2410,304,-1960,-336,-207,-341,-189
2415,304,-1952,-376,-175,-339,-173
2420,288,-1944,-368,-157,-325,-170
2425,256,-1960,-352,-155,-307,-174
2430,216,-1904,-336,-155,-288,-174
2435,208,-1944,-328,-152,-271,-170
2440,192,-1920,-320,-145,-253,-166
2445,208,-1936,-320,-156,-234,-179
2450,144,-1904,-272,-167,-220,-190
2455,144,-1920,-216,-173,-211,-171
2460,136,-1880,-192,-164,-208,-146
2465,136,-1928,-184,-154,-206,-128
2470,152,-1928,-224,-152,-207,-116
2475,160,-1928,-168,-155,-207,-110
2480,136,-1912,-160,-166,-206,-112
2485,144,-1928,-112,-171,-212,-104
2490,136,-1896,-48,-167,-222,-92
2495,136,-1920,-56,-160,-229,-77
2500,192,-1952,-48,-147,-234,-67
2505,160,-1960,-40,-137,-235,-61
2510,184,-1960,-32,-130,-235,-56
2515,176,-1960,24,-124,-233,-47
2520,192,-1952,-8,-118,-235,-39
2525,192,-1976,0,-108,-236,-30
2530,200,-1976,24,-98,-238,-24
2535,152,-1992,64,-86,-241,-16
2540,176,-2008,56,-76,-249,-9
2545,144,-2032,88,-59,-260,3
2550,144,-2032,88,-41,-273,12
2555,112,-2024,72,-24,-289,27
2560,72,-2016,64,-12,-303,35
2565,56,-2048,96,-7,-331,50
2570,56,-2056,72,1,-353,56
2575,56,-2072,64,11,-374,64
2580,48,-2080,72,18,-394,67
2585,64,-2104,72,22,-413,71
2590,72,-2128,64,24,-431,70
2595,64,-2120,64,25,-446,74
2600,112,-2168,16,26,-458,75
2605,144,-2184,24,29,-462,77
2610,160,-2184,-32,30,-464,74
2615,200,-2224,0,30,-460,71
2620,232,-2248,8,32,-456,64
2625,272,-2240,16,37,-454,58
2630,312,-2288,24,47,-454,47
2635,336,-2312,32,59,-453,39
2640,336,-2336,64,78,-454,27
2645,360,-2360,72,101,-451,20
2650,352,-2392,112,127,-445,7
2655,344,-2400,120,152,-438,-1
2660,344,-2400,168,176,-430,-14
2665,336,-2416,192,197,-418,-24
2670,352,-2416,240,222,-405,-35
2675,352,-2384,304,255,-388,-41
2680,360,-2352,320,286,-374,-48
2685,352,-2320,352,316,-362,-52
2690,360,-2264,432,348,-354,-59
2695,352,-2208,440,384,-348,-58
2700,320,-2144,480,415,-347,-58
2705,280,-2096,504,445,-348,-52
2710,200,-2088,464,465,-358,-48
2715,216,-2152,376,459,-383,-40
2720,184,-2328,296,439,-411,-46
2725,208,-2584,224,445,-413,-53
2730,256,-2848,64,494,-379,-54
2735,376,-3064,-192,505,-351,-67
2740,416,-3152,-448,438,-335,-114
2745,400,-3104,-608,298,-321,-170
2750,384,-2904,-584,153,-288,-229
2755,392,-2744,-544,87,-229,-272
2760,368,-2560,-504,111,-155,-321
2765,376,-2328,-544,194,-79,-341
2770,376,-2128,-616,256,-3,-344
2775,304,-1920,-696,285,78,-347
2780,240,-1736,-744,285,167,-339
2785,120,-1584,-728,283,219,-312
2790,0,-1488,-768,289,230,-280
2795,-88,-1408,-768,278,199,-225
2800,-168,-1376,-768,244,128,-176
2805,-240,-1392,-784,196,29,-146
2810,-360,-1448,-784,149,-85,-134
2815,-440,-1496,-744,112,-199,-121
2820,-440,-1560,-744,87,-299,-101
2825,-400,-1656,-720,64,-378,-96
2830,-392,-1688,-704,35,-434,-115
2835,-336,-1736,-688,-6,-472,-142
2840,-304,-1800,-624,-52,-477,-160
2845,-184,-1872,-560,-80,-460,-159
2850,-144,-1904,-528,-96,-429,-160
2855,-80,-1944,-480,-126,-393,-159
2860,-8,-1976,-448,-156,-354,-155
2865,32,-1984,-416,-180,-305,-132
2870,56,-1952,-368,-201,-267,-104
2875,112,-2000,-344,-222,-238,-70
2880,144,-2056,-336,-228,-212,-36
2885,192,-2080,-280,-218,-192,15
2890,176,-2128,-264,-183,-175,54
2895,232,-2168,-280,-136,-169,94
2900,208,-2224,-224,-82,-159,115
2905,272,-2232,-296,-14,-143,142
2910,296,-2224,-264,48,-105,160
2915,272,-2208,-288,81,-56,175
2920,264,-2192,-232,108,-9,188
2925,296,-2224,-248,132,42,212
2930,256,-2120,-232,144,92,228
2935,240,-2064,-256,141,135,244
2940,184,-2008,-264,120,173,271
2945,216,-1960,-256,84,203,290
2950,200,-1952,-216,62,228,295
2955,200,-1896,-160,51,242,307
2960,192,-1856,-160,44,247,319
2965,216,-1816,-128,40,239,327
2970,168,-1784,-112,34,221,321
2975,136,-1800,-80,24,201,307
2980,136,-1776,-128,10,192,288
2985,128,-1744,-112,-14,202,264
2990,120,-1752,-88,-34,222,250
2995,64,-1720,-96,-47,252,236
3000,40,-1720,-64,-50,275,235
3005,16,-1688,-104,-42,294,242
3010,32,-1688,-88,-41,314,242
3015,16,-1664,-152,-44,334,236
3020,32,-1648,-120,-58,351,226
3025,24,-1664,-160,-59,373,211
3030,32,-1648,-184,-55,406,196
3035,-24,-1632,-144,-56,445,186
3040,-24,-1616,-168,-64,480,185
3045,-48,-1656,-144,-70,507,181
3050,-48,-1664,-192,-69,528,168
3055,-64,-1704,-160,-71,529,147
3060,-120,-1696,-136,-74,530,127
3065,-120,-1696,-120,-79,531,113
3070,-144,-1696,-136,-92,530,102
3075,-152,-1728,-80,-110,527,89
3080,-168,-1752,-64,-126,519,80
3085,-192,-1776,-56,-139,510,68
3090,-216,-1832,-48,-152,497,61
3095,-200,-1848,-48,-161,482,48
3100,-224,-1848,-16,-173,465,37
3105,-200,-1896,16,-186,445,25
3110,-240,-1888,24,-193,431,10
3115,-248,-1944,24,-193,417,-6
3120,-224,-1944,8,-187,406,-19
3125,-224,-1952,8,-183,398,-36
3130,-208,-1984,32,-178,392,-48
3135,-184,-2032,64,-175,384,-65
3140,-176,-2064,80,-172,372,-77
3145,-128,-2088,32,-167,356,-92
3150,-128,-2112,56,-165,336,-101
3155,-120,-2136,40,-162,317,-114
3160,-88,-2168,40,-160,294,-120
3165,-88,-2208,0,-154,271,-129
3170,-80,-2224,40,-146,249,-134
3175,-56,-2248,64,-135,227,-142
3180,-56,-2264,64,-119,205,-147
3185,-32,-2312,48,-96,187,-158
3190,-16,-2296,80,-72,175,-162
3195,-32,-2280,72,-46,169,-174
3200,-56,-2288,112,-21,166,-178
3205,-88,-2256,80,1,169,-181
3210,-88,-2280,128,19,175,-176
3215,-112,-2280,184,34,181,-165
3220,-152,-2312,232,46,193,-146
3225,-152,-2328,312,55,210,-124
3230,-144,-2344,336,70,231,-95
3235,-112,-2376,368,88,256,-67
3240,-88,-2376,456,112,275,-36
3245,-16,-2384,544,139,291,-13
3250,-8,-2336,584,174,303,8
3255,32,-2304,600,203,311,20
3260,48,-2296,576,225,315,37
3265,120,-2368,520,231,313,60
3270,96,-2456,512,228,311,100
3275,16,-2680,368,230,297,167
3280,0,-3032,168,229,260,264
3285,64,-3328,-152,205,240,346
3290,208,-3520,-456,125,267,398
3295,296,-3568,-624,4,336,406
3300,296,-3504,-552,-97,404,398
3305,176,-3288,-464,-117,421,377
3310,-16,-3024,-328,-49,372,382
3315,-184,-2768,-320,78,272,375
3320,-344,-2504,-408,196,126,363
3325,-464,-2248,-496,264,5,331
3330,-472,-1992,-648,276,-100,284
3335,-432,-1808,-768,256,-168,234
3340,-384,-1680,-856,220,-185,215
3345,-288,-1624,-880,194,-147,212
3350,-160,-1616,-936,191,-61,227
3355,-32,-1592,-920,197,61,242
3360,88,-1640,-856,213,198,264
3365,184,-1680,-832,231,326,272
3370,312,-1752,-824,236,438,276
3375,408,-1848,-744,219,536,262
3380,440,-1952,-704,183,586,246
3385,488,-2056,-664,144,615,222
3390,504,-2112,-624,115,621,192
3395,464,-2136,-560,88,614,164
3400,400,-2136,-496,53,599,148
3405,320,-2152,-432,22,568,121
3410,264,-2072,-376,-1,515,96
3415,160,-1968,-376,-33,445,63
3420,56,-1872,-288,-73,369,28
3425,8,-1808,-264,-99,277,-16
3430,-88,-1720,-240,-112,165,-47
3435,-192,-1672,-200,-109,70,-74
3440,-280,-1600,-248,-99,-16,-92
3445,-336,-1568,-272,-98,-80,-121
3450,-400,-1560,-216,-108,-129,-144
3455,-400,-1544,-280,-118,-169,-164
3460,-472,-1544,-272,-144,-189,-186
3465,-416,-1552,-296,-168,-206,-202
3470,-488,-1512,-256,-207,-204,-233
3475,-496,-1576,-216,-247,-216,-249
3480,-416,-1592,-240,-244,-251,-215
3485,-304,-1600,-280,-224,-292,-181
3490,-208,-1592,-280,-219,-311,-160
3495,-120,-1600,-320,-233,-325,-165
3500,-96,-1616,-304,-262,-338,-194
3505,-48,-1624,-328,-326,-376,-258
3510,0,-1672,-272,-372,-396,-267
3515,0,-1672,-232,-341,-394,-192
3520,128,-1728,-264,-299,-410,-115
3525,160,-1672,-344,-282,-420,-91
3530,80,-1720,-296,-319,-422,-115
3535,160,-1784,-272,-346,-432,-92
3540,192,-1856,-280,-336,-446,-52
3545,216,-1824,-320,-311,-462,-31
3550,208,-1840,-320,-292,-475,-29
3555,232,-1864,-328,-276,-493,-41
3560,272,-1920,-288,-267,-512,-73
3565,232,-1872,-280,-253,-536,-125
3570,264,-1896,-272,-245,-554,-172
3575,280,-1904,-280,-225,-560,-193
3580,296,-1888,-304,-196,-558,-212
3585,312,-1840,-264,-174,-539,-218
3590,392,-1800,-288,-166,-499,-230
3595,280,-1824,-256,-189,-458,-253
3600,256,-1856,-192,-166,-432,-219
3605,296,-1864,-192,-123,-406,-177
3610,272,-1888,-200,-97,-381,-149
3615,256,-1896,-224,-83,-352,-130
3620,264,-1960,-136,-77,-328,-109
3625,272,-1960,-128,-74,-307,-94
3630,224,-1952,-104,-83,-290,-80
3635,224,-1952,-88,-88,-276,-64
3640,232,-1968,-24,-89,-263,-46
3645,208,-1960,16,-85,-252,-12
3650,232,-1960,0,-73,-244,12
3655,224,-1944,16,-64,-237,36
3660,240,-1952,-8,-52,-229,59
3665,264,-1936,8,-43,-221,76
3670,256,-1960,64,-37,-211,90
3675,248,-1952,64,-33,-202,104
3680,256,-1976,56,-26,-194,111
3685,240,-2016,64,-18,-188,120
3690,232,-1976,72,-9,-184,123
3695,240,-2008,64,-2,-181,128
3700,240,-2056,64,6,-176,128
3705,200,-2064,64,13,-178,129
3710,200,-2080,64,16,-183,127
3715,168,-2104,72,18,-195,129
3720,128,-2128,56,19,-212,128
3725,136,-2152,56,19,-234,128
3730,64,-2168,56,16,-257,121
3735,48,-2200,72,15,-280,116
3740,24,-2216,64,14,-298,104
3745,24,-2264,48,15,-316,95
3750,40,-2312,80,19,-329,82
3755,32,-2336,40,30,-345,73
3760,8,-2400,104,43,-358,59
3765,56,-2480,160,63,-368,49
3770,96,-2480,224,84,-373,34
3775,136,-2496,272,113,-373,19
3780,144,-2464,312,149,-366,-2
3785,224,-2472,360,188,-352,-23
3790,248,-2440,424,232,-334,-49
3795,288,-2392,496,280,-318,-71
3800,320,-2352,584,332,-310,-97
3805,304,-2288,608,388,-308,-119
3810,280,-2216,608,449,-314,-137
3815,176,-2184,536,483,-329,-143
3820,128,-2216,392,487,-361,-147
3825,160,-2400,224,476,-394,-155
3830,192,-2680,160,471,-391,-163
3835,240,-3008,16,487,-370,-173
3840,312,-3256,-248,492,-357,-201
3845,392,-3360,-496,424,-350,-237
3850,512,-3352,-704,260,-324,-306
3855,576,-3192,-672,57,-281,-411
3860,600,-3080,-584,-98,-223,-563
3865,784,-2728,-624,-138,-160,-649
3870,632,-2512,-584,-133,-61,-730
3875,608,-2200,-712,-73,66,-700
3880,488,-1928,-712,17,207,-594
3885,352,-1648,-816,113,328,-465
3890,112,-1456,-872,161,396,-383
3895,-128,-1432,-872,170,406,-326
3900,-328,-1408,-896,165,367,-287
3905,-528,-1416,-904,157,285,-251
3910,-640,-1448,-920,152,175,-211
3915,-688,-1512,-904,148,29,-180
3920,-680,-1592,-856,140,-88,-164
3925,-624,-1768,-752,131,-190,-154
3930,-592,-1928,-632,119,-280,-161
3935,-464,-2032,-560,103,-357,-164
3940,-392,-2064,-488,73,-412,-174
3945,-296,-2096,-392,37,-446,-175
3950,-192,-2096,-320,-16,-454,-180
3955,-104,-2080,-280,-70,-437,-175
3960,-40,-1984,-264,-110,-400,-157
3965,16,-1944,-304,-143,-354,-123
3970,24,-1824,-312,-173,-301,-107
3975,112,-1800,-344,-193,-254,-84
3980,144,-1768,-408,-206,-201,-62
3985,176,-1776,-416,-208,-143,-36
3990,240,-1776,-416,-203,-77,-13
3995,264,-1840,-432,-194,-6,19
4000,336,-1912,-440,-188,63,41
4005,392,-1928,-400,-188,128,63
4010,392,-1944,-416,-195,185,74
4015,392,-1936,-400,-203,234,81
4020,416,-1912,-400,-212,275,89
4025,376,-1872,-432,-218,300,98
4030,368,-1808,-400,-217,321,108
4035,312,-1744,-360,-212,335,120
4040,288,-1720,-360,-208,344,137
4045,224,-1680,-344,-210,358,164
4050,200,-1632,-296,-207,370,184
4055,184,-1608,-296,-185,384,205
4060,192,-1656,-264,-157,401,223
4065,152,-1664,-272,-131,414,230
4070,144,-1664,-240,-118,427,230
4075,184,-1736,-224,-116,447,225
4080,152,-1744,-224,-117,471,215
4085,136,-1776,-192,-126,498,214
4090,160,-1800,-216,-132,519,215
4095,168,-1824,-208,-131,546,210
4100,112,-1832,-224,-144,582,184
4105,48,-1808,-200,-165,612,159
4110,48,-1800,-200,-180,641,146
4115,8,-1784,-200,-183,673,148
4120,-40,-1800,-192,-174,702,148
4125,-96,-1808,-184,-169,731,144
4130,-104,-1808,-176,-166,754,140
4135,-184,-1792,-168,-161,761,139
4140,-192,-1824,-160,-160,760,141
4145,-224,-1856,-112,-162,749,145
4150,-256,-1840,-96,-159,729,140
4155,-256,-1896,-128,-156,703,133
4160,-280,-1928,-104,-160,676,125
4165,-280,-1976,-64,-163,650,118
4170,-248,-2000,-40,-164,624,108
4175,-240,-2024,-24,-169,601,95
4180,-256,-2048,32,-174,576,78
4185,-248,-2056,72,-168,551,60
4190,-232,-2080,72,-160,528,40
4195,-192,-2072,72,-150,505,22
4200,-200,-2080,80,-136,480,3
4205,-192,-2048,72,-120,459,-14
4210,-192,-2040,64,-103,438,-30
4215,-200,-2024,88,-90,418,-45
4220,-224,-2008,64,-80,398,-56
4225,-192,-2008,40,-77,375,-68
4230,-192,-2016,48,-75,353,-78
4235,-176,-2032,56,-77,325,-90
4240,-160,-2048,64,-79,303,-98
4245,-104,-2080,64,-76,279,-106
4250,-104,-2104,64,-68,254,-113
4255,-96,-2112,80,-54,231,-116
4260,-88,-2112,64,-37,210,-120
4265,-80,-2096,24,-21,194,-124
4270,-80,-2104,8,-6,182,-128
4275,-88,-2080,-16,6,175,-134
4280,-96,-2064,-16,19,170,-135
4285,-104,-2112,-32,30,168,-133
4290,-152,-2152,24,41,162,-125
4295,-96,-2192,24,47,158,-113
4300,-112,-2232,56,53,155,-97
4305,-104,-2272,80,57,152,-79
4310,-96,-2272,152,66,149,-56
4315,-80,-2280,208,83,145,-37
4320,-64,-2240,336,107,139,-13
4325,-48,-2192,392,138,135,8
4330,-16,-2200,432,171,130,32
4335,8,-2152,488,208,128,53
4340,32,-2160,504,240,130,80
4345,200,-2224,480,268,130,108
4350,216,-2400,448,303,149,156
4355,136,-2728,304,361,175,227
4360,-64,-2984,240,430,177,330
4365,200,-3416,-368,468,158,472
4370,392,-3656,-824,404,184,511
4375,400,-3616,-1080,242,234,455
4380,272,-3512,-1280,24,270,387
4385,-40,-3296,-1056,-169,268,341
4390,-240,-3008,-808,-223,211,345
4395,-320,-2696,-768,-141,102,372
4400,-368,-2336,-840,11,10,388
4405,-368,-1984,-920,85,-75,386
4410,-304,-1736,-1008,89,-148,376
4415,-168,-1576,-1032,61,-186,353
4420,-16,-1520,-1048,45,-175,343
4425,176,-1496,-1016,62,-114,333
4430,312,-1576,-984,104,-23,326
4435,456,-1712,-936,150,84,315
4440,560,-1896,-848,199,199,306
4445,624,-2056,-784,234,307,290
4450,648,-2176,-712,241,417,281
4455,624,-2232,-664,208,481,260
4460,592,-2280,-608,143,533,241
4465,536,-2296,-504,75,568,212
4470,432,-2256,-456,11,586,181
4475,312,-2168,-440,-53,587,148
4480,192,-2088,-368,-109,558,114
4485,72,-1968,-344,-158,504,75
4490,-48,-1888,-320,-214,431,41
4495,-112,-1824,-304,-265,341,-5
4500,-208,-1760,-320,-299,239,-48
4505,-288,-1704,-312,-326,122,-86
4510,-400,-1664,-296,-340,31,-116
4515,-448,-1624,-296,-341,-53,-142
4520,-504,-1608,-240,-335,-121,-157
4525,-512,-1584,-272,-322,-174,-172
4530,-536,-1568,-248,-302,-216,-177
4535,-536,-1568,-264,-293,-236,-189
4540,-488,-1568,-224,-276,-253,-185
4545,-432,-1552,-216,-241,-266,-169
4550,-328,-1600,-208,-210,-270,-151
4555,-264,-1568,-216,-190,-265,-141
4560,-200,-1592,-208,-171,-264,-128
4565,-88,-1608,-184,-162,-264,-122
4570,-32,-1656,-168,-159,-265,-112
4575,24,-1656,-192,-162,-262,-115
4580,72,-1656,-184,-174,-259,-125
4585,176,-1680,-136,-190,-249,-142
4590,232,-1736,-152,-206,-239,-157
4595,256,-1688,-208,-204,-240,-165
4600,208,-1704,-184,-199,-259,-157
4605,320,-1672,-240,-187,-289,-148
4610,256,-1704,-216,-189,-307,-175
4615,168,-1736,-184,-188,-334,-192
4620,184,-1728,-264,-179,-363,-183
4625,208,-1744,-264,-170,-389,-179
4630,160,-1744,-256,-163,-410,-175
4635,168,-1768,-216,-158,-431,-181
4640,184,-1784,-216,-144,-451,-185
4645,216,-1800,-176,-130,-469,-185
4650,216,-1784,-200,-112,-477,-181
4655,240,-1824,-176,-89,-475,-189
4660,232,-1800,-176,-73,-460,-199
4665,248,-1864,-152,-57,-441,-199
4670,280,-1888,-112,-40,-420,-195
4675,232,-1912,-112,-32,-398,-194
4680,264,-1920,-128,-19,-381,-175
4685,256,-1928,-88,-13,-362,-166
4690,280,-1936,-96,-13,-345,-156
4695,264,-1944,-72,-16,-331,-144
4700,296,-1960,-64,-13,-322,-117
4705,296,-1936,-72,-8,-313,-91
4710,296,-1944,-56,-2,-304,-61
4715,288,-1928,-16,0,-297,-32
4720,280,-1896,-48,6,-290,-5
4725,256,-1904,0,13,-286,21
4730,256,-1904,16,20,-282,49
4735,240,-1920,48,27,-277,74
4740,232,-1912,48,36,-272,100
4745,256,-1960,56,45,-264,122
4750,272,-1984,80,54,-250,140
4755,296,-2056,40,66,-232,153
4760,360,-2088,48,75,-212,159
4765,392,-2144,16,81,-188,156
4770,408,-2144,-48,79,-167,143
4775,456,-2200,-88,71,-146,122
4780,448,-2232,-144,55,-132,101
4785,424,-2280,-120,33,-130,78
4790,408,-2320,-120,10,-133,55
4795,368,-2376,-160,-7,-146,38
4800,312,-2416,-144,-20,-157,21
4805,240,-2472,-80,-24,-167,4
4810,224,-2504,-56,-17,-177,-13
4815,208,-2552,8,2,-185,-29
4820,168,-2576,64,31,-190,-48
4825,160,-2576,72,67,-191,-64
4830,144,-2536,152,111,-189,-79
4835,120,-2480,208,153,-186,-90
4840,112,-2448,296,195,-183,-99
4845,112,-2400,360,234,-185,-108
4850,96,-2336,456,273,-194,-119
4855,72,-2312,512,313,-211,-126
4860,32,-2240,608,349,-234,-135
4865,24,-2176,624,383,-259,-140
4870,-72,-2128,592,410,-292,-143
4875,-240,-2184,544,412,-339,-143
4880,-104,-2448,376,410,-411,-131
4885,-48,-2760,320,429,-436,-121
4890,-56,-2992,248,481,-456,-120
4895,88,-3160,16,555,-508,-108
4900,272,-3176,-464,554,-567,-117
4905,528,-3160,-1072,416,-585,-159
4910,736,-2992,-1368,160,-533,-252
4915,824,-2728,-1328,-104,-453,-352
4920,944,-2544,-1384,-244,-384,-444
4925,904,-2176,-1408,-273,-256,-524
4930,744,-2088,-1336,-326,-103,-638
4935,448,-2088,-1088,-348,47,-652
4940,248,-1952,-1016,-274,127,-561
4945,-72,-1768,-1008,-221,176,-482
4950,-304,-1608,-1000,-203,198,-428
4955,-576,-1568,-960,-196,207,-387
4960,-720,-1536,-888,-165,202,-352
4965,-872,-1568,-856,-109,172,-316
4970,-960,-1624,-768,-44,112,-280
4975,-960,-1728,-736,13,26,-239
4980,-896,-1848,-656,46,-80,-206
4985,-808,-1888,-608,55,-192,-174
4990,-680,-1976,-512,43,-318,-160
4995,-568,-1984,-456,11,-408,-159
5000,-400,-1944,-400,-28,-478,-157
5005,-280,-1944,-336,-68,-521,-135
5010,-136,-1880,-336,-97,-545,-126
5015,0,-1800,-336,-140,-547,-106
5020,136,-1712,-344,-185,-531,-85
5025,256,-1696,-336,-227,-492,-55
5030,376,-1680,-352,-253,-427,-25
5035,464,-1760,-392,-261,-344,0
5040,488,-1800,-416,-258,-226,11
5045,552,-1880,-392,-251,-120,17
5050,600,-1952,-432,-245,-13,13
5055,600,-2064,-432,-234,94,2
5060,592,-2072,-424,-206,207,-20
5065,472,-1984,-480,-161,321,-22
5070,392,-1840,-496,-141,418,-22
5075,344,-1800,-408,-193,450,-13
5080,264,-1816,-360,-224,453,-5
5085,216,-1792,-336,-204,452,15
5090,160,-1776,-376,-157,455,34
5095,96,-1736,-368,-117,461,54
5100,24,-1704,-344,-77,462,65
5105,-16,-1712,-344,-52,456,86
5110,-88,-1736,-272,-27,448,106
5115,-64,-1744,-232,-3,434,140
5120,-48,-1792,-232,11,424,153
5125,-40,-1800,-208,14,409,166
5130,48,-1816,-208,10,401,176
5135,8,-1808,-232,-13,398,166
5140,0,-1824,-184,-32,399,158
5145,16,-1824,-192,-41,401,170
5150,40,-1776,-192,-40,412,177
5155,64,-1760,-176,-42,424,171
5160,24,-1760,-216,-52,445,152
5165,24,-1736,-192,-64,468,138
5170,-24,-1728,-200,-75,489,122
5175,-32,-1736,-168,-75,503,125
5180,-40,-1712,-176,-73,511,128
5185,-48,-1744,-208,-72,515,131
5190,-80,-1752,-192,-68,515,124
5195,-72,-1800,-200,-65,511,119
5200,-96,-1800,-168,-67,501,109
5205,-112,-1776,-168,-70,490,104
5210,-112,-1776,-168,-73,477,93
5215,-128,-1776,-136,-76,464,88
5220,-96,-1808,-112,-80,448,74
5225,-128,-1792,-64,-80,435,64
5230,-112,-1872,-40,-79,417,49
5235,-160,-1840,-8,-77,400,35
5240,-136,-1872,48,-75,382,22
5245,-144,-1888,32,-69,364,10
5250,-192,-1888,64,-65,344,-8
5255,-184,-1912,40,-58,322,-18
5260,-176,-1928,40,-55,304,-31
5265,-176,-1920,16,-53,287,-39
5270,-160,-1920,-16,-54,273,-52
5275,-176,-1928,-16,-55,258,-61
5280,-136,-1944,-32,-60,242,-74
5285,-104,-1984,-40,-67,222,-84
5290,-96,-1992,-40,-72,204,-100
5295,-88,-2016,-56,-77,183,-113
5300,-88,-2016,-64,-79,162,-126
5305,-64,-2056,-72,-77,143,-141
5310,-56,-2048,-48,-71,120,-159
5315,-56,-2080,-64,-63,104,-173
5320,-48,-2080,-88,-55,91,-190
5325,-64,-2096,-104,-48,84,-201
5330,-80,-2160,-112,-45,81,-210
5335,-96,-2192,-112,-44,83,-211
5340,-88,-2312,-80,-43,90,-205
5345,-88,-2392,-24,-41,102,-186
5350,-80,-2536,56,-35,121,-162
5355,-64,-2608,120,-29,147,-131
5360,-16,-2664,248,-14,181,-91
5365,16,-2672,280,20,209,-57
5370,88,-2664,352,55,230,-34
5375,96,-2648,448,92,239,-7
5380,112,-2584,560,139,237,22
5385,144,-2536,608,194,229,63
5390,200,-2480,672,261,217,108
5395,64,-2392,656,324,207,147
5400,272,-2464,712,399,172,218
5405,608,-2560,528,492,161,269
5410,528,-2832,456,527,196,237
5415,368,-3152,280,572,219,221
5420,280,-3424,-120,594,216,245
5425,240,-3592,-656,518,220,262
5430,64,-3512,-1160,296,243,226
5435,-208,-3256,-1328,-13,281,167
5440,-480,-3024,-1160,-249,314,127
5445,-656,-2656,-1072,-328,310,125
5450,-744,-2224,-1048,-315,273,144
5455,-704,-1880,-1056,-294,202,173
5460,-600,-1576,-1088,-298,118,217
5465,-432,-1336,-1160,-312,36,272
5470,-216,-1200,-1184,-323,-35,306
5475,-16,-1184,-1200,-297,-57,330
5480,168,-1272,-1176,-226,-56,342
5485,352,-1416,-1096,-132,-36,337
5490,512,-1656,-1016,-36,1,329
5495,608,-1952,-960,38,60,326
5500,648,-2144,-888,76,130,332
5505,664,-2352,-784,61,200,334
5510,656,-2472,-672,7,248,323
5515,616,-2552,-584,-67,271,298
5520,552,-2560,-496,-147,255,248
5525,488,-2504,-424,-242,207,192
5530,400,-2376,-432,-314,135,136
5535,272,-2216,-400,-379,51,74
5540,144,-2080,-400,-436,-39,11
5545,-8,-1952,-432,-475,-124,-54
5550,-120,-1824,-456,-502,-200,-113
5555,-232,-1720,-480,-511,-258,-166
5560,-312,-1656,-448,-508,-297,-201
5565,-408,-1584,-472,-491,-319,-231
5570,-408,-1568,-480,-468,-329,-250
5575,-392,-1552,-448,-431,-327,-268
5580,-488,-1512,-448,-397,-305,-290
5585,-480,-1488,-384,-363,-300,-290
5590,-416,-1520,-400,-316,-308,-260
5595,-304,-1560,-400,-264,-311,-239
5600,-192,-1616,-440,-226,-307,-231
5605,-168,-1624,-416,-208,-303,-235
5610,-96,-1640,-416,-210,-302,-240
5615,-32,-1728,-408,-233,-303,-256
5620,64,-1728,-392,-258,-303,-271
5625,168,-1728,-424,-295,-308,-296
5630,264,-1744,-416,-353,-306,-330
5635,352,-1752,-312,-395,-297,-377
5640,200,-1776,-296,-396,-306,-401
5645,168,-1712,-336,-372,-365,-382
5650,264,-1704,-336,-356,-425,-340
5655,264,-1680,-360,-348,-471,-319
5660,256,-1664,-384,-349,-511,-307
5665,264,-1648,-360,-354,-548,-314
5670,296,-1664,-376,-363,-573,-322
5675,296,-1696,-392,-375,-592,-327
5680,320,-1680,-352,-388,-602,-337
5685,216,-1720,-352,-387,-608,-351
5690,248,-1856,-320,-374,-628,-341
5695,200,-1792,-384,-342,-639,-357
5700,264,-1840,-376,-333,-632,-358
5705,264,-1848,-328,-326,-607,-344
5710,296,-1856,-312,-306,-575,-323
5715,344,-1872,-344,-290,-541,-309
5720,304,-1872,-304,-283,-512,-292
5725,368,-1888,-296,-285,-486,-275
5730,392,-1904,-264,-284,-458,-253
5735,416,-1888,-272,-282,-424,-239
5740,624,-1920,-224,-287,-395,-227
5745,408,-1912,-232,-273,-327,-247
5750,504,-1992,-208,-277,-299,-222
5755,448,-1936,-280,-278,-275,-191
5760,456,-1952,-264,-286,-266,-149
5765,456,-1968,-280,-297,-261,-120
5770,464,-2016,-256,-312,-256,-95
5775,472,-2064,-248,-322,-244,-84
5780,448,-2128,-248,-321,-228,-75
5785,400,-2144,-272,-315,-216,-77
5790,384,-2168,-272,-306,-210,-78
5795,344,-2160,-256,-296,-209,-83
5800,328,-2176,-280,-287,-214,-85
5805,304,-2216,-256,-271,-224,-92
5810,256,-2216,-240,-251,-233,-92
5815,192,-2256,-256,-228,-245,-91
5820,200,-2304,-176,-198,-259,-83
5825,152,-2336,-112,-154,-271,-75
5830,136,-2376,-112,-95,-287,-59
5835,112,-2376,-32,-25,-307,-43
5840,112,-2400,16,63,-332,-27
5845,96,-2384,80,137,-349,-12
5850,152,-2368,96,199,-366,6
5855,168,-2368,128,255,-379,18
5860,232,-2304,168,319,-385,33
5865,240,-2280,232,383,-388,43
5870,296,-2216,280,432,-393,53
5875,320,-2208,296,470,-400,60
5880,352,-2208,328,504,-401,75
5885,384,-2184,368,535,-402,90
5890,416,-2176,384,560,-405,109
5895,432,-2192,376,588,-409,119
5900,384,-2176,392,601,-414,134
5905,320,-2192,440,616,-432,152
5910,312,-2160,488,631,-455,175
5915,216,-2136,504,654,-484,198
5920,192,-2128,560,677,-518,223
5925,128,-2096,560,709,-551,238
5930,32,-2048,576,744,-579,252
5935,-72,-1960,552,772,-599,264
5940,-128,-1840,496,800,-612,273
5945,-144,-1728,344,838,-621,286
5950,-144,-1576,168,874,-615,309
5955,-88,-1472,-56,901,-592,336
5960,48,-1328,-392,907,-542,364
5965,264,-1304,-792,880,-466,392
5970,480,-1408,-1296,820,-366,415
5975,616,-1648,-1760,695,-261,410
5980,824,-1936,-2320,507,-178,399
5985,976,-2088,-2872,205,-132,357
5990,1168,-2328,-3248,-281,-129,282
5995,1472,-2952,-3400,-851,-121,123
6000,1208,-3136,-3480,-1420,26,-139
6005,824,-3600,-3208,-1872,229,-399
6010,288,-3680,-2752,-1976,456,-629
6015,-280,-3624,-2272,-1880,673,-789
6020,-448,-3640,-1656,-1589,874,-775
6025,-600,-3448,-1144,-1146,1089,-688
6030,-656,-2928,-856,-649,1292,-630
6035,-720,-2640,-640,-247,1437,-594
6040,-784,-2368,-312,35,1494,-543
6045,-904,-2048,-240,302,1476,-438
6050,-856,-1888,-336,594,1345,-239
6055,-744,-1784,-360,914,1152,-57
6060,-584,-1616,-448,1110,914,105
6065,-392,-1520,-496,1177,653,233
6070,-144,-1464,-528,1123,407,324
6075,40,-1432,-488,972,209,402
6080,192,-1440,-456,771,71,470
6085,336,-1568,-336,560,-22,527
6090,424,-1744,-256,351,-76,569
6095,432,-1904,-168,154,-104,592
6100,384,-2080,-112,-30,-125,592
6105,256,-2256,-104,-215,-159,574
6110,64,-2336,-168,-345,-195,529
6115,-8,-2368,-232,-460,-212,455
6120,-96,-2312,-336,-552,-187,367
6125,-184,-2256,-376,-600,-122,291
6130,-224,-2152,-416,-584,-30,232
6135,-232,-2056,-472,-506,70,190
6140,-216,-1880,-504,-392,168,159
6145,-240,-1696,-488,-273,257,137
6150,-192,-1560,-432,-164,318,125
6155,-96,-1536,-488,-52,364,134
6160,-32,-1544,-448,44,389,152
6165,88,-1528,-432,94,406,176
6170,224,-1472,-440,118,435,195
6175,296,-1456,-424,100,481,203
6180,304,-1416,-392,53,519,216
6185,400,-1464,-360,24,499,260
6190,448,-1456,-432,41,455,310
6195,664,-1488,-496,42,441,323
6200,576,-1600,-464,13,464,296
6205,472,-1688,-448,12,492,281
6210,344,-1720,-456,34,514,278
6215,256,-1768,-376,31,503,294
6220,256,-1800,-352,37,497,312
6225,144,-1792,-416,40,503,305
6230,64,-1800,-376,20,515,253
6235,16,-1808,-328,-4,522,182
6240,-88,-1768,-320,-18,526,122
6245,-184,-1704,-256,-30,524,88
6250,-200,-1664,-256,-50,522,68
6255,-224,-1648,-256,-77,520,60
6260,-256,-1608,-248,-96,518,50
6265,-240,-1640,-264,-111,516,53
6270,-264,-1656,-256,-122,514,50
6275,-280,-1616,-224,-140,499,47
6280,-272,-1656,-224,-172,471,42
6285,-296,-1720,-224,-206,435,40
6290,-312,-1760,-216,-228,401,36
6295,-304,-1832,-248,-245,368,39
6300,-296,-1864,-280,-258,335,38
6305,-272,-1904,-256,-275,300,45
6310,-240,-1936,-264,-290,267,51
6315,-192,-1968,-256,-299,232,64
6320,-176,-2000,-248,-301,203,72
6325,-120,-2024,-296,-297,175,90
6330,-96,-2048,-272,-289,149,87
6335,-88,-2040,-264,-285,130,78
6340,-72,-2032,-272,-278,113,68
6345,-32,-2056,-248,-267,96,66
6350,-56,-2048,-256,-255,77,59
6355,-24,-2072,-240,-243,58,58
6360,-320,-2048,-24,-231,38,51
6365,-48,-2072,-160,-193,-1,83
6370,-48,-2088,-152,-167,-19,76
6375,-48,-2088,-136,-174,-25,53
6380,-88,-2072,-64,-182,-29,30
6385,-88,-2080,-48,-180,-32,21
6390,-136,-2104,0,-159,-37,13
6395,-136,-2104,72,-121,-46,11
6400,-104,-2112,88,-72,-57,7
6405,-128,-2096,112,-22,-69,3
6410,-144,-2080,112,26,-76,-4
6415,-80,-2120,144,67,-85,-4
6420,-96,-2080,208,106,-91,-11
6425,-48,-2080,184,152,-98,-9
6430,8,-2056,192,172,-103,-8
6435,64,-2056,184,180,-107,-3
6440,80,-2040,200,185,-103,2
6445,144,-2056,248,180,-93,14
6450,176,-2088,216,173,-80,21
6455,160,-2112,232,167,-60,27
6460,168,-2176,256,158,-42,30
6465,160,-2264,256,142,-26,33
6470,88,-2288,280,132,-14,33
6475,16,-2312,208,131,1,34
6480,-64,-2296,216,132,13,37
6485,-104,-2320,168,127,25,51
6490,-120,-2312,96,118,39,64
6495,-120,-2368,8,101,51,80
6500,-88,-2408,-72,80,61,89
6505,-88,-2432,-224,55,61,100
6510,-56,-2456,-296,22,54,105
6515,-56,-2456,-240,-17,34,112
6520,-16,-2504,-600,-45,-2,127
6525,24,-2544,-776,-78,-37,129
6530,24,-2584,-928,-140,-75,111
6535,-8,-2600,-1024,-197,-110,95
6540,-48,-2560,-1144,-239,-144,77
6545,-96,-2544,-1248,-273,-165,77
6550,-96,-2552,-1256,-280,-171,74
6555,-160,-2544,-1304,-260,-158,77
6560,-144,-2528,-1376,-224,-116,79
6565,-184,-2464,-1400,-172,-56,80
6570,-200,-2392,-1384,-113,1,68
6575,-216,-2296,-1408,-65,42,62
6580,-208,-2272,-1384,-27,81,69
6585,-168,-2248,-1392,26,116,92
6590,-96,-2224,-1336,61,155,112
6595,-96,-2152,-1256,82,181,126
6600,-96,-2088,-1176,89,188,131
6605,-96,-2032,-1064,76,169,142
6610,-72,-2064,-912,52,127,151
6615,-96,-2112,-760,15,64,158
6620,-96,-2240,-640,-1,-24,158
6625,-88,-2304,-592,3,-117,150
6630,-88,-2344,-552,12,-198,132
6635,-72,-2392,-608,22,-263,113
6640,-24,-2368,-632,25,-286,88
6645,16,-2328,-680,26,-287,60
6650,56,-2256,-720,29,-268,27
6655,120,-2232,-720,32,-234,-1
6660,144,-2192,-728,34,-190,-28
6665,168,-2144,-720,28,-135,-51
6670,152,-2112,-704,14,-81,-75
6675,184,-2080,-648,-8,-26,-94
6680,168,-2104,-584,-36,22,-115
6685,168,-2072,-584,-62,69,-155
6690,88,-2064,-480,-113,100,-188
6695,0,-2048,-440,-158,124,-206
6700,-16,-2008,-400,-191,123,-209
6705,-72,-1984,-376,-228,109,-208
6710,-120,-1944,-384,-262,82,-203
6715,-184,-1912,-304,-290,49,-199
6720,-200,-1816,-368,-324,-15,-193
6725,-96,-1832,-440,-356,-65,-207
6730,-88,-1768,-448,-373,-72,-277
6735,-144,-1728,-400,-420,-86,-373
6740,-224,-1728,-376,-471,-132,-411
6745,-80,-1704,-464,-435,-173,-366
6750,32,-1576,-536,-424,-197,-351
6755,112,-1520,-512,-492,-200,-442
6760,-64,-1520,-408,-590,-193,-601
6765,48,-1600,-464,-602,-212,-628
6770,-16,-1536,-416,-523,-219,-573
6775,-8,-1520,-496,-476,-234,-530
6780,-24,-1504,-504,-444,-225,-479
6785,-112,-1512,-416,-400,-179,-435
6790,144,-1416,-472,-334,-187,-311
6795,264,-1400,-496,-292,-186,-309
6800,184,-1296,-512,-297,-160,-382
6805,192,-1248,-432,-326,-130,-427
6810,152,-1304,-400,-332,-120,-437
6815,272,-1288,-440,-270,-116,-404
6820,264,-1368,-360,-212,-80,-381
6825,392,-1432,-352,-140,-54,-355
6830,432,-1312,-392,-84,-25,-358
6835,424,-1208,-368,-110,49,-382
6840,424,-1232,-352,-177,114,-407
6845,392,-1416,-256,-224,161,-372
6850,184,-1520,-176,-213,175,-324
6855,312,-1480,-248,-198,168,-298
6860,200,-1504,-224,-202,168,-265
6865,264,-1536,-224,-212,153,-210
6870,208,-1568,-200,-227,146,-173
6875,200,-1584,-208,-227,139,-128
6880,208,-1592,-208,-223,139,-97
6885,224,-1664,-248,-222,138,-82
6890,240,-1672,-264,-218,136,-70
6895,296,-1704,-288,-213,140,-57
6900,312,-1720,-304,-203,155,-45
6905,360,-1768,-320,-194,176,-40
6910,376,-1816,-400,-191,198,-36
6915,416,-1840,-416,-195,218,-38
6920,392,-1856,-456,-206,234,-36
6925,392,-1920,-440,-221,243,-41
6930,360,-1984,-440,-237,246,-43
6935,328,-2064,-392,-248,247,-49
6940,280,-2112,-376,-248,247,-49
6945,208,-2168,-320,-245,249,-55
6950,176,-2272,-280,-232,255,-56
6955,112,-2320,-208,-211,256,-60
6960,72,-2392,-160,-180,255,-58
6965,40,-2400,-80,-139,251,-60
6970,32,-2408,-40,-86,242,-56
6975,32,-2400,64,-24,233,-55
6980,64,-2376,40,50,221,-48
6985,120,-2360,72,132,200,-44
6990,168,-2336,96,216,172,-36
6995,240,-2312,72,299,139,-28
7000,264,-2320,72,373,106,-7
7005,304,-2320,32,437,66,13
7010,336,-2328,-48,460,29,45
7015,368,-2336,-192,460,-3,77
7020,368,-2368,-248,435,-34,107
7025,392,-2400,-368,389,-58,129
7030,352,-2480,-480,336,-72,139
7035,368,-2576,-600,264,-74,144
7040,328,-2624,-776,194,-59,141
7045,368,-2680,-976,105,-32,123
7050,248,-2808,-1032,-23,5,90
7055,128,-2952,-1192,-127,31,51
7060,112,-3088,-1200,-196,32,45
7065,88,-3112,-1312,-226,18,22
7070,48,-3120,-1328,-267,6,-12
7075,-40,-3000,-1320,-276,-1,-34
7080,-152,-2808,-1320,-261,1,-48
7085,-192,-2584,-1296,-212,15,-54
7090,-200,-2264,-1352,-139,34,-46
7095,-256,-1960,-1376,-54,50,-45
7100,-272,-1736,-1352,19,47,-46
7105,-264,-1576,-1304,75,16,-54
7110,-240,-1456,-1224,112,-55,-56
7115,-160,-1440,-1160,136,-127,-55
7120,-112,-1480,-1088,147,-204,-51
7125,-32,-1640,-1032,137,-277,-52
7130,24,-1768,-984,115,-347,-66
7135,96,-1912,-976,66,-410,-82
7140,152,-2008,-936,2,-452,-84
7145,168,-2144,-872,-49,-476,-84
7150,176,-2232,-896,-90,-486,-88
7155,120,-2264,-872,-132,-478,-99
7160,64,-2248,-896,-172,-452,-107
7165,0,-2184,-920,-212,-408,-122
7170,-32,-2144,-920,-235,-365,-132
7175,-56,-2064,-936,-247,-309,-136
7180,-32,-2040,-968,-252,-244,-126
7185,-40,-2024,-960,-253,-176,-111
7190,-32,-2000,-952,-253,-113,-84
7195,8,-2024,-944,-251,-64,-56
7200,32,-2024,-928,-257,-34,-27
7205,80,-2024,-912,-275,-19,-1
7210,152,-2056,-848,-299,-19,29
7215,176,-2016,-776,-320,-29,61
7220,184,-2016,-776,-335,-41,96
7225,176,-1968,-736,-337,-50,132
7230,224,-1936,-672,-327,-57,172
7235,232,-1896,-696,-301,-55,209
7240,232,-1824,-632,-277,-46,244
7245,232,-1808,-640,-256,-44,257
7250,176,-1760,-624,-243,-49,260
7255,128,-1736,-632,-242,-59,260
7260,88,-1712,-648,-241,-67,266
7265,32,-1712,-648,-249,-66,277
7270,8,-1704,-584,-265,-55,292
7275,16,-1680,-672,-268,-31,316
7280,-16,-1640,-640,-262,12,337
7285,-32,-1648,-568,-269,51,356
7290,24,-1648,-600,-248,84,378
7295,56,-1608,-592,-253,117,360
7300,48,-1600,-584,-296,146,321
7305,-24,-1560,-520,-341,162,274
7310,8,-1552,-472,-361,165,244
7315,-24,-1536,-472,-364,164,238
7320,24,-1496,-456,-356,155,244
7325,24,-1456,-448,-322,146,250
7330,56,-1512,-504,-283,143,244
7335,8,-1496,-464,-251,158,245
7340,24,-1496,-440,-226,180,266
7345,16,-1432,-448,-206,202,276
7350,-136,-1368,-352,-180,209,297
7355,-208,-1312,-448,-132,201,331
7360,216,-1472,-472,-107,185,362
7365,336,-1424,-472,-106,195,329
7370,288,-1424,-440,-171,208,253
7375,160,-1416,-400,-231,198,164
7380,120,-1424,-328,-259,165,142
7385,16,-1384,-320,-264,141,135
7390,24,-1344,-392,-257,122,143
7395,-16,-1304,-400,-253,123,150
7400,-8,-1296,-432,-257,132,157
7405,-48,-1232,-400,-268,151,157
7410,-48,-1224,-408,-292,183,150
7415,-48,-1200,-384,-324,224,138
7420,0,-1224,-400,-349,272,125
7425,16,-1248,-400,-382,331,114
7430,16,-1288,-392,-418,399,100
7435,24,-1368,-392,-449,450,96
7440,24,-1424,-384,-473,493,94
7445,48,-1520,-392,-493,530,97
7450,104,-1544,-448,-510,564,97
7455,120,-1592,-472,-532,603,95
7460,96,-1640,-496,-557,640,89
7465,80,-1680,-456,-575,671,90
7470,0,-1696,-456,-590,695,89
7475,-32,-1728,-472,-608,704,91
7480,-80,-1752,-464,-628,705,91
7485,-104,-1768,-480,-652,692,92
7490,-176,-1736,-448,-679,672,90
7495,-216,-1736,-480,-711,645,91
7500,-264,-1704,-464,-752,613,90
7505,-304,-1656,-512,-796,577,97
7510,-304,-1632,-448,-845,538,97
7515,-264,-1640,-448,-899,494,103
7520,-248,-1640,-432,-948,446,102
7525,-216,-1640,-400,-997,397,99
7530,-136,-1664,-384,-1033,353,91
7535,-96,-1696,-384,-1063,313,86
7540,-56,-1672,-376,-1083,294,74
7545,40,-1688,-408,-1100,300,57
7550,104,-1672,-424,-1124,323,27
7555,112,-1640,-456,-1152,361,-1
7560,184,-1608,-496,-1178,409,-34
7565,232,-1576,-568,-1213,472,-62
7570,200,-1544,-600,-1258,542,-92
7575,208,-1512,-648,-1302,610,-114
7580,152,-1472,-696,-1345,671,-142
7585,144,-1384,-800,-1389,726,-174
7590,80,-1328,-824,-1443,787,-197
7595,64,-1312,-864,-1466,828,-226
7600,-32,-1256,-928,-1490,844,-260
7605,-56,-1184,-968,-1524,833,-287
7610,-96,-1168,-1016,-1564,790,-315
7615,-80,-1200,-1024,-1607,720,-325
7620,-72,-1272,-1064,-1641,637,-339
7625,-96,-1360,-1136,-1672,554,-354
7630,-184,-1448,-1160,-1715,472,-385
7635,-344,-1464,-1272,-1765,367,-431
7640,-504,-1488,-1256,-1817,245,-488
7645,-576,-1560,-1216,-1864,88,-512
7650,-624,-1640,-1120,-1875,-39,-540
7655,-640,-1728,-1000,-1853,-155,-567
7660,-608,-1800,-856,-1800,-241,-607
7665,-568,-1784,-648,-1733,-301,-632
7670,-552,-1880,-504,-1665,-364,-663
7675,-488,-1888,-280,-1616,-445,-678
7680,-352,-1952,-72,-1593,-525,-676
7685,-208,-2056,160,-1581,-593,-640
7690,-56,-2128,304,-1563,-656,-573
7695,72,-2184,432,-1534,-716,-469
7700,200,-2144,472,-1502,-733,-397
7705,320,-2208,472,-1479,-709,-320
7710,472,-2216,440,-1410,-654,-233
7715,640,-2144,376,-1322,-583,-158
7720,736,-2088,376,-1220,-513,-109
7725,792,-2032,392,-1072,-462,-62
7730,808,-1952,384,-888,-425,-52
7735,792,-1776,384,-704,-387,-53
7740,776,-1656,416,-548,-352,-58
7745,736,-1600,280,-394,-328,-77
7750,648,-1520,104,-216,-260,-127
7755,616,-1408,32,-149,-195,-155
7760,640,-1344,-144,-207,-124,-191
7765,736,-1464,-264,-300,-28,-209
7770,824,-1552,-328,-353,97,-244
7775,872,-1696,-312,-343,244,-286
7780,936,-1664,-360,-299,386,-315
7785,928,-1616,-272,-288,511,-342
7790,944,-1376,-216,-317,633,-340
7795,1064,-1576,-264,-311,742,-326
7800,584,-1072,-440,-249,857,-473
7805,432,-816,-456,-282,879,-536
7810,344,-568,-424,-380,885,-554
7815,240,-368,-384,-478,930,-548
7820,64,-152,-408,-566,986,-565
7825,-96,0,-312,-660,1034,-561
7830,-104,184,-264,-773,1062,-560
7835,-192,320,-264,-889,1093,-556
7840,-320,312,-416,-980,1102,-546
7845,-368,488,-496,-1019,1093,-527
7850,-496,752,-640,-1015,1076,-524
7855,-528,568,-792,-1000,1032,-487
7860,-584,928,-776,-1018,958,-506
7865,-704,936,-816,-1005,877,-529
7870,-816,928,-928,-994,771,-549
7875,-848,920,-1048,-1018,632,-560
7880,-888,808,-1008,-1051,484,-589
7885,-872,704,-1216,-1048,343,-632
7890,-904,576,-1464,-1059,234,-653
7895,-952,704,-1520,-1113,93,-642
7900,-952,536,-1528,-1159,-60,-616
7905,-976,472,-1496,-1235,-197,-598
7910,-952,384,-1456,-1315,-328,-570
7915,-896,296,-1472,-1352,-420,-539
7920,-808,240,-1496,-1385,-518,-508
7925,-696,104,-1512,-1405,-627,-475
7930,-608,56,-1440,-1414,-742,-437
7935,-512,-64,-1296,-1435,-845,-399
7940,-360,-104,-1160,-1426,-921,-355
7945,-200,-120,-1136,-1385,-962,-307
7950,-8,-152,-1168,-1351,-985,-277
7955,184,-96,-1272,-1323,-1005,-265
7960,376,-40,-1240,-1330,-1000,-261
7965,528,16,-1160,-1356,-970,-242
7970,696,-24,-1088,-1369,-903,-228
7975,928,24,-1040,-1410,-802,-250
7980,1208,-128,-672,-1542,-670,-257
7985,1400,-352,-296,-1646,-558,-265
7990,1504,-616,-312,-1652,-482,-283
7995,1560,-864,-528,-1559,-451,-305
8000,1576,-1008,-824,-1391,-480,-328
8005,1592,-1104,-768,-1255,-508,-370
8010,1528,-1232,-672,-1166,-467,-415
8015,1376,-1320,-528,-1129,-346,-487
8020,1008,-1272,-296,-1081,-186,-550
8025,496,-1176,-272,-997,-38,-586
8030,-32,-728,-272,-996,67,-599
8035,-456,-272,-72,-1138,93,-608
8040,-1024,224,128,-1357,19,-665
8045,-1288,600,320,-1587,-155,-736
8050,-1696,1472,48,-1751,-332,-803
8055,-1704,2696,-1040,-1893,-558,-780
8060,-1784,3936,-1888,-2114,-757,-676
8065,-1584,4592,-2352,-2388,-844,-364
8070,-1416,5568,-7248,-2646,-859,-12
8075,-2888,7312,-13000,-6293,-1103,269
8080,-1016,-8168,-26848,-8687,-2694,-1884
8085,16744,14912,-12912,-2448,2581,-1107
8090,10400,11064,4072,-4472,3081,370
8095,-5448,-13280,-2648,-6171,-1108,596
8100,-1264,-4720,-14040,-4552,-4210,97
8105,1664,5592,-14480,-5677,-4481,-175
8110,2088,-1200,-18360,-4547,-4261,-287
8115,1208,464,-15776,-4138,-3898,-64
8120,328,856,-13336,-3170,-3168,12
8125,592,336,-13000,-2046,-2632,52
8130,744,72,-10664,-1576,-2274,75
8135,680,-32,-9104,-1242,-1871,122
8140,-200,520,-6720,-1045,-1525,167
8145,320,376,-5152,-828,-1142,169
8150,176,-400,-4728,-743,-883,197
8155,-536,-1392,-3880,-619,-714,267
8160,-1976,-4984,-3448,-353,-592,709
8165,-1456,-6240,-2440,302,-709,1949
8170,464,-4904,-2600,1053,-867,2223
8175,1104,-2944,-2624,1657,-808,1820
8180,968,-872,-2040,1799,-720,1441
8185,888,-352,-2480,1812,-621,1221
8190,872,-224,-1840,1574,-599,994
8195,784,312,-1784,1324,-673,836
8200,1016,1032,-1680,858,-765,821
8205,1000,1424,-1784,406,-681,782
8210,1072,1400,-1360,-64,-470,758
8215,712,1688,-1208,-297,-180,591
8220,-24,1632,-1608,-586,188,258
8225,136,504,-344,-473,406,186
8230,248,-128,-728,-275,545,191
8235,32,-616,-1024,-100,631,172
8240,-160,-928,-984,-72,613,177
8245,-328,-656,-1480,-185,498,166
8250,-592,-384,-1296,-394,433,145
8255,-952,-336,-1008,-422,429,117
8260,-928,360,-1072,-342,469,100
8265,-1232,1160,-1112,-438,429,66
8270,-1064,1576,-1200,-551,327,113
8275,-984,1440,-1184,-738,259,111
8280,-1144,1768,-1496,-960,229,55
8285,-616,912,-1344,-1024,118,50
8290,-592,904,-1600,-907,-3,21
8295,120,-400,-1312,-873,-120,140
8300,-400,1008,-2072,-868,-105,31
8305,-472,200,-1912,-945,-121,-76
8310,-296,-120,-2472,-860,-108,-83
8315,-960,592,-1992,-971,-107,-164
8320,240,-944,-2160,-1069,-165,22
8325,-888,1504,-2616,-926,-133,-61
8330,-520,816,-2000,-1168,-221,102
8335,336,-768,-2160,-1113,-122,258
8340,-496,2032,-2320,-1083,-126,122
8345,-512,672,-1920,-1057,-187,146
8350,-48,-96,-2304,-887,-89,118
8355,-720,1952,-2576,-775,-44,-41
8360,-376,1216,-2256,-944,-65,55
8365,176,-448,-2176,-900,-41,111
8370,-240,864,-2440,-717,-23,-20
8375,-552,1472,-2264,-824,-61,-66
8380,-24,328,-2136,-932,-58,5
8385,80,-224,-2080,-784,-83,8
8390,-520,1240,-2200,-605,-77,-95
8395,-336,1056,-2144,-623,-108,-94
8400,-176,72,-2168,-562,-106,-24
8405,-32,456,-2192,-456,-84,24
8410,16,704,-2224,-345,-46,28
8415,-696,1680,-2296,-306,-10,-64
8420,-488,1200,-2144,-369,-36,-46
8425,-248,560,-2168,-330,-42,-3
8430,-240,736,-1928,-300,-42,9
8435,-360,928,-1936,-272,-25,8
8440,-424,1056,-2000,-278,-3,5
8445,-504,1248,-1944,-293,18,5
8450,-536,1208,-1840,-327,54,21
8455,-376,800,-1960,-365,62,37
8460,-416,576,-1952,-364,74,39
8465,-392,552,-2112,-310,113,29
8470,-392,544,-2112,-238,162,23
8475,-400,504,-2192,-155,203,15
8480,-336,520,-2192,-74,244,9
8485,-352,400,-2224,13,287,0
8490,-296,384,-2192,77,322,-6
8495,-240,360,-2208,131,351,-17
8500,-176,304,-2232,175,378,-21
8505,-200,256,-2176,207,401,-25
8510,-288,264,-2240,234,419,-27
8515,-232,264,-2240,238,435,-32
8520,-288,248,-2216,224,457,-29
8525,-248,200,-2232,201,461,-25
8530,-184,176,-2240,163,463,-23
8535,-160,176,-2256,114,459,-19
8540,-184,184,-2232,54,453,-12
8545,-152,192,-2200,8,446,-10
8550,-176,224,-2232,-28,438,-6
8555,-176,296,-2192,-57,431,-4
8560,-200,336,-2200,-73,425,1
8565,-144,296,-2200,-81,421,4
8570,-136,368,-2152,-84,416,3
8575,-136,384,-2080,-72,406,1
8580,-128,416,-2040,-51,400,0
8585,-152,400,-2040,-25,391,-4
8590,-112,424,-2024,-1,374,-6
8595,-152,408,-2000,14,360,-10
8600,-144,344,-1960,25,352,-12
8605,-184,328,-1976,30,352,-18
8610,-112,264,-1984,31,371,-21
8615,-136,320,-1976,15,392,-21
8620,-128,224,-1944,3,405,-21
8625,-64,344,-2056,-1,407,-19
8630,-96,336,-2120,-8,393,-19
8635,-80,296,-2056,-33,375,-23
8640,-88,264,-2040,-40,342,-26
8645,-112,544,-2200,-10,323,-16
8650,-160,432,-2200,3,301,-1
8655,-88,368,-2112,-3,303,5
8660,-120,336,-2104,19,311,5
8665,-144,256,-2088,40,329,11
8670,-104,360,-1888,77,342,21
8675,-8,8,-2136,204,377,39
8680,-40,152,-2040,115,380,42
8685,-40,240,-2016,35,387,45
8690,-48,280,-2056,-1,402,50
8695,-32,272,-2128,-8,422,57
8700,-16,264,-2096,-17,432,60
8705,-8,336,-2144,-30,426,56
8710,8,328,-2136,-44,407,47
8715,-40,272,-2048,-53,376,38
8720,-48,280,-2048,-55,336,30
8725,-80,256,-2088,-52,300,28
8730,-96,256,-2088,-44,277,27
8735,-72,208,-2152,-38,267,30
8740,-64,192,-2152,-38,265,33
8745,-24,320,-2200,-44,272,36
8750,16,264,-2184,-20,288,44
8755,-48,280,-2160,-45,293,48
8760,-16,336,-2160,-55,294,46
8765,-24,360,-2208,-53,287,46
8770,-16,344,-2168,-46,276,40
8775,32,368,-2184,-39,266,36
8780,16,376,-2176,-36,258,31
8785,-24,344,-2136,-33,256,29
8790,-24,368,-2136,-33,254,25
8795,-48,360,-2136,-35,255,24
8800,-48,352,-2144,-42,252,20
8805,8,320,-2144,-50,250,20
8810,0,352,-2112,-55,249,15
8815,-24,320,-2144,-61,240,16
8820,48,352,-2088,-69,230,10
8825,16,320,-2096,-73,216,10
8830,0,368,-2080,-76,196,7
8835,32,344,-2064,-74,184,6
8840,24,280,-2040,-86,172,0
8845,0,328,-2056,-89,148,5
8850,8,344,-2040,-88,145,0
8855,16,344,-2056,-91,140,1
8860,48,360,-2040,-98,132,-1
8865,-16,336,-2072,-114,110,5
8870,32,384,-2024,-114,102,1
8875,24,376,-2016,-117,99,1
8880,-32,344,-2008,-121,94,-4
8885,16,368,-2072,-126,80,4
8890,32,408,-2056,-120,74,-4
8895,-16,368,-2032,-116,69,-4
8900,8,344,-2056,-111,61,-2
8905,48,408,-2032,-96,53,-3
8910,16,384,-2000,-85,45,-7
8915,32,368,-2008,-73,41,-6
8920,40,352,-2032,-60,40,-9
8925,48,352,-2040,-47,36,-8
8930,24,352,-2016,-38,31,-9
8935,8,360,-2024,-29,28,-7
8940,8,360,-2000,-24,27,-11
8945,24,352,-2056,-18,24,-8
8950,0,360,-2040,-14,22,-12
8955,16,352,-2072,-11,19,-8
8960,8,328,-2072,-8,17,-11
8965,8,360,-2096,-7,18,-9
8970,16,344,-2096,-4,16,-12
8975,0,360,-2104,-5,14,-9
8980,32,352,-2096,-3,13,-10
8985,24,360,-2080,-4,9,-7
8990,-24,352,-2112,-4,8,-9
8995,8,360,-2136,-4,9,-9
9000,-8,344,-2120,-4,9,-9
9005,8,352,-2128,-4,7,-7
9010,16,352,-2152,-5,10,-10
9015,8,336,-2136,-3,12,-8
9020,-8,360,-2144,-2,13,-9
9025,-24,352,-2160,3,15,-8
9030,0,312,-2096,2,17,-10
9035,0,320,-2128,3,19,-8
9040,-40,344,-2104,2,20,-11
9045,-16,336,-2104,-2,24,-10
9050,-40,336,-2072,-5,29,-11
9055,0,336,-2056,-9,34,-10
9060,-8,328,-2080,-13,35,-12
9065,-16,344,-2048,-16,37,-10
9070,-24,344,-2080,-16,39,-12
9075,-16,336,-2056,-14,39,-10
9080,8,336,-2072,-15,40,-11
9085,-8,352,-2080,-14,42,-8
9090,-32,360,-2112,-13,47,-10
9095,-32,368,-2088,-13,50,-8
9100,-8,336,-2104,-13,53,-9
9105,-24,344,-2112,-16,54,-8
9110,-24,368,-2096,-18,59,-9
9115,8,312,-2080,-16,62,-6
9120,-8,344,-2112,-14,66,-6
9125,-8,336,-2096,-13,65,-4
9130,-16,368,-2048,-13,69,-6
9135,-8,368,-2136,-14,72,-3
9140,0,368,-2088,-14,76,-5
9145,-16,360,-2080,-17,79,-2
9150,-40,392,-2104,-16,85,-3
9155,-8,392,-2112,-18,90,-1
9160,0,344,-2096,-16,93,0
9165,-16,344,-2136,-16,93,2
9170,16,352,-2096,-17,94,-1
9175,16,360,-2096,-18,96,2
9180,8,352,-2088,-20,96,1
9185,16,336,-2128,-23,97,1
9190,-16,360,-2104,-27,97,1
9195,0,352,-2080,-29,100,3
9200,-8,352,-2104,-27,102,1
9205,-8,360,-2096,-24,103,1
9210,0,336,-2120,-24,102,2
9215,-8,352,-2128,-24,101,3
9220,8,352,-2128,-26,103,1
9225,-24,384,-2136,-30,104,1
9230,-8,336,-2096,-32,107,1
9235,0,344,-2072,-31,108,2
9240,-8,352,-2104,-30,109,2
9245,8,352,-2080,-29,111,2
9250,16,360,-2080,-29,112,2
9255,0,384,-2096,-28,112,3
9260,24,360,-2072,-29,114,3
9265,8,376,-2096,-29,116,3
9270,0,352,-2088,-29,117,3
9275,16,368,-2104,-30,116,2
9280,8,368,-2080,-30,116,2
9285,8,368,-2104,-29,117,3
9290,8,352,-2128,-29,116,4
9295,24,360,-2072,-26,116,3
9300,0,384,-2080,-25,116,3
9305,8,344,-2112,-30,113,2
9310,0,368,-2080,-28,110,3
9315,16,336,-2112,-25,115,2
9320,8,368,-2104,-25,119,4
9325,8,352,-2088,-24,120,4
9330,8,368,-2096,-23,122,4
9335,16,368,-2080,-24,123,2
9340,24,344,-2072,-25,122,4
9345,40,352,-2064,-25,124,3
9350,24,352,-2064,-26,122,5
9355,16,360,-2088,-27,121,4
9360,24,352,-2080,-26,121,5
9365,24,360,-2104,-25,119,2
9370,40,376,-2096,-24,119,4
9375,0,368,-2056,-28,110,2
9380,32,368,-2104,-22,114,5
9385,48,384,-2120,-21,116,3
9390,32,344,-2088,-20,115,5
9395,16,336,-2088,-20,114,3
9400,32,344,-2112,-19,118,4
9405,24,376,-2080,-17,116,3
9410,32,368,-2088,-16,117,6
9415,16,360,-2112,-16,113,4
9420,96,272,-2096,-18,111,6
9425,-8,392,-2048,-23,100,3
9430,24,368,-2088,-12,107,3
9435,40,368,-2064,-8,111,4
9440,40,376,-2088,-6,114,5
9445,24,368,-2080,-3,118,3
9450,8,360,-2104,-2,119,6
9455,40,336,-2152,-4,119,4
9460,16,400,-2064,-11,110,7
9465,72,352,-2080,1,114,6
9470,8,368,-2088,6,115,7
9475,40,360,-2080,6,118,5
9480,48,352,-2104,5,119,6
9485,24,352,-2104,-1,117,4
9490,32,328,-2112,-7,114,5
9495,32,344,-2064,-21,107,0
9500,24,368,-2056,-24,105,3
9505,64,360,-2104,-24,115,1
9510,40,376,-2120,-27,118,4
9515,32,392,-2096,-32,119,2
9520,56,352,-2064,-33,115,2
9525,64,376,-2096,-32,113,1
9530,64,368,-2104,-30,110,3
9535,56,376,-2112,-28,107,2
9540,64,352,-2080,-27,104,3
9545,64,360,-2088,-24,101,0
9550,72,344,-2096,-22,100,2
9555,64,376,-2096,-20,99,0
9560,24,360,-2088,-18,98,1
9565,24,368,-2080,-19,97,0
9570,56,360,-2072,-17,94,2
9575,56,368,-2080,-16,94,-1
9580,56,384,-2064,-17,94,3
9585,56,376,-2104,-16,93,-1
9590,64,376,-2048,-15,92,2
9595,48,352,-2104,-13,91,-1
9600,32,360,-2096,-13,90,1
9605,64,384,-2064,-13,85,-1
9610,64,360,-2096,-13,84,2
9615,64,384,-2104,-12,82,-1
9620,56,376,-2088,-9,78,1
9625,64,352,-2072,-10,76,-2
9630,48,360,-2072,-10,76,0
9635,56,352,-2072,-10,76,-1
9640,64,352,-2056,-11,76,1
9645,80,352,-2080,-11,76,-2
9650,64,352,-2064,-11,73,1
9655,56,352,-2072,-8,73,-3
9660,56,360,-2080,-8,71,0
9665,40,360,-2072,-7,69,-2
9670,56,352,-2104,-5,68,1
9675,56,376,-2072,-6,69,-2
9680,72,368,-2080,-7,66,0
9685,48,360,-2080,-7,64,-3
9690,80,368,-2088,-9,61,0
9695,72,368,-2080,-11,58,-3
9700,80,360,-2088,-10,56,0
9705,80,368,-2080,-6,56,-1
9710,48,376,-2112,-5,55,-1
9715,40,376,-2096,-5,53,-4
9720,64,360,-2088,-5,51,-1
9725,72,344,-2120,-5,51,-3
9730,32,352,-2104,-4,52,-2
9735,64,344,-2096,-5,49,-3
9740,72,368,-2080,-5,50,-1
9745,48,344,-2112,-4,48,-3
9750,56,376,-2056,0,49,-2
9755,32,368,-2112,8,51,-4
9760,64,360,-2096,16,54,-2
9765,64,360,-2096,21,55,-5
9770,40,368,-2072,21,57,-2
9775,40,352,-2080,18,59,-4
9780,56,344,-2064,13,64,-4
9785,40,360,-2048,8,68,-5
9790,48,352,-2104,6,71,-4
9795,80,328,-2120,3,73,-5
9800,56,328,-2120,1,73,-2
9805,56,352,-2128,-2,72,-5
9810,56,344,-2128,-6,70,-4
9815,64,368,-2120,-7,68,-6
9820,48,368,-2104,-6,67,-4
9825,24,344,-2072,-5,68,-6
9830,64,352,-2088,-6,68,-4
9835,24,368,-2080,-8,67,-4
9840,48,360,-2072,-11,66,-3
9845,56,360,-2080,-10,67,-3
9850,80,320,-2080,-11,67,-3
9855,56,360,-2096,-11,66,-3
9860,56,352,-2080,-11,66,-1
9865,64,368,-2056,-10,63,-3
9870,72,344,-2088,-10,63,-1
9875,40,368,-2072,-11,61,-3
9880,40,360,-2128,-12,62,-2
9885,64,360,-2088,-12,62,-2
9890,64,352,-2064,-13,60,0
9895,32,352,-2056,-13,61,-1
9900,56,352,-2088,-12,60,0
9905,56,360,-2088,-9,59,0
9910,56,376,-2096,-9,56,0
9915,64,352,-2072,-6,57,0
9920,40,352,-2120,-2,57,1
9925,40,376,-2112,4,60,1
9930,32,360,-2096,10,65,0
9935,40,368,-2120,13,68,1
9940,48,352,-2096,8,70,0
9945,40,352,-2104,3,70,3
9950,64,360,-2088,-2,69,0
9955,64,336,-2088,-5,70,1
9960,64,360,-2104,-6,71,1
9965,40,360,-2128,-7,70,1
9970,56,336,-2080,-7,69,0
9975,64,352,-2072,-6,67,0
9980,64,344,-2104,-7,65,-1
9985,48,352,-2080,-6,63,1
9990,56,360,-2096,-6,63,-1
9995,56,352,-2096,-5,60,1
10000,48,360,-2096,-5,60,0
10005,64,336,-2104,-6,59,2
10010,64,360,-2088,-7,56,-1
10015,64,352,-2104,-9,54,-1
10020,64,328,-2096,-8,52,-1
10025,56,344,-2104,-9,49,-1
10030,56,344,-2080,-10,48,-2
10035,64,344,-2080,-11,46,-1
10040,48,360,-2096,-13,45,-3
10045,56,352,-2120,-15,45,-2
10050,56,344,-2096,-18,46,-3
10055,64,352,-2112,-18,45,-2
10060,32,360,-2104,-19,43,-4
10065,40,376,-2080,-19,44,-2
10070,48,368,-2104,-18,42,-3
10075,56,352,-2120,-19,44,-2
10080,56,352,-2112,-18,43,-4
10085,56,336,-2096,-19,43,-2
10090,56,344,-2144,-20,44,-4
10095,56,336,-2072,-21,43,-3
10100,32,352,-2080,-20,45,-5
10105,64,352,-2104,-19,46,-3
10110,48,360,-2088,-20,44,-5
10115,16,376,-2096,-20,45,-4
10120,56,360,-2120,-20,47,-6
10125,56,344,-2096,-21,49,-3
10130,64,352,-2136,-22,49,-5
10135,56,352,-2088,-23,48,-3
10140,40,344,-2104,-22,47,-5
10145,48,352,-2096,-22,45,-4
10150,56,376,-2088,-24,45,-6
10155,56,352,-2152,-24,45,-4
10160,48,336,-2080,-24,44,-6
10165,48,360,-2120,-24,45,-4
10170,48,328,-2040,-24,45,-7
10175,120,400,-2088,-24,46,-4
10180,56,384,-2104,-25,46,-6
10185,64,352,-2080,-23,47,-6
10190,56,360,-2096,-23,48,-7
10195,64,328,-2112,-22,48,-4
10200,64,344,-2080,-22,46,-7
10205,48,320,-2072,-20,47,-5
10210,40,376,-2080,-19,47,-6
10215,40,344,-2088,-18,48,-5
10220,64,344,-2080,-20,47,-7
10225,24,344,-2112,-19,46,-5
10230,40,360,-2104,-19,49,-7
10235,40,376,-2088,-22,49,-4
10240,56,360,-2088,-20,51,-7
10245,32,352,-2080,-20,50,-4
10250,64,344,-2104,-19,51,-5
10255,40,368,-2112,-17,50,-4
10260,40,376,-2096,-15,50,-6
10265,64,344,-2088,-14,50,-3
10270,72,352,-2096,-14,50,-4
10275,16,360,-2112,-13,52,-2
10280,56,368,-2072,-15,50,-6
10285,48,376,-2112,-14,51,-3
10290,48,336,-2104,-15,52,-5
10295,24,368,-2080,-14,51,-3
10300,48,344,-2096,-16,50,-5
10305,72,344,-2136,-17,49,-2
10310,24,352,-2096,-16,49,-5
10315,32,376,-2104,-15,49,-3
10320,48,336,-2104,-14,51,-4
10325,32,368,-2112,-13,51,-3
10330,40,352,-2112,-13,53,-5
10335,40,360,-2120,-11,52,-2
10340,56,312,-2088,-11,54,-6
10345,80,344,-2096,-12,54,-3
10350,32,352,-2104,-11,54,-5
10355,40,360,-2112,-8,54,-2
10360,40,352,-2120,-8,55,-4
10365,56,352,-2080,-9,56,-1
10370,40,344,-2104,-12,57,-5
10375,40,344,-2104,-17,57,-4
10380,72,360,-2072,-21,58,-5
10385,56,320,-2056,-24,57,-2
10390,48,352,-2080,-24,56,-4
10395,32,352,-2088,-21,56,-1
10400,64,336,-2120,-19,57,-4
10405,32,360,-2120,-19,57,-2
10410,48,344,-2120,-18,57,-4
10415,56,368,-2104,-16,58,-2
10420,56,352,-2088,-15,58,-5
10425,32,352,-2104,-10,59,-2
10430,16,368,-2104,-10,61,-4
10435,40,328,-2120,-10,62,-2
10440,56,352,-2096,-9,62,-5
10445,32,376,-2072,-11,64,-3
10450,40,352,-2104,-11,63,-5
10455,48,360,-2104,-12,64,-2
10460,32,360,-2096,-11,63,-3
10465,40,344,-2088,-13,63,-3
10470,32,352,-2128,-14,61,-4
10475,48,368,-2112,-14,62,-3
10480,48,368,-2088,-14,62,-5
10485,48,376,-2128,-14,63,-4
10490,32,368,-2072,-15,62,-4
10495,32,368,-2088,-15,63,-1
10500,48,344,-2104,-16,63,-4
10505,24,344,-2072,-14,64,-4
10510,56,344,-2104,-13,61,-4
10515,24,336,-2064,-13,61,-4
10520,32,360,-2064,-13,61,-5
10525,48,344,-2096,-12,61,-4
10530,48,344,-2104,-14,60,-4
10535,40,368,-2088,-13,59,-4
10540,24,352,-2096,-11,61,-5
10545,32,320,-2096,-11,61,-3
10550,40,352,-2088,-11,61,-5
10555,32,368,-2088,-10,61,-4
10560,48,360,-2096,-9,61,-5
10565,32,360,-2104,-10,61,-3
10570,48,368,-2088,-10,61,-3
10575,32,360,-2104,-10,61,-4
10580,48,344,-2104,-9,60,-3
10585,48,336,-2088,-9,62,-5
10590,40,352,-2088,-9,64,-3
10595,32,360,-2104,-11,64,-4
10600,40,352,-2088,-10,65,-4
10605,16,352,-2112,-8,63,-3
10610,40,360,-2104,-9,61,-1
10615,48,368,-2088,-10,62,-3
10620,40,352,-2080,-9,62,-2
10625,40,336,-2096,-9,62,-3
10630,32,352,-2072,-9,63,-2
10635,40,352,-2080,-9,64,-3
10640,56,368,-2088,-10,65,-3
10645,48,344,-2096,-11,63,-2
10650,40,352,-2112,-11,64,-3
10655,40,360,-2096,-10,63,-4
10660,48,336,-2072,-11,62,-3
10665,40,352,-2112,-11,61,-3
10670,56,336,-2096,-11,61,-2
10675,64,368,-2088,-11,62,-4
10680,64,344,-2096,-9,61,-2
10685,40,336,-2088,-12,63,-5
10690,32,344,-2104,-11,64,-2
10695,48,344,-2072,-10,63,-4
10700,32,352,-2128,-10,62,-3
10705,56,344,-2120,-12,63,-4
10710,24,368,-2088,-10,62,-3
10715,0,360,-1976,-12,62,-4
10720,48,368,-2128,-10,61,-2
10725,56,344,-2096,-11,61,-4
10730,24,360,-2080,-11,62,-2
10735,40,344,-2096,-9,62,-5
10740,56,360,-2104,-9,62,-3
10745,40,368,-2112,-7,62,-5
10750,48,352,-2096,-8,64,-3
10755,56,344,-2104,-7,65,-4
10760,56,344,-2096,-6,66,-2
10765,48,344,-2104,-6,67,-3
10770,56,352,-2064,-6,65,-3
10775,32,352,-2072,-6,66,-5
10780,16,360,-2104,-6,67,-2
10785,32,368,-2112,-9,68,-4
10790,32,352,-2088,-9,69,-2
10795,40,336,-2088,-10,67,-5
10800,64,344,-2096,-12,69,-2
10805,56,352,-2064,-11,69,-4
10810,48,344,-2104,-12,68,-2
10815,56,352,-2128,-14,67,-3
10820,40,384,-2104,-13,69,0
10825,40,360,-2104,-13,69,-3
10830,24,360,-2104,-13,69,-1
10835,24,344,-2128,-12,68,-3
10840,56,344,-2096,-11,66,-2
10845,56,344,-2088,-10,67,-4
10850,64,328,-2096,-11,64,-1
10855,56,360,-2080,-9,65,-4
10860,32,360,-2104,-10,66,0
10865,56,344,-2112,-9,65,-4
10870,48,368,-2096,-9,65,-1
10875,32,376,-2080,-9,65,-5
10880,48,368,-2096,-11,64,-2
10885,40,360,-2088,-12,63,-6
10890,48,352,-2120,-13,65,-2
10895,72,360,-2104,-12,64,-5
10900,32,352,-2104,-9,64,-2
10905,32,352,-2112,-9,63,-5
10910,32,352,-2112,-9,65,-3
10915,40,344,-2112,-10,67,-5
10920,40,360,-2088,-8,68,-3
10925,64,352,-2112,-8,70,-5
10930,56,376,-2096,-8,70,-2
10935,72,344,-2096,-8,71,-5
10940,32,368,-2080,-9,69,-2
10945,40,344,-2120,-6,69,-5
10950,56,344,-2112,-6,69,-2
10955,32,352,-2104,-6,70,-4
10960,32,368,-2088,-8,71,-2
10965,48,352,-2088,-11,73,-5
10970,32,344,-2080,-15,73,-2
10975,40,368,-2040,-18,73,-3
10980,48,336,-2080,-17,72,-2
10985,72,352,-2088,-15,72,-4
10990,56,360,-2096,-12,71,-1
10995,72,336,-2104,-13,70,-5
11000,48,344,-2088,-13,69,-2
11005,40,344,-2096,-14,68,-3
11010,40,344,-2096,-12,70,-1
11015,40,352,-2096,-10,71,-4
11020,40,336,-2096,-8,73,0
11025,72,328,-2096,-7,73,-4
11030,56,328,-2064,-7,73,-3
11035,40,360,-2088,-7,72,-3
11040,32,360,-2112,-7,70,-2
11045,56,328,-2088,-9,70,-4
11050,40,344,-2096,-11,71,-2
11055,56,352,-2080,-11,69,-4
11060,64,336,-2112,-13,69,-2
11065,32,344,-2096,-13,71,-4
11070,48,368,-2088,-13,70,-2
11075,24,368,-2104,-13,70,-4
11080,40,368,-2120,-12,71,-3
11085,32,352,-2080,-12,69,-4
11090,48,336,-2096,-13,70,-2
11095,64,336,-2112,-13,71,-5
11100,48,352,-2064,-14,69,-3
11105,56,344,-2080,-13,70,-5
11110,64,344,-2064,-13,67,-3
11115,48,352,-2096,-12,68,-4
11120,64,344,-2080,-12,68,-3
11125,56,336,-2104,-14,68,-3
11130,48,328,-2088,-11,67,-2
11135,40,344,-2096,-10,67,-4
11140,40,352,-2088,-10,66,-2
11145,64,344,-2096,-12,66,-4
11150,40,344,-2104,-12,66,-2
11155,56,328,-2104,-12,67,-4
11160,40,360,-2128,-12,67,-4
11165,48,352,-2056,-12,67,-4
11170,72,344,-2064,-11,68,-3
11175,32,344,-2088,-12,68,-5
11180,64,328,-2120,-13,70,-3
11185,56,360,-2120,-13,69,-4
11190,64,360,-2088,-14,69,-3
11195,40,360,-2088,-13,68,-3
11200,48,336,-2088,-13,67,-3
11205,24,376,-2080,-13,66,-4
11210,32,368,-2104,-13,65,-2
11215,32,344,-2096,-14,65,-2
11220,56,360,-2096,-16,66,-2
11225,64,320,-2072,-15,64,-3
11230,40,344,-2072,-15,65,-2
11235,48,344,-2104,-15,63,-3
11240,32,376,-2088,-16,63,-4
11245,56,360,-2104,-16,63,-4
11250,40,368,-2120,-16,61,-2
11255,40,336,-2080,-17,61,-2
11260,48,352,-2096,-16,62,-3
11265,40,336,-2112,-16,62,-3
11270,40,336,-2072,-16,63,-3
11275,72,352,-2088,-16,62,-4
11280,80,344,-2112,-16,63,-4
11285,72,336,-2096,-16,61,-2
11290,64,344,-2096,-16,62,-3
11295,80,328,-2096,-15,61,-3
11300,72,336,-2080,-16,63,-4
11305,32,352,-2072,-15,62,-3
11310,72,328,-2064,-16,63,-4
11315,56,360,-2088,-15,63,-3
11320,40,352,-2112,-15,63,-4
11325,48,328,-2072,-15,65,-2
11330,56,352,-2080,-14,64,-3
11335,56,360,-2112,-14,63,-3
11340,64,352,-2088,-15,65,-3
11345,48,368,-2096,-13,65,-2
11350,80,344,-2080,-13,66,-3
11355,32,360,-2112,-13,64,-3
11360,40,360,-2112,-14,63,-5
11365,40,336,-2088,-15,64,-3
11370,40,360,-2096,-15,64,-4
11375,48,344,-2088,-12,63,-3
11380,32,336,-2088,-14,64,-4
11385,48,328,-2072,-14,64,-4
11390,40,368,-2096,-13,65,-3
11395,48,360,-2096,-13,64,-4
11400,48,368,-2120,-13,65,-4
11405,48,344,-2104,-12,64,-2
11410,56,344,-2096,-12,66,-4
11415,72,360,-2112,-13,64,-2
11420,72,352,-2080,-14,65,-5
11425,56,352,-2072,-13,65,-2
11430,64,336,-2096,-15,64,-4
11435,64,344,-2104,-16,66,-3
11440,56,360,-2072,-14,65,-4
11445,56,360,-2112,-13,65,-1
11450,64,336,-2088,-12,63,-5
11455,56,352,-2096,-11,65,-2
11460,56,328,-2096,-12,63,-3
11465,64,336,-2064,-11,64,-2
11470,48,344,-2088,-13,64,-4
11475,48,360,-2104,-13,65,-2
11480,80,344,-2104,-14,64,-4
11485,32,360,-2104,-15,63,-1
11490,40,352,-2096,-16,63,-3
11495,64,336,-2096,-14,62,-3
11500,32,352,-2088,-13,63,-4
11505,72,336,-2088,-13,64,-2
11510,48,352,-2096,-14,65,-5
11515,40,344,-2096,-15,64,-3
11520,64,344,-2072,-14,65,-5
11525,72,320,-2056,-14,65,-2
11530,56,336,-2064,-14,65,-5
11535,40,352,-2112,-14,64,-1
11540,56,336,-2104,-13,65,-3
11545,32,360,-2112,-12,66,-3
11550,56,344,-2088,-12,67,-6
11555,56,336,-2120,-12,66,-3
11560,32,344,-2064,-15,68,-4
11565,40,352,-2088,-18,67,-3
11570,48,360,-2088,-19,67,-5
11575,64,352,-2088,-22,66,-3
11580,64,344,-2088,-21,66,-6
11585,56,344,-2088,-17,65,-2
11590,56,328,-2144,-15,65,-4
11595,72,320,-2128,-15,66,-2
11600,56,344,-2096,-16,66,-5
11605,64,352,-2112,-14,66,-2
11610,48,344,-2088,-12,68,-4
11615,64,344,-2096,-10,69,-3
11620,64,360,-2112,-10,70,-5
11625,32,368,-2128,-10,71,-3
11630,56,344,-2048,-13,73,-3
11635,40,376,-2072,-12,70,-2
11640,56,344,-2064,-13,68,-4
11645,48,360,-2112,-14,67,-2
11650,56,344,-2104,-14,67,-5
11655,40,352,-2104,-14,68,-3
11660,48,336,-2088,-13,68,-5
11665,48,352,-2120,-14,67,-3
11670,56,336,-2112,-15,67,-5
11675,48,360,-2104,-14,67,-3
11680,56,360,-2088,-14,67,-4
11685,64,352,-2112,-15,68,-3
11690,40,360,-2104,-15,67,-3
11695,56,344,-2112,-14,66,-2
11700,80,344,-2088,-14,67,-4
11705,64,376,-2112,-15,67,-2
11710,72,336,-2088,-15,65,-5
11715,48,360,-2104,-15,66,-3
11720,64,344,-2096,-15,66,-5
11725,56,360,-2088,-14,66,-3
11730,64,352,-2088,-14,66,-3
11735,48,336,-2072,-12,66,-2
11740,72,336,-2136,-13,65,-5
11745,80,328,-2056,-15,65,-2
11750,48,360,-2096,-14,65,-5
11755,56,328,-2080,-14,66,-3
11760,56,344,-2088,-15,64,-4
11765,72,368,-2096,-15,65,-2
11770,64,352,-2096,-14,65,-4
11775,56,368,-2112,-13,65,-3
11780,48,360,-2088,-15,66,-4
11785,56,368,-2128,-13,65,-2
11790,40,352,-2120,-15,65,-4
11795,80,336,-2120,-14,66,-2
11800,56,352,-2080,-15,65,-3
11805,64,360,-2128,-14,62,-1
11810,56,336,-2080,-14,62,-4
11815,64,352,-2080,-13,62,-3
11820,56,344,-2080,-13,62,-4
11825,48,344,-2088,-13,61,-2
11830,32,352,-2104,-15,62,-3
11835,56,360,-2088,-17,63,-3
11840,80,352,-2096,-18,63,-5
11845,64,360,-2112,-18,61,-3
11850,64,344,-2104,-17,61,-3
11855,48,360,-2096,-16,62,-3
11860,56,352,-2096,-16,61,-4
11865,64,352,-2104,-15,61,-3
11870,48,352,-2080,-15,62,-4
11875,80,352,-2112,-16,64,-3
11880,40,336,-2088,-15,65,-3
11885,64,336,-2112,-14,64,-3
11890,64,336,-2096,-14,64,-2
11895,80,344,-2080,-14,64,-3
11900,32,344,-2096,-15,65,-4
11905,56,352,-2104,-18,64,-3
11910,48,352,-2088,-17,63,-3
11915,48,368,-2104,-17,63,-3
11920,56,352,-2072,-16,63,-3
11925,72,344,-2064,-14,63,-3
11930,80,344,-2112,-14,63,-3
11935,48,376,-2128,-14,63,-2
11940,72,328,-2096,-14,63,-3
11945,56,328,-2088,-13,63,-3
11950,56,344,-2112,-14,64,-3
11955,48,360,-2088,-13,63,-4
11960,48,344,-2088,-14,62,-5
11965,72,344,-2112,-16,63,-4
11970,56,336,-2096,-14,62,-3
11975,64,344,-2056,-15,64,-4
11980,56,368,-2080,-14,62,-4
11985,72,328,-2096,-14,62,-5
11990,72,352,-2080,-14,63,-3
11995,64,360,-2120,-15,62,-2
12000,32,344,-2088,-15,62,-2
12005,56,352,-2080,-14,62,-3
12010,64,336,-2080,-14,61,-4
12015,64,344,-2088,-14,62,-3
12020,40,352,-2112,-13,62,-2
12025,56,368,-2120,-14,62,-4
12030,32,344,-2112,-15,62,-3
12035,40,360,-2088,-15,62,-5
12040,48,360,-2104,-16,62,-3
12045,80,336,-2072,-16,63,-5
12050,48,352,-2088,-15,64,-3
12055,64,344,-2072,-15,62,-4
12060,56,328,-2128,-13,62,-3
12065,64,344,-2128,-11,62,-4
12070,48,360,-2112,-11,61,-3
12075,48,368,-2104,-12,62,-5
12080,48,336,-2096,-13,61,-4
12085,64,352,-2096,-14,61,-5
12090,56,360,-2112,-15,61,-3
12095,56,360,-2096,-16,61,-5
12100,40,360,-2088,-16,63,-2
12105,72,360,-2080,-15,61,-6
12110,48,360,-2112,-12,62,-3
12115,64,352,-2112,-13,63,-5
12120,96,352,-2080,-16,62,-3
12125,48,360,-2120,-14,64,-5
12130,56,352,-2056,-14,64,-4
12135,56,360,-2096,-14,65,-5
12140,72,368,-2104,-14,65,-3
12145,80,344,-2104,-14,64,-5
12150,56,352,-2120,-15,65,-3
12155,56,360,-2088,-12,63,-5
12160,56,344,-2120,-12,63,-3
12165,56,336,-2104,-12,64,-5
12170,72,352,-2072,-16,66,-4
12175,48,344,-2048,-19,66,-5
12180,48,360,-2120,-21,64,-2
12185,64,344,-2088,-23,64,-4
12190,56,360,-2112,-20,66,-1
12195,56,352,-2120,-16,64,-5
12200,48,360,-2128,-15,67,-2
12205,48,368,-2112,-14,67,-5
12210,64,336,-2112,-14,68,-3
12215,80,352,-2080,-13,68,-4
12220,96,336,-2088,-12,69,-2
12225,40,344,-2104,-11,69,-3
12230,56,328,-2072,-11,69,-1
12235,64,344,-2080,-10,70,-4
12240,72,344,-2088,-12,70,0
12245,48,352,-2096,-13,69,-4
12250,96,360,-2088,-14,67,-2
12255,96,352,-2104,-19,69,-3
12260,56,360,-2080,-16,69,0
12265,72,352,-2112,-14,70,-5
12270,72,344,-2064,-14,66,-2
12275,88,336,-2112,-13,65,-4
12280,32,360,-2096,-13,66,-3
12285,88,352,-2072,-13,66,-5
12290,56,352,-2080,-15,67,-3
12295,48,352,-2088,-15,66,-5
12300,64,360,-2064,-15,65,-1
12305,72,360,-2088,-16,65,-5
12310,72,336,-2064,-15,65,-2
12315,72,360,-2104,-14,64,-4
12320,72,328,-2096,-13,65,-2
12325,48,344,-2088,-14,65,-5
12330,48,344,-2112,-15,64,-3
12335,48,360,-2096,-15,64,-5
12340,64,360,-2096,-14,64,-2
12345,64,344,-2104,-14,64,-6
12350,72,352,-2120,-14,64,-3
12355,48,360,-2104,-14,65,-4
12360,64,344,-2080,-14,63,-3
12365,72,320,-2088,-14,63,-5
12370,80,328,-2080,-15,61,-2
12375,64,320,-2104,-14,62,-5
12380,48,328,-2080,-15,62,-2
12385,48,352,-2096,-15,62,-4
12390,72,344,-2120,-15,61,-2
12395,48,344,-2120,-16,60,-5
12400,80,344,-2120,-14,61,-2
12405,88,360,-2056,-15,60,-5
12410,64,360,-2104,-15,59,-4
12415,64,360,-2136,-15,58,-4
12420,64,352,-2104,-14,58,-3
12425,48,352,-2104,-15,58,-6
12430,72,344,-2088,-14,58,-2
12435,64,344,-2120,-15,58,-5
12440,64,352,-2088,-16,59,-3
12445,56,360,-2088,-16,59,-4
12450,48,352,-2112,-18,57,-2
12455,88,336,-2088,-19,59,-4
12460,72,344,-2104,-17,58,-3
12465,80,344,-2104,-16,58,-4
12470,40,352,-2096,-16,57,-4
12475,64,360,-2088,-15,57,-4
12480,72,328,-2096,-16,58,-3
12485,56,360,-2096,-16,57,-5
12490,72,360,-2096,-15,59,-2
12495,40,360,-2080,-16,59,-4
12500,56,344,-2088,-15,59,-3
12505,64,344,-2104,-13,59,-4
12510,40,344,-2088,-15,58,-3
12515,48,344,-2104,-14,60,-4
12520,80,336,-2072,-14,61,-2
12525,64,360,-2096,-15,60,-5
12530,80,352,-2096,-14,62,-2
12535,56,352,-2112,-14,61,-4
12540,64,368,-2104,-13,61,-4
12545,48,360,-2112,-13,61,-4
12550,64,344,-2072,-13,61,-3
12555,72,336,-2088,-14,60,-4
12560,40,360,-2112,-13,61,-4
12565,56,352,-2112,-14,61,-2
12570,48,360,-2136,-15,61,-3
12575,64,352,-2080,-14,61,-3
12580,64,336,-2104,-14,62,-3
12585,56,368,-2104,-14,62,-5
12590,64,344,-2088,-14,61,-3
12595,72,352,-2080,-15,61,-5
12600,56,344,-2088,-15,61,-4
12605,72,360,-2120,-15,60,-3
12610,80,352,-2072,-15,59,-3
12615,72,360,-2080,-14,61,-3
12620,40,376,-2096,-15,60,-3
12625,56,336,-2096,-15,61,-3
12630,72,344,-2088,-14,60,-4
12635,56,360,-2120,-14,60,-5
12640,56,352,-2112,-13,61,-4
12645,48,344,-2088,-14,62,-4
12650,72,344,-2088,-16,62,-4
12655,48,368,-2088,-15,61,-4
12660,72,352,-2096,-16,61,-4
12665,40,352,-2088,-16,63,-3
12670,64,352,-2088,-15,63,-4
12675,40,368,-2120,-12,62,-3
12680,64,328,-2096,-13,61,-6
12685,72,360,-2104,-12,61,-4
12690,72,328,-2104,-11,61,-5
12695,88,344,-2096,-12,61,-3
12700,56,336,-2104,-14,61,-4
12705,40,344,-2096,-14,61,-4
12710,64,360,-2096,-15,60,-3
12715,56,344,-2112,-15,60,-4
12720,80,344,-2096,-15,60,-5
12725,72,344,-2088,-14,61,-2
12730,56,328,-2112,-14,62,-4
12735,48,360,-2136,-13,62,-3
12740,48,352,-2104,-14,63,-4
12745,72,352,-2080,-15,63,-4
12750,56,344,-2104,-15,62,-4
12755,40,352,-2080,-15,62,-2
12760,64,336,-2080,-14,61,-4
12765,72,344,-2096,-15,62,-3
12770,64,336,-2104,-14,63,-5
12775,48,344,-2112,-12,63,-3
12780,64,360,-2088,-11,63,-6
12785,56,360,-2088,-11,62,-4
12790,56,344,-2072,-14,62,-4
12795,72,352,-2096,-17,63,-4
12800,72,344,-2080,-19,62,-5
12805,56,352,-2064,-22,63,-3
12810,56,368,-2088,-23,63,-3
12815,72,368,-2080,-19,63,-3
12820,56,368,-2080,-14,62,-4
12825,64,352,-2104,-13,64,-3
12830,72,360,-2104,-13,65,-5
12835,48,368,-2112,-13,64,-3
12840,72,328,-2088,-12,67,-5
12845,56,376,-2112,-11,68,-3
12850,56,352,-2096,-10,68,-4
12855,40,368,-2080,-8,68,-2
12860,56,352,-2096,-9,67,-5
12865,64,360,-2072,-11,68,-3
12870,56,344,-2088,-13,68,-5
12875,72,368,-2064,-13,69,-3
12880,32,344,-2072,-13,66,-5
12885,56,360,-2112,-14,67,-2
12890,64,344,-2088,-14,66,-4
12895,40,368,-2120,-13,66,-3
12900,56,352,-2120,-12,66,-4
12905,80,344,-2088,-12,67,-2
12910,56,368,-2104,-13,66,-5
12915,64,344,-2104,-13,64,-2
12920,48,336,-2080,-15,65,-6
12925,40,360,-2088,-16,64,-2
12930,56,360,-2080,-17,64,-5
12935,64,336,-2112,-17,63,-2
12940,56,368,-2104,-17,61,-5
12945,48,344,-2096,-18,62,-4
12950,72,360,-2088,-17,59,-6
12955,48,360,-2096,-17,59,-2
12960,64,344,-2112,-18,58,-5
12965,56,360,-2088,-16,57,-2
12970,56,328,-2104,-18,56,-4
12975,48,376,-2096,-18,56,-2
12980,40,344,-2080,-20,57,-4
12985,64,352,-2056,-20,55,-2
12990,64,352,-2072,-22,55,-5
12995,72,336,-2064,-21,54,-2
13000,72,352,-2128,-22,53,-3
13005,64,344,-2120,-22,53,-1
13010,40,360,-2080,-22,53,-5
13015,80,352,-2072,-22,53,-2
13020,56,336,-2064,-23,52,-5
13025,64,336,-2120,-23,52,-2
13030,56,368,-2080,-23,51,-4
13035,72,352,-2088,-23,49,-2
13040,48,360,-2112,-23,47,-5
13045,72,360,-2096,-24,48,-3
13050,64,360,-2088,-24,48,-5
13055,72,344,-2104,-23,49,-3
13060,64,336,-2072,-23,50,-5
13065,64,344,-2072,-22,50,-2
13070,40,368,-2096,-24,50,-5
13075,72,344,-2104,-25,51,-3
13080,64,344,-2088,-23,52,-5
13085,56,336,-2088,-22,50,-3
13090,64,344,-2064,-22,51,-5
13095,72,352,-2096,-22,51,-4
13100,80,336,-2088,-21,51,-7
13105,64,352,-2104,-21,53,-3
13110,64,352,-2112,-20,53,-5
13115,48,344,-2104,-20,54,-3
13120,64,352,-2064,-20,55,-5
13125,48,344,-2080,-21,56,-3
13130,64,336,-2104,-21,56,-6
13135,56,344,-2096,-19,55,-3
13140,56,336,-2128,-20,56,-5
13145,56,336,-2072,-20,55,-3
13150,72,336,-2104,-20,55,-5
13155,56,344,-2088,-20,56,-3
13160,64,352,-2072,-20,56,-6
13165,56,352,-2112,-19,56,-3
13170,56,344,-2096,-19,56,-5
13175,56,368,-2088,-18,56,-3
13180,64,328,-2072,-18,56,-4
13185,40,368,-2096,-19,54,-4
13190,56,368,-2072,-18,55,-6
13195,48,352,-2088,-18,57,-4
13200,48,328,-2088,-19,56,-5
13205,64,360,-2072,-20,54,-3
13210,56,360,-2112,-19,54,-5
13215,56,352,-2088,-19,54,-4
13220,48,352,-2072,-19,54,-5
13225,56,384,-2104,-18,56,-3
13230,40,368,-2136,-20,55,-3
13235,64,368,-2104,-18,56,-3
13240,64,352,-2088,-19,55,-5
13245,72,336,-2088,-19,54,-4
13250,72,328,-2064,-18,55,-4
13255,56,360,-2096,-19,55,-3
13260,72,360,-2096,-20,54,-4
13265,56,336,-2104,-19,53,-4
13270,40,360,-2112,-18,54,-4
13275,64,352,-2072,-18,53,-3
13280,48,368,-2128,-17,54,-4
13285,48,360,-2096,-17,54,-4
13290,56,352,-2120,-17,54,-4
13295,56,352,-2104,-18,53,-3
13300,40,368,-2096,-19,55,-3
13305,48,360,-2072,-18,55,-4
13310,56,360,-2104,-17,54,-3
13315,40,352,-2088,-15,54,-4
13320,48,344,-2112,-15,54,-4
13325,40,344,-2088,-14,54,-4
13330,64,376,-2096,-13,54,-3
13335,72,344,-2088,-14,53,-4
13340,56,368,-2112,-14,54,-3
13345,56,368,-2080,-13,54,-4
13350,56,344,-2088,-15,53,-3
13355,64,328,-2136,-16,54,-5
13360,72,336,-2072,-16,54,-5
13365,48,360,-2104,-18,55,-5
13370,64,352,-2088,-18,53,-4
13375,56,352,-2120,-16,54,-4
13380,40,344,-2104,-12,52,-4
13385,32,360,-2088,-11,54,-5
13390,72,344,-2080,-12,55,-3
13395,64,336,-2088,-13,56,-6
13400,56,352,-2096,-13,57,-3
13405,48,352,-2088,-12,59,-6
13410,64,368,-2088,-11,59,-5
13415,56,360,-2112,-11,59,-5
13420,40,344,-2128,-12,59,-4
13425,48,360,-2080,-11,59,-5
13430,56,368,-2072,-13,59,-3
13435,56,344,-2096,-15,59,-4
13440,40,352,-2072,-18,59,-4
13445,72,352,-2080,-21,58,-5
13450,56,368,-2088,-23,59,-3
13455,64,344,-2064,-22,57,-4
13460,32,352,-2096,-20,57,-3
13465,48,360,-2112,-17,56,-5
13470,48,384,-2120,-16,56,-5
13475,56,344,-2120,-17,56,-4
13480,64,352,-2088,-15,56,-3
13485,48,368,-2088,-13,56,-4
13490,24,368,-2096,-10,59,-3
13495,80,344,-2112,-10,60,-4
13500,56,360,-2088,-11,60,-2
13505,48,352,-2088,-12,60,-5
13510,48,376,-2112,-13,59,-3
13515,56,368,-2120,-13,57,-4
13520,32,360,-2112,-14,56,-3
13525,56,360,-2088,-14,57,-5
13530,40,360,-2072,-15,56,-3
13535,56,360,-2120,-14,57,-5
13540,48,376,-2080,-14,58,-3
13545,56,352,-2080,-15,57,-6
13550,56,368,-2104,-16,58,-3
13555,48,360,-2096,-15,58,-5
13560,48,352,-2104,-14,57,-3
13565,72,360,-2080,-13,57,-5
13570,40,392,-2088,-13,56,-3
13575,64,360,-2088,-13,57,-6
13580,56,352,-2112,-14,55,-4
13585,56,344,-2104,-13,55,-7
13590,64,352,-2072,-13,56,-3
13595,40,360,-2096,-12,55,-5
13600,56,336,-2080,-12,57,-2
13605,64,344,-2072,-12,57,-6
13610,48,384,-2088,-13,55,-3
13615,40,352,-2088,-14,56,-4
13620,56,360,-2096,-14,54,-4
13625,72,360,-2096,-13,56,-6
13630,48,352,-2088,-13,57,-3
13635,40,352,-2096,-13,55,-5
13640,48,368,-2096,-14,56,-2
13645,40,352,-2080,-13,55,-4
13650,48,368,-2096,-15,56,-2
13655,64,376,-2128,-16,56,-4
13660,48,352,-2096,-15,57,-3
13665,32,360,-2136,-13,55,-5
13670,32,376,-2136,-13,56,-2
13675,40,352,-2080,-12,55,-5
13680,40,352,-2072,-12,55,-2
13685,48,368,-2080,-12,56,-6
13690,80,352,-2080,-12,56,-3
13695,48,336,-2112,-12,56,-5
13700,80,360,-2104,-13,58,-2
13705,56,344,-2088,-14,58,-5
13710,48,368,-2080,-14,58,-2
13715,56,328,-2104,-14,58,-4
13720,32,384,-2072,-14,57,-2
13725,48,352,-2096,-15,58,-4
13730,48,352,-2064,-16,57,-2
13735,56,376,-2080,-14,58,-5
13740,48,336,-2088,-14,57,-2
13745,40,360,-2088,-13,58,-4
13750,40,352,-2096,-13,58,-1
13755,56,352,-2104,-13,58,-5
13760,32,376,-2088,-12,58,-2
13765,40,360,-2096,-13,59,-5
13770,56,376,-2096,-14,58,-4
13775,40,360,-2112,-13,59,-5
13780,32,384,-2104,-12,59,-3
13785,32,376,-2072,-13,58,-5
13790,40,368,-2096,-13,57,-2
13795,72,336,-2080,-12,56,-4
13800,40,352,-2096,-13,58,-1
13805,24,352,-2088,-13,57,-6
13810,56,360,-2096,-13,58,-3
13815,64,344,-2080,-13,57,-5
13820,48,352,-2088,-13,58,-2
13825,64,352,-2096,-14,58,-4
13830,40,336,-2096,-13,59,-3
13835,32,368,-2088,-13,58,-6
13840,40,368,-2096,-12,57,-3
13845,16,352,-2056,-13,58,-6
13850,72,344,-2104,-13,57,-5
13855,56,360,-2096,-14,58,-4
13860,56,376,-2128,-14,56,-3
13865,56,384,-2104,-15,56,-5
13870,48,352,-2088,-13,57,-4
13875,56,344,-2072,-14,57,-5
13880,48,344,-2088,-12,56,-3
13885,40,352,-2104,-12,57,-4
13890,48,352,-2104,-12,57,-3
13895,64,360,-2064,-11,57,-4
13900,48,336,-2080,-12,58,-2
13905,48,368,-2088,-13,58,-3
13910,32,360,-2080,-14,57,-2
13915,48,352,-2088,-15,59,-4
13920,64,344,-2096,-14,59,-4
13925,32,352,-2104,-13,58,-3
13930,64,352,-2104,-12,59,-4
13935,40,344,-2096,-10,59,-5
13940,40,376,-2096,-10,58,-3
13945,56,352,-2072,-11,57,-4
13950,32,352,-2088,-8,57,-4
13955,40,360,-2096,-7,56,-4
13960,32,344,-2072,-7,58,-4
13965,40,360,-2104,-7,59,-3
13970,48,336,-2064,-6,60,-2
13975,48,344,-2088,-8,60,-3
13980,48,376,-2104,-9,59,-4
13985,48,360,-2112,-10,60,-3
13990,40,344,-2120,-10,60,-2
13995,40,352,-2088,-5,60,-4
14000,48,368,-2104,-4,61,-4
14005,40,368,-2128,-5,63,-4
14010,56,352,-2104,-7,65,-4
14015,48,368,-2096,-8,67,-3
14020,48,368,-2104,-7,68,-3
14025,72,352,-2112,-7,68,-3
14030,72,344,-2088,-8,68,-3
14035,16,368,-2088,-10,68,-2
14040,56,352,-2104,-9,68,-2
14045,48,360,-2096,-7,66,-2
14050,48,328,-2120,-7,67,-3
14055,24,368,-2128,-9,66,-3
14060,48,344,-2096,-13,67,-3
14065,32,352,-2088,-15,67,-3
14070,56,352,-2096,-16,66,-4
14075,64,344,-2080,-17,66,-3
14080,56,352,-2064,-14,66,-4
14085,32,360,-2128,-11,66,-2
14090,56,344,-2112,-11,67,-3
14095,64,352,-2120,-10,66,-3
14100,56,368,-2104,-10,67,-2
14105,72,344,-2120,-9,68,-4
14110,40,376,-2096,-7,68,-4
14115,56,352,-2104,-7,68,-3
14120,48,368,-2136,-7,68,-4
14125,48,352,-2104,-9,69,-4
14130,48,352,-2064,-9,69,-6
14135,40,352,-2096,-11,67,-4
14140,32,352,-2096,-11,66,-6
14145,48,368,-2096,-11,65,-4
14150,40,360,-2088,-12,64,-5
14155,24,376,-2080,-12,64,-3
14160,48,352,-2096,-11,65,-4
14165,40,368,-2112,-11,65,-3
14170,64,368,-2080,-11,64,-4
14175,48,344,-2096,-12,64,-2
14180,24,376,-2080,-12,64,-5
14185,48,368,-2120,-12,65,-3
14190,64,336,-2104,-11,66,-5
14195,64,352,-2096,-10,65,-3
14200,72,328,-2104,-10,64,-3
14205,24,352,-2104,-8,64,-2
14210,56,344,-2072,-9,64,-4
14215,56,368,-2072,-10,65,-2
14220,40,360,-2096,-9,63,-4
14225,48,352,-2080,-10,63,-2
14230,136,352,-2120,-11,63,-4
14235,40,344,-2152,-13,63,-2
14240,8,320,-2008,-12,64,-4
14245,56,376,-2096,-11,63,-3
14250,64,360,-2088,-12,64,-4
14255,32,360,-2088,-12,64,-2
14260,48,360,-2112,-11,63,-5
14265,40,360,-2112,-12,64,-3
14270,64,336,-2064,-13,63,-5
14275,72,336,-2088,-11,65,-2
14280,40,368,-2112,-12,64,-4
14285,40,336,-2096,-10,63,-2
14290,56,360,-2096,-11,64,-6
14295,48,368,-2096,-11,63,-3
14300,56,352,-2104,-12,62,-5
14305,56,344,-2088,-13,65,-3
14310,72,344,-2088,-14,65,-5
14315,24,360,-2104,-16,66,-2
14320,48,344,-2096,-17,66,-4
14325,56,360,-2088,-16,66,-2
14330,48,344,-2120,-16,64,-4
14335,32,376,-2072,-13,66,-2
14340,48,344,-2096,-13,66,-6
14345,64,352,-2104,-14,66,-2
14350,40,352,-2120,-13,66,-4
14355,64,344,-2096,-13,67,-2
14360,56,344,-2088,-12,68,-4
14365,32,360,-2112,-11,67,-2
14370,56,344,-2096,-11,67,-4
14375,88,352,-2096,-11,67,-2
14380,64,360,-2080,-12,68,-5
14385,56,328,-2088,-11,68,-2
14390,32,344,-2096,-11,66,-3
14395,56,352,-2096,-12,68,-2
14400,40,344,-2080,-12,66,-5
14405,48,360,-2072,-11,67,-2
14410,48,344,-2072,-11,66,-3
14415,48,352,-2088,-12,65,-1
14420,48,344,-2096,-11,65,-3
14425,72,352,-2088,-11,64,-2
14430,32,352,-2104,-11,66,-4
14435,56,344,-2104,-12,64,-2
14440,40,360,-2096,-11,65,-4
14445,40,360,-2112,-12,65,-2
14450,48,344,-2104,-11,65,-4
14455,64,352,-2096,-12,64,-3
14460,48,368,-2088,-13,64,-4
14465,40,344,-2072,-13,65,-1
14470,64,368,-2104,-14,66,-3
14475,48,336,-2088,-14,64,0
14480,48,360,-2080,-14,65,-4
14485,72,344,-2104,-14,65,-2
14490,64,336,-2104,-14,65,-5
14495,48,336,-2088,-13,65,-3
14500,40,360,-2088,-13,64,-5
14505,48,344,-2088,-12,63,-3
14510,64,336,-2096,-12,64,-5
14515,32,360,-2104,-13,64,-1
14520,48,344,-2096,-14,63,-5
14525,40,352,-2104,-13,62,-3
14530,40,368,-2104,-14,61,-4
14535,48,336,-2072,-14,63,-3
14540,72,344,-2088,-15,64,-5
14545,64,368,-2080,-15,63,-3
14550,48,352,-2104,-13,63,-4
14555,64,360,-2088,-12,63,-3
14560,56,360,-2080,-12,63,-4
14565,32,344,-2088,-11,61,-3
14570,40,368,-2112,-12,63,-5
14575,56,336,-2080,-10,63,-3
14580,40,368,-2064,-10,63,-3
14585,56,360,-2088,-11,64,-3
14590,24,360,-2088,-11,64,-4
14595,64,368,-2056,-12,64,-4
14600,80,336,-2120,-12,65,-4
14605,72,360,-2080,-12,64,-4
14610,56,352,-2120,-12,65,-4
14615,72,344,-2112,-11,65,-3
14620,24,360,-2088,-10,66,-5
14625,48,360,-2104,-12,67,-3
14630,64,336,-2080,-14,67,-6
14635,48,352,-2088,-13,67,-3
14640,40,352,-2080,-13,68,-3
14645,48,360,-2104,-12,70,-3
14650,56,344,-2112,-13,69,-3
14655,56,368,-2112,-12,68,-3
14660,56,336,-2104,-11,69,-3
14665,64,344,-2072,-10,67,-3
14670,64,344,-2096,-10,69,-4
14675,40,352,-2112,-11,70,-3
14680,48,328,-2072,-14,71,-4
14685,56,368,-2048,-17,69,-3
14690,40,352,-2088,-20,69,-3
14695,80,336,-2064,-19,69,-2
14700,64,344,-2112,-17,68,-2
14705,40,368,-2136,-13,68,-4
14710,40,360,-2144,-12,68,-3
14715,40,368,-2096,-12,68,-3
14720,48,360,-2128,-12,70,-4
14725,48,368,-2104,-11,72,-4
14730,48,336,-2080,-9,72,-4
14735,56,344,-2088,-10,72,-3
14740,48,352,-2088,-9,73,-4
14745,80,344,-2104,-10,73,-4
14750,56,368,-2120,-10,73,-3
14755,48,376,-2088,-10,72,-3
14760,64,344,-2096,-10,71,-1
14765,80,336,-2112,-11,70,-4
14770,64,352,-2104,-11,71,-4
14775,56,368,-2104,-10,71,-4
14780,24,352,-2080,-11,70,-4
14785,56,344,-2072,-11,71,-2
14790,32,368,-2080,-11,72,-3
14795,56,360,-2104,-10,71,-5
14800,56,344,-2104,-12,70,-2
14805,56,344,-2088,-11,69,-4
14810,40,368,-2096,-10,71,-2
14815,80,352,-2072,-10,70,-4
14820,32,360,-2104,-11,70,-1
14825,72,352,-2088,-10,72,-3
14830,72,344,-2080,-9,70,-2
14835,64,336,-2080,-10,69,-3
14840,40,344,-2088,-9,69,-2
14845,80,344,-2096,-9,69,-3
14850,80,344,-2072,-8,69,-2
14855,72,344,-2088,-9,70,-4
14860,64,344,-2088,-9,70,-2
14865,72,328,-2096,-10,69,-4
14870,80,352,-2096,-11,68,-2
14875,72,344,-2120,-11,68,-4
14880,64,344,-2072,-10,70,-3
14885,64,352,-2072,-11,69,-4
14890,80,344,-2104,-11,69,-1
14895,56,344,-2088,-10,69,-4
14900,64,344,-2096,-10,70,-1
14905,56,336,-2112,-12,68,-4
14910,40,360,-2112,-13,67,-2
14915,40,344,-2080,-12,68,-5
14920,40,328,-2104,-13,70,-2
14925,56,360,-2088,-16,71,-4
14930,64,352,-2096,-13,69,-2
14935,-24,304,-2064,-13,66,-4
14940,64,368,-2104,-12,67,-2
14945,72,360,-2104,-12,65,-3
14950,56,360,-2112,-12,65,-3
14955,64,360,-2080,-13,67,-5
14960,48,352,-2072,-15,66,-1
14965,64,336,-2104,-14,66,-4
14970,32,368,-2088,-16,63,-2
14975,48,344,-2080,-16,59,-5
14980,48,352,-2128,-15,61,-2
14985,56,344,-2104,-13,64,-5
14990,40,360,-2064,-13,67,-2
14995,56,336,-2072,-14,68,-4
