timestamp,accel_x,accel_y,accel_z,gyro_x,gyro_y,gyro_z
0,-80,-1968,-192,51,-63,5
5,-96,-1960,-224,51,-62,1
10,-96,-1952,-240,48,-61,-4
15,-88,-1944,-216,47,-60,-9
20,-80,-1920,-208,44,-57,-15
25,-72,-1920,-192,38,-55,-21
30,-72,-1928,-200,34,-51,-25
35,-72,-1944,-184,33,-47,-29
40,-72,-1952,-192,35,-47,-29
45,-80,-1984,-232,37,-48,-31
50,-56,-1984,-200,38,-53,-35
55,-64,-1976,-192,39,-58,-39
60,-72,-1992,-208,36,-65,-45
65,-32,-1984,-176,33,-71,-48
70,-40,-1992,-208,30,-71,-53
75,-56,-1960,-184,28,-69,-57
80,-32,-1976,-160,26,-67,-63
85,-80,-1992,-192,23,-67,-68
90,-64,-1976,-192,23,-71,-76
95,-48,-1992,-208,20,-74,-80
100,-56,-1968,-224,16,-78,-86
105,-64,-2000,-200,9,-79,-90
110,-56,-1992,-240,2,-79,-94
115,-64,-2016,-192,-7,-77,-95
120,-56,-2008,-208,-14,-76,-94
125,-32,-2016,-176,-18,-73,-90
130,8,-2056,-128,-20,-65,-87
135,0,-2040,-128,-20,-58,-86
140,-8,-2040,-120,-19,-50,-87
145,0,-2056,-120,-16,-44,-86
150,-8,-2072,-112,-11,-38,-87
155,8,-2080,-88,-2,-31,-90
160,16,-2104,-112,10,-27,-92
165,0,-2088,-80,28,-25,-97
170,16,-2080,-104,47,-23,-101
175,24,-2080,-72,69,-21,-104
180,24,-2064,-120,88,-18,-106
185,40,-2056,-64,106,-14,-105
190,32,-2048,-72,124,-11,-104
195,48,-2008,-56,140,-9,-101
200,48,-2016,-40,157,-5,-98
205,24,-2000,-48,170,-4,-94
210,8,-1960,-64,184,-2,-88
215,0,-1960,-80,197,1,-77
220,0,-1904,0,211,3,-64
225,-56,-1904,-24,238,6,-39
230,-56,-1936,-32,253,10,-21
235,-40,-1928,-32,253,13,-11
240,-80,-1880,0,251,18,5
245,-88,-1864,-56,245,15,24
250,-96,-1896,-24,235,12,38
255,-112,-1888,24,219,7,52
260,-96,-1904,8,199,-1,63
265,-120,-1920,0,182,-9,73
270,-88,-1976,16,169,-15,82
275,-88,-2016,32,168,-22,95
280,-72,-2024,8,179,-26,110
285,-16,-2032,40,202,-26,124
290,16,-2040,-32,229,-22,137
295,40,-2048,8,253,-13,145
300,80,-2000,16,270,-1,153
305,112,-2032,32,279,13,160
310,136,-2008,8,284,31,163
315,144,-1992,40,283,50,165
320,152,-1992,40,283,71,164
325,120,-2000,16,278,92,165
330,168,-2008,-8,274,114,170
335,88,-2016,-16,270,137,177
340,64,-1992,-48,268,163,188
345,24,-2000,-64,267,188,204
350,40,-2032,-8,261,206,218
355,-24,-1856,24,256,223,232
360,-16,-2032,-80,253,234,246
365,-48,-2000,-104,253,246,258
370,-56,-1992,-112,259,255,269
375,-56,-1968,-168,270,262,282
380,-96,-1944,-128,281,265,293
385,-96,-1976,-216,295,265,298
390,-144,-1936,-248,305,260,302
395,-184,-1920,-256,317,256,300
400,-200,-1880,-296,327,248,292
405,-176,-1872,-280,340,237,281
410,-200,-1856,-288,351,230,268
415,-216,-1808,-264,363,227,251
420,-248,-1784,-152,374,225,236
425,-256,-1744,-120,381,224,217
430,-264,-1736,-72,385,223,196
435,-344,-1680,-32,382,217,173
440,-336,-1680,-8,367,210,151
445,-392,-1656,32,340,200,131
450,-400,-1656,48,296,191,111
455,-392,-1696,64,239,188,99
460,-368,-1752,112,170,191,92
465,-392,-1848,128,95,202,87
470,-352,-1968,184,23,217,90
475,-368,-2032,168,-31,232,101
480,-256,-2176,160,-63,242,117
485,-272,-2256,248,-83,258,126
490,-248,-2296,288,-70,271,135
495,-240,-2360,320,-41,287,146
500,-248,-2376,320,3,305,158
505,-272,-2376,312,57,321,165
510,-256,-2336,192,122,337,172
515,-312,-2344,160,168,349,185
520,-320,-2320,128,196,363,212
525,-320,-2272,152,215,380,239
530,-304,-2208,120,227,394,263
535,-328,-2184,136,242,409,288
540,-328,-2152,112,263,422,310
545,-328,-2104,104,280,432,324
550,-320,-2040,160,291,442,331
555,-312,-1968,104,301,451,337
560,-344,-1912,104,311,463,334
565,-400,-1824,104,300,470,328
570,-368,-1856,144,285,479,342
575,-392,-1784,136,275,482,349
580,-408,-1744,144,264,483,353
585,-432,-1712,96,245,477,354
590,-416,-1728,88,206,473,359
595,-432,-1768,104,167,468,368
600,-416,-1800,168,129,473,376
605,-392,-1824,216,122,465,378
610,-432,-1864,256,136,457,374
615,-400,-1896,248,150,448,361
620,-408,-1832,272,162,438,348
625,-408,-1840,288,174,428,331
630,-400,-1824,256,186,420,316
635,-376,-1824,232,195,411,307
640,-360,-1776,216,200,403,291
645,-400,-1792,224,201,397,277
650,-400,-1752,192,191,390,268
655,-376,-1752,208,171,382,260
660,-376,-1752,232,148,375,250
665,-408,-1728,240,129,367,240
670,-392,-1744,232,115,362,228
675,-392,-1760,240,106,359,215
680,-392,-1776,248,101,358,205
685,-376,-1776,272,95,356,194
690,-376,-1808,264,87,354,184
695,-336,-1840,304,79,353,176
700,-360,-1824,264,75,352,165
705,-352,-1872,264,72,350,155
710,-368,-1840,248,77,344,145
715,-344,-1848,272,86,340,135
720,-336,-1848,264,97,338,125
725,-352,-1840,240,105,337,115
730,-360,-1824,280,110,338,102
735,-400,-1816,256,114,337,91
740,-376,-1816,216,113,335,79
745,-400,-1832,248,102,330,61
750,-424,-1800,280,93,325,42
755,-448,-1816,264,89,319,31
760,-440,-1824,280,91,310,21
765,-432,-1832,264,92,302,15
770,-432,-1848,320,93,295,9
775,-456,-1864,304,94,291,3
780,-480,-1896,320,102,288,-4
785,-488,-1904,320,113,285,-7
790,-448,-1880,368,131,283,-15
795,-568,-1856,264,159,281,-32
800,-440,-1896,336,158,260,-27
805,-408,-1904,280,149,254,-29
810,-424,-1904,280,143,251,-37
815,-392,-1888,304,152,251,-46
820,-408,-1880,320,169,253,-53
825,-368,-1808,336,183,256,-62
830,-400,-1784,320,196,262,-70
835,-400,-1760,312,203,266,-77
840,-360,-1760,256,199,268,-84
845,-368,-1720,256,183,271,-91
850,-352,-1744,272,158,278,-95
855,-344,-1784,280,132,289,-100
860,-344,-1792,248,110,297,-104
865,-384,-1800,216,88,305,-106
870,-360,-1864,264,69,311,-108
875,-368,-1872,272,51,319,-113
880,-424,-1880,288,42,327,-117
885,-400,-1968,320,36,334,-118
890,-384,-1992,336,34,342,-119
895,-400,-2000,368,37,352,-118
900,-376,-1992,408,44,363,-122
905,-400,-2024,352,59,373,-123
910,-400,-2016,336,75,384,-121
915,-448,-1992,368,91,394,-115
920,-448,-1960,376,100,406,-107
925,-456,-1968,392,102,418,-93
930,-432,-1936,408,102,429,-78
935,-448,-1952,448,98,438,-55
940,-440,-1936,480,92,449,-32
945,-448,-1952,512,80,459,-8
950,-448,-1944,520,73,470,19
955,-456,-1952,512,71,483,38
960,-480,-1944,528,70,492,54
965,-520,-1952,464,71,495,67
970,-592,-1968,360,64,494,78
975,-632,-2040,296,46,490,86
980,-712,-2088,272,13,483,93
985,-816,-2176,256,-29,477,103
990,-840,-2312,312,-69,467,125
995,-888,-2424,328,-106,449,155
1000,-920,-2480,408,-136,426,183
1005,-920,-2552,464,-154,398,208
1010,-920,-2576,552,-150,364,227
1015,-912,-2568,568,-125,332,239
1020,-832,-2560,536,-82,306,246
1025,-760,-2552,568,-30,285,244
1030,-696,-2496,544,33,267,235
1035,-640,-2432,528,98,252,216
1040,-552,-2352,528,165,240,193
1045,-520,-2344,520,228,227,167
1050,-504,-2272,480,282,217,135
1055,-480,-2224,392,323,208,98
1060,-552,-2136,304,357,198,49
1065,-656,-2048,136,382,186,-4
1070,-696,-2032,-104,381,172,-57
1075,-776,-2008,-232,353,155,-114
1080,-840,-2024,-336,313,135,-165
1085,-880,-2064,-440,270,117,-202
1090,-936,-2088,-464,233,97,-231
1095,-912,-2096,-528,219,64,-249
1100,-928,-2096,-544,225,13,-247
1105,-896,-2080,-624,243,-41,-230
1110,-824,-2096,-672,278,-89,-204
1115,-672,-2072,-688,318,-127,-164
1120,-528,-2056,-656,356,-154,-125
1125,-376,-2016,-624,388,-174,-96
1130,-248,-2024,-568,406,-179,-72
1135,-176,-2032,-512,404,-181,-70
1140,-96,-2088,-480,385,-186,-85
1145,-40,-2144,-424,343,-197,-109
1150,-32,-2200,-336,304,-216,-142
1155,24,-2224,-288,292,-248,-174
1160,72,-2264,-224,300,-280,-206
1165,80,-2288,-264,314,-309,-239
1170,56,-2288,-224,311,-335,-274
1175,16,-2296,-224,294,-360,-316
1180,-32,-2240,-224,262,-385,-358
1185,-104,-2192,-208,234,-408,-390
1190,-224,-2168,-192,214,-433,-411
1195,-192,-2160,-152,189,-457,-430
1200,-176,-2120,-104,160,-478,-457
1205,-208,-2120,-144,139,-500,-496
1210,-280,-2120,-112,110,-522,-524
1215,-312,-2112,-120,83,-541,-549
1220,-344,-2104,-72,75,-564,-565
1225,-384,-2096,-16,79,-592,-580
1230,-384,-2088,8,108,-613,-591
1235,-360,-2112,0,170,-629,-590
1240,-344,-2136,-40,232,-641,-588
1245,-328,-2144,-56,282,-656,-597
1250,-312,-2120,-96,307,-678,-612
1255,-280,-2048,-56,324,-703,-622
1260,-264,-1968,-88,351,-736,-620
1265,-232,-1912,-32,364,-759,-617
1270,-216,-1856,-80,372,-772,-615
1275,-120,-1792,-72,356,-785,-627
1280,-168,-1656,-24,349,-794,-643
1285,-144,-1544,-8,349,-804,-645
1290,-104,-1520,-48,325,-809,-647
1295,-40,-1496,-56,290,-811,-645
1300,8,-1408,-96,239,-827,-662
1305,0,-1448,-88,178,-834,-676
1310,16,-1552,-104,105,-839,-670
1315,8,-1464,-40,46,-837,-670
1320,-40,-1448,-64,7,-842,-678
1325,-56,-1480,-40,-33,-838,-667
1330,-72,-1448,40,-58,-840,-651
1335,-104,-1408,48,-55,-852,-631
1340,-96,-1424,-24,-38,-865,-596
1345,8,-1600,-48,-81,-860,-580
1350,-24,-1680,64,-168,-866,-602
1355,-16,-1704,176,-225,-878,-613
1360,-24,-1664,192,-226,-876,-604
1365,-32,-1624,168,-209,-861,-586
1370,-8,-1600,112,-201,-845,-560
1375,8,-1608,192,-202,-829,-528
1380,40,-1624,176,-207,-817,-489
1385,64,-1576,176,-206,-807,-452
1390,96,-1592,160,-205,-796,-417
1395,128,-1512,160,-203,-778,-386
1400,136,-1496,144,-197,-760,-352
1405,264,-1440,160,-195,-738,-304
1410,280,-1352,136,-186,-716,-280
1415,240,-1288,56,-177,-703,-264
1420,264,-1256,64,-198,-689,-229
1425,288,-1304,48,-239,-668,-183
1430,288,-1376,112,-286,-642,-144
1435,288,-1424,136,-318,-618,-108
1440,280,-1472,280,-335,-596,-72
1445,336,-1520,384,-340,-577,-37
1450,224,-1592,328,-321,-565,-23
1455,152,-1656,416,-314,-546,13
1460,120,-1696,560,-276,-538,59
1465,136,-1824,488,-214,-546,99
1470,8,-1840,560,-178,-541,112
1475,8,-1880,584,-123,-538,147
1480,40,-1920,576,-56,-539,177
1485,-48,-1920,648,18,-543,184
1490,-120,-1888,616,104,-555,200
1495,-136,-1912,536,176,-578,216
1500,-184,-1856,464,229,-601,225
1505,-200,-1848,392,263,-623,228
1510,-120,-1856,288,274,-643,228
1515,-120,-1840,192,267,-658,214
1520,-72,-1872,104,243,-664,206
1525,-88,-1928,72,200,-663,198
1530,48,-2040,56,119,-655,210
1535,104,-2144,168,30,-645,199
1540,184,-2232,264,-31,-638,166
1545,200,-2280,256,-59,-634,125
1550,264,-2360,296,-85,-631,79
1555,280,-2416,320,-115,-631,12
1560,240,-2480,392,-145,-623,-49
1565,264,-2512,416,-164,-606,-103
1570,336,-2520,504,-160,-595,-146
1575,392,-2496,552,-153,-584,-175
1580,336,-2424,584,-138,-574,-201
1585,288,-2376,592,-105,-571,-218
1590,264,-2368,648,-65,-576,-227
1595,240,-2344,616,-28,-580,-226
1600,208,-2336,648,-15,-588,-224
1605,160,-2312,704,-30,-597,-215
1610,168,-2264,832,-42,-608,-203
1615,184,-2200,824,-19,-625,-197
1620,208,-2128,816,-2,-651,-194
1625,256,-2048,664,-8,-685,-194
1630,392,-2008,552,-47,-721,-186
1635,496,-2048,336,-108,-752,-173
1640,608,-2256,120,-190,-784,-156
1645,800,-2448,16,-288,-807,-151
1650,792,-2768,-24,-384,-801,-180
1655,760,-3032,0,-458,-759,-217
1660,720,-3216,80,-464,-683,-249
1665,624,-3272,120,-365,-589,-279
1670,544,-3272,72,-220,-484,-298
1675,496,-3232,56,-41,-380,-296
1680,488,-3200,0,173,-285,-266
1685,352,-2968,-56,416,-202,-222
1690,296,-2704,-208,661,-130,-153
1695,304,-2472,-336,855,-67,-69
1700,232,-2200,-464,978,-5,-8
1705,104,-2032,-608,996,33,19
1710,24,-2016,-696,907,27,11
1715,8,-1992,-776,756,-11,-18
1720,-112,-1976,-816,628,-53,-77
1725,-288,-1928,-784,560,-90,-144
1730,-424,-1904,-728,550,-124,-211
1735,-528,-1824,-656,556,-173,-264
1740,-544,-1760,-624,550,-219,-285
1745,-560,-1632,-592,542,-236,-279
1750,-536,-1560,-576,529,-212,-252
1755,-520,-1568,-528,487,-158,-201
1760,-504,-1672,-464,412,-90,-138
1765,-448,-1752,-384,301,-32,-70
1770,-400,-1872,-304,166,8,-1
1775,-312,-2032,-232,38,34,64
1780,-184,-2192,-112,-74,59,132
1785,-88,-2304,-80,-132,88,184
1790,16,-2360,-16,-126,117,206
1795,56,-2456,8,-66,156,218
1800,120,-2544,72,35,204,226
1805,128,-2552,72,157,258,228
1810,88,-2528,48,258,313,241
1815,88,-2488,96,317,360,270
1820,80,-2416,144,367,404,300
1825,64,-2312,96,416,448,329
1830,0,-2200,48,458,492,366
1835,8,-2112,16,496,544,411
1840,-64,-2024,8,524,589,451
1845,-80,-1920,-80,537,630,488
1850,-96,-1832,-112,533,666,519
1855,-16,-1736,-120,532,696,533
1860,-40,-1640,-232,537,725,519
1865,-40,-1544,-240,505,747,501
1870,-64,-1464,-200,444,770,485
1875,-64,-1400,-200,371,792,480
1880,-64,-1376,-232,290,819,494
1885,-16,-1400,-224,202,852,508
1890,-64,-1424,-200,108,874,513
1895,-72,-1440,-152,27,892,509
1900,-144,-1456,-40,-37,897,500
1905,-128,-1472,-48,-63,896,489
1910,-152,-1488,-72,-92,883,478
1915,-192,-1496,16,-127,874,460
1920,-232,-1504,40,-145,863,449
1925,-288,-1544,64,-169,848,445
1930,-296,-1608,80,-193,844,449
1935,-304,-1656,112,-206,839,454
1940,-368,-1720,176,-217,829,457
1945,-392,-1720,248,-205,815,458
1950,-400,-1664,288,-140,791,455
1955,-384,-1664,192,-51,759,448
1960,-376,-1648,176,-5,725,435
1965,-368,-1648,144,7,697,417
1970,-352,-1640,168,2,675,407
1975,-376,-1616,184,-8,655,399
1980,-344,-1576,224,-33,626,378
1985,-344,-1584,192,-58,591,346
1990,-432,-1600,112,-87,558,314
1995,-344,-1576,248,-129,526,283
2000,-312,-1464,360,-92,487,239
2005,-312,-1400,256,16,463,212
2010,-296,-1400,216,91,442,185
2015,-328,-1400,184,110,421,163
2020,-280,-1392,152,93,393,144
2025,-280,-1368,144,63,368,113
2030,-280,-1360,208,20,348,61
2035,-280,-1392,256,-23,329,13
2040,-288,-1448,360,-59,309,-33
2045,-296,-1472,432,-75,286,-74
2050,-240,-1512,464,-69,266,-112
2055,-248,-1552,512,-45,246,-152
2060,-272,-1552,576,-2,224,-192
2065,-256,-1592,584,38,201,-234
2070,-232,-1632,560,80,184,-269
2075,-224,-1656,528,123,167,-305
2080,-208,-1656,536,161,156,-336
2085,-168,-1664,504,193,150,-358
2090,-168,-1688,464,214,149,-378
2095,-160,-1720,456,222,149,-398
2100,-160,-1752,440,224,149,-412
2105,-136,-1744,384,217,153,-419
2110,-176,-1776,368,205,157,-423
2115,-208,-1776,352,178,170,-419
2120,-160,-1776,360,139,179,-410
2125,-248,-1808,248,101,182,-393
2130,-320,-1824,168,54,197,-370
2135,-352,-1864,152,-10,220,-334
2140,-344,-1944,160,-84,238,-292
2145,-384,-2016,176,-156,251,-241
2150,-344,-2128,240,-221,269,-182
2155,-280,-2256,328,-282,290,-116
2160,-272,-2360,448,-328,314,-57
2165,-256,-2520,528,-354,330,0
2170,-192,-2648,600,-371,344,59
2175,-216,-2704,680,-365,368,108
2180,-216,-2736,808,-338,395,154
2185,-200,-2696,864,-290,418,196
2190,-152,-2616,896,-214,443,227
2195,-128,-2560,864,-127,461,243
2200,-80,-2504,848,-76,490,258
2205,-64,-2440,848,-53,534,262
2210,-104,-2296,768,-44,573,252
2215,-200,-2208,608,-48,608,231
2220,-344,-2112,464,-63,638,206
2225,-536,-2112,200,-93,673,179
2230,-736,-2232,64,-151,704,170
2235,-872,-2456,72,-228,716,188
2240,-920,-2664,64,-304,709,231
2245,-968,-2856,128,-370,680,288
2250,-1048,-3032,288,-411,624,343
2255,-1144,-3200,360,-411,544,403
2260,-1272,-3288,400,-362,444,465
2265,-1288,-3280,400,-247,324,514
2270,-1288,-3168,304,-68,198,537
2275,-1304,-2952,144,162,76,518
2280,-1200,-2600,-72,410,-41,461
2285,-1048,-2280,-344,619,-147,374
2290,-1104,-2072,-496,752,-233,286
2295,-1072,-1992,-768,810,-301,246
2300,-1008,-1944,-904,799,-344,238
2305,-632,-1856,-920,767,-379,246
2310,-376,-1824,-872,758,-401,261
2315,-112,-1784,-864,764,-409,286
2320,160,-1808,-776,748,-396,296
2325,272,-1784,-688,700,-376,280
2330,360,-1744,-576,628,-355,265
2335,416,-1840,-488,530,-326,244
2340,360,-1840,-432,410,-297,206
2345,280,-1896,-320,291,-282,148
2350,200,-1944,-288,186,-284,76
2355,96,-2048,-296,109,-306,-8
2360,8,-2200,-328,58,-336,-92
2365,-104,-2264,-304,29,-369,-174
2370,-232,-2344,-320,32,-401,-244
2375,-328,-2416,-304,67,-439,-286
2380,-384,-2440,-280,110,-479,-310
2385,-424,-2424,-208,146,-525,-325
2390,-496,-2392,-152,167,-579,-328
2395,-512,-2368,-64,166,-645,-319
2400,-536,-2336,-8,158,-715,-312
2405,-520,-2296,8,156,-792,-307
2410,-496,-2296,-8,153,-870,-319
2415,-480,-2208,-64,140,-942,-356
2420,-448,-2088,-24,133,-1004,-392
2425,-400,-2032,-80,164,-1051,-429
2430,-408,-1936,-144,212,-1090,-454
2435,-336,-1912,-216,244,-1129,-479
2440,-352,-1824,-160,253,-1155,-513
2445,-320,-1744,-160,261,-1173,-536
2450,-312,-1680,-160,272,-1182,-541
2455,-304,-1640,-160,270,-1185,-535
2460,-256,-1600,-120,269,-1189,-515
2465,-256,-1544,-104,287,-1195,-495
2470,-232,-1496,-80,310,-1211,-480
2475,-216,-1424,-112,331,-1239,-467
2480,-176,-1392,-160,315,-1261,-458
2485,-96,-1448,-176,242,-1288,-436
2490,-72,-1464,-136,164,-1300,-439
2495,8,-1512,-112,100,-1318,-438
2500,80,-1488,-40,56,-1333,-431
2505,104,-1440,8,41,-1335,-440
2510,168,-1496,0,38,-1327,-437
2515,176,-1680,-8,-1,-1313,-459
2520,200,-1776,8,-72,-1307,-495
2525,208,-1736,232,-129,-1298,-523
2530,208,-1736,176,-89,-1274,-545
2535,160,-1720,208,-57,-1240,-544
2540,128,-1720,224,-12,-1210,-528
2545,64,-1712,200,27,-1184,-508
2550,160,-1680,304,32,-1171,-484
2555,96,-1640,272,48,-1156,-463
2560,96,-1560,240,83,-1140,-453
2565,16,-1464,248,110,-1126,-443
2570,40,-1392,216,131,-1112,-404
2575,64,-1328,88,129,-1092,-368
2580,80,-1272,112,103,-1062,-327
2585,208,-1288,64,58,-1030,-289
2590,120,-1232,96,6,-991,-267
2595,216,-1288,112,-36,-953,-217
2600,272,-1264,216,-74,-907,-168
2605,288,-1256,200,-57,-852,-137
2610,320,-1240,264,-22,-809,-114
2615,280,-1240,288,17,-772,-91
2620,240,-1288,304,38,-735,-52
2625,272,-1336,256,31,-701,-8
2630,296,-1424,264,4,-669,38
2635,232,-1448,312,-31,-640,69
2640,192,-1512,464,-64,-617,103
2645,168,-1576,408,-64,-601,138
2650,104,-1616,464,-77,-587,157
2655,80,-1672,560,-92,-569,171
2660,64,-1712,584,-86,-561,190
2665,32,-1736,592,-67,-557,212
2670,64,-1816,560,-46,-558,230
2675,-24,-1792,584,-23,-571,242
2680,16,-1792,512,-3,-595,259
2685,-104,-1824,496,0,-622,249
2690,-40,-1832,400,-4,-651,254
2695,-128,-1856,392,-27,-685,238
2700,-136,-1888,288,-37,-718,222
2705,-176,-1904,232,-52,-747,198
2710,-200,-2040,200,-80,-774,183
2715,-352,-2128,320,-135,-796,150
2720,-288,-2256,360,-199,-804,122
2725,-328,-2408,400,-247,-825,101
2730,-128,-2616,400,-309,-852,81
2735,-104,-2720,480,-352,-874,44
2740,-64,-2792,520,-354,-897,-21
2745,0,-2752,536,-316,-922,-101
2750,32,-2672,544,-261,-943,-174
2755,144,-2560,584,-206,-957,-233
2760,184,-2480,632,-146,-966,-271
2765,264,-2344,560,-88,-967,-291
2770,248,-2272,704,-38,-965,-300
2775,272,-2176,704,-8,-963,-302
2780,328,-2088,680,-4,-964,-300
2785,416,-2040,680,-18,-966,-300
2790,448,-1984,648,-49,-968,-299
2795,488,-1936,520,-82,-968,-284
2800,552,-1984,408,-138,-955,-256
2805,648,-2056,288,-205,-941,-253
2810,784,-2264,232,-270,-923,-261
2815,840,-2440,168,-344,-890,-278
2820,872,-2720,200,-423,-845,-301
2825,864,-3016,152,-499,-788,-337
2830,824,-3208,256,-561,-709,-374
2835,832,-3384,264,-576,-616,-417
2840,816,-3448,280,-522,-523,-462
2845,728,-3464,264,-380,-433,-477
2850,576,-3360,264,-147,-336,-456
2855,344,-3072,288,165,-247,-409
2860,88,-2824,128,497,-186,-339
2865,-8,-2576,80,758,-145,-238
2870,-8,-2296,-112,954,-141,-146
2875,24,-2128,-432,1034,-132,-78
2880,16,-2024,-632,1015,-107,-39
2885,8,-1960,-904,954,-91,-22
2890,0,-1928,-1024,861,-98,-25
2895,-104,-1840,-1144,758,-110,-57
2900,-96,-1704,-1160,642,-120,-104
2905,-104,-1600,-1144,514,-126,-165
2910,-88,-1552,-1128,369,-116,-211
2915,-128,-1552,-968,215,-75,-225
2920,-104,-1632,-784,73,-7,-216
2925,-152,-1736,-584,-61,64,-194
2930,-176,-1880,-376,-227,123,-145
2935,-208,-2048,-272,-395,170,-81
2940,-208,-2264,-152,-537,204,-8
2945,-216,-2504,-8,-606,241,75
2950,-224,-2648,72,-587,284,157
2955,-192,-2744,144,-480,327,227
2960,-192,-2752,184,-310,365,285
2965,-192,-2800,200,-119,396,333
2970,-176,-2752,176,57,423,383
2975,-184,-2680,144,208,447,429
2980,-56,-2552,-24,313,467,469
2985,-88,-2568,64,360,471,493
2990,-24,-2456,112,400,476,517
2995,-32,-2320,88,458,500,536
3000,-8,-2128,32,526,524,564
3005,0,-2024,-16,570,539,578
3010,8,-1912,-96,582,540,578
3015,0,-1808,-168,574,541,582
3020,0,-1712,-192,555,535,580
3025,0,-1592,-184,529,530,574
3030,-8,-1528,-264,500,533,568
3035,16,-1456,-240,450,542,570
3040,8,-1392,-152,389,549,561
3045,0,-1320,-160,340,556,548
3050,-8,-1312,-232,281,559,550
3055,-88,-1248,-96,207,567,547
3060,-48,-1224,-64,170,572,535
3065,-136,-1240,-104,141,566,530
3070,-208,-1232,-24,94,566,523
3075,-256,-1336,-32,32,559,524
3080,-264,-1376,8,-48,549,518
3085,-344,-1368,-24,-119,536,503
3090,-368,-1456,88,-196,514,504
3095,-304,-1504,128,-252,502,523
3100,-288,-1512,144,-287,488,533
3105,-296,-1480,176,-309,483,532
3110,-296,-1512,200,-317,482,518
3115,-296,-1552,224,-331,471,507
3120,-296,-1568,296,-360,460,501
3125,-248,-1576,304,-356,449,488
3130,-216,-1592,264,-330,430,472
3135,-184,-1640,192,-309,416,456
3140,-168,-1608,192,-290,405,434
3145,-152,-1576,208,-276,390,402
3150,-120,-1544,232,-271,378,372
3155,-96,-1504,224,-271,372,344
3160,-56,-1432,256,-275,371,306
3165,-88,-1384,296,-271,368,262
3170,-248,-1344,240,-264,354,225
3175,-128,-1416,208,-260,334,213
3180,-136,-1448,216,-273,321,193
3185,-160,-1512,256,-287,319,166
3190,-152,-1544,240,-288,317,136
3195,-152,-1584,280,-275,308,106
3200,-184,-1528,296,-256,305,76
3205,-176,-1584,336,-229,302,43
3210,-184,-1568,416,-192,300,9
3215,-184,-1616,472,-158,295,-30
3220,-168,-1632,496,-120,292,-74
3225,-168,-1608,512,-80,287,-120
3230,-152,-1648,536,-44,284,-164
3235,-184,-1632,552,-14,283,-204
3240,-192,-1640,512,12,281,-248
3245,-216,-1648,512,34,275,-287
3250,-224,-1696,472,55,268,-321
3255,-256,-1696,448,75,262,-357
3260,-264,-1744,488,91,255,-384
3265,-280,-1744,440,110,249,-406
3270,-296,-1784,440,126,245,-423
3275,-288,-1856,440,139,246,-430
3280,-328,-1864,416,145,247,-429
3285,-312,-1944,344,145,247,-419
3290,-360,-1992,248,137,251,-407
3295,-416,-2008,184,117,256,-391
3300,-416,-2032,176,83,259,-365
3305,-392,-2072,96,45,255,-326
3310,-344,-2176,64,4,254,-268
3315,-376,-2224,56,-46,260,-199
3320,-384,-2304,120,-109,270,-122
3325,-400,-2440,264,-181,276,-44
3330,-432,-2504,424,-245,275,24
3335,-488,-2584,568,-286,270,84
3340,-496,-2592,672,-296,270,142
3345,-480,-2648,792,-276,275,200
3350,-440,-2624,936,-239,278,241
3355,-440,-2560,1000,-177,276,263
3360,-384,-2464,1016,-99,274,274
3365,-352,-2408,1016,-33,278,273
3370,-336,-2256,936,16,286,267
3375,-296,-2160,840,49,300,257
3380,-320,-2080,648,50,330,251
3385,-408,-2016,472,8,375,249
3390,-488,-2040,360,-68,428,260
3395,-648,-2120,208,-169,472,279
3400,-736,-2360,176,-281,502,313
3405,-808,-2632,248,-381,512,352
3410,-848,-2920,80,-457,501,398
3415,-976,-3120,248,-500,459,451
3420,-1088,-3320,192,-492,388,493
3425,-1288,-3400,120,-410,288,512
3430,-1344,-3280,72,-242,170,505
3435,-1136,-3120,-16,1,39,473
3440,-1048,-2752,-208,270,-84,380
3445,-1160,-2496,-440,503,-191,272
3450,-1248,-2320,-648,647,-286,185
3455,-1256,-2200,-800,709,-379,126
3460,-1136,-2080,-936,727,-463,91
3465,-816,-2008,-1000,734,-531,72
3470,-576,-1912,-1016,729,-578,64
3475,-432,-1864,-920,728,-591,89
3480,-40,-1896,-856,735,-588,149
3485,40,-1912,-736,726,-573,181
3490,152,-1936,-592,697,-544,212
3495,264,-1992,-432,651,-504,240
3500,368,-2008,-264,602,-476,236
3505,384,-2016,-200,548,-466,190
3510,360,-1976,-200,480,-473,110
3515,352,-1984,-192,395,-496,15
3520,240,-1976,-248,299,-526,-86
3525,88,-2032,-320,208,-562,-184
3530,0,-2040,-376,125,-603,-270
3535,-200,-2104,-392,60,-654,-335
3540,-336,-2152,-432,21,-706,-376
3545,-464,-2192,-400,-1,-757,-382
3550,-544,-2176,-312,-8,-809,-350
3555,-472,-2296,-336,-8,-864,-311
3560,-616,-2232,-272,-20,-917,-271
3565,-512,-2376,-96,-41,-974,-253
3570,-504,-2312,48,-46,-1051,-270
3575,-408,-2184,184,-39,-1126,-306
3580,-456,-2152,24,-2,-1201,-353
3585,-408,-2168,-72,75,-1272,-400
3590,-416,-2136,8,143,-1335,-455
3595,-400,-1920,-176,191,-1393,-517
3600,-440,-1840,-240,213,-1438,-564
3605,-368,-1712,-216,231,-1467,-587
3610,-376,-1648,-360,241,-1478,-570
3615,-256,-1728,-376,237,-1478,-536
3620,-272,-1552,-296,221,-1481,-514
3625,-128,-1520,-256,186,-1479,-475
3630,-112,-1432,-216,175,-1478,-470
3635,-144,-1400,-216,171,-1484,-470
3640,-112,-1432,-168,159,-1493,-451
3645,-72,-1496,-144,133,-1509,-430
3650,32,-1536,-112,128,-1521,-401
3655,0,-1464,-176,114,-1524,-397
3660,152,-1504,-128,77,-1534,-385
3665,168,-1480,-112,36,-1538,-390
3670,88,-1384,0,19,-1518,-400
3675,88,-1408,-40,36,-1491,-378
3680,288,-1640,-136,-12,-1468,-372
3685,176,-1712,-112,-119,-1476,-432
3690,168,-1864,-120,-229,-1480,-465
3695,144,-1888,-24,-342,-1461,-469
3700,120,-1856,8,-404,-1435,-466
3705,112,-1792,168,-407,-1412,-456
3710,80,-1712,192,-326,-1383,-449
3715,64,-1704,192,-233,-1362,-439
3720,64,-1648,152,-161,-1352,-426
3725,56,-1616,128,-102,-1341,-418
3730,72,-1576,56,-60,-1322,-390
3735,128,-1552,16,-54,-1283,-340
3740,176,-1544,-16,-69,-1228,-294
3745,200,-1504,40,-87,-1172,-249
3750,248,-1440,96,-82,-1122,-213
3755,296,-1392,160,-57,-1075,-187
3760,384,-1416,80,-27,-1025,-163
3765,328,-1392,192,-5,-974,-146
3770,352,-1408,144,16,-930,-102
3775,328,-1448,176,13,-890,-48
3780,360,-1512,224,-2,-846,9
3785,328,-1472,288,5,-803,38
3790,232,-1480,312,45,-778,49
3795,208,-1488,328,72,-761,73
3800,152,-1480,344,68,-751,110
3805,96,-1552,288,61,-748,153
3810,96,-1592,328,22,-730,182
3815,24,-1608,448,-31,-709,185
3820,24,-1592,456,-36,-698,194
3825,24,-1624,496,-17,-699,201
3830,-72,-1600,504,-6,-705,199
3835,-64,-1600,496,4,-716,210
3840,-32,-1640,448,1,-728,218
3845,-96,-1664,368,-15,-742,222
3850,-104,-1728,344,-40,-757,238
3855,-104,-1784,304,-68,-768,241
3860,-112,-1808,256,-88,-777,246
3865,-96,-1880,256,-104,-787,247
3870,-144,-1976,232,-118,-796,239
3875,-152,-2072,240,-128,-802,228
3880,-160,-2208,248,-140,-815,211
3885,-96,-2360,304,-159,-828,180
3890,-8,-2456,328,-175,-840,139
3895,16,-2536,400,-196,-851,82
3900,96,-2632,544,-221,-854,12
3905,208,-2664,552,-230,-852,-61
3910,384,-2680,600,-235,-861,-123
3915,472,-2672,672,-232,-861,-176
3920,512,-2664,712,-201,-853,-224
3925,456,-2560,688,-137,-843,-274
3930,464,-2424,640,-57,-827,-301
3935,424,-2304,696,3,-803,-305
3940,392,-2216,728,35,-772,-297
3945,384,-2104,784,44,-750,-282
3950,392,-2024,792,46,-736,-263
3955,352,-1912,784,31,-731,-240
3960,368,-1888,696,-11,-740,-210
3965,392,-1848,504,-62,-752,-186
3970,432,-1888,224,-128,-754,-160
3975,512,-2168,-48,-208,-735,-124
3980,536,-2584,-256,-322,-721,-145
3985,512,-2936,-320,-422,-690,-211
3990,552,-3328,-296,-502,-632,-280
3995,576,-3624,-280,-530,-562,-364
4000,512,-3784,-184,-479,-476,-437
4005,352,-3712,-48,-323,-379,-508
4010,120,-3512,16,-74,-289,-561
4015,-128,-3224,56,210,-235,-575
4020,-264,-2944,-24,456,-218,-543
4025,-352,-2680,-88,644,-214,-462
4030,-368,-2384,-160,826,-202,-368
4035,-392,-2256,-336,994,-218,-300
4040,-344,-2128,-672,1069,-246,-240
4045,-312,-2056,-856,1050,-270,-203
4050,-360,-1944,-1000,989,-288,-180
4055,-376,-1792,-1056,896,-302,-167
4060,-360,-1656,-1144,759,-314,-155
4065,-336,-1568,-1168,593,-326,-131
4070,-376,-1616,-1120,414,-322,-98
4075,-352,-1728,-992,230,-299,-46
4080,-384,-1808,-896,47,-252,14
4085,-424,-1992,-624,-151,-215,87
4090,-416,-2128,-464,-347,-198,160
4095,-456,-2320,-208,-521,-189,233
4100,-320,-2544,-96,-643,-182,313
4105,-296,-2632,0,-678,-174,372
4110,-248,-2752,104,-604,-159,427
4115,-288,-2800,184,-434,-147,469
4120,-272,-2808,208,-219,-143,501
4125,-248,-2792,160,5,-144,535
4130,-216,-2760,160,197,-141,566
4135,-232,-2696,96,336,-135,591
4140,-192,-2616,128,432,-122,623
4145,-208,-2520,72,477,-90,650
4150,-208,-2408,56,506,-60,668
4155,-216,-2232,32,539,-40,691
4160,-208,-2080,-48,571,-19,719
4165,-248,-1856,-168,592,-4,740
4170,-240,-1728,-192,585,9,763
4175,-232,-1600,-168,575,28,781
4180,-184,-1488,-248,565,44,800
4185,-104,-1384,-312,524,69,809
4190,-56,-1304,-272,455,88,802
4195,-16,-1256,-240,383,103,800
4200,-16,-1312,-240,312,109,788
4205,-8,-1280,-192,243,110,757
4210,8,-1256,-144,185,106,725
4215,8,-1264,-96,145,97,696
4220,-40,-1256,-72,123,86,679
4225,-8,-1312,-32,112,71,669
4230,-32,-1280,-56,107,56,652
4235,0,-1280,-32,114,53,636
4240,-112,-1256,-88,126,52,617
4245,-120,-1320,-24,112,54,610
4250,-200,-1312,-32,95,58,590
4255,-264,-1328,112,62,46,576
4260,-272,-1280,96,72,38,567
4265,-208,-1328,96,85,29,561
4270,-208,-1280,88,77,28,535
4275,-224,-1288,72,43,28,511
4280,-224,-1280,48,-16,27,490
4285,-208,-1360,80,-88,19,466
4290,-200,-1360,80,-133,17,445
4295,-184,-1360,96,-168,16,421
4300,-184,-1352,96,-200,22,377
4305,-192,-1376,128,-227,31,349
4310,-144,-1432,176,-261,37,317
4315,-112,-1512,232,-305,53,275
4320,-112,-1536,264,-324,63,232
4325,-144,-1552,312,-322,66,190
4330,-168,-1576,360,-308,63,147
4335,-184,-1568,360,-280,61,100
4340,-208,-1560,328,-253,59,55
4345,-248,-1584,304,-227,63,13
4350,-248,-1552,312,-204,71,-24
4355,-280,-1552,352,-186,77,-63
4360,-280,-1552,440,-168,86,-105
4365,-288,-1552,480,-154,96,-148
4370,-256,-1592,504,-140,105,-193
4375,-272,-1608,512,-122,113,-240
4380,-264,-1616,560,-99,120,-290
4385,-296,-1696,552,-74,126,-341
4390,-312,-1704,560,-41,131,-386
4395,-336,-1736,560,3,133,-426
4400,-352,-1760,536,54,136,-462
4405,-344,-1800,504,99,140,-494
4410,-352,-1832,504,144,143,-520
4415,-320,-1920,504,187,148,-541
4420,-272,-1960,416,230,154,-557
4425,-304,-1992,488,268,160,-568
4430,-240,-2008,432,308,166,-568
4435,-200,-2064,408,344,173,-560
4440,-160,-2072,424,376,186,-543
4445,-72,-2096,384,398,199,-521
4450,0,-2144,256,412,212,-497
4455,32,-2160,128,401,225,-471
4460,0,-2216,16,363,242,-443
4465,-88,-2208,-8,311,261,-409
4470,-200,-2264,-72,253,286,-357
4475,-328,-2304,-32,189,313,-288
4480,-400,-2360,88,122,338,-208
4485,-512,-2400,240,56,367,-119
4490,-608,-2368,424,-4,396,-31
4495,-704,-2360,648,-50,423,53
4500,-728,-2272,768,-81,443,126
4505,-704,-2272,888,-104,461,185
4510,-704,-2200,984,-117,469,229
4515,-696,-2152,896,-125,465,252
4520,-680,-2080,728,-131,453,257
4525,-808,-2048,472,-161,425,241
4530,-944,-2104,208,-227,396,214
4535,-992,-2288,96,-328,367,211
4540,-1056,-2648,72,-451,347,251
4545,-1080,-3040,176,-576,323,327
4550,-992,-3392,440,-690,287,423
4555,-984,-3608,584,-757,247,522
4560,-1032,-3704,632,-747,204,602
4565,-1120,-3696,680,-660,147,659
4570,-1264,-3640,600,-478,70,687
4575,-1328,-3528,480,-206,-33,681
4580,-1344,-3256,280,125,-154,633
4585,-1296,-2952,104,466,-274,549
4590,-1232,-2488,-96,748,-381,420
4595,-1192,-2120,-368,935,-479,285
4600,-1168,-1984,-600,1004,-558,207
4605,-1056,-1992,-776,963,-618,193
4610,-840,-2024,-872,883,-658,203
4615,-504,-1944,-904,835,-675,219
4620,-280,-1912,-840,827,-673,235
4625,0,-1904,-776,819,-645,262
4630,128,-1840,-688,789,-596,288
4635,400,-1800,-560,750,-543,323
4640,560,-1768,-480,695,-498,325
4645,552,-1720,-424,632,-463,288
4650,520,-1696,-408,557,-432,229
4655,480,-1704,-416,463,-414,159
4660,440,-1768,-400,360,-404,68
4665,336,-1856,-424,257,-406,-35
4670,152,-1936,-408,166,-418,-144
4675,16,-2024,-424,89,-443,-215
4680,-56,-2080,-424,14,-477,-258
4685,-184,-2208,-408,-57,-522,-282
4690,-272,-2296,-328,-116,-560,-286
4695,-312,-2344,-192,-155,-598,-283
4700,-368,-2352,-72,-167,-641,-274
4705,-424,-2344,16,-136,-688,-258
4710,-432,-2328,56,-98,-733,-237
4715,-400,-2280,72,-56,-785,-229
4720,-304,-2200,40,-5,-843,-240
4725,-248,-2136,8,46,-895,-272
4730,-264,-2080,-136,69,-939,-331
4735,-216,-2016,-192,36,-981,-390
4740,-288,-1936,-152,17,-1024,-455
4745,-288,-1832,-144,52,-1069,-486
4750,-296,-1856,-216,101,-1102,-500
4755,-320,-1800,-224,126,-1124,-505
4760,-280,-1760,-136,140,-1139,-490
4765,-256,-1688,-112,173,-1153,-480
4770,-312,-1624,-64,213,-1176,-481
4775,-264,-1600,-72,240,-1200,-464
4780,-272,-1528,-88,253,-1219,-448
4785,-200,-1472,-88,259,-1240,-435
4790,-256,-1440,-128,251,-1269,-429
4795,-280,-1496,-168,209,-1294,-399
4800,-176,-1488,-72,157,-1312,-350
4805,-88,-1464,-120,132,-1338,-336
4810,-16,-1424,-136,89,-1367,-348
4815,32,-1400,-128,45,-1389,-365
4820,72,-1456,-32,2,-1395,-369
4825,48,-1424,-24,-34,-1388,-363
4830,136,-1432,0,-53,-1381,-356
4835,152,-1392,40,-53,-1362,-335
4840,152,-1560,-16,-31,-1340,-295
4845,216,-1680,56,-92,-1322,-276
4850,256,-1808,64,-172,-1292,-289
4855,240,-1712,216,-202,-1271,-313
4860,128,-1600,216,-157,-1257,-329
4865,48,-1536,184,-104,-1249,-321
4870,56,-1592,112,-81,-1239,-297
4875,104,-1592,136,-109,-1228,-274
4880,128,-1648,136,-140,-1217,-260
4885,104,-1600,128,-168,-1206,-241
4890,136,-1560,184,-180,-1182,-215
4895,136,-1512,136,-187,-1151,-188
4900,208,-1536,288,-190,-1117,-148
4905,192,-1464,168,-173,-1080,-104
4910,272,-1528,344,-144,-1040,-70
4915,352,-1432,320,-98,-1002,-37
4920,336,-1584,320,-51,-965,-1
4925,328,-1488,288,-12,-928,42
4930,240,-1456,288,10,-891,77
4935,392,-1400,224,10,-853,118
4940,88,-1464,352,-16,-821,166
4945,176,-1512,488,-42,-791,221
4950,88,-1528,616,-11,-763,251
4955,48,-1344,544,40,-763,262
4960,40,-1456,520,52,-779,276
4965,-16,-1544,432,27,-786,299
4970,72,-1552,464,-7,-781,315
4975,-56,-1640,448,0,-783,336
4980,-200,-1696,480,41,-779,379
4985,-16,-1680,520,72,-773,405
4990,-152,-1704,472,68,-773,403
4995,-120,-1688,336,61,-781,404
5000,-48,-1824,368,41,-795,413
5005,-168,-1720,384,8,-810,397
5010,-56,-1808,264,-9,-818,401
5015,-144,-1784,256,-21,-825,393
5020,-128,-1960,344,-23,-835,379
5025,-200,-2000,232,-27,-843,359
5030,-208,-2120,160,-50,-859,333
5035,-280,-2232,176,-102,-882,290
5040,-256,-2328,216,-166,-914,250
5045,-216,-2520,200,-245,-941,187
5050,-168,-2704,440,-316,-948,108
5055,-112,-2696,424,-357,-957,24
5060,40,-2752,568,-376,-967,-49
5065,328,-2608,448,-380,-966,-117
5070,192,-2632,608,-332,-962,-180
5075,208,-2496,592,-245,-971,-234
5080,232,-2352,528,-164,-979,-267
5085,248,-2272,520,-127,-974,-278
5090,320,-2168,528,-137,-960,-274
5095,336,-2120,616,-166,-944,-266
5100,328,-2072,672,-195,-929,-256
5105,392,-2048,704,-218,-917,-241
5110,472,-2040,672,-240,-911,-222
5115,536,-1960,616,-267,-911,-202
5120,600,-2000,392,-301,-913,-190
5125,656,-2152,184,-388,-912,-194
5130,800,-2480,96,-513,-905,-211
5135,768,-2720,48,-633,-871,-256
5140,824,-3128,96,-717,-806,-305
5145,776,-3512,240,-784,-718,-389
5150,792,-3704,328,-790,-625,-486
5155,808,-3784,344,-702,-518,-557
5160,696,-3720,272,-499,-402,-604
5165,568,-3456,288,-194,-275,-601
5170,328,-3096,192,191,-146,-546
5175,144,-2760,24,584,-42,-445
5180,192,-2584,-136,886,18,-325
5185,136,-2328,-360,1074,49,-230
5190,40,-2072,-520,1149,82,-153
5195,16,-1936,-640,1137,108,-97
5200,56,-1888,-784,1056,102,-79
5205,64,-1928,-832,930,74,-92
5210,-8,-1896,-872,818,49,-132
5215,-208,-1840,-888,746,30,-186
5220,-216,-1776,-944,671,-8,-213
5225,-256,-1688,-840,583,-45,-231
5230,-304,-1632,-800,512,-49,-220
5235,-288,-1576,-736,458,-20,-166
5240,-168,-1576,-632,387,39,-107
5245,-168,-1640,-488,302,107,-54
5250,-256,-1688,-408,199,163,-12
5255,-280,-1848,-288,70,208,47
5260,-312,-2032,-176,-61,246,102
5265,-352,-2144,-64,-183,266,150
5270,-376,-2296,-32,-271,272,199
5275,-344,-2376,16,-321,276,248
5280,-264,-2528,56,-322,287,290
5285,-240,-2648,144,-273,307,321
5290,-216,-2720,184,-180,329,353
5295,-232,-2744,240,-68,351,387
5300,-192,-2728,240,56,371,425
5305,-128,-2640,248,176,382,458
5310,-144,-2496,240,303,390,474
5315,-112,-2312,152,423,397,486
5320,-136,-2136,72,508,413,505
5325,-80,-2040,-40,566,441,548
5330,-80,-1856,-112,605,480,596
5335,0,-1776,-192,622,524,644
5340,48,-1656,-232,612,564,672
5345,88,-1520,-176,583,592,673
5350,64,-1448,-272,539,603,662
5355,96,-1424,-304,498,608,650
5360,80,-1408,-288,425,609,634
5365,112,-1432,-208,341,617,611
5370,72,-1464,-104,253,615,569
5375,40,-1520,-16,192,621,540
5380,0,-1384,104,167,618,516
5385,8,-1360,88,194,621,500
5390,-80,-1432,40,206,621,483
5395,-128,-1504,-8,197,622,473
5400,-160,-1496,8,153,616,453
5405,-176,-1480,-16,93,608,434
5410,-232,-1448,0,52,605,416
5415,-328,-1400,32,23,601,402
5420,-368,-1376,72,21,598,413
5425,-376,-1416,88,29,601,430
5430,-424,-1464,112,16,580,436
5435,-376,-1464,104,-9,559,447
5440,-352,-1504,16,-31,547,452
5445,-312,-1544,16,-85,542,447
5450,-272,-1544,160,-142,536,427
5455,-216,-1528,272,-154,528,395
5460,-160,-1520,288,-148,505,365
5465,-176,-1528,296,-124,496,330
5470,-104,-1544,296,-86,488,300
5475,-88,-1504,312,-49,476,270
5480,-112,-1448,248,-24,462,237
5485,-72,-1448,224,-21,445,203
5490,-104,-1424,232,-31,430,170
5495,-120,-1408,256,-46,416,135
5500,-176,-1384,256,-68,398,101
5505,-216,-1416,344,-87,382,65
5510,-264,-1392,392,-102,369,30
5515,-304,-1400,464,-109,359,-3
5520,-328,-1424,472,-110,345,-38
5525,-384,-1376,536,-102,331,-77
5530,-376,-1448,624,-89,316,-116
5535,-368,-1480,616,-69,302,-157
5540,-392,-1512,640,-47,287,-198
5545,-416,-1536,592,-21,274,-237
5550,-440,-1544,552,8,262,-273
5555,-464,-1560,488,38,249,-303
5560,-408,-1584,416,64,237,-333
5565,-416,-1632,440,90,226,-358
5570,-384,-1704,392,117,216,-380
5575,-400,-1736,352,139,206,-401
5580,-376,-1784,376,154,196,-419
5585,-344,-1792,344,160,192,-426
5590,-336,-1824,312,160,193,-432
5595,-288,-1856,272,144,205,-427
5600,-280,-1888,216,110,223,-421
5605,-200,-1952,216,62,242,-410
5610,-144,-2040,200,1,261,-388
5615,-144,-2120,192,-72,283,-346
5620,-144,-2248,272,-155,304,-284
5625,-168,-2432,424,-232,319,-214
5630,-216,-2552,512,-284,318,-135
5635,-304,-2624,464,-285,316,-61
5640,-384,-2744,520,-304,314,16
5645,-448,-2728,640,-329,328,100
5650,-504,-2688,712,-326,339,174
5655,-536,-2592,768,-291,350,237
5660,-528,-2544,800,-249,362,285
5665,-520,-2400,800,-217,375,323
5670,-504,-2336,848,-200,384,342
5675,-448,-2256,872,-186,391,343
5680,-384,-2216,872,-171,398,332
5685,-336,-2176,800,-157,415,309
5690,-312,-2144,704,-155,441,276
5695,-400,-2088,504,-180,478,237
5700,-544,-2072,336,-233,520,201
5705,-568,-2152,240,-309,560,183
5710,-704,-2320,184,-402,593,184
5715,-760,-2616,136,-496,608,221
5720,-808,-2992,248,-587,610,288
5725,-968,-3376,304,-660,557,355
5730,-1128,-3536,384,-668,460,417
5735,-1248,-3608,360,-577,324,464
5740,-1272,-3496,360,-332,174,474
5745,-1144,-3200,216,-21,23,426
5750,-1048,-2800,32,313,-100,330
5755,-992,-2512,-88,599,-182,226
5760,-1040,-2184,-296,802,-244,122
5765,-1064,-1944,-488,921,-311,30
5770,-1024,-1784,-728,971,-387,-29
5775,-800,-1688,-928,960,-450,-44
5780,-680,-1600,-1008,919,-490,-27
5785,-448,-1576,-1000,867,-503,11
5790,-200,-1600,-960,801,-496,61
5795,-24,-1648,-920,717,-476,101
5800,56,-1696,-776,627,-446,129
5805,216,-1776,-576,532,-421,136
5810,224,-1872,-408,447,-401,127
5815,256,-1968,-280,376,-401,97
5820,200,-2000,-176,303,-423,43
5825,136,-2000,-104,234,-464,-27
5830,80,-2072,-144,161,-518,-100
5835,-16,-2088,-208,88,-570,-164
5840,-112,-2192,-224,23,-614,-216
5845,-272,-2272,-232,-21,-651,-252
5850,-328,-2312,-280,-38,-691,-269
5855,-408,-2416,-328,-52,-738,-271
5860,-464,-2440,-240,-52,-783,-262
5865,-496,-2464,-184,-34,-826,-248
5870,-424,-2480,-96,-8,-869,-232
5875,-384,-2472,16,32,-913,-229
5880,-336,-2408,40,67,-964,-248
5885,-280,-2408,8,96,-1022,-292
5890,-312,-2320,-56,109,-1082,-352
5895,-336,-2272,-88,131,-1139,-408
5900,-336,-2136,-112,178,-1188,-449
5905,-312,-2048,-176,252,-1236,-483
5910,-344,-1928,-248,320,-1274,-511
5915,-296,-1792,-304,378,-1300,-520
5920,-296,-1760,-344,418,-1305,-509
5925,-288,-1624,-312,415,-1305,-487
5930,-208,-1520,-312,404,-1298,-466
5935,-224,-1480,-320,380,-1291,-435
5940,-224,-1488,-216,329,-1278,-382
5945,-112,-1520,-160,293,-1266,-341
5950,-160,-1584,-184,263,-1266,-338
5955,-72,-1520,-136,241,-1262,-324
5960,-40,-1496,-96,225,-1298,-338
5965,-80,-1456,-64,211,-1321,-356
5970,-80,-1488,-80,217,-1333,-358
5975,8,-1536,-144,196,-1343,-356
5980,24,-1512,-104,151,-1346,-372
5985,-56,-1504,-64,111,-1346,-380
5990,120,-1544,-16,87,-1333,-353
5995,120,-1672,-32,59,-1317,-349
6000,80,-1696,-48,8,-1310,-388
6005,88,-1672,104,-48,-1312,-419
6010,16,-1624,16,-65,-1323,-443
6015,0,-1616,8,-95,-1330,-448
6020,0,-1592,16,-139,-1330,-438
6025,8,-1544,48,-170,-1320,-420
6030,24,-1536,56,-195,-1305,-389
6035,56,-1480,48,-224,-1291,-358
6040,88,-1424,32,-254,-1274,-331
6045,120,-1408,40,-275,-1250,-299
6050,176,-1360,72,-282,-1213,-256
6055,160,-1368,32,-272,-1178,-224
6060,208,-1352,48,-267,-1143,-186
6065,288,-1376,72,-261,-1096,-150
6070,264,-1408,104,-249,-1064,-112
6075,336,-1272,168,-224,-1025,-76
6080,360,-1176,112,-159,-999,-75
6085,320,-1160,120,-127,-979,-69
6090,320,-1176,128,-158,-943,-42
6095,296,-1240,200,-218,-906,-1
6100,272,-1328,240,-282,-872,48
6105,216,-1424,320,-340,-846,93
6110,232,-1536,392,-387,-825,140
6115,200,-1640,472,-415,-805,167
6120,176,-1720,536,-402,-783,203
6125,152,-1832,568,-375,-760,235
6130,112,-1936,664,-322,-734,249
6135,136,-2016,656,-249,-718,268
6140,48,-2024,720,-172,-710,273
6145,72,-2032,752,-99,-706,273
6150,0,-2032,704,-8,-719,271
6155,16,-2024,584,71,-735,274
6160,0,-1968,600,127,-752,270
6165,-32,-2000,432,153,-768,261
6170,-72,-1976,360,138,-781,238
6175,-64,-1936,288,134,-793,214
6180,-56,-1944,208,126,-807,192
6185,-72,-1960,152,104,-815,173
6190,-8,-2048,144,57,-820,163
6195,-8,-2080,144,-19,-826,128
6200,88,-2240,160,-109,-825,104
6205,160,-2304,144,-213,-821,69
6210,240,-2456,240,-315,-811,17
6215,360,-2552,344,-390,-796,-40
6220,368,-2544,528,-420,-782,-102
6225,432,-2552,616,-398,-760,-173
6230,416,-2504,648,-347,-755,-236
6235,496,-2416,664,-300,-747,-275
6240,440,-2376,672,-251,-737,-303
6245,336,-2328,664,-187,-724,-316
6250,280,-2272,664,-119,-717,-305
6255,240,-2224,696,-60,-709,-283
6260,152,-2176,736,-25,-708,-250
6265,136,-2144,752,-13,-718,-216
6270,128,-2104,680,-21,-739,-184
6275,176,-2136,504,-46,-765,-159
6280,256,-2136,432,-88,-786,-138
6285,384,-2200,224,-101,-800,-130
6290,424,-2504,104,-136,-796,-144
6295,504,-2728,0,-213,-780,-188
6300,464,-2936,0,-290,-749,-262
6305,536,-3184,0,-347,-703,-343
6310,544,-3344,0,-358,-643,-426
6315,520,-3424,8,-296,-571,-505
6320,368,-3344,64,-146,-491,-560
6325,224,-3208,96,79,-405,-576
6330,-8,-2960,112,327,-343,-572
6335,-224,-2688,16,563,-318,-527
6340,-328,-2504,-112,742,-315,-436
6345,-352,-2344,-232,848,-322,-340
6350,-352,-2272,-344,898,-335,-269
6355,-272,-2176,-520,901,-360,-218
6360,-232,-2152,-680,873,-384,-191
6365,-304,-2072,-832,840,-399,-165
6370,-352,-2000,-984,807,-411,-149
6375,-424,-1904,-1040,778,-415,-143
6380,-480,-1760,-1088,731,-416,-139
6385,-408,-1608,-1056,650,-405,-138
6390,-424,-1512,-1008,545,-384,-134
6395,-456,-1520,-912,406,-363,-135
6400,-488,-1624,-784,195,-341,-111
6405,-496,-1784,-600,-64,-321,-65
6410,-480,-1968,-360,-316,-300,-8
6415,-384,-2176,-232,-499,-283,61
6420,-352,-2288,-80,-608,-257,128
6425,-240,-2504,32,-637,-231,214
6430,-240,-2600,152,-605,-197,290
6435,-208,-2736,216,-475,-160,355
6440,-248,-2880,280,-340,-129,419
6445,-200,-2944,304,-201,-108,490
6450,-128,-2920,280,-48,-88,540
6455,-128,-2824,288,119,-69,573
6460,-104,-2680,240,274,-53,607
6465,-72,-2560,216,407,-30,646
6470,-48,-2408,144,531,8,681
6475,-104,-2240,144,653,54,711
6480,-64,-2032,-88,735,100,741
6485,-80,-1864,-176,735,123,745
6490,-40,-1696,-232,700,130,742
6495,-88,-1584,-208,651,124,718
6500,-128,-1440,-216,601,127,704
6505,-176,-1344,-176,542,129,695
6510,-104,-1312,-176,472,133,696
6515,-112,-1304,-120,398,146,677
6520,-152,-1256,-32,320,147,652
6525,-160,-1200,-64,258,138,632
6530,-120,-1176,56,192,119,605
6535,-56,-1064,0,155,105,564
6540,-120,-1136,72,122,87,522
6545,-144,-1208,0,88,67,498
6550,-112,-1256,-80,32,51,476
6555,-208,-1304,-40,-38,48,451
6560,-216,-1408,-24,-96,60,447
6565,-248,-1392,64,-146,51,438
6570,-232,-1296,0,-158,40,436
6575,-256,-1328,16,-169,38,443
6580,-248,-1408,24,-196,23,443
6585,-304,-1448,-16,-236,9,437
6590,-272,-1456,-16,-281,-8,425
6595,-272,-1456,32,-335,-27,411
6600,-200,-1520,64,-370,-36,407
6605,-216,-1568,168,-380,-35,390
6610,-184,-1544,272,-364,-29,381
6615,-216,-1544,352,-308,-24,371
6620,-200,-1560,344,-238,-29,358
6625,-144,-1576,352,-188,-42,336
6630,-144,-1568,328,-163,-55,304
6635,-160,-1592,264,-160,-66,271
6640,-160,-1552,288,-162,-73,234
6645,-128,-1560,288,-167,-79,200
6650,-184,-1560,280,-173,-83,164
6655,-184,-1536,264,-177,-84,130
6660,-184,-1536,288,-180,-82,102
6665,-184,-1576,304,-182,-80,71
6670,-224,-1584,320,-184,-76,41
6675,-248,-1568,360,-177,-73,13
6680,-248,-1608,384,-150,-69,-8
6685,-200,-1608,376,-108,-76,-28
6690,-192,-1656,344,-87,-77,-67
6695,-208,-1688,368,-78,-71,-106
6700,-224,-1720,384,-65,-68,-144
6705,-240,-1736,400,-44,-67,-177
6710,-240,-1784,392,-16,-66,-212
6715,-232,-1808,400,13,-66,-245
6720,-232,-1864,336,37,-62,-277
6725,-224,-1904,376,57,-58,-308
6730,-256,-1936,368,76,-53,-330
6735,-256,-1992,384,84,-44,-349
6740,-232,-1992,416,88,-37,-365
6745,-216,-2024,440,96,-19,-366
6750,-256,-2056,456,107,3,-361
6755,-224,-2048,408,117,28,-347
6760,-328,-2040,384,116,57,-333
6765,-288,-2048,384,108,83,-297
6770,-344,-2048,400,93,102,-268
6775,-368,-2072,312,73,113,-227
6780,-408,-2048,360,40,128,-174
6785,-424,-2072,384,-5,140,-107
6790,-440,-2104,376,-66,153,-39
6795,-488,-2168,432,-152,163,24
6800,-472,-2184,456,-222,174,82
6805,-480,-2248,560,-287,186,132
6810,-456,-2328,592,-339,197,172
6815,-424,-2408,728,-366,208,201
6820,-384,-2408,800,-364,220,220
6825,-304,-2448,872,-328,232,229
6830,-240,-2440,880,-271,249,226
6835,-208,-2408,880,-207,270,218
6840,-264,-2360,776,-148,291,203
6845,-360,-2272,616,-106,317,181
6850,-488,-2240,496,-101,347,152
6855,-640,-2280,368,-127,372,128
6860,-800,-2376,240,-171,386,111
6865,-920,-2504,216,-218,390,104
6870,-936,-2656,168,-252,381,109
6875,-1016,-2792,168,-275,352,134
6880,-1112,-2992,160,-296,300,191
6885,-1328,-3176,88,-304,222,255
6890,-1528,-3256,8,-282,117,311
6895,-1608,-3240,8,-202,-6,353
6900,-1560,-3144,-112,-49,-149,362
6905,-1464,-2912,-224,151,-282,331
6910,-1432,-2640,-400,352,-386,300
6915,-1296,-2424,-544,501,-461,282
6920,-1232,-2320,-664,587,-519,269
6925,-1040,-2184,-832,629,-565,257
6930,-768,-2064,-832,660,-603,251
6935,-384,-1952,-848,696,-630,261
6940,-64,-1912,-880,724,-634,268
6945,104,-1840,-776,741,-616,267
6950,256,-1800,-696,751,-591,269
6955,336,-1808,-600,739,-573,268
6960,368,-1848,-480,689,-560,253
6965,352,-1856,-384,617,-561,214
6970,320,-1856,-400,525,-579,147
6975,272,-1864,-384,419,-604,54
6980,192,-1872,-408,313,-631,-39
6985,80,-1936,-432,211,-648,-125
6990,-8,-1992,-408,120,-660,-204
6995,-184,-2056,-432,51,-686,-270
7000,-328,-2104,-424,5,-720,-319
7005,-400,-2200,-408,-23,-763,-337
7010,-496,-2200,-344,-42,-804,-332
7015,-512,-2264,-256,-54,-846,-304
7020,-544,-2296,-176,-70,-894,-275
7025,-544,-2336,-56,-86,-945,-250
7030,-520,-2384,-56,-90,-1005,-239
7035,-472,-2392,16,-88,-1073,-252
7040,-448,-2376,24,-56,-1148,-296
7045,-472,-2272,48,21,-1228,-358
7050,-456,-2176,8,121,-1303,-414
7055,-464,-2088,-8,221,-1370,-454
7060,-392,-1976,-64,311,-1422,-480
7065,-328,-1904,-120,387,-1459,-503
7070,-320,-1800,-264,423,-1492,-525
7075,-216,-1656,-240,432,-1508,-524
7080,-184,-1552,-288,441,-1518,-518
7085,-240,-1504,-328,413,-1535,-490
7090,-176,-1416,-328,388,-1541,-437
7095,-120,-1424,-408,358,-1545,-401
7100,-56,-1368,-272,295,-1554,-384
7105,8,-1352,-344,258,-1582,-394
7110,16,-1336,-320,175,-1609,-409
7115,96,-1352,-328,113,-1620,-415
7120,56,-1312,-264,53,-1620,-436
7125,112,-1400,-232,-8,-1615,-440
7130,136,-1464,-216,-78,-1606,-442
7135,72,-1536,-176,-165,-1591,-434
7140,80,-1608,-48,-216,-1574,-415
7145,48,-1616,0,-212,-1569,-397
7150,80,-1576,80,-163,-1557,-384
7155,96,-1704,88,-82,-1542,-373
7160,104,-1752,136,-39,-1532,-382
7165,48,-1784,64,-25,-1534,-410
7170,24,-1832,24,-61,-1536,-402
7175,16,-1840,48,-123,-1526,-380
7180,32,-1800,88,-164,-1509,-350
7185,96,-1720,128,-176,-1490,-322
7190,160,-1632,80,-160,-1473,-309
7195,144,-1584,72,-149,-1458,-295
7200,136,-1528,96,-146,-1436,-275
7205,192,-1488,32,-138,-1405,-245
7210,232,-1488,80,-131,-1367,-211
7215,288,-1496,64,-129,-1326,-179
7220,288,-1512,88,-130,-1281,-149
7225,416,-1592,96,-126,-1233,-114
7230,344,-1552,192,-128,-1185,-78
7235,344,-1464,232,-82,-1130,-58
7240,312,-1400,208,-31,-1098,-48
7245,296,-1400,184,-27,-1068,-28
7250,248,-1448,224,-62,-1024,3
7255,272,-1488,232,-116,-982,52
7260,256,-1536,336,-170,-947,93
7265,168,-1584,376,-199,-920,122
7270,216,-1664,400,-197,-892,158
7275,168,-1672,496,-186,-865,192
7280,144,-1752,528,-142,-844,222
7285,200,-1808,536,-74,-821,256
7290,128,-1808,600,-7,-806,271
7295,144,-1856,552,51,-802,284
7300,40,-1832,552,60,-798,268
7305,16,-1808,512,65,-810,264
7310,-16,-1792,472,72,-836,254
7315,-48,-1808,408,73,-865,243
7320,-104,-1808,328,73,-893,235
7325,-136,-1832,264,73,-917,229
7330,-168,-1912,136,55,-937,225
7335,-240,-2008,104,5,-950,221
7340,-200,-2048,168,-40,-961,235
7345,-176,-2112,216,-66,-976,220
7350,-120,-2120,200,-82,-990,198
7355,-64,-2232,208,-115,-1004,161
7360,-8,-2344,264,-166,-1008,113
7365,80,-2392,280,-213,-1012,65
7370,192,-2456,328,-265,-1023,22
7375,328,-2536,416,-299,-1028,-26
7380,368,-2560,480,-297,-1030,-80
7385,360,-2504,472,-245,-1034,-135
7390,408,-2456,536,-172,-1024,-173
7395,400,-2344,560,-103,-1012,-197
7400,384,-2224,552,-43,-999,-209
7405,344,-2160,616,-5,-983,-210
7410,272,-2112,664,17,-976,-201
7415,184,-2072,704,27,-976,-184
7420,176,-2048,688,23,-987,-156
7425,80,-1984,616,5,-1007,-123
7430,224,-1984,448,-36,-1020,-78
7435,256,-2144,272,-97,-1027,-20
7440,456,-2416,88,-204,-1029,19
7445,496,-2608,64,-305,-1013,11
7450,552,-2872,40,-386,-982,-24
7455,608,-3120,56,-444,-920,-84
7460,680,-3352,16,-465,-854,-162
7465,760,-3448,48,-433,-778,-245
7470,744,-3440,72,-303,-692,-319
7475,624,-3320,88,-115,-593,-376
7480,416,-3088,80,120,-495,-396
7485,176,-2832,64,356,-409,-381
7490,-32,-2640,8,545,-357,-336
7495,-128,-2456,-56,670,-326,-267
7500,-248,-2312,-200,732,-310,-197
7505,-224,-2264,-328,709,-313,-136
7510,-176,-2216,-464,643,-337,-97
7515,-128,-2232,-576,584,-362,-88
7520,-96,-2272,-704,551,-376,-95
7525,-184,-2168,-760,546,-379,-104
7530,-240,-2040,-808,569,-388,-102
7535,-376,-1912,-832,610,-392,-114
7540,-440,-1768,-848,624,-392,-111
7545,-400,-1616,-848,579,-387,-103
7550,-368,-1560,-760,486,-368,-89
7555,-432,-1568,-648,333,-336,-66
7560,-440,-1680,-560,124,-300,-15
7565,-448,-1864,-432,-93,-265,60
7570,-424,-2032,-280,-294,-240,142
7575,-360,-2224,-128,-440,-216,221
7580,-256,-2432,-32,-504,-189,289
7585,-224,-2504,48,-479,-154,335
7590,-216,-2592,120,-367,-118,372
7595,-152,-2656,192,-200,-81,394
7600,-144,-2664,184,-19,-51,403
7605,-80,-2632,248,141,-33,412
7610,-56,-2552,248,284,-14,420
7615,-80,-2392,264,408,11,429
7620,-112,-2280,184,516,40,453
7625,-112,-2128,104,593,73,497
7630,-64,-2040,16,633,117,550
7635,-56,-1928,-56,646,166,597
7640,0,-1864,-160,621,209,636
7645,0,-1792,-168,566,241,661
7650,0,-1688,-168,522,270,667
7655,24,-1640,-128,496,293,664
7660,-40,-1528,-128,483,313,647
7665,-8,-1448,-168,476,327,639
7670,-32,-1408,-152,445,343,634
7675,8,-1368,-136,397,358,621
7680,8,-1320,-144,353,370,595
7685,-48,-1408,0,288,371,563
7690,-104,-1280,-16,257,367,546
7695,-72,-1312,8,251,358,537
7700,-80,-1352,-112,237,345,520
7705,-72,-1336,-120,186,341,498
7710,-120,-1304,-120,112,346,472
7715,-184,-1304,-192,32,342,450
7720,-240,-1288,-72,-65,332,438
7725,-264,-1248,16,-128,343,464
7730,-312,-1264,-40,-145,356,496
7735,-328,-1360,-24,-178,354,526
7740,-288,-1456,0,-200,362,543
7745,-304,-1480,64,-213,359,532
7750,-240,-1488,112,-222,344,509
7755,-224,-1512,104,-233,331,477
7760,-264,-1520,168,-233,318,439
7765,-256,-1552,176,-217,311,410
7770,-256,-1560,216,-189,307,387
7775,-224,-1568,240,-167,303,369
7780,-232,-1608,200,-158,296,345
7785,-216,-1616,264,-160,284,323
7790,-192,-1608,248,-174,268,294
7795,-200,-1632,248,-180,248,266
7800,-232,-1608,256,-185,229,237
7805,-256,-1592,304,-187,211,208
7810,-272,-1592,264,-177,195,182
7815,-280,-1568,288,-171,176,153
7820,-304,-1568,304,-165,169,119
7825,-376,-1544,312,-137,160,83
7830,-336,-1616,264,-119,128,70
7835,-368,-1680,328,-136,104,44
7840,-360,-1696,376,-149,83,6
7845,-416,-1704,464,-143,61,-39
7850,-424,-1704,504,-114,36,-81
7855,-448,-1712,536,-68,12,-123
7860,-416,-1736,536,-21,-7,-159
7865,-416,-1752,544,31,-23,-198
7870,-376,-1744,536,84,-34,-229
7875,-376,-1784,536,130,-40,-258
7880,-336,-1760,520,169,-46,-283
7885,-336,-1800,520,196,-48,-307
7890,-296,-1776,528,204,-49,-325
7895,-240,-1760,504,210,-46,-334
7900,-192,-1760,504,219,-40,-345
7905,-152,-1776,496,230,-30,-356
7910,-136,-1752,488,236,-17,-363
7915,-136,-1736,464,229,1,-364
7920,-144,-1744,504,209,22,-360
7925,-72,-1744,432,179,40,-352
7930,-72,-1776,376,134,59,-343
7935,-88,-1816,256,70,89,-325
7940,-176,-1856,264,-13,127,-304
7945,-144,-1928,216,-106,160,-272
7950,-168,-2024,184,-195,194,-230
7955,-176,-2088,224,-269,225,-177
7960,-128,-2232,296,-326,254,-120
7965,-160,-2320,344,-369,272,-63
7970,-168,-2472,432,-390,286,-12
7975,-296,-2520,520,-400,304,36
7980,-312,-2552,592,-394,321,83
7985,-296,-2544,688,-374,345,132
7990,-264,-2488,704,-342,377,173
7995,-224,-2448,768,-305,414,206
8000,-176,-2376,880,-275,456,230
8005,-80,-2320,840,-253,496,251
8010,-80,-2256,776,-235,532,249
8015,-136,-2216,640,-221,567,231
8020,-288,-2104,456,-225,602,216
8025,-520,-2072,264,-261,636,203
8030,-704,-2192,96,-331,663,211
8035,-880,-2424,16,-425,682,243
8040,-936,-2640,56,-515,682,293
8045,-1032,-2960,136,-588,661,370
8050,-1200,-3200,176,-646,621,458
8055,-1432,-3472,152,-659,553,548
8060,-1528,-3576,160,-601,456,615
8065,-1576,-3528,184,-447,330,662
8070,-1312,-3384,136,-205,195,667
8075,-1128,-3080,48,92,66,602
8080,-1096,-2736,-168,376,-38,503
8085,-1200,-2496,-296,597,-118,402
8090,-1240,-2288,-544,749,-195,307
8095,-1144,-2088,-736,835,-274,226
8100,-912,-1944,-936,873,-347,163
8105,-712,-1888,-1000,879,-392,128
8110,-488,-1904,-1032,864,-409,131
8115,-264,-1880,-992,836,-405,139
8120,-40,-1864,-896,808,-400,154
8125,72,-1848,-832,759,-397,167
8130,120,-1872,-696,670,-384,169
8135,168,-1928,-552,549,-377,164
8140,152,-1920,-488,410,-376,136
8145,96,-1968,-376,248,-378,90
8150,16,-2032,-312,137,-387,29
8155,0,-2056,-296,67,-403,-39
8160,-96,-2096,-288,38,-428,-103
8165,-176,-2200,-272,29,-460,-166
8170,-280,-2224,-296,29,-496,-221
8175,-384,-2280,-312,35,-540,-263
8180,-408,-2336,-296,33,-586,-293
8185,-424,-2344,-264,34,-630,-316
8190,-448,-2304,-160,41,-673,-332
8195,-536,-2288,-168,61,-716,-331
8200,-440,-2232,-64,85,-758,-320
8205,-464,-2264,-96,108,-807,-313
8210,-376,-2272,-64,126,-861,-323
8215,-376,-2176,-56,167,-920,-362
8220,-288,-2096,-96,223,-978,-402
8225,-280,-1968,-80,262,-1027,-457
8230,-248,-1912,-144,298,-1070,-514
8235,-248,-1832,-176,323,-1106,-573
8240,-288,-1648,-160,347,-1133,-625
8245,-288,-1576,-208,374,-1152,-649
8250,-264,-1536,-216,382,-1165,-661
8255,-296,-1496,-296,373,-1172,-666
8260,-304,-1504,-280,324,-1184,-638
8265,-344,-1472,-256,262,-1196,-602
8270,-184,-1424,-248,217,-1210,-550
8275,-184,-1360,-256,183,-1232,-533
8280,-200,-1376,-248,148,-1242,-515
8285,-72,-1408,-200,108,-1239,-488
8290,-16,-1424,-200,85,-1254,-488
8295,-40,-1480,-224,66,-1266,-496
8300,0,-1488,-200,43,-1284,-497
8305,-32,-1528,-176,26,-1296,-490
8310,0,-1544,-176,12,-1304,-483
8315,0,-1560,-152,2,-1310,-478
8320,24,-1624,-224,-25,-1314,-473
8325,0,-1648,-152,-79,-1313,-461
8330,120,-1624,-112,-119,-1296,-436
8335,80,-1568,-16,-131,-1279,-439
8340,128,-1584,24,-115,-1268,-436
8345,72,-1584,40,-92,-1269,-431
8350,64,-1576,0,-59,-1276,-429
8355,8,-1576,-56,-53,-1287,-427
8360,80,-1632,-120,-82,-1283,-396
8365,160,-1624,-120,-137,-1272,-374
8370,192,-1608,-88,-184,-1254,-378
8375,112,-1544,-24,-208,-1234,-385
8380,200,-1560,-128,-212,-1207,-370
8385,208,-1624,-16,-248,-1170,-369
8390,184,-1664,8,-281,-1138,-371
8395,200,-1744,32,-302,-1088,-342
8400,216,-1792,112,-287,-1032,-301
8405,240,-1776,232,-245,-986,-255
8410,224,-1704,216,-162,-938,-226
8415,248,-1712,48,-78,-918,-187
8420,272,-1648,32,-63,-898,-158
8425,248,-1656,56,-95,-856,-142
8430,240,-1608,40,-112,-806,-104
8435,296,-1640,56,-125,-756,-60
8440,240,-1608,96,-131,-708,-27
8445,240,-1608,80,-121,-665,6
8450,264,-1672,80,-132,-627,36
8455,240,-1688,176,-156,-587,62
8460,256,-1688,200,-161,-554,77
8465,168,-1736,240,-167,-526,83
8470,216,-1792,248,-178,-496,102
8475,224,-1808,304,-193,-474,110
8480,168,-1792,336,-192,-456,109
8485,152,-1792,320,-177,-444,108
8490,152,-1752,304,-171,-437,107
8495,96,-1832,304,-177,-434,102
8500,80,-1816,304,-192,-432,105
8505,64,-1888,336,-206,-433,104
8510,104,-1864,368,-212,-435,104
8515,72,-1872,336,-205,-436,101
8520,16,-1888,368,-218,-438,96
8525,-8,-1904,424,-225,-447,96
8530,-24,-1936,456,-227,-462,101
8535,-16,-1968,456,-227,-480,102
8540,0,-2032,448,-223,-500,102
8545,-56,-2056,480,-207,-520,97
8550,-48,-2112,464,-183,-543,102
8555,-32,-2168,432,-159,-564,108
8560,-24,-2184,448,-137,-583,113
8565,-16,-2232,400,-120,-593,120
8570,24,-2264,424,-105,-601,127
8575,80,-2288,416,-93,-609,127
8580,152,-2280,472,-80,-616,118
8585,144,-2264,472,-63,-619,102
8590,176,-2272,520,-38,-616,82
8595,224,-2256,560,-9,-614,63
8600,240,-2176,568,16,-613,52
8605,232,-2200,624,44,-608,49
8610,208,-2168,616,69,-612,35
8615,240,-2112,616,81,-619,14
8620,256,-2056,528,75,-629,1
8625,320,-2008,424,36,-639,-3
8630,424,-2032,256,-31,-647,-4
8635,472,-2080,88,-119,-653,-11
8640,544,-2240,-88,-222,-652,-23
8645,576,-2384,-232,-328,-644,-47
8650,600,-2592,-352,-423,-620,-83
8655,616,-2728,-408,-494,-575,-135
8660,704,-3064,-448,-545,-517,-211
8665,728,-3240,-392,-578,-458,-300
8670,728,-3416,-360,-569,-388,-384
8675,600,-3512,-328,-482,-296,-446
8680,504,-3400,-240,-298,-181,-468
8685,288,-3168,-216,-44,-63,-451
8690,136,-2984,-176,199,15,-395
8695,104,-2768,-224,402,66,-323
8700,40,-2560,-296,563,109,-258
8705,16,-2376,-384,688,144,-191
8710,-56,-2232,-552,778,172,-126
8715,-112,-2080,-736,812,190,-84
8720,-208,-1968,-784,796,192,-66
8725,-320,-1824,-840,753,177,-58
8730,-352,-1688,-840,682,146,-58
8735,-352,-1560,-808,584,105,-52
8740,-336,-1544,-856,454,72,-22
8745,-288,-1568,-784,283,56,25
8750,-224,-1680,-664,99,55,80
8755,-248,-1768,-632,-63,71,133
8760,-240,-1912,-496,-201,98,195
8765,-256,-2104,-376,-305,132,255
8770,-312,-2208,-232,-368,161,304
8775,-288,-2328,-144,-403,180,339
8780,-296,-2432,-16,-389,192,363
8785,-264,-2552,24,-321,204,378
8790,-184,-2600,0,-221,216,396
8795,-160,-2664,8,-114,238,417
8800,-136,-2696,8,3,277,439
8805,-112,-2680,0,122,319,469
8810,-88,-2584,8,229,364,504
8815,-24,-2520,0,324,391,540
8820,0,-2360,-64,391,408,571
8825,64,-2208,-72,432,424,602
8830,80,-2056,-176,451,444,619
8835,80,-1880,-184,466,466,630
8840,104,-1728,-248,463,494,636
8845,64,-1560,-304,452,525,637
8850,64,-1464,-304,433,556,646
8855,56,-1336,-312,408,589,655
8860,72,-1248,-368,372,625,663
8865,120,-1216,-360,311,654,666
8870,96,-1128,-336,235,677,661
8875,80,-1096,-360,148,692,640
8880,48,-1128,-280,47,700,619
8885,8,-1168,-208,-58,702,593
8890,-48,-1208,-72,-142,704,574
8895,-48,-1328,-216,-207,707,561
8900,-128,-1392,-208,-282,709,552
8905,-152,-1464,-200,-339,723,550
8910,-176,-1496,-104,-380,728,545
8915,-232,-1632,-104,-403,733,537
8920,-240,-1688,-88,-420,749,544
8925,-296,-1672,32,-414,755,551
8930,-280,-1688,-24,-380,754,564
8935,-320,-1784,-72,-359,747,574
8940,-416,-1808,-72,-375,737,583
8945,-432,-1840,-48,-381,731,588
8950,-496,-1808,-64,-379,704,587
8955,-504,-1808,-96,-372,672,592
8960,-528,-1728,-144,-373,647,601
8965,-544,-1728,-96,-374,631,611
8970,-528,-1680,-152,-386,615,622
8975,-568,-1712,-160,-411,596,620
8980,-544,-1704,-160,-437,568,614
8985,-552,-1688,-152,-454,539,603
8990,-576,-1720,-160,-468,504,590
8995,-552,-1760,-152,-473,476,578
9000,-584,-1784,-96,-474,448,559
9005,-560,-1832,-32,-464,424,539
9010,-560,-1864,16,-450,404,519
9015,-600,-1880,16,-436,384,498
9020,-592,-1960,16,-429,363,488
9025,-520,-2040,32,-433,349,481
9030,-512,-2040,40,-432,337,462
9035,-392,-2072,48,-410,329,453
9040,-456,-2072,16,-385,320,438
9045,-416,-2120,-16,-360,304,431
9050,-432,-2168,0,-342,291,412
9055,-440,-2216,8,-316,275,391
9060,-464,-2288,40,-281,249,368
9065,-496,-2320,104,-236,225,338
9070,-552,-2368,208,-181,199,313
9075,-576,-2384,288,-123,175,298
9080,-640,-2352,344,-71,148,288
9085,-688,-2376,440,-19,125,282
9090,-712,-2312,528,34,106,276
9095,-760,-2248,552,92,88,278
9100,-672,-2176,512,155,69,284
9105,-648,-2192,512,222,58,279
9110,-592,-2168,448,300,53,270
9115,-600,-2160,376,383,41,262
9120,-608,-2096,312,452,25,248
9125,-408,-2072,352,507,13,247
9130,-384,-2040,296,539,4,229
9135,-336,-2008,272,570,6,222
9140,-296,-1952,328,604,17,204
9145,-208,-1912,296,648,31,183
9150,-216,-1832,384,696,44,143
9155,-184,-1728,336,759,58,103
9160,-224,-1648,288,827,73,61
9165,-200,-1552,248,886,90,16
9170,-272,-1416,168,943,105,-38
9175,-256,-1280,104,982,117,-92
9180,-232,-1136,32,1020,133,-134
9185,-224,-1024,-16,1037,162,-161
9190,-72,-920,-136,1031,203,-173
9195,-24,-824,-184,1011,253,-199
9200,-24,-704,-192,990,308,-230
9205,-32,-608,-272,979,358,-253
9210,24,-488,-296,978,393,-274
9215,64,-400,-320,971,422,-292
9220,152,-320,-408,954,452,-305
9225,160,-288,-448,921,486,-315
9230,216,-280,-488,857,513,-322
9235,248,-296,-520,758,527,-324
9240,232,-320,-584,626,535,-326
9245,232,-376,-616,484,529,-324
9250,88,-424,-728,353,500,-322
9255,-16,-488,-808,226,448,-315
9260,-216,-552,-928,108,376,-299
9265,-424,-648,-1112,-16,294,-276
9270,-616,-840,-1280,-169,211,-246
9275,-816,-944,-1416,-336,132,-204
9280,-1040,-1168,-1448,-504,55,-142
9285,-1232,-1512,-1488,-664,-9,-49
9290,-1384,-1928,-1320,-808,-58,65
9295,-1424,-2408,-1144,-915,-89,192
9300,-1352,-2712,-936,-994,-100,318
9305,-1136,-3080,-496,-1046,-108,435
9310,-856,-3448,64,-1050,-123,529
9315,-560,-3760,416,-1000,-142,557
9320,-264,-3824,856,-880,-152,510
9325,-24,-3800,1016,-649,-170,403
9330,192,-3576,928,-337,-197,260
9335,360,-3280,624,-32,-220,98
9340,472,-3032,120,199,-232,-75
9345,496,-2784,-376,319,-227,-245
9350,504,-2592,-672,331,-184,-393
9355,408,-2344,-944,246,-105,-522
9360,256,-2096,-1048,92,-8,-609
9365,112,-2000,-1032,-94,84,-651
9370,56,-1928,-984,-266,173,-653
9375,-72,-1928,-856,-405,263,-626
9380,-192,-2000,-688,-518,347,-573
9385,-256,-2160,-584,-608,399,-510
9390,-336,-2320,-520,-680,395,-444
9395,-328,-2432,-520,-752,340,-379
9400,-408,-2584,-512,-837,269,-322
9405,-360,-2728,-440,-919,192,-265
9410,-312,-2840,-248,-990,135,-215
9415,-216,-2992,-72,-1018,91,-180
9420,-240,-3072,8,-1014,58,-186
9425,-80,-3216,40,-1015,32,-204
9430,-16,-3280,176,-1046,19,-254
9435,-32,-3304,256,-1070,-2,-323
9440,-80,-3288,232,-1075,-30,-388
9445,-120,-3256,192,-1066,-57,-444
9450,-208,-3104,112,-1048,-80,-490
9455,-312,-2952,16,-1021,-96,-522
9460,-416,-2712,-24,-997,-116,-536
9465,-432,-2496,-80,-998,-150,-534
9470,-456,-2360,-88,-1028,-194,-526
9475,-512,-2160,-72,-1092,-243,-520
9480,-544,-2040,-80,-1164,-310,-505
9485,-600,-1864,-40,-1233,-380,-493
9490,-624,-1824,56,-1289,-452,-468
9495,-552,-1768,112,-1311,-566,-450
9500,-480,-1696,64,-1316,-648,-438
9505,-392,-1664,32,-1339,-703,-427
9510,-320,-1584,-16,-1412,-749,-418
9515,-256,-1584,24,-1516,-796,-413
9520,-224,-1536,32,-1631,-851,-413
9525,-256,-1512,48,-1744,-909,-411
9530,-256,-1480,96,-1854,-974,-409
9535,-344,-1456,200,-1959,-1045,-411
9540,-368,-1480,216,-2054,-1118,-420
9545,-440,-1496,272,-2127,-1188,-426
9550,-488,-1440,296,-2167,-1246,-419
9555,-512,-1352,264,-2183,-1290,-390
9560,-488,-1280,248,-2198,-1313,-343
9565,-448,-1192,216,-2207,-1319,-282
9570,-384,-1120,208,-2219,-1307,-212
9575,-320,-1024,184,-2237,-1291,-134
9580,-280,-912,128,-2253,-1277,-69
9585,-304,-792,112,-2287,-1277,6
9590,-272,-752,56,-2332,-1289,95
9595,-128,-712,0,-2372,-1299,183
9600,-24,-696,-104,-2392,-1290,268
9605,168,-696,-208,-2400,-1258,344
9610,312,-768,-296,-2421,-1195,400
9615,416,-888,-384,-2472,-1098,434
9620,456,-1016,-424,-2545,-986,438
9625,448,-1160,-392,-2635,-865,415
9630,464,-1304,-344,-2734,-739,376
9635,472,-1360,-232,-2829,-607,333
9640,488,-1440,-96,-2905,-469,285
9645,504,-1496,-8,-2953,-335,237
9650,352,-1432,64,-2981,-196,186
9655,152,-1368,184,-3001,-59,144
9660,-56,-1288,264,-3022,56,122
9665,-264,-1200,352,-3048,140,124
9670,-296,-1136,328,-3074,195,135
9675,-344,-1104,352,-3084,248,148
9680,-344,-1064,400,-3084,306,166
9685,-360,-1056,432,-3076,355,184
9690,-344,-1080,472,-3064,381,208
9695,-376,-1112,344,-3044,388,243
9700,-488,-1136,152,-3021,376,268
9705,-512,-1168,-88,-2995,340,290
9710,-544,-1160,-256,-2970,313,304
9715,-616,-1168,-392,-2946,312,310
9720,-696,-1208,-520,-2933,304,303
9725,-888,-1296,-560,-2943,283,293
9730,-1040,-1360,-648,-2953,247,284
9735,-1176,-1464,-776,-2945,193,290
9740,-1120,-1608,-896,-2927,70,291
9745,-1056,-1792,-1024,-2901,-63,293
9750,-1160,-1944,-1160,-2867,-156,292
9755,-1240,-2032,-1160,-2831,-216,295
9760,-1448,-2120,-1136,-2783,-277,338
9765,-1640,-2176,-1072,-2749,-331,413
9770,-1752,-2264,-968,-2771,-367,524
9775,-1688,-2328,-664,-2843,-399,673
9780,-1416,-2400,-368,-2888,-432,820
9785,-1160,-2288,-16,-2894,-456,896
9790,-872,-2088,312,-2885,-475,919
9795,-512,-1952,480,-2883,-501,927
9800,-240,-1800,472,-2885,-543,924
9805,56,-1576,448,-2874,-626,920
9810,312,-1448,200,-2868,-787,903
9815,464,-1424,-160,-2784,-902,855
9820,568,-1312,-640,-2495,-950,788
9825,624,-1224,-824,-1948,-878,700
9830,528,-1096,-560,-1492,-748,586
9835,368,-800,-152,-1136,-638,487
9840,344,-544,488,-968,-574,436
9845,280,-320,1104,-1047,-571,402
9850,360,-192,1432,-1307,-657,379
9855,248,-104,1352,-1623,-816,298
9860,104,-80,1168,-1805,-996,225
9865,40,-248,512,-1633,-1142,221
9870,-88,-72,112,-1165,-1231,252
9875,-328,296,-320,-495,-1310,296
9880,-616,768,-672,151,-1425,402
9885,-872,1120,-1344,615,-1572,588
9890,-912,1080,-2048,746,-1719,811
9895,-840,1024,-2232,504,-1884,1023
9900,-864,1304,-2240,189,-2027,1129
9905,-1048,1200,-2704,77,-2141,1139
9910,-992,-64,-4104,-324,-2269,1133
9915,-832,24,-3312,-1217,-2438,1103
9920,-864,720,-2288,-1671,-2594,1060
9925,-1504,888,-2080,-1362,-2749,1112
9930,-1928,880,-2136,-847,-2896,1342
9935,-1616,264,-2672,-591,-2963,1694
9940,-1192,-464,-3032,-698,-2985,1966
9945,-1048,-632,-2856,-973,-3056,2049
9950,-1000,-560,-2496,-1096,-3100,2025
9955,-904,-384,-1968,-1028,-3087,2012
9960,-816,-128,-1568,-836,-3054,1991
9965,-832,32,-1368,-599,-3015,1919
9970,-920,320,-1120,-369,-2950,1786
9975,-984,552,-1104,-167,-2864,1630
9980,-880,768,-1192,-3,-2738,1490
9985,-648,936,-1304,86,-2530,1391
9990,-464,984,-1432,70,-2223,1317
9995,-56,1000,-1696,-95,-1846,1226
10000,568,792,-1944,-390,-1404,1112
10005,1424,624,-2024,-730,-909,979
10010,2160,472,-1960,-1015,-375,832
10015,2512,344,-2040,-1214,210,645
10020,2904,240,-2112,-1255,839,357
10025,2768,232,-2408,-1000,1447,-14
10030,2056,640,-2896,-409,2024,-419
10035,1208,1320,-3320,533,2514,-647
10040,616,1640,-4672,1666,2936,-556
10045,-6840,7080,-22872,1568,4247,-7
10050,-12664,10048,-10520,-6406,10366,3299
10055,-1776,3280,1072,-12179,14235,7821
10060,3304,4384,-4152,-8806,11121,7269
10065,-3536,7496,-3288,-7832,6244,4278
10070,-912,4784,-880,-6716,2636,2287
10075,-1120,5400,-2904,-5597,896,908
10080,-672,3776,-5688,-5612,1004,-199
10085,-1696,3816,-7616,-6480,1260,-1378
10090,-2656,6256,-5728,-7720,1557,-1649
10095,-552,704,-7408,-8329,1714,-1567
10100,-2240,160,-6144,-9171,1885,-1930
10105,-3240,2440,-6576,-10133,1796,-1933
10110,-3112,2480,-5848,-11236,1759,-1512
10115,-3072,968,-4760,-12505,1853,-796
10120,-2976,1872,-3448,-13181,1766,-186
10125,-1720,776,-1312,-13019,1432,339
10130,-2008,672,-416,-12188,1470,714
10135,-1360,1712,-16,-11056,1440,817
10140,-1624,904,240,-9582,1399,1001
10145,-1008,1992,-320,-7782,1405,1256
10150,-896,2976,-880,-6226,1434,1325
10155,-680,3848,-792,-4724,1261,1185
10160,-888,3872,-504,-3306,1154,999
10165,-1024,3680,-864,-1740,1039,871
10170,-896,3064,-1368,-391,807,808
10175,-896,3040,-1296,1026,573,731
10180,-896,3432,-800,1883,432,637
10185,-696,3632,-304,1930,393,550
10190,-528,3056,-264,1611,405,413
10195,-400,2792,24,1475,410,192
10200,-304,2632,320,1396,362,6
10205,-208,2208,352,1268,312,-105
10210,-96,1632,512,1385,310,-168
10215,-136,1752,616,1765,327,-211
10220,24,1864,456,1948,390,-173
10225,48,2216,416,1876,454,-130
10230,48,2448,376,1615,471,-108
10235,112,2360,320,1278,448,-87
10240,72,2184,352,1060,412,-64
10245,192,2072,248,1017,401,-41
10250,136,1896,152,1083,402,-46
10255,96,1944,-24,1152,392,-71
10260,8,1832,-152,1128,361,-85
10265,-128,1696,-248,1070,325,-88
10270,-208,1600,-272,1038,286,-60
10275,-216,1528,-208,1010,240,-5
10280,-296,1632,-200,991,177,54
10285,-352,1880,-120,940,96,96
10290,-328,1856,-64,858,-6,114
10295,-240,1904,-56,849,-114,112
10300,-296,1968,-40,891,-209,96
10305,-128,2128,8,859,-277,70
10310,8,2200,0,703,-320,57
10315,-24,2096,-32,521,-349,53
10320,248,2048,-136,366,-372,60
10325,392,1920,-200,239,-377,49
10330,416,1792,-248,117,-376,24
10335,400,1712,-360,26,-382,-8
10340,352,1712,-472,-46,-375,-44
10345,336,1704,-560,-95,-362,-62
10350,328,1832,-536,-137,-334,-71
10355,448,1824,-688,-240,-311,-45
10360,152,1712,-696,-244,-224,-85
10365,-48,1768,-768,-85,-200,-149
10370,-80,1792,-800,78,-187,-177
10375,-168,1904,-808,206,-173,-177
10380,-224,2016,-776,304,-157,-164
10385,-272,2104,-736,380,-144,-148
10390,-288,2120,-808,453,-132,-138
10395,-296,2144,-808,522,-122,-138
10400,-312,2096,-816,585,-113,-142
10405,-320,2072,-856,651,-105,-153
10410,-368,2048,-944,720,-99,-166
10415,-328,1888,-968,800,-98,-186
10420,-352,1840,-1032,888,-100,-204
10425,-328,1816,-1088,980,-106,-228
10430,-296,1800,-1136,1063,-118,-250
10435,-320,1824,-1168,1128,-128,-270
10440,-344,1832,-1176,1182,-136,-286
10445,-320,1840,-1224,1228,-142,-302
10450,-352,1784,-1296,1263,-149,-316
10455,-392,1760,-1352,1287,-162,-335
10460,-376,1696,-1328,1303,-174,-352
10465,-448,1688,-1480,1306,-190,-371
10470,-512,1704,-1544,1287,-204,-390
10475,-448,1640,-1496,1263,-217,-410
10480,-456,1640,-1544,1233,-238,-430
10485,-496,1600,-1520,1204,-259,-448
10490,-504,1600,-1496,1175,-277,-467
10495,-504,1552,-1424,1152,-290,-482
10500,-520,1560,-1408,1136,-299,-492
10505,-536,1552,-1312,1134,-303,-495
10510,-616,1568,-1304,1142,-298,-489
10515,-584,1552,-1312,1156,-289,-475
10520,-584,1536,-1352,1165,-277,-457
10525,-584,1528,-1400,1167,-265,-439
10530,-568,1496,-1464,1158,-253,-417
10535,-560,1456,-1456,1142,-241,-399
10540,-544,1488,-1456,1125,-232,-385
10545,-560,1424,-1464,1094,-219,-364
10550,-536,1424,-1472,1066,-206,-348
10555,-536,1384,-1456,1030,-193,-335
10560,-520,1328,-1528,991,-180,-322
10565,-520,1328,-1512,956,-172,-314
10570,-512,1280,-1568,912,-168,-311
10575,-504,1304,-1552,852,-165,-312
10580,-504,1256,-1592,784,-167,-311
10585,-448,1232,-1576,708,-172,-315
10590,-488,1232,-1536,623,-180,-322
10595,-520,1216,-1472,546,-177,-325
10600,-536,1240,-1448,486,-173,-319
10605,-552,1248,-1480,432,-166,-306
10610,-592,1248,-1472,395,-155,-288
10615,-592,1280,-1520,358,-148,-273
10620,-560,1256,-1512,317,-146,-262
10625,-584,1312,-1536,281,-151,-255
10630,-600,1296,-1520,242,-155,-246
10635,-552,1280,-1544,214,-160,-238
10640,-648,1280,-1464,177,-160,-228
10645,-624,1288,-1512,148,-155,-219
10650,-624,1272,-1504,133,-152,-208
10655,-608,1280,-1520,111,-148,-197
10660,-624,1328,-1544,89,-149,-191
10665,-600,1320,-1576,72,-152,-186
10670,-592,1360,-1536,57,-155,-184
10675,-592,1344,-1488,41,-157,-181
10680,-584,1352,-1528,24,-154,-172
10685,-608,1368,-1512,9,-148,-159
10690,-616,1368,-1496,-5,-146,-152
10695,-600,1328,-1480,-16,-144,-145
10700,-616,1320,-1416,-27,-142,-135
10705,-648,1296,-1432,-34,-139,-124
10710,-664,1256,-1352,-25,-145,-106
10715,-696,1192,-1376,2,-154,-81
10720,-624,992,-1432,75,-174,-51
10725,-688,1144,-1432,225,-177,-42
10730,-616,1184,-1440,269,-158,-33
10735,-640,1224,-1416,293,-148,-22
10740,-600,1376,-1416,315,-149,-15
10745,-608,1024,-1488,308,-146,-6
10750,-672,1496,-1440,388,-147,-13
10755,-584,952,-1432,324,-139,12
10760,-672,1480,-1440,419,-124,-13
10765,-584,1576,-1440,376,-125,16
10770,-512,1728,-1448,246,-114,37
10775,-496,1472,-1424,69,-94,31
10780,-584,1384,-1448,-1,-70,-14
10785,-672,1312,-1432,-5,-63,-44
10790,-664,1280,-1440,2,-56,-51
10795,-672,1272,-1416,9,-47,-51
10800,-664,1288,-1368,18,-38,-46
10805,-672,1304,-1360,26,-29,-40
10810,-688,1280,-1376,32,-18,-27
10815,-816,1168,-1280,42,-7,-13
10820,-600,1240,-1400,83,-14,13
10825,-672,1312,-1344,76,19,16
10830,-688,1320,-1328,70,46,18
10835,-664,1320,-1352,75,62,22
10840,-664,1288,-1328,84,75,26
10845,-664,1272,-1336,100,85,28
10850,-640,1288,-1336,110,96,34
10855,-632,1272,-1368,121,104,38
10860,-656,1304,-1368,134,115,44
10865,-640,1320,-1368,146,126,51
10870,-656,1304,-1392,158,137,55
10875,-608,1304,-1384,169,146,59
10880,-656,1288,-1400,177,152,60
10885,-632,1288,-1416,186,159,63
10890,-632,1280,-1416,194,164,63
10895,-640,1280,-1424,202,172,65
10900,-624,1264,-1472,208,176,68
10905,-616,1288,-1424,211,180,72
10910,-608,1264,-1400,213,187,77
10915,-632,1232,-1416,223,187,78
10920,-608,1216,-1440,240,188,78
10925,-608,1208,-1400,262,189,82
10930,-608,1248,-1432,290,195,91
10935,-688,1336,-1392,322,203,110
10940,-624,1472,-1248,394,228,152
10945,-504,1296,-1408,488,233,176
10950,-496,1240,-1568,515,220,169
10955,-512,1240,-1544,496,206,152
10960,-424,1184,-1344,462,190,130
10965,-560,1144,-1544,427,167,110
10970,-560,1168,-1560,381,151,101
10975,-552,1192,-1544,325,148,95
10980,-504,1216,-1544,269,145,94
10985,-488,1280,-1544,221,136,86
10990,-520,1256,-1544,191,124,75
10995,-544,1256,-1568,177,110,59
11000,-504,1272,-1544,182,92,44
11005,-552,1264,-1576,188,81,30
11010,-528,1264,-1584,188,69,20
11015,-520,1296,-1568,180,62,18
11020,-520,1288,-1576,172,54,13
11025,-512,1312,-1568,167,44,6
11030,-536,1296,-1600,164,35,0
11035,-544,1304,-1592,164,25,-6
11040,-536,1296,-1592,163,15,-13
11045,-528,1256,-1592,162,4,-19
11050,-528,1272,-1624,157,-8,-27
11055,-568,1328,-1616,154,-17,-32
11060,-512,1296,-1616,149,-26,-36
11065,-512,1328,-1568,148,-35,-40
11070,-496,1272,-1584,140,-48,-49
11075,-520,1256,-1536,124,-60,-61
11080,-536,1240,-1512,116,-70,-72
11085,-520,1224,-1528,114,-79,-80
11090,-544,1240,-1512,113,-87,-87
11095,-536,1224,-1520,112,-93,-93
11100,-552,1216,-1512,117,-98,-100
11105,-560,1224,-1504,122,-102,-104
11110,-536,1224,-1552,129,-104,-106
11115,-592,1280,-1528,130,-104,-106
11120,-560,1256,-1504,129,-105,-107
11125,-560,1264,-1520,129,-105,-107
11130,-568,1248,-1512,128,-104,-109
11135,-592,1224,-1552,133,-107,-116
11140,-616,1208,-1520,141,-108,-118
11145,-584,1224,-1512,137,-103,-114
11150,-584,1248,-1496,128,-94,-107
11155,-592,1216,-1480,131,-91,-105
11160,-592,1208,-1496,139,-91,-105
11165,-608,1208,-1472,139,-87,-102
11170,-576,1176,-1512,138,-83,-99
11175,-592,1128,-1472,140,-82,-100
11180,-600,1136,-1472,141,-82,-99
11185,-576,1144,-1488,138,-82,-97
11190,-592,1128,-1496,132,-78,-91
11195,-568,1144,-1440,125,-75,-86
11200,-592,1192,-1488,117,-73,-81
11205,-616,1176,-1472,110,-69,-75
11210,-584,1160,-1480,104,-67,-70
11215,-616,1160,-1480,102,-65,-68
11220,-608,1216,-1456,101,-63,-67
11225,-624,1184,-1456,100,-59,-62
11230,-624,1184,-1472,101,-55,-62
11235,-640,1160,-1488,102,-51,-62
11240,-656,1176,-1504,104,-45,-57
11245,-656,1184,-1528,108,-38,-55
11250,-656,1176,-1512,110,-33,-52
11255,-696,1184,-1520,112,-28,-49
11260,-616,1168,-1464,128,-16,-51
11265,-648,1192,-1552,129,-13,-45
11270,-656,1192,-1544,124,-8,-41
11275,-672,1224,-1552,115,-2,-33
11280,-624,1224,-1536,107,5,-26
11285,-640,1208,-1536,99,9,-18
11290,-632,1232,-1552,93,14,-15
11295,-648,1216,-1536,90,18,-8
11300,-664,1200,-1544,87,25,-2
11305,-624,1184,-1544,83,30,3
11310,-648,1200,-1536,78,34,7
11315,-656,1200,-1568,75,36,12
11320,-640,1208,-1536,68,39,14
11325,-648,1192,-1544,64,41,17
11330,-624,1184,-1544,59,45,20
11335,-624,1192,-1560,57,46,23
11340,-616,1192,-1544,55,48,23
11345,-592,1208,-1536,55,48,25
11350,-584,1232,-1544,55,46,23
11355,-616,1200,-1544,55,47,25
11360,-592,1192,-1552,57,46,24
11365,-584,1232,-1552,57,46,23
11370,-608,1192,-1544,55,47,23
11375,-576,1216,-1544,54,44,23
11380,-600,1184,-1544,52,42,21
11385,-592,1224,-1528,51,38,20
11390,-592,1224,-1536,51,36,17
11395,-576,1184,-1544,51,31,15
11400,-616,1224,-1528,50,29,12
11405,-584,1216,-1544,48,23,10
11410,-576,1184,-1536,46,19,5
11415,-584,1200,-1528,42,14,1
11420,-592,1200,-1544,38,10,0
11425,-624,1192,-1520,34,7,0
11430,-576,1224,-1552,30,3,-1
11435,-584,1208,-1552,26,1,-2
11440,-584,1208,-1512,23,0,-2
11445,-600,1216,-1536,21,-2,-4
11450,-600,1192,-1520,18,-5,-5
11455,-592,1184,-1544,16,-8,-5
11460,-600,1200,-1536,15,-8,-5
11465,-616,1176,-1544,14,-9,-5
11470,-608,1168,-1544,10,-10,-4
11475,-600,1168,-1504,5,-9,-5
11480,-608,1224,-1512,-1,-11,-3
11485,-608,1200,-1536,1,-12,-4
11490,-608,1184,-1512,6,-12,-6
11495,-608,1232,-1520,7,-12,-7
11500,-600,1208,-1528,10,-10,-9
11505,-600,1216,-1512,13,-9,-9
11510,-616,1208,-1544,19,-9,-8
11515,-608,1208,-1512,22,-8,-10
11520,-608,1216,-1520,24,-7,-11
11525,-624,1208,-1528,29,-7,-15
11530,-616,1200,-1488,32,-7,-14
11535,-624,1208,-1528,36,-6,-15
11540,-616,1200,-1520,40,-4,-14
11545,-616,1208,-1544,43,-1,-14
11550,-608,1192,-1512,46,0,-16
11555,-624,1224,-1544,47,0,-15
11560,-632,1216,-1520,51,2,-16
11565,-616,1176,-1504,53,4,-13
11570,-600,1208,-1528,55,6,-14
11575,-624,1216,-1512,57,9,-14
11580,-576,1216,-1552,60,10,-12
11585,-608,1216,-1520,60,11,-14
11590,-616,1208,-1504,61,12,-13
11595,-608,1200,-1512,64,12,-11
11600,-608,1184,-1528,66,12,-11
11605,-640,1200,-1520,67,10,-13
11610,-616,1184,-1544,69,12,-15
11615,-608,1192,-1528,71,14,-13
11620,-640,1192,-1536,74,16,-13
11625,-640,1224,-1536,75,19,-10
11630,-608,1200,-1520,74,22,-9
11635,-616,1216,-1528,73,26,-6
11640,-640,1168,-1552,72,28,-2
11645,-600,1208,-1528,70,31,0
11650,-608,1184,-1528,69,32,2
11655,-616,1208,-1520,67,32,2
11660,-592,1208,-1536,68,34,4
11665,-608,1224,-1504,68,35,5
11670,-616,1208,-1544,68,36,4
11675,-624,1208,-1512,70,33,4
11680,-608,1208,-1536,70,32,2
11685,-624,1216,-1520,71,29,1
11690,-608,1200,-1520,72,29,0
11695,-608,1200,-1512,74,27,-1
11700,-616,1184,-1512,74,28,0
11705,-616,1192,-1528,74,30,0
11710,-616,1200,-1528,72,31,2
11715,-616,1208,-1528,70,31,2
11720,-616,1216,-1544,69,31,2
11725,-608,1224,-1536,66,29,1
11730,-616,1224,-1552,64,27,1
11735,-616,1216,-1568,60,25,0
11740,-616,1216,-1528,57,24,-1
11745,-448,1272,-1480,55,24,-1
11750,-632,1184,-1552,52,24,0
11755,-600,1216,-1544,51,24,0
11760,-616,1216,-1528,49,24,1
11765,-600,1224,-1520,46,22,1
11770,-624,1224,-1544,45,22,3
11775,-592,1208,-1536,42,21,0
11780,-600,1200,-1536,43,21,2
11785,-584,1208,-1536,43,19,1
11790,-592,1200,-1536,43,18,2
11795,-616,1208,-1536,42,19,2
11800,-584,1192,-1544,41,20,0
11805,-576,1176,-1512,41,20,3
11810,-608,1200,-1528,40,20,3
11815,-624,1208,-1528,39,21,2
11820,-624,1240,-1536,38,21,1
11825,-576,1200,-1512,38,22,1
11830,-600,1216,-1544,39,21,1
11835,-608,1216,-1520,36,19,-1
11840,-608,1216,-1528,37,18,-1
11845,-600,1216,-1528,37,15,-3
11850,-600,1216,-1512,38,13,-6
11855,-608,1200,-1544,38,11,-8
11860,-624,1208,-1536,39,10,-9
11865,-584,1216,-1544,41,7,-12
11870,-592,1184,-1536,43,6,-12
11875,-592,1208,-1504,46,6,-13
11880,-616,1216,-1520,48,7,-12
11885,-616,1208,-1528,50,7,-11
11890,-584,1192,-1512,50,7,-14
11895,-616,1208,-1512,49,7,-12
11900,-600,1216,-1520,49,6,-13
11905,-584,1192,-1504,52,4,-15
11910,-616,1208,-1536,54,2,-18
11915,-616,1224,-1520,57,0,-20
11920,-616,1232,-1496,59,-1,-20
11925,-608,1216,-1496,60,-2,-21
11930,-608,1216,-1568,61,0,-22
11935,-600,1216,-1520,62,2,-20
11940,-616,1208,-1528,64,2,-19
11945,-616,1224,-1512,62,1,-19
11950,-632,1216,-1536,63,3,-18
11955,-592,1200,-1480,71,8,-21
11960,-544,1184,-1440,71,4,-19
11965,-608,1208,-1544,67,4,-16
11970,-640,1224,-1536,64,6,-15
11975,-616,1232,-1544,63,7,-14
11980,-624,1208,-1520,61,8,-13
11985,-648,1192,-1512,58,9,-11
11990,-616,1192,-1496,55,11,-10
11995,-608,1168,-1512,51,12,-9
12000,-600,1192,-1496,52,14,-8
12005,-608,1200,-1488,56,17,-5
12010,-592,1184,-1520,59,20,-4
12015,-624,1184,-1504,61,23,-4
12020,-600,1192,-1512,64,25,-2
12025,-592,1184,-1528,65,26,0
12030,-592,1192,-1528,64,27,1
12035,-616,1192,-1528,63,28,2
12040,-624,1208,-1536,62,28,1
12045,-600,1192,-1544,61,30,2
12050,-608,1216,-1520,59,32,5
12055,-624,1200,-1528,61,34,8
12060,-608,1192,-1512,60,34,9
12065,-616,1200,-1536,61,35,10
12070,-632,1192,-1528,62,34,10
12075,-608,1208,-1528,63,36,10
12080,-616,1176,-1552,65,35,9
12085,-600,1192,-1520,65,34,11
12090,-592,1176,-1512,67,35,12
12095,-592,1192,-1504,69,35,10
12100,-600,1208,-1528,70,36,11
12105,-592,1216,-1528,72,36,12
12110,-600,1208,-1536,71,36,11
12115,-592,1200,-1544,72,35,9
12120,-600,1216,-1520,73,33,8
12125,-536,1248,-1544,75,32,8
12130,-608,1192,-1536,77,32,6
12135,-600,1200,-1544,77,31,5
12140,-592,1192,-1536,80,30,6
12145,-576,1216,-1528,81,30,6
12150,-568,1192,-1528,79,30,4
12155,-584,1224,-1528,78,30,3
12160,-592,1192,-1568,78,29,3
12165,-600,1184,-1536,77,30,3
12170,-592,1192,-1520,78,29,2
12175,-600,1192,-1520,78,28,3
12180,-592,1192,-1528,79,29,3
12185,-592,1208,-1544,80,30,3
12190,-576,1176,-1528,82,30,3
12195,-568,1176,-1512,82,30,1
12200,-576,1192,-1536,82,28,0
12205,-592,1200,-1536,81,28,1
12210,-608,1200,-1552,78,27,1
12215,-568,1176,-1536,74,26,-1
12220,-584,1184,-1544,72,25,-1
12225,-584,1216,-1552,69,23,-3
12230,-568,1192,-1552,65,22,-4
12235,-592,1168,-1552,65,23,-3
12240,-592,1208,-1560,63,23,-3
12245,-584,1200,-1544,60,23,-3
12250,-608,1200,-1552,59,22,-5
12255,-592,1200,-1536,58,21,-5
12260,-592,1184,-1568,59,19,-6
12265,-600,1192,-1536,59,17,-7
12270,-592,1168,-1544,59,15,-6
12275,-600,1200,-1528,61,16,-8
12280,-584,1184,-1536,62,16,-8
12285,-576,1176,-1520,61,14,-8
12290,-584,1208,-1544,62,14,-7
12295,-608,1224,-1512,63,12,-11
12300,-608,1216,-1536,64,12,-11
12305,-592,1208,-1568,62,12,-12
12310,-600,1200,-1536,61,12,-12
12315,-592,1200,-1536,62,12,-11
12320,-608,1192,-1544,62,13,-10
12325,-608,1184,-1520,63,13,-10
12330,-624,1216,-1552,62,15,-9
12335,-608,1184,-1536,61,17,-7
12340,-592,1184,-1528,61,16,-7
12345,-592,1200,-1528,61,16,-7
12350,-616,1216,-1552,61,16,-8
12355,-592,1192,-1512,59,17,-9
12360,-592,1176,-1520,61,15,-8
12365,-616,1184,-1520,60,14,-7
12370,-600,1200,-1568,59,15,-10
12375,-608,1192,-1528,58,16,-10
12380,-624,1200,-1544,57,16,-11
12385,-560,1184,-1528,58,16,-10
12390,-584,1168,-1536,57,15,-9
12395,-592,1208,-1544,57,16,-10
12400,-600,1192,-1528,55,16,-8
12405,-608,1200,-1528,53,16,-8
12410,-608,1216,-1536,52,18,-7
12415,-568,1176,-1552,52,16,-6
12420,-600,1240,-1544,51,18,-6
12425,-592,1168,-1536,49,19,-6
12430,-592,1176,-1504,48,20,-6
12435,-600,1184,-1544,47,21,-7
12440,-600,1192,-1528,47,21,-7
12445,-600,1192,-1536,46,22,-5
12450,-600,1192,-1560,46,23,-4
12455,-584,1200,-1552,46,24,-5
12460,-600,1192,-1544,45,23,-4
12465,-592,1200,-1544,43,24,-3
12470,-584,1200,-1536,42,24,-2
12475,-608,1184,-1552,43,24,-4
12480,-600,1216,-1552,42,24,-3
12485,-576,1192,-1536,42,24,-4
12490,-576,1200,-1536,42,25,-4
12495,-600,1200,-1544,40,25,-2
12500,-584,1176,-1552,41,23,-2
12505,-584,1176,-1480,40,23,-3
12510,-608,1208,-1536,41,22,-2
12515,-592,1224,-1536,41,22,-4
12520,-576,1208,-1536,40,21,-4
12525,-552,1232,-1552,42,19,-5
12530,-584,1232,-1536,40,19,-4
12535,-600,1216,-1568,41,19,-4
12540,-584,1192,-1552,40,20,-5
12545,-600,1184,-1536,38,20,-5
12550,-584,1160,-1552,37,20,-6
12555,-600,1176,-1544,33,17,-5
12560,-616,1192,-1536,34,16,-5
12565,-592,1168,-1536,40,16,-7
12570,-576,1168,-1512,42,14,-9
12575,-592,1200,-1528,45,13,-9
12580,-584,1216,-1536,46,13,-8
12585,-584,1208,-1536,48,13,-10
12590,-576,1200,-1520,50,14,-9
12595,-584,1192,-1552,51,16,-9
12600,-568,1216,-1536,49,17,-7
12605,-600,1192,-1528,49,16,-7
12610,-568,1192,-1528,51,16,-7
12615,-568,1184,-1528,52,15,-8
12620,-592,1192,-1520,55,16,-8
12625,-568,1176,-1520,57,16,-7
12630,-600,1168,-1544,60,16,-7
12635,-584,1192,-1552,60,17,-7
12640,-552,1200,-1544,61,19,-5
12645,-608,1216,-1528,60,18,-8
12650,-568,1240,-1520,62,18,-7
12655,-608,1192,-1544,61,20,-6
12660,-560,1184,-1536,63,19,-6
12665,-576,1208,-1552,63,18,-5
12670,-592,1184,-1552,62,18,-5
12675,-584,1200,-1544,62,16,-7
12680,-592,1200,-1536,62,15,-8
12685,-576,1184,-1536,63,16,-7
12690,-592,1200,-1520,65,17,-8
12695,-568,1176,-1536,65,17,-7
12700,-592,1200,-1520,65,17,-8
12705,-600,1200,-1552,66,17,-8
12710,-592,1200,-1536,65,16,-10
12715,-592,1184,-1536,62,14,-9
12720,-584,1176,-1536,62,14,-11
12725,-560,1152,-1536,62,13,-10
12730,-592,1192,-1536,61,14,-11
12735,-576,1200,-1536,63,13,-8
12740,-592,1192,-1560,63,13,-8
12745,-600,1216,-1536,64,13,-10
12750,-576,1200,-1560,64,12,-10
12755,-592,1200,-1544,64,12,-10
12760,-592,1184,-1560,64,12,-10
12765,-600,1184,-1544,62,11,-11
12770,-600,1192,-1552,62,11,-12
12775,-576,1200,-1552,62,12,-13
12780,-560,1200,-1528,62,12,-11
12785,-616,1168,-1528,61,13,-11
12790,-576,1208,-1536,60,13,-12
12795,-576,1184,-1560,60,14,-11
12800,-568,1184,-1528,59,12,-11
12805,-576,1176,-1552,59,14,-11
12810,-576,1208,-1528,60,13,-10
12815,-560,1176,-1528,62,13,-10
12820,-592,1176,-1512,60,13,-12
12825,-592,1184,-1512,61,14,-10
12830,-568,1184,-1560,60,14,-10
12835,-576,1184,-1552,61,14,-9
12840,-576,1192,-1552,61,16,-10
12845,-592,1200,-1528,62,15,-9
12850,-592,1168,-1528,63,16,-9
12855,-576,1192,-1536,64,16,-8
12860,-592,1200,-1544,65,18,-8
12865,-584,1208,-1552,65,18,-7
12870,-560,1176,-1552,65,20,-7
12875,-576,1168,-1536,65,20,-6
12880,-584,1192,-1528,65,19,-5
12885,-560,1176,-1528,67,19,-6
12890,-568,1184,-1512,69,19,-7
12895,-560,1184,-1536,72,20,-6
12900,-600,1200,-1544,73,21,-7
12905,-600,1200,-1552,75,21,-7
12910,-576,1192,-1544,75,22,-6
12915,-576,1208,-1528,74,21,-9
12920,-584,1176,-1528,76,20,-6
12925,-608,1192,-1512,74,21,-6
12930,-568,1184,-1552,74,20,-5
12935,-600,1192,-1544,75,22,-6
12940,-576,1192,-1520,74,22,-6
12945,-584,1208,-1544,74,24,-5
12950,-584,1232,-1544,72,24,-6
12955,-592,1184,-1536,71,24,-3
12960,-576,1184,-1544,71,25,-4
12965,-576,1176,-1536,71,25,-5
12970,-608,1200,-1528,72,26,-3
12975,-584,1184,-1536,72,27,-3
12980,-584,1160,-1576,71,26,-1
12985,-592,1168,-1536,71,27,-2
12990,-568,1200,-1536,72,28,0
12995,-584,1184,-1528,72,28,-2
13000,-576,1176,-1544,72,30,0
13005,-600,1176,-1536,75,29,0
13010,-568,1168,-1552,76,29,-2
13015,-584,1192,-1536,76,30,0
13020,-600,1184,-1544,78,30,0
13025,-592,1192,-1536,77,31,0
13030,-608,1208,-1544,78,30,-1
13035,-568,1192,-1536,77,30,-2
13040,-584,1184,-1560,79,29,-2
13045,-576,1192,-1552,78,27,-3
13050,-584,1160,-1552,77,26,-2
13055,-560,1192,-1552,76,27,-2
13060,-584,1208,-1552,74,26,-2
13065,-592,1176,-1560,72,26,-4
13070,-584,1208,-1560,70,24,-3
13075,-576,1176,-1552,67,21,-5
13080,-592,1216,-1544,66,21,-5
13085,-568,1160,-1536,63,18,-7
13090,-576,1200,-1576,61,17,-8
13095,-560,1168,-1528,61,17,-8
13100,-584,1168,-1560,62,16,-7
13105,-592,1192,-1568,63,15,-11
13110,-592,1200,-1560,61,15,-10
13115,-600,1168,-1536,57,13,-11
13120,-568,1168,-1544,53,11,-9
13125,-568,1176,-1544,48,10,-11
13130,-592,1200,-1552,44,9,-13
13135,-592,1208,-1528,49,9,-12
13140,-584,1168,-1520,53,9,-12
13145,-584,1176,-1520,54,11,-12
13150,-560,1168,-1528,57,13,-11
13155,-584,1176,-1544,57,12,-11
13160,-584,1176,-1560,58,14,-10
13165,-568,1168,-1560,59,13,-11
13170,-592,1192,-1528,60,13,-9
13175,-568,1192,-1552,60,13,-10
13180,-576,1208,-1536,60,14,-10
13185,-560,1176,-1552,61,14,-9
13190,-568,1160,-1536,63,16,-7
13195,-568,1184,-1544,65,17,-10
13200,-592,1192,-1544,67,18,-8
13205,-600,1200,-1520,67,19,-8
13210,-576,1216,-1544,70,20,-8
13215,-584,1208,-1560,71,19,-7
13220,-576,1200,-1560,71,21,-7
13225,-592,1184,-1552,71,20,-6
13230,-576,1184,-1560,70,20,-5
13235,-584,1184,-1536,68,20,-7
13240,-576,1176,-1536,68,20,-6
13245,-576,1200,-1552,65,21,-7
13250,-576,1200,-1560,63,22,-7
13255,-568,1168,-1544,64,20,-9
13260,-592,1168,-1544,63,18,-6
13265,-600,1192,-1552,63,19,-8
13270,-560,1168,-1552,63,18,-9
13275,-568,1168,-1560,64,17,-9
13280,-584,1184,-1544,63,18,-9
13285,-568,1176,-1528,63,17,-9
13290,-568,1184,-1584,62,18,-9
13295,-576,1208,-1552,61,16,-7
13300,-568,1184,-1536,60,18,-7
13305,-552,1176,-1560,60,17,-8
13310,-568,1192,-1552,57,18,-9
13315,-584,1184,-1576,54,16,-8
13320,-576,1192,-1560,54,14,-8
13325,-576,1200,-1528,54,16,-9
13330,-576,1184,-1520,54,13,-9
13335,-568,1160,-1560,54,12,-10
13340,-552,1168,-1520,53,12,-10
13345,-552,1184,-1544,52,12,-9
13350,-552,1176,-1536,53,12,-9
13355,-552,1176,-1536,52,12,-9
13360,-584,1168,-1544,52,13,-9
13365,-568,1152,-1544,52,13,-9
13370,-592,1176,-1536,53,13,-10
13375,-592,1192,-1544,53,11,-13
13380,-584,1168,-1552,53,10,-14
13385,-576,1144,-1560,54,8,-13
13390,-576,1200,-1536,53,7,-14
13395,-544,1184,-1560,53,8,-13
13400,-576,1176,-1568,53,9,-13
13405,-568,1168,-1544,54,9,-13
13410,-600,1160,-1544,54,8,-13
13415,-592,1208,-1552,56,10,-12
13420,-560,1168,-1544,54,9,-11
13425,-584,1208,-1560,53,8,-12
13430,-592,1176,-1560,53,9,-13
13435,-576,1168,-1584,52,8,-12
13440,-600,1168,-1560,51,8,-13
13445,-576,1176,-1528,51,8,-12
13450,-584,1184,-1544,51,10,-12
13455,-576,1192,-1544,53,11,-11
13460,-592,1192,-1560,53,12,-12
13465,-600,1208,-1568,56,13,-9
13470,-584,1176,-1536,54,13,-11
13475,-576,1168,-1544,53,14,-11
13480,-568,1200,-1536,52,15,-10
13485,-560,1176,-1544,50,14,-11
13490,-576,1216,-1560,49,13,-11
13495,-560,1200,-1544,50,14,-11
13500,-584,1200,-1536,51,13,-11
13505,-592,1184,-1544,52,13,-10
13510,-584,1200,-1584,51,14,-9
13515,-592,1208,-1560,53,14,-10
13520,-584,1192,-1552,52,15,-9
13525,-568,1160,-1536,51,16,-8
13530,-560,1176,-1552,52,16,-8
13535,-584,1192,-1544,52,15,-8
13540,-592,1192,-1560,54,16,-8
13545,-568,1168,-1552,55,17,-7
13550,-576,1176,-1560,56,17,-8
13555,-576,1192,-1560,56,17,-9
13560,-584,1160,-1552,56,15,-7
13565,-568,1184,-1568,56,15,-8
13570,-560,1160,-1544,56,17,-7
13575,-608,1192,-1552,56,18,-9
13580,-584,1200,-1544,56,18,-7
13585,-568,1160,-1560,56,18,-7
13590,-576,1192,-1560,57,17,-9
13595,-584,1168,-1544,55,17,-9
13600,-584,1176,-1544,54,17,-8
13605,-592,1192,-1560,54,17,-8
13610,-584,1192,-1568,56,19,-7
13615,-552,1184,-1552,55,20,-8
13620,-568,1184,-1552,54,20,-5
13625,-568,1168,-1560,55,22,-5
13630,-576,1184,-1528,56,21,-5
13635,-584,1160,-1560,58,20,-7
13640,-592,1168,-1576,58,22,-8
13645,-584,1168,-1544,59,21,-8
13650,-592,1192,-1552,60,18,-10
13655,-592,1176,-1568,59,18,-10
13660,-576,1192,-1568,58,19,-8
13665,-584,1168,-1552,57,20,-8
13670,-576,1184,-1560,57,21,-7
13675,-568,1200,-1544,56,20,-7
13680,-544,1184,-1552,56,18,-6
13685,-560,1184,-1544,56,18,-8
13690,-576,1184,-1552,55,17,-10
13695,-560,1160,-1576,54,16,-11
13700,-576,1184,-1560,55,15,-10
13705,-576,1168,-1560,54,15,-9
13710,-568,1144,-1568,52,15,-10
13715,-568,1152,-1560,53,14,-11
13720,-584,1160,-1560,53,13,-11
13725,-576,1208,-1528,45,13,-10
13730,-528,1232,-1528,36,13,-7
13735,-560,1208,-1536,35,14,-6
13740,-584,1192,-1552,40,15,-7
13745,-600,1176,-1576,41,15,-9
13750,-600,1176,-1568,39,15,-11
13755,-600,1176,-1568,40,14,-12
13760,-584,1152,-1552,42,11,-11
13765,-544,1152,-1536,41,11,-10
13770,-544,1168,-1520,40,12,-7
13775,-528,1192,-1536,39,15,-4
13780,-560,1192,-1512,40,17,-4
13785,-544,1176,-1560,43,17,-5
13790,-552,1208,-1552,45,18,-5
13795,-568,1160,-1536,46,19,-5
13800,-576,1184,-1528,46,18,-5
13805,-576,1200,-1552,46,20,-7
13810,-560,1184,-1544,47,20,-6
13815,-568,1088,-1552,49,20,-6
13820,-568,1184,-1552,49,20,-5
13825,-560,1192,-1536,51,22,-3
13830,-568,1200,-1552,53,22,-3
13835,-552,1160,-1552,52,23,-2
13840,-560,1168,-1552,53,24,-3
13845,-568,1176,-1560,54,26,-2
13850,-576,1184,-1536,55,25,-4
13855,-560,1200,-1552,56,23,-5
13860,-568,1184,-1544,55,22,-6
13865,-600,1192,-1528,57,21,-7
13870,-576,1200,-1544,56,19,-7
13875,-552,1192,-1528,58,18,-8
13880,-560,1184,-1544,59,17,-8
13885,-552,1176,-1560,59,16,-9
13890,-552,1160,-1528,60,15,-9
13895,-576,1184,-1536,59,15,-10
13900,-536,1184,-1536,59,14,-11
13905,-576,1192,-1552,58,14,-11
13910,-576,1184,-1528,59,14,-11
13915,-576,1160,-1544,57,13,-11
13920,-576,1168,-1552,57,13,-11
13925,-576,1200,-1552,56,12,-11
13930,-544,1176,-1560,57,12,-13
13935,-552,1168,-1584,56,10,-11
13940,-584,1200,-1560,55,10,-11
13945,-568,1184,-1528,53,10,-13
13950,-568,1184,-1568,52,9,-13
13955,-568,1160,-1552,52,11,-12
13960,-552,1184,-1552,51,11,-12
13965,-576,1152,-1544,49,10,-12
13970,-584,1176,-1552,48,8,-13
13975,-560,1176,-1568,49,10,-13
13980,-584,1176,-1568,48,9,-13
13985,-568,1176,-1544,48,9,-13
13990,-584,1168,-1568,50,8,-12
13995,-568,1184,-1544,48,9,-12
14000,-584,1192,-1560,49,10,-11
14005,-560,1168,-1552,48,10,-11
14010,-568,1160,-1504,49,9,-11
14015,-568,1144,-1528,49,10,-9
14020,-536,1168,-1544,50,10,-9
14025,-552,1160,-1544,51,10,-10
14030,-600,1200,-1552,51,10,-12
14035,-576,1160,-1552,52,11,-11
14040,-584,1152,-1560,51,11,-11
14045,-576,1184,-1576,52,11,-11
14050,-584,1176,-1568,51,10,-9
14055,-568,1192,-1560,51,13,-9
14060,-584,1208,-1552,51,14,-9
14065,-576,1200,-1552,51,15,-7
14070,-568,1176,-1544,51,16,-8
14075,-568,1200,-1560,52,16,-6
14080,-576,1168,-1552,53,16,-7
14085,-560,1200,-1552,55,18,-8
14090,-560,1176,-1552,56,19,-7
14095,-560,1168,-1552,56,19,-8
14100,-568,1184,-1560,56,19,-7
14105,-568,1176,-1560,56,17,-7
14110,-576,1176,-1552,55,16,-7
14115,-576,1176,-1560,53,15,-9
14120,-592,1192,-1536,53,13,-9
14125,-576,1200,-1544,54,14,-10
14130,-568,1152,-1544,55,14,-10
14135,-584,1192,-1544,55,15,-11
14140,-568,1176,-1536,54,15,-10
14145,-552,1160,-1520,55,14,-10
14150,-552,1152,-1544,53,15,-9
14155,-576,1168,-1544,52,15,-9
14160,-568,1176,-1544,52,14,-9
14165,-584,1160,-1552,53,14,-9
14170,-560,1184,-1560,53,14,-11
14175,-576,1184,-1552,53,15,-10
14180,-584,1176,-1552,54,16,-9
14185,-568,1192,-1536,54,16,-10
14190,-568,1192,-1536,53,14,-8
14195,-560,1088,-1552,54,14,-10
14200,-576,1192,-1552,52,13,-8
14205,-552,1168,-1560,53,13,-9
14210,-592,1168,-1568,54,14,-10
14215,-592,1184,-1536,55,16,-10
14220,-560,1152,-1544,54,15,-9
14225,-576,1192,-1544,54,17,-9
14230,-568,1168,-1544,53,18,-9
14235,-568,1168,-1528,55,16,-9
14240,-584,1176,-1560,52,16,-8
14245,-568,1184,-1536,52,15,-8
14250,-552,1192,-1544,53,15,-9
14255,-552,1192,-1520,51,17,-6
14260,-584,1184,-1520,51,17,-7
14265,-576,1192,-1560,52,17,-7
14270,-576,1192,-1552,52,16,-8
14275,-552,1176,-1544,53,15,-7
14280,-560,1152,-1560,53,15,-8
14285,-576,1176,-1544,52,15,-9
14290,-552,1144,-1552,52,14,-10
14295,-568,1208,-1560,53,14,-9
14300,-584,1192,-1584,52,13,-9
14305,-560,1168,-1544,51,12,-9
14310,-576,1168,-1544,49,12,-9
14315,-584,1168,-1552,48,12,-12
14320,-560,1160,-1560,43,12,-11
14325,-560,1184,-1536,39,10,-9
14330,-560,1184,-1560,40,10,-9
14335,-600,1208,-1552,42,11,-10
14340,-576,1168,-1536,45,12,-9
14345,-576,1184,-1560,44,13,-7
14350,-560,1168,-1576,44,12,-8
14355,-568,1184,-1552,44,13,-7
14360,-552,1368,-1528,43,13,-7
14365,-568,1192,-1528,43,15,-6
14370,-560,1152,-1536,44,15,-8
14375,-584,1168,-1552,46,15,-7
14380,-560,1168,-1560,47,14,-7
14385,-592,1200,-1560,47,15,-6
14390,-560,1184,-1568,48,16,-5
14395,-560,1200,-1544,51,16,-5
14400,-584,1168,-1560,52,16,-6
14405,-568,1176,-1536,55,17,-5
14410,-552,1168,-1544,57,18,-5
14415,-568,1168,-1568,58,18,-7
14420,-576,1208,-1536,59,17,-8
14425,-576,1192,-1544,59,18,-7
14430,-576,1192,-1560,59,18,-6
14435,-576,1176,-1560,59,17,-8
14440,-576,1160,-1528,59,17,-7
14445,-584,1176,-1560,58,18,-9
14450,-592,1200,-1536,58,17,-9
14455,-576,1160,-1536,59,16,-10
14460,-560,1160,-1568,59,15,-9
14465,-592,1184,-1552,60,15,-9
14470,-568,1192,-1528,60,15,-9
14475,-576,1176,-1560,59,16,-10
14480,-568,1152,-1552,58,13,-10
14485,-568,1160,-1528,58,15,-9
14490,-568,1184,-1552,58,14,-8
14495,-560,1168,-1528,58,13,-9
14500,-544,1152,-1560,60,13,-10
14505,-568,1184,-1544,60,12,-11
14510,-576,1184,-1568,61,14,-11
14515,-560,1176,-1560,60,14,-10
14520,-560,1176,-1536,60,14,-7
14525,-568,1192,-1536,60,16,-8
14530,-584,1184,-1568,60,16,-8
14535,-576,1176,-1560,61,18,-8
14540,-576,1176,-1544,60,17,-7
14545,-576,1176,-1576,60,19,-6
14550,-552,1168,-1552,60,20,-6
14555,-568,1176,-1592,59,21,-6
14560,-552,1168,-1544,59,21,-5
14565,-552,1144,-1544,59,20,-6
14570,-568,1176,-1568,59,21,-6
14575,-600,1224,-1544,61,21,-5
14580,-560,1168,-1568,61,22,-5
14585,-568,1176,-1552,61,22,-6
14590,-576,1184,-1536,62,22,-5
14595,-592,1160,-1544,61,22,-4
14600,-544,1176,-1560,61,22,-2
14605,-560,1200,-1560,59,23,-3
14610,-552,1152,-1536,58,24,-3
14615,-568,1184,-1560,58,23,-2
14620,-560,1184,-1568,59,25,-2
14625,-584,1184,-1544,59,24,-4
14630,-576,1184,-1544,59,24,-4
14635,-568,1168,-1552,58,23,-3
14640,-576,1192,-1544,58,24,-1
14645,-568,1184,-1544,59,24,-2
14650,-568,1184,-1560,60,23,-3
14655,-584,1192,-1576,59,25,-3
14660,-560,1168,-1552,57,23,-3
14665,-568,1176,-1568,57,23,-5
14670,-584,1168,-1536,58,23,-5
14675,-576,1184,-1584,58,21,-3
14680,-552,1160,-1560,57,19,-5
14685,-568,1200,-1576,56,19,-5
14690,-576,1176,-1568,56,19,-8
14695,-552,1176,-1544,56,18,-8
14700,-552,1184,-1536,55,16,-8
14705,-568,1184,-1544,56,16,-9
14710,-560,1160,-1560,55,16,-9
14715,-568,1176,-1560,53,14,-8
14720,-552,1184,-1560,54,14,-9
14725,-544,1200,-1568,54,12,-10
14730,-560,1160,-1552,54,13,-11
14735,-568,1176,-1552,53,14,-11
14740,-536,1232,-1560,53,13,-10
14745,-584,1200,-1552,54,12,-13
14750,-560,1200,-1568,52,12,-13
14755,-568,1192,-1568,53,10,-13
14760,-552,1200,-1584,52,11,-13
14765,-568,1192,-1552,52,10,-12
14770,-552,1168,-1560,51,9,-12
14775,-552,1160,-1536,51,8,-13
14780,-560,1160,-1544,52,8,-14
14785,-600,1160,-1552,52,8,-13
14790,-568,1152,-1552,51,6,-14
14795,-552,1168,-1552,51,6,-15
14800,-552,1176,-1560,51,6,-15
14805,-568,1168,-1528,52,7,-15
14810,-576,1168,-1560,52,8,-13
14815,-552,1184,-1568,53,8,-14
14820,-568,1200,-1552,53,8,-13
14825,-576,1184,-1568,53,8,-13
14830,-560,1168,-1568,53,9,-14
14835,-568,1176,-1568,53,10,-13
14840,-584,1176,-1584,53,9,-14
14845,-568,1176,-1584,53,9,-13
14850,-560,1184,-1568,54,11,-13
14855,-560,1176,-1552,55,11,-12
14860,-568,1176,-1536,56,12,-11
14865,-544,1168,-1552,57,12,-10
14870,-552,1152,-1536,56,14,-9
14875,-568,1184,-1520,57,15,-9
14880,-560,1168,-1536,56,15,-7
14885,-552,1184,-1576,55,17,-7
14890,-568,1168,-1552,55,19,-8
14895,-560,1176,-1544,55,17,-6
14900,-568,1184,-1552,54,18,-5
14905,-560,1176,-1568,52,18,-6
14910,-568,1176,-1568,51,19,-8
14915,-560,1144,-1536,52,18,-7
14920,-544,1192,-1560,52,18,-7
14925,-544,1160,-1536,52,19,-5
14930,-544,1176,-1560,54,19,-6
14935,-560,1168,-1568,54,20,-6
14940,-568,1168,-1552,55,19,-6
14945,-584,1184,-1544,53,18,-6
14950,-568,1160,-1528,53,15,-8
14955,-576,1168,-1512,54,14,-10
14960,-544,1152,-1600,54,12,-9
14965,-536,1168,-1592,54,12,-9
14970,-560,1160,-1552,53,12,-8
14975,-560,1184,-1592,52,13,-9
14980,-560,1152,-1576,47,14,-7
14985,-552,1160,-1544,42,12,-9
14990,-552,1176,-1568,40,10,-12
14995,-584,1176,-1552,42,9,-11
