timestamp,accel_x,accel_y,accel_z,gyro_x,gyro_y,gyro_z
0,96,-1768,-888,29,20,-6
5,88,-1776,-888,29,20,-5
10,72,-1792,-904,29,19,-6
15,96,-1776,-880,29,19,-7
20,80,-1792,-904,30,19,-6
25,72,-1760,-896,31,19,-6
30,80,-1792,-936,31,19,-6
35,104,-1800,-904,31,20,-6
40,96,-1800,-904,31,21,-5
45,72,-1784,-880,31,22,-5
50,64,-1776,-912,30,24,-4
55,88,-1792,-888,28,23,-4
60,104,-1776,-888,28,24,-5
65,96,-1792,-888,27,22,-6
70,80,-1792,-888,25,22,-7
75,120,-1800,-864,25,22,-6
80,24,-1808,-856,26,21,-7
85,104,-1784,-880,26,20,-7
90,72,-1800,-872,27,20,-7
95,64,-1808,-896,30,19,-7
100,80,-1792,-888,32,19,-8
105,96,-1800,-872,34,16,-9
110,64,-1808,-856,38,16,-8
115,96,-1808,-888,42,14,-7
120,112,-1800,-848,45,16,-7
125,96,-1792,-840,46,16,-7
130,104,-1752,-912,47,21,-8
135,104,-1760,-872,45,25,-10
140,120,-1784,-864,40,30,-11
145,104,-1760,-880,34,33,-15
150,112,-1760,-896,25,40,-17
155,144,-1736,-912,14,47,-21
160,96,-1728,-936,1,56,-22
165,96,-1712,-984,-17,68,-23
170,104,-1664,-1016,-37,82,-24
175,152,-1696,-1024,-59,97,-23
180,112,-1664,-1040,-87,112,-22
185,136,-1704,-1000,-112,126,-20
190,144,-1696,-1000,-132,136,-19
195,192,-1728,-1032,-150,147,-16
200,184,-1760,-984,-162,153,-11
205,160,-1776,-968,-170,156,-6
210,168,-1792,-912,-168,158,2
215,152,-1800,-888,-155,159,14
220,152,-1808,-888,-138,162,30
225,208,-1792,-840,-119,167,47
230,160,-1784,-840,-101,171,61
235,160,-1808,-792,-83,171,74
240,208,-1736,-784,-63,168,86
245,160,-1840,-816,-48,161,95
250,112,-1816,-664,-33,150,102
255,96,-1808,-608,-14,135,110
260,64,-1800,-584,11,120,114
265,64,-1808,-544,39,107,118
270,24,-1784,-528,65,96,119
275,56,-1808,-528,86,85,120
280,8,-1768,-544,100,70,115
285,8,-1776,-544,100,49,109
290,32,-1800,-592,90,23,103
295,48,-1872,-624,67,-6,89
300,32,-1856,-640,39,-35,78
305,88,-1872,-704,7,-61,67
310,64,-1896,-760,-26,-83,58
315,104,-1952,-768,-56,-99,51
320,144,-1968,-808,-84,-112,45
325,184,-2008,-824,-105,-118,41
330,136,-2048,-872,-123,-123,36
335,152,-1936,-880,-147,-152,9
340,280,-2056,-896,-134,-134,29
345,296,-2056,-888,-120,-116,32
350,256,-2056,-896,-106,-112,33
355,320,-2032,-952,-79,-95,39
360,320,-1968,-968,-47,-70,46
365,320,-1992,-968,-19,-47,51
370,328,-1976,-968,9,-26,51
375,312,-1936,-976,35,-3,54
380,312,-1912,-944,52,20,59
385,256,-1896,-936,63,42,61
390,296,-1856,-952,69,62,60
395,224,-1816,-912,75,79,61
400,216,-1808,-912,86,98,58
405,216,-1768,-856,92,112,59
410,208,-1736,-856,97,121,61
415,208,-1752,-840,98,126,61
420,176,-1712,-856,98,130,60
425,160,-1688,-824,97,129,62
430,160,-1680,-848,92,127,63
435,136,-1664,-840,83,118,64
440,104,-1608,-872,72,109,66
445,104,-1624,-824,58,99,66
450,88,-1592,-832,39,82,67
455,104,-1576,-808,16,65,64
460,72,-1536,-832,-9,44,62
465,40,-1528,-864,-39,18,57
470,48,-1488,-880,-73,-8,52
475,-8,-1488,-880,-109,-36,45
480,-24,-1472,-872,-147,-62,36
485,-32,-1464,-840,-184,-88,26
490,-72,-1488,-848,-213,-114,14
495,-80,-1504,-864,-236,-136,4
500,-120,-1544,-824,-252,-156,-9
505,-136,-1560,-824,-265,-172,-21
510,-184,-1576,-824,-274,-190,-36
515,-184,-1624,-824,-281,-207,-50
520,-192,-1664,-824,-286,-223,-62
525,-272,-1776,-808,-292,-242,-80
530,-200,-1744,-832,-306,-272,-108
535,-120,-1832,-848,-310,-278,-114
540,-144,-1880,-824,-307,-273,-124
545,-176,-1928,-856,-299,-270,-131
550,-248,-1968,-840,-296,-267,-136
555,-96,-2008,-848,-285,-264,-129
560,-112,-2072,-752,-271,-244,-137
565,-32,-2072,-704,-254,-228,-134
570,-16,-2104,-728,-236,-217,-126
575,-16,-2088,-680,-216,-205,-119
580,0,-2096,-696,-197,-194,-110
585,48,-2088,-680,-183,-183,-100
590,120,-2160,-680,-173,-170,-90
595,112,-2120,-656,-172,-158,-83
600,184,-2104,-664,-174,-148,-68
605,216,-2040,-696,-173,-137,-60
610,208,-2056,-744,-157,-128,-53
615,224,-2024,-728,-148,-122,-48
620,248,-2088,-744,-147,-121,-41
625,216,-2064,-776,-159,-121,-32
630,184,-2048,-784,-170,-120,-18
635,152,-2056,-856,-179,-119,1
640,112,-2032,-840,-187,-115,27
645,80,-2080,-808,-188,-109,53
650,8,-2056,-816,-182,-106,81
655,0,-2064,-824,-174,-105,103
660,-16,-2048,-776,-161,-107,119
665,-24,-1960,-792,-138,-112,130
670,-32,-1872,-720,-114,-121,142
675,-64,-1824,-768,-88,-131,150
680,-56,-1760,-784,-63,-147,157
685,-88,-1696,-784,-50,-160,159
690,-96,-1656,-768,-45,-169,158
695,-104,-1648,-752,-43,-177,154
700,-104,-1568,-728,-43,-183,150
705,-144,-1552,-728,-42,-189,141
710,-120,-1520,-712,-39,-197,134
715,-104,-1504,-720,-50,-199,124
720,-72,-1504,-680,-64,-199,112
725,-120,-1496,-704,-84,-199,104
730,-88,-1480,-712,-104,-194,91
735,-64,-1480,-680,-127,-186,81
740,-32,-1496,-704,-151,-174,68
745,-32,-1488,-696,-171,-158,57
750,-32,-1552,-688,-186,-141,45
755,-32,-1552,-720,-197,-122,34
760,-32,-1592,-696,-210,-107,27
765,-56,-1624,-720,-222,-90,16
770,-40,-1648,-672,-232,-74,7
775,-72,-1672,-680,-240,-57,-1
780,-80,-1680,-704,-244,-37,-4
785,-56,-1752,-720,-248,-20,-8
790,-32,-1768,-696,-249,-3,-9
795,-32,-1800,-688,-244,11,-8
800,-16,-1824,-672,-236,20,-6
805,0,-1888,-656,-227,30,-1
810,-16,-1848,-648,-217,38,2
815,-24,-1856,-704,-209,46,7
820,-16,-1912,-712,-201,57,8
825,-8,-1880,-696,-195,70,7
830,0,-1912,-712,-189,82,9
835,-32,-1904,-736,-182,101,9
840,-8,-1904,-744,-178,120,11
845,-24,-1920,-760,-177,144,13
850,-8,-1920,-736,-179,168,16
855,8,-1936,-776,-185,197,16
860,32,-1920,-776,-191,227,19
865,80,-1992,-736,-189,255,21
870,112,-1984,-728,-183,287,25
875,144,-2000,-768,-174,322,30
880,176,-2008,-800,-166,356,32
885,224,-2048,-816,-158,392,34
890,280,-2064,-864,-147,426,42
895,232,-2016,-776,-134,456,47
900,256,-2024,-784,-112,474,59
905,224,-2032,-784,-91,487,71
910,232,-2048,-784,-72,492,85
915,176,-2064,-824,-58,494,100
920,152,-2080,-800,-48,490,115
925,72,-2120,-808,-39,481,127
930,8,-2136,-776,-36,470,142
935,-40,-2168,-792,-34,453,151
940,-160,-2216,-792,-31,430,158
945,-208,-2296,-792,-25,405,160
950,-312,-2320,-720,-14,380,161
955,-344,-2392,-664,3,358,153
960,-448,-2416,-648,26,336,149
965,-512,-2456,-632,55,312,146
970,-560,-2472,-608,83,289,139
975,-592,-2528,-592,110,264,129
980,-624,-2528,-576,135,237,120
985,-656,-2544,-552,161,206,113
990,-664,-2536,-528,181,167,103
995,-656,-2512,-504,196,123,83
1000,-664,-2488,-472,209,77,64
1005,-656,-2464,-464,226,29,44
1010,-624,-2448,-488,240,-19,24
1015,-592,-2376,-568,242,-67,4
1020,-576,-2232,-728,220,-116,-18
1025,-536,-2104,-888,159,-164,-39
1030,-488,-2048,-1000,55,-206,-54
1035,-416,-1976,-1176,-88,-249,-69
1040,-376,-2032,-1264,-251,-298,-92
1045,-304,-2112,-1280,-406,-353,-122
1050,-336,-2264,-1264,-508,-419,-162
1055,-320,-2384,-1184,-543,-491,-198
1060,-328,-2448,-1144,-510,-561,-232
1065,-304,-2456,-1080,-440,-615,-262
1070,-296,-2472,-1016,-351,-643,-294
1075,-288,-2488,-1008,-252,-649,-321
1080,-368,-2408,-1056,-159,-634,-341
1085,-424,-2272,-1200,-99,-607,-353
1090,-448,-2136,-1440,-89,-569,-359
1095,-424,-2016,-1616,-125,-517,-365
1100,-312,-1920,-1760,-180,-455,-370
1105,-240,-1736,-1928,-218,-376,-379
1110,-128,-1616,-2000,-228,-283,-384
1115,-88,-1528,-2048,-205,-188,-384
1120,-32,-1472,-2016,-148,-114,-384
1125,48,-1376,-1920,-55,-77,-383
1130,144,-1304,-1800,66,-82,-382
1135,168,-1248,-1680,196,-123,-374
1140,216,-1136,-1576,319,-183,-352
1145,232,-1104,-1496,424,-248,-317
1150,240,-1112,-1368,510,-301,-274
1155,192,-1048,-1256,569,-341,-220
1160,144,-1152,-1216,591,-375,-163
1165,160,-1152,-1208,570,-399,-114
1170,176,-1208,-1176,517,-419,-75
1175,216,-1320,-1192,449,-429,-47
1180,736,-1464,-1184,376,-426,-38
1185,160,-1440,-1240,331,-377,-85
1190,312,-1528,-1336,286,-388,-38
1195,144,-1480,-1392,206,-405,-43
1200,320,-1504,-1408,113,-421,-53
1205,328,-1440,-1408,39,-428,-88
1210,232,-1480,-1456,-3,-436,-126
1215,240,-1560,-1400,-23,-448,-165
1220,232,-1560,-1408,-27,-454,-199
1225,168,-1600,-1376,-4,-448,-227
1230,120,-1664,-1368,36,-440,-243
1235,40,-1696,-1400,77,-422,-258
1240,-8,-1712,-1400,101,-391,-270
1245,-48,-1728,-1424,112,-354,-278
1250,-40,-1784,-1408,110,-309,-290
1255,-96,-1776,-1320,99,-260,-316
1260,-72,-1784,-1256,107,-218,-343
1265,-56,-1744,-1208,138,-188,-371
1270,-32,-1680,-1184,172,-170,-398
1275,8,-1616,-1168,208,-159,-430
1280,32,-1568,-1144,238,-152,-456
1285,32,-1536,-1080,262,-151,-478
1290,40,-1512,-1088,288,-151,-495
1295,56,-1464,-1064,311,-154,-509
1300,80,-1384,-1032,331,-162,-525
1305,96,-1352,-1024,347,-170,-542
1310,120,-1280,-992,358,-174,-555
1315,120,-1248,-944,357,-177,-567
1320,120,-1192,-944,340,-184,-582
1325,152,-1168,-904,314,-193,-594
1330,144,-1136,-888,275,-204,-604
1335,176,-1128,-856,231,-217,-617
1340,192,-1128,-840,185,-228,-625
1345,200,-1112,-832,137,-237,-628
1350,200,-1120,-784,92,-247,-627
1355,200,-1120,-784,50,-249,-623
1360,216,-1112,-784,10,-246,-613
1365,216,-1128,-776,-30,-238,-601
1370,208,-1136,-768,-66,-227,-582
1375,192,-1136,-768,-97,-222,-558
1380,216,-1200,-744,-118,-217,-534
1385,200,-1208,-752,-134,-213,-509
1390,232,-1248,-720,-143,-212,-484
1395,200,-1280,-696,-145,-214,-459
1400,216,-1296,-696,-144,-218,-432
1405,216,-1328,-664,-144,-228,-406
1410,216,-1296,-656,-138,-242,-383
1415,192,-1368,-656,-127,-262,-359
1420,200,-1392,-648,-114,-285,-338
1425,192,-1416,-640,-100,-310,-316
1430,200,-1408,-664,-84,-335,-298
1435,176,-1448,-608,-62,-364,-279
1440,160,-1440,-624,-35,-396,-260
1445,176,-1456,-584,-2,-433,-246
1450,176,-1456,-584,37,-471,-234
1455,224,-1408,-592,84,-510,-236
1460,248,-1432,-576,138,-549,-237
1465,280,-1408,-560,194,-591,-242
1470,224,-1368,-584,247,-631,-248
1475,192,-1384,-576,291,-666,-251
1480,160,-1360,-584,311,-683,-255
1485,112,-1376,-584,309,-684,-260
1490,64,-1392,-592,285,-672,-271
1495,24,-1408,-608,240,-652,-288
1500,0,-1448,-648,184,-627,-308
1505,0,-1568,-704,123,-607,-333
1510,-8,-1632,-736,56,-602,-360
1515,8,-1728,-776,-15,-608,-390
1520,16,-1856,-808,-80,-621,-411
1525,16,-2024,-784,-137,-640,-425
1530,24,-2160,-808,-187,-664,-429
1535,80,-2312,-832,-221,-682,-414
1540,88,-2384,-904,-232,-686,-388
1545,200,-2512,-944,-211,-661,-355
1550,288,-2576,-1008,-168,-598,-331
1555,448,-2632,-1040,-101,-513,-324
1560,552,-2656,-1072,-19,-413,-328
1565,720,-2720,-1064,80,-314,-346
1570,896,-2784,-1032,192,-218,-362
1575,1040,-2896,-1008,318,-129,-370
1580,1152,-2904,-944,445,-43,-369
1585,1240,-2960,-872,560,44,-358
1590,1232,-2936,-792,659,126,-337
1595,1208,-2984,-680,749,206,-309
1600,1160,-2952,-672,820,275,-272
1605,1112,-2944,-584,869,332,-233
1610,1048,-2936,-504,911,380,-189
1615,1000,-2848,-584,943,423,-145
1620,968,-2712,-728,947,474,-107
1625,880,-2512,-904,912,534,-83
1630,776,-2280,-1144,825,596,-75
1635,560,-2120,-1320,669,635,-85
1640,240,-1944,-1568,443,639,-102
1645,-80,-1896,-1584,170,605,-102
1650,-248,-1920,-1576,-97,553,-76
1655,-128,-1984,-1544,-288,498,-34
1660,-8,-1992,-1584,-382,461,12
1665,168,-1992,-1600,-393,439,48
1670,200,-1816,-1776,-356,409,70
1675,160,-1640,-1872,-316,347,85
1680,64,-1512,-1984,-268,256,113
1685,-88,-1336,-2112,-210,156,145
1690,-224,-1288,-2248,-144,66,163
1695,-328,-1136,-2304,-50,4,190
1700,-464,-1176,-2264,73,-14,200
1705,-504,-1152,-2160,220,16,197
1710,-496,-1216,-2088,361,85,182
1715,-312,-1352,-1952,465,176,135
1720,-184,-1488,-1752,521,260,61
1725,-56,-1552,-1632,563,325,-12
1730,48,-1688,-1576,599,386,-88
1735,144,-1680,-1560,618,457,-173
1740,216,-1712,-1520,607,526,-262
1745,336,-1728,-1464,564,573,-343
1750,328,-1680,-1360,496,592,-402
1755,312,-1656,-1296,422,586,-435
1760,304,-1632,-1248,354,575,-440
1765,288,-1616,-1224,301,569,-422
1770,320,-1640,-1280,256,568,-385
1775,320,-1728,-1376,207,558,-329
1780,296,-1744,-1376,142,525,-252
1785,288,-1832,-1376,76,470,-152
1790,264,-1920,-1376,27,406,-39
1795,248,-2032,-1344,6,342,65
1800,208,-2088,-1328,13,278,160
1805,184,-2104,-1336,46,207,246
1810,120,-2168,-1328,94,134,324
1815,64,-2128,-1400,150,68,389
1820,-8,-2072,-1344,198,17,437
1825,-48,-2040,-1336,233,-22,465
1830,-88,-1992,-1296,258,-52,470
1835,-160,-1840,-1264,268,-71,453
1840,-200,-1736,-1168,273,-80,418
1845,-232,-1616,-1112,273,-77,378
1850,-272,-1496,-976,272,-62,335
1855,-296,-1400,-984,274,-45,295
1860,-320,-1320,-840,272,-32,257
1865,-296,-1184,-824,277,-22,225
1870,-296,-1096,-768,282,-22,189
1875,-288,-1000,-704,294,-30,161
1880,-272,-960,-672,309,-50,138
1885,-288,-920,-632,330,-80,124
1890,-248,-896,-600,350,-120,117
1895,-232,-824,-600,357,-160,114
1900,-200,-816,-632,348,-202,117
1905,-224,-808,-632,323,-239,123
1910,-160,-832,-584,285,-273,134
1915,-104,-888,-640,232,-299,143
1920,-88,-896,-624,171,-321,154
1925,-96,-936,-584,111,-336,161
1930,-104,-1000,-592,51,-350,169
1935,-48,-1064,-656,-19,-360,172
1940,-72,-1112,-600,-92,-364,172
1945,-40,-1160,-600,-167,-359,172
1950,-72,-1200,-608,-232,-346,166
1955,-64,-1168,-624,-280,-326,155
1960,-72,-1152,-608,-309,-294,147
1965,-56,-1176,-608,-328,-252,141
1970,-16,-1192,-616,-337,-206,133
1975,-8,-1192,-584,-335,-153,124
1980,0,-1240,-576,-319,-106,111
1985,40,-1232,-568,-294,-68,92
1990,104,-1216,-584,-267,-38,78
1995,136,-1272,-544,-239,-12,64
2000,184,-1256,-552,-209,13,55
2005,200,-1272,-544,-185,40,48
2010,208,-1240,-552,-162,72,47
2015,176,-1232,-584,-145,108,48
2020,224,-1248,-584,-130,151,50
2025,304,-1288,-576,-124,206,48
2030,296,-1304,-640,-123,268,49
2035,312,-1400,-688,-127,333,53
2040,376,-1472,-720,-141,398,61
2045,400,-1576,-712,-163,453,73
2050,432,-1632,-736,-182,501,83
2055,464,-1768,-736,-200,541,94
2060,504,-1912,-752,-221,571,108
2065,520,-2032,-784,-247,594,123
2070,544,-2208,-808,-270,617,140
2075,528,-2304,-824,-286,631,156
2080,488,-2448,-816,-280,626,169
2085,448,-2536,-736,-252,605,183
2090,312,-2608,-744,-200,557,200
2095,160,-2656,-776,-127,483,216
2100,48,-2672,-792,-50,396,237
2105,-128,-2632,-744,21,306,262
2110,-328,-2680,-704,82,227,292
2115,-520,-2656,-656,139,149,315
2120,-648,-2672,-592,196,77,333
2125,-808,-2624,-544,252,9,345
2130,-912,-2648,-408,312,-57,345
2135,-952,-2608,-360,376,-120,330
2140,-976,-2536,-248,442,-175,310
2145,-952,-2512,-208,510,-226,283
2150,-912,-2520,-152,572,-271,248
2155,-832,-2488,-104,635,-308,210
2160,-768,-2464,-112,696,-337,173
2165,-656,-2408,-176,747,-367,140
2170,-480,-2296,-272,774,-396,107
2175,-312,-2232,-472,755,-415,83
2180,-144,-2112,-600,679,-424,59
2185,40,-2032,-920,546,-431,36
2190,160,-1976,-1304,349,-442,5
2195,224,-1912,-1776,84,-466,-30
2200,248,-1904,-2104,-248,-512,-69
2205,168,-1992,-2320,-601,-582,-111
2210,-16,-2112,-2312,-881,-671,-135
2215,-192,-2216,-2288,-1012,-755,-127
2220,-336,-2272,-2328,-1023,-812,-94
2225,-440,-2224,-2376,-963,-836,-45
2230,-376,-2152,-2480,-880,-826,29
2235,-272,-2048,-2512,-796,-784,103
2240,-176,-1912,-2520,-699,-706,171
2245,-112,-1840,-2448,-590,-616,230
2250,88,-1704,-2336,-446,-555,279
2255,344,-1536,-2224,-282,-539,302
2260,472,-1400,-2120,-121,-562,308
2265,520,-1280,-2032,28,-607,309
2270,552,-1280,-1896,146,-640,311
2275,520,-1312,-1800,240,-660,316
2280,488,-1368,-1752,305,-670,327
2285,448,-1408,-1704,311,-642,331
2290,408,-1448,-1688,268,-590,328
2295,384,-1488,-1648,196,-533,316
2300,368,-1568,-1600,125,-484,299
2305,344,-1624,-1592,64,-456,278
2310,280,-1720,-1576,20,-451,246
2315,216,-1856,-1560,4,-466,212
2320,120,-1944,-1544,18,-499,180
2325,32,-2048,-1568,44,-531,142
2330,-88,-2160,-1632,70,-549,93
2335,-136,-2208,-1672,88,-552,38
2340,-192,-2248,-1640,90,-529,-23
2345,-264,-2328,-1656,88,-485,-89
2350,-248,-2328,-1616,86,-419,-155
2355,-256,-2224,-1640,81,-330,-216
2360,-224,-2128,-1592,73,-231,-278
2365,-168,-2048,-1504,64,-127,-320
2370,-96,-1992,-1440,55,-30,-351
2375,-48,-1888,-1280,57,45,-376
2380,-24,-1728,-1160,75,87,-394
2385,0,-1592,-1080,97,103,-400
2390,96,-1504,-1000,115,96,-403
2395,104,-1384,-928,127,74,-401
2400,120,-1256,-768,140,42,-391
2405,128,-1232,-744,154,-4,-376
2410,104,-1160,-672,177,-48,-360
2415,88,-1080,-640,198,-98,-344
2420,72,-1024,-608,218,-130,-329
2425,80,-984,-576,240,-153,-317
2430,32,-944,-552,261,-164,-321
2435,48,-928,-560,271,-161,-330
2440,88,-920,-568,263,-154,-345
2445,144,-960,-616,238,-139,-371
2450,160,-880,-592,194,-121,-398
2455,160,-848,-680,149,-104,-428
2460,224,-888,-632,105,-88,-463
2465,232,-904,-640,49,-73,-498
2470,232,-928,-616,-4,-65,-523
2475,256,-984,-616,-54,-65,-541
2480,272,-1008,-608,-107,-72,-556
2485,288,-1024,-608,-169,-78,-567
2490,272,-1096,-600,-227,-88,-577
2495,288,-1136,-632,-277,-106,-569
2500,216,-1120,-600,-316,-126,-554
2505,224,-1120,-584,-348,-144,-536
2510,208,-1192,-584,-367,-160,-514
2515,192,-1176,-576,-375,-175,-488
2520,160,-1200,-568,-376,-192,-456
2525,144,-1216,-552,-370,-209,-426
2530,112,-1248,-528,-354,-222,-397
2535,88,-1272,-488,-325,-241,-371
2540,80,-1312,-480,-287,-261,-348
2545,40,-1344,-472,-239,-288,-323
2550,80,-1376,-432,-187,-323,-303
2555,80,-1456,-408,-132,-358,-284
2560,48,-1448,-392,-80,-400,-266
2565,104,-1552,-456,-26,-450,-253
2570,160,-1536,-456,21,-504,-239
2575,152,-1552,-496,56,-553,-231
2580,192,-1560,-560,79,-595,-223
2585,192,-1592,-648,87,-626,-218
2590,216,-1592,-672,70,-642,-219
2595,224,-1624,-680,45,-639,-224
2600,256,-1648,-744,10,-613,-238
2605,320,-1688,-776,-25,-568,-252
2610,272,-1720,-792,-59,-508,-274
2615,272,-1736,-856,-97,-441,-296
2620,176,-1816,-832,-140,-378,-317
2625,120,-1880,-864,-173,-324,-325
2630,56,-1968,-856,-190,-278,-318
2635,72,-2056,-816,-193,-231,-300
2640,88,-2152,-784,-176,-171,-283
2645,168,-2216,-784,-138,-106,-265
2650,232,-2256,-744,-85,-43,-246
2655,344,-2272,-760,-25,8,-232
2660,456,-2416,-744,30,46,-223
2665,512,-2384,-680,94,69,-224
2670,728,-2472,-624,168,83,-219
2675,752,-2600,-584,253,103,-206
2680,800,-2648,-528,337,125,-187
2685,808,-2704,-456,429,155,-158
2690,840,-2760,-480,515,190,-124
2695,832,-2816,-440,590,228,-87
2700,888,-2872,-520,660,275,-52
2705,880,-2856,-584,721,342,-24
2710,984,-2744,-856,759,437,-4
2715,1024,-2560,-1120,750,562,-5
2720,952,-2304,-1560,668,688,-30
2725,816,-2104,-2048,461,782,-69
2730,504,-2048,-2472,123,795,-94
2735,416,-2104,-2520,-277,721,-73
2740,512,-2208,-2368,-632,645,-6
2745,704,-2344,-2168,-840,635,79
2750,888,-2488,-2088,-914,664,129
2755,872,-2560,-2144,-916,680,124
2760,688,-2504,-2248,-878,671,102
2765,560,-2408,-2368,-811,655,93
2770,352,-2232,-2528,-736,649,87
2775,56,-2064,-2568,-656,649,95
2780,-192,-1920,-2496,-554,639,123
2785,-312,-1832,-2416,-408,621,155
2790,-408,-1688,-2184,-209,610,168
2795,-536,-1560,-2040,28,624,167
2800,-608,-1416,-1888,278,666,163
2805,-568,-1288,-1736,506,707,149
2810,-552,-1248,-1624,696,716,115
2815,-432,-1240,-1528,823,690,65
2820,-360,-1272,-1464,898,653,4
2825,-272,-1312,-1440,921,618,-69
2830,-224,-1400,-1392,905,582,-147
2835,-168,-1424,-1360,853,537,-214
2840,-88,-1432,-1288,778,489,-261
2845,-56,-1440,-1256,685,448,-283
2850,-16,-1496,-1256,590,421,-281
2855,56,-1544,-1248,485,414,-250
2860,120,-1632,-1216,377,426,-204
2865,216,-1744,-1320,285,443,-140
2870,344,-1792,-1352,203,461,-70
2875,456,-1872,-1432,118,479,3
2880,552,-1920,-1472,47,480,81
2885,512,-1920,-1496,-2,467,163
2890,560,-1976,-1536,-23,443,244
2895,512,-1992,-1464,-17,415,320
2900,480,-1936,-1432,14,389,387
2905,376,-1880,-1360,66,368,438
2910,304,-1816,-1320,128,348,474
2915,192,-1736,-1256,188,334,491
2920,128,-1632,-1208,242,324,496
2925,40,-1560,-1192,282,322,490
2930,-8,-1472,-1080,308,327,479
2935,-96,-1360,-1064,326,333,464
2940,-160,-1224,-960,336,340,450
2945,-216,-1192,-880,335,345,442
2950,-256,-1096,-832,335,352,422
2955,-240,-1048,-776,332,357,395
2960,-248,-1032,-736,316,356,372
2965,-248,-984,-664,296,349,347
2970,-256,-992,-608,281,331,330
2975,-264,-952,-600,267,303,315
2980,-224,-888,-568,252,268,303
2985,-200,-888,-608,247,234,289
2990,-264,-864,-608,249,198,281
2995,-312,-792,-664,248,160,282
3000,-280,-832,-648,235,130,284
3005,-264,-840,-656,214,111,285
3010,-232,-808,-680,193,104,286
3015,-200,-848,-624,168,105,288
3020,-152,-904,-616,139,108,289
3025,-144,-984,-616,109,109,288
3030,-120,-1032,-616,65,102,292
3035,-56,-1120,-576,6,84,299
3040,-32,-1200,-600,-53,66,297
3045,-64,-1216,-616,-109,50,288
3050,-32,-1272,-592,-162,34,280
3055,-24,-1264,-576,-215,21,275
3060,-24,-1248,-584,-261,13,266
3065,-24,-1272,-568,-288,6,257
3070,-24,-1328,-512,-291,7,246
3075,-40,-1312,-448,-257,12,232
3080,-88,-1336,-448,-190,23,216
3085,-104,-1360,-408,-105,43,207
3090,-104,-1352,-400,-12,70,197
3095,-152,-1336,-328,79,99,186
3100,-168,-1336,-408,160,136,181
3105,-144,-1320,-432,220,181,179
3110,-64,-1288,-416,253,232,182
3115,-24,-1256,-496,269,289,191
3120,40,-1288,-544,258,349,200
3125,136,-1328,-584,216,410,202
3130,208,-1336,-624,153,467,203
3135,336,-1392,-680,83,513,201
3140,416,-1448,-760,10,540,197
3145,504,-1528,-808,-59,545,190
3150,552,-1592,-880,-128,540,187
3155,568,-1712,-840,-196,540,189
3160,592,-1904,-912,-255,549,195
3165,560,-2032,-824,-297,573,196
3170,536,-2168,-824,-307,596,197
3175,472,-2304,-760,-294,607,193
3180,376,-2376,-752,-262,599,188
3185,280,-2464,-808,-236,571,186
3190,112,-2560,-792,-235,522,190
3195,-40,-2608,-808,-253,462,200
3200,-248,-2720,-696,-273,391,216
3205,-376,-2800,-656,-281,314,230
3210,-544,-2896,-560,-268,233,246
3215,-688,-2952,-464,-225,145,263
3220,-856,-2984,-392,-150,50,287
3225,-960,-2960,-360,-51,-52,301
3230,-1048,-2912,-344,59,-158,303
3235,-1040,-2888,-304,173,-257,289
3240,-1016,-2808,-248,280,-343,260
3245,-928,-2736,-144,385,-413,221
3250,-872,-2616,-280,474,-475,182
3255,-720,-2520,-400,519,-533,156
3260,-496,-2384,-664,483,-574,145
3265,-320,-2272,-960,349,-582,146
3270,-88,-2144,-1240,134,-578,143
3275,136,-2136,-1776,-160,-588,113
3280,296,-2248,-2112,-516,-619,57
3285,224,-2456,-2344,-857,-676,-19
3290,112,-2624,-2296,-1071,-760,-88
3295,-112,-2664,-2136,-1102,-862,-135
3300,-272,-2688,-2128,-989,-956,-139
3305,-384,-2576,-2192,-813,-1024,-108
3310,-384,-2472,-2376,-650,-1041,-46
3315,-424,-2248,-2560,-548,-1008,24
3320,-296,-2088,-2656,-521,-953,90
3325,-176,-1960,-2648,-538,-872,158
3330,-56,-1864,-2600,-559,-761,219
3335,112,-1760,-2400,-541,-651,263
3340,272,-1656,-2208,-457,-575,283
3345,416,-1592,-2024,-317,-537,289
3350,496,-1456,-1920,-140,-504,287
3355,560,-1280,-1824,40,-440,276
3360,600,-1152,-1776,199,-366,264
3365,520,-1104,-1720,316,-299,243
3370,416,-1112,-1720,377,-245,220
3375,392,-1088,-1704,387,-212,198
3380,336,-1176,-1608,355,-194,177
3385,296,-1272,-1576,297,-185,161
3390,256,-1464,-1488,224,-182,151
3395,216,-1616,-1424,151,-187,144
3400,152,-1720,-1432,99,-207,132
3405,48,-1840,-1384,73,-243,116
3410,8,-1920,-1376,67,-283,90
3415,-160,-1976,-1384,67,-316,52
3420,-200,-2016,-1416,59,-331,9
3425,-240,-2056,-1400,35,-324,-48
3430,-248,-2096,-1440,-7,-295,-116
3435,-264,-2088,-1432,-62,-246,-185
3440,-232,-2080,-1400,-108,-184,-253
3445,-216,-2064,-1392,-130,-113,-305
3450,-192,-2032,-1368,-144,-35,-346
3455,-160,-2008,-1352,-152,42,-373
3460,-56,-1928,-1312,-153,102,-382
3465,-40,-1800,-1224,-145,147,-388
3470,-24,-1600,-1160,-123,179,-391
3475,0,-1560,-1080,-92,183,-398
3480,56,-1488,-1000,-47,161,-403
3485,80,-1392,-944,0,127,-414
3490,40,-1312,-808,33,82,-418
3495,24,-1192,-744,63,30,-419
3500,40,-1128,-704,97,-22,-414
3505,32,-1032,-664,139,-69,-410
3510,24,-1000,-600,181,-101,-409
3515,40,-944,-568,220,-124,-416
3520,8,-872,-576,252,-139,-430
3525,40,-824,-584,271,-148,-457
3530,64,-808,-576,266,-150,-505
3535,56,-784,-576,260,-149,-533
3540,112,-760,-600,258,-147,-551
3545,184,-744,-600,239,-147,-575
3550,160,-752,-592,195,-146,-616
3555,200,-752,-608,142,-149,-649
3560,264,-760,-632,91,-158,-680
3565,296,-816,-640,33,-168,-705
3570,288,-832,-688,-21,-178,-710
3575,264,-848,-648,-82,-184,-710
3580,248,-920,-616,-140,-193,-697
3585,224,-952,-624,-193,-205,-672
3590,288,-992,-584,-232,-210,-644
3595,240,-1016,-560,-265,-217,-616
3600,224,-1016,-552,-290,-225,-587
3605,216,-1056,-520,-310,-237,-556
3610,208,-1112,-496,-321,-251,-526
3615,192,-1160,-480,-324,-269,-491
3620,184,-1152,-472,-315,-286,-458
3625,176,-1224,-400,-291,-303,-428
3630,184,-1272,-352,-252,-323,-394
3635,168,-1256,-408,-199,-347,-363
3640,192,-1240,-360,-138,-376,-336
3645,216,-1248,-336,-69,-414,-310
3650,208,-1272,-352,1,-466,-289
3655,192,-1280,-368,59,-533,-267
3660,208,-1264,-368,99,-628,-247
3665,184,-1248,-408,117,-708,-239
3670,192,-1280,-448,118,-775,-237
3675,160,-1288,-528,97,-825,-234
3680,144,-1344,-600,50,-851,-244
3685,96,-1384,-728,-25,-856,-260
3690,72,-1496,-832,-121,-847,-280
3695,16,-1584,-928,-221,-823,-294
3700,-16,-1752,-936,-318,-785,-304
3705,-32,-1872,-952,-408,-739,-312
3710,-88,-1976,-1000,-493,-692,-312
3715,-72,-2112,-1056,-547,-635,-305
3720,-48,-2176,-1080,-592,-567,-285
3725,-16,-2280,-1096,-627,-481,-261
3730,96,-2384,-1128,-652,-382,-240
3735,248,-2424,-1136,-651,-274,-227
3740,424,-2536,-1168,-617,-170,-226
3745,520,-2600,-1096,-548,-77,-231
3750,720,-2720,-1048,-444,3,-239
3755,792,-2864,-984,-308,71,-239
3760,888,-2976,-960,-159,134,-231
3765,912,-3032,-904,-12,199,-214
3770,928,-3056,-912,125,266,-179
3775,936,-3112,-864,244,334,-136
3780,984,-3200,-776,352,403,-85
3785,984,-3264,-704,459,466,-32
3790,968,-3280,-648,572,527,20
3795,936,-3256,-632,692,583,59
3800,928,-3136,-840,794,645,94
3805,944,-2888,-1248,853,738,111
3810,936,-2496,-1784,832,869,97
3815,912,-1984,-2488,678,1007,57
3820,728,-1632,-3048,354,1095,2
3825,608,-1360,-3584,-120,1071,-10
3830,656,-1424,-3688,-669,980,48
3835,952,-1696,-3560,-1147,924,153
3840,1016,-1920,-3328,-1460,953,239
3845,920,-2056,-3192,-1640,1011,272
3850,672,-2032,-3128,-1721,1039,286
3855,584,-1960,-2968,-1727,1037,310
3860,416,-1888,-2912,-1647,1006,337
3865,272,-1824,-2752,-1485,944,364
3870,144,-1784,-2696,-1248,871,387
3875,-56,-1616,-2704,-980,799,414
3880,-264,-1400,-2632,-704,762,432
3885,-528,-1216,-2472,-414,771,435
3890,-712,-1104,-2304,-106,795,419
3895,-896,-912,-2016,220,803,391
3900,-952,-840,-1792,533,792,346
3905,-976,-824,-1648,773,768,275
3910,-936,-864,-1584,918,735,184
3915,-944,-872,-1424,991,702,74
3920,-840,-888,-1208,1023,657,-47
3925,-752,-928,-1024,1028,593,-171
3930,-672,-960,-936,1009,512,-278
3935,-552,-1000,-856,959,430,-355
3940,-448,-1024,-840,880,351,-403
3945,-280,-1056,-864,763,276,-432
3950,-88,-1080,-952,609,197,-438
3955,40,-1168,-1024,421,118,-416
3960,216,-1280,-1072,207,40,-365
3965,360,-1424,-1104,-10,-22,-288
3970,520,-1608,-1208,-202,-59,-195
3975,704,-1776,-1216,-353,-71,-103
3980,784,-1920,-1280,-452,-55,-14
3985,848,-2000,-1352,-503,-21,85
3990,824,-1968,-1400,-523,15,176
3995,792,-1912,-1408,-527,42,257
4000,704,-1784,-1456,-534,50,324
4005,544,-1624,-1448,-554,31,375
4010,456,-1520,-1288,-570,-15,418
4015,392,-1464,-1352,-577,-74,455
4020,216,-1288,-1184,-575,-129,482
4025,80,-1192,-1072,-552,-167,502
4030,-32,-1096,-992,-520,-188,518
4035,-152,-1032,-888,-485,-189,525
4040,-232,-1000,-784,-452,-182,528
4045,-352,-984,-688,-423,-172,528
4050,-376,-936,-584,-403,-167,515
4055,-424,-904,-560,-386,-164,488
4060,-448,-904,-544,-375,-167,455
4065,-496,-880,-488,-365,-176,420
4070,-520,-904,-520,-350,-192,383
4075,-504,-888,-536,-333,-212,349
4080,-536,-864,-576,-310,-233,322
4085,-528,-888,-616,-288,-251,305
4090,-528,-888,-648,-279,-270,297
4095,-536,-936,-672,-281,-290,302
4100,-488,-992,-752,-302,-313,312
4105,-400,-1040,-792,-347,-337,322
4110,-264,-1112,-880,-409,-358,327
4115,-192,-1200,-936,-492,-374,322
4120,-112,-1296,-944,-586,-384,305
4125,-16,-1368,-984,-679,-393,293
4130,24,-1416,-1024,-762,-402,284
4135,64,-1416,-1000,-834,-411,284
4140,144,-1416,-1080,-887,-416,285
4145,152,-1336,-1064,-919,-410,279
4150,128,-1264,-1088,-930,-395,272
4155,128,-1216,-1096,-913,-376,263
4160,152,-1176,-1048,-869,-349,257
4165,200,-1176,-1000,-796,-319,256
4170,208,-1152,-968,-701,-288,250
4175,264,-1168,-944,-586,-255,250
4180,200,-1168,-936,-462,-227,252
4185,232,-1224,-928,-347,-201,260
4190,192,-1280,-1000,-255,-173,270
4195,184,-1352,-1032,-195,-138,268
4200,200,-1464,-1056,-166,-102,260
4205,264,-1648,-1096,-156,-63,252
4210,280,-1720,-1112,-157,-18,242
4215,304,-1840,-1160,-159,33,230
4220,344,-1920,-1208,-155,86,218
4225,304,-1976,-1272,-144,143,201
4230,264,-2032,-1280,-132,204,177
4235,256,-2072,-1344,-117,270,153
4240,104,-2152,-1328,-105,342,128
4245,40,-2200,-1320,-92,409,100
4250,-80,-2248,-1336,-73,478,82
4255,-184,-2272,-1320,-52,538,74
4260,-256,-2272,-1288,-37,584,71
4265,-392,-2264,-1336,-27,611,67
4270,-504,-2248,-1384,-24,618,70
4275,-512,-2224,-1480,-38,604,76
4280,-544,-2152,-1656,-71,571,78
4285,-528,-2072,-1808,-133,522,72
4290,-488,-1976,-2040,-225,463,49
4295,-400,-1880,-2224,-339,380,12
4300,-360,-1784,-2400,-465,280,-36
4305,-344,-1704,-2520,-592,163,-90
4310,-280,-1680,-2592,-694,44,-141
4315,-232,-1640,-2608,-779,-57,-194
4320,-168,-1688,-2616,-849,-133,-243
4325,-184,-1696,-2664,-916,-184,-285
4330,-208,-1696,-2704,-983,-222,-317
4335,-192,-1752,-2736,-1054,-253,-340
4340,-176,-1768,-2760,-1120,-286,-346
4345,-216,-1776,-2752,-1181,-315,-336
4350,-240,-1744,-2744,-1226,-348,-307
4355,-256,-1656,-2720,-1240,-374,-261
4360,-256,-1536,-2680,-1209,-379,-202
4365,-232,-1352,-2624,-1144,-359,-145
4370,-192,-1184,-2528,-1058,-321,-102
4375,-136,-992,-2424,-954,-275,-78
4380,-80,-872,-2376,-834,-222,-61
4385,-24,-800,-2160,-701,-174,-46
4390,80,-728,-2016,-562,-141,-30
4395,192,-640,-1880,-432,-109,-11
4400,296,-600,-1712,-311,-85,9
4405,352,-584,-1648,-210,-59,30
4410,432,-560,-1520,-128,-36,48
4415,480,-520,-1472,-64,-14,69
4420,496,-472,-1432,-24,9,92
4425,544,-464,-1368,-10,36,112
4430,592,-448,-1344,-16,67,130
4435,592,-464,-1304,-49,100,142
4440,624,-504,-1352,-113,131,150
4445,624,-552,-1384,-210,161,151
4450,568,-648,-1448,-335,189,147
4455,528,-696,-1472,-478,208,146
4460,440,-800,-1568,-634,219,154
4465,328,-880,-1656,-787,222,170
4470,200,-976,-1736,-927,214,186
4475,120,-1088,-1808,-1048,201,206
4480,16,-1160,-1896,-1156,187,226
4485,-120,-1248,-1888,-1248,172,238
4490,-216,-1312,-1920,-1314,158,247
4495,-312,-1368,-1856,-1346,143,251
4500,-368,-1392,-1824,-1345,121,246
4505,-392,-1464,-1832,-1314,92,234
4510,-448,-1464,-1792,-1276,70,219
4515,-488,-1464,-1752,-1234,57,202
4520,-520,-1472,-1616,-1184,49,187
4525,-504,-1408,-1608,-1124,42,163
4530,-464,-1384,-1544,-1065,42,149
4535,-440,-1320,-1512,-1000,43,133
4540,-328,-1256,-1456,-934,53,118
4545,-248,-1168,-1360,-880,74,108
4550,-224,-1128,-1384,-839,103,103
4555,-160,-1104,-1272,-799,132,86
4560,-24,-1056,-1304,-761,160,65
4565,96,-1032,-1256,-725,190,42
4570,152,-1000,-1224,-702,223,24
4575,232,-928,-1256,-694,256,20
4580,240,-872,-1192,-685,277,-7
4585,304,-792,-1160,-668,297,-23
4590,360,-816,-1120,-653,319,-28
4595,376,-784,-1112,-635,337,-33
4600,360,-808,-1096,-619,356,-38
4605,368,-800,-1104,-616,374,-36
4610,336,-864,-1080,-621,400,-23
4615,384,-816,-1080,-618,426,-21
4620,400,-832,-1080,-637,459,-11
4625,392,-840,-1064,-666,500,3
4630,392,-880,-992,-698,541,15
4635,392,-888,-992,-741,579,29
4640,368,-928,-992,-788,614,56
4645,264,-984,-984,-842,634,85
4650,280,-1016,-960,-885,645,91
4655,216,-1032,-968,-934,649,99
4660,160,-1040,-936,-992,647,109
4665,40,-1168,-880,-1056,640,131
4670,8,-1120,-896,-1129,631,177
4675,-72,-1168,-832,-1185,610,182
4680,-136,-1112,-832,-1230,580,193
4685,-160,-1104,-792,-1257,538,218
4690,-264,-1008,-760,-1230,484,207
4695,-208,-944,-672,-1149,436,196
4700,-312,-896,-608,-1021,398,195
4705,-200,-720,-520,-859,370,187
4710,-160,-736,-448,-650,339,151
4715,-120,-672,-368,-434,311,112
4720,-72,-704,-360,-231,288,68
4725,-32,-656,-256,-43,276,33
4730,8,-680,-208,129,279,15
4735,80,-664,-224,281,302,12
4740,288,-712,-232,410,345,20
4745,232,-712,-264,511,403,30
4750,352,-720,-296,588,471,53
4755,432,-664,-384,632,542,77
4760,576,-552,-424,653,616,94
4765,704,-464,-448,666,689,103
4770,856,-360,-424,665,763,98
4775,936,-328,-480,656,832,88
4780,976,-200,-664,623,898,74
4785,976,-192,-768,561,969,69
4790,856,-176,-880,489,1023,83
4795,792,-160,-1072,392,1067,114
4800,696,-168,-1208,244,1110,153
4805,576,-160,-1384,57,1142,201
4810,512,-224,-1592,-168,1153,254
4815,480,-336,-1688,-418,1152,305
4820,304,-480,-1672,-672,1140,352
4825,240,-568,-1648,-894,1110,408
4830,104,-664,-1560,-1067,1072,466
4835,-16,-776,-1472,-1169,1037,522
4840,-96,-896,-1280,-1187,1016,582
4845,-72,-928,-1208,-1115,1016,654
4850,-120,-856,-1040,-965,1031,700
4855,-24,-872,-952,-737,1053,718
4860,64,-888,-808,-450,1079,694
4865,128,-944,-728,-116,1096,632
4870,112,-896,-664,249,1098,545
4875,136,-912,-592,637,1090,448
4880,72,-800,-592,1032,1082,343
4885,-16,-760,-536,1409,1077,222
4890,-96,-576,-568,1737,1073,95
4895,-160,-408,-544,1995,1070,-28
4900,-192,-208,-600,2166,1065,-138
4905,-264,8,-672,2252,1051,-236
4910,-320,128,-760,2240,1015,-323
4915,-312,232,-832,2142,959,-396
4920,-296,264,-792,1976,888,-462
4925,-208,160,-736,1782,801,-520
4930,-56,16,-648,1594,699,-573
4935,16,-224,-552,1406,596,-643
4940,120,-448,-544,1253,505,-705
4945,160,-560,-584,1138,449,-755
4950,112,-752,-568,1048,428,-804
4955,88,-824,-648,974,421,-808
4960,24,-864,-672,908,409,-791
4965,-8,-848,-656,847,388,-754
4970,64,-752,-592,781,374,-714
4975,-96,-712,-568,700,364,-690
4980,-160,-608,-608,607,350,-627
4985,-296,-384,-680,501,344,-584
4990,-312,-144,-664,344,369,-515
4995,-200,32,-680,157,399,-455
5000,-120,280,-632,-35,412,-423
5005,-48,432,-472,-207,394,-423
5010,-40,536,-240,-328,349,-440
5015,-80,704,-208,-376,302,-471
5020,-72,768,-320,-401,278,-497
5025,-96,936,-536,-466,303,-498
5030,-64,1144,-720,-578,363,-493
5035,-8,1408,-1152,-715,441,-474
5040,-16,1576,-1704,-888,519,-457
5045,-16,1624,-2192,-1052,597,-460
5050,160,1824,-2928,-1287,713,-416
5055,328,2088,-3768,-1650,876,-380
5060,632,2456,-4808,-2117,1047,-358
5065,1088,2648,-5776,-2685,1283,-373
5070,1640,2560,-6568,-3367,1625,-415
5075,2264,2136,-7616,-4073,2065,-493
5080,2408,1208,-8040,-4773,2565,-636
5085,2536,288,-7592,-5314,3061,-747
5090,1832,-1064,-5752,-5696,3478,-914
5095,1800,-1936,-4320,-5555,3645,-935
5100,1736,-3336,-3008,-4913,3782,-739
5105,2328,-4504,-2176,-4046,4087,-380
5110,3536,-4896,-1552,-3224,4476,-113
5115,3392,-4984,-1496,-2514,4815,-157
5120,3640,-4232,-1384,-1986,4921,-368
5125,3792,-3224,-904,-1698,4786,-642
5130,2984,-2416,-440,-1497,4482,-981
5135,2168,-1856,-120,-1506,4080,-1130
5140,1656,-912,208,-1768,3765,-1165
5145,2072,1424,552,-2134,3286,-1395
5150,12816,9760,-912,-2601,2634,-2184
5155,7296,10536,-1000,-3086,-6,-4191
5160,-2472,6072,-1360,-2734,-2021,-3896
5165,-5432,3240,-4256,-1526,-2418,-3407
5170,-72,3440,-6104,-1951,-936,-2884
5175,8808,3992,-6104,-2781,-135,-2677
5180,14008,4048,-5352,-2764,-1095,-2945
5185,10544,4504,-5896,-2188,-3525,-3334
5190,4520,4136,-6216,-2211,-6109,-3525
5195,160,5248,-9536,-2039,-6691,-3219
5200,2968,3464,-11392,-1907,-5188,-2290
5205,2864,1744,-9456,-1886,-2633,-1581
5210,3024,2136,-6832,-1889,-73,-1350
5215,2544,2336,-4560,-1990,1776,-1263
5220,2088,2216,-2336,-2034,2844,-1160
5225,2168,2016,-960,-2092,3305,-1043
5230,1712,2744,-688,-2176,3466,-1000
5235,1056,2304,-816,-2442,3509,-822
5240,-1808,624,-16,-2726,3374,-514
5245,-1056,352,24,-2723,2464,-124
5250,112,-144,192,-2804,1285,-38
5255,552,-344,-440,-2710,199,-303
5260,432,-160,-872,-2577,-678,-703
5265,-680,264,-1056,-2497,-1328,-984
5270,-1968,632,-680,-2371,-2046,-1163
5275,-1624,632,-496,-2151,-2717,-1216
5280,-48,1264,-688,-1919,-3102,-1162
5285,1480,1384,-472,-1785,-3188,-1106
5290,1880,1216,-408,-1604,-3197,-1058
5295,968,856,-144,-1379,-3391,-1117
5300,-184,448,384,-1198,-3694,-1187
5305,816,1016,-496,-928,-4078,-1153
5310,1960,920,-672,-695,-4097,-1004
5315,1776,920,-720,-311,-3939,-825
5320,1816,864,-1136,81,-3686,-699
5325,880,632,-1200,554,-3516,-658
5330,1720,1088,-1440,846,-3338,-681
5335,2008,1296,-1712,972,-3019,-679
5340,2136,1272,-1736,1027,-2710,-680
5345,1528,736,-1472,1080,-2495,-695
5350,1600,888,-1624,1042,-2342,-708
5355,1048,944,-1632,917,-2214,-734
5360,1096,1016,-1576,781,-2140,-745
5365,480,1080,-1488,677,-2118,-698
5370,1048,1104,-1360,637,-2057,-628
5375,1200,1624,-1512,675,-1943,-585
5380,1720,1392,-1496,766,-1778,-500
5385,1648,1600,-1656,886,-1530,-418
5390,1512,1424,-1768,1022,-1256,-331
5395,1392,1144,-1544,1091,-1031,-276
5400,1384,1360,-1704,1122,-886,-249
5405,1504,1328,-1728,1041,-765,-204
5410,1152,1168,-1712,952,-663,-199
5415,928,1104,-1744,894,-592,-201
5420,728,992,-1920,807,-560,-202
5425,648,936,-2104,672,-558,-190
5430,704,896,-2192,532,-554,-167
5435,528,928,-2160,404,-540,-156
5440,592,1072,-2016,250,-488,-147
5445,544,1032,-1920,159,-450,-136
5450,512,1112,-2048,131,-440,-124
5455,472,1144,-2112,131,-420,-107
5460,464,1160,-2128,124,-391,-93
5465,456,1040,-2120,125,-347,-71
5470,472,1032,-2136,119,-314,-61
5475,440,1040,-2136,123,-289,-48
5480,472,984,-2168,134,-265,-37
5485,480,1008,-2112,127,-248,-34
5490,440,1008,-2064,121,-226,-28
5495,424,992,-2096,129,-203,-27
5500,480,1008,-2040,140,-186,-24
5505,456,1032,-2032,156,-172,-23
5510,400,1056,-2024,172,-169,-30
5515,344,1040,-2016,186,-173,-36
5520,368,968,-2008,200,-167,-41
5525,352,928,-1984,215,-157,-39
5530,368,928,-1984,222,-144,-36
5535,384,920,-2008,224,-131,-31
5540,368,912,-1992,226,-117,-24
5545,384,888,-1976,230,-107,-18
5550,336,856,-1904,236,-98,-14
5555,376,832,-1912,244,-87,-7
5560,344,856,-1904,252,-83,-2
5565,352,832,-1856,258,-81,3
5570,312,808,-1800,266,-77,8
5575,320,800,-1784,280,-73,14
5580,368,808,-1744,294,-73,19
5585,392,792,-1744,304,-78,25
5590,376,776,-1776,315,-88,26
5595,344,808,-1760,325,-103,26
5600,344,808,-1792,336,-116,26
5605,360,848,-1776,343,-127,29
5610,344,872,-1808,349,-134,36
5615,328,1008,-1816,354,-135,39
5620,488,1160,-1784,345,-142,64
5625,584,752,-1704,346,-135,78
5630,456,1024,-1600,376,-143,65
5635,448,904,-1392,379,-162,63
5640,144,832,-1448,384,-215,43
5645,160,840,-1776,390,-320,32
5650,288,728,-2088,417,-351,33
5655,376,552,-2128,450,-302,34
5660,288,304,-2000,454,-227,28
5665,216,216,-1944,443,-172,19
5670,160,344,-1968,433,-145,8
5675,128,400,-1944,433,-119,5
5680,88,304,-1944,429,-92,8
5685,136,336,-1984,425,-76,12
5690,296,288,-2024,428,-67,14
5695,456,360,-1976,415,-64,9
5700,552,512,-1872,369,-72,-1
5705,552,680,-1872,301,-102,-8
5710,552,856,-1912,242,-141,-10
5715,488,1032,-1936,209,-175,-16
5720,512,1104,-2072,183,-198,-21
5725,440,1040,-2016,154,-228,-24
5730,272,1000,-2072,163,-255,-22
5735,136,992,-2112,197,-252,-14
5740,248,1024,-2112,225,-192,4
5745,200,880,-2048,250,-124,22
5750,176,792,-2008,273,-100,37
5755,168,840,-2008,293,-93,46
5760,296,992,-1968,308,-66,50
5765,128,888,-1920,325,-48,50
5770,184,696,-1920,349,-34,50
5775,240,616,-1960,356,-17,52
5780,280,592,-1856,364,-6,48
5785,224,560,-1816,388,-9,45
5790,224,504,-1824,420,-18,42
5795,208,336,-1872,452,-28,37
5800,216,192,-1976,468,-34,36
5805,232,216,-1968,459,-29,31
5810,312,48,-1984,447,-24,36
5815,312,152,-2016,434,-8,34
5820,392,272,-1912,399,2,36
5825,344,216,-1960,349,3,35
5830,312,352,-1992,300,6,30
5835,360,464,-1888,252,13,24
5840,288,552,-1912,209,18,16
5845,312,640,-1952,176,20,11
5850,272,624,-1928,149,15,5
5855,256,640,-1960,131,7,0
5860,256,648,-2016,122,0,-2
5865,288,640,-2024,113,0,-1
5870,296,584,-2064,106,3,0
5875,288,632,-2000,99,5,0
5880,288,600,-2008,89,12,-1
5885,280,632,-2072,81,14,0
5890,328,568,-2024,75,18,0
5895,288,600,-2112,68,20,1
5900,360,600,-2032,64,23,2
5905,328,576,-2008,57,21,0
5910,360,568,-2040,51,19,1
5915,360,592,-2024,44,17,2
5920,328,576,-2016,39,19,1
5925,304,584,-2040,32,25,1
5930,312,616,-2040,24,32,1
5935,320,584,-2008,17,37,-1
5940,304,624,-2000,10,44,-2
5945,304,624,-2008,2,51,-4
5950,304,624,-2040,-4,58,-5
5955,328,640,-1984,-9,63,-6
5960,296,624,-1960,-12,65,-9
5965,288,624,-1976,-11,67,-9
5970,312,624,-1976,-11,69,-12
5975,312,584,-1976,-10,70,-12
5980,288,608,-1936,-10,72,-11
5985,320,584,-1968,-9,75,-11
5990,304,592,-1968,-5,75,-11
5995,304,600,-1968,-2,79,-10
6000,288,552,-1960,0,80,-10
6005,296,576,-1944,3,80,-10
6010,352,576,-1928,6,77,-9
6015,312,568,-1952,10,73,-8
6020,328,584,-1952,16,69,-7
6025,312,560,-1928,20,63,-9
6030,320,600,-1952,25,59,-11
6035,296,608,-1952,28,54,-10
6040,336,592,-1912,29,47,-13
6045,304,632,-1944,29,43,-14
6050,312,608,-1896,30,38,-15
6055,280,616,-1984,30,32,-15
6060,320,640,-1920,30,27,-16
6065,328,608,-1944,30,23,-17
6070,320,624,-1936,33,19,-17
6075,320,608,-1912,36,13,-18
6080,312,624,-1920,38,8,-17
6085,320,624,-1912,38,4,-18
6090,344,608,-1920,37,0,-16
6095,328,584,-1928,36,-5,-18
6100,320,608,-1936,36,-11,-16
6105,320,632,-1968,35,-17,-17
6110,328,592,-1952,34,-20,-18
6115,320,600,-1952,33,-26,-20
6120,320,600,-1936,32,-28,-19
6125,296,608,-1928,30,-29,-18
6130,312,592,-1960,29,-27,-19
6135,320,600,-1944,31,-28,-18
6140,296,616,-1968,32,-26,-19
6145,288,640,-1976,35,-24,-17
6150,320,592,-1984,39,-24,-14
6155,336,616,-1952,43,-25,-15
6160,312,616,-1984,47,-25,-15
6165,336,600,-1984,54,-27,-13
6170,288,624,-1952,57,-28,-13
6175,320,592,-1992,60,-29,-12
6180,312,624,-1976,63,-28,-14
6185,296,608,-1960,65,-26,-11
6190,296,624,-1968,65,-23,-11
6195,312,632,-2000,66,-18,-10
6200,304,624,-1968,66,-13,-9
6205,312,624,-1976,68,-7,-10
6210,304,656,-2016,67,-1,-8
6215,296,608,-2024,70,5,-8
6220,264,616,-1984,72,10,-6
6225,304,632,-1984,74,14,-5
6230,320,600,-1984,74,18,-3
6235,296,616,-1992,74,20,-4
6240,320,624,-1976,76,22,-5
6245,304,624,-1992,77,24,-5
6250,328,600,-1976,78,26,-4
6255,288,600,-1944,80,27,-2
6260,312,592,-1960,78,28,-2
6265,328,592,-1960,76,28,-2
6270,280,536,-1968,75,27,-3
6275,312,592,-1952,73,25,-4
6280,296,600,-1944,73,22,-4
6285,296,584,-1944,71,20,-4
6290,288,600,-1936,69,18,-4
6295,312,568,-1936,67,16,-6
6300,296,584,-1936,67,13,-6
6305,312,568,-1976,65,11,-6
6310,312,568,-1896,65,11,-4
6315,296,600,-1984,64,10,-4
6320,312,568,-1944,62,8,-5
6325,288,600,-1976,61,8,-6
6330,320,600,-1960,58,10,-5
6335,320,568,-1952,57,11,-4
6340,296,616,-1944,55,13,-8
6345,312,584,-1984,54,15,-6
6350,320,600,-1952,54,14,-7
6355,312,608,-1976,56,16,-6
6360,312,608,-1968,58,18,-6
6365,288,584,-2000,58,19,-5
6370,304,600,-1976,58,21,-4
6375,304,584,-1960,56,23,-4
6380,256,608,-1944,54,24,-6
6385,312,632,-1952,51,27,-6
6390,304,600,-1984,50,29,-6
6395,320,608,-1968,49,31,-6
6400,336,608,-1960,51,32,-7
6405,336,584,-1984,51,32,-7
6410,336,584,-2008,51,34,-6
6415,304,608,-1992,50,35,-6
6420,312,600,-1984,52,38,-6
6425,312,608,-1976,51,39,-6
6430,312,624,-2008,50,40,-5
6435,328,592,-1976,49,40,-5
6440,336,600,-1968,51,41,-7
6445,296,568,-1968,50,40,-7
6450,312,592,-1968,49,39,-9
6455,312,624,-1920,49,37,-7
6460,296,600,-1960,51,36,-8
6465,320,600,-1992,50,36,-9
6470,336,600,-1960,50,36,-9
6475,312,600,-1960,49,35,-8
6480,320,584,-1928,48,36,-9
6485,320,592,-1968,48,34,-9
6490,312,624,-1968,47,32,-9
6495,328,600,-1912,48,29,-10
6500,344,608,-1952,47,27,-11
6505,328,600,-1928,48,24,-11
6510,336,592,-1944,48,21,-10
6515,320,584,-1952,47,18,-10
6520,320,584,-1968,47,16,-12
6525,336,616,-1920,47,12,-11
6530,352,568,-1944,47,7,-11
6535,320,584,-1984,48,3,-11
6540,304,600,-1976,49,1,-13
6545,328,608,-1952,50,0,-12
6550,312,600,-1984,50,-2,-11
6555,312,592,-1928,50,-2,-12
6560,328,600,-1960,51,-2,-12
6565,312,584,-1960,50,-3,-12
6570,312,600,-1968,49,-3,-13
6575,320,600,-1944,49,-5,-12
6580,320,592,-1968,50,-5,-11
6585,320,584,-1968,50,-5,-11
6590,320,576,-1968,51,-7,-11
6595,320,584,-1912,52,-6,-12
6600,336,600,-1984,53,-6,-12
6605,320,592,-1960,51,-6,-10
6610,304,616,-1960,51,-5,-10
6615,320,608,-1960,51,-7,-12
6620,320,592,-1952,52,-8,-11
6625,320,592,-2000,51,-8,-12
6630,320,624,-1952,53,-6,-12
6635,304,624,-1984,53,-6,-12
6640,328,584,-1976,55,-7,-13
6645,272,592,-2008,56,-7,-13
6650,312,600,-1960,56,-5,-13
6655,336,600,-1960,56,-4,-12
6660,328,608,-1976,58,-3,-11
6665,320,592,-1968,59,-2,-10
6670,304,600,-1960,59,1,-11
6675,312,592,-1960,59,1,-10
6680,320,576,-1976,58,3,-10
6685,304,576,-1960,57,5,-11
6690,336,584,-1952,55,7,-10
6695,320,600,-1944,54,7,-11
6700,304,568,-1968,53,6,-10
6705,328,584,-1968,55,8,-11
6710,328,600,-1936,56,8,-10
6715,320,576,-1952,56,8,-11
6720,312,584,-1976,55,6,-11
6725,320,600,-1960,53,6,-12
6730,320,592,-1928,52,5,-12
6735,304,608,-1952,52,5,-11
6740,312,568,-1912,52,4,-13
6745,320,616,-1952,52,2,-13
6750,312,568,-1952,51,3,-12
6755,312,592,-2000,54,2,-11
6760,320,600,-1960,53,0,-10
6765,320,608,-1968,54,-1,-10
6770,312,600,-1960,55,-1,-10
6775,312,600,-1976,56,-1,-11
6780,312,600,-1984,56,2,-9
6785,312,592,-1936,56,4,-9
6790,312,584,-1968,57,5,-11
6795,336,584,-1984,57,8,-11
6800,288,600,-2000,55,11,-12
6805,336,592,-2000,54,12,-11
6810,320,624,-1960,54,11,-11
6815,320,616,-1952,53,13,-9
6820,320,592,-1952,50,13,-11
6825,328,600,-1960,49,13,-10
6830,280,616,-1968,49,14,-11
6835,312,600,-1984,49,13,-11
6840,320,600,-1920,49,11,-11
6845,312,584,-1936,49,11,-10
6850,288,632,-1984,49,11,-10
6855,304,592,-2000,49,9,-11
6860,328,624,-1920,49,9,-11
6865,288,592,-1944,47,8,-9
6870,304,576,-2000,47,10,-9
6875,328,600,-1976,47,10,-10
6880,312,592,-1952,48,13,-11
6885,288,592,-1960,46,15,-10
6890,312,608,-1944,46,15,-10
6895,304,592,-1984,45,15,-10
6900,304,616,-1952,43,15,-10
6905,320,592,-1944,44,15,-10
6910,296,592,-1960,43,16,-11
6915,288,576,-2024,43,14,-10
6920,248,576,-1984,45,12,-11
6925,312,600,-1952,46,11,-11
6930,304,600,-1976,47,10,-11
6935,304,616,-1952,47,8,-11
6940,312,576,-1968,47,9,-11
6945,280,592,-1952,47,8,-10
6950,320,608,-1984,46,8,-10
6955,328,576,-1952,45,9,-10
6960,296,592,-1928,44,9,-10
6965,296,600,-1896,43,10,-9
6970,360,552,-2016,43,8,-11
6975,328,576,-1968,43,10,-10
6980,320,568,-1960,43,9,-11
6985,352,584,-1968,42,9,-9
6990,336,576,-1968,40,10,-9
6995,304,600,-1960,40,9,-7
7000,312,624,-1952,41,9,-7
7005,344,608,-1936,41,8,-7
7010,288,584,-1960,40,7,-8
7015,320,608,-1928,42,5,-8
7020,328,624,-1960,43,5,-10
7025,328,600,-1960,43,4,-9
7030,312,608,-1976,44,5,-10
7035,304,600,-1944,44,5,-9
7040,304,600,-1960,45,5,-9
7045,312,600,-1968,44,6,-9
7050,320,608,-1968,44,8,-8
7055,304,576,-2008,45,9,-8
7060,320,608,-1968,44,11,-7
7065,320,600,-1960,45,12,-7
7070,320,576,-1968,44,14,-6
7075,280,552,-1912,43,16,-6
7080,320,592,-1944,46,16,-7
7085,328,584,-1960,45,16,-7
7090,304,584,-1952,46,16,-7
7095,320,616,-1944,46,15,-7
7100,296,600,-1968,45,15,-8
7105,320,592,-1952,47,15,-7
7110,304,600,-1952,48,14,-5
7115,304,616,-1960,51,12,-4
7120,328,568,-1968,51,12,-7
7125,280,600,-1968,50,11,-3
7130,320,600,-1968,51,12,-5
7135,312,608,-1976,51,12,-5
7140,304,600,-1960,50,13,-7
7145,312,616,-1976,50,13,-5
7150,320,584,-1976,51,15,-4
7155,328,576,-1976,50,17,-5
7160,296,584,-1928,49,19,-5
7165,336,592,-1936,50,19,-5
7170,320,600,-1928,49,19,-6
7175,320,600,-2000,50,15,-5
7180,280,592,-1976,50,10,-6
7185,320,592,-1928,50,6,-7
7190,312,576,-1952,52,3,-7
7195,304,560,-1952,55,0,-5
7200,320,592,-1944,57,-2,-7
7205,328,600,-1968,58,-1,-6
7210,304,600,-1960,59,1,-7
7215,304,600,-1952,60,6,-8
7220,288,624,-1960,58,9,-6
7225,312,576,-1984,57,13,-5
7230,328,600,-1992,55,15,-4
7235,304,616,-1944,54,16,-5
7240,312,600,-1952,53,18,-5
7245,320,616,-1960,50,17,-8
7250,312,600,-1984,49,18,-9
7255,336,592,-1960,48,17,-10
7260,312,600,-1984,49,16,-9
7265,344,600,-1968,50,15,-8
7270,352,576,-1944,50,12,-9
7275,352,600,-1976,53,12,-9
7280,320,592,-2008,53,10,-10
7285,344,576,-2000,51,10,-11
7290,296,592,-2056,49,10,-12
7295,304,616,-1968,50,10,-11
7300,320,624,-1992,48,9,-11
7305,304,608,-1960,47,9,-11
7310,288,600,-1952,47,9,-12
7315,336,568,-1992,47,8,-14
7320,336,600,-1936,47,6,-12
7325,360,560,-1944,47,6,-13
7330,328,600,-1976,46,7,-12
7335,328,576,-1984,48,7,-11
7340,312,568,-1952,48,8,-10
7345,320,592,-1968,46,8,-13
7350,312,600,-1968,47,6,-12
7355,304,600,-1968,48,3,-12
7360,304,608,-1936,50,2,-12
7365,328,584,-1960,49,0,-13
7370,296,600,-1952,50,-1,-14
7375,328,576,-1992,49,-3,-15
7380,296,600,-1960,49,-6,-15
7385,312,592,-1960,47,-8,-14
7390,344,600,-1904,47,-9,-14
7395,312,600,-1952,46,-12,-15
7400,328,600,-1952,45,-11,-14
7405,312,568,-1960,46,-11,-13
7410,328,584,-1944,45,-10,-14
7415,320,592,-1936,45,-11,-14
7420,304,584,-1952,45,-10,-15
7425,312,608,-1984,45,-12,-15
7430,304,624,-1952,46,-12,-14
7435,320,584,-1960,48,-10,-14
7440,288,592,-1992,48,-11,-14
7445,296,584,-1968,46,-10,-13
7450,288,584,-1968,45,-10,-14
7455,296,608,-1992,47,-10,-15
7460,312,592,-1936,45,-9,-14
7465,304,616,-1936,47,-7,-14
7470,312,600,-1968,46,-8,-15
7475,296,600,-1984,47,-9,-14
7480,296,624,-1952,48,-11,-14
7485,264,624,-1976,50,-11,-13
7490,312,624,-1952,52,-12,-14
7495,304,592,-1984,53,-10,-13
7500,320,600,-1912,53,-10,-14
7505,328,592,-1992,53,-9,-13
7510,280,616,-1944,52,-7,-13
7515,304,568,-1960,51,-6,-13
7520,312,600,-1976,50,-5,-13
7525,312,584,-1952,51,-5,-13
7530,312,584,-1960,50,-5,-12
7535,328,592,-1984,52,-5,-13
7540,296,560,-1984,51,-5,-13
7545,280,616,-1992,52,-5,-12
7550,272,616,-1952,54,-5,-12
7555,304,560,-1928,55,-5,-12
7560,312,576,-1968,54,-5,-13
7565,320,592,-1920,55,-4,-11
7570,304,576,-1960,56,-5,-11
7575,288,616,-1984,56,-5,-12
7580,304,600,-1936,56,-5,-12
7585,296,600,-1928,59,-7,-10
7590,304,608,-1952,60,-7,-11
7595,320,584,-1968,60,-6,-13
7600,296,592,-2008,61,-5,-12
7605,328,560,-1944,63,-4,-11
7610,288,616,-1944,60,-3,-11
7615,296,592,-1952,61,-2,-9
7620,288,600,-1976,61,0,-10
7625,296,608,-2008,61,0,-11
7630,312,616,-1952,60,1,-12
7635,288,608,-1968,61,1,-10
7640,280,576,-1992,61,1,-10
7645,296,576,-2000,60,3,-11
7650,328,560,-1968,59,4,-11
7655,288,616,-1976,57,3,-12
7660,280,608,-1968,55,5,-11
7665,296,600,-1976,53,7,-12
7670,288,592,-1976,51,9,-13
7675,288,608,-1976,51,8,-10
7680,296,624,-1952,50,10,-11
7685,312,584,-1968,49,10,-10
7690,296,600,-1944,49,10,-11
7695,296,616,-1960,49,8,-12
7700,272,616,-1968,51,7,-11
7705,304,592,-1960,50,7,-12
7710,304,608,-1944,50,6,-12
7715,320,568,-1992,49,8,-11
7720,296,584,-1960,48,8,-11
7725,296,592,-1984,46,9,-13
7730,304,568,-1992,44,11,-12
7735,304,576,-1976,44,12,-11
7740,312,584,-1960,42,11,-11
7745,304,616,-1952,43,12,-11
7750,288,608,-1960,44,10,-11
7755,296,576,-1936,44,10,-11
7760,304,592,-1928,45,9,-12
7765,288,576,-1944,45,7,-13
7770,280,584,-1968,46,7,-12
7775,328,592,-1968,47,5,-12
7780,296,592,-1976,50,5,-13
7785,280,608,-1984,52,5,-12
7790,312,576,-1984,54,4,-12
7795,280,616,-1984,56,4,-11
7800,296,576,-1960,59,5,-11
7805,280,608,-1952,60,4,-10
7810,304,600,-1944,59,5,-9
7815,320,584,-1952,62,4,-10
7820,296,584,-1896,62,4,-11
7825,304,592,-1984,63,5,-11
7830,288,600,-1960,64,4,-11
7835,296,576,-1968,64,4,-11
7840,296,592,-1984,62,4,-11
7845,304,584,-1960,61,4,-10
7850,304,584,-1960,58,5,-10
7855,272,600,-1984,58,5,-11
7860,328,560,-1960,57,6,-11
7865,312,592,-1968,57,5,-10
7870,280,576,-1992,59,4,-10
7875,272,560,-2008,59,4,-10
7880,288,584,-1976,59,3,-10
7885,288,608,-1976,57,4,-10
7890,288,608,-1968,57,5,-10
7895,312,600,-1984,57,5,-11
7900,296,600,-1976,58,4,-11
7905,304,576,-1968,57,5,-12
7910,296,608,-1992,57,6,-11
7915,296,584,-1928,58,7,-10
7920,280,592,-1936,59,8,-9
7925,304,600,-2008,59,7,-9
7930,296,544,-1976,58,9,-9
7935,296,600,-1992,59,9,-8
7940,304,584,-1960,58,11,-7
7945,304,552,-1960,57,10,-9
7950,304,568,-1984,58,12,-10
7955,312,584,-1968,57,12,-10
7960,312,568,-1984,57,12,-10
7965,304,584,-1944,56,12,-8
7970,280,584,-1976,57,12,-8
7975,288,600,-1960,57,10,-9
7980,296,576,-1992,56,11,-10
7985,296,584,-1976,55,10,-9
7990,304,568,-1952,56,12,-9
7995,296,592,-1936,56,10,-9
8000,280,608,-1976,56,10,-8
8005,288,592,-1976,56,9,-9
8010,296,592,-1944,57,9,-8
8015,288,552,-1960,56,9,-11
8020,288,592,-2000,57,8,-11
8025,288,592,-1968,55,8,-10
8030,296,568,-1976,53,7,-9
8035,288,568,-1920,53,8,-8
8040,280,608,-1952,53,7,-11
8045,312,592,-1976,52,6,-11
8050,304,576,-1944,52,7,-11
8055,304,560,-1968,51,5,-11
8060,280,592,-1944,50,5,-13
8065,272,608,-1960,48,7,-10
8070,304,576,-1960,48,4,-10
8075,288,592,-1944,49,4,-12
8080,296,592,-1960,47,5,-10
8085,288,576,-1968,47,4,-11
8090,296,584,-1984,48,4,-10
8095,280,568,-1960,48,4,-12
8100,304,584,-1960,45,5,-13
8105,296,584,-1944,44,5,-13
8110,296,568,-1976,43,5,-11
8115,304,584,-1976,44,6,-11
8120,304,592,-1968,45,5,-12
8125,280,592,-1936,44,5,-14
8130,280,608,-1984,45,4,-14
8135,304,600,-1944,46,4,-13
8140,272,592,-1952,45,5,-12
8145,296,600,-1960,45,4,-12
8150,296,584,-1944,46,4,-13
8155,320,592,-2000,45,6,-14
8160,272,592,-1952,45,6,-13
8165,320,592,-1976,45,6,-11
8170,288,592,-1968,45,6,-11
8175,304,592,-1984,44,7,-11
8180,288,592,-1984,45,6,-13
8185,328,576,-1928,45,7,-11
8190,296,592,-1968,45,8,-12
8195,328,560,-1920,44,8,-11
8200,304,576,-1976,44,9,-11
8205,280,592,-1992,45,11,-13
8210,296,600,-1976,42,11,-12
8215,296,584,-1960,42,9,-11
8220,304,576,-1968,43,10,-11
8225,280,600,-1992,44,11,-11
8230,296,584,-1960,45,10,-11
8235,272,592,-1976,46,11,-10
8240,328,552,-1976,46,11,-11
8245,328,568,-1936,47,12,-12
8250,304,576,-1960,48,12,-12
8255,312,592,-1968,48,13,-11
8260,304,592,-1952,48,12,-11
8265,288,600,-1960,49,12,-11
8270,280,592,-1976,50,11,-9
8275,296,592,-1976,49,11,-10
8280,296,608,-1952,50,10,-10
8285,304,592,-1984,49,10,-11
8290,296,600,-1944,49,10,-10
8295,304,568,-1984,49,9,-8
8300,288,592,-1976,50,10,-9
8305,272,576,-1912,49,8,-11
8310,296,600,-1968,50,10,-9
8315,296,576,-1952,49,12,-10
8320,320,584,-1968,49,13,-11
8325,288,568,-1960,50,13,-10
8330,272,568,-1992,50,15,-11
8335,296,616,-1992,48,16,-10
8340,280,576,-1960,49,16,-12
8345,280,592,-1960,49,16,-11
8350,296,592,-1976,49,18,-11
8355,312,600,-1944,48,18,-10
8360,288,608,-1976,48,19,-10
8365,280,592,-1984,48,19,-10
8370,304,568,-1992,47,20,-11
8375,280,584,-1952,45,21,-11
8380,296,600,-1952,44,21,-11
8385,296,600,-1960,42,22,-11
8390,296,600,-1936,41,23,-11
8395,304,592,-1968,40,24,-10
8400,304,568,-1920,36,26,-9
8405,272,584,-1960,32,27,-10
8410,288,600,-1904,29,28,-12
8415,304,584,-1928,26,26,-12
8420,296,584,-1984,26,26,-12
8425,288,584,-1944,28,24,-13
8430,304,608,-1920,32,21,-12
8435,304,584,-1984,39,18,-14
8440,288,624,-1960,45,13,-13
8445,296,640,-2016,48,9,-13
8450,288,576,-1984,52,8,-12
8455,280,600,-1968,56,4,-12
8460,328,616,-1976,57,4,-12
8465,304,576,-1960,60,5,-12
8470,304,592,-2000,58,5,-13
8475,280,600,-2016,57,6,-14
8480,296,600,-1992,55,7,-12
8485,304,592,-1984,53,8,-12
8490,296,600,-1984,54,10,-12
8495,312,568,-1984,56,11,-12
8500,280,584,-2000,58,14,-12
8505,304,584,-1984,60,17,-11
8510,296,608,-1976,61,21,-10
8515,272,552,-1968,60,21,-10
8520,296,576,-1944,60,21,-9
8525,296,592,-1992,57,20,-10
8530,320,576,-1984,55,21,-8
8535,272,592,-1960,52,21,-10
8540,304,584,-1960,50,20,-10
8545,312,584,-1952,48,19,-9
8550,304,576,-1960,46,17,-10
8555,296,592,-1952,46,15,-10
8560,328,576,-1976,46,12,-9
8565,312,576,-1992,47,11,-10
8570,320,592,-1944,49,9,-11
8575,304,584,-1936,51,6,-11
8580,304,584,-1960,51,4,-9
8585,312,600,-1968,51,1,-10
8590,288,624,-1984,50,2,-11
8595,296,592,-1968,48,1,-11
8600,296,568,-1984,47,0,-10
8605,304,608,-1952,45,0,-11
8610,296,608,-2000,44,-1,-11
8615,296,600,-1968,43,0,-12
8620,304,568,-1976,42,1,-10
8625,288,592,-1960,43,1,-12
8630,288,568,-1960,41,3,-12
8635,280,592,-1960,42,4,-11
8640,304,600,-1960,41,5,-12
8645,296,600,-1976,44,7,-12
8650,272,584,-1952,46,7,-10
8655,312,584,-1976,47,10,-9
8660,312,592,-1944,47,11,-11
8665,312,600,-1936,49,11,-11
8670,288,584,-1968,52,13,-9
8675,304,608,-2016,53,13,-10
8680,304,560,-1976,53,15,-9
8685,296,568,-1984,54,13,-9
8690,320,584,-1960,52,14,-9
8695,320,600,-1936,52,13,-10
8700,312,576,-1952,52,14,-9
8705,304,600,-1968,52,15,-11
8710,288,608,-1960,50,14,-10
8715,312,576,-1936,47,14,-9
8720,280,608,-1944,44,14,-10
8725,280,568,-1936,40,15,-10
8730,320,560,-1896,34,15,-10
8735,272,576,-1912,28,17,-10
8740,288,568,-1944,25,18,-11
8745,280,600,-1944,25,18,-10
8750,328,592,-1952,30,19,-12
8755,304,616,-2000,38,16,-11
8760,312,624,-1992,50,13,-11
8765,296,600,-2024,66,10,-9
8770,328,600,-2024,80,6,-9
8775,296,632,-2008,88,5,-9
8780,288,600,-2040,91,4,-7
8785,296,632,-1976,89,6,-7
8790,288,560,-1992,85,7,-7
8795,280,568,-1976,78,12,-6
8800,296,568,-1960,71,17,-6
8805,288,600,-1968,62,20,-6
8810,264,576,-1968,53,25,-7
8815,288,576,-1960,46,26,-8
8820,320,600,-1952,41,26,-8
8825,312,584,-1944,38,26,-8
8830,312,576,-1960,36,23,-9
8835,312,592,-1952,37,20,-8
8840,304,608,-1952,39,16,-10
8845,328,584,-1952,43,12,-11
8850,296,576,-1968,46,7,-11
8855,304,584,-1960,50,4,-10
8860,304,584,-1968,52,1,-9
8865,288,592,-1944,54,0,-10
8870,320,584,-1968,57,-1,-10
8875,304,560,-1984,56,1,-9
8880,304,592,-1976,56,2,-10
8885,312,632,-1944,53,5,-9
8890,336,584,-1936,51,6,-7
8895,312,560,-1976,50,8,-9
8900,304,592,-1984,49,11,-10
8905,312,584,-2000,46,11,-7
8910,296,600,-1952,44,11,-9
8915,312,592,-1960,42,13,-11
8920,320,568,-1952,42,13,-10
8925,280,600,-1984,41,12,-9
8930,304,584,-1976,42,11,-9
8935,296,560,-1976,42,11,-10
8940,320,584,-1984,42,8,-11
8945,264,568,-1984,44,8,-13
8950,296,560,-1968,44,7,-12
8955,304,592,-1976,44,5,-12
8960,288,592,-1968,45,5,-13
8965,312,584,-1960,47,2,-11
8970,288,600,-1968,45,1,-13
8975,320,592,-1936,46,1,-12
8980,288,608,-1984,46,-1,-12
8985,312,600,-1936,47,0,-12
8990,288,576,-1976,47,-1,-14
8995,304,552,-1944,47,-1,-13
9000,288,592,-1992,47,-1,-15
9005,304,600,-1976,48,-1,-14
9010,288,600,-1984,47,0,-13
9015,304,592,-1976,49,0,-12
9020,320,584,-1984,47,1,-12
9025,304,568,-1976,47,1,-14
9030,264,584,-1968,47,2,-11
9035,296,568,-1984,48,2,-12
9040,296,584,-1960,48,1,-12
9045,320,584,-1976,48,2,-9
9050,320,544,-1984,48,5,-11
9055,312,568,-1976,48,4,-10
9060,272,600,-1976,48,5,-12
9065,296,576,-1992,49,4,-11
9070,312,576,-1952,48,6,-11
9075,280,608,-1960,49,6,-11
9080,304,600,-1984,50,6,-10
9085,256,584,-1992,50,6,-10
9090,312,600,-1960,52,7,-11
9095,296,576,-1968,50,7,-11
9100,304,592,-1968,51,7,-12
9105,296,576,-1912,52,8,-11
9110,288,608,-1992,52,7,-10
9115,296,600,-1976,52,8,-11
9120,296,592,-1968,53,6,-11
9125,312,592,-1944,54,7,-10
9130,288,600,-2000,55,8,-12
9135,280,584,-1960,54,8,-11
9140,280,576,-1968,54,9,-8
9145,288,584,-2000,56,9,-9
9150,312,592,-1976,56,9,-9
9155,312,576,-1984,57,11,-10
9160,296,576,-1952,56,12,-9
9165,296,568,-1992,53,13,-10
9170,280,576,-1936,52,14,-10
9175,312,560,-1952,49,14,-9
9180,296,576,-1960,46,13,-9
9185,288,576,-1952,44,12,-10
9190,288,568,-1968,44,9,-10
9195,304,592,-2008,45,7,-12
9200,296,584,-1952,46,6,-11
9205,360,592,-1960,43,4,-10
9210,264,552,-1920,41,4,-11
9215,304,584,-1992,36,7,-11
9220,280,592,-1944,35,7,-12
9225,328,576,-1960,32,10,-13
9230,320,568,-1960,31,10,-11
9235,304,592,-1984,30,10,-11
9240,288,592,-1976,32,12,-13
9245,280,592,-1976,34,11,-11
9250,304,592,-1976,35,11,-13
9255,296,584,-1936,39,11,-11
9260,280,592,-2000,40,12,-9
9265,304,568,-1968,40,13,-7
9270,320,576,-1944,40,15,-10
9275,288,600,-1952,39,16,-10
9280,304,584,-1976,40,18,-10
9285,312,600,-1952,40,18,-9
9290,296,568,-1968,39,17,-11
9295,296,568,-1928,38,16,-9
9300,304,560,-1992,40,14,-9
9305,296,624,-1968,41,14,-10
9310,280,616,-1944,40,14,-11
9315,304,616,-1968,42,12,-9
9320,296,600,-1960,41,10,-11
9325,296,576,-1952,42,8,-11
9330,288,592,-1968,43,5,-11
9335,296,592,-1952,44,5,-13
9340,296,584,-1960,44,4,-10
9345,280,600,-1960,45,2,-10
9350,320,584,-1960,46,1,-9
9355,280,592,-2008,47,2,-11
9360,328,568,-1912,46,1,-11
9365,304,584,-1960,47,-1,-13
9370,320,592,-1944,49,-2,-12
9375,312,584,-1944,51,-2,-11
9380,312,600,-1984,51,-2,-12
9385,304,592,-1968,51,-4,-12
9390,296,608,-1960,51,-4,-12
9395,304,592,-1928,51,-5,-11
9400,312,608,-1968,52,-5,-12
9405,288,584,-1992,54,-5,-11
9410,304,568,-1960,56,-6,-10
9415,296,576,-1952,55,-7,-12
9420,296,568,-1984,54,-5,-12
9425,264,608,-1992,53,-3,-11
9430,288,584,-1960,52,-2,-12
9435,296,584,-1976,51,0,-10
9440,296,600,-1976,48,2,-10
9445,288,592,-1952,46,3,-11
9450,312,592,-1960,46,4,-11
9455,288,584,-1968,45,5,-11
9460,288,600,-1968,46,6,-11
9465,296,616,-1992,47,7,-11
9470,320,576,-1960,48,7,-11
9475,280,552,-1952,48,5,-11
9480,256,592,-1960,48,6,-11
9485,272,592,-1960,49,5,-12
9490,280,592,-1944,49,5,-12
9495,304,568,-1984,49,5,-12
9500,296,576,-1968,51,5,-11
9505,288,592,-1976,48,5,-11
9510,296,600,-1960,47,7,-11
9515,296,592,-1984,47,6,-11
9520,288,616,-1960,46,8,-11
9525,304,608,-2000,47,9,-10
9530,360,552,-1976,48,8,-11
9535,280,584,-1968,48,9,-11
9540,296,584,-1984,49,8,-12
9545,304,584,-1992,49,9,-10
9550,296,592,-1976,49,9,-12
9555,312,584,-1976,49,9,-11
9560,312,584,-1976,49,9,-11
9565,296,616,-2008,49,10,-12
9570,280,592,-1960,50,11,-11
9575,304,600,-1976,50,10,-12
9580,288,608,-2032,50,11,-10
9585,248,624,-1976,49,13,-11
9590,280,600,-1944,48,13,-11
9595,280,576,-1992,48,13,-10
9600,288,600,-1976,48,13,-10
9605,304,600,-1984,48,14,-10
9610,296,600,-1952,48,13,-10
9615,312,576,-1992,50,13,-9
9620,288,608,-2000,51,14,-10
9625,312,600,-1984,52,14,-10
9630,296,584,-1960,52,15,-8
9635,272,576,-1968,51,15,-9
9640,288,608,-1960,52,14,-10
9645,312,552,-1976,52,14,-11
9650,296,600,-1960,52,15,-9
9655,304,608,-1944,51,15,-8
9660,296,600,-1960,53,15,-8
9665,296,592,-1960,55,15,-8
9670,264,600,-1960,55,15,-9
9675,296,608,-1968,56,15,-9
9680,288,592,-1992,56,14,-7
9685,312,576,-1976,56,16,-10
9690,288,544,-1984,56,17,-9
9695,272,576,-1976,56,17,-8
9700,296,600,-1976,56,19,-8
9705,296,608,-1960,56,20,-9
9710,296,600,-1976,53,22,-8
9715,296,584,-1960,51,22,-9
9720,296,584,-1944,51,24,-11
9725,256,600,-1968,51,25,-10
9730,280,600,-1968,51,25,-9
9735,296,560,-2008,53,24,-8
9740,304,560,-2008,53,23,-9
9745,288,568,-1992,53,25,-9
9750,288,576,-1936,51,26,-9
9755,296,584,-1960,50,25,-8
9760,296,584,-1968,51,25,-9
9765,296,608,-1968,51,24,-10
9770,288,600,-1976,50,24,-12
9775,320,632,-1944,52,20,-12
9780,264,584,-1968,53,17,-10
9785,320,568,-1944,54,18,-9
9790,304,576,-1912,54,16,-9
9795,296,560,-1944,54,16,-10
9800,304,584,-1968,53,16,-9
9805,288,584,-1952,52,15,-11
9810,296,568,-1952,52,15,-11
9815,280,576,-1976,52,15,-10
9820,280,592,-1936,53,14,-11
9825,288,584,-1960,52,13,-11
9830,280,592,-1984,54,13,-10
9835,296,616,-1944,55,11,-10
9840,312,592,-1976,55,11,-12
9845,328,584,-1944,54,10,-10
9850,272,624,-2008,53,11,-9
9855,280,592,-1968,54,12,-9
9860,304,568,-1976,53,12,-10
9865,296,584,-1984,51,13,-10
9870,320,584,-1992,51,16,-9
9875,288,600,-2008,49,16,-10
9880,328,568,-1992,48,16,-9
9885,304,592,-1968,48,18,-9
9890,304,584,-1976,46,18,-8
9895,288,608,-1984,44,20,-9
9900,336,568,-1944,45,20,-9
9905,296,648,-1936,43,21,-8
9910,312,568,-1952,43,20,-9
9915,312,592,-1936,43,18,-9
9920,296,592,-1984,45,16,-9
9925,304,592,-1976,46,14,-10
9930,296,592,-1968,44,14,-10
9935,336,568,-1960,46,12,-9
9940,288,568,-1928,46,9,-10
9945,320,584,-1968,47,9,-11
9950,312,592,-1960,45,8,-12
9955,288,592,-1984,45,7,-13
9960,256,640,-2032,45,7,-12
9965,288,576,-1968,45,7,-11
9970,328,592,-1960,46,7,-10
9975,320,592,-1952,46,5,-12
9980,312,592,-1968,47,4,-12
9985,304,584,-2000,45,4,-12
9990,264,568,-1984,47,4,-12
9995,288,584,-1944,45,4,-11
10000,288,616,-1968,43,5,-11
10005,328,568,-1952,43,5,-13
10010,288,552,-1984,43,3,-13
10015,304,592,-1968,45,4,-12
10020,304,592,-1992,45,3,-13
10025,272,608,-1992,46,4,-11
10030,296,576,-1968,47,2,-10
10035,304,600,-1968,50,1,-11
10040,296,584,-1960,50,3,-11
10045,304,592,-1992,49,4,-9
10050,336,568,-1984,49,5,-12
10055,280,584,-1960,49,6,-12
10060,312,592,-1952,48,6,-12
10065,272,592,-1960,50,7,-12
10070,288,584,-1984,49,8,-11
10075,296,600,-1960,49,9,-10
10080,272,608,-1984,49,8,-11
10085,288,616,-1968,48,8,-12
10090,296,616,-1952,48,8,-13
10095,288,576,-1984,47,10,-12
10100,320,568,-1960,46,10,-13
10105,296,568,-1944,45,10,-11
10110,288,600,-1920,44,11,-11
10115,296,608,-1952,44,11,-12
10120,288,592,-1960,43,11,-12
10125,296,568,-1960,44,10,-11
10130,288,600,-1984,44,9,-11
10135,304,560,-1960,44,7,-11
10140,288,600,-1968,45,8,-11
10145,288,608,-1984,44,7,-12
10150,296,600,-1944,47,9,-10
10155,312,576,-1960,48,7,-12
10160,304,576,-1984,48,7,-13
10165,296,592,-1960,46,7,-12
10170,264,616,-1976,47,8,-11
10175,296,592,-1968,47,8,-10
10180,296,600,-1968,48,9,-11
10185,304,552,-1960,47,10,-12
10190,304,568,-1968,46,10,-10
10195,312,608,-1936,46,10,-11
10200,320,568,-1952,46,11,-12
10205,296,600,-2000,46,11,-10
10210,296,584,-1984,47,12,-11
10215,288,576,-2000,46,12,-10
10220,296,616,-1976,47,13,-11
10225,256,616,-2008,47,12,-11
10230,320,592,-1976,47,12,-12
10235,280,608,-1968,49,12,-11
10240,304,600,-1960,49,13,-11
10245,304,592,-1936,48,13,-12
10250,328,592,-1976,49,13,-10
10255,288,576,-1976,49,13,-8
10260,336,560,-1944,50,14,-10
10265,320,576,-1976,50,15,-10
10270,320,576,-1984,51,13,-8
10275,296,576,-1968,52,14,-9
10280,264,576,-1976,52,12,-8
10285,320,592,-1976,53,12,-10
10290,296,592,-1968,52,12,-10
10295,296,584,-1976,53,11,-12
10300,312,592,-1976,54,11,-10
10305,304,600,-1960,53,11,-11
10310,312,592,-1952,51,12,-11
10315,328,600,-1968,50,12,-10
10320,296,592,-1968,51,12,-10
10325,296,592,-1960,51,12,-9
10330,288,592,-1992,50,12,-10
10335,296,592,-1976,49,13,-9
10340,288,592,-1952,48,13,-10
10345,296,608,-1952,47,11,-9
10350,304,616,-1968,46,11,-11
10355,304,608,-1968,45,12,-11
10360,304,576,-1960,46,12,-12
10365,288,608,-1952,51,11,-10
10370,288,584,-1968,51,10,-8
10375,320,584,-1976,51,10,-8
10380,336,576,-1944,48,10,-10
10385,336,552,-1928,48,10,-12
10390,328,568,-1984,49,7,-10
10395,296,568,-1976,49,8,-10
10400,288,584,-1952,49,6,-12
10405,280,576,-1928,47,8,-11
10410,312,568,-1952,44,8,-12
10415,288,584,-1952,42,9,-12
10420,320,576,-1960,38,10,-11
10425,280,616,-1920,35,11,-12
10430,336,576,-1952,32,12,-12
10435,280,576,-1968,33,12,-11
10440,296,560,-1928,30,11,-13
10445,304,576,-1936,28,12,-15
10450,304,608,-1944,25,12,-14
10455,312,576,-1936,21,11,-15
10460,312,584,-1968,21,9,-15
10465,296,576,-1984,22,7,-14
10470,336,600,-2000,23,6,-15
10475,296,640,-2008,27,4,-16
10480,288,616,-1984,32,3,-15
10485,296,608,-1976,35,1,-14
10490,296,600,-1960,40,0,-14
10495,312,576,-2016,43,0,-15
10500,296,608,-1984,46,2,-11
10505,304,616,-1968,47,3,-12
10510,296,584,-1992,48,7,-10
10515,288,600,-1952,48,10,-10
10520,296,592,-1960,48,12,-11
10525,272,600,-2008,49,12,-11
10530,328,592,-1976,48,14,-11
10535,296,608,-1952,46,15,-11
10540,296,632,-1976,45,14,-10
10545,264,568,-1952,46,14,-10
10550,312,592,-1968,47,14,-11
10555,320,568,-1960,48,15,-11
10560,288,600,-1952,48,15,-10
10565,296,616,-1960,48,13,-11
10570,304,600,-1944,49,12,-14
10575,296,592,-1952,50,12,-13
10580,312,584,-1984,49,12,-12
10585,304,592,-1944,50,11,-11
10590,288,592,-1984,50,10,-11
10595,296,576,-1968,51,7,-12
10600,336,576,-1960,51,7,-11
10605,296,608,-1920,52,8,-11
10610,296,576,-1976,53,8,-11
10615,344,552,-1944,53,7,-11
10620,304,600,-1968,52,6,-10
10625,296,600,-1968,52,6,-12
10630,296,576,-2008,52,6,-11
10635,320,608,-1960,50,7,-11
10640,288,632,-1984,50,7,-11
10645,296,608,-1968,50,8,-11
10650,248,560,-1968,50,9,-11
10655,320,592,-1976,50,12,-11
10660,296,600,-1960,50,14,-10
10665,288,592,-1936,49,14,-9
10670,296,584,-1976,51,16,-8
10675,320,576,-1944,49,15,-9
10680,304,600,-1992,49,15,-10
10685,264,608,-1960,48,15,-10
10690,296,608,-1976,47,15,-11
10695,312,584,-1984,47,14,-10
10700,352,640,-1968,47,12,-10
10705,328,568,-1904,45,12,-9
10710,272,576,-1960,45,11,-9
10715,288,592,-1992,46,11,-8
10720,320,600,-1976,46,10,-8
10725,296,576,-1936,46,9,-9
10730,296,592,-1992,47,9,-11
10735,296,584,-1968,46,9,-10
10740,312,568,-1968,45,8,-9
10745,312,560,-1968,45,9,-11
10750,304,600,-1976,46,11,-9
10755,296,584,-1968,46,12,-10
10760,296,592,-1944,46,12,-9
10765,304,576,-1984,46,13,-10
10770,312,576,-1992,46,12,-10
10775,320,576,-1984,46,11,-9
10780,296,616,-1968,46,11,-10
10785,296,608,-1960,46,11,-11
10790,288,616,-1976,48,12,-9
10795,312,568,-1936,48,10,-10
10800,320,576,-1968,48,9,-8
10805,288,576,-1960,47,11,-10
10810,272,624,-1952,47,10,-12
10815,288,600,-1968,45,10,-12
10820,296,600,-1968,46,10,-12
10825,288,584,-1952,47,10,-12
10830,296,576,-1976,47,9,-13
10835,272,616,-1952,45,9,-12
10840,296,584,-1944,44,7,-12
10845,272,584,-1984,46,6,-11
10850,296,568,-2008,47,6,-12
10855,344,584,-1976,48,5,-12
10860,288,600,-1976,47,5,-12
10865,280,664,-2048,46,2,-14
10870,296,600,-1944,47,1,-12
10875,280,584,-1960,48,3,-13
10880,296,616,-1968,49,3,-13
10885,296,592,-1952,49,3,-13
10890,280,608,-1968,48,3,-11
10895,288,600,-1984,48,1,-13
10900,288,600,-1936,48,3,-13
10905,304,592,-1936,48,2,-11
10910,296,576,-1976,47,1,-12
10915,304,608,-1976,48,0,-12
10920,288,640,-1984,49,-1,-13
10925,288,600,-1968,50,0,-12
10930,296,584,-1968,49,0,-12
10935,296,592,-1976,49,1,-12
10940,272,592,-1976,52,-1,-11
10945,304,568,-1936,52,-1,-12
10950,296,600,-1976,53,-1,-11
10955,304,600,-1992,53,1,-11
10960,280,584,-1992,54,2,-13
10965,312,592,-2000,55,2,-14
10970,240,600,-2008,56,4,-10
10975,296,576,-1944,56,5,-11
10980,304,608,-1976,55,4,-10
10985,296,592,-1960,56,5,-10
10990,272,576,-1976,56,5,-10
10995,304,600,-1984,56,5,-12
11000,296,592,-1976,55,7,-11
11005,296,568,-1968,52,7,-10
11010,288,600,-1976,50,8,-12
11015,296,576,-1936,49,7,-10
11020,320,560,-1944,48,6,-11
11025,304,568,-1992,47,5,-13
11030,288,592,-1984,48,4,-11
11035,312,576,-1984,50,3,-12
11040,320,584,-2016,52,3,-12
11045,304,584,-1992,51,2,-12
11050,296,568,-1968,51,1,-12
11055,288,576,-1984,50,3,-11
11060,296,576,-1968,51,1,-13
11065,280,568,-1952,50,2,-12
11070,296,592,-1984,50,3,-10
11075,288,576,-1960,50,2,-11
11080,304,552,-1960,49,2,-13
11085,288,608,-1960,49,4,-11
11090,280,600,-1992,48,5,-12
11095,264,600,-1960,47,4,-12
11100,288,584,-1984,47,5,-12
11105,296,592,-1976,47,6,-12
11110,288,616,-1992,47,6,-12
11115,288,608,-1944,47,7,-11
11120,296,616,-1944,47,8,-10
11125,272,600,-1968,47,8,-10
11130,232,576,-1976,47,8,-10
11135,296,592,-2000,48,8,-11
11140,288,600,-1976,47,8,-11
11145,272,592,-1960,46,8,-10
11150,288,600,-1952,47,9,-11
11155,304,592,-1992,46,10,-12
11160,280,600,-1944,48,7,-11
11165,280,608,-1984,46,9,-11
11170,288,624,-1944,48,8,-11
11175,264,608,-1992,48,8,-10
11180,288,600,-1960,49,7,-12
11185,296,560,-1936,50,8,-12
11190,304,600,-1984,49,8,-12
11195,288,592,-1976,50,7,-12
11200,296,560,-1992,50,8,-10
11205,288,584,-1960,51,8,-9
11210,304,576,-1952,52,7,-10
11215,304,584,-1968,51,7,-9
11220,312,552,-1968,50,7,-11
11225,304,576,-1928,49,7,-11
11230,280,592,-1960,48,7,-12
11235,296,600,-1952,49,5,-11
11240,264,568,-1968,50,4,-11
11245,312,576,-1984,50,5,-12
11250,304,600,-1960,52,6,-10
11255,296,568,-1992,52,5,-10
11260,296,584,-1968,52,7,-10
11265,296,592,-1968,52,8,-10
11270,296,616,-1976,51,8,-11
11275,312,608,-1992,52,7,-10
11280,248,616,-1984,52,8,-11
11285,296,584,-1920,51,9,-8
11290,288,560,-1984,51,9,-10
11295,272,584,-1960,51,8,-10
11300,296,592,-1968,52,8,-9
11305,272,600,-1936,50,7,-8
11310,296,600,-1976,51,7,-10
11315,288,552,-1960,51,9,-10
11320,280,592,-1976,51,7,-10
11325,272,568,-1968,51,8,-11
11330,304,592,-1952,50,8,-9
11335,304,592,-1960,51,9,-10
11340,272,584,-1944,50,10,-9
11345,296,568,-1976,49,11,-9
11350,280,584,-1984,49,10,-10
11355,280,608,-1976,50,10,-10
11360,288,600,-1952,50,10,-12
11365,272,592,-1976,50,12,-11
11370,288,600,-1984,49,11,-10
11375,272,576,-1960,48,12,-10
11380,296,616,-1960,48,11,-11
11385,296,584,-1944,47,10,-10
11390,272,568,-1992,47,10,-10
11395,288,584,-1944,47,10,-11
11400,320,592,-2008,48,10,-11
11405,288,592,-1984,47,10,-10
11410,280,584,-1936,48,9,-9
11415,264,608,-1976,48,9,-10
11420,272,600,-1960,48,10,-9
11425,296,584,-1976,49,10,-11
11430,272,600,-1928,47,9,-9
11435,280,616,-1944,48,10,-11
11440,264,576,-1952,47,9,-10
11445,296,560,-1968,48,9,-9
11450,272,552,-1976,47,7,-10
11455,304,592,-1984,48,8,-11
11460,304,608,-1960,48,6,-11
11465,320,600,-1936,48,7,-10
11470,288,592,-1960,46,8,-7
11475,264,592,-1968,44,8,-8
11480,272,600,-1952,45,8,-11
11485,296,608,-1968,46,8,-10
11490,280,608,-2008,49,8,-11
11495,288,600,-2000,52,8,-12
11500,312,608,-1984,53,9,-13
11505,336,616,-1976,51,7,-13
11510,296,600,-1984,48,6,-12
11515,272,608,-1968,45,6,-12
11520,296,584,-1952,43,6,-12
11525,280,584,-1960,41,4,-13
11530,280,592,-1960,40,3,-13
11535,304,568,-1944,39,5,-14
11540,280,568,-1984,38,4,-14
11545,264,608,-1992,40,4,-13
11550,280,616,-1952,44,3,-12
11555,280,592,-1984,48,4,-12
11560,296,584,-2000,51,6,-11
11565,296,576,-1992,55,8,-10
11570,304,592,-1976,58,8,-9
11575,288,608,-1976,60,8,-11
11580,288,616,-1960,59,11,-9
11585,304,584,-1944,59,10,-10
11590,296,568,-1936,59,10,-9
11595,328,544,-1952,59,9,-11
11600,312,600,-1960,58,7,-10
11605,272,576,-1960,57,6,-12
11610,288,560,-1984,53,5,-11
11615,288,568,-1952,52,5,-10
11620,264,576,-1960,50,6,-11
11625,288,576,-1976,49,7,-10
11630,296,592,-1984,49,8,-10
11635,280,576,-1976,51,8,-12
11640,304,584,-1976,54,8,-12
11645,288,608,-1984,56,7,-12
11650,264,584,-1976,55,8,-11
11655,272,592,-2016,55,8,-11
11660,248,608,-1984,55,9,-11
11665,312,592,-1992,56,9,-9
11670,304,592,-1936,56,10,-10
11675,288,584,-1960,55,11,-10
11680,280,584,-1968,53,10,-9
11685,288,592,-1960,53,10,-10
11690,288,584,-1976,54,10,-10
11695,296,576,-1960,52,11,-10
11700,280,624,-1976,52,11,-10
11705,264,600,-1984,50,12,-8
11710,296,584,-1952,50,11,-10
11715,296,608,-1968,49,13,-10
11720,264,576,-1992,49,12,-9
11725,280,592,-2000,49,11,-11
11730,312,600,-1968,49,10,-11
11735,296,600,-1984,49,11,-11
11740,280,584,-1952,48,10,-9
11745,304,584,-1960,49,9,-10
11750,264,608,-1984,50,10,-10
11755,272,616,-1976,50,10,-11
11760,312,584,-1976,50,10,-10
11765,288,592,-1976,49,10,-11
11770,328,552,-1936,49,10,-10
11775,280,584,-1952,50,10,-11
11780,288,584,-1984,50,10,-10
11785,288,608,-1960,49,10,-10
11790,304,584,-1936,49,11,-11
11795,288,592,-1952,49,11,-11
11800,320,568,-1976,48,10,-11
11805,296,592,-1976,48,11,-11
11810,272,608,-1984,49,9,-11
11815,288,592,-1976,49,10,-11
11820,296,560,-1944,50,10,-11
11825,296,568,-2024,49,9,-11
11830,304,576,-1952,49,9,-11
11835,288,600,-1952,47,9,-11
11840,280,600,-1968,48,8,-12
11845,280,584,-1960,49,10,-9
11850,304,592,-1952,51,9,-10
11855,296,584,-1976,52,10,-11
11860,280,600,-1976,52,11,-11
11865,312,568,-1952,51,9,-13
11870,288,576,-1944,52,9,-10
11875,280,624,-1984,51,9,-10
11880,296,560,-1952,51,10,-10
11885,304,600,-1960,51,9,-10
11890,296,560,-1952,50,10,-11
11895,288,584,-1968,49,10,-11
11900,296,584,-1968,50,10,-12
11905,280,584,-1992,50,11,-10
11910,288,592,-1968,50,11,-9
11915,328,576,-1928,50,9,-10
11920,304,576,-1968,48,10,-10
11925,272,608,-1936,49,10,-10
11930,280,576,-1976,49,10,-11
11935,272,592,-1968,47,10,-10
11940,296,600,-1976,48,10,-11
11945,288,560,-1968,48,9,-11
11950,296,592,-1952,48,9,-10
11955,280,600,-1984,48,10,-11
11960,312,576,-1968,47,11,-10
11965,304,616,-1968,47,10,-11
11970,272,592,-1992,49,11,-10
11975,280,584,-1976,47,11,-10
11980,296,576,-1984,46,11,-11
11985,256,584,-2024,46,13,-10
11990,296,600,-1984,47,12,-11
11995,288,616,-1976,45,12,-10
12000,288,576,-1952,46,12,-10
12005,312,592,-1968,48,10,-10
12010,288,584,-1960,48,11,-10
12015,280,584,-1960,48,11,-10
12020,304,584,-1952,48,11,-11
12025,320,576,-1992,48,12,-11
12030,296,576,-1968,48,10,-12
12035,312,568,-1976,48,12,-11
12040,288,600,-1968,47,10,-11
12045,272,600,-1976,47,11,-11
12050,280,584,-1984,46,11,-11
12055,272,608,-1952,47,10,-11
12060,288,608,-1968,48,10,-11
12065,304,592,-1936,47,10,-11
12070,288,560,-1976,49,8,-11
12075,312,576,-1992,49,10,-10
12080,312,600,-1992,50,10,-11
12085,280,616,-1968,50,10,-10
12090,296,616,-1960,49,10,-9
12095,240,600,-1912,50,11,-10
12100,288,600,-1952,51,10,-10
12105,288,584,-1960,50,10,-10
12110,320,576,-1944,49,10,-11
12115,312,592,-1976,49,9,-11
12120,296,584,-1968,48,9,-11
12125,296,568,-1984,48,7,-11
12130,288,592,-1936,47,7,-11
12135,280,600,-1960,48,8,-11
12140,288,568,-1960,47,9,-11
12145,280,568,-1976,47,9,-12
12150,280,608,-1952,47,8,-11
12155,296,600,-1968,49,8,-12
12160,304,600,-1944,49,8,-10
12165,288,608,-1960,49,8,-10
12170,280,592,-1960,49,9,-10
12175,296,560,-1952,48,10,-10
12180,320,560,-1968,47,8,-11
12185,304,592,-1944,49,9,-11
12190,296,560,-1968,50,8,-11
12195,328,584,-1976,49,7,-11
12200,264,624,-1968,53,8,-11
12205,288,584,-1984,54,8,-9
12210,288,584,-1976,54,10,-9
12215,304,600,-1992,55,9,-10
12220,296,608,-1984,56,10,-9
12225,272,576,-1976,55,11,-9
12230,312,584,-2008,56,13,-10
12235,312,600,-1960,55,12,-9
12240,320,584,-1968,54,13,-11
12245,304,600,-1952,52,13,-10
12250,256,568,-2008,51,11,-10
12255,288,552,-1952,50,12,-11
12260,272,600,-1952,47,12,-10
12265,280,584,-1944,48,12,-12
12270,288,592,-1984,50,11,-11
12275,296,584,-1960,52,9,-12
12280,296,600,-1976,54,10,-11
12285,288,576,-1976,53,10,-9
12290,272,584,-1960,52,9,-10
12295,288,592,-1944,52,10,-9
12300,296,576,-1968,52,10,-9
12305,272,600,-2032,52,11,-11
12310,288,568,-1976,51,11,-10
12315,288,592,-1928,49,12,-11
12320,296,576,-1968,49,13,-10
12325,296,576,-1992,48,12,-10
12330,280,608,-1992,48,11,-10
12335,312,576,-1984,49,12,-11
12340,280,576,-1984,48,13,-11
12345,272,592,-2016,49,14,-11
12350,288,608,-1952,49,14,-10
12355,280,584,-1976,49,13,-10
12360,296,576,-1928,49,14,-10
12365,280,592,-1984,48,14,-11
12370,280,584,-1976,48,14,-10
12375,288,608,-1968,47,14,-10
12380,304,584,-1976,49,14,-10
12385,280,600,-1944,48,13,-10
12390,280,600,-1928,48,11,-10
12395,280,584,-1968,48,11,-11
12400,272,600,-1992,48,11,-13
12405,320,592,-1968,50,11,-11
12410,280,656,-1960,49,10,-10
12415,280,592,-1992,51,11,-10
12420,280,576,-1960,50,10,-9
12425,296,616,-1968,51,11,-9
12430,296,576,-1984,49,10,-8
12435,280,592,-1960,49,10,-10
12440,296,616,-1968,50,10,-11
12445,288,608,-1984,51,9,-12
12450,288,600,-1960,52,8,-10
12455,272,600,-1952,52,8,-11
12460,280,568,-1960,50,11,-10
12465,272,608,-1976,50,11,-10
12470,280,600,-1960,48,11,-10
12475,288,600,-1968,48,11,-10
12480,320,592,-1976,48,9,-11
12485,304,592,-1968,51,10,-10
12490,272,600,-1968,51,10,-11
12495,312,592,-1976,50,10,-12
12500,320,568,-1944,49,10,-9
12505,288,568,-1992,50,10,-11
12510,280,616,-1992,50,10,-10
12515,296,576,-1984,50,11,-10
12520,208,568,-1912,50,10,-10
12525,296,568,-1960,50,10,-10
12530,304,584,-1976,51,10,-11
12535,296,600,-1976,52,9,-10
12540,272,608,-1968,52,10,-10
12545,320,552,-1976,53,11,-10
12550,304,576,-1968,52,9,-10
12555,288,592,-1984,51,10,-11
12560,288,568,-1976,51,9,-12
12565,304,632,-2008,50,9,-12
12570,344,584,-1984,48,9,-11
12575,288,568,-1952,49,9,-11
12580,304,592,-1960,48,10,-10
12585,296,584,-1952,47,10,-12
12590,296,608,-1952,47,10,-9
12595,288,584,-1960,47,10,-10
12600,296,584,-1960,48,12,-11
12605,336,584,-1960,49,11,-10
12610,288,560,-1936,49,11,-11
12615,296,592,-1968,47,11,-12
12620,304,592,-1968,48,11,-11
12625,264,592,-1968,47,11,-10
12630,296,576,-1992,47,12,-11
12635,296,568,-1960,48,12,-11
12640,296,568,-1960,47,12,-12
12645,288,592,-1968,47,14,-11
12650,304,576,-1968,45,12,-9
12655,288,576,-1960,45,12,-11
12660,288,568,-1968,44,12,-11
12665,288,600,-1976,43,11,-12
12670,272,608,-1976,43,11,-12
12675,288,552,-1944,43,11,-11
12680,336,592,-1984,45,10,-13
12685,288,576,-1984,45,7,-13
12690,288,592,-1960,45,9,-12
12695,288,592,-1944,45,8,-11
12700,304,568,-1984,46,8,-11
12705,296,584,-1984,45,10,-10
12710,296,592,-1936,45,11,-12
12715,272,576,-2016,46,10,-11
12720,296,592,-1944,45,10,-10
12725,288,568,-1944,45,8,-12
12730,304,552,-1952,46,9,-11
12735,288,592,-1992,46,8,-10
12740,296,576,-1960,46,9,-12
12745,288,600,-1976,46,8,-12
12750,280,592,-1960,46,8,-13
12755,288,600,-1984,46,7,-10
12760,288,584,-1968,46,9,-11
12765,280,600,-1976,47,9,-11
12770,288,584,-1952,47,8,-13
12775,304,552,-1976,46,9,-12
12780,272,608,-1984,46,7,-11
12785,304,568,-2008,46,7,-11
12790,296,584,-1976,47,8,-10
12795,304,592,-1984,47,9,-13
12800,288,592,-2000,47,9,-12
12805,288,592,-1952,49,8,-11
12810,296,576,-1984,48,7,-11
12815,288,568,-1976,46,8,-9
12820,264,584,-1976,47,8,-9
12825,280,568,-1960,48,9,-9
12830,304,592,-1928,47,9,-9
12835,304,576,-1976,48,10,-9
12840,264,584,-2024,47,9,-11
12845,280,632,-1984,48,10,-10
12850,304,592,-1960,48,10,-11
12855,296,608,-1992,47,10,-11
12860,248,608,-1960,47,9,-10
12865,280,576,-1952,48,9,-10
12870,288,608,-1960,48,10,-9
12875,264,576,-1960,47,11,-11
12880,312,560,-1944,47,10,-11
12885,304,592,-1960,47,10,-12
12890,280,568,-1968,47,9,-11
12895,272,584,-1968,47,10,-12
12900,280,600,-1960,48,9,-11
12905,264,608,-1976,46,9,-10
12910,296,560,-1984,47,10,-10
12915,304,568,-1960,47,9,-11
12920,280,592,-1952,45,9,-11
12925,272,608,-1984,45,10,-10
12930,280,624,-1952,46,10,-11
12935,296,576,-1976,45,10,-11
12940,312,576,-1960,47,9,-11
12945,264,552,-1952,47,9,-11
12950,296,584,-1952,47,9,-11
12955,288,584,-2000,47,9,-12
12960,264,592,-1984,46,9,-12
12965,288,584,-1976,46,10,-12
12970,296,584,-1976,47,9,-12
12975,304,568,-1960,47,9,-12
12980,296,576,-1936,46,9,-12
12985,288,584,-1968,47,9,-13
12990,320,600,-1960,46,9,-13
12995,296,576,-1984,47,9,-11
13000,272,552,-1976,46,8,-10
13005,296,584,-1952,46,8,-10
13010,280,600,-1968,46,10,-12
13015,296,608,-1960,46,10,-11
13020,280,592,-1976,46,11,-11
13025,288,592,-1952,45,9,-10
13030,304,568,-1920,45,8,-10
13035,264,608,-1984,46,8,-10
13040,296,600,-1992,45,8,-10
13045,296,592,-2000,46,7,-13
13050,256,664,-1992,48,7,-10
13055,296,592,-1952,49,5,-11
13060,280,616,-1968,49,7,-11
13065,288,576,-2016,52,6,-11
13070,280,584,-1976,53,7,-9
13075,280,584,-1968,53,8,-11
13080,280,600,-1952,51,9,-10
13085,296,568,-1960,52,10,-11
13090,280,576,-1952,52,11,-10
13095,288,584,-1976,52,12,-9
13100,288,584,-1968,52,12,-10
13105,296,576,-1984,49,11,-11
13110,272,576,-1960,47,11,-10
13115,304,584,-1952,45,11,-12
13120,280,576,-1960,43,12,-12
13125,312,568,-1944,43,11,-14
13130,296,592,-1960,44,10,-13
13135,280,568,-1984,47,7,-13
13140,288,576,-1984,51,6,-11
13145,296,576,-1992,51,6,-9
13150,272,616,-2000,48,5,-10
13155,264,584,-1968,47,6,-11
13160,296,664,-1880,48,7,-12
13165,288,584,-1992,48,7,-11
13170,280,592,-1992,48,7,-11
13175,280,600,-1936,47,9,-12
13180,312,592,-1984,45,9,-11
13185,288,600,-2000,44,8,-12
13190,280,576,-1984,44,10,-11
13195,288,576,-1920,43,9,-10
13200,320,560,-1984,44,9,-10
13205,280,592,-1976,43,9,-11
13210,304,592,-1936,44,9,-12
13215,280,608,-1976,44,9,-12
13220,288,576,-1968,46,9,-13
13225,288,584,-1968,46,9,-11
13230,280,600,-1960,45,10,-10
13235,280,592,-1976,46,9,-10
13240,296,568,-1976,47,10,-11
13245,272,584,-1960,46,9,-11
13250,296,600,-1936,47,8,-12
13255,280,608,-1984,47,8,-12
13260,288,576,-1928,47,8,-11
13265,288,640,-1984,46,8,-10
13270,304,584,-1968,46,9,-11
13275,288,584,-1960,46,7,-11
13280,272,600,-1976,46,6,-12
13285,288,592,-1984,47,5,-13
13290,264,584,-1960,46,6,-12
13295,304,584,-1992,48,5,-11
13300,296,568,-1952,47,7,-10
13305,288,568,-1968,48,5,-10
13310,280,624,-1944,48,5,-10
13315,288,584,-1984,47,4,-10
13320,336,568,-2000,47,4,-11
13325,296,600,-1960,45,4,-12
13330,288,600,-1960,45,6,-10
13335,280,568,-1968,44,6,-13
13340,304,592,-1960,45,4,-11
13345,296,600,-2000,45,5,-11
13350,280,600,-1976,46,5,-11
13355,272,608,-2008,47,6,-9
13360,312,592,-1952,45,7,-9
13365,288,584,-1952,45,8,-10
13370,288,568,-1968,47,9,-12
13375,312,584,-1960,47,9,-12
13380,288,608,-1976,47,9,-11
13385,288,576,-1968,46,9,-13
13390,304,584,-1960,45,10,-11
13395,312,568,-1968,46,9,-11
13400,304,600,-1968,47,9,-10
13405,296,576,-1984,47,9,-12
13410,304,600,-1992,46,9,-10
13415,304,584,-1984,45,9,-11
13420,280,600,-1920,44,8,-12
13425,272,664,-1904,44,8,-12
13430,272,592,-1992,43,9,-11
13435,280,568,-1960,42,8,-10
13440,280,592,-2000,43,9,-9
13445,304,584,-1968,44,9,-11
13450,304,600,-1968,43,10,-10
13455,296,592,-1984,43,8,-11
13460,264,600,-1984,44,7,-12
13465,312,584,-1976,43,8,-10
13470,280,576,-2016,45,9,-10
13475,264,600,-2008,45,9,-9
13480,216,576,-1968,44,9,-10
13485,272,560,-1992,45,8,-11
13490,272,576,-1968,44,9,-11
13495,304,584,-1968,44,10,-12
13500,272,600,-1968,44,10,-11
13505,296,600,-1976,44,11,-9
13510,280,568,-1960,45,9,-11
13515,272,568,-1968,46,9,-10
13520,296,568,-1976,46,8,-9
13525,288,584,-1912,46,8,-9
13530,304,576,-1888,46,7,-10
13535,272,600,-1968,46,8,-11
13540,296,584,-1976,46,8,-11
13545,304,584,-1984,47,8,-12
13550,280,600,-1984,48,9,-12
13555,296,584,-1992,46,9,-11
13560,304,576,-1952,45,9,-13
13565,296,576,-1952,46,8,-12
13570,296,600,-1976,45,9,-12
13575,272,600,-2000,43,8,-11
13580,296,600,-1976,44,9,-12
13585,296,576,-1952,45,7,-12
13590,272,608,-1968,45,7,-10
13595,296,584,-1944,47,5,-11
13600,280,592,-1976,46,5,-12
13605,312,576,-1960,47,6,-11
13610,272,600,-1968,48,5,-11
13615,288,584,-1976,49,6,-11
13620,304,592,-1968,49,7,-11
13625,304,584,-1952,48,5,-11
13630,304,592,-1976,49,7,-12
13635,280,592,-2016,49,6,-10
13640,288,592,-1960,48,5,-12
13645,296,608,-1984,49,5,-11
13650,280,576,-1976,50,6,-11
13655,304,568,-2000,49,6,-12
13660,272,616,-1992,50,7,-10
13665,280,600,-1992,50,8,-11
13670,296,608,-1952,49,8,-11
13675,296,568,-1992,48,8,-10
13680,280,592,-1984,49,10,-9
13685,264,568,-1936,49,11,-11
13690,256,600,-1984,50,11,-10
13695,280,592,-1984,51,10,-10
13700,320,576,-1976,52,9,-10
13705,288,584,-1968,52,9,-10
13710,280,592,-1976,50,11,-10
13715,280,600,-1992,50,10,-10
13720,280,584,-1992,49,10,-11
13725,280,616,-1984,48,9,-11
13730,264,584,-1944,48,10,-11
13735,280,600,-1976,47,10,-11
13740,304,608,-1960,48,10,-11
13745,296,576,-1984,48,9,-10
13750,280,584,-1968,51,10,-9
13755,296,584,-1976,49,8,-10
13760,272,592,-1968,51,10,-10
13765,288,592,-1984,51,10,-11
13770,288,600,-1976,52,8,-11
13775,264,616,-1968,53,8,-10
13780,272,608,-1984,54,8,-10
13785,288,576,-1992,55,10,-10
13790,296,624,-1968,54,10,-10
13795,288,600,-1944,56,10,-9
13800,272,648,-1952,56,11,-10
13805,256,616,-1960,55,12,-10
13810,288,568,-2016,54,14,-10
13815,288,576,-1952,53,14,-11
13820,296,600,-1968,54,14,-13
13825,296,576,-1944,54,13,-11
13830,288,584,-1976,54,14,-10
13835,256,576,-1896,53,14,-10
13840,304,560,-1960,52,13,-10
13845,280,600,-1992,50,13,-8
13850,272,608,-1976,49,13,-10
13855,272,584,-1952,48,12,-9
13860,272,600,-1936,50,11,-11
13865,264,600,-1968,51,9,-10
13870,280,584,-1968,53,8,-10
13875,304,568,-1984,53,9,-11
13880,304,576,-1984,53,8,-10
13885,272,608,-1936,53,8,-11
13890,280,584,-2000,52,8,-10
13895,280,568,-1920,53,9,-10
13900,296,560,-1968,52,11,-9
13905,248,640,-2032,52,11,-10
13910,296,560,-1976,50,11,-10
13915,280,576,-1960,51,12,-8
13920,280,600,-2000,50,14,-10
13925,304,584,-1976,50,14,-9
13930,280,576,-1984,51,14,-9
13935,288,584,-1952,50,14,-10
13940,296,584,-1960,50,14,-10
13945,280,592,-1944,49,13,-9
13950,272,616,-1992,49,12,-10
13955,280,592,-1960,51,12,-10
13960,312,528,-1944,51,13,-10
13965,280,608,-1968,50,13,-10
13970,280,600,-1968,51,12,-9
13975,280,600,-1960,50,14,-11
13980,304,632,-1992,50,11,-11
13985,304,584,-1976,49,12,-10
13990,304,576,-1976,50,12,-10
13995,280,584,-2008,50,11,-10
14000,288,584,-1952,50,11,-11
14005,296,568,-1952,50,10,-11
14010,232,568,-1968,49,9,-10
14015,296,592,-1984,50,8,-11
14020,280,600,-1968,50,9,-12
14025,280,568,-1920,52,8,-10
14030,296,584,-1984,51,9,-10
14035,280,600,-1944,50,9,-11
14040,296,568,-1976,50,9,-10
14045,280,584,-1960,50,9,-11
14050,288,600,-1984,49,9,-11
14055,304,576,-1952,48,8,-11
14060,304,616,-1968,47,7,-11
14065,272,600,-1920,49,7,-11
14070,280,592,-1984,48,9,-10
14075,296,592,-1968,50,8,-10
14080,280,560,-1976,51,8,-11
14085,296,592,-1968,51,7,-10
14090,280,600,-1968,52,8,-10
14095,288,584,-1968,49,9,-10
14100,296,560,-1976,49,9,-10
14105,288,592,-1944,49,12,-10
14110,304,576,-1984,47,13,-10
14115,296,600,-1952,48,12,-12
14120,264,592,-1912,49,10,-10
14125,288,592,-1992,49,10,-10
14130,288,584,-1968,49,10,-10
14135,256,608,-2008,50,10,-10
14140,304,576,-1968,50,10,-10
14145,256,600,-1944,50,11,-11
14150,272,576,-1976,49,10,-9
14155,288,600,-1960,50,11,-9
14160,304,592,-1960,50,12,-9
14165,288,592,-1952,50,11,-10
14170,352,624,-2024,49,12,-10
14175,312,592,-1968,50,13,-10
14180,304,576,-1984,50,12,-10
14185,280,584,-1976,49,14,-9
14190,288,600,-1968,48,15,-9
14195,272,576,-1960,49,13,-11
14200,296,592,-1952,49,13,-11
14205,288,568,-2016,49,13,-10
14210,296,576,-1968,49,13,-10
14215,288,616,-1936,48,12,-9
14220,280,592,-1968,47,13,-12
14225,304,568,-1928,46,12,-9
14230,280,600,-1952,46,12,-8
14235,280,560,-1976,46,12,-9
14240,304,592,-1960,46,14,-11
14245,280,592,-1960,47,14,-9
14250,288,576,-1952,47,15,-10
14255,256,592,-1968,49,12,-11
14260,288,616,-1968,49,12,-9
14265,304,576,-1960,48,13,-9
14270,256,608,-1960,49,13,-10
14275,280,568,-1952,49,13,-10
14280,272,568,-2000,49,11,-10
14285,288,600,-1960,49,12,-11
14290,288,592,-1952,49,10,-10
14295,288,576,-1976,50,11,-10
14300,272,568,-1992,50,10,-9
14305,280,600,-1960,49,10,-11
14310,272,600,-1952,48,10,-10
14315,288,568,-1984,48,10,-10
14320,296,624,-1992,48,10,-9
14325,280,592,-1960,48,11,-9
14330,288,592,-2024,48,12,-9
14335,288,584,-1968,49,11,-10
14340,280,600,-1952,48,11,-12
14345,296,568,-1976,48,10,-12
14350,288,584,-1976,48,12,-10
14355,296,576,-1976,50,11,-10
14360,296,600,-1976,49,11,-11
14365,256,592,-1976,50,10,-11
14370,312,560,-1968,48,11,-11
14375,288,592,-1968,49,11,-11
14380,296,608,-2016,50,11,-12
14385,264,584,-1968,50,10,-11
14390,296,584,-1952,52,10,-11
14395,288,608,-1968,52,10,-10
14400,296,592,-1936,50,10,-11
14405,272,576,-1976,50,9,-11
14410,288,568,-1960,51,9,-11
14415,304,608,-1960,52,10,-10
14420,280,592,-2024,52,10,-10
14425,296,584,-1992,53,11,-11
14430,280,600,-1952,53,12,-9
14435,296,560,-1952,52,10,-8
14440,272,568,-1904,51,12,-10
14445,296,600,-1968,50,13,-9
14450,288,584,-1968,50,12,-9
14455,304,592,-1952,51,11,-9
14460,280,608,-1952,49,13,-11
14465,280,576,-1960,50,12,-9
14470,304,576,-1976,50,12,-10
14475,288,576,-1984,49,11,-11
14480,264,584,-1936,50,10,-11
14485,304,600,-1968,51,11,-10
14490,272,560,-1960,51,11,-10
14495,256,592,-1944,51,12,-11
14500,288,576,-1960,52,11,-10
14505,280,600,-1992,50,11,-10
14510,312,568,-1976,50,12,-11
14515,280,600,-1952,49,12,-11
14520,264,592,-1976,49,12,-12
14525,304,552,-1968,50,12,-10
14530,280,584,-1976,49,11,-11
14535,280,624,-1944,50,11,-11
14540,288,592,-1968,50,11,-11
14545,296,576,-2032,52,10,-12
14550,272,608,-1944,54,11,-10
14555,296,600,-2008,53,12,-8
14560,320,584,-1984,54,13,-10
14565,296,600,-1992,54,13,-9
14570,288,568,-1936,54,14,-10
14575,288,616,-1952,54,15,-10
14580,288,576,-1952,54,15,-9
14585,296,576,-1944,54,16,-9
14590,304,560,-1976,52,15,-9
14595,304,568,-1984,50,14,-9
14600,304,632,-1896,49,15,-8
14605,280,592,-1984,47,14,-9
14610,264,576,-1968,49,13,-8
14615,288,584,-1952,50,13,-8
14620,272,568,-1936,53,11,-10
14625,288,568,-1960,54,12,-10
14630,296,600,-1984,54,10,-11
14635,304,568,-1960,53,12,-11
14640,280,584,-1976,51,13,-10
14645,288,576,-1888,52,13,-8
14650,296,584,-1960,51,15,-9
14655,280,584,-1952,50,13,-9
14660,264,600,-1976,49,13,-9
14665,296,600,-1992,49,12,-11
14670,280,576,-1944,48,13,-10
14675,288,608,-1984,47,13,-9
14680,312,576,-1984,47,13,-7
14685,272,600,-1984,46,12,-9
14690,272,592,-1976,46,15,-9
14695,288,560,-1976,48,14,-9
14700,280,592,-1976,48,15,-9
14705,280,592,-1992,49,15,-10
14710,272,592,-1976,48,14,-11
14715,296,584,-1976,49,15,-10
14720,280,568,-1960,49,14,-9
14725,296,592,-1952,50,13,-11
14730,296,576,-1944,49,14,-10
14735,312,568,-1944,48,14,-10
14740,312,600,-1984,47,12,-10
14745,304,576,-1960,47,12,-11
14750,304,592,-1936,47,11,-12
14755,280,608,-2000,48,9,-12
14760,280,576,-1928,48,9,-11
14765,288,592,-1976,48,9,-9
14770,280,592,-1960,49,8,-11
14775,288,600,-1960,48,9,-11
14780,280,592,-1968,48,9,-12
14785,312,608,-1936,48,8,-13
14790,288,560,-1960,48,8,-12
14795,296,584,-1936,47,8,-10
14800,296,576,-1968,45,8,-10
14805,296,584,-1952,45,8,-10
14810,264,576,-2016,44,8,-11
14815,296,584,-1976,43,7,-12
14820,296,584,-1952,42,7,-12
14825,288,568,-1952,43,6,-12
14830,280,600,-1984,45,5,-10
14835,288,600,-1984,47,5,-11
14840,312,592,-1976,46,6,-11
14845,264,584,-1944,46,9,-12
14850,288,576,-1976,47,8,-11
14855,296,608,-1984,45,8,-9
14860,280,576,-1968,44,10,-10
14865,280,624,-1984,44,10,-12
14870,296,600,-1960,44,9,-11
14875,264,592,-1944,44,10,-10
14880,288,608,-1968,45,8,-10
14885,272,592,-1960,43,10,-10
14890,264,592,-1984,45,9,-10
14895,304,568,-1952,43,8,-10
14900,264,584,-1984,44,8,-10
14905,280,600,-1968,44,7,-12
14910,288,552,-1976,43,7,-12
14915,304,600,-1976,44,8,-11
14920,272,552,-1984,44,7,-11
14925,280,592,-1968,44,8,-11
14930,280,576,-1960,43,8,-10
14935,280,584,-1968,44,8,-11
14940,296,584,-1960,45,8,-12
14945,296,600,-1976,45,9,-11
14950,312,592,-1960,45,10,-11
14955,280,576,-1928,45,9,-12
14960,288,576,-1960,45,10,-12
14965,272,592,-2016,46,10,-11
14970,320,608,-1984,46,9,-10
14975,288,600,-1968,46,9,-10
14980,296,592,-1976,45,10,-10
14985,288,592,-1976,46,9,-9
14990,288,576,-1960,45,9,-11
14995,296,584,-2000,45,9,-11
