timestamp,accel_x,accel_y,accel_z,gyro_x,gyro_y,gyro_z
0,-8,-2016,64,-17,150,-8
5,-24,-2016,88,-16,146,-10
10,-8,-2040,64,-15,141,-12
15,-24,-2032,80,-16,139,-15
20,8,-2032,64,-14,141,-20
25,0,-2080,64,-15,140,-23
30,-8,-2064,64,-14,143,-23
35,0,-2032,72,-12,147,-23
40,-8,-2048,72,-12,149,-25
45,-40,-2032,72,-12,153,-24
50,-16,-2032,72,-14,156,-24
55,-24,-2040,72,-17,156,-22
60,-16,-2032,96,-18,155,-20
65,-24,-2032,112,-17,155,-17
70,-32,-2032,104,-19,154,-17
75,-40,-2032,80,-18,153,-12
80,-16,-2056,112,-18,153,-11
85,-16,-2056,88,-20,155,-8
90,0,-2048,112,-23,155,-9
95,0,-2040,112,-26,155,-7
100,-48,-2016,72,-27,156,-9
105,-40,-2008,80,-28,156,-9
110,-16,-2048,96,-28,155,-10
115,-24,-2040,104,-31,155,-9
120,-24,-2024,112,-30,157,-12
125,8,-2040,104,-31,157,-11
130,0,-2064,144,-31,159,-11
135,16,-2064,112,-30,161,-10
140,8,-2056,144,-28,162,-12
145,-8,-2040,168,-25,160,-11
150,-8,-2024,152,-21,159,-12
155,16,-2056,144,-17,157,-11
160,24,-2040,128,-18,155,-14
165,8,-2008,152,-22,155,-11
170,8,-1992,104,-30,153,-14
175,-24,-2008,96,-37,154,-12
180,-8,-1992,96,-43,157,-12
185,-32,-1992,112,-48,160,-9
190,0,-2000,144,-52,165,-12
195,-16,-2016,88,-56,165,-10
200,-32,-2000,136,-59,163,-14
205,-32,-2024,112,-60,161,-14
210,-16,-2008,96,-60,160,-16
215,-16,-1992,136,-63,157,-15
220,-24,-2016,112,-66,156,-18
225,-16,-1984,152,-72,154,-17
230,-16,-2000,112,-77,150,-19
235,-16,-1976,144,-80,151,-17
240,-24,-2016,128,-82,152,-20
245,16,-2016,128,-85,156,-19
250,-24,-2032,144,-87,158,-24
255,0,-2024,104,-89,160,-24
260,0,-2056,152,-88,161,-27
265,16,-2040,136,-88,160,-28
270,0,-2024,88,-89,160,-32
275,8,-2008,112,-89,158,-31
280,-8,-2024,144,-89,157,-35
285,-8,-2032,128,-87,157,-35
290,-32,-1992,136,-88,157,-38
295,-24,-1984,136,-89,160,-37
300,-16,-2024,104,-92,162,-40
305,-40,-1976,112,-95,163,-38
310,-8,-2008,112,-98,162,-40
315,-16,-2000,104,-103,160,-36
320,-32,-2000,104,-109,157,-37
325,-32,-2024,88,-116,152,-35
330,-48,-2000,80,-120,149,-35
335,-56,-1984,64,-125,146,-33
340,-56,-2024,88,-129,143,-34
345,-64,-2032,80,-129,139,-32
350,-80,-2032,104,-129,134,-33
355,-64,-2032,120,-130,130,-30
360,-40,-2032,88,-129,127,-33
365,-40,-2032,96,-129,122,-31
370,-48,-2008,96,-130,118,-35
375,-64,-2016,80,-135,115,-36
380,-56,-2000,104,-138,112,-39
385,-32,-2008,72,-141,109,-40
390,-24,-2016,64,-143,105,-44
395,-8,-2024,64,-146,103,-44
400,-32,-2008,88,-149,102,-47
405,-8,-2032,40,-149,99,-48
410,-8,-2032,72,-151,98,-51
415,0,-2048,56,-153,97,-49
420,0,-2056,40,-155,97,-51
425,0,-2056,72,-156,96,-52
430,8,-2072,72,-157,94,-56
435,-8,-2064,64,-158,93,-56
440,8,-2064,32,-158,92,-59
445,16,-2040,56,-159,93,-62
450,0,-2064,32,-160,93,-66
455,-8,-2040,56,-161,94,-67
460,0,-2048,56,-161,95,-71
465,8,-2048,56,-159,98,-71
470,16,-2048,48,-155,102,-73
475,-16,-2048,24,-152,106,-75
480,24,-2072,32,-148,108,-79
485,16,-2048,8,-146,112,-80
490,0,-2040,8,-145,115,-82
495,32,-2040,16,-146,116,-83
500,8,-2024,0,-149,117,-84
505,24,-2040,8,-153,121,-83
510,16,-2040,-32,-160,124,-81
515,16,-2016,-48,-172,128,-79
520,40,-2024,-32,-183,136,-80
525,56,-2040,-32,-191,142,-82
530,40,-1992,-24,-195,152,-83
535,48,-1992,-48,-199,159,-84
540,40,-1984,-56,-207,170,-83
545,56,-1984,-48,-214,180,-84
550,88,-1984,-72,-222,192,-80
555,104,-1960,-104,-231,203,-79
560,112,-1952,-96,-244,218,-75
565,104,-1944,-112,-257,234,-72
570,104,-1920,-144,-278,247,-70
575,96,-1920,-104,-296,259,-65
580,112,-1920,-176,-313,270,-59
585,112,-1904,-176,-328,282,-57
590,104,-1928,-136,-340,302,-53
595,120,-1952,-144,-346,323,-52
600,112,-1952,-128,-348,343,-50
605,88,-1960,-104,-345,361,-52
610,96,-2016,-48,-340,371,-49
615,64,-2048,-80,-330,377,-51
620,64,-2080,-56,-314,382,-53
625,16,-2104,0,-297,386,-55
630,-32,-2144,16,-272,385,-49
635,-32,-2200,64,-245,379,-42
640,-72,-2200,16,-216,373,-36
645,-40,-2240,72,-187,371,-37
650,-8,-2272,72,-163,364,-35
655,-32,-2224,48,-141,355,-42
660,8,-2232,40,-124,342,-46
665,32,-2208,48,-111,325,-60
670,16,-2160,32,-105,306,-71
675,40,-2120,-24,-102,286,-83
680,16,-2080,-32,-104,270,-89
685,24,-2064,-24,-110,259,-97
690,8,-2000,-16,-110,257,-102
695,-8,-1952,-56,-113,260,-106
700,24,-1960,16,-117,277,-104
705,56,-1952,0,-121,294,-108
710,64,-1944,0,-124,314,-111
715,56,-1952,32,-130,335,-118
720,56,-1944,48,-135,352,-117
725,88,-1992,96,-142,365,-114
730,96,-2008,64,-152,363,-108
735,96,-2024,96,-155,346,-115
740,120,-2016,64,-164,334,-115
745,112,-2032,72,-177,329,-119
750,128,-2064,64,-185,315,-117
755,120,-2056,40,-194,303,-118
760,104,-2056,64,-199,291,-113
765,88,-2056,48,-197,272,-117
770,80,-2064,48,-194,251,-118
775,80,-2064,32,-192,234,-123
780,88,-2072,-8,-189,221,-119
785,96,-2080,-16,-190,214,-123
790,104,-2080,-40,-189,207,-127
795,104,-2088,-40,-186,201,-135
800,96,-2080,-56,-180,195,-142
805,112,-2072,-72,-173,190,-157
810,144,-2064,-80,-169,190,-164
815,168,-2032,-80,-166,196,-174
820,176,-2016,-72,-158,202,-183
825,192,-2000,-48,-153,209,-195
830,200,-1992,-48,-150,222,-201
835,184,-1992,-24,-144,243,-202
840,216,-1976,-40,-145,262,-197
845,232,-1984,-48,-148,280,-195
850,240,-1976,-32,-149,288,-189
855,232,-1992,-40,-150,294,-189
860,248,-1992,-24,-155,297,-185
865,224,-2008,-8,-155,298,-183
870,232,-2032,-16,-150,297,-177
875,224,-2040,-24,-147,293,-181
880,216,-2000,-40,-143,291,-181
885,208,-1976,-16,-140,287,-180
890,200,-1960,8,-134,283,-177
895,216,-1944,16,-129,282,-181
900,224,-1936,8,-124,278,-183
905,224,-1920,24,-118,274,-183
910,256,-1920,48,-113,267,-173
915,456,-1920,32,-113,268,-168
920,216,-1944,32,-97,300,-183
925,208,-1920,24,-95,294,-168
930,256,-1912,0,-116,264,-141
935,248,-1904,48,-134,242,-121
940,280,-1928,40,-140,223,-103
945,240,-1952,56,-133,221,-97
950,224,-1944,24,-113,223,-84
955,256,-1952,8,-102,212,-69
960,248,-1928,16,-105,194,-56
965,296,-1928,40,-109,177,-47
970,280,-1928,48,-108,167,-34
975,304,-1936,48,-103,156,-25
980,296,-1912,16,-98,147,-16
985,328,-1928,40,-94,144,-6
990,304,-1944,32,-89,142,7
995,328,-1936,40,-86,141,15
1000,296,-1928,48,-84,138,27
1005,312,-1920,40,-84,136,33
1010,320,-1920,64,-87,132,43
1015,312,-1920,32,-90,128,49
1020,304,-1928,64,-95,119,57
1025,320,-1952,32,-100,109,66
1030,312,-1968,24,-105,98,76
1035,312,-1976,64,-108,87,83
1040,320,-2000,24,-110,77,91
1045,320,-2016,56,-111,65,96
1050,344,-2000,8,-113,58,102
1055,360,-2024,-16,-114,54,104
1060,408,-2040,-120,-114,52,107
1065,392,-2024,0,-116,53,109
1070,408,-2040,-48,-117,53,108
1075,408,-2048,-56,-119,54,110
1080,416,-2072,-56,-123,58,109
1085,416,-2064,-80,-127,64,112
1090,408,-2072,-32,-129,73,113
1095,408,-2104,-48,-130,84,113
1100,400,-2120,-40,-134,91,111
1105,400,-2152,-32,-135,95,109
1110,400,-2160,8,-135,98,107
1115,400,-2184,0,-135,100,107
1120,400,-2232,32,-134,100,106
1125,400,-2248,24,-131,95,107
1130,424,-2280,56,-124,90,105
1135,416,-2280,88,-116,84,107
1140,400,-2304,128,-102,76,108
1145,416,-2312,128,-89,65,112
1150,424,-2288,128,-75,46,112
1155,416,-2312,192,-66,29,112
1160,400,-2288,160,-53,4,109
1165,408,-2288,168,-41,-20,109
1170,368,-2248,184,-29,-44,107
1175,368,-2256,224,-23,-65,107
1180,344,-2248,192,-17,-87,103
1185,288,-2256,200,-11,-106,104
1190,264,-2248,192,-5,-126,103
1195,232,-2280,168,-5,-152,106
1200,200,-2336,112,-11,-194,106
1205,200,-2488,72,-24,-233,103
1210,232,-2600,-40,-38,-259,89
1215,240,-2736,-104,-60,-269,73
1220,312,-2768,-208,-89,-266,44
1225,312,-2744,-248,-119,-252,13
1230,296,-2648,-208,-125,-234,-22
1235,248,-2496,-208,-95,-210,-39
1240,240,-2320,-128,-37,-176,-48
1245,208,-2136,-144,26,-129,-51
1250,168,-2000,-88,81,-74,-60
1255,160,-1872,-40,122,-16,-61
1260,136,-1840,-8,159,24,-52
1265,144,-1752,64,174,44,-40
1270,136,-1752,88,175,45,-29
1275,104,-1760,104,169,30,-10
1280,104,-1816,128,161,-5,3
1285,104,-1896,104,149,-57,10
1290,80,-1976,120,130,-127,10
1295,64,-2040,64,113,-205,16
1300,40,-2008,-56,94,-288,10
1305,32,-2032,-112,63,-364,0
1310,8,-2016,-144,51,-441,-3
1315,16,-2000,-304,65,-490,-3
1320,8,-1944,-344,75,-514,-13
1325,24,-1912,-440,71,-516,-22
1330,8,-1856,-480,56,-497,-37
1335,8,-1832,-512,34,-464,-48
1340,-24,-1800,-560,14,-423,-65
1345,-48,-1800,-520,-8,-382,-76
1350,-88,-1760,-512,-21,-348,-89
1355,-168,-1712,-512,-22,-323,-95
1360,-224,-1680,-536,-16,-312,-104
1365,-320,-1672,-480,-8,-318,-104
1370,-344,-1712,-480,6,-337,-107
1375,-432,-1760,-456,18,-362,-100
1380,-488,-1816,-432,23,-389,-98
1385,-424,-1928,-400,17,-417,-79
1390,-424,-2040,-424,10,-435,-67
1395,-456,-2120,-376,-3,-442,-55
1400,-424,-2176,-368,-13,-442,-44
1405,-408,-2232,-336,-23,-437,-26
1410,-392,-2248,-336,-28,-428,-11
1415,-352,-2256,-328,-24,-410,5
1420,-328,-2224,-296,-19,-390,16
1425,-312,-2192,-248,-11,-372,37
1430,-280,-2152,-280,1,-358,56
1435,-280,-2104,-232,14,-348,80
1440,-200,-2096,-184,30,-341,101
1445,-160,-2056,-192,45,-330,123
1450,-112,-2040,-176,60,-316,144
1455,-16,-2056,-104,67,-291,168
1460,32,-2040,-120,67,-261,179
1465,96,-2032,-80,64,-216,191
1470,168,-2056,-104,64,-174,198
1475,208,-2040,-72,69,-131,209
1480,232,-2024,-64,72,-91,213
1485,288,-2032,-96,69,-47,224
1490,288,-2016,-112,66,0,234
1495,272,-1984,-128,56,46,237
1500,216,-1952,-152,36,79,226
1505,160,-1904,-144,13,102,215
1510,144,-1880,-152,-5,124,207
1515,104,-1808,-144,-16,145,215
1520,32,-1744,-168,-21,171,229
1525,0,-1680,-168,-32,177,238
1530,-48,-1680,-144,-51,182,246
1535,-88,-1664,-144,-72,182,259
1540,-104,-1632,-104,-94,171,267
1545,-120,-1648,-160,-117,158,266
1550,-128,-1704,-192,-147,146,256
1555,-104,-1728,-168,-180,140,249
1560,-144,-1744,-144,-213,138,249
1565,-96,-1784,-144,-239,134,247
1570,-112,-1800,-152,-257,129,243
1575,-104,-1832,-168,-271,134,245
1580,-96,-1856,-168,-279,147,246
1585,-96,-1880,-192,-280,158,246
1590,-72,-1904,-200,-271,179,241
1595,-64,-1912,-168,-262,196,233
1600,-32,-1912,-184,-249,217,228
1605,-40,-1928,-160,-229,239,221
1610,-40,-1936,-136,-204,257,207
1615,-48,-1944,-136,-181,278,192
1620,-72,-1952,-128,-165,300,183
1625,-96,-1944,-136,-148,320,169
1630,-112,-1944,-104,-131,335,157
1635,-136,-1944,-48,-123,347,152
1640,-120,-1960,8,-112,355,138
1645,-192,-1952,-8,-104,363,121
1650,-200,-1952,32,-98,367,106
1655,-200,-1960,72,-94,370,91
1660,-184,-1984,96,-90,376,70
1665,-232,-1936,112,-85,379,39
1670,-200,-1936,128,-83,380,16
1675,-184,-1912,120,-83,378,-5
1680,-176,-1896,184,-91,374,-17
1685,-136,-1896,160,-101,369,-30
1690,-128,-1896,168,-114,363,-41
1695,-136,-1936,160,-125,357,-49
1700,-112,-1960,144,-133,350,-56
1705,-96,-2008,152,-139,343,-65
1710,-88,-2056,104,-142,336,-70
1715,-88,-2088,128,-142,332,-80
1720,-64,-2120,136,-133,331,-90
1725,-48,-2168,136,-121,333,-102
1730,16,-2216,112,-104,343,-116
1735,56,-2256,144,-80,354,-131
1740,88,-2248,176,-53,368,-145
1745,128,-2296,184,-23,388,-160
1750,184,-2280,168,11,416,-170
1755,224,-2296,168,51,450,-187
1760,208,-2248,144,90,485,-203
1765,216,-2224,144,120,521,-220
1770,216,-2224,160,143,558,-231
1775,168,-2184,128,156,588,-247
1780,128,-2200,168,165,614,-251
1785,64,-2184,192,169,634,-251
1790,-24,-2192,224,167,640,-239
1795,-80,-2240,216,158,637,-219
1800,-152,-2248,264,145,629,-189
1805,-184,-2312,272,130,610,-161
1810,-200,-2320,296,123,590,-132
1815,-208,-2336,360,123,571,-109
1820,-256,-2336,376,128,557,-82
1825,-240,-2416,368,142,545,-56
1830,-304,-2448,360,166,525,-30
1835,-424,-2592,296,186,501,28
1840,-488,-2808,168,174,470,105
1845,-472,-3080,-8,112,419,181
1850,-472,-3200,-240,6,367,248
1855,-264,-3432,-328,-146,339,321
1860,-112,-3536,-472,-288,340,325
1865,-88,-3480,-424,-392,356,286
1870,-80,-3312,-312,-391,358,251
1875,-40,-3048,-248,-271,330,213
1880,-72,-2712,-328,-83,279,159
1885,-136,-2360,-376,80,218,98
1890,-208,-1976,-496,190,110,28
1895,-232,-1760,-624,240,16,-18
1900,-240,-1568,-720,213,-44,-27
1905,-208,-1520,-760,168,-59,-25
1910,-160,-1504,-808,128,-23,-17
1915,-128,-1488,-848,93,54,-15
1920,-104,-1456,-832,70,157,-1
1925,-112,-1480,-808,58,277,15
1930,-104,-1504,-752,53,394,42
1935,-72,-1512,-752,43,500,63
1940,-88,-1536,-720,32,587,87
1945,-64,-1624,-680,17,660,97
1950,-80,-1720,-648,1,689,103
1955,-72,-1872,-576,-24,691,99
1960,-104,-2000,-496,-50,656,98
1965,-160,-2104,-448,-72,595,88
1970,-200,-2192,-408,-81,512,76
1975,-208,-2256,-400,-80,424,61
1980,-272,-2296,-440,-74,340,43
1985,-336,-2280,-416,-76,259,21
1990,-400,-2200,-320,-75,166,1
1995,-368,-2136,-368,-55,36,-31
2000,-376,-2008,-392,-30,-64,-62
2005,-376,-1848,-432,-15,-154,-99
2010,-336,-1752,-400,-12,-223,-126
2015,-296,-1616,-432,-13,-273,-156
2020,-248,-1568,-432,-15,-308,-176
2025,-152,-1528,-448,-19,-326,-197
2030,-160,-1504,-424,-33,-327,-209
2035,-104,-1544,-424,-54,-316,-210
2040,-80,-1552,-408,-75,-299,-193
2045,-24,-1592,-408,-92,-275,-179
2050,-8,-1672,-376,-119,-243,-178
2055,-48,-1768,-384,-127,-218,-175
2060,-56,-1816,-400,-115,-198,-163
2065,-8,-1848,-408,-99,-179,-148
2070,0,-1816,-416,-97,-160,-130
2075,-16,-1808,-408,-100,-156,-122
2080,-8,-1816,-368,-110,-169,-114
2085,16,-1824,-352,-124,-190,-110
2090,16,-1784,-352,-135,-219,-104
2095,32,-1776,-360,-150,-250,-103
2100,40,-1768,-320,-158,-282,-110
2105,72,-1760,-304,-165,-307,-118
2110,144,-1768,-360,-163,-321,-128
2115,64,-1728,-344,-165,-330,-150
2120,88,-1720,-328,-167,-347,-140
2125,120,-1744,-336,-166,-367,-126
2130,144,-1760,-336,-168,-384,-128
2135,192,-1816,-328,-174,-396,-139
2140,200,-1800,-352,-183,-405,-149
2145,272,-1816,-368,-204,-408,-173
2150,136,-1832,-336,-243,-379,-263
2155,240,-1928,-232,-281,-374,-254
2160,88,-1856,-232,-273,-373,-231
2165,56,-1840,-296,-255,-380,-178
2170,88,-1840,-296,-227,-386,-127
2175,104,-1872,-256,-206,-386,-96
2180,104,-1872,-280,-193,-378,-72
2185,136,-1888,-256,-184,-373,-60
2190,80,-1888,-232,-178,-372,-51
2195,96,-1920,-208,-167,-375,-39
2200,96,-1920,-192,-156,-383,-29
2205,112,-1904,-168,-151,-389,-23
2210,112,-1960,-136,-141,-398,-23
2215,184,-1984,-160,-143,-407,-43
2220,136,-2032,-104,-152,-390,-61
2225,104,-2032,-96,-154,-377,-63
2230,136,-2040,-88,-142,-370,-44
2235,120,-2048,-96,-132,-362,-28
2240,152,-2064,-96,-124,-359,-19
2245,152,-2080,-48,-119,-355,-14
2250,128,-2096,-40,-117,-347,-11
2255,168,-2128,-8,-111,-340,-3
2260,152,-2136,-8,-97,-328,1
2265,184,-2160,-24,-86,-317,-1
2270,184,-2168,56,-71,-305,1
2275,192,-2184,40,-55,-291,4
2280,192,-2208,40,-37,-280,3
2285,192,-2200,32,-21,-272,4
2290,192,-2192,120,-6,-268,5
2295,176,-2200,88,11,-267,11
2300,208,-2160,80,29,-265,11
2305,224,-2192,120,50,-265,16
2310,128,-2168,104,72,-266,23
2315,152,-2176,160,99,-268,29
2320,112,-2256,112,119,-271,34
2325,216,-2240,136,136,-279,41
2330,144,-2272,120,152,-288,48
2335,168,-2320,152,172,-304,57
2340,144,-2360,168,193,-320,62
2345,104,-2360,184,218,-341,71
2350,80,-2400,256,248,-364,75
2355,72,-2384,272,281,-389,81
2360,48,-2392,328,316,-414,77
2365,56,-2368,352,356,-452,72
2370,24,-2344,384,388,-482,56
2375,-48,-2256,440,421,-512,46
2380,-72,-2184,440,456,-533,39
2385,-112,-2112,432,486,-544,44
2390,-184,-2048,376,513,-551,52
2395,-128,-2064,232,515,-553,54
2400,56,-2256,112,491,-542,38
2405,112,-2392,-24,455,-516,21
2410,144,-2672,-168,417,-478,-5
2415,240,-3016,-400,361,-439,-51
2420,344,-3200,-728,222,-420,-118
2425,456,-3256,-992,28,-408,-196
2430,520,-3144,-1024,-150,-377,-282
2435,528,-3000,-920,-198,-330,-336
2440,472,-2816,-880,-116,-278,-360
2445,416,-2536,-936,-14,-212,-359
2450,328,-2232,-952,51,-130,-348
2455,216,-1952,-976,75,-48,-322
2460,64,-1664,-960,79,17,-295
2465,-128,-1400,-912,75,56,-252
2470,-352,-1240,-808,85,72,-216
2475,-504,-1152,-744,104,48,-172
2480,-600,-1112,-664,125,-14,-124
2485,-608,-1192,-632,153,-107,-70
2490,-584,-1376,-592,178,-216,-36
2495,-504,-1552,-544,182,-333,-12
2500,-368,-1776,-504,169,-445,-10
2505,-248,-1944,-440,141,-539,-11
2510,-128,-2080,-408,103,-617,-24
2515,-24,-2160,-352,57,-669,-35
2520,40,-2208,-344,7,-694,-56
2525,128,-2240,-304,-45,-688,-74
2530,168,-2232,-296,-78,-658,-97
2535,200,-2192,-312,-95,-612,-110
2540,264,-2176,-296,-98,-545,-121
2545,256,-2128,-352,-90,-466,-119
2550,280,-2104,-384,-74,-382,-107
2555,264,-2096,-424,-56,-291,-84
2560,264,-2096,-456,-38,-195,-64
2565,216,-2088,-488,-24,-105,-28
2570,160,-2080,-464,-7,-28,20
2575,144,-2048,-464,23,42,61
2580,96,-1984,-480,39,89,91
2585,32,-1904,-472,47,123,126
2590,40,-1808,-480,53,133,151
2595,0,-1736,-504,50,129,177
2600,16,-1680,-408,44,114,199
2605,24,-1624,-400,36,94,222
2610,32,-1576,-344,27,75,239
2615,96,-1600,-280,25,63,258
2620,128,-1632,-264,22,57,266
2625,160,-1648,-216,18,59,272
2630,184,-1704,-216,12,68,269
2635,216,-1720,-248,6,88,263
2640,240,-1776,-240,-10,118,244
2645,224,-1784,-216,-29,158,230
2650,216,-1792,-264,-44,209,218
2655,216,-1808,-240,-54,269,221
2660,192,-1776,-264,-66,327,207
2665,104,-1800,-256,-91,373,176
2670,80,-1824,-256,-117,411,138
2675,40,-1808,-288,-128,459,116
2680,32,-1832,-264,-126,493,110
2685,-40,-1800,-240,-124,525,107
2690,-64,-1824,-240,-116,550,122
2695,-112,-1832,-232,-106,566,134
2700,-152,-1856,-200,-96,574,145
2705,-208,-1832,-200,-84,572,147
2710,-304,-1808,-64,-74,563,164
2715,-184,-1848,-192,-43,544,198
2720,-144,-1912,-168,-30,545,179
2725,-208,-1928,-120,-27,542,139
2730,-216,-1944,-72,-15,530,113
2735,-184,-1936,-48,-1,517,103
2740,-192,-1952,-16,12,505,95
2745,-160,-1976,8,24,491,92
2750,-104,-2008,32,36,479,83
2755,-120,-2000,64,51,467,73
2760,-120,-1976,72,65,458,56
2765,-104,-1992,96,77,450,43
2770,-96,-1976,80,84,444,32
2775,-96,-1944,128,92,438,12
2780,-88,-1936,112,98,430,-17
2785,-96,-1912,120,103,425,-40
2790,-88,-1904,160,109,419,-61
2795,-96,-1888,152,120,411,-78
2800,-112,-1880,176,133,401,-92
2805,-104,-1856,168,141,388,-103
2810,-96,-1872,160,145,368,-114
2815,-160,-1840,128,144,344,-122
2820,-152,-1840,144,133,320,-127
2825,-200,-1872,128,124,303,-128
2830,-216,-1904,104,114,292,-129
2835,-216,-1912,96,101,281,-126
2840,-248,-1960,64,93,273,-123
2845,-264,-2016,56,82,263,-114
2850,-256,-2072,48,67,246,-104
2855,-272,-2120,40,47,227,-91
2860,-256,-2232,0,29,209,-79
2865,-184,-2336,64,18,196,-70
2870,-160,-2352,64,17,195,-59
2875,-104,-2368,128,26,198,-51
2880,-64,-2360,192,46,205,-43
2885,0,-2360,264,84,218,-34
2890,88,-2304,328,128,236,-25
2895,152,-2248,416,172,251,-8
2900,104,-2168,480,217,266,7
2905,320,-2240,416,259,268,26
2910,360,-2368,416,297,283,38
2915,232,-2560,392,327,322,79
2920,136,-2872,360,366,354,152
2925,96,-3248,200,407,374,239
2930,120,-3528,-168,402,387,311
2935,160,-3664,-648,293,419,357
2940,152,-3576,-1016,-2,478,357
2945,24,-3376,-952,-285,532,341
2950,-80,-3120,-792,-443,514,341
2955,-160,-2888,-576,-418,396,355
2960,-240,-2544,-584,-276,204,341
2965,-344,-2144,-656,-117,21,311
2970,-352,-1808,-728,5,-101,291
2975,-304,-1576,-784,79,-159,284
2980,-192,-1448,-856,120,-166,277
2985,-72,-1312,-904,143,-131,231
2990,0,-1328,-840,148,-34,188
2995,72,-1368,-808,142,93,163
3000,152,-1488,-728,140,245,157
3005,224,-1664,-640,138,401,144
3010,200,-1864,-608,127,534,132
3015,192,-2008,-576,104,634,120
3020,136,-2120,-496,68,702,111
3025,128,-2200,-496,24,742,98
3030,104,-2240,-456,-17,764,91
3035,24,-2232,-432,-52,762,78
3040,-32,-2224,-400,-83,723,66
3045,-88,-2152,-368,-107,660,46
3050,-192,-2072,-392,-135,570,29
3055,-240,-1976,-384,-161,458,10
3060,-312,-1936,-344,-184,336,-2
3065,-328,-1840,-376,-188,200,-24
3070,-352,-1800,-368,-184,65,-42
3075,-352,-1736,-352,-172,-56,-62
3080,-392,-1680,-352,-156,-158,-78
3085,-392,-1624,-344,-140,-236,-96
3090,-368,-1632,-344,-120,-296,-104
3095,-368,-1592,-368,-100,-316,-115
3100,-280,-1608,-320,-81,-315,-123
3105,-240,-1600,-336,-67,-294,-133
3110,-184,-1624,-288,-59,-262,-146
3115,-64,-1696,-312,-62,-224,-167
3120,0,-1688,-304,-80,-172,-208
3125,48,-1664,-320,-116,-124,-238
3130,40,-1680,-288,-156,-87,-237
3135,88,-1736,-248,-181,-71,-223
3140,128,-1784,-256,-183,-68,-205
3145,208,-1776,-256,-190,-64,-189
3150,256,-1760,-280,-207,-51,-178
3155,248,-1744,-256,-220,-32,-183
3160,208,-1720,-248,-232,-29,-176
3165,184,-1712,-248,-236,-35,-164
3170,176,-1736,-280,-236,-50,-147
3175,248,-1736,-256,-240,-69,-146
3180,96,-1728,-264,-250,-79,-164
3185,112,-1768,-272,-269,-110,-160
3190,144,-1768,-272,-277,-143,-141
3195,200,-1832,-272,-280,-181,-136
3200,160,-1848,-224,-280,-202,-139
3205,120,-1840,-224,-280,-225,-145
3210,168,-1880,-200,-277,-252,-136
3215,176,-1912,-200,-265,-272,-132
3220,168,-1928,-224,-248,-282,-119
3225,192,-1960,-168,-227,-288,-114
3230,184,-1960,-192,-209,-287,-107
3235,224,-2040,-152,-193,-279,-102
3240,200,-2000,-160,-179,-266,-96
3245,168,-1992,-136,-167,-245,-85
3250,168,-2016,-144,-148,-230,-65
3255,168,-2040,-80,-135,-211,-47
3260,200,-2080,-88,-118,-191,-26
3265,184,-2064,-80,-103,-177,-28
3270,168,-2024,-104,-96,-169,-31
3275,208,-2064,-64,-93,-149,-7
3280,304,-2120,-8,-83,-126,26
3285,216,-2088,16,-61,-91,42
3290,192,-2080,24,-38,-74,68
3295,216,-2088,-8,-20,-71,88
3300,248,-2080,56,-2,-73,107
3305,248,-2080,40,4,-70,112
3310,240,-2072,56,4,-69,115
3315,272,-2072,48,6,-70,111
3320,248,-2048,8,7,-65,113
3325,248,-2056,40,7,-61,110
3330,240,-2072,8,10,-53,115
3335,248,-2104,32,12,-45,112
3340,232,-2088,32,16,-40,108
3345,216,-2128,8,21,-43,104
3350,216,-2128,48,27,-53,95
3355,192,-2152,32,36,-63,86
3360,192,-2136,32,45,-74,79
3365,200,-2120,16,53,-83,65
3370,200,-2152,16,60,-91,54
3375,176,-2120,16,61,-93,39
3380,184,-2120,0,58,-92,26
3385,184,-2128,64,55,-93,11
3390,192,-2176,64,54,-94,-3
3395,192,-2200,112,57,-93,-20
3400,216,-2232,216,71,-89,-39
3405,264,-2240,224,97,-77,-60
3410,240,-2240,288,127,-67,-78
3415,232,-2232,392,163,-55,-98
3420,232,-2240,400,200,-47,-113
3425,192,-2200,464,241,-48,-130
3430,144,-2184,512,286,-56,-144
3435,88,-2136,528,325,-77,-151
3440,-16,-2136,520,355,-120,-157
3445,-80,-2240,408,381,-192,-156
3450,-72,-2416,248,405,-266,-152
3455,-56,-2688,120,419,-322,-146
3460,-24,-2920,-8,401,-353,-156
3465,48,-3136,-352,337,-373,-179
3470,120,-3208,-760,191,-371,-216
3475,304,-3192,-928,-27,-330,-278
3480,336,-3112,-800,-203,-251,-360
3485,392,-2952,-688,-236,-160,-423
3490,416,-2744,-720,-162,-57,-470
3495,408,-2528,-744,-72,66,-496
3500,336,-2336,-752,-2,192,-502
3505,240,-2104,-824,55,318,-480
3510,72,-1928,-848,92,386,-455
3515,-96,-1688,-856,89,409,-434
3520,-264,-1552,-800,63,389,-384
3525,-456,-1480,-720,52,318,-329
3530,-600,-1448,-688,72,201,-267
3535,-728,-1536,-656,110,58,-208
3540,-768,-1608,-616,154,-96,-161
3545,-808,-1704,-624,194,-241,-129
3550,-760,-1848,-536,212,-359,-116
3555,-696,-1960,-520,218,-449,-118
3560,-624,-2064,-440,207,-526,-130
3565,-552,-2056,-368,178,-572,-143
3570,-416,-2072,-328,134,-605,-148
3575,-272,-2032,-336,81,-615,-144
3580,-184,-2000,-264,21,-600,-132
3585,-56,-1984,-264,-24,-570,-109
3590,104,-1912,-312,-58,-520,-88
3595,208,-1864,-336,-107,-432,-61
3600,256,-1856,-328,-151,-328,-39
3605,304,-1872,-320,-176,-229,-17
3610,328,-1912,-360,-178,-116,14
3615,336,-1936,-352,-164,-34,53
3620,368,-1968,-376,-145,33,84
3625,320,-2000,-400,-123,85,111
3630,328,-1984,-416,-102,126,126
3635,296,-1968,-448,-83,159,137
3640,240,-1904,-440,-72,182,139
3645,176,-1856,-408,-61,198,158
3650,128,-1808,-424,-37,205,177
3655,128,-1760,-400,-1,215,202
3660,48,-1728,-392,27,237,213
3665,40,-1696,-336,53,259,220
3670,24,-1704,-336,70,279,208
3675,-8,-1656,-304,69,299,190
3680,32,-1664,-272,68,329,186
3685,56,-1664,-224,58,358,189
3690,-208,-1512,-80,48,382,204
3695,80,-1632,-192,45,366,254
3700,104,-1640,-224,17,359,240
3705,104,-1648,-176,-47,364,198
3710,64,-1704,-136,-118,377,155
3715,40,-1728,-152,-179,392,136
3720,16,-1776,-160,-207,403,123
3725,0,-1840,-136,-222,414,120
3730,-64,-1816,-120,-223,427,120
3735,-48,-1848,-120,-213,441,132
3740,-80,-1888,-104,-198,455,141
3745,-136,-1888,-128,-181,457,147
3750,-168,-1960,-80,-166,446,136
3755,-184,-1968,-144,-150,430,127
3760,-208,-1992,-104,-137,420,116
3765,-208,-2000,-96,-121,421,119
3770,-216,-2024,-144,-99,430,126
3775,-256,-2040,-80,-79,438,129
3780,-256,-2064,-56,-60,436,112
3785,-248,-2080,-24,-49,434,90
3790,-248,-2072,16,-36,433,68
3795,-208,-2096,56,-22,436,48
3800,-240,-2080,64,-4,441,29
3805,-248,-2056,64,11,436,11
3810,-232,-2056,128,21,428,-12
3815,-264,-2016,128,29,422,-31
3820,-256,-1984,168,40,410,-49
3825,-288,-1944,160,49,395,-68
3830,-304,-1904,192,54,376,-89
3835,-288,-1904,176,54,353,-101
3840,-320,-1872,152,52,329,-115
3845,-360,-1864,168,44,300,-119
3850,-336,-1896,176,32,270,-127
3855,-312,-1952,160,22,237,-129
3860,-312,-2016,200,14,206,-138
3865,-288,-2080,184,12,173,-143
3870,-272,-2072,200,19,137,-153
3875,-248,-2080,184,26,111,-155
3880,-232,-2104,176,33,88,-163
3885,-216,-2080,160,39,66,-166
3890,-208,-2096,88,41,45,-175
3895,-192,-2056,64,41,25,-173
3900,-208,-2040,48,42,5,-169
3905,-256,-2080,48,36,-10,-158
3910,-264,-2096,40,21,-26,-145
3915,-208,-2224,64,-2,-39,-120
3920,-144,-2304,96,-15,-38,-90
3925,-120,-2376,168,-15,-29,-61
3930,-88,-2424,208,1,-18,-37
3935,-56,-2392,296,32,-7,-11
3940,-8,-2392,408,73,1,4
3945,80,-2320,440,115,5,19
3950,144,-2288,528,157,12,25
3955,200,-2256,536,192,23,31
3960,376,-2280,624,216,37,32
3965,440,-2424,568,245,67,41
3970,376,-2576,456,286,118,80
3975,304,-2896,232,315,191,136
3980,248,-3176,-136,284,238,184
3985,296,-3416,-688,161,265,227
3990,368,-3536,-1200,-32,304,236
3995,176,-3384,-1376,-277,361,190
4000,-88,-3088,-1240,-470,366,156
4005,-264,-2696,-1096,-514,281,163
4010,-312,-2432,-1048,-438,145,183
4015,-368,-2064,-1048,-332,18,207
4020,-384,-1728,-1024,-242,-71,219
4025,-272,-1512,-1016,-181,-134,232
4030,-128,-1360,-1008,-135,-154,234
4035,48,-1296,-984,-108,-148,235
4040,176,-1320,-912,-84,-112,231
4045,224,-1464,-856,-53,-44,237
4050,304,-1632,-760,-17,47,246
4055,392,-1928,-656,19,156,260
4060,384,-2072,-608,47,274,265
4065,352,-2256,-560,60,381,267
4070,296,-2384,-504,58,460,257
4075,272,-2456,-464,50,500,235
4080,192,-2408,-448,31,506,209
4085,144,-2400,-432,11,483,178
4090,48,-2272,-440,-13,435,141
4095,-32,-2192,-424,-36,370,102
4100,-96,-2048,-416,-60,294,66
4105,-152,-1944,-432,-86,210,33
4110,-240,-1848,-432,-108,121,0
4115,-288,-1752,-392,-127,32,-29
4120,-352,-1696,-384,-133,-55,-56
4125,-424,-1640,-360,-125,-139,-89
4130,-472,-1616,-328,-100,-221,-102
4135,-496,-1584,-336,-71,-273,-108
4140,-496,-1584,-320,-43,-311,-107
4145,-424,-1600,-288,-17,-335,-104
4150,-392,-1592,-272,6,-338,-100
4155,-352,-1616,-264,22,-328,-97
4160,-280,-1616,-264,34,-314,-81
4165,-232,-1624,-272,44,-295,-68
4170,-160,-1688,-248,43,-279,-63
4175,-96,-1696,-224,29,-262,-71
4180,-24,-1704,-216,6,-247,-101
4185,-24,-1752,-168,-33,-230,-125
4190,56,-1720,-176,-49,-226,-139
4195,88,-1744,-152,-72,-221,-144
4200,168,-1680,-152,-95,-216,-149
4205,176,-1696,-152,-122,-220,-151
4210,240,-1704,-144,-147,-234,-155
4215,240,-1720,-152,-175,-251,-164
4220,280,-1600,-240,-203,-292,-189
4225,288,-1696,-144,-262,-328,-187
4230,328,-1688,-184,-261,-342,-160
4235,304,-1712,-232,-253,-344,-141
4240,312,-1752,-208,-241,-351,-131
4245,280,-1768,-184,-224,-360,-129
4250,256,-1760,-208,-203,-365,-128
4255,224,-1752,-192,-182,-366,-129
4260,232,-1792,-192,-159,-361,-125
4265,240,-1808,-168,-141,-350,-124
4270,216,-1808,-152,-123,-332,-118
4275,232,-1816,-144,-104,-313,-112
4280,184,-1816,-128,-93,-294,-102
4285,184,-1816,-120,-87,-271,-89
4290,192,-1840,-88,-85,-251,-76
4295,200,-1856,-40,-86,-237,-63
4300,216,-1864,-48,-87,-224,-46
4305,216,-1856,8,-86,-212,-30
4310,208,-1872,0,-84,-208,-10
4315,200,-1896,-16,-76,-208,9
4320,208,-1896,8,-70,-211,33
4325,184,-1912,-8,-67,-219,55
4330,152,-1904,-8,-68,-229,84
4335,136,-1936,32,-69,-240,112
4340,112,-1960,-8,-74,-251,138
4345,80,-1960,-8,-74,-262,160
4350,64,-1992,-8,-74,-271,184
4355,56,-1976,-48,-73,-277,200
4360,88,-2048,-32,-72,-283,214
4365,104,-2080,-40,-71,-280,220
4370,144,-2112,-72,-69,-273,221
4375,200,-2152,-96,-66,-265,214
4380,248,-2208,-112,-67,-256,202
4385,296,-2216,-168,-68,-246,173
4390,304,-2248,-152,-69,-234,148
4395,304,-2272,-184,-70,-223,119
4400,320,-2296,-160,-71,-213,94
4405,328,-2296,-168,-71,-202,68
4410,288,-2352,-144,-68,-193,48
4415,264,-2392,-120,-62,-187,26
4420,216,-2400,-64,-51,-183,12
4425,232,-2440,16,-34,-179,-3
4430,200,-2440,72,-8,-171,-12
4435,192,-2456,128,21,-157,-31
4440,184,-2416,192,57,-145,-45
4445,176,-2400,264,86,-138,-62
4450,176,-2352,328,112,-137,-75
4455,136,-2280,424,133,-144,-90
4460,104,-2240,496,153,-160,-100
4465,88,-2200,568,178,-181,-115
4470,32,-2168,592,206,-209,-119
4475,-32,-2152,592,233,-241,-121
4480,-192,-2216,576,254,-286,-120
4485,-72,-2432,360,270,-353,-132
4490,-88,-2680,304,277,-404,-151
4495,8,-3024,120,281,-436,-171
4500,72,-3280,-184,244,-459,-180
4505,152,-3368,-736,107,-492,-195
4510,336,-3296,-1080,-175,-492,-245
4515,400,-3176,-1032,-463,-417,-326
4520,464,-3000,-872,-578,-312,-399
4525,528,-2768,-784,-509,-210,-465
4530,592,-2528,-824,-380,-92,-510
4535,480,-2344,-768,-292,53,-580
4540,264,-2136,-704,-236,215,-628
4545,248,-1896,-872,-164,283,-623
4550,88,-1760,-912,-99,380,-535
4555,-24,-1616,-976,-21,442,-454
4560,-168,-1544,-976,-8,445,-415
4565,-392,-1464,-944,-30,396,-408
4570,-552,-1424,-888,-39,308,-391
4575,-640,-1416,-824,-30,185,-358
4580,-768,-1520,-720,-8,49,-312
4585,-760,-1656,-640,16,-94,-263
4590,-720,-1856,-600,33,-229,-216
4595,-656,-1984,-544,30,-377,-197
4600,-592,-2072,-464,4,-473,-183
4605,-512,-2136,-392,-28,-546,-175
4610,-360,-2120,-392,-59,-598,-171
4615,-232,-2072,-368,-101,-609,-157
4620,-128,-2016,-328,-136,-592,-135
4625,-32,-1968,-376,-173,-542,-121
4630,24,-1944,-336,-206,-465,-104
4635,104,-1944,-336,-226,-373,-97
4640,184,-1976,-360,-228,-277,-88
4645,280,-2000,-384,-217,-158,-73
4650,336,-2040,-392,-196,-63,-54
4655,368,-2040,-456,-183,26,-38
4660,376,-2056,-464,-180,106,-16
4665,368,-2064,-496,-174,161,-1
4670,360,-2016,-552,-165,195,14
4675,336,-1960,-544,-160,213,22
4680,288,-1864,-552,-152,213,35
4685,248,-1800,-520,-135,203,61
4690,200,-1744,-544,-115,188,90
4695,128,-1672,-528,-97,158,113
4700,72,-1632,-472,-76,132,134
4705,32,-1632,-408,-48,107,164
4710,40,-1616,-400,8,102,223
4715,32,-1648,-368,67,94,265
4720,-16,-1648,-336,79,82,259
4725,-16,-1664,-312,64,80,244
4730,8,-1720,-304,45,86,223
4735,-224,-1704,-32,25,99,210
4740,96,-1792,-256,55,84,244
4745,184,-1792,-280,52,134,223
4750,144,-1768,-288,-10,235,179
4755,96,-1792,-192,-57,309,146
4760,88,-1784,-192,-83,370,131
4765,64,-1760,-216,-97,420,131
4770,80,-1736,-248,-100,460,139
4775,56,-1744,-256,-101,488,147
4780,8,-1728,-264,-97,511,158
4785,0,-1728,-280,-87,525,171
4790,-32,-1752,-304,-73,533,184
4795,-64,-1768,-296,-57,535,194
4800,-88,-1776,-256,-41,532,196
4805,-96,-1784,-288,-28,524,194
4810,-128,-1800,-240,-18,518,189
4815,-144,-1832,-256,-9,508,180
4820,-144,-1848,-216,-1,497,165
4825,-160,-1856,-184,4,488,153
4830,-144,-1848,-160,9,479,143
4835,-120,-1872,-128,13,468,130
4840,-96,-1896,-128,16,464,113
4845,-96,-1920,-104,16,460,98
4850,-80,-1936,-48,16,456,79
4855,-104,-1888,-48,14,453,62
4860,-96,-1904,-32,15,451,52
4865,-176,-1888,48,16,443,42
4870,-104,-1928,-8,29,434,28
4875,-152,-1888,-8,35,439,-3
4880,-184,-1920,56,40,442,-29
4885,-248,-1888,0,50,436,-43
4890,-304,-1872,16,57,420,-58
4895,-304,-1904,16,57,395,-69
4900,-320,-1936,-8,50,355,-84
4905,-344,-1960,0,42,316,-93
4910,-344,-2016,-40,39,274,-106
4915,-368,-2072,-24,39,233,-115
4920,-344,-2152,-24,43,197,-123
4925,-320,-2216,-8,53,167,-130
4930,-312,-2264,-48,64,143,-141
4935,-320,-2240,-56,74,127,-151
4940,-256,-2224,-88,81,117,-165
4945,-232,-2208,-72,88,112,-175
4950,-192,-2200,-24,101,101,-187
4955,-152,-2200,-8,128,91,-190
4960,-104,-2256,48,153,82,-189
4965,-96,-2296,88,181,83,-176
4970,-48,-2360,160,208,91,-160
4975,-48,-2384,200,236,104,-133
4980,-32,-2376,296,262,120,-105
4985,-48,-2336,296,281,128,-73
4990,-80,-2280,312,291,128,-44
4995,-80,-2232,392,294,116,-10
5000,-120,-2184,376,289,89,23
5005,-128,-2128,336,272,50,61
5010,-72,-2168,280,251,18,99
5015,-104,-2360,240,233,11,158
5020,-152,-2656,224,227,10,239
5025,-136,-2992,88,233,10,330
5030,-48,-3416,-104,222,27,413
5035,16,-3688,-424,155,76,492
5040,224,-3800,-736,14,150,559
5045,352,-3840,-816,-172,226,603
5050,328,-3664,-768,-318,260,583
5055,352,-3448,-616,-351,190,532
5060,344,-3176,-592,-238,66,475
5065,264,-2880,-640,-68,-66,425
5070,48,-2520,-728,133,-170,394
5075,-96,-2144,-848,313,-228,402
5080,-112,-1792,-1048,431,-245,370
5085,-168,-1544,-1200,472,-213,308
5090,-208,-1384,-1240,450,-135,246
5095,-144,-1384,-1168,399,-21,223
5100,-96,-1464,-1104,361,111,224
5105,16,-1584,-984,354,267,234
5110,96,-1688,-840,376,384,234
5115,192,-1816,-752,386,473,231
5120,232,-1904,-672,367,533,212
5125,296,-1992,-600,319,568,187
5130,328,-2008,-488,252,593,151
5135,304,-2032,-448,185,607,121
5140,288,-2040,-424,136,607,94
5145,232,-2024,-408,102,594,72
5150,160,-2008,-384,75,570,42
5155,96,-1976,-344,46,529,10
5160,72,-1960,-392,7,458,-22
5165,-48,-1888,-344,-27,400,-63
5170,-128,-1808,-304,-61,323,-106
5175,-152,-1728,-296,-83,233,-126
5180,-152,-1664,-328,-100,132,-148
5185,-224,-1576,-312,-117,56,-194
5190,-288,-1488,-320,-140,-22,-220
5195,-296,-1400,-328,-160,-90,-219
5200,-288,-1400,-360,-185,-144,-221
5205,-312,-1368,-400,-206,-181,-229
5210,-304,-1448,-384,-256,-196,-255
5215,-304,-1480,-400,-289,-187,-255
5220,-264,-1560,-400,-286,-177,-227
5225,-184,-1608,-448,-262,-167,-209
5230,-168,-1648,-424,-247,-155,-216
5235,-104,-1696,-432,-250,-150,-220
5240,-80,-1728,-408,-266,-147,-228
5245,-24,-1760,-400,-294,-150,-240
5250,-8,-1848,-328,-315,-155,-243
5255,-64,-1848,-296,-308,-163,-220
5260,-32,-1864,-320,-276,-196,-168
5265,32,-1856,-336,-234,-230,-128
5270,80,-1848,-360,-212,-265,-121
5275,224,-1728,-328,-205,-298,-114
5280,168,-1784,-296,-208,-328,-111
5285,192,-1736,-336,-211,-359,-112
5290,96,-1736,-288,-215,-391,-121
5295,144,-1808,-328,-218,-429,-99
5300,152,-1808,-296,-206,-454,-87
5305,216,-1824,-328,-190,-469,-86
5310,248,-1832,-336,-176,-475,-98
5315,256,-1880,-320,-161,-470,-108
5320,304,-1904,-296,-148,-460,-128
5325,336,-1888,-296,-141,-452,-152
5330,328,-1864,-256,-144,-433,-159
5335,360,-1888,-224,-144,-410,-148
5340,336,-1904,-208,-135,-388,-140
5345,312,-1936,-224,-121,-366,-132
5350,280,-1936,-208,-108,-351,-129
5355,232,-1912,-152,-101,-333,-110
5360,208,-1912,-168,-91,-313,-69
5365,152,-1920,-152,-76,-297,-35
5370,120,-1912,-136,-65,-288,-8
5375,136,-1936,-144,-59,-288,16
5380,88,-1920,-104,-63,-289,31
5385,88,-1920,-104,-64,-293,53
5390,112,-1896,-120,-62,-294,72
5395,72,-1880,-64,-64,-293,80
5400,72,-1880,-88,-63,-298,106
5405,96,-1856,-104,-53,-301,137
5410,120,-1880,-80,-44,-303,167
5415,152,-1848,-96,-38,-301,185
5420,176,-1856,-96,-40,-293,197
5425,240,-1896,-96,-46,-280,207
5430,288,-1888,-112,-57,-260,212
5435,312,-1928,-144,-72,-240,214
5440,344,-2000,-128,-87,-218,207
5445,360,-2016,-144,-97,-202,199
5450,360,-2032,-96,-111,-190,187
5455,344,-2080,-168,-122,-186,174
5460,296,-2112,-152,-128,-183,164
5465,256,-2152,-136,-129,-188,153
5470,192,-2208,-136,-123,-191,146
5475,128,-2240,-128,-111,-196,137
5480,72,-2312,-144,-99,-201,129
5485,24,-2320,-48,-82,-208,120
5490,8,-2328,-112,-64,-216,108
5495,-24,-2328,-80,-45,-227,95
5500,-48,-2344,-56,-29,-238,82
5505,-48,-2344,-40,-11,-247,67
5510,-32,-2368,8,9,-258,54
5515,-8,-2360,64,28,-273,36
5520,-16,-2336,88,56,-288,21
5525,0,-2368,152,84,-307,3
5530,24,-2328,232,119,-324,-15
5535,40,-2312,280,155,-342,-31
5540,80,-2280,272,191,-358,-42
5545,128,-2320,344,230,-374,-49
5550,208,-2200,464,272,-387,-50
5555,128,-2192,456,308,-397,-53
5560,256,-2184,680,313,-411,-55
5565,272,-2176,456,296,-419,-60
5570,328,-2136,448,256,-422,-65
5575,376,-2152,424,206,-418,-73
5580,400,-2160,424,149,-412,-79
5585,432,-2208,424,93,-407,-83
5590,376,-2208,312,56,-403,-84
5595,440,-2264,400,41,-400,-90
5600,416,-2296,384,41,-394,-94
5605,360,-2328,296,47,-384,-101
5610,336,-2344,272,55,-368,-104
5615,312,-2368,168,63,-350,-114
5620,288,-2400,120,69,-324,-123
5625,264,-2464,64,76,-302,-139
5630,264,-2544,-32,81,-279,-157
5635,248,-2536,-112,87,-248,-181
5640,216,-2504,-240,88,-216,-200
5645,216,-2424,-296,86,-181,-220
5650,200,-2336,-408,78,-141,-232
5655,144,-2200,-544,62,-98,-245
5660,144,-2048,-704,36,-58,-243
5665,184,-1968,-792,-1,-18,-242
5670,24,-1904,-928,-45,33,-245
5675,-8,-1952,-960,-107,67,-226
5680,-88,-1976,-1088,-166,97,-205
5685,-152,-2072,-1112,-232,112,-196
5690,-248,-2144,-1160,-292,108,-178
5695,-304,-2312,-1192,-335,81,-167
5700,-352,-2432,-1216,-355,39,-159
5705,-384,-2568,-1208,-347,-6,-167
5710,-392,-2624,-1136,-311,-48,-177
5715,-392,-2648,-1064,-247,-84,-195
5720,-392,-2592,-1016,-179,-122,-241
5725,-376,-2560,-1000,-109,-141,-298
5730,-312,-2440,-912,-46,-129,-328
5735,-288,-2336,-848,29,-86,-333
5740,-192,-2184,-792,93,-39,-335
5745,-192,-2040,-728,118,9,-347
5750,-128,-1936,-664,99,67,-313
5755,-120,-1880,-616,63,116,-267
5760,-88,-1896,-560,22,144,-217
5765,-48,-1928,-528,-16,153,-173
5770,8,-1976,-512,-48,158,-113
5775,56,-2016,-480,-77,169,-63
5780,88,-2088,-496,-102,182,-12
5785,112,-2136,-464,-122,192,32
5790,152,-2208,-480,-144,207,74
5795,192,-2248,-488,-158,223,108
5800,184,-2232,-456,-164,251,135
5805,176,-2232,-480,-161,285,147
5810,168,-2176,-512,-146,326,156
5815,128,-2064,-464,-124,362,155
5820,96,-1992,-456,-94,393,161
5825,32,-1904,-432,-56,418,165
5830,-16,-1776,-448,1,436,178
5835,-48,-1640,-440,44,447,179
5840,-96,-1520,-424,78,445,184
5845,-96,-1472,-424,97,432,192
5850,-128,-1408,-408,100,414,206
5855,-176,-1352,-416,93,399,217
5860,-160,-1344,-400,73,389,239
5865,-168,-1344,-376,49,385,257
5870,-128,-1376,-400,20,381,279
5875,-120,-1440,-408,-22,383,281
5880,-136,-1480,-352,-85,391,281
5885,-152,-1496,-320,-136,385,281
5890,-96,-1560,-296,-166,366,281
5895,-72,-1592,-288,-186,358,263
5900,-80,-1600,-288,-201,354,250
5905,-88,-1656,-256,-221,354,241
5910,-96,-1680,-264,-233,355,249
5915,-112,-1720,-240,-233,347,258
5920,-96,-1728,-296,-224,342,260
5925,-96,-1744,-320,-207,342,252
5930,-136,-1728,-304,-194,341,245
5935,-160,-1760,-344,-197,332,218
5940,-184,-1744,-312,-212,324,196
5945,-208,-1752,-312,-224,318,181
5950,-248,-1792,-296,-225,310,173
5955,-240,-1800,-272,-219,298,158
5960,-248,-1848,-256,-212,287,139
5965,-240,-1872,-224,-203,277,111
5970,-264,-1904,-184,-192,267,87
5975,-248,-1952,-168,-177,256,66
5980,-248,-1952,-144,-159,238,44
5985,-224,-1984,-136,-140,224,29
5990,-248,-1984,-160,-126,213,16
5995,-256,-1992,-120,-117,206,-2
6000,-216,-2016,-112,-114,200,-9
6005,-216,-2032,-96,-113,199,-12
6010,-176,-2040,-88,-107,201,-19
6015,-168,-2048,-80,-98,204,-36
6020,-152,-2040,-72,-86,207,-45
6025,-96,-2024,-80,-74,214,-52
6030,-96,-2000,-56,-57,220,-64
6035,-96,-1960,-56,-43,225,-75
6040,-96,-1912,-48,-35,230,-77
6045,-96,-1904,-24,-31,235,-81
6050,-64,-1888,-24,-25,238,-83
6055,-80,-1856,8,-21,238,-89
6060,-96,-1832,32,-16,236,-92
6065,-72,-1856,64,-12,232,-93
6070,-32,-1856,72,-10,230,-96
6075,-40,-1848,64,-3,230,-99
6080,-24,-1864,72,7,228,-103
6085,8,-1872,56,17,227,-108
6090,16,-1896,80,26,226,-112
6095,16,-1904,104,32,222,-114
6100,0,-1880,64,38,220,-117
6105,8,-1944,80,42,218,-120
6110,32,-1944,72,50,220,-131
6115,8,-1928,104,54,226,-143
6120,40,-1968,72,61,241,-154
6125,48,-1936,96,72,263,-165
6130,104,-1944,88,89,290,-179
6135,104,-1936,104,111,337,-199
6140,136,-1944,88,148,381,-217
6145,152,-1936,128,175,425,-237
6150,184,-1936,136,198,470,-250
6155,168,-1952,160,217,514,-261
6160,152,-1968,200,232,553,-268
6165,104,-1992,224,243,590,-269
6170,88,-2056,224,245,617,-266
6175,80,-2144,288,237,634,-251
6180,16,-2200,288,227,640,-230
6185,8,-2280,344,213,635,-204
6190,-8,-2368,376,204,626,-179
6195,-48,-2408,392,208,616,-150
6200,-56,-2464,456,232,602,-113
6205,-96,-2496,440,269,589,-71
6210,-136,-2576,440,316,573,-33
6215,-200,-2560,416,359,550,6
6220,-256,-2584,296,388,519,48
6225,-328,-2608,168,399,485,100
6230,-312,-2648,24,386,447,150
6235,-320,-2760,-168,349,414,204
6240,-296,-2832,-392,258,379,230
6245,-336,-2880,-592,152,344,236
6250,-376,-2968,-856,26,294,232
6255,-424,-2968,-1072,-116,221,220
6260,-528,-2968,-1248,-263,126,197
6265,-648,-2928,-1344,-398,7,187
6270,-624,-2928,-1384,-484,-128,190
6275,-632,-2840,-1448,-523,-262,197
6280,-592,-2688,-1512,-534,-376,194
6285,-528,-2552,-1528,-528,-453,183
6290,-408,-2408,-1488,-500,-499,159
6295,-256,-2264,-1480,-434,-511,140
6300,-104,-2160,-1392,-354,-504,124
6305,0,-2080,-1272,-255,-474,117
6310,120,-2064,-1176,-138,-425,110
6315,232,-1992,-1088,-8,-355,110
6320,352,-1952,-1008,123,-270,114
6325,432,-1904,-936,237,-175,123
6330,496,-1920,-856,318,-87,128
6335,520,-1912,-760,357,-14,129
6340,488,-1904,-656,355,47,113
6345,504,-1912,-584,311,80,92
6350,456,-1888,-488,252,99,56
6355,384,-1880,-456,182,101,20
6360,304,-1848,-424,101,91,-28
6365,208,-1840,-360,20,67,-75
6370,40,-1816,-344,-51,27,-118
6375,-8,-1840,-392,-106,-28,-143
6380,-64,-1880,-400,-140,-81,-168
6385,-104,-1912,-456,-160,-121,-199
6390,-104,-1928,-504,-179,-159,-227
6395,-120,-1968,-568,-200,-192,-240
6400,-96,-1968,-624,-212,-204,-254
6405,-88,-1984,-616,-224,-193,-259
6410,-88,-1920,-616,-230,-175,-270
6415,-96,-1920,-600,-243,-156,-281
6420,-56,-1872,-576,-236,-140,-278
6425,-24,-1800,-512,-203,-122,-256
6430,8,-1800,-480,-161,-107,-235
6435,-32,-1704,-424,-125,-91,-227
6440,-24,-1656,-400,-103,-83,-232
6445,0,-1680,-376,-98,-84,-227
6450,56,-1696,-344,-104,-95,-222
6455,40,-1696,-336,-119,-107,-218
6460,72,-1696,-288,-145,-130,-219
6465,48,-1752,-304,-170,-149,-215
6470,120,-1768,-280,-179,-167,-201
6475,80,-1808,-272,-181,-186,-187
6480,64,-1816,-280,-181,-213,-174
6485,80,-1832,-312,-174,-238,-165
6490,104,-1848,-280,-172,-259,-169
6495,136,-1832,-368,-182,-264,-195
6500,144,-1816,-328,-206,-250,-225
6505,176,-1864,-320,-209,-235,-217
6510,40,-1800,-304,-181,-205,-197
6515,120,-1808,-328,-136,-193,-140
6520,192,-1832,-360,-88,-173,-112
6525,240,-1816,-312,-63,-143,-109
6530,328,-1864,-304,-56,-117,-120
6535,312,-1800,-280,-40,-103,-155
6540,344,-1784,-248,-40,-87,-175
6545,360,-1784,-256,-41,-66,-165
6550,360,-1848,-248,-43,-53,-169
6555,360,-1880,-272,-51,-46,-176
6560,352,-1848,-264,-64,-47,-193
6565,328,-1848,-240,-82,-34,-174
6570,320,-1864,-256,-91,-13,-146
6575,272,-1872,-256,-103,1,-123
6580,240,-1864,-248,-118,7,-110
6585,184,-1864,-248,-132,9,-96
6590,216,-1856,-248,-143,9,-88
6595,184,-1856,-240,-151,9,-72
6600,160,-1840,-192,-154,6,-62
6605,144,-1840,-216,-151,-1,-49
6610,112,-1816,-208,-145,-7,-42
6615,96,-1840,-168,-135,-13,-27
6620,104,-1824,-184,-124,-16,-17
6625,72,-1800,-192,-114,-18,-3
6630,72,-1792,-176,-109,-15,11
6635,48,-1800,-152,-103,-10,27
6640,80,-1832,-152,-98,-6,39
6645,64,-1808,-160,-95,-3,57
6650,88,-1848,-112,-89,-3,65
6655,96,-1888,-136,-85,-4,77
6660,80,-1896,-120,-76,-6,81
6665,120,-1928,-72,-63,-8,89
6670,136,-1936,-80,-49,-15,91
6675,128,-1944,-88,-30,-20,96
6680,136,-1960,-72,-12,-27,94
6685,136,-1928,-96,4,-35,96
6690,128,-1968,-88,20,-40,97
6695,144,-1952,-88,37,-45,102
6700,120,-1984,-64,56,-47,101
6705,128,-1984,-48,75,-51,103
6710,144,-1992,-24,92,-52,101
6715,128,-1960,-24,107,-55,106
6720,128,-1992,-8,121,-60,109
6725,136,-1984,24,133,-67,112
6730,168,-2000,40,147,-79,112
6735,168,-2024,64,164,-90,113
6740,176,-1992,80,184,-105,109
6745,184,-2048,160,200,-125,111
6750,168,-2040,144,224,-150,111
6755,152,-2048,184,242,-172,112
6760,144,-2048,208,252,-195,117
6765,136,-2104,248,256,-217,125
6770,112,-2120,264,260,-240,130
6775,104,-2152,272,267,-263,132
6780,72,-2136,336,271,-288,131
6785,64,-2184,360,272,-312,131
6790,40,-2200,328,273,-335,129
6795,48,-2216,368,278,-360,125
6800,24,-2216,400,286,-391,119
6805,8,-2232,416,299,-416,117
6810,32,-2264,384,306,-440,115
6815,-8,-2272,336,305,-467,112
6820,8,-2272,296,298,-497,107
6825,24,-2256,200,280,-521,103
6830,80,-2280,80,248,-536,101
6835,136,-2264,-88,199,-537,96
6840,256,-2320,-256,120,-521,86
6845,400,-2392,-448,20,-493,69
6850,520,-2480,-632,-85,-449,42
6855,616,-2528,-784,-220,-404,13
6860,704,-2640,-928,-333,-351,-20
6865,752,-2768,-984,-430,-289,-51
6870,720,-2912,-968,-494,-226,-83
6875,696,-3024,-888,-517,-159,-116
6880,632,-3104,-824,-493,-91,-154
6885,656,-3032,-864,-442,-13,-209
6890,352,-2992,-824,-440,87,-320
6895,264,-3040,-704,-447,171,-389
6900,-40,-3200,-496,-373,239,-406
6905,-248,-3232,-480,-175,283,-370
6910,-408,-3120,-440,-3,295,-343
6915,-544,-3016,-344,123,296,-312
6920,-528,-2856,-384,241,278,-269
6925,-528,-2584,-440,343,231,-226
6930,-432,-2296,-504,419,157,-177
6935,-328,-2096,-568,468,68,-123
6940,-176,-1904,-616,474,-24,-71
6945,-16,-1696,-664,438,-119,-29
6950,112,-1520,-688,382,-210,6
6955,184,-1384,-696,296,-321,28
6960,240,-1328,-704,220,-413,63
6965,248,-1352,-752,151,-499,99
6970,224,-1392,-800,87,-565,126
6975,144,-1504,-824,25,-607,137
6980,32,-1600,-864,-30,-626,147
6985,-56,-1752,-904,-75,-630,152
6990,-96,-1944,-928,-103,-624,153
6995,-168,-2104,-936,-125,-608,140
7000,-184,-2232,-968,-149,-582,113
7005,-224,-2328,-960,-167,-528,65
7010,-232,-2384,-952,-186,-467,25
7015,-224,-2440,-928,-187,-390,-18
7020,-200,-2440,-880,-167,-307,-54
7025,-128,-2424,-856,-131,-226,-82
7030,-96,-2368,-832,-84,-146,-98
7035,-56,-2320,-776,-40,-69,-106
7040,-8,-2256,-704,0,6,-102
7045,64,-2192,-704,33,75,-85
7050,88,-2144,-656,53,136,-55
7055,104,-2080,-632,63,190,-9
7060,160,-2080,-608,62,243,37
7065,208,-1984,-592,48,278,72
7070,240,-1960,-560,20,302,105
7075,272,-1872,-576,-11,316,136
7080,320,-1800,-536,-32,326,179
7085,328,-1824,-520,-36,325,224
7090,320,-1768,-496,-14,307,261
7095,320,-1728,-512,-3,275,262
7100,304,-1736,-464,6,249,281
7105,280,-1768,-488,16,233,293
7110,208,-1832,-416,18,227,284
7115,176,-1832,-352,26,235,297
7120,88,-1808,-360,66,233,303
7125,32,-1776,-392,100,215,286
7130,-16,-1712,-360,103,203,271
7135,-56,-1736,-328,97,206,260
7140,-80,-1704,-288,79,214,251
7145,-160,-1648,-248,51,224,222
7150,-200,-1656,-232,22,237,198
7155,-272,-1624,-200,-4,252,184
7160,-304,-1616,-200,-10,276,211
7165,-296,-1608,-184,9,299,232
7170,-304,-1584,-224,26,317,254
7175,-320,-1552,-184,31,329,264
7180,-336,-1528,-224,25,333,279
7185,-336,-1504,-208,15,328,290
7190,-360,-1504,-208,-3,313,304
7195,-312,-1536,-200,-24,288,308
7200,-280,-1552,-232,-48,263,315
7205,-248,-1576,-200,-69,234,312
7210,-200,-1592,-248,-89,199,302
7215,-168,-1640,-240,-108,173,284
7220,-88,-1688,-232,-120,152,265
7225,-40,-1712,-256,-128,138,240
7230,32,-1736,-248,-134,130,221
7235,64,-1752,-264,-138,127,194
7240,64,-1784,-240,-145,128,174
7245,64,-1776,-256,-152,133,151
7250,56,-1808,-240,-159,137,138
7255,24,-1816,-224,-166,148,126
7260,48,-1856,-208,-165,157,129
7265,40,-1896,-248,-155,175,114
7270,-24,-1848,-200,-152,194,95
7275,-24,-1888,-224,-149,209,80
7280,-64,-1872,-200,-142,216,69
7285,-112,-1864,-160,-134,216,59
7290,-120,-1848,-144,-129,214,53
7295,-160,-1856,-160,-128,214,39
7300,-160,-1864,-144,-129,215,31
7305,-160,-1832,-160,-128,215,17
7310,-168,-1792,-120,-127,213,8
7315,-136,-1784,-104,-129,205,-7
7320,-112,-1784,-112,-134,196,-12
7325,-96,-1784,-80,-140,186,-17
7330,-88,-1816,-80,-144,180,-16
7335,-88,-1824,-56,-151,176,-19
7340,-72,-1856,-112,-159,169,-20
7345,-72,-1872,-112,-172,158,-23
7350,-72,-1936,-104,-186,148,-26
7355,-72,-1944,-88,-198,138,-34
7360,-64,-1992,-96,-200,126,-39
7365,-88,-2016,-104,-195,113,-50
7370,-88,-2008,-72,-180,104,-53
7375,-88,-2048,-72,-161,101,-63
7380,-88,-2056,-80,-134,104,-70
7385,-80,-2032,-56,-102,110,-80
7390,-80,-2000,-48,-64,125,-88
7395,-72,-1992,16,-23,147,-103
7400,-56,-1944,16,13,177,-109
7405,-16,-1944,40,45,209,-115
7410,0,-1904,64,74,244,-118
7415,48,-1880,48,98,271,-120
7420,80,-1840,56,111,303,-114
7425,112,-1864,80,120,317,-111
7430,152,-1872,72,125,327,-106
7435,136,-1872,32,109,347,-103
7440,152,-1928,64,79,369,-103
7445,104,-1960,112,49,383,-105
7450,104,-2016,96,29,390,-104
7455,80,-2072,136,25,392,-104
7460,80,-2136,152,35,391,-98
7465,80,-2136,152,56,388,-99
7470,48,-2152,184,81,382,-100
7475,24,-2160,200,110,381,-101
7480,0,-2160,176,133,385,-95
7485,24,-2184,224,158,401,-95
7490,16,-2192,232,186,426,-91
7495,-8,-2216,256,217,455,-91
7500,16,-2216,312,255,488,-87
7505,48,-2208,272,301,524,-84
7510,32,-2200,320,344,566,-81
7515,32,-2224,312,376,608,-81
7520,8,-2184,328,396,647,-81
7525,16,-2200,288,401,671,-82
7530,-8,-2176,304,393,689,-77
7535,24,-2168,264,383,700,-69
7540,24,-2200,264,378,708,-57
7545,0,-2208,208,377,715,-54
7550,16,-2184,216,382,718,-52
7555,-8,-2184,160,391,719,-50
7560,-32,-2168,152,401,713,-49
7565,-72,-2184,120,409,703,-52
7570,-96,-2160,80,418,688,-59
7575,-112,-2144,96,430,667,-68
7580,-176,-2144,80,450,649,-79
7585,-192,-2176,80,472,632,-90
7590,-248,-2168,72,494,612,-102
7595,-288,-2160,40,511,582,-118
7600,-352,-2128,-8,519,547,-133
7605,-408,-2120,-56,516,503,-141
7610,-496,-2040,-72,509,454,-145
7615,-528,-2016,-144,502,400,-142
7620,-568,-1944,-264,488,344,-143
7625,-624,-1856,-368,457,280,-139
7630,-656,-1776,-456,419,224,-131
7635,-672,-1736,-616,375,175,-117
7640,-672,-1680,-744,324,129,-96
7645,-608,-1640,-936,270,90,-65
7650,-544,-1608,-1016,208,59,-35
7655,-400,-1584,-1168,127,35,-17
7660,-296,-1544,-1296,23,22,-9
7665,-104,-1560,-1392,-88,19,21
7670,64,-1552,-1472,-192,8,41
7675,192,-1584,-1520,-293,-28,35
7680,352,-1632,-1464,-400,-73,44
7685,480,-1808,-1400,-465,-126,96
7690,576,-1976,-1312,-496,-200,167
7695,536,-2128,-1176,-506,-279,213
7700,456,-2336,-1048,-503,-351,248
7705,416,-2528,-960,-483,-411,279
7710,320,-2632,-912,-447,-463,282
7715,264,-2688,-904,-430,-510,266
7720,144,-2824,-824,-422,-538,235
7725,80,-2872,-824,-389,-568,189
7730,16,-2944,-824,-328,-578,146
7735,-24,-2936,-768,-270,-570,90
7740,8,-2944,-856,-219,-544,27
7745,56,-2912,-872,-177,-502,-39
7750,96,-2888,-840,-137,-446,-111
7755,120,-2824,-792,-90,-391,-177
7760,168,-2776,-720,-35,-344,-232
7765,232,-2680,-712,22,-308,-263
7770,312,-2632,-624,75,-277,-283
7775,360,-2576,-576,117,-242,-309
7780,392,-2448,-544,134,-204,-332
7785,392,-2312,-488,116,-178,-352
7790,392,-2272,-440,78,-146,-362
7795,368,-2216,-400,34,-103,-360
7800,296,-2152,-336,-16,-50,-349
7805,288,-2096,-280,-66,1,-332
7810,216,-2096,-224,-114,39,-317
7815,208,-2152,-184,-139,60,-293
7820,184,-2160,-192,-140,70,-269
7825,168,-2120,-208,-131,69,-250
7830,96,-2104,-200,-131,58,-252
7835,64,-2064,-248,-136,39,-252
7840,8,-2032,-216,-119,24,-236
7845,0,-2000,-232,-102,-6,-221
7850,-16,-1960,-200,-102,-53,-224
7855,-64,-1912,-272,-109,-99,-233
7860,-96,-1880,-232,-125,-147,-245
7865,-96,-1824,-200,-141,-196,-250
7870,-48,-1824,-216,-162,-237,-262
7875,0,-1800,-272,-160,-197,-341
7880,-240,-1696,-224,-184,-161,-378
7885,-240,-1720,-216,-244,-213,-326
7890,-144,-1744,-208,-264,-286,-278
7895,80,-1768,-224,-251,-327,-248
7900,0,-1720,-216,-230,-322,-264
7905,-16,-1728,-208,-226,-322,-256
7910,-16,-1728,-208,-231,-343,-224
7915,80,-1760,-200,-229,-371,-195
7920,72,-1696,-224,-216,-388,-196
7925,160,-1728,-176,-204,-395,-185
7930,168,-1648,-200,-194,-402,-181
7935,232,-1672,-232,-200,-407,-162
7940,264,-1640,-208,-213,-407,-149
7945,272,-1656,-192,-221,-406,-135
7950,288,-1648,-224,-223,-404,-128
7955,280,-1688,-168,-221,-407,-114
7960,304,-1640,-192,-209,-414,-102
7965,280,-1640,-184,-206,-418,-89
7970,280,-1664,-152,-210,-416,-79
7975,272,-1648,-152,-211,-413,-68
7980,256,-1640,-128,-212,-408,-60
7985,232,-1656,-144,-211,-401,-47
7990,240,-1664,-88,-210,-395,-37
7995,216,-1656,-128,-202,-383,-23
8000,216,-1656,-112,-193,-374,-12
8005,208,-1672,-88,-185,-363,4
8010,216,-1720,-80,-174,-355,14
8015,216,-1728,-96,-163,-349,32
8020,240,-1768,-80,-152,-347,43
8025,216,-1792,-72,-144,-346,62
8030,200,-1800,-32,-134,-348,75
8035,208,-1808,-48,-123,-349,97
8040,208,-1856,16,-105,-349,112
8045,200,-1872,16,-88,-348,132
8050,176,-1864,32,-69,-349,145
8055,160,-1856,72,-49,-352,163
8060,152,-1848,56,-30,-356,177
8065,176,-1872,72,-7,-361,199
8070,136,-1848,104,19,-366,215
8075,144,-1840,112,45,-376,237
8080,136,-1832,96,69,-385,256
8085,152,-1832,104,84,-401,278
8090,144,-1816,96,91,-416,290
8095,144,-1808,96,86,-433,305
8100,144,-1816,88,66,-459,308
8105,120,-1848,80,39,-491,317
8110,112,-1896,120,8,-531,325
8115,72,-1920,128,-22,-573,336
8120,32,-1984,88,-43,-616,346
8125,24,-2048,80,-60,-649,360
8130,16,-2080,64,-71,-672,366
8135,-32,-2112,64,-71,-690,373
8140,-24,-2200,72,-54,-709,364
8145,-24,-2248,64,-27,-725,354
8150,-24,-2248,80,0,-733,333
8155,24,-2272,64,18,-737,323
8160,48,-2288,72,34,-729,306
8165,80,-2288,80,48,-721,289
8170,136,-2288,88,66,-710,271
8175,184,-2288,104,81,-691,254
8180,176,-2248,144,90,-672,233
8185,240,-2240,152,105,-655,214
8190,280,-2208,168,118,-634,190
8195,304,-2168,224,129,-620,177
8200,344,-2152,232,139,-609,162
8205,384,-2112,208,144,-592,149
8210,400,-2152,192,142,-576,135
8215,448,-2160,200,137,-564,126
8220,464,-2184,160,127,-553,115
8225,480,-2224,184,112,-548,110
8230,528,-2280,184,102,-539,101
8235,512,-2304,152,100,-524,86
8240,456,-2336,176,101,-493,69
8245,432,-2296,120,108,-459,59
8250,416,-2264,96,116,-418,53
8255,408,-2288,112,126,-371,45
8260,384,-2280,72,143,-319,32
8265,400,-2256,40,162,-263,17
8270,392,-2208,48,179,-211,1
8275,384,-2152,-48,183,-161,-9
8280,352,-2160,-128,186,-114,-19
8285,304,-2128,-208,183,-69,-27
8290,232,-2128,-240,176,-29,-34
8295,160,-2144,-312,157,15,-33
8300,128,-2160,-368,135,44,-31
8305,112,-2184,-424,107,67,-22
8310,120,-2192,-496,78,90,-16
8315,104,-2192,-600,48,118,-13
8320,112,-2184,-736,11,150,-13
8325,112,-2168,-832,-38,186,-13
8330,160,-2192,-928,-96,223,-18
8335,176,-2224,-1056,-162,259,-27
8340,200,-2264,-1104,-227,285,-44
8345,184,-2360,-1168,-287,311,-62
8350,144,-2400,-1280,-345,326,-81
8355,96,-2440,-1296,-390,337,-105
8360,-16,-2440,-1392,-429,345,-133
8365,-88,-2424,-1464,-454,356,-164
8370,-216,-2376,-1472,-467,371,-188
8375,-328,-2360,-1480,-468,393,-206
8380,-504,-2320,-1440,-461,421,-211
8385,-608,-2328,-1336,-450,453,-214
8390,-768,-2376,-1232,-425,485,-209
8395,-800,-2456,-1096,-395,516,-198
8400,-880,-2504,-952,-339,533,-171
8405,-824,-2552,-840,-283,541,-139
8410,-776,-2584,-832,-230,541,-105
8415,-688,-2592,-768,-192,534,-65
8420,-592,-2576,-752,-167,525,-28
8425,-472,-2536,-736,-156,514,12
8430,-344,-2488,-696,-159,504,61
8435,-224,-2464,-648,-173,492,109
8440,-104,-2424,-664,-175,482,146
8445,-72,-2336,-600,-177,477,173
8450,0,-2288,-592,-182,473,198
8455,40,-2248,-536,-183,466,223
8460,0,-2144,-552,-178,455,246
8465,8,-2096,-576,-177,433,260
8470,-8,-2008,-608,-185,415,284
8475,-8,-1944,-624,-193,398,300
8480,-56,-1880,-616,-197,386,313
8485,-56,-1840,-632,-198,384,318
8490,-88,-1792,-616,-202,390,325
8495,-88,-1736,-584,-208,400,329
8500,-88,-1736,-584,-209,414,325
8505,-104,-1688,-536,-199,423,312
8510,-16,-1696,-552,-172,437,318
8515,-72,-1624,-520,-132,478,335
8520,-56,-1640,-488,-98,518,354
8525,-48,-1552,-544,-78,537,341
8530,-24,-1544,-504,-91,543,321
8535,-88,-1528,-488,-130,559,313
8540,-112,-1520,-472,-167,572,317
8545,-96,-1536,-440,-186,591,335
8550,-120,-1488,-448,-194,608,345
8555,-168,-1536,-424,-203,625,359
8560,-200,-1544,-448,-207,640,376
8565,-240,-1528,-448,-212,641,368
8570,-256,-1568,-384,-221,631,360
8575,-256,-1584,-432,-228,613,351
8580,-240,-1616,-400,-227,593,357
8585,-288,-1608,-416,-224,562,354
8590,-320,-1640,-400,-229,529,357
8595,-352,-1656,-416,-244,489,348
8600,-328,-1728,-424,-258,449,343
8605,-360,-1736,-408,-268,403,330
8610,-368,-1760,-408,-270,374,331
8615,-344,-1816,-392,-268,353,328
8620,-328,-1864,-400,-266,341,328
8625,-296,-1904,-376,-261,339,314
8630,-264,-1984,-368,-254,344,301
8635,-264,-2032,-344,-242,354,287
8640,-256,-2048,-320,-219,370,279
8645,-240,-2048,-336,-194,390,262
8650,-232,-2048,-288,-171,409,241
8655,-240,-2040,-312,-148,428,220
8660,-248,-2032,-304,-136,444,205
8665,-248,-2008,-336,-129,456,186
8670,-296,-2104,-280,-119,463,175
8675,-312,-2024,-328,-108,465,161
8680,-272,-1872,-216,-99,463,152
8685,-264,-1968,-304,-95,456,140
8690,-312,-1832,-248,-92,441,135
8695,-280,-1952,-296,-92,422,123
8700,-272,-1888,-320,-95,401,112
8705,-232,-1880,-288,-106,376,97
8710,-272,-1904,-304,-115,356,89
8715,-248,-1912,-312,-118,338,79
8720,-264,-1944,-288,-120,320,75
8725,-224,-1936,-288,-117,298,69
8730,-240,-1920,-264,-111,277,69
8735,-272,-1952,-224,-103,258,63
8740,-240,-1944,-240,-84,237,64
8745,-264,-1928,-224,-67,223,60
8750,-256,-1936,-248,-49,212,56
8755,-232,-1920,-256,-24,198,45
8760,-216,-1896,-272,-3,201,41
8765,-216,-1904,-264,-4,213,32
8770,-208,-1912,-264,-16,228,22
8775,-184,-1904,-224,-33,245,4
8780,-160,-1952,-240,-51,264,-9
8785,-120,-1944,-248,-70,288,-27
8790,-136,-1976,-264,-88,317,-43
8795,-128,-2024,-240,-98,344,-66
8800,-128,-2016,-256,-103,370,-81
8805,-96,-2072,-248,-106,400,-101
8810,-112,-2088,-200,-99,429,-112
8815,-96,-2104,-232,-81,458,-125
8820,-128,-2120,-208,-43,486,-131
8825,-120,-2144,-136,11,512,-138
8830,-176,-2144,-104,77,529,-135
8835,-224,-2136,-72,149,543,-135
8840,-232,-2136,-56,212,552,-126
8845,-288,-2080,-48,257,553,-119
8850,-312,-2088,-8,286,550,-109
8855,-368,-2088,24,296,539,-101
8860,-368,-2088,56,297,516,-89
8865,-408,-2080,88,289,489,-82
8870,-432,-2088,88,272,459,-71
8875,-464,-2120,88,244,426,-67
8880,-480,-2152,120,207,392,-62
8885,-488,-2184,136,169,363,-64
8890,-480,-2224,88,132,334,-67
8895,-480,-2312,104,100,306,-78
8900,-440,-2368,104,72,275,-84
8905,-456,-2456,64,45,244,-96
8910,-448,-2512,8,9,210,-101
8915,-456,-2592,0,-27,184,-110
8920,-440,-2672,-72,-66,169,-106
8925,-480,-2736,-144,-101,163,-101
8930,-480,-2824,-192,-135,168,-83
8935,-448,-2912,-264,-164,170,-60
8940,-408,-2992,-312,-185,175,-20
8945,-320,-3056,-368,-186,175,17
8950,-200,-3048,-448,-161,172,51
8955,-128,-2952,-504,-120,164,72
8960,-64,-2872,-536,-70,156,81
8965,40,-2760,-600,-10,154,62
8970,136,-2664,-608,45,161,30
8975,184,-2560,-592,103,178,-12
8980,240,-2432,-624,166,207,-50
8985,280,-2304,-640,229,249,-93
8990,304,-2184,-680,284,304,-131
8995,320,-2104,-720,318,372,-175
9000,264,-2040,-736,333,451,-217
9005,240,-1928,-776,325,538,-256
9010,192,-1848,-848,298,643,-297
9015,152,-1784,-864,242,724,-329
9020,88,-1688,-928,181,795,-345
9025,56,-1632,-1000,119,857,-356
9030,8,-1584,-1016,64,903,-355
9035,-8,-1552,-1096,20,943,-349
9040,-32,-1504,-1152,-17,975,-335
9045,-72,-1432,-1240,-56,996,-325
9050,-88,-1400,-1296,-99,1000,-317
9055,-136,-1352,-1320,-136,979,-304
9060,-144,-1312,-1384,-158,908,-282
9065,-144,-1304,-1424,-196,827,-267
9070,-80,-1328,-1424,-249,740,-250
9075,-40,-1384,-1440,-319,654,-233
9080,40,-1432,-1448,-391,565,-206
9085,136,-1520,-1416,-470,478,-178
9090,200,-1648,-1360,-549,396,-150
9095,248,-1808,-1248,-603,317,-126
9100,344,-1992,-1168,-615,232,-113
9105,328,-2080,-1040,-582,149,-97
9110,336,-2144,-984,-513,75,-78
9115,320,-2160,-960,-406,-2,-63
9120,320,-2144,-920,-317,-57,-58
9125,320,-2096,-896,-246,-103,-71
9130,288,-2048,-912,-199,-134,-91
9135,176,-1992,-936,-178,-144,-122
9140,128,-1920,-968,-195,-148,-138
9145,72,-1864,-968,-247,-148,-144
9150,72,-1832,-976,-314,-141,-150
9155,8,-1808,-984,-379,-129,-151
9160,32,-1840,-992,-440,-118,-149
9165,64,-1928,-1016,-496,-71,-148
9170,96,-2056,-1000,-510,-1,-132
9175,96,-2072,-1008,-481,58,-134
9180,160,-2112,-952,-449,120,-149
9185,248,-2232,-912,-410,195,-166
9190,288,-2240,-848,-345,261,-167
9195,328,-2248,-816,-266,296,-158
9200,360,-2256,-792,-188,309,-155
9205,320,-2192,-760,-122,310,-153
9210,336,-2136,-744,-92,286,-152
9215,336,-2080,-712,-87,255,-149
9220,272,-2016,-712,-100,231,-150
9225,256,-1976,-632,-122,211,-150
9230,208,-1952,-624,-146,189,-147
9235,152,-1944,-608,-168,160,-138
9240,112,-1936,-568,-182,128,-136
9245,80,-1952,-576,-179,99,-144
9250,56,-1936,-568,-169,79,-152
9255,16,-1960,-552,-154,66,-160
9260,-24,-1968,-536,-135,58,-175
9265,-48,-1976,-520,-112,57,-190
9270,-48,-1968,-528,-69,57,-203
9275,-48,-1968,-528,-30,61,-213
9280,-16,-1968,-504,5,62,-230
9285,-16,-1968,-520,36,61,-247
9290,-24,-1952,-480,59,55,-266
9295,24,-1944,-456,76,45,-273
9300,16,-1904,-424,85,29,-288
9305,40,-1888,-416,95,11,-299
9310,56,-1864,-376,103,-7,-304
9315,64,-1848,-368,111,-25,-304
9320,80,-1808,-376,112,-59,-298
9325,64,-1760,-312,111,-104,-282
9330,88,-1752,-336,112,-152,-267
9335,40,-1720,-352,111,-208,-243
9340,64,-1720,-328,117,-264,-219
9345,80,-1760,-352,130,-320,-191
9350,80,-1768,-288,148,-367,-167
9355,96,-1800,-336,170,-405,-137
9360,96,-1792,-320,198,-436,-113
9365,104,-1832,-296,233,-458,-80
9370,104,-1848,-296,280,-478,-55
9375,96,-1872,-312,318,-490,-37
9380,96,-1896,-328,356,-498,-23
9385,88,-1936,-320,390,-505,-6
9390,72,-1936,-288,427,-514,10
9395,48,-1984,-304,462,-523,32
9400,32,-2048,-296,494,-538,54
9405,8,-2032,-256,529,-554,84
9410,-48,-2048,-264,559,-576,112
9415,-40,-2080,-208,594,-603,145
9420,-64,-2112,-176,643,-642,173
9425,-88,-2096,-152,692,-678,201
9430,-88,-2088,-112,748,-716,222
9435,-64,-2112,-96,804,-752,248
9440,-80,-2128,-96,875,-782,264
9445,-64,-2136,-32,949,-809,284
9450,-32,-2104,-48,1028,-832,299
9455,-24,-2104,-8,1097,-853,321
9460,-8,-2080,32,1166,-874,335
9465,8,-2080,24,1229,-896,356
9470,-8,-2032,-8,1281,-905,374
9475,0,-2000,-32,1333,-903,391
9480,8,-1928,-80,1368,-895,407
9485,32,-1888,-152,1403,-880,427
9490,48,-1784,-232,1439,-856,444
9495,80,-1640,-320,1472,-838,471
9500,128,-1544,-432,1500,-825,498
9505,168,-1448,-504,1507,-818,534
9510,192,-1312,-664,1512,-808,556
9515,288,-1224,-880,1487,-798,582
9520,328,-1144,-984,1434,-787,585
9525,368,-1056,-1096,1354,-777,575
9530,408,-1000,-1216,1271,-770,547
9535,408,-912,-1272,1172,-766,509
9540,376,-872,-1256,1067,-763,464
9545,312,-856,-1272,971,-761,422
9550,224,-800,-1208,885,-763,373
9555,128,-824,-1192,806,-768,335
9560,-8,-840,-1056,763,-771,267
9565,-136,-848,-992,755,-770,185
9570,-248,-816,-960,761,-759,89
9575,-272,-872,-848,764,-736,37
9580,-296,-936,-704,771,-694,2
9585,-352,-968,-672,791,-625,-4
9590,-320,-1080,-584,827,-532,19
9595,-328,-1264,-576,870,-417,67
9600,-264,-1496,-568,907,-270,109
9605,-304,-1688,-512,929,-85,144
9610,-256,-1912,-576,942,106,191
9615,-120,-2152,-688,930,287,260
9620,-32,-2384,-776,868,455,325
9625,24,-2552,-832,764,611,356
9630,240,-2808,-920,695,671,368
9635,376,-3064,-968,688,704,333
9640,392,-3256,-1008,711,723,288
9645,376,-3432,-936,733,759,285
9650,416,-3488,-712,754,801,312
9655,768,-3736,-960,785,888,331
9660,712,-3824,-936,801,1097,253
9665,552,-3872,-896,813,1358,235
9670,448,-3928,-872,861,1596,302
9675,272,-3920,-872,993,1822,400
9680,216,-3896,-944,1127,1933,530
9685,304,-3720,-1144,1233,2042,607
9690,328,-3456,-1256,1266,2174,606
9695,320,-3072,-1288,1265,2295,589
9700,344,-2744,-1192,1259,2410,557
9705,400,-2264,-1088,1208,2515,550
9710,416,-1904,-952,1103,2601,567
9715,408,-1672,-768,982,2667,600
9720,408,-1512,-648,882,2719,641
9725,328,-1408,-592,816,2775,693
9730,280,-1288,-552,745,2819,725
9735,200,-1200,-560,678,2865,754
9740,136,-1184,-560,605,2912,767
9745,72,-1200,-536,530,2958,758
9750,32,-1264,-480,468,3005,736
9755,-16,-1376,-424,428,3056,708
9760,32,-1440,-312,403,3133,671
9765,128,-1384,-248,403,3240,646
9770,192,-1368,-80,428,3374,646
9775,216,-1344,16,483,3478,628
9780,240,-1352,72,579,3495,600
9785,352,-1224,96,721,3493,596
9790,320,-1080,144,855,3492,568
9795,256,-952,344,937,3504,525
9800,192,-792,504,1026,3484,507
9805,16,-584,552,1158,3398,501
9810,-248,-288,536,1282,3261,510
9815,-584,16,448,1348,3073,538
9820,-800,256,408,1321,2876,580
9825,-1112,576,272,1204,2660,628
9830,-1464,880,120,992,2522,664
9835,-1704,1096,40,816,2435,701
9840,-1808,1224,-104,669,2392,739
9845,-1856,1240,-296,555,2351,768
9850,-1792,1160,-576,451,2280,771
9855,-1736,992,-840,327,2168,754
9860,-1704,608,-1224,165,2026,723
9865,-1648,144,-1496,-34,1887,690
9870,-1544,-448,-1744,-207,1762,659
9875,-1456,-1008,-1640,-302,1611,640
9880,-1400,-1608,-1320,-318,1443,669
9885,-1288,-2224,-616,-212,1181,722
9890,-1080,-2744,-96,21,850,781
9895,-1072,-3104,360,352,519,846
9900,-960,-3416,648,786,228,924
9905,-784,-3496,584,1273,58,984
9910,-696,-3120,368,1688,87,1034
9915,-648,-2608,344,1907,282,1118
9920,-600,-2240,424,1940,516,1227
9925,-528,-1896,432,1839,661,1339
9930,-344,-1680,224,1547,627,1424
9935,-96,-1608,64,1228,457,1487
9940,232,-1640,-176,950,239,1507
9945,472,-1768,-360,795,50,1497
9950,520,-1904,-488,795,-47,1474
9955,560,-2064,-512,916,-34,1438
9960,520,-2136,-576,1070,59,1376
9965,448,-2216,-448,1191,190,1299
9970,432,-2336,-312,1274,329,1233
9975,456,-2352,-264,1326,469,1157
9980,512,-2296,-248,1375,646,1101
9985,512,-2088,-216,1409,787,1074
9990,584,-1712,-168,1428,923,1090
9995,568,-1240,-144,1418,1043,1137
10000,536,-776,-240,1383,1128,1203
10005,488,-368,-352,1356,1174,1277
10010,432,-88,-400,1378,1194,1364
10015,288,224,-392,1457,1207,1457
10020,160,488,-352,1573,1219,1565
10025,0,728,-280,1701,1229,1703
10030,-88,888,-232,1858,1225,1792
10035,-144,1024,-216,1958,1223,1843
10040,-200,1168,-256,2015,1223,1851
10045,-152,1216,-264,2003,1228,1826
10050,-152,1192,-320,1936,1232,1784
10055,-128,1064,-400,1840,1235,1737
10060,-64,792,-384,1751,1227,1699
10065,-16,480,-304,1692,1194,1663
10070,-32,200,-256,1655,1150,1641
10075,-56,-16,-192,1637,1086,1636
10080,-80,-136,-240,1664,993,1645
10085,-144,-216,-232,1720,927,1656
10090,-200,-176,-168,1762,907,1664
10095,-296,-80,-136,1791,937,1667
10100,-328,-32,-16,1816,990,1679
10105,-368,24,56,1857,1033,1675
10110,-328,136,152,1907,1055,1660
10115,-328,272,168,1953,1045,1623
10120,-264,472,88,1957,1010,1593
10125,-248,592,88,1895,968,1570
10130,-264,672,40,1779,925,1560
10135,-288,744,48,1612,880,1560
10140,-384,712,64,1462,820,1567
10145,-448,648,-24,1310,734,1570
10150,-528,576,-104,1152,625,1564
10155,-640,456,-296,1014,501,1536
10160,-1040,184,-392,938,359,1505
10165,-1664,-144,-272,919,185,1503
10170,-2200,-704,40,897,-40,1539
10175,-3112,-1344,424,915,-341,1567
10180,-3504,-1928,872,935,-667,1595
10185,-4040,-2448,1512,949,-1043,1553
10190,-5248,-2704,1624,909,-1336,1476
10195,-6840,-3256,1784,751,-1556,1435
10200,-7888,-3560,2624,693,-1718,1495
10205,-7784,-3600,3136,919,-1896,1708
10210,-8216,-3592,3664,1393,-2063,2028
10215,-8832,-3032,3776,1946,-2339,2480
10220,-9560,-2880,3696,2333,-2531,2962
10225,-10440,-3224,4984,2627,-2572,3462
10230,-11456,-4008,6896,3010,-2668,4092
10235,-11216,-4704,7880,3404,-3044,4486
10240,-10016,-5864,8256,3401,-3478,4596
10245,-9152,-6208,7136,3236,-3866,4363
10250,-7296,-5536,4280,3069,-3843,4088
10255,-4768,-4832,2920,2893,-3151,3851
10260,-3056,-3472,2896,2911,-2424,3627
10265,-2256,-1984,1952,3125,-2193,3499
10270,-1656,-664,80,3310,-2092,3427
10275,-1576,360,-536,3250,-1615,3263
10280,-1752,1552,0,3141,-1030,3089
10285,-2248,2416,456,3029,-580,2914
10290,-2872,3424,848,2706,-474,2661
10295,-3208,3920,1048,2112,-520,2383
10300,-3192,3536,1152,1304,-683,2068
10305,-3512,2640,1504,520,-782,1706
10310,-3864,1864,1984,-173,-890,1370
10315,-4184,1288,2568,-628,-960,1179
10320,-4080,784,2336,-689,-945,1208
10325,-3656,352,1880,-517,-815,1397
10330,-3008,-184,1712,-373,-631,1574
10335,-2384,-680,1736,-334,-564,1686
10340,-1648,-1320,1520,-291,-596,1746
10345,-1232,-1744,1576,-233,-666,1733
10350,-800,-1968,1688,-126,-844,1740
10355,-288,-2240,1360,93,-1072,1796
10360,-80,-2376,1184,391,-1202,1815
10365,24,-2256,1040,686,-1222,1746
10370,-72,-2064,1128,941,-1214,1617
10375,-456,-1592,1432,1194,-1277,1448
10380,-1048,-928,1568,1411,-1466,1281
10385,-1256,-352,1472,1566,-1738,1041
10390,-1376,192,1280,1653,-1915,784
10395,-1400,744,1056,1684,-1927,517
10400,-1504,1160,904,1736,-1869,320
10405,-1600,1704,800,1840,-1813,217
10410,-1584,2096,600,1934,-1792,165
10415,-1584,2312,568,1936,-1824,108
10420,-1528,2432,584,1825,-1941,21
10425,-1608,2432,688,1621,-2122,-104
10430,-1696,2304,784,1396,-2299,-228
10435,-1768,2024,888,1197,-2443,-354
10440,-1784,1792,944,1030,-2557,-440
10445,-1784,1448,912,933,-2625,-531
10450,-1632,976,824,827,-2647,-595
10455,-1528,672,792,724,-2650,-713
10460,-1256,544,608,615,-2653,-843
10465,-1096,416,632,497,-2632,-908
10470,-888,272,744,421,-2615,-899
10475,-744,288,744,407,-2629,-830
10480,-768,448,784,454,-2656,-717
10485,-920,624,824,552,-2718,-627
10490,-912,912,528,679,-2841,-508
10495,-632,1200,304,829,-2913,-426
10500,-440,1576,72,930,-2925,-395
10505,-216,1976,32,966,-2905,-409
10510,0,2320,72,922,-2889,-440
10515,152,2504,184,805,-2873,-477
10520,352,2744,344,637,-2876,-523
10525,544,2840,528,430,-2862,-572
10530,728,2824,736,229,-2799,-609
10535,1024,2712,968,67,-2687,-649
10540,1280,2648,1056,-57,-2492,-680
10545,1488,2584,1144,-161,-2279,-686
10550,1568,2448,1288,-214,-2046,-677
10555,1656,2392,1360,-217,-1850,-661
10560,1824,2344,1224,-234,-1654,-621
10565,1920,2192,1288,-332,-1400,-573
10570,1936,1944,1384,-463,-1155,-515
10575,1920,1528,1384,-554,-955,-457
10580,1792,1112,1264,-557,-789,-387
10585,1664,816,1152,-471,-653,-343
10590,1336,680,1056,-365,-526,-346
10595,1064,776,992,-293,-420,-373
10600,816,960,936,-313,-366,-403
10605,672,1136,1040,-411,-339,-427
10610,552,1312,1096,-540,-330,-448
10615,424,1440,1240,-672,-325,-474
10620,320,1528,1408,-798,-302,-492
10625,256,1552,1480,-902,-232,-512
10630,208,1536,1592,-993,-122,-532
10635,216,1536,1608,-1083,-4,-553
10640,224,1448,1656,-1173,94,-582
10645,264,1352,1736,-1284,172,-606
10650,312,1240,1912,-1381,201,-623
10655,352,1168,2088,-1483,171,-644
10660,400,1048,2256,-1599,109,-672
10665,480,896,2320,-1703,39,-697
10670,528,704,2224,-1742,-3,-702
10675,560,536,2200,-1695,15,-688
10680,480,384,2064,-1569,93,-663
10685,344,320,1944,-1409,205,-629
10690,176,272,1912,-1269,321,-586
10695,-8,272,1944,-1161,454,-527
10700,-136,240,2024,-1057,572,-474
10705,-248,344,2224,-992,676,-433
10710,-344,384,2304,-942,757,-392
10715,-344,408,2448,-891,816,-351
10720,-376,392,2600,-849,868,-340
10725,-392,376,2624,-816,918,-331
10730,-384,352,2688,-781,963,-326
10735,-472,368,2696,-742,1000,-315
10740,-560,360,2792,-715,1016,-296
10745,-600,344,2752,-696,983,-266
10750,-496,216,2840,-664,957,-220
10755,-736,160,2688,-595,917,-187
10760,-720,176,2528,-546,874,-211
10765,-768,112,2472,-557,882,-225
10770,-728,136,2496,-546,924,-237
10775,-592,160,2440,-519,996,-237
10780,-720,112,2448,-471,1094,-259
10785,-648,88,2448,-406,1145,-256
10790,-720,88,2448,-364,1159,-264
10795,-864,-24,2552,-340,1131,-271
10800,-912,-216,2520,-221,1020,-277
10805,-800,-328,2440,-50,937,-260
10810,-496,-256,2080,130,919,-229
10815,-320,-88,1760,251,978,-225
10820,-432,240,1472,311,1014,-256
10825,-656,528,1320,332,942,-262
10830,-872,688,1184,364,822,-226
10835,-1144,768,1048,398,679,-161
10840,-1232,640,960,370,536,-161
10845,-1152,464,1048,270,408,-210
10850,-1136,320,1160,124,302,-285
10855,-1080,160,1336,85,223,-310
10860,-944,120,1392,132,162,-302
10865,-952,64,1560,202,147,-272
10870,-936,8,1552,301,127,-240
10875,-936,-24,1520,395,106,-192
10880,-896,-64,1512,470,89,-159
10885,-896,-160,1504,529,85,-135
10890,-880,-160,1544,579,66,-124
10895,-816,-176,1584,612,42,-120
10900,-824,-176,1640,638,-3,-129
10905,-840,-128,1648,632,-52,-137
10910,-848,-48,1680,595,-95,-146
10915,-816,-96,1760,550,-121,-141
10920,-816,-48,1720,536,-134,-146
10925,-824,16,1680,514,-135,-135
10930,-800,112,1640,468,-120,-120
10935,-832,80,1672,416,-107,-110
10940,-832,112,1688,383,-102,-98
10945,-824,88,1696,352,-96,-79
10950,-824,96,1752,313,-93,-76
10955,-840,64,1752,265,-93,-76
10960,-856,72,1696,223,-96,-84
10965,-840,64,1696,173,-93,-92
10970,-864,88,1728,117,-80,-110
10975,-856,120,1672,57,-61,-123
10980,-848,88,1688,0,-39,-143
10985,-848,88,1640,-48,-15,-153
10990,-864,120,1608,-90,15,-167
10995,-848,120,1624,-133,49,-171
11000,-872,112,1640,-175,83,-175
11005,-880,72,1640,-221,118,-164
11010,-888,48,1640,-241,148,-151
11015,-928,40,1640,-252,181,-131
11020,-904,16,1640,-256,217,-116
11025,-928,32,1664,-251,248,-90
11030,-960,64,1648,-236,272,-63
11035,-968,96,1656,-225,282,-27
11040,-1024,112,1664,-215,278,9
11045,-1056,152,1712,-208,264,44
11050,-1096,136,1712,-199,239,69
11055,-1112,168,1752,-184,202,95
11060,-1120,184,1776,-176,169,111
11065,-1136,184,1784,-168,132,133
11070,-1120,240,1808,-167,91,144
11075,-1104,240,1792,-188,56,162
11080,-1128,248,1856,-225,31,180
11085,-1088,224,1848,-251,7,202
11090,-1064,136,1920,-230,-37,196
11095,-1048,152,1864,-176,-93,184
11100,-1016,128,1816,-132,-125,176
11105,-976,136,1760,-106,-137,176
11110,-968,128,1760,-92,-132,169
11115,-896,168,1720,-80,-123,166
11120,-888,176,1688,-70,-108,154
11125,-784,176,1696,-60,-94,145
11130,-744,208,1688,-50,-83,129
11135,-656,192,1704,-44,-72,119
11140,-640,208,1720,-43,-65,104
11145,-568,272,1736,-44,-64,95
11150,-568,240,1752,-55,-59,84
11155,-552,272,1768,-65,-59,74
11160,-512,296,1784,-73,-57,68
11165,-488,328,1824,-81,-55,67
11170,-472,336,1808,-89,-53,63
11175,-472,344,1840,-95,-51,68
11180,-440,360,1840,-108,-47,70
11185,-448,352,1816,-122,-42,75
11190,-440,368,1824,-136,-32,75
11195,-424,384,1856,-150,-16,75
11200,-376,376,1864,-166,2,70
11205,-408,360,1880,-190,23,69
11210,-376,344,1920,-212,32,63
11215,-408,336,1968,-219,39,60
11220,-416,344,1952,-209,44,54
11225,-400,352,1952,-193,50,54
11230,-408,360,1928,-178,59,52
11235,-424,336,1960,-169,67,57
11240,-440,336,1976,-162,76,59
11245,-440,368,1968,-151,82,65
11250,-472,384,1944,-140,84,66
11255,-528,416,1928,-132,85,72
11260,-544,440,1936,-127,80,73
11265,-576,440,1912,-129,77,82
11270,-600,464,1904,-137,73,87
11275,-592,440,1888,-146,71,92
11280,-608,432,1832,-149,68,92
11285,-624,448,1832,-147,62,94
11290,-600,456,1840,-146,61,87
11295,-600,432,1824,-143,61,83
11300,-608,432,1776,-133,59,75
11305,-584,424,1760,-122,63,68
11310,-592,424,1768,-117,66,56
11315,-608,424,1760,-115,64,46
11320,-592,392,1752,-115,62,34
11325,-584,392,1744,-121,58,28
11330,-576,416,1736,-126,54,19
11335,-576,368,1736,-134,51,14
11340,-592,352,1728,-143,48,6
11345,-608,392,1728,-144,48,0
11350,-616,352,1720,-153,47,-9
11355,-624,360,1752,-166,45,-14
11360,-632,344,1744,-183,41,-18
11365,-656,352,1736,-202,44,-18
11370,-640,384,1704,-227,53,-21
11375,-688,336,1784,-271,76,-22
11380,-704,264,1808,-295,83,-30
11385,-712,240,1872,-277,57,-36
11390,-704,192,1864,-242,23,-41
11395,-712,160,1872,-207,-2,-46
11400,-704,208,1832,-181,-15,-49
11405,-744,200,1792,-173,-14,-51
11410,-728,184,1816,-174,-2,-46
11415,-720,152,1824,-172,6,-40
11420,-720,192,1792,-168,12,-37
11425,-696,192,1752,-170,16,-36
11430,-720,168,1768,-196,30,-34
11435,-728,120,1816,-211,37,-31
11440,-728,112,1800,-199,26,-33
11445,-720,104,1768,-186,17,-34
11450,-720,88,1808,-181,15,-26
11455,-736,104,1816,-171,8,-24
11460,-728,152,1800,-166,3,-24
11465,-728,112,1784,-180,10,-21
11470,-744,120,1832,-189,13,-24
11475,-736,104,1832,-187,16,-21
11480,-768,96,1856,-174,11,-18
11485,-736,80,1832,-160,6,-13
11490,-720,72,1824,-154,4,-10
11495,-728,56,1816,-150,0,-14
11500,-696,16,1832,-144,-8,-13
11505,-696,24,1840,-130,-14,-11
11510,-688,40,1824,-113,-17,-5
11515,-688,40,1816,-104,-15,-1
11520,-680,56,1784,-101,-8,3
11525,-680,72,1800,-95,-2,9
11530,-656,88,1784,-88,3,16
11535,-648,96,1752,-81,14,20
11540,-632,104,1776,-76,27,23
11545,-616,112,1800,-78,42,24
11550,-616,128,1816,-83,54,23
11555,-608,112,1840,-86,62,18
11560,-592,104,1832,-83,64,19
11565,-584,112,1832,-79,69,16
11570,-560,120,1824,-76,77,17
11575,-608,104,1832,-77,90,11
11580,-592,104,1832,-60,96,10
11585,-576,120,1824,-41,102,6
11590,-576,152,1816,-29,112,6
11595,-584,128,1776,-21,122,4
11600,-560,136,1784,-18,135,5
11605,-584,184,1744,-19,143,4
11610,-584,184,1768,-25,151,7
11615,-584,168,1792,-34,158,6
11620,-592,192,1768,-44,160,6
11625,-600,152,1784,-54,160,6
11630,-608,192,1816,-60,154,6
11635,-616,200,1792,-71,147,4
11640,-624,224,1816,-81,138,4
11645,-632,192,1792,-93,130,2
11650,-632,176,1816,-105,124,3
11655,-632,200,1816,-115,115,-2
11660,-680,184,1808,-123,108,0
11665,-640,184,1800,-131,97,-2
11670,-680,152,1848,-139,87,0
11675,-672,168,1832,-140,69,3
11680,-696,144,1832,-142,59,11
11685,-672,152,1808,-144,52,15
11690,-680,168,1816,-145,42,17
11695,-704,168,1832,-145,28,16
11700,-696,160,1824,-148,15,22
11705,-672,144,1832,-147,7,23
11710,-672,144,1856,-141,5,26
11715,-672,152,1856,-133,7,24
11720,-672,136,1848,-124,13,27
11725,-664,144,1840,-119,20,26
11730,-664,144,1832,-113,25,25
11735,-680,144,1864,-107,29,21
11740,-688,160,1880,-101,28,21
11745,-680,120,1856,-97,30,19
11750,-528,160,1768,-88,34,21
11755,-664,208,1752,-80,37,14
11760,-616,160,1896,-74,44,17
11765,-672,136,1888,-69,54,12
11770,-608,104,1832,-61,58,11
11775,-624,184,1840,-54,62,5
11780,-712,112,1952,-47,66,5
11785,-624,96,1816,-40,73,0
11790,-624,112,1832,-32,81,0
11795,-616,104,1816,-30,86,-4
11800,-616,112,1824,-32,89,-5
11805,-616,112,1832,-34,90,-10
11810,-616,128,1816,-33,88,-10
11815,-600,128,1832,-38,83,-11
11820,-616,128,1848,-39,80,-11
11825,-616,144,1832,-41,79,-15
11830,-600,128,1840,-43,77,-12
11835,-600,128,1824,-43,74,-17
11840,-632,128,1848,-42,73,-15
11845,-584,120,1832,-41,70,-18
11850,-600,128,1816,-42,69,-15
11855,-608,120,1824,-44,70,-18
11860,-600,96,1832,-46,68,-18
11865,-608,104,1816,-46,68,-23
11870,-616,88,1824,-49,70,-21
11875,-616,88,1848,-49,69,-22
11880,-624,104,1856,-49,73,-18
11885,-624,104,1872,-51,73,-19
11890,-624,96,1840,-52,72,-16
11895,-640,96,1848,-48,71,-17
11900,-664,104,1832,-41,68,-13
11905,-656,104,1816,-39,67,-13
11910,-640,88,1824,-39,67,-10
11915,-648,136,1832,-38,65,-11
11920,-648,136,1824,-39,64,-7
11925,-648,112,1832,-42,62,-7
11930,-672,120,1848,-42,60,-4
11935,-672,120,1856,-43,59,-5
11940,-672,112,1856,-47,60,-1
11945,-664,120,1824,-48,61,-3
11950,-696,96,1840,-49,63,0
11955,-672,88,1840,-49,64,-3
11960,-656,104,1864,-44,67,-1
11965,-664,72,1856,-39,69,-2
11970,-696,88,1832,-31,71,3
11975,-680,88,1848,-23,72,0
11980,-672,104,1808,-15,73,3
11985,-696,104,1816,-11,73,1
11990,-680,88,1808,-9,75,4
11995,-672,112,1800,-9,75,2
12000,-664,112,1776,-11,76,5
12005,-680,120,1816,-13,77,6
12010,-664,104,1808,-11,76,6
12015,-688,88,1816,-7,75,3
12020,-672,88,1776,-3,72,4
12025,-672,80,1824,3,69,1
12030,-672,96,1816,7,67,1
12035,-688,104,1784,9,63,-3
12040,-680,104,1808,10,63,-3
12045,-656,112,1784,14,61,-4
12050,-672,88,1824,15,60,-3
12055,-696,112,1800,17,60,-7
12060,-672,88,1800,21,61,-7
12065,-664,96,1784,24,63,-10
12070,-648,112,1800,25,65,-8
12075,-640,96,1800,24,66,-9
12080,-648,104,1808,23,68,-8
12085,-664,104,1824,20,73,-12
12090,-688,120,1784,18,75,-10
12095,-648,128,1840,14,76,-11
12100,-632,128,1808,9,74,-8
12105,-624,120,1840,6,71,-10
12110,-640,120,1808,5,69,-9
12115,-616,96,1848,4,67,-11
12120,-648,112,1808,4,63,-11
12125,-664,104,1840,3,60,-13
12130,-632,128,1848,4,56,-9
12135,-648,120,1824,5,54,-11
12140,-624,112,1792,4,53,-9
12145,-656,120,1800,7,50,-8
12150,-640,112,1824,11,48,-8
12155,-624,96,1800,14,49,-10
12160,-632,96,1808,19,53,-11
12165,-632,112,1808,20,57,-13
12170,-632,112,1776,23,63,-10
12175,-640,112,1776,29,68,-11
12180,-672,120,1760,31,70,-9
12185,-648,104,1816,31,74,-10
12190,-632,104,1792,29,74,-10
12195,-656,112,1784,27,78,-12
12200,-656,96,1816,26,79,-12
12205,-656,112,1824,25,79,-11
12210,-640,120,1792,23,80,-10
12215,-664,128,1816,17,82,-10
12220,-664,120,1824,11,83,-8
12225,-656,112,1816,7,84,-7
12230,-664,112,1840,5,84,-5
12235,-648,112,1824,4,86,-4
12240,-648,112,1832,-1,86,-3
12245,-664,120,1800,-5,86,-2
12250,-640,128,1824,-5,84,-1
12255,-680,128,1824,-6,81,-3
12260,-664,104,1800,-5,80,-4
12265,-664,128,1840,-2,77,-4
12270,-648,104,1792,-1,75,-5
12275,-688,120,1800,0,73,-6
12280,-672,120,1816,-1,70,-4
12285,-672,120,1808,-2,69,-5
12290,-648,128,1832,-3,69,-5
12295,-656,112,1800,-2,68,-3
12300,-656,120,1800,0,70,-6
12305,-672,120,1824,-1,71,-5
12310,-656,128,1776,0,73,-5
12315,-648,136,1800,1,72,-4
12320,-664,144,1800,2,72,-4
12325,-640,128,1816,0,71,-4
12330,-664,112,1784,0,72,-5
12335,-656,136,1776,-2,71,-3
12340,-664,128,1792,-4,71,-4
12345,-672,104,1768,-6,70,-3
12350,-656,136,1832,-8,68,-3
12355,-648,120,1800,-7,66,-4
12360,-664,144,1824,-6,63,-5
12365,-640,120,1816,-3,62,-3
12370,-672,120,1800,-3,58,-6
12375,-648,136,1816,-1,57,-5
12380,-648,104,1824,0,53,-5
12385,-656,128,1792,1,52,-5
12390,-672,136,1816,0,52,-6
12395,-648,120,1816,-1,52,-6
12400,-672,112,1776,-1,53,-6
12405,-656,152,1792,-2,52,-5
12410,-664,112,1808,-4,53,-4
12415,-640,112,1784,-4,53,-3
12420,-648,136,1752,-4,54,-5
12425,-656,136,1800,-5,52,-4
12430,-664,128,1824,-7,50,-6
12435,-656,128,1800,-6,48,-4
12440,-672,128,1808,-8,49,-6
12445,-648,120,1784,-8,46,-5
12450,-648,160,1784,-10,43,-7
12455,-656,136,1784,-12,41,-5
12460,-648,128,1760,-16,39,-7
12465,-664,112,1784,-16,36,-6
12470,-664,136,1816,-16,34,-7
12475,-672,128,1776,-14,32,-7
12480,-656,128,1792,-13,30,-10
12485,-640,96,1792,-15,30,-9
12490,-632,120,1816,-18,31,-10
12495,-656,128,1744,-22,31,-5
12500,-664,160,1792,-29,32,-7
12505,-640,136,1800,-36,33,-4
12510,-672,128,1808,-46,31,-4
12515,-624,104,1776,-53,31,0
12520,-648,120,1792,-62,33,0
12525,-648,112,1808,-69,35,3
12530,-656,96,1824,-73,35,0
12535,-656,112,1792,-76,35,3
12540,-632,96,1832,-80,37,2
12545,-656,112,1840,-80,37,4
12550,-656,80,1808,-80,36,2
12555,-656,128,1840,-80,36,4
12560,-624,88,1856,-78,40,2
12565,-656,104,1832,-74,44,4
12570,-648,112,1784,-75,44,3
12575,-656,128,1816,-71,44,7
12580,-664,136,1840,-68,45,5
12585,-664,120,1800,-64,45,7
12590,-664,112,1824,-64,46,5
12595,-656,120,1824,-64,45,6
12600,-680,120,1800,-65,44,4
12605,-664,120,1808,-67,47,9
12610,-640,120,1840,-71,48,6
12615,-640,104,1832,-74,48,8
12620,-648,112,1824,-75,50,7
12625,-632,120,1792,-76,52,10
12630,-640,96,1832,-77,53,9
12635,-656,104,1856,-74,53,7
12640,-664,112,1832,-73,51,2
12645,-624,104,1856,-68,49,5
12650,-656,112,1840,-65,49,4
12655,-648,88,1832,-63,50,6
12660,-640,112,1840,-63,50,3
12665,-632,120,1808,-63,49,3
12670,-624,88,1840,-64,49,2
12675,-632,112,1824,-63,47,6
12680,-632,112,1832,-60,48,3
12685,-632,112,1816,-59,44,5
12690,-632,104,1832,-59,39,0
12695,-624,104,1848,-60,37,2
12700,-648,96,1824,-63,38,-1
12705,-624,96,1840,-63,39,1
12710,-632,80,1864,-59,44,-3
12715,-624,88,1856,-54,46,1
12720,-624,80,1784,-49,47,-2
12725,-632,72,1816,-43,45,-1
12730,-624,64,1832,-36,45,-4
12735,-640,96,1816,-33,47,-3
12740,-656,112,1808,-36,48,-8
12745,-632,104,1808,-38,51,-4
12750,-608,80,1816,-39,56,-5
12755,-656,96,1800,-40,58,0
12760,-656,88,1800,-40,57,-3
12765,-624,72,1840,-40,58,-1
12770,-640,88,1792,-40,59,-4
12775,-664,72,1800,-39,61,-3
12780,-640,80,1816,-35,65,-4
12785,-632,80,1816,-32,69,-4
12790,-624,96,1816,-33,74,-7
12795,-640,72,1832,-37,79,-3
12800,-648,96,1824,-38,85,-5
12805,-616,80,1824,-41,87,-3
12810,-640,72,1784,-43,90,-2
12815,-616,72,1816,-47,92,2
12820,-640,72,1792,-53,95,4
12825,-656,112,1840,-62,91,5
12830,-656,96,1824,-72,87,4
12835,-656,96,1856,-77,84,6
12840,-656,88,1808,-80,77,5
12845,-632,80,1848,-82,70,7
12850,-648,88,1832,-82,64,5
12855,-664,72,1832,-81,56,4
12860,-640,56,1816,-80,51,3
12865,-648,72,1816,-78,49,4
12870,-632,56,1816,-72,50,4
12875,-632,72,1808,-61,55,4
12880,-624,88,1808,-54,60,3
12885,-616,80,1832,-50,64,6
12890,-648,88,1832,-48,70,4
12895,-640,72,1816,-48,72,3
12900,-640,88,1848,-47,71,1
12905,-656,104,1832,-48,71,2
12910,-632,72,1824,-50,70,1
12915,-640,80,1816,-53,68,2
12920,-640,72,1832,-54,66,3
12925,-648,72,1856,-54,62,4
12930,-648,56,1816,-55,61,2
12935,-632,72,1832,-52,59,5
12940,-640,56,1824,-49,57,6
12945,-648,56,1824,-46,59,7
12950,-656,80,1848,-42,56,7
12955,-656,56,1824,-38,55,5
12960,-656,80,1808,-35,55,3
12965,-648,72,1776,-35,57,3
12970,-656,80,1824,-37,56,1
12975,-664,80,1824,-38,55,2
12980,-624,64,1832,-40,54,0
12985,-640,40,1840,-40,56,2
12990,-664,64,1832,-39,54,3
12995,-664,88,1816,-35,52,3
13000,-648,72,1824,-32,51,4
13005,-640,64,1808,-31,49,4
13010,-656,72,1808,-31,51,4
13015,-648,80,1816,-35,48,3
13020,-648,72,1816,-39,47,4
13025,-640,80,1832,-41,48,5
13030,-640,80,1832,-43,44,3
13035,-648,96,1800,-48,41,5
13040,-632,88,1848,-47,39,3
13045,-640,56,1816,-46,36,3
13050,-648,72,1816,-39,35,1
13055,-664,72,1816,-33,36,-1
13060,-648,72,1800,-28,38,-2
13065,-648,72,1776,-26,39,-4
13070,-632,80,1832,-25,41,-2
13075,-664,64,1832,-26,41,-1
13080,-648,64,1832,-27,43,-1
13085,-640,80,1808,-26,42,-1
13090,-656,88,1848,-24,42,-1
13095,-648,96,1832,-24,43,-3
13100,-632,64,1808,-26,44,-4
13105,-624,72,1824,-29,44,-5
13110,-648,64,1832,-31,44,-5
13115,-640,80,1816,-33,44,-5
13120,-632,56,1824,-33,43,-4
13125,-632,64,1824,-33,43,-3
13130,-632,72,1832,-32,44,-2
13135,-640,48,1816,-31,43,-3
13140,-640,40,1816,-31,43,0
13145,-640,64,1864,-31,41,-1
13150,-632,80,1808,-31,42,1
13155,-624,72,1840,-32,42,1
13160,-640,64,1824,-34,39,3
13165,-632,64,1784,-36,40,1
13170,-624,64,1832,-36,39,3
13175,-648,80,1824,-36,36,2
13180,-624,48,1808,-34,35,1
13185,-640,64,1840,-29,37,0
13190,-624,56,1864,-24,40,0
13195,-632,64,1808,-20,41,-2
13200,-624,80,1816,-19,42,-1
13205,-616,56,1824,-19,45,-5
13210,-624,56,1816,-19,46,-5
13215,-624,72,1832,-20,48,-8
13220,-624,48,1808,-21,48,-7
13225,-624,48,1808,-23,49,-9
13230,-624,40,1808,-21,50,-7
13235,-624,48,1840,-19,53,-9
13240,-632,40,1800,-18,53,-6
13245,-616,48,1840,-15,53,-7
13250,-616,24,1784,-14,54,-6
13255,-616,56,1832,-12,54,-9
13260,-616,32,1808,-13,55,-6
13265,-624,24,1824,-14,56,-9
13270,-640,56,1816,-17,58,-6
13275,-616,40,1832,-19,59,-7
13280,-616,40,1848,-22,63,-3
13285,-616,48,1808,-21,63,-2
13290,-616,32,1808,-19,60,4
13295,-624,48,1800,-13,54,-1
13300,-616,40,1800,-10,52,1
13305,-624,64,1816,-11,55,-1
13310,-648,40,1832,-11,58,1
13315,-616,48,1792,-11,60,-2
13320,-616,56,1816,-14,63,1
13325,-616,40,1808,-15,65,0
13330,-616,56,1808,-18,67,2
13335,-624,40,1800,-21,71,2
13340,-632,40,1816,-21,74,4
13345,-624,40,1832,-18,75,3
13350,-648,56,1800,-16,75,3
13355,-656,72,1816,-21,74,-2
13360,-664,80,1816,-29,75,1
13365,-672,112,1808,-39,74,1
13370,-664,80,1816,-46,70,7
13375,-672,72,1856,-49,63,2
13380,-672,48,1816,-49,59,6
13385,-664,32,1824,-55,55,9
13390,-672,40,1800,-54,57,13
13395,-664,56,1800,-49,57,11
13400,-656,72,1816,-46,57,16
13405,-648,88,1808,-46,57,12
13410,-640,56,1808,-45,59,13
13415,-616,56,1800,-46,64,7
13420,-624,72,1864,-47,73,9
13425,-624,56,1832,-46,81,7
13430,-632,64,1840,-49,90,12
13435,-648,64,1848,-53,94,13
13440,-672,40,1816,-55,88,17
13445,-648,64,1792,-56,83,9
13450,-632,64,1816,-56,78,10
13455,-632,64,1832,-59,76,8
13460,-624,72,1816,-63,71,9
13465,-648,64,1840,-66,63,5
13470,-648,72,1816,-65,55,7
13475,-640,88,1800,-64,49,0
13480,-624,48,1808,-64,40,1
13485,-656,64,1800,-64,38,-3
13490,-632,80,1832,-65,38,-1
13495,-632,56,1856,-67,40,-5
13500,-640,64,1832,-70,43,-4
13505,-616,40,1816,-70,46,-8
13510,-616,72,1832,-69,51,-7
13515,-640,56,1808,-66,55,-8
13520,-632,32,1840,-61,60,-6
13525,-648,56,1824,-57,62,-9
13530,-640,48,1832,-51,64,-6
13535,-624,40,1840,-45,63,-8
13540,-624,56,1840,-41,62,-6
13545,-624,24,1832,-37,60,-9
13550,-624,56,1848,-34,58,-5
13555,-632,56,1808,-32,59,-7
13560,-648,64,1848,-31,55,-5
13565,-624,40,1840,-28,54,-8
13570,-624,64,1800,-27,51,-7
13575,-616,40,1816,-25,48,-8
13580,-624,24,1808,-25,48,-7
13585,-624,32,1816,-25,48,-8
13590,-640,40,1808,-23,48,-5
13595,-632,32,1776,-24,48,-6
13600,-640,-8,1840,-22,48,-5
13605,-616,16,1832,-18,50,-7
13610,-616,40,1800,-16,49,-3
13615,-616,48,1808,-16,48,-4
13620,-608,16,1808,-17,49,-3
13625,-624,32,1840,-16,48,-5
13630,-616,24,1824,-17,49,-2
13635,-632,24,1832,-18,48,-4
13640,-624,16,1832,-19,47,-2
13645,-632,32,1832,-21,44,-4
13650,-632,24,1816,-24,43,-3
13655,-640,8,1856,-26,43,-3
13660,-688,16,1904,-24,42,-2
13665,-648,40,1832,-19,40,-3
13670,-640,24,1872,-14,40,-4
13675,-648,24,1856,-10,41,-5
13680,-648,24,1848,-5,45,-3
13685,-640,32,1808,0,48,-4
13690,-616,8,1784,2,51,0
13695,-624,32,1792,4,53,-1
13700,-640,48,1800,2,54,1
13705,-640,24,1776,0,55,0
13710,-624,72,1824,-4,56,0
13715,-632,32,1832,-9,54,-1
13720,-640,16,1832,-10,54,-2
13725,-640,24,1824,-13,53,-4
13730,-632,16,1800,-13,54,-5
13735,-632,24,1832,-12,57,-7
13740,-632,8,1840,-11,57,-5
13745,-616,16,1848,-12,58,-6
13750,-632,40,1848,-15,60,-6
13755,-632,24,1832,-16,61,-5
13760,-600,8,1840,-17,64,-3
13765,-608,16,1840,-14,66,-1
13770,-608,32,1832,-13,67,1
13775,-608,0,1808,-10,68,2
13780,-600,32,1800,-7,69,3
13785,-608,32,1800,-7,68,5
13790,-608,32,1784,-9,68,7
13795,-616,32,1808,-10,68,6
13800,-624,56,1832,-13,68,5
13805,-616,16,1824,-16,66,3
13810,-632,48,1824,-20,63,2
13815,-648,32,1856,-22,63,2
13820,-632,24,1840,-22,62,2
13825,-624,32,1816,-20,62,4
13830,-624,40,1800,-21,63,5
13835,-624,16,1816,-21,64,7
13840,-616,32,1824,-24,66,9
13845,-616,24,1792,-26,69,9
13850,-616,32,1848,-28,69,10
13855,-616,32,1800,-29,68,9
13860,-616,48,1824,-28,66,8
13865,-656,72,1800,-28,67,11
13870,-648,40,1840,-26,64,9
13875,-632,48,1792,-25,62,10
13880,-648,40,1832,-21,62,9
13885,-648,56,1808,-18,62,6
13890,-632,40,1840,-15,62,6
13895,-640,48,1832,-13,64,4
13900,-656,80,1824,-15,65,3
13905,-664,64,1848,-17,66,3
13910,-648,40,1800,-19,67,2
13915,-640,48,1840,-19,65,4
13920,-616,32,1792,-17,66,2
13925,-632,32,1832,-15,65,1
13930,-632,80,1808,-11,62,0
13935,-616,64,1824,-7,63,-1
13940,-632,56,1824,-4,62,-2
13945,-608,56,1824,-3,61,-2
13950,-632,88,1792,-4,61,-4
13955,-624,72,1808,-6,61,-3
13960,-616,56,1808,-10,58,-7
13965,-632,32,1856,-12,59,-8
13970,-640,56,1832,-14,57,-11
13975,-640,40,1840,-11,55,-11
13980,-640,32,1816,-4,55,-13
13985,-648,48,1824,-3,54,-16
13990,-640,48,1832,-3,57,-18
13995,-632,56,1800,-2,61,-18
14000,-640,64,1832,0,61,-19
14005,-656,56,1808,1,60,-18
14010,-648,64,1808,0,60,-21
14015,-640,48,1816,-2,60,-18
14020,-656,56,1808,-3,60,-20
14025,-616,40,1816,-5,63,-18
14030,-624,40,1848,-5,64,-20
14035,-624,40,1800,-3,65,-16
14040,-624,16,1792,-4,66,-16
14045,-624,40,1808,-6,68,-15
14050,-624,32,1824,-10,70,-16
14055,-624,16,1840,-12,72,-11
14060,-640,32,1808,-13,74,-12
14065,-624,40,1808,-14,75,-8
14070,-632,40,1808,-17,77,-8
14075,-632,32,1816,-22,79,-4
14080,-608,16,1800,-24,77,-3
14085,-640,16,1816,-24,74,-1
14090,-632,48,1816,-25,69,-4
14095,-624,40,1816,-27,65,-2
14100,-616,48,1832,-27,61,-5
14105,-608,40,1816,-27,57,-4
14110,-640,40,1832,-26,55,-9
14115,-640,40,1792,-25,52,-8
14120,-640,40,1816,-25,54,-10
14125,-632,16,1808,-24,56,-7
14130,-648,56,1832,-26,61,-8
14135,-648,48,1832,-26,65,-6
14140,-656,64,1816,-27,69,-9
14145,-616,40,1824,-26,73,-4
14150,-640,16,1800,-24,75,-6
14155,-616,16,1832,-24,76,-2
14160,-632,32,1824,-23,75,-3
14165,-616,40,1776,-23,74,0
14170,-624,32,1840,-24,70,-1
14175,-624,40,1832,-27,67,5
14180,-632,40,1864,-32,64,1
14185,-648,48,1824,-35,61,3
14190,-632,24,1832,-37,57,1
14195,-616,16,1864,-39,54,4
14200,-616,16,1840,-37,54,1
14205,-632,0,1816,-31,54,3
14210,-640,40,1824,-28,53,0
14215,-656,32,1816,-23,53,2
14220,-624,16,1832,-20,54,0
14225,-632,24,1808,-18,55,2
14230,-632,32,1840,-16,59,-1
14235,-640,56,1824,-18,60,2
14240,-616,24,1816,-20,62,-1
14245,-632,32,1840,-22,59,3
14250,-640,48,1816,-24,56,3
14255,-632,40,1840,-24,55,6
14260,-640,32,1840,-25,55,2
14265,-624,40,1800,-26,53,4
14270,-640,56,1816,-31,53,3
14275,-640,48,1824,-34,49,8
14280,-648,56,1800,-44,43,8
14285,-624,40,1832,-51,40,11
14290,-616,32,1840,-51,38,8
14295,-624,40,1848,-47,40,9
14300,-648,40,1848,-40,41,6
14305,-616,8,1816,-32,42,6
14310,-648,16,1848,-24,42,2
14315,-624,24,1816,-18,44,3
14320,-632,40,1808,-15,46,1
14325,-640,32,1816,-13,48,3
14330,-648,40,1800,-12,51,-1
14335,-648,48,1856,-14,52,1
14340,-632,40,1832,-17,53,-4
14345,-648,48,1776,-20,56,-3
14350,-624,56,1840,-23,55,-4
14355,-632,56,1816,-25,55,-2
14360,-648,32,1832,-26,53,-6
14365,-632,32,1816,-27,52,-3
14370,-632,32,1816,-29,50,-5
14375,-632,24,1824,-28,51,-3
14380,-632,24,1824,-27,52,-3
14385,-632,16,1800,-26,52,-2
14390,-632,48,1824,-22,55,-5
14395,-616,32,1816,-20,57,-2
14400,-632,48,1824,-17,58,-4
14405,-624,48,1816,-16,58,-3
14410,-632,48,1816,-16,59,-4
14415,-632,32,1816,-17,61,-3
14420,-616,48,1816,-18,61,-3
14425,-616,24,1808,-18,61,-2
14430,-640,40,1824,-17,61,-6
14435,-608,8,1832,-16,59,-4
14440,-624,40,1840,-15,58,-8
14445,-624,32,1824,-15,57,-6
14450,-624,32,1824,-14,56,-7
14455,-648,40,1800,-13,54,-6
14460,-632,16,1848,-14,54,-8
14465,-632,32,1816,-13,52,-7
14470,-640,32,1800,-13,51,-7
14475,-616,24,1824,-14,52,-6
14480,-616,24,1824,-13,51,-9
14485,-608,24,1792,-12,50,-6
14490,-624,40,1816,-12,50,-9
14495,-616,40,1816,-13,49,-7
14500,-624,40,1808,-14,48,-8
14505,-608,24,1848,-14,47,-8
14510,-616,16,1824,-11,48,-9
14515,-624,40,1840,-7,48,-9
14520,-640,48,1824,-1,50,-10
14525,-616,16,1832,5,52,-10
14530,-624,24,1800,7,57,-13
14535,-616,32,1800,2,59,-15
14540,-624,56,1824,-4,62,-16
14545,-608,16,1824,-8,66,-14
14550,-624,48,1832,-13,64,-11
14555,-624,24,1840,-14,63,-9
14560,-616,0,1816,-15,62,-8
14565,-648,24,1848,-14,63,-8
14570,-640,32,1800,-13,62,-8
14575,-624,-8,1848,-13,60,-5
14580,-616,0,1808,-13,61,-5
14585,-616,16,1816,-11,62,-3
14590,-608,16,1832,-12,62,-2
14595,-608,16,1824,-13,62,0
14600,-624,40,1800,-16,63,1
14605,-608,32,1848,-18,62,2
14610,-624,32,1824,-15,62,4
14615,-616,16,1792,-12,61,3
14620,-624,40,1824,-8,59,2
14625,-616,40,1816,-8,58,1
14630,-616,56,1800,-14,59,0
14635,-640,56,1784,-16,62,1
14640,-632,48,1824,-15,62,0
14645,-648,56,1784,-14,60,-1
14650,-648,32,1848,-14,61,-3
14655,-624,24,1816,-14,61,-4
14660,-640,32,1808,-14,62,-3
14665,-632,24,1816,-12,63,-4
14670,-624,32,1792,-11,65,-3
14675,-616,32,1792,-12,68,-5
14680,-616,40,1784,-13,69,-4
14685,-624,40,1840,-17,70,-4
14690,-624,40,1824,-18,72,-3
14695,-608,16,1832,-22,73,-2
14700,-648,48,1792,-25,76,-2
14705,-648,56,1800,-27,78,0
14710,-624,48,1800,-30,79,3
14715,-632,48,1832,-35,80,5
14720,-616,24,1800,-36,81,9
14725,-624,24,1824,-35,80,7
14730,-632,8,1848,-36,73,7
14735,-616,16,1848,-39,67,5
14740,-632,16,1824,-38,60,4
14745,-648,32,1920,-37,49,3
14750,-632,88,1864,-37,42,3
14755,-640,32,1816,-40,38,1
14760,-680,24,1808,-44,39,1
14765,-704,56,1936,-49,40,-2
14770,-672,40,1768,-49,43,-2
14775,-600,-24,1864,-48,48,-3
14780,-624,16,1856,-45,55,-2
14785,-632,24,1824,-40,59,-2
14790,-600,16,1848,-33,62,0
14795,-648,24,1808,-28,64,0
14800,-608,112,1856,-25,66,0
14805,-616,16,1832,-22,67,-2
14810,-632,48,1816,-21,63,-1
14815,-616,32,1848,-20,64,-4
14820,-624,40,1824,-19,62,-3
14825,-616,8,1808,-21,60,-4
14830,-624,40,1808,-24,60,-4
14835,-624,40,1808,-24,56,-5
14840,-640,16,1832,-24,54,-4
14845,-616,16,1816,-25,52,-4
14850,-616,0,1816,-23,52,-2
14855,-624,16,1816,-25,50,-3
14860,-632,24,1856,-22,51,-1
14865,-616,8,1824,-20,52,-3
14870,-640,16,1856,-19,54,0
14875,-632,24,1800,-18,56,-1
14880,-616,16,1816,-16,58,2
14885,-624,8,1816,-13,60,-1
14890,-616,16,1816,-11,63,2
14895,-616,8,1840,-8,64,0
14900,-632,40,1824,-9,66,4
14905,-632,16,1816,-9,66,0
14910,-632,40,1808,-13,65,4
14915,-632,40,1808,-16,64,1
14920,-624,32,1792,-21,62,4
14925,-608,24,1840,-23,58,2
14930,-616,0,1816,-23,54,3
14935,-632,16,1808,-21,51,-1
14940,-616,24,1848,-19,49,-1
14945,-632,24,1840,-16,47,-3
14950,-624,24,1848,-14,49,-3
14955,-600,0,1832,-12,51,-7
14960,-632,32,1832,-12,50,-3
14965,-632,8,1824,-12,53,-5
14970,-640,16,1848,-12,54,-2
14975,-624,32,1816,-14,55,-4
14980,-624,16,1824,-15,57,-1
14985,-624,24,1824,-16,60,-3
14990,-624,8,1848,-19,62,-1
14995,-640,48,1824,-21,63,-2
