timestamp,accel_x,accel_y,accel_z,gyro_x,gyro_y,gyro_z
0,160,-2064,-688,-44,-9,-8
5,152,-2080,-672,-43,-8,-8
10,152,-2040,-712,-43,-7,-8
15,152,-2056,-728,-41,-8,-9
20,136,-2056,-712,-39,-6,-10
25,152,-2000,-736,-37,-4,-11
30,152,-2064,-704,-39,-5,-12
35,152,-2048,-696,-39,-3,-11
40,112,-2040,-704,-38,-2,-11
45,144,-2040,-688,-41,-1,-12
50,136,-2040,-696,-41,-2,-14
55,160,-2064,-712,-43,-1,-13
60,160,-2040,-704,-44,-1,-12
65,160,-2072,-704,-45,-1,-11
70,256,-2128,-720,-46,0,-13
75,144,-2040,-672,-47,1,-14
80,136,-2072,-704,-48,1,-14
85,168,-2072,-712,-50,3,-13
90,160,-2056,-696,-50,3,-13
95,144,-2072,-688,-49,3,-14
100,152,-2048,-688,-49,5,-13
105,160,-2088,-688,-48,5,-13
110,144,-2056,-672,-48,7,-13
115,168,-2056,-672,-48,8,-13
120,136,-2056,-736,-49,7,-12
125,176,-2056,-712,-49,8,-11
130,128,-2064,-688,-47,9,-11
135,176,-2056,-696,-48,8,-11
140,168,-2064,-704,-46,10,-11
145,160,-2064,-696,-46,9,-11
150,160,-2088,-664,-47,10,-11
155,144,-2072,-688,-47,9,-10
160,152,-2064,-704,-47,10,-10
165,144,-2056,-696,-48,11,-10
170,144,-2064,-680,-47,13,-11
175,136,-2064,-704,-47,14,-10
180,168,-2056,-696,-48,15,-9
185,136,-2048,-648,-48,16,-9
190,168,-2072,-696,-48,18,-9
195,160,-2056,-680,-47,18,-9
200,152,-2056,-680,-49,18,-9
205,144,-2080,-680,-48,21,-8
210,160,-2072,-696,-49,20,-8
215,152,-2048,-680,-49,21,-9
220,136,-2048,-680,-51,23,-9
225,176,-2080,-688,-52,23,-7
230,144,-2048,-680,-52,24,-7
235,144,-2048,-680,-50,25,-9
240,160,-2064,-664,-52,26,-7
245,160,-2064,-720,-52,26,-7
250,136,-2048,-704,-53,26,-7
255,128,-2056,-704,-54,28,-8
260,144,-2048,-696,-55,29,-6
265,128,-2080,-704,-56,29,-7
270,128,-2048,-696,-56,30,-7
275,128,-2064,-696,-57,31,-8
280,144,-2064,-672,-59,31,-8
285,144,-2048,-680,-58,31,-7
290,136,-2056,-688,-57,31,-7
295,168,-2064,-672,-56,32,-7
300,120,-2064,-656,-56,32,-6
305,152,-2064,-688,-57,34,-6
310,160,-2056,-680,-56,33,-5
315,152,-2072,-680,-56,33,-5
320,128,-2056,-656,-56,33,-6
325,160,-2064,-688,-54,34,-5
330,144,-2064,-688,-54,34,-5
335,136,-2048,-720,-54,34,-6
340,128,-2040,-688,-53,35,-6
345,168,-2064,-728,-53,35,-5
350,152,-2096,-688,-54,36,-5
355,152,-2064,-704,-56,35,-5
360,128,-2064,-680,-57,35,-4
365,144,-2048,-704,-56,36,-5
370,152,-2048,-712,-57,38,-5
375,168,-2064,-712,-57,39,-4
380,152,-2056,-656,-57,40,-4
385,136,-2032,-704,-56,42,-4
390,128,-2040,-680,-54,43,-4
395,144,-2056,-680,-52,43,-6
400,128,-2072,-704,-51,43,-6
405,120,-2072,-704,-53,41,-6
410,136,-2096,-688,-55,40,-5
415,136,-2080,-744,-57,39,-3
420,144,-2056,-704,-61,39,-3
425,144,-2056,-680,-61,38,-3
430,160,-2072,-696,-60,38,-3
435,120,-2032,-672,-58,38,-4
440,136,-2064,-736,-55,39,-5
445,144,-2056,-672,-53,38,-5
450,136,-2056,-712,-52,38,-7
455,104,-2112,-592,-48,39,-6
460,176,-2080,-696,-45,39,-9
465,120,-2056,-728,-42,40,-9
470,136,-2048,-720,-41,40,-8
475,152,-2048,-704,-40,40,-8
480,120,-2072,-720,-41,39,-7
485,152,-2064,-720,-44,40,-8
490,128,-2048,-712,-46,38,-9
495,144,-2064,-696,-47,37,-7
500,152,-2048,-688,-46,38,-5
505,160,-2048,-688,-46,37,-6
510,144,-2056,-680,-46,38,-5
515,160,-2080,-680,-46,37,-5
520,152,-2064,-704,-47,37,-3
525,176,-2072,-696,-48,36,-3
530,144,-2048,-712,-50,36,-3
535,136,-2080,-688,-52,35,-2
540,136,-2064,-688,-51,34,-1
545,152,-2064,-704,-51,35,-2
550,120,-2088,-696,-51,36,-4
555,136,-2072,-704,-51,35,-4
560,136,-2080,-696,-50,35,-5
565,136,-2080,-736,-49,35,-5
570,136,-2056,-704,-52,34,-5
575,128,-2064,-696,-51,33,-5
580,144,-2064,-696,-53,34,-6
585,152,-2048,-688,-54,33,-6
590,128,-2048,-736,-55,32,-5
595,144,-2056,-720,-59,32,-8
600,136,-2048,-720,-63,31,-8
605,152,-2056,-704,-65,33,-9
610,136,-2048,-712,-67,33,-9
615,136,-2048,-728,-70,34,-9
620,136,-2048,-720,-75,34,-10
625,128,-2016,-768,-78,33,-10
630,152,-2048,-744,-83,32,-10
635,144,-2048,-712,-89,31,-10
640,136,-2048,-728,-96,31,-8
645,168,-2048,-712,-100,31,-6
650,168,-2032,-704,-104,31,-7
655,168,-2040,-736,-108,33,-8
660,152,-2048,-728,-112,34,-7
665,152,-2048,-736,-114,33,-6
670,176,-2056,-744,-118,36,-7
675,144,-2048,-704,-121,36,-8
680,168,-2064,-712,-123,38,-10
685,160,-2048,-736,-125,38,-9
690,176,-2048,-736,-126,41,-11
695,160,-2032,-728,-131,43,-13
700,176,-2064,-784,-133,45,-12
705,168,-2056,-760,-137,47,-13
710,168,-2048,-752,-140,47,-14
715,200,-2032,-752,-145,48,-12
720,160,-2048,-744,-147,49,-14
725,176,-2048,-720,-149,50,-14
730,168,-2032,-736,-152,52,-13
735,176,-2032,-760,-155,52,-12
740,168,-2032,-760,-158,56,-13
745,184,-2032,-720,-163,60,-13
750,176,-2048,-768,-166,63,-13
755,176,-2040,-752,-169,66,-15
760,208,-2040,-744,-172,71,-16
765,192,-2032,-760,-175,74,-17
770,224,-2048,-736,-179,82,-17
775,224,-2040,-744,-183,88,-18
780,224,-2016,-744,-188,93,-18
785,200,-2016,-784,-195,99,-18
790,208,-2056,-776,-198,104,-19
795,216,-2032,-808,-203,109,-17
800,216,-2040,-776,-209,113,-18
805,208,-2032,-792,-214,115,-18
810,208,-2040,-784,-216,119,-16
815,200,-2040,-768,-219,122,-15
820,200,-2064,-792,-219,123,-15
825,216,-2056,-808,-222,127,-14
830,192,-2056,-768,-222,130,-12
835,128,-2056,-728,-221,134,-11
840,176,-2064,-752,-219,137,-10
845,184,-2056,-800,-218,142,-10
850,176,-2072,-768,-214,149,-8
855,176,-2040,-768,-210,154,-9
860,184,-2032,-752,-206,159,-10
865,184,-2040,-776,-203,163,-9
870,192,-2032,-784,-200,167,-8
875,184,-2032,-768,-200,168,-7
880,192,-2024,-800,-202,172,-8
885,200,-2048,-784,-203,174,-5
890,192,-2032,-784,-206,175,-3
895,104,-2048,-816,-210,176,-3
900,208,-2056,-768,-218,171,5
905,176,-2024,-784,-225,174,1
910,184,-2024,-816,-228,177,2
915,184,-2024,-808,-233,180,0
920,176,-2000,-824,-237,188,1
925,208,-2008,-824,-242,193,2
930,208,-2024,-816,-248,198,3
935,232,-2008,-840,-252,205,2
940,216,-2024,-832,-257,211,4
945,224,-1992,-840,-266,216,4
950,264,-2024,-848,-272,222,5
955,256,-2024,-824,-278,226,5
960,288,-2008,-824,-284,233,4
965,256,-2000,-856,-291,240,5
970,264,-2040,-904,-297,250,5
975,256,-2016,-848,-302,257,6
980,288,-2024,-840,-306,266,5
985,288,-2016,-872,-310,277,6
990,288,-2040,-872,-312,288,5
995,320,-2056,-888,-313,300,5
1000,320,-2032,-856,-316,312,6
1005,304,-2000,-880,-317,327,6
1010,328,-2008,-904,-321,341,6
1015,344,-2016,-880,-328,359,7
1020,376,-2016,-928,-337,377,9
1025,360,-1960,-928,-345,395,10
1030,376,-1960,-952,-355,416,10
1035,384,-1976,-944,-364,437,14
1040,400,-1968,-920,-373,458,18
1045,416,-1952,-968,-382,480,20
1050,456,-1968,-984,-390,500,23
1055,472,-1960,-968,-399,518,28
1060,472,-1976,-992,-406,537,34
1065,456,-2008,-960,-413,554,40
1070,488,-2016,-952,-420,572,51
1075,456,-2008,-952,-424,590,61
1080,480,-2040,-968,-427,610,73
1085,488,-2032,-960,-426,633,84
1090,488,-2040,-968,-424,655,94
1095,472,-2080,-960,-419,675,104
1100,488,-2048,-952,-417,696,110
1105,472,-2064,-968,-412,719,119
1110,464,-2048,-960,-405,739,124
1115,448,-2064,-936,-397,761,132
1120,408,-2056,-936,-387,782,138
1125,408,-2048,-904,-375,796,146
1130,352,-2056,-928,-364,808,154
1135,344,-2072,-928,-350,814,162
1140,328,-2096,-904,-337,817,169
1145,304,-2048,-912,-326,816,178
1150,264,-2048,-888,-318,813,189
1155,208,-2056,-856,-312,809,198
1160,168,-2064,-832,-307,806,210
1165,152,-2064,-816,-298,797,221
1170,104,-2072,-800,-295,789,230
1175,96,-2048,-800,-290,781,237
1180,56,-2056,-776,-289,774,243
1185,104,-2056,-784,-289,767,247
1190,56,-2056,-792,-285,757,249
1195,112,-2064,-768,-279,746,246
1200,96,-2040,-736,-270,731,241
1205,104,-2056,-704,-257,715,235
1210,120,-2064,-696,-240,701,227
1215,128,-2096,-624,-225,688,219
1220,128,-2048,-688,-211,678,209
1225,112,-2056,-664,-198,668,198
1230,136,-2096,-672,-188,661,186
1235,160,-2096,-672,-185,659,173
1240,128,-2080,-680,-185,658,161
1245,136,-2080,-704,-190,659,148
1250,168,-2088,-704,-191,660,133
1255,176,-2104,-696,-191,658,122
1260,192,-2064,-696,-192,660,108
1265,248,-2088,-712,-191,661,96
1270,264,-2096,-720,-190,663,89
1275,280,-2072,-736,-186,665,82
1280,304,-2040,-728,-185,666,80
1285,336,-2048,-728,-184,668,76
1290,360,-2040,-728,-182,671,75
1295,368,-2024,-712,-181,671,75
1300,384,-2016,-768,-177,673,78
1305,400,-2016,-720,-176,676,81
1310,408,-1992,-760,-176,679,85
1315,416,-2008,-744,-176,683,91
1320,392,-2008,-728,-176,688,95
1325,384,-1984,-744,-175,694,98
1330,384,-1952,-728,-175,697,103
1335,344,-1960,-736,-174,701,107
1340,344,-1984,-728,-174,703,113
1345,336,-1984,-712,-174,704,115
1350,320,-2016,-744,-173,702,119
1355,320,-2016,-720,-172,697,123
1360,280,-2000,-720,-170,693,126
1365,296,-2032,-688,-167,688,130
1370,280,-2024,-688,-161,682,133
1375,288,-2040,-696,-152,676,135
1380,280,-2048,-696,-144,669,139
1385,272,-2040,-704,-136,662,140
1390,296,-2048,-688,-126,652,142
1395,264,-2040,-696,-118,641,144
1400,272,-2032,-664,-113,628,146
1405,280,-2048,-688,-105,614,147
1410,296,-2056,-664,-93,599,148
1415,296,-2040,-656,-82,584,150
1420,312,-2016,-664,-74,568,151
1425,304,-2024,-656,-65,552,153
1430,288,-2024,-656,-58,536,152
1435,336,-2032,-632,-54,523,151
1440,280,-2024,-648,-48,506,151
1445,352,-2040,-632,-40,493,150
1450,352,-2048,-632,-33,480,150
1455,352,-2064,-624,-22,467,146
1460,400,-2056,-616,-14,454,140
1465,376,-2088,-600,-1,438,136
1470,368,-2088,-616,9,420,129
1475,368,-2104,-632,19,400,126
1480,352,-2096,-608,21,379,123
1485,320,-2096,-648,24,359,121
1490,328,-2088,-648,24,341,116
1495,352,-2096,-624,26,329,111
1500,336,-2112,-592,31,323,107
1505,360,-2128,-592,41,318,101
1510,352,-2136,-584,59,319,93
1515,400,-2160,-568,81,321,81
1520,432,-2208,-568,107,322,67
1525,488,-2192,-568,133,325,50
1530,504,-2208,-560,161,328,34
1535,552,-2232,-560,192,335,17
1540,560,-2224,-576,219,340,-1
1545,632,-2216,-656,241,349,-19
1550,656,-2208,-648,255,359,-35
1555,704,-2192,-680,263,371,-49
1560,696,-2160,-720,262,381,-60
1565,728,-2136,-760,252,393,-70
1570,720,-2136,-816,238,402,-80
1575,720,-2136,-888,220,407,-91
1580,648,-2128,-912,201,403,-105
1585,616,-2160,-936,177,391,-124
1590,544,-2176,-912,156,378,-144
1595,496,-2296,-856,144,361,-166
1600,440,-2232,-984,139,348,-188
1605,384,-2240,-952,145,336,-212
1610,352,-2264,-1016,160,328,-234
1615,336,-2256,-1032,187,322,-254
1620,336,-2232,-1048,216,323,-270
1625,312,-2216,-1080,242,332,-279
1630,344,-2224,-1088,262,347,-274
1635,312,-2256,-1096,280,356,-260
1640,320,-2304,-1064,293,357,-237
1645,320,-2288,-1056,300,352,-200
1650,328,-2344,-1064,300,341,-160
1655,352,-2400,-1032,303,325,-119
1660,344,-2416,-1056,299,307,-76
1665,368,-2432,-1048,292,288,-35
1670,352,-2424,-1024,285,263,6
1675,328,-2392,-1024,279,237,40
1680,304,-2368,-1032,274,207,69
1685,280,-2296,-1008,274,175,92
1690,224,-2232,-1016,278,145,112
1695,216,-2176,-1048,284,113,128
1700,184,-2088,-1040,290,83,141
1705,168,-2032,-1016,298,61,155
1710,152,-1968,-1016,306,48,167
1715,168,-1936,-1000,310,45,179
1720,152,-1896,-984,311,51,192
1725,184,-1848,-992,313,59,203
1730,200,-1824,-984,308,62,210
1735,216,-1824,-960,301,66,217
1740,248,-1768,-984,295,68,225
1745,248,-1744,-968,285,71,231
1750,272,-1720,-1024,273,73,234
1755,272,-1656,-1032,256,75,236
1760,280,-1632,-1032,237,78,235
1765,312,-1664,-1048,216,83,232
1770,288,-1624,-1040,196,88,227
1775,256,-1672,-1032,175,97,226
1780,216,-1664,-1072,154,106,224
1785,168,-1704,-1064,133,115,223
1790,160,-1776,-1024,114,124,225
1795,144,-1808,-1008,92,133,228
1800,128,-1864,-1024,72,137,231
1805,88,-1888,-984,47,138,237
1810,88,-1936,-992,26,140,245
1815,72,-2024,-976,3,148,255
1820,64,-2040,-1000,-20,154,267
1825,72,-2064,-960,-39,157,277
1830,104,-2112,-952,-51,157,289
1835,104,-2152,-944,-63,155,301
1840,112,-2168,-960,-70,151,311
1845,136,-2176,-952,-73,145,317
1850,136,-2184,-928,-73,139,321
1855,136,-2176,-936,-66,135,322
1860,128,-2160,-944,-52,130,321
1865,120,-2160,-920,-34,131,320
1870,96,-2104,-928,-12,135,319
1875,104,-2104,-944,12,142,315
1880,112,-2072,-880,38,149,311
1885,56,-2072,-872,61,160,306
1890,64,-2072,-872,83,171,299
1895,48,-2048,-856,100,184,293
1900,48,-2048,-856,110,195,287
1905,96,-2040,-848,117,204,281
1910,64,-2048,-872,117,211,279
1915,56,-2008,-888,112,218,275
1920,56,-2024,-872,105,221,274
1925,96,-1976,-872,92,223,273
1930,88,-1976,-864,76,225,273
1935,104,-1952,-864,59,223,271
1940,104,-1904,-832,43,219,272
1945,88,-1920,-856,27,214,274
1950,80,-1912,-840,12,208,275
1955,96,-1912,-872,-5,202,277
1960,88,-1904,-824,-21,196,280
1965,56,-1896,-816,-37,192,283
1970,48,-1912,-824,-52,190,287
1975,48,-1808,-856,-62,187,292
1980,56,-1912,-776,-70,184,296
1985,48,-1912,-768,-73,183,298
1990,32,-1928,-760,-74,183,296
1995,56,-1912,-736,-75,184,294
2000,64,-1944,-736,-74,186,288
2005,56,-1936,-696,-77,187,283
2010,88,-1928,-736,-81,188,275
2015,112,-1944,-712,-86,191,269
2020,112,-1952,-688,-91,194,260
2025,136,-1960,-680,-93,197,253
2030,152,-1960,-680,-96,205,246
2035,160,-1968,-688,-95,210,239
2040,176,-1936,-632,-94,217,232
2045,152,-1968,-632,-91,224,226
2050,176,-1976,-648,-88,230,219
2055,176,-2016,-640,-85,238,215
2060,160,-1960,-640,-81,246,211
2065,104,-1960,-664,-78,251,209
2070,112,-1968,-584,-74,257,205
2075,104,-1952,-632,-71,264,203
2080,72,-1960,-592,-68,267,199
2085,40,-1944,-608,-66,271,197
2090,64,-1976,-592,-63,271,194
2095,56,-1944,-624,-63,267,189
2100,56,-1952,-600,-65,267,184
2105,40,-1984,-608,-66,264,180
2110,24,-1976,-584,-62,259,173
2115,48,-1976,-576,-54,252,163
2120,32,-2016,-552,-40,247,152
2125,48,-2032,-560,-31,247,144
2130,48,-2040,-520,-22,252,136
2135,96,-2040,-528,-12,259,130
2140,120,-2056,-552,-3,265,122
2145,104,-2056,-528,3,271,115
2150,104,-2056,-544,10,276,105
2155,136,-2096,-488,16,280,98
2160,128,-2088,-528,24,281,92
2165,120,-2088,-512,32,277,85
2170,104,-2112,-520,37,273,78
2175,104,-2128,-472,45,269,72
2180,64,-2112,-512,51,268,68
2185,48,-2120,-520,57,271,64
2190,32,-2128,-504,62,276,61
2195,16,-2120,-472,70,279,59
2200,0,-2120,-488,78,282,56
2205,0,-2112,-456,84,281,56
2210,-40,-2112,-456,90,279,58
2215,-40,-2160,-416,96,274,60
2220,-56,-2128,-416,101,272,65
2225,-16,-2144,-400,102,271,68
2230,0,-2152,-376,103,271,68
2235,16,-2128,-328,107,275,66
2240,56,-2128,-296,114,280,61
2245,112,-2152,-264,124,287,56
2250,128,-2136,-272,134,298,50
2255,200,-2144,-248,138,313,39
2260,224,-2176,-296,135,330,33
2265,232,-2192,-352,116,350,33
2270,264,-2264,-392,82,363,38
2275,264,-2352,-496,40,373,50
2280,288,-2432,-592,-19,381,70
2285,264,-2528,-656,-93,390,95
2290,224,-2600,-712,-168,403,127
2295,136,-2656,-672,-225,412,165
2300,72,-2760,-704,-240,413,210
2305,0,-2760,-672,-216,408,254
2310,-112,-2688,-744,-171,398,288
2315,-128,-2648,-808,-114,386,311
2320,-152,-2552,-864,-54,364,320
2325,-184,-2480,-888,11,338,322
2330,-192,-2400,-912,71,312,322
2335,-184,-2360,-936,119,290,315
2340,-120,-2312,-920,157,274,298
2345,-96,-2264,-928,181,267,280
2350,56,-2232,-944,193,266,261
2355,48,-2160,-968,190,270,240
2360,120,-2080,-1000,184,276,220
2365,176,-2008,-1032,171,282,202
2370,240,-1928,-1104,150,291,188
2375,328,-1800,-1128,127,305,172
2380,400,-1800,-1088,106,319,157
2385,456,-1720,-1152,92,342,139
2390,504,-1648,-1136,93,370,121
2395,528,-1600,-1160,101,409,103
2400,520,-1568,-1144,112,450,85
2405,528,-1576,-1088,121,498,70
2410,536,-1568,-1088,132,551,57
2415,488,-1632,-1088,130,608,47
2420,464,-1712,-1040,121,667,42
2425,376,-1752,-1000,99,716,42
2430,312,-1840,-936,65,751,41
2435,256,-1880,-960,25,767,42
2440,192,-1976,-952,-17,768,41
2445,128,-2040,-928,-51,757,39
2450,48,-2032,-928,-81,736,41
2455,0,-2040,-952,-100,710,47
2460,-72,-2040,-944,-112,676,52
2465,-88,-2048,-952,-120,639,53
2470,-136,-2040,-928,-126,599,54
2475,-160,-2056,-960,-129,557,53
2480,-216,-2072,-928,-128,509,45
2485,-200,-2096,-936,-127,457,35
2490,-200,-2112,-888,-125,406,24
2495,-176,-2128,-872,-119,359,7
2500,-128,-2168,-840,-114,320,-12
2505,-72,-2200,-864,-105,286,-33
2510,-16,-2192,-824,-90,258,-57
2515,8,-2200,-840,-69,231,-80
2520,96,-2192,-864,-45,208,-106
2525,128,-2160,-904,-22,190,-131
2530,168,-2096,-896,2,174,-154
2535,168,-2088,-896,21,163,-173
2540,176,-2040,-952,35,158,-185
2545,176,-1984,-968,47,154,-193
2550,152,-1976,-944,55,151,-199
2555,160,-1928,-936,52,149,-199
2560,128,-1896,-928,46,148,-195
2565,104,-1872,-912,38,150,-186
2570,104,-1864,-928,30,149,-174
2575,104,-1856,-832,24,149,-162
2580,96,-1880,-856,19,147,-151
2585,144,-1864,-832,16,145,-139
2590,144,-1856,-768,16,146,-129
2595,168,-1880,-816,20,147,-120
2600,192,-1904,-768,19,148,-117
2605,240,-1896,-728,21,151,-116
2610,272,-1896,-712,23,155,-117
2615,320,-1912,-680,24,156,-120
2620,392,-1920,-656,28,156,-127
2625,408,-1912,-680,29,158,-132
2630,416,-1928,-632,28,160,-135
2635,464,-1944,-632,24,160,-137
2640,456,-1928,-592,23,159,-141
2645,488,-1904,-568,17,161,-144
2650,448,-1880,-584,13,164,-144
2655,424,-1888,-560,9,167,-140
2660,424,-1840,-552,2,174,-138
2665,392,-1856,-528,-4,180,-133
2670,336,-1840,-528,-11,186,-127
2675,336,-1816,-512,-17,191,-121
2680,288,-1824,-536,-25,195,-114
2685,264,-1840,-536,-31,197,-107
2690,248,-1832,-520,-36,197,-98
2695,192,-1824,-552,-45,195,-88
2700,192,-1840,-552,-56,193,-77
2705,192,-1832,-528,-63,189,-66
2710,120,-1808,-544,-69,181,-54
2715,136,-1856,-520,-72,173,-43
2720,120,-1840,-536,-77,162,-30
2725,128,-1864,-520,-83,153,-20
2730,88,-1896,-488,-87,145,-10
2735,96,-1840,-528,-91,135,-2
2740,120,-1856,-512,-91,126,8
2745,128,-1864,-520,-88,116,14
2750,120,-1840,-512,-83,106,22
2755,144,-1880,-504,-77,100,28
2760,152,-1912,-488,-69,91,31
2765,176,-1920,-448,-58,80,36
2770,176,-1968,-448,-48,68,40
2775,200,-2024,-400,-39,54,45
2780,200,-2056,-400,-34,36,50
2785,192,-2104,-384,-29,13,56
2790,200,-2160,-424,-25,-9,64
2795,152,-2168,-400,-20,-28,70
2800,168,-2240,-416,-15,-47,77
2805,144,-2224,-376,-9,-63,85
2810,112,-2240,-384,-3,-80,92
2815,128,-2248,-384,6,-99,97
2820,96,-2240,-352,20,-118,103
2825,152,-2256,-312,37,-135,105
2830,144,-2288,-320,57,-147,105
2835,184,-2288,-320,77,-155,101
2840,248,-2304,-312,92,-160,88
2845,288,-2312,-352,103,-159,70
2850,344,-2312,-296,110,-157,43
2855,408,-2320,-312,116,-156,15
2860,448,-2304,-264,121,-156,-16
2865,480,-2312,-248,130,-158,-48
2870,496,-2328,-232,146,-155,-76
2875,488,-2312,-144,168,-146,-100
2880,488,-2344,-112,193,-135,-122
2885,464,-2360,-112,218,-122,-138
2890,448,-2384,-120,234,-104,-155
2895,440,-2464,-128,238,-87,-172
2900,448,-2520,-224,223,-70,-192
2905,432,-2584,-344,186,-53,-214
2910,392,-2648,-424,136,-40,-237
2915,416,-2760,-560,79,-35,-257
2920,376,-2864,-672,20,-33,-273
2925,352,-3008,-792,-28,-38,-288
2930,320,-3056,-832,-57,-37,-298
2935,328,-3096,-888,-63,-29,-306
2940,328,-3096,-952,-42,-4,-316
2945,344,-3048,-984,2,32,-324
2950,328,-2984,-1056,51,75,-333
2955,312,-2880,-1120,100,117,-342
2960,256,-2728,-1192,134,151,-347
2965,192,-2568,-1240,158,177,-345
2970,128,-2408,-1336,166,190,-335
2975,72,-2200,-1384,164,193,-317
2980,8,-2032,-1408,153,190,-295
2985,0,-1880,-1392,139,185,-277
2990,-48,-1720,-1360,126,174,-260
2995,-104,-1656,-1304,122,156,-244
3000,-120,-1552,-1272,124,126,-235
3005,-120,-1512,-1240,125,86,-228
3010,-136,-1448,-1184,126,40,-225
3015,-104,-1408,-1160,120,-5,-223
3020,-96,-1384,-1120,108,-46,-221
3025,-80,-1384,-1072,82,-83,-217
3030,-56,-1456,-1032,47,-117,-207
3035,-48,-1520,-1048,9,-148,-195
3040,-48,-1552,-1000,-35,-171,-176
3045,-40,-1632,-960,-84,-186,-150
3050,-16,-1680,-920,-129,-193,-121
3055,-24,-1768,-864,-166,-193,-90
3060,16,-1840,-808,-192,-185,-60
3065,16,-1888,-784,-206,-175,-32
3070,80,-1984,-760,-219,-159,-7
3075,144,-2024,-752,-229,-143,9
3080,248,-2064,-784,-243,-128,21
3085,304,-2072,-792,-261,-113,26
3090,384,-2120,-824,-283,-102,28
3095,432,-2160,-824,-306,-88,26
3100,488,-2184,-848,-324,-69,24
3105,560,-2264,-1008,-339,-46,22
3110,536,-2184,-928,-345,-17,25
3115,512,-2168,-896,-343,17,29
3120,496,-2152,-992,-334,53,39
3125,432,-2128,-992,-320,92,54
3130,392,-2056,-1000,-300,129,72
3135,296,-2048,-952,-275,160,93
3140,232,-2024,-928,-243,186,114
3145,184,-2032,-912,-206,209,136
3150,152,-1968,-912,-171,223,155
3155,80,-1952,-896,-141,238,169
3160,48,-1936,-872,-117,252,179
3165,8,-1904,-864,-94,263,184
3170,8,-1944,-872,-80,275,186
3175,8,-1936,-856,-67,280,186
3180,-32,-1960,-816,-54,285,185
3185,-16,-1976,-816,-43,288,184
3190,0,-1968,-792,-30,287,182
3195,24,-1960,-792,-19,288,179
3200,16,-1976,-736,-12,295,176
3205,32,-1968,-712,-10,301,176
3210,16,-1960,-728,-10,302,179
3215,32,-1952,-696,-9,300,184
3220,24,-1952,-672,-12,291,188
3225,56,-1936,-672,-13,281,198
3230,16,-1912,-656,-14,269,206
3235,24,-1888,-616,-15,257,214
3240,8,-1856,-584,-21,243,218
3245,0,-1840,-600,-26,227,220
3250,8,-1832,-592,-33,216,222
3255,-8,-1808,-584,-37,209,220
3260,0,-1784,-552,-41,206,220
3265,0,-1776,-552,-44,207,218
3270,0,-1752,-560,-44,208,209
3275,16,-1760,-552,-44,211,200
3280,16,-1768,-512,-47,209,191
3285,16,-1768,-496,-50,206,182
3290,24,-1776,-472,-53,199,172
3295,48,-1808,-496,-56,193,163
3300,72,-1840,-504,-61,183,154
3305,88,-1888,-480,-66,174,147
3310,120,-1952,-512,-67,165,138
3315,136,-1960,-512,-67,162,127
3320,136,-1976,-496,-68,162,118
3325,120,-2008,-496,-68,162,107
3330,144,-2008,-496,-65,164,94
3335,152,-2016,-480,-59,168,79
3340,136,-2016,-496,-50,169,61
3345,144,-1976,-480,-41,173,43
3350,128,-2016,-488,-27,174,24
3355,104,-1992,-464,-13,176,5
3360,136,-2016,-456,2,176,-13
3365,120,-2024,-440,18,179,-29
3370,120,-2056,-400,35,183,-43
3375,120,-2064,-408,51,189,-55
3380,96,-2104,-400,65,196,-64
3385,48,-2096,-416,77,205,-71
3390,48,-2128,-440,85,211,-69
3395,32,-2144,-400,91,220,-65
3400,24,-2192,-360,97,228,-56
3405,8,-2208,-416,102,239,-44
3410,-8,-2264,-384,104,251,-29
3415,0,-2280,-376,105,263,-14
3420,8,-2320,-368,105,275,2
3425,24,-2376,-352,104,280,15
3430,16,-2360,-368,103,283,25
3435,48,-2352,-336,102,284,35
3440,80,-2360,-344,105,284,43
3445,72,-2304,-336,108,285,46
3450,120,-2304,-288,116,287,47
3455,120,-2288,-216,127,293,44
3460,160,-2296,-200,143,303,37
3465,184,-2256,-144,165,313,25
3470,184,-2256,-80,192,331,12
3475,216,-2240,-48,223,352,-1
3480,264,-2256,-16,253,377,-16
3485,248,-2256,-184,274,405,-30
3490,328,-2384,-184,277,429,-36
3495,352,-2432,-320,261,447,-34
3500,304,-2536,-464,217,456,-24
3505,256,-2648,-608,145,458,-7
3510,160,-2744,-696,47,459,17
3515,72,-2896,-840,-61,461,47
3520,-16,-2984,-936,-150,465,82
3525,-176,-3032,-976,-197,458,124
3530,-312,-2976,-1000,-194,438,169
3535,-400,-2888,-1088,-151,410,214
3540,-472,-2744,-1120,-87,375,251
3545,-448,-2624,-1168,-28,337,281
3550,-408,-2496,-1224,19,296,301
3555,-256,-2352,-1216,54,256,314
3560,-160,-2168,-1272,75,220,315
3565,-40,-1984,-1328,91,187,302
3570,32,-1832,-1328,94,160,282
3575,104,-1664,-1416,92,139,256
3580,144,-1536,-1424,80,127,233
3585,224,-1464,-1408,68,122,209
3590,272,-1384,-1424,51,120,189
3595,304,-1368,-1336,34,120,170
3600,328,-1392,-1240,21,124,155
3605,336,-1480,-1160,13,128,146
3610,336,-1504,-1064,13,130,139
3615,360,-1592,-1032,15,134,135
3620,368,-1696,-944,19,140,128
3625,368,-1808,-896,20,146,119
3630,400,-1912,-872,20,152,108
3635,400,-1992,-816,16,152,94
3640,360,-2056,-768,4,144,79
3645,328,-2104,-744,-9,126,62
3650,224,-2128,-712,-31,98,45
3655,152,-2176,-704,-55,62,28
3660,40,-2192,-720,-81,24,13
3665,-80,-2160,-696,-108,-14,-1
3670,-176,-2160,-688,-131,-50,-16
3675,-280,-2144,-648,-152,-85,-30
3680,-376,-2112,-664,-163,-121,-43
3685,-440,-2104,-680,-171,-156,-58
3690,-480,-2040,-704,-173,-199,-79
3695,-456,-2008,-720,-174,-245,-102
3700,-424,-1936,-696,-173,-293,-129
3705,-320,-1904,-672,-163,-343,-158
3710,-240,-1856,-672,-149,-390,-187
3715,-128,-1808,-688,-133,-430,-216
3720,-40,-1784,-672,-121,-466,-242
3725,48,-1800,-688,-112,-493,-263
3730,104,-1784,-728,-109,-513,-283
3735,168,-1760,-736,-111,-527,-299
3740,232,-1792,-712,-114,-537,-310
3745,296,-1784,-736,-119,-546,-316
3750,328,-1808,-720,-125,-551,-321
3755,344,-1848,-728,-135,-556,-322
3760,344,-1888,-752,-148,-561,-321
3765,352,-1904,-736,-161,-562,-316
3770,336,-1968,-688,-176,-563,-311
3775,296,-1968,-688,-190,-565,-305
3780,272,-1992,-680,-202,-560,-297
3785,216,-2008,-648,-217,-558,-291
3790,192,-2008,-576,-225,-561,-285
3795,184,-2048,-600,-226,-565,-280
3800,176,-2040,-536,-223,-570,-277
3805,160,-2040,-536,-215,-571,-271
3810,200,-1992,-544,-204,-574,-268
3815,200,-1968,-560,-194,-573,-268
3820,216,-1936,-568,-185,-571,-269
3825,224,-1904,-528,-169,-570,-269
3830,272,-1904,-520,-151,-566,-266
3835,264,-1848,-520,-134,-557,-262
3840,312,-1848,-520,-116,-547,-254
3845,296,-1832,-520,-102,-538,-242
3850,304,-1824,-528,-91,-528,-228
3855,312,-1816,-504,-84,-520,-214
3860,296,-1824,-536,-84,-512,-195
3865,272,-1784,-624,-87,-504,-179
3870,288,-1840,-536,-91,-496,-159
3875,256,-1904,-496,-97,-489,-140
3880,232,-1888,-520,-105,-483,-124
3885,184,-1896,-512,-116,-471,-112
3890,200,-1936,-496,-125,-459,-100
3895,176,-1928,-480,-131,-452,-91
3900,184,-1952,-496,-135,-443,-86
3905,176,-1912,-488,-139,-430,-81
3910,160,-1896,-488,-135,-422,-77
3915,144,-1880,-504,-127,-412,-75
3920,168,-1888,-504,-118,-408,-72
3925,176,-1880,-480,-108,-401,-65
3930,160,-1896,-536,-104,-395,-63
3935,152,-1904,-496,-101,-391,-55
3940,144,-1888,-488,-93,-392,-48
3945,176,-1920,-472,-89,-392,-41
3950,184,-1944,-480,-87,-394,-33
3955,176,-1952,-480,-91,-399,-30
3960,192,-1960,-448,-98,-409,-27
3965,184,-2000,-448,-109,-425,-26
3970,176,-2032,-424,-118,-443,-26
3975,184,-2056,-464,-124,-463,-24
3980,168,-2072,-448,-132,-480,-20
3985,152,-2112,-416,-135,-496,-18
3990,136,-2120,-448,-136,-509,-15
3995,136,-2160,-424,-134,-523,-13
4000,120,-2176,-408,-130,-534,-8
4005,104,-2192,-408,-119,-546,-5
4010,104,-2240,-360,-105,-558,-1
4015,96,-2264,-344,-86,-572,2
4020,128,-2312,-280,-60,-590,5
4025,120,-2344,-240,-31,-605,4
4030,136,-2376,-184,2,-618,1
4035,152,-2424,-232,35,-632,-6
4040,152,-2464,-192,64,-646,-14
4045,160,-2472,-184,82,-658,-28
4050,208,-2472,-208,90,-669,-48
4055,192,-2488,-200,88,-674,-65
4060,192,-2488,-192,86,-676,-80
4065,208,-2528,-168,92,-681,-96
4070,184,-2512,-104,101,-686,-110
4075,-224,-2520,-88,116,-694,-122
4080,72,-2536,-24,148,-723,-165
4085,48,-2488,16,185,-736,-179
4090,-16,-2472,56,210,-736,-168
4095,-104,-2432,176,226,-767,-170
4100,-72,-2416,96,228,-848,-207
4105,-112,-2320,48,284,-839,-180
4110,-152,-2272,-80,305,-840,-148
4115,-136,-2264,-208,280,-873,-137
4120,-56,-2344,-392,208,-911,-138
4125,8,-2480,-648,95,-945,-145
4130,72,-2656,-944,-35,-976,-156
4135,160,-2880,-1128,-166,-989,-170
4140,232,-3080,-1208,-274,-988,-184
4145,360,-3296,-1256,-323,-969,-212
4150,488,-3488,-1248,-296,-935,-259
4155,632,-3592,-1248,-216,-880,-330
4160,720,-3672,-1336,-110,-806,-425
4165,744,-3632,-1488,1,-729,-522
4170,744,-3480,-1664,96,-650,-613
4175,736,-3208,-1840,158,-559,-677
4180,648,-2912,-1968,187,-463,-712
4185,584,-2608,-2008,201,-377,-727
4190,472,-2320,-2032,217,-310,-727
4195,360,-2064,-1984,228,-266,-711
4200,320,-1832,-1888,236,-236,-689
4205,232,-1608,-1720,247,-216,-664
4210,72,-1440,-1584,255,-213,-635
4215,-56,-1248,-1488,255,-234,-600
4220,-216,-1128,-1376,237,-276,-557
4225,-328,-1072,-1264,207,-325,-506
4230,-344,-1088,-1136,164,-372,-445
4235,-432,-1152,-1040,115,-412,-376
4240,-496,-1296,-856,67,-453,-300
4245,-488,-1344,-968,16,-490,-223
4250,-448,-1504,-928,-36,-519,-143
4255,-400,-1584,-952,-88,-546,-69
4260,-320,-1704,-936,-137,-574,-1
4265,-224,-1792,-920,-187,-599,62
4270,-80,-1896,-912,-229,-622,115
4275,32,-1960,-944,-267,-642,155
4280,168,-1984,-920,-295,-653,182
4285,232,-1992,-920,-317,-660,195
4290,344,-1992,-888,-329,-662,196
4295,432,-1976,-896,-335,-657,186
4300,496,-1984,-904,-336,-645,171
4305,496,-1944,-896,-330,-625,150
4310,512,-1928,-872,-325,-599,121
4315,512,-1896,-888,-312,-566,90
4320,496,-1840,-840,-294,-533,63
4325,456,-1840,-832,-274,-503,38
4330,360,-1816,-832,-243,-474,22
4335,256,-1808,-800,-210,-449,15
4340,192,-1800,-760,-176,-433,12
4345,128,-1792,-768,-141,-422,13
4350,80,-1792,-736,-112,-411,20
4355,0,-1888,-632,-96,-399,39
4360,-64,-1912,-704,-79,-409,43
4365,-96,-1912,-680,-56,-411,48
4370,-128,-1912,-680,-43,-405,51
4375,-128,-1936,-672,-32,-400,56
4380,-88,-1936,-664,-23,-387,64
4385,-64,-1912,-696,-13,-372,75
4390,-8,-1928,-672,-4,-350,93
4395,32,-1944,-688,0,-325,112
4400,64,-1928,-704,3,-305,125
4405,104,-1928,-704,0,-286,135
4410,152,-1904,-672,-2,-266,144
4415,200,-1920,-680,-1,-248,153
4420,216,-1928,-632,2,-233,161
4425,224,-1944,-648,8,-221,166
4430,224,-1952,-656,13,-206,172
4435,232,-1944,-616,19,-189,174
4440,232,-1968,-640,26,-171,173
4445,216,-1984,-600,33,-150,172
4450,200,-2000,-584,40,-128,168
4455,184,-2024,-576,47,-98,161
4460,176,-2040,-584,56,-66,153
4465,192,-2048,-560,69,-27,141
4470,192,-2056,-544,80,12,133
4475,184,-2056,-552,85,52,123
4480,200,-2056,-568,87,89,112
4485,216,-2024,-576,88,126,104
4490,216,-2016,-544,87,163,95
4495,224,-1992,-584,84,198,90
4500,240,-1952,-592,80,227,85
4505,216,-1920,-560,77,251,82
4510,272,-1912,-600,71,273,80
4515,240,-1880,-560,68,293,80
4520,264,-1896,-568,64,310,81
4525,232,-1896,-568,64,326,82
4530,240,-1904,-536,68,341,82
4535,232,-1928,-544,73,356,83
4540,240,-1936,-496,81,373,81
4545,208,-1968,-520,89,392,81
4550,232,-2016,-488,94,415,81
4555,224,-2000,-480,98,442,80
4560,208,-2024,-464,99,471,76
4565,216,-2040,-456,103,496,70
4570,192,-2048,-440,111,518,66
4575,160,-2056,-456,118,536,61
4580,136,-2064,-472,122,548,58
4585,104,-2048,-456,115,551,55
4590,72,-2072,-472,104,548,56
4595,64,-2096,-424,93,538,60
4600,40,-2104,-440,82,525,68
4605,32,-2104,-424,78,517,80
4610,8,-2128,-432,79,511,93
4615,216,-2080,-304,70,519,106
4620,16,-2216,-208,28,553,135
4625,8,-2168,-376,54,532,128
4630,8,-2168,-368,79,529,126
4635,16,-2192,-328,93,527,126
4640,56,-2200,-288,102,526,126
4645,72,-2208,-280,108,530,125
4650,96,-2192,-264,117,541,122
4655,128,-2152,-272,125,557,118
4660,200,-2112,-240,129,575,109
4665,200,-2136,-248,136,596,99
4670,264,-2112,-264,139,616,86
4675,288,-2120,-264,143,634,73
4680,288,-2136,-288,149,655,63
4685,256,-2208,-352,148,676,57
4690,224,-2288,-400,143,694,53
4695,200,-2416,-472,126,711,54
4700,176,-2552,-520,90,727,66
4705,128,-2696,-664,37,745,80
4710,112,-2848,-784,-30,761,95
4715,-8,-2960,-872,-92,769,110
4720,-144,-3008,-1000,-144,762,129
4725,-240,-3016,-1064,-171,735,147
4730,-376,-2960,-1184,-171,686,166
4735,-424,-2888,-1272,-151,630,183
4740,-392,-2808,-1344,-122,576,200
4745,-400,-2672,-1400,-96,525,214
4750,-320,-2528,-1472,-82,478,222
4755,-264,-2352,-1488,-76,425,225
4760,-160,-2168,-1512,-79,362,221
4765,-112,-2024,-1472,-79,292,216
4770,-24,-1848,-1472,-76,228,205
4775,0,-1656,-1448,-69,174,198
4780,88,-1536,-1400,-64,137,189
4785,144,-1440,-1400,-68,120,187
4790,216,-1344,-1312,-76,113,187
4795,280,-1272,-1224,-89,110,187
4800,392,-1256,-1152,-107,107,184
4805,472,-1272,-1104,-125,105,186
4810,528,-1352,-1008,-142,104,190
4815,560,-1424,-920,-151,103,192
4820,552,-1528,-832,-157,106,190
4825,552,-1600,-752,-163,112,185
4830,552,-1720,-744,-179,119,172
4835,520,-1840,-728,-194,124,156
4840,488,-1952,-664,-213,128,136
4845,440,-2048,-712,-236,127,112
4850,336,-2120,-688,-259,127,86
4855,288,-2200,-704,-286,126,59
4860,200,-2224,-712,-316,125,32
4865,120,-2232,-712,-343,124,7
4870,64,-2232,-776,-367,122,-17
4875,48,-2176,-808,-387,121,-37
4880,8,-2104,-816,-398,122,-50
4885,8,-2040,-832,-405,120,-62
4890,24,-1944,-848,-399,116,-67
4895,48,-1888,-840,-380,112,-72
4900,72,-1816,-792,-354,108,-76
4905,136,-1792,-768,-322,102,-82
4910,168,-1784,-744,-288,97,-86
4915,216,-1760,-728,-259,93,-88
4920,256,-1824,-688,-230,85,-92
4925,288,-1832,-704,-212,76,-92
4930,320,-1904,-680,-206,66,-91
4935,312,-1992,-672,-204,56,-88
4940,320,-2016,-632,-208,44,-87
4945,304,-2056,-688,-216,30,-85
4950,280,-2064,-648,-220,17,-83
4955,224,-2088,-624,-222,6,-81
4960,224,-2112,-656,-222,-6,-81
4965,216,-2072,-656,-220,-15,-82
4970,168,-2032,-640,-216,-23,-82
4975,168,-2040,-624,-212,-32,-84
4980,80,-1968,-616,-209,-43,-87
4985,88,-1952,-616,-208,-56,-91
4990,72,-1936,-600,-208,-79,-96
4995,64,-1896,-568,-205,-102,-101
5000,48,-1984,-408,-204,-127,-111
5005,88,-1896,-472,-201,-151,-118
5010,88,-1888,-480,-196,-173,-128
5015,64,-1920,-480,-188,-195,-135
5020,80,-1968,-472,-177,-216,-143
5025,112,-2024,-448,-165,-233,-150
5030,112,-2072,-464,-151,-253,-151
5035,104,-2120,-456,-141,-273,-150
5040,96,-2144,-448,-132,-296,-146
5045,88,-2176,-488,-125,-315,-139
5050,56,-2184,-512,-114,-333,-127
5055,48,-2144,-520,-106,-350,-113
5060,88,-2144,-552,-98,-365,-98
5065,40,-2152,-552,-91,-380,-81
5070,56,-2120,-584,-84,-395,-66
5075,56,-2128,-560,-75,-408,-52
5080,144,-2088,-560,-64,-418,-42
5085,160,-2080,-560,-49,-424,-39
5090,240,-2096,-520,-30,-428,-42
5095,336,-2112,-512,-9,-425,-54
5100,432,-2120,-504,10,-417,-78
5105,504,-2128,-512,25,-404,-110
5110,504,-2168,-480,37,-394,-149
5115,536,-2192,-504,45,-397,-188
5120,512,-2176,-456,53,-408,-226
5125,488,-2176,-520,57,-426,-259
5130,456,-2200,-512,60,-447,-287
5135,448,-2136,-528,72,-465,-314
5140,384,-2080,-520,88,-468,-306
5145,344,-2048,-472,114,-471,-297
5150,264,-2040,-456,142,-475,-285
5155,240,-2000,-424,177,-481,-269
5160,136,-1944,-392,211,-492,-248
5165,96,-1920,-400,241,-507,-230
5170,48,-1912,-384,259,-532,-212
5175,8,-1864,-432,263,-564,-194
5180,-16,-1880,-504,249,-604,-176
5185,-48,-1920,-584,218,-645,-159
5190,-56,-2008,-672,171,-684,-148
5195,-72,-2120,-752,117,-717,-139
5200,-72,-2272,-824,55,-746,-132
5205,-48,-2424,-920,-3,-772,-129
5210,-24,-2536,-1000,-57,-786,-128
5215,72,-2624,-1032,-100,-789,-131
5220,208,-2760,-1120,-130,-780,-139
5225,296,-2864,-1152,-145,-760,-155
5230,384,-2944,-1248,-146,-738,-178
5235,448,-2944,-1304,-139,-720,-205
5240,456,-2928,-1344,-122,-705,-228
5245,424,-2824,-1344,-99,-688,-253
5250,424,-2760,-1352,-68,-669,-270
5255,344,-2576,-1352,-25,-644,-278
5260,232,-2424,-1368,21,-616,-279
5265,160,-2240,-1280,62,-585,-277
5270,80,-2048,-1272,93,-557,-269
5275,8,-1856,-1200,115,-535,-260
5280,-16,-1672,-1144,133,-520,-248
5285,-16,-1544,-1040,149,-520,-235
5290,-56,-1440,-1024,160,-535,-221
5295,-72,-1328,-928,177,-559,-205
5300,-112,-1232,-832,191,-586,-191
5305,-72,-1216,-784,204,-613,-176
5310,-56,-1192,-720,210,-640,-160
5315,-8,-1216,-696,200,-664,-147
5320,16,-1272,-640,171,-681,-138
5325,56,-1384,-640,126,-699,-126
5330,64,-1504,-616,59,-712,-113
5335,96,-1600,-584,-15,-721,-100
5340,120,-1744,-584,-92,-725,-83
5345,160,-1872,-592,-166,-723,-63
5350,104,-2008,-624,-229,-719,-43
5355,160,-2144,-608,-286,-711,-19
5360,144,-2288,-640,-334,-702,4
5365,216,-2392,-584,-374,-689,26
5370,152,-2472,-720,-407,-668,49
5375,152,-2488,-760,-431,-648,69
5380,104,-2576,-864,-445,-625,88
5385,88,-2472,-832,-447,-602,99
5390,56,-2400,-824,-435,-584,104
5395,24,-2320,-824,-410,-567,105
5400,8,-2248,-832,-375,-555,104
5405,-8,-2192,-824,-330,-543,100
5410,-24,-2176,-784,-277,-532,97
5415,-16,-2128,-728,-220,-520,92
5420,0,-2104,-736,-164,-507,86
5425,-32,-2072,-704,-110,-493,80
5430,-8,-2072,-720,-64,-479,73
5435,-16,-2056,-704,-34,-464,67
5440,0,-2048,-720,-3,-452,61
5445,0,-2048,-696,22,-440,54
5450,24,-2024,-728,40,-431,50
5455,40,-2016,-704,56,-420,45
5460,64,-1976,-728,69,-409,42
5465,72,-1968,-712,79,-398,38
5470,120,-1928,-704,85,-391,35
5475,80,-1888,-656,88,-379,33
5480,88,-1888,-664,88,-367,33
5485,96,-1880,-624,86,-353,36
5490,112,-1864,-576,83,-340,36
5495,104,-1872,-576,77,-327,37
5500,112,-1856,-560,74,-314,37
5505,80,-1864,-536,65,-302,37
5510,72,-1848,-504,55,-286,36
5515,40,-1896,-496,50,-270,32
5520,32,-1872,-472,45,-253,26
5525,56,-1920,-440,43,-234,17
5530,64,-1928,-424,47,-217,3
5535,48,-1952,-424,50,-197,-12
5540,80,-1976,-416,58,-176,-30
5545,88,-2016,-424,66,-154,-52
5550,104,-2024,-416,76,-134,-73
5555,136,-2040,-408,95,-116,-94
5560,144,-2048,-384,117,-98,-117
5565,144,-2064,-384,142,-85,-140
5570,112,-2080,-408,170,-78,-163
5575,120,-2080,-416,196,-73,-183
5580,80,-2096,-432,218,-69,-198
5585,24,-2080,-456,232,-68,-212
5590,56,-2104,-464,241,-67,-221
5595,64,-2104,-448,247,-57,-228
5600,64,-2072,-472,250,-42,-234
5605,104,-2088,-464,253,-20,-239
5610,152,-2104,-504,252,3,-246
5615,216,-2088,-512,250,22,-251
5620,248,-2072,-512,240,37,-259
5625,264,-2064,-520,228,42,-261
5630,264,-2080,-512,217,39,-261
5635,208,-2104,-512,209,33,-255
5640,176,-2112,-472,210,30,-243
5645,152,-2152,-472,223,30,-234
5650,88,-2216,-488,245,33,-217
5655,80,-2288,-440,274,43,-198
5660,80,-2376,-472,303,62,-172
5665,152,-2464,-504,327,88,-145
5670,216,-2536,-600,332,120,-126
5675,264,-2648,-736,316,154,-108
5680,344,-2728,-832,281,188,-82
5685,400,-2832,-976,226,221,-50
5690,416,-2840,-1096,148,250,-12
5695,328,-2888,-1152,65,265,35
5700,240,-2840,-1272,25,237,80
5705,176,-2680,-1360,28,194,138
5710,136,-2544,-1424,63,163,204
5715,96,-2344,-1512,102,159,266
5720,48,-2088,-1520,129,182,325
5725,48,-1824,-1496,144,227,375
5730,40,-1520,-1424,155,280,415
5735,88,-1192,-1320,168,331,441
5740,112,-952,-1296,186,369,452
5745,192,-848,-1264,206,389,450
5750,304,-872,-1280,215,391,435
5755,312,-944,-1360,203,377,405
5760,368,-1216,-1248,165,355,373
5765,392,-1560,-1136,102,330,340
5770,432,-1904,-1080,21,303,302
5775,464,-2304,-992,-73,281,264
5780,464,-2672,-888,-157,261,224
5785,464,-2984,-864,-216,235,179
5790,440,-3256,-848,-253,205,134
5795,360,-3440,-880,-273,171,85
5800,320,-3512,-992,-280,134,42
5805,248,-3480,-1120,-273,103,8
5810,176,-3352,-1216,-250,78,-15
5815,144,-3136,-1208,-202,69,-36
5820,128,-2920,-1200,-130,65,-48
5825,120,-2696,-1152,-53,62,-55
5830,120,-2488,-1032,21,52,-57
5835,88,-2248,-976,87,35,-59
5840,64,-2056,-880,155,12,-56
5845,48,-1912,-776,223,-23,-53
5850,32,-1744,-752,291,-62,-53
5855,16,-1664,-704,350,-100,-53
5860,16,-1584,-720,404,-135,-54
5865,8,-1536,-696,447,-165,-53
5870,24,-1520,-696,479,-193,-52
5875,0,-1512,-736,498,-218,-52
5880,24,-1536,-728,501,-246,-52
5885,16,-1552,-736,490,-277,-54
5890,16,-1568,-760,460,-310,-56
5895,8,-1600,-792,416,-348,-62
5900,48,-1632,-752,365,-389,-68
5905,48,-1624,-776,309,-433,-77
5910,80,-1664,-752,250,-477,-84
5915,120,-1672,-736,195,-521,-97
5920,136,-1656,-720,152,-561,-111
5925,136,-1624,-680,116,-602,-124
5930,144,-1616,-688,93,-640,-136
5935,184,-1600,-672,81,-674,-144
5940,176,-1592,-576,81,-705,-142
5945,184,-1584,-592,92,-734,-138
5950,200,-1576,-584,109,-766,-134
5955,232,-1544,-672,126,-805,-137
5960,360,-1568,-608,118,-851,-161
5965,392,-1584,-544,134,-858,-120
5970,408,-1600,-616,160,-871,-90
5975,504,-1552,-632,174,-873,-65
5980,512,-1560,-648,174,-860,-27
5985,536,-1584,-656,168,-852,0
5990,600,-1576,-672,156,-844,18
5995,616,-1568,-672,145,-836,29
6000,648,-1544,-680,137,-828,38
6005,640,-1520,-688,131,-819,42
6010,656,-1464,-752,126,-805,40
6015,632,-1416,-744,118,-789,33
6020,632,-1392,-712,112,-771,21
6025,616,-1328,-728,107,-752,10
6030,552,-1272,-704,107,-732,-2
6035,528,-1272,-728,113,-712,-10
6040,512,-1232,-728,130,-692,-10
6045,504,-1216,-712,152,-673,-1
6050,488,-1256,-712,173,-653,14
6055,456,-1280,-672,190,-635,38
6060,480,-1336,-688,200,-623,71
6065,472,-1400,-664,211,-612,112
6070,464,-1432,-608,221,-608,157
6075,464,-1472,-592,228,-609,203
6080,464,-1520,-568,233,-619,253
6085,480,-1504,-584,236,-635,296
6090,464,-1472,-576,243,-655,336
6095,456,-1408,-640,245,-674,368
6100,448,-1360,-616,242,-685,393
6105,456,-1224,-648,239,-680,409
6110,448,-1176,-608,235,-656,414
6115,456,-1080,-544,224,-620,409
6120,456,-1064,-512,207,-580,394
6125,440,-968,-480,198,-539,376
6130,448,-872,-432,194,-511,358
6135,488,-840,-328,198,-500,342
6140,472,-664,-400,211,-502,338
6145,480,-608,-376,229,-511,354
6150,504,-592,-376,238,-524,382
6155,496,-568,-408,234,-533,429
6160,520,-616,-408,217,-533,490
6165,512,-744,-384,191,-538,537
6170,560,-936,-304,191,-541,585
6175,520,-936,-432,234,-535,645
6180,448,-840,-416,234,-497,664
6185,416,-896,-400,148,-452,683
6190,392,-920,-480,58,-417,693
6195,312,-912,-488,-4,-393,702
6200,272,-920,-480,-63,-385,708
6205,232,-976,-552,-118,-398,706
6210,168,-992,-600,-158,-426,701
6215,120,-1008,-624,-181,-461,701
6220,104,-1064,-584,-180,-497,699
6225,56,-1144,-552,-161,-560,697
6230,32,-1256,-520,-125,-645,702
6235,16,-1408,-472,-60,-749,708
6240,0,-1504,-424,23,-872,721
6245,-8,-1576,-408,107,-1005,742
6250,-80,-1624,-400,173,-1127,773
6255,-88,-1688,-432,215,-1227,829
6260,-136,-1688,-504,241,-1305,878
6265,-176,-1648,-576,247,-1341,927
6270,-152,-1552,-592,245,-1344,974
6275,-112,-1488,-632,227,-1305,1018
6280,-80,-1320,-664,201,-1239,1050
6285,8,-1160,-704,170,-1153,1073
6290,152,-1056,-688,135,-1055,1084
6295,304,-1008,-720,109,-952,1095
6300,448,-976,-744,89,-852,1086
6305,552,-1000,-744,89,-764,1050
6310,672,-1064,-752,88,-678,1024
6315,720,-1176,-752,79,-604,1009
6320,792,-1328,-744,90,-544,1005
6325,784,-1496,-752,119,-477,1020
6330,784,-1624,-744,165,-397,1056
6335,712,-1696,-728,222,-301,1110
6340,664,-1712,-800,280,-190,1175
6345,608,-1632,-824,324,-61,1249
6350,512,-1584,-848,355,82,1331
6355,368,-1504,-832,373,212,1419
6360,176,-1488,-736,383,306,1510
6365,-8,-1512,-584,400,357,1605
6370,-256,-1504,-384,437,372,1705
6375,-384,-1616,-344,496,366,1816
6380,-464,-1712,-256,562,366,1929
6385,-552,-1792,-176,629,392,2031
6390,-528,-1896,-184,711,430,2116
6395,-504,-2016,-240,808,473,2175
6400,-456,-2176,-216,924,501,2206
6405,-424,-2328,-280,1052,501,2210
6410,-440,-2408,-296,1150,469,2187
6415,-400,-2440,-232,1202,394,2139
6420,-376,-2432,-256,1228,268,2080
6425,-440,-2360,-320,1243,126,2027
6430,-448,-2280,-256,1256,18,1989
6435,-512,-2296,8,1272,-40,1968
6440,-352,-2304,264,1294,-93,1947
6445,-152,-2376,448,1329,-154,1905
6450,88,-2392,440,1355,-221,1856
6455,216,-2528,520,1354,-297,1798
6460,96,-2632,576,1374,-366,1755
6465,-104,-2664,352,1426,-411,1745
6470,-360,-2656,8,1429,-429,1776
6475,-640,-2616,-272,1371,-433,1848
6480,-824,-2576,-352,1275,-440,1934
6485,-1152,-2568,-96,1179,-461,2005
6490,-1424,-2800,224,1144,-530,2067
6495,-1872,-3168,400,1184,-633,2094
6500,-2400,-3456,272,1290,-747,2088
6505,-3008,-3560,48,1406,-831,2106
6510,-3768,-3624,-128,1497,-868,2169
6515,-4552,-3920,-232,1580,-932,2233
6520,-5304,-4272,-400,1649,-1001,2304
6525,-5776,-4784,-656,1695,-1104,2370
6530,-6312,-5040,-920,1703,-1184,2390
6535,-6280,-5088,-1088,1652,-1290,2448
6540,-5696,-5088,-1136,1631,-1385,2488
6545,-5056,-4888,-1032,1669,-1415,2461
6550,-4592,-4456,-784,1800,-1394,2422
6555,-3864,-3816,-584,2031,-1348,2450
6560,-3384,-3208,-248,2324,-1250,2559
6565,-2856,-2816,40,2643,-1157,2738
6570,-2888,-2664,368,2898,-1087,2909
6575,-2920,-2528,776,3072,-1038,3070
6580,-2344,-1976,616,3205,-967,3220
6585,-1656,-1168,680,3258,-781,3358
6590,-1408,-552,1016,3204,-598,3465
6595,-1496,-288,1424,3063,-591,3526
6600,-1640,-320,1592,2886,-750,3527
6605,-1776,-512,1472,2774,-927,3459
6610,-2232,-648,1208,2786,-966,3366
6615,-2680,-648,816,2898,-927,3300
6620,-2920,-632,600,2989,-900,3232
6625,-3024,-568,576,3011,-922,3101
6630,-3144,-496,632,2970,-1013,2869
6635,-3064,-400,520,2865,-1166,2572
6640,-2728,-248,344,2692,-1269,2267
6645,-2240,-160,280,2485,-1273,1979
6650,-1848,0,376,2275,-1204,1724
6655,-1496,-48,560,2065,-1115,1500
6660,-1312,-96,776,1885,-1021,1294
6665,-1104,-128,880,1769,-975,1089
6670,-904,-8,912,1661,-986,898
6675,-832,104,1024,1550,-1013,731
6680,-968,200,1032,1466,-1028,601
6685,-1160,368,1080,1429,-1021,528
6690,-1296,472,1048,1441,-1014,501
6695,-1448,576,968,1505,-1014,495
6700,-1544,632,880,1625,-1048,490
6705,-1496,632,832,1781,-1112,489
6710,-1384,504,840,1933,-1146,490
6715,-1480,352,912,2067,-1158,491
6720,-1552,264,944,2174,-1194,488
6725,-1352,176,768,2234,-1271,467
6730,-1368,280,792,2237,-1348,404
6735,-1184,312,672,2236,-1427,349
6740,-1032,432,712,2241,-1469,275
6745,-1144,592,824,2268,-1472,197
6750,-1312,616,976,2300,-1488,126
6755,-1000,880,920,2261,-1511,16
6760,-920,1016,1048,2168,-1491,-108
6765,-856,1152,1304,2070,-1440,-231
6770,-880,1216,1552,1998,-1388,-326
6775,-768,1128,1640,1947,-1359,-395
6780,-688,1208,1632,1902,-1338,-437
6785,-672,1144,1672,1847,-1326,-464
6790,-624,1056,1648,1796,-1318,-487
6795,-640,984,1680,1758,-1303,-509
6800,-544,872,1672,1738,-1261,-534
6805,-616,864,1712,1743,-1164,-568
6810,-816,896,1752,1726,-1080,-616
6815,-928,864,1784,1674,-1012,-657
6820,-984,816,1760,1628,-946,-684
6825,-1032,752,1784,1578,-893,-710
6830,-1080,696,1712,1526,-844,-724
6835,-1128,592,1640,1466,-791,-740
6840,-1160,712,1592,1411,-738,-754
6845,-1024,808,1576,1361,-684,-761
6850,-936,984,1552,1291,-632,-760
6855,-760,1056,1592,1198,-575,-740
6860,-656,1160,1656,1090,-517,-719
6865,-552,1312,1664,979,-472,-690
6870,-504,1424,1688,865,-434,-666
6875,-536,1520,1728,763,-414,-644
6880,-552,1552,1648,679,-422,-625
6885,-648,1568,1632,609,-445,-610
6890,-752,1496,1536,547,-476,-597
6895,-712,1408,1504,490,-494,-593
6900,-832,1352,1520,431,-477,-594
6905,-840,1280,1520,371,-448,-587
6910,-744,1216,1504,299,-401,-584
6915,-728,1160,1528,232,-331,-584
6920,-736,1064,1552,187,-263,-571
6925,-632,1040,1464,155,-214,-551
6930,-616,992,1424,132,-167,-528
6935,-648,1008,1408,109,-135,-496
6940,-656,984,1336,78,-110,-456
6945,-632,1016,1288,41,-84,-421
6950,-640,1008,1320,0,-49,-394
6955,-680,1024,1320,-40,-14,-367
6960,-832,1008,1280,-74,-4,-332
6965,-728,1024,1216,-102,-26,-307
6970,-672,1064,1200,-144,-14,-298
6975,-536,1072,1144,-185,25,-280
6980,-480,1032,1184,-226,83,-260
6985,-424,1040,1144,-263,134,-246
6990,-416,1032,1080,-302,183,-230
6995,-424,1032,1120,-344,232,-208
7000,-480,1000,1120,-386,277,-178
7005,-624,896,1160,-429,315,-146
7010,-752,760,1184,-461,335,-114
7015,-816,632,1224,-491,346,-93
7020,-968,552,1176,-521,356,-79
7025,-1008,472,1192,-536,370,-69
7030,-1048,408,1168,-534,388,-62
7035,-1104,424,1168,-523,401,-60
7040,-1088,400,1200,-514,412,-56
7045,-1112,392,1200,-510,417,-50
7050,-1080,384,1240,-519,419,-54
7055,-1032,360,1264,-532,420,-61
7060,-1024,304,1288,-547,421,-65
7065,-976,240,1368,-556,421,-68
7070,-1016,224,1400,-559,420,-68
7075,-1016,184,1432,-555,420,-69
7080,-992,152,1448,-545,419,-74
7085,-992,96,1432,-537,421,-88
7090,-1016,64,1408,-543,429,-115
7095,-1016,48,1400,-555,443,-150
7100,-1032,16,1392,-563,464,-185
7105,-1024,8,1392,-566,494,-218
7110,-1024,-16,1376,-562,527,-246
7115,-1040,-48,1424,-556,552,-270
7120,-1088,0,1408,-547,565,-286
7125,-1104,-24,1432,-536,568,-300
7130,-1128,-16,1456,-526,564,-307
7135,-1192,-24,1432,-516,558,-316
7140,-1176,0,1488,-505,551,-324
7145,-1200,8,1488,-500,548,-335
7150,-1184,40,1440,-498,542,-350
7155,-1152,40,1448,-505,537,-366
7160,-1152,72,1424,-519,532,-385
7165,-1120,88,1368,-532,528,-400
7170,-1072,72,1368,-548,525,-420
7175,-1008,40,1352,-563,523,-436
7180,-1016,24,1344,-569,528,-452
7185,-976,-8,1296,-573,543,-466
7190,-992,-24,1248,-572,561,-478
7195,-984,-96,1280,-566,584,-487
7200,-992,-184,1264,-549,608,-490
7205,-1024,-216,1288,-518,628,-490
7210,-1064,-232,1272,-482,645,-486
7215,-1112,-296,1272,-448,659,-484
7220,-1144,-288,1256,-419,666,-479
7225,-1152,-320,1232,-400,664,-479
7230,-1176,-312,1280,-386,653,-480
7235,-1224,-304,1304,-379,641,-480
7240,-1216,-280,1312,-369,629,-478
7245,-1248,-296,1272,-361,621,-469
7250,-1280,-264,1272,-351,616,-465
7255,-1328,-240,1256,-349,618,-460
7260,-1344,-184,1288,-344,623,-450
7265,-1400,-296,1352,-342,634,-437
7270,-1488,-232,1288,-334,639,-426
7275,-1528,-248,1264,-326,636,-415
7280,-1584,-280,1240,-316,625,-401
7285,-1608,-320,1176,-307,612,-379
7290,-1608,-368,1200,-299,596,-355
7295,-1608,-416,1168,-282,578,-333
7300,-1584,-448,1088,-252,577,-305
7305,-1592,-512,1040,-220,579,-275
7310,-1592,-568,1048,-188,578,-251
7315,-1616,-592,1088,-148,574,-225
7320,-1640,-600,1088,-103,556,-196
7325,-1576,-608,1112,-55,518,-170
7330,-1544,-632,1080,-13,469,-160
7335,-1496,-544,1000,21,419,-157
7340,-1456,-512,992,31,388,-157
7345,-1512,-440,960,24,370,-157
7350,-1536,-384,936,0,337,-165
7355,-1520,-336,984,-36,292,-162
7360,-1544,-336,944,-78,241,-151
7365,-1528,-360,936,-118,179,-143
7370,-1560,-400,904,-147,118,-143
7375,-1504,-424,848,-157,61,-150
7380,-1472,-456,736,-157,32,-144
7385,-1496,-472,720,-156,18,-137
7390,-1456,-456,664,-151,-3,-140
7395,-1408,-424,616,-136,-17,-139
7400,-1408,-408,648,-146,11,-111
7405,-1472,-392,680,-156,41,-88
7410,-1472,-408,752,-157,49,-70
7415,-1424,-368,720,-146,37,-60
7420,-1408,-328,752,-140,36,-44
7425,-1384,-320,768,-141,33,-28
7430,-1416,-320,832,-147,18,-17
7435,-1384,-288,816,-148,-9,-15
7440,-1368,-304,856,-157,-30,-3
7445,-1360,-280,872,-176,-50,8
7450,-1336,-320,896,-202,-66,17
7455,-1376,-336,896,-227,-83,19
7460,-1384,-376,872,-244,-106,11
7465,-1368,-376,856,-255,-132,0
7470,-1384,-400,888,-268,-148,-5
7475,-1392,-440,912,-280,-153,1
7480,-1384,-464,968,-280,-153,0
7485,-1384,-488,960,-268,-157,-2
7490,-1408,-488,968,-250,-163,-6
7495,-1424,-480,960,-232,-173,-10
7500,-1376,-464,992,-218,-177,-11
7505,-1400,-456,1032,-206,-176,-8
7510,-1416,-416,1032,-189,-172,5
7515,-1384,-368,1040,-169,-175,17
7520,-1336,-320,1056,-158,-177,22
7525,-1360,-288,1112,-149,-178,29
7530,-1424,-256,1152,-133,-187,37
7535,-1384,-256,1152,-119,-205,47
7540,-1424,-264,1176,-111,-223,58
7545,-1376,-208,1128,-99,-249,61
7550,-1352,-192,1144,-103,-251,72
7555,-1400,-224,1144,-111,-249,83
7560,-1352,-256,1136,-114,-252,86
7565,-1368,-264,1128,-112,-253,88
7570,-1368,-248,1112,-104,-253,90
7575,-1376,-280,1128,-98,-253,88
7580,-1360,-288,1112,-93,-248,86
7585,-1344,-328,1160,-84,-244,83
7590,-1336,-336,1176,-75,-239,77
7595,-1296,-360,1200,-63,-234,69
7600,-1312,-336,1200,-45,-227,63
7605,-1344,-320,1176,-24,-219,56
7610,-1280,-320,1184,-10,-215,47
7615,-1272,-280,1184,-3,-210,40
7620,-1240,-264,1168,1,-208,34
7625,-1224,-272,1152,3,-203,28
7630,-1208,-256,1184,5,-201,20
7635,-1224,-216,1200,6,-197,14
7640,-1184,-288,1224,9,-196,9
7645,-1104,-200,1144,8,-190,3
7650,-1176,-216,1176,10,-182,-4
7655,-1176,-248,1216,15,-176,-10
7660,-1184,-248,1176,16,-170,-16
7665,-1176,-248,1176,15,-163,-22
7670,-1160,-280,1176,12,-159,-27
7675,-1184,-224,1160,9,-157,-33
7680,-1160,-248,1152,6,-154,-38
7685,-1160,-248,1160,4,-150,-42
7690,-1200,-240,1192,5,-145,-44
7695,-1200,-224,1160,6,-143,-46
7700,-1176,-256,1176,9,-140,-49
7705,-1184,-264,1184,14,-140,-53
7710,-1184,-256,1184,18,-137,-56
7715,-1136,-280,1152,20,-136,-59
7720,-1176,-272,1152,21,-136,-60
7725,-1160,-264,1168,24,-135,-63
7730,-1152,-256,1160,27,-133,-67
7735,-1168,-280,1168,29,-133,-69
7740,-1152,-296,1152,33,-134,-71
7745,-1168,-264,1184,37,-133,-72
7750,-1160,-264,1176,38,-135,-72
7755,-1208,-264,1168,39,-136,-74
7760,-1192,-280,1144,40,-135,-76
7765,-1208,-272,1176,41,-132,-75
7770,-1216,-264,1168,39,-130,-76
7775,-1216,-256,1184,41,-126,-78
7780,-1216,-256,1168,42,-120,-79
7785,-1232,-248,1176,43,-113,-78
7790,-1200,-264,1176,41,-109,-77
7795,-1208,-256,1176,40,-105,-76
7800,-1224,-272,1200,41,-103,-74
7805,-1248,-256,1216,43,-100,-73
7810,-1224,-272,1168,44,-99,-71
7815,-1208,-272,1184,48,-97,-69
7820,-1224,-264,1144,49,-95,-67
7825,-1224,-280,1112,49,-96,-66
7830,-1200,-280,1168,46,-97,-65
7835,-1232,-272,1176,44,-96,-65
7840,-1216,-272,1168,43,-97,-65
7845,-1232,-264,1184,43,-97,-65
7850,-1240,-264,1200,40,-96,-66
7855,-1256,-240,1200,37,-96,-66
7860,-1224,-256,1216,35,-94,-67
7865,-1224,-248,1208,34,-89,-67
7870,-1192,-256,1216,34,-87,-66
7875,-1208,-256,1240,30,-83,-68
7880,-1176,-240,1256,27,-81,-68
7885,-1184,-264,1208,24,-79,-69
7890,-1168,-256,1200,23,-77,-68
7895,-1128,-264,1248,18,-75,-67
7900,-1136,-240,1216,16,-70,-65
7905,-1128,-256,1232,11,-64,-62
7910,-1120,-240,1232,10,-58,-62
7915,-1120,-232,1224,8,-49,-59
7920,-1112,-256,1232,7,-41,-56
7925,-1112,-256,1240,6,-33,-53
7930,-1096,-248,1232,4,-25,-50
7935,-1104,-280,1272,1,-20,-48
7940,-1104,-264,1248,2,-14,-47
7945,-1112,-280,1256,-2,-6,-45
7950,-1120,-256,1256,-3,-1,-43
7955,-1152,-272,1240,-2,3,-43
7960,-1160,-256,1280,-3,8,-41
7965,-1144,-256,1240,-1,11,-41
7970,-1160,-280,1232,-2,15,-38
7975,-1088,-312,1368,-1,19,-35
7980,-1184,-256,1240,-2,22,-35
7985,-1160,-264,1256,-7,28,-33
7990,-1144,-248,1256,-11,32,-31
7995,-1152,-256,1208,-13,38,-27
8000,-1168,-264,1232,-16,42,-23
8005,-1128,-256,1240,-21,47,-20
8010,-1136,-272,1248,-24,48,-16
8015,-1160,-248,1216,-28,48,-13
8020,-1160,-296,1248,-30,48,-10
8025,-1152,-264,1240,-33,48,-8
8030,-1160,-288,1216,-33,48,-7
8035,-1184,-264,1216,-33,50,-5
8040,-1184,-272,1192,-32,51,-4
8045,-1160,-264,1192,-32,52,-4
8050,-1168,-288,1184,-31,56,-5
8055,-1176,-280,1200,-32,59,-3
8060,-1168,-280,1184,-34,62,-3
8065,-1168,-304,1208,-36,62,-4
8070,-1168,-264,1200,-37,62,-3
8075,-1184,-272,1168,-38,64,-4
8080,-1192,-264,1216,-36,63,-2
8085,-1200,-280,1168,-32,65,-2
8090,-1184,-288,1192,-30,65,-2
8095,-1208,-248,1168,-29,65,-3
8100,-1192,-256,1160,-26,64,-3
8105,-1192,-264,1232,-28,63,-2
8110,-1208,-264,1216,-30,61,-2
8115,-1208,-256,1232,-35,58,-2
8120,-1224,-272,1208,-35,57,-2
8125,-1216,-264,1208,-32,53,-2
8130,-1192,-296,1184,-27,48,-1
8135,-1200,-288,1176,-21,45,0
8140,-1200,-312,1160,-20,45,-1
8145,-1208,-296,1168,-20,43,-1
8150,-1232,-232,1168,-21,43,0
8155,-1216,-264,1184,-21,40,-2
8160,-1184,-248,1216,-24,39,-2
8165,-1208,-232,1192,-25,36,-2
8170,-1224,-240,1176,-26,37,-3
8175,-1200,-240,1200,-27,35,-1
8180,-1216,-232,1200,-27,34,-1
8185,-1208,-248,1216,-25,32,-2
8190,-1224,-248,1176,-22,31,-1
8195,-1200,-248,1160,-21,30,1
8200,-1240,-248,1176,-20,30,1
8205,-1192,-256,1192,-23,29,1
8210,-1208,-256,1184,-24,27,1
8215,-1200,-264,1208,-25,28,0
8220,-1200,-272,1208,-23,28,1
8225,-1200,-256,1184,-21,30,-1
8230,-1248,-232,1192,-21,30,-2
8235,-1208,-232,1184,-21,29,-3
8240,-1208,-232,1184,-23,25,-5
8245,-1216,-232,1184,-24,22,-4
8250,-1208,-208,1200,-28,18,-4
8255,-1216,-224,1168,-29,16,-3
8260,-1192,-216,1208,-32,14,-3
8265,-1216,-248,1208,-31,12,-2
8270,-1200,-248,1160,-30,10,0
8275,-1216,-224,1184,-30,8,-2
8280,-1216,-216,1184,-30,6,-2
8285,-1208,-248,1192,-28,3,-2
8290,-1216,-272,1208,-27,1,-2
8295,-1200,-248,1176,-28,-2,-3
8300,-1216,-240,1184,-28,-5,-6
8305,-1176,-248,1184,-29,-5,-4
8310,-1184,-256,1168,-27,-5,-4
8315,-1176,-232,1184,-24,-5,-4
8320,-1200,-232,1184,-24,-2,-4
8325,-1160,-248,1208,-23,0,-7
8330,-1176,-248,1216,-24,0,-9
8335,-1176,-232,1184,-25,2,-8
8340,-1192,-248,1224,-28,3,-9
8345,-1184,-240,1208,-29,1,-9
8350,-1192,-216,1208,-34,-3,-7
8355,-1240,-176,1288,-37,-5,-8
8360,-1184,-256,1224,-37,-7,-9
8365,-1208,-256,1208,-37,-9,-10
8370,-1216,-248,1168,-36,-11,-10
8375,-1224,-224,1176,-35,-9,-13
8380,-1184,-248,1200,-36,-10,-14
8385,-1208,-248,1168,-35,-9,-15
8390,-1208,-232,1176,-39,-8,-18
8395,-1232,-248,1192,-43,-7,-19
8400,-1232,-232,1224,-44,-7,-17
8405,-1200,-240,1200,-46,-9,-18
8410,-1216,-248,1200,-47,-12,-18
8415,-1200,-248,1200,-46,-14,-19
8420,-1176,-264,1192,-45,-15,-20
8425,-1216,-248,1152,-47,-14,-20
8430,-1232,-216,1184,-49,-14,-18
8435,-1208,-208,1176,-52,-16,-17
8440,-1208,-216,1168,-55,-17,-15
8445,-1232,-224,1184,-59,-22,-15
8450,-1192,-224,1160,-64,-27,-14
8455,-1192,-224,1176,-67,-29,-15
8460,-1184,-240,1200,-69,-30,-15
8465,-1216,-240,1200,-69,-31,-14
8470,-1184,-232,1208,-70,-34,-13
8475,-1176,-264,1192,-69,-37,-12
8480,-1200,-240,1208,-69,-39,-13
8485,-1192,-256,1224,-70,-40,-14
8490,-1176,-272,1216,-69,-41,-14
8495,-1192,-248,1216,-69,-41,-16
8500,-1200,-272,1240,-71,-41,-15
8505,-1200,-280,1224,-70,-40,-16
8510,-1168,-288,1232,-68,-38,-16
8515,-1192,-280,1224,-63,-39,-16
8520,-1176,-304,1248,-61,-38,-16
8525,-1160,-280,1232,-59,-36,-16
8530,-1168,-288,1208,-59,-37,-17
8535,-1160,-280,1216,-58,-35,-14
8540,-1160,-248,1224,-57,-35,-14
8545,-1168,-248,1208,-56,-36,-14
8550,-1168,-272,1248,-56,-36,-14
8555,-1176,-264,1232,-56,-36,-12
8560,-1160,-240,1232,-55,-37,-14
8565,-1184,-248,1232,-53,-37,-15
8570,-1160,-256,1216,-51,-39,-15
8575,-1176,-256,1200,-47,-40,-15
8580,-1176,-280,1232,-45,-42,-16
8585,-1184,-272,1216,-38,-43,-17
8590,-1184,-288,1216,-34,-45,-19
8595,-1192,-256,1168,-26,-47,-20
8600,-1200,-264,1184,-23,-49,-22
8605,-1152,-272,1160,-21,-53,-24
8610,-1152,-280,1208,-19,-56,-26
8615,-1176,-264,1184,-18,-60,-27
8620,-1176,-248,1208,-15,-63,-28
8625,-1184,-256,1184,-15,-64,-29
8630,-1168,-232,1224,-15,-66,-30
8635,-1168,-232,1200,-13,-65,-30
8640,-1160,-240,1200,-14,-63,-32
8645,-1168,-232,1200,-18,-61,-31
8650,-1136,-232,1176,-22,-58,-32
8655,-1144,-216,1208,-30,-56,-34
8660,-1136,-232,1208,-39,-55,-33
8665,-1152,-184,1192,-47,-53,-31
8670,-1136,-216,1208,-50,-52,-31
8675,-1128,-240,1200,-52,-51,-29
8680,-1152,-256,1208,-53,-52,-27
8685,-1152,-256,1208,-55,-53,-26
8690,-1168,-256,1192,-56,-56,-26
8695,-1160,-256,1208,-57,-59,-25
8700,-1160,-272,1216,-59,-60,-24
8705,-1184,-264,1256,-58,-57,-23
8710,-1160,-264,1208,-57,-56,-24
8715,-1184,-264,1192,-56,-53,-24
8720,-1176,-240,1208,-54,-52,-25
8725,-1168,-240,1240,-56,-51,-25
8730,-1152,-280,1248,-57,-52,-25
8735,-1208,-208,1136,-59,-51,-23
8740,-1192,-232,1232,-60,-51,-24
8745,-1136,-248,1264,-62,-49,-23
8750,-1160,-264,1256,-61,-49,-21
8755,-1112,-264,1248,-63,-49,-22
8760,-1176,-256,1224,-62,-51,-22
8765,-1152,-264,1280,-63,-50,-21
8770,-1128,-256,1240,-63,-50,-23
8775,-1136,-264,1248,-67,-49,-21
8780,-1112,-248,1248,-70,-49,-19
8785,-1112,-256,1264,-71,-46,-18
8790,-1104,-288,1256,-70,-45,-20
8795,-1112,-280,1216,-67,-43,-18
8800,-1104,-264,1256,-67,-40,-17
8805,-1120,-264,1256,-66,-39,-17
8810,-1112,-248,1240,-69,-36,-17
8815,-1120,-264,1256,-71,-36,-18
8820,-1120,-264,1272,-72,-37,-17
8825,-1096,-264,1264,-72,-34,-17
8830,-1128,-256,1240,-70,-33,-17
8835,-1152,-280,1248,-71,-32,-17
8840,-1104,-280,1280,-69,-32,-18
8845,-1128,-240,1224,-70,-31,-19
8850,-1088,-304,1264,-66,-31,-19
8855,-1112,-288,1256,-67,-30,-19
8860,-1096,-272,1208,-69,-27,-18
8865,-1112,-248,1272,-70,-23,-17
8870,-1080,-272,1288,-73,-18,-18
8875,-1104,-296,1272,-72,-13,-16
8880,-1104,-272,1256,-73,-8,-17
8885,-1104,-312,1256,-69,-2,-15
8890,-1112,-288,1240,-68,0,-13
8895,-1120,-272,1272,-69,3,-11
8900,-1120,-272,1232,-71,4,-10
8905,-1128,-280,1224,-69,4,-12
8910,-1120,-288,1232,-69,0,-10
8915,-1128,-288,1256,-69,-2,-8
8920,-1120,-288,1240,-65,-2,-8
8925,-1144,-280,1272,-62,-2,-9
8930,-1120,-288,1288,-60,-1,-8
8935,-1128,-264,1264,-57,-2,-8
8940,-1104,-272,1264,-59,-2,-9
8945,-1104,-248,1264,-58,-3,-10
8950,-1112,-240,1272,-59,-3,-11
8955,-1120,-272,1240,-60,-2,-12
8960,-1136,-256,1264,-63,-4,-13
8965,-1120,-240,1232,-62,-3,-15
8970,-1128,-256,1232,-63,-2,-16
8975,-1104,-272,1216,-65,-2,-17
8980,-1120,-248,1224,-63,-1,-17
8985,-1112,-264,1248,-65,-1,-16
8990,-1104,-272,1216,-66,-2,-17
8995,-1136,-248,1240,-65,-1,-17
9000,-1112,-288,1240,-65,-3,-18
9005,-1112,-264,1224,-64,-2,-17
9010,-1128,-280,1256,-63,-4,-18
9015,-1120,-304,1248,-60,-5,-17
9020,-1112,-280,1240,-56,-7,-17
9025,-1136,-280,1264,-55,-8,-17
9030,-1112,-296,1232,-54,-11,-17
9035,-1128,-272,1272,-53,-13,-18
9040,-1144,-296,1256,-53,-13,-17
9045,-1128,-272,1216,-52,-13,-17
9050,-1128,-296,1272,-50,-13,-18
9055,-1128,-288,1264,-47,-15,-18
9060,-1128,-272,1256,-50,-13,-17
9065,-1152,-264,1256,-52,-13,-18
9070,-1144,-272,1256,-53,-14,-17
9075,-1128,-264,1264,-54,-15,-17
9080,-1128,-280,1272,-54,-17,-16
9085,-1120,-288,1288,-53,-19,-15
9090,-1136,-288,1264,-53,-20,-14
9095,-1128,-272,1248,-52,-22,-14
9100,-1112,-272,1208,-52,-22,-13
9105,-1112,-304,1248,-51,-22,-12
9110,-1120,-288,1240,-48,-21,-11
9115,-1088,-312,1224,-45,-20,-11
9120,-1064,-240,1120,-45,-18,-9
9125,-1120,-296,1264,-42,-17,-9
9130,-1088,-304,1248,-40,-16,-9
9135,-1104,-304,1280,-38,-12,-11
9140,-1088,-312,1288,-37,-11,-9
9145,-1080,-296,1312,-34,-10,-7
9150,-1112,-296,1288,-34,-6,-7
9155,-1072,-296,1280,-34,-5,-7
9160,-1088,-288,1256,-35,-2,-9
9165,-1072,-296,1264,-35,1,-8
9170,-1096,-312,1288,-36,3,-9
9175,-1088,-288,1256,-36,5,-8
9180,-1096,-288,1256,-37,8,-8
9185,-1104,-264,1248,-40,10,-8
9190,-1072,-280,1264,-42,11,-9
9195,-1088,-304,1296,-41,11,-11
9200,-1096,-264,1280,-40,12,-10
9205,-1104,-272,1248,-40,13,-10
9210,-1112,-264,1272,-41,13,-11
9215,-1104,-280,1240,-41,13,-13
9220,-1104,-280,1240,-45,12,-12
9225,-1112,-256,1248,-45,10,-13
9230,-1112,-264,1256,-46,10,-13
9235,-1104,-264,1272,-46,9,-13
9240,-1104,-256,1256,-47,7,-13
9245,-1120,-264,1272,-46,6,-14
9250,-1128,-272,1256,-48,5,-15
9255,-1112,-272,1280,-47,4,-15
9260,-1136,-256,1240,-47,4,-15
9265,-1112,-304,1248,-46,2,-16
9270,-1120,-272,1248,-46,1,-16
9275,-1120,-288,1248,-43,-1,-16
9280,-1136,-256,1264,-42,-1,-14
9285,-1128,-272,1240,-43,-3,-14
9290,-1104,-280,1256,-43,-2,-15
9295,-1136,-272,1240,-44,-4,-14
9300,-1104,-280,1280,-45,-5,-12
9305,-1136,-256,1256,-47,-4,-11
9310,-1112,-280,1256,-47,-4,-10
9315,-1072,-280,1296,-48,-6,-9
9320,-1096,-304,1232,-48,-7,-9
9325,-1112,-280,1264,-49,-6,-9
9330,-1128,-272,1256,-49,-7,-8
9335,-1112,-280,1264,-48,-9,-10
9340,-1112,-296,1256,-47,-10,-10
9345,-1128,-280,1264,-48,-8,-10
9350,-1120,-280,1256,-48,-9,-10
9355,-1096,-296,1304,-48,-9,-10
9360,-1128,-280,1272,-49,-8,-10
9365,-1104,-264,1272,-51,-9,-11
9370,-1104,-280,1256,-52,-10,-9
9375,-1096,-288,1256,-53,-10,-10
9380,-1096,-304,1264,-52,-9,-10
9385,-1104,-256,1272,-52,-9,-9
9390,-1104,-272,1256,-52,-7,-7
9395,-1096,-288,1264,-51,-6,-7
9400,-1080,-264,1264,-50,-5,-8
9405,-1096,-280,1272,-50,-3,-8
9410,-1080,-288,1256,-52,-2,-6
9415,-1088,-296,1272,-52,-1,-7
9420,-1088,-288,1232,-51,-2,-5
9425,-1072,-304,1248,-51,0,-5
9430,-1072,-264,1304,-52,0,-5
9435,-1104,-264,1248,-51,1,-5
9440,-1056,-312,1264,-50,2,-6
9445,-1088,-296,1256,-49,4,-5
9450,-1080,-288,1272,-47,2,-5
9455,-1080,-280,1272,-47,4,-4
9460,-1088,-272,1272,-50,5,-7
9465,-1088,-264,1264,-51,5,-6
9470,-1096,-280,1288,-55,6,-7
9475,-1096,-264,1280,-56,6,-5
9480,-1088,-280,1336,-57,4,-7
9485,-1096,-304,1264,-56,5,-5
9490,-1088,-280,1296,-52,4,-4
9495,-1072,-256,1240,-50,6,-4
9500,-1032,-272,1256,-50,5,-4
9505,-1120,-288,1256,-52,7,-4
9510,-1096,-272,1264,-54,7,-5
9515,-1104,-248,1304,-56,7,-5
9520,-1104,-264,1280,-54,9,-6
9525,-1072,-312,1288,-54,10,-7
9530,-1104,-288,1280,-54,11,-6
9535,-1080,-296,1296,-50,12,-6
9540,-1104,-288,1264,-47,12,-8
9545,-1088,-296,1256,-43,12,-9
9550,-1096,-296,1256,-41,12,-10
9555,-1088,-272,1272,-41,13,-8
9560,-1120,-296,1264,-43,14,-9
9565,-1104,-304,1264,-49,14,-9
9570,-1112,-288,1280,-49,16,-9
9575,-1104,-304,1272,-49,19,-10
9580,-1088,-304,1280,-47,22,-11
9585,-1112,-288,1256,-44,26,-12
9590,-1120,-272,1240,-42,29,-11
9595,-1096,-312,1240,-45,27,-12
9600,-1088,-304,1256,-48,25,-11
9605,-1104,-288,1240,-47,22,-9
9610,-1104,-304,1264,-49,21,-8
9615,-1072,-320,1240,-47,18,-6
9620,-1096,-344,1264,-45,17,-6
9625,-1104,-296,1288,-41,16,-6
9630,-1120,-288,1248,-41,17,-5
9635,-1080,-296,1264,-40,17,-5
9640,-1104,-280,1248,-40,17,-4
9645,-1088,-280,1264,-41,17,-6
9650,-1080,-288,1272,-42,15,-7
9655,-1064,-304,1288,-44,13,-7
9660,-1104,-288,1264,-43,12,-8
9665,-1112,-288,1272,-43,10,-7
9670,-1112,-272,1248,-44,9,-8
9675,-1096,-272,1264,-45,9,-8
9680,-1112,-272,1248,-44,12,-8
9685,-1088,-264,1264,-43,10,-8
9690,-1104,-296,1248,-43,11,-7
9695,-1088,-272,1280,-42,11,-6
9700,-1080,-280,1272,-43,10,-6
9705,-1096,-272,1256,-44,13,-5
9710,-1080,-288,1288,-45,11,-6
9715,-1064,-304,1248,-45,11,-6
9720,-1088,-296,1288,-45,11,-6
9725,-1080,-296,1280,-47,10,-5
9730,-1080,-296,1256,-48,10,-6
9735,-1080,-288,1288,-50,10,-7
9740,-1088,-280,1256,-47,13,-6
9745,-1088,-296,1232,-47,12,-7
9750,-1088,-288,1272,-45,13,-6
9755,-1096,-272,1272,-46,13,-6
9760,-1088,-288,1264,-48,13,-7
9765,-1080,-288,1264,-49,13,-6
9770,-1104,-272,1264,-49,13,-6
9775,-1096,-280,1264,-51,11,-3
9780,-1096,-288,1264,-52,12,-5
9785,-1096,-312,1264,-49,12,-3
9790,-1120,-264,1272,-49,13,-5
9795,-1088,-304,1264,-47,13,-3
9800,-1104,-280,1264,-47,11,-4
9805,-1104,-288,1288,-47,9,-4
9810,-1112,-264,1264,-46,6,-5
9815,-1112,-272,1264,-47,5,-3
9820,-1088,-264,1280,-46,7,-4
9825,-1104,-288,1280,-46,6,-4
9830,-1080,-288,1272,-47,7,-4
9835,-1088,-272,1280,-48,7,-6
9840,-1112,-288,1264,-47,7,-6
9845,-1064,-280,1296,-49,7,-4
9850,-1088,-288,1288,-49,7,-6
9855,-1096,-280,1288,-49,8,-7
9860,-1096,-288,1264,-50,7,-7
9865,-1080,-280,1248,-50,8,-6
9870,-1096,-280,1280,-49,8,-7
9875,-1080,-296,1272,-51,9,-7
9880,-1056,-352,1352,-50,11,-6
9885,-1112,-296,1256,-47,11,-6
9890,-1096,-280,1224,-48,11,-7
9895,-1120,-288,1280,-48,10,-8
9900,-1096,-280,1272,-47,11,-7
9905,-1080,-328,1280,-48,10,-6
9910,-1080,-272,1232,-47,11,-4
9915,-1088,-272,1280,-49,10,-6
9920,-1096,-272,1240,-49,10,-6
9925,-1080,-304,1272,-50,7,-7
9930,-1096,-280,1272,-52,4,-7
9935,-1080,-288,1272,-52,4,-7
9940,-1096,-288,1264,-53,2,-7
9945,-1096,-288,1248,-52,3,-6
9950,-1088,-304,1240,-49,3,-7
9955,-1088,-312,1256,-47,4,-8
9960,-1080,-288,1272,-45,5,-7
9965,-1072,-304,1264,-46,6,-6
9970,-1088,-272,1280,-45,8,-7
9975,-1112,-296,1272,-43,10,-7
9980,-1072,-296,1296,-44,10,-8
9985,-1088,-280,1280,-43,10,-7
9990,-1080,-304,1280,-42,10,-6
9995,-1088,-288,1256,-43,9,-7
10000,-1112,-264,1264,-42,9,-5
10005,-1072,-288,1296,-43,9,-5
10010,-1072,-288,1280,-45,10,-4
10015,-1080,-280,1280,-46,10,-5
10020,-1080,-280,1272,-47,9,-5
10025,-1080,-272,1272,-50,10,-5
10030,-1088,-296,1280,-52,12,-5
10035,-1088,-272,1304,-50,12,-6
10040,-1080,-320,1296,-48,12,-6
10045,-1104,-288,1288,-49,13,-6
10050,-1080,-272,1240,-49,13,-7
10055,-1096,-280,1280,-49,14,-6
10060,-1088,-296,1280,-51,13,-6
10065,-1104,-280,1272,-52,12,-7
10070,-1080,-272,1272,-53,12,-6
10075,-1080,-280,1264,-53,11,-7
10080,-1072,-280,1272,-53,10,-6
10085,-1096,-288,1272,-51,11,-7
10090,-1088,-296,1256,-51,11,-9
10095,-1096,-296,1280,-51,11,-7
10100,-1096,-288,1256,-52,12,-7
10105,-1088,-280,1264,-51,11,-7
10110,-1112,-288,1264,-51,11,-8
10115,-1112,-272,1272,-50,11,-7
10120,-1088,-304,1280,-48,8,-6
10125,-1096,-272,1232,-48,8,-5
10130,-1088,-272,1328,-48,9,-6
10135,-1088,-296,1264,-51,7,-6
10140,-1096,-280,1264,-50,7,-6
10145,-1088,-296,1272,-47,8,-7
10150,-1096,-288,1272,-49,7,-5
10155,-1088,-328,1288,-48,7,-6
10160,-1104,-272,1248,-48,6,-5
10165,-1088,-304,1288,-46,6,-5
10170,-1096,-288,1256,-44,6,-7
10175,-1072,-312,1248,-43,6,-7
10180,-1088,-280,1280,-44,6,-8
10185,-1072,-272,1264,-46,7,-7
10190,-1088,-280,1280,-49,7,-8
10195,-1088,-288,1256,-48,8,-7
10200,-1104,-264,1296,-50,9,-8
10205,-1080,-304,1272,-49,8,-7
10210,-1056,-304,1256,-46,7,-7
10215,-1072,-304,1272,-44,9,-5
10220,-1072,-280,1280,-44,9,-6
10225,-1088,-288,1264,-47,9,-6
10230,-1112,-280,1288,-47,9,-6
10235,-1088,-288,1288,-49,10,-6
10240,-1088,-280,1264,-49,8,-7
10245,-1104,-280,1280,-50,8,-8
10250,-1088,-272,1264,-48,9,-6
10255,-1088,-296,1296,-46,10,-6
10260,-1184,-288,1296,-43,9,-7
10265,-1080,-304,1240,-39,11,-7
10270,-1096,-296,1264,-37,11,-7
10275,-1048,-296,1256,-39,11,-9
10280,-1080,-280,1280,-41,11,-9
10285,-1096,-272,1264,-45,14,-9
10290,-1096,-280,1328,-48,16,-10
10295,-1088,-304,1328,-50,19,-10
10300,-1080,-312,1280,-49,20,-10
10305,-1096,-296,1280,-46,23,-10
10310,-1104,-288,1248,-44,24,-11
10315,-1112,-280,1240,-45,24,-11
10320,-1112,-280,1240,-47,22,-9
10325,-1080,-304,1256,-46,20,-8
10330,-1064,-296,1232,-47,19,-7
10335,-1088,-304,1280,-46,17,-7
10340,-1088,-280,1280,-44,18,-6
10345,-1096,-288,1280,-41,18,-5
10350,-1080,-312,1272,-40,18,-3
10355,-1064,-296,1304,-38,18,-3
10360,-1080,-296,1288,-38,17,-5
10365,-1080,-264,1280,-38,16,-5
10370,-1056,-272,1272,-41,13,-6
10375,-1096,-272,1240,-41,12,-5
10380,-1096,-304,1280,-42,10,-6
10385,-1088,-296,1280,-40,9,-6
10390,-1088,-288,1280,-41,8,-6
10395,-1072,-296,1264,-39,8,-7
10400,-1096,-288,1272,-41,10,-7
10405,-1080,-280,1232,-40,12,-9
10410,-1080,-288,1264,-40,13,-9
10415,-1088,-288,1280,-41,12,-9
10420,-1080,-280,1280,-43,13,-9
10425,-1096,-280,1312,-44,13,-9
10430,-1096,-256,1272,-44,13,-10
10435,-1072,-288,1288,-45,12,-8
10440,-1080,-304,1288,-43,11,-9
10445,-1064,-288,1256,-45,12,-8
10450,-1088,-280,1280,-46,10,-9
10455,-1088,-272,1256,-47,10,-9
10460,-1104,-280,1248,-48,9,-9
10465,-1096,-296,1264,-49,10,-9
10470,-1080,-304,1272,-48,10,-8
10475,-1056,-312,1256,-46,12,-8
10480,-1096,-288,1296,-47,12,-7
10485,-1088,-280,1296,-49,12,-7
10490,-1096,-288,1248,-51,13,-5
10495,-1072,-312,1288,-51,14,-6
10500,-1104,-280,1296,-49,13,-5
10505,-1080,-304,1264,-48,14,-5
10510,-1064,-320,1240,-47,13,-4
10515,-1088,-272,1288,-46,13,-3
10520,-1080,-312,1272,-48,13,-4
10525,-1096,-304,1256,-46,12,-5
10530,-1064,-304,1272,-47,10,-4
10535,-1064,-304,1304,-48,8,-6
10540,-1096,-304,1248,-46,7,-5
10545,-1072,-320,1272,-46,7,-7
10550,-1096,-296,1272,-47,5,-7
10555,-1080,-280,1272,-48,7,-5
10560,-1104,-304,1280,-48,7,-6
10565,-1096,-312,1256,-47,7,-8
10570,-1096,-288,1296,-46,7,-8
10575,-1096,-296,1288,-45,7,-8
10580,-1112,-280,1296,-45,9,-6
10585,-1072,-288,1264,-43,9,-8
10590,-1072,-288,1272,-44,10,-8
10595,-1088,-280,1280,-46,10,-6
10600,-1104,-312,1288,-47,11,-6
10605,-1080,-272,1256,-47,10,-6
10610,-1096,-288,1248,-48,10,-5
10615,-1080,-280,1272,-48,10,-5
10620,-1072,-288,1312,-47,9,-5
10625,-1080,-288,1256,-46,10,-4
10630,-1056,-288,1288,-47,11,-2
10635,-1088,-272,1304,-46,12,-3
10640,-1072,-264,1256,-46,13,-3
10645,-1160,-360,1368,-48,13,-4
10650,-1080,-264,1248,-47,13,-3
10655,-1088,-296,1256,-48,14,-3
10660,-1072,-296,1304,-47,14,-4
10665,-1048,-312,1288,-45,12,-4
10670,-1088,-304,1264,-43,12,-5
10675,-1064,-296,1312,-44,12,-6
10680,-1080,-304,1280,-43,12,-7
10685,-1064,-264,1280,-44,11,-8
10690,-1104,-272,1264,-43,13,-8
10695,-1080,-288,1288,-45,13,-8
10700,-1096,-280,1272,-45,13,-9
10705,-1080,-296,1280,-45,14,-8
10710,-1056,-288,1280,-45,14,-7
10715,-1080,-272,1280,-44,16,-6
10720,-1072,-296,1264,-43,16,-7
10725,-1064,-296,1296,-43,15,-7
10730,-1088,-272,1272,-43,16,-6
10735,-1080,-288,1272,-45,16,-7
10740,-1080,-280,1280,-46,15,-6
10745,-1080,-312,1304,-48,15,-6
10750,-1064,-288,1272,-49,15,-7
10755,-1080,-296,1288,-48,14,-7
10760,-1072,-320,1272,-48,13,-6
10765,-1080,-304,1280,-47,14,-6
10770,-1064,-296,1280,-45,13,-6
10775,-1096,-288,1296,-45,12,-6
10780,-1080,-312,1280,-44,13,-7
10785,-1096,-272,1264,-46,14,-7
10790,-1080,-296,1264,-46,13,-6
10795,-1096,-272,1256,-46,13,-6
10800,-1096,-280,1296,-46,11,-6
10805,-1072,-288,1256,-46,11,-5
10810,-1064,-304,1240,-46,12,-4
10815,-1096,-280,1256,-46,11,-4
10820,-1104,-280,1264,-46,11,-5
10825,-1072,-288,1296,-45,10,-5
10830,-1088,-280,1280,-44,9,-6
10835,-1080,-304,1280,-45,9,-7
10840,-1088,-296,1264,-44,9,-7
10845,-1104,-280,1264,-44,7,-5
10850,-1056,-304,1296,-44,6,-6
10855,-1080,-288,1272,-44,7,-7
10860,-1096,-288,1280,-44,8,-8
10865,-1072,-296,1272,-43,7,-7
10870,-1064,-312,1280,-43,7,-6
10875,-1088,-296,1248,-41,8,-6
10880,-1064,-296,1264,-40,8,-5
10885,-1064,-296,1272,-42,8,-6
10890,-1072,-280,1296,-43,9,-6
10895,-1064,-296,1264,-41,10,-7
10900,-1064,-296,1256,-44,9,-6
10905,-1088,-280,1256,-45,11,-6
10910,-1064,-280,1296,-44,10,-6
10915,-1096,-296,1304,-43,12,-6
10920,-1080,-272,1288,-43,11,-5
10925,-1088,-272,1264,-43,9,-6
10930,-1064,-288,1264,-42,9,-6
10935,-1088,-280,1256,-42,9,-6
10940,-1064,-272,1304,-44,9,-6
10945,-1072,-288,1272,-46,10,-5
10950,-1048,-304,1288,-47,9,-5
10955,-1040,-296,1304,-48,9,-5
10960,-1072,-288,1280,-43,9,-6
10965,-1080,-296,1256,-38,9,-5
10970,-1064,-304,1296,-38,10,-5
10975,-1072,-288,1256,-40,9,-6
10980,-1072,-272,1272,-44,9,-6
10985,-1072,-272,1256,-47,9,-8
10990,-1072,-272,1280,-50,7,-8
10995,-1080,-288,1272,-48,7,-8
11000,-1072,-280,1256,-49,8,-8
11005,-1096,-296,1304,-47,8,-8
11010,-1104,-296,1256,-43,7,-9
11015,-1072,-312,1264,-39,7,-11
11020,-1072,-312,1256,-37,8,-11
11025,-1048,-272,1312,-35,9,-11
11030,-1080,-288,1304,-36,8,-12
11035,-1064,-280,1264,-38,10,-13
11040,-1064,-288,1304,-41,9,-13
11045,-1096,-280,1296,-44,11,-13
11050,-1072,-280,1296,-45,13,-13
11055,-1064,-304,1312,-41,19,-12
11060,-1072,-288,1272,-37,20,-12
11065,-1072,-304,1272,-37,22,-13
11070,-1056,-288,1256,-40,22,-11
11075,-1088,-264,1256,-40,21,-10
11080,-1056,-296,1264,-41,18,-10
11085,-1048,-288,1264,-42,16,-8
11090,-1064,-312,1280,-41,13,-6
11095,-1072,-304,1304,-39,13,-7
11100,-1056,-296,1256,-35,15,-6
11105,-1080,-280,1288,-35,17,-6
11110,-1048,-296,1288,-33,18,-6
11115,-1072,-280,1256,-34,18,-6
11120,-1056,-264,1328,-35,16,-7
11125,-1064,-280,1272,-39,13,-7
11130,-1072,-288,1264,-39,11,-7
11135,-1080,-288,1312,-39,11,-8
11140,-1064,-280,1288,-41,10,-8
11145,-1064,-320,1280,-40,8,-9
11150,-1096,-280,1256,-40,10,-7
11155,-1088,-304,1280,-38,11,-9
11160,-1080,-288,1312,-38,13,-7
11165,-1064,-288,1288,-39,14,-8
11170,-1064,-280,1264,-39,15,-6
11175,-1080,-280,1304,-38,15,-9
11180,-1064,-280,1256,-39,15,-9
11185,-1080,-272,1304,-40,14,-8
11190,-1056,-288,1256,-38,15,-6
11195,-1072,-280,1280,-43,13,-6
11200,-1080,-296,1280,-45,14,-7
11205,-1080,-304,1256,-45,14,-7
11210,-1072,-312,1264,-46,13,-6
11215,-1064,-304,1272,-46,14,-6
11220,-1104,-288,1272,-46,15,-6
11225,-1072,-320,1272,-44,16,-5
11230,-1048,-304,1296,-45,16,-4
11235,-1048,-312,1296,-44,17,-6
11240,-1072,-288,1288,-41,18,-6
11245,-1072,-296,1280,-44,18,-7
11250,-1072,-296,1272,-44,19,-6
11255,-1080,-280,1296,-45,17,-4
11260,-1064,-280,1288,-47,15,-5
11265,-1080,-272,1280,-50,13,-6
11270,-1096,-280,1288,-50,12,-6
11275,-1088,-288,1272,-50,12,-5
11280,-1064,-304,1256,-48,10,-6
11285,-1072,-304,1304,-49,10,-5
11290,-1056,-304,1272,-49,10,-4
11295,-1056,-296,1296,-48,10,-3
11300,-1056,-296,1264,-48,11,-4
11305,-1080,-296,1288,-47,11,-4
11310,-1088,-312,1288,-48,13,-4
11315,-1056,-280,1264,-46,14,-5
11320,-1080,-296,1280,-47,15,-6
11325,-1088,-280,1264,-46,15,-5
11330,-1072,-272,1272,-48,15,-5
11335,-1064,-288,1296,-48,15,-6
11340,-1072,-296,1272,-47,14,-6
11345,-1064,-296,1280,-47,13,-5
11350,-1072,-344,1248,-48,13,-6
11355,-1096,-296,1304,-50,14,-6
11360,-1064,-328,1280,-50,14,-5
11365,-1112,-264,1280,-52,14,-5
11370,-1080,-296,1288,-54,14,-5
11375,-1072,-288,1296,-53,14,-5
11380,-1080,-264,1280,-54,15,-6
11385,-1088,-280,1288,-53,15,-6
11390,-1064,-296,1288,-55,16,-5
11395,-1072,-264,1320,-56,17,-4
11400,-1064,-296,1304,-57,15,-6
11405,-992,-256,1256,-54,14,-4
11410,-1064,-296,1288,-53,13,-4
11415,-1080,-304,1296,-52,12,-4
11420,-1080,-272,1304,-52,11,-3
11425,-1056,-296,1272,-52,11,-2
11430,-1064,-304,1288,-50,10,-2
11435,-1072,-288,1312,-49,12,-2
11440,-1096,-280,1264,-51,11,-3
11445,-1072,-272,1272,-50,11,-5
11450,-1072,-312,1288,-50,12,-4
11455,-1064,-296,1288,-50,12,-4
11460,-1056,-312,1288,-49,14,-1
11465,-1064,-296,1280,-51,14,-1
11470,-1072,-280,1304,-50,14,-1
11475,-1056,-280,1288,-52,14,1
11480,-1048,-272,1288,-53,14,0
11485,-1080,-280,1272,-55,13,1
11490,-1064,-288,1272,-56,11,0
11495,-1072,-280,1248,-56,10,0
11500,-1080,-280,1272,-57,10,0
11505,-1064,-296,1288,-57,10,0
11510,-1080,-280,1248,-56,9,1
11515,-1064,-288,1304,-57,11,-1
11520,-1088,-312,1296,-57,13,1
11525,-1088,-288,1256,-56,14,0
11530,-1056,-296,1296,-57,15,1
11535,-1080,-280,1296,-57,15,1
11540,-1064,-312,1272,-57,16,2
11545,-1056,-288,1304,-56,16,2
11550,-1096,-288,1296,-57,15,0
11555,-1056,-296,1288,-57,16,0
11560,-1080,-304,1304,-58,16,0
11565,-1072,-280,1272,-56,15,0
11570,-1064,-280,1296,-56,15,2
11575,-1048,-280,1304,-55,15,1
11580,-1080,-272,1272,-59,13,0
11585,-1088,-272,1304,-59,13,1
11590,-1080,-296,1280,-61,16,0
11595,-1040,-280,1312,-62,16,0
11600,-1056,-304,1272,-61,16,2
11605,-1080,-272,1304,-62,17,-1
11610,-1080,-280,1296,-62,17,-2
11615,-1064,-304,1280,-62,17,-3
11620,-1080,-288,1320,-62,18,-3
11625,-1064,-296,1296,-60,18,-2
11630,-1064,-304,1296,-58,18,-2
11635,-1080,-304,1296,-58,19,-1
11640,-1080,-296,1296,-56,18,0
11645,-1072,-280,1264,-57,19,-1
11650,-1080,-296,1272,-57,20,-1
11655,-1072,-288,1272,-57,21,-1
11660,-1096,-296,1280,-54,22,1
11665,-1064,-288,1280,-56,20,-1
11670,-1056,-304,1304,-55,19,-1
11675,-1080,-288,1304,-57,17,0
11680,-1088,-296,1256,-59,17,0
11685,-1080,-288,1280,-57,17,0
11690,-1064,-304,1280,-57,17,1
11695,-1088,-320,1296,-56,16,0
11700,-1104,-280,1288,-53,17,0
11705,-1072,-296,1272,-53,17,0
11710,-1080,-312,1288,-54,16,1
11715,-1080,-296,1304,-55,16,0
11720,-1048,-296,1280,-59,15,-2
11725,-1088,-280,1272,-61,14,-1
11730,-1088,-264,1192,-64,13,-1
11735,-1064,-296,1304,-64,10,-2
11740,-1072,-328,1280,-61,10,0
11745,-1056,-320,1272,-60,10,-2
11750,-1080,-288,1288,-58,9,-1
11755,-1088,-312,1280,-57,10,0
11760,-1080,-280,1272,-57,9,-1
11765,-1080,-304,1288,-53,10,0
11770,-1088,-288,1288,-54,10,-2
11775,-1080,-328,1312,-53,12,-3
11780,-1088,-280,1264,-51,11,-6
11785,-1088,-280,1312,-51,11,-5
11790,-1072,-272,1264,-48,10,-5
11795,-1072,-304,1264,-44,10,-6
11800,-1064,-312,1248,-42,10,-8
11805,-1064,-296,1280,-42,12,-7
11810,-1080,-280,1280,-46,12,-8
11815,-1064,-296,1304,-49,14,-8
11820,-1080,-296,1312,-53,16,-7
11825,-1096,-288,1296,-56,18,-8
11830,-1064,-304,1280,-55,21,-7
11835,-1056,-320,1296,-52,24,-8
11840,-1088,-296,1288,-53,25,-6
11845,-1072,-304,1264,-55,25,-6
11850,-1088,-272,1256,-53,23,-4
11855,-1112,-288,1264,-55,21,-3
11860,-1072,-304,1256,-56,18,-3
11865,-1064,-304,1296,-52,17,-2
11870,-1088,-288,1296,-49,16,-1
11875,-1072,-296,1296,-47,16,0
11880,-1064,-288,1272,-43,17,0
11885,-1048,-296,1280,-42,18,0
11890,-1088,-272,1248,-40,15,0
11895,-1080,-280,1256,-41,15,-2
11900,-1064,-288,1272,-41,13,-3
11905,-1080,-272,1320,-42,13,-3
11910,-1080,-288,1272,-43,11,-5
11915,-1048,-312,1256,-41,13,-4
11920,-1056,-288,1312,-41,12,-4
11925,-1040,-312,1280,-40,12,-5
11930,-1048,-312,1280,-39,13,-6
11935,-1064,-312,1272,-38,15,-7
11940,-1072,-272,1264,-38,17,-7
11945,-1088,-296,1296,-40,17,-6
11950,-1072,-280,1304,-39,17,-7
11955,-1056,-304,1264,-39,15,-5
11960,-1088,-280,1312,-40,16,-6
11965,-1056,-304,1288,-39,16,-7
11970,-1072,-304,1288,-39,16,-7
11975,-1088,-304,1272,-39,16,-8
11980,-1072,-296,1272,-39,17,-8
11985,-1048,-312,1248,-38,18,-9
11990,-1104,-280,1256,-38,18,-10
11995,-1080,-320,1272,-40,19,-9
12000,-1072,-296,1256,-41,18,-9
12005,-1072,-288,1264,-42,17,-9
12010,-1080,-304,1296,-44,17,-9
12015,-1080,-312,1264,-44,18,-6
12020,-1088,-280,1288,-45,18,-7
12025,-1072,-296,1280,-44,17,-7
12030,-1088,-288,1280,-44,17,-6
12035,-1080,-296,1288,-45,16,-6
12040,-1064,-296,1296,-48,15,-6
12045,-1088,-288,1272,-49,14,-6
12050,-1064,-312,1280,-48,12,-6
12055,-1088,-312,1280,-43,11,-5
12060,-1064,-296,1280,-40,12,-5
12065,-1056,-304,1264,-39,13,-5
12070,-1048,-304,1280,-40,15,-6
12075,-1048,-296,1320,-40,14,-5
12080,-1072,-280,1288,-40,16,-6
12085,-1080,-296,1296,-41,16,-7
12090,-1088,-288,1272,-41,17,-8
12095,-1064,-320,1280,-40,16,-9
12100,-1080,-312,1288,-42,15,-9
12105,-1056,-288,1280,-41,16,-7
12110,-1072,-296,1280,-42,15,-7
12115,-1144,-352,1296,-42,15,-9
12120,-1064,-304,1296,-44,14,-9
12125,-1064,-336,1280,-43,15,-9
12130,-1072,-304,1280,-44,13,-7
12135,-1048,-304,1232,-43,14,-8
12140,-1064,-296,1296,-42,16,-8
12145,-1096,-288,1288,-42,16,-7
12150,-1048,-304,1264,-42,16,-8
12155,-1064,-280,1280,-41,16,-8
12160,-1048,-280,1264,-40,17,-10
12165,-1056,-288,1304,-41,16,-8
12170,-1080,-296,1320,-42,16,-8
12175,-1064,-296,1288,-42,17,-8
12180,-1080,-288,1312,-43,17,-7
12185,-1072,-288,1272,-42,15,-7
12190,-1056,-288,1304,-42,15,-8
12195,-1056,-296,1272,-41,14,-9
12200,-1080,-304,1280,-43,13,-8
12205,-1064,-312,1280,-41,15,-8
12210,-1064,-304,1288,-41,17,-7
12215,-1072,-296,1296,-41,17,-8
12220,-1080,-296,1296,-42,16,-8
12225,-1064,-312,1248,-42,16,-8
12230,-1080,-272,1288,-40,16,-8
12235,-1048,-312,1296,-40,16,-6
12240,-1056,-296,1320,-42,17,-5
12245,-1040,-312,1272,-43,16,-6
12250,-1064,-312,1304,-43,17,-6
12255,-1056,-272,1272,-43,17,-5
12260,-1072,-280,1288,-44,16,-5
12265,-1072,-288,1288,-43,15,-5
12270,-1040,-304,1320,-43,15,-6
12275,-1088,-280,1280,-44,16,-7
12280,-1048,-328,1304,-45,16,-6
12285,-1072,-296,1280,-44,17,-7
12290,-1080,-288,1288,-44,18,-6
12295,-1064,-312,1296,-42,18,-6
12300,-1064,-296,1280,-43,21,-5
12305,-1056,-288,1288,-42,20,-7
12310,-1056,-312,1272,-43,20,-6
12315,-1080,-320,1264,-42,19,-7
12320,-1072,-280,1296,-41,19,-7
12325,-1072,-296,1272,-41,20,-7
12330,-1072,-304,1288,-42,19,-7
12335,-1080,-280,1256,-44,18,-7
12340,-1056,-304,1296,-44,17,-7
12345,-1072,-272,1272,-44,17,-7
12350,-1072,-304,1280,-46,17,-6
12355,-1080,-272,1312,-45,17,-7
12360,-1088,-288,1296,-44,17,-7
12365,-1088,-280,1296,-44,18,-7
12370,-1080,-280,1240,-44,17,-7
12375,-1072,-304,1280,-44,16,-8
12380,-1080,-304,1280,-41,14,-9
12385,-1072,-296,1256,-42,14,-7
12390,-1096,-304,1288,-40,15,-7
12395,-1072,-296,1272,-42,15,-8
12400,-1048,-320,1304,-42,14,-10
12405,-1080,-280,1304,-41,13,-9
12410,-1096,-280,1296,-43,13,-10
12415,-1072,-280,1288,-42,13,-8
12420,-1056,-296,1312,-41,14,-9
12425,-1072,-320,1248,-41,13,-10
12430,-1072,-272,1344,-38,13,-9
12435,-1056,-328,1280,-39,13,-9
12440,-1072,-296,1288,-38,13,-9
12445,-1056,-288,1288,-40,14,-9
12450,-1040,-288,1264,-42,13,-9
12455,-1088,-280,1296,-45,14,-9
12460,-1072,-296,1296,-46,13,-9
12465,-1080,-304,1288,-47,12,-8
12470,-1064,-328,1280,-44,11,-9
12475,-1064,-304,1248,-41,10,-8
12480,-1064,-312,1264,-39,10,-9
12485,-1080,-304,1264,-37,10,-10
12490,-1064,-288,1288,-40,12,-10
12495,-1160,-272,1272,-41,11,-11
12500,-1072,-304,1296,-43,13,-11
12505,-1064,-296,1288,-44,12,-11
12510,-1072,-280,1256,-43,14,-10
12515,-1072,-288,1280,-42,15,-11
12520,-1032,-328,1272,-42,16,-11
12525,-1072,-312,1248,-38,17,-11
12530,-1048,-304,1264,-36,18,-11
12535,-1072,-288,1288,-36,16,-11
12540,-1064,-320,1272,-37,17,-10
12545,-1056,-280,1272,-39,18,-10
12550,-1072,-296,1312,-42,17,-9
12555,-1064,-280,1304,-46,19,-8
12560,-1064,-296,1320,-49,22,-8
12565,-1040,-304,1320,-45,24,-8
12570,-1080,-288,1312,-41,26,-7
12575,-1048,-312,1280,-40,28,-7
12580,-1072,-312,1280,-42,28,-7
12585,-1064,-272,1296,-43,30,-7
12590,-1048,-288,1240,-47,28,-5
12595,-1056,-296,1288,-50,26,-5
12600,-1064,-296,1280,-49,25,-4
12605,-1048,-296,1304,-46,24,-5
12610,-1072,-280,1288,-43,23,-3
12615,-1064,-288,1312,-39,23,-2
12620,-1096,-264,1280,-37,24,-2
12625,-1064,-288,1288,-37,22,-4
12630,-1080,-264,1304,-38,21,-5
12635,-1048,-272,1296,-38,19,-4
12640,-1080,-288,1288,-39,19,-6
12645,-1064,-296,1304,-40,18,-6
12650,-1088,-280,1280,-39,18,-5
12655,-1064,-304,1288,-41,19,-6
12660,-1072,-280,1272,-42,18,-8
12665,-1080,-280,1320,-40,20,-8
12670,-1056,-312,1296,-42,20,-8
12675,-1064,-296,1320,-40,20,-7
12680,-1064,-296,1272,-43,20,-8
12685,-1080,-304,1296,-44,20,-7
12690,-1088,-296,1296,-42,20,-8
12695,-1088,-296,1304,-43,18,-9
12700,-1064,-280,1280,-41,18,-8
12705,-1064,-312,1296,-41,17,-8
12710,-1072,-288,1248,-41,16,-8
12715,-1064,-288,1288,-42,17,-9
12720,-1080,-272,1288,-42,16,-9
12725,-1072,-272,1320,-41,16,-10
12730,-1072,-288,1288,-40,16,-11
12735,-1088,-304,1272,-40,16,-11
12740,-1064,-312,1264,-41,14,-9
12745,-1088,-272,1280,-40,13,-10
12750,-1080,-296,1280,-40,10,-9
12755,-1088,-280,1272,-41,9,-8
12760,-1072,-304,1280,-43,9,-9
12765,-1064,-296,1280,-43,10,-8
12770,-1080,-304,1288,-42,10,-7
12775,-1080,-304,1304,-44,10,-8
12780,-1056,-288,1320,-47,7,-6
12785,-1064,-280,1312,-48,6,-7
12790,-1056,-280,1248,-49,5,-6
12795,-1088,-280,1304,-47,6,-5
12800,-1064,-312,1296,-48,7,-6
12805,-1088,-304,1296,-49,10,-6
12810,-1072,-296,1296,-51,11,-7
12815,-1064,-296,1296,-52,15,-8
12820,-1072,-304,1272,-53,17,-8
12825,-1056,-312,1296,-53,17,-8
12830,-1056,-288,1312,-52,19,-7
12835,-1056,-320,1304,-52,20,-6
12840,-1064,-312,1280,-48,19,-6
12845,-1080,-312,1296,-49,19,-5
12850,-1048,-296,1280,-47,18,-4
12855,-1048,-320,1264,-46,18,-5
12860,-1048,-336,1320,-45,17,-3
12865,-1056,-304,1288,-44,16,-2
12870,-1056,-312,1248,-41,18,-3
12875,-1032,-400,1416,-39,17,-4
12880,-1064,-296,1296,-37,19,-2
12885,-1072,-296,1272,-35,19,-2
12890,-1080,-288,1280,-34,18,-1
12895,-1080,-280,1264,-35,17,-2
12900,-1024,-280,1296,-34,17,-2
12905,-1080,-280,1296,-35,14,-3
12910,-1072,-296,1280,-34,14,-3
12915,-1064,-288,1288,-34,12,-4
12920,-1064,-304,1296,-33,11,-4
12925,-1064,-280,1272,-33,12,-5
12930,-1064,-264,1280,-32,13,-5
12935,-1064,-296,1288,-33,14,-6
12940,-1096,-280,1280,-33,15,-7
12945,-1064,-288,1296,-34,16,-6
12950,-1072,-280,1296,-32,17,-7
12955,-1064,-272,1304,-32,17,-7
12960,-1080,-280,1280,-34,18,-7
12965,-1040,-288,1304,-33,18,-8
12970,-1040,-296,1288,-32,19,-8
12975,-1072,-264,1264,-33,19,-8
12980,-1088,-280,1280,-34,18,-8
12985,-1064,-280,1288,-34,15,-9
12990,-1056,-280,1296,-34,16,-9
12995,-1064,-272,1232,-33,18,-10
13000,-1080,-280,1312,-33,17,-10
13005,-1056,-312,1296,-35,16,-10
13010,-1080,-232,1296,-35,18,-10
13015,-1072,-280,1304,-36,18,-11
13020,-1056,-288,1304,-37,19,-13
13025,-1064,-304,1312,-36,20,-12
13030,-1080,-288,1304,-37,20,-13
13035,-1064,-304,1288,-36,22,-14
13040,-1072,-304,1312,-38,23,-14
13045,-1064,-312,1280,-36,24,-12
13050,-1080,-304,1304,-36,25,-12
13055,-1072,-320,1312,-33,27,-12
13060,-1040,-320,1280,-31,29,-10
13065,-1040,-328,1272,-30,27,-9
13070,-1048,-344,1288,-27,25,-7
13075,-1064,-320,1280,-24,24,-5
13080,-1056,-328,1280,-25,22,-5
13085,-1040,-344,1272,-27,21,-4
13090,-1048,-304,1272,-25,16,-2
13095,-1088,-296,1288,-23,16,-1
13100,-1080,-304,1280,-24,13,1
13105,-1072,-280,1216,-23,10,1
13110,-1048,-280,1288,-22,8,1
13115,-1080,-296,1264,-23,7,3
13120,-1048,-288,1264,-21,6,3
13125,-1072,-296,1264,-20,4,2
13130,-1088,-248,1264,-20,3,2
13135,-1080,-280,1288,-21,2,0
13140,-1072,-272,1272,-23,0,-1
13145,-1088,-256,1280,-24,-1,-2
13150,-1072,-288,1272,-26,-2,-5
13155,-1096,-256,1264,-26,-3,-6
13160,-1088,-264,1312,-27,-4,-8
13165,-1104,-248,1272,-27,-5,-10
13170,-1096,-264,1304,-29,-6,-12
13175,-1056,-256,1304,-30,-8,-14
13180,-1064,-256,1296,-34,-9,-15
13185,-1056,-272,1288,-36,-9,-15
13190,-1056,-280,1280,-38,-8,-18
13195,-1056,-240,1336,-41,-10,-19
13200,-1064,-256,1320,-43,-8,-19
13205,-1072,-256,1320,-43,-7,-21
13210,-1056,-272,1312,-44,-7,-22
13215,-1072,-280,1288,-42,-6,-24
13220,-1056,-272,1296,-42,-3,-25
13225,-1072,-288,1296,-42,-3,-27
13230,-1072,-288,1312,-44,-2,-28
13235,-1080,-264,1264,-44,-2,-30
13240,-1088,-256,1312,-45,-4,-31
13245,-1064,-264,1312,-46,-6,-32
13250,-1080,-280,1272,-43,-6,-32
13255,-1016,-344,1440,-42,-7,-32
13260,-1096,-272,1296,-40,-6,-31
13265,-1064,-304,1328,-40,-6,-29
13270,-1056,-288,1264,-37,-5,-27
13275,-1072,-296,1288,-40,-3,-27
13280,-1056,-296,1296,-40,-3,-26
13285,-1056,-328,1280,-38,-6,-25
13290,-1064,-296,1280,-35,-9,-24
13295,-1048,-304,1288,-35,-11,-24
13300,-1048,-296,1264,-32,-15,-23
13305,-1040,-304,1320,-29,-18,-23
13310,-1056,-312,1280,-25,-20,-23
13315,-1064,-328,1288,-20,-19,-22
13320,-1056,-344,1264,-16,-19,-24
13325,-1064,-320,1280,-13,-18,-24
13330,-1056,-336,1288,-15,-17,-23
13335,-1048,-312,1288,-14,-15,-23
13340,-1040,-312,1312,-13,-12,-22
13345,-1048,-304,1312,-11,-8,-20
13350,-1048,-304,1304,-11,-6,-18
13355,-1032,-296,1264,-14,-4,-17
13360,-1040,-288,1264,-17,-5,-16
13365,-1040,-272,1288,-19,-7,-15
13370,-1032,-272,1280,-25,-12,-16
13375,-1056,-272,1256,-27,-16,-13
13380,-1056,-264,1288,-29,-20,-11
13385,-1056,-296,1312,-30,-19,-10
13390,-1048,-296,1288,-29,-17,-10
13395,-1016,-312,1304,-29,-14,-10
13400,-1032,-296,1312,-28,-10,-12
13405,-1040,-288,1312,-29,-9,-11
13410,-1040,-272,1304,-33,-11,-13
13415,-1048,-272,1320,-35,-10,-18
13420,-1040,-264,1312,-35,-12,-20
13425,-1056,-248,1304,-37,-13,-22
13430,-1032,-272,1296,-40,-12,-20
13435,-1040,-272,1304,-43,-11,-21
13440,-1064,-248,1312,-42,-11,-22
13445,-1040,-264,1328,-41,-8,-23
13450,-1072,-280,1312,-41,-3,-25
13455,-1056,-248,1312,-41,3,-26
13460,-1048,-288,1336,-42,6,-29
13465,-1064,-256,1328,-40,10,-32
13470,-1056,-288,1352,-40,14,-34
13475,-1064,-320,1320,-38,15,-36
13480,-1040,-312,1320,-32,15,-36
13485,-1088,-320,1312,-24,14,-39
13490,-1032,-336,1296,-15,9,-40
13495,-1088,-352,1304,-5,5,-43
13500,-1080,-336,1272,4,2,-40
13505,-1072,-296,1288,20,1,-39
13510,-1040,-328,1288,32,1,-38
13515,-1016,-320,1288,44,2,-38
13520,-1040,-288,1272,46,4,-33
13525,-1048,-280,1280,44,7,-28
13530,-1024,-280,1304,39,7,-24
13535,-1016,-272,1312,34,9,-21
13540,-992,-264,1312,26,12,-16
13545,-1000,-288,1328,18,12,-13
13550,-1008,-272,1312,11,11,-10
13555,-992,-288,1328,7,9,-7
13560,-1008,-256,1336,1,7,-4
13565,-1016,-280,1328,-2,4,-4
13570,-1016,-280,1304,-4,1,-4
13575,-1024,-304,1312,-4,1,-6
13580,-1024,-320,1296,-3,-1,-7
13585,-1016,-304,1336,-2,1,-11
13590,-1000,-296,1336,-4,2,-14
13595,-1032,-280,1320,-4,6,-16
13600,-1024,-304,1320,-5,12,-16
13605,-1040,-256,1288,-5,17,-20
13610,-1048,-240,1320,-7,20,-21
13615,-1032,-256,1296,-11,20,-20
13620,-1040,-248,1264,-17,20,-23
13625,-1056,-232,1312,-26,20,-23
13630,-1048,-224,1320,-38,20,-23
13635,-1040,-232,1328,-50,19,-25
13640,-1032,-208,1320,-60,21,-28
13645,-1080,-200,1320,-70,21,-28
13650,-1080,-232,1336,-75,20,-29
13655,-1064,-224,1320,-82,20,-31
13660,-1072,-240,1352,-90,17,-32
13665,-1040,-280,1312,-100,16,-31
13670,-1088,-240,1344,-109,12,-31
13675,-1080,-256,1304,-114,9,-31
13680,-1096,-240,1328,-120,6,-32
13685,-1088,-264,1320,-125,4,-32
13690,-1104,-224,1328,-131,3,-31
13695,-1072,-280,1288,-135,3,-32
13700,-1080,-272,1304,-138,3,-33
13705,-1056,-312,1296,-139,6,-35
13710,-1064,-280,1328,-143,6,-36
13715,-1080,-280,1296,-146,5,-35
13720,-1040,-304,1288,-146,2,-34
13725,-1064,-288,1272,-145,-3,-35
13730,-1056,-304,1296,-145,-9,-35
13735,-1040,-312,1288,-145,-14,-35
13740,-1072,-296,1272,-144,-19,-33
13745,-1056,-280,1264,-147,-24,-31
13750,-1048,-288,1288,-146,-31,-28
13755,-1056,-304,1272,-145,-33,-27
13760,-1048,-296,1272,-142,-34,-23
13765,-1048,-304,1240,-138,-34,-23
13770,-1048,-304,1248,-135,-33,-23
13775,-1040,-320,1296,-130,-33,-24
13780,-1048,-352,1240,-128,-30,-25
13785,-1032,-352,1272,-122,-29,-26
13790,-1032,-368,1280,-115,-28,-28
13795,-1024,-392,1256,-102,-27,-29
13800,-1032,-400,1264,-88,-27,-29
13805,-1024,-392,1256,-79,-26,-29
13810,-1016,-416,1280,-66,-29,-29
13815,-1032,-384,1280,-48,-32,-27
13820,-1024,-320,1288,-34,-34,-25
13825,-1024,-328,1280,-21,-35,-23
13830,-1024,-296,1304,-11,-34,-23
13835,-1008,-264,1280,-5,-33,-20
13840,-1000,-288,1328,-3,-30,-22
13845,-1008,-288,1328,-4,-30,-24
13850,-1008,-280,1328,-7,-30,-24
13855,-1000,-272,1336,-11,-30,-25
13860,-992,-288,1360,-16,-30,-27
13865,-1000,-288,1344,-22,-31,-26
13870,-1000,-296,1344,-27,-32,-26
13875,-1008,-304,1352,-33,-29,-28
13880,-1000,-304,1360,-36,-28,-29
13885,-1008,-328,1376,-38,-25,-28
13890,-1016,-336,1344,-40,-21,-29
13895,-1008,-352,1368,-41,-17,-28
13900,-1000,-352,1368,-42,-12,-27
13905,-1008,-336,1312,-42,-9,-29
13910,-1024,-344,1352,-40,-5,-28
13915,-1016,-344,1320,-38,-2,-28
13920,-1008,-376,1320,-32,1,-27
13925,-1032,-352,1312,-30,3,-26
13930,-1016,-320,1336,-26,5,-25
13935,-1024,-336,1328,-22,9,-25
13940,-992,-344,1296,-21,13,-23
13945,-1016,-352,1352,-21,15,-21
13950,-1016,-296,1280,-22,16,-18
13955,-1000,-336,1304,-22,17,-16
13960,-1000,-320,1328,-23,19,-13
13965,-1000,-312,1320,-25,18,-10
13970,-1000,-312,1312,-29,21,-6
13975,-1000,-296,1320,-34,21,-4
13980,-1008,-312,1320,-39,23,-3
13985,-1032,-304,1328,-45,25,1
13990,-1008,-320,1320,-50,27,1
13995,-1000,-312,1312,-56,29,4
14000,-1008,-312,1344,-60,33,7
14005,-1016,-328,1312,-61,35,8
14010,-1024,-320,1328,-62,36,9
14015,-1016,-304,1280,-62,37,9
14020,-1112,-376,1368,-61,37,9
14025,-1008,-304,1304,-60,39,9
14030,-1024,-328,1304,-59,40,9
14035,-1032,-304,1328,-57,39,8
14040,-1032,-320,1312,-54,38,10
14045,-1024,-304,1320,-51,37,8
14050,-1048,-312,1304,-50,35,6
14055,-1032,-312,1304,-47,32,4
14060,-1048,-312,1312,-43,29,3
14065,-1056,-280,1288,-42,27,3
14070,-1048,-288,1296,-42,27,0
14075,-1032,-296,1328,-41,26,1
14080,-1040,-304,1296,-41,26,-1
14085,-1048,-296,1296,-43,24,-2
14090,-1048,-296,1328,-42,24,-2
14095,-1040,-312,1320,-45,22,-2
14100,-1040,-304,1304,-46,21,-3
14105,-1056,-320,1328,-45,19,-6
14110,-1032,-288,1288,-44,17,-6
14115,-1048,-320,1328,-43,16,-6
14120,-1040,-288,1336,-42,15,-6
14125,-1040,-288,1304,-40,12,-5
14130,-1048,-304,1280,-39,9,-7
14135,-1056,-312,1328,-37,7,-7
14140,-1032,-320,1288,-38,4,-7
14145,-1040,-288,1320,-38,3,-8
14150,-1048,-272,1296,-40,1,-8
14155,-1048,-296,1312,-43,-1,-10
14160,-1048,-312,1312,-44,-4,-10
14165,-1032,-288,1320,-47,-5,-11
14170,-1032,-304,1344,-48,-5,-12
14175,-1024,-312,1304,-49,-5,-12
14180,-1024,-320,1320,-50,-6,-12
14185,-1016,-304,1288,-51,-6,-11
14190,-1024,-312,1304,-52,-8,-11
14195,-1016,-320,1320,-53,-8,-11
14200,-1032,-304,1312,-55,-9,-11
14205,-1032,-304,1304,-55,-10,-10
14210,-1024,-304,1296,-56,-11,-10
14215,-1024,-312,1312,-53,-11,-10
14220,-1024,-320,1296,-52,-11,-10
14225,-1024,-320,1328,-48,-11,-9
14230,-1032,-312,1296,-49,-8,-7
14235,-1024,-312,1288,-51,-6,-7
14240,-1024,-320,1312,-55,-6,-7
14245,-1016,-312,1368,-60,-5,-7
14250,-1040,-312,1368,-64,-2,-6
14255,-1000,-320,1352,-63,3,-5
14260,-1016,-328,1352,-63,7,-4
14265,-1024,-320,1312,-62,10,-3
14270,-1016,-312,1304,-61,11,-1
14275,-1024,-312,1304,-62,11,0
14280,-1016,-320,1304,-63,9,0
14285,-1016,-320,1328,-63,7,2
14290,-1024,-312,1352,-62,6,3
14295,-1032,-320,1368,-64,5,4
14300,-1024,-320,1304,-62,6,3
14305,-1008,-320,1344,-60,6,4
14310,-1016,-312,1328,-58,7,4
14315,-1000,-304,1344,-53,9,4
14320,-1016,-296,1304,-51,10,2
14325,-1016,-296,1304,-48,12,2
14330,-1000,-296,1312,-49,12,0
14335,-1048,-312,1304,-47,11,-3
14340,-1016,-336,1328,-48,10,-3
14345,-1024,-296,1304,-48,8,-4
14350,-1008,-304,1320,-49,6,-6
14355,-1032,-312,1328,-48,6,-6
14360,-1008,-328,1320,-47,5,-8
14365,-1024,-328,1320,-46,7,-6
14370,-1032,-312,1296,-47,8,-6
14375,-1008,-304,1312,-46,8,-5
14380,-1000,-328,1328,-48,11,-5
14385,-1024,-304,1312,-47,13,-6
14390,-1016,-312,1328,-47,12,-5
14395,-1040,-304,1328,-45,13,-4
14400,-864,-304,1456,-46,13,-3
14405,-1016,-320,1336,-47,14,-3
14410,-1008,-336,1312,-48,16,-4
14415,-1024,-336,1336,-48,16,-3
14420,-1024,-328,1296,-48,18,-3
14425,-1016,-312,1344,-49,20,-4
14430,-1032,-328,1336,-49,21,-3
14435,-1032,-312,1336,-51,22,-4
14440,-1024,-304,1288,-51,22,-4
14445,-1016,-328,1296,-52,24,-4
14450,-1024,-328,1296,-50,21,-5
14455,-1008,-312,1304,-51,20,-4
14460,-1024,-320,1312,-51,19,-6
14465,-1024,-288,1328,-49,17,-4
14470,-1008,-304,1312,-49,17,-3
14475,-1016,-312,1312,-50,16,-1
14480,-1024,-304,1320,-52,15,0
14485,-1008,-312,1304,-54,14,0
14490,-1016,-328,1296,-53,14,0
14495,-1016,-312,1328,-50,15,2
14500,-1008,-320,1328,-48,16,2
14505,-1040,-344,1344,-48,19,0
14510,-1032,-312,1320,-48,19,-1
14515,-1032,-304,1312,-47,19,-1
14520,-1016,-320,1336,-46,19,-2
14525,-1032,-320,1320,-45,18,-3
14530,-1000,-328,1320,-42,16,-3
14535,-1016,-296,1320,-44,15,-4
14540,-1016,-328,1264,-44,15,-6
14545,-1056,-296,1304,-43,16,-5
14550,-1016,-328,1320,-45,14,-6
14555,-1016,-320,1320,-47,13,-5
14560,-1024,-312,1296,-47,13,-6
14565,-1024,-312,1304,-48,13,-6
14570,-1024,-296,1312,-47,13,-8
14575,-1024,-320,1304,-50,12,-6
14580,-1024,-288,1320,-52,12,-6
14585,-1032,-328,1304,-52,11,-6
14590,-1016,-312,1304,-52,12,-6
14595,-1016,-304,1312,-51,12,-6
14600,-1016,-312,1312,-50,12,-6
14605,-1008,-304,1312,-49,11,-5
14610,-1040,-304,1312,-48,11,-6
14615,-1016,-320,1304,-48,9,-6
14620,-1024,-320,1296,-48,10,-6
14625,-1016,-312,1336,-48,10,-6
14630,-1032,-344,1304,-47,10,-6
14635,-1016,-328,1360,-46,10,-7
14640,-1024,-304,1312,-44,11,-5
14645,-1008,-312,1336,-45,11,-7
14650,-1016,-320,1288,-43,13,-7
14655,-1008,-320,1312,-43,13,-6
14660,-1032,-328,1304,-41,15,-4
14665,-1016,-304,1336,-45,13,-7
14670,-1016,-320,1336,-44,11,-7
14675,-1016,-304,1328,-44,11,-5
14680,-1040,-288,1296,-46,10,-5
14685,-1032,-312,1336,-44,11,-6
14690,-1040,-288,1296,-45,11,-6
14695,-1016,-312,1336,-43,12,-7
14700,-1032,-304,1296,-41,13,-8
14705,-1000,-320,1352,-40,14,-7
14710,-992,-328,1328,-38,15,-9
14715,-1032,-320,1312,-38,15,-10
14720,-1008,-320,1304,-38,16,-10
14725,-1008,-320,1328,-38,16,-9
14730,-1000,-320,1320,-38,13,-9
14735,-1008,-320,1376,-38,14,-8
14740,-1024,-328,1312,-38,14,-9
14745,-1032,-312,1320,-37,15,-8
14750,-1016,-312,1320,-38,15,-9
14755,-1024,-320,1304,-35,15,-10
14760,-1040,-296,1328,-34,16,-9
14765,-1024,-320,1280,-34,16,-8
14770,-1024,-320,1304,-35,16,-9
14775,-1008,-320,1312,-34,16,-7
14780,-1008,-328,1264,-35,16,-5
14785,-1032,-304,1320,-35,16,-7
14790,-1024,-304,1296,-36,18,-7
14795,-1032,-296,1368,-36,18,-8
14800,-1024,-288,1312,-35,17,-6
14805,-1008,-304,1336,-37,18,-6
14810,-1016,-304,1304,-38,19,-5
14815,-1024,-296,1320,-38,19,-4
14820,-1008,-320,1344,-38,19,-3
14825,-1024,-296,1328,-39,19,-2
14830,-1016,-328,1320,-40,19,-4
14835,-1032,-304,1312,-40,18,-3
14840,-1032,-312,1320,-40,17,-4
14845,-1016,-304,1272,-41,17,-6
14850,-1008,-320,1320,-41,17,-7
14855,-1016,-304,1344,-40,14,-7
14860,-1016,-320,1328,-39,15,-8
14865,-1024,-312,1312,-40,16,-9
14870,-1024,-320,1376,-39,16,-8
14875,-1008,-296,1320,-38,16,-8
14880,-1008,-320,1336,-40,14,-8
14885,-1024,-304,1328,-39,15,-9
14890,-1024,-304,1336,-41,16,-9
14895,-1016,-304,1264,-41,17,-8
14900,-1024,-288,1336,-40,19,-9
14905,-1024,-312,1328,-39,18,-9
14910,-1032,-296,1304,-41,19,-9
14915,-1008,-312,1336,-39,16,-7
14920,-1008,-328,1312,-39,17,-6
14925,-1016,-320,1320,-38,17,-7
14930,-1024,-320,1352,-37,17,-5
14935,-1024,-304,1312,-35,17,-6
14940,-1008,-320,1320,-32,17,-7
14945,-1048,-320,1304,-31,17,-8
14950,-1024,-320,1328,-34,16,-6
14955,-1032,-288,1320,-36,16,-7
14960,-1016,-336,1320,-39,18,-7
14965,-1000,-304,1336,-42,19,-7
14970,-1024,-296,1352,-43,18,-8
14975,-1008,-312,1328,-45,18,-9
14980,-1024,-296,1304,-44,19,-7
14985,-1008,-312,1328,-43,19,-8
14990,-1024,-312,1312,-41,19,-7
14995,-1000,-328,1296,-40,20,-8
