timestamp,accel_x,accel_y,accel_z,gyro_x,gyro_y,gyro_z
0,160,-1832,-784,179,688,226
5,120,-1776,-760,197,689,222
10,96,-1752,-768,209,686,219
15,72,-1728,-688,215,685,214
20,24,-1720,-672,215,679,209
25,32,-1696,-624,211,667,206
30,8,-1696,-640,206,652,203
35,8,-1648,-584,199,636,202
40,0,-1672,-584,186,619,204
45,0,-1664,-632,167,601,206
50,-8,-1688,-584,148,584,211
55,0,-1664,-616,126,567,216
60,-16,-1688,-592,104,551,221
65,16,-1712,-600,84,534,225
70,40,-1728,-608,66,517,229
75,56,-1696,-632,51,502,231
80,72,-1752,-632,36,489,232
85,64,-1728,-640,24,479,232
90,64,-1776,-680,14,471,229
95,56,-1792,-672,1,465,229
100,56,-1784,-672,-8,461,229
105,40,-1808,-672,-13,459,232
110,48,-1848,-616,-18,457,237
115,24,-1848,-624,-20,455,244
120,24,-1872,-632,-23,454,252
125,16,-1864,-640,-21,449,257
130,48,-1920,-624,-20,447,262
135,0,-1888,-656,-16,448,262
140,-16,-1888,-624,-12,451,262
145,-8,-1912,-656,-2,456,259
150,0,-1904,-664,9,463,253
155,-16,-1896,-648,25,471,247
160,-8,-1888,-640,44,483,239
165,0,-1904,-640,62,494,230
170,0,-1888,-640,78,506,223
175,-16,-1880,-584,90,516,215
180,-48,-1872,-624,99,526,207
185,0,-1864,-616,103,529,202
190,-24,-1888,-584,105,531,197
195,8,-1904,-592,104,529,193
200,0,-1928,-592,100,524,188
205,8,-1960,-600,97,512,180
210,0,-1984,-624,94,496,173
215,-16,-2024,-640,95,476,167
220,-24,-2032,-664,98,455,159
225,-80,-2032,-656,105,435,152
230,-96,-2040,-648,116,418,145
235,-120,-2040,-640,129,403,136
240,-152,-2032,-632,141,386,128
245,-152,-2024,-608,155,371,118
250,-128,-2016,-624,166,355,108
255,-104,-2016,-632,175,339,100
260,-104,-1992,-592,181,324,90
265,-72,-1968,-640,187,308,82
270,-40,-1944,-656,191,295,75
275,-64,-1920,-648,194,284,67
280,0,-1920,-648,197,273,62
285,0,-1888,-640,197,263,56
290,0,-1904,-656,198,254,51
295,0,-1880,-632,196,245,47
300,24,-1872,-640,194,236,42
305,8,-1856,-616,192,228,41
310,0,-1856,-632,189,222,39
315,16,-1872,-608,187,214,39
320,32,-1848,-584,186,207,38
325,32,-1848,-608,186,201,36
330,16,-1840,-640,186,195,37
335,24,-1856,-600,187,192,38
340,8,-1824,-624,184,189,35
345,-8,-1792,-568,182,187,30
350,32,-1792,-664,178,186,30
355,0,-1808,-616,171,188,26
360,16,-1808,-624,167,189,22
365,8,-1832,-592,160,190,16
370,16,-1832,-600,156,193,14
375,16,-1800,-600,151,195,10
380,32,-1824,-632,146,196,6
385,40,-1808,-624,141,197,4
390,64,-1848,-608,137,200,5
395,48,-1848,-616,133,202,4
400,88,-1864,-648,130,205,5
405,80,-1816,-608,127,208,5
410,112,-1840,-640,124,211,3
415,72,-1824,-600,121,214,6
420,96,-1816,-616,115,218,8
425,104,-1824,-632,109,221,11
430,80,-1832,-632,99,226,15
435,88,-1856,-632,88,230,17
440,96,-1856,-672,75,234,19
445,96,-1832,-672,61,238,23
450,112,-1856,-648,47,241,25
455,72,-1864,-672,37,245,29
460,112,-1864,-664,29,250,32
465,104,-1864,-640,23,252,32
470,80,-1840,-672,18,253,31
475,72,-1856,-688,13,256,32
480,104,-1856,-664,9,258,31
485,96,-1864,-656,5,262,29
490,112,-1848,-688,-4,268,28
495,144,-1848,-704,-18,277,25
500,176,-1848,-712,-33,286,19
505,168,-1824,-712,-48,296,16
510,160,-1744,-688,-61,309,11
515,184,-1784,-720,-70,318,4
520,192,-1744,-744,-78,330,-1
525,224,-1768,-720,-85,341,-6
530,224,-1760,-744,-96,350,-10
535,240,-1752,-728,-110,359,-12
540,256,-1736,-736,-126,370,-15
545,256,-1744,-736,-146,380,-16
550,240,-1704,-744,-163,392,-16
555,240,-1720,-768,-182,404,-16
560,256,-1712,-816,-199,415,-15
565,224,-1672,-840,-217,428,-13
570,256,-1672,-808,-233,443,-10
575,272,-1664,-784,-249,459,-8
580,272,-1632,-824,-266,473,-3
585,264,-1616,-840,-284,487,1
590,312,-1616,-816,-304,499,7
595,312,-1608,-816,-326,510,13
600,320,-1608,-792,-352,521,20
605,304,-1600,-872,-378,529,23
610,320,-1616,-840,-403,537,30
615,328,-1632,-840,-432,544,35
620,280,-1616,-872,-462,549,40
625,296,-1656,-856,-492,554,47
630,296,-1664,-816,-524,564,54
635,264,-1672,-872,-552,578,61
640,296,-1704,-864,-580,595,67
645,232,-1720,-872,-603,611,74
650,256,-1776,-832,-626,624,81
655,224,-1792,-872,-642,636,87
660,232,-1800,-848,-654,648,96
665,224,-1824,-840,-666,662,102
670,208,-1856,-848,-677,673,110
675,256,-1936,-864,-692,683,116
680,216,-1864,-848,-705,693,121
685,192,-1896,-880,-720,700,129
690,208,-1920,-840,-733,704,136
695,192,-1888,-872,-744,709,143
700,208,-1912,-880,-751,714,149
705,168,-1920,-864,-755,721,156
710,176,-1880,-880,-756,724,161
715,192,-1904,-848,-750,726,167
720,184,-1856,-832,-742,728,173
725,184,-1864,-800,-732,727,177
730,200,-1848,-792,-723,726,186
735,160,-1856,-736,-712,725,191
740,208,-1856,-736,-703,722,196
745,200,-1864,-696,-693,719,198
750,200,-1840,-672,-681,712,199
755,192,-1848,-648,-670,706,200
760,216,-1856,-656,-657,701,199
765,200,-1864,-592,-644,694,196
770,200,-1848,-584,-635,683,191
775,216,-1880,-600,-623,672,186
780,232,-1912,-584,-610,656,183
785,248,-1928,-560,-592,639,178
790,216,-1912,-560,-574,617,172
795,224,-1928,-536,-554,595,168
800,240,-1928,-560,-538,571,162
805,256,-1968,-568,-524,544,154
810,248,-1952,-568,-515,515,147
815,288,-1976,-560,-507,485,141
820,304,-2000,-608,-504,453,131
825,312,-2000,-608,-500,422,123
830,320,-2024,-592,-496,391,116
835,320,-2008,-616,-488,361,107
840,296,-2048,-600,-473,332,99
845,368,-2056,-624,-454,307,94
850,376,-2048,-624,-428,285,89
855,416,-2048,-616,-394,267,81
860,416,-2040,-624,-360,253,79
865,440,-2024,-600,-324,243,76
870,408,-1984,-624,-284,234,77
875,448,-1992,-632,-240,227,81
880,432,-1936,-624,-193,218,86
885,464,-1920,-600,-142,208,95
890,440,-1928,-512,-87,194,106
895,432,-1872,-488,-35,178,118
900,408,-1864,-456,15,153,131
905,376,-1848,-464,56,127,149
910,376,-1840,-448,87,95,168
915,328,-1776,-432,110,62,189
920,304,-1816,-448,125,30,214
925,272,-1808,-472,134,4,238
930,280,-1768,-512,138,-19,262
935,232,-1752,-504,136,-36,285
940,288,-1760,-560,128,-45,308
945,328,-1736,-616,111,-38,328
950,304,-1712,-776,84,-14,345
955,368,-1664,-960,41,13,356
960,408,-1672,-1064,-27,35,368
965,528,-1648,-1192,-114,47,380
970,608,-1680,-1288,-208,43,387
975,736,-1784,-1352,-290,37,389
980,800,-1896,-1408,-350,47,388
985,760,-1944,-1432,-387,85,384
990,728,-2040,-1488,-402,155,375
995,648,-2080,-1472,-400,239,368
1000,568,-2120,-1480,-379,330,362
1005,464,-2096,-1424,-335,417,362
1010,408,-2128,-1360,-268,494,364
1015,312,-2096,-1272,-184,552,370
1020,184,-2072,-1120,-91,585,376
1025,136,-2080,-1032,-6,595,377
1030,64,-2048,-904,63,586,380
1035,16,-2032,-928,112,567,383
1040,8,-2000,-872,151,540,386
1045,-56,-1904,-896,179,507,388
1050,-64,-1848,-896,197,468,384
1055,-56,-1792,-968,215,425,381
1060,-56,-1752,-944,230,385,374
1065,-72,-1704,-976,245,347,366
1070,-72,-1680,-984,262,312,358
1075,-80,-1632,-984,275,282,348
1080,-64,-1640,-1008,283,253,342
1085,-96,-1600,-984,285,226,334
1090,-112,-1552,-976,281,200,328
1095,-88,-1560,-976,272,178,323
1100,-56,-1552,-952,257,158,319
1105,-16,-1512,-1000,236,142,316
1110,8,-1536,-984,209,131,313
1115,16,-1496,-1016,178,118,308
1120,88,-1472,-1000,148,106,303
1125,120,-1520,-1024,120,96,297
1130,120,-1536,-984,98,87,294
1135,96,-1552,-1016,84,81,290
1140,96,-1640,-1000,78,79,285
1145,120,-1664,-992,78,84,282
1150,216,-1632,-1008,84,91,278
1155,144,-1656,-1056,93,102,273
1160,168,-1728,-1064,102,115,269
1165,168,-1688,-1128,109,131,264
1170,160,-1744,-1032,114,146,261
1175,208,-1720,-1024,118,163,259
1180,192,-1648,-1080,122,180,258
1185,152,-1720,-1072,127,193,258
1190,136,-1776,-1120,132,205,257
1195,152,-1720,-1136,139,215,258
1200,80,-1736,-1096,141,218,256
1205,112,-1728,-1080,141,220,258
1210,104,-1728,-1040,139,217,259
1215,48,-1736,-1104,137,213,263
1220,48,-1672,-1088,139,208,265
1225,24,-1664,-1080,142,203,269
1230,48,-1664,-1064,143,197,273
1235,8,-1672,-1080,147,193,278
1240,16,-1680,-1080,149,192,280
1245,-16,-1688,-1048,153,193,280
1250,72,-1672,-976,155,199,277
1255,40,-1648,-1048,159,209,276
1260,16,-1656,-1040,160,216,274
1265,32,-1672,-1064,157,226,270
1270,56,-1696,-1024,153,238,269
1275,72,-1704,-984,151,246,264
1280,56,-1728,-1024,150,256,261
1285,40,-1728,-1000,152,263,260
1290,56,-1744,-952,158,266,259
1295,40,-1744,-952,168,266,259
1300,16,-1704,-920,183,260,263
1305,16,-1752,-928,200,254,265
1310,8,-1752,-920,217,244,269
1315,-8,-1712,-912,231,231,272
1320,0,-1696,-928,241,220,276
1325,-32,-1688,-952,247,209,277
1330,-72,-1680,-936,253,200,279
1335,-72,-1640,-920,260,193,279
1340,-48,-1640,-928,268,187,280
1345,-48,-1632,-808,281,183,282
1350,-112,-1624,-880,300,180,285
1355,-104,-1568,-840,321,175,288
1360,-128,-1560,-776,343,167,292
1365,-136,-1552,-768,367,157,298
1370,-128,-1520,-760,391,144,305
1375,-120,-1504,-688,414,129,306
1380,-120,-1504,-760,431,109,305
1385,-152,-1456,-696,438,82,304
1390,-160,-1464,-704,432,52,300
1395,-144,-1440,-720,414,22,292
1400,-160,-1432,-816,381,-5,282
1405,-176,-1440,-856,332,-29,267
1410,-192,-1480,-912,272,-46,246
1415,-232,-1544,-904,209,-54,224
1420,-248,-1544,-952,150,-54,201
1425,-280,-1624,-1008,100,-43,177
1430,-264,-1752,-1032,61,-28,159
1435,-288,-1864,-1000,28,-6,139
1440,-256,-1920,-1064,8,12,123
1445,-272,-1968,-1080,-2,28,108
1450,-264,-2016,-1128,-7,42,95
1455,-256,-2088,-1136,-6,55,83
1460,-240,-2080,-1192,2,66,68
1465,-216,-2112,-1112,20,80,57
1470,-208,-2152,-1112,48,94,45
1475,-176,-2112,-1048,81,105,37
1480,-176,-2096,-1024,115,113,32
1485,-152,-2048,-992,147,117,33
1490,-144,-2008,-984,171,115,37
1495,-160,-1960,-952,185,110,44
1500,-144,-1912,-952,186,100,53
1505,-128,-1864,-944,180,89,65
1510,-136,-1792,-952,171,76,77
1515,-112,-1744,-928,162,64,90
1520,-144,-1728,-928,159,50,99
1525,-144,-1664,-896,155,40,109
1530,-136,-1656,-912,153,31,115
1535,-136,-1672,-832,149,25,123
1540,-176,-1664,-840,140,21,131
1545,-136,-1664,-832,128,19,135
1550,-168,-1688,-824,118,16,142
1555,-160,-1680,-808,107,10,147
1560,-136,-1728,-792,96,5,152
1565,-160,-1712,-768,78,-2,156
1570,-136,-1752,-728,58,-12,160
1575,-176,-1752,-704,42,-24,161
1580,-152,-1744,-728,31,-39,165
1585,-160,-1752,-688,24,-54,165
1590,-144,-1728,-728,17,-68,167
1595,-208,-1728,-720,13,-77,166
1600,-160,-1680,-712,10,-79,162
1605,-160,-1680,-648,1,-79,158
1610,-152,-1672,-648,-10,-74,153
1615,-152,-1640,-696,-19,-66,146
1620,-136,-1656,-712,-33,-58,138
1625,-152,-1656,-704,-46,-48,130
1630,-128,-1672,-672,-61,-38,121
1635,-112,-1688,-680,-73,-28,111
1640,-88,-1704,-672,-83,-19,99
1645,-80,-1704,-672,-89,-9,89
1650,-80,-1720,-680,-93,3,82
1655,-40,-1760,-648,-98,19,73
1660,0,-1752,-680,-101,33,62
1665,-8,-1768,-696,-100,47,54
1670,0,-1768,-656,-99,60,46
1675,8,-1792,-680,-99,70,38
1680,0,-1816,-656,-97,78,33
1685,0,-1840,-672,-97,82,27
1690,-8,-1824,-680,-97,86,22
1695,-32,-1840,-656,-97,90,16
1700,-32,-1856,-640,-92,94,9
1705,-24,-1896,-664,-85,98,0
1710,-24,-1856,-632,-76,105,-7
1715,-64,-1848,-624,-63,112,-14
1720,-40,-1840,-640,-48,120,-23
1725,-24,-1856,-632,-34,129,-31
1730,-40,-1808,-616,-19,136,-42
1735,-56,-1824,-624,-4,148,-49
1740,-40,-1824,-624,7,158,-58
1745,-48,-1816,-600,14,167,-67
1750,-64,-1856,-616,15,175,-78
1755,-40,-1832,-616,11,184,-88
1760,-8,-1880,-576,7,193,-95
1765,-48,-1872,-560,5,200,-102
1770,0,-1904,-568,2,202,-107
1775,-8,-1920,-520,4,201,-110
1780,-24,-1968,-528,13,199,-111
1785,-16,-1992,-504,24,193,-112
1790,-8,-2016,-504,40,185,-110
1795,-80,-2000,-520,61,176,-108
1800,-104,-2048,-480,87,165,-105
1805,-56,-2040,-408,115,155,-106
1810,-96,-2040,-424,142,150,-109
1815,-40,-2040,-392,168,149,-110
1820,-24,-2072,-352,196,149,-115
1825,-112,-2016,-384,224,150,-120
1830,-64,-2016,-360,256,150,-129
1835,-72,-2016,-360,289,152,-142
1840,-56,-2016,-392,323,153,-156
1845,-48,-1984,-416,359,150,-169
1850,-16,-1984,-408,389,142,-182
1855,-16,-1936,-424,417,134,-195
1860,-40,-1928,-448,438,126,-207
1865,-48,-1904,-480,451,118,-218
1870,-80,-1872,-488,455,112,-225
1875,-112,-1888,-480,443,107,-224
1880,-152,-1880,-520,411,104,-217
1885,-160,-1920,-624,354,99,-202
1890,-152,-1928,-736,269,90,-182
1895,-136,-2000,-880,160,79,-149
1900,-144,-2056,-976,36,63,-110
1905,-112,-2136,-1120,-88,36,-73
1910,-32,-2240,-1160,-195,-9,-43
1915,-16,-2336,-1216,-271,-71,-23
1920,-24,-2432,-1160,-301,-145,-7
1925,-184,-2480,-1160,-282,-217,10
1930,-256,-2576,-1024,-216,-280,31
1935,-352,-2648,-928,-119,-335,51
1940,-408,-2672,-832,-10,-380,63
1945,-416,-2704,-744,90,-411,66
1950,-408,-2680,-752,168,-418,65
1955,-344,-2656,-736,225,-400,64
1960,-264,-2568,-784,271,-355,61
1965,-192,-2472,-832,312,-290,55
1970,-96,-2376,-920,356,-211,42
1975,-32,-2232,-976,409,-120,21
1980,-72,-2160,-1008,470,-26,-5
1985,-24,-2056,-1088,521,63,-33
1990,-32,-1920,-1152,549,146,-56
1995,-56,-1816,-1200,555,214,-69
2000,-96,-1704,-1232,544,265,-79
2005,-144,-1600,-1256,520,295,-85
2010,-208,-1528,-1264,484,302,-86
2015,-176,-1480,-1216,449,295,-85
2020,-136,-1408,-1208,413,286,-80
2025,-120,-1352,-1080,381,283,-72
2030,-112,-1320,-1064,356,282,-63
2035,-24,-1296,-984,334,283,-56
2040,8,-1272,-968,310,283,-51
2045,64,-1280,-992,280,282,-45
2050,128,-1264,-984,242,274,-39
2055,176,-1256,-952,200,259,-30
2060,256,-1288,-928,156,232,-27
2065,288,-1344,-952,117,205,-28
2070,288,-1368,-952,87,174,-31
2075,288,-1440,-952,64,145,-41
2080,232,-1488,-952,48,119,-56
2085,216,-1560,-992,37,97,-75
2090,144,-1632,-952,28,82,-94
2095,72,-1680,-984,23,72,-110
2100,0,-1720,-992,15,61,-124
2105,-40,-1776,-984,6,52,-141
2110,-120,-1792,-992,-3,39,-154
2115,-152,-1824,-968,-7,23,-171
2120,-168,-1880,-952,-11,0,-190
2125,-176,-1896,-920,-14,-25,-210
2130,-208,-1896,-928,-21,-49,-230
2135,-192,-1904,-936,-26,-70,-252
2140,-168,-1944,-928,-33,-84,-277
2145,-136,-1848,-952,-36,-91,-299
2150,-136,-1840,-904,-34,-98,-322
2155,-96,-1808,-896,-23,-102,-337
2160,-88,-1776,-848,-4,-107,-349
2165,-24,-1752,-840,19,-116,-360
2170,0,-1744,-864,39,-123,-366
2175,32,-1688,-840,52,-135,-368
2180,40,-1672,-776,58,-148,-369
2185,64,-1640,-784,61,-158,-368
2190,120,-1608,-752,61,-173,-365
2195,120,-1600,-752,57,-186,-362
2200,128,-1600,-768,53,-197,-359
2205,128,-1592,-736,48,-208,-355
2210,112,-1584,-728,41,-215,-349
2215,112,-1584,-744,34,-219,-344
2220,96,-1592,-760,30,-224,-340
2225,96,-1608,-728,26,-230,-336
2230,104,-1592,-728,21,-235,-332
2235,136,-1608,-720,19,-241,-329
2240,72,-1608,-672,19,-250,-324
2245,96,-1600,-696,18,-260,-321
2250,120,-1600,-688,17,-268,-318
2255,144,-1600,-680,13,-280,-316
2260,128,-1600,-688,6,-288,-316
2265,128,-1576,-672,-3,-297,-315
2270,128,-1592,-656,-16,-305,-315
2275,136,-1600,-672,-30,-314,-314
2280,136,-1616,-672,-48,-322,-315
2285,104,-1648,-608,-70,-332,-315
2290,96,-1632,-632,-90,-343,-312
2295,80,-1648,-616,-106,-356,-311
2300,48,-1688,-584,-119,-369,-307
2305,56,-1664,-624,-133,-384,-300
2310,72,-1680,-608,-139,-396,-293
2315,40,-1648,-600,-139,-410,-281
2320,24,-1664,-584,-136,-421,-266
2325,24,-1648,-592,-129,-432,-252
2330,40,-1632,-544,-120,-443,-239
2335,48,-1656,-568,-116,-456,-227
2340,64,-1672,-520,-111,-474,-219
2345,40,-1696,-512,-109,-494,-212
2350,64,-1752,-432,-110,-517,-210
2355,80,-1824,-384,-109,-544,-207
2360,24,-1816,-336,-102,-576,-209
2365,32,-1888,-368,-91,-608,-209
2370,-8,-1928,-336,-73,-640,-208
2375,48,-1984,-336,-52,-669,-211
2380,-8,-2016,-336,-31,-681,-217
2385,-24,-2032,-376,-11,-675,-218
2390,16,-2040,-408,20,-657,-228
2395,72,-2056,-480,58,-633,-239
2400,104,-2056,-472,93,-604,-248
2405,216,-2064,-464,126,-569,-257
2410,184,-2024,-456,159,-537,-266
2415,216,-2072,-432,194,-515,-275
2420,232,-2064,-408,234,-500,-276
2425,264,-2048,-440,274,-486,-267
2430,320,-2024,-488,309,-472,-255
2435,352,-2024,-504,332,-450,-236
2440,432,-1992,-480,347,-422,-221
2445,488,-2016,-472,359,-391,-211
2450,536,-2008,-448,373,-368,-208
2455,528,-2008,-360,394,-355,-208
2460,568,-2048,-312,423,-353,-210
2465,544,-2056,-248,459,-358,-209
2470,480,-2096,-216,502,-369,-208
2475,408,-2080,-208,541,-379,-210
2480,328,-2096,-240,567,-396,-209
2485,264,-2136,-312,570,-420,-209
2490,128,-2128,-432,540,-452,-212
2495,24,-2152,-608,467,-490,-219
2500,-88,-2152,-848,353,-530,-229
2505,-128,-2168,-1096,202,-555,-239
2510,-200,-2168,-1240,31,-554,-242
2515,-200,-2192,-1376,-135,-516,-240
2520,-152,-2216,-1416,-258,-443,-235
2525,-72,-2256,-1384,-317,-351,-238
2530,24,-2328,-1360,-311,-253,-252
2535,64,-2360,-1400,-248,-161,-272
2540,96,-2432,-1344,-163,-87,-298
2545,168,-2496,-1224,-72,-53,-346
2550,208,-2552,-1264,-4,-15,-358
2555,72,-2688,-1216,58,9,-331
2560,-32,-2664,-1208,118,-8,-312
2565,-112,-2656,-1248,175,-51,-304
2570,-176,-2616,-1224,249,-121,-305
2575,-248,-2480,-1320,338,-214,-317
2580,-312,-2392,-1360,422,-328,-337
2585,-456,-2240,-1392,489,-462,-352
2590,-512,-2168,-1408,531,-606,-362
2595,-624,-2048,-1448,549,-743,-367
2600,-752,-1872,-1488,546,-860,-370
2605,-816,-1736,-1504,529,-953,-374
2610,-840,-1584,-1520,510,-1017,-376
2615,-832,-1504,-1520,493,-1055,-379
2620,-808,-1408,-1456,475,-1078,-374
2625,-728,-1344,-1408,444,-1094,-364
2630,-600,-1352,-1368,396,-1107,-352
2635,-512,-1352,-1216,330,-1113,-338
2640,-440,-1368,-1184,256,-1112,-322
2645,-288,-1384,-1112,181,-1098,-306
2650,-136,-1448,-1024,116,-1072,-292
2655,-40,-1456,-1024,66,-1034,-285
2660,16,-1480,-968,35,-992,-277
2665,32,-1504,-936,18,-950,-270
2670,88,-1520,-920,18,-909,-264
2675,88,-1528,-888,27,-873,-256
2680,168,-1536,-840,37,-843,-249
2685,184,-1512,-824,43,-817,-237
2690,208,-1520,-840,43,-799,-229
2695,176,-1520,-856,32,-784,-216
2700,192,-1512,-872,16,-775,-204
2705,168,-1520,-864,-7,-763,-191
2710,88,-1520,-880,-30,-755,-178
2715,80,-1528,-848,-45,-747,-168
2720,48,-1528,-832,-48,-743,-163
2725,0,-1480,-848,-42,-743,-158
2730,-56,-1480,-840,-35,-742,-153
2735,-112,-1488,-800,-33,-744,-152
2740,-96,-1456,-800,-37,-749,-157
2745,-112,-1432,-848,-49,-751,-162
2750,-136,-1424,-808,-66,-754,-167
2755,-152,-1424,-832,-86,-758,-176
2760,-144,-1464,-776,-106,-764,-189
2765,-176,-1432,-776,-125,-770,-204
2770,-184,-1416,-776,-141,-773,-221
2775,-248,-1456,-736,-149,-778,-240
2780,-208,-1456,-680,-151,-782,-254
2785,-232,-1472,-672,-148,-783,-267
2790,-224,-1512,-680,-144,-778,-279
2795,-208,-1504,-664,-140,-772,-289
2800,-200,-1544,-672,-137,-764,-301
2805,-232,-1528,-672,-129,-751,-314
2810,-232,-1520,-680,-116,-735,-326
2815,-232,-1520,-680,-98,-717,-338
2820,-200,-1536,-696,-79,-698,-347
2825,-168,-1544,-656,-63,-681,-357
2830,-144,-1568,-664,-47,-670,-367
2835,-144,-1536,-688,-35,-663,-374
2840,-152,-1512,-712,-29,-658,-378
2845,-104,-1536,-632,-26,-654,-380
2850,-192,-1576,-616,-29,-642,-369
2855,-136,-1568,-632,-34,-658,-377
2860,-168,-1576,-632,-49,-668,-386
2865,-136,-1608,-600,-65,-673,-389
2870,-104,-1640,-640,-83,-677,-391
2875,-120,-1624,-640,-100,-679,-396
2880,-80,-1672,-632,-110,-682,-397
2885,-104,-1672,-648,-116,-681,-399
2890,-80,-1672,-624,-114,-678,-401
2895,-56,-1712,-600,-103,-672,-402
2900,-16,-1720,-544,-87,-662,-404
2905,-64,-1712,-552,-66,-650,-406
2910,-8,-1728,-520,-42,-634,-409
2915,8,-1728,-504,-19,-614,-410
2920,-8,-1752,-480,0,-591,-411
2925,0,-1760,-520,15,-570,-417
2930,0,-1800,-488,29,-546,-422
2935,0,-1840,-456,42,-522,-426
2940,0,-1856,-464,59,-500,-429
2945,-8,-1880,-424,75,-482,-430
2950,-8,-1912,-392,95,-461,-430
2955,0,-1944,-424,115,-437,-429
2960,0,-1992,-408,134,-417,-429
2965,0,-2024,-424,147,-409,-428
2970,24,-2048,-456,156,-404,-431
2975,8,-2064,-456,169,-399,-429
2980,8,-2112,-488,185,-396,-426
2985,16,-2104,-472,204,-390,-425
2990,16,-2112,-480,229,-382,-428
2995,32,-2104,-520,254,-366,-432
3000,48,-2128,-512,276,-348,-436
3005,112,-2176,-512,293,-329,-447
3010,88,-2120,-424,311,-308,-456
3015,56,-2144,-384,318,-282,-457
3020,80,-2144,-360,322,-252,-453
3025,64,-2176,-272,326,-218,-444
3030,88,-2232,-200,329,-172,-416
3035,48,-2280,-88,336,-138,-385
3040,80,-2280,-88,344,-115,-356
3045,88,-2328,-88,351,-95,-319
3050,120,-2368,-144,355,-83,-282
3055,112,-2384,-256,349,-73,-238
3060,160,-2392,-408,321,-72,-190
3065,232,-2352,-640,264,-76,-141
3070,240,-2384,-832,174,-83,-85
3075,256,-2360,-1080,58,-103,-29
3080,168,-2344,-1344,-68,-142,23
3085,24,-2384,-1504,-173,-202,68
3090,-216,-2376,-1560,-234,-277,105
3095,-424,-2432,-1536,-239,-351,131
3100,-696,-2512,-1432,-195,-408,151
3105,-912,-2528,-1272,-110,-448,163
3110,-1040,-2560,-1184,-9,-471,166
3115,-1056,-2544,-1152,100,-490,159
3120,-1056,-2512,-1208,193,-507,149
3125,-992,-2384,-1320,261,-520,134
3130,-896,-2208,-1392,307,-513,125
3135,-744,-2032,-1440,339,-481,110
3140,-520,-1888,-1416,364,-418,97
3145,-352,-1872,-1400,385,-330,90
3150,-280,-1768,-1400,398,-222,89
3155,-208,-1672,-1448,404,-121,90
3160,-112,-1584,-1456,398,-39,87
3165,24,-1528,-1408,370,10,86
3170,248,-1528,-1320,331,21,84
3175,352,-1504,-1272,284,-4,81
3180,448,-1512,-1232,235,-55,73
3185,480,-1512,-1168,192,-121,57
3190,456,-1560,-1080,160,-195,35
3195,392,-1576,-1064,133,-268,5
3200,352,-1664,-1024,107,-343,-25
3205,272,-1720,-968,81,-411,-57
3210,160,-1736,-976,61,-472,-83
3215,96,-1800,-984,50,-515,-108
3220,-16,-1808,-952,48,-540,-138
3225,-56,-1880,-928,52,-553,-170
3230,-184,-1888,-936,62,-555,-210
3235,-256,-1896,-920,74,-551,-256
3240,-352,-1888,-904,86,-543,-307
3245,-416,-1872,-888,104,-535,-362
3250,-456,-1856,-920,130,-524,-415
3255,-456,-1792,-936,169,-513,-466
3260,-424,-1800,-904,211,-502,-513
3265,-336,-1752,-856,244,-495,-554
3270,-296,-1728,-832,261,-494,-588
3275,-232,-1704,-768,270,-500,-612
3280,-128,-1640,-760,260,-514,-630
3285,-56,-1576,-760,238,-534,-641
3290,24,-1528,-784,205,-556,-645
3295,96,-1456,-776,168,-578,-635
3300,144,-1416,-768,128,-598,-623
3305,192,-1368,-744,84,-615,-606
3310,256,-1360,-744,38,-632,-584
3315,248,-1312,-744,-3,-647,-561
3320,296,-1288,-696,-34,-658,-536
3325,264,-1312,-672,-59,-673,-510
3330,272,-1328,-688,-74,-682,-486
3335,264,-1328,-672,-82,-690,-466
3340,208,-1320,-648,-79,-694,-445
3345,200,-1328,-680,-70,-697,-431
3350,192,-1352,-648,-56,-699,-420
3355,160,-1376,-696,-43,-702,-410
3360,144,-1416,-656,-29,-707,-404
3365,88,-1424,-656,-12,-713,-395
3370,80,-1464,-672,7,-720,-390
3375,40,-1464,-640,22,-734,-381
3380,64,-1448,-664,35,-747,-375
3385,56,-1520,-600,40,-755,-365
3390,72,-1544,-600,36,-762,-351
3395,80,-1568,-600,22,-765,-340
3400,96,-1616,-592,0,-766,-331
3405,120,-1632,-584,-29,-764,-323
3410,120,-1656,-584,-61,-759,-315
3415,128,-1648,-544,-91,-755,-306
3420,192,-1696,-528,-117,-746,-294
3425,152,-1720,-480,-130,-741,-277
3430,176,-1720,-496,-134,-733,-261
3435,224,-1784,-448,-128,-730,-244
3440,192,-1816,-448,-114,-732,-225
3445,152,-1800,-408,-89,-736,-207
3450,136,-1824,-392,-60,-748,-189
3455,152,-1888,-352,-23,-765,-177
3460,136,-1928,-312,18,-785,-170
3465,56,-1944,-288,61,-809,-163
3470,32,-1960,-240,103,-833,-156
3475,16,-2024,-240,143,-859,-154
3480,-8,-2048,-184,182,-884,-149
3485,-16,-2104,-152,216,-907,-147
3490,-8,-2096,-200,247,-924,-157
3495,-80,-2152,-224,270,-907,-155
3500,-72,-2120,-272,294,-873,-159
3505,24,-2104,-320,312,-840,-176
3510,96,-2064,-368,330,-785,-179
3515,112,-2064,-336,348,-725,-175
3520,160,-2088,-304,371,-669,-175
3525,184,-2088,-336,400,-622,-173
3530,216,-2056,-384,431,-579,-165
3535,272,-2024,-448,459,-534,-152
3540,360,-1944,-512,475,-481,-133
3545,464,-1920,-528,478,-424,-113
3550,592,-1928,-528,467,-367,-100
3555,664,-1968,-456,459,-316,-96
3560,720,-1992,-336,465,-276,-94
3565,744,-2072,-232,487,-254,-94
3570,704,-2128,-216,510,-244,-101
3575,624,-2200,-352,513,-246,-113
3580,520,-2248,-464,476,-256,-125
3585,360,-2280,-640,386,-271,-142
3590,232,-2344,-864,253,-282,-164
3595,96,-2384,-1080,91,-270,-185
3600,80,-2464,-1256,-81,-217,-208
3605,40,-2512,-1400,-238,-119,-235
3610,112,-2552,-1496,-357,19,-269
3615,184,-2576,-1480,-408,176,-314
3620,208,-2576,-1392,-382,322,-366
3625,208,-2616,-1232,-280,437,-425
3630,248,-2640,-1072,-116,504,-474
3635,240,-2752,-944,68,523,-503
3640,208,-2808,-872,230,505,-502
3645,120,-2816,-904,359,462,-474
3650,8,-2720,-1056,452,391,-449
3655,-64,-2576,-1096,527,296,-420
3660,-248,-2400,-1176,588,167,-395
3665,-376,-2176,-1224,640,6,-368
3670,-520,-2008,-1304,674,-182,-335
3675,-624,-1856,-1352,679,-380,-296
3680,-712,-1720,-1408,649,-580,-258
3685,-864,-1560,-1448,600,-758,-221
3690,-952,-1488,-1456,548,-906,-192
3695,-960,-1456,-1432,488,-1007,-170
3700,-952,-1464,-1496,427,-1057,-155
3705,-856,-1528,-1520,364,-1060,-143
3710,-744,-1520,-1416,308,-1027,-132
3715,-584,-1544,-1376,256,-964,-126
3720,-384,-1600,-1256,203,-888,-117
3725,-200,-1640,-1248,160,-812,-116
3730,-24,-1696,-1184,125,-743,-123
3735,128,-1704,-1144,98,-682,-140
3740,240,-1736,-1040,73,-627,-161
3745,296,-1744,-952,53,-578,-186
3750,336,-1832,-856,42,-535,-199
3755,376,-1808,-808,35,-491,-204
3760,440,-1752,-792,34,-445,-197
3765,424,-1816,-776,39,-403,-180
3770,448,-1808,-824,46,-372,-156
3775,440,-1768,-840,55,-358,-126
3780,408,-1744,-840,67,-355,-93
3785,416,-1752,-832,82,-362,-55
3790,360,-1720,-792,100,-378,-16
3795,320,-1712,-792,115,-399,22
3800,184,-1656,-720,125,-424,55
3805,128,-1616,-736,135,-454,76
3810,24,-1488,-680,143,-478,89
3815,0,-1544,-664,144,-492,96
3820,-56,-1448,-688,134,-497,96
3825,-80,-1400,-696,111,-499,89
3830,-112,-1344,-688,84,-494,78
3835,-160,-1304,-712,55,-483,60
3840,-184,-1272,-664,28,-472,43
3845,-200,-1312,-648,8,-461,28
3850,-184,-1304,-608,-4,-452,13
3855,-200,-1328,-568,-13,-450,-2
3860,-200,-1368,-512,-18,-446,-14
3865,-232,-1384,-504,-20,-442,-24
3870,-200,-1368,-496,-21,-437,-32
3875,-216,-1368,-464,-16,-431,-39
3880,-184,-1376,-480,-11,-421,-44
3885,-184,-1360,-512,-3,-408,-46
3890,-176,-1360,-512,7,-396,-50
3895,-136,-1368,-504,19,-384,-53
3900,-128,-1392,-512,29,-373,-56
3905,-128,-1376,-488,32,-365,-59
3910,-104,-1408,-520,28,-360,-67
3915,-96,-1408,-528,20,-355,-73
3920,-88,-1424,-536,6,-352,-81
3925,-80,-1416,-512,-13,-350,-89
3930,-80,-1432,-512,-34,-351,-96
3935,-48,-1440,-472,-55,-353,-102
3940,-64,-1464,-464,-73,-352,-110
3945,-96,-1480,-480,-87,-349,-114
3950,-88,-1512,-488,-102,-346,-118
3955,-80,-1520,-416,-115,-335,-121
3960,-56,-1536,-424,-122,-320,-120
3965,-24,-1560,-400,-120,-299,-118
3970,-8,-1592,-376,-112,-274,-114
3975,96,-1688,-336,-102,-249,-110
3980,24,-1664,-368,-93,-220,-108
3985,64,-1664,-392,-87,-191,-104
3990,96,-1752,-416,-84,-162,-100
3995,96,-1792,-416,-85,-135,-92
4000,96,-1864,-400,-82,-110,-84
4005,88,-1928,-392,-76,-87,-74
4010,96,-1976,-408,-67,-58,-66
4015,80,-2032,-320,-54,-32,-56
4020,72,-2104,-304,-34,-7,-48
4025,48,-2160,-320,-9,12,-41
4030,40,-2192,-336,21,18,-31
4035,48,-2272,-336,52,15,-26
4040,0,-2288,-328,90,10,-12
4045,0,-2280,-344,127,-6,0
4050,-16,-2288,-368,170,-16,14
4055,-104,-2264,-352,217,-35,24
4060,-136,-2264,-312,270,-55,27
4065,-200,-2216,-312,324,-74,26
4070,-264,-2160,-304,372,-80,28
4075,-296,-2192,-256,407,-71,33
4080,-352,-2136,-168,421,-47,39
4085,-376,-2120,-80,420,-8,49
4090,-344,-2200,-24,409,42,64
4095,-320,-2216,-8,397,93,74
4100,-232,-2272,-56,379,142,89
4105,-104,-2232,-176,348,184,111
4110,-56,-2320,-296,290,213,141
4115,56,-2360,-488,209,225,170
4120,128,-2424,-680,98,221,196
4125,168,-2456,-904,-32,195,229
4130,200,-2536,-1184,-151,130,257
4135,176,-2568,-1312,-238,24,279
4140,72,-2576,-1480,-285,-107,310
4145,-48,-2584,-1592,-282,-241,356
4150,-224,-2688,-1488,-236,-343,412
4155,-496,-2728,-1312,-151,-399,472
4160,-664,-2792,-1200,-38,-421,522
4165,-672,-2864,-1168,59,-416,547
4170,-632,-2808,-1304,133,-383,537
4175,-512,-2704,-1424,171,-330,515
4180,-408,-2576,-1480,194,-251,488
4185,-384,-2448,-1512,207,-154,469
4190,-288,-2360,-1512,211,-56,459
4195,-120,-2240,-1520,225,26,451
4200,72,-2096,-1496,235,110,434
4205,232,-1992,-1472,229,202,413
4210,392,-1904,-1392,216,296,385
4215,448,-1816,-1376,206,388,363
4220,544,-1744,-1416,200,473,340
4225,584,-1632,-1416,199,533,320
4230,696,-1544,-1416,215,559,303
4235,792,-1496,-1416,240,557,289
4240,888,-1496,-1352,269,538,277
4245,872,-1480,-1336,285,512,264
4250,840,-1512,-1208,281,490,253
4255,784,-1560,-1120,254,470,234
4260,664,-1616,-1024,208,453,213
4265,576,-1648,-992,155,436,191
4270,456,-1728,-912,102,420,170
4275,328,-1728,-880,60,402,143
4280,160,-1784,-880,33,378,114
4285,40,-1800,-904,18,352,81
4290,-72,-1792,-848,9,326,42
4295,-208,-1792,-848,-2,296,2
4300,-304,-1792,-848,-14,271,-35
4305,-368,-1776,-808,-28,253,-73
4310,-408,-1720,-808,-33,244,-111
4315,-432,-1696,-792,-37,240,-146
4320,-416,-1656,-704,-32,241,-182
4325,-360,-1568,-712,-16,245,-215
4330,-320,-1544,-712,6,253,-244
4335,-224,-1496,-712,22,265,-265
4340,-152,-1504,-704,24,278,-279
4345,-40,-1464,-664,11,293,-287
4350,16,-1432,-656,-8,306,-290
4355,48,-1424,-672,-30,314,-288
4360,168,-1352,-664,-55,314,-280
4365,192,-1352,-648,-80,307,-267
4370,232,-1336,-624,-101,290,-251
4375,272,-1336,-592,-119,267,-231
4380,264,-1344,-584,-129,241,-212
4385,264,-1352,-560,-128,212,-185
4390,256,-1352,-520,-118,183,-158
4395,240,-1416,-488,-102,157,-130
4400,256,-1400,-456,-78,130,-101
4405,184,-1384,-480,-57,107,-75
4410,168,-1408,-480,-39,84,-52
4415,128,-1424,-488,-25,66,-31
4420,112,-1408,-512,-14,46,-17
4425,80,-1384,-504,-6,28,-5
4430,80,-1400,-544,1,13,2
4435,56,-1424,-528,5,-1,4
4440,56,-1440,-544,4,-14,2
4445,88,-1440,-528,-1,-20,1
4450,64,-1448,-560,-8,-25,-5
4455,56,-1480,-544,-22,-27,-8
4460,96,-1520,-552,-41,-32,-9
4465,96,-1520,-528,-61,-38,-14
4470,136,-1544,-536,-86,-45,-14
4475,144,-1568,-536,-108,-53,-10
4480,128,-1616,-504,-128,-61,-6
4485,176,-1640,-512,-141,-71,0
4490,200,-1704,-480,-146,-77,11
4495,192,-1696,-504,-142,-83,23
4500,256,-1784,-464,-130,-89,35
4505,232,-1808,-448,-111,-97,43
4510,240,-1816,-408,-86,-109,50
4515,232,-1856,-424,-57,-126,57
4520,232,-1888,-360,-30,-148,61
4525,184,-1912,-368,-3,-177,67
4530,152,-1968,-336,24,-210,73
4535,88,-2000,-264,54,-244,75
4540,40,-2048,-240,85,-280,76
4545,32,-2072,-240,121,-307,72
4550,-56,-2112,-160,156,-327,65
4555,16,-2112,-176,194,-334,59
4560,-64,-2128,-208,241,-326,74
4565,-8,-2152,-160,287,-323,80
4570,-88,-2192,-208,327,-310,83
4575,0,-2192,-288,352,-288,76
4580,-16,-2112,-448,359,-243,79
4585,8,-2024,-584,338,-180,85
4590,144,-1896,-704,291,-100,87
4595,272,-1904,-704,236,-13,84
4600,456,-1880,-608,197,68,77
4605,552,-1936,-512,188,129,68
4610,744,-1968,-368,209,166,61
4615,824,-1984,-200,251,181,54
4620,864,-2000,-120,300,179,44
4625,800,-2072,-64,341,167,33
4630,720,-2136,-8,372,152,21
4635,568,-2200,24,398,137,10
4640,440,-2280,8,427,122,-4
4645,392,-2312,0,454,104,-18
4650,272,-2416,-80,458,84,-37
4655,192,-2472,-224,421,60,-56
4660,32,-2504,-344,338,36,-83
4665,-16,-2528,-544,223,14,-115
4670,-48,-2552,-704,83,8,-145
4675,-40,-2584,-912,-57,31,-169
4680,56,-2552,-1080,-161,86,-196
4685,216,-2544,-1248,-210,182,-208
4690,376,-2528,-1328,-204,287,-226
4695,448,-2512,-1352,-151,376,-258
4700,664,-2456,-1288,-65,443,-296
4705,744,-2520,-1192,42,501,-296
4710,752,-2568,-1080,146,528,-295
4715,568,-2560,-1064,229,527,-279
4720,416,-2560,-1128,275,501,-258
4725,296,-2496,-1240,289,462,-236
4730,144,-2424,-1328,298,417,-222
4735,-24,-2256,-1416,313,365,-215
4740,-136,-2200,-1408,333,292,-215
4745,-256,-2168,-1416,356,201,-214
4750,-392,-2120,-1352,377,101,-209
4755,-512,-2048,-1320,389,7,-204
4760,-648,-2000,-1320,389,-74,-199
4765,-776,-1928,-1304,369,-137,-193
4770,-840,-1840,-1344,344,-172,-185
4775,-880,-1792,-1336,319,-182,-174
4780,-776,-1728,-1320,298,-177,-162
4785,-696,-1728,-1296,279,-163,-151
4790,-504,-1680,-1240,261,-149,-139
4795,-344,-1632,-1224,239,-136,-127
4800,-208,-1632,-1112,217,-130,-120
4805,-56,-1632,-1048,197,-131,-115
4810,56,-1608,-960,174,-133,-108
4815,168,-1592,-888,156,-134,-101
4820,232,-1592,-840,141,-123,-86
4825,296,-1640,-744,122,-102,-69
4830,408,-1648,-688,102,-69,-50
4835,448,-1688,-640,80,-32,-22
4840,488,-1672,-696,60,3,8
4845,536,-1720,-640,45,33,44
4850,496,-1736,-664,37,52,85
4855,472,-1776,-672,35,64,126
4860,384,-1776,-688,38,59,167
4865,312,-1776,-664,55,48,202
4870,240,-1760,-680,86,40,236
4875,168,-1776,-664,114,37,270
4880,56,-1728,-632,138,36,293
4885,8,-1600,-624,152,41,301
4890,-8,-1520,-632,150,52,310
4895,-72,-1472,-640,141,71,312
4900,-96,-1392,-608,125,94,309
4905,-56,-1320,-592,104,116,305
4910,-80,-1312,-600,78,137,302
4915,-56,-1232,-616,51,153,298
4920,-120,-1312,-552,26,171,298
4925,-120,-1264,-528,5,173,276
4930,-88,-1272,-536,-14,174,257
4935,-32,-1264,-472,-31,177,238
4940,-64,-1248,-520,-48,186,221
4945,-48,-1304,-512,-61,195,198
4950,0,-1296,-520,-70,210,178
4955,8,-1296,-512,-84,226,155
4960,0,-1288,-512,-91,237,133
4965,0,-1304,-528,-94,247,109
4970,0,-1368,-544,-96,257,90
4975,0,-1368,-560,-97,268,74
4980,-48,-1392,-560,-99,277,57
4985,-80,-1408,-576,-106,282,43
4990,-104,-1472,-576,-119,287,34
4995,-104,-1448,-568,-136,286,24
5000,-112,-1544,-560,-156,281,15
5005,-144,-1584,-536,-177,273,5
5010,-184,-1608,-528,-193,262,-1
5015,-168,-1680,-512,-202,248,-11
5020,-160,-1720,-480,-203,233,-22
5025,-184,-1728,-456,-201,220,-35
5030,-184,-1776,-424,-195,208,-48
5035,-176,-1800,-416,-185,196,-59
5040,-128,-1816,-392,-171,186,-73
5045,-136,-1832,-344,-155,181,-86
5050,-112,-1832,-320,-135,179,-99
5055,-48,-1832,-280,-108,179,-111
5060,-40,-1816,-280,-77,178,-122
5065,0,-1840,-264,-50,178,-133
5070,0,-1800,-232,-27,179,-142
5075,0,-1800,-280,-2,180,-146
5080,8,-1776,-256,19,186,-150
5085,16,-1800,-240,39,191,-155
5090,8,-1776,-272,54,198,-160
5095,32,-1728,-320,64,203,-162
5100,16,-1760,-312,70,211,-162
5105,40,-1752,-288,70,221,-160
5110,48,-1704,-328,64,235,-155
5115,80,-1768,-312,59,249,-150
5120,48,-1784,-288,53,263,-144
5125,152,-1824,-312,45,273,-136
5130,136,-1872,-336,37,283,-131
5135,144,-1936,-328,31,291,-124
5140,136,-1984,-352,28,295,-116
5145,120,-2008,-392,23,297,-107
5150,144,-2080,-408,12,286,-98
5155,176,-2112,-424,5,266,-93
5160,64,-2128,-472,2,238,-80
5165,-16,-2144,-496,3,202,-70
5170,-72,-2192,-488,9,175,-55
5175,-152,-2192,-408,20,169,-38
5180,-240,-2272,-344,38,186,-19
5185,-192,-2304,-224,61,214,-4
5190,-256,-2368,-200,82,251,15
5195,-248,-2448,-48,95,280,34
5200,-288,-2520,-8,110,296,50
5205,-264,-2568,16,132,293,67
5210,-272,-2648,40,161,279,84
5215,-232,-2680,-16,182,252,102
5220,-232,-2720,-144,190,222,123
5225,-184,-2752,-312,174,175,147
5230,-96,-2720,-472,126,127,168
5235,-64,-2688,-672,50,82,185
5240,-32,-2696,-864,-51,40,203
5245,-64,-2688,-1064,-158,-18,224
5250,-104,-2720,-1224,-242,-95,243
5255,-168,-2704,-1328,-283,-191,254
5260,-256,-2696,-1424,-284,-289,269
5265,-344,-2680,-1392,-247,-361,290
5270,-520,-2656,-1424,-167,-391,313
5275,-584,-2688,-1440,-62,-389,327
5280,-536,-2640,-1480,42,-361,323
5285,-504,-2512,-1592,127,-320,309
5290,-560,-2296,-1792,173,-292,295
5295,-464,-2048,-1944,183,-275,285
5300,-336,-1840,-2056,174,-222,285
5305,-264,-1656,-2024,152,-94,290
5310,-56,-1488,-1896,127,85,289
5315,168,-1312,-1856,102,289,272
5320,472,-1192,-1816,70,490,245
5325,872,-1088,-1896,17,654,211
5330,1040,-1080,-1864,-60,756,173
5335,1288,-1088,-1816,-161,790,133
5340,1344,-1176,-1752,-265,768,105
5345,1336,-1320,-1616,-356,702,89
5350,1200,-1520,-1480,-426,615,81
5355,1120,-1640,-1352,-478,522,74
5360,976,-1872,-1248,-519,436,70
5365,816,-2064,-1176,-548,365,70
5370,640,-2192,-1168,-564,312,73
5375,528,-2312,-1192,-578,276,72
5380,368,-2328,-1224,-584,257,62
5385,216,-2280,-1288,-583,259,50
5390,96,-2248,-1328,-570,281,31
5395,0,-2200,-1272,-539,313,2
5400,-120,-2128,-1144,-484,341,-37
5405,-176,-2016,-1072,-406,358,-86
5410,-240,-1944,-992,-319,369,-145
5415,-280,-1872,-864,-241,371,-211
5420,-288,-1816,-792,-184,365,-279
5425,-280,-1728,-720,-147,350,-346
5430,-272,-1656,-704,-132,328,-403
5435,-232,-1584,-704,-138,303,-446
5440,-136,-1520,-680,-160,278,-470
5445,-120,-1488,-632,-190,255,-483
5450,-8,-1440,-624,-222,233,-489
5455,48,-1416,-600,-261,211,-490
5460,72,-1432,-568,-311,192,-485
5465,80,-1472,-608,-374,168,-477
5470,72,-1408,-576,-450,141,-470
5475,128,-1472,-616,-522,122,-443
5480,120,-1464,-568,-581,97,-419
5485,136,-1448,-536,-624,74,-384
5490,160,-1440,-576,-644,57,-322
5495,192,-1520,-520,-646,31,-273
5500,232,-1504,-504,-628,2,-250
5505,248,-1488,-504,-597,-24,-226
5510,200,-1520,-512,-565,-46,-211
5515,168,-1536,-504,-530,-70,-209
5520,96,-1584,-520,-502,-99,-227
5525,208,-1488,-584,-480,-145,-283
5530,208,-1480,-632,-474,-156,-299
5535,208,-1448,-664,-466,-156,-284
5540,160,-1472,-624,-457,-163,-264
5545,144,-1528,-648,-434,-172,-256
5550,152,-1528,-616,-402,-182,-250
5555,136,-1536,-640,-368,-186,-239
5560,200,-1560,-640,-337,-192,-230
5565,224,-1560,-704,-316,-194,-220
5570,248,-1568,-736,-308,-191,-208
5575,256,-1608,-744,-305,-183,-198
5580,168,-1680,-696,-289,-187,-210
5585,288,-1576,-736,-280,-205,-251
5590,392,-1544,-760,-277,-198,-246
5595,392,-1576,-768,-269,-189,-210
5600,408,-1544,-752,-244,-192,-183
5605,408,-1560,-752,-209,-199,-162
5610,408,-1520,-768,-169,-211,-149
5615,424,-1576,-736,-130,-222,-134
5620,408,-1544,-744,-87,-234,-125
5625,464,-1600,-736,-50,-247,-118
5630,432,-1576,-696,-20,-263,-117
5635,464,-1576,-688,6,-285,-119
5640,480,-1600,-632,27,-309,-116
5645,488,-1608,-656,47,-331,-112
5650,432,-1616,-616,65,-350,-109
5655,504,-1608,-624,77,-364,-108
5660,472,-1600,-600,83,-372,-109
5665,488,-1624,-632,79,-375,-113
5670,512,-1680,-640,70,-372,-121
5675,512,-1736,-696,51,-367,-135
5680,512,-1816,-640,30,-365,-150
5685,472,-1872,-736,7,-363,-169
5690,488,-1968,-776,-8,-359,-191
5695,480,-1968,-792,-16,-352,-210
5700,480,-2032,-856,-17,-342,-224
5705,528,-2080,-904,-13,-330,-234
5710,528,-2080,-920,-4,-314,-243
5715,528,-2144,-928,10,-296,-246
5720,536,-2192,-904,22,-272,-247
5725,488,-2192,-976,32,-248,-250
5730,456,-2184,-992,40,-220,-250
5735,456,-2176,-1016,49,-196,-249
5740,440,-2168,-1008,58,-175,-243
5745,400,-2248,-968,68,-158,-237
5750,512,-2112,-944,66,-159,-251
5755,480,-2096,-984,42,-138,-220
5760,456,-2088,-1016,5,-129,-192
5765,480,-2040,-1120,-52,-122,-166
5770,520,-1976,-1256,-130,-111,-142
5775,576,-1944,-1416,-230,-96,-113
5780,672,-1896,-1552,-343,-73,-85
5785,792,-1920,-1736,-467,-41,-59
5790,864,-1928,-1864,-598,1,-36
5795,992,-2032,-2024,-724,54,-11
5800,1104,-2120,-2048,-817,115,-4
5805,1208,-2256,-2032,-884,185,0
5810,1280,-2408,-2000,-928,274,-1
5815,1120,-2520,-1832,-943,378,-9
5820,1056,-2608,-1704,-926,481,-47
5825,856,-2656,-1568,-889,586,-48
5830,608,-2600,-1440,-823,660,-44
5835,400,-2464,-1368,-721,684,-40
5840,184,-2320,-1312,-595,638,-22
5845,-64,-2080,-1272,-445,511,12
5850,-272,-1904,-1280,-282,310,45
5855,-464,-1688,-1280,-116,51,73
5860,-656,-1520,-1368,30,-235,94
5865,-824,-1312,-1344,149,-513,110
5870,-904,-1176,-1424,244,-745,124
5875,-992,-1024,-1400,317,-905,139
5880,-976,-952,-1368,365,-989,154
5885,-864,-888,-1304,382,-1004,161
5890,-736,-864,-1264,373,-957,165
5895,-512,-832,-1152,337,-862,171
5900,-232,-920,-1056,270,-753,172
5905,40,-1032,-984,179,-650,162
5910,216,-1168,-944,74,-563,150
5915,328,-1344,-984,-38,-489,140
5920,408,-1512,-976,-137,-423,120
5925,400,-1616,-1056,-193,-357,93
5930,336,-1752,-1112,-208,-306,57
5935,248,-1888,-1240,-184,-268,16
5940,160,-1944,-1304,-128,-241,-20
5945,8,-2008,-1304,-46,-231,-54
5950,-120,-2008,-1304,58,-225,-75
5955,-208,-2048,-1280,173,-232,-93
5960,-216,-2016,-1168,279,-248,-99
5965,-272,-1992,-1176,362,-274,-99
5970,-216,-1936,-1136,423,-293,-90
5975,-168,-1976,-1096,460,-304,-73
5980,-192,-1904,-1112,479,-327,-62
5985,-104,-1832,-1160,462,-354,-62
5990,-112,-1840,-1168,411,-388,-65
5995,-80,-1792,-1208,360,-446,-73
6000,-32,-1744,-1200,310,-508,-81
6005,0,-1712,-1200,267,-567,-93
6010,32,-1624,-1216,235,-622,-109
6015,40,-1616,-1144,220,-661,-128
6020,32,-1648,-1152,215,-695,-151
6025,40,-1648,-1120,207,-709,-177
6030,8,-1680,-1152,199,-701,-204
6035,40,-1720,-1096,208,-681,-235
6040,24,-1688,-1072,202,-644,-262
6045,-64,-1768,-1016,195,-606,-287
6050,-96,-1752,-1024,229,-583,-334
6055,-120,-1736,-912,259,-555,-375
6060,-152,-1720,-952,294,-532,-409
6065,-192,-1736,-896,327,-508,-435
6070,-224,-1736,-856,360,-490,-458
6075,-240,-1720,-872,387,-478,-470
6080,-216,-1704,-776,407,-471,-478
6085,-224,-1592,-792,426,-469,-482
6090,-176,-1616,-744,444,-472,-480
6095,-176,-1616,-712,450,-478,-477
6100,-112,-1624,-656,464,-496,-482
6105,-56,-1592,-632,477,-519,-498
6110,-32,-1560,-672,496,-544,-519
6115,-40,-1592,-632,511,-560,-537
6120,-32,-1560,-688,525,-569,-563
6125,-56,-1528,-712,540,-566,-588
6130,16,-1536,-688,562,-549,-609
6135,0,-1528,-768,583,-519,-627
6140,0,-1544,-728,603,-483,-641
6145,8,-1520,-704,619,-447,-645
6150,64,-1544,-624,643,-410,-642
6155,128,-1520,-568,679,-373,-632
6160,184,-1528,-512,721,-336,-612
6165,232,-1544,-504,767,-298,-586
6170,232,-1528,-480,816,-255,-551
6175,280,-1504,-536,871,-199,-508
6180,280,-1392,-544,937,-131,-457
6185,320,-1296,-512,1014,-53,-402
6190,376,-1192,-472,1090,26,-343
6195,448,-992,-344,1160,105,-276
6200,496,-784,-352,1201,186,-198
6205,520,-552,-416,1212,278,-111
6210,528,-360,-504,1207,390,-23
6215,608,-192,-560,1192,520,52
6220,648,-16,-616,1159,655,105
6225,712,176,-736,1105,777,124
6230,768,408,-864,1019,881,133
6235,696,624,-896,921,956,135
6240,544,784,-912,820,995,142
6245,472,896,-880,730,1002,142
6250,392,920,-720,634,989,148
6255,216,832,-568,528,970,163
6260,80,616,-432,418,956,191
6265,-40,424,-432,300,929,231
6270,-136,248,-536,164,867,281
6275,-144,80,-888,10,765,343
6280,-136,-104,-1296,-173,650,428
6285,-96,-336,-1736,-373,530,517
6290,-152,-576,-2056,-567,408,599
6295,-208,-912,-2272,-729,281,664
6300,-288,-1288,-2392,-813,156,707
6305,-216,-1688,-2336,-812,47,717
6310,-152,-1984,-2384,-762,-44,701
6315,-184,-2240,-2392,-721,-138,674
6320,-272,-2440,-2344,-696,-246,651
6325,-368,-2576,-2264,-657,-361,636
6330,-392,-2688,-2168,-586,-456,604
6335,-448,-2584,-2104,-506,-532,533
6340,-568,-2440,-2000,-423,-624,417
6345,-608,-2384,-1776,-323,-714,305
6350,-640,-2248,-1456,-190,-785,213
6355,-568,-2000,-1312,-8,-855,99
6360,-552,-1712,-1216,179,-917,-25
6365,-280,-1496,-952,307,-939,-87
6370,-88,-1320,-768,387,-930,-104
6375,120,-968,-536,427,-914,-111
6380,264,-736,-336,402,-904,-82
6385,472,-568,-176,334,-916,-33
6390,560,-424,-112,265,-970,-5
6395,592,-384,-128,213,-1057,13
6400,616,-384,-176,165,-1140,25
6405,696,-464,-128,126,-1183,13
6410,688,-496,-224,117,-1175,-20
6415,776,-512,-264,142,-1138,-72
6420,888,-504,-280,188,-1090,-132
6425,920,-480,-320,229,-1051,-196
6430,888,-480,-344,250,-1031,-250
6435,832,-416,-328,254,-1027,-294
6440,800,-304,-280,244,-1030,-329
6445,744,-240,-336,212,-1029,-345
6450,640,-160,-320,163,-1028,-349
6455,504,-152,-272,115,-1039,-337
6460,280,-152,-264,85,-1071,-315
6465,72,-120,-208,79,-1107,-286
6470,-80,-152,-192,97,-1132,-258
6475,-216,-184,-168,136,-1148,-231
6480,-304,-272,-208,183,-1158,-200
6485,-376,-424,-344,228,-1166,-161
6490,-392,-600,-496,265,-1170,-119
6495,-328,-792,-656,295,-1170,-68
6500,-216,-904,-808,337,-1173,-18
6505,-208,-1000,-1024,383,-1179,33
6510,-216,-1056,-1192,401,-1189,76
6515,-264,-1032,-1456,367,-1184,110
6520,-160,-992,-1552,303,-1133,124
6525,-16,-1000,-1592,217,-1041,113
6530,176,-1000,-1496,101,-923,77
6535,344,-1112,-1400,-58,-802,29
6540,544,-1360,-1328,-235,-695,-40
6545,624,-1616,-1240,-402,-608,-128
6550,664,-1824,-1272,-537,-544,-218
6555,688,-2072,-1336,-623,-497,-304
6560,704,-2312,-1432,-684,-461,-364
6565,616,-2552,-1512,-724,-438,-391
6570,360,-2712,-1664,-722,-449,-378
6575,192,-2832,-1784,-634,-494,-322
6580,-16,-2760,-1968,-476,-569,-248
6585,-304,-2608,-2048,-298,-637,-177
6590,-496,-2424,-2120,-160,-716,-140
6595,-616,-2344,-2104,-52,-785,-140
6600,-616,-2256,-2152,59,-809,-164
6605,-616,-1952,-2208,182,-806,-187
6610,-544,-1688,-2280,293,-794,-197
6615,-472,-1520,-2120,362,-771,-193
6620,-432,-1464,-1840,393,-752,-177
6625,-392,-1416,-1648,425,-736,-164
6630,-272,-1384,-1512,461,-714,-159
6635,-176,-1392,-1312,522,-661,-155
6640,-32,-1528,-1136,587,-580,-157
6645,72,-1584,-1000,647,-487,-164
6650,120,-1640,-968,674,-412,-178
6655,216,-1744,-960,681,-358,-203
6660,232,-1800,-1032,694,-314,-237
6665,336,-1840,-1016,737,-270,-272
6670,360,-1888,-1088,809,-241,-306
6675,336,-1872,-1152,892,-224,-343
6680,384,-1872,-1104,954,-221,-379
6685,336,-1880,-1104,1007,-228,-405
6690,296,-1952,-1104,1078,-244,-414
6695,248,-2040,-1056,1178,-263,-408
6700,200,-2120,-1072,1319,-286,-386
6705,72,-2168,-1032,1481,-313,-348
6710,0,-2168,-984,1629,-345,-298
6715,-56,-2152,-896,1748,-373,-253
6720,-128,-2064,-816,1854,-384,-223
6725,-136,-1984,-776,1956,-371,-211
6730,-128,-1920,-752,2048,-328,-225
6735,-80,-1880,-768,2128,-274,-258
6740,-128,-1848,-816,2211,-224,-300
6745,-120,-1816,-776,2298,-188,-341
6750,-136,-1896,-736,2382,-172,-374
6755,-152,-1920,-768,2459,-176,-404
6760,-120,-1920,-760,2510,-191,-424
6765,-136,-1936,-912,2541,-222,-456
6770,-168,-1968,-1096,2558,-285,-491
6775,-264,-1992,-1064,2588,-354,-519
6780,-368,-2008,-960,2685,-411,-547
6785,-448,-2008,-912,2848,-463,-581
6790,-488,-1976,-936,3018,-486,-613
6795,-472,-1936,-848,3136,-463,-661
6800,-440,-1744,-792,3227,-422,-723
6805,-296,-1600,-784,3287,-390,-781
6810,-192,-1624,-776,3315,-388,-834
6815,120,-1648,-848,3332,-441,-890
6820,328,-1592,-1024,3308,-498,-952
6825,152,-1616,-928,3240,-504,-995
6830,176,-1992,-488,3186,-471,-1027
6835,-16,-2792,40,3224,-445,-1075
6840,-104,-3672,152,3281,-437,-1090
6845,-512,-4688,304,3264,-437,-1074
6850,-1176,-6120,632,3194,-451,-1012
6855,-1264,-7192,832,3134,-475,-930
6860,-1296,-8520,896,3101,-445,-827
6865,-1752,-9496,1016,3183,-353,-672
6870,-2296,-10032,792,3492,-296,-528
6875,-2360,-10224,432,3989,-296,-421
6880,-2256,-10192,312,4594,-273,-317
6885,-1808,-9568,232,5170,-249,-237
6890,-1488,-8152,160,5642,-215,-199
6895,-1336,-6536,64,6041,-159,-163
6900,-1160,-5024,-48,6364,-114,-99
6905,-1008,-4056,-40,6565,-58,-8
6910,-648,-2968,-160,6628,-17,80
6915,-240,-1920,-432,6561,13,156
6920,0,-1048,-680,6408,29,191
6925,48,-320,-848,6200,35,224
6930,-8,0,-1008,5924,12,259
6935,-208,368,-1224,5594,-28,301
6940,-496,600,-1400,5239,-81,343
6945,-744,736,-1448,4887,-166,380
6950,-1144,768,-1472,4574,-283,404
6955,-1224,752,-1328,4310,-421,412
6960,-1392,552,-1272,4120,-551,390
6965,-1376,384,-1208,3935,-690,348
6970,-1248,192,-1208,3741,-843,290
6975,-1184,-48,-1048,3546,-1015,231
6980,-1000,-200,-1024,3369,-1217,181
6985,-392,-328,-792,3224,-1409,119
6990,40,-320,-576,3125,-1509,58
6995,520,-304,-216,3046,-1505,12
7000,792,-304,224,2984,-1428,-24
7005,936,-352,744,2902,-1340,-48
7010,1064,-440,1064,2834,-1253,-45
7015,1512,-368,1400,2813,-1168,-31
7020,1744,-184,1528,2836,-1046,-22
7025,1648,32,1752,2861,-917,13
7030,1944,208,2072,2886,-799,34
7035,1752,248,2320,2923,-699,9
7040,1680,376,2304,2957,-641,-20
7045,1384,520,2096,2955,-555,-62
7050,1568,584,2392,2881,-466,-90
7055,1504,680,2608,2811,-372,-150
7060,1512,720,2840,2722,-297,-226
7065,968,856,2888,2632,-242,-303
7070,792,936,3056,2522,-250,-354
7075,584,1000,3296,2456,-269,-409
7080,648,1088,3376,2427,-288,-453
7085,656,1096,3488,2368,-292,-505
7090,496,1104,3624,2290,-263,-533
7095,552,1136,3728,2192,-249,-533
7100,624,1192,3920,2090,-256,-526
7105,520,1288,4176,1983,-254,-490
7110,608,1472,4280,1845,-256,-440
7115,896,1688,4440,1648,-244,-380
7120,1080,1920,4512,1398,-200,-322
7125,1208,1952,4624,1100,-142,-263
7130,1112,1872,4552,799,-90,-198
7135,1000,1824,4432,507,-60,-128
7140,792,1744,4224,243,-63,-61
7145,744,1552,4032,47,-97,10
7150,728,1328,3792,-73,-151,77
7155,768,1104,3616,-131,-212,137
7160,752,904,3544,-147,-267,197
7165,856,648,3432,-140,-321,247
7170,888,120,3496,-104,-396,266
7175,896,-192,3360,-5,-533,236
7180,680,-424,3024,90,-647,206
7185,552,-528,2664,112,-654,221
7190,224,-640,2200,67,-586,231
7195,104,-672,1936,28,-491,220
7200,144,-672,1840,76,-383,177
7205,304,-744,1776,221,-283,125
7210,328,-712,1712,388,-200,62
7215,112,-608,1688,543,-124,19
7220,-64,-376,1704,633,-73,-5
7225,48,-176,1776,657,-55,-11
7230,120,96,1888,659,-46,-44
7235,56,176,1840,645,-38,-51
7240,88,472,1912,600,-51,-55
7245,112,584,1928,539,-80,-57
7250,264,640,1896,475,-115,-54
7255,312,728,1800,411,-142,-57
7260,392,688,1712,335,-165,-58
7265,456,656,1544,248,-186,-64
7270,480,536,1456,156,-210,-69
7275,536,456,1424,80,-232,-76
7280,544,376,1408,34,-241,-79
7285,520,264,1368,8,-246,-69
7290,480,176,1408,-6,-256,-51
7295,528,112,1376,9,-251,-48
7300,520,56,1384,27,-236,-45
7305,464,40,1336,34,-216,-36
7310,472,8,1368,34,-195,-32
7315,464,48,1344,42,-173,-36
7320,560,16,1336,53,-155,-43
7325,600,16,1336,73,-133,-65
7330,648,-32,1360,107,-119,-93
7335,720,-8,1384,145,-109,-129
7340,816,0,1376,188,-97,-171
7345,888,0,1408,221,-73,-212
7350,880,16,1488,227,-33,-243
7355,936,40,1536,200,12,-259
7360,952,88,1520,151,59,-267
7365,936,96,1568,85,101,-269
7370,968,88,1552,14,136,-263
7375,960,40,1536,-52,165,-255
7380,928,-48,1520,-106,193,-245
7385,976,-96,1536,-150,224,-242
7390,976,-152,1488,-186,252,-248
7395,1000,-152,1512,-211,271,-265
7400,1016,-168,1544,-235,283,-288
7405,1016,-152,1536,-263,296,-318
7410,1024,-168,1528,-301,307,-344
7415,1024,-128,1528,-342,322,-372
7420,984,-112,1536,-387,343,-388
7425,968,-160,1576,-430,366,-402
7430,992,-152,1560,-462,390,-411
7435,944,-176,1608,-490,417,-415
7440,896,-176,1640,-507,443,-416
7445,856,-160,1664,-513,462,-415
7450,824,-224,1720,-511,480,-412
7455,824,-248,1752,-503,496,-407
7460,800,-272,1800,-495,512,-402
7465,792,-296,1832,-486,531,-396
7470,824,-384,1944,-472,547,-392
7475,872,-416,2088,-446,561,-392
7480,896,-488,2248,-410,555,-394
7485,968,-472,2360,-380,536,-406
7490,968,-480,2376,-361,515,-417
7495,936,-464,2400,-372,496,-425
7500,912,-504,2304,-418,479,-422
7505,840,-488,2224,-483,468,-414
7510,792,-504,2160,-554,460,-403
7515,784,-488,2088,-618,454,-386
7520,704,-504,1976,-673,453,-366
7525,624,-496,1928,-710,456,-342
7530,520,-520,1808,-724,464,-313
7535,488,-560,1784,-706,479,-278
7540,368,-608,1760,-646,496,-243
7545,376,-672,1816,-549,515,-213
7550,384,-712,1856,-430,533,-184
7555,384,-688,1944,-308,547,-160
7560,336,-632,2040,-203,551,-139
7565,312,-616,2136,-124,543,-117
7570,240,-544,2264,-83,520,-91
7575,200,-464,2400,-83,483,-65
7580,160,-408,2432,-119,436,-36
7585,120,-328,2368,-176,392,-3
7590,160,-328,2336,-236,355,30
7595,96,-384,2384,-287,324,61
7600,72,-432,2392,-312,299,79
7605,72,-520,2416,-318,273,89
7610,120,-560,2352,-315,239,93
7615,144,-592,2168,-311,203,99
7620,128,-568,2040,-315,168,109
7625,104,-568,1920,-326,137,118
7630,128,-584,1840,-325,113,128
7635,96,-616,1752,-301,98,136
7640,104,-640,1728,-256,95,138
7645,104,-672,1720,-197,106,138
7650,160,-696,1760,-140,128,141
7655,136,-640,1816,-94,152,140
7660,144,-640,1928,-57,175,141
7665,200,-616,2024,-33,191,142
7670,192,-576,2120,-33,208,140
7675,160,-568,2144,-46,212,136
7680,152,-520,2080,-82,205,122
7685,152,-472,2040,-142,185,106
7690,96,-480,1992,-209,153,85
7695,80,-480,1952,-266,120,68
7700,72,-512,1880,-323,91,58
7705,80,-544,1808,-352,65,53
7710,192,-528,1800,-366,53,51
7715,240,-512,1776,-373,59,55
7720,272,-576,1792,-382,77,62
7725,280,-632,1816,-388,97,69
7730,288,-712,1784,-391,112,78
7735,352,-784,1816,-387,124,87
7740,352,-888,1840,-373,137,99
7745,392,-880,1824,-349,143,115
7750,384,-952,1824,-321,147,134
7755,392,-872,1816,-283,149,156
7760,416,-808,1872,-254,157,175
7765,376,-744,1832,-242,162,192
7770,328,-704,1864,-251,159,203
7775,288,-672,1880,-278,153,205
7780,256,-664,1872,-312,144,201
7785,256,-664,1784,-357,142,193
7790,248,-632,1728,-398,156,181
7795,248,-608,1720,-425,175,169
7800,304,-664,1640,-431,191,157
7805,352,-672,1656,-425,199,146
7810,352,-720,1712,-414,203,137
7815,392,-744,1704,-398,206,130
7820,432,-840,1784,-388,219,131
7825,488,-880,1808,-382,236,134
7830,488,-888,1864,-377,256,144
7835,448,-896,1920,-374,275,155
7840,368,-920,1928,-374,285,168
7845,328,-976,1896,-378,283,180
7850,256,-992,1896,-381,269,192
7855,192,-1032,1888,-382,259,205
7860,88,-1056,1848,-378,253,214
7865,64,-1024,1848,-367,252,217
7870,24,-976,1848,-352,257,221
7875,32,-976,1872,-326,269,224
7880,24,-888,1920,-300,280,229
7885,72,-824,1928,-281,285,232
7890,136,-800,1944,-269,286,234
7895,184,-736,1960,-273,281,243
7900,232,-728,1944,-291,275,256
7905,296,-720,1904,-318,275,264
7910,320,-776,1856,-342,288,271
7915,344,-816,1888,-352,315,277
7920,368,-896,1992,-345,342,286
7925,296,-912,1912,-326,363,295
7930,272,-952,1904,-297,374,303
7935,192,-1008,1880,-263,378,307
7940,120,-1048,1856,-223,383,312
7945,128,-1112,1792,-175,394,316
7950,144,-1168,1816,-116,421,317
7955,152,-1224,1816,-43,452,310
7960,80,-1200,1848,40,465,297
7965,48,-1224,1800,130,462,282
7970,48,-1144,1792,226,453,266
7975,-16,-1032,1744,333,446,244
7980,-48,-976,1712,430,434,221
7985,-72,-888,1696,516,418,192
7990,-48,-848,1752,581,405,163
7995,0,-792,1840,632,396,131
8000,8,-816,1920,659,386,104
8005,0,-848,1952,657,367,94
8010,-88,-824,2000,633,339,88
8015,-96,-912,1968,586,302,82
8020,-208,-904,1896,537,259,72
8025,-272,-904,1784,494,216,62
8030,-384,-880,1592,449,172,52
8035,-456,-872,1432,418,133,42
8040,-464,-848,1320,404,106,40
8045,-400,-800,1240,416,101,49
8050,-328,-784,1208,453,118,54
8055,-200,-784,1216,509,153,50
8060,-112,-752,1224,574,190,35
8065,-64,-720,1200,635,215,15
8070,-104,-712,1272,679,225,6
8075,-104,-704,1336,700,212,8
8080,-96,-664,1392,694,185,23
8085,-120,-680,1528,672,159,41
8090,-160,-728,1520,641,132,62
8095,-216,-744,1640,604,106,85
8100,-264,-784,1688,565,77,108
8105,-296,-792,1720,527,44,127
8110,-296,-840,1792,497,8,135
8115,-312,-832,1784,477,-24,136
8120,-312,-840,1760,471,-55,130
8125,-296,-824,1776,479,-87,118
8130,-328,-824,1776,496,-114,103
8135,-296,-832,1752,516,-135,84
8140,-208,-832,1704,537,-150,61
8145,-200,-792,1768,557,-160,39
8150,-168,-808,1760,568,-165,19
8155,-96,-792,1784,576,-167,1
8160,-72,-728,1800,582,-165,-18
8165,0,-728,1816,586,-163,-31
8170,16,-704,1848,587,-161,-45
8175,48,-672,1880,586,-160,-55
8180,72,-648,1888,582,-159,-61
8185,112,-640,1904,576,-159,-67
8190,112,-608,1960,569,-155,-69
8195,152,-624,1968,559,-150,-73
8200,152,-608,1968,546,-143,-80
8205,160,-568,1976,529,-131,-84
8210,152,-584,1992,507,-122,-94
8215,136,-560,1952,482,-114,-102
8220,152,-560,2000,456,-106,-113
8225,136,-536,1984,428,-96,-125
8230,136,-520,1944,398,-89,-136
8235,144,-520,1944,369,-82,-147
8240,136,-512,1960,339,-75,-158
8245,160,-488,1952,310,-71,-171
8250,120,-496,1936,281,-66,-180
8255,144,-456,1992,255,-62,-189
8260,144,-432,1992,232,-61,-193
8265,152,-448,2008,209,-60,-197
8270,136,-400,2016,191,-54,-199
8275,136,-408,2008,182,-48,-202
8280,136,-384,2000,176,-42,-201
8285,136,-392,2032,174,-37,-200
8290,144,-360,2032,175,-38,-203
8295,152,-312,2048,180,-37,-206
8300,192,-336,2024,184,-26,-210
8305,184,-344,1992,187,-16,-214
8310,176,-280,2016,189,-8,-216
8315,192,-288,2000,191,6,-218
8320,152,-336,2008,195,28,-205
8325,88,-280,1992,203,33,-194
8330,88,-304,1992,209,27,-188
8335,104,-320,1968,208,23,-179
8340,96,-336,1952,207,21,-162
8345,224,-304,1968,206,24,-139
8350,32,-392,1992,212,47,-91
8355,16,-384,2032,206,31,-85
8360,0,-424,2016,192,15,-87
8365,24,-424,2016,178,-1,-91
8370,24,-456,2016,165,-13,-88
8375,40,-488,2040,156,-27,-87
8380,32,-504,2040,148,-37,-84
8385,16,-512,1976,137,-34,-82
8390,16,-496,1944,126,-27,-82
8395,8,-504,1976,109,-15,-80
8400,8,-512,2008,100,-10,-77
8405,16,-504,1976,92,-7,-72
8410,8,-488,2000,83,-6,-70
8415,48,-512,2016,75,-3,-66
8420,72,-528,1968,69,-2,-63
8425,48,-512,1936,66,3,-62
8430,96,-512,1920,66,8,-61
8435,72,-488,1864,73,11,-58
8440,96,-496,1880,86,12,-54
8445,96,-488,1800,103,13,-49
8450,88,-456,1864,119,12,-43
8455,128,-440,1840,133,10,-37
8460,128,-416,1840,144,5,-28
8465,104,-456,1936,151,1,-20
8470,144,-456,1896,155,-3,-13
8475,136,-448,1904,155,-8,-9
8480,136,-456,1904,151,-13,-7
8485,152,-456,1904,148,-17,-5
8490,136,-464,1864,140,-18,-4
8495,128,-480,1904,138,-20,-3
8500,144,-488,1888,136,-19,-3
8505,144,-512,1912,134,-19,-3
8510,144,-504,1880,133,-18,-4
8515,128,-496,1880,135,-14,-2
8520,112,-488,1872,135,-12,-1
8525,120,-472,1888,137,-13,1
8530,112,-496,1912,136,-13,3
8535,104,-488,1920,136,-13,8
8540,104,-504,1960,136,-12,12
8545,96,-504,1984,131,-9,13
8550,88,-504,1976,122,-10,14
8555,80,-512,1976,109,-8,14
8560,88,-512,1968,96,-8,12
8565,112,-552,1928,86,-6,7
8570,72,-520,1904,82,-4,5
8575,96,-520,1888,84,-2,5
8580,96,-520,1864,88,-4,6
8585,104,-496,1848,91,-1,7
8590,104,-480,1832,93,-2,9
8595,144,-488,1848,92,-2,12
8600,112,-480,1824,92,-2,12
8605,88,-456,1808,90,-2,11
8610,96,-448,1752,89,-3,13
8615,104,-440,1784,86,-2,13
8620,112,-416,1816,84,-1,12
8625,72,-408,1824,84,-1,13
8630,88,-392,1840,83,0,13
8635,80,-424,1824,82,3,15
8640,88,-416,1880,82,5,13
8645,80,-440,1904,83,8,12
8650,88,-440,1920,83,9,13
8655,104,-448,1944,85,10,10
8660,104,-448,1960,87,11,9
8665,96,-456,1928,91,14,12
8670,104,-456,1992,88,19,10
8675,88,-448,1960,83,21,6
8680,96,-456,1944,82,22,2
8685,96,-448,2008,81,24,0
8690,96,-464,1936,81,25,-2
8695,88,-472,1976,80,25,-5
8700,80,-464,1984,83,24,-9
8705,72,-464,1976,88,21,-9
8710,72,-448,1968,92,20,-10
8715,56,-440,1984,95,17,-9
8720,72,-448,1944,101,12,-9
8725,56,-472,1984,105,10,-9
8730,48,-424,1944,107,8,-11
8735,56,-456,1936,111,4,-10
8740,56,-464,1944,116,2,-9
8745,32,-472,1944,117,-2,-9
8750,56,-416,1944,122,-1,-10
8755,48,-440,1952,127,-3,-10
8760,40,-392,1960,133,-3,-12
8765,32,-424,1960,140,-5,-13
8770,56,-424,1976,145,-4,-14
8775,24,-416,1976,149,-5,-13
8780,40,-424,1920,154,0,-16
8785,56,-424,1992,155,3,-15
8790,40,-416,1960,155,10,-19
8795,80,-352,1960,155,4,-20
8800,72,-440,1960,152,2,-20
8805,56,-408,1936,146,3,-20
8810,80,-432,1960,139,3,-18
8815,72,-440,1992,131,7,-18
8820,80,-440,1960,124,9,-18
8825,64,-440,1928,119,10,-15
8830,80,-424,1944,113,11,-15
8835,64,-416,1936,109,11,-13
8840,72,-408,1976,106,9,-12
8845,72,-432,1912,104,5,-9
8850,48,-360,1920,104,1,-9
8855,72,-432,1936,106,-2,-7
8860,64,-424,1928,105,-7,-6
8865,80,-440,1936,105,-9,-7
8870,80,-424,1920,105,-12,-9
8875,64,-416,1928,106,-12,-10
8880,96,-408,1952,106,-13,-13
8885,88,-416,1968,105,-11,-12
8890,56,-392,1904,105,-9,-12
8895,104,-432,1968,106,-6,-14
8900,72,-408,1936,109,-4,-13
8905,64,-424,1960,108,-3,-15
8910,96,-392,1952,106,-1,-15
8915,80,-376,1920,105,1,-17
8920,80,-392,1920,101,3,-13
8925,88,-392,1936,99,3,-14
8930,104,-400,1968,96,3,-13
8935,96,-384,1928,92,0,-12
8940,120,-384,1944,87,-1,-10
8945,88,-440,1912,84,-1,-7
8950,88,-424,1968,78,-3,-11
8955,120,-408,1968,73,-5,-13
8960,128,-432,1944,69,-6,-15
8965,104,-432,1944,65,-5,-15
8970,112,-424,1960,65,-7,-18
8975,96,-432,1952,66,-8,-19
8980,104,-424,1944,67,-7,-21
8985,96,-416,1936,71,-5,-21
8990,96,-376,1928,73,-2,-22
8995,112,-392,1960,76,0,-22
9000,88,-408,1936,77,1,-21
9005,120,-416,1944,79,3,-19
9010,88,-368,1944,80,3,-16
9015,96,-384,1936,80,3,-15
9020,112,-408,1928,81,5,-11
9025,104,-416,1944,85,6,-11
9030,72,-384,1928,87,7,-8
9035,112,-408,1952,91,8,-5
9040,96,-392,1960,94,9,-6
9045,120,-408,1952,95,6,-6
9050,96,-400,1928,94,6,-5
9055,72,-408,1936,95,5,-5
9060,88,-408,1976,95,3,-6
9065,128,-360,1920,100,4,-5
9070,128,-424,1944,101,2,-5
9075,72,-392,1944,105,3,-3
9080,96,-416,1968,107,2,-5
9085,80,-392,1960,104,0,-8
9090,88,-400,1952,103,0,-8
9095,104,-408,1984,100,1,-9
9100,72,-368,1928,97,4,-7
9105,72,-392,1968,94,7,-6
9110,72,-384,1928,91,10,-6
9115,88,-384,1936,87,14,-7
9120,64,-360,1880,84,16,-4
9125,96,-400,1952,81,18,-1
9130,88,-400,1960,78,19,-1
9135,88,-384,1944,76,18,0
9140,112,-416,1944,72,17,0
9145,80,-368,1928,70,15,0
9150,96,-376,1920,69,14,0
9155,88,-384,1928,69,14,-1
9160,72,-408,1952,67,13,-1
9165,96,-376,1952,67,10,-2
9170,96,-368,1960,67,9,-4
9175,72,-416,1960,68,10,-6
9180,80,-376,1936,67,9,-6
9185,80,-392,1952,67,8,-8
9190,72,-408,1984,68,8,-9
9195,72,-424,1944,67,9,-9
9200,104,-400,1952,67,9,-10
9205,80,-424,1952,68,8,-10
9210,80,-400,1928,67,9,-10
9215,104,-392,1928,66,9,-11
9220,64,-384,1936,66,9,-13
9225,96,-392,1936,64,10,-10
9230,96,-400,2056,62,10,-10
9235,88,-400,1944,60,9,-11
9240,80,-360,1920,58,8,-11
9245,96,-400,1960,56,8,-11
9250,88,-384,1944,54,8,-11
9255,88,-376,1944,51,6,-11
9260,88,-392,1944,50,6,-11
9265,96,-392,1984,50,6,-10
9270,96,-384,1952,50,8,-12
9275,72,-416,1968,49,8,-11
9280,96,-392,1928,51,9,-12
9285,96,-424,1984,50,7,-12
9290,80,-400,1976,49,8,-13
9295,88,-400,1960,47,7,-12
9300,96,-400,1960,45,8,-12
9305,88,-408,1976,46,8,-12
9310,88,-408,1936,46,8,-11
9315,64,-392,1928,47,8,-9
9320,104,-408,1952,49,9,-10
9325,80,-392,1936,52,8,-8
9330,80,-400,1944,57,7,-8
9335,56,-392,1936,60,4,-9
9340,96,-416,1912,63,2,-9
9345,64,-392,1944,66,0,-8
9350,88,-392,1960,68,0,-10
9355,96,-384,1960,71,-1,-11
9360,104,-408,1952,71,-1,-11
9365,88,-400,1960,70,-2,-11
9370,88,-376,1944,68,-2,-11
9375,96,-360,1968,65,-1,-12
9380,104,-368,1960,60,0,-12
9385,96,-336,1944,55,-1,-11
9390,112,-376,1928,53,-1,-11
9395,88,-320,1952,49,1,-11
9400,80,-352,1952,48,1,-10
9405,104,-392,2008,46,2,-8
9410,64,-376,1952,44,3,-7
9415,96,-392,1960,43,3,-8
9420,64,-368,1968,43,5,-8
9425,80,-384,1976,44,6,-9
9430,104,-416,1944,46,6,-12
9435,88,-384,1968,49,7,-10
9440,112,-384,1960,49,8,-10
9445,128,-440,1984,50,9,-11
9450,96,-400,1944,52,10,-12
9455,96,-400,1976,52,10,-12
9460,96,-384,1944,53,8,-11
9465,104,-416,1944,53,7,-12
9470,104,-400,1952,54,8,-8
9475,104,-392,1960,55,9,-9
9480,104,-392,1928,54,7,-10
9485,112,-392,1992,54,8,-9
9490,96,-384,1920,54,7,-10
9495,120,-400,1952,54,7,-9
9500,160,-400,2008,53,7,-7
9505,88,-368,1952,54,6,-8
9510,88,-408,1944,53,6,-9
9515,104,-384,1944,54,6,-8
9520,120,-384,1968,55,6,-10
9525,112,-408,1952,55,6,-8
9530,80,-368,1928,58,6,-8
9535,72,-392,1936,58,6,-8
9540,88,-384,1976,58,7,-8
9545,80,-392,1936,58,9,-9
9550,96,-376,1936,59,8,-10
9555,64,-392,1912,60,8,-8
9560,80,-392,1952,59,9,-8
9565,88,-400,1920,58,10,-9
9570,96,-392,1944,57,10,-8
9575,88,-392,1944,56,10,-9
9580,96,-392,1944,54,10,-10
9585,88,-376,1936,52,9,-10
9590,104,-384,1952,51,10,-10
9595,88,-392,1952,49,9,-10
9600,80,-384,1952,47,9,-11
9605,80,-384,1912,46,10,-12
9610,104,-416,1968,45,7,-14
9615,80,-400,1928,46,6,-12
9620,80,-408,1960,49,6,-15
9625,104,-392,1952,49,8,-15
9630,88,-440,1944,52,7,-17
9635,104,-400,1968,56,7,-15
9640,96,-416,1960,59,6,-17
9645,72,-408,1984,61,6,-17
9650,96,-408,1944,64,5,-14
9655,80,-408,1920,65,6,-14
9660,104,-400,1936,65,6,-13
9665,144,-408,1952,65,5,-12
9670,80,-400,1920,65,4,-9
9675,96,-400,1968,63,4,-9
9680,88,-368,1928,61,4,-8
9685,104,-376,1984,60,5,-6
9690,88,-368,1968,57,5,-7
9695,96,-368,1952,54,5,-7
9700,120,-376,1944,51,5,-7
9705,128,-376,1952,49,4,-9
9710,72,-400,1960,48,4,-7
9715,88,-376,1912,46,2,-8
9720,104,-384,1912,45,2,-7
9725,88,-392,1952,45,3,-6
9730,104,-392,1936,47,4,-8
9735,80,-376,1968,49,3,-9
9740,104,-424,1952,50,4,-10
9745,88,-384,1936,51,4,-11
9750,96,-384,1960,53,5,-12
9755,112,-384,1952,53,6,-10
9760,64,-368,1936,53,6,-10
9765,72,-360,1952,55,5,-9
9770,160,-368,1952,54,6,-9
9775,104,-432,1968,54,6,-8
9780,112,-392,1960,54,6,-8
9785,112,-392,1936,53,6,-7
9790,104,-360,1976,54,6,-8
9795,120,-416,1984,55,7,-8
9800,112,-368,1904,54,7,-7
9805,64,-376,1944,53,6,-8
9810,104,-392,1976,53,6,-8
9815,96,-392,1976,52,6,-9
9820,104,-384,1960,52,6,-10
9825,56,-384,1944,51,6,-9
9830,104,-384,1984,51,5,-11
9835,96,-384,1936,51,4,-9
9840,80,-384,1952,51,4,-11
9845,96,-384,1944,52,3,-9
9850,88,-384,1936,53,4,-8
9855,88,-392,1952,53,5,-7
9860,96,-392,1936,54,6,-7
9865,88,-376,1944,53,5,-8
9870,112,-384,1928,53,5,-10
9875,112,-416,1960,51,5,-9
9880,96,-392,1928,51,5,-9
9885,104,-360,1944,51,4,-9
9890,104,-392,1944,51,4,-8
9895,96,-400,1960,52,3,-9
9900,96,-384,1952,52,3,-9
9905,96,-376,1936,51,2,-7
9910,96,-392,1952,49,0,-10
9915,104,-392,1976,47,0,-8
9920,88,-384,1952,45,0,-8
9925,88,-376,1952,43,1,-9
9930,88,-368,1976,41,2,-10
9935,120,-392,1944,39,3,-11
9940,64,-400,1920,38,4,-10
9945,120,-408,1968,36,7,-9
9950,120,-416,1944,36,7,-7
9955,104,-376,1944,36,9,-7
9960,96,-408,1960,38,10,-6
9965,112,-392,1960,41,11,-5
9970,120,-416,1952,43,10,-5
9975,88,-392,1952,46,8,-4
9980,120,-408,1944,49,8,-5
9985,72,-368,1936,54,7,-5
9990,80,-392,1912,56,6,-7
9995,96,-392,1936,60,5,-10
10000,96,-384,1928,62,1,-9
10005,104,-392,1960,65,-1,-8
10010,80,-376,1944,67,-3,-8
10015,96,-368,1960,69,-4,-10
10020,88,-392,1944,68,-4,-11
10025,104,-376,1968,64,-4,-10
10030,96,-368,1952,60,-4,-8
10035,104,-352,1984,55,-4,-8
10040,104,-384,1952,49,-3,-5
10045,56,-408,1936,43,-3,-6
10050,104,-360,1936,36,-1,-5
10055,104,-392,1960,32,2,-4
10060,96,-368,1936,28,5,-6
10065,112,-360,1944,25,6,-6
10070,128,-392,1920,24,6,-5
10075,80,-368,1944,23,8,-6
10080,120,-376,1944,24,10,-6
10085,112,-360,1952,24,12,-7
10090,88,-400,1944,26,10,-7
10095,104,-400,1904,28,10,-6
10100,64,-416,1928,28,8,-6
10105,104,-384,1960,30,8,-6
10110,88,-384,1952,32,7,-6
10115,96,-392,1944,35,7,-5
10120,104,-392,1944,36,7,-5
10125,104,-392,1944,39,7,-5
10130,96,-408,1960,40,6,-5
10135,120,-400,1960,42,7,-5
10140,72,-400,1960,43,7,-6
10145,88,-400,1928,43,8,-8
10150,104,-376,1960,43,7,-6
10155,128,-400,1928,44,6,-6
10160,88,-384,1920,43,6,-6
10165,88,-384,1928,43,7,-5
10170,88,-384,1944,41,7,-5
10175,96,-400,1936,43,6,-7
10180,96,-384,1920,43,6,-8
10185,96,-392,1936,44,8,-7
10190,112,-400,1912,45,7,-7
10195,88,-376,1912,47,7,-5
10200,128,-408,1960,49,7,-6
10205,80,-416,1904,52,6,-7
10210,120,-384,1912,52,7,-6
10215,88,-376,1944,53,6,-6
10220,120,-384,1936,52,5,-8
10225,112,-368,1952,51,4,-7
10230,96,-400,1968,50,5,-7
10235,112,-416,1944,48,6,-7
10240,128,-416,1944,48,6,-7
10245,80,-384,1936,46,7,-7
10250,112,-408,1928,45,8,-9
10255,80,-392,1944,43,8,-10
10260,104,-392,1912,42,9,-11
10265,88,-392,1928,42,11,-10
10270,120,-408,1920,43,10,-11
10275,128,-408,1968,43,9,-11
10280,80,-384,1952,44,8,-12
10285,112,-392,1936,42,9,-12
10290,112,-440,1944,45,7,-14
10295,96,-400,1944,46,8,-13
10300,104,-400,1960,48,7,-11
10305,112,-408,1928,50,8,-11
10310,104,-392,1912,54,8,-12
10315,104,-424,1920,57,10,-11
10320,72,-392,1976,59,10,-11
10325,96,-400,1952,60,10,-10
10330,104,-392,1976,61,10,-8
10335,112,-384,1944,62,10,-9
10340,104,-384,1944,62,10,-9
10345,88,-360,1968,60,10,-11
10350,96,-368,1968,59,9,-9
10355,80,-384,1944,60,9,-9
10360,80,-368,1920,60,10,-12
10365,104,-392,1936,60,11,-11
10370,88,-384,1936,60,11,-12
10375,64,-416,1928,62,11,-13
10380,88,-408,1952,62,10,-13
10385,88,-400,1920,63,9,-15
10390,80,-384,1920,64,9,-16
10395,128,-392,1936,66,9,-16
10400,120,-400,1944,68,9,-16
10405,72,-384,1936,71,8,-16
10410,104,-400,1960,71,8,-17
10415,80,-376,1968,73,8,-16
10420,72,-400,1944,73,8,-15
10425,104,-400,1944,75,9,-15
10430,96,-400,1928,75,9,-17
10435,112,-376,1976,75,9,-17
10440,104,-384,1968,76,10,-16
10445,88,-384,1952,76,9,-14
10450,80,-400,1920,76,10,-12
10455,88,-400,1960,78,11,-13
10460,88,-352,1912,77,11,-12
10465,120,-392,1952,76,11,-12
10470,104,-400,1944,76,11,-14
10475,120,-376,1976,75,11,-15
10480,72,-408,2000,73,10,-16
10485,80,-336,1848,70,10,-17
10490,96,-400,1936,66,11,-16
10495,72,-384,1944,64,9,-19
10500,96,-384,1944,61,10,-18
10505,104,-368,1960,56,10,-17
10510,96,-392,1936,52,10,-18
10515,96,-376,1928,48,11,-18
10520,104,-392,1952,43,10,-16
10525,120,-392,1960,39,10,-17
10530,88,-368,1968,34,11,-17
10535,40,-368,1872,30,11,-16
10540,96,-360,1960,25,11,-16
10545,96,-392,1952,20,12,-16
10550,104,-360,1936,14,12,-17
10555,104,-368,1936,10,12,-16
10560,128,-384,1952,6,14,-16
10565,72,-376,1952,2,14,-15
10570,120,-376,1952,-1,13,-14
10575,96,-376,1944,-3,12,-12
10580,104,-384,2000,-2,11,-12
10585,96,-384,1920,-2,12,-12
10590,112,-360,1920,-1,13,-12
10595,136,-384,1952,3,12,-13
10600,112,-384,1984,5,13,-14
10605,128,-408,1976,10,14,-13
10610,96,-408,2000,16,16,-12
10615,96,-400,1952,22,18,-11
10620,88,-392,1960,27,19,-11
10625,120,-408,1944,33,20,-10
10630,112,-408,1976,41,22,-7
10635,112,-408,1976,47,23,-6
10640,96,-392,1936,53,23,-5
10645,72,-432,1928,58,26,-4
10650,112,-384,1960,62,26,-3
10655,96,-400,1928,66,28,-5
10660,112,-384,1920,69,29,-5
10665,96,-408,1936,69,29,-5
10670,96,-392,1936,71,28,-4
10675,96,-376,1936,72,26,-2
10680,120,-392,1952,73,24,0
10685,112,-408,1928,72,23,0
10690,104,-368,1944,69,22,1
10695,104,-368,1928,66,20,2
10700,160,-392,1872,63,20,5
10705,104,-384,1960,61,19,6
10710,112,-376,1944,59,21,9
10715,120,-376,1960,57,21,9
10720,112,-392,1976,55,21,12
10725,88,-400,2000,53,23,14
10730,120,-376,1960,53,24,15
10735,120,-384,1976,53,25,15
10740,120,-376,1952,51,25,17
10745,104,-376,1976,50,26,17
10750,120,-376,1944,51,27,18
10755,104,-408,1920,54,27,17
10760,120,-400,1944,56,27,17
10765,120,-408,1936,59,26,17
10770,120,-400,1968,62,25,14
10775,96,-408,1960,65,26,15
10780,112,-416,1936,67,26,12
10785,112,-368,1912,70,26,9
10790,96,-384,1952,73,27,7
10795,104,-416,1944,75,26,4
10800,88,-416,1936,76,24,1
10805,88,-416,1944,78,22,0
10810,48,-424,1944,79,19,0
10815,64,-408,1904,81,16,-3
10820,72,-408,1928,82,13,-6
10825,80,-416,1936,85,12,-6
10830,88,-408,1896,88,9,-8
10835,64,-384,1896,92,12,-8
10840,56,-392,1944,96,12,-9
10845,40,-384,1944,101,13,-9
10850,72,-384,1944,105,11,-9
10855,64,-392,1912,109,10,-11
10860,64,-408,1920,111,8,-13
10865,8,-432,1960,111,9,-16
10870,48,-384,1928,109,9,-18
10875,24,-352,1952,103,8,-19
10880,48,-352,1944,97,8,-20
10885,48,-360,1952,93,10,-23
10890,80,-368,1968,88,11,-24
10895,40,-400,1952,84,11,-25
10900,48,-352,1944,77,11,-28
10905,48,-384,1936,72,11,-30
10910,80,-384,1960,69,15,-32
10915,88,-392,2008,62,21,-33
10920,64,-432,1984,58,23,-31
10925,88,-400,1992,54,27,-32
10930,64,-384,1992,51,30,-31
10935,80,-376,1952,50,27,-29
10940,96,-392,1992,50,24,-28
10945,88,-392,1976,50,23,-27
10950,72,-376,1984,50,20,-25
10955,112,-408,1992,52,20,-25
10960,88,-392,1984,52,18,-26
10965,96,-392,1936,54,17,-23
10970,88,-392,1984,59,16,-22
10975,96,-408,2040,62,17,-21
10980,96,-392,1960,64,16,-19
10985,104,-376,1968,66,15,-17
10990,96,-384,1968,66,15,-17
10995,80,-360,1936,67,14,-16
11000,104,-328,1936,65,13,-14
11005,112,-344,1944,64,11,-14
11010,120,-384,1960,61,10,-14
11015,80,-344,1944,59,9,-13
11020,112,-376,1960,56,9,-13
11025,136,-368,2056,54,6,-11
11030,96,-376,1952,52,5,-10
11035,96,-368,1968,50,5,-9
11040,72,-360,1984,49,3,-8
11045,88,-368,1952,48,4,-7
11050,80,-352,1952,49,4,-8
11055,96,-368,1984,49,3,-9
11060,112,-392,1968,48,2,-8
11065,112,-368,1952,49,2,-9
11070,88,-384,1928,50,3,-8
11075,112,-392,1984,50,4,-7
11080,72,-424,2000,50,5,-7
11085,96,-392,1952,51,5,-6
11090,104,-408,1968,52,8,-5
11095,80,-384,1968,52,8,-6
11100,104,-360,1960,52,9,-5
11105,96,-376,1968,50,10,-5
11110,88,-384,1960,49,11,-3
11115,72,-360,1944,47,11,-3
11120,96,-392,1960,44,12,-2
11125,72,-376,1944,41,13,-3
11130,96,-392,1952,40,13,-2
11135,80,-408,1968,39,14,-3
11140,88,-360,1944,38,15,-1
11145,96,-400,1936,36,14,-1
11150,104,-376,1968,34,15,-2
11155,96,-384,1936,33,16,1
11160,96,-392,1944,32,15,0
11165,104,-400,1968,34,15,0
11170,88,-384,1944,35,15,0
11175,104,-368,1920,35,14,0
11180,72,-384,1920,36,15,-1
11185,64,-368,1936,39,14,-2
11190,96,-376,1928,41,13,-2
11195,88,-384,1960,43,13,-1
11200,64,-368,1944,46,12,-2
11205,88,-392,1944,46,13,-3
11210,80,-360,1944,49,13,-3
11215,88,-392,1976,48,12,-3
11220,96,-408,1920,49,11,-2
11225,88,-392,1952,49,10,-3
11230,80,-384,1968,48,11,-4
11235,72,-368,1936,47,11,-3
11240,72,-392,1936,45,10,-4
11245,112,-384,1952,44,10,-5
11250,88,-368,1928,42,10,-8
11255,72,-360,1936,42,11,-8
11260,80,-392,1968,41,12,-7
11265,96,-400,1944,40,10,-8
11270,104,-392,1992,40,8,-8
11275,88,-384,1928,39,6,-9
11280,80,-376,1976,35,6,-11
11285,56,-352,1944,33,5,-13
11290,104,-376,1984,30,5,-14
11295,88,-360,1968,27,3,-15
11300,72,-392,1984,26,4,-16
11305,72,-376,1952,22,4,-18
11310,48,-376,1976,21,3,-16
11315,88,-400,1976,20,3,-18
11320,64,-408,1944,19,4,-15
11325,96,-424,1968,20,6,-13
11330,88,-400,1976,23,6,-13
11335,72,-384,1960,25,7,-11
11340,80,-392,1952,29,8,-11
11345,104,-400,1976,33,7,-12
11350,64,-416,1928,40,6,-10
11355,112,-408,1960,47,7,-11
11360,88,-392,1936,53,6,-12
11365,64,-408,1944,58,5,-12
11370,104,-392,1928,61,4,-11
11375,96,-368,1960,65,1,-10
11380,96,-376,1928,66,-1,-12
11385,96,-376,1920,64,-1,-12
11390,104,-384,1968,62,-2,-13
11395,56,-368,1928,58,-2,-13
11400,88,-360,1920,53,-1,-12
11405,120,-368,1976,49,0,-11
11410,104,-288,1952,43,1,-9
11415,104,-376,1952,37,4,-12
11420,104,-392,1952,32,5,-13
11425,104,-344,1936,27,4,-9
11430,88,-344,1952,22,5,-9
11435,88,-376,1952,20,4,-9
11440,104,-384,1976,17,4,-10
11445,88,-392,1960,17,6,-8
11450,120,-400,1960,16,6,-7
11455,112,-376,1952,17,5,-7
11460,112,-416,1984,21,5,-7
11465,120,-408,1928,24,6,-7
11470,112,-408,1936,27,6,-7
11475,96,-400,1952,31,6,-6
11480,112,-392,1944,34,6,-5
11485,104,-408,1936,36,6,-4
11490,104,-400,1928,39,6,-4
11495,112,-400,1920,40,6,-4
11500,80,-376,1936,43,8,-5
11505,88,-392,1952,44,8,-4
11510,104,-416,1944,43,8,-4
11515,96,-424,1976,43,8,-3
11520,80,-384,1920,45,9,-3
11525,80,-376,1928,47,8,-3
11530,88,-408,1912,45,9,-2
11535,88,-376,1920,45,10,-3
11540,88,-384,1928,45,13,-4
11545,88,-384,1936,46,13,-5
11550,72,-368,1936,47,12,-4
11555,112,-408,1904,49,13,-4
11560,72,-400,1936,51,13,-6
11565,72,-392,1928,53,12,-7
11570,88,-424,1936,53,11,-6
11575,64,-384,1896,54,11,-5
11580,72,-376,1952,53,11,-5
11585,72,-384,1944,52,11,-5
11590,104,-400,1944,50,11,-8
11595,96,-400,1952,49,11,-7
11600,80,-392,1960,45,12,-9
11605,96,-416,1904,42,13,-8
11610,88,-392,1944,41,14,-8
11615,56,-400,1984,39,16,-9
11620,88,-392,1944,37,15,-9
11625,120,-416,1912,34,15,-7
11630,72,-416,1936,33,15,-9
11635,72,-408,1960,33,16,-8
11640,80,-392,1968,33,15,-10
11645,96,-400,1960,35,13,-8
11650,88,-424,1944,37,11,-9
11655,96,-408,1976,40,10,-9
11660,88,-408,1952,43,8,-9
11665,88,-408,1944,47,7,-11
11670,80,-392,2000,49,8,-12
11675,72,-368,1944,52,7,-11
11680,72,-400,1920,54,7,-10
11685,88,-392,1936,55,8,-8
11690,96,-392,1960,54,8,-9
11695,64,-392,1928,57,7,-8
11700,88,-392,1968,58,8,-8
11705,72,-376,1936,59,8,-11
11710,64,-392,1968,58,8,-9
11715,112,-368,1944,59,9,-8
11720,88,-392,1936,62,9,-8
11725,120,-384,1944,61,8,-9
11730,72,-384,1952,62,9,-9
11735,72,-376,1960,61,10,-9
11740,88,-400,1920,61,9,-9
11745,88,-384,1960,61,9,-9
11750,72,-368,1952,61,9,-9
11755,72,-368,1952,61,10,-10
11760,88,-392,1944,60,9,-10
11765,104,-384,1944,60,9,-10
11770,96,-400,1920,58,9,-10
11775,104,-408,1936,59,9,-9
11780,72,-376,1912,59,9,-12
11785,64,-392,1920,58,8,-13
11790,56,-384,1968,57,9,-13
11795,104,-416,1928,58,9,-13
11800,64,-416,1928,60,9,-13
11805,88,-368,1976,63,9,-12
11810,104,-416,1912,63,9,-12
11815,88,-376,1936,64,10,-12
11820,80,-392,1952,68,10,-11
11825,112,-416,1928,70,11,-9
11830,88,-392,1912,71,11,-12
11835,112,-368,1944,73,11,-12
11840,104,-384,1888,75,11,-11
11845,96,-432,1984,78,11,-10
11850,88,-392,1960,79,11,-11
11855,96,-376,1944,82,12,-10
11860,88,-416,1944,84,12,-9
11865,96,-376,1944,84,11,-10
11870,80,-384,1960,85,12,-10
11875,56,-368,1944,85,13,-9
11880,120,-376,1984,84,14,-11
11885,80,-368,1928,83,13,-12
11890,72,-352,1936,80,13,-12
11895,96,-384,1920,77,15,-12
11900,80,-400,1968,74,15,-13
11905,96,-384,1952,73,17,-13
11910,112,-400,1944,70,16,-12
11915,80,-376,1976,67,16,-12
11920,96,-376,1976,65,16,-11
11925,104,-416,1944,65,17,-10
11930,88,-368,1960,65,16,-13
11935,96,-368,1952,64,16,-11
11940,80,-368,1944,65,15,-14
11945,72,-376,1944,66,15,-14
11950,88,-392,1936,67,16,-13
11955,80,-384,1960,68,15,-14
11960,96,-416,1944,70,15,-14
11965,72,-336,1952,72,15,-14
11970,72,-384,1952,72,14,-15
11975,40,-368,1944,74,14,-16
11980,136,-432,1904,75,13,-14
11985,64,-368,1928,74,13,-16
11990,96,-392,1912,73,13,-16
11995,104,-400,2000,71,11,-14
12000,88,-352,1992,70,10,-16
12005,80,-400,1944,68,10,-14
12010,56,-376,1936,66,12,-15
12015,104,-352,1912,65,14,-15
12020,96,-408,1920,62,14,-16
12025,72,-416,1896,60,15,-15
12030,128,-352,1984,57,17,-16
12035,72,-384,1984,55,18,-15
12040,72,-440,1968,56,19,-15
12045,24,-424,1984,58,19,-14
12050,88,-392,1912,62,18,-15
12055,72,-368,1936,68,18,-13
12060,128,-424,1976,73,18,-13
12065,56,-400,2000,80,15,-13
12070,96,-400,1976,84,12,-14
12075,56,-416,1976,90,11,-15
12080,88,-400,1928,96,10,-14
12085,96,-368,1928,101,7,-15
12090,40,-368,1920,103,5,-14
12095,96,-424,1856,106,7,-14
12100,88,-360,1928,106,4,-16
12105,96,-368,1960,106,4,-16
12110,80,-336,1952,103,4,-16
12115,64,-352,1952,101,5,-16
12120,104,-408,1896,97,5,-16
12125,96,-344,1968,92,6,-15
12130,96,-360,1936,86,8,-15
12135,72,-344,1952,82,10,-15
12140,120,-376,1960,76,10,-15
12145,104,-384,1928,71,11,-14
12150,112,-368,1976,66,12,-14
12155,104,-360,1944,63,13,-14
12160,64,-368,1976,61,15,-13
12165,40,-312,1968,58,15,-15
12170,88,-368,1960,57,16,-14
12175,96,-376,1968,58,17,-13
12180,104,-376,1920,59,16,-13
12185,88,-408,1960,60,15,-13
12190,144,-400,1936,64,16,-12
12195,112,-376,1960,64,15,-13
12200,88,-360,1968,68,14,-13
12205,104,-360,1936,69,14,-13
12210,104,-384,1928,71,13,-13
12215,88,-368,1944,72,13,-13
12220,104,-392,1976,72,13,-14
12225,88,-400,1928,72,11,-13
12230,160,-376,1976,72,11,-13
12235,72,-368,1936,73,13,-13
12240,88,-360,1960,74,12,-14
12245,72,-352,1960,75,14,-13
12250,104,-376,1968,77,14,-12
12255,104,-352,1912,78,14,-13
12260,104,-368,1928,81,16,-12
12265,88,-344,1960,84,16,-11
12270,72,-352,1936,86,16,-12
12275,104,-384,1944,88,17,-13
12280,80,-376,1968,91,18,-12
12285,88,-352,1936,94,18,-14
12290,104,-368,1968,97,18,-16
12295,104,-368,1928,97,17,-15
12300,56,-352,1936,98,18,-12
12305,96,-392,1952,98,18,-15
12310,96,-368,1960,94,17,-15
12315,96,-336,1944,90,17,-14
12320,96,-368,1928,89,16,-16
12325,104,-368,1952,89,18,-15
12330,88,-344,1928,85,18,-15
12335,112,-384,2000,81,17,-13
12340,104,-368,1952,77,16,-14
12345,104,-344,1960,75,14,-14
12350,72,-360,1936,72,14,-12
12355,88,-352,1936,70,14,-12
12360,80,-368,1936,71,14,-15
12365,80,-352,1992,69,14,-15
12370,80,-344,1992,68,14,-14
12375,88,-344,1928,71,13,-14
12380,64,-384,1984,72,13,-13
12385,96,-344,1968,75,12,-14
12390,32,-368,1960,76,11,-15
12395,88,-360,1960,78,11,-16
12400,80,-360,1960,79,11,-14
12405,88,-352,1952,80,12,-14
12410,88,-344,1960,82,11,-13
12415,88,-352,1960,81,11,-14
12420,96,-344,1952,82,11,-12
12425,96,-336,1952,82,13,-13
12430,88,-320,1960,81,14,-10
12435,112,-384,1944,81,14,-12
12440,104,-336,1936,80,13,-13
12445,88,-360,1952,78,13,-10
12450,88,-360,1968,75,14,-11
12455,88,-336,1944,72,13,-10
12460,80,-360,1944,71,13,-10
12465,104,-344,1960,67,13,-9
12470,88,-328,1952,64,12,-10
12475,104,-344,1968,61,10,-10
12480,96,-336,1944,59,9,-11
12485,112,-336,1944,57,9,-11
12490,72,-328,1952,56,8,-12
12495,104,-336,1976,53,8,-12
12500,88,-392,1968,52,8,-10
12505,88,-376,1960,51,9,-10
12510,96,-344,1960,50,8,-11
12515,96,-352,2000,49,8,-11
12520,72,-344,1960,47,10,-12
12525,72,-336,1944,48,7,-11
12530,88,-328,1952,48,8,-11
12535,96,-376,1984,47,9,-13
12540,96,-360,1968,46,9,-12
12545,88,-336,1944,46,9,-12
12550,40,-328,1960,46,8,-13
12555,88,-328,1984,47,8,-13
12560,80,-376,1984,46,8,-11
12565,64,-336,1968,47,9,-10
12570,88,-352,1960,48,9,-9
12575,104,-352,1952,48,11,-9
12580,80,-352,1952,49,10,-9
12585,88,-328,1968,52,10,-8
12590,80,-376,1928,53,11,-9
12595,96,-336,1960,55,12,-8
12600,104,-344,1920,56,13,-9
12605,80,-360,1960,58,11,-9
12610,88,-336,1928,58,10,-11
12615,80,-336,1952,57,9,-12
12620,88,-360,1968,58,10,-11
12625,64,-344,1976,57,9,-10
12630,80,-344,1936,55,10,-12
12635,88,-328,1960,53,9,-13
12640,72,-336,1944,52,9,-12
12645,88,-368,1936,50,11,-13
12650,96,-376,1976,48,10,-11
12655,80,-360,1968,47,9,-13
12660,72,-368,1928,47,11,-13
12665,72,-352,1960,46,11,-12
12670,80,-360,1968,44,11,-13
12675,80,-352,1968,43,12,-13
12680,104,-376,1960,40,11,-13
12685,88,-352,1936,38,12,-13
12690,64,-368,1952,38,13,-13
12695,104,-368,1968,36,14,-11
12700,72,-376,1984,34,11,-12
12705,120,-352,2000,34,11,-11
12710,96,-360,1968,33,10,-11
12715,104,-368,1968,33,8,-10
12720,72,-344,1992,31,8,-9
12725,96,-352,2000,27,7,-12
12730,88,-336,1952,23,7,-11
12735,64,-328,1976,21,7,-12
12740,72,-344,1992,18,5,-11
12745,80,-344,1968,17,7,-12
12750,80,-384,1960,17,8,-11
12755,80,-360,1952,17,8,-11
12760,88,-384,1984,17,9,-12
12765,88,-352,1936,18,10,-9
12770,32,-368,1952,21,12,-9
12775,80,-384,1976,25,11,-10
12780,64,-384,1968,30,11,-8
12785,64,-376,1952,36,12,-10
12790,80,-376,1944,43,12,-10
12795,64,-360,1952,49,10,-11
12800,96,-384,1896,54,10,-12
12805,72,-352,1928,60,7,-11
12810,72,-368,1928,67,6,-11
12815,104,-376,1920,70,4,-12
12820,80,-344,1968,70,2,-12
12825,144,-320,1920,69,1,-10
12830,88,-336,1936,65,2,-12
12835,80,-352,1976,58,2,-12
12840,112,-344,1976,52,4,-10
12845,104,-344,1960,46,5,-11
12850,96,-344,1944,38,6,-10
12855,96,-328,1952,31,7,-9
12860,112,-368,1968,25,9,-9
12865,56,-336,2008,18,11,-7
12870,80,-312,1928,14,11,-7
12875,64,-368,1944,10,11,-7
12880,152,-360,1928,7,10,-7
12885,88,-384,1944,5,10,-6
12890,96,-360,1944,4,9,-6
12895,80,-352,1944,5,11,-7
12900,88,-360,1960,6,11,-7
12905,88,-376,1976,9,11,-7
12910,64,-368,1976,12,10,-10
12915,88,-376,1960,16,11,-8
12920,80,-392,1944,19,10,-9
12925,104,-384,1984,21,11,-10
12930,72,-368,1960,24,9,-10
12935,88,-400,1928,27,9,-12
12940,64,-344,1936,29,10,-11
12945,56,-344,1968,29,10,-10
12950,80,-376,1952,30,10,-9
12955,88,-360,1960,30,10,-10
12960,80,-360,1960,29,11,-8
12965,64,-368,1968,29,12,-8
12970,96,-384,1920,29,10,-7
12975,88,-344,1920,28,12,-6
12980,80,-376,1928,28,11,-8
12985,104,-368,1984,29,11,-6
12990,88,-400,1928,31,11,-7
12995,80,-344,1952,31,11,-7
13000,96,-384,1936,32,11,-8
13005,64,-360,1952,33,11,-8
13010,72,-368,1928,35,11,-7
13015,64,-376,1928,36,11,-8
13020,96,-392,1936,36,9,-8
13025,64,-392,1984,33,10,-11
13030,80,-368,1952,31,9,-9
13035,88,-368,1944,28,10,-9
13040,120,-408,1944,25,10,-9
13045,112,-384,1936,23,10,-10
13050,88,-360,1960,19,10,-11
13055,80,-376,1936,16,10,-11
13060,104,-384,1952,14,11,-9
13065,64,-360,1976,13,11,-8
13070,72,-376,1952,11,11,-9
13075,96,-384,1984,11,10,-10
13080,104,-392,1960,12,10,-11
13085,64,-368,1936,13,9,-10
13090,80,-384,1968,15,8,-11
13095,120,-360,1968,17,7,-11
13100,56,-384,1984,21,7,-12
13105,72,-392,1976,23,7,-10
13110,88,-376,1960,28,7,-10
13115,104,-384,1968,31,8,-11
13120,72,-384,1992,34,7,-11
13125,88,-384,1952,38,5,-9
13130,72,-344,1944,39,5,-10
13135,56,-360,1960,41,5,-11
13140,80,-400,1936,40,7,-9
13145,72,-384,1944,40,8,-9
13150,168,-376,1928,40,8,-11
13155,72,-368,1952,38,7,-8
13160,80,-352,1952,36,9,-8
13165,88,-360,1944,37,8,-7
13170,96,-368,1944,35,9,-6
13175,104,-360,1960,34,9,-9
13180,112,-400,1968,33,11,-9
13185,96,-368,1952,32,12,-7
13190,96,-392,1936,30,11,-7
13195,96,-376,1944,31,11,-6
13200,104,-384,1944,31,10,-8
13205,96,-400,1960,30,9,-7
13210,104,-376,1944,29,7,-6
13215,112,-376,1968,30,7,-7
13220,80,-368,1936,30,7,-8
13225,96,-368,1928,29,4,-8
13230,96,-400,1960,31,6,-8
13235,80,-392,1952,30,7,-9
13240,96,-360,1952,30,7,-9
13245,72,-384,1952,31,7,-9
13250,88,-368,1944,30,7,-8
13255,80,-392,1968,31,8,-8
13260,120,-392,1960,30,7,-9
13265,64,-368,1952,30,8,-10
13270,80,-368,1936,32,9,-8
13275,80,-368,1936,31,11,-10
13280,56,-384,1952,34,12,-13
13285,80,-368,1960,33,12,-11
13290,56,-376,1968,35,13,-9
13295,80,-400,1912,37,11,-11
13300,96,-400,1936,38,10,-11
13305,96,-384,1952,40,12,-11
13310,104,-400,1968,42,10,-11
13315,64,-376,1928,44,10,-10
13320,96,-392,1928,46,10,-10
13325,104,-384,1952,48,9,-8
13330,56,-352,1936,49,9,-6
13335,72,-384,1920,52,8,-6
13340,96,-376,1944,53,8,-7
13345,72,-376,1944,56,10,-6
13350,80,-368,1944,58,10,-6
13355,112,-376,1904,59,10,-6
13360,96,-376,1928,60,11,-5
13365,104,-400,1904,61,12,-6
13370,80,-384,1912,62,11,-7
13375,104,-400,1944,64,12,-7
13380,104,-416,1936,63,12,-8
13385,72,-360,1976,62,12,-10
13390,80,-376,1944,62,11,-9
13395,88,-376,1968,62,13,-11
13400,88,-376,1936,61,12,-10
13405,64,-384,1920,62,12,-10
13410,88,-392,1960,62,13,-10
13415,72,-376,1936,60,12,-11
13420,104,-392,1944,62,12,-10
13425,72,-376,1928,61,12,-10
13430,112,-392,1928,63,12,-11
13435,104,-408,1936,63,12,-11
13440,88,-384,1944,63,11,-12
13445,88,-392,1944,63,13,-13
13450,104,-408,1944,63,12,-15
13455,88,-384,1952,64,11,-13
13460,80,-384,1960,63,10,-13
13465,96,-360,2008,64,9,-14
13470,88,-384,1936,63,8,-14
13475,104,-392,1944,61,7,-13
13480,72,-392,1920,61,7,-14
13485,88,-368,1952,59,7,-14
13490,72,-384,1960,58,8,-14
13495,88,-384,1920,56,9,-15
13500,80,-368,1960,57,10,-14
13505,64,-360,1936,57,11,-14
13510,64,-376,1976,57,12,-14
13515,96,-384,2000,57,15,-12
13520,80,-392,1968,57,16,-11
13525,80,-400,1928,57,16,-11
13530,96,-400,1968,58,17,-11
13535,72,-408,2016,61,15,-11
13540,80,-424,1952,64,15,-11
13545,96,-400,1928,67,12,-12
13550,64,-416,1928,72,9,-11
13555,104,-408,1936,78,8,-11
13560,88,-392,1904,82,6,-11
13565,96,-384,1952,87,6,-12
13570,96,-392,1952,89,3,-12
13575,104,-360,1936,91,3,-13
13580,72,-352,1968,92,3,-16
13585,56,-384,1968,89,2,-14
13590,112,-400,1976,87,4,-14
13595,120,-368,1952,84,4,-13
13600,88,-360,1944,81,6,-12
13605,104,-368,1968,74,8,-13
13610,80,-344,1944,70,9,-12
13615,96,-336,1984,65,10,-10
13620,112,-352,1920,64,12,-10
13625,128,-368,1968,60,12,-10
13630,112,-392,1960,59,13,-10
13635,88,-384,1928,59,12,-12
13640,72,-400,1912,59,13,-11
13645,104,-376,1944,59,13,-11
13650,72,-392,1984,60,13,-10
13655,96,-384,1984,60,13,-11
13660,88,-384,1952,63,12,-12
13665,96,-376,1968,65,13,-11
13670,72,-384,1952,67,13,-13
13675,72,-376,1984,68,12,-13
13680,72,-392,1984,70,12,-13
13685,104,-384,1912,71,12,-12
13690,104,-408,1968,72,12,-13
13695,104,-408,1952,70,14,-13
13700,88,-376,1976,71,13,-13
13705,56,-392,1952,69,13,-12
13710,64,-368,1920,69,13,-12
13715,96,-392,1944,68,12,-14
13720,80,-376,1976,66,11,-11
13725,80,-376,1952,66,11,-9
13730,104,-376,1936,65,10,-12
13735,96,-368,1936,64,11,-11
13740,96,-376,1920,64,10,-10
13745,88,-392,1928,65,11,-11
13750,80,-392,1960,66,12,-11
13755,80,-384,1960,69,12,-13
13760,56,-336,1936,71,13,-11
13765,64,-368,1952,74,12,-11
13770,120,-392,1928,77,11,-12
13775,64,-352,1968,78,12,-11
13780,88,-368,1944,79,12,-13
13785,88,-368,1928,78,13,-14
13790,80,-384,1960,78,15,-14
13795,104,-400,1928,75,14,-15
13800,80,-376,1936,72,16,-15
13805,80,-384,1952,69,15,-14
13810,88,-344,1960,68,16,-15
13815,104,-376,1944,65,15,-14
13820,88,-384,1928,63,16,-14
13825,88,-352,1968,61,16,-14
13830,72,-368,1960,59,16,-13
13835,88,-376,1952,57,15,-13
13840,104,-376,1952,56,13,-14
13845,80,-376,1960,57,13,-13
13850,64,-376,1976,57,13,-13
13855,96,-408,1960,58,11,-15
13860,112,-360,1952,61,9,-16
13865,80,-376,1944,63,9,-16
13870,64,-368,1952,64,10,-17
13875,72,-368,1960,67,10,-16
13880,80,-368,1952,68,9,-15
13885,96,-392,1944,70,8,-14
13890,80,-392,1920,71,10,-14
13895,80,-368,1968,73,9,-12
13900,72,-344,1984,73,9,-12
13905,80,-344,1944,72,9,-12
13910,88,-368,1944,71,10,-10
13915,88,-360,1960,71,10,-11
13920,72,-336,1944,71,11,-10
13925,80,-360,1960,71,11,-12
13930,104,-376,1960,69,13,-10
13935,96,-344,1976,69,12,-9
13940,96,-368,1952,68,13,-10
13945,88,-368,1944,67,12,-9
13950,88,-360,1952,67,13,-11
13955,112,-344,1976,67,11,-10
13960,104,-368,1968,68,13,-12
13965,88,-352,1976,66,12,-12
13970,64,-344,1960,65,12,-11
13975,88,-344,1952,65,11,-10
13980,96,-384,1968,65,11,-12
13985,64,-360,1960,64,10,-12
13990,96,-384,2008,64,11,-10
13995,72,-360,1976,63,11,-12
14000,80,-352,1960,61,10,-12
14005,88,-352,1952,61,11,-12
14010,88,-352,1976,59,11,-13
14015,72,-360,1944,59,11,-11
14020,72,-384,1960,59,11,-14
14025,144,-360,1960,57,11,-13
14030,96,-376,1936,58,11,-13
14035,96,-352,1944,59,11,-13
14040,88,-392,1960,59,13,-13
14045,72,-376,1944,60,13,-12
14050,72,-360,1944,61,13,-14
14055,96,-352,1936,61,13,-13
14060,88,-360,1944,61,13,-14
14065,88,-392,1928,62,14,-13
14070,88,-368,1936,64,13,-13
14075,80,-336,1960,65,13,-13
14080,88,-368,1968,66,13,-12
14085,80,-384,1912,67,14,-14
14090,80,-352,1968,69,14,-13
14095,72,-384,1952,72,13,-13
14100,72,-368,1960,72,12,-13
14105,72,-352,1920,71,12,-12
14110,88,-344,1920,73,11,-13
14115,88,-336,1936,73,10,-13
14120,48,-360,2000,74,10,-11
14125,88,-368,1976,75,10,-10
14130,56,-368,1944,74,11,-9
14135,96,-376,1928,74,11,-9
14140,64,-352,1944,76,12,-8
14145,104,-392,1936,77,12,-8
14150,64,-352,1952,78,14,-8
14155,72,-344,1936,77,12,-8
14160,72,-352,1960,77,13,-9
14165,88,-352,1952,76,13,-10
14170,104,-384,1952,75,14,-11
14175,80,-320,1952,73,15,-11
14180,88,-312,1976,73,14,-10
14185,48,-384,1960,71,14,-11
14190,80,-344,1960,70,13,-11
14195,72,-344,1960,68,13,-11
14200,80,-360,1960,66,13,-12
14205,80,-376,1944,65,12,-13
14210,88,-352,1936,63,13,-13
14215,64,-352,1952,61,13,-12
14220,72,-352,1992,60,13,-13
14225,96,-344,1976,59,13,-12
14230,80,-352,1936,58,12,-12
14235,80,-352,1960,53,11,-12
14240,88,-368,1912,52,12,-13
14245,64,-344,1952,51,13,-13
14250,80,-360,1960,49,13,-12
14255,96,-360,1976,49,12,-12
14260,104,-360,1936,49,11,-12
14265,88,-344,1960,48,11,-13
14270,96,-368,1968,47,10,-12
14275,88,-360,1984,45,10,-12
14280,112,-344,1968,42,9,-13
14285,48,-344,1976,38,7,-13
14290,80,-352,1968,36,9,-12
14295,64,-352,2040,34,10,-13
14300,48,-360,1968,34,10,-12
14305,64,-336,1952,33,10,-12
14310,88,-384,1976,33,11,-13
14315,56,-368,1968,32,10,-10
14320,72,-368,1976,34,11,-11
14325,80,-376,1952,35,11,-10
14330,104,-392,1968,38,11,-9
14335,96,-392,1992,41,11,-9
14340,128,-368,1968,45,10,-11
14345,88,-376,1960,50,8,-10
14350,80,-376,1872,55,5,-10
14355,88,-352,1968,64,4,-11
14360,72,-352,1944,69,2,-11
14365,72,-360,1960,73,1,-12
14370,72,-352,1944,76,1,-11
14375,72,-360,1936,76,1,-10
14380,72,-344,1960,75,1,-12
14385,88,-360,1968,73,1,-11
14390,48,-320,1944,67,2,-12
14395,96,-336,1944,63,5,-13
14400,96,-344,1944,57,6,-10
14405,128,-320,1976,50,7,-10
14410,112,-328,1960,44,8,-10
14415,64,-344,1960,38,10,-9
14420,80,-320,1960,35,11,-11
14425,104,-360,1960,31,11,-9
14430,80,-344,1936,29,12,-8
14435,80,-360,1960,28,12,-11
14440,104,-352,1968,26,13,-10
14445,96,-368,1968,26,12,-10
14450,96,-336,1952,27,11,-12
14455,80,-384,1968,28,12,-9
14460,96,-376,2000,29,11,-10
14465,80,-344,1952,33,11,-10
14470,88,-376,1976,36,10,-10
14475,56,-352,1976,38,10,-11
14480,64,-352,1976,40,9,-10
14485,72,-352,1960,42,9,-12
14490,104,-352,1944,41,9,-10
14495,64,-352,1984,42,10,-11
14500,88,-360,1952,41,9,-10
14505,88,-336,1944,40,8,-9
14510,48,-352,2000,39,9,-10
14515,64,-368,1920,38,9,-11
14520,96,-336,1944,36,9,-9
14525,80,-360,1920,36,11,-9
14530,64,-352,1960,36,11,-9
14535,80,-376,1944,35,10,-9
14540,64,-360,1944,34,10,-11
14545,72,-368,1952,34,9,-10
14550,80,-384,1968,34,10,-9
14555,80,-352,1920,35,10,-9
14560,64,-376,1920,37,10,-10
14565,88,-424,1912,40,11,-11
14570,88,-360,1920,39,12,-9
14575,64,-352,1944,41,12,-10
14580,72,-360,1952,39,12,-9
14585,80,-352,1952,39,13,-11
14590,80,-352,1960,37,14,-12
14595,88,-360,1960,36,13,-10
14600,72,-376,1952,33,14,-11
14605,72,-328,1936,32,14,-11
14610,88,-360,1984,29,13,-11
14615,96,-368,1944,27,13,-12
14620,80,-368,1968,25,12,-11
14625,80,-368,1968,22,12,-11
14630,96,-376,1960,21,12,-10
14635,72,-360,1976,21,11,-11
14640,88,-352,1968,21,10,-12
14645,80,-368,1944,23,9,-15
14650,88,-368,1952,25,8,-14
14655,96,-384,1992,28,7,-13
14660,80,-392,1952,32,6,-13
14665,64,-360,1960,34,6,-13
14670,64,-376,1952,38,6,-14
14675,120,-400,1960,41,7,-12
14680,88,-368,1968,42,7,-14
14685,48,-360,1928,44,7,-12
14690,96,-368,1944,44,8,-11
14695,40,-336,1936,44,9,-10
14700,88,-376,1968,42,9,-10
14705,88,-376,1952,40,11,-10
14710,88,-328,1968,38,11,-8
14715,72,-360,1960,37,12,-7
14720,72,-352,1960,34,11,-7
14725,88,-352,1968,33,11,-7
14730,72,-360,1896,31,10,-8
14735,88,-352,1976,30,11,-8
14740,80,-368,1960,31,11,-8
14745,88,-352,1952,31,11,-9
14750,112,-368,1936,31,10,-9
14755,88,-392,1952,30,8,-9
14760,112,-376,1968,30,9,-8
14765,80,-376,1952,29,8,-10
14770,80,-352,1992,31,8,-10
14775,64,-376,1968,30,8,-10
14780,64,-384,1968,30,6,-10
14785,80,-344,1904,29,5,-10
14790,80,-368,1952,29,6,-12
14795,72,-360,1928,29,7,-10
14800,64,-368,1952,29,7,-10
14805,96,-352,1920,27,5,-9
14810,96,-384,1968,29,6,-9
14815,88,-368,1936,29,8,-9
14820,88,-344,1960,29,9,-9
14825,72,-376,1944,30,10,-9
14830,64,-360,1928,30,9,-10
14835,88,-368,1928,31,11,-9
14840,48,-392,1920,31,9,-8
14845,104,-376,1920,31,11,-7
14850,104,-416,1960,32,10,-8
14855,88,-384,1944,31,11,-10
14860,72,-376,1960,32,9,-9
14865,112,-376,1944,32,8,-7
14870,88,-368,1976,34,8,-9
14875,88,-368,1944,35,9,-8
14880,80,-392,1984,34,8,-10
14885,72,-376,1928,34,9,-8
14890,112,-392,1976,34,9,-9
14895,64,-392,1936,34,9,-10
14900,80,-376,1960,35,8,-9
14905,56,-384,1968,35,9,-11
14910,80,-368,1944,37,8,-10
14915,64,-376,1936,37,7,-10
14920,80,-376,1928,39,7,-10
14925,80,-392,1952,39,8,-9
14930,104,-384,1936,40,8,-9
14935,72,-392,1936,41,9,-11
14940,96,-376,1936,43,7,-9
14945,56,-384,1952,44,7,-8
14950,88,-344,1944,46,7,-7
14955,72,-400,1936,46,8,-6
14960,80,-384,1960,46,10,-7
14965,96,-392,1944,46,9,-6
14970,80,-352,1936,47,8,-6
14975,72,-376,1936,47,9,-7
14980,72,-376,1928,46,8,-7
14985,96,-368,1936,47,9,-7
14990,72,-352,1952,46,8,-7
14995,64,-368,1928,45,9,-9
