timestamp,accel_x,accel_y,accel_z,gyro_x,gyro_y,gyro_z
0,200,-2064,-392,-77,16,-17
5,160,-2064,-416,-79,14,-17
10,184,-2056,-416,-83,11,-15
15,208,-2072,-416,-84,9,-15
20,192,-2056,-352,-86,10,-17
25,144,-2096,-416,-89,9,-18
30,160,-2064,-360,-95,12,-18
35,208,-2080,-360,-97,16,-22
40,192,-2048,-432,-103,19,-24
45,208,-2072,-400,-123,24,-28
50,176,-2064,-376,-138,28,-32
55,208,-2080,-392,-134,30,-36
60,184,-2064,-424,-130,32,-45
65,208,-2064,-400,-136,35,-47
70,96,-2064,-368,-132,42,-50
75,248,-2080,-400,-133,40,-56
80,272,-2056,-424,-135,55,-58
85,272,-2048,-416,-135,68,-59
90,240,-2032,-416,-134,72,-60
95,256,-2080,-408,-123,77,-65
100,272,-2056,-408,-113,83,-65
105,280,-2040,-456,-105,93,-65
110,296,-2032,-440,-102,104,-62
115,328,-2032,-440,-109,115,-57
120,296,-2048,-400,-118,124,-53
125,328,-2040,-464,-120,134,-48
130,264,-2032,-496,-135,146,-42
135,320,-2048,-440,-149,154,-37
140,328,-2040,-424,-160,166,-33
145,312,-2048,-448,-171,177,-30
150,336,-2040,-416,-183,188,-29
155,344,-2080,-400,-188,197,-26
160,352,-2056,-368,-186,208,-28
165,360,-2072,-408,-182,216,-27
170,352,-2072,-392,-181,225,-25
175,360,-2064,-408,-182,235,-24
180,376,-2112,-376,-185,242,-22
185,376,-2056,-384,-188,248,-20
190,368,-2080,-416,-191,254,-18
195,344,-2096,-392,-192,259,-17
200,344,-2088,-376,-194,265,-14
205,328,-2088,-376,-196,268,-12
210,304,-2112,-408,-197,271,-9
215,320,-2112,-400,-199,275,-7
220,336,-2120,-416,-200,277,-6
225,320,-2088,-408,-203,279,-5
230,264,-2104,-432,-202,282,-3
235,272,-2064,-400,-203,285,-1
240,256,-2072,-376,-204,288,-1
245,264,-2056,-376,-204,291,2
250,248,-2064,-360,-202,292,1
255,240,-2048,-376,-201,292,2
260,256,-2048,-360,-202,293,3
265,264,-2072,-384,-202,296,1
270,264,-2032,-344,-203,294,0
275,256,-2048,-360,-205,293,-2
280,280,-2080,-336,-207,291,-5
285,272,-2056,-344,-209,289,-6
290,280,-2048,-360,-214,288,-8
295,248,-2056,-344,-219,285,-10
300,264,-2056,-336,-224,282,-9
305,264,-2064,-352,-229,280,-7
310,272,-2072,-360,-234,278,-6
315,272,-2088,-360,-239,275,-5
320,256,-2056,-360,-244,272,-3
325,288,-2072,-328,-246,269,0
330,280,-2072,-376,-249,267,5
335,280,-2056,-384,-249,264,8
340,256,-2056,-368,-249,263,12
345,272,-2064,-360,-248,262,18
350,280,-2080,-376,-249,261,24
355,272,-2056,-400,-249,259,29
360,296,-2072,-376,-248,258,35
365,280,-2072,-368,-245,259,39
370,288,-2072,-344,-242,257,43
375,312,-2088,-368,-239,257,45
380,344,-2080,-376,-238,256,45
385,336,-2072,-368,-236,257,46
390,352,-2072,-376,-233,257,47
395,360,-2096,-424,-234,256,47
400,352,-2072,-376,-232,256,47
405,352,-2072,-376,-232,252,50
410,344,-2048,-392,-234,250,51
415,376,-2064,-360,-232,246,54
420,368,-2064,-368,-231,240,58
425,352,-2072,-376,-232,235,63
430,336,-2072,-368,-229,230,66
435,336,-2072,-376,-226,222,72
440,328,-2072,-400,-221,217,78
445,344,-2080,-392,-219,208,85
450,312,-2120,-344,-216,201,92
455,352,-2096,-360,-214,192,100
460,320,-2096,-384,-211,182,105
465,320,-2112,-368,-207,171,111
470,312,-2080,-368,-203,160,117
475,328,-2112,-368,-197,149,121
480,320,-2104,-392,-190,136,125
485,312,-2088,-400,-185,124,128
490,312,-2104,-368,-178,112,129
495,304,-2120,-344,-168,101,130
500,328,-2112,-328,-156,90,129
505,288,-2144,-280,-145,79,128
510,336,-2120,-360,-134,68,127
515,312,-2104,-344,-122,57,125
520,328,-2112,-328,-113,46,124
525,320,-2096,-344,-105,36,122
530,328,-2088,-344,-98,25,120
535,336,-2104,-336,-94,14,119
540,312,-2072,-344,-90,2,118
545,352,-2064,-336,-87,-9,117
550,336,-2080,-376,-84,-18,116
555,416,-2096,-432,-87,-26,115
560,384,-2088,-448,-91,-32,116
565,384,-2072,-496,-96,-35,119
570,392,-2096,-504,-109,-35,121
575,416,-2128,-544,-125,-34,122
580,408,-2152,-576,-144,-33,126
585,440,-2200,-576,-166,-28,127
590,456,-2256,-576,-187,-27,129
595,488,-2328,-504,-201,-24,124
600,472,-2368,-544,-206,-25,119
605,496,-2416,-520,-202,-28,111
610,496,-2448,-512,-183,-30,103
615,488,-2488,-504,-164,-32,96
620,464,-2480,-536,-137,-29,84
625,432,-2512,-536,-110,-23,74
630,384,-2488,-560,-84,-14,64
635,344,-2496,-624,-57,-3,54
640,280,-2504,-624,-34,11,44
645,200,-2504,-648,-11,21,37
650,128,-2456,-632,9,27,32
655,56,-2376,-664,27,23,32
660,24,-2312,-704,41,17,37
665,-48,-2256,-768,50,5,42
670,-56,-2208,-744,55,-13,51
675,-104,-2120,-768,55,-31,58
680,-120,-2048,-728,52,-50,65
685,-144,-1968,-728,48,-69,71
690,-168,-1896,-688,41,-84,76
695,-160,-1848,-664,33,-95,75
700,-192,-1760,-672,26,-103,76
705,-176,-1744,-592,17,-108,73
710,-152,-1728,-560,9,-109,71
715,-112,-1688,-520,0,-106,66
720,-112,-1680,-552,-13,-95,60
725,-104,-1632,-568,-25,-77,53
730,-64,-1656,-520,-36,-52,47
735,-72,-1640,-544,-48,-21,41
740,-24,-1656,-528,-56,16,37
745,16,-1672,-496,-66,56,33
750,64,-1712,-512,-74,101,33
755,80,-1728,-472,-86,144,34
760,128,-1776,-552,-100,190,36
765,184,-1840,-544,-119,237,40
770,232,-1920,-568,-139,287,44
775,248,-1944,-576,-157,336,53
780,296,-2016,-584,-174,387,61
785,344,-2080,-616,-193,437,72
790,368,-2128,-632,-211,487,83
795,376,-2192,-672,-227,534,94
800,384,-2216,-608,-241,576,106
805,368,-2288,-616,-248,616,119
810,376,-2344,-664,-248,649,133
815,320,-2368,-592,-240,677,148
820,312,-2400,-616,-224,701,165
825,296,-2408,-552,-201,717,183
830,208,-2408,-632,-169,731,201
835,168,-2400,-568,-135,741,219
840,120,-2352,-584,-99,749,236
845,48,-2288,-600,-62,750,248
850,-32,-2288,-560,-30,761,266
855,-104,-2208,-552,5,758,272
860,-120,-2176,-576,38,760,282
865,-168,-2128,-552,59,765,291
870,-208,-2104,-536,78,759,295
875,-256,-2040,-536,94,754,299
880,-312,-2024,-536,106,755,302
885,-304,-1984,-528,110,753,306
890,-312,-1928,-488,106,750,306
895,-304,-1904,-512,93,749,305
900,-280,-1880,-488,83,748,302
905,-296,-1840,-472,65,750,298
910,-272,-1840,-448,44,754,293
915,-248,-1848,-464,21,760,285
920,-216,-1856,-456,-3,771,279
925,-160,-1880,-416,-25,781,268
930,-120,-1880,-424,-47,790,253
935,-120,-1896,-424,-67,799,238
940,-72,-1896,-408,-84,810,220
945,-32,-1920,-376,-95,819,203
950,-8,-1904,-376,-109,828,186
955,16,-1920,-392,-117,835,171
960,64,-1920,-376,-123,838,154
965,88,-1920,-376,-130,839,141
970,104,-1928,-376,-137,838,128
975,112,-1928,-392,-141,833,117
980,128,-1920,-336,-143,828,109
985,112,-1912,-336,-147,821,102
990,128,-1928,-336,-149,814,97
995,120,-1912,-352,-146,809,93
1000,96,-1872,-336,-143,804,91
1005,80,-1864,-320,-139,803,89
1010,80,-1832,-320,-137,802,87
1015,64,-1864,-320,-138,802,86
1020,32,-1816,-296,-138,802,84
1025,16,-1800,-304,-142,802,81
1030,8,-1776,-288,-151,802,75
1035,-32,-1776,-312,-163,804,70
1040,-24,-1808,-312,-178,805,64
1045,-72,-1800,-328,-194,807,55
1050,-88,-1832,-336,-212,810,44
1055,-88,-1824,-288,-227,812,34
1060,-96,-1872,-280,-250,821,28
1065,-96,-1928,-320,-265,824,16
1070,-80,-1960,-288,-278,828,2
1075,-72,-1992,-328,-293,832,-9
1080,-56,-2048,-360,-308,836,-19
1085,-40,-2088,-328,-323,847,-27
1090,-56,-2136,-312,-327,847,-40
1095,-24,-2168,-304,-319,840,-53
1100,8,-2232,-344,-309,834,-65
1105,-8,-2272,-320,-294,825,-79
1110,16,-2352,-328,-272,814,-91
1115,-16,-2360,-352,-246,796,-99
1120,-24,-2392,-320,-222,780,-104
1125,-16,-2416,-312,-194,760,-106
1130,-40,-2440,-344,-166,739,-99
1135,-56,-2440,-296,-136,718,-89
1140,-88,-2448,-216,-105,697,-75
1145,-64,-2440,-176,-71,677,-59
1150,-56,-2488,-72,-36,661,-39
1155,-64,-2456,-96,-1,650,-18
1160,-32,-2432,-104,40,642,2
1165,8,-2408,-128,67,637,21
1170,8,-2376,-176,80,634,39
1175,24,-2392,-240,71,637,57
1180,24,-2408,-336,35,639,73
1185,8,-2440,-424,-20,643,86
1190,-8,-2528,-496,-88,645,94
1195,-16,-2584,-576,-160,638,91
1200,-88,-2680,-648,-221,623,85
1205,-144,-2808,-688,-267,600,77
1210,-240,-2848,-744,-294,569,77
1215,-328,-2904,-744,-299,530,83
1220,-336,-2960,-824,-285,489,104
1225,-368,-2960,-840,-260,449,135
1230,-312,-2928,-928,-227,414,175
1235,-280,-2832,-1000,-190,385,215
1240,-208,-2712,-1040,-146,360,252
1245,-152,-2560,-1176,-100,341,289
1250,-120,-2440,-1216,-54,325,321
1255,-32,-2296,-1296,-11,314,349
1260,16,-2128,-1296,32,311,372
1265,160,-1976,-1296,74,316,387
1270,272,-1840,-1288,118,329,393
1275,360,-1680,-1256,160,353,388
1280,440,-1584,-1184,199,386,372
1285,536,-1520,-1128,228,426,345
1290,632,-1456,-1056,240,466,308
1295,688,-1440,-968,236,501,259
1300,704,-1432,-912,219,534,201
1305,720,-1488,-832,195,560,137
1310,680,-1536,-760,164,572,73
1315,576,-1552,-696,128,577,12
1320,472,-1608,-624,79,565,-41
1325,352,-1664,-624,20,538,-84
1330,216,-1744,-552,-48,490,-115
1335,32,-1832,-512,-123,429,-131
1340,-104,-1936,-488,-191,355,-132
1345,-216,-2016,-512,-254,273,-122
1350,-288,-2096,-504,-309,187,-103
1355,-368,-2128,-536,-360,101,-83
1360,-368,-2240,-600,-400,17,-56
1365,-360,-2304,-696,-426,-54,-35
1370,-352,-2368,-760,-436,-114,-15
1375,-344,-2408,-832,-429,-153,2
1380,-272,-2416,-896,-398,-171,7
1385,-200,-2448,-952,-346,-161,8
1390,-128,-2392,-944,-271,-129,-2
1395,-72,-2368,-912,-175,-86,-29
1400,8,-2368,-848,-72,-40,-73
1405,64,-2296,-816,27,4,-119
1410,112,-2240,-800,107,38,-173
1415,168,-2160,-784,145,58,-229
1420,200,-2120,-792,170,74,-282
1425,248,-2032,-720,172,75,-335
1430,272,-1968,-712,160,76,-374
1435,336,-1896,-656,142,66,-409
1440,368,-1872,-592,124,57,-425
1445,392,-1784,-552,115,45,-432
1450,384,-1704,-512,107,16,-434
1455,384,-1680,-496,100,-21,-426
1460,408,-1624,-472,90,-68,-413
1465,400,-1616,-448,84,-120,-390
1470,400,-1584,-424,74,-176,-364
1475,392,-1560,-448,62,-238,-339
1480,384,-1544,-472,45,-294,-308
1485,384,-1552,-472,25,-340,-266
1490,352,-1536,-504,1,-375,-220
1495,304,-1536,-504,-25,-410,-179
1500,248,-1568,-536,-51,-441,-144
1505,224,-1552,-488,-78,-466,-113
1510,168,-1584,-512,-101,-483,-84
1515,104,-1624,-464,-119,-496,-61
1520,64,-1688,-440,-136,-504,-42
1525,56,-1736,-464,-148,-505,-23
1530,40,-1792,-424,-158,-498,-7
1535,8,-1848,-400,-165,-490,9
1540,0,-1904,-360,-162,-484,21
1545,8,-1936,-344,-155,-482,28
1550,8,-2000,-320,-140,-481,32
1555,56,-2032,-256,-114,-483,34
1560,64,-2112,-280,-83,-491,32
1565,40,-2104,-264,-48,-504,31
1570,64,-2144,-264,-13,-518,28
1575,80,-2152,-288,20,-534,28
1580,72,-2216,-304,52,-552,24
1585,88,-2232,-352,69,-575,18
1590,88,-2200,-392,80,-601,14
1595,112,-2160,-416,87,-630,13
1600,128,-2144,-448,91,-660,16
1605,128,-2112,-456,92,-686,24
1610,104,-2056,-496,90,-706,36
1615,96,-2008,-496,87,-723,51
1620,112,-1968,-472,84,-737,67
1625,120,-1928,-488,86,-743,87
1630,168,-1928,-464,85,-740,102
1635,184,-1904,-456,84,-731,115
1640,240,-1944,-408,81,-709,119
1645,280,-2008,-400,76,-688,110
1650,344,-2024,-328,77,-677,90
1655,368,-2048,-272,67,-645,72
1660,384,-2144,-176,61,-616,50
1665,424,-2176,-120,62,-604,20
1670,488,-2272,-64,77,-600,3
1675,528,-2368,-72,96,-590,-34
1680,512,-2392,-104,106,-585,-71
1685,560,-2448,-216,112,-571,-97
1690,608,-2512,-256,111,-548,-120
1695,696,-2544,-408,102,-519,-143
1700,672,-2576,-496,84,-472,-165
1705,720,-2664,-656,54,-417,-189
1710,688,-2776,-768,-4,-359,-222
1715,640,-2880,-928,-91,-306,-259
1720,600,-3048,-1032,-200,-257,-303
1725,576,-3208,-1128,-312,-221,-350
1730,560,-3320,-1104,-410,-197,-396
1735,584,-3408,-1096,-474,-184,-439
1740,568,-3392,-1000,-484,-175,-480
1745,544,-3344,-1048,-430,-165,-511
1750,496,-3232,-1048,-328,-150,-536
1755,440,-3048,-1088,-196,-133,-557
1760,352,-2832,-1152,-50,-112,-576
1765,288,-2608,-1208,94,-90,-594
1770,168,-2384,-1312,215,-70,-606
1775,40,-2088,-1368,309,-47,-611
1780,-56,-1856,-1416,366,-26,-609
1785,-184,-1616,-1360,389,-10,-596
1790,-312,-1408,-1328,393,-1,-576
1795,-376,-1248,-1232,388,-5,-546
1800,-464,-1152,-1160,372,-23,-515
1805,-528,-1088,-1008,354,-52,-473
1810,-584,-1104,-896,336,-88,-427
1815,-632,-1152,-792,318,-129,-367
1820,-632,-1240,-760,296,-171,-294
1825,-600,-1360,-672,268,-214,-220
1830,-512,-1480,-688,232,-245,-149
1835,-432,-1576,-648,184,-259,-84
1840,-304,-1672,-640,116,-253,-25
1845,-144,-1800,-648,32,-229,24
1850,24,-1944,-704,-57,-192,59
1855,184,-2048,-656,-136,-145,82
1860,296,-2112,-648,-205,-87,96
1865,440,-2184,-672,-259,-26,101
1870,560,-2256,-712,-295,38,98
1875,704,-2312,-792,-312,98,85
1880,744,-2352,-808,-318,152,71
1885,776,-2392,-872,-312,198,51
1890,800,-2464,-920,-291,237,33
1895,784,-2472,-880,-253,270,22
1900,744,-2472,-936,-201,302,18
1905,712,-2464,-912,-130,326,27
1910,624,-2424,-872,-36,342,49
1915,536,-2376,-824,74,347,77
1920,488,-2288,-792,184,342,113
1925,384,-2176,-736,285,332,159
1930,344,-2104,-760,363,315,202
1935,224,-2008,-712,416,296,247
1940,112,-1912,-712,435,275,295
1945,16,-1832,-672,429,257,347
1950,-96,-1792,-632,405,241,388
1955,-152,-1704,-600,375,235,440
1960,-184,-1672,-528,334,247,498
1965,-248,-1592,-488,283,256,527
1970,-312,-1568,-496,234,268,542
1975,-328,-1520,-464,198,292,552
1980,-352,-1456,-488,166,329,553
1985,-376,-1424,-496,133,368,546
1990,-376,-1400,-448,103,413,534
1995,-440,-1384,-448,75,457,510
2000,-416,-1376,-456,45,495,479
2005,-392,-1400,-456,11,530,448
2010,-392,-1368,-448,-24,559,409
2015,-328,-1440,-432,-61,581,366
2020,-288,-1480,-440,-93,593,325
2025,-232,-1528,-472,-126,602,283
2030,-184,-1568,-432,-150,604,241
2035,-152,-1600,-424,-174,602,201
2040,-120,-1656,-432,-189,597,164
2045,-72,-1728,-392,-197,589,130
2050,-24,-1832,-368,-201,580,96
2055,-8,-1848,-352,-194,570,67
2060,16,-1912,-328,-182,562,40
2065,24,-1920,-352,-171,559,18
2070,56,-1976,-256,-161,562,1
2075,136,-2000,-216,-138,564,-11
2080,168,-2040,-232,-116,570,-20
2085,168,-2048,-240,-92,576,-27
2090,216,-2040,-216,-74,591,-25
2095,216,-2048,-216,-54,606,-25
2100,232,-2056,-240,-28,616,-24
2105,264,-2032,-264,-6,626,-23
2110,248,-2016,-240,0,635,-21
2115,240,-2048,-296,1,640,-22
2120,248,-2016,-320,1,636,-29
2125,184,-2008,-368,2,622,-45
2130,112,-1992,-368,-6,610,-59
2135,24,-2000,-384,-21,585,-77
2140,-56,-2000,-392,-39,550,-94
2145,-152,-1952,-408,-60,500,-103
2150,-256,-1968,-408,-86,459,-111
2155,-376,-2000,-400,-115,422,-111
2160,-448,-2032,-424,-144,389,-104
2165,-544,-2064,-440,-173,364,-89
2170,-576,-2112,-408,-198,348,-64
2175,-568,-2200,-440,-213,344,-34
2180,-608,-2312,-352,-217,352,-4
2185,-592,-2376,-312,-202,364,23
2190,-544,-2448,-240,-171,377,47
2195,-480,-2504,-144,-129,383,64
2200,-432,-2536,-96,-80,385,78
2205,-368,-2576,-96,-30,387,93
2210,-272,-2584,-48,25,385,106
2215,-176,-2584,-64,83,381,120
2220,-104,-2616,-128,124,380,129
2225,-16,-2568,-248,138,383,134
2230,104,-2576,-400,113,386,135
2235,224,-2592,-512,49,390,133
2240,216,-2664,-720,-52,393,130
2245,216,-2744,-848,-186,399,140
2250,160,-2848,-944,-308,365,142
2255,120,-2920,-1024,-404,300,144
2260,-32,-2992,-1048,-470,230,161
2265,-120,-3072,-1024,-488,153,190
2270,-208,-3096,-1024,-466,83,235
2275,-240,-3088,-1040,-427,23,297
2280,-248,-3056,-1072,-388,-23,366
2285,-224,-2904,-1120,-341,-62,433
2290,-184,-2696,-1192,-286,-98,493
2295,-128,-2536,-1256,-222,-130,543
2300,-72,-2384,-1304,-159,-151,586
2305,40,-2192,-1296,-97,-166,615
2310,176,-2016,-1296,-37,-170,624
2315,288,-1864,-1288,23,-159,616
2320,416,-1728,-1216,88,-123,589
2325,568,-1616,-1120,153,-78,544
2330,688,-1544,-1008,216,-22,485
2335,864,-1528,-1040,271,41,412
2340,912,-1480,-952,306,106,327
2345,944,-1504,-904,310,164,237
2350,960,-1536,-816,288,213,140
2355,928,-1560,-760,245,248,43
2360,856,-1624,-728,182,272,-47
2365,760,-1712,-672,100,285,-127
2370,592,-1800,-592,13,291,-196
2375,424,-1912,-600,-80,286,-252
2380,248,-1936,-536,-167,269,-295
2385,112,-2000,-472,-247,230,-322
2390,-88,-2088,-464,-318,177,-331
2395,-176,-2104,-432,-376,111,-323
2400,-240,-2160,-440,-419,36,-307
2405,-272,-2192,-480,-445,-37,-273
2410,-304,-2224,-544,-462,-100,-223
2415,-320,-2208,-656,-469,-158,-170
2420,-320,-2208,-808,-460,-219,-124
2425,-344,-2144,-912,-450,-266,-85
2430,-336,-2096,-968,-430,-294,-40
2435,-360,-2080,-968,-397,-312,-9
2440,-256,-2056,-1000,-356,-339,-9
2445,-80,-2040,-848,-311,-343,-23
2450,-80,-2024,-864,-220,-296,-38
2455,-40,-1984,-792,-119,-250,-75
2460,0,-1928,-784,-38,-210,-123
2465,-8,-1888,-744,8,-180,-181
2470,24,-1840,-672,29,-163,-248
2475,40,-1824,-600,31,-154,-319
2480,136,-1768,-584,25,-158,-392
2485,208,-1704,-544,24,-155,-442
2490,280,-1720,-472,28,-153,-475
2495,336,-1672,-424,39,-163,-501
2500,384,-1624,-416,61,-185,-518
2505,384,-1560,-368,81,-220,-526
2510,416,-1544,-400,99,-266,-524
2515,432,-1512,-416,107,-322,-508
2520,488,-1472,-416,107,-374,-471
2525,464,-1456,-416,96,-423,-424
2530,504,-1488,-416,71,-475,-371
2535,480,-1512,-440,40,-524,-320
2540,448,-1496,-416,5,-563,-266
2545,376,-1528,-440,-34,-596,-215
2550,376,-1552,-448,-70,-619,-160
2555,296,-1592,-432,-107,-637,-107
2560,272,-1640,-432,-142,-645,-57
2565,240,-1712,-416,-174,-642,-8
2570,208,-1752,-368,-198,-632,34
2575,192,-1824,-360,-213,-619,71
2580,168,-1856,-304,-215,-603,100
2585,184,-1912,-288,-209,-590,122
2590,176,-1992,-240,-191,-580,137
2595,128,-2000,-264,-167,-574,147
2600,120,-2032,-200,-138,-574,151
2605,136,-2080,-240,-108,-578,149
2610,120,-2136,-280,-82,-586,142
2615,104,-2120,-272,-61,-595,132
2620,112,-2168,-304,-49,-607,117
2625,112,-2192,-328,-39,-621,98
2630,136,-2208,-384,-36,-633,78
2635,104,-2240,-344,-36,-644,55
2640,104,-2240,-408,-33,-654,33
2645,168,-2240,-400,-30,-656,16
2650,184,-2208,-440,-26,-650,4
2655,216,-2192,-440,-18,-640,-3
2660,232,-2160,-400,-11,-623,-5
2665,304,-2176,-384,1,-602,-4
2670,376,-2176,-376,16,-583,-4
2675,416,-2224,-320,35,-566,-7
2680,456,-2264,-256,57,-554,-10
2685,512,-2280,-176,85,-544,-15
2690,624,-2360,-144,116,-537,-20
2695,656,-2392,-56,149,-530,-32
2700,712,-2416,-16,184,-522,-41
2705,744,-2448,16,221,-513,-48
2710,760,-2440,-32,251,-505,-59
2715,744,-2416,-80,278,-491,-62
2720,808,-2376,-208,287,-475,-65
2725,832,-2360,-392,271,-452,-75
2730,848,-2360,-560,227,-418,-92
2735,792,-2344,-736,152,-370,-118
2740,744,-2368,-984,34,-312,-148
2745,672,-2496,-1208,-122,-251,-182
2750,632,-2664,-1320,-294,-197,-230
2755,536,-2832,-1384,-461,-157,-297
2760,536,-3016,-1416,-599,-129,-374
2765,488,-3144,-1272,-674,-102,-452
2770,440,-3232,-1304,-678,-90,-535
2775,376,-3248,-1240,-621,-82,-611
2780,296,-3160,-1208,-517,-69,-676
2785,224,-3056,-1224,-370,-39,-724
2790,112,-2848,-1280,-191,1,-761
2795,-40,-2656,-1320,6,43,-787
2800,-112,-2440,-1408,185,80,-818
2805,-240,-2192,-1456,325,135,-826
2810,-376,-1968,-1488,415,193,-819
2815,-480,-1768,-1544,459,248,-803
2820,-544,-1672,-1568,468,296,-773
2825,-624,-1544,-1432,458,327,-731
2830,-664,-1488,-1296,435,334,-677
2835,-720,-1496,-1152,405,313,-610
2840,-736,-1512,-1056,362,263,-527
2845,-704,-1552,-920,307,192,-433
2850,-624,-1616,-880,246,115,-333
2855,-496,-1720,-784,176,38,-232
2860,-320,-1832,-728,104,-28,-132
2865,-136,-1952,-640,35,-80,-37
2870,56,-2112,-640,-32,-112,47
2875,232,-2280,-512,-83,-123,118
2880,360,-2352,-528,-119,-126,174
2885,472,-2472,-488,-136,-113,222
2890,560,-2544,-504,-139,-88,255
2895,632,-2584,-552,-125,-57,281
2900,656,-2624,-616,-102,-21,291
2905,680,-2576,-672,-71,16,289
2910,648,-2528,-792,-37,58,280
2915,632,-2440,-840,-3,104,271
2920,616,-2328,-928,34,153,260
2925,552,-2288,-984,75,194,247
2930,496,-2136,-968,124,228,234
2935,448,-2104,-952,187,254,223
2940,360,-2024,-952,254,271,219
2945,280,-1944,-928,313,283,218
2950,200,-1848,-872,360,293,221
2955,112,-1752,-864,389,305,235
2960,40,-1696,-856,398,322,255
2965,0,-1648,-736,392,342,278
2970,-80,-1584,-704,375,365,308
2975,-112,-1560,-648,355,395,339
2980,-88,-1560,-480,335,429,371
2985,-128,-1504,-504,321,465,399
2990,-176,-1472,-456,308,505,419
2995,-152,-1432,-448,288,562,458
3000,-136,-1408,-392,251,608,460
3005,-192,-1368,-432,224,639,443
3010,-168,-1352,-448,202,670,424
3015,-192,-1336,-440,166,703,404
3020,-184,-1336,-432,124,729,381
3025,-144,-1368,-400,80,742,355
3030,-128,-1392,-376,34,748,329
3035,-152,-1400,-376,-13,746,303
3040,-128,-1448,-392,-52,739,276
3045,-120,-1496,-384,-83,731,251
3050,-80,-1528,-408,-104,719,227
3055,-64,-1536,-392,-120,706,202
3060,-64,-1568,-456,-134,692,177
3065,-24,-1624,-440,-142,681,152
3070,-8,-1664,-408,-149,673,128
3075,24,-1728,-424,-152,667,103
3080,24,-1744,-432,-153,661,81
3085,64,-1792,-384,-150,655,63
3090,56,-1840,-376,-147,656,49
3095,48,-1848,-320,-137,654,35
3100,48,-1840,-272,-132,662,23
3105,96,-1936,-224,-128,668,11
3110,120,-1968,-224,-103,676,-1
3115,96,-1992,-192,-85,694,-10
3120,112,-1968,-192,-66,710,-20
3125,120,-1984,-160,-50,729,-28
3130,128,-1992,-200,-37,747,-38
3135,112,-1984,-224,-41,774,-42
3140,88,-2024,-240,-44,781,-53
3145,80,-2000,-248,-46,770,-76
3150,40,-2016,-288,-59,746,-103
3155,-8,-1976,-296,-77,716,-128
3160,-64,-2000,-304,-103,676,-149
3165,-128,-2000,-360,-127,624,-167
3170,-168,-2032,-312,-145,561,-179
3175,-272,-2048,-312,-164,494,-186
3180,-376,-2096,-304,-178,428,-181
3185,-408,-2176,-344,-176,365,-166
3190,-512,-2192,-288,-174,315,-141
3195,-512,-2328,-272,-166,281,-114
3200,-520,-2368,-240,-147,263,-83
3205,-496,-2416,-192,-118,256,-54
3210,-480,-2480,-160,-80,259,-28
3215,-408,-2552,-136,-40,265,-4
3220,-376,-2568,-24,6,272,16
3225,-256,-2616,32,58,280,34
3230,-232,-2624,72,110,286,49
3235,-136,-2656,104,159,287,60
3240,-24,-2632,32,202,289,71
3245,40,-2608,-8,216,294,76
3250,120,-2600,-192,191,299,76
3255,200,-2544,-384,119,301,72
3260,216,-2568,-552,3,299,69
3265,264,-2632,-720,-138,287,71
3270,208,-2736,-832,-281,250,74
3275,200,-2848,-928,-404,199,96
3280,0,-3016,-944,-501,142,141
3285,-128,-3080,-1008,-536,55,179
3290,-280,-3136,-1048,-530,-28,234
3295,-344,-3152,-1120,-511,-105,317
3300,-376,-3136,-1160,-492,-176,414
3305,-360,-3016,-1248,-469,-239,515
3310,-296,-2888,-1296,-423,-295,602
3315,-216,-2728,-1336,-352,-343,675
3320,-128,-2552,-1392,-265,-384,729
3325,-32,-2384,-1376,-170,-412,767
3330,128,-2192,-1368,-85,-426,782
3335,232,-2016,-1336,-3,-429,774
3340,352,-1840,-1248,71,-417,740
3345,456,-1704,-1168,143,-388,688
3350,616,-1632,-1088,207,-341,617
3355,728,-1560,-1024,250,-276,526
3360,792,-1584,-960,269,-195,420
3365,832,-1584,-912,263,-113,303
3370,832,-1600,-856,234,-36,181
3375,800,-1656,-776,177,33,60
3380,728,-1736,-744,102,88,-58
3385,632,-1768,-664,18,132,-166
3390,488,-1840,-616,-77,167,-259
3395,352,-1904,-560,-171,189,-334
3400,216,-1952,-496,-251,190,-390
3405,48,-2024,-440,-312,172,-428
3410,-80,-2032,-432,-355,134,-442
3415,-176,-2032,-368,-381,84,-438
3420,-224,-2064,-448,-396,24,-417
3425,-288,-2064,-520,-407,-42,-382
3430,-304,-2056,-560,-421,-109,-328
3435,-296,-2064,-680,-434,-179,-266
3440,-320,-2064,-784,-446,-256,-205
3445,-288,-2016,-912,-449,-332,-141
3450,-272,-2008,-960,-434,-402,-75
3455,-216,-2008,-1000,-411,-463,-39
3460,-128,-2008,-944,-366,-500,-12
3465,-120,-2032,-904,-282,-518,-6
3470,-48,-2032,-840,-189,-526,-35
3475,-16,-2040,-824,-88,-517,-81
3480,16,-2024,-736,-10,-491,-128
3485,32,-2008,-688,48,-452,-182
3490,88,-1992,-616,80,-417,-242
3495,96,-1936,-560,90,-384,-301
3500,136,-1872,-504,88,-356,-361
3505,200,-1840,-480,84,-343,-425
3510,256,-1784,-424,88,-340,-484
3515,248,-1672,-392,105,-347,-534
3520,304,-1680,-304,125,-364,-570
3525,336,-1592,-416,147,-388,-587
3530,360,-1528,-384,157,-423,-588
3535,376,-1520,-424,148,-466,-571
3540,392,-1488,-392,130,-516,-540
3545,392,-1472,-400,109,-566,-500
3550,408,-1472,-384,87,-615,-449
3555,400,-1472,-376,65,-658,-391
3560,376,-1472,-408,42,-700,-333
3565,336,-1472,-384,14,-736,-273
3570,256,-1472,-416,-14,-763,-213
3575,216,-1480,-448,-49,-787,-151
3580,176,-1536,-384,-86,-803,-94
3585,144,-1576,-384,-122,-815,-38
3590,136,-1624,-360,-154,-819,11
3595,120,-1688,-296,-175,-820,57
3600,104,-1728,-248,-188,-820,96
3605,104,-1808,-216,-189,-821,127
3610,96,-1856,-184,-181,-824,152
3615,112,-1928,-144,-164,-827,170
3620,96,-1968,-160,-141,-831,181
3625,96,-2008,-176,-115,-838,183
3630,32,-2056,-144,-92,-841,179
3635,96,-2088,-192,-72,-845,169
3640,80,-2112,-264,-61,-845,153
3645,104,-2144,-288,-54,-843,130
3650,144,-2208,-344,-53,-836,106
3655,160,-2184,-368,-53,-828,79
3660,176,-2216,-400,-59,-815,51
3665,184,-2176,-432,-65,-799,23
3670,192,-2160,-464,-69,-782,-2
3675,240,-2152,-464,-73,-761,-23
3680,288,-2152,-440,-74,-740,-47
3685,360,-2168,-392,-69,-713,-66
3690,416,-2176,-320,-57,-682,-83
3695,520,-2200,-312,-38,-652,-98
3700,592,-2264,-224,-15,-624,-118
3705,656,-2336,-160,8,-599,-135
3710,728,-2424,-96,35,-577,-154
3715,768,-2488,24,67,-560,-173
3720,800,-2552,72,102,-547,-192
3725,808,-2576,112,136,-540,-208
3730,768,-2608,160,166,-539,-224
3735,792,-2608,184,191,-547,-239
3740,808,-2576,168,216,-548,-240
3745,800,-2528,72,231,-550,-238
3750,784,-2456,-64,235,-548,-232
3755,824,-2424,-304,222,-533,-224
3760,704,-2352,-568,176,-501,-224
3765,592,-2336,-920,75,-450,-213
3770,464,-2368,-1224,-87,-384,-205
3775,328,-2432,-1408,-289,-312,-202
3780,320,-2592,-1472,-491,-240,-214
3785,368,-2824,-1472,-654,-182,-241
3790,400,-3016,-1432,-758,-149,-291
3795,408,-3152,-1408,-788,-130,-357
3800,360,-3272,-1344,-768,-122,-425
3805,280,-3288,-1368,-694,-120,-492
3810,224,-3240,-1376,-573,-116,-557
3815,200,-3144,-1368,-412,-106,-618
3820,152,-3016,-1368,-224,-89,-678
3825,40,-2824,-1416,-40,-67,-740
3830,-16,-2576,-1480,117,-28,-792
3835,-168,-2312,-1536,232,24,-833
3840,-264,-2096,-1552,307,86,-859
3845,-360,-1920,-1552,357,148,-872
3850,-440,-1808,-1472,394,203,-873
3855,-528,-1688,-1368,420,246,-861
3860,-576,-1632,-1248,430,266,-833
3865,-656,-1624,-1112,418,260,-783
3870,-680,-1600,-992,386,229,-708
3875,-704,-1592,-840,337,178,-614
3880,-648,-1624,-744,280,117,-505
3885,-616,-1632,-640,217,52,-387
3890,-496,-1712,-568,148,-16,-264
3895,-352,-1760,-520,70,-76,-143
3900,-184,-1880,-464,-11,-130,-35
3905,-32,-1944,-472,-86,-177,60
3910,152,-2032,-456,-152,-215,142
3915,272,-2120,-456,-197,-240,213
3920,400,-2208,-488,-221,-260,260
3925,456,-2272,-512,-230,-269,282
3930,512,-2312,-544,-222,-265,290
3935,520,-2336,-624,-201,-245,286
3940,528,-2312,-720,-176,-206,275
3945,544,-2272,-784,-144,-155,255
3950,488,-2152,-800,-109,-98,230
3955,472,-2144,-864,-72,-43,201
3960,424,-2056,-912,-30,5,171
3965,392,-2016,-928,17,47,143
3970,344,-1944,-896,65,77,120
3975,272,-1896,-872,119,93,99
3980,208,-1808,-856,171,103,84
3985,120,-1784,-824,215,113,80
3990,80,-1736,-760,249,124,82
3995,8,-1728,-712,272,137,97
4000,-64,-1704,-624,288,151,120
4005,-112,-1664,-568,297,165,156
4010,-128,-1624,-480,296,184,189
4015,-144,-1560,-456,294,206,230
4020,-152,-1520,-424,282,241,277
4025,-144,-1472,-376,268,271,297
4030,-160,-1448,-392,248,303,310
4035,-184,-1376,-408,232,333,316
4040,-176,-1344,-400,209,372,322
4045,-168,-1336,-368,175,408,322
4050,-176,-1288,-368,130,441,319
4055,-144,-1304,-376,79,472,312
4060,-112,-1368,-376,31,497,299
4065,-128,-1344,-296,-15,520,283
4070,-80,-1392,-328,-59,537,264
4075,-64,-1432,-320,-103,549,240
4080,-8,-1440,-304,-139,557,215
4085,-8,-1472,-336,-170,566,188
4090,56,-1552,-248,-193,577,166
4095,64,-1600,-272,-198,573,129
4100,88,-1656,-208,-197,566,84
4105,160,-1712,-216,-188,564,42
4110,168,-1752,-224,-180,573,3
4115,216,-1848,-136,-165,589,-31
4120,280,-1912,-160,-140,595,-70
4125,320,-1968,-168,-116,599,-114
4130,344,-2008,-144,-93,603,-153
4135,376,-2032,-192,-77,612,-191
4140,400,-2048,-216,-66,630,-220
4145,352,-2104,-224,-70,655,-239
4150,304,-2112,-264,-67,657,-257
4155,264,-2144,-320,-62,649,-274
4160,224,-2144,-336,-71,643,-283
4165,128,-2176,-376,-84,633,-282
4170,80,-2192,-376,-95,623,-274
4175,-48,-2216,-400,-109,613,-256
4180,-128,-2256,-400,-119,592,-235
4185,-168,-2256,-384,-122,560,-211
4190,-256,-2304,-392,-125,529,-184
4195,-304,-2344,-312,-120,497,-149
4200,-352,-2424,-296,-108,464,-116
4205,-376,-2496,-288,-80,430,-81
4210,-408,-2552,-152,-43,400,-49
4215,-416,-2584,-168,5,373,-18
4220,-360,-2600,-96,63,349,6
4225,-296,-2696,-48,117,335,28
4230,-312,-2680,-32,182,317,38
4235,-224,-2696,-48,242,305,40
4240,-128,-2696,-48,293,300,33
4245,-80,-2640,-144,330,302,20
4250,-64,-2576,-256,336,310,0
4255,-16,-2520,-448,303,317,-28
4260,-32,-2464,-648,223,315,-57
4265,-72,-2400,-864,95,298,-85
4270,-128,-2456,-1072,-67,264,-105
4275,-160,-2536,-1200,-236,215,-111
4280,-280,-2648,-1288,-390,157,-103
4285,-368,-2744,-1408,-513,96,-78
4290,-488,-2784,-1440,-594,36,-32
4295,-520,-2904,-1464,-633,-24,39
4300,-560,-2912,-1480,-660,-85,139
4305,-560,-2888,-1496,-679,-158,257
4310,-464,-2800,-1472,-684,-234,381
4315,-312,-2680,-1440,-654,-307,497
4320,-152,-2576,-1432,-576,-376,596
4325,-24,-2384,-1432,-450,-437,676
4330,176,-2216,-1408,-303,-493,735
4335,328,-2016,-1360,-159,-545,762
4340,472,-1848,-1360,-32,-586,758
4345,616,-1704,-1328,67,-614,717
4350,720,-1624,-1232,138,-628,646
4355,816,-1608,-1160,186,-628,551
4360,856,-1632,-1112,204,-617,439
4365,800,-1664,-1024,188,-600,317
4370,744,-1744,-1008,137,-587,194
4375,640,-1824,-936,46,-581,73
4380,456,-1888,-888,-68,-580,-40
4385,288,-1952,-776,-198,-584,-150
4390,144,-2040,-712,-324,-595,-257
4395,-24,-2096,-584,-438,-606,-345
4400,-128,-2168,-488,-523,-620,-412
4405,-216,-2216,-456,-569,-652,-459
4410,-272,-2272,-440,-584,-677,-479
4415,-264,-2272,-448,-577,-697,-483
4420,-248,-2264,-472,-552,-708,-466
4425,-192,-2272,-544,-514,-705,-428
4430,-224,-2240,-664,-471,-716,-390
4435,-176,-2224,-760,-435,-748,-364
4440,-176,-2112,-888,-403,-791,-328
4445,-152,-2040,-1032,-383,-855,-305
4450,-104,-1944,-1128,-373,-925,-280
4455,-24,-1944,-1160,-370,-971,-253
4460,56,-1928,-1072,-350,-990,-239
4465,176,-1944,-1040,-298,-998,-248
4470,240,-2000,-968,-223,-990,-262
4475,256,-2008,-896,-155,-979,-302
4480,304,-2008,-840,-117,-970,-349
4485,320,-2032,-776,-88,-948,-401
4490,368,-1976,-752,-63,-930,-455
4495,384,-2024,-656,-50,-904,-497
4500,432,-2056,-560,-43,-873,-533
4505,472,-1976,-520,-21,-860,-574
4510,504,-1936,-488,10,-853,-604
4515,512,-1896,-472,49,-849,-626
4520,536,-1792,-464,94,-860,-646
4525,528,-1720,-472,136,-880,-656
4530,608,-1648,-496,170,-911,-662
4535,608,-1592,-504,190,-947,-666
4540,592,-1536,-560,194,-972,-650
4545,568,-1536,-520,183,-989,-623
4550,544,-1512,-504,158,-1005,-589
4555,544,-1504,-504,122,-1024,-558
4560,512,-1544,-472,78,-1038,-527
4565,448,-1576,-432,27,-1046,-495
4570,400,-1608,-376,-30,-1050,-465
4575,336,-1656,-360,-80,-1035,-433
4580,336,-1704,-328,-126,-1010,-399
4585,280,-1736,-312,-170,-978,-366
4590,248,-1792,-320,-217,-942,-337
4595,224,-1824,-328,-253,-896,-308
4600,184,-1888,-360,-283,-856,-287
4605,152,-1888,-384,-309,-824,-274
4610,152,-1936,-424,-328,-797,-264
4615,112,-1984,-424,-338,-778,-260
4620,96,-2032,-448,-338,-766,-263
4625,112,-2072,-440,-328,-764,-276
4630,120,-2168,-376,-310,-765,-289
4635,120,-2256,-384,-280,-771,-312
4640,152,-2336,-344,-239,-786,-340
4645,168,-2416,-304,-189,-801,-370
4650,152,-2496,-312,-135,-810,-396
4655,152,-2528,-296,-79,-821,-420
4660,168,-2552,-328,-20,-834,-444
4665,192,-2576,-352,38,-847,-464
4670,208,-2568,-368,91,-856,-476
4675,184,-2544,-408,135,-868,-481
4680,248,-2512,-416,176,-877,-481
4685,248,-2480,-400,215,-887,-474
4690,256,-2472,-392,252,-896,-464
4695,264,-2408,-368,289,-906,-445
4700,320,-2424,-336,323,-914,-419
4705,352,-2360,-312,355,-924,-387
4710,368,-2360,-264,380,-935,-351
4715,392,-2352,-224,400,-947,-308
4720,392,-2328,-192,417,-963,-263
4725,456,-2336,-192,427,-982,-214
4730,456,-2296,-144,429,-1006,-164
4735,432,-2288,-160,426,-1032,-117
4740,448,-2240,-160,423,-1060,-74
4745,480,-2240,-160,416,-1091,-42
4750,456,-2208,-192,409,-1124,-17
4755,464,-2192,-256,400,-1156,3
4760,480,-2184,-304,387,-1188,20
4765,440,-2104,-384,366,-1216,37
4770,440,-2088,-456,346,-1240,54
4775,416,-2016,-520,331,-1257,71
4780,384,-1960,-584,328,-1265,87
4785,392,-1920,-624,331,-1265,99
4790,376,-1840,-704,344,-1262,100
4795,360,-1752,-808,364,-1255,92
4800,328,-1624,-880,382,-1242,76
4805,264,-1480,-976,386,-1224,62
4810,224,-1352,-1080,385,-1187,59
4815,152,-1192,-1240,366,-1132,61
4820,112,-1008,-1368,327,-1078,60
4825,112,-872,-1448,276,-1026,60
4830,96,-768,-1544,217,-971,58
4835,112,-696,-1672,158,-908,51
4840,176,-632,-1792,97,-836,30
4845,232,-608,-1912,32,-755,-2
4850,288,-640,-2008,-44,-668,-50
4855,288,-792,-2104,-132,-570,-111
4860,232,-1008,-2160,-231,-468,-201
4865,240,-1200,-2160,-347,-361,-306
4870,208,-1464,-2064,-474,-258,-418
4875,216,-1688,-1952,-606,-142,-530
4880,184,-1968,-1760,-717,-21,-633
4885,120,-2272,-1584,-784,94,-736
4890,80,-2560,-1384,-806,195,-845
4895,-80,-2776,-1272,-789,293,-942
4900,-112,-3048,-1200,-748,384,-1026
4905,-16,-3112,-1408,-689,476,-1098
4910,-256,-3512,-1240,-649,610,-1122
4915,-280,-3720,-1312,-556,692,-1156
4920,-232,-3848,-1376,-421,729,-1188
4925,-328,-3848,-1400,-269,751,-1188
4930,-488,-3736,-1336,-117,754,-1115
4935,-480,-3560,-1208,15,680,-982
4940,-304,-3264,-1048,126,543,-794
4945,-344,-3120,-728,212,393,-543
4950,-136,-2960,-512,312,154,-343
4955,64,-2752,-464,436,-127,-185
4960,176,-2624,-448,537,-350,-39
4965,216,-2528,-440,598,-507,98
4970,312,-2320,-512,617,-595,226
4975,256,-2232,-496,586,-615,350
4980,280,-2096,-456,545,-622,426
4985,256,-1976,-488,519,-607,474
4990,256,-1888,-480,491,-569,509
4995,216,-1768,-464,443,-527,516
5000,184,-1696,-512,376,-485,508
5005,152,-1616,-480,287,-441,489
5010,152,-1656,-488,179,-411,443
5015,112,-1672,-504,61,-390,371
5020,152,-1688,-528,-55,-362,314
5025,200,-1704,-568,-166,-322,273
5030,240,-1736,-544,-274,-276,234
5035,280,-1816,-560,-363,-231,189
5040,288,-1832,-544,-420,-187,142
5045,328,-1904,-536,-437,-139,108
5050,320,-1992,-544,-420,-88,87
5055,312,-2024,-520,-381,-36,81
5060,304,-2048,-560,-330,17,84
5065,272,-2056,-544,-276,66,95
5070,248,-2048,-544,-220,110,109
5075,240,-2016,-552,-165,142,128
5080,200,-1992,-568,-117,165,154
5085,184,-1936,-560,-74,178,182
5090,200,-1936,-504,-42,180,211
5095,208,-1896,-472,-22,173,237
5100,232,-1872,-472,-16,153,260
5105,216,-1840,-376,-19,134,286
5110,208,-1832,-312,-28,111,310
5115,168,-1784,-264,-39,80,327
5120,160,-1800,-232,-50,52,343
5125,112,-1784,-184,-58,30,361
5130,120,-1776,-160,-68,14,373
5135,144,-1768,-136,-93,-3,368
5140,120,-1792,-136,-101,-8,392
5145,104,-1824,-192,-110,-5,397
5150,208,-1888,-192,-118,2,393
5155,64,-1760,-176,-128,12,361
5160,112,-1896,-144,-134,27,370
5165,88,-1952,-144,-128,22,338
5170,48,-1984,-152,-87,5,293
5175,16,-2024,-168,-32,4,252
5180,8,-2040,-152,19,12,213
5185,8,-2120,-144,73,25,177
5190,-80,-2112,-120,126,39,135
5195,-56,-2160,-152,180,52,94
5200,-96,-2184,-136,222,71,47
5205,-96,-2184,-168,263,99,5
5210,-104,-2208,-160,298,136,-38
5215,-72,-2216,-176,326,181,-80
5220,-80,-2208,-232,342,226,-123
5225,-40,-2192,-240,357,274,-165
5230,-40,-2144,-288,368,324,-203
5235,-32,-2136,-304,373,376,-242
5240,0,-2112,-400,365,425,-277
5245,0,-2096,-464,351,470,-307
5250,-8,-2024,-496,329,511,-335
5255,-8,-1984,-512,299,546,-361
5260,-8,-1992,-576,258,573,-379
5265,-48,-1952,-640,208,589,-389
5270,-88,-1976,-696,150,590,-387
5275,-104,-1920,-760,88,574,-376
5280,-184,-1888,-816,25,540,-352
5285,-240,-1840,-888,-29,489,-311
5290,-296,-1800,-1016,-82,424,-257
5295,-360,-1728,-1152,-140,344,-187
5300,-400,-1600,-1304,-206,254,-106
5305,-472,-1520,-1456,-279,153,-19
5310,-520,-1384,-1608,-365,42,75
5315,-520,-1216,-1728,-457,-75,167
5320,-496,-1080,-1824,-550,-185,261
5325,-456,-1000,-1952,-628,-291,343
5330,-424,-968,-1968,-685,-389,414
5335,-344,-968,-1984,-719,-474,475
5340,-296,-1000,-1984,-733,-545,520
5345,-200,-1088,-1976,-731,-607,541
5350,-168,-1216,-1872,-714,-658,544
5355,-80,-1472,-1776,-685,-710,529
5360,16,-1680,-1664,-657,-760,501
5365,72,-1960,-1536,-635,-817,455
5370,168,-2208,-1392,-613,-883,400
5375,224,-2496,-1248,-585,-954,333
5380,200,-2720,-1112,-544,-1036,257
5385,144,-2888,-1000,-490,-1133,175
5390,128,-3056,-976,-420,-1241,93
5395,96,-3200,-936,-344,-1353,17
5400,120,-3336,-912,-266,-1464,-67
5405,144,-3464,-912,-177,-1564,-149
5410,176,-3496,-904,-88,-1627,-213
5415,184,-3480,-1008,-8,-1646,-245
5420,208,-3400,-1080,47,-1634,-264
5425,296,-3296,-1128,88,-1587,-264
5430,424,-3144,-1144,125,-1517,-256
5435,624,-3040,-1144,174,-1435,-255
5440,728,-2896,-1064,237,-1353,-263
5445,792,-2768,-1024,296,-1279,-282
5450,856,-2584,-1000,339,-1221,-303
5455,832,-2424,-952,353,-1161,-319
5460,816,-2272,-944,336,-1106,-332
5465,792,-2144,-960,290,-1046,-349
5470,728,-2024,-952,218,-976,-363
5475,728,-1920,-928,134,-916,-380
5480,712,-1824,-904,41,-858,-389
5485,656,-1760,-840,-51,-804,-386
5490,664,-1744,-776,-133,-767,-384
5495,648,-1688,-648,-200,-759,-382
5500,632,-1744,-632,-251,-775,-373
5505,624,-1768,-592,-278,-812,-369
5510,616,-1824,-576,-284,-872,-368
5515,600,-1872,-512,-273,-932,-364
5520,536,-1936,-480,-235,-1004,-358
5525,496,-1984,-472,-180,-1078,-358
5530,416,-2040,-480,-126,-1142,-358
5535,344,-2040,-512,-70,-1199,-366
5540,312,-2072,-536,-24,-1245,-371
5545,224,-2048,-552,18,-1268,-379
5550,152,-2024,-592,68,-1272,-394
5555,128,-2016,-640,106,-1254,-404
5560,104,-1968,-624,129,-1218,-413
5565,72,-1960,-664,134,-1171,-427
5570,16,-1944,-632,141,-1114,-445
5575,-8,-1960,-592,143,-1055,-469
5580,-32,-1928,-576,142,-996,-491
5585,-40,-1968,-504,133,-939,-507
5590,-80,-1952,-528,120,-883,-518
5595,-72,-1920,-504,103,-835,-524
5600,-72,-1920,-472,79,-795,-521
5605,-48,-1912,-472,47,-770,-510
5610,-16,-1944,-440,13,-759,-494
5615,-8,-1968,-408,-16,-763,-474
5620,0,-1992,-408,-32,-784,-451
5625,0,-2056,-312,-35,-818,-428
5630,24,-2096,-264,-21,-858,-407
5635,32,-2160,-240,-1,-901,-385
5640,56,-2200,-208,31,-943,-366
5645,72,-2264,-168,74,-984,-351
5650,72,-2312,-176,128,-1025,-341
5655,104,-2328,-160,193,-1068,-335
5660,104,-2360,-152,267,-1098,-322
5665,64,-2360,-160,340,-1119,-300
5670,48,-2352,-176,415,-1139,-277
5675,24,-2320,-208,492,-1160,-249
5680,40,-2304,-176,569,-1177,-216
5685,40,-2312,-136,639,-1181,-165
5690,40,-2312,-104,707,-1193,-126
5695,72,-2248,-152,771,-1201,-84
5700,96,-2208,-184,819,-1197,-33
5705,160,-2184,-208,853,-1186,19
5710,224,-2112,-232,879,-1176,65
5715,296,-2056,-264,876,-1163,112
5720,360,-2008,-360,851,-1151,150
5725,408,-1992,-424,797,-1137,181
5730,456,-1976,-456,729,-1131,194
5735,552,-1952,-520,646,-1131,190
5740,632,-2016,-568,562,-1104,196
5745,632,-2048,-616,484,-1062,202
5750,640,-2080,-680,426,-1026,189
5755,656,-2096,-776,381,-992,166
5760,672,-2136,-808,342,-956,134
5765,608,-2160,-888,313,-922,104
5770,560,-2160,-960,293,-889,75
5775,504,-2128,-1024,289,-860,50
5780,496,-2080,-1112,308,-825,33
5785,496,-2016,-1192,344,-784,13
5790,472,-1904,-1288,393,-734,-7
5795,464,-1744,-1336,441,-675,-27
5800,456,-1592,-1448,476,-611,-44
5805,440,-1440,-1488,492,-548,-58
5810,464,-1272,-1600,492,-491,-68
5815,440,-1104,-1640,483,-434,-69
5820,424,-936,-1664,471,-375,-66
5825,416,-808,-1672,459,-317,-57
5830,400,-688,-1696,442,-255,-51
5835,440,-576,-1704,416,-188,-48
5840,424,-520,-1688,381,-119,-51
5845,456,-536,-1640,340,-44,-64
5850,456,-624,-1576,283,36,-86
5855,424,-784,-1568,229,107,-129
5860,384,-920,-1456,169,164,-190
5865,336,-1064,-1392,97,221,-255
5870,352,-1192,-1368,14,280,-322
5875,232,-1408,-1232,-90,356,-378
5880,216,-1568,-1168,-180,425,-438
5885,240,-1696,-1056,-244,500,-493
5890,192,-1880,-1080,-296,601,-537
5895,256,-2064,-1056,-331,694,-576
5900,288,-2216,-1080,-354,778,-611
5905,368,-2352,-1144,-372,854,-645
5910,344,-2472,-1208,-383,930,-668
5915,424,-2568,-1272,-389,1000,-682
5920,408,-2640,-1328,-384,1083,-670
5925,376,-2776,-1416,-360,1154,-647
5930,312,-2856,-1408,-317,1209,-615
5935,320,-2888,-1456,-270,1221,-579
5940,304,-2936,-1440,-227,1218,-524
5945,336,-3032,-1320,-176,1186,-461
5950,360,-3096,-1176,-102,1132,-394
5955,368,-3200,-1024,-5,1090,-317
5960,384,-3264,-904,132,1022,-254
5965,456,-3224,-784,294,972,-198
5970,376,-3200,-624,430,961,-124
5975,432,-3160,-472,553,913,-79
5980,384,-3072,-432,677,867,-45
5985,304,-2912,-432,779,855,-13
5990,272,-2800,-416,847,860,22
5995,232,-2664,-456,868,874,61
6000,168,-2560,-464,850,897,107
6005,128,-2424,-464,793,922,150
6010,112,-2328,-480,707,941,194
6015,88,-2224,-448,602,957,235
6020,120,-2152,-448,482,950,248
6025,120,-2112,-440,374,933,249
6030,120,-2104,-352,282,917,253
6035,112,-2112,-360,209,906,270
6040,104,-2120,-312,151,899,288
6045,128,-2120,-296,105,890,305
6050,120,-2232,-208,72,877,322
6055,120,-2288,-192,53,857,331
6060,136,-2376,-192,53,834,341
6065,152,-2424,-192,69,815,354
6070,168,-2520,-216,99,797,366
6075,208,-2544,-256,142,787,380
6080,184,-2560,-328,194,782,393
6085,224,-2536,-376,256,785,404
6090,256,-2504,-408,326,795,419
6095,296,-2456,-456,396,813,433
6100,360,-2440,-560,468,842,445
6105,384,-2304,-640,529,881,450
6110,352,-2144,-672,583,919,457
6115,352,-2008,-704,622,955,467
6120,360,-1880,-720,650,985,480
6125,352,-1696,-816,656,1002,490
6130,312,-1544,-864,647,1016,503
6135,304,-1408,-912,621,1038,524
6140,280,-1240,-992,579,1069,546
6145,288,-1056,-992,520,1105,569
6150,272,-904,-1056,449,1150,595
6155,336,-720,-1128,370,1209,619
6160,320,-584,-1160,275,1257,645
6165,344,-456,-1224,170,1311,669
6170,384,-264,-1184,59,1374,678
6175,416,-96,-1176,-50,1451,679
6180,384,32,-1136,-145,1536,674
6185,416,168,-1096,-218,1631,670
6190,464,256,-1096,-267,1725,659
6195,576,336,-1096,-291,1812,642
6200,696,376,-1056,-288,1891,608
6205,776,368,-1024,-265,1959,553
6210,808,320,-1000,-222,2009,489
6215,792,216,-912,-164,2040,430
6220,776,104,-936,-126,2045,378
6225,704,-72,-864,-110,2023,338
6230,664,-256,-904,-107,1962,306
6235,584,-456,-896,-99,1874,276
6240,544,-704,-912,-73,1771,251
6245,408,-944,-840,-30,1656,225
6250,248,-1160,-800,21,1536,195
6255,-32,-1280,-752,59,1397,183
6260,-296,-1368,-592,36,1218,183
6265,-592,-1496,-400,-57,989,201
6270,-736,-1640,-384,-191,705,225
6275,-776,-1792,-264,-341,395,265
6280,-832,-2040,-240,-475,83,305
6285,-824,-2240,-224,-576,-207,350
6290,-832,-2440,-272,-638,-445,404
6295,-816,-2544,-424,-671,-618,468
6300,-840,-2576,-536,-674,-717,534
6305,-800,-2544,-600,-639,-738,597
6310,-776,-2400,-616,-554,-687,645
6315,-688,-2224,-608,-430,-583,670
6320,-552,-2088,-536,-286,-440,663
6325,-424,-1896,-416,-150,-287,615
6330,-312,-1696,-408,-35,-139,536
6335,-208,-1520,-456,43,-10,430
6340,-88,-1344,-472,89,94,320
6345,24,-1240,-544,113,170,212
6350,208,-1128,-608,142,217,120
6355,352,-1040,-712,173,241,40
6360,504,-952,-768,202,243,-21
6365,672,-896,-824,229,234,-62
6370,800,-864,-856,257,212,-90
6375,888,-912,-744,305,163,-115
6380,936,-992,-616,380,117,-127
6385,968,-1096,-416,489,81,-124
6390,872,-1224,-184,627,57,-96
6395,776,-1376,32,783,27,-50
6400,600,-1512,208,923,-28,4
6405,400,-1640,424,1054,-121,52
6410,256,-1784,520,1203,-256,92
6415,120,-1936,520,1376,-422,129
6420,-32,-1944,432,1540,-604,174
6425,-136,-1920,264,1654,-797,235
6430,-288,-1768,88,1709,-972,321
6435,-440,-1600,-224,1732,-1120,438
6440,-544,-1336,-624,1746,-1224,578
6445,-600,-1024,-1056,1747,-1265,738
6450,-568,-784,-1400,1738,-1234,900
6455,-624,-520,-1776,1740,-1134,1047
6460,-640,-440,-2168,1726,-964,1168
6465,-640,-464,-2368,1677,-740,1262
6470,-592,-616,-2384,1587,-475,1318
6475,-208,-984,-2288,1457,-200,1304
6480,120,-1408,-2016,1277,68,1166
6485,600,-1816,-1768,1083,327,966
6490,1032,-2280,-1416,948,584,737
6495,1328,-2912,-704,917,844,459
6500,1552,-3192,0,983,1054,142
6505,1744,-3248,440,1045,1231,-96
6510,1488,-3176,440,1097,1357,-273
6515,1192,-2960,104,1127,1432,-411
6520,992,-2664,-184,1196,1458,-499
6525,928,-2368,-424,1352,1434,-545
6530,992,-2104,-576,1583,1407,-585
6535,1152,-1856,-696,1866,1447,-595
6540,1480,-1560,-720,2174,1597,-564
6545,1456,-1040,-496,2497,1821,-481
6550,1152,-352,-336,2806,1977,-307
6555,344,480,16,3012,1920,-42
6560,-328,1112,272,3038,1602,334
6565,-448,1392,552,2829,1079,734
6570,-384,1336,680,2522,534,1100
6575,-456,1040,584,2307,99,1404
6580,-488,648,320,2230,-197,1660
6585,-448,264,120,2259,-376,1860
6590,-448,-120,-104,2345,-447,2008
6595,-448,-376,-272,2448,-412,2123
6600,-496,-536,-352,2548,-286,2224
6605,-568,-688,-616,2621,-99,2333
6610,-824,-904,-816,2661,96,2406
6615,-960,-1112,-952,2718,255,2386
6620,-1104,-1336,-720,2804,404,2310
6625,-1088,-1520,-448,2936,461,2143
6630,-864,-1632,-416,3102,459,1917
6635,-600,-1656,-368,3232,457,1673
6640,-264,-1648,104,3278,461,1417
6645,0,-1720,768,3261,463,1145
6650,424,-2040,1384,3254,442,852
6655,280,-2664,2424,3316,379,515
6660,240,-3464,4064,3529,258,169
6665,1000,-5392,5616,3904,155,-137
6670,-216,-7176,8448,4294,161,-587
6675,-4656,-8304,9944,4766,57,-818
6680,-8048,-12392,8224,4568,-360,-227
6685,-11952,-14160,3736,2549,-904,548
6690,-14272,-16624,4240,-247,-1336,1252
6695,-13416,-18304,4016,-881,-1699,1610
6700,-5464,-17144,4736,693,-2235,2103
6705,-2872,-14976,1656,4039,-2101,2739
6710,600,-12824,616,6280,-1522,3144
6715,2472,-10496,-112,6594,-909,3424
6720,2344,-8368,-328,5942,-529,3434
6725,1800,-6560,-224,5237,-373,3238
6730,1480,-4904,-200,4785,-341,2859
6735,1128,-3480,-48,4406,-347,2444
6740,1752,-2032,-384,4024,-427,2087
6745,2264,-1024,-552,3692,-550,1815
6750,2328,456,-768,3510,-670,1600
6755,2192,2088,-768,3271,-861,1365
6760,2216,3360,-672,2978,-1015,1233
6765,2528,4432,-24,2609,-1097,1143
6770,2576,4952,696,2242,-1105,1069
6775,2696,4912,688,2039,-1077,1034
6780,2184,4152,88,2227,-934,1007
6785,1560,3128,-1144,2889,-751,982
6790,856,2152,-2048,3673,-618,855
6795,360,1560,-2320,4185,-503,671
6800,208,1032,-2064,4313,-419,540
6805,392,648,-1656,4240,-344,464
6810,456,632,-1320,3997,-246,425
6815,368,648,-760,3534,-140,427
6820,240,512,24,2966,-49,452
6825,0,304,880,2485,10,490
6830,-152,-48,1720,2212,10,533
6835,-408,-424,2472,2189,-49,586
6840,-976,-616,2992,2400,-162,660
6845,-1688,-688,3088,2753,-311,752
6850,-2280,-536,2680,3054,-489,805
6855,-2728,-232,2048,3100,-661,825
6860,-2968,208,1448,2866,-798,873
6865,-2776,664,1112,2500,-916,954
6870,-2288,984,1256,2187,-1018,1035
6875,-1832,1160,1496,2071,-1096,1072
6880,-1408,1240,1744,2141,-1143,1079
6885,-1112,1392,2048,2283,-1184,1065
6890,-976,1544,2368,2432,-1257,1044
6895,-944,1752,2720,2583,-1364,1023
6900,-912,2016,2816,2716,-1477,997
6905,-704,2296,2880,2793,-1551,963
6910,-592,2608,3040,2788,-1563,919
6915,-488,2936,3168,2712,-1531,870
6920,-304,3160,3176,2578,-1478,829
6925,-104,3312,3136,2374,-1410,775
6930,208,3408,2944,2117,-1339,696
6935,424,3480,2728,1849,-1255,600
6940,616,3552,2592,1590,-1171,488
6945,744,3600,2416,1330,-1101,359
6950,744,3640,2312,1040,-1044,214
6955,592,3664,2176,720,-990,66
6960,600,3640,2112,356,-946,-72
6965,632,3568,2008,-25,-886,-234
6970,512,3368,1960,-393,-804,-409
6975,320,3080,1856,-723,-688,-540
6980,352,2824,1904,-1024,-619,-663
6985,24,2520,1944,-1276,-539,-760
6990,-40,2040,2104,-1388,-458,-744
6995,48,1600,2016,-1369,-442,-704
7000,-312,1312,1880,-1281,-488,-652
7005,-128,976,1760,-1130,-513,-554
7010,128,624,1688,-930,-521,-475
7015,88,440,1552,-700,-535,-413
7020,104,272,1376,-465,-580,-351
7025,104,216,1264,-242,-625,-275
7030,136,144,1040,-41,-703,-215
7035,-64,104,880,134,-761,-146
7040,48,184,584,252,-802,-97
7045,376,168,416,301,-831,-68
7050,-40,160,216,309,-864,-30
7055,96,400,104,285,-884,-4
7060,128,432,96,237,-892,6
7065,200,512,80,177,-917,25
7070,136,544,120,109,-935,51
7075,256,664,120,35,-959,74
7080,280,744,192,-47,-949,90
7085,352,784,256,-117,-901,102
7090,392,840,320,-183,-827,105
7095,408,928,424,-255,-738,103
7100,456,960,520,-330,-635,87
7105,424,1040,592,-397,-544,58
7110,488,1168,640,-452,-458,36
7115,480,1248,760,-512,-381,19
7120,512,1328,840,-573,-312,-1
7125,456,1384,960,-627,-250,-19
7130,480,1432,1008,-675,-191,-25
7135,472,1416,1088,-709,-139,-12
7140,480,1472,1160,-727,-95,2
7145,464,1424,1192,-730,-58,15
7150,544,1456,1288,-716,-24,36
7155,576,1448,1304,-692,20,51
7160,520,1352,1392,-665,78,68
7165,536,1296,1424,-639,142,74
7170,464,1184,1520,-622,201,71
7175,424,1120,1584,-615,237,75
7180,336,1048,1688,-631,256,76
7185,320,952,1824,-653,255,72
7190,336,920,1920,-681,244,66
7195,288,864,2032,-736,229,57
7200,328,752,2160,-793,208,57
7205,312,720,2344,-823,171,64
7210,320,632,2416,-832,120,71
7215,328,608,2504,-819,57,68
7220,304,568,2544,-788,0,65
7225,312,584,2568,-739,-41,61
7230,272,608,2584,-690,-60,56
7235,264,624,2544,-645,-63,44
7240,256,656,2536,-602,-59,27
7245,256,648,2512,-562,-52,7
7250,288,688,2504,-535,-51,-15
7255,328,784,2520,-515,-53,-43
7260,208,776,2512,-502,-59,-75
7265,264,888,2504,-483,-56,-102
7270,328,928,2488,-474,-58,-129
7275,312,960,2432,-469,-46,-144
7280,256,1008,2416,-470,-17,-150
7285,240,944,2336,-473,26,-156
7290,248,944,2304,-477,64,-162
7295,256,928,2256,-475,103,-161
7300,248,728,2192,-457,132,-150
7305,272,608,2120,-388,174,-105
7310,200,712,2056,-274,222,-73
7315,192,728,1960,-154,265,-46
7320,248,672,1936,-76,306,-24
7325,248,656,1856,-4,335,-5
7330,248,640,1840,64,341,10
7335,272,704,1800,122,337,33
7340,320,568,1760,151,331,64
7345,232,720,1560,130,321,90
7350,256,688,1616,47,316,95
7355,144,792,1448,-68,302,75
7360,88,704,1496,-235,284,75
7365,168,632,1536,-390,270,89
7370,64,640,1560,-541,253,51
7375,176,576,1552,-685,218,27
7380,88,600,1416,-844,215,6
7385,64,432,1488,-968,250,9
7390,96,320,1560,-1068,270,5
7395,-24,280,1616,-1067,254,-39
7400,136,224,1472,-992,244,-20
7405,192,472,1264,-925,268,-46
7410,-56,680,1160,-1021,299,-58
7415,8,424,1320,-1168,317,-3
7420,-16,416,1352,-1223,321,35
7425,-88,432,1376,-1241,339,18
7430,-120,472,1392,-1247,357,-47
7435,-224,368,1616,-1159,383,-68
7440,-440,416,1560,-988,393,-86
7445,32,952,1368,-900,399,-92
7450,-136,344,1672,-912,455,-102
7455,-128,672,1488,-768,412,-141
7460,-104,656,1376,-700,389,-137
7465,-56,568,1440,-681,400,-94
7470,-200,272,1592,-648,354,-120
7475,-192,344,1480,-638,296,-151
7480,-200,8,1464,-629,264,-116
7485,-216,-256,1360,-660,262,-82
7490,-424,-984,1640,-705,280,-12
7495,-160,-1160,1608,-690,276,32
7500,-96,-1400,1816,-701,307,39
7505,-56,-1680,2104,-665,338,33
7510,-8,-1992,2432,-549,359,25
7515,-216,-2176,2680,-369,356,3
7520,-304,-2336,2928,-141,306,-29
7525,-336,-2384,3048,111,230,-63
7530,-320,-2424,2992,339,141,-83
7535,-512,-2408,2976,539,45,-91
7540,-496,-2296,2720,719,-53,-81
7545,-616,-2064,2416,846,-140,-59
7550,-648,-1680,2064,897,-216,-41
7555,-664,-1184,1648,876,-261,-33
7560,-624,-672,1224,822,-250,-27
7565,-608,-208,880,764,-177,-4
7570,-552,168,616,708,-73,29
7575,-440,440,448,625,27,60
7580,-248,536,296,487,103,80
7585,-56,560,272,278,150,86
7590,40,496,304,13,179,73
7595,96,448,456,-273,193,40
7600,80,440,608,-540,197,2
7605,160,448,768,-763,195,-27
7610,120,408,1000,-924,190,-48
7615,184,224,1168,-1007,168,-58
7620,152,72,1336,-1016,130,-58
7625,176,-80,1496,-952,78,-49
7630,144,-272,1624,-834,17,-37
7635,152,-472,1744,-678,-51,-26
7640,96,-600,1848,-506,-117,-21
7645,64,-712,1880,-333,-173,-21
7650,8,-736,1840,-180,-212,-22
7655,-24,-776,1848,-64,-231,-18
7660,-72,-752,1784,10,-241,-10
7665,-64,-680,1768,49,-242,0
7670,-112,-680,1808,70,-231,2
7675,-128,-648,1840,85,-210,1
7680,-144,-648,1872,100,-178,-5
7685,-200,-664,1936,115,-141,-9
7690,-248,-688,1976,133,-102,-14
7695,-280,-712,2048,145,-64,-17
7700,-312,-712,2032,146,-30,-18
7705,-336,-640,2072,138,-1,-17
7710,-296,-576,2048,123,18,-9
7715,-280,-496,2016,107,26,4
7720,-232,-376,2040,86,19,18
7725,-192,-304,1976,64,-1,27
7730,-160,-160,1968,43,-28,28
7735,-128,-8,1960,19,-55,27
7740,-88,64,1920,-2,-73,19
7745,-24,184,1952,-22,-83,10
7750,48,256,1944,-37,-90,-3
7755,80,376,1912,-46,-93,-21
7760,136,472,1904,-52,-89,-38
7765,168,528,1872,-52,-87,-57
7770,216,592,1816,-53,-79,-72
7775,216,624,1752,-58,-61,-89
7780,232,712,1744,-73,-36,-101
7785,256,672,1744,-95,-10,-105
7790,288,680,1704,-113,16,-109
7795,248,672,1720,-133,40,-115
7800,240,632,1680,-145,58,-112
7805,216,600,1640,-158,74,-105
7810,144,544,1632,-187,93,-88
7815,88,480,1712,-208,102,-68
7820,64,416,1728,-193,93,-45
7825,72,328,1712,-173,81,-24
7830,8,344,1712,-150,62,-9
7835,24,176,1696,-125,34,5
7840,-24,104,1656,-101,9,13
7845,-40,72,1680,-79,-16,25
7850,-40,32,1696,-68,-41,37
7855,-56,-8,1688,-63,-62,47
7860,-56,-16,1696,-66,-76,55
7865,-40,-104,1648,-72,-82,56
7870,-32,-112,1704,-82,-81,58
7875,-72,-144,1704,-95,-73,58
7880,-80,-160,1712,-110,-60,56
7885,-112,-152,1736,-123,-45,50
7890,-80,-104,1728,-133,-29,46
7895,-88,-104,1752,-135,-13,41
7900,-80,-96,1768,-132,8,39
7905,-96,-56,1784,-124,29,36
7910,-64,-48,1808,-118,49,34
7915,-80,-16,1800,-110,67,31
7920,-24,0,1848,-102,84,30
7925,-56,0,1816,-95,100,30
7930,-32,0,1840,-88,114,34
7935,-48,8,1840,-81,123,36
7940,-8,0,1912,-78,130,38
7945,-40,-8,1864,-76,130,36
7950,-64,-8,1840,-70,127,36
7955,-64,-24,1832,-64,120,35
7960,-64,-48,1848,-56,109,34
7965,-64,-72,1824,-45,95,33
7970,-96,-120,1816,-32,79,34
7975,-104,-112,1808,-18,63,35
7980,-112,-112,1832,-4,46,41
7985,-120,-96,1784,12,28,44
7990,-120,-120,1808,22,12,50
7995,-136,-112,1768,28,-2,56
8000,-136,-120,1728,31,-15,63
8005,-152,-112,1704,28,-23,67
8010,-192,-120,1672,22,-31,70
8015,-192,-96,1688,15,-35,75
8020,-200,-104,1648,5,-36,78
8025,-184,-96,1640,-5,-34,82
8030,-168,-112,1632,-18,-32,84
8035,-184,-88,1616,-32,-27,83
8040,-144,-104,1624,-42,-22,80
8045,-120,-120,1624,-53,-18,76
8050,-104,-104,1720,-62,-12,69
8055,-104,-96,1680,-69,-7,62
8060,-56,-128,1656,-77,-5,52
8065,-56,-112,1664,-82,-1,41
8070,-8,-88,1704,-85,2,28
8075,-8,-88,1696,-87,4,14
8080,24,-80,1728,-86,8,2
8085,48,-80,1720,-84,13,-10
8090,48,-56,1736,-79,17,-22
8095,72,-64,1728,-74,20,-33
8100,72,-24,1696,-67,23,-42
8105,80,-24,1752,-61,26,-50
8110,48,-24,1728,-56,27,-54
8115,72,-16,1712,-52,32,-61
8120,56,-32,1752,-47,32,-64
8125,72,-64,1728,-42,33,-67
8130,40,-72,1736,-42,34,-66
8135,40,-56,1752,-40,33,-65
8140,32,-80,1728,-39,32,-62
8145,8,-96,1720,-38,32,-59
8150,8,-56,1720,-35,31,-56
8155,32,-128,1768,-37,29,-52
8160,8,-64,1728,-36,28,-47
8165,-16,-56,1728,-35,28,-42
8170,-40,-48,1752,-34,25,-36
8175,-40,-40,1744,-31,24,-32
8180,-48,-56,1744,-30,25,-26
8185,-40,-48,1760,-30,25,-21
8190,-48,-64,1784,-27,25,-16
8195,-40,-48,1736,-27,26,-14
8200,-56,-24,1768,-28,29,-10
8205,-32,-24,1752,-25,33,-8
8210,-32,24,1800,-23,37,-5
8215,-32,0,1784,-26,40,-4
8220,-40,0,1760,-27,44,-3
8225,-8,16,1768,-26,49,-1
8230,-56,24,1744,-27,48,-3
8235,-8,16,1776,-27,48,-2
8240,0,0,1808,-29,49,-4
8245,-48,32,1720,-31,43,-6
8250,-56,40,1744,-32,43,-7
8255,-16,48,1768,-30,40,-8
8260,-48,48,1784,-34,37,-8
8265,-56,32,1776,-34,34,-9
8270,-40,24,1784,-35,27,-9
8275,-40,48,1768,-38,20,-9
8280,-16,16,1792,-39,15,-7
8285,-24,8,1776,-41,9,-8
8290,-24,8,1768,-43,5,-7
8295,-48,0,1792,-46,2,-7
8300,-80,0,1760,-49,0,-9
8305,-40,0,1736,-52,0,-7
8310,-40,-16,1736,-54,-1,-5
8315,-48,-8,1768,-57,1,-4
8320,-40,0,1696,-59,4,-1
8325,-56,-24,1736,-61,6,1
8330,-80,-32,1768,-63,10,4
8335,-56,-48,1784,-61,14,8
8340,-72,-40,1776,-61,18,10
8345,-88,-64,1792,-58,21,12
8350,-80,-24,1760,-59,25,15
8355,-64,-40,1736,-56,31,16
8360,-80,-80,1760,-54,34,15
8365,-56,-80,1736,-51,39,14
8370,-88,-56,1800,-49,41,14
8375,-48,-104,1792,-45,43,13
8380,-72,-72,1712,-39,45,12
8385,-72,-72,1744,-33,44,10
8390,-56,-96,1752,-31,43,10
8395,-96,-88,1744,-27,40,9
8400,-80,-88,1728,-26,39,7
8405,-72,-64,1720,-25,36,4
8410,-80,-72,1712,-25,33,4
8415,-56,-80,1720,-25,29,2
8420,-56,-48,1712,-27,25,1
8425,-48,-72,1712,-29,22,0
8430,-40,-64,1736,-32,18,-3
8435,-72,-80,1744,-34,14,-4
8440,-56,-48,1712,-38,11,-7
8445,-64,-40,1752,-42,8,-8
8450,-32,-56,1712,-46,4,-8
8455,-80,-32,1720,-50,2,-11
8460,-64,-16,1720,-53,0,-15
8465,-40,0,1736,-55,0,-16
8470,-56,-16,1760,-59,-2,-15
8475,-24,-24,1744,-59,0,-16
8480,-40,-24,1768,-61,2,-17
8485,-48,0,1744,-59,4,-17
8490,-64,8,1728,-58,6,-17
8495,0,-16,1712,-57,8,-17
8500,-16,-8,1696,-53,10,-20
8505,-32,0,1752,-52,12,-19
8510,-56,0,1744,-50,11,-20
8515,-56,8,1736,-47,13,-20
8520,-24,0,1744,-44,15,-18
8525,-8,-24,1776,-44,17,-19
8530,-64,0,1736,-41,18,-17
8535,-72,-8,1752,-38,21,-15
8540,-80,0,1744,-36,25,-13
8545,-80,-16,1768,-38,28,-15
8550,-64,-16,1744,-38,26,-16
8555,-16,-16,1776,-38,26,-15
8560,-48,-8,1784,-40,25,-13
8565,-48,-24,1760,-41,26,-13
8570,-48,0,1744,-43,22,-13
8575,-32,-56,1768,-43,21,-14
8580,-16,-16,1752,-42,17,-13
8585,-40,0,1768,-44,14,-14
8590,-32,-24,1800,-43,14,-14
8595,-48,-32,1752,-43,13,-14
8600,-48,-56,1752,-42,9,-13
8605,-32,-16,1760,-38,4,-20
8610,-32,-8,1736,-41,4,-19
8615,-24,-40,1760,-42,4,-19
8620,-48,-24,1776,-46,4,-19
8625,-64,-40,1744,-51,-4,-32
8630,-32,-8,1736,-62,-21,-44
8635,-24,-48,1736,-63,-18,-39
8640,-24,-32,1768,-64,-11,-33
8645,-32,-40,1752,-61,-1,-26
8650,-32,-40,1744,-59,5,-21
8655,-24,-56,1736,-57,7,-19
8660,-56,-8,1752,-57,11,-18
8665,-32,-40,1768,-56,14,-14
8670,-48,-32,1728,-54,14,-14
8675,-64,-32,1720,-55,14,-13
8680,-64,-48,1752,-53,16,-11
8685,-48,-32,1728,-52,18,-12
8690,-80,-32,1744,-50,19,-10
8695,-32,-72,1736,-48,19,-10
8700,-40,-80,1752,-47,18,-9
8705,0,-16,1752,-47,18,-8
8710,-24,-40,1720,-45,16,-9
8715,-40,-40,1752,-45,14,-9
8720,-56,-32,1760,-48,14,-11
8725,-40,-24,1768,-48,13,-11
8730,-32,-40,1728,-48,13,-12
8735,-24,-72,1744,-47,11,-11
8740,-48,-40,1720,-47,10,-12
8745,-72,-8,1728,-49,7,-15
8750,-48,-32,1728,-52,8,-15
8755,-8,-8,1744,-53,8,-12
8760,-40,-48,1712,-57,10,-13
8765,-56,-8,1752,-58,11,-15
8770,-48,-8,1752,-56,10,-15
8775,-64,-8,1776,-57,12,-15
8780,-32,-32,1760,-58,12,-15
8785,-40,-16,1784,-59,13,-15
8790,-40,-24,1760,-56,13,-16
8795,-56,-40,1752,-56,12,-15
8800,-32,-8,1768,-56,13,-12
8805,-56,-32,1736,-53,14,-12
8810,-96,-8,1728,-52,14,-10
8815,-40,-16,1752,-52,14,-11
8820,-56,-8,1760,-53,12,-10
8825,-64,0,1728,-53,12,-11
8830,-24,-32,1768,-52,12,-11
8835,-72,-24,1776,-50,12,-10
8840,-64,-8,1768,-51,12,-10
8845,-40,-24,1736,-52,12,-9
8850,-16,-48,1760,-51,12,-6
8855,-48,-40,1776,-52,11,-8
8860,-32,-48,1776,-52,13,-7
8865,-64,-32,1720,-52,12,-6
8870,-40,-24,1752,-52,11,-6
8875,-8,-72,1768,-52,12,-6
8880,-24,-48,1760,-52,11,-4
8885,-48,-40,1720,-53,10,-4
8890,-24,-40,1744,-55,10,-6
8895,-24,-24,1752,-55,11,-7
8900,-48,-16,1752,-56,12,-8
8905,-48,-24,1760,-57,14,-8
8910,-24,-24,1736,-60,14,-9
8915,-32,-16,1792,-58,13,-9
8920,-24,-40,1680,-58,12,-6
8925,-56,-16,1768,-57,11,-6
8930,-40,-56,1736,-55,11,-5
8935,-32,-32,1768,-55,13,-4
8940,-32,-48,1752,-55,11,-5
8945,-32,-40,1768,-55,12,-6
8950,-32,-56,1752,-53,13,-5
8955,-24,-32,1784,-52,15,-5
8960,-16,-48,1768,-50,15,-7
8965,-16,-56,1768,-46,15,-9
8970,-64,-48,1760,-43,17,-8
8975,-48,-88,1720,-42,17,-8
8980,-32,-48,1752,-42,18,-7
8985,-48,-64,1744,-41,17,-7
8990,-40,-64,1752,-42,16,-7
8995,-56,-48,1736,-44,16,-5
9000,-56,-48,1744,-45,16,-5
9005,-56,-64,1744,-45,16,-4
9010,-56,-40,1752,-44,14,-2
9015,-40,-16,1768,-42,14,-2
9020,-56,-40,1744,-43,13,-2
9025,-72,-8,1728,-42,14,-2
9030,8,-8,1712,-42,12,-2
9035,-48,-16,1720,-41,12,0
9040,-48,-24,1728,-42,10,-1
9045,-40,-16,1728,-42,9,0
9050,-40,-16,1760,-42,9,-1
9055,-32,0,1752,-43,9,-2
9060,-32,-8,1744,-43,9,-2
9065,-32,-16,1728,-43,7,-4
9070,-48,-16,1744,-41,7,-3
9075,-24,-24,1720,-41,7,-4
9080,-32,-24,1728,-40,7,-4
9085,-32,-8,1768,-39,9,-4
9090,-24,-40,1744,-38,10,-3
9095,-32,-40,1728,-39,10,-3
9100,-64,-56,1696,-39,9,-4
9105,-32,-16,1736,-38,11,-6
9110,-48,-24,1704,-41,9,-5
9115,-24,-40,1728,-42,11,-3
9120,-40,-48,1736,-43,10,-3
9125,-48,-40,1752,-45,10,-4
9130,-32,-64,1728,-47,11,-3
9135,-48,-24,1736,-49,12,-4
9140,-40,-48,1752,-49,13,-2
9145,-48,-32,1760,-50,13,-2
9150,-64,-56,1744,-51,13,-2
9155,-40,-64,1736,-52,12,-1
9160,-48,-48,1744,-52,10,-2
9165,-48,-48,1768,-52,12,-1
9170,-32,-40,1752,-50,11,-2
9175,-16,-48,1752,-50,11,-2
9180,-32,-48,1728,-49,11,-2
9185,-56,-32,1752,-48,10,-1
9190,-64,-32,1752,-48,11,-2
9195,-24,-72,1712,-49,12,-1
9200,-40,-48,1736,-47,12,-2
9205,-40,-48,1752,-47,13,-1
9210,-40,0,1744,-47,11,-3
9215,-24,-56,1752,-46,13,-3
9220,-24,-24,1736,-46,12,-3
9225,-32,-40,1760,-46,13,-4
9230,-16,-32,1736,-45,12,-5
9235,-48,-32,1744,-46,12,-6
9240,-32,-8,1744,-46,11,-5
9245,-24,-16,1784,-46,11,-6
9250,-24,-32,1712,-45,9,-6
9255,-56,-40,1744,-46,9,-6
9260,-40,-8,1752,-46,8,-7
9265,-56,-32,1752,-46,9,-5
9270,-40,-48,1720,-46,9,-6
9275,-32,-16,1744,-47,9,-6
9280,-56,-56,1736,-48,9,-5
9285,-24,-56,1736,-48,10,-8
9290,-40,-32,1752,-48,10,-7
9295,-16,-80,1744,-48,10,-7
9300,-56,-80,1776,-49,11,-7
9305,-32,-32,1752,-48,9,-7
9310,-40,-40,1768,-45,8,-8
9315,-40,-32,1752,-45,7,-7
9320,-56,-16,1744,-45,5,-8
9325,-72,-8,1760,-43,2,-8
9330,-32,-32,1784,-43,3,-8
9335,-32,-8,1744,-44,2,-8
9340,-40,-32,1752,-44,2,-6
9345,-56,-24,1736,-44,3,-7
9350,-24,-32,1752,-41,6,-8
9355,-32,16,1808,-41,10,-7
9360,-40,-24,1728,-40,14,-7
9365,-56,-8,1680,-41,19,-6
9370,-32,-16,1760,-41,22,-8
9375,-16,-64,1744,-43,25,-8
9380,-40,-32,1736,-44,27,-7
9385,-24,-40,1696,-46,26,-6
9390,-32,-8,1752,-48,24,-5
9395,-32,-8,1728,-49,22,-5
9400,-40,-24,1752,-50,17,-5
9405,-48,-16,1736,-50,14,-3
9410,-40,-56,1768,-48,11,-3
9415,-48,-48,1744,-48,9,-1
9420,-24,-16,1744,-48,7,-2
9425,-16,-48,1760,-47,5,-1
9430,-32,-40,1752,-47,5,0
9435,-40,-8,1744,-46,6,-2
9440,-32,-32,1744,-47,5,-3
9445,-64,-24,1760,-46,4,-3
9450,-32,-16,1752,-46,5,-4
9455,-40,-40,1744,-45,4,-6
9460,-16,-40,1736,-46,6,-5
9465,-64,-88,1728,-47,8,-7
9470,0,-32,1728,-46,9,-5
9475,-32,-48,1736,-46,9,-6
9480,-32,-32,1760,-44,10,-7
9485,-32,-8,1736,-44,11,-6
9490,-24,-40,1728,-44,12,-6
9495,-24,-24,1744,-43,12,-5
9500,-40,-40,1768,-41,14,-4
9505,-40,-56,1752,-41,16,-5
9510,-24,-56,1728,-42,15,-6
9515,-32,-48,1768,-41,15,-6
9520,-16,-56,1712,-40,16,-6
9525,-24,-16,1744,-40,16,-5
9530,-40,-24,1720,-43,17,-5
9535,-64,-40,1728,-44,15,-5
9540,-56,-8,1760,-46,15,-6
9545,-24,-40,1744,-46,13,-3
9550,-32,-32,1760,-47,13,-2
9555,-32,-32,1728,-48,12,-5
9560,-40,-16,1736,-49,12,-4
9565,-48,-24,1760,-49,12,-6
9570,-24,-24,1712,-51,11,-7
9575,-56,-16,1720,-50,12,-6
9580,-16,-40,1736,-51,12,-6
9585,-32,-32,1760,-52,14,-5
9590,-8,-56,1752,-50,16,-5
9595,-24,-24,1688,-50,17,-2
9600,-16,-64,1728,-50,19,-2
9605,-16,-24,1736,-49,20,-2
9610,-24,-16,1760,-50,22,-3
9615,-8,-40,1728,-48,23,-3
9620,-24,-32,1776,-47,23,-4
9625,-8,-56,1752,-49,23,-4
9630,-32,-32,1712,-49,25,-5
9635,-32,-32,1760,-46,26,-6
9640,-40,-64,1760,-44,26,-7
9645,-40,-64,1768,-40,22,-7
9650,-24,-56,1760,-38,21,-6
9655,-40,-32,1768,-39,18,-6
9660,-48,-32,1744,-40,17,-5
9665,-56,-48,1736,-43,16,-6
9670,-40,-24,1720,-46,14,-6
9675,-48,-24,1712,-50,12,-5
9680,-24,-120,1752,-52,11,-4
9685,-32,-24,1720,-54,10,-2
9690,-32,-32,1736,-55,10,-2
9695,-56,-8,1752,-55,12,-3
9700,-48,-8,1736,-56,11,-3
9705,-16,-16,1744,-57,13,-4
9710,-24,-32,1760,-55,14,-5
9715,-8,-40,1752,-53,16,-4
9720,-40,-16,1752,-52,17,-6
9725,-48,-8,1736,-52,17,-5
9730,-56,-32,1736,-48,18,-6
9735,0,-16,1736,-48,17,-6
9740,-40,0,1752,-45,16,-6
9745,-32,-8,1712,-41,15,-5
9750,-40,-24,1752,-42,15,-5
9755,-32,-16,1728,-39,15,-5
9760,-48,-32,1760,-39,14,-4
9765,-40,-24,1728,-40,13,-2
9770,-16,-56,1736,-43,12,-3
9775,-40,-48,1712,-46,13,-5
9780,-24,-16,1768,-47,13,-5
9785,-24,-40,1768,-50,12,-6
9790,-24,-16,1824,-53,14,-6
9795,-40,-16,1744,-54,14,-6
9800,-48,-32,1744,-55,13,-4
9805,-48,-24,1752,-58,14,-5
9810,-40,-24,1728,-58,15,-3
9815,-64,-8,1752,-57,16,-4
9820,-24,-48,1736,-57,15,-4
9825,-48,-32,1760,-56,16,-3
9830,-16,-48,1736,-56,16,-4
9835,-16,-48,1768,-55,17,-4
9840,-56,-48,1736,-54,16,-4
9845,8,-64,1728,-53,16,-4
9850,-32,-56,1736,-55,16,-4
9855,-24,-40,1744,-53,16,-3
9860,-56,-32,1744,-52,15,-2
9865,-24,-40,1736,-51,16,-3
9870,-32,-48,1760,-51,15,-3
9875,-32,-32,1712,-51,15,-3
9880,-24,-56,1752,-52,13,-3
9885,-40,-16,1728,-52,13,-3
9890,-32,-48,1752,-53,14,-5
9895,-32,-48,1776,-53,13,-5
9900,-72,8,1752,-54,15,-6
9905,-16,-32,1744,-54,14,-6
9910,-32,-40,1760,-53,14,-6
9915,-24,-32,1744,-53,14,-6
9920,-24,-40,1728,-52,13,-5
9925,-48,-24,1752,-50,14,-6
9930,-40,-48,1744,-47,16,-4
9935,-64,-40,1728,-45,16,-6
9940,-24,-48,1768,-44,17,-6
9945,-40,-56,1744,-42,16,-7
9950,-32,-16,1752,-43,15,-8
9955,-24,-80,1736,-43,17,-7
9960,-32,-56,1752,-43,17,-7
9965,-32,-56,1752,-44,16,-6
9970,-24,-48,1752,-43,15,-4
9975,-48,-48,1736,-46,14,-5
9980,-48,-16,1744,-47,15,-5
9985,-16,-32,1736,-49,15,-6
9990,-48,0,1696,-49,16,-6
9995,-40,-32,1760,-49,15,-6
10000,-48,-32,1720,-48,17,-6
10005,-40,-56,1744,-46,17,-5
10010,-56,-80,1712,-47,19,-5
10015,-48,-8,1744,-44,19,-4
10020,-16,-16,1760,-42,20,-5
10025,-32,-16,1728,-40,21,-5
10030,-40,-32,1712,-39,20,-5
10035,-40,-24,1728,-38,20,-4
10040,-32,-56,1744,-36,21,-5
10045,-32,-48,1752,-35,21,-5
10050,-32,-48,1720,-35,19,-5
10055,-40,-8,1720,-35,19,-6
10060,-32,-16,1720,-34,20,-6
10065,-64,-96,1712,-36,19,-5
10070,-40,-8,1744,-36,19,-5
10075,-8,-56,1712,-38,19,-3
10080,-32,-24,1752,-41,20,-3
10085,-40,-40,1704,-41,19,-3
10090,-32,-48,1736,-41,18,-4
10095,-32,-56,1712,-45,17,-6
10100,-8,-64,1744,-45,18,-5
10105,-40,-48,1752,-47,17,-4
10110,-56,-16,1760,-46,17,-4
10115,-56,-40,1760,-46,17,-5
10120,-40,-24,1760,-46,16,-7
10125,-32,-32,1760,-43,16,-6
10130,-48,-48,1752,-44,16,-6
10135,-48,-56,1768,-42,16,-7
10140,-40,-48,1728,-41,16,-6
10145,-24,-24,1768,-41,16,-6
10150,-32,-40,1696,-40,17,-4
10155,-40,-32,1776,-41,17,-4
10160,-8,-56,1744,-41,17,-4
10165,-40,-56,1736,-40,19,-3
10170,0,-56,1816,-40,19,-4
10175,-24,-32,1744,-40,20,-4
10180,-32,-40,1728,-42,20,-3
10185,-32,-40,1728,-42,21,-3
10190,-24,-40,1744,-42,21,-4
10195,-32,-8,1784,-42,21,-4
10200,-16,-16,1744,-43,21,-3
10205,-24,-56,1728,-44,21,-3
10210,-40,-56,1752,-45,21,-3
10215,-56,-32,1768,-44,18,-3
10220,-48,-16,1744,-45,19,-2
10225,24,0,1696,-45,17,-2
10230,-56,-16,1760,-47,15,-3
10235,-32,-40,1760,-49,14,-3
10240,-40,-24,1736,-49,15,-3
10245,-32,-16,1744,-49,13,-4
10250,-32,-16,1744,-51,14,-6
10255,-40,-16,1720,-52,14,-6
10260,-32,-32,1776,-52,14,-6
10265,-32,-24,1760,-51,16,-5
10270,-32,-40,1728,-50,17,-5
10275,-48,-24,1736,-49,19,-3
10280,-16,-56,1720,-46,21,-4
10285,24,-32,1760,-45,24,-1
10290,-8,-48,1728,-42,26,-1
10295,-24,-32,1744,-43,29,-3
10300,-32,-64,1744,-44,28,-4
10305,-24,-48,1728,-43,29,-5
10310,-24,-64,1752,-43,28,-4
10315,-32,-56,1720,-43,28,-5
10320,-16,-72,1760,-43,25,-6
10325,-32,-56,1768,-40,23,-6
10330,0,-56,1744,-38,19,-7
10335,-48,-72,1728,-40,18,-7
10340,-40,-64,1736,-41,15,-5
10345,-24,-56,1744,-44,13,-6
10350,-24,-8,1720,-47,12,-6
10355,-24,-48,1736,-49,11,-4
10360,-32,-64,1768,-50,11,-5
10365,-40,-40,1720,-52,13,-5
10370,-24,-48,1736,-54,14,-3
10375,-40,-8,1720,-53,15,-3
10380,-40,-32,1728,-53,18,-3
10385,-16,-48,1728,-51,20,-3
10390,-16,-64,1712,-51,22,-2
10395,-32,-24,1744,-48,22,-3
10400,-40,-32,1728,-47,23,-4
10405,-48,-48,1744,-44,24,-3
10410,-32,-16,1760,-42,23,-3
10415,-48,-16,1776,-39,21,-2
10420,-24,-24,1736,-37,21,-5
10425,-48,-48,1744,-35,20,-4
10430,-24,-40,1744,-35,18,-5
10435,-32,-24,1752,-36,17,-4
10440,-48,-16,1696,-37,15,-4
10445,-64,-72,1792,-39,15,-5
10450,-16,-32,1688,-41,15,-4
10455,-24,-56,1752,-43,15,-6
10460,-48,-24,1776,-45,15,-6
10465,-40,-48,1744,-50,16,-5
10470,-48,-24,1736,-52,16,-5
10475,-32,-72,1728,-53,16,-5
10480,-24,-32,1752,-54,16,-3
10485,-24,-56,1776,-55,17,-5
10490,-24,-16,1760,-54,17,-4
10495,-48,-16,1736,-53,20,-4
10500,-40,-16,1704,-51,19,-4
10505,-48,-48,1752,-50,21,-4
10510,-40,-48,1776,-49,19,-4
10515,-40,-56,1768,-46,19,-4
10520,-40,-56,1728,-45,19,-3
10525,-56,-32,1760,-43,19,-4
10530,-40,-16,1768,-43,19,-3
10535,-40,-24,1744,-43,18,-4
10540,-32,-16,1760,-42,19,-3
10545,-40,-72,1768,-43,18,-1
10550,-40,-32,1760,-43,17,-2
10555,0,0,1752,-44,15,-2
10560,-32,-64,1744,-45,15,-3
10565,-32,-64,1728,-46,14,-2
10570,-24,-56,1752,-48,14,-4
10575,-40,-32,1728,-49,13,-4
10580,-8,-56,1728,-50,13,-5
10585,8,-80,1744,-50,13,-6
10590,-16,-48,1784,-50,13,-5
10595,-48,-56,1744,-49,15,-5
10600,-64,-48,1768,-49,14,-5
10605,-32,-24,1720,-49,15,-6
10610,-64,-32,1800,-46,15,-4
10615,-48,-64,1744,-46,16,-4
10620,-40,-24,1744,-45,17,-5
10625,-32,-56,1768,-44,18,-6
10630,-48,-64,1728,-44,18,-5
10635,-48,-40,1736,-44,19,-6
10640,-48,-32,1760,-42,19,-7
10645,-56,-24,1728,-43,19,-5
10650,-32,-56,1752,-44,20,-7
10655,-16,-56,1736,-45,19,-5
10660,-40,-56,1760,-47,17,-6
10665,-40,-40,1768,-48,17,-6
10670,-48,-32,1728,-50,16,-5
10675,-32,-24,1768,-50,17,-5
10680,-32,-16,1728,-51,16,-6
10685,-24,-32,1720,-49,16,-4
10690,-24,-16,1760,-50,16,-4
10695,-48,-48,1760,-49,16,-4
10700,-16,-56,1760,-49,17,-6
10705,-64,-24,1760,-46,16,-6
10710,-16,-64,1720,-44,16,-6
10715,0,-32,1760,-43,17,-6
10720,-48,-48,1712,-44,16,-5
10725,-48,-32,1760,-43,17,-3
10730,-32,-64,1736,-42,16,-5
10735,-24,-16,1752,-42,16,-5
10740,-32,-8,1704,-42,17,-5
10745,-32,-56,1728,-44,17,-6
10750,-56,-56,1736,-44,18,-4
10755,-40,-32,1712,-46,18,-4
10760,-64,-40,1752,-47,18,-3
10765,-56,-56,1768,-48,18,-4
10770,-24,-16,1720,-48,17,-3
10775,-32,8,1752,-50,17,-5
10780,-32,-56,1728,-50,18,-4
10785,-56,-48,1720,-51,18,-5
10790,-32,-48,1752,-49,17,-3
10795,-32,-48,1760,-48,17,-3
10800,-40,-48,1744,-48,16,-2
10805,-24,-56,1736,-46,18,-3
10810,-24,-32,1720,-46,18,-3
10815,-56,-16,1760,-44,17,-5
10820,-24,-64,1760,-45,16,-5
10825,-8,-48,1680,-43,15,-6
10830,-48,-32,1744,-42,16,-5
10835,-24,-32,1752,-40,16,-6
10840,-48,-32,1728,-41,16,-6
10845,-24,-64,1712,-40,15,-4
10850,-24,-24,1736,-42,16,-3
10855,-40,-32,1728,-42,16,-4
10860,-40,-64,1736,-42,17,-5
10865,-16,-48,1744,-44,17,-5
10870,-40,-16,1760,-42,18,-4
10875,-64,-56,1712,-42,17,-3
10880,-24,-8,1744,-43,17,-4
10885,-24,-16,1744,-44,17,-4
10890,-32,-48,1752,-44,18,-4
10895,-48,-56,1776,-46,17,-3
10900,-48,-48,1728,-47,17,-3
10905,-32,-64,1752,-44,18,-3
10910,-16,-40,1728,-45,19,-2
10915,-64,-40,1736,-44,17,-3
10920,-40,-48,1776,-46,16,-1
10925,-48,-32,1720,-47,15,-1
10930,-48,-48,1768,-49,14,-1
10935,-32,8,1776,-51,15,-3
10940,-32,-8,1744,-49,15,-5
10945,-56,-32,1744,-50,14,-6
10950,-32,-8,1728,-51,15,-6
10955,-8,-16,1760,-49,14,-7
10960,-16,-32,1728,-50,14,-8
10965,-32,-24,1704,-51,16,-7
10970,-32,-40,1768,-52,17,-6
10975,-16,-8,1768,-51,18,-6
10980,-24,-24,1760,-50,19,-5
10985,-16,-72,1720,-49,21,-4
10990,-80,-8,1728,-48,21,-3
10995,-40,-40,1744,-47,23,-4
11000,-48,-48,1736,-46,23,-4
11005,-40,-48,1720,-46,24,-5
11010,-48,-32,1792,-45,27,-5
11015,-32,-56,1752,-43,26,-6
11020,-32,-56,1728,-40,23,-6
11025,-32,-88,1744,-36,23,-6
11030,-40,-56,1760,-34,21,-7
11035,-32,-72,1736,-35,19,-6
11040,-24,-40,1720,-36,19,-7
11045,-56,-64,1768,-36,15,-5
11050,-32,-64,1712,-38,15,-6
11055,-40,-40,1744,-40,14,-6
11060,-32,-40,1712,-41,14,-4
11065,-32,-16,1736,-45,14,-5
11070,-32,-48,1696,-48,15,-5
11075,-40,-56,1736,-49,16,-4
11080,-24,-8,1720,-52,16,-4
11085,-48,-48,1736,-52,18,-3
11090,-16,-32,1752,-51,20,-4
11095,-64,0,1728,-51,20,-4
11100,-32,-16,1744,-51,22,-4
11105,-8,-32,1736,-48,22,-2
11110,-32,-32,1744,-43,21,-4
11115,-32,-32,1728,-39,20,-4
11120,-16,-40,1760,-39,20,-4
11125,-40,-24,1744,-34,19,-5
11130,-48,-32,1744,-32,17,-4
11135,-64,-8,1744,-33,15,-3
11140,-56,-40,1768,-35,14,-7
11145,-32,-48,1728,-36,12,-4
11150,-48,-24,1728,-40,12,-5
11155,-32,-32,1744,-43,12,-5
11160,-64,-40,1736,-46,12,-5
11165,-16,-48,1712,-48,12,-4
11170,-48,-32,1736,-49,13,-4
11175,-32,-16,1768,-50,15,-5
11180,-32,-48,1736,-53,15,-5
11185,-48,-32,1736,-54,16,-4
11190,-48,-24,1768,-53,18,-3
11195,-48,-64,1728,-52,18,-5
11200,-32,-40,1752,-53,19,-4
11205,-72,-64,1728,-52,20,-5
11210,-40,-40,1720,-50,20,-5
11215,-32,-64,1736,-49,20,-6
11220,-40,-48,1744,-47,20,-5
11225,-40,-64,1752,-45,19,-4
11230,-24,-56,1760,-45,19,-3
11235,-24,-72,1728,-43,18,-3
11240,-24,-48,1728,-43,17,-3
11245,-48,-16,1744,-44,17,-3
11250,-48,-56,1760,-42,17,-3
11255,-72,-24,1760,-41,16,-3
11260,-48,-48,1752,-44,16,-4
11265,-24,-48,1752,-44,14,-5
11270,-40,-40,1704,-45,13,-5
11275,-56,-24,1736,-46,13,-4
11280,-24,-56,1720,-44,13,-6
11285,-32,-48,1744,-46,14,-6
11290,-48,-8,1728,-47,13,-5
11295,-32,-56,1736,-45,15,-5
11300,-40,-32,1736,-45,15,-5
11305,-24,-72,1752,-44,16,-6
11310,-40,-88,1768,-43,16,-6
11315,-56,-56,1712,-43,17,-6
11320,-40,-48,1760,-42,18,-5
11325,-48,-56,1744,-43,19,-4
11330,-40,-56,1776,-43,19,-5
11335,-32,-48,1776,-44,19,-6
11340,-32,-40,1760,-43,17,-5
11345,-16,-40,1744,-44,19,-5
11350,-16,-48,1776,-44,19,-6
11355,-32,-64,1752,-47,20,-5
11360,-16,-16,1752,-48,19,-6
11365,-16,-24,1720,-50,19,-5
11370,-24,-8,1728,-51,18,-6
11375,-24,-24,1744,-52,17,-7
11380,-32,-32,1760,-52,16,-5
11385,-24,-16,1728,-50,16,-4
11390,-40,-24,1704,-49,16,-4
11395,-16,-40,1704,-48,17,-3
11400,-16,-32,1736,-47,17,-4
11405,-56,-32,1736,-46,16,-4
11410,-40,-24,1712,-42,18,-3
11415,-16,-32,1728,-43,19,-2
11420,-32,-48,1704,-41,21,-4
11425,8,-32,1752,-41,21,-4
11430,-40,-48,1768,-40,21,-4
11435,-32,-56,1744,-39,22,-5
11440,-32,-24,1728,-41,23,-4
11445,-16,-72,1744,-42,23,-4
11450,-16,-64,1736,-39,24,-3
11455,-32,-40,1728,-40,24,-2
11460,-32,-48,1768,-41,24,-1
11465,0,-56,1744,-41,24,-1
11470,-24,-32,1736,-42,24,-2
11475,-32,-48,1776,-43,25,-1
11480,-32,-24,1728,-43,24,-1
11485,-32,-24,1728,-42,25,1
11490,-24,-64,1744,-44,26,1
11495,-48,-56,1768,-43,28,1
11500,-24,-40,1744,-44,29,0
11505,-32,-72,1736,-45,29,0
11510,-40,-56,1752,-47,31,0
11515,-24,-40,1736,-46,31,0
11520,-24,-56,1728,-45,32,0
11525,-56,-16,1720,-45,33,-3
11530,-40,-32,1744,-47,32,-3
11535,-24,-56,1712,-46,31,-3
11540,-8,-80,1752,-47,31,-4
11545,-32,-56,1728,-47,29,-5
11550,-48,-24,1760,-45,29,-7
11555,-40,-32,1752,-46,27,-8
11560,-40,-40,1728,-45,26,-7
11565,-56,-24,1744,-43,24,-10
11570,-24,-56,1760,-43,23,-11
11575,-48,-40,1720,-41,20,-11
11580,-56,0,1728,-40,20,-10
11585,-72,-48,1728,-40,19,-11
11590,-88,-32,1736,-39,19,-13
11595,-72,-24,1744,-40,17,-13
11600,-88,-24,1736,-38,17,-13
11605,-88,-16,1720,-40,16,-13
11610,-80,-24,1760,-41,15,-13
11615,-72,-40,1752,-41,14,-14
11620,-56,-24,1760,-42,14,-14
11625,-72,-16,1760,-40,13,-15
11630,-56,-64,1776,-43,12,-15
11635,-64,-40,1704,-43,10,-15
11640,-72,-8,1760,-42,9,-15
11645,-48,-80,1768,-45,8,-14
11650,-56,-48,1768,-44,6,-13
11655,-72,-8,1744,-44,5,-14
11660,-64,-40,1720,-44,5,-13
11665,-48,-32,1752,-44,4,-12
11670,-56,-40,1744,-44,4,-12
11675,-40,-32,1768,-44,4,-11
11680,-56,-56,1760,-42,4,-11
11685,-40,-40,1744,-42,4,-9
11690,-40,-40,1744,-41,4,-8
11695,-88,-24,1792,-43,6,-7
11700,-56,-48,1736,-44,8,-6
11705,-40,-40,1760,-44,8,-4
11710,-16,-40,1752,-44,10,-4
11715,-48,-24,1744,-44,10,-2
11720,-32,-24,1720,-46,9,-1
11725,-40,-8,1768,-47,11,1
11730,-32,-40,1720,-47,10,1
11735,-32,-32,1720,-47,8,2
11740,-16,-40,1768,-49,9,1
11745,-24,-40,1752,-50,8,1
11750,24,-64,1800,-49,7,0
11755,-16,-24,1784,-51,7,1
11760,-16,-48,1784,-53,10,0
11765,-8,-72,1744,-51,9,0
11770,8,-32,1728,-50,12,1
11775,-32,-16,1704,-50,11,2
11780,-40,-48,1720,-51,13,2
11785,-24,-24,1776,-49,13,2
11790,-40,-8,1736,-46,13,0
11795,-32,-32,1736,-46,13,-2
11800,-24,-48,1744,-48,13,-3
11805,-40,-16,1760,-47,16,-4
11810,-40,-72,1784,-45,17,-5
11815,-32,-48,1760,-43,17,-7
11820,-64,-72,1744,-38,18,-7
11825,-8,-64,1720,-35,16,-7
11830,-8,-56,1736,-33,15,-8
11835,-16,-88,1760,-32,16,-9
11840,-24,-40,1728,-32,15,-8
11845,-40,-64,1736,-32,14,-8
11850,-24,-64,1752,-35,13,-9
11855,-24,-40,1736,-39,12,-8
11860,-64,-32,1720,-43,13,-9
11865,-8,-24,1704,-46,14,-8
11870,-32,-32,1744,-48,15,-8
11875,-32,-8,1736,-52,15,-7
11880,-32,0,1760,-55,16,-6
11885,-24,0,1752,-58,18,-6
11890,-16,-16,1736,-59,18,-6
11895,-40,-16,1776,-56,21,-5
11900,-8,-8,1736,-57,22,-7
11905,-32,-8,1736,-55,21,-6
11910,-48,-32,1744,-52,20,-5
11915,-16,-24,1784,-48,22,-5
11920,-48,-32,1744,-45,22,-6
11925,-40,-16,1776,-42,21,-5
11930,-32,-32,1752,-38,22,-5
11935,-40,-56,1752,-36,22,-4
11940,-32,-32,1760,-36,23,-3
11945,-16,-24,1760,-39,22,-4
11950,-32,0,1736,-40,20,-4
11955,-32,-24,1712,-42,20,-4
11960,-24,-64,1736,-46,21,-3
11965,-40,-24,1728,-47,21,-3
11970,-56,8,1760,-50,22,-3
11975,-16,-48,1776,-51,22,-3
11980,-32,-40,1720,-53,21,-3
11985,-24,-56,1752,-54,22,-1
11990,-32,-48,1712,-56,22,-3
11995,-56,-56,1712,-58,20,-2
12000,-40,-32,1760,-58,19,-1
12005,-32,-40,1728,-58,19,-1
12010,-72,-32,1736,-58,20,-2
12015,-40,-32,1768,-58,18,-2
12020,-80,-40,1752,-58,19,-1
12025,-56,-48,1736,-56,19,-1
12030,-32,-72,1736,-56,18,-1
12035,-72,0,1752,-53,19,0
12040,-56,-72,1760,-52,18,0
12045,-40,-56,1712,-51,18,0
12050,-32,-24,1720,-49,18,0
12055,-56,-48,1744,-48,19,0
12060,-56,-40,1720,-47,19,0
12065,-48,-72,1736,-47,19,-1
12070,-40,-24,1736,-45,19,-1
12075,-56,-48,1752,-45,19,-2
12080,-40,-64,1688,-47,19,-3
12085,-16,-72,1728,-45,19,-4
12090,-64,-32,1712,-46,18,-5
12095,-32,-16,1712,-46,18,-5
12100,-56,-48,1704,-47,18,-6
12105,-48,-48,1720,-47,17,-4
12110,-32,-48,1736,-47,17,-5
12115,-32,-16,1760,-46,17,-5
12120,-72,-48,1720,-46,16,-5
12125,-56,-8,1744,-46,16,-6
12130,-56,-32,1720,-46,15,-6
12135,-24,-48,1720,-46,15,-7
12140,-32,-48,1728,-45,16,-7
12145,-56,-40,1744,-45,15,-6
12150,-56,-24,1728,-45,15,-7
12155,-24,-40,1736,-46,16,-7
12160,-48,-40,1736,-47,17,-6
12165,-48,-16,1768,-48,16,-8
12170,-24,-56,1728,-48,16,-9
12175,-32,-32,1736,-49,16,-9
12180,-48,-48,1752,-49,16,-9
12185,-8,-16,1792,-50,16,-8
12190,-56,-16,1704,-51,18,-8
12195,-32,-24,1744,-52,17,-8
12200,-40,-16,1736,-51,18,-9
12205,-48,0,1744,-50,17,-8
12210,-24,-40,1736,-49,19,-10
12215,-56,-16,1784,-49,20,-9
12220,8,-64,1768,-49,19,-7
12225,-56,-8,1744,-47,20,-7
12230,-48,-40,1760,-46,21,-6
12235,-48,-48,1728,-46,22,-8
12240,-40,-56,1720,-44,23,-7
12245,-24,-32,1720,-44,23,-6
12250,-16,-56,1752,-45,23,-7
12255,-40,-48,1720,-46,24,-7
12260,-24,-40,1712,-47,24,-8
12265,-32,-56,1752,-51,24,-6
12270,-32,-40,1752,-52,22,-6
12275,-40,-40,1752,-54,20,-5
12280,-32,-40,1760,-55,19,-5
12285,-32,-64,1760,-57,17,-5
12290,-24,-56,1744,-57,14,-4
12295,-24,-8,1736,-58,14,-4
12300,-16,-48,1784,-58,12,-5
12305,-32,-40,1752,-59,11,-3
12310,-56,-56,1728,-57,10,-4
12315,-40,-24,1752,-57,10,-4
12320,-40,-48,1720,-56,11,-4
12325,-24,-40,1736,-52,12,-4
12330,-48,-48,1744,-53,14,-5
12335,-8,-64,1736,-52,13,-4
12340,-8,-64,1728,-49,15,-3
12345,-24,-40,1712,-47,17,-4
12350,0,-32,1736,-46,18,-3
12355,-32,-48,1744,-46,20,-3
12360,-48,-24,1728,-44,19,-5
12365,-48,-64,1760,-42,21,-2
12370,-40,-48,1728,-43,21,-3
12375,-48,-24,1752,-45,21,-2
12380,-32,-24,1736,-46,20,-2
12385,-40,-40,1744,-46,20,-1
12390,-40,-48,1728,-47,21,-2
12395,-40,-48,1744,-48,20,-3
12400,-64,-24,1752,-51,19,-2
12405,-40,-64,1760,-50,19,-4
12410,-32,-40,1736,-51,18,-3
12415,-56,-32,1728,-53,18,-3
12420,-32,-48,1760,-55,18,-2
12425,-56,-40,1760,-55,17,-4
12430,-48,-24,1728,-56,16,-3
12435,-56,-48,1736,-55,16,-3
12440,-40,-48,1760,-52,16,-3
12445,-48,-48,1776,-54,15,-5
12450,-40,0,1800,-54,14,-4
12455,-40,-80,1736,-53,15,-2
12460,-24,-48,1720,-51,15,-4
12465,-48,-40,1736,-50,16,-4
12470,-56,-32,1744,-50,17,-5
12475,-24,-32,1744,-48,17,-4
12480,-40,-16,1768,-46,16,-4
12485,-32,-40,1736,-47,17,-5
12490,-56,-32,1728,-45,16,-5
12495,-24,-40,1752,-46,17,-7
12500,-40,-56,1744,-45,17,-8
12505,-40,-48,1736,-46,15,-5
12510,-32,-40,1760,-44,15,-6
12515,-64,-24,1744,-46,13,-6
12520,-32,-56,1752,-47,14,-7
12525,-40,-56,1744,-48,12,-7
12530,-40,-32,1744,-48,14,-7
12535,-24,-48,1736,-49,12,-6
12540,-40,-40,1720,-51,13,-8
12545,-48,-40,1752,-50,13,-7
12550,-32,-48,1744,-51,14,-5
12555,-16,-56,1760,-51,15,-5
12560,-40,-64,1752,-52,16,-5
12565,-24,-64,1760,-51,15,-6
12570,-24,-72,1720,-52,15,-5
12575,-40,-48,1744,-52,15,-4
12580,-40,-24,1744,-51,14,-2
12585,-48,-64,1760,-52,14,-4
12590,-48,-16,1736,-52,13,-3
12595,-48,-16,1736,-52,13,-4
12600,-32,-56,1760,-53,12,-4
12605,-16,-24,1768,-52,11,-6
12610,-56,-40,1744,-52,10,-6
12615,-40,-48,1768,-52,10,-6
12620,-48,-56,1752,-52,13,-6
12625,-48,-32,1808,-51,12,-5
12630,-56,-40,1752,-49,13,-6
12635,-24,-56,1752,-48,15,-5
12640,-32,-32,1728,-45,14,-5
12645,-40,-16,1760,-43,15,-4
12650,-8,-40,1720,-40,17,-4
12655,-16,-48,1728,-40,17,-3
12660,-8,-72,1744,-38,18,-5
12665,-32,-32,1720,-36,18,-5
12670,-56,-32,1752,-36,19,-6
12675,-32,-56,1784,-37,20,-7
12680,-56,-88,1744,-35,22,-8
12685,-32,-56,1744,-33,22,-8
12690,-48,-56,1728,-31,21,-8
12695,-32,-72,1760,-29,20,-9
12700,-48,-56,1752,-26,19,-8
12705,-16,-80,1720,-27,18,-9
12710,-64,-64,1736,-28,16,-7
12715,-32,-64,1728,-33,14,-6
12720,-56,-32,1704,-35,13,-4
12725,-48,-48,1696,-35,12,-5
12730,-32,-16,1688,-38,11,-4
12735,-32,-40,1736,-41,11,-3
12740,-40,-24,1720,-42,12,-2
12745,-32,-48,1736,-44,10,-3
12750,-32,-40,1752,-42,13,-2
12755,-48,-16,1712,-43,13,-2
12760,-24,-32,1728,-44,12,-2
12765,-24,-56,1712,-42,13,-3
12770,-24,-32,1776,-42,13,-2
12775,-16,-24,1752,-40,14,-2
12780,-32,-32,1736,-38,14,-3
12785,-8,-24,1696,-36,14,-3
12790,-48,-40,1752,-33,13,-4
12795,-40,-40,1744,-30,14,-6
12800,-24,-24,1728,-29,13,-6
12805,-32,-32,1712,-27,12,-7
12810,-40,-56,1720,-25,12,-7
12815,-40,-48,1736,-26,12,-7
12820,-64,-32,1752,-28,11,-6
12825,-48,-48,1712,-29,10,-6
12830,-32,-88,1736,-31,12,-4
12835,-56,-32,1752,-33,10,-5
12840,-24,-40,1752,-37,10,-4
12845,-32,-16,1736,-41,10,-5
12850,-40,-56,1720,-42,10,-2
12855,-24,-56,1752,-45,10,-3
12860,-24,-72,1752,-47,11,-3
12865,-48,-48,1728,-48,13,-3
12870,-48,-56,1760,-48,12,-2
12875,-56,-32,1728,-48,12,-1
12880,-48,-40,1760,-49,14,-2
12885,-40,-40,1720,-50,14,-2
12890,-24,-48,1704,-50,14,-2
12895,0,-72,1744,-49,14,-2
12900,-56,-24,1736,-47,14,-2
12905,-48,-24,1760,-46,14,0
12910,-32,-48,1768,-45,13,-1
12915,-32,-16,1728,-44,13,-2
12920,-24,-64,1744,-42,13,-1
12925,-48,-64,1728,-42,12,-2
12930,-64,-16,1704,-41,13,-1
12935,-32,-16,1720,-39,13,-1
12940,-56,-40,1744,-39,12,-3
12945,-24,-40,1728,-38,12,-4
12950,-40,-48,1736,-40,11,-4
12955,-48,-8,1728,-39,12,-5
12960,-48,-48,1720,-39,12,-6
12965,-40,-32,1760,-41,11,-6
12970,-24,-32,1752,-38,11,-6
12975,-64,-40,1728,-40,12,-6
12980,-24,-56,1728,-40,11,-7
12985,-24,-40,1768,-40,12,-7
12990,-16,-40,1760,-41,12,-7
12995,-24,-32,1728,-43,12,-8
13000,-32,-64,1760,-43,13,-7
13005,-16,-32,1720,-44,13,-8
13010,-40,-24,1768,-45,14,-7
13015,-40,-56,1792,-45,13,-7
13020,-24,-24,1736,-46,14,-9
13025,-56,-48,1768,-45,15,-9
13030,-40,-32,1752,-46,16,-10
13035,-64,-16,1736,-44,15,-10
13040,-40,-24,1752,-43,15,-11
13045,-24,-24,1744,-44,15,-11
13050,-40,-32,1760,-42,14,-10
13055,-32,0,1768,-41,15,-11
13060,16,-64,1768,-38,17,-9
13065,-40,-32,1728,-36,16,-10
13070,-24,-16,1776,-33,17,-10
13075,-32,-32,1712,-32,17,-11
13080,-48,-32,1728,-30,17,-11
13085,-32,-24,1736,-30,18,-11
13090,-40,-48,1760,-30,17,-9
13095,-32,-48,1736,-30,16,-7
13100,-32,-24,1776,-30,15,-8
13105,-56,-24,1760,-32,14,-8
13110,-40,-40,1736,-31,14,-9
13115,-64,-48,1768,-32,12,-8
13120,-24,-48,1728,-35,12,-8
13125,-16,-64,1744,-34,13,-8
13130,-24,-32,1752,-36,13,-7
13135,-24,-16,1720,-36,13,-7
13140,-32,-40,1736,-37,13,-7
13145,-80,-8,1752,-39,13,-7
13150,-32,-24,1728,-41,13,-5
13155,-16,-24,1752,-42,13,-7
13160,-56,-64,1752,-43,13,-8
13165,-40,-64,1728,-43,12,-8
13170,-8,-24,1784,-43,13,-6
13175,-32,-48,1744,-47,13,-7
13180,-40,-40,1720,-47,14,-7
13185,-16,-16,1736,-44,15,-6
13190,-32,-32,1720,-44,15,-6
13195,-24,-40,1744,-41,15,-6
13200,-32,-56,1768,-42,15,-7
13205,-24,-24,1720,-40,15,-7
13210,-56,-40,1736,-40,15,-6
13215,-8,-24,1784,-37,14,-5
13220,-48,-56,1760,-37,13,-5
13225,-48,-32,1752,-36,14,-7
13230,0,-80,1768,-34,14,-5
13235,-24,-56,1736,-33,14,-5
13240,-24,-32,1720,-34,13,-5
13245,-32,-16,1736,-33,14,-6
13250,-24,-8,1736,-32,13,-7
13255,-40,-24,1736,-34,11,-6
13260,-24,-32,1768,-35,13,-5
13265,-24,-24,1760,-36,13,-5
13270,-24,-32,1736,-35,13,-4
13275,-16,-32,1736,-41,14,-5
13280,-8,-48,1744,-41,14,-4
13285,-24,-40,1760,-44,15,-5
13290,0,-24,1768,-43,14,-4
13295,-32,-32,1736,-44,14,-6
13300,-32,-16,1744,-46,15,-5
13305,-16,-48,1744,-47,15,-4
13310,-16,-72,1784,-47,15,-4
13315,-40,-24,1736,-49,14,-5
13320,-32,-40,1744,-50,15,-5
13325,-32,-24,1760,-50,14,-5
13330,-8,-40,1752,-48,16,-5
13335,-40,-40,1736,-48,14,-6
13340,-40,-16,1752,-48,14,-7
13345,-32,-40,1728,-45,13,-7
13350,-8,-72,1752,-47,13,-8
13355,-32,-56,1736,-44,11,-8
13360,-48,-24,1776,-41,13,-6
13365,-8,-48,1768,-40,11,-7
13370,-16,-56,1768,-38,11,-6
13375,-48,-32,1744,-38,9,-6
13380,-56,-16,1744,-39,9,-6
13385,-24,-32,1752,-38,11,-6
13390,-24,-48,1752,-39,13,-5
13395,-24,-40,1736,-38,12,-5
13400,-24,-48,1744,-39,12,-5
13405,-48,-40,1752,-40,13,-5
13410,-40,-32,1744,-39,14,-4
13415,-56,0,1720,-41,15,-4
13420,-32,-40,1736,-40,16,-5
13425,-40,-24,1744,-40,17,-3
13430,-24,-56,1752,-42,16,-3
13435,-32,-32,1720,-44,16,-1
13440,-8,-56,1776,-45,14,-1
13445,-16,-64,1768,-47,14,-3
13450,-24,-48,1768,-47,13,-2
13455,-24,-72,1768,-49,12,-2
13460,-8,-48,1760,-47,11,-2
13465,-40,-24,1736,-50,10,-2
13470,-32,-16,1752,-49,8,-5
13475,-8,-56,1728,-49,9,-6
13480,-24,-40,1752,-50,9,-5
13485,-16,0,1744,-51,9,-6
13490,-32,-24,1744,-50,10,-7
13495,-40,-48,1688,-48,11,-7
13500,-8,-40,1728,-45,14,-6
13505,-8,-56,1752,-42,15,-4
13510,-40,-24,1760,-41,17,-3
13515,-40,-48,1736,-41,19,-4
13520,-24,-16,1752,-37,18,-3
13525,-48,-24,1744,-38,20,-3
13530,-24,-64,1752,-38,21,-4
13535,-16,-40,1752,-38,20,-7
13540,-48,-40,1744,-41,22,-5
13545,-32,-56,1760,-40,23,-6
13550,-8,-96,1760,-42,21,-6
13555,-32,-48,1728,-41,20,-7
13560,-32,-48,1760,-39,17,-6
13565,-32,-80,1768,-40,17,-8
13570,-40,-56,1744,-40,15,-7
13575,-24,-40,1760,-41,12,-5
13580,-32,-32,1768,-43,13,-6
13585,-32,-40,1736,-45,12,-6
13590,-48,-16,1744,-47,11,-4
13595,-32,-32,1752,-47,11,-4
13600,-16,-64,1760,-47,14,-3
13605,32,-48,1712,-47,13,-5
13610,-8,-24,1736,-48,13,-5
13615,-16,0,1704,-47,14,-5
13620,-16,-32,1720,-45,16,-6
13625,-24,-16,1736,-44,16,-6
13630,-56,0,1744,-43,17,-7
13635,-24,0,1760,-40,17,-6
13640,-40,-16,1744,-40,17,-6
13645,-24,-16,1744,-37,17,-7
13650,-40,-8,1752,-35,16,-7
13655,-8,0,1768,-34,16,-7
13660,-24,-64,1800,-34,15,-6
13665,-40,0,1744,-33,16,-5
13670,-56,-40,1728,-34,15,-6
13675,-32,0,1736,-35,16,-7
13680,-16,-16,1720,-38,14,-6
13685,-16,-8,1744,-40,13,-7
13690,-24,0,1736,-43,13,-7
13695,-16,-48,1760,-45,14,-6
13700,-40,-40,1744,-46,14,-4
13705,-8,-48,1736,-49,16,-5
13710,-32,-56,1736,-49,15,-5
13715,-16,-104,1728,-50,17,-5
13720,-32,-40,1752,-51,17,-5
13725,-48,-16,1736,-51,17,-4
13730,-40,-48,1728,-51,17,-2
13735,-24,-32,1736,-48,17,-3
13740,-40,-48,1744,-48,17,-4
13745,-40,-56,1736,-49,16,-4
13750,-24,-48,1744,-46,17,-4
13755,-32,-48,1712,-46,17,-5
13760,-40,-56,1744,-46,18,-3
13765,-40,-32,1744,-47,17,-3
13770,-40,-32,1776,-49,18,-3
13775,-16,-64,1712,-49,17,-3
13780,-24,-40,1720,-49,18,-2
13785,-8,-56,1720,-48,17,-2
13790,-48,-8,1728,-49,17,-2
13795,-8,-56,1720,-48,17,-3
13800,-16,-16,1736,-49,17,-4
13805,-32,-32,1736,-49,17,-3
13810,-48,-24,1760,-49,17,-4
13815,-40,-32,1712,-51,17,-3
13820,-32,-8,1720,-52,19,-5
13825,-16,-48,1712,-51,19,-5
13830,-16,-64,1752,-50,18,-4
13835,-24,-64,1736,-48,19,-5
13840,-24,-32,1736,-49,19,-6
13845,-24,-56,1752,-46,19,-6
13850,-24,-56,1752,-44,18,-7
13855,-40,-24,1744,-45,18,-5
13860,-24,-56,1728,-43,18,-5
13865,-32,-32,1760,-44,18,-4
13870,-16,-48,1744,-46,16,-5
13875,-32,-40,1736,-45,16,-6
13880,-24,-8,1760,-48,16,-6
13885,-24,-40,1736,-48,17,-4
13890,-40,-24,1728,-49,16,-6
13895,-24,-24,1752,-49,15,-6
13900,-56,-40,1704,-51,16,-6
13905,-40,-16,1736,-50,17,-5
13910,-32,-8,1736,-50,18,-5
13915,-32,-24,1776,-48,19,-4
13920,-8,-48,1792,-47,19,-4
13925,-24,-32,1744,-45,20,-4
13930,-24,32,1760,-44,18,-4
13935,-32,-8,1784,-43,20,-5
13940,-8,-48,1720,-40,19,-4
13945,-24,-24,1744,-39,19,-5
13950,-16,-56,1768,-39,18,-6
13955,-24,-40,1752,-39,19,-5
13960,-16,-16,1744,-39,19,-6
13965,-24,-32,1736,-40,18,-6
13970,-16,-8,1760,-41,17,-6
13975,-32,-16,1720,-42,17,-5
13980,-24,-32,1744,-43,17,-4
13985,-40,-32,1696,-45,17,-5
13990,-40,-16,1704,-45,17,-5
13995,-8,-32,1752,-47,16,-6
14000,-32,-48,1768,-47,15,-6
14005,-48,-32,1744,-47,16,-6
14010,-32,-32,1760,-47,16,-6
14015,-8,-56,1744,-47,15,-5
14020,-16,-48,1720,-47,16,-5
14025,-32,-56,1720,-48,15,-5
14030,-40,-32,1720,-46,17,-6
14035,-24,-64,1720,-46,18,-5
14040,-56,-80,1744,-45,18,-3
14045,-40,-8,1736,-44,19,-2
14050,-24,-48,1760,-44,19,-4
14055,-48,-24,1728,-44,20,-4
14060,-24,-56,1776,-44,19,-5
14065,-24,-64,1712,-44,18,-4
14070,-32,-56,1704,-44,18,-4
14075,-24,-16,1736,-44,19,-3
14080,0,-64,1752,-45,17,-3
14085,-32,-8,1736,-46,16,-3
14090,-32,-32,1720,-47,17,-5
14095,-24,-24,1744,-46,16,-3
14100,-32,-24,1768,-48,17,-3
14105,-32,-48,1736,-48,16,-2
14110,-16,-40,1744,-48,16,-3
14115,-32,-24,1752,-48,17,-3
14120,-8,-56,1736,-48,16,-3
14125,-48,-16,1736,-48,14,-2
14130,-32,-16,1736,-48,15,-4
14135,-32,-40,1728,-48,14,-4
14140,-24,-32,1744,-50,14,-3
14145,-56,-8,1744,-49,14,-3
14150,-8,-48,1776,-50,15,-4
14155,-32,-24,1760,-50,16,-5
14160,-24,-32,1744,-51,17,-3
14165,-24,-32,1768,-50,16,-3
14170,-32,-40,1720,-50,16,-4
14175,-40,-56,1744,-49,18,-3
14180,-24,-8,1752,-48,17,-3
14185,-56,-24,1720,-50,18,-2
14190,-40,-40,1736,-49,19,-3
14195,-24,-48,1736,-47,19,-3
14200,-56,-24,1720,-48,21,-2
14205,-40,-48,1728,-46,21,-2
14210,-56,-16,1760,-45,20,-4
14215,-24,-24,1760,-45,21,-4
14220,-32,-48,1744,-47,19,-2
14225,-40,-48,1720,-46,19,-3
14230,-24,-32,1776,-47,17,-2
14235,-24,-48,1760,-48,16,-2
14240,-40,-32,1752,-49,14,-1
14245,-32,-24,1736,-49,14,-2
14250,-8,-16,1736,-50,12,-2
14255,-8,-48,1728,-51,12,-3
14260,-32,0,1704,-51,12,-6
14265,-24,-24,1752,-54,12,-7
14270,-32,-48,1736,-54,13,-7
14275,-32,-16,1752,-54,14,-6
14280,-40,-32,1736,-53,16,-6
14285,-24,-40,1744,-53,18,-6
14290,-16,-48,1736,-50,19,-7
14295,-24,-40,1744,-50,20,-4
14300,-40,-56,1752,-47,23,-3
14305,-16,-56,1744,-44,25,-4
14310,-56,-128,1768,-42,25,-3
14315,-16,-8,1744,-40,26,-4
14320,-24,-32,1736,-41,27,-5
14325,-24,-64,1760,-40,27,-4
14330,-40,-48,1744,-40,27,-4
14335,-48,-64,1744,-39,27,-5
14340,-32,-48,1752,-41,25,-5
14345,-24,-56,1752,-41,23,-6
14350,-48,-32,1736,-41,19,-6
14355,-32,-40,1728,-41,16,-4
14360,-32,-32,1736,-44,13,-5
14365,-16,-32,1736,-46,12,-4
14370,-24,-56,1744,-49,11,-4
14375,-24,-40,1736,-52,12,-4
14380,-32,-24,1744,-54,13,-3
14385,-24,-48,1736,-56,12,-3
14390,-40,-24,1752,-57,14,-3
14395,-24,-32,1752,-54,15,-2
14400,-16,-56,1736,-54,16,-2
14405,-16,0,1760,-51,17,-2
14410,-32,-16,1768,-51,19,-3
14415,-24,-8,1744,-49,19,-4
14420,-32,40,1720,-47,21,-4
14425,-32,0,1728,-42,22,-4
14430,-48,-40,1768,-39,21,-4
14435,-16,-16,1752,-36,20,-4
14440,-24,-16,1752,-32,20,-4
14445,-24,-40,1728,-31,18,-5
14450,-24,-24,1744,-31,18,-6
14455,-32,-40,1736,-31,16,-5
14460,-48,-8,1744,-32,16,-4
14465,-32,-40,1736,-36,16,-4
14470,-32,-24,1744,-38,13,-4
14475,-32,-24,1800,-41,15,-5
14480,-24,-40,1752,-45,16,-5
14485,-16,-32,1736,-50,14,-4
14490,-24,-48,1736,-55,14,-3
14495,-40,-56,1744,-56,14,-4
14500,-32,-32,1768,-56,15,-4
14505,-56,-48,1728,-56,16,-4
14510,-40,-56,1712,-55,16,-4
14515,-40,-24,1720,-55,19,-5
14520,-48,-32,1752,-54,19,-3
14525,-32,-64,1728,-53,19,-3
14530,-48,-40,1760,-51,19,-3
14535,-32,-40,1744,-47,19,-2
14540,-32,-48,1736,-46,19,-3
14545,-40,-56,1752,-44,20,-4
14550,-32,-64,1728,-43,17,-4
14555,-8,-64,1752,-41,19,-4
14560,-32,-32,1768,-42,18,-3
14565,-16,-72,1728,-43,17,-4
14570,-16,-32,1744,-43,16,-3
14575,-64,-32,1768,-44,16,-4
14580,-16,-40,1712,-44,16,-2
14585,-16,-16,1760,-47,16,-3
14590,-24,-40,1736,-47,16,-2
14595,-32,-24,1728,-48,15,-3
14600,-8,-56,1704,-49,14,-5
14605,-24,-56,1744,-50,15,-5
14610,-16,-16,1736,-50,15,-4
14615,-24,-40,1704,-50,16,-3
14620,-24,-56,1728,-48,16,-5
14625,-8,-16,1768,-48,18,-6
14630,-40,-32,1728,-45,18,-5
14635,-16,-40,1704,-45,18,-5
14640,-56,-16,1744,-45,18,-5
14645,-32,-64,1776,-43,18,-5
14650,-16,-24,1760,-43,18,-5
14655,-56,-64,1752,-45,19,-5
14660,-40,-40,1760,-45,18,-6
14665,-32,-16,1768,-45,20,-6
14670,-24,-40,1744,-45,19,-6
14675,-32,-48,1752,-47,19,-5
14680,-32,-32,1776,-48,17,-5
14685,-40,-16,1744,-50,17,-5
14690,-24,-48,1760,-51,15,-5
14695,-40,-8,1680,-52,15,-5
14700,-16,-40,1760,-53,13,-5
14705,-24,-32,1736,-54,13,-4
14710,-64,-16,1784,-52,14,-3
14715,-48,-32,1752,-51,15,-4
14720,-16,-40,1752,-49,16,-2
14725,-32,-40,1752,-47,16,-4
14730,-16,-48,1768,-45,16,-4
14735,-24,-64,1728,-44,18,-3
14740,-40,-40,1768,-43,19,-3
14745,-80,-40,1688,-41,17,-4
14750,-40,-56,1736,-41,18,-6
14755,-32,-32,1736,-42,20,-7
14760,-40,-24,1752,-43,19,-5
14765,-16,-48,1752,-43,18,-5
14770,-40,-32,1736,-45,18,-4
14775,-40,-56,1712,-48,17,-5
14780,-32,-64,1760,-49,16,-5
14785,-64,-40,1728,-49,17,-5
14790,-16,-24,1760,-52,16,-3
14795,-16,-16,1720,-53,16,-4
14800,-56,-40,1808,-54,15,-5
14805,-16,-24,1744,-53,16,-5
14810,-32,-16,1744,-53,16,-3
14815,-32,-16,1736,-52,16,-5
14820,-56,-32,1720,-50,16,-4
14825,-8,-72,1736,-48,17,-4
14830,-40,-16,1760,-48,17,-5
14835,-32,-24,1736,-47,19,-4
14840,-24,-72,1752,-47,17,-4
14845,-40,-72,1728,-47,18,-5
14850,-56,-16,1712,-45,17,-5
14855,-16,-16,1784,-44,17,-3
14860,-40,-48,1784,-43,17,-3
14865,-48,-48,1744,-44,16,-2
14870,-40,-40,1776,-45,16,-4
14875,-40,-40,1712,-45,15,-4
14880,-16,-24,1744,-45,15,-3
14885,-56,-32,1744,-46,18,-3
14890,-40,-56,1728,-47,16,-4
14895,-16,-40,1752,-47,16,-2
14900,-32,-32,1760,-48,17,-4
14905,-32,-24,1736,-49,16,-5
14910,-16,-8,1736,-48,16,-3
14915,-48,-8,1736,-48,16,-4
14920,-24,-32,1728,-48,16,-3
14925,-8,-40,1744,-48,16,-2
14930,-40,-16,1728,-47,16,-2
14935,-24,-40,1776,-47,16,-3
14940,-8,-32,1752,-47,16,-2
14945,-8,0,1776,-48,17,-3
14950,-32,-64,1776,-46,15,-3
14955,-48,-24,1752,-46,16,-4
14960,-32,-40,1752,-48,17,-6
14965,-24,-40,1784,-47,16,-5
14970,-40,-16,1720,-48,17,-3
14975,-24,-40,1736,-47,16,-4
14980,-40,0,1736,-49,15,-4
14985,-24,-48,1736,-49,16,-5
14990,-16,-32,1728,-47,15,-5
14995,-16,-48,1728,-49,17,-6
