timestamp,accel_x,accel_y,accel_z,gyro_x,gyro_y,gyro_z
0,248,-2008,-400,11,33,-1
5,216,-2008,-352,11,33,0
10,248,-1992,-392,8,34,-1
15,240,-1992,-368,6,36,0
20,240,-1992,-392,4,38,1
25,248,-2024,-384,2,41,1
30,240,-1992,-400,0,44,0
35,224,-1984,-376,0,49,-1
40,240,-1992,-376,0,51,-3
45,248,-2000,-384,0,55,-3
50,264,-2024,-384,0,58,-4
55,272,-2024,-392,0,60,-5
60,248,-2008,-392,1,63,-7
65,264,-2016,-392,2,66,-6
70,280,-2040,-384,4,68,-10
75,256,-2008,-408,4,71,-9
80,272,-2024,-344,3,71,-11
85,248,-1992,-376,1,72,-13
90,248,-2008,-384,-1,70,-15
95,232,-2016,-376,-4,69,-18
100,224,-2008,-416,-5,64,-23
105,240,-2008,-392,-6,61,-24
110,200,-2040,-400,-6,56,-27
115,184,-2008,-416,-6,50,-30
120,176,-2008,-416,-7,45,-31
125,168,-2000,-368,-5,41,-34
130,144,-2048,-408,-4,38,-38
135,152,-2024,-432,-1,35,-42
140,144,-2008,-416,2,29,-45
145,136,-2040,-392,5,27,-45
150,120,-2032,-400,11,29,-46
155,128,-2000,-376,11,30,-47
160,136,-2016,-360,10,32,-48
165,160,-2000,-376,9,36,-46
170,136,-1992,-368,8,38,-46
175,152,-1992,-336,8,43,-44
180,152,-2008,-336,5,45,-42
185,160,-2024,-280,6,44,-41
190,168,-2000,-352,9,45,-37
195,168,-2040,-312,11,43,-33
200,176,-2024,-320,14,40,-30
205,200,-2008,-344,14,38,-25
210,192,-2016,-328,13,33,-21
215,200,-2008,-336,10,29,-18
220,200,-2008,-312,7,24,-14
225,184,-2000,-368,6,18,-12
230,208,-2000,-344,5,9,-9
235,208,-1992,-352,5,3,-7
240,192,-1984,-360,3,-4,-5
245,192,-1984,-352,3,-9,-3
250,168,-1992,-384,3,-13,-1
255,176,-2008,-400,3,-16,2
260,184,-2032,-408,2,-21,2
265,144,-2032,-400,4,-27,2
270,128,-2040,-352,4,-34,0
275,144,-2040,-392,8,-42,-1
280,96,-2024,-400,11,-50,-5
285,136,-2056,-384,16,-57,-8
290,128,-2040,-376,23,-66,-12
295,120,-2032,-384,31,-74,-16
300,136,-2040,-408,35,-82,-20
305,136,-2024,-384,40,-90,-24
310,168,-2008,-408,44,-97,-28
315,168,-2008,-392,47,-105,-31
320,192,-1984,-376,47,-111,-32
325,192,-1992,-360,45,-116,-34
330,184,-1984,-384,40,-121,-33
335,184,-1984,-376,37,-127,-32
340,192,-1976,-384,34,-132,-28
345,192,-1976,-384,30,-135,-24
350,200,-1968,-376,27,-141,-21
355,176,-1968,-392,22,-147,-17
360,184,-1976,-328,17,-153,-12
365,224,-1976,-352,9,-158,-7
370,200,-1984,-320,3,-163,-5
375,240,-1992,-352,-3,-168,-1
380,248,-2008,-352,-10,-169,3
385,256,-2008,-344,-17,-171,3
390,296,-2016,-376,-25,-172,4
395,288,-2008,-352,-30,-170,2
400,336,-2008,-352,-36,-165,2
405,352,-2000,-320,-39,-158,-1
410,352,-1976,-352,-43,-148,0
415,384,-1992,-344,-49,-136,-2
420,392,-1976,-320,-56,-123,-3
425,392,-1984,-336,-64,-110,-2
430,416,-1968,-336,-71,-96,-1
435,360,-1960,-344,-80,-79,0
440,384,-1952,-344,-88,-62,3
445,384,-1976,-336,-95,-44,5
450,376,-1984,-344,-102,-26,10
455,360,-1976,-328,-111,-10,13
460,336,-1984,-288,-118,3,17
465,344,-1976,-280,-124,15,21
470,296,-1992,-288,-130,27,24
475,288,-1992,-280,-135,36,26
480,312,-1992,-272,-139,45,28
485,304,-2008,-264,-141,50,29
490,288,-2008,-280,-145,56,29
495,312,-2000,-304,-147,64,29
500,264,-1984,-280,-152,69,28
505,296,-1984,-280,-157,74,27
510,288,-1984,-272,-162,79,26
515,336,-2032,-256,-169,82,25
520,312,-2000,-248,-175,86,24
525,280,-2008,-296,-178,91,24
530,288,-2000,-296,-181,93,26
535,280,-2016,-320,-181,95,27
540,272,-2000,-280,-181,97,28
545,264,-2000,-272,-180,100,30
550,272,-2016,-288,-179,102,31
555,264,-2008,-320,-180,106,29
560,288,-2016,-360,-179,107,31
565,272,-2024,-328,-181,108,32
570,272,-2008,-328,-184,108,34
575,272,-2000,-352,-185,107,36
580,248,-2000,-360,-185,106,37
585,240,-2008,-312,-185,103,39
590,216,-2016,-304,-185,98,42
595,232,-1992,-312,-187,94,44
600,240,-2024,-336,-187,91,47
605,224,-2008,-304,-187,90,49
610,232,-2032,-328,-189,89,53
615,248,-2024,-312,-190,88,52
620,296,-2040,-304,-191,89,55
625,280,-2016,-328,-194,91,54
630,288,-2040,-304,-193,93,55
635,256,-2032,-312,-195,97,57
640,280,-2048,-312,-196,100,59
645,288,-2048,-296,-198,101,61
650,304,-2056,-256,-194,103,64
655,296,-2048,-264,-190,106,70
660,280,-2024,-272,-182,109,75
665,296,-2016,-312,-174,114,83
670,288,-2048,-264,-167,119,90
675,296,-2032,-264,-159,124,100
680,280,-1992,-256,-150,130,109
685,264,-1992,-296,-145,135,118
690,264,-1976,-296,-142,137,127
695,224,-1992,-288,-141,140,136
700,208,-1960,-320,-142,138,145
705,208,-1976,-320,-143,136,152
710,176,-1968,-328,-147,127,157
715,152,-1952,-400,-151,113,164
720,152,-1944,-392,-158,96,165
725,80,-1904,-424,-164,71,167
730,64,-1912,-432,-171,39,163
735,0,-1864,-496,-176,-4,158
740,-32,-1832,-456,-182,-56,146
745,-88,-1792,-464,-184,-109,133
750,-144,-1760,-488,-182,-168,115
755,-200,-1736,-488,-176,-229,92
760,-224,-1752,-456,-166,-286,66
765,-240,-1768,-416,-150,-341,37
770,-256,-1784,-384,-128,-392,6
775,-248,-1840,-320,-97,-434,-24
780,-240,-1912,-240,-60,-465,-54
785,-176,-2008,-224,-23,-479,-87
790,-160,-2088,-176,5,-472,-118
795,-96,-2200,-192,21,-454,-150
800,-8,-2304,-232,23,-419,-182
805,16,-2384,-296,11,-375,-209
810,72,-2464,-328,-10,-324,-231
815,136,-2488,-328,-24,-270,-247
820,152,-2496,-344,-31,-216,-253
825,176,-2496,-352,-37,-166,-249
830,240,-2504,-328,-43,-122,-227
835,272,-2496,-296,-44,-82,-199
840,272,-2456,-304,-34,-50,-168
845,320,-2360,-248,-17,-20,-136
850,360,-2288,-272,0,7,-108
855,360,-2176,-272,11,31,-86
860,384,-2072,-312,10,52,-62
865,392,-2000,-384,-2,72,-37
870,376,-1936,-384,-24,87,-11
875,400,-1880,-392,-48,98,18
880,328,-1784,-368,-71,108,46
885,320,-1744,-352,-90,113,76
890,312,-1752,-376,-106,114,108
895,272,-1760,-344,-121,114,137
900,264,-1768,-352,-134,111,166
905,232,-1784,-320,-145,107,189
910,200,-1816,-392,-154,102,206
915,160,-1848,-360,-163,100,217
920,136,-1880,-392,-178,98,225
925,112,-1944,-376,-196,93,227
930,64,-1976,-320,-215,89,226
935,24,-1976,-312,-228,86,223
940,8,-2008,-248,-232,82,214
945,-64,-1936,-296,-230,80,203
950,-56,-2040,-256,-222,79,190
955,-72,-2048,-216,-212,77,179
960,-96,-2032,-184,-196,80,165
965,-144,-2048,-192,-181,87,155
970,-120,-2024,-192,-164,94,144
975,-160,-2008,-168,-148,104,131
980,-120,-2008,-216,-132,114,122
985,-96,-2016,-216,-117,125,108
990,-88,-1992,-208,-105,138,96
995,-48,-1992,-216,-95,153,88
1000,-24,-1992,-232,-88,165,83
1005,0,-2000,-216,-85,174,78
1010,32,-2000,-216,-80,177,71
1015,72,-2008,-224,-72,177,63
1020,112,-2008,-264,-65,179,58
1025,96,-2032,-232,-57,186,57
1030,144,-2040,-208,-50,192,56
1035,176,-2000,-232,-37,200,48
1040,232,-2016,-248,-21,214,43
1045,288,-2064,-200,-8,238,47
1050,280,-2056,-192,2,263,57
1055,296,-2072,-176,13,290,70
1060,304,-2040,-160,27,308,80
1065,296,-2000,-192,41,316,87
1070,288,-2008,-200,54,320,90
1075,296,-1952,-240,69,323,87
1080,288,-1952,-232,77,332,87
1085,320,-1928,-256,78,343,89
1090,304,-1920,-216,74,360,90
1095,280,-1912,-192,70,381,90
1100,264,-1928,-176,64,401,95
1105,240,-1944,-160,63,420,103
1110,208,-1960,-176,58,436,113
1115,192,-1960,-168,52,451,126
1120,144,-1984,-160,44,466,141
1125,104,-1984,-160,37,477,156
1130,88,-2000,-168,29,488,168
1135,48,-2000,-200,22,497,179
1140,32,-2000,-200,16,502,187
1145,16,-1992,-184,11,508,191
1150,-8,-1976,-192,7,510,194
1155,0,-1976,-240,2,512,195
1160,-24,-1976,-216,-5,512,196
1165,-48,-1912,-224,-15,509,194
1170,-48,-1944,-248,-25,505,193
1175,-72,-1960,-232,-33,498,190
1180,-72,-1952,-232,-44,488,185
1185,-112,-1984,-200,-53,479,180
1190,-104,-1976,-160,-60,469,173
1195,-152,-2000,-160,-68,458,169
1200,-160,-2016,-168,-77,444,166
1205,-152,-2056,-160,-83,428,165
1210,-184,-2088,-152,-88,410,165
1215,-208,-2152,-168,-88,388,167
1220,-192,-2200,-152,-83,366,171
1225,-176,-2232,-128,-76,345,173
1230,-192,-2256,-136,-67,323,174
1235,-176,-2272,-80,-57,304,175
1240,-136,-2312,-120,-50,286,175
1245,-128,-2296,-144,-44,268,172
1250,-112,-2312,-128,-36,251,165
1255,-112,-2352,-104,-29,236,158
1260,-88,-2360,-80,-19,228,152
1265,-112,-2368,-64,-7,223,143
1270,-112,-2392,-16,7,220,136
1275,-96,-2424,-72,21,221,127
1280,-120,-2456,48,36,228,120
1285,-96,-2480,64,51,237,112
1290,-120,-2488,64,67,252,105
1295,-104,-2488,112,84,263,97
1300,-112,-2496,104,103,276,88
1305,-80,-2472,112,119,286,81
1310,-112,-2416,72,133,291,78
1315,-128,-2368,64,142,292,77
1320,-224,-2312,-32,144,284,81
1325,-240,-2312,-96,117,257,95
1330,-320,-2312,-272,64,222,106
1335,-336,-2416,-576,-20,185,127
1340,-392,-2464,-864,-157,159,140
1345,-512,-2456,-920,-333,129,144
1350,-632,-2448,-792,-472,71,161
1355,-632,-2520,-640,-513,-10,183
1360,-544,-2600,-560,-481,-94,198
1365,-400,-2664,-608,-441,-167,195
1370,-288,-2632,-632,-406,-230,179
1375,-208,-2552,-672,-363,-286,161
1380,-56,-2504,-632,-298,-329,146
1385,-40,-2504,-672,-224,-358,132
1390,40,-2456,-656,-157,-363,119
1395,152,-2440,-712,-102,-345,108
1400,272,-2376,-784,-63,-312,95
1405,352,-2376,-776,-34,-265,85
1410,376,-2256,-792,-11,-201,73
1415,440,-2176,-848,14,-124,64
1420,512,-2096,-872,35,-29,57
1425,520,-1968,-936,51,74,53
1430,560,-1800,-984,63,176,51
1435,520,-1640,-1024,82,273,54
1440,496,-1568,-1072,95,355,65
1445,480,-1488,-1048,82,417,88
1450,488,-1448,-1088,68,456,106
1455,424,-1456,-1048,50,481,121
1460,360,-1520,-1056,24,494,122
1465,280,-1592,-992,-16,503,115
1470,256,-1688,-952,-59,504,108
1475,208,-1784,-856,-104,495,99
1480,184,-1880,-800,-142,473,91
1485,208,-1920,-720,-160,443,85
1490,192,-2000,-704,-157,412,86
1495,184,-2016,-680,-142,384,86
1500,232,-2072,-664,-114,363,86
1505,248,-2048,-656,-83,345,78
1510,248,-2080,-648,-45,332,66
1515,248,-2056,-600,-9,324,51
1520,184,-2048,-656,19,317,35
1525,184,-2072,-624,40,308,26
1530,184,-2008,-680,55,298,12
1535,168,-1968,-680,66,288,-7
1540,192,-1976,-648,74,284,-21
1545,192,-1968,-672,82,286,-37
1550,176,-1928,-632,91,293,-53
1555,128,-1912,-616,99,305,-68
1560,128,-1912,-600,109,318,-79
1565,112,-1848,-552,123,333,-92
1570,128,-1840,-528,142,348,-103
1575,88,-1808,-544,157,362,-111
1580,72,-1768,-536,166,370,-117
1585,80,-1728,-496,179,379,-121
1590,56,-1696,-464,193,386,-126
1595,40,-1624,-496,206,388,-130
1600,0,-1640,-392,211,383,-136
1605,-24,-1664,-400,212,375,-143
1610,-32,-1640,-400,204,362,-144
1615,-8,-1664,-368,192,348,-143
1620,-88,-1624,-352,183,331,-142
1625,-120,-1624,-368,173,310,-139
1630,-120,-1640,-336,158,288,-134
1635,-96,-1672,-336,143,266,-130
1640,-80,-1688,-288,127,241,-127
1645,-48,-1696,-288,110,218,-125
1650,-40,-1688,-280,97,200,-119
1655,0,-1720,-272,86,185,-110
1660,32,-1728,-216,83,168,-100
1665,40,-1752,-248,86,149,-97
1670,56,-1744,-248,91,134,-97
1675,88,-1768,-232,96,121,-92
1680,136,-1792,-248,96,116,-88
1685,144,-1776,-256,98,115,-82
1690,144,-1768,-240,99,115,-80
1695,192,-1792,-240,102,118,-75
1700,184,-1784,-248,102,120,-67
1705,240,-1792,-280,100,122,-59
1710,200,-1776,-264,106,122,-53
1715,192,-1760,-240,116,124,-49
1720,184,-1744,-216,127,126,-41
1725,208,-1752,-200,134,127,-36
1730,200,-1728,-232,141,132,-30
1735,200,-1760,-160,146,134,-26
1740,176,-1752,-168,150,136,-23
1745,144,-1760,-144,154,137,-21
1750,152,-1768,-144,157,139,-20
1755,136,-1760,-152,159,139,-20
1760,120,-1776,-152,155,136,-20
1765,112,-1800,-112,152,131,-22
1770,96,-1816,-136,146,125,-22
1775,72,-1848,-128,136,113,-26
1780,88,-1872,-112,131,99,-29
1785,32,-1864,-88,128,83,-32
1790,32,-1928,-80,124,65,-33
1795,0,-1944,-56,126,42,-35
1800,0,-1944,-72,131,18,-35
1805,0,-1912,-120,138,-8,-34
1810,0,-1968,-96,140,-32,-33
1815,-24,-1960,-80,139,-50,-32
1820,0,-1976,-136,133,-63,-31
1825,16,-2000,-160,124,-75,-30
1830,32,-1976,-168,114,-81,-29
1835,32,-1976,-208,103,-83,-26
1840,64,-2000,-248,85,-82,-23
1845,120,-2080,-200,62,-79,-25
1850,128,-2152,-200,47,-80,-28
1855,152,-2248,-120,41,-83,-32
1860,168,-2312,-80,45,-90,-36
1865,184,-2440,-24,58,-97,-41
1870,192,-2544,0,73,-102,-50
1875,264,-2656,16,87,-101,-62
1880,296,-2728,0,99,-89,-77
1885,384,-2776,-8,112,-66,-97
1890,464,-2864,0,130,-34,-122
1895,504,-2832,0,153,2,-145
1900,512,-2784,32,186,34,-168
1905,520,-2736,48,226,57,-188
1910,464,-2672,40,268,66,-198
1915,368,-2624,96,307,66,-202
1920,288,-2568,168,339,53,-196
1925,176,-2496,200,364,32,-183
1930,136,-2480,248,386,6,-165
1935,152,-2440,200,401,-18,-148
1940,280,-2512,104,405,-18,-135
1945,280,-2576,-40,374,13,-128
1950,224,-2712,-376,284,34,-132
1955,240,-2808,-800,111,19,-170
1960,368,-2816,-1024,-116,-16,-234
1965,496,-2872,-880,-293,-36,-292
1970,528,-2896,-672,-335,-17,-329
1975,480,-2888,-528,-287,30,-344
1980,448,-2832,-480,-231,80,-356
1985,376,-2720,-448,-178,126,-364
1990,368,-2624,-368,-110,182,-361
1995,304,-2488,-272,-21,240,-345
2000,256,-2392,-312,68,281,-319
2005,200,-2192,-400,126,301,-292
2010,96,-2056,-576,146,297,-266
2015,-32,-1912,-720,133,270,-239
2020,-80,-1824,-776,106,227,-213
2025,-120,-1728,-776,71,169,-187
2030,-96,-1640,-880,44,97,-177
2035,-32,-1536,-1048,34,37,-179
2040,16,-1544,-1208,15,-29,-186
2045,88,-1584,-1296,-34,-89,-199
2050,208,-1696,-1320,-108,-140,-224
2055,296,-1864,-1240,-180,-176,-245
2060,368,-1952,-1144,-226,-196,-266
2065,416,-2048,-1056,-243,-200,-273
2070,408,-2112,-976,-229,-193,-263
2075,384,-2232,-880,-198,-162,-244
2080,288,-2304,-800,-155,-115,-213
2085,240,-2336,-760,-110,-63,-169
2090,184,-2384,-704,-71,-23,-124
2095,136,-2424,-664,-35,4,-71
2100,72,-2392,-632,6,24,-22
2105,80,-2368,-608,50,40,23
2110,80,-2320,-632,86,56,64
2115,88,-2256,-608,112,69,96
2120,112,-2176,-664,130,79,124
2125,104,-2112,-688,144,85,150
2130,112,-2024,-672,151,85,175
2135,104,-1960,-648,153,84,200
2140,104,-1912,-632,160,80,219
2145,128,-1832,-600,165,70,238
2150,144,-1760,-608,166,55,250
2155,144,-1720,-584,162,36,260
2160,128,-1720,-560,152,15,276
2165,128,-1632,-528,139,-10,288
2170,136,-1576,-464,134,-30,297
2175,160,-1504,-480,133,-44,304
2180,152,-1512,-408,130,-52,311
2185,144,-1496,-432,122,-61,317
2190,160,-1544,-456,110,-67,321
2195,152,-1480,-456,99,-67,323
2200,120,-1464,-408,93,-65,322
2205,136,-1448,-432,86,-62,318
2210,136,-1424,-416,76,-59,311
2215,120,-1424,-416,58,-55,308
2220,104,-1432,-384,38,-50,301
2225,120,-1448,-384,22,-43,292
2230,128,-1448,-360,7,-34,285
2235,144,-1448,-352,-6,-19,275
2240,144,-1472,-328,-21,-2,260
2245,80,-1512,-344,-36,20,243
2250,128,-1544,-280,-48,42,221
2255,152,-1536,-288,-57,63,196
2260,104,-1560,-232,-61,88,173
2265,96,-1552,-232,-63,114,159
2270,152,-1568,-280,-57,140,150
2275,96,-1584,-264,-51,164,139
2280,64,-1592,-272,-47,182,123
2285,24,-1624,-248,-39,195,109
2290,16,-1632,-264,-27,205,92
2295,0,-1648,-280,-16,211,76
2300,-8,-1672,-264,-7,212,62
2305,-8,-1696,-216,-1,213,51
2310,-40,-1704,-240,7,209,40
2315,-64,-1736,-200,13,205,32
2320,-80,-1760,-224,23,200,24
2325,-64,-1760,-168,38,196,17
2330,-56,-1776,-152,56,191,11
2335,-32,-1800,-152,78,186,3
2340,-32,-1816,-144,107,181,-5
2345,-32,-1824,-120,137,180,-10
2350,-40,-1816,-88,163,184,-15
2355,32,-1816,-40,188,193,-22
2360,-8,-1808,-72,214,206,-27
2365,-8,-1784,-88,234,219,-27
2370,24,-1784,-96,244,231,-28
2375,16,-1816,-112,249,245,-27
2380,16,-1808,-160,242,262,-27
2385,24,-1832,-144,227,280,-29
2390,48,-1856,-144,214,301,-32
2395,56,-1904,-72,213,329,-36
2400,88,-1976,-32,217,350,-44
2405,48,-1968,-40,231,360,-60
2410,16,-1976,-96,248,351,-69
2415,0,-2000,-208,243,314,-70
2420,-56,-2008,-376,200,258,-71
2425,-72,-2032,-416,138,210,-68
2430,-56,-2128,-344,88,190,-53
2435,-88,-2208,-152,74,201,-35
2440,-136,-2304,-72,101,225,-6
2445,-200,-2376,8,138,233,20
2450,-248,-2464,-8,155,218,49
2455,-240,-2488,-64,148,183,76
2460,-296,-2568,-64,131,147,106
2465,-256,-2672,-32,124,121,143
2470,-232,-2760,48,142,107,176
2475,-240,-2792,80,185,108,198
2480,-208,-2840,152,233,115,210
2485,-160,-2824,216,279,119,217
2490,-80,-2768,304,314,121,220
2495,16,-2680,288,346,127,213
2500,128,-2576,336,372,145,201
2505,216,-2488,360,392,179,186
2510,232,-2424,360,401,225,169
2515,280,-2368,416,398,268,154
2520,192,-2280,384,386,305,143
2525,80,-2264,328,359,331,151
2530,56,-2336,208,293,335,173
2535,8,-2496,-88,207,340,196
2540,-40,-2672,-656,93,380,224
2545,-160,-2704,-1056,-89,439,246
2550,-336,-2696,-1016,-277,444,279
2555,-472,-2728,-648,-337,389,333
2560,-504,-2864,-416,-249,322,399
2565,-504,-2792,-464,-138,259,458
2570,-448,-2712,-544,-69,187,504
2575,-424,-2544,-608,-4,112,534
2580,-336,-2400,-640,87,44,556
2585,-184,-2192,-632,173,6,555
2590,0,-1992,-632,228,-8,530
2595,184,-1824,-664,234,-6,487
2600,336,-1728,-720,210,15,433
2605,424,-1720,-816,167,54,382
2610,528,-1752,-824,101,94,323
2615,720,-1896,-936,31,159,263
2620,776,-1936,-1104,-26,239,230
2625,752,-1984,-1272,-92,304,218
2630,752,-2080,-1280,-162,369,214
2635,712,-2216,-1176,-202,438,230
2640,560,-2408,-1016,-214,494,251
2645,496,-2536,-808,-219,521,276
2650,416,-2608,-712,-204,523,297
2655,280,-2640,-648,-164,525,309
2660,144,-2552,-568,-111,530,307
2665,24,-2504,-504,-54,536,295
2670,-16,-2448,-472,0,526,274
2675,-72,-2360,-496,47,495,242
2680,-160,-2312,-528,81,454,204
2685,-216,-2240,-504,102,412,161
2690,-208,-2160,-520,116,374,111
2695,-160,-2072,-480,123,350,54
2700,-120,-2024,-456,127,333,-8
2705,-96,-1960,-432,126,320,-75
2710,-8,-1888,-424,125,307,-144
2715,8,-1824,-376,124,295,-208
2720,96,-1752,-344,122,289,-268
2725,128,-1688,-280,117,287,-314
2730,136,-1624,-304,114,292,-351
2735,144,-1520,-272,107,299,-375
2740,136,-1488,-296,92,301,-387
2745,104,-1456,-320,69,303,-386
2750,56,-1440,-320,44,303,-373
2755,24,-1448,-288,16,295,-352
2760,40,-1440,-304,-12,284,-330
2765,0,-1432,-304,-38,270,-311
2770,-72,-1424,-288,-55,244,-294
2775,-104,-1440,-264,-61,213,-273
2780,-160,-1440,-240,-62,179,-253
2785,-240,-1456,-232,-59,144,-236
2790,-264,-1488,-216,-62,109,-224
2795,-280,-1488,-248,-72,80,-220
2800,-288,-1528,-192,-85,57,-218
2805,-232,-1560,-208,-93,32,-213
2810,-232,-1576,-192,-94,8,-214
2815,-240,-1632,-152,-86,-22,-218
2820,-256,-1696,-160,-71,-57,-225
2825,-232,-1712,-144,-62,-99,-225
2830,-144,-1664,-128,-56,-132,-223
2835,-64,-1672,-144,-64,-155,-216
2840,-8,-1728,-144,-82,-170,-208
2845,8,-1776,-120,-97,-180,-193
2850,40,-1760,-128,-111,-190,-178
2855,80,-1736,-96,-122,-196,-164
2860,168,-1752,-160,-124,-194,-154
2865,176,-1712,-152,-119,-184,-149
2870,200,-1664,-136,-105,-173,-145
2875,280,-1640,-112,-92,-158,-142
2880,296,-1616,-136,-82,-140,-140
2885,336,-1656,-96,-85,-124,-131
2890,360,-1696,-56,-91,-106,-119
2895,336,-1688,-16,-95,-93,-109
2900,288,-1760,32,-89,-85,-100
2905,240,-1776,48,-81,-78,-86
2910,216,-1824,56,-75,-75,-71
2915,160,-1840,56,-71,-80,-64
2920,96,-1864,64,-63,-92,-53
2925,40,-1928,72,-53,-112,-43
2930,0,-1976,88,-46,-138,-36
2935,-8,-1976,80,-37,-165,-30
2940,-88,-2040,96,-26,-197,-22
2945,-120,-2080,128,-16,-228,-13
2950,-88,-2096,120,-5,-260,-5
2955,-128,-2104,152,9,-289,5
2960,-128,-2136,128,26,-311,13
2965,-112,-2152,184,39,-330,16
2970,-96,-2168,96,46,-341,19
2975,-40,-2168,0,43,-344,28
2980,-16,-2096,-64,23,-330,40
2985,8,-2064,-144,-18,-305,57
2990,48,-2104,-152,-69,-285,71
2995,24,-2080,-96,-111,-280,77
3000,56,-2104,-48,-125,-292,85
3005,32,-2192,48,-109,-318,90
3010,88,-2248,48,-86,-339,89
3015,112,-2304,64,-78,-344,82
3020,224,-2352,72,-89,-330,66
3025,328,-2424,88,-103,-291,38
3030,424,-2496,104,-120,-237,-3
3035,512,-2600,120,-131,-180,-57
3040,568,-2672,152,-125,-127,-117
3045,592,-2664,192,-104,-87,-175
3050,592,-2576,216,-69,-62,-228
3055,472,-2472,280,-22,-49,-265
3060,368,-2360,264,37,-49,-282
3065,376,-2392,256,92,-52,-280
3070,360,-2432,264,130,-32,-271
3075,360,-2512,160,134,16,-255
3080,224,-2632,-152,57,29,-258
3085,152,-2736,-648,-139,-29,-292
3090,200,-2808,-1016,-434,-94,-339
3095,360,-3000,-848,-695,-89,-380
3100,432,-3160,-712,-796,-25,-415
3105,512,-3184,-712,-781,53,-450
3110,632,-3104,-776,-737,136,-499
3115,656,-2928,-784,-678,243,-550
3120,600,-2720,-696,-586,378,-576
3125,448,-2576,-600,-459,508,-570
3130,336,-2496,-464,-322,585,-540
3135,184,-2352,-400,-194,593,-497
3140,56,-2224,-416,-85,551,-448
3145,-120,-2040,-448,9,475,-399
3150,-304,-1864,-496,93,377,-350
3155,-400,-1656,-624,163,257,-303
3160,-424,-1512,-824,201,127,-257
3165,-336,-1456,-1088,187,1,-224
3170,-216,-1456,-1232,117,-99,-223
3175,-72,-1472,-1376,3,-165,-230
3180,144,-1592,-1400,-126,-199,-264
3185,344,-1712,-1392,-251,-210,-311
3190,520,-1880,-1280,-346,-205,-353
3195,592,-2048,-1160,-443,-201,-391
3200,600,-2168,-1056,-504,-192,-411
3205,608,-2312,-960,-534,-182,-402
3210,536,-2416,-864,-537,-157,-372
3215,464,-2496,-752,-508,-120,-332
3220,392,-2528,-672,-452,-75,-271
3225,352,-2552,-632,-375,-31,-207
3230,272,-2552,-616,-294,10,-143
3235,192,-2544,-616,-222,42,-85
3240,120,-2496,-640,-160,61,-37
3245,32,-2432,-632,-111,75,6
3250,16,-2360,-632,-72,84,45
3255,0,-2240,-640,-39,90,81
3260,0,-2184,-696,-8,92,115
3265,0,-2096,-664,15,92,147
3270,24,-2008,-672,35,88,175
3275,72,-1960,-664,57,83,197
3280,88,-1872,-664,74,71,217
3285,136,-1816,-616,88,56,232
3290,152,-1744,-584,95,40,243
3295,192,-1688,-592,95,26,252
3300,248,-1608,-560,95,20,259
3305,272,-1544,-504,93,16,263
3310,272,-1488,-456,91,16,267
3315,304,-1448,-440,92,17,268
3320,304,-1384,-416,91,21,267
3325,288,-1336,-392,80,29,270
3330,232,-1320,-384,61,37,279
3335,224,-1312,-376,42,36,283
3340,216,-1304,-328,20,36,285
3345,192,-1320,-352,-11,44,287
3350,176,-1288,-312,-48,50,292
3355,160,-1336,-328,-87,62,288
3360,152,-1368,-304,-126,71,283
3365,160,-1368,-264,-162,79,270
3370,144,-1376,-240,-184,86,254
3375,128,-1432,-184,-198,103,238
3380,112,-1504,-176,-206,118,225
3385,120,-1512,-144,-218,132,207
3390,104,-1552,-168,-228,150,187
3395,80,-1552,-160,-228,167,165
3400,32,-1576,-160,-222,187,141
3405,80,-1616,-200,-218,205,119
3410,40,-1640,-208,-215,230,98
3415,0,-1688,-216,-217,255,86
3420,-8,-1720,-272,-222,267,71
3425,-24,-1704,-232,-221,277,52
3430,-40,-1704,-240,-212,286,39
3435,-8,-1792,-272,-205,291,33
3440,-56,-1760,-232,-195,293,24
3445,-56,-1784,-224,-182,290,11
3450,-56,-1784,-232,-165,282,-2
3455,-56,-1776,-224,-144,270,-17
3460,-32,-1792,-168,-118,253,-31
3465,-32,-1784,-160,-90,234,-44
3470,-32,-1824,-144,-61,213,-58
3475,-40,-1840,-152,-27,195,-71
3480,-48,-1856,-144,4,181,-81
3485,-24,-1888,-96,28,171,-88
3490,-56,-1896,-128,54,167,-93
3495,-32,-1896,-128,74,163,-97
3500,-8,-1912,-144,89,161,-101
3505,0,-1912,-144,102,161,-106
3510,8,-1904,-136,107,161,-107
3515,24,-1928,-184,104,161,-105
3520,56,-1912,-192,94,160,-107
3525,56,-1944,-160,88,161,-110
3530,16,-1920,-160,85,156,-111
3535,8,-1920,-184,81,140,-109
3540,-32,-1872,-240,82,107,-103
3545,-112,-1872,-336,73,54,-98
3550,-128,-1864,-424,47,-4,-93
3555,-112,-1888,-480,9,-52,-89
3560,-104,-1928,-512,-39,-80,-74
3565,-48,-1960,-448,-69,-78,-53
3570,-32,-2008,-392,-79,-48,-31
3575,16,-2120,-312,-81,-8,-10
3580,48,-2208,-232,-86,25,11
3585,40,-2312,-208,-91,42,30
3590,8,-2360,-144,-92,42,44
3595,0,-2488,-136,-79,30,60
3600,0,-2576,-120,-54,14,79
3605,0,-2640,-48,-18,4,95
3610,24,-2696,0,33,8,108
3615,104,-2728,0,90,26,113
3620,224,-2768,24,147,64,113
3625,352,-2800,56,190,113,111
3630,456,-2752,64,221,170,101
3635,544,-2712,64,247,229,91
3640,560,-2656,120,272,293,87
3645,560,-2656,216,301,358,88
3650,528,-2592,280,334,417,98
3655,480,-2568,240,366,469,113
3660,400,-2520,256,392,516,128
3665,312,-2416,264,408,552,145
3670,96,-2328,200,408,576,169
3675,48,-2296,136,374,579,203
3680,-80,-2352,-32,304,568,247
3685,-192,-2488,-496,187,546,301
3690,-232,-2488,-960,-7,539,347
3695,-376,-2376,-1184,-267,531,391
3700,-552,-2312,-1168,-500,491,443
3705,-688,-2464,-1016,-624,415,495
3710,-728,-2552,-1008,-655,327,536
3715,-600,-2536,-1056,-663,238,556
3720,-496,-2552,-1072,-659,131,545
3725,-392,-2480,-1016,-618,18,513
3730,-280,-2408,-944,-529,-77,477
3735,-40,-2320,-912,-414,-132,441
3740,152,-2192,-904,-297,-148,399
3745,272,-2096,-888,-191,-136,367
3750,416,-1984,-920,-101,-106,345
3755,512,-1904,-880,-16,-51,313
3760,600,-1840,-928,43,29,277
3765,680,-1832,-1120,68,121,237
3770,680,-1928,-1328,33,225,211
3775,688,-2032,-1480,-61,329,193
3780,632,-2200,-1480,-184,410,191
3785,544,-2320,-1392,-290,461,193
3790,424,-2392,-1184,-338,498,194
3795,312,-2472,-1024,-330,524,200
3800,216,-2544,-800,-283,535,203
3805,128,-2560,-696,-212,527,199
3810,24,-2560,-640,-131,501,195
3815,-48,-2512,-608,-59,461,185
3820,-72,-2464,-656,-2,406,166
3825,-88,-2400,-680,38,346,140
3830,-96,-2288,-656,61,291,109
3835,-56,-2184,-672,70,248,70
3840,-32,-2104,-672,74,217,30
3845,8,-2024,-656,80,194,-16
3850,16,-1944,-608,92,184,-68
3855,64,-1864,-568,112,180,-123
3860,144,-1800,-520,135,188,-175
3865,128,-1656,-512,159,198,-225
3870,104,-1520,-536,179,205,-266
3875,96,-1416,-552,197,207,-306
3880,88,-1368,-576,199,212,-338
3885,80,-1328,-584,185,219,-358
3890,40,-1288,-560,154,231,-365
3895,8,-1304,-560,110,241,-355
3900,0,-1320,-552,62,250,-342
3905,-32,-1328,-504,16,259,-327
3910,-56,-1328,-528,-25,262,-310
3915,-72,-1360,-504,-54,266,-294
3920,-80,-1416,-440,-76,267,-284
3925,-80,-1424,-472,-93,256,-280
3930,-120,-1440,-424,-102,238,-274
3935,-144,-1464,-376,-104,207,-267
3940,-120,-1472,-360,-103,172,-257
3945,-120,-1488,-352,-97,129,-247
3950,-64,-1552,-320,-90,84,-240
3955,-64,-1592,-272,-80,38,-244
3960,-80,-1632,-240,-71,-7,-241
3965,-56,-1728,-176,-62,-51,-235
3970,-32,-1736,-216,-46,-92,-233
3975,8,-1784,-208,-26,-135,-228
3980,72,-1768,-184,-6,-173,-222
3985,112,-1816,-224,22,-196,-214
3990,136,-1864,-264,36,-210,-195
3995,200,-1896,-248,40,-216,-168
4000,176,-1936,-240,49,-219,-145
4005,248,-1984,-240,62,-217,-123
4010,248,-1960,-224,87,-208,-109
4015,240,-1944,-248,120,-199,-96
4020,264,-1928,-232,161,-181,-84
4025,272,-1880,-256,198,-155,-71
4030,248,-1864,-288,230,-129,-63
4035,232,-1784,-248,253,-104,-54
4040,208,-1752,-232,270,-83,-47
4045,184,-1728,-240,285,-68,-40
4050,168,-1664,-200,294,-55,-36
4055,144,-1592,-160,297,-47,-34
4060,120,-1584,-192,293,-47,-38
4065,112,-1536,-200,278,-47,-44
4070,64,-1488,-232,252,-51,-55
4075,32,-1520,-168,219,-58,-65
4080,8,-1480,-200,176,-63,-75
4085,0,-1496,-184,128,-72,-83
4090,-24,-1528,-160,75,-88,-93
4095,-80,-1560,-216,24,-112,-104
4100,-120,-1640,-224,-29,-138,-113
4105,-152,-1696,-216,-78,-164,-122
4110,-168,-1784,-232,-115,-191,-129
4115,-200,-1896,-216,-157,-222,-133
4120,-216,-2008,-176,-194,-253,-134
4125,-208,-2112,-168,-218,-286,-134
4130,-216,-2208,-144,-223,-310,-136
4135,-200,-2304,-128,-212,-344,-135
4140,-192,-2384,-72,-193,-378,-134
4145,-152,-2456,-56,-164,-410,-136
4150,-104,-2496,-32,-128,-438,-138
4155,-64,-2512,8,-84,-465,-139
4160,-32,-2520,-16,-38,-488,-134
4165,-8,-2544,32,8,-511,-128
4170,32,-2512,64,51,-532,-119
4175,88,-2520,64,93,-551,-110
4180,104,-2504,72,137,-570,-99
4185,112,-2520,152,180,-587,-89
4190,128,-2544,176,217,-600,-78
4195,120,-2488,176,245,-613,-72
4200,112,-2496,160,263,-623,-68
4205,112,-2504,168,269,-631,-67
4210,104,-2520,184,270,-637,-69
4215,64,-2496,216,267,-645,-76
4220,40,-2480,168,256,-659,-88
4225,8,-2464,224,240,-678,-101
4230,-32,-2448,216,224,-701,-117
4235,-80,-2392,208,209,-725,-132
4240,-80,-2376,200,195,-740,-143
4245,-64,-2344,144,179,-743,-151
4250,-48,-2336,72,156,-732,-159
4255,16,-2336,-48,118,-713,-165
4260,152,-2320,-144,62,-684,-172
4265,272,-2328,-288,-15,-648,-183
4270,416,-2376,-456,-108,-605,-202
4275,544,-2440,-648,-210,-559,-227
4280,664,-2472,-792,-314,-512,-261
4285,784,-2512,-960,-413,-455,-301
4290,944,-2536,-1096,-504,-382,-344
4295,1088,-2560,-1368,-579,-284,-389
4300,1232,-2536,-1360,-631,-160,-434
4305,1304,-2520,-1432,-664,-18,-470
4310,1256,-2480,-1408,-673,131,-490
4315,1120,-2464,-1296,-646,269,-487
4320,912,-2448,-1208,-588,389,-462
4325,712,-2440,-1048,-516,484,-416
4330,544,-2488,-928,-436,544,-359
4335,336,-2528,-848,-353,567,-302
4340,112,-2488,-840,-279,543,-251
4345,-88,-2392,-944,-210,467,-213
4350,-216,-2304,-1120,-162,350,-190
4355,-312,-2224,-1232,-142,214,-171
4360,-400,-2120,-1280,-131,88,-155
4365,-472,-2064,-1272,-106,-33,-146
4370,-520,-2032,-1240,-70,-145,-137
4375,-504,-2000,-1208,-29,-240,-128
4380,-376,-1960,-1248,6,-317,-114
4385,-304,-1944,-1312,11,-376,-92
4390,-184,-1976,-1328,-24,-421,-66
4395,-48,-2000,-1256,-68,-441,-35
4400,64,-2096,-1144,-93,-437,2
4405,232,-2240,-936,-89,-419,42
4410,272,-2344,-848,-68,-399,72
4415,264,-2408,-800,-49,-375,95
4420,272,-2432,-808,-40,-350,119
4425,264,-2448,-800,-38,-321,152
4430,240,-2488,-768,-36,-294,192
4435,248,-2480,-728,-26,-275,230
4440,184,-2392,-696,-1,-269,264
4445,128,-2312,-688,30,-270,298
4450,120,-2224,-648,62,-273,325
4455,112,-2112,-592,90,-279,344
4460,120,-2008,-608,115,-286,353
4465,128,-1920,-568,131,-297,353
4470,160,-1824,-560,140,-309,350
4475,176,-1728,-560,147,-319,343
4480,160,-1624,-520,154,-324,333
4485,168,-1568,-504,158,-322,328
4490,176,-1512,-472,156,-317,322
4495,160,-1472,-448,148,-309,310
4500,120,-1416,-440,138,-300,302
4505,160,-1376,-456,122,-287,300
4510,120,-1376,-480,109,-273,296
4515,112,-1328,-448,100,-262,294
4520,88,-1312,-424,88,-250,294
4525,88,-1296,-416,68,-233,295
4530,72,-1336,-400,37,-223,290
4535,104,-1360,-376,8,-221,283
4540,120,-1392,-384,-13,-217,275
4545,96,-1408,-328,-32,-214,267
4550,120,-1432,-296,-43,-206,258
4555,104,-1424,-280,-45,-196,249
4560,112,-1424,-264,-49,-178,241
4565,104,-1416,-312,-54,-158,239
4570,104,-1440,-296,-61,-131,239
4575,104,-1432,-304,-59,-101,232
4580,64,-1424,-296,-40,-71,213
4585,48,-1440,-272,-27,-42,188
4590,8,-1416,-256,-23,-19,162
4595,-8,-1424,-288,-19,4,140
4600,0,-1440,-264,-21,19,121
4605,-56,-1480,-240,-24,36,97
4610,-64,-1504,-240,-23,43,75
4615,-64,-1552,-280,-20,45,59
4620,-80,-1600,-224,-15,48,43
4625,-48,-1600,-272,-13,51,29
4630,-40,-1624,-240,-6,57,16
4635,-24,-1680,-264,-2,61,6
4640,-24,-1648,-264,0,68,-4
4645,-32,-1656,-224,2,76,-17
4650,-8,-1664,-208,3,85,-32
4655,8,-1672,-208,5,91,-49
4660,-8,-1688,-184,6,97,-66
4665,0,-1744,-176,10,100,-79
4670,8,-1784,-152,15,103,-90
4675,0,-1776,-152,24,106,-99
4680,0,-1832,-168,39,112,-103
4685,8,-1904,-160,57,113,-104
4690,-8,-1928,-152,77,113,-108
4695,-24,-1944,-160,96,109,-108
4700,0,-1992,-168,113,105,-105
4705,-32,-2032,-152,134,103,-100
4710,-24,-2064,-136,163,106,-94
4715,-32,-2096,-112,199,110,-87
4720,-32,-2088,-72,241,115,-81
4725,-48,-2112,-56,291,123,-77
4730,-40,-2088,-64,342,134,-73
4735,-32,-2104,-64,388,147,-67
4740,0,-2112,-56,428,163,-58
4745,8,-2096,-8,458,180,-52
4750,24,-2080,-32,478,195,-42
4755,56,-2096,-8,491,207,-29
4760,80,-2040,-16,499,213,-16
4765,56,-2032,-32,498,214,3
4770,40,-2040,-96,483,203,15
4775,0,-2008,-144,450,186,26
4780,0,-2048,-264,405,163,37
4785,-64,-2112,-336,345,148,55
4790,-88,-2192,-296,284,143,71
4795,-128,-2320,-312,236,149,100
4800,-168,-2408,-208,209,162,132
4805,-208,-2496,-160,201,179,162
4810,-176,-2560,-184,195,190,191
4815,-112,-2576,-256,172,197,204
4820,-72,-2512,-232,141,203,212
4825,-80,-2496,-224,123,209,216
4830,-72,-2488,-168,114,210,217
4835,-56,-2496,-176,120,211,218
4840,-64,-2552,-312,122,226,224
4845,-72,-2624,-352,93,248,238
4850,-16,-2752,-336,52,269,254
4855,0,-2880,-280,39,296,273
4860,-16,-3008,-208,60,332,290
4865,-16,-3104,-80,95,362,311
4870,-16,-3216,24,135,376,333
4875,0,-3216,64,188,388,362
4880,8,-3208,40,248,402,394
4885,8,-3112,-16,297,415,414
4890,8,-2984,-144,332,426,417
4895,-48,-2760,-200,360,427,412
4900,-176,-2568,-312,384,412,401
4905,-272,-2368,-464,390,376,389
4910,-408,-2160,-608,371,325,368
4915,-496,-2000,-752,318,273,340
4920,-592,-1912,-856,239,225,302
4925,-704,-1848,-992,147,183,262
4930,-768,-1800,-1072,54,148,223
4935,-704,-1752,-1192,-35,130,187
4940,-616,-1728,-1256,-118,136,148
4945,-448,-1752,-1264,-195,171,118
4950,-240,-1808,-1224,-258,212,100
4955,-32,-1808,-1184,-294,247,86
4960,136,-1904,-1160,-306,271,83
4965,344,-1952,-1152,-312,281,87
4970,512,-1992,-1120,-308,278,85
4975,672,-2064,-1072,-284,265,79
4980,856,-2208,-1040,-241,237,68
4985,1008,-2368,-984,-197,200,44
4990,1040,-2376,-904,-141,166,10
4995,1048,-2408,-840,-59,150,-23
5000,1008,-2384,-784,20,159,-49
5005,904,-2424,-712,82,192,-67
5010,792,-2416,-680,115,233,-76
5015,640,-2424,-640,134,280,-81
5020,504,-2368,-584,148,327,-90
5025,344,-2312,-600,164,365,-100
5030,216,-2280,-608,169,401,-109
5035,72,-2280,-704,148,429,-126
5040,-72,-2272,-728,104,456,-141
5045,-152,-2296,-704,54,469,-160
5050,-232,-2176,-632,27,472,-185
5055,-344,-2184,-616,25,464,-208
5060,-360,-2144,-600,35,444,-225
5065,-352,-2120,-472,39,418,-239
5070,-336,-2064,-432,46,394,-255
5075,-320,-1992,-368,53,373,-260
5080,-288,-1944,-344,51,356,-268
5085,-192,-1888,-296,45,347,-275
5090,-152,-1824,-288,38,340,-279
5095,-96,-1768,-296,33,331,-285
5100,0,-1728,-280,21,321,-291
5105,40,-1680,-288,4,307,-300
5110,72,-1632,-288,-10,288,-310
5115,136,-1640,-264,-22,271,-318
5120,160,-1624,-248,-42,253,-327
5125,200,-1600,-272,-63,238,-332
5130,176,-1624,-232,-82,227,-332
5135,160,-1632,-216,-98,214,-333
5140,136,-1624,-216,-109,199,-338
5145,104,-1664,-216,-109,182,-342
5150,56,-1624,-200,-100,162,-349
5155,40,-1560,-176,-64,144,-354
5160,16,-1472,-184,-28,124,-346
5165,80,-1480,-208,-23,106,-323
5170,104,-1480,-208,-67,90,-298
5175,48,-1512,-216,-127,82,-279
5180,32,-1544,-152,-162,69,-269
5185,8,-1512,-152,-172,53,-264
5190,0,-1512,-136,-174,30,-250
5195,8,-1496,-120,-182,2,-241
5200,-8,-1472,-136,-184,-19,-233
5205,-16,-1472,-128,-175,-39,-225
5210,0,-1432,-80,-166,-55,-216
5215,-8,-1440,-112,-161,-67,-204
5220,16,-1440,-112,-166,-77,-186
5225,16,-1432,-72,-178,-82,-167
5230,0,-1424,-72,-186,-88,-147
5235,8,-1456,-40,-187,-93,-126
5240,8,-1480,-24,-179,-99,-106
5245,40,-1488,-40,-171,-102,-87
5250,40,-1520,-8,-166,-105,-68
5255,64,-1568,-24,-172,-111,-53
5260,56,-1584,16,-180,-117,-38
5265,72,-1632,96,-186,-125,-28
5270,64,-1696,72,-180,-131,-24
5275,88,-1744,88,-168,-137,-18
5280,80,-1776,144,-156,-144,-14
5285,96,-1800,152,-136,-155,-15
5290,72,-1792,168,-105,-172,-19
5295,104,-1824,192,-67,-190,-16
5300,56,-1800,160,-30,-211,-16
5305,64,-1768,128,3,-232,-18
5310,8,-1744,72,31,-251,-22
5315,-8,-1720,24,47,-267,-23
5320,-24,-1696,40,62,-281,-26
5325,-64,-1696,88,90,-301,-30
5330,-96,-1664,96,128,-331,-31
5335,-96,-1648,104,168,-364,-32
5340,-64,-1640,128,201,-395,-32
5345,-104,-1616,136,216,-424,-36
5350,-88,-1600,152,211,-448,-48
5355,-40,-1656,184,188,-466,-63
5360,-48,-1672,216,155,-484,-86
5365,-56,-1760,232,123,-509,-110
5370,-40,-1856,208,96,-536,-125
5375,-24,-1944,208,65,-566,-132
5380,-24,-2048,200,28,-595,-137
5385,-8,-2112,192,-8,-626,-144
5390,-88,-2208,160,-50,-658,-156
5395,64,-2240,136,-106,-703,-177
5400,88,-2320,128,-125,-713,-180
5405,112,-2344,176,-123,-721,-183
5410,144,-2344,184,-116,-732,-185
5415,168,-2320,232,-105,-742,-195
5420,224,-2320,232,-81,-750,-201
5425,240,-2264,264,-45,-755,-206
5430,256,-2224,264,-5,-752,-204
5435,312,-2208,232,29,-747,-202
5440,344,-2168,208,51,-743,-195
5445,352,-2168,224,60,-746,-191
5450,392,-2192,272,61,-757,-186
5455,384,-2264,304,58,-773,-187
5460,392,-2336,360,60,-795,-190
5465,376,-2448,416,68,-815,-195
5470,368,-2504,408,77,-831,-200
5475,368,-2536,384,87,-839,-207
5480,360,-2496,360,90,-833,-219
5485,408,-2424,312,94,-812,-227
5490,376,-2272,224,102,-775,-229
5495,440,-2192,72,114,-728,-219
5500,536,-1992,-24,118,-678,-196
5505,560,-1864,-120,102,-627,-163
5510,632,-1752,-256,78,-575,-122
5515,696,-1624,-392,32,-523,-75
5520,784,-1536,-536,-40,-466,-29
5525,808,-1472,-720,-140,-400,15
5530,864,-1472,-880,-267,-324,52
5535,832,-1456,-1088,-408,-241,82
5540,832,-1480,-1352,-553,-167,105
5545,792,-1528,-1600,-700,-108,108
5550,752,-1624,-1824,-842,-72,84
5555,688,-1768,-2080,-981,-47,42
5560,664,-1976,-2328,-1132,-27,1
5565,704,-2224,-2576,-1308,8,-50
5570,728,-2480,-2720,-1481,83,-107
5575,664,-2840,-2872,-1613,198,-171
5580,544,-3120,-2856,-1666,335,-236
5585,416,-3384,-2584,-1610,497,-294
5590,184,-3552,-2240,-1436,678,-331
5595,-48,-3680,-1696,-1167,838,-339
5600,-336,-3824,-1192,-821,951,-316
5605,-560,-3864,-736,-434,1030,-271
5610,-768,-3880,-464,-65,1072,-205
5615,-984,-3760,-384,240,1062,-122
5620,-1168,-3560,-456,446,999,-26
5625,-1192,-3352,-624,548,899,75
5630,-1224,-3152,-840,567,780,164
5635,-1064,-2992,-1016,517,634,245
5640,-816,-2848,-1144,432,461,302
5645,-520,-2712,-1176,357,275,335
5650,-296,-2648,-1168,310,88,347
5655,-56,-2608,-1088,284,-100,346
5660,88,-2472,-888,286,-273,331
5665,168,-2408,-760,313,-417,307
5670,152,-2376,-648,357,-527,280
5675,120,-2280,-600,404,-599,256
5680,80,-2152,-568,438,-625,235
5685,24,-1952,-616,447,-617,221
5690,-32,-1776,-584,438,-583,218
5695,-32,-1536,-616,419,-536,216
5700,-136,-1368,-632,390,-481,216
5705,-144,-1256,-640,341,-428,225
5710,-184,-1176,-648,265,-380,243
5715,-176,-1120,-616,195,-341,263
5720,-168,-1024,-568,113,-310,277
5725,-112,-984,-544,44,-288,283
5730,0,-960,-552,-25,-264,285
5735,96,-968,-528,-100,-243,286
5740,152,-992,-456,-190,-204,281
5745,328,-1072,-408,-279,-162,261
5750,304,-1144,-312,-348,-129,232
5755,424,-1184,-312,-393,-111,189
5760,504,-1232,-264,-428,-78,153
5765,536,-1280,-216,-458,-27,123
5770,592,-1280,-168,-480,34,100
5775,592,-1296,-168,-490,110,92
5780,520,-1392,-56,-488,186,92
5785,440,-1480,-56,-469,231,74
5790,336,-1504,-48,-422,269,63
5795,288,-1608,-40,-361,310,60
5800,200,-1640,-104,-302,347,61
5805,104,-1696,-152,-242,381,64
5810,72,-1696,-152,-182,414,69
5815,40,-1688,-184,-124,445,72
5820,16,-1680,-168,-72,467,77
5825,8,-1664,-160,-27,475,83
5830,-16,-1632,-168,13,469,96
5835,-72,-1560,-184,45,448,108
5840,-64,-1496,-224,68,419,116
5845,-104,-1472,-192,85,381,124
5850,-120,-1416,-272,92,343,129
5855,-168,-1360,-240,91,309,131
5860,-176,-1320,-304,76,278,137
5865,-192,-1344,-344,52,249,139
5870,-216,-1360,-336,16,227,138
5875,-184,-1408,-360,-23,214,135
5880,-160,-1456,-376,-65,215,129
5885,-104,-1568,-352,-100,229,122
5890,-64,-1648,-304,-126,265,113
5895,-32,-1768,-272,-144,311,103
5900,0,-1880,-248,-154,366,86
5905,32,-2032,-240,-162,425,70
5910,8,-2168,-160,-171,481,50
5915,0,-2256,-136,-172,534,33
5920,-8,-2424,-104,-168,576,19
5925,8,-2512,-64,-155,608,8
5930,-24,-2600,32,-122,631,3
5935,0,-2688,152,-70,648,3
5940,-24,-2728,280,5,653,9
5945,-80,-2728,384,99,645,22
5950,-144,-2720,400,205,628,44
5955,-184,-2696,416,310,608,75
5960,-272,-2680,416,407,589,108
5965,-312,-2648,368,495,566,148
5970,-368,-2624,328,572,542,184
5975,-352,-2592,216,630,518,214
5980,-360,-2528,216,670,498,233
5985,-352,-2528,136,695,489,243
5990,-320,-2496,112,709,489,244
5995,-272,-2504,88,715,498,238
6000,-288,-2488,72,718,514,223
6005,-344,-2504,72,711,537,213
6010,-344,-2464,32,700,561,207
6015,-360,-2440,40,690,585,210
6020,-464,-2424,40,669,601,218
6025,-488,-2400,64,630,606,233
6030,-520,-2352,72,577,604,253
6035,-520,-2360,24,511,595,273
6040,-512,-2400,-24,435,582,287
6045,-472,-2384,-72,364,567,296
6050,-424,-2296,-160,322,551,290
6055,-424,-2168,-272,297,526,274
6060,-392,-2040,-432,287,491,248
6065,-440,-1880,-664,270,455,205
6070,-408,-1696,-840,244,412,160
6075,-432,-1440,-1112,215,382,113
6080,-400,-1200,-1368,173,372,59
6085,-336,-864,-1632,97,393,5
6090,-312,-664,-1848,5,424,-50
6095,-264,-632,-2024,-124,461,-87
6100,-176,-752,-2152,-300,483,-97
6105,-80,-1024,-2200,-491,475,-94
6110,24,-1456,-2192,-634,455,-72
6115,80,-1960,-2176,-709,412,-38
6120,160,-2464,-2056,-736,346,10
6125,312,-2896,-1968,-719,249,64
6130,488,-3336,-1840,-649,109,135
6135,720,-3688,-1576,-523,-73,210
6140,1016,-3960,-1136,-322,-277,276
6145,1264,-4120,-696,-60,-484,324
6150,1424,-4128,-440,210,-673,353
6155,1464,-3968,-400,450,-834,362
6160,1464,-3696,-440,636,-936,360
6165,1304,-3376,-664,747,-964,346
6170,1168,-2960,-808,776,-905,316
6175,960,-2528,-888,755,-756,286
6180,776,-2160,-880,704,-545,244
6185,488,-1904,-760,647,-305,184
6190,288,-1688,-704,611,-88,120
6195,16,-1512,-648,584,94,49
6200,-184,-1504,-616,538,242,-13
6205,-352,-1488,-512,478,353,-73
6210,-512,-1464,-472,419,423,-119
6215,-560,-1504,-392,367,460,-142
6220,-552,-1600,-288,310,467,-160
6225,-536,-1688,-216,251,439,-175
6230,-472,-1752,-152,202,379,-192
6235,-336,-1744,-64,164,301,-219
6240,-288,-1792,-80,124,219,-252
6245,-168,-1776,-56,76,148,-302
6250,-88,-1816,64,31,108,-343
6255,-16,-1856,176,8,101,-375
6260,8,-1912,320,9,122,-398
6265,16,-1992,416,32,155,-415
6270,56,-2096,544,68,193,-431
6275,72,-2168,608,117,228,-446
6280,-16,-2176,672,194,254,-453
6285,-88,-2184,648,290,259,-445
6290,-200,-2208,680,401,234,-423
6295,-232,-2160,656,530,193,-394
6300,-192,-2080,648,644,145,-348
6305,-208,-2056,624,740,124,-280
6310,-136,-2040,584,830,129,-197
6315,-56,-1984,552,909,154,-121
6320,16,-1888,480,963,191,-56
6325,120,-1768,376,1001,244,-4
6330,224,-1704,384,1022,314,36
6335,344,-1624,376,1029,398,65
6340,440,-1536,376,1038,493,80
6345,504,-1456,352,1060,595,86
6350,632,-1464,344,1089,701,89
6355,648,-1376,320,1133,810,84
6360,712,-1280,232,1184,908,70
6365,696,-1160,144,1219,992,52
6370,704,-1064,40,1223,1068,37
6375,632,-968,-72,1201,1131,23
6380,544,-896,-168,1170,1177,21
6385,368,-880,-184,1134,1221,53
6390,112,-928,-216,1109,1256,128
6395,-64,-1000,-176,1104,1261,238
6400,-320,-1016,-120,1136,1232,367
6405,-576,-1024,48,1220,1150,524
6410,-720,-992,112,1350,1027,654
6415,-800,-896,112,1507,877,809
6420,-880,-840,88,1663,738,938
6425,-920,-736,0,1797,640,1044
6430,-872,-648,64,1907,603,1135
6435,-736,-552,120,1991,618,1227
6440,-528,-392,120,2064,676,1305
6445,-328,-120,16,2133,769,1350
6450,-48,104,-96,2187,895,1365
6455,176,328,-168,2201,1043,1364
6460,384,624,-176,2164,1197,1356
6465,544,872,-160,2098,1333,1321
6470,696,1112,-200,2029,1432,1272
6475,800,1288,-320,1964,1486,1207
6480,888,1416,-496,1881,1493,1128
6485,904,1416,-664,1754,1467,1055
6490,896,1328,-728,1581,1438,1008
6495,824,1072,-776,1390,1432,989
6500,792,760,-792,1177,1448,996
6505,752,536,-888,962,1473,1009
6510,760,336,-848,761,1495,1018
6515,800,216,-816,605,1503,1014
6520,784,88,-672,522,1519,998
6525,816,64,-600,518,1550,983
6530,816,-32,-512,573,1601,971
6535,784,-72,-472,667,1664,964
6540,784,-128,-560,751,1740,966
6545,848,-192,-688,798,1836,974
6550,1040,-336,-1168,813,1996,967
6555,1192,-448,-1688,762,2272,951
6560,1424,-632,-2072,621,2598,913
6565,2128,-816,-2856,410,2858,855
6570,3032,-880,-4512,13,3023,749
6575,3648,-736,-5976,-745,3142,631
6580,2616,-1200,-4944,-1660,3363,701
6585,1168,-2232,-2160,-2035,3545,1080
6590,-544,-3432,1496,-1481,3692,1619
6595,-2512,-4368,3848,-40,3750,2163
6600,-4328,-4696,3776,1641,3776,2640
6605,-5816,-4360,2216,2821,4042,3115
6610,-7104,-3984,648,3160,4363,3537
6615,-7592,-3696,-8,2911,4248,3792
6620,-7776,-3008,-32,2508,3149,3688
6625,-6448,-2368,80,2498,1388,3364
6630,-4248,-1744,96,2924,-91,2914
6635,-2296,-1192,296,3199,-962,2423
6640,-600,-560,848,3007,-1294,1983
6645,584,-32,1520,2481,-1243,1581
6650,1200,304,1872,2001,-1086,1224
6655,1704,352,1224,1782,-1072,948
6660,2544,568,-648,1676,-1188,692
6665,2944,1168,-2400,1453,-1220,445
6670,2856,1752,-3256,911,-934,306
6675,2576,1960,-2688,160,-319,324
6680,2464,1680,-1112,-453,536,502
6685,2624,792,496,-838,1486,758
6690,2584,-672,1456,-844,2311,1109
6695,2480,-1800,1016,-202,2727,1585
6700,2096,-2040,128,714,2633,1978
6705,1248,-1800,-304,1433,2175,2163
6710,208,-1584,-272,1760,1745,2199
6715,-664,-1624,-408,1945,1531,2137
6720,-1168,-1640,-1128,2086,1511,1998
6725,-1552,-1400,-1064,2200,1547,1829
6730,-1920,-1000,-96,2202,1591,1685
6735,-2288,-576,728,2104,1700,1573
6740,-2488,-80,952,1955,1857,1432
6745,-2552,344,552,1800,2047,1325
6750,-2392,832,-456,1689,2015,1299
6755,-1936,1416,-1216,1581,1680,1349
6760,-1592,1920,-968,1419,1205,1425
6765,-1560,2104,-32,1324,732,1549
6770,-2176,1808,1264,1451,367,1730
6775,-2792,1216,1776,1720,79,1909
6780,-3400,592,1872,1875,-187,2004
6785,-3208,-256,896,1862,-274,2088
6790,-2920,-1280,1696,1618,-172,2082
6795,-2384,-2904,2296,1487,-84,1966
6800,-1696,-4488,2216,1564,-210,1750
6805,-1112,-6328,3176,1513,-621,1383
6810,-1544,-7824,4896,1492,-950,883
6815,-3320,-9008,8512,1739,-1092,444
6820,-5696,-11864,17696,2494,-1348,261
6825,-14264,-16368,27896,4639,-2063,291
6830,-32624,-15728,13568,7020,-3036,1404
6835,-32768,-21304,-9456,2741,-2421,3854
6840,-31056,-24224,-3328,-3272,-2649,5838
6845,-4952,-18872,-2416,-1235,-3300,1482
6850,5464,-9032,-2344,3162,-4552,-3683
6855,9520,-1776,-7608,6523,-5375,-3497
6860,12432,968,-8560,7196,-5304,230
6865,10656,2760,296,5213,-2567,2685
6870,6768,3952,8704,2305,374,3120
6875,2840,2816,9312,454,1622,3156
6880,288,2384,5752,267,2053,3272
6885,-776,2048,1704,470,2141,3386
6890,-1288,1344,-480,472,2192,3348
6895,-304,408,-864,453,2068,3085
6900,376,-752,-56,609,1870,2479
6905,296,-1560,424,905,1872,1808
6910,-848,-1896,376,1126,2089,1340
6915,-1760,-1832,560,1121,2080,1077
6920,-2320,-1528,640,992,1781,931
6925,-2472,-1344,904,823,1549,884
6930,-2320,-1208,1488,665,1414,870
6935,-1952,-1056,1856,607,1310,846
6940,-1592,-976,1848,642,1170,854
6945,-1312,-920,1744,642,999,858
6950,-1088,-920,1720,581,822,815
6955,-872,-992,1728,534,700,732
6960,-880,-1008,1912,554,684,614
6965,-960,-944,1984,634,732,488
6970,-976,-960,1928,737,800,383
6975,-1144,-992,1968,815,849,298
6980,-1232,-1048,1904,874,840,263
6985,-1352,-1160,1728,913,762,272
6990,-1336,-1128,1488,951,651,296
6995,-1336,-960,1208,1015,550,337
7000,-1368,-672,1096,1074,503,388
7005,-1320,-360,1056,1090,527,433
7010,-1272,-88,1080,1023,599,461
7015,-1248,88,1152,900,687,481
7020,-1152,120,1264,772,763,488
7025,-1120,168,1352,676,817,478
7030,-1040,200,1360,619,842,460
7035,-976,176,1264,597,858,422
7040,-936,240,1088,573,898,392
7045,-976,280,936,529,963,372
7050,-960,304,776,452,1032,363
7055,-944,272,680,369,1083,367
7060,-928,264,616,304,1109,360
7065,-944,264,568,288,1124,351
7070,-992,240,536,313,1120,343
7075,-1248,304,440,363,1095,333
7080,-1392,360,288,402,1047,338
7085,-1328,392,48,418,1015,343
7090,-1280,424,0,402,1036,321
7095,-1200,528,8,356,1082,263
7100,-1352,552,24,329,1145,179
7105,-1608,600,-112,299,1197,112
7110,-1824,600,-176,227,1226,88
7115,-1984,584,-208,157,1244,72
7120,-2440,600,56,107,1254,74
7125,-2608,648,-16,30,1219,79
7130,-2608,376,328,-115,1108,89
7135,-2528,40,816,-167,940,40
7140,-2456,-112,976,-54,781,-91
7145,-2424,-192,944,67,645,-250
7150,-2448,-272,808,111,535,-396
7155,-2512,-432,680,102,458,-511
7160,-2544,-456,600,96,406,-605
7165,-2552,-432,624,123,372,-675
7170,-2600,-176,600,206,344,-718
7175,-2648,72,520,301,311,-723
7180,-2680,384,496,360,269,-679
7185,-2688,592,504,382,221,-583
7190,-2576,680,472,403,177,-448
7195,-2432,728,432,436,175,-301
7200,-2288,640,480,454,221,-164
7205,-2232,544,568,443,286,-70
7210,-2056,472,680,422,342,-28
7215,-1904,472,696,385,383,-26
7220,-1728,424,744,326,412,-54
7225,-1544,368,792,246,432,-101
7230,-1424,360,856,168,447,-156
7235,-1368,272,976,96,463,-215
7240,-1328,200,1000,34,492,-264
7245,-1424,192,1024,-18,541,-296
7250,-1464,168,1040,-64,610,-311
7255,-1552,136,1040,-108,693,-322
7260,-1688,0,1104,-131,779,-326
7265,-1848,-88,1208,-91,821,-345
7270,-1896,-120,1112,-21,830,-360
7275,-2056,-96,1064,36,828,-379
7280,-2208,-184,1112,93,784,-402
7285,-2192,-112,912,177,709,-448
7290,-2224,-88,936,241,663,-493
7295,-2232,48,848,278,641,-532
7300,-2200,32,896,269,635,-560
7305,-2024,-16,856,275,616,-600
7310,-1912,-96,840,315,621,-614
7315,-1840,-240,736,385,639,-621
7320,-1760,-224,608,457,651,-624
7325,-1816,-240,504,507,659,-631
7330,-1872,-232,448,521,643,-613
7335,-1864,-232,360,518,598,-574
7340,-1880,-104,240,499,518,-541
7345,-1960,48,72,432,406,-530
7350,-2088,120,-16,340,289,-534
7355,-2104,152,-16,256,156,-542
7360,-2128,208,24,206,24,-559
7365,-2080,176,128,205,-68,-566
7370,-2080,232,208,247,-113,-571
7375,-2016,144,248,286,-134,-573
7380,-2000,72,312,302,-126,-568
7385,-1872,-40,392,307,-96,-555
7390,-1912,-160,440,302,-62,-542
7395,-1864,-208,512,297,-43,-518
7400,-1904,-360,632,266,-25,-468
7405,-1920,-528,760,231,-20,-404
7410,-1992,-680,808,246,-50,-355
7415,-2008,-784,824,302,-82,-329
7420,-2056,-792,816,365,-77,-322
7425,-2144,-784,752,400,-48,-311
7430,-2272,-656,712,398,-25,-299
7435,-2400,-544,704,352,-21,-290
7440,-2472,-416,704,279,-42,-279
7445,-2552,-392,664,179,-82,-265
7450,-2568,-352,640,82,-145,-248
7455,-2544,-352,592,1,-229,-236
7460,-2456,-408,560,-42,-314,-223
7465,-2376,-456,448,-48,-378,-210
7470,-2312,-504,408,-46,-410,-197
7475,-2216,-656,408,-41,-408,-182
7480,-2096,-728,384,-18,-391,-169
7485,-2000,-768,384,-1,-350,-166
7490,-1872,-784,360,3,-305,-168
7495,-1840,-776,400,-5,-266,-175
7500,-1776,-720,408,-12,-245,-180
7505,-1784,-616,464,-13,-242,-181
7510,-1752,-544,472,-14,-254,-182
7515,-1704,-472,528,-20,-283,-175
7520,-1656,-408,488,-29,-334,-164
7525,-1680,-392,448,-43,-399,-148
7530,-1664,-344,536,-60,-465,-128
7535,-1664,-360,624,-75,-527,-102
7540,-1704,-440,680,-80,-579,-75
7545,-1728,-472,696,-78,-622,-54
7550,-1768,-520,768,-68,-651,-36
7555,-1752,-568,776,-49,-665,-24
7560,-1752,-544,792,-30,-671,-18
7565,-1744,-488,824,-14,-674,-13
7570,-1768,-472,800,-6,-675,-12
7575,-1776,-448,776,-5,-674,-11
7580,-1760,-424,768,-9,-667,-9
7585,-1752,-392,768,-20,-652,-5
7590,-1760,-384,776,-35,-632,1
7595,-1784,-360,832,-53,-606,5
7600,-1792,-336,848,-69,-574,10
7605,-1832,-312,880,-84,-538,11
7610,-1856,-288,888,-103,-504,10
7615,-1832,-264,912,-121,-475,7
7620,-1832,-232,904,-136,-453,7
7625,-1816,-240,920,-148,-437,9
7630,-1808,-232,952,-154,-424,13
7635,-1856,-304,1000,-155,-410,19
7640,-1816,-264,976,-153,-394,24
7645,-1800,-280,984,-152,-381,30
7650,-1800,-280,976,-149,-366,34
7655,-1768,-272,1024,-149,-352,39
7660,-1776,-328,1008,-150,-339,45
7665,-1760,-296,1056,-149,-328,49
7670,-1720,-336,1072,-151,-323,53
7675,-1688,-328,1104,-153,-312,55
7680,-1648,-336,1112,-156,-299,58
7685,-1624,-344,1112,-157,-282,58
7690,-1640,-344,1112,-159,-259,59
7695,-1608,-320,1088,-160,-230,62
7700,-1624,-296,1080,-164,-197,65
7705,-1616,-296,1056,-171,-162,66
7710,-1592,-320,1056,-176,-129,69
7715,-1560,-328,1056,-179,-106,70
7720,-1592,-312,1040,-176,-82,72
7725,-1576,-328,1056,-170,-65,71
7730,-1624,-328,1056,-162,-51,71
7735,-1600,-328,1064,-151,-42,70
7740,-1608,-344,1064,-144,-36,68
7745,-1544,-328,992,-139,-32,63
7750,-1608,-360,1056,-136,-27,53
7755,-1616,-360,1024,-135,-21,42
7760,-1608,-400,1032,-135,-15,32
7765,-1600,-416,1056,-134,-11,21
7770,-1600,-408,1040,-132,-5,11
7775,-1576,-416,1064,-128,3,3
7780,-1592,-392,1064,-123,9,-7
7785,-1624,-408,1080,-118,18,-18
7790,-1608,-408,1024,-114,26,-26
7795,-1632,-408,1072,-110,36,-33
7800,-1648,-392,1000,-108,47,-39
7805,-1608,-392,1000,-105,57,-43
7810,-1656,-384,984,-102,66,-48
7815,-1664,-392,968,-97,74,-54
7820,-1656,-400,952,-91,79,-58
7825,-1688,-392,952,-87,86,-62
7830,-1704,-408,960,-85,95,-65
7835,-1712,-400,960,-86,103,-67
7840,-1736,-416,944,-88,110,-67
7845,-1752,-416,976,-91,113,-66
7850,-1760,-440,1000,-94,117,-65
7855,-1784,-448,968,-88,117,-57
7860,-1744,-424,976,-81,110,-48
7865,-1712,-432,944,-76,108,-36
7870,-1688,-456,960,-64,114,-28
7875,-1712,-456,968,-48,119,-20
7880,-1720,-448,968,-32,124,-10
7885,-1728,-472,976,-17,129,-2
7890,-1744,-456,984,2,131,6
7895,-1752,-448,992,19,129,12
7900,-1792,-432,976,38,124,15
7905,-1800,-424,968,55,118,18
7910,-1800,-416,920,69,110,17
7915,-1816,-432,920,80,106,16
7920,-1800,-400,912,86,98,17
7925,-1824,-424,872,87,95,16
7930,-1832,-392,872,84,95,14
7935,-1832,-352,848,80,92,12
7940,-1824,-392,864,72,90,11
7945,-1840,-384,864,66,86,10
7950,-1824,-360,856,65,75,7
7955,-1824,-368,856,62,64,4
7960,-1840,-384,864,57,51,0
7965,-1864,-320,864,55,30,-5
7970,-1832,-296,864,49,8,-10
7975,-1824,-288,840,38,-11,-15
7980,-1816,-288,840,25,-27,-20
7985,-1816,-288,832,12,-35,-22
7990,-1832,-280,872,-1,-41,-24
7995,-1816,-288,840,-13,-45,-18
8000,-1776,-296,864,-20,-45,-15
8005,-1744,-360,896,-23,-44,-11
8010,-1752,-376,912,-22,-46,-8
8015,-1736,-400,936,-20,-47,-8
8020,-1736,-400,936,-20,-49,-7
8025,-1736,-392,968,-23,-49,-7
8030,-1728,-376,968,-28,-49,-6
8035,-1728,-352,992,-36,-48,-5
8040,-1720,-344,1008,-44,-44,-2
8045,-1736,-360,992,-52,-40,2
8050,-1728,-376,1016,-57,-35,6
8055,-1744,-392,1000,-61,-31,10
8060,-1760,-440,1000,-57,-26,11
8065,-1752,-448,1008,-47,-19,10
8070,-1736,-456,1016,-33,-14,7
8075,-1752,-456,1016,-18,-9,2
8080,-1768,-472,1016,-2,-7,-6
8085,-1760,-456,1016,16,-8,-10
8090,-1768,-448,1024,30,-6,-14
8095,-1752,-440,968,44,-7,-16
8100,-1704,-448,984,55,-2,-16
8105,-1680,-424,960,60,4,-14
8110,-1696,-416,976,65,12,-8
8115,-1664,-416,984,69,19,-1
8120,-1696,-376,928,70,21,6
8125,-1672,-408,912,71,19,12
8130,-1688,-384,928,69,15,18
8135,-1672,-376,952,65,10,21
8140,-1696,-384,968,62,6,18
8145,-1688,-384,976,60,1,14
8150,-1736,-344,960,57,-3,7
8155,-1704,-352,976,53,-6,2
8160,-1720,-352,976,51,-7,-4
8165,-1720,-344,968,48,-6,-8
8170,-1792,-328,984,46,-1,-14
8175,-1760,-296,936,43,2,-14
8180,-1760,-312,944,32,9,-14
8185,-1744,-320,944,24,16,-15
8190,-1728,-344,944,13,23,-13
8195,-1784,-312,904,2,29,-15
8200,-1712,-312,928,-10,35,-13
8205,-1720,-336,976,-22,40,-13
8210,-1744,-304,984,-32,41,-12
8215,-1736,-328,1008,-43,40,-13
8220,-1752,-360,992,-50,34,-14
8225,-1736,-336,992,-54,28,-14
8230,-1720,-328,976,-54,24,-14
8235,-1744,-344,984,-51,23,-14
8240,-1736,-336,968,-47,24,-14
8245,-1720,-360,960,-42,26,-11
8250,-1760,-360,976,-39,26,-10
8255,-1720,-352,960,-37,26,-9
8260,-1736,-368,960,-34,25,-8
8265,-1760,-344,952,-34,25,-9
8270,-1728,-376,952,-33,24,-9
8275,-1736,-376,976,-33,24,-9
8280,-1744,-392,992,-30,22,-8
8285,-1720,-384,1008,-26,19,-9
8290,-1736,-384,1000,-21,18,-10
8295,-1704,-376,1008,-17,17,-10
8300,-1712,-360,992,-14,15,-12
8305,-1704,-376,976,-13,10,-13
8310,-1752,-344,1000,-14,3,-12
8315,-1768,-352,944,-17,-5,-14
8320,-1744,-336,968,-19,-9,-14
8325,-1744,-344,960,-23,-9,-14
8330,-1744,-376,968,-25,-6,-15
8335,-1776,-336,976,-26,0,-14
8340,-1728,-344,960,-28,10,-14
8345,-1736,-376,960,-29,17,-14
8350,-1728,-400,944,-29,20,-14
8355,-1696,-384,1000,-30,25,-14
8360,-1696,-376,1008,-30,28,-14
8365,-1696,-376,1016,-30,26,-13
8370,-1712,-392,1016,-31,24,-13
8375,-1688,-376,1008,-32,22,-14
8380,-1704,-416,1008,-31,18,-17
8385,-1688,-384,1016,-27,17,-17
8390,-1696,-400,1024,-24,14,-18
8395,-1704,-400,1032,-20,12,-16
8400,-1704,-440,1008,-16,13,-16
8405,-1696,-416,992,-12,14,-16
8410,-1688,-408,1016,-8,14,-15
8415,-1696,-424,1000,-5,15,-14
8420,-1680,-440,1032,-1,16,-12
8425,-1680,-424,1008,4,16,-11
8430,-1696,-408,1016,8,15,-11
8435,-1696,-400,1000,9,15,-10
8440,-1696,-376,992,10,13,-10
8445,-1688,-360,992,9,10,-8
8450,-1696,-352,1032,6,7,-8
8455,-1704,-376,976,2,6,-7
8460,-1696,-352,984,-4,9,-6
8465,-1720,-368,992,-11,12,-4
8470,-1688,-384,1000,-19,19,-3
8475,-1704,-392,1000,-26,26,-1
8480,-1696,-352,1008,-30,33,-1
8485,-1704,-384,992,-33,37,-1
8490,-1688,-384,1024,-34,42,1
8495,-1688,-384,1024,-33,41,1
8500,-1688,-368,1016,-33,39,1
8505,-1744,-312,960,-31,37,1
8510,-1696,-392,1008,-31,35,1
8515,-1704,-392,1016,-30,34,2
8520,-1688,-344,1024,-30,34,1
8525,-1688,-392,984,-29,32,0
8530,-1696,-400,1032,-24,30,2
8535,-1704,-392,1048,-20,27,3
8540,-1688,-360,1032,-16,24,4
8545,-1696,-392,1008,-14,24,5
8550,-1680,-368,1032,-12,21,5
8555,-1688,-384,1000,-11,20,5
8560,-1680,-384,1040,-10,22,5
8565,-1672,-400,1040,-9,25,3
8570,-1688,-384,1032,-10,28,2
8575,-1688,-384,1064,-11,31,0
8580,-1688,-376,1056,-11,37,-1
8585,-1688,-368,1032,-12,44,1
8590,-1720,-352,1056,-17,54,0
8595,-1720,-344,1024,-20,63,3
8600,-1696,-336,1000,-25,68,7
8605,-1720,-352,1008,-30,70,9
8610,-1712,-376,1000,-34,67,9
8615,-1640,-352,1040,-36,62,9
8620,-1712,-376,1008,-35,58,7
8625,-1712,-376,1008,-33,55,8
8630,-1680,-400,1024,-30,52,4
8635,-1680,-384,1016,-23,50,4
8640,-1688,-392,1024,-18,51,4
8645,-1680,-376,1000,-14,52,2
8650,-1704,-368,1008,-11,53,1
8655,-1672,-392,1008,-9,52,0
8660,-1680,-368,1040,-9,53,0
8665,-1672,-400,1008,-9,52,-2
8670,-1688,-368,1008,-11,51,-5
8675,-1696,-368,1008,-12,51,-5
8680,-1712,-384,1024,-11,50,-6
8685,-1696,-376,1016,-9,47,-8
8690,-1704,-376,1016,-9,47,-7
8695,-1736,-368,1032,-9,45,-6
8700,-1712,-360,976,-8,42,-8
8705,-1752,-336,992,-9,40,-10
8710,-1736,-352,976,-10,39,-13
8715,-1728,-360,1008,-15,43,-15
8720,-1744,-344,1000,-22,50,-15
8725,-1728,-272,984,-29,59,-16
8730,-1696,-408,1000,-34,69,-16
8735,-1696,-392,1016,-33,76,-16
8740,-1680,-384,1016,-30,81,-16
8745,-1696,-384,1048,-27,81,-15
8750,-1680,-408,1008,-24,81,-14
8755,-1696,-392,1024,-18,77,-10
8760,-1688,-400,1032,-12,73,-9
8765,-1688,-384,1040,-7,66,-8
8770,-1696,-368,1000,-5,55,-6
8775,-1720,-360,1000,-4,44,-5
8780,-1688,-384,976,-8,38,-4
8785,-1728,-360,1008,-14,33,-3
8790,-1680,-376,992,-20,32,-1
8795,-1712,-376,1000,-23,32,-1
8800,-1680,-400,1000,-24,36,-1
8805,-1704,-384,1032,-23,40,-1
8810,-1680,-392,1024,-20,42,-2
8815,-1688,-392,1064,-17,44,-1
8820,-1712,-392,1016,-14,45,-4
8825,-1688,-392,1040,-8,47,-6
8830,-1712,-400,1040,-3,49,-7
8835,-1728,-400,1000,0,51,-8
8840,-1736,-360,1016,2,52,-10
8845,-1704,-400,1008,5,54,-12
8850,-1712,-360,1048,5,58,-16
8855,-1696,-360,1016,5,61,-16
8860,-1680,-384,1000,6,66,-17
8865,-1712,-360,976,6,70,-17
8870,-1688,-368,1008,6,71,-17
8875,-1696,-368,1008,5,71,-16
8880,-1680,-360,992,6,66,-14
8885,-1680,-392,1000,4,59,-14
8890,-1688,-384,1016,0,51,-15
8895,-1704,-408,1024,-3,41,-16
8900,-1712,-352,1056,-5,32,-15
8905,-1688,-416,1024,-6,26,-15
8910,-1704,-384,1016,-8,21,-14
8915,-1696,-368,984,-6,19,-12
8920,-1688,-384,1032,-5,21,-10
8925,-1696,-392,1040,-3,24,-7
8930,-1696,-408,1008,-3,28,-6
8935,-1720,-400,992,-4,33,-4
8940,-1680,-400,1016,-6,39,-2
8945,-1696,-408,992,-8,42,-1
8950,-1680,-400,1016,-8,43,2
8955,-1672,-432,1048,-9,44,4
8960,-1712,-408,1032,-9,45,8
8965,-1680,-408,1048,-8,47,11
8970,-1688,-416,1032,-8,47,10
8975,-1680,-432,1072,-8,49,11
8980,-1688,-424,1040,-7,50,10
8985,-1672,-416,1056,-4,51,9
8990,-1680,-432,1040,2,49,5
8995,-1704,-408,1032,8,48,1
9000,-1680,-424,1024,14,47,-2
9005,-1696,-400,1056,21,44,-4
9010,-1704,-376,1008,27,42,-6
9015,-1696,-360,1008,29,40,-6
9020,-1688,-352,992,28,40,-6
9025,-1696,-344,1032,24,38,-7
9030,-1712,-320,968,21,34,-5
9035,-1704,-320,992,16,30,-5
9040,-1696,-344,1000,9,27,-4
9045,-1680,-352,1000,1,25,-4
9050,-1688,-344,1048,-7,24,-3
9055,-1688,-352,1008,-13,26,1
9060,-1664,-368,1040,-21,29,1
9065,-1688,-360,1040,-25,32,1
9070,-1664,-400,1080,-28,36,1
9075,-1656,-384,1040,-29,41,2
9080,-1680,-368,1080,-27,43,0
9085,-1688,-352,1048,-24,44,-2
9090,-1672,-376,1064,-23,41,-6
9095,-1696,-336,1072,-22,39,-9
9100,-1680,-352,1056,-21,37,-11
9105,-1696,-336,1016,-19,37,-11
9110,-1664,-360,1024,-19,39,-13
9115,-1704,-336,1040,-18,42,-12
9120,-1712,-320,1040,-19,49,-9
9125,-1672,-368,1048,-18,53,-6
9130,-1656,-368,1008,-18,54,-6
9135,-1664,-368,1056,-18,51,-5
9140,-1656,-376,1040,-18,48,-5
9145,-1656,-360,1064,-16,44,-3
9150,-1664,-360,1032,-13,39,-2
9155,-1672,-416,1144,-9,34,-2
9160,-1664,-384,1056,-6,28,-6
9165,-1680,-400,1072,-3,22,-7
9170,-1720,-368,1064,0,15,-11
9175,-1688,-384,1048,1,10,-11
9180,-1672,-392,1032,5,10,-14
9185,-1640,-392,1024,7,15,-17
9190,-1672,-400,1032,9,16,-20
9195,-1640,-376,1024,9,20,-23
9200,-1672,-376,1048,8,21,-28
9205,-1640,-360,1048,7,22,-32
9210,-1640,-368,1064,3,18,-40
9215,-1664,-352,1064,0,9,-51
9220,-1696,-360,1048,-4,-8,-63
9225,-1704,-360,1048,-11,-30,-75
9230,-1672,-384,1064,-20,-46,-84
9235,-1712,-384,1056,-26,-51,-93
9240,-1728,-424,1072,-33,-50,-99
9245,-1784,-448,1072,-32,-49,-101
9250,-1760,-432,1048,-24,-44,-100
9255,-1760,-424,1000,-14,-31,-96
9260,-1728,-400,1040,-11,-13,-89
9265,-1696,-376,1008,-11,10,-82
9270,-1712,-328,1024,-15,36,-75
9275,-1664,-336,1008,-20,58,-70
9280,-1672,-312,1000,-21,69,-65
9285,-1648,-272,1016,-20,72,-64
9290,-1664,-280,1040,-24,70,-63
9295,-1648,-272,1048,-33,63,-63
9300,-1624,-272,1048,-39,53,-63
9305,-1648,-280,1080,-47,44,-65
9310,-1632,-280,1048,-56,37,-68
9315,-1648,-296,1064,-66,29,-73
9320,-1664,-280,1064,-79,19,-75
9325,-1688,-296,1080,-93,11,-72
9330,-1720,-296,1056,-109,3,-70
9335,-1728,-296,1040,-125,-4,-64
9340,-1768,-304,1080,-140,-7,-57
9345,-1760,-328,1056,-151,-8,-51
9350,-1768,-368,1056,-157,-8,-47
9355,-1736,-368,1056,-160,-10,-43
9360,-1712,-416,1056,-157,-7,-42
9365,-1712,-416,1024,-150,-7,-41
9370,-1704,-416,1048,-141,-6,-39
9375,-1688,-432,1040,-131,-3,-38
9380,-1632,-312,1064,-124,-2,-34
9385,-1696,-376,1032,-120,-1,-31
9390,-1640,-408,1016,-118,0,-30
9395,-1648,-432,1056,-114,3,-26
9400,-1616,-424,1056,-109,7,-26
9405,-1624,-456,1064,-101,11,-27
9410,-1616,-448,1080,-90,17,-27
9415,-1592,-448,1088,-74,19,-26
9420,-1560,-504,1080,-54,21,-26
9425,-1600,-480,1104,-33,20,-36
9430,-1584,-488,1056,-15,20,-37
9435,-1544,-488,1088,-4,15,-39
9440,-1592,-488,1088,7,18,-38
9445,-1576,-528,1072,17,19,-33
9450,-1624,-488,1064,29,16,-27
9455,-1600,-504,1056,40,15,-32
9460,-1608,-480,1056,43,14,-35
9465,-1608,-488,1088,40,10,-33
9470,-1592,-496,1088,38,4,-33
9475,-1600,-512,1104,36,-1,-33
9480,-1608,-488,1112,34,-2,-35
9485,-1616,-504,1144,32,-9,-38
9490,-1624,-504,1136,29,-10,-40
9495,-1624,-504,1144,26,-9,-37
9500,-1672,-480,1104,24,-3,-39
9505,-1680,-480,1136,22,8,-40
9510,-1648,-456,1104,23,20,-41
9515,-1664,-440,1104,22,36,-40
9520,-1656,-408,1064,21,53,-37
9525,-1648,-424,1072,16,68,-37
9530,-1680,-408,1072,11,82,-34
9535,-1640,-416,1072,9,90,-31
9540,-1632,-400,1016,6,93,-30
9545,-1648,-400,1056,-1,92,-30
9550,-1624,-408,1056,-8,89,-28
9555,-1608,-416,1064,-15,83,-26
9560,-1624,-416,1064,-22,77,-23
9565,-1616,-424,1088,-31,68,-20
9570,-1632,-416,1088,-36,56,-20
9575,-1608,-408,1088,-39,46,-21
9580,-1600,-408,1112,-46,39,-24
9585,-1624,-392,1080,-50,36,-25
9590,-1616,-400,1104,-55,35,-29
9595,-1680,-432,1104,-62,38,-30
9600,-1640,-416,1096,-70,41,-32
9605,-1632,-424,1112,-74,39,-32
9610,-1672,-424,1064,-72,33,-31
9615,-1696,-424,1072,-69,24,-28
9620,-1712,-400,1040,-71,14,-25
9625,-1696,-360,1048,-75,3,-25
9630,-1712,-368,1008,-77,-10,-27
9635,-1736,-384,984,-78,-22,-25
9640,-1720,-416,984,-76,-31,-25
9645,-1696,-472,1064,-67,-35,-22
9650,-1704,-456,1088,-53,-34,-16
9655,-1672,-504,1080,-36,-28,-10
9660,-1640,-512,1096,-11,-21,-2
9665,-1592,-536,1152,15,-13,3
9670,-1576,-544,1200,43,-4,11
9675,-1552,-528,1216,68,3,16
9680,-1552,-512,1192,87,11,20
9685,-1576,-488,1232,104,16,23
9690,-1552,-448,1192,122,20,25
9695,-1560,-448,1144,132,21,22
9700,-1576,-400,1160,130,16,20
9705,-1576,-408,1136,122,9,13
9710,-1616,-392,1128,108,4,5
9715,-1616,-400,1112,95,5,-1
9720,-1640,-384,1120,80,11,-6
9725,-1632,-384,1088,64,20,-9
9730,-1648,-408,1064,47,30,-7
9735,-1624,-392,1072,28,38,-3
9740,-1648,-424,1064,8,51,2
9745,-1624,-440,1104,-5,70,11
9750,-1608,-448,1088,-12,83,14
9755,-1560,-440,1136,-15,98,18
9760,-1536,-448,1152,-16,109,20
9765,-1552,-456,1120,-13,117,21
9770,-1536,-448,1152,-7,123,21
9775,-1536,-464,1152,0,127,18
9780,-1536,-448,1144,10,129,17
9785,-1544,-448,1160,18,127,11
9790,-1552,-440,1144,24,124,9
9795,-1576,-416,1144,26,120,6
9800,-1592,-432,1112,27,116,4
9805,-1608,-408,1120,26,114,4
9810,-1600,-408,1104,21,115,4
9815,-1640,-424,1104,19,117,7
9820,-1632,-384,1112,17,122,11
9825,-1632,-384,1096,13,125,14
9830,-1616,-408,1080,14,124,21
9835,-1632,-416,1088,17,125,24
9840,-1624,-416,1072,19,125,27
9845,-1640,-400,1064,21,123,29
9850,-1656,-400,1104,23,120,28
9855,-1640,-424,1080,25,119,28
9860,-1672,-400,1096,30,118,27
9865,-1664,-408,1040,36,116,26
9870,-1688,-400,1080,37,113,24
9875,-1696,-408,1008,37,113,22
9880,-1696,-376,1072,33,110,19
9885,-1688,-368,1016,27,109,16
9890,-1680,-368,1072,21,110,15
9895,-1696,-352,1056,15,110,13
9900,-1696,-352,1056,7,108,11
9905,-1688,-352,1040,0,106,10
9910,-1664,-368,1048,-3,104,10
9915,-1696,-352,1056,-8,104,6
9920,-1680,-376,1048,-13,102,7
9925,-1680,-360,1032,-20,98,7
9930,-1672,-376,1064,-24,95,5
9935,-1664,-384,1080,-27,88,4
9940,-1664,-368,1096,-32,82,1
9945,-1664,-368,1080,-36,74,-2
9950,-1632,-384,1072,-37,64,-4
9955,-1656,-392,1096,-39,58,-5
9960,-1664,-392,1088,-41,54,-9
9965,-1664,-360,1064,-42,54,-10
9970,-1664,-384,1080,-44,57,-8
9975,-1696,-376,1048,-44,60,-7
9980,-1648,-360,1072,-45,63,-6
9985,-1656,-384,1096,-49,66,-5
9990,-1664,-384,1072,-51,66,-6
9995,-1656,-392,1104,-53,65,-6
10000,-1624,-408,1104,-55,62,-6
10005,-1640,-416,1104,-53,57,-6
10010,-1656,-376,1104,-52,52,-7
10015,-1640,-384,1072,-51,48,-9
10020,-1648,-400,1104,-51,44,-11
10025,-1680,-424,1072,-49,43,-11
10030,-1680,-424,1104,-41,42,-12
10035,-1640,-448,1072,-33,43,-12
10040,-1664,-424,1080,-23,45,-13
10045,-1664,-432,1088,-13,45,-12
10050,-1688,-416,1112,-4,46,-12
10055,-1640,-416,1072,4,46,-12
10060,-1648,-408,1064,8,45,-11
10065,-1648,-408,1056,9,42,-12
10070,-1648,-416,1024,9,42,-12
10075,-1632,-424,1056,8,42,-12
10080,-1648,-448,1096,6,46,-11
10085,-1632,-480,1080,5,56,-10
10090,-1632,-472,1080,6,63,-11
10095,-1624,-472,1136,9,70,-8
10100,-1624,-480,1120,14,75,-5
10105,-1632,-472,1120,20,75,-2
10110,-1640,-464,1112,27,72,0
10115,-1624,-464,1120,34,67,1
10120,-1632,-448,1096,41,64,2
10125,-1624,-424,1080,49,62,2
10130,-1616,-424,1128,52,60,1
10135,-1624,-432,1064,52,59,0
10140,-1608,-432,1072,53,57,1
10145,-1608,-416,1048,52,56,2
10150,-1640,-392,1072,51,53,2
10155,-1632,-400,1080,51,47,1
10160,-1648,-376,1064,48,44,4
10165,-1624,-368,1104,41,39,4
10170,-1640,-368,1064,30,37,8
10175,-1656,-344,1096,19,35,8
10180,-1672,-352,1096,9,33,9
10185,-1680,-328,1104,-3,31,6
10190,-1688,-336,1088,-13,30,6
10195,-1680,-360,1056,-22,32,5
10200,-1664,-392,1104,-28,35,4
10205,-1656,-384,1080,-31,42,3
10210,-1656,-392,1072,-28,48,3
10215,-1640,-424,1112,-25,54,3
10220,-1640,-408,1104,-21,59,4
10225,-1624,-384,1104,-18,58,4
10230,-1600,-400,1096,-16,56,3
10235,-1656,-408,1088,-16,50,3
10240,-1608,-392,1104,-18,43,1
10245,-1632,-376,1104,-23,36,1
10250,-1640,-360,1112,-28,32,-1
10255,-1632,-360,1152,-32,30,-4
10260,-1616,-376,1112,-37,30,-6
10265,-1640,-408,1128,-37,33,-6
10270,-1632,-408,1104,-38,37,-5
10275,-1648,-424,1088,-31,40,-6
10280,-1640,-400,1112,-21,41,-8
10285,-1624,-384,1080,-16,40,-8
10290,-1648,-376,1096,-12,41,-9
10295,-1616,-384,1080,-10,39,-8
10300,-1624,-384,1088,-10,37,-7
10305,-1632,-368,1096,-12,32,-7
10310,-1640,-400,1088,-16,31,-7
10315,-1648,-376,1096,-16,30,-7
10320,-1648,-360,1104,-19,29,-7
10325,-1640,-392,1128,-20,28,-6
10330,-1656,-360,1112,-21,27,-7
10335,-1632,-376,1128,-23,28,-8
10340,-1648,-384,1128,-26,31,-8
10345,-1600,-416,1120,-27,32,-9
10350,-1608,-416,1136,-26,35,-10
10355,-1592,-384,1112,-26,39,-11
10360,-1552,-424,1160,-25,43,-10
10365,-1592,-432,1120,-20,48,-10
10370,-1584,-424,1136,-14,52,-9
10375,-1584,-432,1152,-11,54,-7
10380,-1592,-416,1096,-8,55,-6
10385,-1576,-408,1104,-5,57,-5
10390,-1584,-416,1104,-6,60,-4
10395,-1584,-400,1088,-8,61,-4
10400,-1600,-408,1096,-13,63,-5
10405,-1608,-392,1104,-16,63,-6
10410,-1536,-432,1096,-18,63,-7
10415,-1592,-400,1136,-18,63,-6
10420,-1616,-424,1136,-18,64,-8
10425,-1616,-416,1112,-17,64,-7
10430,-1624,-392,1104,-15,64,-8
10435,-1624,-440,1112,-15,64,-9
10440,-1640,-416,1120,-14,64,-12
10445,-1632,-408,1120,-14,66,-13
10450,-1648,-416,1112,-15,67,-15
10455,-1640,-440,1112,-14,69,-16
10460,-1648,-432,1112,-13,69,-16
10465,-1648,-440,1112,-10,70,-18
10470,-1584,-472,1120,-6,71,-17
10475,-1624,-440,1064,-3,77,-16
10480,-1656,-416,1104,-4,83,-15
10485,-1640,-432,1088,-7,86,-13
10490,-1640,-400,1096,-9,87,-12
10495,-1640,-392,1064,-13,88,-12
10500,-1616,-376,1080,-18,86,-12
10505,-1624,-376,1088,-24,86,-12
10510,-1624,-376,1064,-29,83,-12
10515,-1664,-400,1096,-36,82,-13
10520,-1632,-392,1120,-37,81,-15
10525,-1632,-424,1120,-37,78,-14
10530,-1632,-432,1104,-34,76,-15
10535,-1624,-424,1104,-31,74,-14
10540,-1632,-392,1072,-23,68,-17
10545,-1632,-384,1096,-17,64,-17
10550,-1640,-384,1048,-11,59,-19
10555,-1648,-360,1072,-6,54,-20
10560,-1648,-384,1072,0,46,-20
10565,-1672,-384,1080,3,38,-24
10570,-1680,-400,1064,4,29,-27
10575,-1664,-384,1064,5,21,-30
10580,-1680,-384,1088,0,17,-35
10585,-1680,-384,1096,-2,14,-39
10590,-1664,-400,1080,-3,10,-41
10595,-1656,-424,1096,0,9,-44
10600,-1656,-424,1080,7,9,-45
10605,-1656,-440,1096,19,12,-44
10610,-1672,-416,1080,28,19,-44
10615,-1648,-440,1072,32,29,-43
10620,-1632,-432,1104,35,41,-42
10625,-1608,-424,1072,38,47,-39
10630,-1600,-416,1080,37,52,-30
10635,-1624,-432,1096,34,59,-25
10640,-1592,-424,1080,33,62,-24
10645,-1624,-408,1120,30,58,-19
10650,-1600,-432,1088,24,54,-16
10655,-1600,-440,1152,21,47,-15
10660,-1592,-432,1160,21,37,-14
10665,-1584,-440,1144,21,30,-14
10670,-1632,-440,1128,20,28,-13
10675,-1616,-424,1144,21,25,-13
10680,-1608,-416,1144,23,26,-13
10685,-1616,-440,1184,27,26,-12
10690,-1592,-408,1120,31,27,-12
10695,-1624,-408,1120,33,26,-10
10700,-1600,-416,1104,31,30,-11
10705,-1616,-416,1096,27,33,-10
10710,-1608,-424,1120,23,34,-9
10715,-1600,-424,1112,17,38,-8
10720,-1608,-424,1152,17,38,-7
10725,-1600,-432,1136,17,40,-7
10730,-1584,-440,1136,17,48,-6
10735,-1624,-432,1128,14,56,-5
10740,-1600,-448,1112,13,66,-2
10745,-1592,-440,1144,12,76,1
10750,-1600,-408,1136,13,83,2
10755,-1584,-408,1136,14,87,3
10760,-1608,-408,1144,15,84,5
10765,-1624,-408,1120,18,74,6
10770,-1608,-400,1112,22,63,2
10775,-1616,-400,1136,25,50,1
10780,-1608,-392,1128,29,38,-1
10785,-1624,-384,1104,28,31,-6
10790,-1616,-376,1144,25,30,-8
10795,-1632,-368,1112,23,27,-11
10800,-1600,-368,1112,21,29,-12
10805,-1584,-368,1112,12,36,-11
10810,-1592,-392,1160,2,47,-11
10815,-1624,-384,1168,-4,52,-9
10820,-1584,-384,1120,-5,52,-9
10825,-1608,-368,1128,-7,53,-8
10830,-1608,-368,1120,-9,57,-10
10835,-1616,-376,1120,-7,55,-12
10840,-1616,-376,1128,-6,50,-10
10845,-1624,-400,1112,-6,48,-10
10850,-1616,-384,1128,-6,44,-12
10855,-1608,-384,1144,-3,36,-15
10860,-1624,-384,1120,-7,32,-16
10865,-1608,-360,1112,-8,30,-16
10870,-1624,-368,1112,-12,29,-19
10875,-1616,-400,1136,-13,30,-18
10880,-1616,-392,1136,-11,32,-21
10885,-1608,-376,1136,-10,34,-20
10890,-1616,-376,1144,-10,34,-21
10895,-1600,-376,1160,-10,36,-22
10900,-1608,-352,1072,-9,35,-23
10905,-1624,-376,1168,-9,40,-23
10910,-1616,-376,1176,-14,45,-25
10915,-1616,-376,1128,-16,47,-26
10920,-1616,-384,1112,-17,50,-30
10925,-1584,-352,1152,-20,53,-31
10930,-1616,-384,1136,-21,56,-32
10935,-1600,-376,1168,-25,60,-32
10940,-1592,-392,1136,-25,64,-34
10945,-1592,-424,1160,-23,68,-34
10950,-1616,-440,1144,-21,73,-34
10955,-1600,-448,1144,-17,78,-31
10960,-1592,-440,1144,-12,79,-33
10965,-1616,-440,1128,-8,84,-34
10970,-1592,-432,1160,-5,90,-35
10975,-1616,-448,1136,-3,95,-34
10980,-1616,-448,1168,-2,98,-35
10985,-1616,-456,1168,0,101,-37
10990,-1624,-440,1136,4,105,-37
10995,-1616,-448,1136,5,111,-37
11000,-1624,-448,1160,6,114,-37
11005,-1600,-448,1136,7,118,-39
11010,-1624,-456,1128,10,120,-40
11015,-1720,-440,1152,13,123,-40
11020,-1616,-416,1128,17,122,-39
11025,-1648,-440,1128,21,119,-37
11030,-1616,-432,1096,22,115,-36
11035,-1640,-424,1096,27,111,-36
11040,-1616,-416,1080,30,105,-36
11045,-1640,-408,1080,34,98,-34
11050,-1624,-416,1080,37,93,-32
11055,-1624,-416,1072,39,86,-33
11060,-1624,-408,1080,43,79,-32
11065,-1632,-440,1096,43,71,-33
11070,-1656,-408,1112,44,65,-33
11075,-1632,-424,1104,45,59,-33
11080,-1632,-408,1064,45,51,-33
11085,-1656,-408,1088,45,44,-32
11090,-1656,-424,1120,46,40,-32
11095,-1640,-400,1112,47,38,-32
11100,-1616,-400,1112,47,35,-30
11105,-1624,-408,1144,44,35,-29
11110,-1624,-416,1096,41,38,-27
11115,-1632,-432,1112,37,38,-25
11120,-1632,-464,1128,32,41,-23
11125,-1608,-384,1128,27,46,-23
11130,-1600,-392,1120,20,48,-20
11135,-1576,-408,1112,13,51,-17
11140,-1616,-400,1120,6,54,-15
11145,-1600,-384,1112,0,56,-15
11150,-1584,-384,1120,-8,56,-14
11155,-1584,-424,1104,-15,55,-13
11160,-1576,-416,1128,-19,53,-12
11165,-1592,-408,1144,-21,49,-11
11170,-1592,-416,1152,-17,42,-12
11175,-1592,-440,1128,-14,37,-12
11180,-1592,-424,1152,-12,33,-10
11185,-1576,-400,1144,-7,30,-10
11190,-1584,-416,1160,-1,24,-7
11195,-1592,-400,1136,0,20,-7
11200,-1616,-392,1152,-1,16,-5
11205,-1592,-416,1144,-1,14,-3
11210,-1616,-392,1128,-5,12,-3
11215,-1600,-392,1136,-7,17,-3
11220,-1592,-384,1136,-11,20,-3
11225,-1624,-376,1144,-13,26,-4
11230,-1600,-376,1128,-18,29,-6
11235,-1600,-392,1152,-20,34,-8
11240,-1624,-368,1128,-21,37,-9
11245,-1608,-352,1112,-23,38,-13
11250,-1608,-360,1128,-25,33,-16
11255,-1592,-392,1136,-26,30,-19
11260,-1592,-368,1144,-22,27,-22
11265,-1616,-400,1136,-17,21,-24
11270,-1584,-408,1128,-8,17,-26
11275,-1592,-400,1128,0,12,-27
11280,-1616,-416,1184,5,7,-28
11285,-1608,-392,1168,6,4,-28
11290,-1568,-416,1160,6,1,-26
11295,-1576,-392,1152,5,-1,-26
11300,-1576,-376,1168,-2,3,-27
11305,-1576,-384,1200,-12,10,-26
11310,-1600,-424,1176,-18,19,-25
11315,-1584,-416,1176,-26,28,-26
11320,-1584,-416,1200,-30,37,-27
11325,-1576,-408,1152,-33,44,-28
11330,-1584,-408,1200,-37,51,-27
11335,-1568,-432,1152,-42,58,-25
11340,-1608,-432,1168,-46,61,-23
11345,-1584,-408,1176,-48,63,-23
11350,-1584,-408,1136,-49,62,-23
11355,-1576,-424,1152,-45,59,-22
11360,-1560,-424,1168,-39,54,-23
11365,-1576,-440,1168,-30,48,-23
11370,-1552,-440,1152,-22,45,-21
11375,-1560,-448,1168,-13,46,-21
11380,-1568,-440,1152,-8,47,-18
11385,-1600,-440,1144,-5,48,-17
11390,-1600,-440,1144,-5,50,-14
11395,-1592,-416,1120,-9,53,-12
11400,-1600,-440,1112,-14,54,-11
11405,-1616,-392,1144,-18,56,-10
11410,-1600,-448,1152,-22,60,-11
11415,-1576,-424,1160,-24,63,-9
11420,-1560,-448,1136,-28,67,-7
11425,-1568,-440,1136,-30,72,-9
11430,-1576,-440,1152,-31,77,-8
11435,-1584,-440,1152,-32,81,-7
11440,-1576,-448,1160,-30,83,-6
11445,-1560,-432,1128,-30,84,-6
11450,-1536,-448,1144,-29,84,-5
11455,-1536,-456,1160,-32,88,-4
11460,-1552,-448,1152,-33,87,-7
11465,-1544,-464,1160,-31,88,-7
11470,-1576,-464,1168,-27,89,-4
11475,-1608,-472,1144,-18,93,3
11480,-1616,-440,1096,-13,101,11
11485,-1632,-432,1120,-7,108,17
11490,-1632,-408,1128,-3,115,25
11495,-1640,-400,1120,2,119,29
11500,-1624,-392,1112,4,120,29
11505,-1616,-384,1104,2,117,29
11510,-1616,-368,1104,2,109,22
11515,-1600,-368,1128,4,96,16
11520,-1568,-376,1112,5,83,11
11525,-1608,-376,1160,10,68,6
11530,-1560,-392,1168,15,55,-3
11535,-1568,-416,1160,21,43,-6
11540,-1608,-400,1192,27,37,-10
11545,-1616,-416,1208,31,36,-11
11550,-1576,-424,1192,32,39,-11
11555,-1592,-416,1200,29,45,-10
11560,-1544,-416,1184,25,57,-6
11565,-1576,-416,1152,23,74,-2
11570,-1568,-408,1136,20,92,1
11575,-1552,-392,1136,14,107,4
11580,-1544,-384,1136,10,119,5
11585,-1568,-392,1104,1,129,5
11590,-1560,-384,1136,-9,133,8
11595,-1560,-416,1128,-15,132,8
11600,-1552,-400,1152,-20,126,9
11605,-1568,-416,1152,-22,120,9
11610,-1552,-400,1160,-26,110,8
11615,-1568,-448,1168,-25,99,9
11620,-1592,-408,1144,-28,91,6
11625,-1608,-416,1184,-29,81,7
11630,-1592,-416,1160,-30,72,9
11635,-1632,-432,1184,-27,64,11
11640,-1616,-432,1168,-22,60,12
11645,-1592,-424,1128,-14,55,14
11650,-1616,-432,1144,-10,56,15
11655,-1640,-408,1104,-1,56,18
11660,-1656,-424,1184,3,56,22
11665,-1632,-400,1096,6,55,24
11670,-1656,-360,1120,7,54,26
11675,-1664,-336,1104,3,49,28
11680,-1688,-312,1112,-5,45,28
11685,-1648,-344,1088,-19,41,27
11690,-1688,-312,1088,-34,41,24
11695,-1680,-320,1088,-47,41,19
11700,-1664,-328,1104,-60,41,11
11705,-1712,-320,1112,-69,39,1
11710,-1680,-360,1144,-74,35,-10
11715,-1704,-328,1128,-75,28,-22
11720,-1664,-328,1080,-74,22,-31
11725,-1656,-320,1120,-71,21,-35
11730,-1624,-368,1104,-66,20,-38
11735,-1608,-392,1144,-62,22,-41
11740,-1584,-440,1112,-56,25,-42
11745,-1560,-448,1088,-52,32,-42
11750,-1536,-496,1096,-47,44,-44
11755,-1536,-560,1104,-34,60,-40
11760,-1528,-544,1168,-15,75,-32
11765,-1504,-560,1192,8,87,-25
11770,-1488,-576,1192,25,98,-17
11775,-1568,-608,1216,38,110,-8
11780,-1520,-560,1232,41,124,3
11785,-1528,-552,1224,38,141,12
11790,-1536,-528,1256,25,161,21
11795,-1552,-512,1248,2,181,22
11800,-1552,-512,1264,-31,198,20
11805,-1552,-528,1272,-65,217,15
11810,-1560,-528,1248,-94,236,5
11815,-1584,-520,1224,-106,255,-6
11820,-1584,-544,1200,-98,273,-16
11825,-1600,-536,1160,-72,286,-25
11830,-1592,-568,1136,-30,292,-33
11835,-1608,-576,1064,25,292,-36
11840,-1648,-568,1016,85,285,-44
11845,-1680,-568,928,142,275,-53
11850,-1720,-512,888,198,258,-59
11855,-1712,-520,872,247,241,-64
11860,-1720,-472,840,295,224,-67
11865,-1720,-456,840,329,206,-67
11870,-1768,-408,864,365,185,-68
11875,-1760,-360,864,387,163,-68
11880,-1792,-304,896,387,147,-63
11885,-1856,-320,912,360,139,-55
11890,-1824,-224,984,317,133,-46
11895,-1816,-200,1040,264,135,-43
11900,-1832,-184,1080,208,140,-41
11905,-1752,-176,1104,152,146,-37
11910,-1728,-176,1128,95,152,-35
11915,-1672,-184,1152,44,156,-32
11920,-1640,-232,1144,4,150,-27
11925,-1600,-232,1160,-22,135,-19
11930,-1600,-264,1200,-35,103,-13
11935,-1560,-288,1152,-40,58,-7
11940,-1544,-296,1176,-37,10,-2
11945,-1544,-312,1184,-27,-41,-1
11950,-1568,-320,1192,-14,-89,-1
11955,-1560,-304,1224,2,-131,-3
11960,-1544,-336,1248,16,-161,-5
11965,-1552,-336,1256,27,-177,-9
11970,-1528,-360,1216,37,-182,-12
11975,-1536,-336,1216,37,-171,-23
11980,-1544,-320,1224,31,-152,-32
11985,-1544,-352,1200,17,-124,-43
11990,-1544,-320,1192,1,-95,-52
11995,-1552,-328,1168,-15,-67,-57
12000,-1544,-344,1200,-33,-42,-63
12005,-1544,-336,1208,-53,-21,-69
12010,-1544,-320,1192,-72,-1,-71
12015,-1576,-336,1184,-95,14,-73
12020,-1568,-344,1224,-114,19,-76
12025,-1576,-336,1176,-127,18,-77
12030,-1560,-352,1184,-133,10,-81
12035,-1536,-360,1168,-133,-5,-84
12040,-1552,-376,1160,-130,-23,-85
12045,-1576,-336,1192,-127,-41,-87
12050,-1600,-368,1136,-124,-57,-89
12055,-1584,-360,1144,-118,-71,-88
12060,-1552,-360,1144,-115,-81,-90
12065,-1552,-384,1168,-118,-89,-93
12070,-1592,-360,1168,-125,-92,-98
12075,-1568,-352,1120,-136,-93,-97
12080,-1576,-352,1168,-148,-96,-95
12085,-1560,-368,1200,-160,-101,-95
12090,-1608,-384,1152,-172,-108,-89
12095,-1616,-392,1192,-180,-116,-86
12100,-1672,-360,1112,-195,-124,-82
12105,-1600,-424,1168,-215,-131,-79
12110,-1616,-448,1208,-229,-138,-71
12115,-1616,-448,1192,-239,-148,-60
12120,-1608,-448,1168,-247,-156,-49
12125,-1584,-464,1168,-258,-154,-43
12130,-1576,-456,1112,-272,-138,-37
12135,-1608,-480,1112,-289,-114,-32
12140,-1584,-536,1136,-302,-89,-20
12145,-1592,-536,1112,-314,-70,-9
12150,-1592,-528,1072,-320,-52,-2
12155,-1600,-544,1152,-325,-38,7
12160,-1608,-536,1128,-329,-26,17
12165,-1616,-536,1096,-332,-12,25
12170,-1568,-560,1168,-330,-1,33
12175,-1552,-560,1120,-321,7,36
12180,-1536,-592,1160,-308,12,38
12185,-1552,-608,1128,-288,9,41
12190,-1592,-600,1104,-260,-2,42
12195,-1592,-600,1152,-223,-19,48
12200,-1608,-592,1136,-180,-41,54
12205,-1608,-600,1112,-138,-65,57
12210,-1576,-624,1136,-98,-84,60
12215,-1584,-584,1104,-67,-96,58
12220,-1568,-544,1088,-43,-98,56
12225,-1600,-520,1096,-27,-98,56
12230,-1656,-464,1064,-22,-99,58
12235,-1640,-464,1096,-26,-95,61
12240,-1632,-448,1072,-34,-90,66
12245,-1600,-464,1064,-41,-85,67
12250,-1608,-464,1048,-48,-77,57
12255,-1648,-432,1072,-54,-72,52
12260,-1648,-432,1056,-64,-77,55
12265,-1616,-456,1112,-68,-84,51
12270,-1584,-448,1112,-61,-89,49
12275,-1616,-448,1128,-52,-98,58
12280,-1592,-448,1144,-43,-105,60
12285,-1576,-440,1160,-34,-108,61
12290,-1568,-448,1152,-26,-113,58
12295,-1592,-432,1152,-22,-119,58
12300,-1568,-448,1160,-16,-127,56
12305,-1576,-448,1144,-12,-134,53
12310,-1536,-456,1136,-9,-141,48
12315,-1528,-416,1128,-5,-146,42
12320,-1512,-440,1136,-5,-149,38
12325,-1504,-432,1176,-4,-157,37
12330,-1528,-432,1216,-5,-167,33
12335,-1512,-432,1208,-3,-174,32
12340,-1504,-416,1216,-2,-175,33
12345,-1488,-400,1240,-8,-168,34
12350,-1472,-440,1256,-13,-161,36
12355,-1464,-432,1296,-11,-155,36
12360,-1504,-400,1280,-5,-150,33
12365,-1448,-408,1264,-1,-148,27
12370,-1480,-400,1280,4,-147,18
12375,-1480,-392,1280,6,-145,12
12380,-1472,-368,1304,14,-144,4
12385,-1488,-392,1296,19,-146,-3
12390,-1448,-408,1312,22,-144,-10
12395,-1480,-408,1320,23,-141,-18
12400,-1472,-408,1320,24,-137,-22
12405,-1456,-392,1336,24,-134,-29
12410,-1480,-416,1352,24,-131,-37
12415,-1440,-400,1368,27,-130,-49
12420,-1448,-408,1376,30,-133,-61
12425,-1416,-384,1376,30,-131,-73
12430,-1392,-384,1376,29,-123,-85
12435,-1424,-392,1384,21,-113,-93
12440,-1392,-408,1376,13,-101,-101
12445,-1424,-376,1376,6,-89,-108
12450,-1448,-400,1344,1,-76,-113
12455,-1424,-440,1352,-6,-63,-116
12460,-1456,-424,1320,-15,-45,-118
12465,-1448,-456,1320,-25,-25,-119
12470,-1456,-456,1272,-33,-2,-116
12475,-1456,-472,1280,-42,24,-113
12480,-1456,-480,1264,-52,48,-107
12485,-1480,-488,1272,-56,68,-100
12490,-1464,-496,1280,-55,83,-95
12495,-1456,-536,1272,-47,93,-91
12500,-1480,-552,1288,-41,100,-85
12505,-1496,-576,1304,-34,107,-75
12510,-1480,-552,1312,-28,117,-67
12515,-1472,-576,1296,-20,126,-57
12520,-1480,-584,1312,-5,134,-45
12525,-1456,-592,1312,12,135,-36
12530,-1464,-576,1296,29,130,-29
12535,-1480,-608,1320,47,120,-20
12540,-1504,-568,1248,65,109,-14
12545,-1512,-560,1208,79,99,-10
12550,-1512,-560,1208,87,91,-5
12555,-1496,-576,1208,94,86,-1
12560,-1520,-608,1248,96,85,3
12565,-1528,-600,1192,95,86,9
12570,-1496,-616,1208,99,85,14
12575,-1464,-608,1216,101,84,19
12580,-1488,-608,1176,102,81,25
12585,-1456,-584,1208,100,81,29
12590,-1440,-584,1184,96,80,36
12595,-1424,-576,1224,95,80,43
12600,-1432,-552,1208,93,79,49
12605,-1400,-536,1216,91,79,54
12610,-1416,-504,1216,85,75,56
12615,-1408,-520,1216,80,72,57
12620,-1408,-472,1224,78,67,57
12625,-1432,-464,1256,76,64,53
12630,-1400,-440,1264,74,62,47
12635,-1416,-424,1256,69,59,43
12640,-1416,-400,1240,61,58,36
12645,-1464,-384,1264,54,57,31
12650,-1416,-376,1232,46,57,27
12655,-1416,-392,1224,39,57,24
12660,-1440,-360,1248,34,59,20
12665,-1456,-400,1264,31,61,20
12670,-1448,-400,1264,27,63,18
12675,-1464,-416,1240,22,64,19
12680,-1456,-416,1264,17,63,21
12685,-1472,-440,1248,11,65,24
12690,-1464,-440,1280,8,67,26
12695,-1488,-432,1264,0,70,30
12700,-1496,-424,1288,-8,74,34
12705,-1520,-408,1288,-14,77,35
12710,-1528,-400,1288,-19,77,39
12715,-1512,-408,1272,-26,78,41
12720,-1536,-368,1296,-31,78,44
12725,-1544,-368,1312,-35,77,46
12730,-1544,-360,1296,-39,74,47
12735,-1536,-376,1272,-42,74,47
12740,-1528,-392,1304,-44,73,48
12745,-1544,-400,1304,-43,72,46
12750,-1544,-384,1328,-44,71,45
12755,-1552,-432,1320,-42,69,44
12760,-1552,-408,1272,-39,69,42
12765,-1576,-384,1272,-40,68,43
12770,-1568,-400,1272,-39,69,43
12775,-1568,-392,1248,-38,71,43
12780,-1552,-376,1248,-37,73,43
12785,-1592,-352,1232,-38,77,40
12790,-1568,-344,1232,-41,80,37
12795,-1544,-360,1200,-46,84,31
12800,-1528,-368,1240,-52,84,26
12805,-1528,-376,1224,-57,85,17
12810,-1504,-384,1264,-60,84,8
12815,-1496,-392,1256,-59,78,-2
12820,-1488,-400,1264,-56,74,-12
12825,-1504,-400,1288,-46,68,-23
12830,-1488,-424,1288,-36,67,-30
12835,-1472,-448,1312,-25,66,-34
12840,-1472,-464,1304,-13,70,-37
12845,-1464,-456,1296,-4,72,-40
12850,-1440,-488,1280,6,77,-41
12855,-1448,-464,1296,12,85,-43
12860,-1440,-480,1288,18,91,-43
12865,-1440,-480,1272,21,95,-41
12870,-1424,-480,1240,19,104,-39
12875,-1448,-472,1272,13,113,-37
12880,-1472,-480,1240,3,124,-35
12885,-1456,-472,1264,-9,134,-31
12890,-1480,-448,1248,-22,144,-27
12895,-1480,-464,1256,-34,150,-23
12900,-1496,-504,1240,-44,153,-21
12905,-1504,-456,1272,-46,151,-19
12910,-1520,-496,1280,-44,144,-17
12915,-1544,-472,1264,-39,138,-15
12920,-1528,-472,1232,-30,127,-11
12925,-1536,-488,1216,-18,117,-8
12930,-1536,-496,1224,-5,106,-7
12935,-1528,-488,1208,10,93,-2
12940,-1520,-480,1200,27,80,0
12945,-1536,-472,1208,40,67,1
12950,-1552,-448,1208,48,58,2
12955,-1544,-456,1200,53,52,3
12960,-1536,-448,1200,49,53,4
12965,-1544,-448,1208,43,58,2
12970,-1568,-448,1192,31,67,3
12975,-1544,-440,1216,18,75,5
12980,-1544,-440,1184,6,82,6
12985,-1528,-448,1232,-2,87,7
12990,-1552,-440,1184,-7,94,9
12995,-1544,-432,1184,-8,96,9
13000,-1544,-448,1224,-6,96,12
13005,-1544,-448,1184,-2,94,13
13010,-1544,-448,1216,4,90,14
13015,-1528,-448,1216,7,81,14
13020,-1536,-432,1200,9,74,14
13025,-1536,-448,1224,11,67,13
13030,-1568,-424,1280,11,60,14
13035,-1504,-448,1232,14,54,14
13040,-1512,-424,1248,12,46,14
13045,-1520,-440,1232,7,42,14
13050,-1512,-432,1256,5,36,15
13055,-1512,-432,1264,2,35,15
13060,-1512,-400,1288,-2,32,12
13065,-1512,-432,1272,-7,34,11
13070,-1520,-408,1264,-8,34,11
13075,-1528,-416,1240,-10,35,9
13080,-1592,-400,1120,-10,36,8
13085,-1496,-264,1248,-10,37,6
13090,-1400,-360,1304,-11,38,5
13095,-1520,-448,1288,-11,38,4
13100,-1480,-440,1208,-11,38,3
13105,-1504,-376,1280,-11,38,0
13110,-1512,-432,1296,-12,36,0
13115,-1552,-368,1200,-11,35,-2
13120,-1560,-424,1232,-12,34,-4
13125,-1568,-464,1096,-13,34,-7
13130,-1480,-360,1232,-12,34,-9
13135,-1496,-432,1256,-11,35,-10
13140,-1488,-424,1272,-8,36,-12
13145,-1496,-424,1280,-7,37,-14
13150,-1496,-432,1272,-7,37,-16
13155,-1488,-376,1160,-7,38,-17
13160,-1496,-456,1248,-8,39,-18
13165,-1512,-456,1376,-8,41,-21
13170,-1456,-384,1248,-12,43,-22
13175,-1472,-440,1272,-17,46,-24
13180,-1528,-432,1240,-20,49,-24
13185,-1488,-448,1232,-23,54,-23
13190,-1504,-440,1232,-24,57,-22
13195,-1480,-424,1272,-23,57,-22
13200,-1512,-416,1264,-22,56,-20
13205,-1504,-464,1296,-24,56,-17
13210,-1496,-456,1264,-23,56,-16
13215,-1480,-440,1256,-22,55,-15
13220,-1464,-440,1272,-22,57,-12
13225,-1480,-448,1280,-21,58,-13
13230,-1504,-352,1232,-18,60,-10
13235,-1464,-480,1240,-16,64,-11
13240,-1536,-448,1208,-14,66,-11
13245,-1464,-440,1216,-11,66,-12
13250,-1448,-448,1312,-10,68,-11
13255,-1440,-448,1296,-9,66,-10
13260,-1464,-448,1312,-8,65,-12
13265,-1504,-408,1296,-7,64,-13
13270,-1440,-504,1216,-8,64,-12
13275,-1576,-440,1144,-8,65,-12
13280,-1568,-472,1320,-8,64,-11
13285,-1488,-456,1264,-7,63,-11
13290,-1496,-456,1248,-8,64,-12
13295,-1504,-448,1280,-6,64,-11
13300,-1472,-456,1248,-5,67,-9
13305,-1464,-416,1264,-5,68,-9
13310,-1488,-448,1248,-8,72,-7
13315,-1536,-440,1264,-8,73,-7
13320,-1536,-560,1256,-9,75,-5
13325,-1504,-488,1280,-11,76,-3
13330,-1472,-448,1208,-13,77,-3
13335,-1488,-480,1256,-15,77,-2
13340,-1480,-424,1240,-18,78,-1
13345,-1544,-472,1240,-20,81,-1
13350,-1504,-416,1256,-20,81,-1
13355,-1496,-424,1256,-18,81,1
13360,-1488,-456,1272,-17,79,2
13365,-1512,-440,1280,-14,77,1
13370,-1512,-432,1256,-10,73,2
13375,-1520,-432,1264,-8,72,4
13380,-1472,-400,1256,-7,73,3
13385,-1536,-448,1256,-7,74,2
13390,-1512,-448,1256,-6,73,3
13395,-1504,-384,1272,-7,75,4
13400,-1504,-352,1224,-9,75,2
13405,-1472,-360,1200,-11,75,1
13410,-1488,-448,1256,-12,77,1
13415,-1544,-400,1456,-14,76,0
13420,-1496,-448,1104,-15,75,1
13425,-1424,-416,1216,-17,74,1
13430,-1496,-424,1168,-19,73,-1
13435,-1544,-536,1320,-18,71,-2
13440,-1512,-432,1248,-18,70,-3
13445,-1504,-448,1264,-19,70,-4
13450,-1520,-440,1296,-19,68,-4
13455,-1504,-424,1264,-19,67,-5
13460,-1496,-440,1176,-17,65,-7
13465,-1520,-496,1272,-17,62,-8
13470,-1520,-408,1288,-17,62,-8
13475,-1480,-432,1264,-16,60,-8
13480,-1528,-464,1192,-17,60,-9
13485,-1520,-408,1224,-16,59,-9
13490,-1528,-408,1296,-14,58,-9
13495,-1480,-352,1184,-15,58,-8
13500,-1520,-584,1288,-14,57,-10
13505,-1488,-400,1272,-15,55,-8
13510,-1456,-440,1272,-14,55,-8
13515,-1512,-448,1264,-16,56,-10
13520,-1512,-440,1248,-16,55,-10
13525,-1488,-448,1264,-16,52,-8
13530,-1512,-432,1256,-15,51,-9
13535,-1480,-496,1280,-15,51,-9
13540,-1512,-448,1248,-15,49,-9
13545,-1504,-440,1240,-15,48,-10
13550,-1512,-424,1264,-14,49,-9
13555,-1496,-464,1160,-13,49,-10
13560,-1512,-432,1256,-16,52,-8
13565,-1432,-456,1248,-18,54,-9
13570,-1488,-448,1288,-20,55,-7
13575,-1480,-432,1264,-22,57,-5
13580,-1464,-440,1256,-25,60,-6
13585,-1480,-456,1264,-27,62,-6
13590,-1496,-440,1304,-28,61,-5
13595,-1576,-560,1264,-28,62,-4
13600,-1496,-448,1280,-27,62,-5
13605,-1504,-464,1296,-24,61,-5
13610,-1488,-440,1264,-21,60,-3
13615,-1496,-424,1280,-20,59,-3
13620,-1552,-400,1296,-18,60,-3
13625,-1512,-432,1264,-17,61,-2
13630,-1504,-432,1256,-18,62,-4
13635,-1488,-440,1304,-16,63,-6
13640,-1496,-440,1264,-13,64,-5
13645,-1504,-432,1264,-11,66,-5
13650,-1488,-432,1248,-6,62,-7
13655,-1504,-448,1248,-2,60,-7
13660,-1480,-448,1256,1,61,-8
13665,-1440,-496,1280,1,62,-8
13670,-1488,-448,1256,1,63,-8
13675,-1496,-448,1280,-2,67,-9
13680,-1464,-456,1288,-6,70,-8
13685,-1496,-432,1280,-10,73,-8
13690,-1496,-480,1272,-12,76,-5
13695,-1488,-448,1280,-11,80,-3
13700,-1480,-440,1264,-6,82,-2
13705,-1496,-448,1272,-1,85,-1
13710,-1488,-448,1232,4,86,1
13715,-1488,-432,1264,10,86,3
13720,-1488,-424,1272,12,86,3
13725,-1488,-440,1280,12,82,2
13730,-1488,-440,1256,12,78,3
13735,-1504,-432,1288,10,72,2
13740,-1504,-432,1272,6,66,3
13745,-1504,-464,1272,4,63,3
13750,-1504,-432,1248,1,63,2
13755,-1488,-424,1280,-3,64,4
13760,-1504,-432,1264,-8,66,3
13765,-1504,-424,1288,-9,70,1
13770,-1496,-432,1264,-11,71,1
13775,-1504,-456,1256,-11,75,0
13780,-1520,-416,1280,-11,78,-2
13785,-1504,-448,1280,-13,79,-2
13790,-1528,-432,1280,-13,79,-3
13795,-1504,-448,1256,-10,79,-4
13800,-1504,-440,1288,-10,79,-4
13805,-1512,-432,1288,-10,77,-6
13810,-1488,-432,1256,-9,76,-6
13815,-1520,-424,1272,-8,73,-6
13820,-1504,-432,1296,-8,71,-6
13825,-1504,-440,1272,-7,69,-6
13830,-1496,-432,1256,-7,68,-5
13835,-1528,-432,1272,-6,67,-5
13840,-1512,-424,1272,-7,66,-6
13845,-1512,-432,1280,-6,67,-7
13850,-1504,-408,1264,-7,66,-8
13855,-1496,-440,1248,-10,66,-9
13860,-1496,-424,1264,-10,65,-8
13865,-1496,-440,1264,-13,64,-8
13870,-1496,-456,1256,-13,64,-8
13875,-1488,-440,1280,-14,65,-8
13880,-1488,-448,1256,-13,64,-8
13885,-1496,-432,1240,-14,65,-9
13890,-1480,-432,1264,-14,65,-7
13895,-1496,-424,1272,-13,65,-6
13900,-1480,-424,1240,-15,64,-6
13905,-1512,-456,1248,-17,64,-7
13910,-1520,-440,1272,-19,65,-5
13915,-1504,-432,1256,-20,64,-5
13920,-1512,-440,1256,-21,64,-5
13925,-1488,-440,1264,-22,64,-5
13930,-1488,-448,1288,-23,62,-5
13935,-1504,-440,1256,-22,63,-3
13940,-1520,-432,1288,-23,62,-4
13945,-1496,-440,1256,-23,61,-5
13950,-1488,-432,1264,-23,62,-5
13955,-1496,-408,1240,-25,62,-5
13960,-1512,-424,1224,-24,64,-5
13965,-1448,-456,1216,-23,66,-5
13970,-1408,-424,1288,-23,67,-6
13975,-1472,-488,1280,-20,69,-4
13980,-1520,-448,1288,-18,68,-6
13985,-1496,-432,1280,-15,68,-5
13990,-1520,-432,1264,-13,67,-5
13995,-1512,-448,1304,-12,67,-4
14000,-1480,-472,1256,-12,64,-3
14005,-1392,-424,1264,-11,64,-5
14010,-1520,-448,1248,-10,62,-5
14015,-1512,-448,1256,-11,61,-4
14020,-1496,-448,1256,-11,59,-3
14025,-1504,-424,1272,-12,61,-3
14030,-1576,-464,1312,-14,62,-3
14035,-1440,-384,1264,-17,64,-2
14040,-1456,-384,1224,-20,67,-3
14045,-1472,-448,1280,-21,68,-2
14050,-1512,-520,1256,-24,70,-3
14055,-1528,-320,1224,-26,71,-4
14060,-1544,-520,1360,-26,70,-1
14065,-1472,-360,1232,-24,69,-3
14070,-1472,-464,1168,-23,68,-2
14075,-1544,-424,1248,-20,68,-2
14080,-1504,-448,1240,-17,67,-2
14085,-1496,-448,1280,-15,66,-2
14090,-1504,-440,1272,-14,67,-3
14095,-1496,-440,1240,-13,67,-2
14100,-1472,-568,1328,-13,66,-3
14105,-1496,-488,1136,-14,67,-4
14110,-1496,-472,1144,-14,68,-4
14115,-1416,-376,1304,-15,68,-4
14120,-1568,-400,1160,-18,70,-3
14125,-1456,-504,1144,-18,71,-3
14130,-1616,-448,1144,-20,71,-4
14135,-1480,-448,1168,-21,71,-3
14140,-1504,-416,1272,-20,71,-5
14145,-1496,-488,1264,-19,70,-6
14150,-1552,-448,1280,-17,71,-5
14155,-1536,-472,1240,-16,72,-4
14160,-1504,-440,1248,-16,71,-4
14165,-1512,-456,1280,-14,69,-4
14170,-1504,-448,1256,-14,71,-5
14175,-1480,-448,1256,-14,70,-4
14180,-1472,-440,1288,-15,72,-4
14185,-1512,-448,1368,-14,71,-5
14190,-1448,-392,1272,-15,72,-3
14195,-1512,-488,1280,-14,70,-3
14200,-1568,-464,1152,-13,70,-5
14205,-1432,-488,1200,-13,69,-5
14210,-1464,-448,1160,-12,69,-5
14215,-1528,-440,1184,-13,70,-4
14220,-1480,-544,1256,-16,70,-6
14225,-1416,-408,1352,-19,72,-7
14230,-1512,-400,1256,-22,72,-7
14235,-1512,-448,1208,-23,72,-6
14240,-1496,-448,1248,-24,73,-5
14245,-1504,-448,1248,-25,76,-6
14250,-1512,-448,1272,-23,76,-6
14255,-1528,-424,1280,-22,76,-6
14260,-1424,-440,1352,-23,75,-4
14265,-1504,-416,1216,-22,75,-5
14270,-1440,-448,1248,-21,74,-4
14275,-1504,-408,1304,-22,74,-3
14280,-1568,-504,1224,-22,72,-5
14285,-1424,-456,1240,-22,71,-5
14290,-1464,-384,1216,-22,71,-4
14295,-1528,-472,1360,-23,69,-5
14300,-1488,-440,1280,-23,71,-5
14305,-1464,-432,1288,-23,70,-2
14310,-1480,-488,1272,-23,71,-4
14315,-1496,-448,1264,-22,73,-3
14320,-1496,-432,1248,-23,73,-2
14325,-1496,-456,1248,-23,75,-2
14330,-1512,-432,1296,-24,75,-2
14335,-1472,-464,1288,-24,75,-2
14340,-1504,-424,1368,-24,74,-4
14345,-1480,-448,1288,-24,73,-5
14350,-1456,-424,1288,-25,72,-3
14355,-1472,-424,1200,-24,71,-2
14360,-1488,-464,1200,-22,70,-2
14365,-1520,-528,1224,-20,69,-4
14370,-1512,-408,1200,-18,70,-3
14375,-1440,-456,1216,-15,70,-4
14380,-1552,-240,1280,-14,70,-4
14385,-1496,-400,1296,-12,72,-5
14390,-1512,-424,1264,-10,74,-6
14395,-1504,-432,1256,-7,73,-6
14400,-1520,-440,1272,-4,72,-6
14405,-1496,-432,1248,-1,70,-5
14410,-1456,-432,1248,3,68,-6
14415,-1528,-432,1232,6,65,-7
14420,-1520,-472,1280,5,64,-7
14425,-1504,-424,1312,3,64,-8
14430,-1496,-456,1248,-1,63,-9
14435,-1488,-424,1256,-4,66,-10
14440,-1488,-464,1304,-8,68,-8
14445,-1472,-456,1288,-8,70,-6
14450,-1464,-464,1280,-7,71,-4
14455,-1488,-448,1264,-2,74,-2
14460,-1504,-456,1256,3,77,-1
14465,-1488,-456,1256,10,76,0
14470,-1504,-464,1248,14,76,0
14475,-1496,-424,1232,15,77,1
14480,-1480,-448,1240,16,75,4
14485,-1504,-424,1216,16,70,5
14490,-1496,-440,1256,13,66,6
14495,-1512,-400,1264,10,60,5
14500,-1464,-432,1280,5,57,5
14505,-1480,-424,1264,-1,55,5
14510,-1480,-440,1264,-7,55,5
14515,-1496,-440,1264,-13,56,4
14520,-1528,-376,1248,-18,61,1
14525,-1496,-424,1296,-21,67,3
14530,-1512,-424,1232,-23,70,1
14535,-1496,-432,1280,-24,75,-1
14540,-1512,-432,1240,-25,78,0
14545,-1512,-440,1240,-25,78,-1
14550,-1504,-448,1240,-25,78,-2
14555,-1520,-448,1256,-26,75,-1
14560,-1504,-416,1256,-26,73,-1
14565,-1504,-432,1256,-25,70,-1
14570,-1496,-448,1256,-25,69,-4
14575,-1504,-424,1264,-24,66,-5
14580,-1520,-432,1224,-24,64,-3
14585,-1496,-440,1232,-23,63,-2
14590,-1504,-440,1288,-22,61,-4
14595,-1512,-448,1256,-23,59,-4
14600,-1504,-448,1320,-21,59,-5
14605,-1496,-440,1240,-21,57,-7
14610,-1512,-432,1256,-21,59,-8
14615,-1496,-448,1272,-23,58,-7
14620,-1496,-448,1264,-23,57,-9
14625,-1472,-448,1280,-24,58,-9
14630,-1488,-448,1264,-25,58,-8
14635,-1480,-456,1256,-28,58,-9
14640,-1496,-448,1280,-29,59,-8
14645,-1488,-456,1296,-29,58,-9
14650,-1488,-448,1264,-28,57,-7
14655,-1496,-440,1264,-29,57,-9
14660,-1504,-440,1264,-29,56,-8
14665,-1504,-456,1272,-29,56,-8
14670,-1488,-456,1288,-31,57,-7
14675,-1504,-424,1256,-32,57,-8
14680,-1488,-448,1280,-31,58,-7
14685,-1496,-448,1264,-30,58,-8
14690,-1488,-448,1272,-29,61,-8
14695,-1488,-448,1256,-30,61,-9
14700,-1504,-456,1280,-29,62,-9
14705,-1504,-440,1288,-29,63,-9
14710,-1488,-448,1296,-28,64,-11
14715,-1512,-480,1272,-29,65,-9
14720,-1488,-456,1256,-28,67,-8
14725,-1504,-432,1272,-27,67,-7
14730,-1496,-464,1288,-25,67,-7
14735,-1480,-464,1224,-22,66,-6
14740,-1504,-448,1272,-17,64,-4
14745,-1496,-456,1264,-14,63,-6
14750,-1496,-456,1256,-12,63,-6
14755,-1496,-448,1280,-10,63,-5
14760,-1488,-448,1280,-9,64,-7
14765,-1488,-440,1256,-10,65,-6
14770,-1496,-432,1256,-13,67,-5
14775,-1496,-424,1248,-17,69,-3
14780,-1504,-432,1256,-21,70,-3
14785,-1472,-456,1280,-25,71,-2
14790,-1504,-448,1280,-28,72,-3
14795,-1496,-432,1216,-29,72,-2
14800,-1504,-432,1280,-31,72,-2
14805,-1504,-448,1272,-32,73,-2
14810,-1488,-448,1256,-32,74,1
14815,-1488,-456,1280,-33,72,1
14820,-1504,-472,1272,-32,73,0
14825,-1536,-400,1224,-30,72,1
14830,-1488,-448,1280,-28,72,1
14835,-1496,-448,1248,-26,73,2
14840,-1504,-448,1264,-22,74,2
14845,-1512,-440,1264,-23,72,3
14850,-1504,-440,1240,-20,71,2
14855,-1496,-464,1264,-18,70,2
14860,-1504,-440,1320,-17,69,2
14865,-1496,-448,1280,-15,67,1
14870,-1496,-424,1264,-18,66,2
14875,-1504,-448,1264,-17,64,0
14880,-1496,-432,1264,-17,64,1
14885,-1488,-448,1280,-18,63,0
14890,-1512,-448,1248,-18,64,0
14895,-1488,-440,1272,-18,64,-3
14900,-1512,-440,1280,-18,65,-2
14905,-1496,-440,1256,-19,65,-3
14910,-1504,-432,1288,-19,69,-3
14915,-1496,-448,1264,-19,69,-4
14920,-1496,-456,1296,-19,70,-5
14925,-1496,-464,1304,-17,67,-5
14930,-1488,-464,1280,-15,66,-6
14935,-1488,-472,1224,-14,66,-4
14940,-1488,-440,1264,-12,66,-4
14945,-1496,-448,1232,-13,67,-4
14950,-1488,-456,1264,-14,67,-5
14955,-1488,-440,1280,-14,69,-5
14960,-1480,-456,1272,-15,69,-5
14965,-1488,-448,1288,-15,68,-6
14970,-1488,-448,1280,-17,68,-5
14975,-1488,-472,1256,-19,68,-6
14980,-1496,-448,1264,-19,70,-5
14985,-1504,-440,1232,-20,71,-5
14990,-1496,-456,1256,-19,71,-5
14995,-1520,-456,1264,-18,71,-7
