timestamp,accel_x,accel_y,accel_z,gyro_x,gyro_y,gyro_z
0,96,-2120,-400,-107,-161,32
5,96,-2112,-392,-108,-155,28
10,120,-2096,-400,-108,-149,23
15,104,-2120,-408,-111,-142,18
20,112,-2104,-416,-112,-135,15
25,112,-2128,-416,-111,-129,11
30,104,-2120,-408,-111,-126,8
35,104,-2128,-408,-111,-121,4
40,96,-2152,-384,-107,-117,4
45,104,-2120,-376,-103,-112,3
50,120,-2128,-408,-99,-108,2
55,112,-2096,-376,-95,-104,3
60,96,-2104,-440,-95,-101,6
65,80,-2072,-408,-94,-97,5
70,80,-2096,-408,-95,-92,7
75,104,-2072,-384,-97,-89,9
80,120,-2088,-432,-99,-84,9
85,104,-2088,-416,-98,-81,8
90,88,-2072,-416,-96,-78,7
95,104,-2080,-408,-96,-76,4
100,112,-2080,-432,-96,-72,4
105,72,-2064,-400,-98,-69,3
110,104,-2080,-384,-103,-66,1
115,88,-2072,-392,-105,-62,-3
120,112,-2104,-384,-107,-58,-3
125,104,-2120,-408,-105,-53,-4
130,112,-2120,-424,-102,-47,-3
135,104,-2128,-408,-97,-42,-3
140,112,-2120,-408,-89,-37,-3
145,96,-2088,-432,-82,-34,-1
150,136,-2104,-400,-80,-31,1
155,136,-2080,-432,-80,-29,1
160,96,-2088,-424,-84,-26,2
165,104,-2080,-416,-86,-22,0
170,88,-2088,-416,-89,-17,1
175,112,-2080,-408,-92,-14,2
180,72,-2072,-432,-90,-12,6
185,80,-2096,-400,-87,-12,8
190,80,-2072,-424,-85,-11,11
195,104,-2096,-400,-81,-11,13
200,88,-2104,-432,-78,-10,15
205,56,-2080,-384,-74,-6,18
210,112,-2104,-384,-72,-5,20
215,112,-2104,-400,-66,-4,22
220,88,-2104,-440,-64,-3,24
225,72,-2088,-440,-62,-1,27
230,80,-2080,-432,-58,4,28
235,80,-2088,-416,-57,8,30
240,120,-2104,-440,-53,15,32
245,96,-2080,-440,-53,21,33
250,104,-2112,-424,-50,28,34
255,104,-2120,-440,-48,34,35
260,104,-2104,-432,-44,41,37
265,96,-2104,-408,-43,47,39
270,96,-2104,-456,-44,52,40
275,104,-2096,-424,-43,56,42
280,80,-2104,-416,-41,61,45
285,80,-2072,-408,-40,65,46
290,72,-2112,-400,-36,70,47
295,72,-2088,-384,-31,74,44
300,104,-2088,-408,-29,82,44
305,104,-2080,-408,-30,87,43
310,104,-2088,-432,-30,93,42
315,112,-2088,-416,-31,99,41
320,88,-2064,-424,-32,104,39
325,120,-2104,-408,-31,112,37
330,104,-2056,-432,-31,118,32
335,112,-2056,-440,-30,123,31
340,120,-2064,-496,-29,128,26
345,120,-2056,-448,-29,132,24
350,96,-2088,-448,-29,136,21
355,96,-2104,-448,-30,136,19
360,72,-2096,-440,-33,139,18
365,88,-2096,-424,-33,141,19
370,56,-2080,-416,-32,142,18
375,80,-2104,-440,-32,145,20
380,80,-2096,-408,-30,148,20
385,64,-2080,-448,-27,152,19
390,88,-2080,-432,-26,158,20
395,88,-2056,-368,-25,162,18
400,112,-2096,-400,-26,169,15
405,112,-2096,-424,-27,177,14
410,104,-2104,-432,-27,184,14
415,128,-2080,-440,-27,192,11
420,144,-2096,-416,-28,198,9
425,128,-2072,-384,-27,204,9
430,120,-2104,-448,-29,211,9
435,128,-2096,-432,-29,217,8
440,120,-2096,-440,-29,223,8
445,112,-2096,-408,-30,229,7
450,112,-2112,-424,-31,236,7
455,96,-2088,-424,-33,239,8
460,96,-2072,-416,-32,244,9
465,104,-2104,-400,-33,251,8
470,88,-2080,-424,-34,257,8
475,64,-2064,-432,-35,261,8
480,80,-2064,-432,-39,266,7
485,80,-2080,-432,-42,271,4
490,80,-2056,-424,-47,276,3
495,88,-2072,-416,-50,280,2
500,96,-2072,-424,-56,285,0
505,88,-2080,-448,-59,289,-3
510,88,-2064,-416,-62,294,-3
515,96,-2096,-424,-68,297,-3
520,104,-2104,-448,-70,301,-4
525,80,-2096,-432,-75,305,-4
530,112,-2072,-448,-81,308,-3
535,88,-2088,-440,-83,310,-3
540,96,-2080,-424,-87,311,-3
545,88,-2088,-408,-88,312,-3
550,48,-2088,-432,-90,311,-2
555,80,-2088,-448,-86,311,-2
560,64,-2088,-448,-88,310,-1
565,96,-2080,-440,-87,312,1
570,64,-2072,-464,-88,313,1
575,96,-2040,-424,-90,316,4
580,64,-2056,-432,-92,319,5
585,72,-2048,-464,-95,322,7
590,72,-2040,-424,-97,322,7
595,104,-2056,-440,-100,324,10
600,96,-2048,-448,-99,325,14
605,80,-2056,-472,-96,326,15
610,80,-2072,-440,-95,326,17
615,88,-2088,-480,-93,328,17
620,88,-2056,-448,-91,327,18
625,80,-2088,-480,-87,327,18
630,88,-2088,-480,-82,326,19
635,96,-2112,-456,-75,326,21
640,88,-2112,-456,-71,329,22
645,96,-2120,-432,-64,328,22
650,96,-2128,-480,-60,325,24
655,72,-2120,-448,-56,324,24
660,80,-2096,-456,-54,321,26
665,48,-2128,-464,-53,318,28
670,64,-2112,-464,-50,314,33
675,48,-2104,-464,-50,310,36
680,56,-2080,-464,-51,306,40
685,48,-2096,-472,-52,301,44
690,40,-2080,-496,-52,297,48
695,56,-2056,-488,-55,295,52
700,48,-2064,-488,-57,290,56
705,48,-2064,-488,-63,285,59
710,56,-2056,-456,-68,282,62
715,40,-2064,-464,-72,280,64
720,40,-2080,-456,-73,277,68
725,32,-2056,-496,-75,277,71
730,64,-2088,-424,-74,273,72
735,72,-2096,-440,-73,273,73
740,56,-2088,-424,-72,275,74
745,88,-2128,-456,-69,275,74
750,72,-2128,-488,-60,274,73
755,88,-2120,-464,-53,275,72
760,88,-2136,-472,-50,277,72
765,80,-2128,-504,-50,277,71
770,88,-2144,-472,-52,275,75
775,72,-2112,-440,-53,273,76
780,48,-2128,-480,-54,269,77
785,40,-2112,-496,-56,265,80
790,32,-2112,-456,-56,262,81
795,24,-2120,-456,-53,257,83
800,48,-2152,-448,-52,252,85
805,24,-2128,-448,-47,248,88
810,32,-2112,-440,-40,243,90
815,8,-2112,-456,-35,239,94
820,16,-2104,-456,-26,233,98
825,-32,-2088,-416,-21,227,103
830,32,-2136,-456,-16,223,106
835,8,-2144,-448,-13,214,111
840,8,-2128,-432,-12,207,116
845,-8,-2128,-440,-10,198,121
850,0,-2112,-448,-6,190,127
855,0,-2136,-440,-3,183,131
860,-8,-2120,-432,-2,176,133
865,-8,-2120,-440,2,168,135
870,-24,-2104,-464,3,161,135
875,-48,-2104,-456,9,155,136
880,-56,-2024,-560,12,150,138
885,-32,-2072,-464,11,144,139
890,-40,-2056,-472,11,138,139
895,-48,-2048,-464,12,131,138
900,-72,-2040,-472,13,125,141
905,-40,-2056,-488,13,117,142
910,-64,-2056,-456,8,109,141
915,-32,-2056,-464,6,100,141
920,-24,-2040,-448,3,93,137
925,-24,-2048,-440,1,85,136
930,-80,-2056,-440,0,77,133
935,-88,-2056,-432,-1,64,132
940,-88,-2048,-432,0,52,131
945,-88,-2064,-448,-1,43,133
950,-120,-2056,-448,-3,34,132
955,-96,-2056,-416,-2,29,133
960,-120,-2040,-384,-2,23,131
965,-112,-2040,-400,-6,19,132
970,-104,-2040,-400,-15,16,131
975,-112,-2048,-408,-28,16,131
980,-96,-2032,-424,-37,19,130
985,-120,-2016,-376,-43,22,130
990,-112,-2024,-384,-50,23,132
995,-80,-2056,-344,-55,23,131
1000,-136,-2048,-360,-57,26,131
1005,-120,-2056,-336,-59,28,130
1010,-128,-2096,-328,-58,32,128
1015,-120,-2080,-328,-51,41,131
1020,-128,-2112,-320,-43,45,132
1025,-112,-2088,-280,-35,53,130
1030,-104,-2080,-272,-28,69,128
1035,-120,-2072,-296,-25,80,126
1040,-104,-2088,-288,-30,97,125
1045,-72,-2112,-296,-34,115,125
1050,-80,-2128,-280,-38,134,127
1055,-96,-2144,-288,-42,149,129
1060,-56,-2176,-320,-46,163,130
1065,-88,-2176,-312,-44,176,135
1070,-120,-2144,-288,-40,186,138
1075,-112,-2144,-344,-31,193,138
1080,-104,-2120,-352,-25,202,140
1085,-120,-2120,-344,-23,210,141
1090,-120,-2096,-344,-21,217,142
1095,-136,-2096,-392,-20,227,145
1100,-152,-2072,-368,-17,239,143
1105,-152,-2072,-352,-20,249,141
1110,-128,-2056,-400,-21,260,135
1115,-136,-2072,-352,-25,272,126
1120,-160,-2048,-424,-28,284,118
1125,-152,-2064,-376,-31,292,110
1130,-128,-2088,-328,-35,297,101
1135,-144,-2064,-360,-38,303,94
1140,-160,-2080,-328,-38,308,89
1145,-160,-2064,-312,-33,312,82
1150,-208,-2048,-376,-28,311,78
1155,-200,-2056,-344,-27,309,75
1160,-176,-2048,-320,-27,310,71
1165,-168,-2056,-368,-30,311,67
1170,-152,-2064,-344,-35,313,62
1175,-128,-2024,-368,-38,318,60
1180,-160,-2040,-344,-40,323,58
1185,-144,-2048,-352,-40,325,53
1190,-128,-2056,-352,-41,329,49
1195,-128,-2056,-352,-39,332,47
1200,-160,-2048,-344,-35,335,45
1205,-128,-2080,-312,-30,333,42
1210,-128,-2032,-312,-28,330,41
1215,-120,-2032,-344,-24,328,38
1220,-88,-2024,-360,-27,322,33
1225,-120,-2000,-352,-34,320,26
1230,-112,-2008,-336,-38,316,22
1235,-96,-2016,-352,-44,311,16
1240,-112,-1992,-368,-46,308,10
1245,-120,-2000,-336,-48,305,4
1250,-112,-2016,-320,-54,302,-1
1255,-120,-2056,-312,-56,303,-6
1260,-112,-2040,-288,-57,307,-9
1265,-144,-2032,-280,-56,301,-19
1270,-112,-2048,-296,-56,300,-28
1275,-112,-2056,-248,-58,302,-35
1280,-96,-2112,-240,-65,306,-39
1285,-64,-2136,-216,-67,312,-43
1290,-40,-2088,-248,-63,317,-49
1295,24,-2104,-264,-54,323,-59
1300,-8,-2088,-216,-43,332,-71
1305,8,-2064,-248,-33,344,-82
1310,-8,-2048,-256,-26,352,-94
1315,-72,-2104,-152,-21,357,-102
1320,-8,-2032,-264,-21,360,-110
1325,0,-2032,-256,-26,360,-113
1330,-16,-2024,-232,-32,359,-116
1335,-40,-2032,-272,-39,358,-116
1340,-56,-2056,-256,-47,360,-116
1345,-88,-2024,-256,-52,363,-115
1350,-64,-2056,-232,-57,367,-114
1355,-72,-2048,-264,-60,372,-114
1360,-64,-2048,-248,-62,376,-114
1365,-64,-2096,-256,-64,384,-114
1370,-24,-2040,-280,-66,391,-114
1375,0,-2136,-264,-65,395,-118
1380,0,-2128,-264,-57,401,-126
1385,-8,-2080,-280,-46,406,-131
1390,16,-2080,-296,-38,408,-136
1395,16,-2064,-256,-36,410,-139
1400,24,-2064,-264,-40,409,-146
1405,-16,-2064,-240,-46,408,-152
1410,-24,-2096,-232,-46,404,-157
1415,0,-2088,-240,-44,400,-154
1420,-56,-2064,-216,-42,394,-152
1425,-64,-2088,-256,-36,387,-151
1430,-88,-2080,-224,-32,381,-146
1435,-104,-2072,-232,-28,373,-142
1440,-104,-2064,-232,-27,366,-138
1445,-96,-2088,-216,-27,361,-134
1450,-112,-2104,-224,-30,354,-129
1455,-80,-2080,-232,-34,347,-124
1460,-80,-2064,-216,-36,339,-125
1465,-72,-2104,-216,-39,330,-123
1470,-80,-2104,-192,-44,319,-121
1475,-72,-2104,-192,-46,309,-120
1480,-72,-2088,-208,-44,302,-121
1485,-80,-2104,-224,-43,297,-123
1490,-112,-2088,-216,-42,289,-124
1495,-96,-2072,-224,-37,282,-123
1500,-96,-2080,-216,-28,276,-125
1505,-120,-2064,-224,-21,270,-126
1510,-120,-2064,-224,-16,267,-127
1515,-152,-2080,-192,-11,264,-127
1520,-128,-2088,-272,-6,260,-130
1525,-144,-2056,-216,2,256,-133
1530,-160,-2088,-192,6,251,-134
1535,-152,-2072,-168,9,248,-137
1540,-160,-2080,-200,6,244,-137
1545,-136,-2064,-184,-4,242,-139
1550,-136,-2080,-144,-19,238,-140
1555,-128,-2120,-176,-38,235,-142
1560,-120,-2128,-136,-50,232,-144
1565,-128,-2144,-136,-60,232,-145
1570,-112,-2152,-160,-67,230,-145
1575,-96,-2160,-120,-67,230,-147
1580,-112,-2144,-144,-62,229,-149
1585,-136,-2168,-144,-57,229,-155
1590,-128,-2168,-160,-51,228,-160
1595,-136,-2160,-128,-46,227,-167
1600,-112,-2144,-168,-42,229,-172
1605,-104,-2136,-176,-46,230,-179
1610,-112,-2160,-232,-54,231,-183
1615,-112,-2192,-232,-71,229,-182
1620,-112,-2232,-272,-90,219,-175
1625,-160,-2264,-336,-110,206,-165
1630,-136,-2304,-360,-135,192,-155
1635,-184,-2360,-368,-164,179,-143
1640,-224,-2408,-352,-188,160,-128
1645,-264,-2416,-344,-198,135,-112
1650,-280,-2448,-368,-198,110,-91
1655,-328,-2472,-376,-192,82,-73
1660,-352,-2496,-400,-187,49,-58
1665,-384,-2472,-352,-178,15,-44
1670,-376,-2472,-320,-163,-20,-34
1675,-400,-2448,-336,-143,-54,-25
1680,-376,-2432,-312,-125,-87,-18
1685,-352,-2408,-336,-102,-117,-14
1690,-328,-2344,-376,-80,-142,-12
1695,-320,-2328,-384,-56,-161,-15
1700,-264,-2288,-400,-40,-177,-20
1705,-256,-2280,-416,-31,-187,-28
1710,-224,-2248,-408,-24,-189,-43
1715,-192,-2208,-432,-17,-185,-62
1720,-152,-2184,-448,-16,-177,-81
1725,-96,-2160,-480,-21,-159,-106
1730,-32,-2160,-488,-28,-137,-128
1735,0,-2112,-504,-39,-111,-153
1740,88,-2096,-528,-49,-91,-180
1745,136,-2080,-544,-59,-65,-209
1750,192,-2056,-520,-68,-38,-236
1755,216,-2080,-520,-74,-10,-264
1760,232,-2048,-544,-80,14,-293
1765,264,-2024,-568,-88,35,-323
1770,288,-2008,-584,-100,55,-353
1775,256,-1976,-592,-115,73,-377
1780,272,-1976,-624,-134,93,-399
1785,296,-1968,-640,-154,111,-417
1790,280,-1960,-656,-171,132,-431
1795,296,-1936,-656,-188,156,-440
1800,280,-2024,-560,-209,180,-446
1805,240,-1920,-664,-232,200,-446
1810,248,-1952,-672,-241,214,-442
1815,232,-1960,-720,-227,219,-432
1820,224,-1952,-720,-207,228,-417
1825,216,-1928,-720,-182,235,-399
1830,192,-1912,-776,-155,240,-379
1835,184,-1864,-800,-132,246,-351
1840,176,-1864,-784,-110,252,-322
1845,200,-1848,-800,-94,258,-295
1850,208,-1856,-792,-85,258,-274
1855,224,-1840,-888,-80,261,-253
1860,224,-1832,-792,-81,261,-234
1865,272,-1864,-728,-86,257,-217
1870,272,-1880,-720,-88,257,-203
1875,296,-1952,-656,-90,254,-191
1880,280,-1944,-632,-89,250,-179
1885,264,-2016,-600,-97,249,-173
1890,256,-2048,-600,-116,250,-174
1895,280,-2144,-600,-140,252,-178
1900,296,-2160,-568,-156,256,-183
1905,256,-2184,-600,-161,259,-187
1910,208,-2240,-584,-153,254,-193
1915,192,-2224,-592,-138,243,-200
1920,184,-2216,-640,-119,228,-208
1925,184,-2176,-608,-98,215,-207
1930,160,-2152,-592,-79,204,-207
1935,152,-2168,-584,-62,192,-207
1940,136,-2144,-640,-49,183,-206
1945,144,-2136,-624,-36,179,-203
1950,120,-2096,-624,-26,177,-201
1955,128,-2064,-648,-27,180,-203
1960,152,-2040,-632,-30,190,-200
1965,160,-2024,-632,-30,204,-201
1970,168,-1992,-624,-31,218,-205
1975,144,-1920,-576,-33,222,-212
1980,168,-1904,-592,-46,222,-206
1985,160,-1888,-592,-50,221,-198
1990,192,-1896,-512,-54,221,-190
1995,200,-1944,-496,-62,226,-177
2000,200,-1976,-504,-70,224,-173
2005,240,-1992,-440,-79,219,-175
2010,240,-1976,-432,-78,216,-175
2015,280,-1984,-440,-67,214,-175
2020,264,-1960,-440,-62,212,-176
2025,288,-1960,-440,-62,208,-176
2030,336,-1952,-432,-61,213,-175
2035,352,-1928,-416,-63,221,-176
2040,360,-1944,-400,-66,233,-176
2045,384,-1960,-416,-69,245,-177
2050,392,-1928,-424,-74,257,-177
2055,408,-1944,-408,-75,271,-175
2060,384,-1920,-400,-82,279,-177
2065,400,-1952,-416,-87,284,-176
2070,400,-1944,-368,-95,287,-175
2075,384,-1976,-368,-104,293,-168
2080,368,-1992,-336,-107,295,-158
2085,352,-1992,-344,-101,292,-145
2090,328,-2016,-344,-91,280,-137
2095,320,-2024,-376,-84,270,-128
2100,288,-2024,-344,-83,258,-113
2105,288,-2032,-352,-82,247,-98
2110,280,-2000,-368,-82,236,-83
2115,272,-2024,-312,-84,224,-65
2120,248,-1976,-368,-93,210,-47
2125,256,-1968,-328,-102,197,-30
2130,224,-1976,-320,-107,183,-17
2135,224,-2000,-304,-106,168,-5
2140,208,-1968,-328,-103,152,7
2145,176,-1952,-312,-96,139,16
2150,192,-1960,-280,-93,127,24
2155,184,-1952,-280,-94,114,31
2160,184,-1968,-336,-97,102,39
2165,184,-1960,-296,-104,90,48
2170,184,-2000,-352,-109,76,55
2175,192,-1992,-320,-115,62,62
2180,168,-1992,-328,-123,50,72
2185,176,-2016,-344,-134,37,80
2190,160,-2040,-360,-140,25,88
2195,200,-2040,-336,-144,13,92
2200,184,-2040,-328,-149,2,97
2205,216,-2048,-280,-145,-9,99
2210,232,-2064,-336,-139,-18,96
2215,264,-2096,-280,-135,-24,92
2220,296,-2104,-304,-131,-31,90
2225,344,-2112,-304,-126,-38,87
2230,336,-2128,-304,-115,-43,82
2235,336,-2160,-320,-101,-49,76
2240,320,-2184,-304,-89,-58,69
2245,320,-2192,-304,-76,-69,64
2250,288,-2168,-264,-64,-85,61
2255,272,-2192,-264,-53,-104,61
2260,256,-2184,-280,-42,-121,64
2265,240,-2192,-248,-30,-140,68
2270,200,-2168,-248,-14,-158,73
2275,216,-2208,-288,-6,-174,79
2280,200,-2200,-256,-2,-189,81
2285,216,-2184,-216,4,-201,81
2290,168,-2168,-240,9,-213,80
2295,192,-2168,-248,9,-225,76
2300,232,-2160,-232,12,-234,69
2305,240,-2152,-264,15,-244,65
2310,248,-2136,-232,16,-254,56
2315,264,-2160,-232,22,-263,48
2320,288,-2104,-240,31,-271,38
2325,312,-2144,-232,32,-282,28
2330,344,-2168,-240,31,-291,19
2335,352,-2160,-192,30,-301,11
2340,464,-2152,-128,31,-314,3
2345,376,-2208,-176,33,-323,-4
2350,376,-2232,-136,36,-332,-11
2355,400,-2192,-152,38,-342,-17
2360,376,-2216,-144,37,-355,-22
2365,360,-2224,-112,40,-367,-23
2370,360,-2296,-112,42,-385,-23
2375,384,-2312,-168,42,-400,-18
2380,360,-2352,-200,32,-418,-18
2385,368,-2376,-248,21,-436,-17
2390,352,-2376,-304,3,-453,-21
2395,336,-2472,-392,-25,-472,-27
2400,376,-2472,-456,-54,-483,-33
2405,392,-2560,-512,-90,-494,-43
2410,416,-2624,-584,-122,-501,-56
2415,400,-2664,-632,-145,-508,-69
2420,392,-2704,-648,-158,-510,-86
2425,400,-2744,-680,-159,-508,-99
2430,456,-2800,-704,-149,-499,-114
2435,496,-2808,-736,-130,-482,-128
2440,512,-2800,-744,-103,-459,-142
2445,512,-2824,-768,-77,-430,-157
2450,512,-2768,-752,-52,-401,-171
2455,472,-2736,-840,-30,-376,-178
2460,416,-2656,-824,-11,-354,-176
2465,360,-2552,-888,11,-340,-166
2470,312,-2456,-880,38,-334,-149
2475,224,-2344,-896,65,-338,-123
2480,152,-2272,-888,85,-354,-95
2485,104,-2200,-912,99,-378,-62
2490,56,-2104,-944,106,-407,-24
2495,0,-2016,-920,110,-443,7
2500,-64,-1880,-896,107,-488,39
2505,-120,-1784,-904,96,-541,74
2510,-176,-1680,-936,83,-601,109
2515,-256,-1552,-896,73,-672,145
2520,-296,-1512,-880,62,-746,177
2525,-352,-1440,-912,54,-826,208
2530,-392,-1384,-880,42,-906,237
2535,-456,-1256,-824,34,-988,255
2540,-424,-1248,-904,43,-1059,264
2545,-408,-1248,-880,34,-1117,264
2550,-344,-1288,-880,6,-1152,262
2555,-312,-1344,-880,-40,-1167,250
2560,-240,-1456,-864,-103,-1168,238
2565,-152,-1608,-824,-168,-1155,222
2570,-80,-1760,-768,-224,-1134,205
2575,0,-1888,-744,-258,-1108,187
2580,40,-2032,-720,-281,-1079,173
2585,56,-2112,-688,-295,-1047,159
2590,96,-2216,-712,-300,-1016,145
2595,128,-2288,-696,-300,-979,136
2600,104,-2360,-688,-293,-940,130
2605,120,-2392,-704,-278,-902,130
2610,104,-2392,-712,-255,-860,136
2615,80,-2376,-744,-225,-825,140
2620,64,-2296,-704,-190,-790,146
2625,16,-2248,-696,-154,-774,152
2630,-24,-2184,-680,-126,-779,152
2635,-24,-2120,-680,-103,-790,153
2640,-48,-2112,-624,-76,-801,159
2645,-96,-2080,-616,-56,-824,168
2650,-144,-2048,-600,-51,-843,177
2655,-144,-2048,-528,-44,-855,185
2660,-200,-2016,-552,-35,-868,192
2665,-168,-1984,-568,-33,-888,195
2670,-200,-1976,-576,-37,-902,195
2675,-200,-1944,-568,-45,-917,192
2680,-168,-1896,-528,-53,-935,192
2685,-152,-1912,-536,-57,-943,193
2690,-160,-1880,-552,-70,-948,188
2695,-120,-1832,-552,-95,-949,188
2700,-88,-1816,-568,-108,-940,195
2705,-40,-1832,-584,-116,-928,194
2710,0,-1816,-600,-129,-914,190
2715,0,-1824,-592,-151,-899,189
2720,32,-1808,-568,-171,-884,185
2725,40,-1824,-592,-188,-868,180
2730,64,-1840,-584,-204,-850,175
2735,72,-1864,-576,-225,-838,166
2740,56,-1856,-528,-242,-818,155
2745,88,-1936,-584,-251,-798,145
2750,88,-1936,-568,-260,-779,135
2755,64,-2000,-512,-264,-756,123
2760,56,-2000,-528,-263,-738,114
2765,40,-2024,-488,-246,-717,100
2770,112,-2056,-488,-227,-695,84
2775,56,-2056,-472,-212,-671,68
2780,48,-2048,-472,-193,-649,50
2785,16,-2056,-464,-173,-629,32
2790,8,-2056,-440,-153,-613,15
2795,8,-2064,-440,-131,-598,2
2800,8,-2056,-400,-108,-584,-16
2805,8,-2040,-392,-93,-573,-37
2810,0,-2032,-352,-77,-558,-54
2815,8,-2032,-336,-65,-548,-71
2820,16,-2008,-336,-54,-537,-89
2825,64,-1896,-488,-41,-527,-105
2830,0,-1992,-336,-24,-518,-117
2835,16,-1928,-344,-11,-512,-133
2840,0,-1952,-344,-4,-507,-149
2845,-32,-1952,-320,-3,-506,-159
2850,-64,-1944,-328,-1,-511,-166
2855,-32,-1928,-360,-3,-518,-174
2860,-48,-1968,-360,-5,-523,-184
2865,-56,-2000,-352,-3,-530,-193
2870,-64,-2000,-320,1,-537,-201
2875,-16,-2000,-336,12,-544,-212
2880,-16,-2008,-352,17,-547,-224
2885,-48,-2024,-336,22,-548,-233
2890,-32,-2040,-320,25,-545,-237
2895,-48,-2048,-368,29,-538,-241
2900,0,-2064,-368,37,-526,-245
2905,0,-2040,-384,47,-513,-255
2910,0,-2024,-376,56,-501,-268
2915,16,-2040,-416,62,-487,-276
2920,0,-2040,-408,64,-474,-279
2925,16,-2008,-440,58,-461,-279
2930,8,-2008,-464,45,-439,-280
2935,56,-2000,-456,27,-415,-280
2940,56,-2008,-480,5,-391,-279
2945,96,-2008,-480,-20,-366,-279
2950,88,-2024,-432,-46,-342,-279
2955,120,-2056,-440,-74,-317,-276
2960,104,-2064,-400,-99,-299,-273
2965,96,-2096,-416,-121,-285,-268
2970,112,-2128,-360,-144,-275,-264
2975,120,-2192,-344,-169,-272,-256
2980,80,-2232,-320,-187,-269,-247
2985,72,-2272,-264,-200,-269,-239
2990,104,-2264,-248,-205,-272,-227
2995,24,-2296,-216,-206,-275,-211
3000,8,-2312,-272,-213,-278,-198
3005,8,-2336,-216,-217,-277,-184
3010,8,-2352,-216,-218,-276,-166
3015,-8,-2392,-216,-209,-274,-147
3020,-8,-2424,-168,-192,-270,-128
3025,0,-2448,-128,-167,-263,-109
3030,8,-2472,-104,-143,-252,-94
3035,16,-2424,-104,-122,-236,-81
3040,40,-2464,-40,-103,-221,-67
3045,88,-2472,-40,-79,-197,-54
3050,120,-2440,-8,-51,-172,-47
3055,144,-2400,8,-17,-144,-41
3060,160,-2400,-16,19,-111,-42
3065,200,-2352,-16,56,-72,-47
3070,216,-2320,0,91,-26,-55
3075,248,-2296,-8,118,23,-67
3080,240,-2280,-24,136,70,-84
3085,232,-2280,-152,134,113,-102
3090,240,-2296,-264,98,146,-121
3095,256,-2344,-392,32,162,-133
3100,264,-2424,-560,-52,168,-134
3105,232,-2512,-680,-136,161,-131
3110,208,-2616,-744,-201,149,-121
3115,112,-2664,-744,-226,123,-109
3120,-24,-2696,-680,-206,87,-90
3125,-160,-2728,-624,-163,38,-68
3130,-352,-2688,-648,-115,-14,-43
3135,-448,-2640,-624,-82,-72,-5
3140,-528,-2624,-680,-73,-131,27
3145,-600,-2592,-736,-75,-196,57
3150,-608,-2584,-832,-76,-254,91
3155,-584,-2528,-968,-69,-296,118
3160,-520,-2432,-1008,-42,-327,141
3165,-504,-2344,-1080,0,-348,161
3170,-424,-2152,-1120,52,-357,172
3175,-336,-2048,-1176,99,-348,178
3180,-256,-1952,-1192,124,-317,177
3185,-80,-1824,-1224,127,-268,162
3190,96,-1704,-1224,118,-202,135
3195,296,-1640,-1216,106,-116,110
3200,392,-1640,-1208,93,-26,82
3205,552,-1608,-1200,72,48,42
3210,672,-1624,-1176,39,122,6
3215,728,-1648,-1120,1,188,-33
3220,768,-1696,-1064,-35,232,-69
3225,792,-1800,-1008,-54,265,-98
3230,752,-1840,-928,-65,292,-128
3235,712,-1952,-856,-70,327,-154
3240,576,-2040,-760,-70,360,-182
3245,504,-2136,-720,-69,379,-207
3250,400,-2208,-624,-67,384,-236
3255,136,-2360,-528,-64,377,-265
3260,64,-2232,-584,-67,351,-303
3265,-8,-2232,-560,-90,313,-330
3270,-128,-2232,-592,-82,298,-337
3275,-232,-2176,-600,-52,274,-335
3280,-264,-2168,-608,-17,243,-323
3285,-312,-2112,-616,14,206,-302
3290,-344,-2064,-680,38,156,-284
3295,-344,-2032,-728,50,94,-280
3300,-264,-2000,-712,44,37,-275
3305,-184,-1984,-704,36,4,-270
3310,-136,-1944,-720,42,-12,-262
3315,-56,-1888,-640,54,-28,-256
3320,-8,-1880,-632,66,-37,-250
3325,16,-1824,-664,79,-48,-247
3330,120,-1776,-664,78,-53,-242
3335,120,-1768,-632,76,-51,-232
3340,144,-1808,-600,74,-54,-233
3345,152,-1784,-640,68,-63,-238
3350,184,-1744,-624,46,-76,-243
3355,224,-1792,-624,18,-79,-239
3360,232,-1848,-616,-8,-71,-229
3365,192,-1872,-584,-26,-66,-219
3370,208,-1880,-560,-38,-70,-210
3375,192,-1904,-560,-48,-79,-205
3380,216,-1952,-544,-60,-84,-197
3385,264,-1976,-544,-65,-82,-186
3390,160,-1960,-512,-68,-75,-170
3395,184,-1952,-512,-57,-77,-158
3400,168,-1936,-504,-35,-80,-141
3405,192,-1960,-496,-20,-85,-131
3410,208,-1952,-480,-26,-90,-129
3415,216,-1952,-496,-40,-95,-124
3420,280,-1952,-480,-51,-106,-124
3425,264,-1976,-456,-65,-113,-117
3430,328,-1976,-488,-68,-116,-105
3435,336,-1960,-448,-65,-117,-98
3440,336,-1960,-464,-56,-111,-90
3445,368,-1976,-440,-45,-101,-82
3450,336,-1976,-480,-31,-93,-77
3455,304,-1952,-472,-18,-85,-72
3460,304,-1984,-464,-11,-77,-62
3465,272,-1968,-456,-5,-68,-51
3470,232,-1976,-416,3,-61,-38
3475,224,-1952,-392,14,-57,-24
3480,200,-1928,-424,23,-53,-9
3485,176,-1976,-392,30,-51,6
3490,184,-1944,-368,37,-50,22
3495,160,-1944,-336,48,-50,35
3500,152,-1912,-336,59,-50,50
3505,168,-1944,-352,69,-49,66
3510,184,-1896,-328,76,-49,84
3515,184,-1872,-344,80,-49,100
3520,184,-1848,-328,83,-49,117
3525,200,-1864,-328,81,-48,133
3530,216,-1848,-344,77,-48,146
3535,176,-1848,-304,72,-50,155
3540,216,-1880,-320,73,-51,164
3545,200,-1880,-320,73,-56,168
3550,200,-1904,-320,71,-60,172
3555,208,-1944,-328,70,-63,175
3560,280,-1944,-392,66,-57,177
3565,288,-1920,-384,64,-40,175
3570,312,-1912,-392,59,-23,169
3575,352,-1944,-400,48,-10,161
3580,400,-1976,-360,39,-6,153
3585,376,-1976,-360,40,-13,146
3590,360,-2040,-288,48,-26,141
3595,312,-2064,-296,56,-41,139
3600,280,-2088,-232,66,-59,138
3605,216,-2120,-240,78,-80,140
3610,136,-2176,-248,97,-104,147
3615,72,-2200,-216,118,-133,159
3620,8,-2224,-224,136,-161,174
3625,0,-2288,-248,156,-187,191
3630,-16,-2264,-224,169,-210,203
3635,0,-2280,-232,184,-229,212
3640,0,-2280,-240,198,-247,213
3645,-8,-2304,-232,206,-266,214
3650,-16,-2304,-184,212,-291,212
3655,24,-2312,-176,217,-316,208
3660,40,-2320,-168,219,-340,203
3665,32,-2320,-128,221,-364,196
3670,40,-2328,-88,224,-389,188
3675,48,-2288,-64,231,-416,180
3680,32,-2264,-16,233,-440,173
3685,24,-2224,-8,235,-464,169
3690,48,-2232,8,236,-484,163
3695,72,-2240,32,228,-503,151
3700,80,-2240,64,213,-514,139
3705,96,-2232,64,199,-524,129
3710,104,-2232,56,193,-539,114
3715,128,-2224,96,196,-557,102
3720,112,-2264,56,203,-579,90
3725,112,-2328,-8,204,-609,82
3730,88,-2464,-104,186,-645,73
3735,24,-2568,-280,133,-694,65
3740,40,-2784,-448,42,-755,54
3745,-112,-2872,-544,-68,-823,44
3750,-128,-2992,-608,-158,-882,36
3755,-56,-3040,-536,-182,-929,31
3760,48,-3096,-520,-127,-953,25
3765,152,-3072,-600,-33,-956,13
3770,264,-2984,-696,45,-938,-11
3775,408,-2960,-800,73,-910,-36
3780,480,-2848,-920,57,-860,-71
3785,536,-2744,-1072,14,-804,-117
3790,520,-2568,-1232,-34,-752,-170
3795,504,-2368,-1336,-58,-709,-222
3800,528,-2160,-1440,-60,-676,-265
3805,576,-2000,-1424,-46,-660,-296
3810,496,-1848,-1392,-37,-663,-321
3815,392,-1768,-1352,-35,-684,-342
3820,304,-1656,-1272,-42,-707,-355
3825,136,-1592,-1216,-60,-731,-354
3830,0,-1560,-1104,-82,-748,-335
3835,-112,-1592,-984,-100,-751,-300
3840,-152,-1664,-832,-112,-748,-259
3845,-248,-1688,-768,-105,-731,-221
3850,-304,-1728,-736,-90,-700,-188
3855,-312,-1832,-656,-81,-663,-148
3860,-280,-1872,-640,-70,-630,-103
3865,-160,-1944,-648,-56,-606,-56
3870,-16,-2032,-680,-54,-585,-6
3875,104,-2096,-648,-67,-554,47
3880,240,-2128,-584,-79,-512,100
3885,360,-2144,-552,-85,-469,152
3890,456,-2168,-536,-89,-428,203
3895,528,-2184,-552,-89,-398,247
3900,552,-2152,-520,-81,-365,289
3905,568,-2136,-528,-65,-336,332
3910,552,-2144,-520,-42,-313,367
3915,504,-2128,-528,-22,-286,380
3920,488,-2120,-544,-4,-254,381
3925,440,-2104,-528,15,-211,379
3930,376,-2056,-552,28,-159,373
3935,296,-2048,-544,41,-106,361
3940,224,-1976,-512,48,-60,348
3945,160,-1912,-552,55,-15,337
3950,104,-1888,-552,53,20,324
3955,64,-1856,-576,43,49,310
3960,8,-1776,-568,41,76,303
3965,0,-1776,-584,32,91,293
3970,-16,-1744,-608,29,108,285
3975,-48,-1736,-560,22,119,278
3980,-96,-1720,-584,5,131,271
3985,-112,-1712,-528,-16,141,260
3990,-160,-1728,-512,-32,144,246
3995,-208,-1712,-512,-46,145,232
4000,-208,-1744,-488,-64,140,219
4005,-192,-1760,-480,-87,137,206
4010,-192,-1784,-496,-111,135,193
4015,-168,-1792,-440,-133,134,178
4020,-128,-1816,-464,-149,136,165
4025,-128,-1872,-456,-163,132,152
4030,-96,-1944,-424,-182,126,140
4035,-80,-1968,-416,-203,118,129
4040,-64,-2000,-376,-216,112,120
4045,-40,-2056,-408,-220,110,114
4050,-48,-2048,-352,-211,107,110
4055,0,-2064,-368,-193,107,104
4060,-24,-2064,-392,-169,112,102
4065,0,-2056,-392,-145,114,98
4070,0,-2032,-360,-125,116,94
4075,32,-2032,-376,-102,113,86
4080,8,-2000,-408,-80,111,77
4085,16,-1968,-408,-59,106,65
4090,16,-1992,-392,-41,100,53
4095,32,-1928,-376,-28,94,38
4100,48,-1896,-384,-23,87,20
4105,40,-1880,-400,-20,75,-3
4110,40,-1872,-408,-19,63,-23
4115,64,-1864,-376,-19,56,-41
4120,56,-1848,-384,-20,47,-55
4125,40,-1840,-336,-19,41,-69
4130,48,-1840,-384,-20,34,-80
4135,16,-1856,-392,-24,27,-92
4140,8,-1848,-432,-29,22,-102
4145,0,-1880,-400,-35,21,-110
4150,-24,-1888,-392,-42,19,-115
4155,-16,-1896,-384,-46,18,-119
4160,-24,-1920,-344,-47,18,-125
4165,-8,-1944,-352,-45,16,-130
4170,-48,-1944,-304,-44,17,-138
4175,-56,-1968,-320,-46,12,-145
4180,-56,-1992,-352,-52,8,-155
4185,-104,-2008,-336,-57,2,-165
4190,-96,-2048,-336,-59,-6,-173
4195,-120,-2072,-312,-62,-13,-177
4200,-112,-2088,-296,-66,-18,-179
4205,-96,-2120,-264,-61,-19,-184
4210,-48,-2112,-248,-49,-16,-193
4215,-40,-2152,-280,-35,-9,-205
4220,-8,-2160,-312,-17,0,-218
4225,8,-2160,-312,-9,11,-230
4230,24,-2136,-296,-10,22,-241
4235,88,-2160,-312,-18,31,-252
4240,88,-2160,-368,-35,40,-263
4245,112,-2176,-376,-51,48,-269
4250,168,-2176,-360,-66,60,-269
4255,192,-2216,-392,-78,73,-269
4260,208,-2232,-368,-86,88,-266
4265,248,-2248,-352,-96,105,-263
4270,280,-2280,-328,-105,124,-260
4275,296,-2304,-256,-110,143,-255
4280,368,-2280,-232,-113,167,-248
4285,328,-2360,-216,-111,189,-242
4290,280,-2376,-168,-100,208,-233
4295,288,-2376,-120,-85,228,-218
4300,312,-2392,-80,-71,253,-205
4305,296,-2392,-16,-64,281,-191
4310,344,-2416,-24,-57,310,-179
4315,344,-2424,-8,-49,339,-169
4320,320,-2400,0,-33,363,-161
4325,288,-2368,40,-17,386,-152
4330,248,-2400,24,-2,408,-143
4335,200,-2384,48,11,428,-136
4340,144,-2400,48,25,449,-130
4345,120,-2408,128,41,468,-123
4350,64,-2408,104,64,486,-116
4355,64,-2376,144,93,506,-110
4360,40,-2352,144,123,527,-107
4365,24,-2344,176,157,549,-107
4370,16,-2256,184,190,576,-110
4375,24,-2264,232,225,607,-115
4380,0,-2216,208,251,638,-124
4385,56,-2240,136,260,666,-136
4390,96,-2280,64,237,689,-153
4395,144,-2336,-136,178,692,-164
4400,192,-2384,-376,82,676,-168
4405,168,-2480,-616,-36,652,-170
4410,104,-2520,-776,-149,620,-167
4415,-8,-2568,-848,-227,582,-158
4420,-192,-2568,-768,-245,541,-140
4425,-432,-2576,-728,-205,499,-116
4430,-608,-2536,-664,-155,435,-91
4435,-808,-2544,-672,-126,352,-66
4440,-912,-2480,-744,-117,263,-42
4445,-944,-2416,-840,-128,179,-14
4450,-880,-2376,-944,-160,102,19
4455,-760,-2280,-1024,-190,37,61
4460,-656,-2192,-1096,-202,-18,100
4465,-536,-2080,-1152,-192,-61,137
4470,-424,-2000,-1224,-171,-102,162
4475,-248,-1920,-1208,-152,-129,179
4480,-80,-1880,-1128,-137,-134,195
4485,88,-1864,-1072,-132,-125,211
4490,272,-1928,-1008,-130,-106,223
4495,488,-2000,-920,-138,-91,221
4500,560,-2056,-888,-148,-82,215
4505,656,-2088,-832,-150,-76,205
4510,736,-2064,-800,-142,-73,195
4515,792,-2056,-808,-123,-65,187
4520,824,-2032,-832,-105,-43,168
4525,824,-1992,-776,-86,-13,133
4530,776,-2024,-696,-78,20,87
4535,648,-1992,-664,-75,53,34
4540,528,-1984,-608,-81,78,-19
4545,424,-2072,-584,-97,100,-66
4550,272,-2072,-568,-115,113,-115
4555,184,-2096,-528,-127,118,-163
4560,104,-2136,-504,-122,115,-209
4565,64,-2136,-488,-97,101,-249
4570,0,-2144,-512,-66,82,-280
4575,-24,-2080,-520,-44,56,-307
4580,-40,-2040,-504,-22,28,-320
4585,-120,-1992,-520,4,-4,-322
4590,-128,-1904,-552,17,-37,-315
4595,-152,-1864,-584,21,-71,-298
4600,-176,-1840,-592,12,-103,-283
4605,-176,-1784,-592,1,-141,-275
4610,-160,-1784,-616,-8,-181,-263
4615,-96,-1760,-600,-23,-215,-247
4620,-32,-1728,-616,-39,-247,-229
4625,-24,-1728,-552,-56,-276,-210
4630,24,-1736,-536,-67,-300,-197
4635,72,-1712,-528,-83,-321,-189
4640,120,-1704,-520,-97,-341,-179
4645,168,-1720,-480,-108,-355,-170
4650,176,-1672,-496,-118,-364,-161
4655,232,-1712,-496,-133,-370,-153
4660,280,-1720,-464,-152,-374,-147
4665,328,-1688,-496,-174,-376,-141
4670,352,-1736,-456,-199,-373,-137
4675,384,-1808,-448,-219,-374,-134
4680,384,-1832,-456,-248,-372,-134
4685,400,-1864,-464,-270,-373,-132
4690,408,-1896,-456,-284,-361,-130
4695,408,-1936,-440,-284,-348,-129
4700,440,-1952,-400,-276,-335,-129
4705,432,-1968,-440,-265,-320,-126
4710,424,-2016,-408,-254,-308,-122
4715,456,-1968,-552,-248,-294,-113
4720,440,-2048,-352,-234,-282,-102
4725,456,-2048,-352,-217,-270,-86
4730,448,-2048,-360,-193,-257,-69
4735,408,-2048,-320,-166,-247,-54
4740,376,-1968,-360,-138,-235,-40
4745,328,-1976,-336,-116,-222,-24
4750,288,-1944,-328,-99,-212,-4
4755,280,-1936,-344,-85,-203,17
4760,272,-1952,-304,-78,-192,41
4765,296,-1952,-312,-72,-181,64
4770,200,-1976,-176,-60,-171,86
4775,248,-1936,-288,-50,-159,107
4780,240,-1912,-264,-39,-147,127
4785,264,-1888,-232,-28,-135,144
4790,288,-1904,-248,-16,-121,159
4795,296,-1880,-224,-8,-106,172
4800,320,-1880,-240,0,-90,183
4805,320,-1840,-264,3,-74,190
4810,320,-1840,-264,5,-59,194
4815,328,-1856,-240,2,-40,193
4820,360,-1848,-232,-1,-21,186
4825,416,-1856,-328,-10,0,174
4830,440,-1840,-368,-26,31,159
4835,456,-1840,-408,-50,65,141
4840,432,-1864,-432,-72,99,123
4845,456,-1896,-408,-93,122,107
4850,464,-1968,-408,-110,133,95
4855,392,-2008,-400,-123,131,88
4860,328,-2056,-344,-135,121,85
4865,264,-2096,-320,-142,109,85
4870,216,-2120,-280,-144,95,88
4875,184,-2184,-232,-145,79,93
4880,128,-2200,-232,-141,61,100
4885,64,-2216,-216,-132,41,107
4890,32,-2216,-248,-121,20,117
4895,0,-2248,-216,-104,-4,124
4900,-48,-2248,-208,-95,-25,127
4905,-48,-2256,-200,-92,-46,133
4910,-32,-2280,-200,-95,-69,134
4915,-32,-2304,-216,-95,-93,133
4920,16,-2296,-200,-90,-121,130
4925,24,-2344,-176,-83,-151,127
4930,16,-2344,-144,-75,-184,122
4935,64,-2352,-128,-70,-221,118
4940,40,-2368,-104,-62,-259,114
4945,32,-2376,-56,-57,-297,111
4950,8,-2384,-16,-48,-335,110
4955,16,-2360,8,-38,-372,110
4960,-8,-2368,8,-28,-409,109
4965,16,-2376,16,-21,-446,105
4970,8,-2424,56,-19,-482,99
4975,0,-2432,48,-24,-510,89
4980,24,-2408,112,-27,-536,82
4985,16,-2392,112,-19,-564,77
4990,56,-2416,152,4,-595,74
4995,32,-2368,128,35,-630,77
5000,64,-2384,152,70,-666,77
5005,120,-2392,136,108,-700,76
5010,160,-2424,40,139,-733,70
5015,160,-2464,-120,154,-762,68
5020,120,-2544,-328,134,-798,69
5025,32,-2568,-632,51,-829,69
5030,-16,-2648,-896,-93,-856,66
5035,-48,-2752,-1056,-262,-867,64
5040,40,-2840,-1104,-389,-865,52
5045,232,-2992,-1040,-412,-856,30
5050,368,-3024,-1024,-345,-836,-6
5055,512,-3072,-984,-260,-809,-41
5060,632,-3064,-1032,-211,-770,-88
5065,712,-2968,-1104,-205,-716,-136
5070,680,-2848,-1256,-217,-656,-187
5075,608,-2672,-1392,-222,-604,-239
5080,520,-2472,-1536,-213,-556,-293
5085,520,-2240,-1592,-187,-512,-348
5090,496,-2024,-1704,-155,-468,-399
5095,448,-1888,-1672,-125,-433,-440
5100,352,-1800,-1576,-114,-422,-466
5105,152,-1704,-1432,-116,-422,-478
5110,40,-1704,-1232,-114,-431,-479
5115,-56,-1728,-1088,-110,-434,-461
5120,-120,-1784,-992,-109,-431,-428
5125,-176,-1800,-880,-111,-423,-393
5130,-272,-1872,-792,-127,-417,-346
5135,-376,-1920,-688,-143,-415,-294
5140,-400,-1968,-640,-139,-420,-233
5145,-408,-1968,-624,-111,-437,-164
5150,-344,-2008,-648,-83,-456,-87
5155,-248,-2024,-664,-74,-465,-8
5160,-136,-2040,-680,-83,-454,78
5165,-32,-2080,-672,-100,-437,161
5170,64,-2072,-672,-110,-425,225
5175,176,-2088,-656,-108,-414,281
5180,272,-2064,-664,-97,-410,323
5185,360,-2048,-640,-78,-396,361
5190,368,-2008,-608,-56,-379,392
5195,472,-2000,-608,-31,-364,409
5200,528,-1936,-688,-9,-328,423
5205,440,-1968,-544,5,-297,427
5210,384,-1928,-528,4,-278,415
5215,392,-1904,-536,3,-265,393
5220,312,-1856,-536,7,-247,368
5225,264,-1840,-568,11,-234,345
5230,192,-1816,-600,4,-221,326
5235,152,-1760,-616,-9,-207,310
5240,88,-1704,-632,-18,-187,296
5245,64,-1672,-632,-26,-169,282
5250,8,-1672,-584,-33,-151,266
5255,-40,-1592,-648,-41,-135,248
5260,-64,-1616,-552,-41,-119,235
5265,-120,-1648,-568,-36,-104,225
5270,-128,-1648,-512,-30,-93,212
5275,-152,-1664,-504,-24,-76,200
5280,-160,-1680,-488,-20,-66,184
5285,-160,-1704,-488,-30,-61,168
5290,-96,-1712,-456,-50,-64,146
5295,-128,-1720,-464,-69,-67,124
5300,-104,-1776,-496,-92,-73,102
5305,-88,-1800,-472,-115,-84,74
5310,-88,-1824,-456,-129,-97,54
5315,-80,-1888,-464,-136,-106,41
5320,-88,-1952,-440,-132,-111,34
5325,-48,-2000,-424,-121,-118,26
5330,-80,-1976,-432,-108,-122,17
5335,-104,-1984,-360,-90,-130,9
5340,-96,-1992,-368,-74,-137,3
5345,-88,-1984,-368,-48,-146,-5
5350,-72,-1944,-392,-15,-155,-14
5355,-72,-1936,-376,15,-165,-23
5360,-56,-1912,-400,37,-176,-35
5365,-8,-1888,-384,62,-187,-48
5370,-8,-1856,-360,92,-204,-68
5375,16,-1856,-368,118,-219,-91
5380,8,-1832,-368,143,-232,-112
5385,8,-1872,-336,162,-249,-137
5390,24,-1880,-320,172,-262,-161
5395,32,-1880,-288,183,-281,-187
5400,0,-1856,-272,200,-300,-211
5405,0,-1840,-272,225,-319,-236
5410,0,-1784,-264,240,-337,-260
5415,-48,-1752,-256,247,-355,-280
5420,-88,-1696,-264,257,-367,-298
5425,-96,-1704,-264,258,-373,-312
5430,-136,-1672,-296,246,-375,-322
5435,-136,-1672,-288,226,-373,-328
5440,-136,-1664,-264,196,-368,-333
5445,-120,-1648,-240,165,-358,-337
5450,-136,-1680,-288,136,-352,-337
5455,-120,-1680,-288,106,-341,-333
5460,-64,-1752,-256,72,-327,-330
5465,-24,-1784,-328,25,-307,-328
5470,-8,-1872,-336,-18,-278,-325
5475,56,-1968,-320,-64,-243,-326
5480,136,-2048,-320,-98,-203,-329
5485,192,-2120,-328,-126,-160,-332
5490,272,-2208,-344,-148,-119,-337
5495,312,-2288,-360,-165,-77,-346
5500,384,-2344,-336,-176,-40,-354
5505,392,-2440,-304,-180,-9,-361
5510,376,-2480,-296,-172,13,-364
5515,384,-2544,-264,-158,34,-366
5520,368,-2568,-232,-139,49,-365
5525,376,-2616,-240,-118,57,-363
5530,352,-2632,-208,-102,69,-362
5535,304,-2672,-184,-90,81,-362
5540,256,-2680,-144,-81,99,-363
5545,272,-2704,-88,-69,123,-360
5550,224,-2744,-8,-46,159,-351
5555,120,-2760,40,-9,186,-345
5560,32,-2768,96,33,193,-341
5565,8,-2784,168,84,193,-340
5570,-24,-2744,184,139,199,-333
5575,-24,-2720,232,188,201,-323
5580,-32,-2664,232,235,209,-314
5585,-40,-2600,264,279,223,-304
5590,0,-2552,280,320,241,-297
5595,0,-2488,264,360,264,-291
5600,0,-2384,264,393,289,-287
5605,0,-2400,192,416,306,-286
5610,72,-2432,8,403,303,-297
5615,56,-2496,-224,342,276,-316
5620,32,-2560,-528,219,218,-326
5625,0,-2624,-1080,5,156,-327
5630,-56,-2680,-1520,-284,118,-316
5635,-136,-2744,-1560,-520,128,-291
5640,-368,-2656,-1344,-546,170,-251
5645,-544,-2536,-1160,-396,153,-194
5650,-760,-2352,-1168,-233,69,-125
5655,-896,-2144,-1264,-137,-37,-46
5660,-936,-1968,-1400,-109,-133,33
5665,-856,-1808,-1536,-117,-207,96
5670,-632,-1704,-1656,-142,-265,141
5675,-248,-1640,-1792,-172,-302,176
5680,-8,-1664,-1832,-203,-328,200
5685,136,-1840,-1760,-229,-341,204
5690,304,-1936,-1568,-259,-344,199
5695,496,-2192,-1352,-286,-339,200
5700,688,-2464,-1192,-300,-327,210
5705,864,-2616,-1056,-299,-310,219
5710,992,-2768,-960,-278,-286,222
5715,1024,-2872,-832,-237,-260,210
5720,1024,-2904,-784,-181,-227,185
5725,960,-2936,-744,-103,-182,147
5730,816,-2880,-696,-14,-133,83
5735,648,-2824,-696,57,-95,-4
5740,560,-2760,-640,107,-68,-104
5745,440,-2624,-680,143,-63,-212
5750,352,-2536,-704,169,-67,-319
5755,256,-2400,-720,195,-72,-418
5760,112,-2248,-736,209,-72,-512
5765,72,-2112,-728,202,-64,-591
5770,80,-2040,-720,180,-44,-652
5775,8,-1928,-688,151,-8,-691
5780,0,-1888,-680,136,19,-709
5785,-72,-1800,-632,123,27,-710
5790,-64,-1824,-624,108,14,-689
5795,-120,-1800,-656,98,-18,-663
5800,-128,-1768,-656,80,-62,-624
5805,-168,-1728,-648,52,-101,-582
5810,-184,-1712,-640,28,-143,-532
5815,-160,-1672,-616,6,-190,-484
5820,-112,-1648,-616,-18,-239,-436
5825,-32,-1688,-512,-40,-285,-395
5830,16,-1688,-528,-60,-337,-368
5835,48,-1680,-496,-75,-390,-345
5840,120,-1696,-472,-84,-446,-334
5845,192,-1640,-472,-85,-498,-327
5850,184,-1624,-496,-81,-544,-325
5855,256,-1632,-480,-82,-579,-331
5860,296,-1616,-512,-86,-607,-340
5865,336,-1616,-504,-91,-623,-340
5870,408,-1672,-488,-100,-640,-338
5875,408,-1704,-456,-117,-658,-332
5880,456,-1776,-440,-133,-674,-328
5885,440,-1856,-432,-148,-683,-329
5890,456,-1960,-432,-160,-690,-328
5895,456,-2040,-408,-167,-691,-328
5900,496,-2064,-400,-168,-690,-327
5905,472,-2080,-336,-162,-678,-320
5910,472,-2112,-320,-131,-667,-313
5915,432,-2104,-344,-89,-656,-304
5920,472,-2096,-360,-52,-644,-290
5925,456,-2048,-336,-31,-628,-274
5930,448,-2040,-344,-23,-616,-263
5935,472,-2024,-384,-11,-607,-251
5940,488,-1952,-352,2,-598,-240
5945,432,-1904,-368,18,-594,-229
5950,368,-1864,-336,32,-592,-219
5955,376,-1872,-368,40,-594,-208
5960,336,-1832,-368,41,-598,-193
5965,344,-1840,-424,35,-599,-172
5970,280,-1864,-400,23,-596,-157
5975,288,-1840,-416,17,-587,-143
5980,296,-1872,-400,14,-571,-132
5985,280,-1864,-384,8,-551,-125
5990,272,-1848,-424,2,-532,-121
5995,296,-1848,-400,-6,-514,-118
6000,248,-1816,-416,-13,-500,-117
6005,248,-1872,-392,-16,-489,-108
6010,224,-1848,-400,-13,-483,-102
6015,248,-1864,-384,-7,-487,-92
6020,264,-1864,-368,-13,-489,-82
6025,280,-1904,-344,-21,-490,-73
6030,272,-1912,-304,-24,-489,-60
6035,272,-1936,-304,-14,-491,-45
6040,304,-1928,-232,-2,-490,-31
6045,312,-1944,-240,17,-491,-15
6050,312,-1888,-232,38,-490,-2
6055,328,-1920,-232,62,-486,12
6060,336,-1888,-240,84,-482,23
6065,376,-1880,-240,105,-477,31
6070,392,-1824,-240,127,-472,37
6075,384,-1808,-280,146,-466,39
6080,368,-1800,-312,167,-460,41
6085,408,-1776,-320,189,-455,43
6090,368,-1744,-288,208,-452,48
6095,352,-1752,-272,219,-449,53
6100,344,-1712,-296,231,-448,57
6105,368,-1696,-280,232,-446,55
6110,344,-1712,-288,220,-442,55
6115,336,-1728,-296,195,-431,51
6120,320,-1768,-280,164,-418,47
6125,296,-1792,-312,133,-407,40
6130,296,-1880,-264,104,-405,33
6135,256,-1904,-256,74,-419,30
6140,240,-1976,-200,44,-447,27
6145,216,-2040,-208,19,-487,27
6150,184,-2080,-160,0,-533,29
6155,160,-2128,-136,-17,-581,32
6160,144,-2200,-168,-30,-634,36
6165,104,-2288,-176,-50,-683,43
6170,88,-2336,-112,-70,-727,49
6175,112,-2288,-80,-82,-773,57
6180,136,-2424,-48,-88,-808,68
6185,176,-2448,-16,-92,-834,78
6190,216,-2488,-8,-93,-857,90
6195,280,-2512,0,-93,-875,102
6200,312,-2528,-16,-96,-890,117
6205,344,-2488,-16,-107,-902,133
6210,392,-2536,-56,-128,-905,149
6215,432,-2560,-48,-162,-907,168
6220,432,-2568,-40,-200,-910,189
6225,464,-2656,0,-241,-907,206
6230,456,-2688,-48,-277,-899,224
6235,424,-2744,-32,-303,-896,238
6240,448,-2816,-56,-323,-900,253
6245,464,-2928,-56,-331,-905,259
6250,408,-3024,-56,-329,-915,262
6255,392,-3080,-88,-312,-924,261
6260,344,-3120,-88,-291,-935,254
6265,352,-3160,-72,-262,-945,245
6270,272,-3136,-80,-223,-956,237
6275,288,-3088,-80,-174,-964,230
6280,224,-3008,-96,-121,-971,224
6285,216,-2912,-144,-60,-985,227
6290,192,-2760,-232,5,-1001,239
6295,208,-2568,-304,67,-1021,260
6300,208,-2392,-408,113,-1034,292
6305,184,-2168,-496,146,-1049,330
6310,168,-1960,-560,167,-1061,373
6315,168,-1800,-696,177,-1076,418
6320,128,-1536,-824,179,-1094,466
6325,128,-1360,-968,162,-1120,511
6330,112,-1152,-1104,131,-1150,554
6335,72,-976,-1248,79,-1188,596
6340,32,-824,-1304,19,-1232,629
6345,-24,-696,-1368,-38,-1285,663
6350,-32,-712,-1464,-88,-1348,703
6355,-32,-816,-1584,-145,-1410,739
6360,-24,-1016,-1720,-238,-1469,766
6365,0,-1248,-1736,-362,-1515,772
6370,40,-1496,-1792,-474,-1541,752
6375,40,-1712,-1792,-553,-1545,712
6380,96,-1952,-1808,-597,-1512,669
6385,168,-2184,-1784,-613,-1435,623
6390,288,-2440,-1824,-621,-1321,568
6395,400,-2728,-1832,-657,-1185,509
6400,504,-2944,-1832,-697,-1044,448
6405,592,-3104,-1720,-724,-901,373
6410,648,-3240,-1704,-730,-759,281
6415,744,-3320,-1600,-713,-627,189
6420,736,-3328,-1544,-659,-499,101
6425,704,-3304,-1472,-577,-374,29
6430,624,-3208,-1416,-474,-259,-28
6435,560,-3088,-1368,-365,-169,-75
6440,432,-2952,-1288,-260,-101,-99
6445,296,-2800,-1176,-157,-51,-97
6450,168,-2680,-1088,-70,-18,-82
6455,32,-2536,-1008,4,-6,-57
6460,-80,-2448,-936,56,-15,-20
6465,-184,-2392,-848,82,-59,26
6470,-296,-2304,-816,89,-134,80
6475,-432,-2256,-792,78,-225,137
6480,-496,-2216,-760,57,-322,205
6485,-536,-2168,-760,41,-420,275
6490,-560,-2104,-736,20,-511,343
6495,-544,-2096,-728,-9,-598,403
6500,-568,-2032,-680,-42,-673,451
6505,-472,-1976,-736,-62,-738,489
6510,-384,-1904,-696,-71,-789,522
6515,-312,-1840,-672,-66,-825,551
6520,-208,-1816,-704,-54,-853,581
6525,-112,-1776,-656,-56,-868,606
6530,-24,-1720,-664,-65,-868,619
6535,0,-1688,-576,-78,-852,630
6540,104,-1632,-544,-86,-810,645
6545,136,-1552,-560,-84,-769,654
6550,216,-1536,-536,-90,-724,659
6555,272,-1520,-528,-107,-669,654
6560,296,-1488,-520,-135,-606,640
6565,368,-1440,-520,-165,-542,625
6570,456,-1464,-512,-174,-468,606
6575,456,-1432,-488,-176,-401,574
6580,512,-1424,-480,-174,-335,541
6585,504,-1584,-496,-178,-261,509
6590,496,-1568,-544,-229,-188,473
6595,448,-1560,-512,-299,-116,433
6600,432,-1576,-440,-334,-50,397
6605,432,-1624,-408,-328,16,360
6610,384,-1688,-368,-307,83,322
6615,304,-1728,-376,-289,148,285
6620,256,-1784,-336,-272,217,258
6625,208,-1768,-352,-247,282,231
6630,136,-1832,-328,-218,337,200
6635,48,-1848,-344,-182,382,173
6640,32,-1856,-384,-145,419,151
6645,16,-1848,-432,-108,449,128
6650,-56,-1840,-488,-75,476,102
6655,-192,-1776,-592,-45,498,78
6660,-184,-1816,-568,-30,506,53
6665,-216,-1832,-576,-16,508,18
6670,-224,-1824,-536,7,505,-10
6675,-288,-1816,-568,40,495,-32
6680,-288,-1824,-544,71,479,-47
6685,-328,-1808,-544,95,460,-59
6690,-352,-1800,-504,106,438,-72
6695,-352,-1840,-560,111,415,-78
6700,-376,-1792,-536,115,392,-82
6705,-368,-1856,-544,119,368,-83
6710,-376,-1840,-600,129,340,-77
6715,-392,-1800,-536,145,311,-72
6720,-392,-1760,-544,165,284,-64
6725,-352,-1688,-544,183,261,-60
6730,-344,-1624,-496,193,239,-60
6735,-296,-1600,-504,195,220,-63
6740,-272,-1600,-488,191,207,-71
6745,-208,-1592,-480,179,194,-83
6750,-168,-1632,-464,157,184,-99
6755,-176,-1704,-440,129,172,-121
6760,-168,-1816,-368,102,156,-146
6765,-160,-1848,-368,87,140,-170
6770,-168,-1912,-288,85,125,-193
6775,-168,-1960,-256,95,111,-213
6780,-200,-1984,-200,109,101,-231
6785,-208,-2024,-144,123,92,-250
6790,-224,-2016,-128,136,78,-269
6795,-240,-2032,-168,157,66,-280
6800,-240,-2000,-168,183,57,-280
6805,-232,-1928,-208,206,60,-271
6810,-208,-1864,-232,214,72,-259
6815,-192,-1824,-264,199,96,-244
6820,-160,-1832,-280,161,122,-232
6825,-144,-1864,-304,109,150,-221
6830,-72,-1912,-312,45,177,-212
6835,-32,-2040,-288,-15,199,-198
6840,-32,-2192,-272,-71,218,-181
6845,0,-2336,-232,-123,238,-161
6850,56,-2480,-152,-172,263,-140
6855,56,-2576,-40,-205,289,-122
6860,96,-2736,8,-224,300,-109
6865,96,-2856,72,-233,299,-95
6870,88,-2936,48,-238,292,-89
6875,24,-2992,8,-240,288,-80
6880,-40,-3072,56,-231,292,-69
6885,-48,-3112,24,-197,297,-59
6890,-128,-3080,48,-151,312,-51
6895,-200,-3088,56,-104,331,-38
6900,-264,-3072,152,-51,344,-25
6905,-288,-3064,128,7,357,-14
6910,-320,-3016,160,70,369,-8
6915,-368,-3016,168,133,380,-3
6920,-408,-2984,120,196,400,1
6925,-432,-2976,144,257,428,6
6930,-368,-2944,184,324,471,12
6935,-336,-2928,224,395,532,9
6940,-288,-2880,216,472,604,2
6945,-264,-2760,296,574,694,-14
6950,-192,-2624,256,700,801,-37
6955,-136,-2392,144,834,922,-64
6960,-128,-2040,-152,952,1047,-90
6965,-40,-1632,-456,1031,1175,-112
6970,136,-1088,-840,1064,1294,-136
6975,480,-552,-1248,1047,1445,-151
6980,792,-8,-1736,978,1656,-170
6985,1192,496,-2112,876,1909,-215
6990,1472,936,-2568,781,2174,-285
6995,1496,1216,-3040,675,2376,-377
7000,1288,1496,-3608,485,2457,-486
7005,960,1456,-4008,121,2464,-557
7010,680,1304,-3936,-384,2460,-556
7015,480,912,-3784,-852,2451,-464
7020,480,440,-3736,-1257,2418,-321
7025,616,-352,-3416,-1649,2374,-143
7030,568,-1256,-3088,-1917,2329,55
7035,592,-2328,-2816,-1929,2180,294
7040,624,-3320,-2760,-1623,1917,578
7045,584,-4096,-2848,-1099,1564,871
7050,512,-4592,-2904,-559,1208,1139
7055,264,-4656,-2920,-164,871,1359
7060,-72,-4496,-2936,98,612,1548
7065,-472,-4192,-2704,351,563,1704
7070,-608,-3784,-2344,661,644,1836
7075,-528,-3392,-1896,998,771,1930
7080,-376,-3016,-1440,1325,911,1938
7085,-272,-2568,-912,1608,1037,1858
7090,-112,-2064,-424,1845,1130,1718
7095,40,-1504,64,2020,1168,1563
7100,256,-1000,512,2107,1171,1435
7105,520,-528,840,2144,1136,1350
7110,672,0,1024,2146,1051,1305
7115,872,448,1064,2100,928,1307
7120,880,808,896,2002,770,1313
7125,984,1080,704,1839,613,1328
7130,1024,1224,440,1632,505,1315
7135,1024,1160,328,1389,464,1268
7140,864,904,136,1129,476,1176
7145,704,560,-272,875,517,1069
7150,424,56,-616,623,515,949
7155,72,-416,-808,404,430,823
7160,-320,-856,-936,232,311,714
7165,-656,-1288,-928,131,202,625
7170,-848,-1656,-784,117,73,540
7175,-976,-2016,-600,161,-48,436
7180,-960,-2168,-448,248,-157,317
7185,-872,-2184,-288,352,-280,219
7190,-720,-2088,-192,441,-385,145
7195,-520,-1984,-24,521,-471,106
7200,-328,-1760,-16,585,-538,94
7205,-64,-1600,-160,602,-568,115
7210,120,-1512,-432,560,-614,163
7215,312,-1504,-720,505,-702,239
7220,464,-1504,-1008,481,-824,330
7225,520,-1680,-1208,515,-970,429
7230,568,-1872,-1440,608,-1133,517
7235,592,-2056,-1648,701,-1295,585
7240,616,-2216,-1688,748,-1445,633
7245,560,-2384,-1896,747,-1610,676
7250,480,-2608,-2008,676,-1802,722
7255,296,-2904,-2048,563,-1983,795
7260,40,-3184,-1864,467,-2127,867
7265,-64,-3392,-1664,454,-2294,922
7270,-200,-3512,-1520,463,-2469,943
7275,-392,-3456,-1192,485,-2619,946
7280,-448,-3304,-656,540,-2723,949
7285,-408,-3168,-216,647,-2822,957
7290,-392,-2976,160,782,-2917,974
7295,-264,-2800,464,955,-2996,1008
7300,-216,-2464,552,1148,-3046,1049
7305,-240,-2072,592,1330,-3095,1091
7310,-104,-1672,632,1482,-3186,1117
7315,80,-1256,528,1575,-3247,1105
7320,208,-768,464,1592,-3181,1026
7325,384,-256,432,1537,-3019,896
7330,344,104,536,1437,-2814,732
7335,400,488,568,1342,-2670,552
7340,440,808,584,1260,-2607,385
7345,448,1104,424,1198,-2594,270
7350,416,1400,112,1143,-2558,195
7355,328,1584,-208,1045,-2494,158
7360,264,1600,-520,855,-2378,162
7365,216,1472,-664,592,-2219,169
7370,208,1168,-736,328,-2049,171
7375,32,672,-720,138,-1848,194
7380,-144,192,-832,51,-1684,244
7385,-176,-280,-1152,38,-1539,287
7390,-64,-680,-1504,72,-1386,305
7395,176,-1008,-1928,103,-1219,265
7400,432,-1256,-2264,84,-1065,169
7405,680,-1648,-2552,-3,-979,33
7410,608,-2104,-2328,-81,-1040,-135
7415,416,-2496,-1928,-26,-1282,-301
7420,-200,-2712,-1560,188,-1585,-392
7425,-968,-2888,-1040,551,-1779,-339
7430,-1520,-2784,-512,1020,-1804,-178
7435,-1672,-2536,-296,1454,-1683,18
7440,-1480,-2264,-200,1754,-1431,193
7445,-1008,-2056,16,1952,-1138,306
7450,-496,-1728,248,2128,-892,364
7455,-112,-1384,224,2290,-761,399
7460,128,-1104,104,2401,-766,445
7465,328,-960,-88,2446,-910,496
7470,384,-944,-40,2407,-1140,526
7475,408,-1024,144,2309,-1377,519
7480,416,-1096,344,2204,-1519,462
7485,400,-1032,472,2091,-1547,354
7490,400,-848,368,1964,-1481,202
7495,416,-552,8,1726,-1342,11
7500,336,-376,-16,1365,-1158,-194
7505,320,-208,24,1059,-970,-398
7510,232,-8,120,797,-840,-575
7515,24,-184,416,548,-882,-685
7520,-88,-864,696,311,-1182,-721
7525,-208,-1864,312,466,-1620,-727
7530,-480,-2792,-800,1101,-1982,-728
7535,-688,-3448,-1232,1848,-2098,-762
7540,-1104,-3992,-136,2376,-2039,-803
7545,-1264,-4544,1432,2782,-2074,-758
7550,-1328,-5232,3248,3154,-2262,-675
7555,-1304,-6192,4128,3568,-2488,-572
7560,-1448,-7448,5024,3935,-2602,-403
7565,-1256,-9096,5976,4174,-2543,-101
7570,-1528,-11016,7392,4311,-2256,319
7575,-1560,-12648,8280,4405,-1866,829
7580,-1480,-14048,8456,4443,-1407,1342
7585,-104,-13936,8008,4569,-916,1678
7590,2864,-11104,6272,4943,-435,1449
7595,3688,-7800,5104,5093,163,904
7600,1936,-6144,4192,5064,915,660
7605,288,-5080,2912,5138,1355,498
7610,-840,-4496,1992,5040,1592,276
7615,-1872,-4080,336,4974,1713,186
7620,-2984,-2568,-560,5047,1548,295
7625,-3584,-776,-128,4854,1334,489
7630,-3720,664,-8,4431,1118,635
7635,-3056,1632,-1128,4065,733,758
7640,-1992,2304,-1800,3709,214,880
7645,-1016,2360,-1176,3266,-214,960
7650,-32,1768,-568,2898,-523,973
7655,584,904,-480,2726,-712,926
7660,712,120,-32,2635,-766,874
7665,456,-664,488,2549,-766,859
7670,384,-1352,912,2513,-747,906
7675,632,-1800,1016,2560,-700,944
7680,568,-1960,928,2674,-640,926
7685,480,-1848,840,2805,-587,912
7690,488,-1648,888,2930,-514,917
7695,528,-1312,1032,3043,-427,934
7700,416,-960,1208,3143,-356,951
7705,416,-576,1224,3244,-352,959
7710,432,-232,1120,3293,-378,939
7715,496,-8,1272,3269,-385,910
7720,472,48,1528,3271,-393,887
7725,496,32,1664,3326,-413,879
7730,616,0,1872,3368,-423,852
7735,792,8,1904,3425,-408,812
7740,1112,0,1832,3469,-412,732
7745,1152,176,1984,3491,-410,640
7750,1144,440,2104,3512,-376,585
7755,1040,760,2232,3493,-321,544
7760,888,920,2256,3437,-227,489
7765,720,1168,2144,3401,-164,415
7770,520,1360,2048,3339,-171,327
7775,344,1608,1872,3254,-173,233
7780,80,1976,1480,3198,-140,177
7785,-304,2312,1272,3136,-141,205
7790,-392,2640,1312,3041,-200,279
7795,-400,2960,1384,2953,-269,335
7800,-408,3192,1424,2846,-329,368
7805,-272,3376,1416,2721,-343,366
7810,-296,3648,1472,2580,-296,337
7815,-288,3784,1592,2395,-214,284
7820,-336,3872,1688,2186,-114,226
7825,-208,4016,1880,1946,-51,186
7830,-192,4184,2120,1667,-7,172
7835,-176,4232,2328,1388,11,169
7840,-256,4112,2512,1100,17,163
7845,-368,3824,2632,853,-9,162
7850,-336,3448,2592,680,-64,146
7855,-304,2936,2504,540,-106,111
7860,-288,2360,2520,433,-114,56
7865,-176,1656,2472,385,-122,11
7870,-128,1024,2328,398,-161,-14
7875,-120,384,2120,456,-229,-14
7880,-80,-104,1864,562,-298,12
7885,-120,-336,1592,731,-336,38
7890,-280,-328,1424,931,-341,74
7895,-496,-240,1272,1117,-355,122
7900,-616,-112,1200,1269,-417,168
7905,-608,24,1104,1389,-514,194
7910,-456,176,1008,1488,-639,188
7915,-280,360,952,1562,-756,141
7920,-40,544,880,1634,-825,85
7925,8,672,808,1714,-840,35
7930,16,832,776,1792,-818,5
7935,32,976,760,1860,-785,-20
7940,-112,1112,680,1914,-756,-44
7945,-232,1336,688,1954,-731,-54
7950,-344,1504,696,1973,-724,-49
7955,-416,1680,664,1979,-747,-26
7960,-488,1864,640,1968,-787,1
7965,-488,1992,584,1933,-830,27
7970,-416,2040,528,1877,-876,56
7975,-320,2064,504,1792,-920,77
7980,-208,2080,448,1681,-960,92
7985,-24,2072,408,1549,-989,101
7990,136,2064,344,1400,-1007,104
7995,296,2032,328,1245,-1011,115
8000,408,1984,288,1092,-998,123
8005,488,1968,288,951,-967,133
8010,520,1904,280,832,-923,142
8015,544,1864,288,731,-867,155
8020,544,1792,248,648,-809,168
8025,536,1728,224,573,-755,176
8030,512,1728,256,499,-713,181
8035,512,1664,216,429,-682,178
8040,512,1680,208,358,-661,174
8045,496,1656,224,278,-644,169
8050,472,1672,240,192,-631,168
8055,488,1656,256,103,-624,168
8060,448,1648,240,11,-615,175
8065,416,1616,224,-89,-604,188
8070,400,1576,248,-193,-595,207
8075,360,1552,312,-293,-589,229
8080,336,1496,312,-382,-581,256
8085,336,1464,376,-460,-568,284
8090,352,1464,400,-521,-547,312
8095,376,1424,480,-568,-518,340
8100,408,1400,520,-603,-487,367
8105,400,1416,488,-625,-460,393
8110,512,1352,544,-637,-433,416
8115,512,1312,544,-644,-411,438
8120,552,1312,568,-649,-401,460
8125,576,1352,584,-654,-398,479
8130,576,1400,624,-665,-405,497
8135,680,1408,616,-681,-423,507
8140,704,1472,616,-711,-439,513
8145,680,1528,616,-752,-444,520
8150,736,1592,624,-811,-450,525
8155,816,1680,632,-891,-444,526
8160,792,1736,656,-985,-410,524
8165,792,1792,704,-1095,-351,520
8170,800,1808,760,-1220,-277,516
8175,768,1800,856,-1358,-193,513
8180,752,1760,880,-1509,-120,517
8185,760,1672,896,-1658,-66,526
8190,784,1560,928,-1792,-34,550
8195,776,1408,1016,-1889,-4,587
8200,800,1232,1104,-1931,11,623
8205,816,1096,1176,-1926,28,653
8210,920,984,1200,-1888,39,672
8215,960,888,1272,-1826,46,689
8220,928,888,1336,-1759,35,702
8225,1048,904,1360,-1709,15,709
8230,1032,984,1536,-1684,51,713
8235,1000,1160,1768,-1691,57,726
8240,1104,1232,1840,-1779,22,745
8245,1056,1248,2008,-1935,13,767
8250,1024,1200,1992,-2126,-43,790
8255,984,1048,2176,-2293,-73,809
8260,1016,792,2112,-2374,-124,818
8265,1048,552,1952,-2349,-157,812
8270,952,472,1880,-2236,-151,788
8275,920,248,1888,-2058,-110,749
8280,1024,80,1584,-1824,-29,709
8285,976,88,1576,-1624,110,658
8290,864,200,1656,-1480,202,613
8295,904,264,1736,-1379,270,576
8300,920,368,1800,-1307,330,537
8305,832,464,1992,-1261,356,497
8310,816,496,2168,-1224,355,464
8315,784,536,2248,-1188,356,428
8320,792,520,2344,-1172,357,389
8325,792,512,2336,-1172,357,360
8330,808,408,2328,-1164,347,339
8335,832,360,2264,-1145,317,323
8340,784,344,2128,-1121,277,321
8345,792,232,2040,-1085,241,311
8350,616,264,1920,-1034,246,286
8355,560,256,1848,-982,265,255
8360,512,304,1816,-939,285,222
8365,416,424,1800,-900,283,185
8370,424,488,1808,-873,261,156
8375,416,552,1728,-852,222,135
8380,416,584,1696,-843,176,117
8385,392,600,1624,-834,140,102
8390,408,568,1600,-816,113,90
8395,496,568,1696,-787,90,86
8400,528,544,1768,-763,65,91
8405,512,560,1808,-757,42,102
8410,472,520,1800,-758,28,122
8415,416,512,1680,-743,19,140
8420,368,504,1624,-730,5,152
8425,304,536,1664,-735,-15,153
8430,312,544,1720,-738,-39,161
8435,328,512,1792,-740,-64,167
8440,288,496,1800,-729,-84,180
8445,200,440,1744,-715,-76,213
8450,168,416,1688,-704,-55,256
8455,128,448,1720,-704,-58,298
8460,96,504,1832,-721,-89,341
8465,88,472,1904,-751,-146,391
8470,0,512,1784,-774,-216,436
8475,-24,488,1712,-779,-260,478
8480,-16,528,1672,-763,-271,501
8485,-8,576,1576,-733,-270,516
8490,56,624,1584,-725,-289,538
8495,232,512,1624,-720,-313,575
8500,360,528,1704,-711,-325,604
8505,480,544,1704,-697,-319,631
8510,560,560,1624,-690,-290,668
8515,624,464,1608,-683,-243,726
8520,736,392,1608,-660,-201,751
8525,960,368,1568,-638,-144,765
8530,1128,104,1672,-602,-48,788
8535,1128,-168,1800,-575,13,787
8540,1208,-336,2008,-513,30,756
8545,1208,-456,2264,-394,62,732
8550,1312,-400,2312,-246,76,690
8555,1376,-464,2336,-117,94,639
8560,1448,-432,2200,-10,86,539
8565,1656,-576,2224,66,134,448
8570,1856,-720,2112,132,243,368
8575,1704,-832,1856,148,393,347
8580,1200,-1584,1808,105,547,467
8585,928,-1832,2160,143,604,554
8590,416,-1896,1712,317,664,580
8595,-64,-1752,1480,348,730,548
8600,-168,-1360,1576,365,655,412
8605,24,-664,1056,425,488,219
8610,304,-248,840,372,385,88
8615,480,-80,784,338,342,20
8620,592,-64,872,346,314,-30
8625,544,-88,952,353,259,-73
8630,520,-104,992,345,151,-101
8635,480,-72,976,313,-4,-121
8640,416,0,888,267,-168,-141
8645,432,104,832,206,-314,-156
8650,488,144,840,145,-416,-163
8655,512,152,888,96,-462,-164
8660,592,128,872,43,-459,-172
8665,640,64,928,-19,-424,-185
8670,712,48,960,-86,-374,-196
8675,744,-72,1056,-179,-314,-201
8680,768,-104,1144,-229,-263,-217
8685,848,-224,1224,-253,-214,-232
8690,880,-344,1384,-257,-164,-234
8695,952,-400,1360,-241,-94,-221
8700,864,-600,1584,-224,11,-173
8705,832,-704,1672,-157,87,-127
8710,808,-784,1744,-73,166,-78
8715,816,-864,1832,-1,245,-20
8720,696,-856,1912,66,310,29
8725,680,-784,1984,131,350,66
8730,696,-672,1992,190,368,79
8735,728,-520,1968,234,370,77
8740,736,-408,1952,258,361,65
8745,736,-272,1952,265,337,43
8750,736,-152,1960,260,307,25
8755,752,-40,1896,248,275,6
8760,752,56,1896,226,237,-6
8765,704,136,1832,197,200,-11
8770,712,200,1824,162,166,-14
8775,736,224,1784,126,145,-8
8780,632,280,1784,89,136,-2
8785,608,272,1744,48,136,3
8790,584,240,1752,6,143,3
8795,616,200,1720,-34,152,-6
8800,608,168,1704,-69,160,-22
8805,616,112,1696,-96,165,-40
8810,584,72,1688,-114,165,-62
8815,592,48,1688,-130,161,-83
8820,600,80,1648,-133,154,-98
8825,600,112,1608,-125,149,-109
8830,568,152,1592,-109,141,-115
8835,632,168,1552,-92,136,-118
8840,624,216,1512,-75,136,-119
8845,616,232,1456,-61,136,-116
8850,600,264,1504,-49,140,-109
8855,664,264,1520,-37,147,-102
8860,576,288,1472,-20,158,-94
8865,544,320,1448,-2,168,-82
8870,504,312,1464,11,181,-73
8875,432,376,1464,23,191,-64
8880,392,408,1456,36,196,-54
8885,336,424,1456,50,201,-50
8890,248,432,1504,67,203,-47
8895,272,456,1528,84,202,-45
8900,232,504,1528,105,198,-41
8905,264,488,1616,127,190,-41
8910,280,488,1656,152,182,-40
8915,280,512,1720,180,174,-41
8920,328,512,1768,213,166,-39
8925,320,512,1808,246,170,-35
8930,336,488,1816,275,172,-26
8935,360,496,1848,297,174,-16
8940,320,496,1888,308,172,-12
8945,296,496,1848,310,168,-5
8950,320,504,1816,308,154,-1
8955,344,504,1816,296,139,1
8960,328,520,1816,280,127,4
8965,336,544,1776,256,114,7
8970,360,568,1752,229,100,8
8975,384,560,1720,195,86,10
8980,344,528,1672,158,73,9
8985,352,528,1664,115,57,8
8990,368,520,1624,70,34,7
8995,392,496,1616,27,8,7
9000,408,464,1616,-12,-18,4
9005,432,416,1592,-46,-43,7
9010,456,416,1616,-74,-64,11
9015,496,352,1568,-97,-81,10
9020,520,336,1576,-112,-99,10
9025,520,320,1616,-122,-114,7
9030,600,272,1592,-126,-128,5
9035,616,248,1648,-128,-138,0
9040,640,216,1616,-129,-145,-3
9045,640,184,1640,-125,-148,-11
9050,680,144,1672,-117,-151,-18
9055,680,136,1672,-105,-150,-25
9060,688,136,1680,-95,-145,-32
9065,712,80,1728,-83,-138,-40
9070,736,48,1688,-71,-128,-46
9075,744,48,1704,-62,-116,-53
9080,704,48,1680,-50,-99,-57
9085,792,48,1728,-41,-81,-60
9090,744,40,1664,-32,-58,-62
9095,752,32,1648,-24,-36,-63
9100,712,32,1656,-18,-14,-63
9105,720,56,1648,-13,7,-63
9110,704,56,1664,-12,31,-62
9115,696,40,1624,-12,50,-61
9120,672,40,1616,-11,66,-59
9125,632,48,1616,-10,77,-57
9130,640,72,1616,-12,84,-53
9135,616,64,1616,-13,89,-50
9140,728,120,1584,-14,91,-46
9145,592,72,1592,-17,86,-43
9150,584,80,1616,-19,81,-38
9155,552,112,1576,-20,77,-33
9160,560,80,1600,-17,74,-29
9165,544,104,1624,-16,74,-23
9170,536,96,1616,-11,74,-18
9175,544,96,1640,-7,75,-13
9180,536,88,1608,-1,76,-9
9185,552,112,1624,5,76,-7
9190,536,128,1600,9,77,-3
9195,528,120,1592,14,79,0
9200,512,160,1600,17,81,2
9205,520,168,1584,18,79,3
9210,496,184,1592,15,79,4
9215,480,176,1568,10,76,6
9220,480,176,1560,4,72,7
9225,472,200,1568,-4,69,9
9230,464,224,1576,-9,68,11
9235,480,224,1640,-13,68,12
9240,456,216,1624,-14,66,14
9245,480,248,1624,-17,64,17
9250,472,216,1632,-17,62,20
9255,480,232,1656,-14,61,22
9260,456,224,1608,-12,59,23
9265,488,240,1664,-8,56,25
9270,496,256,1624,-5,54,26
9275,504,264,1664,-5,53,26
9280,496,280,1640,-3,52,24
9285,504,272,1632,-3,50,25
9290,520,256,1624,-4,47,25
9295,512,280,1640,-8,47,23
9300,528,304,1624,-13,44,21
9305,520,328,1656,-19,39,18
9310,512,328,1656,-26,36,15
9315,528,312,1640,-34,34,12
9320,536,320,1680,-39,29,9
9325,520,344,1656,-46,27,4
9330,528,312,1680,-50,25,1
9335,544,320,1680,-51,21,0
9340,512,328,1688,-52,19,-2
9345,544,312,1664,-51,16,-2
9350,536,304,1680,-50,15,-4
9355,544,320,1696,-51,17,-8
9360,560,312,1704,-51,18,-11
9365,560,328,1672,-52,22,-14
9370,576,288,1632,-54,28,-17
9375,552,288,1640,-57,32,-20
9380,512,312,1672,-60,34,-21
9385,536,296,1656,-63,35,-21
9390,504,296,1640,-64,32,-21
9395,512,272,1680,-69,34,-20
9400,520,256,1744,-69,32,-20
9405,520,264,1688,-68,31,-21
9410,520,240,1680,-64,30,-19
9415,528,224,1672,-56,27,-19
9420,528,256,1632,-46,26,-18
9425,504,272,1608,-40,24,-16
9430,512,272,1640,-39,21,-14
9435,520,272,1608,-42,19,-10
9440,504,280,1608,-44,19,-9
9445,512,256,1640,-47,21,-8
9450,504,256,1664,-51,22,-8
9455,520,248,1640,-52,24,-8
9460,512,248,1656,-53,26,-7
9465,512,256,1680,-51,27,-6
9470,520,240,1648,-47,28,-8
9475,520,248,1672,-47,29,-9
9480,520,240,1664,-43,29,-10
9485,520,264,1664,-45,28,-12
9490,552,240,1640,-45,27,-14
9495,536,256,1640,-47,28,-15
9500,560,240,1640,-53,28,-16
9505,520,248,1680,-57,29,-16
9510,528,240,1648,-58,30,-16
9515,520,224,1640,-61,29,-16
9520,504,224,1632,-59,27,-15
9525,520,200,1656,-57,26,-16
9530,536,224,1640,-56,24,-15
9535,520,200,1600,-58,21,-14
9540,528,216,1640,-58,15,-14
9545,520,200,1600,-60,8,-13
9550,520,224,1608,-60,5,-12
9555,512,224,1592,-61,2,-10
9560,512,200,1600,-62,0,-10
9565,512,192,1608,-66,-1,-12
9570,536,200,1592,-66,0,-11
9575,560,264,1536,-66,1,-10
9580,536,208,1608,-68,2,-10
9585,552,152,1624,-67,4,-10
9590,552,184,1576,-71,6,-11
9595,560,192,1624,-75,9,-11
9600,504,184,1608,-75,11,-10
9605,544,216,1608,-73,12,-10
9610,560,176,1664,-70,12,-11
9615,552,200,1624,-68,13,-11
9620,544,176,1640,-64,13,-11
9625,552,200,1640,-62,12,-10
9630,568,224,1640,-57,12,-9
9635,568,224,1632,-53,12,-10
9640,560,208,1640,-52,10,-10
9645,544,224,1624,-53,12,-9
9650,536,216,1624,-54,13,-11
9655,560,224,1616,-53,15,-9
9660,536,224,1632,-54,15,-10
9665,528,208,1640,-52,19,-10
9670,528,216,1672,-51,23,-9
9675,528,208,1656,-52,25,-10
9680,544,208,1672,-52,27,-8
9685,528,216,1640,-52,28,-8
9690,520,208,1656,-55,30,-8
9695,528,240,1672,-57,32,-10
9700,520,240,1632,-61,33,-9
9705,512,248,1648,-65,32,-8
9710,504,232,1656,-67,33,-8
9715,504,240,1680,-70,32,-6
9720,520,232,1616,-74,32,-5
9725,512,216,1624,-78,32,-5
9730,520,232,1656,-79,30,-4
9735,504,240,1640,-80,29,-4
9740,504,224,1664,-80,28,-5
9745,512,248,1624,-77,26,-5
9750,504,240,1624,-73,23,-5
9755,512,224,1640,-70,23,-4
9760,512,256,1648,-64,21,-4
9765,512,248,1608,-60,19,-4
9770,520,248,1624,-55,18,-3
9775,536,216,1640,-52,17,-4
9780,536,232,1696,-49,16,-5
9785,520,232,1624,-48,16,-6
9790,520,224,1616,-46,13,-6
9795,512,200,1624,-46,14,-6
9800,520,232,1688,-45,13,-5
9805,520,232,1624,-44,10,-5
9810,488,240,1648,-44,8,-5
9815,512,232,1672,-45,7,-5
9820,504,264,1656,-46,6,-4
9825,512,248,1640,-47,6,-3
9830,528,240,1656,-51,4,-3
9835,528,224,1616,-52,3,-2
9840,512,264,1624,-55,2,-1
9845,520,224,1672,-56,3,-1
9850,536,232,1640,-57,3,-1
9855,520,240,1656,-57,3,0
9860,504,232,1688,-59,4,0
9865,528,240,1632,-59,4,0
9870,536,240,1648,-60,6,-2
9875,536,240,1624,-62,6,-1
9880,536,224,1656,-65,8,-2
9885,544,208,1600,-71,9,-3
9890,528,216,1624,-74,10,-4
9895,536,224,1632,-75,11,-5
9900,528,232,1616,-77,12,-6
9905,552,192,1624,-77,14,-8
9910,536,184,1632,-77,13,-8
9915,552,200,1648,-76,14,-9
9920,568,184,1632,-75,14,-10
9925,552,200,1600,-74,15,-11
9930,552,176,1656,-74,14,-11
9935,552,160,1640,-71,15,-11
9940,544,168,1624,-67,15,-11
9945,544,192,1672,-66,15,-10
9950,520,208,1656,-67,12,-10
9955,552,192,1664,-68,11,-9
9960,552,184,1648,-71,10,-10
9965,512,208,1632,-70,11,-8
9970,552,208,1664,-71,12,-9
9975,528,200,1672,-71,13,-9
9980,536,216,1648,-71,13,-8
9985,544,200,1608,-71,14,-8
9990,528,200,1648,-71,15,-7
9995,536,232,1640,-74,16,-7
10000,528,232,1648,-76,14,-6
10005,552,208,1648,-79,15,-7
10010,536,216,1648,-79,16,-6
10015,512,200,1656,-78,19,-8
10020,504,224,1640,-77,19,-9
10025,512,216,1624,-76,20,-7
10030,512,200,1640,-76,20,-9
10035,520,208,1680,-76,18,-9
10040,512,192,1696,-73,17,-9
10045,512,208,1704,-72,12,-7
10050,512,208,1720,-73,10,-7
10055,544,208,1696,-71,8,-7
10060,520,176,1696,-64,7,-4
10065,560,64,1760,-51,8,-3
10070,528,192,1664,-38,9,-1
10075,520,184,1632,-30,9,1
10080,504,160,1688,-23,8,5
10085,520,200,1680,-22,7,8
10090,520,208,1712,-23,1,12
10095,512,200,1752,-26,-11,17
10100,544,200,1696,-31,-24,21
10105,528,232,1656,-40,-40,24
10110,536,176,1688,-48,-49,27
10115,552,176,1624,-48,-50,30
10120,608,128,1712,-33,-44,31
10125,520,128,1624,-1,-33,31
10130,560,88,1584,40,-20,29
10135,536,120,1568,87,-6,26
10140,528,152,1536,131,5,24
10145,528,136,1528,165,14,20
10150,528,208,1528,188,19,17
10155,512,232,1536,201,17,15
10160,520,240,1536,204,12,13
10165,520,248,1544,196,4,13
10170,512,288,1568,185,-6,13
10175,528,296,1568,167,-17,13
10180,512,296,1600,141,-26,16
10185,528,264,1632,117,-32,20
10190,528,256,1664,95,-30,25
10195,520,216,1696,81,-26,28
10200,520,200,1712,77,-18,32
10205,528,176,1736,80,-8,32
10210,544,128,1736,88,-3,34
10215,552,88,1776,118,-1,34
10220,552,80,1744,161,-7,33
10225,520,96,1728,214,-17,33
10230,528,104,1720,275,-28,32
10235,528,144,1672,335,-39,29
10240,528,176,1640,385,-47,25
10245,536,208,1624,423,-48,18
10250,512,264,1608,451,-46,13
10255,512,320,1560,468,-42,10
10260,528,344,1560,470,-37,6
10265,536,400,1528,452,-31,4
10270,584,432,1528,418,-28,2
10275,536,472,1504,364,-29,-1
10280,536,464,1512,302,-32,-2
10285,568,456,1488,245,-39,-1
10290,552,456,1512,195,-43,2
10295,536,424,1528,153,-40,4
10300,520,400,1584,116,-34,4
10305,504,384,1584,86,-25,5
10310,504,360,1640,63,-15,5
10315,496,256,1616,50,-6,5
10320,520,280,1648,43,-1,5
10325,536,288,1640,37,0,5
10330,568,312,1640,27,0,4
10335,600,328,1712,3,-2,0
10340,600,432,1696,-31,-2,-1
10345,616,472,1744,-71,-4,-5
10350,600,480,1712,-115,-5,-7
10355,568,520,1704,-157,1,-7
10360,592,504,1680,-196,9,-12
10365,568,512,1616,-227,21,-17
10370,568,488,1584,-257,38,-26
10375,528,488,1592,-284,63,-33
10380,504,480,1632,-311,98,-41
10385,504,448,1728,-333,135,-47
10390,512,368,1848,-343,172,-46
10395,544,248,1952,-318,191,-39
10400,584,144,1960,-248,171,-25
10405,600,72,1880,-149,109,-5
10410,592,24,1792,-38,16,22
10415,552,0,1696,66,-99,49
10420,520,0,1568,156,-204,67
10425,488,24,1464,231,-265,73
10430,488,104,1400,277,-273,67
10435,496,120,1264,299,-239,55
10440,504,200,1240,309,-183,38
10445,536,288,1232,316,-116,21
10450,608,360,1272,308,-57,5
10455,608,440,1368,284,-19,-9
10460,632,496,1432,251,4,-18
10465,632,520,1416,211,19,-21
10470,600,560,1496,162,25,-19
10475,584,576,1496,104,27,-14
10480,568,512,1520,49,26,-7
10485,560,480,1560,7,22,0
10490,560,408,1600,-23,18,4
10495,544,376,1616,-46,12,7
10500,528,360,1640,-64,7,7
10505,544,336,1664,-84,1,5
10510,544,368,1688,-107,-2,0
10515,584,368,1752,-137,1,-4
10520,600,392,1760,-168,11,-10
10525,600,400,1784,-196,23,-14
10530,632,392,1752,-221,34,-20
10535,616,432,1704,-246,44,-24
10540,624,432,1648,-268,54,-30
10545,568,416,1656,-290,70,-34
10550,536,464,1680,-319,96,-40
10555,632,384,1864,-352,135,-45
10560,560,368,1984,-378,174,-44
10565,584,248,2072,-370,190,-38
10570,616,160,2048,-317,152,-26
10575,592,80,1920,-219,68,-4
10580,544,32,1800,-104,-29,22
10585,504,8,1672,12,-112,42
10590,504,24,1488,111,-162,54
10595,480,56,1408,178,-170,53
10600,504,120,1360,207,-144,46
10605,544,176,1328,219,-102,33
10610,560,256,1336,221,-62,17
10615,584,376,1328,211,-26,2
10620,592,456,1376,184,-1,-10
10625,584,520,1416,151,18,-19
10630,584,520,1384,110,34,-22
10635,560,560,1448,62,46,-19
10640,528,512,1496,7,52,-11
10645,544,464,1536,-44,50,-2
10650,528,448,1536,-85,42,6
10655,528,384,1560,-113,29,12
10660,512,368,1624,-134,19,13
10665,560,360,1648,-149,12,10
10670,584,352,1712,-163,10,5
10675,600,360,1720,-173,10,-1
10680,624,384,1688,-180,11,-6
10685,632,416,1688,-184,14,-14
10690,608,472,1648,-195,21,-20
10695,600,504,1648,-213,36,-25
10700,544,504,1680,-244,67,-33
10705,544,464,1792,-276,113,-39
10710,576,400,1872,-299,161,-39
10715,600,320,1984,-298,184,-33
10720,632,208,1976,-267,159,-20
10725,616,144,1920,-200,92,-1
10730,584,72,1808,-117,9,21
10735,536,48,1720,-26,-67,38
10740,520,24,1600,50,-118,47
10745,512,64,1544,107,-134,49
10750,528,104,1464,139,-120,42
10755,544,176,1392,156,-89,30
10760,544,280,1392,163,-54,16
10765,608,336,1392,158,-21,0
10770,592,424,1416,145,8,-15
10775,592,480,1448,127,33,-23
10780,576,496,1432,101,51,-27
10785,544,488,1480,69,64,-26
10790,512,456,1480,25,70,-20
10795,528,408,1520,-23,70,-11
10800,512,336,1552,-63,61,-1
10805,520,336,1608,-93,45,6
10810,536,296,1672,-114,25,9
10815,576,304,1712,-136,9,7
10820,592,320,1752,-155,2,2
10825,624,344,1800,-170,1,-3
10830,648,376,1816,-177,2,-9
10835,640,400,1784,-177,4,-14
10840,608,416,1752,-170,6,-19
10845,568,472,1680,-165,14,-23
10850,472,440,1528,-164,28,-25
10855,528,472,1576,-169,50,-29
10860,520,456,1560,-183,78,-31
10865,520,440,1640,-206,113,-34
10870,544,408,1712,-235,150,-34
10875,584,360,1816,-263,174,-31
10880,592,304,1920,-270,171,-22
10885,608,232,1952,-249,132,-8
10890,536,152,1776,-202,60,8
10895,544,88,1800,-141,-17,22
10900,504,72,1648,-71,-84,33
10905,496,40,1584,6,-122,37
10910,496,64,1496,84,-129,35
10915,536,128,1408,144,-108,25
10920,544,216,1368,176,-76,13
10925,568,280,1384,180,-38,-1
10930,552,360,1360,171,-1,-11
10935,544,400,1384,147,26,-17
10940,528,400,1424,112,49,-22
10945,536,392,1472,70,61,-20
10950,504,376,1520,23,66,-18
10955,512,384,1552,-20,61,-15
10960,512,360,1648,-55,46,-10
10965,536,344,1664,-81,27,-4
10970,568,360,1696,-104,10,-2
10975,760,224,1776,-126,0,-3
10980,648,368,1800,-147,-3,-3
10985,640,376,1792,-162,-2,-5
10990,656,368,1824,-171,-2,-9
10995,632,376,1760,-168,-3,-11
11000,600,384,1712,-155,-5,-14
11005,568,368,1664,-144,-2,-16
11010,544,384,1624,-139,8,-18
11015,528,408,1632,-143,26,-21
11020,520,400,1624,-157,46,-22
11025,568,376,1616,-176,65,-22
11030,568,368,1600,-199,80,-18
11035,552,344,1600,-220,88,-16
11040,600,344,1616,-235,91,-11
11045,552,320,1624,-246,91,-8
11050,584,288,1616,-251,88,-4
11055,608,288,1624,-253,86,-4
11060,584,280,1592,-246,83,-2
11065,576,256,1608,-235,80,-2
11070,552,232,1616,-221,77,-3
11075,576,224,1600,-202,75,-5
11080,568,224,1576,-180,79,-8
11085,584,216,1592,-157,81,-11
11090,568,216,1544,-131,86,-14
11095,544,216,1576,-103,93,-19
11100,568,216,1664,-72,102,-24
11105,552,200,1552,-45,112,-29
11110,536,216,1536,-20,121,-33
11115,536,208,1520,2,128,-36
11120,528,208,1528,19,133,-37
11125,504,248,1520,28,133,-38
11130,504,248,1520,32,131,-38
11135,512,264,1552,33,126,-37
11140,488,280,1616,25,115,-36
11145,488,296,1608,14,102,-36
11150,520,296,1616,-5,92,-36
11155,512,288,1664,-25,82,-34
11160,512,288,1696,-42,71,-34
11165,544,296,1720,-59,60,-32
11170,528,296,1752,-75,52,-29
11175,504,288,1776,-90,47,-28
11180,512,280,1784,-99,46,-24
11185,512,264,1800,-105,42,-23
11190,496,264,1784,-108,38,-21
11195,520,240,1760,-108,32,-18
11200,488,232,1768,-102,30,-17
11205,480,248,1744,-93,29,-17
11210,488,232,1728,-83,27,-18
11215,528,248,1680,-72,26,-17
11220,496,248,1664,-63,24,-16
11225,480,264,1672,-56,20,-15
11230,488,280,1640,-51,17,-14
11235,504,264,1608,-47,16,-13
11240,520,264,1592,-46,13,-14
11245,528,272,1616,-45,14,-13
11250,504,280,1624,-46,10,-11
11255,504,296,1632,-49,8,-10
11260,512,288,1592,-54,8,-10
11265,512,288,1624,-56,6,-7
11270,520,288,1600,-60,4,-8
11275,512,272,1600,-64,4,-7
11280,504,296,1600,-69,3,-7
11285,496,304,1664,-74,3,-7
11290,512,280,1608,-78,4,-6
11295,496,296,1624,-81,3,-7
11300,512,280,1592,-86,3,-7
11305,520,272,1608,-89,3,-7
11310,504,272,1648,-91,4,-7
11315,536,280,1600,-95,5,-9
11320,520,296,1600,-101,7,-10
11325,536,224,1688,-104,10,-10
11330,528,256,1648,-108,13,-10
11335,528,272,1640,-111,14,-9
11340,552,264,1648,-115,14,-10
11345,560,280,1648,-117,15,-10
11350,512,296,1640,-121,15,-11
11355,536,256,1624,-125,12,-11
11360,536,280,1664,-129,10,-11
11365,544,264,1640,-137,9,-11
11370,568,272,1656,-145,7,-11
11375,584,320,1632,-153,7,-13
11380,584,280,1624,-162,8,-15
11385,560,280,1640,-172,10,-16
11390,600,248,1608,-181,11,-16
11395,584,264,1664,-187,13,-19
11400,560,248,1664,-192,13,-22
11405,536,248,1696,-193,13,-22
11410,568,256,1688,-194,13,-24
11415,568,232,1696,-190,13,-22
11420,528,232,1672,-186,11,-22
11425,520,240,1688,-180,11,-22
11430,536,224,1656,-170,12,-21
11435,520,216,1704,-164,13,-21
11440,512,232,1664,-157,14,-23
11445,520,200,1640,-152,19,-22
11450,504,208,1656,-147,21,-22
11455,512,208,1672,-147,22,-22
11460,528,192,1648,-146,22,-21
11465,512,208,1672,-144,21,-21
11470,544,168,1656,-137,18,-22
11475,528,184,1640,-123,15,-21
11480,528,176,1632,-105,11,-21
11485,528,216,1616,-87,6,-21
11490,512,192,1584,-74,2,-17
11495,520,200,1584,-62,-1,-13
11500,528,184,1576,-53,0,-13
11505,552,232,1568,-42,2,-11
11510,544,232,1584,-39,6,-8
11515,536,232,1608,-35,11,-8
11520,552,224,1624,-30,14,-9
11525,560,224,1560,-25,17,-10
11530,552,256,1576,-23,19,-9
11535,520,216,1712,-20,20,-10
11540,536,232,1600,-20,20,-11
11545,528,232,1624,-22,17,-9
11550,520,240,1616,-27,15,-10
11555,544,248,1608,-33,12,-11
11560,528,248,1640,-41,11,-10
11565,528,224,1608,-49,10,-10
11570,520,232,1632,-58,10,-10
11575,528,232,1640,-65,9,-11
11580,536,216,1672,-72,10,-11
11585,512,216,1656,-78,12,-12
11590,520,224,1592,-84,15,-12
11595,560,240,1664,-85,17,-12
11600,552,232,1680,-88,19,-12
11605,568,232,1656,-90,18,-11
11610,544,232,1672,-89,19,-11
11615,544,240,1656,-88,17,-11
11620,536,264,1648,-90,16,-12
11625,544,240,1640,-88,13,-13
11630,536,200,1608,-85,11,-13
11635,568,208,1632,-83,7,-12
11640,528,208,1608,-78,6,-13
11645,544,200,1632,-71,5,-14
11650,528,192,1640,-67,4,-11
11655,520,232,1624,-61,4,-12
11660,536,216,1608,-55,5,-13
11665,528,200,1592,-50,6,-11
11670,512,200,1592,-44,6,-11
11675,512,208,1576,-39,7,-10
11680,512,232,1608,-35,9,-10
11685,528,184,1576,-29,9,-11
11690,520,232,1600,-24,10,-12
11695,512,240,1632,-19,12,-10
11700,512,240,1624,-16,13,-10
11705,520,240,1632,-15,14,-11
11710,520,232,1640,-12,15,-11
11715,520,240,1648,-12,14,-10
11720,504,224,1672,-9,14,-9
11725,520,200,1624,-10,17,-8
11730,504,240,1672,-11,15,-9
11735,512,224,1672,-13,14,-8
11740,520,224,1664,-17,14,-6
11745,528,216,1648,-22,13,-5
11750,512,216,1656,-28,12,-4
11755,512,216,1624,-35,11,-2
11760,512,240,1648,-43,9,-4
11765,528,224,1624,-56,8,-5
11770,520,240,1640,-63,6,-6
11775,552,232,1632,-71,6,-6
11780,544,224,1656,-76,6,-6
11785,552,208,1656,-80,6,-8
11790,544,208,1688,-83,8,-9
11795,568,216,1672,-81,7,-11
11800,536,192,1688,-78,6,-12
11805,536,232,1648,-72,7,-10
11810,552,184,1656,-66,6,-11
11815,544,208,1656,-58,4,-11
11820,528,224,1640,-51,1,-11
11825,536,216,1624,-46,0,-9
11830,544,216,1608,-40,0,-8
11835,528,200,1600,-37,0,-7
11840,552,208,1600,-33,1,-6
11845,560,224,1640,-33,2,-5
11850,536,224,1600,-32,5,-5
11855,544,224,1624,-33,9,-6
11860,552,216,1624,-36,12,-6
11865,552,208,1632,-37,13,-6
11870,576,216,1624,-38,15,-7
11875,576,200,1616,-39,18,-7
11880,544,224,1600,-42,19,-7
11885,568,232,1632,-43,19,-9
11890,584,232,1592,-46,21,-9
11895,544,240,1592,-47,21,-8
11900,552,224,1600,-49,24,-8
11905,568,240,1640,-52,26,-7
11910,536,248,1648,-52,28,-7
11915,552,232,1640,-52,30,-7
11920,544,208,1624,-52,30,-7
11925,552,224,1608,-52,30,-8
11930,576,200,1608,-52,32,-7
11935,528,216,1656,-49,33,-7
11940,560,200,1624,-43,33,-8
11945,520,216,1640,-39,32,-9
11950,528,216,1664,-35,31,-8
11955,552,192,1608,-32,29,-8
11960,536,216,1640,-28,30,-7
11965,536,216,1648,-24,29,-7
11970,512,216,1616,-24,27,-7
11975,512,216,1632,-22,28,-6
11980,520,224,1640,-22,26,-6
11985,496,248,1632,-23,27,-5
11990,520,232,1648,-27,27,-4
11995,512,224,1640,-33,28,-3
12000,544,248,1640,-38,29,-3
12005,512,232,1672,-42,31,-2
12010,520,232,1648,-45,33,-1
12015,528,248,1648,-48,33,-1
12020,536,240,1632,-50,32,-1
12025,456,200,1704,-51,32,-1
12030,552,216,1640,-51,32,-2
12035,536,256,1648,-50,31,-1
12040,536,224,1624,-49,28,-1
12045,520,224,1640,-48,26,-2
12050,504,216,1632,-49,25,-1
12055,544,224,1648,-49,24,-2
12060,512,224,1640,-50,23,-2
12065,528,232,1624,-51,23,-2
12070,512,200,1616,-49,21,-3
12075,528,240,1616,-51,22,-5
12080,560,224,1584,-51,22,-5
12085,528,232,1640,-50,23,-5
12090,544,224,1640,-50,22,-4
12095,560,216,1648,-50,23,-7
12100,560,216,1632,-47,23,-6
12105,560,200,1672,-48,24,-8
12110,544,208,1632,-45,23,-9
12115,528,224,1664,-42,23,-9
12120,528,232,1656,-41,22,-9
12125,528,224,1656,-40,22,-10
12130,520,224,1656,-40,21,-9
12135,520,216,1624,-42,20,-10
12140,528,224,1672,-42,20,-10
12145,528,216,1664,-45,21,-9
12150,536,200,1672,-50,20,-8
12155,520,216,1688,-51,21,-8
12160,536,216,1664,-51,24,-10
12165,528,216,1624,-44,27,-11
12170,544,224,1608,-37,25,-10
12175,560,216,1608,-31,23,-9
12180,520,248,1632,-27,23,-9
12185,536,224,1592,-28,21,-6
12190,552,216,1616,-28,22,-5
12195,544,216,1616,-27,22,-4
12200,544,208,1608,-28,23,-5
12205,528,200,1616,-28,24,-5
12210,544,216,1616,-29,25,-4
12215,544,216,1624,-28,25,-3
12220,520,240,1616,-26,26,-4
12225,552,216,1624,-24,28,-4
12230,544,232,1648,-20,30,-4
12235,552,232,1640,-16,28,-3
12240,536,232,1632,-13,29,-3
12245,520,240,1608,-9,29,-7
12250,544,224,1624,-6,31,-5
12255,536,224,1568,-8,31,-5
12260,536,240,1592,-7,33,-4
12265,520,240,1600,-9,32,-4
12270,520,248,1624,-9,33,-4
12275,544,224,1608,-10,33,-6
12280,528,232,1624,-11,34,-5
12285,528,224,1648,-10,33,-6
12290,520,224,1640,-13,30,-7
12295,528,248,1616,-14,29,-7
12300,544,224,1624,-14,30,-8
12305,528,232,1672,-16,28,-8
12310,528,240,1624,-14,30,-8
12315,536,232,1648,-15,31,-9
12320,520,248,1640,-17,33,-8
12325,528,208,1632,-15,34,-8
12330,536,256,1632,-17,34,-7
12335,528,248,1664,-16,34,-5
12340,512,232,1632,-17,33,-5
12345,528,232,1648,-18,35,-5
12350,512,224,1640,-19,35,-4
12355,512,224,1632,-19,32,-2
12360,488,256,1640,-16,30,-2
12365,512,232,1632,-16,28,-1
12370,512,224,1648,-19,26,-3
12375,528,248,1624,-19,23,-4
12380,520,224,1632,-22,22,-3
12385,528,248,1616,-26,23,-2
12390,520,288,1632,-31,22,-3
12395,528,272,1640,-39,22,-3
12400,528,256,1632,-47,23,-4
12405,520,240,1632,-53,23,-5
12410,512,248,1648,-58,24,-7
12415,528,224,1672,-65,24,-7
12420,528,232,1656,-70,24,-7
12425,528,224,1680,-68,25,-8
12430,520,248,1656,-67,23,-7
12435,528,208,1680,-65,24,-8
12440,536,224,1680,-61,23,-6
12445,520,224,1656,-57,21,-8
12450,512,216,1656,-53,21,-7
12455,512,240,1632,-49,19,-6
12460,512,248,1640,-47,18,-5
12465,520,224,1640,-45,16,-5
12470,536,240,1616,-45,17,-5
12475,536,224,1632,-44,15,-3
12480,512,232,1616,-48,15,-3
12485,520,248,1640,-47,15,-4
12490,520,248,1600,-50,13,-3
12495,528,232,1632,-50,14,-3
12500,520,256,1624,-49,15,-3
12505,520,240,1640,-50,16,-4
12510,544,232,1616,-49,17,-4
12515,536,320,1544,-48,18,-4
12520,552,232,1600,-47,18,-4
12525,536,240,1640,-47,20,-5
12530,536,208,1600,-47,20,-5
12535,552,224,1624,-48,20,-6
12540,536,240,1640,-45,21,-5
12545,528,224,1632,-44,21,-6
12550,552,216,1616,-40,23,-5
12555,528,232,1640,-38,23,-7
12560,528,240,1632,-35,22,-5
12565,536,216,1632,-35,21,-5
12570,520,208,1608,-34,19,-3
12575,536,240,1600,-34,18,-6
12580,544,232,1600,-33,17,-6
12585,528,240,1632,-35,18,-4
12590,536,224,1640,-35,18,-6
12595,512,240,1632,-34,20,-6
12600,536,240,1632,-35,22,-7
12605,536,232,1624,-34,22,-7
12610,552,248,1640,-33,26,-9
12615,536,216,1640,-31,28,-7
12620,536,216,1640,-28,29,-8
12625,536,232,1640,-27,29,-7
12630,528,232,1648,-29,31,-6
12635,536,224,1632,-26,28,-6
12640,520,232,1624,-24,27,-7
12645,536,232,1632,-24,26,-5
12650,512,272,1640,-22,26,-5
12655,536,224,1608,-21,24,-5
12660,528,216,1600,-18,25,-10
12665,512,232,1608,-15,24,-9
12670,528,240,1608,-15,23,-6
12675,496,248,1616,-15,21,-6
12680,536,256,1648,-16,22,-5
12685,520,240,1624,-16,26,-4
12690,520,240,1664,-15,29,-6
12695,528,232,1672,-14,30,-7
12700,528,232,1648,-17,30,-6
12705,528,240,1664,-16,31,-7
12710,512,224,1616,-19,32,-5
12715,520,256,1648,-18,32,-5
12720,528,248,1632,-19,34,-5
12725,512,232,1640,-19,33,-3
12730,528,240,1624,-21,35,-4
12735,520,248,1656,-22,34,-4
12740,520,256,1656,-24,34,-4
12745,504,256,1656,-27,32,-6
12750,512,224,1656,-29,30,-6
12755,528,240,1640,-29,30,-5
12760,504,224,1656,-30,29,-6
12765,520,240,1640,-31,27,-6
12770,504,248,1648,-33,24,-4
12775,520,248,1648,-32,21,-4
12780,520,240,1664,-33,18,-5
12785,536,264,1624,-31,15,-4
12790,520,264,1632,-29,17,-3
12795,520,264,1600,-27,17,-3
12800,520,264,1624,-24,18,-5
12805,520,248,1616,-19,21,-6
12810,512,248,1640,-19,23,-7
12815,528,232,1648,-16,25,-6
12820,520,224,1584,-18,30,-7
12825,512,240,1648,-18,33,-9
12830,520,232,1648,-21,34,-10
12835,512,240,1632,-24,35,-10
12840,512,232,1664,-26,36,-11
12845,512,224,1664,-27,36,-12
12850,520,224,1624,-26,35,-12
12855,544,200,1624,-19,35,-11
12860,512,248,1608,-9,33,-11
12865,528,240,1616,-2,32,-8
12870,528,248,1616,3,29,-4
12875,528,248,1632,5,29,-3
12880,536,248,1600,6,30,-3
12885,528,240,1640,8,32,-3
12890,520,256,1584,5,34,-4
12895,520,280,1632,1,33,-3
12900,528,240,1640,-3,32,-4
12905,504,280,1632,-10,34,-5
12910,528,280,1656,-15,36,-5
12915,536,264,1656,-22,37,-6
12920,528,272,1656,-27,36,-6
12925,528,272,1632,-30,35,-6
12930,544,256,1648,-34,35,-6
12935,504,296,1624,-38,35,-5
12940,520,272,1656,-39,33,-4
12945,520,280,1648,-41,31,-4
12950,432,288,1584,-40,31,-4
12955,512,256,1648,-38,30,-2
12960,512,272,1640,-33,28,-2
12965,512,256,1664,-29,27,-2
12970,528,256,1640,-27,26,-2
12975,512,264,1632,-21,27,-2
12980,512,248,1656,-17,27,-2
12985,520,256,1624,-14,25,-5
12990,528,272,1640,-10,27,-4
12995,528,256,1608,-8,29,-5
13000,512,248,1616,-10,30,-5
13005,512,344,1592,-8,29,-6
13010,504,272,1632,-8,30,-7
13015,512,264,1632,-11,30,-6
13020,512,256,1608,-13,32,-7
13025,520,280,1632,-13,33,-8
13030,520,264,1608,-16,32,-10
13035,512,264,1640,-17,34,-8
13040,512,256,1648,-21,34,-7
13045,512,248,1648,-21,31,-5
13050,520,256,1648,-25,30,-4
13055,512,272,1624,-28,28,-4
13060,520,256,1640,-31,25,-3
13065,520,264,1632,-31,25,-4
13070,496,264,1616,-31,23,-6
13075,528,280,1640,-32,22,-6
13080,520,240,1632,-33,21,-5
13085,512,248,1648,-33,24,-5
13090,528,240,1680,-31,23,-5
13095,512,256,1648,-31,23,-5
13100,504,272,1664,-30,23,-6
13105,536,256,1616,-29,22,-5
13110,520,248,1632,-30,22,-5
13115,528,232,1624,-31,20,-5
13120,496,256,1632,-31,20,-5
13125,504,232,1664,-29,21,-5
13130,520,264,1624,-27,22,-5
13135,512,256,1640,-26,23,-5
13140,512,264,1632,-26,25,-5
13145,504,272,1624,-24,26,-4
13150,512,248,1656,-26,27,-4
13155,520,256,1600,-26,28,-4
13160,504,288,1624,-27,28,-3
13165,512,280,1624,-31,30,-4
13170,520,272,1632,-33,31,-5
13175,520,248,1608,-34,31,-4
13180,520,280,1640,-34,32,-6
13185,512,264,1640,-36,31,-6
13190,520,272,1624,-36,30,-6
13195,504,264,1632,-36,28,-5
13200,520,272,1656,-36,26,-5
13205,520,272,1680,-36,25,-6
13210,520,272,1624,-34,23,-6
13215,512,272,1656,-33,22,-5
13220,520,272,1632,-31,20,-4
13225,520,264,1624,-30,20,-5
13230,528,280,1640,-28,21,-7
13235,512,280,1624,-26,20,-5
13240,520,256,1608,-24,19,-6
13245,512,264,1640,-25,21,-7
13250,496,256,1648,-24,23,-7
13255,512,256,1632,-25,24,-8
13260,504,264,1632,-25,25,-7
13265,504,272,1648,-27,25,-7
13270,520,288,1632,-27,24,-6
13275,512,288,1656,-27,23,-5
13280,528,280,1632,-31,22,-4
13285,512,288,1640,-33,22,-4
13290,504,288,1632,-35,21,-4
13295,520,296,1640,-37,20,-4
13300,520,280,1656,-39,22,-5
13305,528,296,1648,-42,21,-4
13310,512,288,1640,-44,22,-4
13315,520,264,1648,-48,23,-4
13320,520,280,1648,-50,23,-3
13325,504,296,1648,-51,22,-3
13330,512,272,1624,-52,24,-5
13335,512,256,1632,-51,25,-7
13340,520,256,1616,-49,26,-7
13345,536,264,1624,-50,25,-6
13350,520,256,1624,-50,25,-7
13355,512,280,1640,-48,23,-7
13360,504,272,1648,-48,20,-8
13365,520,272,1672,-48,20,-7
13370,520,280,1656,-46,19,-7
13375,512,288,1648,-44,18,-6
13380,512,264,1624,-44,18,-7
13385,512,280,1624,-42,18,-8
13390,520,264,1648,-41,17,-8
13395,504,328,1656,-41,16,-9
13400,496,264,1632,-42,15,-8
13405,512,264,1624,-43,14,-8
13410,512,256,1632,-44,13,-7
13415,520,256,1624,-47,12,-8
13420,504,272,1648,-49,12,-6
13425,504,272,1640,-49,12,-6
13430,512,280,1624,-52,14,-7
13435,496,288,1616,-56,15,-6
13440,432,216,1648,-58,16,-6
13445,512,256,1672,-59,18,-5
13450,512,280,1640,-62,19,-7
13455,504,272,1632,-65,20,-6
13460,496,280,1624,-68,19,-5
13465,496,288,1632,-72,20,-6
13470,536,272,1640,-74,20,-5
13475,528,256,1624,-77,21,-5
13480,512,272,1648,-79,22,-5
13485,512,272,1672,-79,20,-6
13490,528,272,1664,-82,20,-6
13495,520,256,1544,-82,18,-4
13500,512,272,1640,-82,15,-6
13505,520,264,1632,-78,13,-6
13510,504,272,1640,-76,11,-5
13515,512,280,1632,-76,9,-5
13520,520,248,1664,-75,6,-3
13525,520,256,1632,-76,4,-3
13530,512,280,1624,-73,2,-3
13535,528,272,1624,-74,3,-4
13540,520,264,1648,-74,3,-4
13545,520,256,1648,-75,2,-5
13550,504,280,1632,-76,5,-5
13555,520,304,1632,-78,7,-6
13560,536,264,1616,-77,9,-7
13565,512,256,1624,-79,10,-8
13570,512,272,1624,-81,13,-7
13575,528,288,1632,-81,14,-7
13580,512,272,1648,-81,16,-9
13585,512,256,1648,-81,18,-9
13590,520,256,1656,-82,19,-10
13595,520,256,1648,-83,20,-8
13600,520,248,1640,-85,19,-9
13605,512,248,1640,-86,18,-8
13610,512,240,1664,-88,18,-8
13615,536,200,1640,-87,15,-8
13620,520,256,1664,-88,15,-8
13625,528,240,1624,-91,15,-8
13630,528,248,1656,-90,15,-6
13635,528,256,1664,-88,12,-7
13640,520,240,1656,-85,10,-6
13645,544,240,1608,-81,7,-5
13650,520,240,1632,-79,8,-4
13655,520,240,1656,-76,7,-4
13660,528,216,1640,-72,7,-4
13665,512,264,1656,-70,7,-5
13670,512,232,1624,-69,8,-5
13675,536,232,1632,-70,9,-4
13680,512,264,1608,-73,10,-5
13685,520,232,1640,-77,12,-6
13690,512,216,1656,-85,13,-8
13695,504,232,1648,-94,14,-9
13700,504,264,1672,-103,17,-12
13705,520,200,1664,-104,19,-14
13710,512,248,1680,-99,20,-16
13715,504,232,1624,-83,18,-14
13720,504,248,1608,-71,16,-13
13725,512,224,1632,-65,14,-10
13730,520,232,1616,-61,10,-6
13735,496,232,1600,-61,9,-4
13740,512,248,1632,-62,8,-3
13745,496,272,1616,-66,10,-3
13750,512,264,1632,-70,9,-3
13755,520,272,1648,-77,8,-3
13760,528,248,1640,-83,5,-3
13765,512,288,1624,-86,4,-2
13770,528,248,1624,-91,5,-3
13775,504,288,1664,-94,4,-4
13780,512,272,1656,-97,6,-5
13785,528,264,1640,-97,8,-3
13790,528,256,1648,-98,8,-4
13795,520,256,1648,-98,8,-3
13800,512,240,1640,-99,8,-3
13805,512,256,1672,-98,7,-2
13810,512,248,1672,-97,7,-3
13815,520,240,1664,-98,6,-3
13820,512,256,1640,-97,5,-3
13825,520,240,1656,-95,3,-3
13830,512,232,1640,-92,3,-4
13835,520,232,1648,-89,4,-4
13840,520,240,1656,-86,3,-6
13845,512,232,1632,-86,4,-6
13850,520,240,1648,-85,4,-8
13855,512,240,1648,-84,3,-9
13860,512,240,1624,-85,5,-8
13865,520,256,1632,-87,3,-8
13870,528,256,1632,-92,5,-7
13875,512,248,1632,-95,6,-7
13880,536,224,1664,-101,5,-7
13885,512,232,1608,-101,5,-8
13890,528,224,1648,-104,5,-7
13895,520,216,1656,-107,4,-8
13900,528,224,1632,-108,4,-7
13905,512,256,1648,-108,3,-9
13910,536,232,1656,-108,3,-8
13915,512,240,1632,-109,3,-8
13920,512,232,1664,-106,2,-9
13925,520,224,1624,-105,1,-9
13930,584,216,1600,-100,1,-9
13935,528,224,1632,-97,2,-10
13940,512,240,1624,-93,1,-10
13945,520,256,1624,-92,1,-8
13950,512,216,1624,-93,2,-9
13955,536,208,1648,-95,0,-9
13960,528,224,1624,-95,3,-9
13965,528,208,1640,-100,3,-9
13970,520,192,1656,-105,4,-10
13975,512,208,1664,-108,5,-12
13980,504,208,1656,-111,6,-13
13985,496,304,1536,-111,7,-13
13990,504,192,1664,-110,6,-14
13995,512,232,1680,-111,7,-14
14000,512,216,1688,-109,7,-14
14005,512,232,1648,-107,7,-12
14010,520,224,1672,-108,7,-12
14015,536,216,1672,-108,7,-12
14020,520,232,1648,-110,7,-11
14025,528,200,1640,-110,7,-11
14030,536,208,1672,-111,8,-11
14035,536,216,1648,-112,7,-11
14040,512,200,1632,-108,8,-10
14045,520,216,1624,-106,7,-9
14050,528,224,1624,-104,7,-9
14055,528,200,1640,-102,8,-9
14060,504,200,1648,-100,7,-6
14065,536,184,1624,-96,6,-7
14070,512,176,1656,-95,7,-7
14075,528,200,1632,-94,10,-7
14080,536,192,1648,-94,11,-7
14085,544,176,1656,-92,12,-7
14090,520,192,1656,-91,11,-8
14095,520,208,1640,-90,12,-9
14100,552,176,1656,-89,12,-8
14105,512,208,1656,-87,12,-7
14110,528,208,1648,-83,11,-6
14115,528,216,1656,-81,11,-5
14120,520,224,1632,-80,8,-4
14125,528,176,1656,-77,6,-5
14130,536,200,1664,-73,5,-5
14135,536,192,1624,-71,5,-6
14140,528,200,1624,-67,2,-6
14145,512,208,1640,-66,4,-6
14150,528,192,1616,-62,6,-6
14155,544,176,1624,-60,7,-4
14160,552,176,1616,-59,10,-7
14165,536,208,1624,-58,12,-6
14170,528,192,1632,-56,15,-7
14175,552,184,1624,-53,17,-6
14180,536,176,1632,-49,19,-8
14185,536,200,1632,-45,21,-7
14190,536,208,1640,-40,22,-7
14195,528,192,1640,-36,22,-7
14200,520,176,1632,-32,22,-5
14205,520,192,1640,-32,22,-4
14210,520,176,1664,-30,20,-4
14215,520,176,1648,-29,19,-3
14220,520,208,1664,-29,17,-1
14225,504,192,1664,-28,15,1
14230,520,184,1648,-29,13,0
14235,536,152,1640,-31,11,1
14240,520,184,1640,-33,12,1
14245,520,192,1640,-37,11,1
14250,520,200,1648,-39,10,1
14255,528,192,1656,-43,11,-1
14260,520,208,1632,-44,13,-1
14265,536,224,1624,-47,14,-3
14270,536,200,1648,-47,18,-4
14275,544,224,1632,-45,18,-4
14280,544,200,1664,-41,18,-5
14285,536,192,1640,-37,20,-5
14290,512,200,1640,-33,18,-6
14295,504,216,1616,-28,18,-4
14300,512,184,1616,-24,18,-6
14305,504,192,1624,-20,17,-4
14310,488,200,1608,-16,17,-5
14315,512,224,1616,-16,16,-5
14320,512,208,1600,-18,15,-5
14325,520,184,1624,-20,15,-4
14330,512,216,1608,-22,13,-5
14335,504,192,1600,-26,13,-5
14340,512,184,1624,-27,12,-3
14345,512,184,1616,-28,13,-3
14350,520,176,1648,-28,11,-3
14355,528,184,1656,-27,11,-1
14360,528,184,1656,-26,12,-3
14365,552,168,1648,-28,14,-1
14370,528,200,1648,-27,14,-2
14375,544,200,1664,-27,16,-2
14380,544,176,1608,-23,17,-1
14385,520,216,1664,-23,19,-2
14390,528,240,1672,-24,18,-3
14395,520,200,1632,-28,18,-4
14400,504,216,1632,-33,18,-5
14405,512,216,1656,-38,16,-5
14410,520,200,1672,-45,14,-5
14415,528,208,1664,-50,13,-4
14420,376,128,1704,-55,12,-5
14425,544,184,1712,-59,13,-6
14430,512,184,1656,-58,11,-6
14435,528,176,1664,-51,12,-5
14440,520,176,1632,-39,10,-4
14445,560,184,1664,-26,9,-2
14450,520,200,1616,-12,7,-2
14455,528,168,1632,-5,6,1
14460,544,160,1616,3,7,2
14465,528,192,1616,9,10,2
14470,536,208,1600,10,14,1
14475,632,224,1592,8,18,1
14480,536,192,1616,5,19,-1
14485,504,232,1616,2,20,-2
14490,536,224,1608,-4,23,-1
14495,528,216,1608,-10,22,-4
14500,520,240,1640,-15,22,-4
14505,528,232,1624,-20,24,-5
14510,536,232,1640,-24,24,-4
14515,536,200,1640,-27,21,-1
14520,552,208,1616,-28,14,2
14525,520,232,1672,-28,9,2
14530,544,208,1680,-26,6,1
14535,544,200,1656,-25,6,1
14540,544,200,1672,-23,6,-1
14545,528,192,1680,-24,10,-2
14550,528,240,1656,-21,13,-1
14555,544,200,1640,-19,16,-2
14560,544,192,1656,-20,18,-2
14565,544,208,1656,-18,19,-1
14570,528,216,1632,-13,18,-1
14575,520,232,1640,-12,19,-1
14580,520,216,1664,-11,20,-2
14585,512,208,1624,-8,20,-2
14590,536,208,1624,-5,19,-1
14595,520,224,1624,-6,18,-1
14600,536,208,1624,-6,18,-2
14605,520,208,1632,-6,17,-1
14610,520,224,1616,-8,16,-1
14615,552,224,1600,-9,15,-2
14620,536,224,1592,-11,15,-2
14625,528,216,1624,-12,17,-3
14630,544,200,1608,-12,17,-4
14635,544,232,1632,-12,16,-5
14640,536,224,1600,-13,17,-5
14645,536,232,1616,-13,19,-5
14650,544,224,1640,-15,20,-5
14655,536,208,1608,-16,20,-6
14660,528,216,1632,-16,21,-5
14665,520,224,1616,-16,20,-6
14670,528,216,1600,-16,23,-8
14675,528,192,1632,-17,22,-8
14680,520,216,1648,-21,24,-8
14685,520,200,1608,-21,26,-9
14690,528,200,1624,-25,27,-8
14695,520,208,1648,-24,27,-7
14700,504,216,1632,-23,27,-7
14705,504,224,1624,-25,26,-7
14710,512,232,1664,-25,25,-7
14715,520,208,1632,-28,25,-6
14720,520,192,1648,-31,26,-4
14725,536,208,1624,-33,27,-3
14730,504,232,1640,-35,29,-2
14735,520,216,1664,-36,29,-2
14740,512,232,1648,-35,27,-1
14745,528,200,1688,-36,27,-2
14750,512,224,1648,-36,24,-1
14755,520,232,1672,-35,21,-1
14760,520,232,1672,-29,19,-1
14765,512,224,1656,-28,16,-2
14770,512,232,1624,-24,15,-1
14775,536,240,1664,-22,13,-2
14780,512,224,1656,-19,13,-2
14785,528,216,1616,-21,13,-2
14790,536,232,1664,-22,15,-3
14795,520,224,1648,-25,17,-3
14800,520,232,1656,-27,19,-3
14805,560,240,1648,-31,21,-2
14810,528,248,1616,-32,22,-4
14815,528,232,1632,-34,22,-2
14820,520,240,1640,-36,23,-3
14825,520,232,1648,-37,20,-2
14830,536,224,1664,-37,18,-3
14835,520,240,1640,-37,16,-3
14840,520,248,1656,-37,16,-3
14845,528,232,1656,-40,17,-3
14850,512,248,1648,-45,16,-2
14855,536,248,1632,-50,16,-2
14860,544,232,1664,-55,14,-1
14865,536,240,1656,-61,15,-1
14870,544,248,1648,-66,14,-2
14875,528,248,1704,-68,13,-1
14880,536,248,1696,-71,12,-2
14885,552,264,1680,-71,11,-3
14890,536,248,1640,-68,9,-2
14895,544,240,1680,-64,5,-3
14900,528,208,1632,-59,5,-6
14905,528,216,1648,-53,3,-5
14910,520,176,1720,-45,4,-6
14915,520,216,1632,-39,3,-6
14920,520,208,1624,-34,4,-7
14925,520,264,1616,-30,5,-9
14930,520,248,1616,-28,8,-8
14935,496,224,1584,-26,12,-9
14940,544,216,1600,-25,16,-11
14945,528,200,1616,-24,20,-9
14950,528,232,1608,-22,23,-10
14955,536,208,1632,-23,26,-9
14960,536,224,1616,-23,28,-8
14965,480,296,1536,-22,28,-8
14970,520,224,1608,-25,28,-7
14975,520,200,1592,-27,28,-5
14980,520,232,1608,-28,26,-5
14985,512,224,1616,-31,26,-4
14990,536,224,1640,-35,25,-4
14995,512,216,1624,-38,23,-4
