timestamp,accel_x,accel_y,accel_z,gyro_x,gyro_y,gyro_z
0,144,-2176,16,-31,44,0
5,128,-2144,8,-30,43,2
10,152,-2176,0,-30,42,1
15,176,-2152,0,-30,41,1
20,176,-2160,-8,-31,41,2
25,96,-2192,8,-32,41,0
30,136,-2144,8,-34,39,0
35,136,-2160,8,-36,39,-1
40,112,-2144,16,-37,39,-1
45,120,-2160,8,-36,39,0
50,120,-2184,8,-34,40,0
55,152,-2160,-8,-33,41,0
60,112,-2192,24,-33,41,1
65,128,-2168,16,-34,39,1
70,136,-2168,16,-32,40,1
75,120,-2192,40,-37,37,0
80,144,-2184,-8,-36,34,2
85,120,-2192,0,-38,33,0
90,120,-2192,32,-37,29,1
95,104,-2208,24,-35,27,1
100,96,-2160,8,-32,24,2
105,88,-2168,24,-30,23,2
110,96,-2048,64,-28,20,2
115,160,-2096,96,-24,16,1
120,72,-2160,0,-24,12,2
125,64,-2120,96,-22,11,3
130,56,-2168,80,-17,8,5
135,168,-2096,176,-15,8,5
140,88,-2192,72,-15,9,7
145,72,-2152,72,-13,8,6
150,88,-2160,48,-14,7,7
155,144,-2088,120,-15,5,8
160,96,-2136,24,-16,5,8
165,160,-2072,80,-16,3,8
170,120,-2168,72,-18,3,7
175,64,-2064,88,-18,4,4
180,104,-2184,128,-16,5,4
185,80,-2072,96,-18,5,4
190,136,-2120,80,-20,5,3
195,80,-2216,-16,-19,3,0
200,112,-2112,80,-23,3,-2
205,120,-2112,72,-26,2,-5
210,112,-2144,56,-31,3,-7
215,104,-2136,80,-37,4,-12
220,120,-2120,8,-42,5,-14
225,112,-2120,80,-46,5,-18
230,112,-2144,24,-51,4,-21
235,96,-2160,64,-53,2,-23
240,96,-2144,48,-58,1,-24
245,104,-2168,40,-58,0,-28
250,80,-2176,48,-60,-2,-28
255,80,-2176,56,-60,-3,-30
260,104,-2176,64,-59,-7,-33
265,80,-2184,48,-60,-11,-34
270,72,-2192,8,-61,-14,-36
275,96,-2200,48,-61,-19,-35
280,88,-2176,16,-60,-23,-34
285,88,-2184,56,-58,-28,-36
290,104,-2184,40,-54,-31,-36
295,64,-2176,88,-50,-34,-37
300,96,-2192,48,-46,-37,-34
305,104,-2184,56,-40,-40,-34
310,112,-2160,32,-35,-48,-32
315,96,-2168,72,-33,-52,-32
320,96,-2136,32,-33,-58,-31
325,96,-2160,80,-35,-63,-34
330,128,-2144,24,-39,-67,-34
335,112,-2160,48,-42,-69,-38
340,136,-2144,64,-47,-70,-41
345,128,-2144,88,-48,-69,-46
350,136,-2136,48,-50,-66,-47
355,184,-2152,40,-53,-62,-52
360,176,-2128,48,-61,-55,-58
365,176,-2120,32,-69,-47,-62
370,200,-2144,16,-79,-34,-67
375,224,-2144,8,-90,-19,-71
380,216,-2128,16,-101,-1,-76
385,256,-2152,-8,-108,22,-82
390,272,-2104,-72,-112,46,-85
395,280,-2120,-64,-114,69,-89
400,288,-2104,-96,-118,95,-90
405,328,-2088,-112,-124,123,-93
410,312,-2064,-136,-131,156,-90
415,344,-2056,-128,-138,184,-91
420,392,-2056,-144,-143,212,-89
425,400,-2040,-88,-150,241,-89
430,384,-2040,-104,-153,269,-85
435,416,-2040,-96,-154,295,-82
440,416,-2040,-96,-157,322,-77
445,416,-2072,-104,-163,350,-72
450,408,-2072,-120,-169,375,-66
455,408,-2048,-80,-173,402,-57
460,392,-2056,-72,-178,429,-48
465,416,-2088,-64,-184,460,-39
470,368,-2096,8,-187,482,-30
475,376,-2128,0,-190,504,-25
480,344,-2144,16,-194,522,-21
485,312,-2168,0,-203,540,-22
490,312,-2184,0,-211,555,-26
495,296,-2168,8,-221,571,-32
500,312,-2160,16,-229,587,-38
505,272,-2160,24,-232,599,-49
510,240,-2136,40,-233,607,-57
515,192,-2104,80,-229,611,-64
520,136,-2080,104,-225,610,-71
525,80,-2096,128,-222,604,-76
530,16,-2112,144,-230,590,-83
535,16,-2112,152,-245,581,-92
540,-24,-2048,168,-264,571,-103
545,-40,-2088,192,-288,563,-115
550,-40,-2072,144,-303,548,-124
555,-8,-2080,168,-320,530,-131
560,-32,-2112,168,-340,510,-138
565,0,-2144,232,-356,477,-149
570,0,-2144,160,-363,442,-157
575,24,-2192,208,-365,402,-168
580,96,-2200,224,-369,356,-176
585,96,-2216,200,-369,317,-183
590,144,-2248,216,-367,274,-193
595,168,-2248,200,-366,233,-201
600,240,-2248,152,-368,197,-206
605,216,-2240,144,-372,170,-209
610,264,-2264,96,-381,148,-207
615,312,-2248,88,-387,128,-209
620,344,-2264,64,-389,113,-213
625,360,-2288,72,-384,108,-218
630,408,-2240,56,-369,107,-221
635,408,-2240,88,-348,111,-227
640,408,-2200,88,-317,117,-232
645,456,-2184,88,-283,128,-241
650,496,-2152,80,-251,142,-248
655,488,-2128,72,-223,157,-255
660,504,-2096,88,-198,172,-263
665,512,-2072,96,-175,189,-272
670,496,-2024,96,-159,215,-283
675,512,-2000,120,-143,230,-295
680,528,-1976,104,-134,253,-295
685,496,-1960,120,-129,274,-294
690,456,-1960,88,-130,290,-289
695,480,-1952,96,-128,303,-284
700,448,-1928,128,-130,318,-278
705,448,-1912,88,-132,336,-273
710,440,-1904,136,-135,354,-262
715,416,-1896,120,-137,365,-252
720,416,-1928,160,-138,378,-233
725,384,-1888,120,-136,388,-219
730,368,-1896,152,-132,396,-206
735,384,-1856,136,-132,407,-192
740,360,-1864,104,-136,417,-169
745,368,-1856,136,-142,425,-152
750,360,-1832,96,-152,438,-133
755,352,-1856,160,-160,448,-117
760,384,-1848,104,-168,453,-100
765,360,-1880,128,-180,457,-85
770,368,-1848,136,-188,457,-66
775,384,-1872,120,-198,451,-50
780,392,-1896,176,-206,445,-34
785,360,-1904,136,-212,439,-21
790,360,-1920,120,-220,433,-9
795,344,-1944,104,-231,433,4
800,376,-1976,56,-241,434,19
805,408,-2008,72,-249,433,29
810,360,-2040,80,-257,427,40
815,360,-2056,72,-262,415,47
820,368,-2112,64,-267,401,57
825,360,-2128,80,-268,377,63
830,336,-2168,80,-267,352,70
835,288,-2176,72,-268,329,76
840,288,-2200,64,-263,307,81
845,280,-2208,112,-251,285,85
850,272,-2216,104,-242,264,92
855,272,-2232,104,-232,245,95
860,288,-2208,80,-224,227,101
865,304,-2272,96,-222,212,103
870,296,-2296,80,-223,200,104
875,376,-2328,80,-221,177,98
880,400,-2352,168,-201,163,92
885,456,-2424,192,-177,151,81
890,488,-2440,208,-150,142,72
895,544,-2440,248,-127,136,64
900,592,-2440,232,-103,133,52
905,656,-2448,232,-84,134,40
910,672,-2432,240,-68,135,30
915,696,-2424,248,-56,136,19
920,688,-2400,208,-48,135,14
925,680,-2408,264,-44,133,8
930,640,-2392,264,-40,131,7
935,664,-2472,320,-39,130,5
940,720,-2568,304,-49,125,2
945,584,-2656,400,-75,102,-14
950,488,-2760,160,-131,53,-39
955,528,-2808,-128,-226,30,-63
960,624,-2784,-152,-298,52,-86
965,592,-2776,0,-294,98,-105
970,560,-2784,32,-234,143,-116
975,568,-2704,16,-172,176,-120
980,544,-2640,-24,-148,195,-119
985,576,-2616,-96,-158,206,-114
990,600,-2600,-128,-177,220,-114
995,664,-2552,-152,-194,238,-115
1000,704,-2536,-184,-202,263,-115
1005,704,-2544,-216,-197,292,-117
1010,704,-2552,-176,-176,324,-117
1015,696,-2568,-176,-151,353,-116
1020,688,-2544,-208,-129,375,-112
1025,624,-2496,-208,-111,390,-107
1030,584,-2456,-192,-92,401,-96
1035,512,-2408,-184,-76,402,-82
1040,408,-2368,-208,-54,395,-63
1045,288,-2256,-192,-29,376,-40
1050,200,-2208,-248,-5,344,-14
1055,128,-2152,-256,14,302,15
1060,56,-2072,-336,32,254,46
1065,24,-1968,-392,47,205,75
1070,24,-1920,-392,63,163,105
1075,40,-1856,-464,78,128,125
1080,80,-1808,-496,89,89,143
1085,32,-1752,-504,93,59,152
1090,16,-1736,-456,90,30,158
1095,0,-1728,-472,84,4,163
1100,0,-1736,-464,72,-22,169
1105,-32,-1792,-416,52,-49,172
1110,8,-1824,-464,26,-77,175
1115,104,-1888,-504,-7,-104,177
1120,104,-1944,-488,-42,-121,182
1125,120,-1992,-520,-73,-130,181
1130,152,-2040,-544,-97,-132,177
1135,176,-2088,-528,-115,-127,169
1140,216,-2128,-464,-122,-115,161
1145,232,-2136,-472,-125,-96,152
1150,288,-2144,-440,-121,-79,145
1155,304,-2176,-416,-116,-52,139
1160,296,-2160,-384,-105,-25,137
1165,280,-2160,-424,-85,-4,136
1170,304,-2152,-352,-67,12,139
1175,328,-2168,-344,-52,30,147
1180,320,-2152,-352,-28,45,163
1185,344,-2096,-448,9,48,185
1190,352,-2080,-416,19,66,211
1195,320,-2064,-432,23,84,238
1200,296,-2064,-448,29,99,260
1205,280,-2072,-424,35,118,280
1210,288,-2072,-480,36,143,304
1215,296,-2072,-464,37,168,327
1220,272,-2080,-440,42,196,349
1225,280,-2064,-464,47,227,368
1230,384,-2024,-472,48,264,400
1235,200,-2056,-416,28,328,421
1240,288,-2048,-400,30,320,406
1245,296,-2040,-416,39,334,403
1250,248,-2040,-368,40,351,401
1255,248,-2040,-368,43,366,398
1260,280,-2032,-296,53,382,392
1265,240,-2040,-288,64,402,386
1270,200,-1992,-240,74,418,385
1275,208,-2008,-224,80,429,376
1280,184,-1976,-216,82,434,374
1285,104,-1976,-176,80,436,371
1290,56,-1984,-184,87,431,367
1295,40,-1960,-184,91,423,364
1300,-8,-1952,-152,93,416,365
1305,-32,-1960,-112,97,413,366
1310,-32,-1944,-104,102,413,362
1315,-64,-1944,-136,108,416,354
1320,-96,-1896,-144,111,419,352
1325,-88,-1896,-88,106,421,350
1330,-64,-1888,-64,98,420,346
1335,-72,-1880,-72,92,420,342
1340,-16,-1896,-48,83,420,338
1345,24,-1920,-72,71,420,334
1350,72,-1896,-56,59,420,330
1355,80,-1824,-16,47,419,328
1360,120,-1888,-48,33,424,332
1365,128,-1856,-64,25,430,329
1370,128,-1880,-96,16,442,326
1375,176,-1888,-96,10,454,317
1380,152,-1856,-128,8,468,308
1385,176,-1880,-88,5,479,293
1390,168,-1872,-72,1,492,283
1395,192,-1888,-72,-5,504,280
1400,128,-1920,-72,-10,516,273
1405,144,-1904,-56,-11,527,255
1410,160,-1912,-64,-15,538,239
1415,144,-1928,-32,-21,554,221
1420,152,-1944,-24,-28,570,203
1425,144,-1944,-16,-31,586,184
1430,136,-1968,0,-29,602,168
1435,136,-2000,0,-28,619,144
1440,104,-2040,8,-21,637,127
1445,112,-2072,24,-11,655,113
1450,96,-2112,72,2,674,98
1455,88,-2128,56,17,695,85
1460,96,-2152,64,29,714,74
1465,64,-2160,64,45,730,63
1470,64,-2200,88,59,742,52
1475,40,-2224,64,74,755,45
1480,24,-2280,64,87,769,42
1485,24,-2320,56,103,778,36
1490,24,-2344,48,111,795,31
1495,40,-2376,96,113,813,24
1500,32,-2392,96,111,829,17
1505,48,-2360,56,111,847,10
1510,72,-2352,88,112,860,3
1515,128,-2360,80,120,874,-4
1520,104,-2312,128,133,891,-10
1525,96,-2312,104,148,902,-12
1530,32,-2336,72,161,908,-12
1535,72,-2376,72,161,905,-9
1540,24,-2408,56,149,903,2
1545,-8,-2432,176,137,904,13
1550,-24,-2440,224,149,902,25
1555,-80,-2400,296,175,899,42
1560,-104,-2392,344,203,894,55
1565,-152,-2368,368,228,890,66
1570,-144,-2328,416,246,893,72
1575,-152,-2304,424,256,899,76
1580,-136,-2272,456,262,909,79
1585,-96,-2312,488,265,920,76
1590,-224,-2384,536,265,929,77
1595,-704,-2768,576,255,912,106
1600,-48,-2840,488,220,906,168
1605,160,-3024,32,79,1000,216
1610,-56,-3072,-328,-133,1012,236
1615,-144,-3040,-224,-283,926,269
1620,-112,-3032,-136,-280,845,318
1625,-96,-3056,-128,-197,787,362
1630,-160,-3072,-176,-104,762,394
1635,-216,-3008,-176,-16,761,417
1640,-256,-2880,-256,50,757,423
1645,-296,-2784,-224,88,726,423
1650,-328,-2800,-304,88,684,428
1655,-312,-2704,-368,66,640,423
1660,-216,-2648,-504,38,599,422
1665,-96,-2624,-592,18,575,419
1670,16,-2544,-720,23,575,403
1675,160,-2448,-792,52,595,375
1680,272,-2336,-824,99,626,343
1685,344,-2208,-912,139,665,308
1690,352,-2120,-984,162,699,282
1695,408,-2008,-976,166,736,249
1700,432,-1904,-1008,153,762,223
1705,456,-1800,-984,132,787,203
1710,424,-1712,-928,115,818,185
1715,400,-1688,-872,96,850,169
1720,384,-1680,-760,83,875,153
1725,328,-1672,-744,69,891,133
1730,312,-1608,-736,58,893,119
1735,232,-1632,-672,39,891,108
1740,152,-1664,-600,28,884,96
1745,112,-1696,-544,20,870,83
1750,48,-1712,-488,-6,841,72
1755,-8,-1888,-408,-38,809,61
1760,-56,-1976,-360,-53,762,33
1765,-80,-1960,-344,-68,707,9
1770,-112,-2024,-352,-96,655,-9
1775,-168,-2056,-280,-149,608,-24
1780,-248,-2112,-304,-203,560,-38
1785,-256,-2176,-280,-228,508,-55
1790,-304,-2152,-312,-224,459,-79
1795,-320,-2144,-264,-220,417,-111
1800,-336,-2152,-256,-220,368,-136
1805,-336,-2184,-264,-220,320,-162
1810,-312,-2168,-296,-224,273,-188
1815,-288,-2184,-264,-223,226,-215
1820,-264,-2168,-288,-226,183,-245
1825,-240,-2224,-288,-235,144,-272
1830,-184,-2200,-288,-219,110,-299
1835,-96,-2160,-312,-190,78,-323
1840,-80,-2128,-328,-155,56,-342
1845,-40,-2048,-320,-117,38,-363
1850,-8,-1968,-320,-76,22,-380
1855,24,-1928,-288,-29,15,-391
1860,48,-1856,-280,13,8,-403
1865,56,-1800,-256,47,1,-408
1870,80,-1776,-224,66,-8,-412
1875,128,-1776,-256,82,-18,-413
1880,152,-1760,-224,86,-25,-414
1885,216,-1768,-168,85,-30,-412
1890,152,-1784,-136,82,-39,-411
1895,200,-1768,-144,75,-39,-414
1900,168,-1768,-80,67,-32,-420
1905,184,-1744,-104,45,-26,-435
1910,176,-1776,-48,19,-15,-451
1915,248,-1776,-80,3,-13,-454
1920,280,-1800,-72,-7,-1,-444
1925,288,-1776,-64,-21,9,-434
1930,304,-1760,-8,-43,18,-428
1935,288,-1792,-24,-68,27,-425
1940,328,-1808,-40,-95,34,-419
1945,328,-1856,-48,-121,39,-411
1950,312,-1872,-24,-144,37,-404
1955,304,-1848,-40,-164,28,-397
1960,296,-1888,-40,-182,19,-389
1965,280,-1880,-40,-194,9,-380
1970,224,-1880,-56,-205,1,-368
1975,184,-1856,-32,-214,-6,-357
1980,152,-1840,-120,-219,-11,-345
1985,136,-1816,-40,-220,-13,-330
1990,112,-1848,-80,-214,-15,-313
1995,104,-1880,-72,-202,-23,-292
2000,104,-1912,-80,-185,-35,-267
2005,104,-1952,-16,-160,-54,-244
2010,88,-1992,16,-135,-72,-220
2015,96,-2040,0,-107,-96,-195
2020,56,-2088,8,-79,-119,-169
2025,64,-2120,40,-52,-142,-143
2030,24,-2128,24,-27,-164,-117
2035,0,-2144,24,-4,-187,-94
2040,-16,-2176,88,17,-208,-70
2045,-56,-2200,40,35,-228,-50
2050,-96,-2208,56,51,-249,-26
2055,-88,-2272,96,65,-274,-11
2060,-88,-2288,104,76,-296,0
2065,-80,-2328,168,85,-322,11
2070,-56,-2352,168,91,-352,14
2075,-8,-2376,176,90,-386,18
2080,24,-2376,176,91,-418,22
2085,64,-2352,192,103,-449,23
2090,160,-2344,280,117,-475,24
2095,248,-2336,360,145,-495,25
2100,376,-2368,304,174,-503,23
2105,544,-2384,216,189,-493,16
2110,424,-2480,104,154,-475,-10
2115,488,-2536,160,95,-481,-45
2120,568,-2536,168,65,-496,-84
2125,552,-2544,280,71,-494,-110
2130,560,-2584,360,106,-479,-134
2135,592,-2672,400,153,-456,-157
2140,704,-2824,440,194,-433,-185
2145,784,-2936,568,208,-424,-227
2150,624,-2976,408,182,-454,-288
2155,632,-3056,-72,79,-482,-363
2160,800,-3152,-256,-81,-444,-425
2165,840,-3208,-112,-129,-361,-492
2170,760,-3176,-24,-96,-292,-557
2175,728,-3240,-120,-55,-247,-611
2180,680,-3240,-280,-52,-200,-662
2185,632,-3280,-352,-66,-128,-713
2190,600,-3248,-392,-61,-42,-768
2195,632,-3184,-400,-27,51,-817
2200,616,-3064,-408,25,138,-860
2205,560,-2896,-480,75,219,-891
2210,488,-2736,-608,120,270,-891
2215,416,-2632,-696,149,312,-867
2220,336,-2496,-688,183,343,-823
2225,248,-2336,-648,225,366,-759
2230,184,-2184,-712,265,372,-690
2235,144,-1992,-784,287,360,-618
2240,96,-1824,-792,291,332,-547
2245,-24,-1656,-832,277,293,-477
2250,-96,-1552,-816,260,241,-407
2255,-192,-1480,-752,248,181,-323
2260,-240,-1408,-664,246,91,-257
2265,-272,-1384,-592,240,13,-188
2270,-304,-1488,-584,222,-57,-126
2275,-280,-1552,-520,195,-118,-72
2280,-264,-1640,-520,168,-169,-31
2285,-168,-1696,-504,142,-215,3
2290,-104,-1720,-424,111,-255,28
2295,-56,-1832,-432,90,-280,45
2300,24,-1840,-392,71,-297,54
2305,64,-1936,-304,54,-304,58
2310,96,-1976,-296,29,-307,60
2315,144,-1984,-248,8,-306,63
2320,208,-2032,-232,-17,-302,65
2325,224,-2040,-200,-43,-298,74
2330,216,-2056,-216,-67,-296,86
2335,216,-2048,-192,-92,-293,104
2340,208,-2056,-184,-104,-282,124
2345,224,-2048,-136,-107,-264,144
2350,248,-2040,-128,-100,-241,160
2355,280,-2016,-216,-89,-218,176
2360,296,-1984,-224,-89,-190,201
2365,312,-1976,-224,-88,-173,225
2370,360,-1944,-264,-89,-158,246
2375,424,-1904,-336,-102,-137,271
2380,432,-1880,-416,-131,-105,290
2385,464,-1848,-448,-157,-69,306
2390,456,-1840,-432,-190,-36,313
2395,480,-1856,-400,-217,-2,316
2400,448,-1840,-400,-237,29,321
2405,432,-1848,-376,-245,54,318
2410,416,-1880,-392,-243,74,305
2415,392,-1912,-344,-223,87,295
2420,344,-1936,-256,-195,102,283
2425,320,-1960,-288,-169,109,273
2430,264,-2032,-208,-147,124,271
2435,224,-2024,-152,-123,135,270
2440,184,-2048,-136,-101,148,270
2445,128,-2064,-72,-84,167,280
2450,72,-2088,-72,-71,185,297
2455,32,-2072,-56,-56,206,310
2460,-16,-2048,-56,-41,230,317
2465,-64,-1976,-48,-17,244,326
2470,-96,-1960,-16,0,251,338
2475,-104,-1936,8,18,251,349
2480,-96,-1936,-16,32,244,357
2485,-96,-1872,8,40,235,364
2490,-80,-1864,-16,46,223,376
2495,-56,-1888,0,51,208,387
2500,-48,-1840,-8,60,203,398
2505,-16,-1808,0,69,200,407
2510,16,-1816,0,74,206,409
2515,40,-1784,-16,71,209,407
2520,72,-1752,-8,66,217,401
2525,96,-1784,-8,59,226,394
2530,152,-1784,-24,55,241,382
2535,160,-1768,-32,46,260,372
2540,144,-1784,8,40,285,360
2545,192,-1832,8,28,315,347
2550,208,-1904,16,15,354,340
2555,208,-1936,24,17,398,320
2560,200,-2008,56,24,440,289
2565,248,-2048,80,34,473,260
2570,256,-2096,96,41,502,220
2575,288,-2128,104,43,531,178
2580,288,-2184,144,47,558,128
2585,296,-2248,176,59,581,86
2590,304,-2288,200,75,601,47
2595,256,-2336,184,93,622,14
2600,240,-2360,248,118,650,-14
2605,168,-2384,264,156,684,-31
2610,64,-2408,304,206,721,-46
2615,-96,-2392,352,279,765,-48
2620,-224,-2392,376,336,795,-45
2625,-336,-2376,344,377,812,-37
2630,-424,-2344,336,398,817,-26
2635,-552,-2368,304,401,803,-7
2640,-656,-2344,208,384,762,12
2645,-752,-2392,136,349,689,39
2650,-744,-2448,128,290,591,70
2655,-872,-2576,160,227,479,110
2660,-936,-2624,256,198,364,160
2665,-952,-2648,328,215,234,206
2670,-952,-2672,368,251,136,242
2675,-944,-2688,416,292,51,273
2680,-880,-2656,496,324,-16,290
2685,-752,-2616,504,345,-73,297
2690,-600,-2608,528,356,-121,291
2695,-480,-2552,552,358,-167,280
2700,-384,-2504,584,357,-203,264
2705,-264,-2480,632,359,-236,246
2710,-160,-2384,640,368,-260,218
2715,-96,-2312,640,384,-275,198
2720,-96,-2344,640,396,-272,176
2725,-536,-2712,600,395,-253,176
2730,-56,-2736,472,360,-234,223
2735,520,-2872,-112,194,-101,261
2740,528,-3024,-560,-115,-44,254
2745,344,-3048,-440,-284,-96,286
2750,264,-2880,-304,-187,-115,354
2755,232,-2856,-472,-59,-115,420
2760,168,-2848,-552,0,-93,492
2765,-40,-2680,-584,31,-46,543
2770,-144,-2376,-584,74,-10,594
2775,-128,-2296,-680,111,18,651
2780,-72,-2176,-816,81,47,686
2785,80,-2040,-936,12,69,716
2790,296,-2016,-976,-44,79,738
2795,408,-1968,-1008,-50,93,744
2800,456,-1960,-976,-4,114,725
2805,520,-1952,-920,73,142,692
2810,600,-1976,-816,154,169,649
2815,648,-2000,-776,212,203,596
2820,632,-2024,-728,249,233,549
2825,616,-2040,-712,253,274,501
2830,536,-2072,-624,237,315,441
2835,456,-2064,-608,196,349,371
2840,416,-2120,-592,146,371,293
2845,368,-2160,-600,97,382,223
2850,280,-2176,-624,50,381,160
2855,176,-2232,-608,10,373,110
2860,96,-2312,-560,-23,355,68
2865,-48,-2368,-488,-42,322,31
2870,-144,-2400,-384,-53,281,4
2875,-280,-2432,-304,-45,231,-16
2880,-392,-2472,-160,-38,173,-45
2885,-456,-2496,-96,-20,108,-71
2890,-496,-2504,-32,-1,46,-104
2895,-520,-2432,-16,14,-13,-141
2900,-488,-2408,-24,30,-68,-185
2905,-480,-2360,0,42,-116,-226
2910,-456,-2296,-64,54,-160,-264
2915,-448,-2200,-64,65,-212,-298
2920,-408,-2168,-96,71,-254,-327
2925,-408,-2088,-120,73,-291,-345
2930,-376,-2016,-88,78,-331,-358
2935,-328,-1920,-112,86,-378,-373
2940,-248,-1864,-104,100,-421,-387
2945,-184,-1800,-104,117,-464,-400
2950,-104,-1712,-80,134,-503,-416
2955,-24,-1688,-64,142,-526,-428
2960,0,-1648,-64,147,-534,-436
2965,40,-1616,-48,154,-541,-448
2970,104,-1632,-40,163,-543,-463
2975,152,-1632,-80,178,-544,-469
2980,136,-1664,-88,183,-540,-479
2985,184,-1624,-104,176,-547,-498
2990,248,-1632,-48,165,-528,-496
2995,232,-1632,-104,156,-499,-483
3000,200,-1608,-56,146,-485,-487
3005,216,-1488,-64,130,-488,-478
3010,240,-1536,-32,94,-494,-450
3015,256,-1512,-48,65,-508,-426
3020,232,-1544,-72,32,-510,-415
3025,200,-1544,-80,-2,-506,-399
3030,264,-1592,-56,-31,-513,-404
3035,256,-1632,-96,-62,-502,-389
3040,240,-1648,-16,-97,-486,-376
3045,200,-1688,-16,-133,-482,-364
3050,192,-1736,-8,-169,-489,-350
3055,160,-1744,0,-194,-504,-335
3060,176,-1840,16,-207,-516,-324
3065,176,-1832,48,-210,-520,-305
3070,208,-1872,72,-201,-514,-291
3075,176,-1904,96,-184,-498,-273
3080,168,-1960,144,-161,-477,-258
3085,176,-2000,200,-128,-456,-240
3090,152,-2056,216,-89,-433,-226
3095,136,-2088,192,-57,-410,-207
3100,128,-2088,224,-36,-393,-188
3105,104,-2112,216,-12,-380,-167
3110,88,-2120,240,6,-375,-147
3115,96,-2144,192,23,-375,-122
3120,120,-2160,240,38,-382,-109
3125,120,-2184,216,51,-385,-97
3130,120,-2200,216,61,-392,-96
3135,120,-2248,256,74,-403,-97
3140,120,-2312,296,100,-412,-108
3145,72,-2352,352,124,-427,-112
3150,-16,-2376,376,145,-450,-123
3155,-40,-2416,408,166,-482,-130
3160,-96,-2352,416,195,-507,-136
3165,-184,-2336,456,204,-535,-128
3170,-232,-2360,432,205,-578,-119
3175,-216,-2376,400,193,-616,-113
3180,-200,-2392,344,167,-645,-119
3185,-200,-2448,280,130,-667,-125
3190,-152,-2464,336,90,-693,-148
3195,-56,-2464,384,79,-713,-174
3200,64,-2472,408,97,-727,-202
3205,136,-2448,456,126,-743,-219
3210,160,-2424,464,155,-761,-241
3215,240,-2400,456,184,-780,-259
3220,240,-2336,456,208,-803,-286
3225,240,-2288,472,233,-822,-299
3230,224,-2248,504,253,-841,-307
3235,224,-2208,568,276,-858,-310
3240,208,-2168,584,302,-879,-321
3245,152,-2136,568,327,-903,-316
3250,112,-2096,584,348,-931,-305
3255,40,-2064,552,365,-969,-281
3260,144,-2408,480,377,-1002,-260
3265,528,-2848,744,311,-1040,-232
3270,56,-2792,920,169,-1204,-269
3275,-120,-2992,-728,-186,-1444,-297
3280,328,-3216,-1448,-524,-1423,-335
3285,472,-3088,-576,-547,-1233,-468
3290,624,-3016,-200,-340,-1091,-611
3295,640,-3072,-384,-191,-993,-715
3300,736,-2888,-376,-117,-887,-846
3305,912,-2456,-368,-2,-774,-981
3310,848,-2096,-208,119,-683,-1074
3315,720,-1824,-144,175,-639,-1131
3320,520,-1664,-224,179,-568,-1103
3325,304,-1512,-336,154,-510,-1020
3330,48,-1536,-464,133,-469,-912
3335,-64,-1672,-432,104,-445,-783
3340,-112,-1784,-400,64,-445,-653
3345,-264,-1904,-400,-1,-483,-524
3350,-376,-2032,-536,-91,-550,-407
3355,-464,-2120,-624,-173,-642,-299
3360,-536,-2184,-600,-224,-743,-209
3365,-568,-2248,-504,-246,-846,-129
3370,-488,-2312,-504,-263,-966,-55
3375,-456,-2296,-512,-290,-1061,-3
3380,-384,-2248,-568,-323,-1154,32
3385,-312,-2192,-608,-350,-1255,62
3390,-264,-2096,-536,-363,-1355,83
3395,-264,-2072,-488,-363,-1449,108
3400,-224,-2136,-432,-349,-1539,133
3405,-216,-2160,-472,-339,-1630,160
3410,-144,-2216,-464,-344,-1719,183
3415,-112,-2224,-456,-358,-1810,208
3420,-96,-2272,-480,-374,-1924,245
3425,-144,-2296,-496,-384,-2013,288
3430,-200,-2272,-504,-385,-2091,325
3435,-240,-2224,-520,-384,-2166,366
3440,-304,-2136,-560,-380,-2252,405
3445,-376,-2080,-520,-357,-2351,452
3450,-408,-2032,-472,-311,-2472,496
3455,-488,-1976,-296,-234,-2602,545
3460,-512,-1960,-168,-137,-2737,592
3465,-568,-1976,-48,-38,-2863,644
3470,-600,-1976,-8,51,-2999,700
3475,-600,-2008,-24,130,-3100,750
3480,-648,-1984,-32,181,-3183,803
3485,-656,-1968,-64,211,-3274,839
3490,-568,-1984,-96,216,-3366,836
3495,-456,-1992,-128,228,-3427,833
3500,-312,-2048,-168,237,-3455,824
3505,-152,-2136,-168,246,-3444,832
3510,8,-2176,-160,255,-3431,816
3515,288,-2104,-176,264,-3394,816
3520,240,-2192,-40,281,-3295,876
3525,488,-2208,-8,314,-3269,863
3530,616,-2232,56,394,-3178,857
3535,784,-2200,200,503,-3035,909
3540,904,-2256,264,606,-2901,978
3545,936,-2224,368,694,-2781,1029
3550,1016,-2032,352,791,-2660,1080
3555,960,-1640,304,904,-2533,1160
3560,976,-1280,248,1007,-2428,1194
3565,960,-1096,280,1064,-2317,1185
3570,920,-928,360,1083,-2173,1143
3575,760,-904,328,1036,-2055,1102
3580,528,-920,216,900,-1973,1029
3585,312,-1008,-40,680,-1938,939
3590,136,-1200,-224,435,-1927,850
3595,-72,-1384,-304,244,-1920,792
3600,-216,-1528,-440,130,-1907,755
3605,-304,-1568,-512,50,-1874,731
3610,-464,-1544,-696,-34,-1816,702
3615,-592,-1520,-920,-112,-1768,676
3620,-664,-1488,-1224,-168,-1760,655
3625,-664,-1448,-1520,-165,-1810,669
3630,-600,-1240,-1544,-137,-1874,690
3635,-480,-944,-1360,-76,-1900,710
3640,-424,-680,-1168,39,-1884,704
3645,-304,-296,-1144,238,-1875,701
3650,-144,112,-1504,425,-1919,695
3655,112,536,-1888,432,-2001,675
3660,128,784,-1784,223,-2070,630
3665,136,816,-1376,-90,-2133,599
3670,160,592,-1088,-427,-2242,595
3675,216,464,-1144,-661,-2356,605
3680,384,360,-1200,-918,-2445,603
3685,432,64,-1344,-1165,-2491,594
3690,512,-168,-1280,-1329,-2492,586
3695,544,-408,-1360,-1370,-2454,599
3700,552,-616,-1464,-1345,-2401,631
3705,544,-880,-1480,-1320,-2358,688
3710,528,-1136,-1232,-1305,-2332,747
3715,536,-1240,-976,-1264,-2304,818
3720,472,-1392,-584,-1190,-2253,924
3725,400,-1624,-144,-1140,-2196,988
3730,472,-1856,104,-1089,-2154,1013
3735,768,-1936,144,-1038,-2120,1008
3740,1096,-1952,232,-1005,-2072,973
3745,1272,-1712,512,-958,-1993,932
3750,1232,-1704,720,-926,-1899,872
3755,1240,-1728,896,-850,-1835,797
3760,1160,-1800,1008,-730,-1759,736
3765,1080,-1912,1104,-603,-1659,714
3770,992,-1944,1096,-462,-1496,713
3775,1088,-1952,1040,-355,-1314,728
3780,904,-1904,1056,-255,-1098,758
3785,872,-1800,1072,-169,-963,776
3790,832,-1696,1016,-113,-869,791
3795,744,-1592,968,-72,-786,812
3800,664,-1392,816,-29,-719,833
3805,616,-1232,560,7,-658,849
3810,392,-1112,472,27,-579,871
3815,80,-1064,352,50,-530,894
3820,-96,-1024,120,92,-543,892
3825,-288,-960,-72,133,-512,913
3830,-360,-944,-120,171,-448,943
3835,-400,-808,-184,207,-391,982
3840,-488,-680,-224,223,-370,1017
3845,-456,-624,-280,225,-395,1058
3850,-408,-624,-328,212,-435,1099
3855,-408,-800,-328,184,-484,1148
3860,-408,-1064,-256,173,-551,1193
3865,-384,-1160,-248,213,-652,1230
3870,-384,-1224,-56,316,-770,1247
3875,-512,-1160,216,459,-838,1251
3880,-584,-928,504,642,-901,1216
3885,-672,-424,672,801,-962,1233
3890,-880,-192,672,950,-1068,1359
3895,-752,168,248,962,-1200,1516
3900,-296,176,-184,755,-1280,1698
3905,40,-152,-544,444,-1261,1934
3910,560,-624,-1160,163,-1201,2154
3915,744,-952,-2072,-54,-1083,2358
3920,680,-1424,-3248,-288,-917,2592
3925,656,-2232,-4400,-644,-759,2800
3930,488,-3312,-5240,-920,-574,3000
3935,168,-4240,-5040,-1027,-415,3162
3940,-288,-4696,-4336,-740,-287,3261
3945,-512,-5496,-3264,-194,-175,3354
3950,344,-5728,-2608,423,-65,3431
3955,1640,-5712,-2240,955,75,3376
3960,1192,-5792,-1752,1337,263,3190
3965,-744,-5192,-736,1601,470,3081
3970,-1088,-4392,-512,2052,679,3100
3975,-2000,-3448,56,2439,811,3069
3980,-3728,-3224,1144,2525,795,3139
3985,-3744,-2640,864,2712,464,3290
3990,-3808,-912,-24,2744,393,3416
3995,-3728,984,-504,2516,574,3707
4000,-3424,720,-312,2166,604,4089
4005,-4328,-1024,-64,1653,384,4235
4010,-3888,-2528,720,941,155,4199
4015,-4728,-2784,920,327,-7,4053
4020,-5744,-3264,1192,4,-220,4048
4025,-7872,-3600,1184,-43,-459,4131
4030,-9152,-3936,1008,68,-527,4431
4035,-9760,-4256,624,182,-529,4715
4040,-9336,-4160,-32,216,-583,4815
4045,-7632,-3800,-504,133,-555,4827
4050,-6552,-2792,-512,36,-478,4707
4055,-5400,-2104,-232,21,-361,4605
4060,-3536,-1152,-232,37,-257,4496
4065,-2872,-696,80,-70,-36,4371
4070,-2688,-1344,624,-168,426,4460
4075,-2216,-1704,88,99,464,4577
4080,-2016,-1336,-264,363,303,4534
4085,-1776,-992,-376,463,237,4451
4090,-1440,-480,-1096,502,127,4578
4095,-4888,1776,-3528,86,602,4732
4100,-4600,2152,2544,-1573,1228,6402
4105,3024,-672,-728,-2268,1415,7233
4110,-4368,1544,56,-2258,3144,6549
4115,1576,-3144,-6056,-2173,3729,6887
4120,-3504,-2032,1792,-1810,3573,4918
4125,-4680,-2640,2656,-1652,1939,3749
4130,-3144,-3112,2304,-1037,-109,3359
4135,-4128,-3232,1672,-187,-1280,2934
4140,-4168,-3128,456,725,-1897,2777
4145,-3696,-2512,-1016,1603,-2155,2732
4150,-3664,-728,-1920,2228,-1953,2785
4155,-2632,888,-1680,2444,-1295,3090
4160,-2912,1840,-1120,2321,-572,3424
4165,-2752,1336,-784,1912,-189,3446
4170,-2672,1400,-312,1512,30,3128
4175,-2176,1128,-464,920,11,3070
4180,-1560,528,-488,367,-11,3009
4185,-1624,72,-496,34,-9,2945
4190,-2080,-568,-464,32,21,2956
4195,-1912,-1360,-408,181,47,2962
4200,-1232,-1648,-536,375,85,2899
4205,-1200,-1424,-816,661,240,2827
4210,-1280,-232,-1112,902,397,2828
4215,-1400,576,-984,944,562,2937
4220,-1128,720,-864,804,690,2995
4225,-1296,848,-640,600,773,2978
4230,-1032,896,-616,481,776,2909
4235,-1000,912,-472,390,760,2789
4240,-984,960,-344,317,697,2670
4245,-1224,912,-384,296,617,2568
4250,-1424,824,-400,281,553,2462
4255,-1648,824,-592,225,506,2354
4260,-1536,800,-808,167,489,2224
4265,-1720,1000,-864,142,512,2090
4270,-1864,1072,-776,149,551,1968
4275,-2040,1336,-696,149,575,1813
4280,-2152,1472,-696,127,579,1722
4285,-2352,1632,-752,65,557,1625
4290,-2520,1752,-816,-15,519,1538
4295,-2456,1688,-768,-65,481,1435
4300,-2552,1944,-680,-32,482,1338
4305,-2064,1504,-800,97,510,1295
4310,-2200,1728,-624,97,470,1169
4315,-2008,1752,-656,127,423,1071
4320,-1944,2056,-536,154,374,990
4325,-1784,1920,-472,178,303,950
4330,-1824,1944,-312,117,191,865
4335,-1688,1872,-120,77,96,756
4340,-1480,1784,-144,34,24,620
4345,-1536,1840,-144,-31,-27,508
4350,-1768,2024,-88,-42,-50,450
4355,-1632,1888,-128,6,-89,451
4360,-1392,1776,-144,42,-172,452
4365,-1400,1608,-56,62,-270,464
4370,-1376,1384,-8,88,-361,448
4375,-1368,1200,16,99,-424,379
4380,-1136,1224,16,92,-496,333
4385,-1232,1208,48,130,-517,332
4390,-1240,1272,56,157,-514,315
4395,-1232,1376,168,139,-516,279
4400,-1256,1688,176,105,-564,277
4405,-1304,1616,192,44,-622,271
4410,-1272,1576,264,-45,-689,209
4415,-1256,1712,104,-136,-824,162
4420,-1040,1640,40,-249,-985,133
4425,-976,1664,32,-390,-1158,90
4430,-968,1744,72,-540,-1248,71
4435,-1008,1568,144,-648,-1295,67
4440,-992,1544,56,-712,-1316,54
4445,-1008,1632,-8,-778,-1338,57
4450,-1000,1416,24,-829,-1274,86
4455,-1008,520,360,-763,-1081,99
4460,-1120,744,768,-538,-829,85
4465,-1120,824,776,-203,-628,90
4470,-1104,896,616,67,-479,89
4475,-1176,960,496,271,-369,65
4480,-1168,1128,440,452,-349,35
4485,-1264,1224,336,510,-368,22
4490,-1216,1176,208,509,-421,-16
4495,-1176,1256,168,455,-498,-70
4500,-1176,1192,168,391,-574,-107
4505,-1240,1184,160,376,-627,-144
4510,-1248,1344,104,376,-683,-186
4515,-1200,1328,112,367,-727,-208
4520,-1200,1352,224,354,-753,-230
4525,-1344,1488,200,350,-778,-255
4530,-1400,1520,240,332,-805,-283
4535,-1464,1544,168,306,-838,-313
4540,-1504,1616,144,271,-858,-351
4545,-1472,1592,80,227,-859,-385
4550,-1560,1456,136,190,-806,-437
4555,-1440,1376,144,158,-747,-483
4560,-1480,1288,192,129,-667,-526
4565,-1536,1216,144,134,-565,-576
4570,-1728,1208,160,175,-455,-633
4575,-1856,1336,152,202,-388,-669
4580,-1768,1312,128,194,-369,-680
4585,-1880,1304,192,200,-341,-684
4590,-1760,1168,152,227,-329,-690
4595,-1848,1104,128,252,-298,-720
4600,-1888,1112,160,291,-278,-734
4605,-1936,1240,80,321,-256,-741
4610,-1936,1072,112,330,-229,-753
4615,-2008,1144,88,351,-181,-772
4620,-1928,1064,80,367,-160,-777
4625,-1960,1008,104,382,-116,-802
4630,-1912,1032,40,399,-86,-829
4635,-2000,944,104,402,-60,-860
4640,-2048,952,96,439,-52,-882
4645,-1992,872,96,481,-50,-897
4650,-2144,856,144,540,-21,-924
4655,-2136,872,128,631,29,-940
4660,-2024,792,192,721,79,-952
4665,-2040,840,136,790,119,-969
4670,-1992,872,72,848,186,-964
4675,-1960,832,128,873,255,-967
4680,-1880,920,16,837,321,-1001
4685,-1848,808,192,808,434,-1009
4690,-1888,824,208,809,517,-1030
4695,-1856,936,112,792,577,-1044
4700,-1832,944,24,750,680,-1015
4705,-2000,840,208,655,704,-1020
4710,-1936,800,160,549,674,-1017
4715,-1944,736,256,460,681,-994
4720,-1944,768,208,378,642,-1022
4725,-1896,688,160,295,629,-1058
4730,-1088,1048,-120,228,640,-1092
4735,-2256,640,192,90,768,-1219
4740,-2336,568,264,112,666,-1090
4745,-1920,608,72,198,590,-1007
4750,-1840,648,72,219,602,-996
4755,-1616,680,-56,208,635,-1008
4760,-1832,1000,-128,155,667,-1068
4765,-2040,840,120,63,775,-1140
4770,-2288,800,176,17,805,-1171
4775,-1912,712,8,77,767,-1062
4780,-1848,760,-104,61,756,-1073
4785,-1912,680,-40,9,734,-1096
4790,-1640,456,-72,-16,688,-1128
4795,-2048,688,-72,-51,650,-1202
4800,-2040,688,-88,-48,665,-1266
4805,-1920,664,-88,-63,673,-1294
4810,-1784,616,-120,-113,661,-1341
4815,-1784,560,-56,-177,659,-1405
4820,-1840,456,-96,-221,661,-1464
4825,-1784,416,-80,-262,674,-1537
4830,-1968,432,-8,-333,689,-1615
4835,-1968,296,8,-381,678,-1679
4840,-2040,224,32,-415,649,-1732
4845,-2024,176,0,-432,605,-1773
4850,-2016,80,-16,-444,568,-1794
4855,-2016,16,-16,-429,527,-1804
4860,-2032,8,-88,-397,475,-1814
4865,-2128,8,-184,-392,391,-1842
4870,-2528,104,-328,-379,313,-1863
4875,-2664,64,-424,-368,290,-1836
4880,-2992,232,-376,-375,188,-1827
4885,-3352,360,-552,-339,97,-1802
4890,-2912,560,-528,-221,58,-1753
4895,-2032,440,-768,-77,248,-1681
4900,-2024,320,-720,-83,520,-1650
4905,-2224,184,-608,-201,685,-1622
4910,-2496,-48,-448,-359,721,-1590
4915,-2200,-440,-96,-494,670,-1548
4920,-2416,-448,120,-545,547,-1552
4925,-2296,-656,8,-451,525,-1507
4930,-1728,-1000,-8,-275,574,-1440
4935,-1496,-1232,-456,-194,504,-1475
4940,-1080,-1248,-672,-296,405,-1539
4945,-1048,-1256,-1008,-475,345,-1418
4950,-1664,-1272,-1152,-647,273,-1272
4955,-2320,-1120,-1208,-744,154,-1157
4960,-3040,-992,-1144,-757,-46,-1019
4965,-3120,-880,-1016,-696,-310,-841
4970,-3376,-752,-1096,-593,-631,-689
4975,-3480,-568,-1192,-487,-831,-485
4980,-3152,-336,-992,-422,-826,-150
4985,-2696,-224,-848,-401,-757,53
4990,-2592,-96,-664,-393,-621,197
4995,-2296,-88,-496,-388,-440,321
5000,-1704,-160,-208,-420,-243,408
5005,-1280,-240,-16,-484,-45,443
5010,-1072,-280,104,-545,169,449
5015,-1096,-240,288,-558,402,435
5020,-1120,-192,408,-514,587,403
5025,-1232,-184,512,-443,704,362
5030,-1248,-224,568,-376,742,310
5035,-1304,-216,576,-327,708,288
5040,-1376,-272,416,-298,656,277
5045,-1584,-280,296,-275,612,296
5050,-1640,-376,152,-275,579,338
5055,-1672,-408,48,-300,536,394
5060,-1624,-512,-104,-346,505,442
5065,-1784,-576,-128,-420,475,441
5070,-2032,-592,-176,-437,455,398
5075,-2120,-608,-264,-421,447,379
5080,-1976,-704,-296,-401,415,381
5085,-1872,-832,-344,-332,405,378
5090,-1928,-768,-400,-235,408,357
5095,-1984,-792,-368,-116,410,326
5100,-1992,-776,-392,21,410,296
5105,-2064,-680,-416,138,409,282
5110,-2104,-664,-448,198,395,265
5115,-2240,-488,-440,200,362,249
5120,-2184,-528,-536,191,354,236
5125,-2176,-528,-504,136,330,208
5130,-2160,-480,-496,86,303,164
5135,-2152,-416,-416,73,277,134
5140,-2128,-360,-416,101,252,109
5145,-2112,-304,-400,139,232,87
5150,-2136,-256,-472,166,219,64
5155,-2120,-280,-504,178,211,46
5160,-2136,-224,-536,178,207,30
5165,-2152,-160,-560,165,204,19
5170,-2160,-144,-616,144,203,8
5175,-2184,-128,-536,117,210,2
5180,-2208,-104,-544,87,217,-1
5185,-2184,-64,-520,51,222,-7
5190,-2152,-72,-480,27,226,-12
5195,-2152,-40,-456,6,228,-15
5200,-2136,-72,-432,-10,227,-21
5205,-2112,-112,-328,-21,226,-27
5210,-2096,-120,-312,-19,225,-32
5215,-2080,-120,-272,-5,229,-39
5220,-2040,-144,-248,22,234,-44
5225,-2088,-136,-264,51,237,-46
5230,-2064,-104,-272,76,245,-49
5235,-2104,-96,-272,102,253,-48
5240,-2088,-112,-248,118,257,-48
5245,-2096,-80,-272,133,269,-45
5250,-2048,-48,-336,147,279,-46
5255,-2032,-40,-336,148,290,-52
5260,-2000,-64,-336,136,301,-62
5265,-1976,-88,-416,122,302,-74
5270,-2024,-32,-480,104,298,-85
5275,-2072,-24,-520,76,286,-85
5280,-2072,-8,-496,50,272,-88
5285,-2104,8,-536,27,259,-86
5290,-2112,8,-520,10,250,-84
5295,-2120,24,-528,-5,247,-80
5300,-2128,32,-536,-21,245,-76
5305,-2112,40,-520,-39,242,-72
5310,-2096,0,-552,-58,235,-66
5315,-2064,0,-584,-77,228,-63
5320,-2080,-32,-576,-93,212,-64
5325,-2096,-40,-576,-106,196,-63
5330,-2088,-40,-592,-118,169,-67
5335,-2136,-64,-616,-134,150,-67
5340,-2128,-72,-608,-142,130,-63
5345,-2152,-72,-560,-148,115,-59
5350,-2152,-96,-584,-154,105,-55
5355,-2160,-104,-520,-157,95,-49
5360,-2152,-96,-520,-159,87,-44
5365,-2120,-120,-512,-162,80,-34
5370,-2144,-112,-520,-164,75,-26
5375,-2144,-144,-496,-163,68,-19
5380,-2136,-160,-448,-161,67,-10
5385,-2144,-160,-464,-149,67,-3
5390,-2128,-160,-400,-132,71,2
5395,-2072,-176,-384,-112,79,8
5400,-2048,-224,-392,-87,94,9
5405,-2056,-184,-376,-68,112,11
5410,-2056,-160,-392,-50,132,11
5415,-2048,-184,-352,-39,149,11
5420,-2040,-176,-392,-29,162,12
5425,-2096,-192,-464,-21,170,17
5430,-2024,-184,-376,-12,179,22
5435,-2032,-160,-408,3,183,26
5440,-2040,-160,-408,15,192,29
5445,-2040,-136,-400,23,200,32
5450,-2064,-152,-432,28,207,33
5455,-2032,-144,-448,30,217,35
5460,-2056,-128,-488,29,226,35
5465,-2024,-136,-496,23,236,36
5470,-2064,-136,-456,14,242,39
5475,-2048,-160,-472,0,245,40
5480,-2064,-152,-496,-8,246,36
5485,-2072,-160,-488,-9,245,33
5490,-2040,-144,-520,-10,241,33
5495,-2056,-144,-512,-19,238,36
5500,-2048,-160,-520,-31,236,38
5505,-2048,-160,-528,-42,233,37
5510,-2064,-176,-504,-48,227,36
5515,-2064,-224,-512,-54,222,36
5520,-2056,-232,-512,-45,213,29
5525,-2056,-208,-488,-28,203,26
5530,-2040,-208,-512,-17,194,26
5535,-2016,-208,-520,-12,184,23
5540,-2016,-232,-528,-20,176,23
5545,-2032,-232,-504,-21,164,20
5550,-2040,-240,-536,-15,149,15
5555,-2040,-248,-552,-6,133,11
5560,-2016,-224,-552,5,117,9
5565,-2040,-184,-568,11,101,5
5570,-2056,-168,-568,13,87,2
5575,-2064,-160,-544,13,75,-1
5580,-2072,-184,-576,14,62,-1
5585,-2080,-168,-560,9,56,-3
5590,-2072,-168,-568,7,47,-3
5595,-2056,-168,-584,2,37,-6
5600,-2072,-160,-544,-4,28,-7
5605,-2056,-160,-544,-8,20,-7
5610,-2072,-160,-528,-11,11,-4
5615,-2096,-176,-528,-13,4,-3
5620,-2064,-160,-544,-15,0,-2
5625,-2056,-192,-560,-14,-5,-1
5630,-2072,-176,-544,-11,-11,2
5635,-2072,-176,-528,-9,-18,3
5640,-2064,-168,-552,-9,-24,7
5645,-2088,-160,-528,-8,-31,9
5650,-2072,-160,-536,-6,-35,11
5655,-2032,-176,-520,-1,-40,13
5660,-2056,-168,-504,5,-42,17
5665,-2064,-152,-496,10,-45,19
5670,-2080,-152,-496,13,-45,20
5675,-2064,-152,-504,17,-48,22
5680,-2048,-152,-496,18,-44,25
5685,-2064,-160,-472,18,-38,24
5690,-2056,-144,-488,20,-36,27
5695,-2040,-136,-480,18,-33,26
5700,-2048,-152,-496,16,-26,26
5705,-2040,-160,-480,21,-19,24
5710,-2040,-152,-488,32,-7,19
5715,-2040,-128,-488,43,-3,17
5720,-2088,-120,-488,51,0,13
5725,-2072,-104,-480,56,1,12
5730,-2048,-88,-480,55,0,10
5735,-2072,-112,-488,49,0,6
5740,-2088,-88,-464,46,2,4
5745,-2080,-96,-464,40,4,2
5750,-2056,-96,-472,37,4,1
5755,-2056,-104,-472,32,3,-1
5760,-2056,-104,-456,25,4,1
5765,-2088,-112,-464,16,5,2
5770,-2088,-104,-472,9,6,1
5775,-2096,-104,-496,3,7,1
5780,-2096,-96,-496,-1,4,2
5785,-2072,-112,-464,-5,5,0
5790,-2088,-112,-448,-6,7,1
5795,-2080,-136,-472,-8,7,0
5800,-2048,-136,-504,-11,9,2
5805,-2072,-120,-464,-15,10,2
5810,-2048,-152,-472,-18,12,3
5815,-2064,-136,-464,-21,11,5
5820,-2072,-120,-456,-24,11,6
5825,-2080,-128,-440,-31,12,7
5830,-2072,-136,-488,-38,10,9
5835,-2072,-144,-480,-49,9,6
5840,-2096,-112,-472,-56,4,8
5845,-2096,-136,-456,-64,-1,7
5850,-2064,-128,-464,-72,-2,7
5855,-2088,-144,-480,-76,-3,5
5860,-2088,-152,-456,-83,1,4
5865,-2088,-128,-448,-91,5,2
5870,-2096,-136,-472,-96,8,-1
5875,-2080,-160,-464,-97,13,-5
5880,-2064,-152,-464,-94,17,-9
5885,-2080,-152,-480,-90,17,-13
5890,-2056,-168,-464,-88,16,-14
5895,-2056,-168,-480,-83,17,-18
5900,-2088,-144,-480,-78,13,-18
5905,-2056,-168,-496,-73,11,-21
5910,-2048,-160,-496,-67,9,-19
5915,-2064,-152,-488,-65,6,-21
5920,-2048,-160,-496,-62,4,-20
5925,-2048,-152,-504,-62,4,-23
5930,-2048,-152,-472,-60,2,-24
5935,-2080,-160,-496,-59,0,-24
5940,-2056,-160,-480,-60,0,-22
5945,-2064,-168,-472,-59,0,-24
5950,-2072,-144,-456,-58,-2,-24
5955,-2040,-176,-488,-57,-5,-24
5960,-2064,-168,-456,-53,-7,-25
5965,-2024,-176,-472,-50,-9,-24
5970,-2064,-152,-448,-47,-10,-22
5975,-2072,-160,-448,-43,-10,-23
5980,-2048,-160,-448,-41,-10,-20
5985,-2064,-176,-456,-39,-10,-20
5990,-2040,-144,-440,-39,-12,-19
5995,-2040,-152,-440,-38,-9,-19
6000,-2080,-160,-448,-38,-8,-17
6005,-2072,-152,-440,-39,-7,-19
6010,-2064,-152,-464,-39,-5,-16
6015,-2056,-144,-464,-39,-3,-13
6020,-2048,-152,-456,-38,1,-11
6025,-2056,-128,-456,-38,2,-12
6030,-2032,-152,-424,-38,7,-10
6035,-2056,-144,-440,-38,10,-10
6040,-2056,-160,-432,-37,12,-8
6045,-2056,-160,-432,-34,16,-8
6050,-2056,-152,-432,-31,18,-6
6055,-2072,-152,-456,-31,20,-8
6060,-2056,-144,-448,-31,20,-5
6065,-2080,-136,-448,-30,23,-5
6070,-2072,-152,-400,-28,24,-4
6075,-2088,-144,-472,-26,25,-4
6080,-2064,-128,-416,-23,27,-1
6085,-2064,-152,-416,-22,29,-2
6090,-2080,-144,-440,-23,32,1
6095,-2064,-152,-424,-26,36,-2
6100,-2056,-144,-416,-28,41,2
6105,-2056,-144,-448,-32,46,2
6110,-2072,-136,-424,-33,52,5
6115,-2064,-144,-440,-36,55,4
6120,-2080,-152,-416,-37,59,6
6125,-2072,-144,-424,-38,60,5
6130,-2072,-152,-416,-38,64,7
6135,-2080,-136,-416,-36,66,6
6140,-2064,-160,-456,-35,69,9
6145,-2064,-144,-456,-35,71,9
6150,-2064,-152,-440,-33,74,11
6155,-2080,-136,-432,-32,78,8
6160,-2072,-144,-432,-27,82,9
6165,-2064,-136,-456,-25,86,7
6170,-2056,-152,-432,-21,87,7
6175,-2048,-152,-456,-18,86,3
6180,-2056,-160,-464,-18,84,3
6185,-2080,-160,-440,-17,83,1
6190,-2080,-152,-424,-18,83,2
6195,-2064,-152,-432,-18,80,0
6200,-2056,-176,-448,-17,80,1
6205,-2064,-136,-488,-17,78,-1
6210,-2080,-160,-496,-17,78,0
6215,-2064,-144,-456,-14,73,-3
6220,-2056,-160,-480,-17,71,-1
6225,-2056,-152,-464,-18,68,-1
6230,-2064,-160,-464,-22,65,0
6235,-2056,-160,-456,-25,62,-2
6240,-2056,-152,-448,-28,57,-1
6245,-2088,-136,-456,-29,55,-4
6250,-2088,-152,-456,-29,52,-4
6255,-2056,-160,-432,-30,51,-6
6260,-2088,-128,-456,-29,50,-6
6265,-2056,-160,-424,-29,49,-8
6270,-2064,-144,-448,-30,50,-7
6275,-2056,-152,-456,-28,50,-8
6280,-2080,-144,-448,-27,49,-8
6285,-2080,-128,-424,-22,49,-10
6290,-2056,-160,-456,-20,47,-8
6295,-2064,-152,-424,-19,44,-10
6300,-2072,-144,-464,-18,45,-8
6305,-2064,-160,-448,-16,45,-8
6310,-2056,-144,-448,-16,44,-7
6315,-2080,-144,-464,-17,46,-10
6320,-2072,-160,-424,-16,48,-8
6325,-2056,-144,-456,-15,46,-10
6330,-2072,-152,-432,-17,45,-7
6335,-2048,-160,-464,-17,45,-9
6340,-2064,-152,-400,-16,47,-7
6345,-2048,-160,-440,-17,48,-9
6350,-2064,-160,-432,-17,49,-6
6355,-2064,-128,-448,-15,49,-9
6360,-2072,-144,-432,-16,51,-7
6365,-2048,-152,-456,-16,52,-8
6370,-2064,-144,-448,-15,53,-7
6375,-2056,-144,-456,-14,55,-9
6380,-2072,-152,-464,-12,59,-5
6385,-2056,-152,-456,-12,61,-6
6390,-2064,-136,-448,-11,63,-6
6395,-2072,-160,-464,-8,65,-7
6400,-2048,-160,-432,-7,65,-5
6405,-2064,-144,-464,-4,68,-7
6410,-2080,-144,-456,-4,68,-6
6415,-2064,-144,-472,-4,68,-8
6420,-2040,-144,-472,-3,68,-6
6425,-2056,-136,-424,-4,68,-9
6430,-2064,-160,-432,-3,67,-9
6435,-2088,-152,-440,-3,67,-13
6440,-2056,-136,-464,-5,64,-11
6445,-2064,-152,-472,-4,63,-16
6450,-2056,-160,-432,-4,62,-15
6455,-2072,-160,-456,-5,60,-18
6460,-2056,-160,-448,-5,57,-16
6465,-2056,-144,-488,-6,54,-19
6470,-2088,-152,-456,-7,52,-16
6475,-2072,-160,-496,-11,47,-18
6480,-2056,-160,-448,-11,41,-17
6485,-2072,-144,-472,-15,38,-20
6490,-2072,-136,-472,-15,36,-18
6495,-2072,-136,-456,-18,33,-19
6500,-2088,-160,-464,-21,31,-17
6505,-2096,-144,-464,-23,29,-20
6510,-2056,-152,-440,-26,28,-17
6515,-2080,-144,-456,-28,30,-21
6520,-2072,-160,-456,-28,31,-19
6525,-2088,-160,-432,-27,32,-23
6530,-2056,-160,-440,-27,32,-20
6535,-2064,-160,-400,-26,33,-25
6540,-2072,-152,-440,-25,33,-23
6545,-2056,-160,-440,-25,33,-26
6550,-2064,-160,-408,-25,34,-24
6555,-2064,-152,-456,-27,31,-26
6560,-2048,-152,-416,-30,28,-25
6565,-2080,-152,-416,-32,28,-28
6570,-2056,-152,-424,-33,29,-26
6575,-2072,-136,-432,-41,26,-28
6580,-2072,-144,-424,-46,25,-27
6585,-2064,-144,-408,-52,25,-28
6590,-2056,-160,-416,-54,28,-25
6595,-2080,-136,-432,-56,32,-30
6600,-2088,-120,-432,-57,34,-30
6605,-2112,-144,-440,-58,39,-35
6610,-2088,-136,-440,-58,47,-38
6615,-2072,-160,-464,-55,51,-46
6620,-2080,-152,-424,-53,54,-48
6625,-2064,-152,-440,-50,59,-55
6630,-2064,-152,-440,-47,62,-58
6635,-2064,-160,-464,-43,61,-63
6640,-2048,-152,-424,-41,58,-65
6645,-2056,-152,-456,-40,50,-70
6650,-2048,-160,-432,-40,42,-69
6655,-2040,-152,-472,-40,32,-73
6660,-2064,-152,-456,-39,22,-73
6665,-2072,-160,-472,-40,13,-75
6670,-2064,-160,-464,-39,7,-73
6675,-2072,-144,-480,-42,0,-76
6680,-2096,-160,-496,-44,-8,-72
6685,-2088,-160,-472,-45,-11,-72
6690,-2096,-128,-496,-45,-12,-69
6695,-2072,-160,-448,-44,-13,-69
6700,-2096,-152,-456,-44,-13,-62
6705,-2096,-160,-464,-45,-11,-60
6710,-2088,-160,-464,-46,-10,-54
6715,-2080,-168,-440,-45,-7,-50
6720,-2104,-160,-424,-45,-6,-42
6725,-2072,-208,-408,-44,-3,-36
6730,-2048,-192,-432,-40,1,-29
6735,-2080,-168,-416,-34,4,-25
6740,-2072,-184,-456,-29,7,-17
6745,-2080,-216,-384,-24,10,-14
6750,-2064,-192,-408,-17,11,-7
6755,-2048,-208,-392,-12,15,-5
6760,-2056,-160,-376,-9,19,2
6765,-2072,-208,-368,-7,24,4
6770,-2048,-200,-352,-4,25,11
6775,-2064,-224,-376,-2,29,13
6780,-2048,-232,-376,4,35,19
6785,-2056,-192,-408,7,41,21
6790,-2048,-216,-368,9,45,25
6795,-2048,-192,-392,11,48,25
6800,-2048,-192,-392,12,54,29
6805,-2040,-208,-392,10,58,28
6810,-2064,-176,-408,9,63,31
6815,-2032,-192,-376,9,66,29
6820,-2024,-200,-424,7,67,33
6825,-2032,-160,-416,6,67,31
6830,-2040,-216,-376,7,68,31
6835,-2064,-168,-400,7,66,29
6840,-2024,-192,-408,6,66,30
6845,-2032,-176,-400,4,64,27
6850,-2072,-160,-408,3,63,29
6855,-2056,-160,-408,1,65,26
6860,-2056,-168,-416,1,66,28
6865,-2056,-160,-408,2,66,24
6870,-2056,-160,-424,3,66,26
6875,-2056,-160,-424,8,66,22
6880,-2064,-160,-416,12,68,25
6885,-2080,-152,-456,13,68,20
6890,-2072,-160,-400,15,67,21
6895,-2088,-160,-416,16,66,18
6900,-2080,-160,-408,19,64,17
6905,-2088,-160,-432,20,63,13
6910,-2080,-160,-440,23,60,14
6915,-2088,-144,-424,25,58,9
6920,-2104,-160,-424,24,54,11
6925,-2096,-176,-448,25,54,3
6930,-2088,-136,-416,24,52,3
6935,-2088,-152,-432,22,51,0
6940,-2056,-176,-456,23,49,-2
6945,-2064,-160,-448,21,47,-6
6950,-2064,-160,-448,20,48,-5
6955,-2080,-128,-416,18,50,-9
6960,-2104,-136,-440,17,49,-8
6965,-2072,-152,-432,15,48,-12
6970,-2072,-152,-456,14,46,-11
6975,-2096,-160,-424,15,46,-13
6980,-2072,-160,-432,13,45,-11
6985,-2072,-144,-416,13,45,-15
6990,-2088,-136,-400,11,43,-13
6995,-2072,-160,-416,9,42,-14
7000,-2080,-160,-424,9,43,-13
7005,-2088,-152,-456,7,42,-14
7010,-2048,-160,-448,5,43,-12
7015,-2072,-152,-368,5,43,-15
7020,-2064,-160,-432,1,44,-11
7025,-2056,-160,-416,-2,46,-13
7030,-2072,-160,-392,-4,47,-10
7035,-2072,-168,-432,-6,49,-10
7040,-2080,-160,-416,-8,52,-10
7045,-2048,-152,-400,-8,53,-11
7050,-2080,-152,-416,-8,55,-8
7055,-2064,-168,-416,-10,56,-9
7060,-2064,-160,-416,-10,55,-7
7065,-2072,-160,-400,-12,57,-8
7070,-2088,-152,-400,-15,59,-5
7075,-2040,-168,-432,-18,59,-6
7080,-2080,-160,-392,-21,60,-2
7085,-2072,-160,-408,-22,61,-4
7090,-2072,-160,-416,-25,62,-2
7095,-2080,-176,-400,-27,63,-3
7100,-2064,-168,-408,-29,62,-1
7105,-2080,-160,-392,-27,63,-2
7110,-2096,-160,-400,-25,64,-1
7115,-2048,-160,-416,-24,63,-3
7120,-2080,-176,-416,-23,64,0
7125,-2088,-160,-400,-22,65,-3
7130,-2048,-200,-408,-22,66,-2
7135,-2056,-184,-432,-22,67,-4
7140,-2064,-160,-448,-21,65,-3
7145,-2056,-184,-424,-20,65,-6
7150,-2048,-168,-400,-20,65,-4
7155,-2056,-160,-424,-19,64,-6
7160,-2048,-168,-416,-20,63,-3
7165,-2072,-160,-400,-21,62,-5
7170,-2048,-168,-424,-19,61,-2
7175,-2080,-160,-432,-18,60,-5
7180,-2056,-160,-424,-18,59,-4
7185,-2064,-160,-384,-17,57,-5
7190,-2088,-160,-432,-16,57,-5
7195,-2064,-168,-416,-16,56,-7
7200,-2064,-160,-416,-14,56,-5
7205,-2080,-176,-416,-14,56,-7
7210,-2016,-264,-360,-13,54,-5
7215,-2080,-160,-408,-12,53,-7
7220,-2072,-160,-416,-11,53,-5
7225,-2064,-168,-400,-11,52,-7
7230,-2088,-184,-408,-9,52,-7
7235,-2088,-176,-416,-6,50,-8
7240,-2072,-176,-392,-4,51,-5
7245,-2088,-160,-424,0,50,-9
7250,-2064,-160,-424,0,51,-4
7255,-2072,-160,-432,1,53,-5
7260,-2040,-160,-392,0,54,-3
7265,-2064,-160,-408,-1,55,-6
7270,-2056,-160,-392,0,56,-5
7275,-2064,-160,-408,0,56,-5
7280,-2064,-160,-408,1,57,-3
7285,-2064,-168,-416,-1,57,-4
7290,-2096,-152,-408,-1,58,-3
7295,-2064,-160,-424,-2,57,-2
7300,-2080,-160,-432,-3,56,0
7305,-2096,-152,-432,-4,56,-1
7310,-2072,-176,-408,-7,58,1
7315,-2104,-168,-440,-7,57,-1
7320,-2088,-152,-400,-8,59,2
7325,-2056,-168,-416,-9,60,0
7330,-2072,-160,-400,-10,62,2
7335,-2072,-160,-432,-10,63,1
7340,-2048,-160,-408,-9,63,3
7345,-2064,-160,-408,-11,61,2
7350,-2064,-168,-408,-11,60,5
7355,-2072,-160,-432,-12,61,4
7360,-2072,-160,-432,-12,60,5
7365,-2080,-160,-432,-11,60,3
7370,-2064,-152,-440,-12,61,5
7375,-2080,-152,-432,-12,62,2
7380,-2080,-160,-416,-13,61,3
7385,-2056,-176,-440,-12,62,1
7390,-2056,-144,-416,-11,61,2
7395,-2072,-176,-408,-9,61,-1
7400,-2080,-160,-432,-11,60,0
7405,-2088,-160,-400,-14,58,-2
7410,-2056,-160,-424,-17,59,0
7415,-2040,-192,-432,-18,58,-3
7420,-2064,-176,-440,-17,58,-1
7425,-2056,-160,-448,-16,58,-2
7430,-2064,-176,-432,-15,57,-1
7435,-2064,-160,-424,-17,56,-1
7440,-2072,-176,-408,-17,55,2
7445,-2056,-144,-416,-18,54,-1
7450,-2072,-160,-392,-17,56,0
7455,-2056,-160,-408,-16,55,-3
7460,-2072,-160,-384,-14,56,-1
7465,-2072,-144,-400,-13,55,-2
7470,-2056,-160,-400,-14,53,-2
7475,-2080,-160,-408,-16,54,-4
7480,-2064,-160,-392,-17,54,-3
7485,-2072,-160,-424,-19,56,-6
7490,-2072,-160,-432,-20,58,-4
7495,-2080,-160,-384,-18,60,-5
7500,-2056,-160,-416,-15,61,-4
7505,-2056,-168,-432,-13,61,-6
7510,-2096,-160,-408,-12,60,-4
7515,-2080,-160,-400,-10,60,-6
7520,-2056,-168,-416,-8,59,-5
7525,-2064,-160,-424,-6,56,-6
7530,-2064,-160,-424,-6,55,-6
7535,-2064,-160,-400,-5,55,-6
7540,-2064,-168,-432,-7,54,-5
7545,-2080,-160,-408,-6,54,-6
7550,-2080,-152,-416,-8,52,-5
7555,-2080,-160,-408,-9,52,-7
7560,-2072,-176,-400,-8,53,-4
7565,-2048,-152,-424,-10,52,-6
7570,-2072,-152,-432,-11,54,-4
7575,-2064,-160,-400,-13,53,-3
7580,-2064,-192,-416,-13,53,-2
7585,-2056,-160,-424,-14,53,-3
7590,-2080,-160,-432,-14,53,-3
7595,-2056,-192,-392,-13,52,-3
7600,-2072,-160,-416,-11,51,-2
7605,-2064,-160,-416,-11,51,-3
7610,-2072,-160,-416,-9,51,-1
7615,-2072,-152,-408,-9,52,-2
7620,-2048,-160,-424,-11,51,1
7625,-2064,-160,-408,-9,52,-1
7630,-2072,-160,-424,-10,52,0
7635,-2072,-160,-424,-11,51,1
7640,-2088,-160,-408,-11,51,0
7645,-2056,-160,-432,-11,51,0
7650,-2072,-160,-392,-11,51,2
7655,-2064,-160,-392,-12,51,1
7660,-2056,-152,-408,-11,51,1
7665,-2080,-160,-408,-11,52,1
7670,-2056,-168,-424,-10,53,1
7675,-2064,-152,-440,-9,54,2
7680,-2072,-160,-408,-9,52,-1
7685,-2080,-176,-440,-8,51,-3
7690,-2096,-160,-408,-8,51,-2
7695,-2056,-160,-392,-6,50,-2
7700,-2080,-160,-424,-7,50,-1
7705,-2064,-152,-416,-7,50,-3
7710,-2080,-168,-408,-7,49,-3
7715,-2048,-160,-416,-7,49,-5
7720,-2080,-160,-408,-8,50,-3
7725,-2080,-160,-384,-10,50,-3
7730,-2080,-160,-400,-13,52,-4
7735,-2056,-168,-416,-15,54,-4
7740,-2072,-168,-384,-15,55,-4
7745,-2040,-160,-384,-15,55,-6
7750,-2072,-160,-416,-15,56,-5
7755,-2088,-168,-400,-16,56,-6
7760,-2064,-192,-400,-17,57,-5
7765,-2072,-160,-432,-16,56,-4
7770,-2056,-176,-416,-14,56,-3
7775,-2056,-184,-392,-12,57,-5
7780,-2064,-152,-416,-12,59,-3
7785,-2056,-160,-424,-12,60,-4
7790,-2088,-160,-416,-11,58,-3
7795,-2080,-160,-432,-10,59,-4
7800,-2064,-160,-424,-9,58,-3
7805,-2064,-160,-392,-8,59,-4
7810,-2064,-144,-392,-9,59,-4
7815,-2096,-160,-376,-10,59,-5
7820,-2072,-160,-408,-11,60,-4
7825,-2072,-152,-416,-12,59,-4
7830,-2096,-160,-384,-13,60,-2
7835,-2056,-168,-392,-13,61,-4
7840,-2080,-160,-424,-12,62,-2
7845,-2056,-160,-440,-14,64,-3
7850,-2064,-160,-416,-13,64,-3
7855,-2080,-160,-384,-15,64,-3
7860,-2080,-160,-400,-15,66,-1
7865,-2064,-160,-424,-14,66,-2
7870,-2072,-168,-400,-14,64,-1
7875,-2048,-160,-416,-15,63,-2
7880,-2080,-160,-408,-15,64,-2
7885,-2048,-160,-416,-15,63,-1
7890,-2064,-160,-408,-16,64,-2
7895,-2072,-160,-408,-15,64,-1
7900,-2072,-160,-408,-14,64,-2
7905,-2088,-160,-416,-14,64,-2
7910,-2048,-160,-400,-16,65,-1
7915,-2088,-160,-392,-15,66,-1
7920,-2064,-192,-448,-15,65,-1
7925,-2064,-184,-424,-13,64,-1
7930,-2088,-160,-424,-13,64,-2
7935,-2072,-160,-416,-12,61,-1
7940,-2080,-160,-400,-11,61,-1
7945,-2096,-152,-424,-10,61,-1
7950,-2072,-176,-432,-10,60,0
7955,-2064,-184,-400,-10,60,-1
7960,-2080,-160,-384,-9,61,1
7965,-2056,-160,-416,-9,61,0
7970,-2048,-192,-424,-9,61,-1
7975,-2072,-160,-424,-9,61,-2
7980,-2080,-176,-408,-8,58,-1
7985,-2064,-160,-432,-7,59,-2
7990,-2056,-160,-432,-8,58,-1
7995,-2072,-160,-424,-7,58,-1
8000,-2048,-176,-400,-8,58,-1
8005,-2080,-160,-376,-6,57,0
8010,-2080,-160,-408,-8,57,-1
8015,-2072,-160,-424,-8,58,-1
8020,-2080,-160,-416,-9,57,0
8025,-2080,-160,-416,-10,58,-1
8030,-2080,-160,-400,-10,60,-1
8035,-2048,-160,-400,-10,58,-2
8040,-2072,-152,-456,-10,60,-1
8045,-2064,-152,-408,-11,61,0
8050,-2064,-160,-408,-12,59,0
8055,-2072,-168,-432,-13,58,-1
8060,-2064,-176,-408,-12,58,-1
8065,-2072,-168,-440,-11,57,-1
8070,-2088,-168,-440,-13,57,-1
8075,-2072,-160,-408,-11,56,-1
8080,-2096,-160,-432,-8,56,-2
8085,-2072,-160,-424,-8,57,-1
8090,-2080,-176,-424,-7,58,-1
8095,-2072,-160,-384,-9,58,1
8100,-2064,-168,-376,-12,58,-2
8105,-2072,-160,-376,-14,57,-1
8110,-2080,-152,-384,-18,56,-3
8115,-2056,-168,-424,-17,56,-4
8120,-2064,-184,-416,-18,58,-2
8125,-2064,-160,-456,-14,56,-1
8130,-2072,-160,-432,-13,57,-1
8135,-2056,-160,-432,-13,57,0
8140,-2072,-160,-400,-14,57,-1
8145,-2064,-168,-408,-15,59,-1
8150,-2088,-160,-408,-15,60,0
8155,-2096,-160,-400,-14,61,1
8160,-2072,-176,-360,-14,62,1
8165,-2080,-160,-408,-13,61,0
8170,-2088,-160,-384,-14,60,0
8175,-2072,-160,-424,-16,61,-1
8180,-2064,-168,-424,-19,62,-2
8185,-2064,-160,-400,-17,62,-1
8190,-2080,-160,-416,-16,64,-2
8195,-2088,-184,-416,-15,64,-1
8200,-2088,-152,-400,-13,64,-3
8205,-2088,-160,-416,-12,64,-2
8210,-2072,-176,-424,-10,64,-2
8215,-2064,-152,-408,-9,64,-2
8220,-2072,-160,-408,-7,62,-4
8225,-2064,-168,-448,-7,63,-1
8230,-2064,-176,-432,-6,63,-3
8235,-2056,-160,-440,-6,62,-1
8240,-2080,-176,-376,-6,61,-2
8245,-2056,-192,-392,-7,61,-1
8250,-2056,-160,-376,-7,62,-4
8255,-2064,-168,-392,-8,61,-2
8260,-2056,-160,-392,-8,64,-2
8265,-2064,-160,-416,-8,63,-3
8270,-2056,-168,-408,-8,62,-5
8275,-2072,-152,-408,-10,61,-3
8280,-2096,-160,-424,-10,62,-4
8285,-2072,-160,-392,-12,61,-2
8290,-2040,-192,-416,-14,61,-4
8295,-2080,-168,-400,-12,63,-2
8300,-2064,-168,-408,-12,62,-3
8305,-2072,-160,-448,-13,62,-2
8310,-2080,-160,-432,-13,62,-2
8315,-2080,-160,-400,-12,63,-2
8320,-2072,-192,-400,-10,62,-2
8325,-2056,-176,-416,-10,61,-1
8330,-2080,-160,-392,-10,60,-2
8335,-2080,-168,-432,-11,60,0
8340,-2048,-160,-424,-11,59,-1
8345,-2072,-160,-416,-11,58,-1
8350,-2048,-168,-408,-10,59,-2
8355,-2072,-168,-408,-9,59,-1
8360,-2064,-152,-400,-9,59,-1
8365,-2080,-160,-424,-8,60,-1
8370,-2072,-160,-416,-8,59,-2
8375,-2064,-160,-408,-8,59,0
8380,-2072,-160,-424,-8,57,-2
8385,-2080,-168,-440,-9,57,-2
8390,-2096,-160,-448,-9,57,-3
8395,-2064,-184,-400,-10,56,-3
8400,-2080,-160,-408,-8,56,-4
8405,-2088,-160,-416,-8,56,-3
8410,-2080,-160,-424,-7,55,-4
8415,-2056,-160,-400,-8,58,-2
8420,-2056,-160,-440,-9,60,-4
8425,-2080,-168,-400,-11,59,-2
8430,-2096,-160,-384,-13,58,-4
8435,-2080,-160,-440,-12,57,-3
8440,-2072,-160,-408,-11,56,-5
8445,-2072,-168,-392,-11,54,-2
8450,-2080,-160,-392,-9,54,-3
8455,-2064,-176,-416,-12,55,-2
8460,-2080,-152,-408,-11,55,-1
8465,-2064,-160,-432,-11,56,-1
8470,-2072,-160,-416,-12,56,-4
8475,-2080,-160,-424,-12,56,-2
8480,-2080,-152,-400,-12,56,-4
8485,-2080,-160,-392,-12,56,-2
8490,-2072,-160,-416,-11,57,-4
8495,-2080,-160,-400,-11,58,-1
8500,-2088,-160,-432,-11,58,-3
8505,-2088,-160,-400,-11,59,-1
8510,-2088,-160,-392,-11,59,-2
8515,-2048,-184,-416,-10,61,-3
8520,-2064,-160,-416,-12,61,-3
8525,-2072,-168,-400,-12,62,-2
8530,-2080,-160,-392,-11,60,-4
8535,-2080,-168,-384,-12,59,-2
8540,-2072,-160,-408,-12,60,-3
8545,-2072,-160,-408,-13,59,0
8550,-2088,-144,-392,-13,59,-3
8555,-2064,-176,-424,-13,58,-2
8560,-2072,-160,-384,-14,59,-2
8565,-2064,-160,-392,-15,59,-1
8570,-2088,-160,-392,-15,59,-4
8575,-2056,-176,-424,-15,59,-2
8580,-2088,-152,-400,-15,59,-4
8585,-2088,-160,-400,-14,57,-2
8590,-2048,-184,-416,-14,58,-4
8595,-2072,-160,-408,-16,60,-1
8600,-2072,-160,-400,-15,61,-3
8605,-2072,-160,-416,-13,60,-1
8610,-2072,-160,-416,-13,61,-3
8615,-2056,-176,-416,-14,62,0
8620,-2072,-160,-416,-13,61,-3
8625,-2056,-152,-408,-12,60,-2
8630,-2048,-168,-408,-11,60,-4
8635,-2056,-160,-400,-12,60,-1
8640,-2064,-152,-424,-13,59,-3
8645,-2048,-168,-400,-13,58,-2
8650,-2064,-160,-416,-12,58,-3
8655,-2056,-176,-424,-13,57,-1
8660,-2064,-168,-392,-13,56,-4
8665,-2072,-152,-416,-14,56,-3
8670,-2080,-168,-424,-14,57,-4
8675,-2064,-176,-432,-14,58,-1
8680,-2080,-144,-400,-13,58,-3
8685,-2080,-160,-424,-12,59,-1
8690,-2064,-184,-432,-11,61,-3
8695,-2088,-160,-432,-10,61,-1
8700,-2064,-160,-400,-9,58,-4
8705,-2064,-168,-456,-9,60,-1
8710,-2080,-160,-408,-10,59,-3
8715,-2080,-160,-424,-11,61,-1
8720,-2048,-160,-384,-11,60,-2
8725,-2080,-168,-416,-13,61,0
8730,-2080,-168,-416,-10,59,-3
8735,-2056,-160,-384,-10,60,-1
8740,-2064,-176,-400,-11,59,-3
8745,-2096,-160,-392,-11,59,-2
8750,-2064,-160,-416,-11,60,-4
8755,-2072,-160,-400,-13,60,-1
8760,-2040,-160,-376,-14,61,-3
8765,-2056,-160,-384,-14,61,0
8770,-2064,-176,-384,-13,61,-3
8775,-2072,-160,-424,-13,60,0
8780,-2048,-168,-416,-15,60,-3
8785,-2064,-152,-400,-19,61,0
8790,-2064,-160,-424,-21,60,-2
8795,-2056,-160,-424,-20,59,1
8800,-2072,-160,-408,-21,58,-1
8805,-2064,-152,-408,-21,58,1
8810,-2072,-184,-392,-22,58,-2
8815,-2072,-160,-376,-22,59,0
8820,-2080,-160,-416,-20,60,-3
8825,-2080,-160,-408,-19,59,0
8830,-2064,-160,-392,-21,60,-2
8835,-2064,-168,-408,-23,60,-1
8840,-2072,-160,-400,-26,59,-3
8845,-2056,-184,-424,-29,58,-2
8850,-2104,-168,-416,-32,59,-3
8855,-2088,-160,-376,-36,59,-2
8860,-2080,-160,-400,-37,62,-5
8865,-2088,-160,-424,-36,61,-3
8870,-2056,-184,-432,-35,61,-4
8875,-2064,-168,-424,-34,63,-1
8880,-2056,-160,-408,-34,65,-5
8885,-2096,-160,-392,-35,66,-2
8890,-2088,-160,-392,-34,64,-5
8895,-2080,-144,-392,-34,65,-2
8900,-2072,-152,-408,-34,66,-3
8905,-2056,-160,-384,-33,65,-1
8910,-2056,-168,-400,-33,65,-3
8915,-2088,-160,-400,-34,66,-3
8920,-2088,-152,-416,-34,68,-4
8925,-2064,-160,-392,-34,69,-1
8930,-2056,-152,-416,-33,69,-4
8935,-2072,-160,-440,-33,70,-2
8940,-2072,-160,-440,-32,71,-5
8945,-2080,-152,-424,-30,70,-2
8950,-2096,-160,-432,-29,69,-5
8955,-2072,-184,-432,-28,69,-2
8960,-2056,-192,-432,-26,68,-3
8965,-2088,-160,-440,-23,66,-2
8970,-2080,-152,-408,-21,65,-5
8975,-2072,-160,-416,-20,66,-2
8980,-2072,-160,-408,-20,65,-5
8985,-2064,-160,-432,-20,65,-2
8990,-2064,-152,-432,-20,64,-4
8995,-2000,-168,-464,-21,66,-1
9000,-2072,-176,-408,-23,66,-4
9005,-2064,-160,-408,-23,65,-1
9010,-2088,-176,-392,-23,65,-4
9015,-2056,-168,-392,-25,64,-2
9020,-2064,-168,-416,-26,63,-5
9025,-2064,-160,-416,-28,61,-2
9030,-2048,-168,-416,-29,61,-3
9035,-2064,-176,-424,-28,59,-1
9040,-2056,-160,-400,-27,59,-3
9045,-2064,-160,-392,-28,61,-2
9050,-2056,-160,-416,-28,61,-3
9055,-2072,-176,-432,-26,61,-1
9060,-2048,-176,-424,-25,63,-5
9065,-2080,-144,-416,-25,62,-1
9070,-2080,-160,-416,-23,61,-3
9075,-2056,-160,-440,-22,60,0
9080,-2064,-160,-416,-21,60,-2
9085,-2064,-160,-408,-21,61,0
9090,-2048,-160,-416,-21,60,-3
9095,-2072,-160,-424,-22,58,-1
9100,-2064,-160,-432,-21,59,-3
9105,-2048,-160,-408,-21,57,-1
9110,-2064,-160,-408,-21,56,-3
9115,-2080,-160,-416,-22,55,-1
9120,-2064,-160,-424,-22,55,-5
9125,-2072,-168,-424,-22,54,-3
9130,-2056,-168,-408,-22,53,-5
9135,-2064,-160,-408,-22,52,-3
9140,-2072,-160,-408,-21,54,-5
9145,-2064,-176,-416,-21,53,-3
9150,-2056,-176,-440,-22,54,-4
9155,-2072,-168,-384,-23,53,-2
9160,-2080,-168,-400,-25,53,-5
9165,-2056,-160,-392,-25,54,-2
9170,-2064,-160,-408,-25,54,-4
9175,-2072,-152,-432,-27,56,-1
9180,-2080,-160,-408,-27,58,-4
9185,-2064,-184,-416,-28,57,-2
9190,-2056,-160,-408,-28,57,-4
9195,-2056,-160,-408,-26,58,-3
9200,-2048,-160,-400,-25,58,-4
9205,-2056,-160,-400,-24,58,-3
9210,-2088,-160,-432,-23,58,-5
9215,-2080,-160,-392,-24,58,-3
9220,-2080,-160,-416,-22,58,-6
9225,-2080,-160,-448,-22,58,-3
9230,-2040,-160,-392,-21,60,-6
9235,-2080,-152,-400,-21,62,-3
9240,-2064,-160,-416,-19,64,-5
9245,-2056,-160,-416,-19,65,-2
9250,-2056,-152,-416,-20,66,-5
9255,-2056,-160,-408,-19,66,-3
9260,-2048,-168,-392,-18,65,-5
9265,-2080,-184,-392,-20,66,-2
9270,-2048,-160,-392,-21,64,-4
9275,-2072,-176,-400,-22,62,-1
9280,-2072,-184,-384,-24,61,-3
9285,-2072,-152,-416,-23,60,-2
9290,-2064,-176,-416,-23,59,-3
9295,-2088,-152,-432,-23,59,0
9300,-2072,-160,-424,-24,61,-3
9305,-2072,-160,-432,-24,62,0
9310,-2048,-184,-424,-22,61,-3
9315,-2056,-176,-400,-20,63,-1
9320,-2056,-168,-392,-19,62,-3
9325,-2064,-160,-416,-18,62,0
9330,-2056,-160,-424,-17,61,-3
9335,-2080,-160,-408,-17,60,-1
9340,-2080,-168,-424,-16,60,-3
9345,-2088,-160,-424,-16,56,-1
9350,-2056,-168,-416,-16,57,-3
9355,-2080,-152,-432,-17,57,0
9360,-2072,-176,-432,-18,55,-3
9365,-2048,-160,-416,-18,57,0
9370,-2064,-192,-408,-17,57,-2
9375,-2056,-160,-392,-16,57,1
9380,-2032,-160,-408,-16,56,-2
9385,-2080,-160,-416,-16,56,0
9390,-2072,-160,-392,-15,58,-2
9395,-2064,-160,-416,-16,58,-1
9400,-2056,-152,-408,-14,59,-1
9405,-2080,-152,-432,-15,57,1
9410,-2072,-160,-408,-15,54,-2
9415,-2056,-168,-392,-15,54,-1
9420,-2080,-160,-400,-15,51,-3
9425,-2088,-152,-408,-15,52,0
9430,-2096,-152,-408,-14,52,-3
9435,-2048,-160,-400,-13,53,0
9440,-2072,-184,-424,-16,55,-3
9445,-2080,-176,-400,-15,56,-1
9450,-2064,-160,-416,-13,56,-3
9455,-2064,-160,-416,-11,56,-2
9460,-2072,-176,-424,-11,55,-4
9465,-2056,-160,-424,-8,54,-2
9470,-2080,-160,-400,-9,56,-4
9475,-2088,-160,-392,-10,56,-3
9480,-2072,-160,-408,-10,57,-5
9485,-2048,-160,-416,-10,53,-2
9490,-2064,-160,-416,-11,54,-5
9495,-2056,-160,-400,-11,56,-1
9500,-2072,-160,-448,-11,56,-4
9505,-2064,-160,-400,-11,57,-1
9510,-2072,-160,-424,-11,55,-3
9515,-2088,-160,-384,-12,57,-2
9520,-2072,-160,-408,-12,56,-3
9525,-2072,-176,-416,-13,56,-1
9530,-2064,-152,-400,-13,56,-5
9535,-2064,-168,-440,-12,56,-3
9540,-2072,-160,-424,-12,58,-5
9545,-2104,-160,-432,-9,54,-2
9550,-2056,-160,-400,-8,53,-5
9555,-2072,-152,-432,-6,54,-1
9560,-2088,-160,-464,-4,54,-4
9565,-2056,-176,-416,-5,56,-1
9570,-2048,-160,-416,-4,55,-4
9575,-2072,-160,-456,-2,55,-1
9580,-2072,-160,-408,-2,55,-3
9585,-2080,-152,-448,-2,55,0
9590,-2056,-168,-440,-1,53,-3
9595,-2048,-176,-432,-3,52,1
9600,-2064,-144,-400,-4,50,-3
9605,-2088,-160,-424,-7,49,-1
9610,-2080,-176,-408,-7,50,-3
9615,-2056,-160,-384,-9,51,-2
9620,-2072,-168,-424,-8,53,-3
9625,-2088,-160,-432,-5,54,0
9630,-2080,-168,-416,-3,54,-2
9635,-2048,-184,-392,-3,53,0
9640,-2080,-160,-432,-4,54,0
9645,-2080,-152,-424,-5,53,2
9650,-2088,-160,-440,-6,53,0
9655,-2064,-176,-416,-6,52,3
9660,-2096,-160,-400,-6,51,1
9665,-2072,-160,-408,-6,50,2
9670,-2064,-160,-416,-5,50,1
9675,-2080,-168,-408,-5,49,2
9680,-2056,-160,-408,-4,48,2
9685,-2072,-160,-416,-5,51,4
9690,-2056,-160,-392,-2,52,1
9695,-2056,-168,-432,-2,53,2
9700,-2064,-160,-408,0,53,0
9705,-2072,-160,-416,2,53,2
9710,-2080,-152,-416,1,52,-1
9715,-2080,-152,-432,2,52,0
9720,-2072,-176,-392,2,52,0
9725,-2080,-160,-392,3,51,-1
9730,-2056,-160,-424,5,52,-2
9735,-2064,-160,-416,6,52,1
9740,-2088,-160,-416,5,51,-1
9745,-2064,-168,-400,6,52,-2
9750,-2064,-176,-416,5,54,-5
9755,-2064,-160,-408,4,54,-1
9760,-2056,-176,-392,4,51,-3
9765,-2064,-160,-408,5,50,-3
9770,-2072,-160,-400,4,49,-4
9775,-2072,-168,-440,4,48,-3
9780,-2056,-176,-376,3,46,-3
9785,-2064,-176,-424,2,44,-2
9790,-2064,-168,-416,0,42,-3
9795,-2072,-160,-416,-1,42,-2
9800,-2064,-176,-432,-4,43,-4
9805,-2048,-168,-416,-4,43,0
9810,-2064,-184,-424,-6,44,-2
9815,-2072,-160,-392,-4,41,-2
9820,-2080,-176,-424,-1,41,-3
9825,-2056,-176,-424,2,42,-2
9830,-2080,-160,-416,3,40,-2
9835,-2080,-160,-432,4,36,-2
9840,-2088,-160,-424,4,35,-4
9845,-2064,-144,-384,5,34,-2
9850,-2072,-176,-424,3,33,-3
9855,-2072,-168,-400,4,31,-3
9860,-2072,-160,-384,2,29,-4
9865,-2088,-160,-408,3,25,-3
9870,-2088,-160,-424,2,25,-4
9875,-2072,-160,-400,3,22,-3
9880,-2096,-160,-392,2,21,-5
9885,-2048,-160,-416,3,22,-5
9890,-2080,-176,-392,4,19,-6
9895,-2088,-160,-400,6,17,-5
9900,-2048,-168,-432,5,16,-5
9905,-2072,-160,-400,6,17,-4
9910,-2072,-160,-400,8,17,-4
9915,-2064,-160,-400,7,15,-2
9920,-2056,-160,-392,6,16,-2
9925,-2064,-160,-400,4,14,-2
9930,-2080,-176,-408,3,13,-2
9935,-2080,-160,-384,2,13,0
9940,-2064,-160,-384,-1,12,-2
9945,-2088,-152,-376,1,10,-2
9950,-2080,-160,-376,3,9,-3
9955,-2088,-152,-424,4,9,-2
9960,-2088,-152,-424,3,10,-6
9965,-2080,-160,-408,2,12,-5
9970,-2080,-176,-360,2,11,-5
9975,-2096,-160,-392,1,12,-4
9980,-2072,-160,-376,2,13,-6
9985,-2080,-176,-424,4,12,-3
9990,-2072,-152,-392,2,12,-4
9995,-2088,-160,-352,1,12,-2
10000,-2040,-192,-384,-2,12,-2
10005,-2064,-176,-400,-2,13,-1
10010,-2088,-152,-376,-2,12,0
10015,-2048,-160,-400,-1,12,0
10020,-2072,-152,-384,0,13,1
10025,-2056,-160,-384,0,13,2
10030,-2072,-160,-376,0,13,2
10035,-2072,-160,-384,-2,14,1
10040,-2064,-160,-352,-4,15,1
10045,-2072,-160,-400,-3,15,0
10050,-2080,-152,-384,-4,14,1
10055,-2072,-160,-384,-3,16,1
10060,-2056,-160,-408,-4,15,2
10065,-2088,-160,-360,-5,17,0
10070,-2064,-160,-408,-6,21,2
10075,-2072,-168,-376,-5,23,2
10080,-2072,-176,-368,-6,26,1
10085,-2088,-184,-360,-7,26,-1
10090,-2072,-160,-400,-5,28,-2
10095,-2072,-152,-344,-3,32,-3
10100,-2104,-160,-352,-1,34,-5
10105,-2056,-160,-368,-1,37,-5
10110,-2072,-160,-360,-1,39,-6
10115,-2056,-160,-336,-2,41,-7
10120,-2072,-160,-352,-3,43,-7
10125,-2064,-184,-384,-3,44,-7
10130,-2072,-160,-376,-7,46,-7
10135,-2064,-160,-392,-9,47,-7
10140,-2080,-160,-336,-10,48,-7
10145,-2056,-176,-352,-11,49,-8
10150,-2072,-160,-344,-11,50,-9
10155,-2080,-176,-360,-14,51,-9
10160,-2080,-160,-352,-11,52,-10
10165,-2072,-184,-360,-14,55,-10
10170,-2080,-152,-392,-14,57,-10
10175,-2072,-160,-384,-13,57,-10
10180,-2072,-160,-392,-14,59,-8
10185,-2096,-176,-368,-15,62,-7
10190,-2080,-168,-368,-13,64,-7
10195,-2080,-168,-376,-13,64,-6
10200,-2072,-168,-384,-14,65,-6
10205,-2056,-160,-352,-15,65,-5
10210,-2056,-160,-360,-15,65,-4
10215,-2056,-160,-368,-14,65,-4
10220,-2048,-160,-376,-12,65,-4
10225,-2048,-192,-376,-11,65,-4
10230,-2072,-168,-352,-13,67,-3
10235,-2064,-192,-352,-13,68,-2
10240,-2064,-160,-344,-15,69,-1
10245,-2096,-160,-392,-14,71,-1
10250,-2056,-176,-408,-15,73,-1
10255,-2072,-168,-360,-16,74,0
10260,-2064,-168,-384,-15,77,2
10265,-2080,-160,-400,-12,78,2
10270,-2088,-184,-336,-9,77,4
10275,-2080,-160,-384,-9,78,2
10280,-2080,-168,-360,-8,81,3
10285,-2064,-160,-360,-7,81,3
10290,-2056,-152,-352,-8,81,4
10295,-2088,-160,-368,-9,83,4
10300,-2064,-184,-336,-9,85,3
10305,-2088,-160,-352,-11,86,4
10310,-2072,-168,-344,-11,85,4
10315,-2088,-160,-384,-10,87,3
10320,-2080,-152,-368,-11,88,3
10325,-2080,-152,-376,-13,87,2
10330,-2064,-184,-368,-14,85,3
10335,-2088,-160,-400,-14,85,3
10340,-2056,-160,-368,-15,85,3
10345,-2088,-160,-376,-13,84,2
10350,-2088,-160,-376,-13,86,2
10355,-2080,-160,-392,-12,87,1
10360,-2088,-184,-368,-10,89,2
10365,-2072,-160,-392,-8,90,0
10370,-2088,-176,-368,-6,89,-1
10375,-2080,-184,-368,-9,89,-3
10380,-2064,-160,-360,-10,86,-3
10385,-2088,-160,-416,-12,83,-2
10390,-2072,-168,-368,-16,81,-4
10395,-2080,-168,-408,-17,79,-3
10400,-2072,-176,-400,-17,77,-3
10405,-2080,-160,-376,-15,77,-3
10410,-2072,-176,-408,-12,76,-3
10415,-2088,-160,-400,-13,74,-4
10420,-2072,-160,-408,-13,75,-3
10425,-2080,-176,-424,-15,73,-2
10430,-2072,-160,-392,-14,73,-1
10435,-2064,-160,-424,-15,72,-1
10440,-2080,-176,-384,-16,71,1
10445,-2064,-160,-392,-16,69,-1
10450,-2080,-176,-368,-16,67,0
10455,-2072,-160,-432,-16,65,0
10460,-2088,-160,-376,-15,63,0
10465,-2088,-160,-416,-14,64,-2
10470,-2072,-160,-408,-12,62,-1
10475,-2096,-152,-424,-13,63,-2
10480,-2064,-184,-400,-12,63,0
10485,-2072,-152,-368,-12,62,-2
10490,-2080,-176,-368,-12,59,0
10495,-2080,-160,-432,-10,57,-3
10500,-2088,-160,-384,-8,55,-1
10505,-2072,-160,-384,-7,55,-3
10510,-2096,-168,-368,-6,53,-1
10515,-2072,-160,-400,-4,51,-4
10520,-2088,-176,-400,-3,50,-2
10525,-2080,-168,-400,-6,50,-3
10530,-2056,-160,-368,-6,48,-1
10535,-2072,-160,-416,-7,47,-4
10540,-2080,-160,-368,-8,45,-4
10545,-2072,-168,-400,-7,43,-5
10550,-2080,-160,-384,-7,42,-4
10555,-2056,-152,-416,-9,40,-6
10560,-2056,-160,-368,-11,41,-4
10565,-2064,-176,-392,-12,42,-6
10570,-2072,-160,-400,-11,41,-4
10575,-2072,-176,-368,-13,41,-7
10580,-2080,-160,-416,-12,40,-6
10585,-2064,-160,-360,-12,39,-7
10590,-2056,-160,-392,-10,41,-5
10595,-2064,-160,-368,-9,39,-5
10600,-2088,-168,-376,-12,38,-5
10605,-2064,-184,-408,-12,38,-7
10610,-2064,-160,-416,-13,36,-5
10615,-2056,-184,-392,-13,37,-5
10620,-2080,-168,-384,-12,38,-5
10625,-2088,-160,-400,-12,38,-7
10630,-2056,-160,-384,-13,38,-6
10635,-2072,-168,-360,-11,38,-7
10640,-2080,-152,-376,-11,38,-6
10645,-2080,-160,-368,-12,36,-8
10650,-2048,-160,-384,-13,37,-7
10655,-2072,-176,-400,-12,39,-8
10660,-2072,-184,-360,-12,39,-6
10665,-2064,-168,-376,-11,39,-9
10670,-2048,-200,-352,-11,41,-7
10675,-2056,-176,-392,-10,40,-8
10680,-2088,-160,-376,-9,41,-5
10685,-2048,-160,-400,-8,42,-6
10690,-2048,-160,-400,-10,43,-4
10695,-2088,-160,-368,-12,42,-4
10700,-2080,-160,-368,-13,42,-3
10705,-2080,-176,-352,-14,44,-3
10710,-2104,-160,-368,-14,43,-1
10715,-2064,-168,-336,-12,43,-4
10720,-2072,-176,-376,-13,44,-1
10725,-2056,-160,-368,-12,43,-2
10730,-2056,-168,-360,-13,43,0
10735,-2080,-160,-376,-13,45,-2
10740,-2080,-160,-368,-14,47,-1
10745,-2040,-168,-392,-13,47,-2
10750,-2080,-160,-328,-13,49,-1
10755,-2096,-152,-368,-12,50,-3
10760,-2072,-160,-360,-13,51,0
10765,-2048,-160,-392,-12,54,-2
10770,-2056,-152,-376,-12,55,-1
10775,-1968,-176,-392,-10,56,-3
10780,-2056,-176,-368,-11,58,-1
10785,-2072,-160,-352,-11,61,-3
10790,-2064,-160,-368,-11,63,-2
10795,-2056,-160,-344,-12,64,-3
10800,-2088,-160,-360,-12,64,-3
10805,-2096,-160,-336,-12,65,-3
10810,-2088,-160,-344,-12,66,-1
10815,-2048,-176,-336,-13,65,-2
10820,-2080,-184,-376,-14,66,-1
10825,-2064,-168,-376,-13,67,-2
10830,-2072,-168,-400,-13,68,0
10835,-2072,-176,-400,-13,67,-2
10840,-2064,-160,-400,-13,67,0
10845,-2072,-176,-408,-12,65,-3
10850,-2080,-192,-376,-12,65,-2
10855,-2072,-160,-392,-12,64,-4
10860,-2072,-160,-384,-13,63,-1
10865,-2080,-168,-384,-13,64,-4
10870,-2072,-160,-384,-13,63,-1
10875,-2104,-168,-376,-12,64,-3
10880,-2080,-160,-384,-13,63,-1
10885,-2072,-160,-368,-14,64,-2
10890,-2080,-160,-360,-13,64,-1
10895,-2080,-160,-360,-12,64,-2
10900,-2080,-160,-400,-11,65,-1
10905,-2056,-160,-352,-12,65,-2
10910,-2088,-152,-392,-12,65,1
10915,-2064,-176,-360,-11,63,-3
10920,-2064,-168,-376,-11,63,-1
10925,-2072,-168,-400,-9,61,-3
10930,-2056,-160,-384,-9,61,-1
10935,-2072,-160,-360,-9,59,-3
10940,-2088,-160,-392,-11,59,-1
10945,-2088,-176,-384,-12,57,-3
10950,-2072,-160,-400,-12,56,0
10955,-2088,-160,-368,-12,56,-2
10960,-2088,-168,-384,-10,56,0
10965,-2088,-160,-368,-12,57,-3
10970,-2080,-160,-384,-12,57,0
10975,-2072,-160,-400,-12,56,-3
10980,-2088,-168,-408,-11,58,0
10985,-2064,-168,-344,-12,57,-3
10990,-2080,-152,-392,-11,56,0
10995,-2056,-160,-376,-11,56,-1
11000,-2072,-160,-392,-11,55,0
11005,-2064,-160,-368,-9,56,-3
11010,-2072,-176,-384,-9,54,0
11015,-2080,-168,-336,-11,52,-3
11020,-2120,-160,-384,-11,50,-2
11025,-2064,-176,-376,-12,49,-5
11030,-2088,-160,-384,-13,49,-3
11035,-2064,-168,-360,-12,50,-4
11040,-2088,-152,-352,-12,51,-3
11045,-2088,-160,-368,-13,52,-5
11050,-2080,-160,-392,-12,52,-3
11055,-2080,-160,-352,-12,54,-5
11060,-2072,-176,-360,-12,54,-2
11065,-2088,-184,-384,-12,55,-5
11070,-2064,-168,-368,-12,55,-2
11075,-2088,-160,-360,-12,53,-5
11080,-2072,-160,-360,-13,53,-3
11085,-2072,-160,-360,-12,52,-5
11090,-2072,-160,-360,-12,50,-3
11095,-2056,-176,-376,-13,49,-4
11100,-2064,-160,-368,-14,49,-2
11105,-2088,-152,-368,-15,52,-6
11110,-2080,-168,-368,-17,52,-3
11115,-2080,-160,-376,-17,53,-4
11120,-2088,-160,-368,-17,51,-3
11125,-2072,-160,-376,-17,52,-5
11130,-2072,-160,-352,-18,52,-1
11135,-2072,-168,-376,-16,53,-3
11140,-2080,-152,-376,-17,54,-1
11145,-2088,-176,-400,-14,54,-2
11150,-2072,-160,-360,-14,53,0
11155,-2104,-152,-384,-13,53,-4
11160,-2088,-160,-384,-12,52,-1
11165,-2088,-160,-376,-12,54,-5
11170,-2080,-160,-392,-13,54,-2
11175,-2080,-192,-360,-13,54,-5
11180,-2056,-160,-416,-17,54,-2
11185,-2080,-160,-392,-17,55,-4
11190,-2080,-160,-376,-20,55,-3
11195,-2080,-160,-368,-21,54,-4
11200,-2080,-192,-312,-25,54,-2
11205,-2088,-176,-376,-20,56,-3
11210,-2072,-160,-368,-16,55,-1
11215,-2072,-152,-384,-12,55,-3
11220,-2088,-192,-392,-12,58,-2
11225,-2056,-160,-392,-14,58,-4
11230,-2056,-168,-368,-15,58,0
11235,-2088,-144,-368,-19,57,-2
11240,-2040,-160,-344,-20,57,1
11245,-2072,-176,-376,-21,55,-2
11250,-2088,-168,-352,-25,55,0
11255,-2056,-160,-360,-27,53,-2
11260,-2080,-168,-336,-28,54,1
11265,-2080,-160,-368,-28,52,-3
11270,-2080,-168,-336,-27,54,0
11275,-2064,-160,-400,-26,57,-3
11280,-2088,-176,-368,-24,56,0
11285,-2080,-168,-432,-23,56,-2
11290,-2064,-176,-384,-22,56,0
11295,-2080,-152,-384,-21,57,-2
11300,-2080,-160,-400,-18,54,1
11305,-2088,-160,-384,-17,53,-1
11310,-2048,-168,-408,-16,52,0
11315,-2048,-160,-384,-17,52,-1
11320,-2088,-160,-368,-17,51,0
11325,-2072,-168,-360,-16,50,-1
11330,-2072,-152,-368,-17,49,1
11335,-2088,-160,-360,-17,48,-2
11340,-2064,-160,-376,-17,49,0
11345,-2080,-160,-392,-19,48,-2
11350,-2056,-160,-352,-21,51,0
11355,-2096,-136,-416,-22,54,-3
11360,-2088,-160,-376,-24,53,-1
11365,-2080,-160,-360,-25,54,-4
11370,-2064,-160,-360,-25,55,-2
11375,-2072,-160,-376,-26,56,-5
11380,-2072,-160,-368,-26,56,-4
11385,-2096,-160,-360,-26,55,-6
11390,-2080,-152,-416,-25,53,-4
11395,-2072,-160,-384,-27,53,-6
11400,-2072,-160,-360,-27,55,-3
11405,-2088,-200,-376,-27,55,-4
11410,-2056,-160,-392,-27,55,-3
11415,-2080,-160,-392,-25,55,-8
11420,-2072,-160,-376,-25,53,-6
11425,-2088,-160,-368,-27,54,-8
11430,-2080,-160,-416,-28,56,-6
11435,-2048,-160,-368,-28,56,-8
11440,-2056,-192,-360,-27,54,-5
11445,-2096,-160,-392,-28,53,-8
11450,-2072,-160,-376,-28,53,-5
11455,-2080,-160,-376,-29,52,-8
11460,-2056,-160,-384,-28,51,-7
11465,-2056,-176,-368,-28,51,-10
11470,-2088,-168,-360,-25,51,-5
11475,-2080,-160,-400,-24,51,-8
11480,-2072,-184,-336,-23,51,-6
11485,-2080,-160,-368,-21,50,-9
11490,-2080,-160,-384,-20,49,-7
11495,-2080,-160,-392,-20,48,-7
11500,-2080,-160,-360,-20,47,-6
11505,-2080,-160,-368,-19,48,-7
11510,-2056,-184,-360,-20,47,-4
11515,-2064,-192,-376,-22,46,-5
11520,-2064,-160,-352,-23,47,-2
11525,-2072,-184,-384,-22,46,-4
11530,-2056,-168,-352,-21,46,-3
11535,-2072,-184,-368,-21,45,-4
11540,-2072,-160,-376,-21,45,-1
11545,-2088,-160,-352,-20,46,-1
11550,-2072,-176,-360,-18,47,0
11555,-2080,-160,-352,-18,46,-1
11560,-2080,-168,-352,-17,46,2
11565,-2088,-160,-360,-17,46,1
11570,-2064,-168,-360,-18,47,4
11575,-2080,-160,-384,-17,49,1
11580,-2088,-160,-360,-17,52,3
11585,-2096,-160,-328,-19,52,-1
11590,-2064,-160,-336,-18,53,2
11595,-2072,-160,-384,-18,57,0
11600,-2072,-176,-344,-21,58,1
11605,-2064,-152,-344,-23,61,-3
11610,-2056,-160,-344,-24,62,0
11615,-2064,-160,-360,-27,65,-2
11620,-2064,-160,-360,-28,66,-2
11625,-2080,-160,-336,-28,68,-6
11630,-2064,-160,-392,-28,70,-3
11635,-2056,-176,-392,-28,71,-5
11640,-2048,-160,-368,-28,71,-4
11645,-2064,-152,-392,-28,73,-6
11650,-2080,-160,-344,-28,74,-5
11655,-2088,-160,-336,-28,74,-8
11660,-2080,-184,-360,-28,74,-6
11665,-2080,-160,-336,-29,75,-8
11670,-2080,-160,-392,-30,74,-6
11675,-2072,-168,-376,-30,74,-9
11680,-2080,-176,-384,-30,72,-7
11685,-2064,-152,-360,-31,75,-8
11690,-2064,-192,-376,-33,72,-6
11695,-2072,-168,-368,-33,74,-7
11700,-2056,-160,-392,-35,74,-4
11705,-2080,-160,-392,-34,74,-6
11710,-2072,-168,-376,-32,73,-4
11715,-2072,-152,-384,-30,72,-6
11720,-2080,-176,-352,-26,69,-4
11725,-2080,-176,-368,-24,69,-4
11730,-2072,-160,-384,-23,69,-3
11735,-2064,-160,-352,-23,68,-4
11740,-2104,-160,-392,-24,66,-2
11745,-2096,-160,-376,-25,67,-2
11750,-2088,-160,-392,-26,66,-1
11755,-2080,-160,-376,-26,66,-4
11760,-2056,-168,-376,-27,65,-2
11765,-2056,-168,-392,-26,67,-3
11770,-2064,-160,-376,-26,66,-1
11775,-2088,-160,-360,-25,64,-2
11780,-2072,-144,-376,-25,66,2
11785,-2064,-176,-360,-24,64,-1
11790,-2072,-160,-352,-24,65,1
11795,-2072,-192,-360,-25,65,-2
11800,-2048,-160,-368,-24,63,0
11805,-2056,-184,-376,-23,62,-1
11810,-2048,-160,-376,-24,62,0
11815,-2072,-168,-368,-26,62,-2
11820,-2080,-160,-376,-26,61,-1
11825,-2088,-160,-384,-26,59,-4
11830,-2096,-176,-360,-25,60,0
11835,-2080,-168,-352,-27,60,-3
11840,-2056,-168,-400,-26,57,-2
11845,-2080,-176,-368,-27,58,-2
11850,-2064,-160,-368,-28,60,-1
11855,-2104,-160,-360,-28,57,-3
11860,-2080,-152,-384,-26,56,-3
11865,-2072,-160,-360,-25,55,-5
11870,-2072,-200,-392,-25,53,-2
11875,-2088,-160,-392,-24,53,-4
11880,-2104,-160,-400,-24,51,-3
11885,-2080,-168,-400,-23,51,-5
11890,-2080,-144,-344,-23,51,-4
11895,-2064,-168,-408,-22,51,-4
11900,-2080,-176,-392,-23,50,-4
11905,-2080,-160,-368,-23,50,-4
11910,-2056,-184,-344,-26,49,-4
11915,-2096,-168,-352,-25,48,-5
11920,-2080,-168,-392,-24,47,-3
11925,-2072,-176,-352,-23,47,-3
11930,-2056,-184,-384,-23,45,-2
11935,-2088,-144,-384,-24,46,-2
11940,-2056,-160,-360,-23,45,-2
11945,-2104,-160,-376,-23,45,-3
11950,-2104,-168,-376,-23,45,-1
11955,-2088,-168,-360,-22,45,-3
11960,-2096,-160,-368,-21,44,-3
11965,-2072,-160,-384,-23,44,-4
11970,-2080,-160,-336,-22,43,-3
11975,-2072,-160,-368,-22,44,-4
11980,-2096,-152,-384,-22,45,-5
11985,-2072,-160,-352,-20,48,-4
11990,-2056,-176,-360,-17,49,-5
11995,-2072,-152,-376,-15,51,-5
12000,-2080,-168,-384,-14,52,-5
12005,-2072,-160,-376,-13,52,-7
12010,-2048,-184,-376,-12,51,-6
12015,-2064,-184,-368,-13,50,-8
12020,-2064,-176,-352,-17,51,-5
12025,-2080,-152,-352,-20,50,-7
12030,-2072,-160,-368,-24,50,-5
12035,-2056,-176,-376,-27,48,-5
12040,-2072,-192,-352,-28,51,-5
12045,-2064,-168,-376,-26,52,-5
12050,-2064,-160,-392,-23,55,-5
12055,-2072,-160,-376,-23,58,-6
12060,-2072,-160,-384,-23,60,-4
12065,-2088,-168,-376,-26,60,-6
12070,-2072,-160,-368,-28,60,-3
12075,-2080,-160,-360,-29,58,-4
12080,-2096,-160,-360,-30,57,-2
12085,-2088,-168,-384,-29,56,-2
12090,-2064,-192,-368,-27,56,-3
12095,-2080,-160,-360,-25,57,-2
12100,-2104,-152,-352,-25,56,-1
12105,-2072,-160,-368,-24,58,-3
12110,-2064,-168,-384,-23,59,-1
12115,-2064,-176,-376,-24,59,-2
12120,-2088,-192,-344,-22,58,-1
12125,-2096,-160,-368,-20,60,-1
12130,-2064,-176,-376,-19,60,0
12135,-2088,-160,-400,-19,61,-1
12140,-2048,-176,-352,-18,60,-1
12145,-2072,-160,-360,-18,60,-1
12150,-2080,-160,-360,-17,59,-2
12155,-2072,-160,-376,-18,60,-2
12160,-2088,-176,-336,-18,61,-2
12165,-2080,-160,-360,-19,61,-2
12170,-2072,-176,-344,-18,62,-2
12175,-2072,-160,-352,-18,63,-2
12180,-2080,-176,-328,-18,63,-1
12185,-2064,-168,-368,-19,61,-2
12190,-2080,-160,-336,-19,62,-2
12195,-2064,-168,-360,-19,62,-3
12200,-2056,-160,-360,-19,61,-3
12205,-2064,-168,-368,-18,60,-2
12210,-2112,-152,-376,-19,60,-1
12215,-2064,-176,-384,-20,61,-2
12220,-2056,-176,-376,-21,60,-2
12225,-2064,-176,-360,-21,59,-2
12230,-2072,-160,-328,-24,60,-1
12235,-2072,-160,-384,-23,58,-1
12240,-2080,-160,-352,-24,56,-1
12245,-2072,-160,-360,-23,56,-2
12250,-2096,-160,-352,-23,55,-4
12255,-2072,-152,-392,-23,55,-4
12260,-2088,-152,-400,-22,55,-4
12265,-2080,-160,-392,-24,55,-5
12270,-2080,-168,-376,-25,53,-5
12275,-2064,-192,-376,-23,53,-6
12280,-2056,-160,-400,-21,50,-7
12285,-2072,-160,-368,-21,49,-8
12290,-2080,-184,-408,-21,50,-9
12295,-2088,-168,-392,-19,49,-9
12300,-2080,-168,-400,-19,50,-9
12305,-2088,-160,-360,-18,48,-8
12310,-2072,-160,-376,-17,47,-8
12315,-2072,-176,-336,-16,46,-8
12320,-2072,-160,-376,-16,45,-8
12325,-2048,-176,-392,-18,41,-8
12330,-2072,-176,-376,-20,39,-8
12335,-2064,-152,-376,-19,37,-5
12340,-2104,-160,-368,-19,36,-7
12345,-2072,-160,-384,-22,35,-6
12350,-2088,-160,-360,-22,34,-6
12355,-2072,-168,-376,-23,34,-5
12360,-2096,-160,-368,-25,34,-3
12365,-2072,-152,-392,-26,34,-3
12370,-2104,-160,-368,-27,35,-3
12375,-2088,-160,-368,-26,34,-3
12380,-2080,-160,-360,-24,34,-3
12385,-2072,-160,-352,-22,33,-3
12390,-2072,-160,-360,-19,32,-4
12395,-2080,-160,-360,-17,29,-5
12400,-2080,-144,-368,-13,32,-3
12405,-2088,-152,-336,-13,33,-2
12410,-2088,-160,-400,-14,35,-2
12415,-2064,-168,-392,-15,35,-2
12420,-2056,-160,-352,-17,38,-2
12425,-2088,-160,-368,-18,39,-2
12430,-2064,-176,-328,-16,40,-5
12435,-2080,-160,-368,-15,40,-4
12440,-2056,-160,-360,-14,42,-5
12445,-2088,-168,-344,-13,43,-3
12450,-2080,-160,-312,-12,45,-4
12455,-2056,-160,-328,-10,45,-5
12460,-2080,-152,-384,-10,46,-6
12465,-2080,-184,-344,-9,47,-7
12470,-2080,-176,-344,-9,47,-8
12475,-2072,-168,-328,-7,49,-9
12480,-2080,-168,-352,-4,47,-10
12485,-2088,-168,-400,-3,48,-8
12490,-2072,-168,-384,-3,49,-7
12495,-2056,-152,-360,-1,52,-8
12500,-2064,-160,-384,-4,51,-9
12505,-2072,-200,-344,-3,52,-6
12510,-2080,-160,-352,-3,54,-8
12515,-2072,-176,-344,-2,54,-6
12520,-2064,-176,-344,-3,55,-6
12525,-2064,-184,-344,-2,55,-5
12530,-2072,-176,-368,-3,56,-5
12535,-2064,-168,-344,-3,56,-3
12540,-2064,-168,-312,-4,57,-4
12545,-2080,-168,-328,-3,58,-2
12550,-1968,-200,-392,-5,57,-3
12555,-2072,-160,-312,-7,56,0
12560,-2064,-176,-328,-7,58,-2
12565,-2064,-184,-384,-10,57,0
12570,-2056,-168,-352,-10,57,-2
12575,-2056,-184,-360,-11,58,1
12580,-2072,-200,-344,-12,61,1
12585,-2048,-184,-368,-13,61,3
12590,-2088,-160,-344,-11,63,2
12595,-2088,-160,-336,-11,64,3
12600,-2072,-176,-368,-12,64,2
12605,-2072,-160,-360,-11,66,3
12610,-2096,-160,-352,-10,66,2
12615,-2048,-168,-336,-9,68,4
12620,-2080,-160,-376,-9,69,5
12625,-2056,-160,-352,-7,69,5
12630,-2088,-160,-344,-6,66,4
12635,-2080,-160,-328,-6,67,6
12640,-2088,-160,-376,-5,65,5
12645,-2056,-160,-328,-5,64,5
12650,-2072,-160,-336,-4,65,4
12655,-2072,-160,-328,-5,66,5
12660,-2080,-168,-360,-6,66,4
12665,-2080,-160,-320,-5,68,5
12670,-2096,-160,-376,-5,69,3
12675,-2088,-152,-376,-4,71,3
12680,-2080,-160,-368,-3,71,1
12685,-2056,-160,-352,-2,74,3
12690,-2056,-168,-368,-2,75,1
12695,-2064,-176,-368,-3,76,3
12700,-2072,-160,-368,0,76,1
12705,-2064,-176,-352,-2,75,1
12710,-2080,-160,-384,-1,75,-1
12715,-2064,-160,-336,0,74,1
12720,-2088,-160,-368,0,75,-2
12725,-2072,-160,-352,-2,74,2
12730,-2056,-160,-352,-3,73,-1
12735,-2080,-160,-360,-5,72,2
12740,-2080,-200,-360,-5,71,-2
12745,-2088,-168,-368,-4,71,1
12750,-2088,-168,-352,-5,69,1
12755,-2096,-160,-360,-6,67,1
12760,-2080,-160,-376,-5,64,-1
12765,-2080,-168,-384,-4,63,1
12770,-2088,-160,-376,-3,60,-2
12775,-2104,-160,-376,-1,61,1
12780,-2096,-168,-392,1,60,-1
12785,-2056,-152,-384,3,64,-1
12790,-2080,-184,-376,2,64,-1
12795,-2072,-160,-384,5,65,0
12800,-2048,-168,-336,6,64,-3
12805,-2072,-160,-392,7,63,-2
12810,-2072,-176,-384,7,60,-3
12815,-2072,-168,-376,6,56,-2
12820,-2072,-176,-352,4,51,-5
12825,-2064,-168,-352,1,47,-1
12830,-2064,-160,-336,-3,48,-4
12835,-2080,-176,-376,-2,47,-1
12840,-2080,-176,-376,-1,49,-3
12845,-2080,-160,-368,0,48,0
12850,-2072,-192,-400,1,50,-3
12855,-2072,-160,-368,1,52,0
12860,-2096,-160,-376,0,52,-2
12865,-2072,-176,-384,3,52,-1
12870,-2056,-184,-376,4,51,-2
12875,-2072,-176,-384,6,52,-1
12880,-2080,-160,-360,7,50,-3
12885,-2056,-160,-352,7,48,0
12890,-2064,-160,-352,9,47,-3
12895,-2072,-168,-360,10,45,0
12900,-2064,-168,-368,10,43,-3
12905,-2064,-160,-352,10,44,-4
12910,-2088,-160,-328,11,46,-5
12915,-2064,-184,-360,10,47,-3
12920,-2064,-184,-360,11,47,-6
12925,-2072,-160,-336,13,47,-5
12930,-2080,-168,-360,13,48,-7
12935,-2064,-176,-368,14,49,-3
12940,-2072,-176,-352,14,48,-5
12945,-2080,-160,-352,14,51,-3
12950,-2072,-176,-376,16,52,-5
12955,-2064,-168,-368,18,53,-3
12960,-2080,-192,-336,19,53,-5
12965,-2080,-160,-368,21,55,-3
12970,-2072,-168,-320,25,54,-5
12975,-2080,-176,-368,24,54,-3
12980,-2088,-160,-368,25,53,-7
12985,-2072,-176,-384,24,53,-4
12990,-2080,-176,-368,23,52,-6
12995,-2048,-176,-384,22,54,-2
13000,-2072,-160,-352,20,53,-4
13005,-2064,-168,-352,19,53,-2
13010,-2048,-152,-344,18,54,-3
13015,-2072,-168,-368,18,54,-1
13020,-2056,-184,-344,18,57,-2
13025,-2064,-160,-368,16,58,0
13030,-2080,-160,-344,15,57,-2
13035,-2040,-192,-344,15,59,1
13040,-2096,-184,-368,17,58,-1
13045,-2072,-168,-392,16,56,2
13050,-2072,-160,-400,17,56,-1
13055,-2072,-176,-336,17,56,2
13060,-2088,-160,-384,18,56,-2
13065,-2072,-160,-352,20,55,-1
13070,-2088,-160,-368,20,55,-3
13075,-2072,-160,-320,20,55,0
13080,-2072,-176,-320,19,56,-4
13085,-2056,-152,-408,17,56,-2
13090,-2080,-160,-336,16,55,-4
13095,-2096,-160,-328,16,56,-1
13100,-2088,-152,-384,15,55,-3
13105,-2096,-176,-368,15,55,0
13110,-2096,-184,-360,14,56,-3
13115,-2064,-184,-360,13,55,-2
13120,-2064,-168,-360,15,56,-3
13125,-2080,-160,-344,17,55,-2
13130,-2064,-176,-352,19,55,-4
13135,-2088,-176,-344,21,54,0
13140,-2064,-184,-328,25,51,-2
13145,-2056,-160,-376,28,51,-2
13150,-2080,-160,-352,27,53,-3
13155,-2088,-160,-336,23,57,-2
13160,-2080,-160,-392,21,54,-6
13165,-2088,-176,-384,18,53,-3
13170,-2080,-168,-352,16,53,-5
13175,-2072,-160,-360,16,52,-4
13180,-2096,-160,-352,15,53,-6
13185,-2088,-168,-360,15,53,-4
13190,-2080,-160,-384,14,53,-6
13195,-2080,-176,-368,12,55,-3
13200,-2088,-160,-384,12,56,-8
13205,-2072,-168,-352,11,56,-4
13210,-2080,-176,-304,11,55,-7
13215,-2080,-160,-344,11,55,-4
13220,-2080,-176,-344,10,57,-7
13225,-2080,-160,-384,9,57,-4
13230,-2096,-160,-312,7,60,-5
13235,-2072,-168,-328,7,61,-4
13240,-2096,-184,-352,6,62,-6
13245,-2096,-160,-344,7,61,-4
13250,-2072,-176,-328,7,61,-7
13255,-2080,-176,-336,9,60,-3
13260,-2072,-176,-360,9,59,-5
13265,-2096,-160,-344,8,59,-2
13270,-2088,-168,-376,7,57,-4
13275,-2080,-152,-352,5,56,-1
13280,-2080,-160,-344,2,56,-3
13285,-2080,-168,-360,1,57,-1
13290,-2088,-168,-360,-1,56,-3
13295,-2072,-192,-360,-1,55,0
13300,-2080,-152,-336,-1,55,-4
13305,-2096,-184,-376,2,56,-2
13310,-2064,-168,-320,3,57,-3
13315,-2072,-160,-376,4,59,-1
13320,-2088,-160,-392,7,60,-4
13325,-2064,-160,-352,9,61,-1
13330,-2072,-160,-336,10,62,-4
13335,-2072,-192,-352,9,62,-1
13340,-2072,-168,-336,10,61,-4
13345,-2064,-176,-376,9,59,-2
13350,-2064,-160,-384,9,58,-5
13355,-2040,-192,-384,9,57,-3
13360,-2080,-160,-328,7,55,-4
13365,-2072,-168,-376,8,56,-2
13370,-2080,-168,-328,9,54,-4
13375,-2080,-160,-368,8,55,-2
13380,-2096,-160,-352,7,57,-4
13385,-2088,-160,-392,5,59,0
13390,-2088,-176,-376,3,59,-3
13395,-2072,-168,-344,5,60,-2
13400,-2080,-192,-368,7,59,-5
13405,-2080,-192,-352,10,59,-2
13410,-2064,-184,-368,10,60,-3
13415,-2072,-168,-336,12,54,-2
13420,-2056,-160,-344,12,54,-5
13425,-2080,-176,-352,12,54,-3
13430,-2096,-176,-328,10,53,-4
13435,-2080,-160,-328,8,51,-2
13440,-2064,-184,-360,10,55,-5
13445,-2064,-184,-360,10,54,-2
13450,-2056,-160,-344,11,56,-3
13455,-2096,-176,-352,12,57,0
13460,-2064,-176,-368,13,58,-1
13465,-2064,-168,-344,11,58,0
13470,-2072,-160,-352,8,58,-4
13475,-2056,-160,-344,6,59,0
13480,-2056,-168,-344,7,60,-3
13485,-2056,-168,-368,4,60,-1
13490,-2072,-160,-336,4,58,-3
13495,-2072,-176,-368,3,57,0
13500,-2096,-184,-344,1,57,-5
13505,-2072,-184,-376,1,56,-1
13510,-2056,-184,-392,-1,56,-3
13515,-2080,-160,-360,2,57,-2
13520,-2080,-192,-368,2,59,-4
13525,-2064,-184,-376,1,61,-1
13530,-2056,-176,-368,1,62,-4
13535,-2088,-168,-352,-1,64,-1
13540,-2064,-176,-328,-1,66,-4
13545,-2064,-168,-376,0,66,-1
13550,-2088,-160,-312,2,67,-4
13555,-2104,-176,-352,3,69,-3
13560,-2064,-200,-376,5,68,-4
13565,-2096,-160,-352,4,68,-4
13570,-2056,-168,-328,2,69,-5
13575,-2088,-160,-344,-3,68,-2
13580,-2072,-168,-344,-6,67,-4
13585,-2064,-168,-360,-7,67,-3
13590,-2080,-160,-296,-5,67,-5
13595,-2088,-160,-352,-1,68,-2
13600,-2048,-160,-392,1,68,-4
13605,-2088,-168,-352,1,70,-4
13610,-2064,-184,-360,0,71,-5
13615,-2064,-160,-344,-2,71,-4
13620,-2080,-168,-344,-2,70,-6
13625,-2080,-184,-336,-3,70,-4
13630,-2080,-176,-352,-6,69,-4
13635,-2080,-168,-336,-9,67,-4
13640,-2096,-184,-344,-11,67,-5
13645,-2080,-216,-336,-10,68,-3
13650,-2072,-200,-360,-8,67,-5
13655,-2080,-184,-360,-5,68,-1
13660,-2056,-192,-416,-3,69,-3
13665,-2080,-176,-368,-5,70,-2
13670,-2072,-176,-384,-7,73,-2
13675,-2072,-160,-320,-7,72,0
13680,-2096,-176,-336,-6,74,0
13685,-2072,-160,-344,-4,75,2
13690,-2080,-176,-328,-2,77,1
13695,-2064,-160,-368,0,76,1
13700,-2080,-184,-360,-1,74,0
13705,-2056,-160,-336,-4,71,1
13710,-2080,-144,-352,-8,70,-1
13715,-2088,-160,-352,-10,69,0
13720,-2072,-160,-344,-9,69,1
13725,-2088,-168,-344,-9,70,1
13730,-2088,-160,-368,-7,69,-1
13735,-2080,-160,-328,-6,71,1
13740,-2064,-152,-376,-7,72,-1
13745,-2096,-160,-344,-6,71,0
13750,-2080,-168,-376,-6,69,-2
13755,-2088,-168,-352,-6,67,0
13760,-2096,-160,-376,-5,68,0
13765,-2104,-160,-336,-7,64,-1
13770,-2064,-168,-376,-8,63,-2
13775,-2064,-160,-360,-7,64,0
13780,-2064,-160,-312,-7,63,-2
13785,-2064,-160,-360,-7,63,-2
13790,-2080,-192,-352,-8,62,-4
13795,-2072,-160,-368,-7,61,-1
13800,-2072,-160,-352,-7,61,-2
13805,-2088,-176,-336,-9,61,-3
13810,-2064,-184,-360,-11,59,-3
13815,-2064,-184,-336,-11,59,-3
13820,-2056,-192,-360,-13,57,-4
13825,-2072,-176,-344,-12,57,-3
13830,-2064,-168,-344,-13,56,-3
13835,-2048,-160,-384,-13,53,-1
13840,-2072,-176,-368,-13,53,-3
13845,-2064,-160,-392,-14,54,-1
13850,-2064,-192,-392,-13,53,-2
13855,-2072,-160,-360,-12,53,-2
13860,-2096,-160,-384,-10,52,-3
13865,-2080,-152,-368,-10,51,-1
13870,-2072,-168,-360,-10,49,-3
13875,-2080,-160,-376,-9,47,-3
13880,-2088,-160,-344,-10,48,-4
13885,-2056,-168,-352,-11,47,-1
13890,-2056,-192,-376,-13,46,-3
13895,-2088,-184,-352,-14,44,-2
13900,-2080,-184,-368,-14,44,-2
13905,-2080,-184,-384,-14,44,-2
13910,-2080,-176,-360,-15,45,-4
13915,-2072,-168,-376,-14,44,-4
13920,-2088,-184,-392,-13,45,-5
13925,-2072,-168,-376,-14,44,-3
13930,-2080,-176,-360,-13,44,-5
13935,-2040,-168,-320,-13,44,-4
13940,-2096,-160,-360,-14,42,-4
13945,-2088,-160,-360,-17,44,-2
13950,-2088,-168,-352,-20,45,-4
13955,-2064,-184,-384,-22,46,-3
13960,-2072,-160,-352,-21,45,-3
13965,-2072,-160,-368,-22,47,-2
13970,-2072,-160,-368,-22,46,-4
13975,-2080,-160,-328,-22,47,-4
13980,-2080,-168,-320,-22,50,-4
13985,-2072,-168,-360,-22,50,-1
13990,-2056,-160,-344,-22,49,-3
13995,-2080,-184,-376,-22,51,-2
14000,-2088,-168,-376,-21,51,-2
14005,-2064,-184,-368,-19,52,-3
14010,-2080,-168,-368,-19,54,-2
14015,-2112,-160,-336,-17,55,-2
14020,-2064,-176,-360,-16,57,-2
14025,-2088,-160,-368,-18,58,-3
14030,-2080,-152,-360,-19,59,-3
14035,-2096,-160,-312,-19,61,-3
14040,-2080,-160,-360,-20,61,-3
14045,-2072,-160,-352,-20,61,-3
14050,-2072,-184,-360,-21,61,-4
14055,-2088,-160,-384,-21,61,-3
14060,-2072,-184,-360,-21,62,-3
14065,-2056,-176,-344,-20,61,-2
14070,-2056,-168,-360,-21,62,-3
14075,-2056,-184,-352,-20,64,-2
14080,-2080,-160,-376,-19,64,-2
14085,-2056,-192,-376,-18,65,-2
14090,-2080,-176,-368,-17,66,-1
14095,-2064,-152,-352,-16,66,-1
14100,-2064,-200,-328,-17,67,0
14105,-2088,-152,-344,-17,66,-2
14110,-2064,-160,-336,-18,65,0
14115,-2096,-176,-360,-18,66,0
14120,-2072,-176,-360,-18,65,2
14125,-2080,-160,-368,-17,67,1
14130,-2088,-160,-392,-16,67,1
14135,-2080,-160,-352,-16,66,1
14140,-2088,-184,-368,-14,66,1
14145,-2080,-192,-320,-13,65,0
14150,-2064,-192,-336,-13,65,0
14155,-2064,-168,-384,-11,63,-1
14160,-2080,-160,-384,-12,63,0
14165,-2064,-160,-352,-12,61,-1
14170,-2064,-176,-384,-12,63,-1
14175,-2080,-160,-360,-14,63,0
14180,-2072,-176,-360,-17,61,-1
14185,-2064,-200,-360,-17,63,0
14190,-2072,-168,-360,-18,63,0
14195,-2064,-160,-360,-19,61,0
14200,-2080,-160,-344,-17,61,1
14205,-2096,-176,-352,-16,60,0
14210,-2064,-176,-376,-14,59,1
14215,-2088,-184,-368,-14,57,0
14220,-2096,-160,-360,-16,56,0
14225,-2064,-160,-352,-18,53,-1
14230,-2064,-160,-360,-15,54,-1
14235,-2080,-184,-344,-18,53,-1
14240,-2088,-160,-352,-17,52,-1
14245,-2088,-160,-336,-19,53,-3
14250,-2064,-176,-352,-19,52,-2
14255,-2088,-168,-384,-21,51,-3
14260,-2080,-168,-328,-22,51,-2
14265,-2064,-160,-376,-23,51,-2
14270,-2056,-160,-352,-24,50,-2
14275,-2056,-200,-352,-27,49,-2
14280,-2096,-160,-392,-30,49,-2
14285,-2080,-176,-360,-32,49,-3
14290,-2064,-136,-344,-33,48,-2
14295,-2080,-160,-344,-37,47,-1
14300,-2080,-168,-360,-40,47,-2
14305,-2064,-160,-344,-41,49,-4
14310,-2088,-152,-336,-42,48,-4
14315,-2048,-160,-440,-44,47,-4
14320,-2088,-152,-336,-43,47,-4
14325,-2088,-160,-352,-43,49,-5
14330,-2088,-160,-344,-43,49,-4
14335,-2072,-160,-368,-42,49,-5
14340,-2064,-176,-360,-39,49,-4
14345,-2072,-176,-344,-35,50,-6
14350,-2072,-184,-336,-33,50,-6
14355,-2064,-160,-368,-32,49,-6
14360,-2080,-168,-368,-31,49,-4
14365,-2056,-176,-352,-30,50,-6
14370,-2096,-160,-368,-31,49,-4
14375,-2072,-160,-352,-31,48,-5
14380,-2080,-160,-344,-31,48,-6
14385,-2088,-168,-336,-31,46,-6
14390,-2088,-176,-344,-33,46,-4
14395,-2080,-152,-336,-34,48,-7
14400,-2064,-160,-352,-34,48,-4
14405,-2056,-192,-360,-37,48,-5
14410,-2080,-184,-344,-37,50,-3
14415,-2088,-168,-368,-38,49,-3
14420,-2056,-160,-360,-38,49,-1
14425,-2072,-192,-352,-39,50,-3
14430,-2072,-168,-352,-37,50,-3
14435,-2088,-160,-368,-37,49,-4
14440,-2080,-168,-368,-34,49,-2
14445,-2088,-160,-360,-34,47,-4
14450,-2064,-176,-352,-32,47,-2
14455,-2072,-160,-312,-32,49,-3
14460,-2048,-160,-360,-33,48,-1
14465,-2080,-168,-344,-32,48,-3
14470,-2080,-160,-336,-33,49,-1
14475,-2072,-176,-360,-33,48,-2
14480,-2088,-160,-352,-33,47,-1
14485,-2048,-192,-328,-35,44,-2
14490,-2080,-184,-344,-36,44,0
14495,-2056,-184,-344,-40,44,-3
14500,-2080,-160,-368,-42,46,-1
14505,-2088,-192,-352,-43,48,-2
14510,-2064,-160,-376,-40,49,-1
14515,-2080,-160,-352,-37,51,-2
14520,-2064,-176,-328,-38,52,0
14525,-2072,-160,-344,-35,54,-1
14530,-2080,-168,-336,-34,54,0
14535,-2080,-160,-360,-32,53,-1
14540,-2096,-160,-368,-32,52,1
14545,-2080,-168,-328,-29,51,-2
14550,-2080,-160,-352,-31,49,2
14555,-2088,-160,-336,-32,48,0
14560,-2056,-216,-344,-34,47,1
14565,-2080,-168,-392,-36,45,0
14570,-2072,-168,-376,-34,45,2
14575,-2080,-160,-344,-36,43,2
14580,-2088,-152,-352,-36,46,4
14585,-2096,-160,-384,-37,46,2
14590,-2096,-184,-376,-38,45,4
14595,-2072,-168,-352,-37,45,2
14600,-2088,-168,-344,-35,43,4
14605,-2072,-168,-360,-32,41,2
14610,-2064,-160,-376,-27,38,3
14615,-2096,-152,-344,-27,36,1
14620,-2096,-160,-344,-27,35,2
14625,-2080,-160,-328,-29,35,0
14630,-2064,-160,-344,-29,36,2
14635,-2072,-160,-344,-28,34,0
14640,-2064,-160,-320,-27,35,1
14645,-2088,-168,-336,-27,36,-3
14650,-2088,-160,-328,-26,36,-1
14655,-2064,-160,-352,-24,36,-4
14660,-2096,-160,-320,-25,37,-3
14665,-2088,-160,-352,-27,37,-5
14670,-2080,-160,-352,-28,39,-4
14675,-2096,-168,-360,-28,41,-6
14680,-2064,-160,-352,-28,42,-7
14685,-2096,-168,-352,-29,45,-8
14690,-2056,-160,-320,-29,46,-7
14695,-2088,-176,-344,-30,47,-8
14700,-2056,-176,-296,-29,49,-7
14705,-2048,-168,-344,-29,50,-10
14710,-2096,-160,-320,-28,51,-8
14715,-2080,-184,-344,-25,52,-9
14720,-2072,-160,-328,-24,50,-9
14725,-2080,-152,-336,-24,50,-10
14730,-2088,-168,-352,-22,50,-9
14735,-2080,-176,-312,-22,49,-11
14740,-2064,-168,-304,-20,49,-8
14745,-2072,-160,-328,-22,50,-11
14750,-2072,-168,-320,-22,49,-9
14755,-2080,-184,-344,-22,48,-12
14760,-2080,-168,-328,-23,48,-9
14765,-2072,-192,-352,-23,49,-11
14770,-2056,-168,-344,-22,49,-8
14775,-2088,-168,-336,-24,52,-7
14780,-2072,-176,-336,-25,53,-6
14785,-2056,-184,-328,-27,53,-6
14790,-2064,-184,-352,-27,54,-3
14795,-2088,-160,-352,-28,54,-3
14800,-2072,-192,-344,-28,56,-2
14805,-2056,-184,-344,-27,55,-4
14810,-2064,-184,-352,-27,55,-1
14815,-2104,-184,-320,-27,55,-2
14820,-2056,-184,-328,-28,56,0
14825,-2096,-160,-304,-30,58,-3
14830,-2080,-160,-304,-30,58,1
14835,-2072,-176,-320,-31,61,-2
14840,-2072,-160,-328,-30,62,2
14845,-2056,-176,-304,-29,64,0
14850,-2072,-160,-368,-29,64,3
14855,-2080,-160,-336,-28,65,-1
14860,-2064,-168,-344,-28,67,1
14865,-2072,-168,-336,-28,69,-1
14870,-2080,-168,-336,-27,70,0
14875,-2064,-200,-328,-25,70,0
14880,-2072,-184,-336,-25,70,1
14885,-2088,-160,-336,-24,70,-1
14890,-2064,-184,-352,-25,72,1
14895,-2080,-160,-304,-26,74,-1
14900,-2064,-184,-344,-26,74,0
14905,-2072,-160,-312,-28,74,-4
14910,-2056,-184,-320,-30,75,0
14915,-2072,-176,-352,-29,76,-3
14920,-2064,-168,-344,-29,77,-1
14925,-2064,-160,-344,-30,77,-4
14930,-2088,-160,-368,-30,76,-2
14935,-2080,-168,-336,-31,78,-4
14940,-2080,-160,-336,-33,77,0
14945,-2064,-168,-344,-33,79,-3
14950,-2080,-160,-336,-34,77,-2
14955,-2096,-160,-336,-32,78,-4
14960,-2072,-176,-376,-30,78,-1
14965,-2096,-168,-312,-28,77,-4
14970,-2088,-168,-320,-27,76,-3
14975,-2064,-160,-328,-27,77,-4
14980,-2088,-176,-344,-28,77,-2
14985,-2104,-160,-336,-28,76,-4
14990,-2104,-152,-328,-31,76,-2
14995,-2080,-176,-304,-30,76,-4
