timestamp,accel_x,accel_y,accel_z,gyro_x,gyro_y,gyro_z
0,192,-2008,-424,15,28,4
5,184,-2000,-416,15,28,3
10,208,-2008,-440,14,28,5
15,216,-1992,-440,14,32,4
20,232,-1976,-424,14,32,5
25,200,-2000,-520,14,34,5
30,208,-1984,-440,14,36,7
35,200,-1984,-464,12,37,6
40,208,-2000,-464,13,39,6
45,192,-2000,-448,13,41,5
50,216,-1992,-448,13,43,4
55,192,-1976,-472,12,43,4
60,208,-1992,-448,12,44,3
65,200,-1976,-440,11,45,1
70,192,-2000,-456,9,45,-1
75,192,-1984,-432,8,44,-3
80,200,-1992,-464,5,42,-4
85,192,-1984,-456,0,39,-7
90,176,-1968,-432,-4,36,-11
95,192,-1968,-456,-10,33,-14
100,168,-1984,-440,-15,33,-15
105,168,-1976,-464,-22,29,-18
110,152,-1960,-448,-26,22,-19
115,176,-1968,-432,-28,16,-22
120,168,-1952,-424,-29,12,-22
125,176,-1928,-400,-38,9,-23
130,160,-1944,-424,-46,7,-25
135,176,-1944,-392,-57,7,-25
140,192,-1920,-376,-70,9,-26
145,232,-1944,-360,-86,12,-29
150,240,-1976,-336,-107,19,-29
155,256,-1968,-360,-128,30,-29
160,296,-1976,-344,-151,43,-29
165,320,-2000,-304,-166,56,-30
170,312,-1992,-272,-179,70,-32
175,320,-2000,-264,-187,83,-31
180,336,-2016,-168,-193,94,-32
185,320,-2008,-216,-198,103,-32
190,312,-2000,-192,-203,110,-29
195,320,-1968,-192,-206,118,-24
200,328,-1992,-208,-210,125,-21
205,336,-1992,-168,-215,133,-14
210,344,-2016,-240,-218,143,-7
215,312,-2008,-208,-224,155,0
220,320,-2032,-176,-227,167,7
225,328,-2032,-200,-228,180,13
230,304,-2072,-200,-226,192,17
235,304,-2072,-208,-221,203,22
240,288,-2096,-200,-212,214,25
245,296,-2120,-160,-203,220,30
250,264,-2080,-168,-194,225,34
255,280,-2080,-216,-185,230,35
260,264,-2088,-208,-176,234,38
265,296,-2088,-232,-168,242,41
270,248,-2072,-224,-159,249,43
275,248,-2056,-288,-147,253,45
280,248,-2080,-272,-134,258,47
285,240,-2056,-280,-121,262,48
290,232,-2056,-264,-108,263,49
295,232,-2032,-328,-98,262,52
300,232,-2040,-336,-88,261,53
305,232,-2040,-352,-80,261,56
310,240,-2040,-360,-72,259,60
315,240,-2040,-368,-68,259,61
320,232,-2024,-392,-65,255,63
325,224,-2040,-400,-61,252,64
330,224,-2032,-416,-57,249,68
335,192,-2040,-432,-53,242,67
340,160,-2032,-448,-49,236,72
345,176,-2008,-456,-44,228,73
350,152,-2000,-424,-37,220,78
355,128,-1992,-448,-31,210,82
360,88,-1992,-456,-21,197,85
365,72,-1984,-456,-9,183,89
370,64,-1984,-440,3,169,92
375,64,-1968,-448,18,151,93
380,32,-1952,-456,31,134,92
385,32,-1904,-440,44,116,89
390,32,-1912,-448,56,98,84
395,24,-1872,-440,66,79,76
400,48,-1864,-400,76,61,67
405,40,-1840,-456,83,42,54
410,72,-1856,-424,85,25,40
415,72,-1864,-392,82,12,23
420,112,-1928,-376,75,-1,5
425,104,-1968,-408,66,-13,-13
430,112,-2032,-384,56,-21,-29
435,136,-2104,-408,46,-26,-42
440,176,-2216,-424,38,-25,-51
445,160,-2256,-456,32,-23,-57
450,152,-2296,-416,29,-18,-63
455,192,-2352,-464,21,-12,-59
460,160,-2360,-448,17,-7,-51
465,184,-2368,-456,22,-3,-38
470,184,-2352,-448,33,-1,-21
475,160,-2328,-416,50,3,-3
480,184,-2304,-384,72,10,22
485,208,-2272,-336,100,20,51
490,232,-2192,-280,129,31,74
495,272,-2120,-296,153,40,97
500,296,-2080,-280,164,52,118
505,336,-2048,-280,166,68,138
510,368,-1992,-312,159,86,150
515,360,-1944,-344,141,106,156
520,368,-1936,-336,115,124,158
525,360,-1928,-408,80,143,157
530,336,-1936,-400,42,161,160
535,304,-1912,-424,4,179,166
540,272,-1952,-376,-29,193,174
545,232,-1984,-360,-57,205,187
550,184,-1968,-352,-79,218,197
555,160,-1968,-360,-90,224,206
560,104,-1976,-376,-98,224,210
565,104,-1984,-352,-104,224,218
570,96,-1992,-336,-107,219,222
575,48,-1960,-336,-108,216,227
580,32,-1976,-336,-110,209,234
585,24,-1984,-304,-109,204,246
590,0,-1992,-328,-103,197,252
595,0,-1984,-280,-94,191,255
600,0,-1984,-296,-81,187,254
605,0,-1992,-256,-67,181,254
610,0,-2008,-232,-51,175,251
615,8,-1976,-232,-34,167,245
620,16,-1976,-248,-17,158,240
625,-16,-1968,-232,-3,148,230
630,0,-1976,-232,9,139,221
635,8,-1984,-208,20,130,213
640,0,-1944,-256,27,121,207
645,-24,-1936,-232,30,114,198
650,-16,-1960,-240,32,109,192
655,-8,-1968,-240,37,103,186
660,-32,-1952,-232,41,97,176
665,-16,-1936,-208,42,92,170
670,0,-1936,-248,41,88,162
675,8,-1936,-200,38,84,154
680,0,-1960,-248,39,76,143
685,32,-1944,-232,39,72,131
690,24,-1944,-248,35,67,121
695,32,-1952,-184,33,65,112
700,40,-1944,-192,31,60,104
705,56,-1952,-208,26,56,98
710,56,-1976,-216,23,54,91
715,72,-1952,-200,23,51,84
720,88,-1960,-232,24,54,75
725,80,-1952,-168,27,56,66
730,96,-1936,-224,28,59,57
735,96,-1960,-208,31,65,46
740,96,-1968,-216,31,70,36
745,96,-1952,-192,29,75,28
750,80,-1984,-176,28,82,21
755,96,-1992,-168,27,89,15
760,88,-1984,-192,24,96,9
765,88,-1992,-192,24,103,4
770,96,-1976,-160,25,109,-3
775,88,-1976,-176,32,115,-8
780,80,-1976,-168,35,122,-11
785,72,-1944,-264,33,126,-14
790,72,-1976,-184,32,135,-16
795,32,-1944,-160,29,145,-17
800,48,-1984,-184,22,154,-19
805,32,-1952,-128,15,164,-16
810,40,-1944,-160,14,172,-14
815,16,-1960,-152,15,179,-11
820,48,-1984,-144,18,189,-8
825,8,-1992,-128,20,198,-5
830,64,-1992,-152,20,207,-5
835,48,-1992,-136,17,214,-4
840,24,-1992,-152,14,221,-3
845,8,-1992,-144,10,226,-1
850,8,-2008,-120,6,230,6
855,8,-2008,-120,2,227,12
860,0,-2016,-120,1,225,21
865,-40,-2016,-112,1,224,32
870,-56,-2008,-80,2,220,43
875,-56,-2048,-88,2,216,51
880,-80,-2040,-80,2,210,60
885,-72,-2096,-88,5,204,67
890,-32,-2096,-32,6,200,72
895,-112,-2128,-48,9,198,74
900,-112,-2160,-40,10,197,76
905,-88,-2224,-32,12,196,77
910,-80,-2272,-40,13,196,74
915,-80,-2304,-32,13,195,70
920,-88,-2328,8,16,197,66
925,-72,-2328,-48,17,199,58
930,-88,-2360,-24,19,203,52
935,-88,-2352,-24,22,213,46
940,-104,-2408,-40,25,221,39
945,-136,-2392,-16,29,229,31
950,-184,-2384,-56,28,236,25
955,-224,-2408,-136,16,233,21
960,-232,-2432,-224,-20,219,21
965,-296,-2488,-352,-80,197,20
970,-328,-2544,-488,-155,173,21
975,-440,-2576,-592,-236,147,26
980,-504,-2616,-576,-302,112,35
985,-512,-2704,-440,-332,70,49
990,-456,-2712,-352,-318,27,62
995,-392,-2752,-256,-284,-12,74
1000,-296,-2744,-216,-245,-48,84
1005,-272,-2736,-224,-202,-85,92
1010,-176,-2696,-160,-147,-116,99
1015,-144,-2600,-128,-82,-147,107
1020,-112,-2552,-80,-12,-173,112
1025,-16,-2480,-64,54,-193,118
1030,16,-2400,-48,113,-201,121
1035,48,-2344,-120,161,-201,121
1040,120,-2288,-112,193,-191,121
1045,168,-2208,-136,210,-171,115
1050,208,-2176,-208,212,-139,104
1055,248,-2120,-328,193,-99,92
1060,304,-2136,-456,155,-57,73
1065,256,-2144,-608,100,-13,52
1070,192,-2120,-712,34,30,37
1075,168,-2152,-792,-34,69,27
1080,112,-2136,-824,-90,102,18
1085,72,-2160,-840,-125,134,5
1090,56,-2104,-832,-143,166,-10
1095,80,-2032,-864,-152,198,-30
1100,136,-1968,-920,-156,224,-52
1105,216,-1872,-912,-161,243,-73
1110,256,-1800,-888,-159,258,-90
1115,312,-1744,-816,-149,270,-102
1120,336,-1720,-824,-131,279,-108
1125,352,-1648,-800,-111,280,-108
1130,408,-1672,-784,-93,272,-103
1135,416,-1648,-736,-80,261,-98
1140,440,-1720,-688,-73,248,-91
1145,456,-1776,-648,-63,233,-86
1150,432,-1824,-632,-49,221,-86
1155,368,-1832,-640,-33,215,-86
1160,328,-1864,-608,-23,209,-85
1165,272,-1904,-616,-15,203,-81
1170,216,-1952,-616,-7,193,-83
1175,160,-1984,-640,-4,184,-85
1180,144,-2016,-600,-1,174,-91
1185,104,-2048,-568,5,167,-102
1190,120,-2072,-552,13,165,-112
1195,136,-2056,-552,23,167,-123
1200,144,-2056,-504,38,165,-136
1205,184,-2056,-528,50,161,-156
1210,200,-2016,-528,67,158,-173
1215,176,-1984,-560,79,157,-186
1220,184,-1928,-560,89,154,-199
1225,224,-1872,-536,101,155,-206
1230,208,-1800,-576,108,153,-213
1235,200,-1760,-552,117,155,-221
1240,176,-1728,-544,115,154,-226
1245,176,-1696,-544,111,151,-228
1250,104,-1640,-520,114,148,-230
1255,80,-1608,-504,111,140,-226
1260,72,-1632,-472,105,130,-224
1265,16,-1608,-480,98,117,-221
1270,24,-1624,-480,83,99,-212
1275,16,-1624,-440,70,83,-196
1280,16,-1640,-456,58,67,-182
1285,-24,-1632,-416,48,48,-177
1290,0,-1656,-424,44,32,-169
1295,16,-1688,-384,41,16,-159
1300,8,-1696,-392,38,5,-150
1305,24,-1720,-384,35,-7,-138
1310,64,-1728,-384,28,-21,-129
1315,104,-1760,-360,21,-35,-125
1320,112,-1792,-352,17,-46,-123
1325,120,-1792,-376,20,-56,-123
1330,152,-1792,-376,20,-67,-123
1335,128,-1792,-384,23,-79,-129
1340,160,-1832,-360,25,-90,-135
1345,152,-1824,-392,26,-99,-137
1350,208,-1856,-336,30,-106,-136
1355,200,-1840,-336,31,-110,-136
1360,216,-1840,-336,33,-110,-132
1365,232,-1840,-344,32,-108,-123
1370,240,-1832,-320,31,-106,-116
1375,264,-1824,-304,35,-104,-111
1380,232,-1776,-304,43,-100,-103
1385,264,-1776,-304,46,-92,-94
1390,280,-1784,-304,43,-87,-88
1395,256,-1736,-248,42,-82,-81
1400,232,-1744,-248,42,-83,-77
1405,192,-1736,-192,45,-87,-74
1410,216,-1816,-232,46,-91,-70
1415,192,-1840,-184,40,-94,-63
1420,208,-1896,-176,30,-97,-55
1425,176,-1896,-144,24,-103,-50
1430,192,-1896,-88,29,-109,-48
1435,120,-1944,-112,35,-119,-45
1440,104,-1984,-104,39,-129,-42
1445,72,-1992,-88,44,-139,-39
1450,72,-2008,-64,53,-153,-35
1455,64,-2032,-64,62,-165,-31
1460,64,-2032,-64,77,-178,-25
1465,72,-2048,-72,89,-190,-18
1470,88,-2048,-64,101,-202,-10
1475,64,-2024,-48,117,-212,-5
1480,80,-2040,-24,137,-220,0
1485,96,-2048,-40,156,-224,4
1490,120,-2032,-72,170,-223,6
1495,128,-2000,-80,180,-219,10
1500,160,-1992,-144,183,-212,13
1505,176,-1984,-160,175,-207,17
1510,200,-1976,-200,160,-201,21
1515,248,-2000,-184,139,-197,24
1520,256,-2032,-176,118,-198,22
1525,240,-2088,-136,102,-207,18
1530,192,-2136,-64,97,-219,13
1535,168,-2216,-32,103,-234,8
1540,136,-2304,0,113,-246,1
1545,136,-2336,8,117,-250,-7
1550,144,-2400,16,116,-245,-16
1555,160,-2456,16,115,-234,-29
1560,200,-2472,32,120,-218,-43
1565,240,-2496,40,133,-202,-56
1570,264,-2488,48,158,-186,-69
1575,296,-2456,144,191,-170,-80
1580,304,-2432,136,225,-159,-89
1585,312,-2408,152,257,-152,-94
1590,336,-2352,160,288,-145,-95
1595,464,-2376,88,313,-134,-95
1600,488,-2392,-40,317,-97,-98
1605,528,-2488,-208,286,-34,-95
1610,512,-2560,-504,197,19,-110
1615,584,-2632,-832,45,41,-151
1620,704,-2680,-960,-139,46,-212
1625,784,-2776,-896,-284,55,-278
1630,752,-2904,-712,-334,80,-324
1635,616,-2960,-632,-309,123,-361
1640,528,-2920,-568,-262,167,-392
1645,496,-2760,-488,-207,215,-417
1650,400,-2720,-328,-130,259,-425
1655,264,-2664,-104,-20,293,-411
1660,88,-2576,-8,101,307,-382
1665,-40,-2496,80,212,308,-341
1670,-120,-2368,-32,297,298,-290
1675,-216,-2216,-136,336,272,-234
1680,-304,-2096,-272,328,227,-182
1685,-304,-2024,-480,282,165,-135
1690,-280,-1992,-696,216,96,-97
1695,-248,-1968,-888,146,23,-74
1700,-136,-1992,-1040,68,-45,-63
1705,24,-1984,-1208,-17,-106,-77
1710,192,-1952,-1216,-98,-162,-113
1715,328,-1880,-1168,-162,-227,-165
1720,424,-1864,-1112,-193,-298,-219
1725,496,-1880,-968,-193,-366,-255
1730,496,-1872,-896,-175,-416,-266
1735,480,-1896,-816,-145,-436,-259
1740,464,-1952,-816,-110,-428,-244
1745,376,-2016,-768,-84,-398,-214
1750,320,-2064,-744,-76,-350,-172
1755,240,-2136,-712,-70,-294,-122
1760,176,-2184,-688,-55,-231,-74
1765,88,-2208,-664,-28,-174,-30
1770,48,-2224,-640,12,-131,14
1775,24,-2168,-632,58,-100,54
1780,0,-2120,-632,97,-83,91
1785,8,-2112,-648,129,-72,124
1790,16,-2032,-640,143,-63,154
1795,48,-2016,-664,143,-53,179
1800,112,-1992,-696,130,-46,196
1805,168,-1960,-664,112,-45,202
1810,208,-1944,-632,100,-48,200
1815,232,-1888,-616,95,-59,199
1820,248,-1880,-560,96,-67,199
1825,272,-1856,-512,101,-76,201
1830,264,-1840,-448,105,-84,200
1835,264,-1856,-488,112,-91,203
1840,256,-1816,-456,121,-100,205
1845,224,-1800,-432,125,-116,206
1850,224,-1744,-448,130,-136,210
1855,192,-1704,-448,134,-151,218
1860,144,-1704,-456,134,-162,230
1865,128,-1664,-456,127,-171,243
1870,96,-1632,-456,120,-179,256
1875,64,-1640,-456,111,-186,267
1880,56,-1632,-432,104,-190,279
1885,40,-1600,-400,94,-193,293
1890,8,-1600,-408,81,-193,309
1895,24,-1624,-400,65,-189,320
1900,40,-1632,-360,50,-184,326
1905,40,-1656,-392,40,-180,326
1910,64,-1672,-368,30,-174,314
1915,72,-1656,-352,24,-164,298
1920,48,-1672,-336,20,-152,284
1925,80,-1696,-336,21,-145,265
1930,72,-1688,-320,28,-136,241
1935,80,-1712,-336,37,-126,217
1940,96,-1696,-312,45,-116,194
1945,64,-1680,-320,56,-100,172
1950,88,-1704,-304,61,-83,152
1955,88,-1680,-288,59,-70,137
1960,40,-1688,-264,56,-53,123
1965,56,-1696,-264,55,-37,116
1970,40,-1720,-256,55,-26,108
1975,56,-1776,-232,56,-19,97
1980,8,-1792,-232,57,-12,85
1985,32,-1768,-232,56,-3,74
1990,48,-1792,-208,59,6,67
1995,24,-1800,-216,57,13,60
2000,64,-1816,-192,55,22,56
2005,32,-1792,-176,59,29,47
2010,40,-1800,-168,62,33,40
2015,64,-1768,-168,73,37,34
2020,32,-1736,-176,82,42,32
2025,56,-1736,-168,88,47,28
2030,32,-1712,-160,92,54,26
2035,48,-1712,-144,94,63,21
2040,48,-1744,-144,94,71,15
2045,40,-1736,-112,97,82,9
2050,16,-1760,-80,102,97,3
2055,32,-1808,-72,113,113,0
2060,24,-1808,-48,124,131,-3
2065,56,-1872,-112,128,154,-6
2070,56,-1920,-120,127,180,-11
2075,88,-1952,-176,121,208,-13
2080,88,-2008,-64,116,238,-16
2085,96,-2008,-24,122,265,-18
2090,112,-2000,24,140,290,-23
2095,152,-2032,16,171,312,-24
2100,168,-2056,48,198,333,-23
2105,168,-2096,32,224,344,-19
2110,160,-2056,0,250,351,-19
2115,136,-2032,-64,270,345,-20
2120,96,-2016,-144,272,323,-21
2125,8,-2032,-216,252,294,-19
2130,0,-2096,-240,221,277,-8
2135,-32,-2160,-160,201,274,6
2140,-104,-2240,-144,203,289,22
2145,-200,-2264,-16,225,311,44
2150,-280,-2344,-16,246,320,65
2155,-312,-2360,-40,248,316,94
2160,-328,-2400,-64,234,300,125
2165,-368,-2416,-104,225,282,153
2170,-344,-2472,-80,229,279,178
2175,-304,-2520,-72,242,292,198
2180,-272,-2528,40,265,315,208
2185,-176,-2544,160,296,347,214
2190,-88,-2464,304,338,378,213
2195,-16,-2464,344,378,408,210
2200,0,-2400,400,416,436,205
2205,-24,-2336,400,449,463,202
2210,-96,-2304,360,468,483,202
2215,0,-2376,296,448,490,210
2220,80,-2528,-48,397,498,220
2225,96,-2704,-568,289,534,226
2230,0,-2696,-1032,93,577,219
2235,-168,-2760,-1000,-138,561,218
2240,-360,-2856,-664,-255,478,233
2245,-432,-2984,-440,-200,394,275
2250,-472,-2992,-408,-95,326,322
2255,-400,-2952,-400,-19,261,376
2260,-272,-2784,-320,64,197,422
2265,-144,-2536,-248,205,156,445
2270,0,-2352,-240,362,148,458
2275,128,-2112,-320,457,167,458
2280,296,-1912,-440,460,196,440
2285,504,-1736,-568,404,234,410
2290,648,-1648,-712,317,294,379
2295,728,-1608,-840,211,372,345
2300,928,-1648,-864,108,466,318
2305,960,-1712,-992,13,565,297
2310,992,-1840,-1088,-82,649,289
2315,984,-1896,-1080,-164,700,296
2320,864,-1968,-992,-180,731,310
2325,800,-2368,-928,-168,752,346
2330,736,-2640,-840,-195,750,362
2335,656,-2792,-720,-222,734,352
2340,592,-2816,-664,-219,713,339
2345,488,-2800,-544,-181,694,317
2350,384,-2744,-504,-119,671,289
2355,256,-2608,-456,-45,635,252
2360,136,-2488,-448,24,597,210
2365,72,-2384,-464,79,566,168
2370,-88,-2264,-440,134,542,121
2375,-176,-2152,-440,163,534,68
2380,-160,-2072,-416,172,535,18
2385,-224,-1984,-400,174,538,-32
2390,-208,-1920,-432,164,539,-75
2395,-184,-1840,-416,153,542,-130
2400,-128,-1888,-408,138,549,-183
2405,-56,-1832,-352,112,553,-232
2410,-8,-1832,-328,82,552,-275
2415,16,-1824,-304,62,546,-313
2420,104,-1792,-288,47,539,-341
2425,160,-1752,-256,40,538,-363
2430,200,-1712,-264,40,545,-375
2435,216,-1672,-232,43,556,-375
2440,264,-1592,-216,45,571,-368
2445,280,-1568,-240,40,580,-359
2450,280,-1520,-224,30,582,-345
2455,272,-1600,-216,11,580,-330
2460,240,-1512,-240,-16,574,-318
2465,216,-1480,-208,-33,562,-306
2470,168,-1472,-224,-41,544,-288
2475,144,-1496,-248,-54,519,-268
2480,88,-1488,-160,-77,496,-245
2485,32,-1520,-152,-96,472,-228
2490,0,-1536,-112,-103,445,-211
2495,-72,-1576,-128,-110,415,-194
2500,-88,-1624,-120,-121,381,-181
2505,-120,-1616,-80,-136,345,-167
2510,-152,-1696,-88,-147,311,-159
2515,-168,-1720,-88,-154,274,-155
2520,-184,-1752,-80,-158,239,-150
2525,-200,-1792,-72,-157,202,-145
2530,-208,-1792,-80,-150,164,-140
2535,-128,-1872,-88,-143,131,-137
2540,-80,-1864,-104,-139,103,-132
2545,-32,-1880,-88,-136,79,-123
2550,8,-1848,-120,-127,61,-108
2555,40,-1840,-96,-119,48,-98
2560,64,-1840,-128,-119,42,-83
2565,104,-1808,-136,-122,35,-67
2570,112,-1792,-120,-118,31,-56
2575,136,-1736,-112,-110,31,-46
2580,152,-1736,-64,-102,32,-34
2585,160,-1744,-56,-96,35,-27
2590,152,-1744,-32,-91,35,-17
2595,160,-1720,32,-85,34,-13
2600,152,-1744,64,-74,32,-10
2605,144,-1712,80,-65,28,-7
2610,144,-1768,72,-57,28,-4
2615,168,-1776,104,-54,25,-4
2620,176,-1824,160,-50,24,-3
2625,152,-1832,112,-51,23,2
2630,144,-1848,128,-53,16,5
2635,128,-1920,144,-50,3,8
2640,112,-1944,112,-39,-15,16
2645,80,-1960,120,-31,-37,25
2650,88,-1968,72,-26,-66,32
2655,88,-1976,96,-26,-90,30
2660,56,-1992,96,-31,-113,25
2665,40,-1992,80,-40,-135,19
2670,24,-1984,32,-48,-155,13
2675,8,-1936,0,-53,-167,9
2680,8,-1880,-56,-61,-174,15
2685,0,-1872,-128,-78,-181,27
2690,-8,-1864,-168,-109,-192,39
2695,-16,-1912,-144,-137,-209,48
2700,-24,-1984,-120,-174,-231,52
2705,-40,-2056,-32,-199,-259,52
2710,-40,-2168,0,-217,-276,47
2715,-8,-2248,32,-239,-291,38
2720,56,-2344,-8,-265,-292,27
2725,176,-2448,56,-294,-277,11
2730,288,-2544,40,-321,-243,-14
2735,408,-2624,72,-331,-194,-44
2740,496,-2688,160,-313,-138,-81
2745,576,-2728,208,-267,-88,-118
2750,624,-2720,264,-198,-46,-155
2755,616,-2680,296,-119,-20,-188
2760,584,-2608,344,-34,-9,-213
2765,552,-2544,368,44,-16,-227
2770,536,-2504,360,111,-26,-226
2775,544,-2512,304,156,-26,-220
2780,624,-2600,176,166,0,-212
2785,576,-2712,-104,109,42,-216
2790,592,-2776,-424,-42,52,-240
2795,616,-2792,-672,-260,40,-283
2800,712,-2840,-640,-472,38,-326
2805,744,-2928,-488,-584,53,-363
2810,720,-3016,-392,-598,88,-392
2815,592,-3016,-400,-577,140,-427
2820,472,-2928,-384,-549,209,-459
2825,432,-2776,-264,-488,294,-476
2830,408,-2616,-224,-382,383,-473
2835,344,-2504,-144,-257,455,-452
2840,224,-2448,-120,-147,498,-427
2845,128,-2328,-136,-68,510,-393
2850,32,-2240,-184,-18,494,-351
2855,-56,-2104,-224,6,456,-299
2860,-128,-2016,-296,10,397,-246
2865,-224,-1944,-368,-3,324,-194
2870,-232,-1888,-456,-34,240,-143
2875,-192,-1920,-592,-81,160,-104
2880,-112,-1920,-680,-137,92,-82
2885,0,-1872,-824,-199,39,-80
2890,72,-1800,-944,-256,-9,-109
2895,184,-1736,-1128,-315,-59,-163
2900,328,-1712,-1224,-395,-103,-219
2905,456,-1760,-1176,-487,-138,-262
2910,488,-1768,-1016,-550,-167,-295
2915,464,-1808,-896,-557,-184,-304
2920,424,-1816,-832,-522,-188,-297
2925,392,-1864,-800,-469,-179,-276
2930,336,-1904,-792,-435,-155,-240
2935,264,-1960,-784,-424,-128,-200
2940,176,-1968,-784,-417,-93,-156
2945,72,-2016,-704,-400,-58,-115
2950,8,-2096,-680,-370,-30,-73
2955,-16,-2160,-656,-335,-15,-32
2960,-64,-2208,-608,-293,-10,3
2965,-40,-2248,-560,-243,-7,34
2970,-16,-2232,-552,-188,-2,64
2975,8,-2208,-560,-138,13,84
2980,24,-2144,-616,-99,37,97
2985,80,-2088,-640,-76,63,109
2990,128,-2032,-656,-66,86,116
2995,176,-2040,-664,-61,100,120
3000,272,-1992,-672,-58,108,125
3005,280,-1976,-632,-53,107,132
3010,304,-1928,-608,-47,107,144
3015,368,-1872,-568,-37,100,151
3020,352,-1824,-528,-23,92,156
3025,352,-1808,-536,-9,79,159
3030,312,-1784,-520,-1,68,167
3035,328,-1768,-472,5,54,181
3040,288,-1728,-456,15,41,197
3045,256,-1640,-456,26,27,212
3050,208,-1624,-472,37,14,227
3055,112,-1632,-440,41,1,241
3060,176,-1552,-456,37,-12,258
3065,136,-1544,-432,28,-22,269
3070,144,-1520,-448,20,-28,278
3075,64,-1496,-432,9,-32,288
3080,104,-1520,-464,-10,-35,297
3085,88,-1536,-440,-34,-31,299
3090,96,-1568,-384,-57,-25,295
3095,48,-1584,-384,-74,-20,283
3100,56,-1608,-336,-88,-9,270
3105,56,-1648,-336,-107,3,256
3110,56,-1640,-320,-124,16,238
3115,40,-1688,-320,-136,27,215
3120,48,-1696,-264,-143,42,191
3125,40,-1680,-304,-142,57,167
3130,96,-1704,-304,-140,74,147
3135,56,-1728,-288,-140,96,127
3140,72,-1752,-344,-146,116,108
3145,32,-1744,-296,-155,134,91
3150,80,-1800,-320,-161,150,79
3155,72,-1776,-304,-171,160,68
3160,96,-1784,-296,-180,169,57
3165,40,-1792,-344,-182,176,45
3170,48,-1792,-320,-181,175,31
3175,64,-1840,-280,-176,180,22
3180,56,-1848,-304,-174,185,16
3185,16,-1848,-280,-169,186,10
3190,0,-1824,-272,-157,186,0
3195,8,-1848,-256,-143,182,-6
3200,-16,-1808,-256,-126,176,-13
3205,0,-1856,-240,-101,172,-18
3210,8,-1880,-232,-74,169,-25
3215,8,-1896,-232,-46,169,-35
3220,8,-1912,-168,-19,172,-44
3225,24,-1944,-160,5,177,-51
3230,16,-1968,-144,29,185,-56
3235,24,-1976,-128,48,195,-61
3240,64,-1976,-144,66,205,-67
3245,72,-2008,-120,80,217,-72
3250,72,-2032,-136,93,227,-79
3255,72,-2040,-128,105,236,-85
3260,72,-2064,-120,121,246,-90
3265,144,-2032,-72,137,252,-94
3270,112,-2048,-88,154,258,-100
3275,56,-2040,-88,172,260,-105
3280,32,-2024,-72,189,255,-104
3285,0,-2016,-88,204,238,-99
3290,-96,-1960,-144,209,208,-90
3295,-104,-1960,-264,199,161,-83
3300,-112,-1904,-352,168,113,-80
3305,-136,-1888,-384,136,75,-77
3310,-104,-1880,-392,104,66,-69
3315,-72,-1960,-280,94,85,-53
3320,-24,-1992,-208,103,120,-39
3325,-40,-2048,-120,123,164,-26
3330,8,-2144,-56,140,189,-16
3335,8,-2232,-104,141,190,-11
3340,24,-2304,-136,138,173,-1
3345,40,-2360,-168,136,145,5
3350,56,-2392,-168,143,121,15
3355,72,-2440,-168,155,110,21
3360,88,-2488,-136,181,116,28
3365,104,-2480,-88,215,139,35
3370,168,-2472,-48,251,173,38
3375,192,-2448,24,286,214,39
3380,264,-2416,64,320,258,37
3385,264,-2368,96,350,306,37
3390,232,-2360,104,376,360,43
3395,120,-2384,96,378,405,52
3400,128,-2464,32,346,428,73
3405,144,-2616,-152,285,447,94
3410,16,-2720,-512,186,472,111
3415,-72,-2680,-840,15,488,131
3420,-248,-2648,-984,-203,466,153
3425,-376,-2720,-912,-381,398,189
3430,-448,-2784,-808,-467,305,236
3435,-488,-2872,-752,-478,219,288
3440,-488,-2840,-672,-440,150,343
3445,-480,-2784,-608,-354,78,396
3450,-432,-2632,-488,-214,10,442
3455,-312,-2488,-336,-42,-45,480
3460,-160,-2296,-264,130,-85,495
3465,0,-2168,-280,284,-99,487
3470,152,-2040,-320,399,-95,458
3475,208,-1896,-368,471,-74,413
3480,296,-1704,-456,500,-41,374
3485,440,-1592,-640,476,4,332
3490,520,-1552,-800,394,65,290
3495,544,-1576,-944,265,140,252
3500,544,-1600,-1064,108,214,220
3505,560,-1640,-1112,-46,278,194
3510,544,-1752,-1080,-171,337,183
3515,480,-1944,-1016,-257,404,185
3520,424,-2104,-896,-311,479,193
3525,432,-2280,-840,-342,545,191
3530,424,-2432,-776,-353,587,177
3535,360,-2496,-736,-349,599,156
3540,320,-2520,-672,-318,582,128
3545,232,-2512,-664,-265,542,106
3550,176,-2496,-584,-205,488,89
3555,128,-2440,-616,-149,426,72
3560,88,-2368,-568,-93,368,62
3565,24,-2280,-504,-30,312,49
3570,0,-2168,-520,35,259,35
3575,-16,-2128,-528,86,212,18
3580,-16,-2080,-544,122,172,-4
3585,-40,-1992,-568,140,134,-34
3590,-72,-1944,-544,150,100,-66
3595,-56,-1888,-600,149,73,-100
3600,-32,-1832,-584,133,50,-129
3605,-40,-1816,-536,113,27,-154
3610,0,-1800,-512,90,9,-167
3615,0,-1816,-504,71,-2,-177
3620,24,-1816,-504,50,0,-185
3625,40,-1816,-456,41,11,-194
3630,24,-1808,-432,36,27,-199
3635,48,-1784,-408,30,42,-205
3640,40,-1712,-424,25,59,-202
3645,96,-1704,-456,24,75,-193
3650,96,-1680,-416,19,82,-191
3655,88,-1624,-392,10,83,-198
3660,96,-1616,-440,5,81,-204
3665,48,-1552,-440,3,73,-210
3670,48,-1488,-424,4,56,-210
3675,64,-1480,-432,4,34,-211
3680,80,-1512,-392,0,10,-217
3685,40,-1504,-384,-8,-15,-224
3690,32,-1528,-352,-22,-39,-226
3695,72,-1560,-320,-34,-61,-230
3700,56,-1560,-344,-40,-83,-233
3705,8,-1632,-280,-47,-105,-233
3710,16,-1672,-288,-52,-130,-228
3715,32,-1720,-256,-58,-155,-219
3720,24,-1736,-272,-61,-182,-215
3725,48,-1752,-248,-58,-209,-208
3730,64,-1800,-240,-51,-231,-202
3735,80,-1832,-232,-49,-247,-193
3740,112,-1864,-224,-52,-260,-181
3745,144,-1872,-248,-55,-270,-169
3750,200,-1872,-256,-57,-274,-162
3755,208,-1840,-240,-49,-273,-161
3760,216,-1824,-240,-36,-267,-155
3765,216,-1824,-256,-24,-258,-146
3770,232,-1808,-264,-18,-252,-143
3775,232,-1784,-248,-8,-244,-141
3780,232,-1752,-264,3,-237,-138
3785,232,-1752,-248,12,-230,-135
3790,208,-1728,-232,18,-222,-129
3795,216,-1712,-216,17,-218,-122
3800,208,-1728,-216,14,-217,-113
3805,184,-1752,-200,7,-220,-102
3810,168,-1776,-136,-5,-226,-92
3815,104,-1800,-176,-17,-234,-83
3820,120,-1800,-176,-26,-240,-73
3825,72,-1864,-112,-29,-249,-63
3830,64,-1920,-104,-28,-264,-57
3835,80,-1976,-88,-26,-282,-52
3840,24,-2008,-72,-21,-304,-50
3845,8,-2048,-64,-7,-330,-50
3850,0,-2064,-64,11,-358,-51
3855,0,-2072,-64,28,-384,-46
3860,0,-2072,-88,50,-405,-42
3865,16,-2096,-112,67,-420,-33
3870,24,-2104,-112,80,-427,-27
3875,16,-2120,-144,83,-430,-25
3880,72,-2128,-160,81,-426,-23
3885,80,-2104,-192,78,-417,-25
3890,120,-2104,-224,75,-401,-22
3895,176,-2072,-280,67,-375,-17
3900,224,-2088,-240,57,-352,-10
3905,264,-2136,-160,55,-336,-7
3910,256,-2152,-8,69,-330,-6
3915,240,-2216,48,106,-334,-7
3920,224,-2232,88,148,-340,-9
3925,200,-2328,96,176,-341,-13
3930,208,-2368,64,184,-338,-17
3935,216,-2408,80,181,-329,-28
3940,272,-2448,64,173,-314,-41
3945,312,-2496,40,168,-290,-57
3950,328,-2480,80,171,-259,-76
3955,336,-2488,112,183,-227,-99
3960,400,-2456,120,195,-199,-115
3965,368,-2448,168,215,-176,-131
3970,384,-2376,176,240,-162,-142
3975,440,-2360,152,270,-154,-150
3980,464,-2384,72,290,-130,-157
3985,464,-2416,-40,281,-87,-158
3990,448,-2504,-272,229,-40,-168
3995,488,-2616,-600,115,-20,-193
4000,504,-2688,-856,-54,-30,-242
4005,584,-2824,-872,-221,-42,-295
4010,576,-2912,-728,-301,-40,-339
4015,536,-3000,-600,-286,-15,-368
4020,464,-3024,-568,-240,33,-396
4025,328,-2960,-520,-203,97,-427
4030,312,-2832,-432,-153,166,-452
4035,328,-2688,-304,-60,235,-462
4040,248,-2528,-168,60,290,-456
4045,144,-2424,-48,176,322,-438
4050,-24,-2280,24,271,335,-401
4055,-176,-2072,16,331,328,-352
4060,-232,-1968,-64,346,303,-291
4065,-264,-1896,-136,316,261,-232
4070,-368,-1848,-232,250,195,-167
4075,-400,-1848,-368,172,111,-106
4080,-424,-1912,-536,93,17,-48
4085,-368,-1952,-704,19,-75,-6
4090,-240,-1920,-944,-38,-167,0
4095,-112,-1848,-1224,-93,-251,-35
4100,120,-1936,-1384,-186,-328,-75
4105,280,-1960,-1264,-294,-396,-111
4110,360,-1992,-1080,-339,-467,-159
4115,416,-1976,-912,-309,-522,-204
4120,456,-1992,-848,-244,-545,-234
4125,448,-2000,-784,-186,-533,-251
4130,456,-2072,-808,-148,-494,-254
4135,432,-2120,-792,-134,-439,-236
4140,376,-2136,-736,-131,-369,-209
4145,248,-2184,-728,-122,-285,-181
4150,152,-2160,-672,-99,-202,-142
4155,40,-2168,-640,-59,-133,-98
4160,32,-2168,-560,-16,-85,-55
4165,0,-2120,-560,26,-61,-9
4170,0,-2104,-520,56,-57,37
4175,8,-2048,-568,78,-61,79
4180,8,-2016,-600,89,-64,115
4185,8,-2008,-608,77,-70,152
4190,72,-1992,-616,49,-85,175
4195,80,-1968,-616,29,-106,187
4200,128,-1944,-528,22,-133,191
4205,112,-1944,-480,25,-163,194
4210,120,-1960,-456,30,-193,198
4215,152,-1968,-416,35,-222,201
4220,112,-1904,-432,42,-253,205
4225,128,-1904,-408,51,-281,208
4230,128,-1856,-408,68,-308,205
4235,104,-1800,-368,81,-328,205
4240,64,-1736,-400,85,-340,212
4245,72,-1704,-376,84,-346,218
4250,64,-1656,-368,84,-345,224
4255,56,-1592,-376,83,-339,229
4260,72,-1584,-384,78,-333,235
4265,64,-1544,-376,66,-327,239
4270,56,-1528,-336,54,-321,238
4275,72,-1544,-360,43,-314,233
4280,32,-1560,-352,31,-306,232
4285,48,-1576,-328,13,-297,227
4290,72,-1616,-344,-5,-285,221
4295,96,-1640,-312,-21,-273,210
4300,128,-1640,-336,-35,-255,195
4305,104,-1640,-304,-43,-237,175
4310,120,-1648,-280,-48,-214,152
4315,128,-1680,-248,-51,-191,128
4320,120,-1672,-248,-53,-167,107
4325,112,-1704,-240,-52,-145,84
4330,120,-1704,-240,-49,-125,66
4335,80,-1728,-216,-47,-108,49
4340,80,-1720,-224,-40,-94,35
4345,56,-1744,-232,-34,-79,24
4350,24,-1808,-368,-32,-70,17
4355,16,-1728,-240,-33,-58,11
4360,32,-1760,-272,-31,-51,9
4365,8,-1760,-264,-30,-47,6
4370,8,-1800,-264,-30,-45,0
4375,8,-1848,-256,-33,-46,-9
4380,-16,-1816,-184,-38,-50,-19
4385,8,-1840,-224,-37,-57,-28
4390,0,-1840,-216,-37,-64,-38
4395,-8,-1832,-184,-33,-69,-53
4400,-8,-1856,-176,-23,-74,-65
4405,-40,-1832,-152,-10,-74,-76
4410,-24,-1856,-144,4,-72,-90
4415,-24,-1840,-144,25,-67,-103
4420,-40,-1840,-128,45,-59,-118
4425,-48,-1848,-88,62,-47,-125
4430,-8,-1880,-112,77,-33,-134
4435,-32,-1888,-72,89,-19,-139
4440,-16,-1904,-80,103,-4,-139
4445,-16,-1928,-48,118,8,-141
4450,-16,-1992,-88,133,24,-141
4455,8,-2040,-48,144,38,-144
4460,64,-2056,-24,158,53,-148
4465,32,-2096,-32,176,64,-156
4470,48,-2120,8,203,74,-165
4475,56,-2096,72,239,80,-171
4480,8,-2104,80,281,76,-174
4485,-32,-2080,96,320,63,-169
4490,-80,-2072,64,347,35,-157
4495,-120,-2056,-48,358,-6,-140
4500,-144,-2016,-144,347,-60,-123
4505,-136,-1984,-208,322,-110,-110
4510,-136,-1944,-240,296,-143,-103
4515,-120,-1968,-200,287,-143,-102
4520,-96,-2024,-136,295,-115,-99
4525,-56,-2064,-32,304,-76,-95
4530,-24,-2136,24,302,-41,-93
4535,32,-2168,-8,287,-24,-92
4540,56,-2248,-24,260,-20,-93
4545,72,-2280,-24,237,-29,-91
4550,80,-2352,8,227,-45,-88
4555,112,-2392,40,231,-57,-87
4560,80,-2416,128,250,-61,-81
4565,128,-2448,264,288,-52,-75
4570,96,-2464,288,332,-32,-66
4575,112,-2448,328,375,-1,-56
4580,112,-2408,368,415,36,-43
4585,136,-2360,344,448,75,-36
4590,144,-2320,368,471,114,-27
4595,128,-2328,296,474,156,-12
4600,-16,-2304,224,453,172,3
4605,-80,-2368,128,395,159,18
4610,-160,-2520,-96,306,142,30
4615,-240,-2744,-576,188,153,49
4620,-416,-2824,-920,25,168,71
4625,-552,-2896,-904,-146,138,102
4630,-640,-3000,-664,-223,84,152
4635,-752,-3048,-536,-184,31,225
4640,-768,-3040,-504,-112,-39,315
4645,-768,-2960,-520,-58,-148,402
4650,-720,-2760,-504,9,-279,475
4655,-632,-2512,-448,129,-398,525
4660,-512,-2312,-384,257,-490,557
4665,-368,-2112,-400,350,-553,566
4670,-216,-1960,-408,395,-585,545
4675,-104,-1832,-416,397,-584,503
4680,64,-1632,-544,360,-552,450
4685,264,-1472,-600,308,-494,393
4690,408,-1336,-616,246,-420,337
4695,520,-1328,-696,186,-332,295
4700,568,-1528,-880,103,-234,250
4705,568,-1744,-960,1,-147,203
4710,632,-1920,-912,-118,-75,167
4715,560,-2040,-824,-161,4,153
4720,552,-2304,-712,-181,65,163
4725,568,-2584,-656,-216,124,171
4730,600,-2752,-536,-244,157,167
4735,592,-2840,-448,-227,168,156
4740,536,-2720,-456,-162,158,145
4745,472,-2576,-496,-67,126,138
4750,328,-2440,-528,19,80,131
4755,200,-2296,-552,80,28,118
4760,72,-2208,-496,119,-26,95
4765,-16,-2096,-480,145,-75,70
4770,-136,-2024,-456,158,-121,39
4775,-232,-1984,-440,160,-161,8
4780,-280,-1952,-496,147,-196,-17
4785,-296,-1960,-472,128,-228,-44
4790,-320,-1896,-496,110,-257,-71
4795,-352,-1856,-520,98,-284,-108
4800,-312,-1824,-504,91,-309,-146
4805,-304,-1792,-496,80,-332,-180
4810,-216,-1808,-472,67,-354,-207
4815,-200,-1800,-432,48,-372,-231
4820,-168,-1800,-416,32,-386,-249
4825,-96,-1816,-384,26,-393,-267
4830,-80,-1800,-328,16,-395,-277
4835,-56,-1840,-312,7,-398,-281
4840,-16,-1792,-280,1,-400,-286
4845,0,-1784,-312,-5,-401,-287
4850,0,-1768,-304,-13,-404,-284
4855,16,-1744,-312,-24,-411,-279
4860,32,-1720,-320,-37,-421,-274
4865,16,-1688,-296,-50,-437,-274
4870,0,-1664,-296,-59,-458,-278
4875,0,-1696,-272,-72,-480,-281
4880,-16,-1672,-280,-85,-508,-283
4885,0,-1656,-312,-96,-538,-277
4890,8,-1728,-232,-104,-571,-271
4895,0,-1704,-224,-111,-606,-266
4900,-24,-1712,-256,-123,-643,-261
4905,-16,-1696,-232,-138,-682,-254
4910,-8,-1688,-288,-156,-721,-246
4915,0,-1688,-280,-172,-755,-238
4920,-24,-1688,-264,-189,-781,-229
4925,-32,-1688,-232,-207,-804,-218
4930,-8,-1688,-296,-222,-824,-210
4935,32,-1704,-256,-229,-838,-203
4940,24,-1704,-264,-232,-842,-196
4945,56,-1720,-232,-236,-842,-184
4950,96,-1728,-240,-243,-838,-178
4955,128,-1744,-272,-251,-829,-172
4960,136,-1744,-288,-262,-814,-168
4965,184,-1744,-280,-271,-797,-164
4970,200,-1808,-240,-276,-782,-160
4975,176,-1816,-240,-275,-768,-157
4980,192,-1864,-208,-271,-760,-155
4985,184,-1920,-184,-264,-753,-154
4990,152,-1944,-168,-252,-748,-152
4995,176,-1984,-168,-232,-741,-152
5000,152,-1992,-160,-211,-737,-151
5005,128,-1984,-160,-189,-734,-154
5010,88,-2040,-152,-168,-733,-149
5015,80,-2064,-152,-149,-735,-145
5020,32,-2072,-128,-129,-739,-140
5025,0,-2096,-104,-107,-749,-134
5030,0,-2096,-128,-82,-756,-126
5035,-40,-2080,-96,-63,-763,-118
5040,-64,-2048,-88,-47,-772,-108
5045,-80,-2008,-88,-31,-778,-101
5050,-64,-1968,-128,-16,-783,-91
5055,-24,-1976,-120,-4,-787,-84
5060,-8,-1960,-136,2,-787,-81
5065,0,-1936,-136,4,-788,-79
5070,24,-1904,-160,1,-787,-78
5075,64,-1920,-152,-7,-788,-80
5080,104,-1928,-160,-13,-789,-83
5085,136,-1944,-160,-21,-789,-87
5090,136,-1976,-128,-31,-790,-92
5095,136,-2016,-136,-42,-790,-96
5100,144,-2024,-112,-49,-796,-107
5105,104,-2080,-80,-55,-803,-119
5110,144,-2152,-96,-59,-814,-134
5115,128,-2208,-64,-57,-820,-149
5120,136,-2272,-48,-51,-820,-162
5125,176,-2304,-80,-46,-815,-174
5130,176,-2312,-48,-35,-803,-190
5135,224,-2328,-32,-21,-787,-207
5140,272,-2376,24,-4,-764,-224
5145,344,-2360,16,14,-734,-243
5150,368,-2344,40,39,-702,-261
5155,416,-2352,32,67,-667,-278
5160,400,-2344,56,95,-635,-292
5165,392,-2368,88,123,-610,-302
5170,352,-2360,120,149,-595,-309
5175,272,-2360,176,176,-592,-311
5180,240,-2320,184,203,-596,-307
5185,176,-2280,216,230,-609,-302
5190,104,-2256,240,259,-626,-292
5195,80,-2272,232,285,-644,-281
5200,88,-2376,128,300,-655,-270
5205,72,-2448,88,303,-652,-260
5210,40,-2552,-48,284,-656,-255
5215,112,-2608,-328,203,-685,-265
5220,208,-2584,-688,41,-723,-299
5225,368,-2600,-856,-158,-737,-348
5230,488,-2672,-824,-303,-722,-406
5235,512,-2752,-664,-341,-686,-457
5240,480,-2784,-632,-310,-642,-504
5245,376,-2696,-600,-264,-601,-545
5250,264,-2616,-552,-223,-568,-572
5255,96,-2520,-504,-178,-545,-579
5260,-80,-2440,-368,-124,-546,-563
5265,-208,-2400,-264,-67,-566,-533
5270,-472,-2360,-200,0,-598,-491
5275,-624,-2208,-184,74,-634,-441
5280,-784,-2160,-248,145,-666,-381
5285,-896,-2024,-344,189,-699,-323
5290,-912,-1952,-536,200,-738,-263
5295,-872,-1912,-664,177,-787,-216
5300,-864,-1904,-800,146,-843,-183
5305,-760,-1872,-952,106,-910,-163
5310,-584,-1800,-1192,55,-985,-163
5315,-408,-1688,-1456,-29,-1063,-193
5320,-160,-1616,-1776,-154,-1131,-248
5325,144,-1632,-1696,-288,-1184,-322
5330,312,-1672,-1552,-383,-1211,-406
5335,464,-1800,-1296,-428,-1215,-471
5340,520,-1952,-1096,-434,-1201,-509
5345,624,-2088,-888,-412,-1175,-520
5350,624,-2216,-744,-370,-1133,-511
5355,616,-2296,-680,-315,-1073,-479
5360,560,-2336,-672,-258,-1008,-429
5365,488,-2320,-704,-213,-941,-371
5370,344,-2280,-760,-180,-888,-312
5375,200,-2240,-776,-150,-851,-252
5380,112,-2200,-712,-122,-828,-193
5385,-24,-2128,-672,-95,-818,-133
5390,-144,-2136,-632,-76,-818,-71
5395,-208,-2160,-624,-60,-821,-17
5400,-248,-2128,-608,-49,-826,28
5405,-336,-2112,-648,-35,-833,66
5410,-336,-2080,-688,-26,-841,96
5415,-312,-2016,-704,-21,-849,113
5420,-280,-2000,-736,-14,-860,131
5425,-280,-1984,-712,-14,-875,145
5430,-248,-1960,-696,-15,-894,153
5435,-192,-1936,-672,-10,-913,155
5440,-160,-1904,-664,2,-932,153
5445,-136,-1832,-592,19,-954,150
5450,-96,-1784,-536,45,-976,142
5455,-120,-1688,-528,74,-1004,129
5460,-56,-1664,-496,103,-1031,115
5465,-32,-1584,-504,124,-1058,102
5470,0,-1560,-472,129,-1083,92
5475,16,-1488,-440,129,-1105,80
5480,0,-1472,-416,129,-1124,66
5485,40,-1448,-400,124,-1136,53
5490,24,-1472,-408,110,-1142,40
5495,40,-1480,-400,88,-1141,32
5500,56,-1488,-368,60,-1136,22
5505,72,-1520,-312,28,-1126,14
5510,88,-1584,-320,-9,-1115,3
5515,112,-1608,-328,-43,-1102,-11
5520,80,-1608,-336,-69,-1092,-28
5525,72,-1664,-320,-93,-1078,-50
5530,64,-1696,-304,-118,-1063,-68
5535,56,-1720,-296,-141,-1048,-87
5540,32,-1752,-280,-156,-1033,-108
5545,24,-1744,-280,-160,-1020,-128
5550,0,-1792,-280,-159,-1005,-149
5555,-24,-1800,-288,-152,-993,-169
5560,-64,-1776,-296,-145,-986,-190
5565,-104,-1792,-320,-137,-979,-205
5570,-120,-1800,-248,-126,-974,-213
5575,-144,-1816,-288,-113,-970,-223
5580,-152,-1816,-296,-96,-967,-232
5585,-152,-1832,-320,-81,-970,-242
5590,-160,-1848,-312,-61,-975,-249
5595,-168,-1848,-312,-35,-984,-260
5600,-160,-1848,-328,-7,-997,-274
5605,-144,-1832,-360,19,-1012,-288
5610,-176,-1824,-328,47,-1025,-298
5615,-168,-1832,-312,75,-1034,-311
5620,-152,-1856,-320,98,-1040,-322
5625,-144,-1864,-320,116,-1047,-334
5630,-120,-1904,-256,130,-1050,-344
5635,-136,-1904,-248,144,-1055,-352
5640,-128,-1888,-256,156,-1060,-361
5645,-128,-1880,-264,169,-1061,-370
5650,-120,-1896,-232,183,-1063,-375
5655,-96,-1912,-208,197,-1062,-378
5660,-72,-1912,-200,215,-1057,-381
5665,-48,-1952,-176,235,-1050,-382
5670,0,-1968,-224,247,-1041,-380
5675,8,-1984,-240,254,-1029,-378
5680,40,-2032,-248,255,-1016,-378
5685,80,-2032,-232,254,-1000,-379
5690,96,-2064,-248,249,-980,-382
5695,152,-2128,-280,239,-959,-381
5700,184,-2136,-280,224,-937,-383
5705,208,-2176,-248,214,-911,-388
5710,216,-2160,-248,212,-888,-395
5715,176,-2240,-192,221,-862,-396
5720,176,-2312,-144,235,-836,-396
5725,144,-2376,-96,251,-803,-391
5730,128,-2432,-32,268,-764,-383
5735,120,-2496,8,287,-725,-379
5740,120,-2528,48,309,-684,-373
5745,120,-2600,64,331,-644,-369
5750,192,-2592,64,352,-606,-372
5755,152,-2656,120,368,-565,-378
5760,152,-2648,112,387,-526,-387
5765,160,-2624,112,410,-490,-396
5770,152,-2592,96,432,-460,-408
5775,96,-2536,80,458,-430,-416
5780,48,-2456,8,477,-410,-419
5785,-80,-2392,-152,476,-403,-416
5790,-184,-2432,-256,433,-420,-396
5795,-296,-2512,-472,364,-448,-370
5800,-400,-2680,-752,293,-457,-335
5805,-512,-2736,-1064,208,-449,-288
5810,-640,-2712,-1224,101,-439,-241
5815,-672,-2776,-1232,-5,-431,-182
5820,-704,-2888,-1240,-81,-426,-114
5825,-720,-2864,-1288,-126,-444,-49
5830,-624,-2744,-1288,-133,-488,15
5835,-496,-2512,-1168,-82,-531,68
5840,-384,-2248,-992,26,-562,116
5845,-224,-2000,-760,155,-588,159
5850,-72,-1712,-576,290,-618,206
5855,112,-1464,-448,418,-648,241
5860,328,-1272,-488,538,-669,255
5865,456,-1144,-528,608,-661,258
5870,608,-1152,-592,608,-623,247
5875,704,-1208,-648,564,-563,204
5880,712,-1376,-736,488,-496,123
5885,680,-1584,-808,357,-429,22
5890,672,-1792,-816,207,-368,-64
5895,568,-1912,-792,100,-317,-127
5900,368,-2048,-800,28,-283,-173
5905,144,-2184,-720,-31,-279,-194
5910,0,-2328,-696,-64,-301,-201
5915,-104,-2528,-624,-85,-333,-191
5920,-200,-2752,-576,-98,-369,-176
5925,-280,-2864,-544,-96,-411,-166
5930,-272,-2968,-608,-78,-467,-162
5935,-216,-2928,-672,-37,-525,-166
5940,-176,-2800,-680,31,-584,-191
5945,-80,-2584,-736,112,-634,-227
5950,0,-2384,-704,199,-664,-264
5955,80,-2192,-680,281,-681,-297
5960,176,-2040,-616,342,-687,-330
5965,168,-1888,-632,381,-690,-360
5970,184,-1696,-616,405,-697,-376
5975,152,-1560,-648,416,-704,-385
5980,136,-1480,-672,405,-711,-385
5985,96,-1440,-680,367,-711,-380
5990,40,-1424,-672,315,-706,-366
5995,32,-1424,-656,260,-699,-349
6000,8,-1424,-648,206,-688,-325
6005,0,-1496,-616,150,-678,-311
6010,-40,-1552,-600,96,-672,-302
6015,-8,-1672,-600,49,-672,-291
6020,0,-1784,-544,7,-675,-289
6025,80,-1848,-504,-20,-684,-290
6030,56,-1896,-464,-29,-696,-292
6035,64,-1912,-440,-27,-716,-294
6040,80,-1960,-456,-25,-734,-295
6045,96,-1944,-480,-29,-756,-296
6050,144,-1944,-504,-31,-779,-296
6055,192,-1896,-528,-27,-807,-298
6060,248,-1912,-504,-6,-837,-300
6065,240,-1880,-496,17,-873,-316
6070,208,-1880,-512,39,-915,-326
6075,208,-1848,-464,62,-957,-328
6080,216,-1808,-464,90,-1004,-329
6085,176,-1784,-472,119,-1052,-336
6090,152,-1752,-496,139,-1093,-337
6095,136,-1736,-496,141,-1122,-327
6100,80,-1736,-520,132,-1138,-307
6105,112,-1824,-480,117,-1144,-277
6110,104,-1832,-456,103,-1142,-251
6115,112,-1888,-456,98,-1138,-223
6120,112,-1888,-424,103,-1130,-190
6125,160,-1928,-440,118,-1119,-153
6130,168,-1936,-416,140,-1109,-114
6135,200,-1912,-392,169,-1101,-77
6140,240,-1912,-384,206,-1096,-40
6145,240,-1840,-392,236,-1094,-9
6150,248,-1808,-408,259,-1089,28
6155,272,-1768,-432,277,-1084,61
6160,240,-1784,-448,280,-1080,88
6165,232,-1768,-472,276,-1076,118
6170,248,-1712,-472,268,-1070,143
6175,192,-1672,-520,259,-1063,167
6180,184,-1664,-456,242,-1057,195
6185,144,-1688,-440,220,-1049,220
6190,120,-1696,-408,195,-1041,242
6195,40,-1704,-408,173,-1030,260
6200,8,-1744,-376,154,-1013,281
6205,0,-1816,-400,137,-990,299
6210,0,-1808,-424,118,-960,317
6215,8,-1864,-440,102,-924,337
6220,-24,-1888,-400,81,-887,360
6225,0,-1912,-408,65,-861,384
6230,-40,-1960,-368,54,-853,407
6235,-96,-1992,-352,52,-859,431
6240,-168,-2000,-320,57,-876,461
6245,-232,-1976,-296,80,-896,495
6250,-264,-1928,-264,122,-917,531
6255,-336,-1848,-248,172,-935,574
6260,-336,-1728,-200,216,-937,615
6265,-344,-1584,-192,253,-926,659
6270,-296,-1464,-64,278,-907,707
6275,-280,-1376,56,295,-897,762
6280,-296,-1304,176,310,-898,814
6285,-312,-1208,248,320,-901,872
6290,-440,-1088,264,309,-912,936
6295,-456,-1048,312,271,-943,1004
6300,-520,-952,328,229,-995,1068
6305,-664,-912,320,191,-1058,1134
6310,-800,-840,320,157,-1129,1200
6315,-912,-776,360,125,-1204,1264
6320,-1144,-744,384,122,-1271,1333
6325,-1264,-792,376,129,-1317,1418
6330,-1288,-840,296,138,-1332,1496
6335,-1264,-928,144,121,-1324,1555
6340,-1128,-1016,24,82,-1284,1592
6345,-976,-1128,-24,51,-1224,1605
6350,-744,-1200,-56,46,-1162,1601
6355,-520,-1184,-80,70,-1101,1593
6360,-272,-1144,-96,128,-1047,1588
6365,0,-952,-136,220,-1011,1581
6370,224,-688,-152,327,-1000,1569
6375,504,-400,-104,417,-1012,1554
6380,672,-56,80,459,-1033,1526
6385,696,328,56,399,-1084,1459
6390,928,576,216,248,-1115,1421
6395,1096,672,128,143,-1050,1448
6400,1264,736,8,53,-943,1440
6405,1352,704,-208,-60,-827,1373
6410,1336,680,-480,-199,-719,1280
6415,1184,624,-696,-363,-632,1182
6420,1192,496,-1064,-570,-582,1084
6425,1200,272,-1256,-810,-544,1006
6430,1112,-16,-1416,-977,-458,972
6435,1016,-224,-1608,-1047,-380,962
6440,896,-232,-1872,-1056,-391,944
6445,744,-216,-2120,-1063,-469,928
6450,672,-192,-2256,-1094,-570,923
6455,528,-280,-2248,-1181,-664,914
6460,408,-488,-1928,-1307,-731,897
6465,168,-840,-1368,-1404,-738,878
6470,-24,-1208,-728,-1410,-689,871
6475,-200,-1672,-112,-1300,-600,875
6480,-432,-2008,352,-1088,-520,883
6485,-696,-2360,472,-819,-507,909
6490,-552,-2480,416,-555,-584,961
6495,-552,-2384,-56,-301,-749,972
6500,-504,-2080,-520,-116,-968,975
6505,-344,-1680,-848,-48,-1181,1010
6510,-128,-1336,-1080,-66,-1348,1077
6515,136,-936,-1208,-144,-1432,1160
6520,384,-600,-1168,-283,-1427,1248
6525,704,-456,-1080,-446,-1355,1354
6530,968,-352,-952,-621,-1231,1453
6535,1096,-264,-880,-798,-1051,1555
6540,1176,-256,-792,-972,-855,1680
6545,1336,-400,-688,-1131,-663,1808
6550,1376,-592,-496,-1243,-462,1921
6555,1080,-928,-288,-1280,-260,2036
6560,752,-1272,-184,-1240,-111,2174
6565,448,-1592,-152,-1141,-29,2296
6570,168,-1744,-224,-1022,-39,2368
6575,-168,-1792,-280,-881,-112,2372
6580,-512,-1824,-368,-704,-202,2339
6585,-784,-1816,-360,-464,-287,2273
6590,-1016,-1768,-368,-167,-374,2190
6595,-1200,-1672,-448,136,-434,2107
6600,-1352,-1520,-592,345,-473,2024
6605,-1440,-1368,-664,419,-525,1952
6610,-1592,-1272,-560,411,-629,1901
6615,-1696,-1168,-320,385,-825,1870
6620,-1816,-1112,-176,384,-1090,1863
6625,-1936,-1096,-176,418,-1381,1878
6630,-1952,-1264,-128,449,-1712,1913
6635,-1856,-1416,-184,517,-2069,1930
6640,-1584,-1512,-288,641,-2434,1917
6645,-1288,-1408,-584,792,-2746,1863
6650,-960,-1096,-864,878,-2941,1801
6655,-752,-800,-1160,821,-3012,1793
6660,-488,-576,-1256,586,-3005,1842
6665,-312,-544,-1200,342,-2992,1919
6670,-168,-464,-1144,204,-2992,1998
6675,-56,-432,-1040,128,-2976,2055
6680,8,-312,-776,45,-2966,2063
6685,-16,-272,-208,-29,-2962,2044
6690,-368,-448,168,-24,-2966,2016
6695,-1160,-928,280,125,-3018,1981
6700,-2304,-1704,472,415,-3159,1973
6705,-4192,-2616,800,861,-3429,1997
6710,-7352,-3696,1160,1449,-3756,2146
6715,-11512,-5424,776,2035,-4063,2628
6720,-15768,-8064,-840,2347,-4040,3565
6725,-20448,-11224,-2664,1952,-3476,4652
6730,-23992,-14648,-3544,753,-2936,5623
6735,-23880,-16352,-4032,-580,-3047,6041
6740,-12384,-13984,-2120,-646,-3412,5295
6745,-4576,-9888,-1616,757,-3792,3722
6750,-824,-6392,-1912,1934,-3562,2970
6755,240,-3840,-1608,2008,-2977,2922
6760,424,-3128,-1104,1407,-2489,3508
6765,1440,-3096,-808,812,-2075,4215
6770,2288,-2176,16,283,-1637,4669
6775,2544,-928,688,-212,-1002,5055
6780,2424,104,1384,-717,-221,5476
6785,1952,704,2144,-1093,584,5836
6790,904,1272,2160,-1226,1122,6024
6795,-32,1344,1240,-1262,1373,6099
6800,-1112,1040,176,-1070,1537,6079
6805,-2152,896,-288,-666,1581,5987
6810,-3432,432,0,-284,1442,5798
6815,-4504,-448,440,-21,1102,5583
6820,-4968,-1008,848,105,712,5343
6825,-5160,-1440,952,72,265,5172
6830,-4912,-1888,800,-16,-219,5035
6835,-4280,-2008,424,-50,-582,4968
6840,-3408,-2248,360,-117,-698,4984
6845,-2440,-2320,848,-120,-655,5069
6850,-1544,-2208,1312,-72,-645,5189
6855,-1024,-1912,1528,-71,-760,5244
6860,-512,-1616,1352,-95,-878,5212
6865,-200,-1104,1072,-60,-903,5081
6870,56,-488,848,29,-798,4861
6875,-96,16,776,161,-609,4534
6880,-336,472,616,311,-319,4159
6885,-672,984,496,456,58,3752
6890,-1008,1424,456,560,405,3309
6895,-1408,1816,456,630,600,2835
6900,-1968,2128,536,653,633,2363
6905,-2160,2360,520,653,542,1922
6910,-2056,2480,456,650,426,1522
6915,-1800,2632,264,654,387,1144
6920,-1656,2672,184,636,481,792
6925,-1704,2664,280,601,676,482
6930,-1976,2608,160,580,895,201
6935,-2080,2344,120,578,1088,-27
6940,-2320,2032,40,614,1274,-182
6945,-2584,1832,64,653,1434,-258
6950,-2800,1728,184,626,1505,-269
6955,-2784,1752,280,511,1472,-216
6960,-2600,1840,408,339,1412,-112
6965,-2408,1840,528,152,1378,30
6970,-2216,1728,624,-25,1345,191
6975,-2064,1568,640,-154,1261,353
6980,-1944,1344,512,-204,1084,511
6985,-1816,1184,400,-166,834,659
6990,-1656,1080,304,-71,552,778
6995,-1576,1056,232,43,327,870
7000,-1496,1096,248,152,196,939
7005,-1376,1136,224,250,143,990
7010,-1200,1240,192,334,147,1016
7015,-1040,1344,168,393,188,1024
7020,-840,1416,88,429,247,1016
7025,-656,1416,64,445,324,1003
7030,-512,1400,40,447,408,988
7035,-440,1384,8,438,492,971
7040,-344,1320,-32,411,567,945
7045,-368,1256,32,364,616,909
7050,-456,1208,88,314,648,870
7055,-504,1144,152,276,667,825
7060,-616,1104,224,263,680,775
7065,-752,1088,272,265,684,721
7070,-864,1152,296,267,674,664
7075,-960,1176,288,260,649,611
7080,-1048,1240,232,242,615,566
7085,-1120,1288,224,220,579,525
7090,-1232,1352,224,191,542,485
7095,-1336,1424,288,156,489,445
7100,-1424,1432,296,109,408,410
7105,-1456,1408,336,56,307,378
7110,-1496,1384,368,4,208,348
7115,-1512,1360,368,-38,117,316
7120,-1448,1336,360,-71,34,286
7125,-1368,1328,360,-91,-52,255
7130,-1256,1336,368,-104,-147,217
7135,-1104,1360,336,-114,-240,178
7140,-1016,1376,288,-129,-322,142
7145,-904,1384,264,-150,-386,102
7150,-800,1336,272,-176,-441,55
7155,-784,1344,264,-209,-486,-1
7160,-760,1288,216,-244,-544,-67
7165,-776,1296,232,-279,-591,-129
7170,-776,1280,200,-317,-610,-173
7175,-808,1256,184,-370,-595,-228
7180,-824,1256,176,-441,-551,-277
7185,-848,1224,208,-516,-491,-326
7190,-848,1152,232,-577,-436,-368
7195,-832,1152,288,-610,-399,-411
7200,-864,1056,320,-614,-375,-452
7205,-848,1032,288,-598,-367,-497
7210,-872,1024,312,-579,-372,-543
7215,-928,1008,280,-560,-376,-591
7220,-968,1016,320,-542,-377,-644
7225,-1016,1008,296,-521,-370,-698
7230,-1048,1064,280,-509,-365,-757
7235,-1096,1064,296,-519,-341,-808
7240,-1152,1080,312,-535,-316,-864
7245,-1144,1040,328,-559,-302,-922
7250,-1104,1016,352,-581,-302,-993
7255,-1064,968,336,-593,-301,-1073
7260,-1120,1008,288,-586,-280,-1142
7265,-936,1008,200,-586,-250,-1199
7270,-760,952,176,-606,-184,-1252
7275,-736,936,240,-640,-102,-1309
7280,-1096,928,456,-658,-31,-1356
7285,-1120,896,440,-645,-4,-1387
7290,-1216,944,440,-647,21,-1429
7295,-1416,976,504,-685,28,-1463
7300,-1528,816,480,-745,4,-1488
7305,-1648,824,416,-765,-10,-1558
7310,-1688,808,344,-713,19,-1615
7315,-1800,616,256,-658,90,-1668
7320,-2152,672,296,-610,178,-1724
7325,-2240,544,304,-546,236,-1752
7330,-2224,480,272,-513,239,-1786
7335,-2544,552,496,-530,217,-1801
7340,-2520,480,536,-539,119,-1777
7345,-2520,472,480,-539,40,-1760
7350,-2664,344,568,-542,16,-1749
7355,-3040,376,704,-548,-18,-1751
7360,-3128,320,760,-558,-104,-1732
7365,-3288,328,784,-558,-170,-1717
7370,-3608,336,824,-539,-213,-1690
7375,-3928,280,832,-493,-268,-1648
7380,-4096,216,744,-444,-332,-1610
7385,-4376,136,736,-404,-377,-1577
7390,-4528,72,712,-345,-391,-1533
7395,-4608,-40,688,-254,-341,-1453
7400,-4600,-88,664,-159,-266,-1359
7405,-4328,-104,560,-74,-147,-1245
7410,-4096,-24,552,4,39,-1092
7415,-3808,8,560,67,261,-906
7420,-3360,56,624,93,476,-719
7425,-3072,96,656,98,675,-556
7430,-2800,104,744,109,866,-411
7435,-2576,112,784,112,1037,-293
7440,-2344,120,880,99,1197,-214
7445,-2136,168,928,92,1346,-151
7450,-1824,80,992,89,1473,-108
7455,-1560,32,1024,95,1559,-97
7460,-1344,-80,1000,114,1603,-116
7465,-1184,-216,984,149,1609,-151
7470,-1120,-296,912,200,1580,-199
7475,-1168,-448,832,259,1525,-256
7480,-1248,-504,752,321,1427,-326
7485,-1424,-528,536,352,1304,-405
7490,-1544,-488,448,347,1195,-483
7495,-1816,-384,384,318,1116,-552
7500,-1720,-304,408,311,1076,-596
7505,-1768,-72,400,355,1047,-677
7510,-1944,232,344,435,1015,-773
7515,-2048,520,224,519,957,-841
7520,-1952,656,128,567,872,-910
7525,-1808,832,-64,558,784,-955
7530,-1752,952,-128,494,715,-977
7535,-1576,928,-192,402,668,-957
7540,-1448,936,-280,313,660,-916
7545,-1344,816,-248,207,706,-864
7550,-1320,712,-264,97,765,-825
7555,-1336,544,-216,-3,816,-799
7560,-1440,440,-152,-77,859,-783
7565,-1552,368,-48,-116,889,-776
7570,-1720,320,-88,-134,905,-775
7575,-1912,128,-168,-175,883,-775
7580,-2104,-8,-200,-214,846,-786
7585,-2168,-216,-232,-247,794,-769
7590,-2144,-440,-216,-287,741,-727
7595,-2296,-336,-168,-321,679,-678
7600,-2552,-288,-384,-300,628,-659
7605,-2816,-296,-768,-283,555,-649
7610,-2976,-376,-952,-359,427,-638
7615,-2936,-528,-792,-448,286,-608
7620,-2712,-728,-616,-449,175,-519
7625,-2592,-856,-464,-355,102,-393
7630,-2488,-944,-440,-225,44,-271
7635,-2408,-968,-352,-122,9,-157
7640,-2376,-992,-352,-37,-36,-59
7645,-2456,-1016,-360,35,-113,23
7650,-2264,-936,-408,116,-215,87
7655,-2016,-872,-504,183,-290,176
7660,-1744,-864,-472,226,-310,278
7665,-1696,-856,-392,267,-278,366
7670,-1488,-768,-440,330,-246,432
7675,-1488,-672,-376,399,-182,506
7680,-1488,-544,-416,477,-143,564
7685,-1568,-448,-384,523,-107,586
7690,-1800,-320,-304,540,-87,586
7695,-1792,-120,-296,531,-81,574
7700,-1792,-8,-240,497,-64,554
7705,-1832,64,-224,453,-50,515
7710,-1920,64,-160,410,-37,469
7715,-1952,64,-144,370,-23,424
7720,-2000,16,-120,333,-11,382
7725,-2008,-16,-80,300,3,347
7730,-2032,-40,-104,273,12,313
7735,-2048,-32,-104,252,25,280
7740,-2040,-40,-120,234,44,253
7745,-2056,8,-88,220,69,225
7750,-2064,40,-128,208,91,195
7755,-2032,64,-136,192,105,167
7760,-2064,120,-120,174,109,139
7765,-2088,168,-112,151,110,115
7770,-2080,184,-144,125,99,93
7775,-2096,224,-112,99,72,61
7780,-2112,224,-160,74,40,35
7785,-2120,240,-128,51,10,22
7790,-2096,200,-160,24,-22,21
7795,-2136,184,-160,-7,-45,25
7800,-2152,160,-160,-43,-62,31
7805,-2192,112,-136,-80,-72,41
7810,-2240,96,-160,-111,-82,53
7815,-2232,64,-144,-136,-101,64
7820,-2280,56,-104,-153,-123,74
7825,-2312,24,-96,-164,-150,87
7830,-2344,-32,-32,-165,-169,96
7835,-2344,0,-32,-158,-185,103
7840,-2328,-8,0,-146,-196,111
7845,-2272,16,-24,-123,-198,120
7850,-2296,72,56,-95,-188,122
7855,-2280,88,64,-63,-171,130
7860,-2208,104,56,-35,-156,137
7865,-2192,112,96,-20,-137,139
7870,-2184,136,112,-7,-119,139
7875,-2144,168,120,-2,-102,139
7880,-2112,144,128,6,-88,139
7885,-2040,160,120,10,-72,135
7890,-2048,200,120,11,-60,126
7895,-2064,176,96,8,-50,116
7900,-2040,224,56,0,-40,107
7905,-2016,264,104,-7,-33,99
7910,-1976,288,48,-9,-28,91
7915,-2016,280,16,-17,-29,78
7920,-2056,304,0,-31,-35,63
7925,-2072,312,-8,-48,-45,47
7930,-2096,272,24,-58,-51,33
7935,-2048,176,24,-51,-49,26
7940,-2024,120,88,-33,-37,21
7945,-1992,104,96,-10,-20,19
7950,-1952,64,128,18,-8,14
7955,-1928,48,128,51,-2,7
7960,-1904,64,176,84,3,-4
7965,-1912,80,160,115,4,-12
7970,-1920,144,128,137,2,-21
7975,-1920,184,112,152,3,-27
7980,-1960,224,80,156,0,-30
7985,-1960,240,80,153,-1,-27
7990,-1984,272,96,143,-2,-24
7995,-1984,304,80,130,-7,-21
8000,-2000,304,88,115,-12,-19
8005,-2008,312,96,97,-13,-18
8010,-2008,328,64,83,-16,-22
8015,-2032,320,104,68,-17,-24
8020,-2032,312,80,55,-19,-29
8025,-2048,328,96,42,-21,-34
8030,-2064,288,32,32,-23,-39
8035,-2064,288,80,23,-26,-43
8040,-2080,264,80,11,-24,-45
8045,-2104,232,72,-1,-18,-46
8050,-2080,200,72,-12,-12,-49
8055,-2088,160,72,-24,-2,-49
8060,-2104,192,40,-34,9,-49
8065,-2112,152,56,-44,21,-46
8070,-2096,120,104,-52,34,-45
8075,-2096,72,80,-59,49,-45
8080,-2096,88,72,-61,64,-43
8085,-2080,80,72,-61,79,-44
8090,-2080,72,88,-58,91,-46
8095,-2088,64,64,-54,103,-51
8100,-2072,72,88,-49,110,-57
8105,-2096,64,64,-40,116,-67
8110,-2088,80,40,-30,117,-73
8115,-2080,88,64,-22,117,-81
8120,-2096,72,48,-13,117,-91
8125,-2104,72,16,-3,114,-96
8130,-2096,64,32,4,114,-101
8135,-2104,72,8,10,113,-104
8140,-2096,96,40,14,110,-106
8145,-2104,72,64,17,109,-106
8150,-2096,80,48,19,106,-105
8155,-2104,72,48,18,106,-103
8160,-2096,64,56,18,105,-99
8165,-2088,48,48,19,105,-97
8170,-2056,64,40,20,104,-95
8175,-2064,64,40,21,109,-90
8180,-2040,32,48,25,115,-85
8185,-2056,32,56,26,122,-80
8190,-2032,32,88,28,130,-77
8195,-2048,48,88,29,137,-75
8200,-2024,40,88,29,145,-70
8205,-2016,8,56,30,152,-69
8210,-2048,56,48,29,157,-66
8215,-2096,8,32,27,160,-64
8220,-2048,48,64,23,160,-65
8225,-2072,32,48,16,160,-65
8230,-2056,16,24,10,158,-62
8235,-2032,16,40,5,153,-59
8240,-2056,16,16,1,153,-53
8245,-2056,16,40,-4,151,-43
8250,-2048,16,-8,-6,151,-33
8255,-2032,56,-16,-10,150,-25
8260,-2048,24,16,-16,148,-14
8265,-2032,24,16,-22,145,-6
8270,-2048,48,16,-28,145,0
8275,-2056,64,32,-30,138,4
8280,-2056,40,16,-33,135,8
8285,-2056,48,8,-36,132,10
8290,-2080,64,-24,-37,125,10
8295,-2088,56,-16,-35,116,10
8300,-2088,56,-16,-32,106,12
8305,-2080,32,8,-28,96,15
8310,-2088,24,-24,-22,85,17
8315,-2096,56,-16,-17,74,17
8320,-2080,32,-24,-11,61,18
8325,-2080,72,8,-9,51,20
8330,-2096,56,-32,-6,40,21
8335,-2096,64,-48,-5,33,23
8340,-2096,64,-48,-6,27,23
8345,-2072,64,-16,-6,22,21
8350,-2088,64,-32,-7,18,20
8355,-2120,64,8,-9,16,20
8360,-2088,64,-24,-10,18,18
8365,-2096,80,32,-12,20,19
8370,-2080,56,16,-12,23,19
8375,-2080,72,40,-11,27,17
8380,-2096,72,24,-9,31,16
8385,-2088,64,40,-5,35,16
8390,-2088,72,24,-3,38,14
8395,-2080,72,16,0,39,11
8400,-2056,72,48,2,41,9
8405,-2080,88,32,4,41,8
8410,-2064,72,8,7,36,3
8415,-2080,64,56,9,34,0
8420,-2056,96,32,11,31,-4
8425,-2056,88,48,10,29,-6
8430,-2088,48,16,11,27,-8
8435,-2064,72,24,12,28,-8
8440,-2064,96,56,11,28,-7
8445,-2056,88,40,9,28,-7
8450,-2064,104,56,5,29,-6
8455,-2056,112,24,-2,30,-3
8460,-2064,104,16,-8,31,-2
8465,-2048,104,24,-14,32,-2
8470,-2048,80,40,-20,35,-3
8475,-2064,96,48,-27,36,-3
8480,-2080,80,56,-31,37,-2
8485,-2040,56,24,-32,39,-2
8490,-2048,56,40,-32,42,-2
8495,-2048,64,64,-29,43,0
8500,-2048,56,56,-24,43,1
8505,-2056,56,32,-18,40,3
8510,-2040,88,56,-14,36,1
8515,-2048,80,64,-10,29,-2
8520,-2072,88,112,-7,24,-3
8525,-2064,88,64,-5,19,-6
8530,-2064,88,48,-6,15,-8
8535,-2072,96,40,-7,15,-10
8540,-2088,152,56,-7,16,-14
8545,-2088,72,56,-9,22,-14
8550,-2056,64,80,-8,28,-17
8555,-2048,64,104,-6,32,-18
8560,-2056,56,88,-2,36,-19
8565,-2056,64,96,2,39,-22
8570,-2056,40,112,8,36,-24
8575,-2032,72,112,16,29,-25
8580,-2080,72,112,26,23,-26
8585,-2056,64,96,36,16,-29
8590,-2040,64,48,43,10,-29
8595,-2056,64,56,49,3,-30
8600,-2056,64,56,50,-3,-31
8605,-2056,64,40,49,-5,-29
8610,-2048,64,64,43,-3,-27
8615,-2072,88,32,30,4,-23
8620,-2072,96,24,12,16,-19
8625,-2088,88,24,-7,31,-16
8630,-2080,72,16,-26,46,-14
8635,-2088,104,8,-46,61,-14
8640,-2072,88,48,-62,73,-13
8645,-2080,104,72,-75,79,-11
8650,-2072,88,88,-84,86,-11
8655,-2048,80,88,-87,91,-8
8660,-2056,72,88,-87,93,-6
8665,-2056,72,40,-86,92,-6
8670,-2056,64,72,-80,89,-6
8675,-2056,72,72,-71,86,-5
8680,-2056,72,80,-63,80,-5
8685,-2048,64,80,-57,75,-6
8690,-2056,72,80,-51,72,-7
8695,-2048,64,72,-45,66,-6
8700,-2048,64,80,-38,62,-6
8705,-2048,72,80,-33,58,-3
8710,-2064,64,80,-30,57,-3
8715,-2064,80,64,-28,58,-3
8720,-2072,72,24,-28,62,-1
8725,-2064,88,32,-29,70,0
8730,-2056,72,8,-32,77,1
8735,-2072,64,24,-36,85,0
8740,-2088,72,48,-39,94,4
8745,-2048,48,40,-46,100,5
8750,-2048,40,88,-52,106,8
8755,-2040,56,80,-56,111,11
8760,-2040,56,72,-59,116,15
8765,-2056,72,24,-59,119,20
8770,-2072,80,24,-57,125,25
8775,-2064,80,8,-57,133,31
8780,-2072,88,-8,-58,139,36
8785,-2056,88,16,-64,142,40
8790,-2072,112,40,-71,148,41
8795,-2048,112,48,-77,153,44
8800,-2056,88,24,-83,154,49
8805,-2048,72,64,-82,151,49
8810,-2048,72,32,-81,144,47
8815,-2040,48,8,-74,135,42
8820,-2072,56,24,-62,125,40
8825,-2080,64,40,-48,115,38
8830,-2080,24,16,-29,107,37
8835,-2080,64,-40,-10,100,34
8840,-2072,56,-24,12,96,34
8845,-2088,56,-8,33,93,36
8850,-2120,56,-32,51,89,37
8855,-2128,80,-48,63,80,34
8860,-2120,72,8,73,71,32
8865,-2104,88,-32,74,62,30
8870,-2096,128,-16,73,58,32
8875,-2112,128,8,72,53,32
8880,-2096,128,0,64,47,31
8885,-2104,112,0,54,46,30
8890,-2096,136,24,43,41,28
8895,-2104,104,8,32,36,24
8900,-2088,128,24,21,37,21
8905,-2072,64,64,12,38,16
8910,-2088,64,40,1,44,14
8915,-2072,80,96,-6,49,14
8920,-2080,64,72,-11,53,14
8925,-2056,64,40,-15,56,14
8930,-2064,64,64,-18,58,17
8935,-2064,80,72,-19,61,20
8940,-2088,88,64,-18,63,22
8945,-2080,96,56,-16,64,27
8950,-2064,80,56,-14,67,27
8955,-2064,96,56,-11,69,27
8960,-2096,104,32,-10,71,24
8965,-2064,96,0,-10,71,22
8970,-2072,104,8,-14,74,17
8975,-2096,112,0,-18,73,13
8980,-2088,96,32,-20,70,10
8985,-2072,104,24,-21,66,5
8990,-2104,80,48,-21,63,1
8995,-2072,80,24,-19,56,-3
9000,-2096,104,32,-17,51,-6
9005,-2072,96,-8,-17,47,-11
9010,-2096,80,32,-16,42,-12
9015,-2112,88,8,-14,37,-16
9020,-2064,88,8,-13,33,-19
9025,-2072,88,16,-15,27,-22
9030,-2072,88,24,-18,25,-24
9035,-2072,72,-8,-21,23,-25
9040,-2064,72,40,-24,23,-24
9045,-2056,64,24,-24,23,-24
9050,-2040,72,40,-22,24,-21
9055,-2088,72,64,-19,25,-18
9060,-2048,72,16,-15,24,-17
9065,-2048,64,56,-13,22,-16
9070,-2048,80,8,-9,18,-14
9075,-2064,64,40,-4,15,-15
9080,-2056,56,56,1,8,-13
9085,-2064,72,48,5,5,-11
9090,-2064,72,32,8,1,-11
9095,-2072,64,56,11,-4,-9
9100,-2088,88,40,14,-7,-6
9105,-2096,88,32,16,-9,-5
9110,-2080,80,40,17,-8,-6
9115,-2080,72,40,17,-6,-6
9120,-2104,112,16,13,-1,-6
9125,-2088,64,72,12,6,-7
9130,-2064,64,72,13,13,-8
9135,-2072,64,64,13,19,-10
9140,-2080,64,80,15,27,-10
9145,-2064,80,96,15,36,-8
9150,-2080,64,80,15,47,-6
9155,-2064,64,48,15,57,0
9160,-2064,80,64,15,63,2
9165,-2072,64,64,12,73,6
9170,-2056,72,48,10,80,13
9175,-2048,72,56,8,85,17
9180,-2040,80,40,8,86,22
9185,-2040,72,64,6,84,25
9190,-2040,88,72,5,80,27
9195,-2024,80,64,3,74,29
9200,-2024,104,72,0,66,30
9205,-2040,104,56,-5,60,28
9210,-2032,112,104,-11,56,25
9215,-2040,96,56,-16,51,23
9220,-2040,96,80,-22,50,23
9225,-2072,96,96,-26,51,19
9230,-2064,104,80,-27,51,17
9235,-2080,64,72,-26,53,13
9240,-2096,112,64,-24,59,10
9245,-2088,64,56,-18,64,9
9250,-2128,96,72,-11,68,8
9255,-2120,80,32,-5,70,6
9260,-2104,80,16,2,72,4
9265,-2112,88,8,8,71,2
9270,-2120,96,8,12,68,0
9275,-2088,104,40,18,66,-2
9280,-2096,88,0,22,64,-6
9285,-2104,72,32,24,62,-6
9290,-2064,88,32,26,62,-5
9295,-2072,88,32,26,65,-3
9300,-2072,80,56,26,69,-3
9305,-2048,64,72,25,73,-2
9310,-2048,64,72,21,77,-1
9315,-2032,64,104,20,81,3
9320,-2048,64,80,19,84,5
9325,-2024,64,96,18,88,7
9330,-2040,88,104,21,86,9
9335,-2040,32,64,25,83,11
9340,-2056,56,24,31,76,13
9345,-2064,72,32,37,69,16
9350,-2056,56,8,44,65,17
9355,-2072,80,8,49,58,16
9360,-2080,88,16,51,51,15
9365,-2072,104,8,50,45,16
9370,-2056,120,24,44,37,12
9375,-2096,168,16,35,33,7
9380,-2088,160,48,20,30,3
9385,-2120,168,16,3,32,-1
9390,-2088,152,88,-15,35,-3
9395,-2056,144,32,-32,39,-1
9400,-2072,88,48,-44,45,-2
9405,-2064,88,56,-51,47,-1
9410,-2072,96,48,-51,50,0
9415,-2096,80,64,-46,51,1
9420,-2072,64,104,-39,52,-1
9425,-2064,80,48,-32,55,0
9430,-2072,88,80,-27,55,-1
9435,-2072,104,72,-22,55,-3
9440,-2096,112,96,-20,53,-5
9445,-2072,104,96,-19,52,-6
9450,-2064,104,64,-19,49,-7
9455,-2072,88,64,-17,46,-8
9460,-2048,88,64,-15,42,-9
9465,-2064,96,72,-14,41,-10
9470,-2056,104,72,-12,40,-10
9475,-2056,104,80,-14,39,-9
9480,-2056,96,32,-15,39,-9
9485,-2072,96,64,-19,44,-10
9490,-2072,88,64,-23,49,-11
9495,-2056,88,72,-27,52,-10
9500,-2016,144,72,-31,55,-11
9505,-2056,104,88,-35,58,-13
9510,-2056,112,88,-39,60,-14
9515,-2056,88,112,-43,58,-15
9520,-2088,72,72,-45,60,-17
9525,-2056,80,96,-46,58,-19
9530,-2056,72,96,-46,57,-18
9535,-2080,80,128,-42,56,-19
9540,-2064,88,80,-38,58,-22
9545,-2072,72,80,-33,58,-22
9550,-2064,80,64,-28,60,-21
9555,-2080,64,96,-26,63,-20
9560,-2080,72,56,-24,63,-21
9565,-2056,88,40,-25,64,-20
9570,-2080,80,72,-26,65,-18
9575,-2056,88,56,-32,66,-17
9580,-2056,96,72,-36,69,-17
9585,-2072,64,72,-41,72,-15
9590,-2048,64,72,-43,76,-13
9595,-2064,80,80,-44,80,-10
9600,-2048,64,64,-44,85,-9
9605,-2056,64,72,-43,85,-8
9610,-2064,80,56,-40,83,-9
9615,-2048,72,96,-35,82,-8
9620,-2072,72,72,-28,79,-7
9625,-2080,56,72,-19,75,-7
9630,-2056,56,72,-13,72,-7
9635,-2056,80,40,-8,68,-6
9640,-2064,64,72,-7,65,-6
9645,-2064,88,64,-7,66,-4
9650,-2048,72,56,-10,65,-3
9655,-2064,96,72,-14,63,-1
9660,-2072,88,88,-19,63,2
9665,-2080,96,64,-24,67,3
9670,-2064,80,56,-30,70,2
9675,-2064,72,72,-36,74,3
9680,-2072,80,80,-43,77,4
9685,-2056,80,80,-44,81,2
9690,-2056,80,96,-44,80,3
9695,-2056,64,72,-39,78,3
9700,-2072,88,40,-32,78,3
9705,-2072,72,40,-25,73,3
9710,-2064,80,32,-16,66,2
9715,-2096,80,56,-6,58,2
9720,-2072,64,64,4,54,2
9725,-2072,72,80,12,51,3
9730,-2064,88,48,18,47,4
9735,-2048,72,0,20,48,5
9740,-2080,72,48,21,46,4
9745,-2096,80,40,17,45,4
9750,-2080,120,64,14,48,3
9755,-2064,96,48,10,48,2
9760,-2104,120,0,5,48,1
9765,-2080,120,48,1,49,1
9770,-2072,80,48,-2,48,1
9775,-2056,96,8,-5,48,-1
9780,-2064,96,40,-7,46,0
9785,-2072,96,48,-7,42,-1
9790,-2088,104,56,-9,39,-2
9795,-2072,104,72,-8,36,-3
9800,-2048,88,56,-9,31,-3
9805,-2056,96,56,-11,28,-3
9810,-2056,104,72,-12,24,-5
9815,-2056,104,96,-13,20,-6
9820,-2056,96,96,-12,19,-6
9825,-2064,96,104,-12,18,-10
9830,-2048,80,88,-12,16,-12
9835,-2056,80,88,-8,17,-14
9840,-2056,80,96,-4,18,-16
9845,-2072,72,72,-1,21,-16
9850,-2072,80,64,1,25,-17
9855,-2072,80,72,1,25,-17
9860,-2072,72,80,1,27,-17
9865,-2072,72,72,-1,28,-16
9870,-2064,80,72,-3,29,-13
9875,-2056,88,88,-5,29,-13
9880,-2048,88,56,-8,31,-9
9885,-2064,80,72,-12,33,-10
9890,-2064,96,80,-15,35,-9
9895,-2056,80,64,-16,37,-11
9900,-2072,88,80,-17,39,-8
9905,-2048,64,88,-17,42,-8
9910,-2080,96,112,-18,46,-8
9915,-2056,64,120,-16,48,-8
9920,-2064,80,128,-14,51,-8
9925,-2064,96,80,-11,51,-7
9930,-2056,80,112,-8,50,-6
9935,-2056,72,104,-6,49,-6
9940,-2056,80,104,-6,50,-7
9945,-2064,80,104,-7,50,-5
9950,-2064,72,88,-9,51,-5
9955,-2064,80,104,-11,51,-6
9960,-2048,80,112,-13,56,-5
9965,-2056,64,112,-16,61,-5
9970,-2056,72,104,-19,69,-4
9975,-2064,72,96,-20,75,-1
9980,-2064,80,104,-20,81,0
9985,-2080,80,112,-20,84,1
9990,-2056,96,80,-20,86,3
9995,-2056,88,48,-22,87,0
10000,-2048,88,72,-21,85,0
10005,-2048,88,48,-20,81,-1
10010,-2056,80,72,-17,78,-2
10015,-2056,88,80,-14,75,-3
10020,-2048,88,80,-13,73,-3
10025,-2080,80,72,-14,72,-4
10030,-2080,80,88,-15,75,-4
10035,-2088,72,104,-17,75,-2
10040,-2056,72,104,-17,77,-1
10045,-2048,64,96,-17,77,-1
10050,-2048,64,80,-15,76,0
10055,-2048,72,96,-13,76,0
10060,-2048,80,80,-8,78,1
10065,-2048,56,72,-5,76,2
10070,-2064,88,56,1,75,3
10075,-2056,72,64,5,72,5
10080,-2064,104,72,5,70,6
10085,-2072,96,72,5,67,3
10090,-2072,96,88,1,64,4
10095,-2064,96,40,-1,64,3
10100,-2048,88,88,-6,63,5
10105,-2072,96,72,-9,63,6
10110,-2080,104,72,-13,65,6
10115,-2072,88,96,-15,67,6
10120,-2072,80,88,-17,68,4
10125,-2064,88,72,-18,69,4
10130,-2072,88,88,-17,70,4
10135,-2080,88,104,-16,71,3
10140,-2072,80,40,-14,69,2
10145,-2072,80,72,-14,67,3
10150,-2056,72,104,-11,69,4
10155,-2064,72,80,-8,67,4
10160,-2056,80,80,-7,64,3
10165,-2072,72,88,-5,64,4
10170,-2056,88,80,-4,66,3
10175,-2064,72,64,-2,64,2
10180,-2064,88,88,-1,65,2
10185,-2072,80,104,-1,64,1
10190,-2064,96,80,-1,63,0
10195,-2064,80,88,0,63,-1
10200,-2080,104,88,-1,63,-2
10205,-2064,88,40,-1,61,-2
10210,-2072,96,64,-3,61,-3
10215,-2064,88,64,-2,61,-4
10220,-2056,120,72,-5,61,-2
10225,-2072,64,96,-6,61,-3
10230,-2056,104,96,-5,59,-4
10235,-2056,72,48,-7,59,-5
10240,-2056,88,80,-8,58,-5
10245,-2040,72,40,-7,57,-6
10250,-2080,104,88,-7,57,-6
10255,-2056,88,56,-10,55,-6
10260,-2080,88,88,-10,54,-7
10265,-2080,96,104,-11,52,-6
10270,-2064,80,72,-12,51,-5
10275,-2064,104,80,-12,50,-5
10280,-2064,96,88,-11,51,-7
10285,-2064,80,96,-11,51,-7
10290,-2072,104,96,-12,51,-8
10295,-2064,80,72,-14,49,-7
10300,-2072,80,56,-16,48,-9
10305,-2056,88,96,-20,48,-10
10310,-2056,104,56,-23,47,-10
10315,-2064,96,104,-25,47,-11
10320,-2064,64,64,-28,47,-12
10325,-2056,88,104,-28,48,-10
10330,-2056,72,96,-28,50,-11
10335,-2056,64,88,-26,52,-9
10340,-2048,80,128,-24,53,-8
10345,-2056,80,128,-19,54,-8
10350,-2040,88,88,-13,54,-8
10355,-2064,72,136,-7,52,-8
10360,-2048,80,88,-2,53,-8
10365,-2088,72,80,0,52,-9
10370,-2072,72,80,2,51,-11
10375,-2056,88,80,-1,50,-12
10380,-2080,88,88,-3,51,-12
10385,-2064,72,120,-5,52,-12
10390,-2056,64,104,-8,55,-11
10395,-2064,104,112,-10,58,-11
10400,-2072,104,120,-12,62,-10
10405,-2064,80,96,-12,65,-9
10410,-2056,88,104,-13,68,-8
10415,-2072,88,96,-13,69,-6
10420,-2056,72,112,-12,72,-6
10425,-2056,72,96,-12,74,-3
10430,-2048,64,88,-12,72,-3
10435,-2056,88,96,-13,70,-1
10440,-2048,72,120,-13,68,-1
10445,-2072,80,96,-13,66,-1
10450,-2064,88,88,-12,63,-3
10455,-2064,72,88,-14,64,-2
10460,-2056,88,104,-12,62,-2
10465,-2072,80,104,-12,63,-1
10470,-2064,64,80,-10,65,-2
10475,-2080,88,72,-9,67,-2
10480,-2064,80,104,-8,70,-1
10485,-2056,80,120,-6,71,-3
10490,-2072,88,96,-6,71,1
10495,-2064,104,104,-7,72,0
10500,-2048,80,96,-7,71,-1
10505,-2064,72,80,-6,71,0
10510,-2072,72,88,-6,69,1
10515,-2056,80,80,-6,66,2
10520,-2056,88,96,-8,66,1
10525,-2072,88,96,-9,63,0
10530,-2088,104,64,-8,62,0
10535,-2056,88,88,-6,62,0
10540,-2088,88,96,-8,62,0
10545,-2056,88,64,-10,63,-1
10550,-2056,72,88,-11,63,-1
10555,-2072,80,96,-12,63,-3
10560,-2072,88,64,-14,64,-3
10565,-2064,80,72,-13,64,-3
10570,-2064,80,96,-15,65,-1
10575,-2080,112,80,-16,67,-1
10580,-2080,88,88,-17,67,-5
10585,-2056,96,96,-17,68,-3
10590,-2048,80,96,-19,69,-3
10595,-2048,80,104,-17,69,-3
10600,-2064,88,96,-15,70,-3
10605,-2048,88,128,-14,71,-3
10610,-2056,88,104,-13,72,-3
10615,-2048,80,72,-11,71,-3
10620,-2080,88,88,-11,71,-3
10625,-2064,88,96,-9,70,-2
10630,-2072,104,112,-9,69,-2
10635,-2064,72,72,-11,70,-3
10640,-2056,88,56,-12,70,-3
10645,-2048,88,104,-14,71,-4
10650,-2072,88,88,-16,71,-4
10655,-2072,80,80,-17,71,-3
10660,-2056,88,128,-18,73,-3
10665,-2080,88,48,-18,72,-3
10670,-2048,80,88,-20,74,-4
10675,-2064,112,64,-21,74,-5
10680,-2064,88,88,-22,76,-5
10685,-2072,80,88,-23,76,-5
10690,-2072,104,96,-21,75,-4
10695,-2048,88,112,-21,74,-4
10700,-2080,88,96,-21,73,-5
10705,-2048,56,96,-19,71,-5
10710,-2056,80,96,-19,70,-6
10715,-2064,96,104,-18,69,-4
10720,-2064,72,88,-18,68,-3
10725,-2064,80,80,-18,68,-3
10730,-2048,72,112,-17,70,-5
10735,-2064,72,104,-16,71,-4
10740,-2056,96,104,-15,75,-3
10745,-2056,80,112,-12,78,-2
10750,-2056,80,80,-10,78,0
10755,-2056,96,96,-7,77,0
10760,-2064,80,104,-5,73,0
10765,-2088,80,72,-2,69,-2
10770,-2080,112,96,-3,63,-4
10775,-2080,96,56,-3,59,-6
10780,-2080,72,128,-3,55,-9
10785,-2056,64,88,-3,52,-10
10790,-2064,72,104,-4,54,-11
10795,-2080,88,112,-6,55,-11
10800,-2048,64,104,-7,57,-10
10805,-2048,88,112,-8,59,-8
10810,-2072,80,88,-11,62,-7
10815,-2072,88,104,-11,65,-5
10820,-2056,72,112,-10,68,-4
10825,-2080,104,88,-9,70,-1
10830,-2056,64,96,-3,72,0
10835,-2040,72,88,2,72,1
10840,-2056,80,104,6,68,4
10845,-2064,88,96,9,66,3
10850,-2064,88,104,6,63,4
10855,-2056,88,80,4,59,4
10860,-2056,72,112,4,55,4
10865,-2048,88,96,1,53,4
10870,-2064,104,80,0,51,3
10875,-2048,80,88,-1,50,3
10880,-2056,72,64,-3,50,4
10885,-2048,64,104,-5,50,5
10890,-2056,80,88,-5,52,2
10895,-2064,80,88,-7,53,2
10900,-2064,80,128,-7,56,1
10905,-2064,80,88,-10,58,2
10910,-2072,72,72,-9,60,3
10915,-2080,80,112,-10,62,2
10920,-2072,72,120,-10,63,1
10925,-2064,72,104,-11,62,1
10930,-2080,88,104,-10,64,1
10935,-2064,104,136,-7,64,1
10940,-2048,88,88,-6,64,0
10945,-2072,88,112,-4,64,0
10950,-2064,104,96,-5,65,-2
10955,-2048,96,88,-5,65,-2
10960,-2072,96,96,-5,63,-3
10965,-2056,88,72,-7,64,-3
10970,-2048,72,104,-6,65,-3
10975,-2080,104,96,-7,65,-4
10980,-2064,96,96,-6,65,-4
10985,-2080,96,112,-8,67,-3
10990,-2048,120,88,-7,68,-4
10995,-2048,72,120,-8,68,-4
11000,-2072,72,104,-8,68,-3
11005,-2056,88,96,-9,68,-4
11010,-2064,88,88,-9,69,-5
11015,-2064,88,96,-8,68,-4
11020,-2048,64,104,-8,69,-5
11025,-2056,88,80,-9,68,-6
11030,-2056,72,72,-10,66,-4
11035,-2056,88,88,-10,67,-5
11040,-2072,80,88,-11,68,-3
11045,-2072,80,96,-13,68,-3
11050,-2080,104,96,-14,69,-4
11055,-2056,88,120,-14,69,-4
11060,-2072,72,104,-17,71,-4
11065,-2064,72,112,-20,70,-3
11070,-2056,72,96,-22,71,-4
11075,-2048,72,136,-23,70,-6
11080,-2080,96,88,-22,72,-6
11085,-2088,88,112,-21,72,-5
11090,-2048,80,128,-20,78,-5
11095,-2072,72,120,-18,80,-4
11100,-2048,80,104,-16,82,-1
11105,-2064,80,88,-13,84,-1
11110,-2048,72,48,-12,83,-1
11115,-2080,112,88,-9,82,1
11120,-2056,72,104,-6,79,2
11125,-2064,96,128,-6,74,0
11130,-2072,88,56,-6,70,-1
11135,-2072,80,56,-6,65,-2
11140,-2080,112,104,-9,63,-5
11145,-2088,88,80,-11,62,-5
11150,-2064,88,56,-11,63,-6
11155,-2088,96,88,-13,63,-7
11160,-2048,96,72,-13,63,-7
11165,-2072,104,88,-14,64,-7
11170,-2080,88,96,-13,63,-6
11175,-2048,88,104,-13,62,-5
11180,-2056,72,120,-14,62,-5
11185,-2048,80,80,-15,60,-3
11190,-2064,72,112,-14,59,-4
11195,-2064,88,80,-14,59,-3
11200,-2056,80,104,-13,60,-3
11205,-2048,80,96,-11,58,-2
11210,-2064,72,72,-12,59,0
11215,-2064,88,72,-11,58,-1
11220,-2056,80,104,-11,58,-1
11225,-2048,80,96,-8,57,-2
11230,-2072,80,80,-7,58,-2
11235,-2048,96,104,-6,60,-2
11240,-2072,104,120,-6,60,-1
11245,-2064,72,72,-7,62,-2
11250,-2072,96,96,-8,61,-1
11255,-2064,80,96,-8,62,-2
11260,-2064,80,96,-9,63,-3
11265,-2056,80,120,-10,62,-4
11270,-2056,88,88,-9,64,-3
11275,-2056,88,120,-9,64,-2
11280,-2048,80,80,-8,65,-3
11285,-2056,80,96,-8,65,-2
11290,-2048,88,96,-8,66,-3
11295,-2064,80,88,-8,67,-2
11300,-2048,64,112,-9,68,-2
11305,-2080,80,64,-9,69,-2
11310,-2064,64,104,-11,68,-3
11315,-2048,72,96,-13,69,-3
11320,-2048,88,120,-13,71,-4
11325,-2048,72,88,-14,71,-4
11330,-2056,80,64,-13,72,-4
11335,-2048,80,112,-13,73,-4
11340,-2056,80,96,-14,74,-4
11345,-2056,80,104,-13,75,-3
11350,-2064,88,112,-13,75,-1
11355,-2064,112,104,-12,74,-1
11360,-2072,88,64,-13,74,-1
11365,-2072,88,96,-13,73,-3
11370,-2064,80,88,-13,74,-2
11375,-2072,88,96,-11,74,-3
11380,-2064,88,88,-12,74,-2
11385,-2048,64,96,-10,75,-2
11390,-2080,88,104,-9,76,-3
11395,-2064,104,80,-9,77,-2
11400,-2104,72,88,-10,77,-2
11405,-2056,96,128,-11,78,-3
11410,-2056,72,96,-12,78,-2
11415,-2064,80,104,-12,78,-3
11420,-2040,64,88,-11,78,-5
11425,-2048,96,80,-12,77,-4
11430,-2072,80,96,-12,78,-3
11435,-2088,96,72,-10,76,-3
11440,-2056,104,88,-11,75,-4
11445,-2040,72,96,-10,73,-5
11450,-2056,64,88,-11,73,-5
11455,-2072,96,88,-11,73,-3
11460,-2064,80,72,-12,72,-3
11465,-2056,88,72,-12,74,-3
11470,-2056,72,88,-15,73,-4
11475,-2064,72,88,-15,72,-4
11480,-2048,88,64,-13,74,-2
11485,-2064,72,64,-12,72,-2
11490,-2064,88,80,-10,73,-2
11495,-2072,88,64,-10,71,-2
11500,-2048,80,80,-11,69,-3
11505,-2048,80,96,-10,68,-1
11510,-2064,96,96,-12,67,-3
11515,-2080,96,88,-13,68,-4
11520,-2064,88,88,-15,69,-4
11525,-2064,72,72,-17,70,-4
11530,-2064,64,112,-17,74,-2
11535,-2056,72,112,-16,75,0
11540,-2064,88,80,-15,77,1
11545,-2080,96,96,-12,78,1
11550,-2064,96,96,-9,75,1
11555,-2072,96,64,-6,69,1
11560,-2056,88,112,-6,65,-1
11565,-2072,88,96,-3,60,-4
11570,-2064,96,80,-3,58,-6
11575,-2072,80,128,-3,56,-8
11580,-2048,80,120,-5,56,-8
11585,-2056,112,128,-8,57,-8
11590,-2064,80,120,-13,62,-8
11595,-2072,88,96,-15,65,-7
11600,-2048,64,112,-16,69,-7
11605,-2048,64,112,-16,72,-5
11610,-2072,80,96,-15,75,-5
11615,-2064,88,104,-11,79,-5
11620,-2056,72,72,-6,81,-3
11625,-2056,80,112,-1,81,-1
11630,-2072,120,80,7,79,1
11635,-2048,80,80,11,77,2
11640,-2072,72,88,12,74,3
11645,-2056,80,72,12,71,5
11650,-2056,104,88,11,67,5
11655,-2056,88,64,9,64,6
11660,-2064,88,72,5,63,7
11665,-2064,104,72,0,63,7
11670,-2048,88,136,-3,61,5
11675,-2064,112,48,-5,63,5
11680,-2080,96,104,-7,64,4
11685,-2080,80,104,-9,67,4
11690,-2096,88,112,-9,69,3
11695,-2056,80,128,-9,71,2
11700,-2064,88,88,-6,70,1
11705,-2064,80,112,-5,73,3
11710,-2056,96,80,-5,74,3
11715,-2072,104,88,-4,73,4
11720,-2080,96,96,-4,72,4
11725,-2056,96,88,-3,71,3
11730,-2064,88,88,-4,67,3
11735,-2056,88,72,-3,65,1
11740,-2024,96,120,-3,64,0
11745,-2056,80,96,-3,62,-1
11750,-2064,88,96,-3,60,-1
11755,-2056,80,96,-2,62,-1
11760,-2048,72,88,-3,62,-3
11765,-2056,72,112,-2,64,-2
11770,-2064,72,96,-2,66,-2
11775,-2056,88,104,-2,67,-2
11780,-2056,96,96,-3,68,-1
11785,-2072,104,88,-3,68,0
11790,-2056,88,112,-5,68,0
11795,-2048,88,112,-6,67,-1
11800,-2048,88,112,-6,66,-2
11805,-2048,80,80,-8,64,-2
11810,-2088,96,88,-9,62,-3
11815,-2072,104,112,-10,59,-3
11820,-2064,104,104,-10,58,-3
11825,-2064,96,96,-10,58,-4
11830,-2064,96,96,-10,57,-4
11835,-2056,88,96,-8,55,-4
11840,-2064,80,104,-9,54,-4
11845,-2064,88,120,-12,55,-5
11850,-2064,96,112,-13,56,-5
11855,-2056,88,104,-16,57,-6
11860,-2072,88,120,-20,57,-6
11865,-2048,88,120,-22,59,-7
11870,-2064,88,104,-24,61,-6
11875,-2064,88,104,-25,64,-6
11880,-2056,80,120,-25,66,-5
11885,-2064,64,128,-25,68,-4
11890,-2056,72,104,-25,68,-4
11895,-2072,80,120,-23,70,-4
11900,-2072,80,96,-20,70,-2
11905,-2048,96,104,-14,69,-2
11910,-2056,80,96,-12,68,-2
11915,-2064,72,96,-8,63,-3
11920,-2064,80,80,-9,63,-5
11925,-2064,88,96,-8,59,-6
11930,-2048,96,96,-8,57,-7
11935,-2080,104,88,-10,56,-9
11940,-2064,72,88,-12,57,-8
11945,-2072,104,112,-13,56,-9
11950,-1984,136,120,-16,58,-8
11955,-2040,80,96,-18,58,-7
11960,-2064,72,104,-21,61,-7
11965,-2056,88,120,-21,64,-8
11970,-2064,72,144,-22,65,-7
11975,-2040,72,144,-21,65,-7
11980,-2056,80,88,-21,63,-7
11985,-2080,72,104,-20,63,-7
11990,-2064,64,144,-17,63,-7
11995,-2064,88,120,-16,60,-5
12000,-2048,64,104,-13,60,-5
12005,-2048,80,80,-11,60,-4
12010,-2064,80,96,-9,61,-2
12015,-2056,112,64,-7,61,-2
12020,-2080,88,104,-5,62,-3
12025,-2064,88,120,-5,64,-1
12030,-2064,96,104,-7,67,-1
12035,-2064,80,80,-9,68,-1
12040,-2056,88,80,-12,69,-2
12045,-2072,72,128,-15,70,-2
12050,-2040,72,96,-18,72,-2
12055,-2056,80,96,-20,71,-2
12060,-2072,80,88,-20,70,-2
12065,-2072,64,96,-19,70,-2
12070,-2056,80,88,-17,71,-1
12075,-2056,80,96,-14,70,-1
12080,-2056,80,104,-11,69,0
12085,-2048,96,112,-8,67,-1
12090,-2064,96,128,-4,67,-2
12095,-2056,80,112,-4,69,-3
12100,-2064,120,120,-6,70,-1
12105,-2072,96,88,-9,70,-2
12110,-2064,80,80,-10,71,-3
12115,-2064,96,112,-12,72,-1
12120,-2072,80,96,-15,71,-2
12125,-2080,88,88,-17,72,-3
12130,-2048,88,112,-20,73,-2
12135,-2056,96,120,-22,73,-2
12140,-2056,104,88,-23,74,-3
12145,-2056,80,120,-24,74,-2
12150,-2048,72,80,-25,74,-1
12155,-2056,96,72,-24,75,0
12160,-2056,80,120,-25,73,-2
12165,-2080,112,32,-24,74,-3
12170,-2064,88,144,-26,76,-2
12175,-2072,72,120,-26,78,-1
12180,-2064,64,96,-26,79,-1
12185,-2064,72,80,-26,82,-2
12190,-2056,88,96,-28,81,-2
12195,-2056,88,120,-28,83,-3
12200,-2064,96,88,-28,85,-3
12205,-2096,88,88,-29,85,-3
12210,-2072,72,88,-28,84,-5
12215,-2064,80,88,-27,82,-4
12220,-2056,88,80,-22,79,-4
12225,-2064,88,80,-21,76,-7
12230,-2048,104,88,-18,74,-6
12235,-2056,112,80,-18,72,-5
12240,-2056,112,120,-19,70,-6
12245,-2048,80,80,-20,69,-7
12250,-2056,96,72,-22,66,-9
12255,-2056,88,96,-23,66,-8
12260,-2048,112,112,-27,66,-10
12265,-2056,104,104,-29,67,-10
12270,-2064,88,112,-30,67,-11
12275,-2088,88,96,-33,68,-10
12280,-2080,80,88,-33,71,-10
12285,-2072,96,80,-33,74,-11
12290,-2056,72,72,-31,75,-10
12295,-2048,88,120,-29,75,-8
12300,-2072,104,88,-26,74,-7
12305,-2048,88,96,-23,74,-8
12310,-2080,128,104,-21,70,-7
12315,-2056,96,72,-24,68,-7
12320,-2064,88,88,-22,65,-7
12325,-2056,64,120,-24,63,-10
12330,-2072,88,104,-25,65,-11
12335,-2088,72,112,-26,67,-10
12340,-2048,72,120,-27,70,-10
12345,-2072,80,136,-26,74,-9
12350,-2064,72,104,-24,79,-8
12355,-2072,72,80,-21,82,-6
12360,-2064,88,104,-17,82,-5
12365,-2072,104,104,-14,81,-4
12370,-2064,96,72,-13,75,-4
12375,-2048,72,80,-10,69,-6
12380,-2056,80,56,-11,65,-9
12385,-2064,88,56,-12,62,-11
12390,-2056,72,56,-13,59,-10
12395,-2056,88,80,-16,60,-10
12400,-2056,64,112,-18,61,-9
12405,-2040,72,104,-20,60,-8
12410,-2048,64,104,-22,63,-6
12415,-2056,64,104,-23,65,-3
12420,-2072,64,136,-22,65,-1
12425,-2056,64,112,-18,66,0
12430,-2072,72,72,-14,68,2
12435,-2080,80,96,-8,68,2
12440,-2064,80,72,-1,69,4
12445,-2072,96,80,3,68,4
12450,-2056,104,88,5,67,6
12455,-2064,88,88,5,64,6
12460,-2088,96,72,3,61,7
12465,-2072,96,64,-2,58,8
12470,-2064,72,136,-5,54,6
12475,-2072,72,80,-6,50,7
12480,-2072,88,144,-8,46,8
12485,-2056,80,104,-7,46,7
12490,-2048,72,88,-6,47,9
12495,-2080,80,112,-3,48,9
12500,-2072,80,96,-1,51,9
12505,-2056,96,88,0,51,8
12510,-2064,128,88,0,54,8
12515,-2064,88,72,-1,55,5
12520,-2088,104,112,-2,57,4
12525,-2088,120,120,-3,56,5
12530,-2064,88,96,-4,57,6
12535,-2064,72,112,-5,56,6
12540,-2064,112,104,-4,57,7
12545,-2064,104,112,-3,55,6
12550,-2048,104,96,-3,54,5
12555,-2056,96,136,0,53,5
12560,-2064,104,88,4,50,3
12565,-2048,104,104,5,50,2
12570,-2056,88,88,5,48,1
12575,-2072,88,112,8,47,0
12580,-2072,112,120,9,46,1
12585,-2056,88,104,9,46,-1
12590,-2000,136,96,8,46,-2
12595,-2080,80,96,7,46,-1
12600,-2064,88,112,9,44,-3
12605,-2056,72,104,8,44,-1
12610,-2064,104,88,9,44,-2
12615,-2056,88,96,11,42,-4
12620,-2064,88,88,13,42,-3
12625,-2064,72,120,12,42,-2
12630,-2072,88,112,11,39,-2
12635,-2064,72,80,8,39,-1
12640,-2080,80,120,7,38,0
12645,-2088,104,96,7,37,0
12650,-2088,104,96,8,37,-1
12655,-2072,72,56,13,36,-4
12660,-2088,96,128,13,36,0
12665,-2072,72,104,14,39,0
12670,-2056,88,96,14,37,1
12675,-2040,64,88,15,36,0
12680,-2072,64,128,15,35,1
12685,-2048,72,72,16,33,1
12690,-2064,88,112,15,32,1
12695,-2056,72,88,16,33,2
12700,-2032,80,144,18,35,1
12705,-2088,152,128,20,36,4
12710,-2048,88,80,19,37,5
12715,-2024,152,112,19,37,8
12720,-2072,80,48,19,35,8
12725,-2080,104,136,20,36,8
12730,-2056,96,64,22,34,8
12735,-2032,64,176,24,29,7
12740,-2064,120,152,27,27,7
12745,-2152,120,96,28,24,5
12750,-2056,72,88,30,17,1
12755,-2048,96,96,31,15,1
12760,-2064,88,88,32,17,1
12765,-2080,96,120,29,21,-1
12770,-2064,96,136,24,22,0
12775,-2040,120,136,20,27,0
12780,-2096,160,0,16,31,0
12785,-2000,152,136,11,34,2
12790,-2048,104,232,8,39,2
12795,-2096,96,112,5,41,3
12800,-2056,72,176,4,43,3
12805,-2048,104,152,4,43,5
12810,-2048,120,192,5,44,4
12815,-2040,96,160,5,43,4
12820,-2080,72,144,8,41,1
12825,-2032,240,112,8,42,-1
12830,-2056,88,136,10,42,-1
12835,-2064,88,136,11,43,0
12840,-2056,80,152,13,43,0
12845,-2064,96,104,12,45,0
12850,-1976,112,240,12,48,0
12855,-2048,104,192,11,49,1
12860,-2112,168,120,12,52,1
12865,-2096,96,176,11,53,1
12870,-2056,56,168,11,55,0
12875,-2072,128,112,11,57,0
12880,-2064,88,72,10,58,-2
12885,-2120,128,112,7,60,-2
12890,-2056,168,176,5,62,-1
12895,-2064,120,152,4,60,0
12900,-2016,168,120,3,62,0
12905,-2016,128,200,1,62,0
12910,-2064,80,120,2,63,0
12915,-2072,104,152,1,62,0
12920,-2064,104,120,2,64,0
12925,-2056,88,136,2,66,1
12930,-2104,136,48,1,69,2
12935,-2024,136,80,2,70,1
12940,-2024,104,128,1,69,2
12945,-2120,88,152,0,68,3
12950,-2064,48,136,0,68,3
12955,-2056,64,160,-2,69,1
12960,-2024,72,112,-2,66,1
12965,-2088,120,304,-2,67,0
12970,-2080,112,136,-3,67,0
12975,-1976,112,72,-4,67,1
12980,-2128,56,96,-6,68,1
12985,-2064,88,128,-7,70,2
12990,-2048,96,128,-7,71,3
12995,-2064,104,136,-8,71,4
13000,-2088,104,-16,-8,71,3
13005,-2096,112,104,-9,69,2
13010,-2056,88,192,-10,69,1
13015,-2088,48,144,-10,67,0
13020,-2064,160,80,-10,64,0
13025,-2040,128,80,-9,63,0
13030,-2128,88,104,-7,62,1
13035,-2008,160,80,-6,60,0
13040,-2160,72,256,-5,60,0
13045,-2096,104,24,-4,61,-1
13050,-2080,112,176,-2,61,2
13055,-2072,64,272,-2,61,2
13060,-2056,112,128,-2,61,2
13065,-2056,96,128,-3,62,1
13070,-2064,88,136,-3,61,2
13075,-2056,96,112,-5,61,0
13080,-2064,120,96,-6,60,3
13085,-2088,80,160,-8,60,3
13090,-2064,80,120,-10,59,3
13095,-1984,128,104,-13,57,4
13100,-2072,120,152,-15,57,3
13105,-2072,64,64,-16,57,1
13110,-2072,64,8,-15,57,-1
13115,-2064,144,128,-15,61,0
13120,-2032,64,192,-15,65,1
13125,-2064,80,176,-14,68,-1
13130,-2048,104,72,-11,72,2
13135,-2080,104,160,-8,75,1
13140,-2056,80,144,-7,75,1
13145,-2064,120,128,-2,72,3
13150,-2064,96,112,-1,70,3
13155,-2136,104,120,4,66,1
13160,-2040,128,120,7,63,1
13165,-2088,96,128,10,59,-1
13170,-1976,104,56,11,58,-2
13175,-2088,112,104,13,57,-4
13180,-2048,120,128,11,58,-3
13185,-2048,96,96,10,60,-3
13190,-2056,104,160,8,63,-2
13195,-2064,120,128,6,66,0
13200,-2112,144,96,1,69,1
13205,-2048,64,144,-1,71,1
13210,-2048,88,144,-2,76,3
13215,-2048,96,152,1,74,3
13220,-2056,72,104,5,74,4
13225,-2008,208,24,11,74,5
13230,-2064,96,128,15,72,6
13235,-2064,96,136,18,70,7
13240,-2064,104,112,20,67,8
13245,-2072,104,72,23,64,8
13250,-2056,96,104,22,60,7
13255,-2048,72,120,21,57,8
13260,-2056,112,96,20,56,6
13265,-2056,96,128,20,52,7
13270,-2136,144,184,17,51,5
13275,-2072,112,120,15,47,3
13280,-2064,104,152,13,50,3
13285,-2032,88,120,9,50,1
13290,-2064,96,96,7,52,0
13295,-2032,72,136,4,52,1
13300,-2072,104,144,5,52,-1
13305,-2056,88,136,3,52,-3
13310,-2064,112,136,3,54,-3
13315,-2064,88,136,3,55,-3
13320,-2056,104,136,0,55,-4
13325,-2064,104,160,2,56,-4
13330,-2064,112,136,2,57,-5
13335,-2064,104,104,4,59,-5
13340,-2048,120,168,4,60,-5
13345,-2056,96,112,3,61,-6
13350,-2072,120,128,3,61,-5
13355,-2080,72,160,3,62,-6
13360,-2056,104,168,2,63,-6
13365,-2064,96,128,2,63,-6
13370,-2064,128,152,1,62,-6
13375,-2048,96,128,0,64,-8
13380,-2056,80,144,0,63,-6
13385,-2064,72,216,0,60,-7
13390,-2048,112,80,-1,61,-8
13395,-2064,88,112,0,59,-6
13400,-2064,120,128,1,58,-6
13405,-2056,104,128,-1,59,-6
13410,-2064,120,128,-1,57,-6
13415,-2040,80,152,-2,55,-5
13420,-2072,80,160,-2,55,-6
13425,-2040,88,128,-2,56,-8
13430,-2064,88,120,-4,55,-8
13435,-2056,96,144,-6,55,-7
13440,-2064,96,120,-8,55,-7
13445,-2024,96,216,-9,56,-6
13450,-2048,88,144,-11,58,-5
13455,-2056,112,136,-13,58,-6
13460,-2056,88,144,-15,59,-5
13465,-2056,80,160,-17,59,-4
13470,-2056,104,136,-16,59,-5
13475,-2032,80,128,-17,61,-4
13480,-2056,104,144,-18,63,-3
13485,-2048,96,120,-19,63,-2
13490,-2048,96,136,-17,64,-1
13495,-2064,88,136,-15,63,1
13500,-2080,88,152,-12,61,0
13505,-2072,104,160,-8,59,1
13510,-2048,80,112,-7,56,0
13515,-2056,80,104,-6,53,0
13520,-2056,96,120,-2,50,0
13525,-2056,112,136,0,48,-1
13530,-2048,80,160,-1,47,-4
13535,-2064,96,128,-1,47,-3
13540,-2056,120,160,-2,47,-5
13545,-2048,112,152,-5,49,-3
13550,-2056,120,168,-9,51,-2
13555,-2056,96,136,-14,53,-3
13560,-2072,112,144,-19,56,-1
13565,-2056,96,152,-24,60,-1
13570,-2056,80,168,-28,65,-1
13575,-2056,104,160,-31,66,-1
13580,-2056,88,168,-31,68,0
13585,-2056,112,144,-31,68,1
13590,-2056,88,128,-29,66,-1
13595,-2048,96,136,-27,64,-1
13600,-2048,96,160,-24,64,-1
13605,-2064,96,144,-20,64,-1
13610,-2056,72,144,-17,64,-1
13615,-2056,104,144,-15,65,-1
13620,-2064,80,128,-12,66,-2
13625,-2064,88,168,-12,69,-2
13630,-2064,136,176,-10,69,-3
13635,-2064,96,136,-9,72,-2
13640,-2072,96,144,-11,74,-1
13645,-2048,112,152,-13,76,-3
13650,-2064,128,112,-13,76,-3
13655,-2072,120,136,-18,77,-3
13660,-2048,144,152,-21,77,-3
13665,-2072,96,144,-21,76,-4
13670,-2072,80,168,-20,77,-3
13675,-2064,120,136,-20,76,-4
13680,-2056,80,184,-20,76,-3
13685,-2072,120,112,-18,74,-3
13690,-2056,112,160,-17,74,-2
13695,-2056,96,128,-16,73,-2
13700,-2064,96,136,-16,74,-4
13705,-2080,112,152,-17,72,-3
13710,-2064,120,136,-16,72,-4
13715,-2056,80,136,-17,69,-3
13720,-2056,120,136,-17,68,-5
13725,-2072,88,160,-16,69,-4
13730,-2056,112,144,-17,68,-3
13735,-2056,80,120,-18,69,-4
13740,-2048,88,160,-19,69,-4
13745,-2056,104,144,-19,72,-2
13750,-2048,88,152,-21,73,-2
13755,-2064,104,136,-21,75,-1
13760,-2048,104,160,-20,76,-1
13765,-2048,88,144,-21,79,0
13770,-2048,120,120,-21,81,2
13775,-2056,120,152,-24,82,4
13780,-2048,128,128,-25,83,4
13785,-2024,96,160,-30,85,5
13790,-2048,96,160,-34,86,4
13795,-2056,128,136,-37,87,5
13800,-2056,80,168,-40,87,5
13805,-2072,120,136,-42,87,8
13810,-2048,104,136,-44,88,8
13815,-2048,104,160,-44,89,7
13820,-2064,88,152,-43,90,7
13825,-2072,80,152,-43,88,6
13830,-2048,88,120,-42,87,5
13835,-2064,96,160,-39,84,5
13840,-2048,80,128,-36,82,5
13845,-2072,104,136,-33,82,6
13850,-2064,112,120,-30,81,4
13855,-2080,88,160,-25,83,5
13860,-2056,88,144,-23,82,4
13865,-2056,80,144,-21,83,5
13870,-2000,144,128,-18,85,5
13875,-2064,128,112,-15,86,3
13880,-2064,96,104,-16,86,1
13885,-2056,104,112,-17,86,3
13890,-2056,128,112,-18,84,2
13895,-2056,104,136,-19,83,2
13900,-2064,112,112,-20,81,2
13905,-2064,120,136,-21,79,1
13910,-2048,112,104,-20,77,-1
13915,-2064,112,104,-20,77,-2
13920,-2072,96,120,-18,76,-4
13925,-2072,112,160,-16,75,-5
13930,-2064,104,120,-13,72,-5
13935,-2040,112,136,-12,71,-4
13940,-2056,96,120,-12,69,-4
13945,-2064,104,120,-11,66,-3
13950,-2072,96,120,-12,64,-4
13955,-2072,112,120,-12,63,-4
13960,-2072,112,144,-13,62,-5
13965,-2072,112,128,-16,61,-7
13970,-2064,80,128,-18,60,-8
13975,-2080,128,152,-19,61,-8
13980,-2048,80,112,-20,63,-7
13985,-2072,112,184,-20,65,-6
13990,-2072,104,128,-19,68,-6
13995,-2048,80,152,-18,68,-5
14000,-2072,96,104,-16,69,-4
14005,-2064,112,112,-15,68,-4
14010,-2072,88,104,-13,65,-4
14015,-2048,104,88,-11,59,-7
14020,-2048,112,104,-8,54,-8
14025,-2072,128,128,-5,50,-11
14030,-2056,112,136,-3,47,-10
14035,-2064,104,112,-2,47,-10
14040,-2056,96,136,-2,48,-10
14045,-2064,96,144,-3,50,-10
14050,-2056,96,128,-7,53,-8
14055,-2056,104,128,-10,58,-6
14060,-2048,88,152,-13,61,-5
14065,-2048,104,168,-17,64,-5
14070,-2040,80,144,-19,67,-3
14075,-2032,72,152,-19,69,-1
14080,-2056,80,184,-15,69,-1
14085,-2056,72,136,-11,69,0
14090,-2056,96,152,-4,69,2
14095,-2072,96,136,2,68,2
14100,-2048,112,128,6,66,4
14105,-2064,88,96,9,64,3
14110,-2072,112,112,9,62,4
14115,-2072,104,136,7,60,3
14120,-2056,120,96,5,58,3
14125,-2048,104,104,3,57,4
14130,-2072,96,120,-1,57,4
14135,-2072,104,112,-3,58,1
14140,-2064,96,136,-7,58,1
14145,-2056,96,184,-10,59,1
14150,-2056,96,152,-13,60,1
14155,-2048,128,144,-15,61,1
14160,-2048,88,168,-15,61,0
14165,-2056,88,128,-17,64,-1
14170,-2056,104,160,-17,64,1
14175,-2056,96,128,-18,64,0
14180,-2064,96,152,-18,65,0
14185,-2064,88,112,-19,65,-1
14190,-2048,120,160,-19,65,-2
14195,-2056,104,168,-19,64,-4
14200,-2056,112,128,-20,65,-4
14205,-2056,104,144,-21,67,-3
14210,-2048,112,136,-21,70,-4
14215,-2064,144,136,-23,70,-4
14220,-2048,104,136,-22,73,-4
14225,-2064,96,144,-24,75,-4
14230,-2040,96,144,-26,76,-5
14235,-2056,88,128,-26,77,-3
14240,-2064,128,152,-26,77,-3
14245,-2040,96,112,-25,76,-3
14250,-2048,112,136,-25,76,-3
14255,-2056,120,120,-26,75,-3
14260,-2048,120,96,-26,74,-2
14265,-2048,80,120,-27,75,-4
14270,-2056,104,160,-29,75,-3
14275,-2056,104,128,-29,74,-3
14280,-2064,80,136,-33,74,-4
14285,-2040,96,136,-34,76,-3
14290,-2064,96,112,-33,75,-3
14295,-2056,120,136,-34,75,-2
14300,-2064,120,128,-32,76,-2
14305,-2056,112,144,-33,77,-1
14310,-2064,112,112,-36,76,-2
14315,-2048,104,136,-38,77,-1
14320,-2032,96,136,-41,76,0
14325,-2048,112,168,-44,75,0
14330,-2048,88,144,-48,75,0
14335,-2024,72,144,-49,77,0
14340,-2048,112,168,-51,80,0
14345,-2048,72,160,-50,82,3
14350,-2048,80,128,-52,86,4
14355,-2056,80,184,-53,88,6
14360,-2048,72,184,-54,91,7
14365,-2064,88,152,-52,94,9
14370,-2048,104,176,-51,97,10
14375,-2064,96,128,-48,99,11
14380,-2048,112,104,-45,99,12
14385,-2056,96,136,-42,99,11
14390,-2056,104,104,-38,99,10
14395,-2064,112,112,-37,99,10
14400,-2072,112,120,-36,99,8
14405,-2056,32,88,-37,100,8
14410,-2080,120,144,-40,99,10
14415,-2048,88,128,-41,102,9
14420,-2064,96,144,-41,101,9
14425,-2080,104,136,-42,100,9
14430,-2056,88,96,-44,101,10
14435,-2088,128,104,-43,100,9
14440,-2056,104,120,-43,97,8
14445,-2056,104,120,-40,95,8
14450,-2064,104,104,-38,93,7
14455,-2072,128,112,-36,90,7
14460,-2080,128,104,-32,86,6
14465,-2056,88,136,-29,84,4
14470,-2080,96,104,-28,83,2
14475,-2056,104,136,-27,82,2
14480,-2064,96,88,-27,82,1
14485,-2064,88,112,-25,82,0
14490,-2072,96,128,-26,82,0
14495,-2072,96,120,-27,83,-1
14500,-2080,104,128,-26,85,0
14505,-2048,96,112,-26,85,0
14510,-2080,136,80,-27,86,-1
14515,-2064,120,144,-27,86,0
14520,-2064,120,128,-28,84,-1
14525,-2064,88,136,-29,83,-1
14530,-2048,120,152,-28,82,-1
14535,-2056,104,128,-29,80,-1
14540,-2056,88,112,-27,78,-4
14545,-2056,112,120,-26,77,-2
14550,-2056,96,136,-25,76,-1
14555,-2048,88,120,-25,77,-2
14560,-2064,96,128,-26,77,-2
14565,-2072,104,104,-25,75,-3
14570,-2080,112,96,-24,76,-2
14575,-2056,96,128,-24,74,-3
14580,-2088,104,144,-24,73,-2
14585,-2056,96,120,-25,71,-4
14590,-2048,96,96,-26,72,-3
14595,-2040,96,112,-23,70,-2
14600,-2048,112,112,-23,70,-3
14605,-2056,96,136,-22,69,-3
14610,-2056,104,112,-21,71,-2
14615,-2056,88,112,-21,70,-4
14620,-2000,128,120,-21,70,-4
14625,-2080,112,112,-19,70,-6
14630,-2048,88,104,-17,72,-5
14635,-2072,120,104,-14,70,-5
14640,-2072,96,80,-13,70,-7
14645,-2064,112,112,-10,70,-8
14650,-2056,104,104,-8,71,-8
14655,-2064,88,120,-5,72,-8
14660,-2048,88,136,-2,70,-6
14665,-2048,72,112,1,68,-7
14670,-2040,64,152,5,65,-9
14675,-2048,96,128,6,62,-8
14680,-2064,80,160,9,61,-7
14685,-2056,104,160,9,63,-5
14690,-2064,80,128,7,64,-3
14695,-2072,88,128,6,68,0
14700,-2056,64,128,3,73,2
14705,-2056,104,128,-4,77,7
14710,-2056,104,128,-11,81,10
14715,-2056,120,104,-17,85,12
14720,-2056,112,120,-21,85,15
14725,-2112,128,72,-24,83,16
14730,-2048,120,128,-22,79,16
14735,-2056,120,104,-21,73,16
14740,-2080,136,104,-15,66,14
14745,-2056,88,104,-10,60,12
14750,-2064,104,120,-6,54,10
14755,-2048,96,104,-2,47,10
14760,-2064,120,96,2,43,7
14765,-2072,136,120,4,39,5
14770,-2096,144,128,6,38,5
14775,-2072,144,120,7,37,2
14780,-2072,128,128,5,38,0
14785,-2056,136,96,2,40,-2
14790,-2088,152,112,-3,42,-5
14795,-2064,160,120,-9,48,-7
14800,-2064,136,120,-16,53,-8
14805,-2056,136,144,-23,56,-11
14810,-2064,136,152,-31,60,-11
14815,-2064,104,144,-36,64,-12
14820,-2048,112,176,-38,68,-15
14825,-2048,104,168,-39,72,-13
14830,-2040,88,168,-39,75,-13
14835,-2064,136,176,-37,78,-12
14840,-2056,80,120,-35,84,-11
14845,-2040,112,160,-32,85,-12
14850,-2072,104,152,-28,87,-11
14855,-2056,104,120,-22,85,-13
14860,-2048,128,160,-17,83,-11
14865,-2056,128,136,-14,79,-11
14870,-2048,104,128,-8,77,-13
14875,-2048,112,120,-3,73,-16
14880,-2040,96,144,1,73,-19
14885,-2064,112,136,2,73,-20
14890,-2032,96,144,3,78,-19
14895,-2064,112,136,1,84,-18
14900,-2048,88,160,-1,89,-17
14905,-2072,112,168,-6,97,-17
14910,-2040,96,144,-12,101,-15
14915,-2056,88,120,-17,105,-12
14920,-2056,80,128,-22,109,-10
14925,-2064,72,128,-23,114,-10
14930,-2056,88,88,-22,114,-9
14935,-2072,88,96,-18,115,-6
14940,-2056,88,136,-15,115,-6
14945,-2048,80,104,-9,114,-5
14950,-2072,80,104,-4,112,-3
14955,-2048,80,104,1,108,-2
14960,-2072,80,112,2,103,-1
14965,-2056,80,96,3,102,0
14970,-2048,88,88,3,98,0
14975,-2072,88,112,4,95,0
14980,-2080,104,104,2,92,0
14985,-2056,104,120,0,90,0
14990,-2048,112,144,-2,88,0
14995,-2072,96,128,-3,88,1
