timestamp,accel_x,accel_y,accel_z,gyro_x,gyro_y,gyro_z
0,408,-2952,-488,-113,214,-234
5,376,-2896,-528,-13,265,-243
10,336,-2808,-552,66,308,-235
15,328,-2728,-632,120,340,-211
20,248,-2576,-664,145,367,-181
25,104,-2544,-728,137,377,-142
30,104,-2384,-752,106,358,-96
35,96,-2320,-840,59,313,-55
40,16,-2264,-864,7,251,-13
45,8,-2216,-904,-42,188,23
50,-16,-2176,-928,-84,135,48
55,0,-2160,-888,-119,98,61
60,32,-2192,-872,-137,81,64
65,8,-2168,-872,-140,79,61
70,8,-2176,-848,-131,73,57
75,24,-2112,-904,-120,58,49
80,-56,-2088,-880,-109,28,41
85,-120,-1968,-976,-104,-16,41
90,-192,-1872,-1016,-104,-67,45
95,-288,-1784,-1048,-106,-118,53
100,-368,-1672,-1056,-109,-162,65
105,-432,-1568,-1072,-108,-194,76
110,-472,-1488,-1056,-101,-216,81
115,-520,-1456,-1016,-91,-226,81
120,-560,-1440,-960,-79,-227,75
125,-568,-1432,-928,-70,-219,64
130,-576,-1464,-888,-58,-206,48
135,-560,-1504,-848,-53,-187,28
140,-512,-1592,-808,-53,-170,7
145,-488,-1672,-792,-61,-152,-12
150,-416,-1760,-752,-80,-135,-25
155,-320,-1840,-728,-108,-118,-35
160,-232,-1864,-704,-138,-93,-36
165,-184,-1888,-672,-171,-65,-28
170,-80,-1936,-688,-204,-33,-15
175,-8,-1952,-704,-244,-7,0
180,24,-1960,-696,-287,8,14
185,48,-1920,-744,-326,18,35
190,120,-2024,-712,-352,21,64
195,128,-2016,-680,-361,21,97
200,144,-2064,-672,-356,25,132
205,160,-2080,-712,-344,29,170
210,144,-2064,-696,-328,35,201
215,152,-2048,-712,-305,44,229
220,96,-2016,-672,-280,54,251
225,72,-1976,-656,-250,59,271
230,16,-1952,-648,-214,61,288
235,-32,-1920,-648,-173,58,301
240,-88,-1888,-608,-134,51,312
245,-152,-1856,-632,-99,41,318
250,-176,-1832,-624,-65,33,320
255,-176,-1776,-616,-43,35,317
260,-200,-1784,-632,-25,43,312
265,-208,-1760,-600,-11,63,296
270,-224,-1744,-560,-4,89,282
275,-216,-1744,-576,-1,115,263
280,-240,-1760,-536,-3,135,246
285,-256,-1760,-504,-7,145,232
290,-232,-1816,-528,-12,145,218
295,-184,-1808,-544,-13,140,210
300,-248,-1872,-520,-14,136,205
305,-224,-1880,-544,-15,133,205
310,-208,-1888,-528,-20,140,212
315,-200,-1880,-544,-28,155,225
320,-176,-1880,-520,-41,172,234
325,-152,-1856,-536,-59,190,241
330,-128,-1848,-552,-77,205,250
335,-144,-1824,-496,-92,212,255
340,-144,-1832,-480,-98,210,261
345,-144,-1872,-464,-93,205,271
350,-152,-1864,-480,-76,201,285
355,-168,-1856,-472,-55,202,300
360,-136,-1840,-480,-31,207,315
365,-184,-1848,-472,-10,221,331
370,-160,-1832,-512,-3,235,329
375,-152,-1744,-528,-5,254,325
380,-168,-1712,-520,-19,280,326
385,-152,-1712,-480,-31,301,306
390,-184,-1696,-432,-41,317,269
395,-176,-1688,-432,-46,325,233
400,-176,-1736,-328,-42,331,199
405,-168,-1704,-384,-32,339,172
410,-144,-1696,-384,-17,343,146
415,-152,-1688,-400,-3,351,121
420,-120,-1704,-352,8,362,100
425,-144,-1656,-408,12,377,82
430,-136,-1664,-392,13,396,73
435,-128,-1688,-408,11,415,73
440,-120,-1720,-376,9,428,77
445,-128,-1704,-344,16,436,73
450,-120,-1760,-328,29,447,58
455,-136,-1784,-296,43,455,30
460,-160,-1768,-296,54,462,4
465,-136,-1792,-288,65,468,-17
470,-144,-1792,-304,75,470,-30
475,-160,-1800,-296,82,473,-41
480,-160,-1824,-288,87,477,-52
485,-192,-1856,-296,86,479,-62
490,-176,-1872,-304,84,480,-75
495,-184,-1880,-328,83,480,-88
500,-208,-1888,-312,81,477,-106
505,-208,-1912,-368,82,472,-127
510,-272,-1912,-360,82,459,-147
515,-248,-1912,-392,79,441,-167
520,-272,-1936,-392,74,412,-186
525,-304,-1928,-464,65,385,-206
530,-320,-1936,-464,50,349,-218
535,-392,-1896,-448,32,312,-226
540,-432,-1912,-472,18,277,-228
545,-472,-1920,-464,8,243,-229
550,-520,-1928,-400,3,209,-227
555,-520,-1936,-424,5,168,-224
560,-552,-1952,-384,10,123,-219
565,-544,-1984,-376,17,77,-211
570,-528,-2000,-360,28,37,-202
575,-520,-2032,-312,39,7,-189
580,-464,-2048,-296,53,-6,-178
585,-400,-2104,-248,72,-14,-164
590,-352,-2128,-240,92,-15,-152
595,-296,-2160,-200,110,-10,-139
600,-224,-2192,-192,125,3,-128
605,-144,-2208,-176,135,22,-114
610,-80,-2216,-192,134,37,-100
615,-32,-2272,-272,118,52,-83
620,-8,-2264,-352,78,64,-66
625,40,-2320,-456,13,69,-47
630,80,-2344,-616,-80,61,-27
635,56,-2368,-696,-194,43,-3
640,16,-2448,-856,-320,13,28
645,-80,-2520,-976,-442,-25,67
650,-144,-2616,-1008,-541,-73,117
655,-224,-2720,-1024,-599,-122,168
660,-304,-2848,-904,-592,-176,214
665,-392,-2944,-768,-518,-234,256
670,-480,-3016,-664,-376,-294,293
675,-528,-3024,-616,-185,-352,314
680,-576,-2968,-656,10,-399,333
685,-616,-2896,-712,162,-429,360
690,-608,-2768,-832,264,-449,400
695,-584,-2648,-952,295,-470,416
700,-560,-2520,-1008,268,-472,428
705,-480,-2472,-1056,210,-461,398
710,-432,-2320,-1016,162,-425,344
715,-336,-2264,-960,130,-345,300
720,-216,-2136,-904,112,-235,257
725,-88,-2104,-968,109,-119,218
730,16,-2040,-936,124,-7,183
735,144,-1984,-992,150,98,153
740,240,-1928,-1032,177,199,128
745,328,-1848,-1080,198,297,107
750,408,-1752,-1112,212,395,93
755,512,-1656,-1112,217,492,84
760,520,-1552,-1136,212,589,75
765,552,-1504,-1128,206,673,70
770,576,-1456,-1152,200,745,69
775,536,-1432,-1160,191,801,71
780,520,-1424,-1152,176,848,79
785,432,-1408,-1184,154,877,85
790,360,-1472,-1168,121,891,88
795,168,-1496,-1176,81,891,90
800,16,-1576,-1128,39,878,95
805,-160,-1664,-1128,2,850,98
810,-360,-1752,-1048,-32,809,106
815,-504,-1840,-968,-52,755,123
820,-648,-1936,-936,-65,691,145
825,-752,-2008,-864,-77,616,174
830,-832,-2080,-848,-88,533,204
835,-824,-2104,-720,-101,451,229
840,-784,-2128,-840,-108,375,242
845,-704,-2144,-848,-110,310,239
850,-600,-2104,-936,-108,269,220
855,-448,-2032,-992,-102,248,180
860,-328,-1976,-1064,-94,241,127
865,-192,-1912,-1088,-88,243,63
870,-56,-1832,-1088,-81,251,-8
875,16,-1784,-1016,-73,260,-77
880,104,-1752,-1000,-63,271,-135
885,144,-1744,-952,-45,287,-180
890,200,-1728,-904,-26,311,-211
895,216,-1760,-856,-9,334,-224
900,216,-1744,-800,6,366,-218
905,184,-1768,-800,19,397,-201
910,160,-1784,-760,28,418,-178
915,120,-1808,-744,35,430,-155
920,80,-1832,-680,39,428,-128
925,16,-1808,-664,40,418,-103
930,-8,-1832,-664,43,400,-88
935,-88,-1816,-648,49,379,-77
940,-152,-1848,-624,54,354,-75
945,-216,-1872,-576,58,329,-80
950,-280,-1856,-648,56,304,-89
955,-344,-1880,-592,50,274,-102
960,-368,-1864,-632,40,243,-121
965,-368,-1888,-600,33,213,-142
970,-416,-1936,-576,36,185,-165
975,-424,-1928,-560,53,160,-182
980,-416,-1920,-552,75,138,-193
985,-368,-1952,-496,105,122,-208
990,-272,-1912,-512,141,106,-231
995,-160,-1856,-520,168,94,-241
1000,-64,-1848,-536,163,78,-228
1005,-16,-1792,-560,123,60,-211
1010,40,-1784,-520,70,37,-207
1015,104,-1776,-520,21,11,-219
1020,104,-1768,-536,-10,-15,-228
1025,144,-1816,-528,-17,-42,-234
1030,200,-1848,-544,-2,-71,-233
1035,232,-1872,-560,24,-93,-222
1040,208,-1856,-528,46,-106,-217
1045,176,-1832,-528,58,-111,-206
1050,136,-1904,-584,62,-111,-191
1055,104,-1832,-536,58,-113,-172
1060,56,-1848,-528,50,-121,-159
1065,8,-1840,-528,44,-132,-145
1070,-56,-1856,-544,41,-145,-126
1075,-96,-1872,-528,50,-159,-106
1080,-176,-1840,-488,60,-178,-92
1085,-208,-1848,-464,77,-197,-77
1090,-216,-1816,-448,94,-217,-62
1095,-248,-1824,-432,109,-234,-50
1100,-240,-1792,-432,118,-247,-45
1105,-224,-1784,-400,124,-260,-44
1110,-216,-1808,-376,125,-271,-48
1115,-192,-1800,-392,124,-284,-54
1120,-160,-1816,-376,121,-302,-66
1125,-120,-1856,-368,120,-325,-78
1130,-104,-1928,-360,123,-353,-90
1135,-80,-1984,-320,133,-386,-103
1140,-64,-2032,-328,150,-418,-114
1145,-24,-2080,-280,175,-450,-124
1150,8,-2120,-256,205,-471,-131
1155,0,-2144,-216,241,-484,-132
1160,8,-2176,-144,278,-492,-129
1165,0,-2136,-208,315,-497,-126
1170,16,-2088,-168,341,-500,-123
1175,-8,-2008,-224,358,-500,-117
1180,0,-1976,-272,365,-500,-110
1185,16,-1880,-280,363,-495,-98
1190,32,-1800,-344,356,-491,-89
1195,56,-1752,-352,346,-484,-80
1200,96,-1712,-408,334,-478,-74
1205,120,-1680,-400,317,-465,-68
1210,184,-1688,-416,294,-447,-66
1215,200,-1632,-432,266,-423,-69
1220,280,-1704,-400,233,-390,-75
1225,328,-1776,-400,198,-357,-81
1230,352,-1800,-360,163,-325,-89
1235,376,-1912,-368,135,-295,-95
1240,400,-1984,-352,115,-276,-101
1245,368,-2040,-312,108,-265,-102
1250,352,-2112,-264,117,-264,-103
1255,296,-2120,-240,137,-263,-100
1260,256,-2136,-224,166,-263,-96
1265,200,-2104,-240,197,-259,-93
1270,144,-2088,-232,226,-257,-91
1275,88,-2064,-208,250,-255,-89
1280,16,-2016,-240,269,-256,-90
1285,16,-2000,-248,276,-257,-93
1290,-8,-2000,-288,276,-264,-93
1295,-8,-1984,-352,262,-269,-97
1300,-32,-2000,-376,236,-274,-103
1305,-16,-2040,-456,197,-277,-109
1310,-16,-2080,-472,154,-274,-116
1315,0,-2128,-528,114,-266,-127
1320,-8,-2200,-536,84,-249,-146
1325,32,-2272,-576,63,-220,-161
1330,40,-2352,-632,48,-178,-184
1335,48,-2384,-648,37,-121,-209
1340,96,-2376,-688,29,-53,-231
1345,136,-2432,-728,30,27,-254
1350,160,-2416,-752,38,113,-279
1355,224,-2408,-768,55,204,-301
1360,248,-2384,-776,77,288,-329
1365,304,-2360,-792,107,359,-348
1370,328,-2368,-768,144,410,-355
1375,280,-2304,-832,173,438,-354
1380,232,-2304,-808,184,452,-334
1385,216,-2304,-808,173,447,-297
1390,152,-2280,-792,141,426,-246
1395,64,-2304,-768,98,397,-192
1400,16,-2320,-792,59,360,-148
1405,-8,-2368,-776,27,324,-106
1410,-136,-2384,-760,2,296,-72
1415,-224,-2352,-760,-12,272,-47
1420,-288,-2312,-768,-14,246,-25
1425,-416,-2272,-744,-5,212,-14
1430,-464,-2224,-744,10,166,-7
1435,-520,-2136,-808,27,110,-7
1440,-592,-2048,-808,43,45,-8
1445,-640,-1952,-824,54,-19,-13
1450,-648,-1872,-792,61,-80,-15
1455,-672,-1776,-840,66,-132,-18
1460,-632,-1720,-816,66,-173,-16
1465,-632,-1672,-792,62,-201,-13
1470,-544,-1632,-800,50,-219,-9
1475,-512,-1632,-784,35,-225,-8
1480,-424,-1648,-728,15,-226,-6
1485,-368,-1608,-744,-12,-220,-1
1490,-296,-1696,-752,-44,-211,3
1495,-192,-1760,-720,-78,-198,10
1500,-128,-1816,-744,-115,-181,14
1505,-80,-1840,-744,-151,-158,19
1510,-24,-1840,-752,-185,-127,28
1515,8,-1904,-752,-218,-91,35
1520,32,-1944,-728,-246,-55,41
1525,24,-1976,-760,-268,-16,48
1530,32,-1992,-776,-282,25,54
1535,16,-1976,-736,-286,69,63
1540,48,-1992,-712,-278,113,70
1545,16,-1992,-696,-260,156,76
1550,8,-2000,-680,-239,197,84
1555,-8,-2000,-664,-225,228,92
1560,-40,-1992,-696,-223,252,102
1565,-80,-2024,-712,-232,270,114
1570,-112,-2056,-688,-245,279,128
1575,-144,-2064,-720,-258,278,145
1580,-216,-2048,-704,-260,274,159
1585,-240,-2040,-688,-249,268,173
1590,-280,-1992,-680,-225,263,183
1595,-320,-1992,-608,-194,259,189
1600,-368,-1984,-608,-159,259,193
1605,-360,-1936,-624,-123,254,192
1610,-368,-1928,-600,-93,244,188
1615,-344,-1928,-632,-67,230,181
1620,-312,-1896,-592,-48,217,175
1625,-312,-1888,-600,-36,208,165
1630,-296,-1864,-608,-31,205,156
1635,-280,-1880,-600,-32,207,148
1640,-232,-1872,-640,-39,210,141
1645,-192,-1856,-640,-52,218,131
1650,-200,-1872,-592,-69,221,126
1655,-160,-1904,-624,-84,217,123
1660,-168,-1912,-600,-95,208,123
1665,-176,-1920,-600,-98,194,128
1670,-168,-1968,-592,-92,178,140
1675,-216,-1944,-600,-80,165,159
1680,-216,-1968,-592,-68,155,178
1685,-256,-1968,-552,-57,154,196
1690,-256,-1952,-544,-49,155,209
1695,-280,-1976,-560,-44,158,222
1700,-320,-1944,-584,-48,157,230
1705,-312,-1984,-520,-54,155,233
1710,-312,-1984,-560,-60,153,235
1715,-344,-1992,-576,-67,159,234
1720,-320,-2000,-632,-70,170,229
1725,-288,-1984,-616,-71,184,219
1730,-280,-2000,-592,-67,202,205
1735,-256,-2008,-624,-58,217,191
1740,-240,-2008,-584,-46,226,174
1745,-224,-1984,-568,-29,232,158
1750,-216,-1976,-568,-8,232,145
1755,-184,-1960,-552,16,234,134
1760,-176,-1928,-560,39,239,125
1765,-152,-1920,-560,60,246,120
1770,-160,-1888,-544,76,256,115
1775,-160,-1872,-552,88,264,113
1780,-160,-1848,-544,97,271,111
1785,-152,-1848,-528,104,281,110
1790,-128,-1848,-520,107,289,107
1795,-136,-1856,-472,103,300,101
1800,-128,-1880,-440,90,315,97
1805,-120,-1888,-464,72,331,89
1810,-136,-1952,-496,50,352,81
1815,-104,-1968,-480,30,378,72
1820,-96,-1984,-440,15,406,63
1825,-88,-2000,-440,8,434,53
1830,-120,-2040,-408,12,464,43
1835,-96,-2056,-400,27,488,36
1840,-120,-2056,-408,52,512,28
1845,-152,-2008,-448,81,529,18
1850,-136,-1984,-496,105,544,14
1855,-176,-1984,-448,125,559,14
1860,-168,-1976,-416,142,571,15
1865,-152,-1968,-400,156,585,15
1870,-192,-1976,-384,170,595,18
1875,-224,-1976,-424,181,601,23
1880,-184,-1984,-392,190,602,27
1885,-224,-1968,-368,200,596,28
1890,-200,-1992,-336,213,593,30
1895,-232,-1952,-336,230,589,29
1900,-240,-1920,-344,244,581,24
1905,-248,-1880,-344,253,573,19
1910,-288,-1840,-360,259,562,11
1915,-280,-1864,-376,259,550,4
1920,-272,-1872,-360,254,540,-3
1925,-320,-1928,-312,253,531,-11
1930,-336,-1944,-312,252,521,-15
1935,-368,-1976,-312,253,513,-18
1940,-376,-2008,-368,250,499,-20
1945,-376,-2032,-336,244,484,-21
1950,-368,-2080,-344,234,464,-21
1955,-368,-2064,-376,222,440,-21
1960,-344,-2136,-416,210,412,-20
1965,-368,-2120,-408,196,381,-17
1970,-368,-2104,-448,179,342,-14
1975,-376,-2128,-520,171,305,-10
1980,-368,-2136,-560,167,267,-5
1985,-384,-2128,-560,167,233,0
1990,-360,-2120,-536,169,200,3
1995,-384,-2144,-552,172,167,4
2000,-416,-2152,-544,177,132,3
2005,-416,-2168,-544,180,95,2
2010,-440,-2128,-536,183,54,-1
2015,-432,-2168,-520,186,13,-1
2020,-408,-2120,-512,188,-21,-3
2025,-432,-2144,-600,187,-53,-6
2030,-344,-2104,-488,179,-80,-8
2035,-320,-2048,-536,166,-103,-9
2040,-320,-2040,-504,147,-130,-10
2045,-264,-2016,-536,128,-158,-8
2050,-232,-1992,-512,107,-183,-5
2055,-208,-1984,-536,89,-205,-2
2060,-168,-1984,-496,76,-222,4
2065,-136,-1976,-504,71,-231,7
2070,-96,-1968,-488,70,-234,10
2075,-48,-1968,-456,74,-233,12
2080,-48,-1928,-432,81,-230,13
2085,-48,-1896,-480,87,-224,11
2090,0,-1928,-432,91,-214,11
2095,0,-1920,-448,93,-200,10
2100,0,-1896,-432,92,-186,9
2105,8,-1864,-440,92,-171,8
2110,-8,-1864,-432,89,-157,7
2115,-16,-1856,-408,83,-145,6
2120,-32,-1840,-440,78,-134,5
2125,-72,-1872,-424,71,-120,3
2130,-112,-1864,-416,60,-103,4
2135,-184,-1904,-424,44,-88,3
2140,-152,-1888,-440,22,-70,1
2145,-176,-1888,-456,-5,-54,-2
2150,-192,-1920,-440,-33,-41,-5
2155,-200,-1952,-456,-57,-32,-8
2160,-224,-1968,-472,-78,-29,-9
2165,-224,-1984,-496,-90,-31,-9
2170,-208,-1992,-512,-95,-34,-6
2175,-224,-1992,-504,-98,-38,-4
2180,-192,-1976,-480,-96,-41,3
2185,-160,-1992,-496,-90,-46,8
2190,-112,-2000,-496,-80,-51,14
2195,-104,-1984,-512,-69,-58,17
2200,-72,-1976,-528,-58,-68,19
2205,-40,-1984,-568,-53,-82,18
2210,0,-1936,-584,-53,-96,17
2215,0,-1944,-592,-56,-111,15
2220,8,-1936,-600,-61,-124,12
2225,32,-1944,-616,-69,-132,12
2230,48,-1928,-624,-77,-134,11
2235,16,-1920,-568,-85,-131,8
2240,16,-1952,-568,-93,-123,6
2245,40,-1992,-544,-101,-111,4
2250,24,-1984,-536,-106,-99,3
2255,24,-2000,-536,-115,-88,1
2260,8,-2024,-536,-120,-79,0
2265,0,-2064,-520,-125,-73,1
2270,-8,-2064,-512,-130,-65,2
2275,0,-2096,-520,-131,-58,2
2280,-16,-2112,-504,-129,-54,2
2285,-56,-2088,-496,-126,-50,2
2290,-40,-2160,-504,-120,-46,2
2295,-56,-2128,-504,-112,-40,0
2300,-80,-2144,-464,-102,-34,-4
2305,-40,-2136,-480,-92,-26,-8
2310,-40,-2096,-488,-82,-15,-13
2315,-40,-2064,-480,-69,-1,-22
2320,8,-2056,-480,-57,15,-28
2325,24,-2048,-488,-45,34,-34
2330,40,-2008,-472,-38,54,-40
2335,40,-2016,-480,-36,71,-44
2340,56,-2000,-480,-36,87,-47
2345,72,-2000,-480,-39,101,-51
2350,72,-1944,-512,-42,113,-52
2355,64,-1976,-504,-47,122,-50
2360,72,-1984,-504,-48,131,-48
2365,104,-1984,-504,-50,137,-44
2370,96,-1984,-504,-54,146,-42
2375,88,-1992,-544,-58,154,-38
2380,72,-1992,-528,-65,162,-32
2385,64,-1992,-488,-73,171,-28
2390,64,-2000,-576,-80,179,-23
2395,40,-2024,-512,-85,188,-20
2400,8,-2032,-512,-88,194,-13
2405,32,-2064,-544,-91,202,-10
2410,0,-2048,-512,-94,207,-7
2415,-16,-2096,-504,-98,214,-3
2420,-16,-2096,-520,-103,218,-4
2425,-40,-2080,-536,-107,225,-5
2430,-48,-2072,-480,-111,229,-10
2435,-48,-2088,-512,-114,234,-18
2440,-64,-2088,-504,-112,236,-26
2445,-104,-2096,-488,-105,238,-34
2450,-72,-2080,-448,-95,243,-42
2455,-88,-2040,-448,-80,250,-48
2460,-88,-2032,-424,-66,261,-56
2465,-64,-2040,-416,-53,275,-63
2470,-72,-2016,-400,-42,293,-68
2475,-72,-2040,-368,-33,306,-72
2480,-104,-2032,-400,-27,317,-76
2485,-88,-2000,-416,-22,327,-82
2490,-72,-2008,-416,-17,332,-87
2495,-64,-2040,-424,-15,335,-95
2500,-72,-2000,-392,-12,336,-103
2505,-72,-2024,-408,-9,338,-109
2510,-96,-2000,-400,-5,341,-115
2515,-80,-1992,-416,-7,349,-121
2520,-56,-1992,-416,-11,362,-124
2525,-48,-2000,-400,-21,377,-125
2530,-88,-2016,-360,-32,393,-122
2535,-80,-2008,-392,-43,407,-117
2540,-96,-2000,-376,-52,418,-109
2545,-88,-2040,-408,-58,423,-102
2550,-88,-2000,-408,-59,421,-93
2555,-88,-1992,-408,-59,417,-86
2560,-80,-2032,-416,-57,413,-78
2565,-72,-2008,-424,-56,414,-70
2570,-48,-1992,-360,-55,421,-62
2575,-64,-1984,-448,-55,433,-60
2580,-88,-1952,-496,-57,447,-56
2585,-80,-1936,-480,-62,464,-53
2590,-40,-1896,-512,-66,485,-52
2595,-40,-1872,-536,-74,503,-51
2600,8,-1832,-520,-85,522,-49
2605,0,-1800,-576,-100,541,-45
2610,40,-1720,-568,-121,558,-40
2615,56,-1736,-584,-143,577,-35
2620,72,-1680,-592,-166,593,-29
2625,80,-1664,-552,-185,608,-24
2630,104,-1680,-560,-200,623,-19
2635,112,-1680,-544,-207,634,-11
2640,152,-1720,-488,-208,645,0
2645,128,-1728,-472,-204,653,9
2650,112,-1760,-456,-196,660,18
2655,80,-1792,-424,-192,664,33
2660,80,-1800,-464,-199,665,49
2665,72,-1808,-472,-217,669,65
2670,40,-1840,-480,-244,674,81
2675,48,-1856,-440,-275,675,99
2680,40,-1824,-440,-307,667,115
2685,-16,-1872,-392,-336,654,127
2690,-16,-1896,-392,-356,633,138
2695,-8,-1944,-368,-368,607,146
2700,-40,-1976,-304,-375,571,150
2705,-32,-2024,-312,-378,528,153
2710,-88,-2048,-288,-376,478,153
2715,-96,-2128,-264,-372,426,153
2720,-104,-2184,-240,-366,369,150
2725,-128,-2272,-288,-364,315,146
2730,-160,-2312,-280,-366,264,142
2735,-168,-2384,-320,-373,219,137
2740,-192,-2392,-336,-388,179,130
2745,-176,-2416,-408,-403,147,121
2750,-160,-2456,-408,-416,127,111
2755,-144,-2448,-424,-420,116,98
2760,-128,-2448,-432,-415,111,82
2765,-96,-2416,-392,-389,109,61
2770,-88,-2400,-376,-338,107,38
2775,-48,-2360,-320,-263,101,15
2780,-24,-2352,-296,-175,95,-4
2785,128,-2256,-248,-84,87,-27
2790,48,-2272,-328,-2,79,-47
2795,40,-2184,-368,58,74,-66
2800,16,-2104,-336,91,72,-83
2805,32,-2072,-320,99,73,-97
2810,16,-2008,-312,95,72,-106
2815,0,-2000,-320,84,69,-112
2820,-40,-1968,-304,68,60,-118
2825,-72,-1904,-280,48,46,-130
2830,-112,-1912,-280,24,30,-134
2835,-120,-1880,-272,2,16,-137
2840,-144,-1840,-272,-18,-3,-136
2845,-160,-1824,-272,-33,-21,-141
2850,-144,-1808,-264,-48,-38,-147
2855,-152,-1744,-248,-62,-53,-153
2860,-128,-1784,-240,-80,-72,-161
2865,-136,-1752,-272,-99,-90,-170
2870,-112,-1776,-240,-119,-111,-179
2875,-80,-1800,-216,-138,-133,-184
2880,-56,-1800,-224,-157,-158,-189
2885,-40,-1856,-224,-173,-188,-194
2890,0,-1888,-216,-187,-220,-195
2895,-16,-1832,-288,-199,-248,-192
2900,32,-1928,-216,-211,-273,-187
2905,16,-1936,-240,-220,-292,-179
2910,88,-1976,-248,-229,-311,-172
2915,104,-1984,-240,-236,-324,-162
2920,128,-2000,-280,-238,-337,-150
2925,112,-2000,-280,-238,-349,-143
2930,128,-2008,-256,-234,-361,-138
2935,136,-2008,-256,-227,-373,-129
2940,112,-2024,-280,-213,-382,-122
2945,96,-2056,-240,-200,-389,-118
2950,96,-2056,-248,-182,-393,-113
2955,88,-2056,-264,-167,-394,-106
2960,80,-2088,-248,-154,-392,-100
2965,96,-2072,-208,-139,-388,-94
2970,80,-2096,-184,-117,-385,-90
2975,64,-2128,-216,-90,-384,-86
2980,56,-2128,-184,-61,-384,-82
2985,56,-2104,-208,-36,-384,-81
2990,64,-2128,-192,-16,-383,-82
2995,80,-2112,-264,0,-380,-86
3000,80,-2088,-232,14,-375,-92
3005,88,-2096,-200,26,-372,-99
3010,72,-2120,-192,39,-368,-109
3015,80,-2120,-208,58,-363,-118
3020,32,-2112,-160,80,-362,-129
3025,40,-2120,-152,102,-363,-138
3030,40,-2096,-152,126,-362,-145
3035,-16,-2064,-152,150,-363,-146
3040,32,-2048,-152,168,-364,-146
3045,8,-2000,-160,181,-365,-144
3050,16,-1968,-160,192,-367,-144
3055,32,-1936,-160,201,-367,-141
3060,40,-1928,-168,208,-371,-139
3065,72,-1904,-160,211,-373,-135
3070,120,-1888,-160,209,-375,-131
3075,128,-1888,-168,200,-375,-130
3080,152,-1912,-208,184,-375,-124
3085,176,-1896,-280,159,-373,-118
3090,232,-1904,-280,130,-372,-111
3095,232,-1944,-296,98,-367,-104
3100,224,-1952,-360,66,-363,-102
3105,248,-1992,-312,36,-360,-100
3110,280,-2048,-416,10,-358,-97
3115,232,-2080,-360,-11,-357,-96
3120,240,-2160,-352,-23,-357,-93
3125,176,-2232,-384,-34,-352,-93
3130,160,-2304,-392,-46,-341,-98
3135,144,-2344,-456,-59,-320,-105
3140,128,-2432,-496,-75,-293,-118
3145,128,-2480,-544,-86,-253,-131
3150,136,-2496,-584,-90,-209,-143
3155,128,-2504,-648,-83,-159,-163
3160,136,-2560,-656,-65,-104,-180
3165,168,-2576,-664,-31,-47,-192
3170,208,-2584,-616,17,7,-203
3175,216,-2560,-616,74,53,-214
3180,240,-2536,-640,130,89,-222
3185,248,-2496,-680,175,108,-225
3190,240,-2456,-736,194,107,-209
3195,200,-2392,-736,186,86,-185
3200,176,-2352,-824,158,56,-153
3205,144,-2336,-856,118,19,-115
3210,96,-2296,-888,67,-15,-80
3215,56,-2304,-1024,10,-42,-52
3220,0,-2264,-968,-46,-64,-30
3225,-24,-2248,-1040,-100,-83,-15
3230,-80,-2224,-1032,-143,-105,-9
3235,-184,-2208,-1040,-170,-134,-10
3240,-272,-2160,-1016,-177,-166,-23
3245,-360,-2096,-1032,-178,-206,-42
3250,-448,-1992,-1024,-170,-255,-62
3255,-488,-1928,-992,-152,-307,-82
3260,-528,-1816,-984,-130,-358,-99
3265,-592,-1712,-960,-103,-391,-117
3270,-624,-1624,-896,-73,-423,-134
3275,-640,-1552,-840,-40,-444,-150
3280,-608,-1496,-800,-9,-457,-161
3285,-624,-1480,-744,15,-464,-165
3290,-560,-1536,-696,27,-465,-164
3295,-480,-1600,-688,21,-465,-156
3300,-368,-1720,-688,-6,-456,-144
3305,-256,-1824,-672,-54,-441,-126
3310,-192,-1944,-680,-116,-413,-103
3315,-88,-2008,-672,-181,-374,-78
3320,-40,-2128,-656,-238,-328,-45
3325,80,-2224,-608,-285,-277,-12
3330,88,-2272,-640,-322,-227,22
3335,120,-2320,-624,-348,-182,56
3340,176,-2328,-632,-366,-148,91
3345,168,-2384,-632,-373,-126,127
3350,200,-2392,-656,-368,-116,161
3355,136,-2408,-696,-351,-112,196
3360,88,-2352,-688,-322,-117,228
3365,48,-2272,-688,-278,-130,255
3370,8,-2216,-656,-219,-149,278
3375,-80,-2120,-672,-146,-172,295
3380,-144,-2072,-632,-64,-201,306
3385,-224,-1984,-592,16,-235,310
3390,-288,-1928,-560,86,-268,315
3395,-336,-1872,-536,143,-297,317
3400,-384,-1776,-528,179,-323,316
3405,-464,-1744,-520,199,-341,316
3410,-432,-1712,-512,200,-354,312
3415,-448,-1672,-488,185,-363,301
3420,-440,-1664,-464,161,-375,285
3425,-400,-1688,-432,137,-386,270
3430,-376,-1688,-432,116,-396,255
3435,-280,-1648,-376,99,-401,238
3440,-312,-1752,-408,88,-403,227
3445,-280,-1760,-392,81,-400,220
3450,-240,-1800,-384,74,-386,212
3455,-184,-1808,-368,66,-372,210
3460,-144,-1816,-368,56,-353,214
3465,-136,-1800,-392,44,-335,218
3470,-72,-1840,-400,33,-320,220
3475,-88,-1832,-424,27,-305,228
3480,-72,-1824,-384,28,-294,237
3485,-88,-1816,-448,36,-284,245
3490,-136,-1768,-400,49,-271,254
3495,-136,-1776,-408,66,-253,269
3500,-152,-1760,-368,82,-236,282
3505,-208,-1720,-392,92,-219,281
3510,-248,-1688,-360,92,-201,280
3515,-272,-1696,-384,80,-184,278
3520,-336,-1640,-400,57,-168,271
3525,-352,-1640,-344,29,-150,262
3530,-352,-1664,-344,2,-135,255
3535,-384,-1696,-336,-24,-120,239
3540,-384,-1696,-384,-41,-106,213
3545,-360,-1712,-328,-49,-89,189
3550,-360,-1712,-328,-48,-73,162
3555,-360,-1712,-312,-43,-58,130
3560,-344,-1760,-296,-34,-45,96
3565,-336,-1744,-296,-24,-39,60
3570,-328,-1784,-296,-15,-34,30
3575,-336,-1808,-296,-6,-26,3
3580,-344,-1816,-280,1,-20,-20
3585,-312,-1856,-280,10,-15,-38
3590,-328,-1872,-272,19,-8,-57
3595,-328,-1888,-304,28,3,-71
3600,-304,-1912,-336,35,12,-86
3605,-280,-1952,-280,41,22,-102
3610,-296,-1920,-312,45,32,-120
3615,-272,-1960,-296,46,37,-142
3620,-280,-1992,-296,50,41,-162
3625,-248,-2048,-264,58,42,-183
3630,-264,-2072,-280,68,42,-204
3635,-272,-2112,-256,83,41,-220
3640,-264,-2128,-256,105,37,-233
3645,-264,-2136,-248,134,26,-243
3650,-232,-2144,-208,170,9,-249
3655,-280,-2120,-248,211,-18,-253
3660,-296,-2120,-208,247,-51,-255
3665,-320,-2080,-216,271,-94,-252
3670,-344,-2064,-240,289,-139,-248
3675,-368,-2040,-248,304,-185,-239
3680,-464,-2016,-224,319,-227,-226
3685,-496,-1992,-232,333,-266,-208
3690,-552,-1968,-248,343,-299,-190
3695,-600,-1952,-224,347,-327,-173
3700,-624,-1952,-248,345,-349,-157
3705,-648,-1944,-264,337,-371,-141
3710,-656,-1960,-288,324,-385,-126
3715,-648,-1992,-280,298,-395,-113
3720,-600,-2048,-296,264,-402,-102
3725,-576,-2064,-336,222,-399,-86
3730,-552,-2128,-440,171,-392,-75
3735,-528,-2216,-472,105,-394,-66
3740,-496,-2264,-544,39,-399,-51
3745,-424,-2368,-576,-28,-416,-28
3750,-360,-2504,-592,-83,-436,-2
3755,-312,-2608,-624,-118,-449,26
3760,-256,-2736,-584,-138,-456,59
3765,-200,-2848,-568,-146,-460,104
3770,-136,-2920,-520,-147,-462,166
3775,-120,-3008,-400,-137,-460,236
3780,-128,-3096,-360,-77,-465,280
3785,-144,-3056,-360,58,-478,292
3790,-160,-3000,-432,224,-477,267
3795,-88,-2880,-464,380,-457,239
3800,-40,-2672,-520,496,-411,219
3805,-40,-2480,-640,559,-348,191
3810,-48,-2288,-712,571,-287,144
3815,-24,-2152,-776,539,-215,101
3820,-64,-1984,-768,475,-133,52
3825,-64,-1920,-768,398,-37,9
3830,-96,-1864,-768,328,57,-24
3835,-192,-1816,-784,273,135,-46
3840,-224,-1816,-800,227,196,-58
3845,-304,-1768,-816,183,237,-64
3850,-344,-1744,-864,139,266,-64
3855,-336,-1712,-888,95,290,-56
3860,-320,-1696,-944,51,311,-39
3865,-256,-1624,-864,10,336,-24
3870,-136,-1640,-1008,-24,366,-5
3875,-40,-1600,-1000,-55,400,10
3880,0,-1576,-1056,-77,435,23
3885,104,-1584,-1000,-85,459,35
3890,192,-1584,-984,-86,472,41
3895,256,-1624,-920,-82,477,43
3900,280,-1640,-928,-75,480,45
3905,272,-1680,-784,-66,482,51
3910,248,-1760,-784,-64,483,60
3915,152,-1784,-736,-72,486,69
3920,104,-1864,-728,-96,487,80
3925,24,-1920,-720,-130,481,83
3930,-48,-1968,-688,-164,464,84
3935,-112,-2016,-696,-196,442,81
3940,-184,-2048,-688,-227,414,75
3945,-256,-2048,-640,-256,377,64
3950,-312,-2080,-664,-278,339,51
3955,-360,-2080,-640,-293,303,32
3960,-424,-2104,-632,-298,271,8
3965,-408,-2160,-624,-290,251,-24
3970,-392,-2160,-552,-273,249,-58
3975,-312,-2120,-656,-249,263,-95
3980,-336,-2136,-576,-220,285,-138
3985,-304,-2104,-584,-183,305,-179
3990,-248,-2064,-576,-136,315,-215
3995,-192,-2032,-544,-80,310,-248
4000,-144,-1992,-592,-20,286,-279
4005,-152,-1952,-560,44,256,-301
4010,-112,-1880,-560,99,223,-313
4015,-88,-1848,-528,143,195,-320
4020,-112,-1800,-552,178,174,-316
4025,-136,-1800,-496,205,160,-312
4030,-80,-1768,-456,235,158,-308
4035,-16,-1736,-472,242,160,-279
4040,0,-1728,-432,208,163,-236
4045,0,-1712,-464,141,169,-203
4050,-48,-1720,-440,72,174,-197
4055,-32,-1744,-448,13,171,-206
4060,-16,-1728,-456,-27,161,-222
4065,-72,-1776,-456,-48,143,-239
4070,-24,-1824,-424,-50,119,-250
4075,-16,-1832,-424,-36,97,-262
4080,-72,-1840,-488,-19,73,-275
4085,-32,-1896,-408,-3,55,-288
4090,-8,-1896,-376,11,40,-302
4095,0,-1904,-352,18,28,-313
4100,0,-1912,-352,18,18,-321
4105,-16,-1888,-360,8,9,-328
4110,24,-1920,-368,-7,0,-330
4115,16,-1928,-360,-25,-9,-333
4120,0,-1920,-328,-42,-21,-332
4125,32,-1928,-320,-56,-36,-329
4130,40,-1928,-288,-66,-51,-319
4135,32,-1904,-320,-67,-63,-306
4140,8,-1928,-296,-60,-77,-290
4145,24,-1920,-272,-53,-91,-273
4150,0,-1912,-264,-40,-106,-254
4155,0,-1896,-264,-28,-120,-233
4160,0,-1864,-256,-18,-131,-210
4165,0,-1864,-248,-9,-141,-185
4170,-16,-1832,-240,0,-151,-164
4175,-40,-1816,-224,11,-158,-143
4180,-32,-1784,-184,21,-170,-125
4185,-24,-1760,-168,33,-182,-106
4190,-32,-1832,-168,45,-194,-91
4195,-16,-1776,-152,56,-204,-75
4200,0,-1760,-120,64,-214,-61
4205,8,-1808,-120,69,-224,-49
4210,16,-1824,-120,74,-233,-36
4215,24,-1864,-128,78,-242,-26
4220,24,-1928,-96,83,-255,-17
4225,16,-1960,-96,93,-270,-8
4230,8,-2016,-88,106,-287,-1
4235,0,-1992,-72,126,-304,11
4240,0,-2048,-88,148,-318,22
4245,-32,-2064,-104,169,-325,30
4250,-32,-2048,-96,186,-328,39
4255,-56,-2048,-120,199,-330,53
4260,-72,-2024,-120,209,-331,65
4265,-64,-1976,-152,216,-327,78
4270,-80,-1944,-200,215,-323,95
4275,-56,-1920,-232,210,-316,113
4280,-16,-1888,-248,206,-306,132
4285,-8,-1888,-216,201,-290,149
4290,48,-1848,-192,201,-268,160
4295,72,-1824,-240,201,-228,168
4300,208,-1752,-200,199,-173,173
4305,192,-1840,-184,193,-123,174
4310,232,-1856,-176,181,-60,168
4315,248,-1896,-160,163,-8,155
4320,272,-1912,-224,136,28,134
4325,288,-1992,-192,110,42,111
4330,272,-2016,-208,87,33,79
4335,256,-2048,-192,71,6,46
4340,224,-2104,-160,62,-34,20
4345,112,-2112,-120,65,-80,4
4350,64,-2152,-96,73,-128,-3
4355,-16,-2184,-80,79,-172,-4
4360,-112,-2224,-80,74,-213,-2
4365,-192,-2272,-96,52,-253,3
4370,-296,-2296,-128,12,-288,7
4375,-368,-2376,-152,-43,-318,7
4380,-416,-2432,-216,-103,-342,2
4385,-384,-2520,-216,-165,-353,-13
4390,-384,-2640,-240,-210,-350,-37
4395,-336,-2736,-272,-233,-333,-72
4400,-248,-2864,-272,-216,-300,-113
4405,-168,-2944,-320,-168,-266,-162
4410,-56,-2872,-408,-99,-232,-217
4415,48,-3024,-408,-24,-193,-268
4420,152,-2984,-472,47,-142,-313
4425,256,-2904,-544,99,-84,-353
4430,368,-2816,-656,130,-15,-376
4435,416,-2712,-824,140,55,-378
4440,504,-2528,-968,123,110,-371
4445,536,-2392,-1056,82,151,-350
4450,568,-2280,-1096,24,169,-322
4455,552,-2176,-1104,-31,160,-293
4460,536,-2120,-1056,-69,132,-266
4465,472,-2064,-992,-87,89,-246
4470,384,-2056,-936,-93,38,-233
4475,280,-2016,-912,-91,-18,-229
4480,104,-1984,-896,-84,-74,-230
4485,-32,-1840,-896,-80,-135,-229
4490,-192,-1768,-896,-80,-201,-227
4495,-408,-1632,-872,-86,-278,-217
4500,-600,-1544,-840,-91,-361,-203
4505,-816,-1472,-800,-89,-447,-183
4510,-992,-1368,-736,-75,-533,-155
4515,-1176,-1312,-648,-48,-610,-124
4520,-1184,-1312,-640,-15,-665,-87
4525,-1200,-1320,-648,10,-692,-49
4530,-1144,-1400,-632,16,-695,-14
4535,-968,-1504,-584,-14,-676,4
4540,-776,-1624,-616,-76,-633,8
4545,-552,-1776,-592,-162,-565,10
4550,-320,-1952,-632,-261,-477,18
4555,-104,-2152,-632,-356,-377,25
4560,120,-2328,-640,-442,-274,24
4565,288,-2512,-648,-517,-181,17
4570,456,-2656,-656,-580,-106,7
4575,544,-2712,-664,-624,-49,2
4580,648,-2768,-728,-650,-9,5
4585,712,-2728,-752,-656,22,20
4590,672,-2648,-768,-637,51,52
4595,616,-2560,-736,-584,83,106
4600,520,-2464,-664,-493,113,175
4605,392,-2304,-632,-382,141,246
4610,288,-2176,-640,-263,161,313
4615,192,-2072,-616,-148,175,371
4620,56,-1976,-632,-47,185,421
4625,8,-1960,-608,34,197,457
4630,-128,-1824,-584,91,210,482
4635,-200,-1776,-544,125,222,494
4640,-272,-1728,-520,140,231,500
4645,-344,-1688,-496,137,230,501
4650,-400,-1672,-440,123,230,495
4655,-440,-1648,-432,104,227,485
4660,-456,-1632,-400,81,227,472
4665,-440,-1640,-440,52,226,457
4670,-456,-1600,-400,19,226,442
4675,-400,-1640,-392,-13,232,424
4680,-352,-1648,-424,-46,238,410
4685,-352,-1656,-408,-73,245,395
4690,-328,-1688,-432,-95,254,373
4695,-272,-1720,-408,-107,266,358
4700,-208,-1720,-400,-113,282,346
4705,-168,-1752,-392,-114,303,336
4710,-120,-1768,-392,-116,329,332
4715,-120,-1752,-384,-116,357,337
4720,-96,-1808,-392,-112,385,343
4725,-88,-1768,-344,-110,407,350
4730,-96,-1720,-328,-112,432,365
4735,-136,-1760,-320,-117,453,373
4740,-184,-1744,-304,-125,472,380
4745,-208,-1744,-312,-135,488,386
4750,-240,-1736,-296,-141,503,385
4755,-272,-1768,-272,-142,520,383
4760,-328,-1776,-272,-139,536,374
4765,-336,-1752,-248,-135,549,356
4770,-368,-1752,-256,-133,561,335
4775,-360,-1760,-240,-137,572,315
4780,-368,-1784,-248,-139,584,302
4785,-392,-1816,-248,-138,591,284
4790,-424,-1832,-240,-117,586,249
4795,-424,-1872,-232,-72,575,198
4800,-440,-1872,-256,-15,564,139
4805,-416,-1848,-248,40,560,89
4810,-424,-1840,-232,79,560,54
4815,-392,-1840,-216,100,564,31
4820,-376,-1824,-176,102,573,3
4825,-352,-1856,-184,96,583,-19
4830,-280,-1904,-168,93,590,-47
4835,-280,-1888,-176,102,594,-75
4840,-336,-2016,-96,111,598,-104
4845,-216,-1912,-168,120,593,-133
4850,-168,-1968,-168,125,586,-163
4855,-168,-1968,-176,130,577,-194
4860,-184,-1976,-192,138,564,-219
4865,-168,-1960,-224,149,545,-243
4870,-192,-1968,-248,157,516,-266
4875,-200,-1936,-256,156,479,-287
4880,-240,-1912,-288,148,437,-301
4885,-264,-1912,-360,127,384,-307
4890,-352,-1896,-392,103,332,-309
4895,-440,-1880,-392,77,280,-301
4900,-520,-1896,-392,57,223,-290
4905,-576,-1912,-352,46,161,-274
4910,-632,-1928,-336,47,94,-258
4915,-704,-1976,-304,60,30,-239
4920,-760,-2000,-272,83,-27,-214
4925,-792,-2032,-240,115,-72,-189
4930,-832,-2072,-224,150,-104,-163
4935,-824,-2096,-160,186,-126,-139
4940,-776,-2128,-152,217,-131,-119
4945,-664,-2136,-104,252,-122,-107
4950,-544,-2136,-40,288,-101,-103
4955,-416,-2136,-112,323,-73,-107
4960,-312,-2096,-112,341,-41,-113
4965,-168,-2088,-120,342,-4,-121
4970,-56,-2080,-208,318,34,-125
4975,56,-2096,-240,270,78,-128
4980,176,-2128,-312,200,126,-123
4985,256,-2224,-400,112,175,-110
4990,312,-2264,-456,15,222,-91
4995,328,-2408,-520,-84,265,-65
5000,312,-2496,-552,-163,298,-27
5005,256,-2592,-624,-220,318,26
5010,208,-2712,-696,-259,323,89
5015,64,-2776,-704,-281,310,155
5020,-64,-2832,-808,-287,280,223
5025,-208,-2904,-888,-281,237,282
5030,-328,-2920,-944,-261,192,330
5035,-424,-2904,-960,-229,151,359
5040,-504,-2896,-968,-189,114,370
5045,-552,-2872,-1040,-143,77,378
5050,-616,-2824,-992,-98,40,391
5055,-648,-2840,-1016,-57,12,407
5060,-520,-2760,-984,-13,8,419
5065,-408,-2704,-928,42,31,415
5070,-280,-2608,-856,112,73,399
5075,-152,-2496,-776,195,125,379
5080,-48,-2440,-768,273,180,348
5085,40,-2264,-816,339,229,312
5090,224,-2088,-872,375,295,291
5095,384,-1928,-920,372,387,282
5100,520,-1720,-920,342,512,297
5105,656,-1536,-984,300,651,325
5110,712,-1384,-1008,245,790,330
5115,816,-1224,-1040,190,913,317
5120,832,-1088,-1072,138,1022,297
5125,848,-976,-1088,92,1125,280
5130,840,-936,-1072,55,1220,278
5135,792,-936,-1072,11,1307,284
5140,648,-944,-1048,-39,1375,293
5145,520,-1000,-992,-99,1425,295
5150,392,-1160,-936,-172,1456,295
5155,184,-1320,-944,-257,1466,295
5160,8,-1528,-912,-348,1461,298
5165,-160,-1736,-848,-440,1441,303
5170,-344,-1944,-840,-527,1410,305
5175,-496,-2096,-792,-605,1365,307
5180,-608,-2248,-800,-674,1306,314
5185,-736,-2392,-784,-738,1226,319
5190,-808,-2488,-792,-797,1128,319
5195,-840,-2560,-808,-841,1018,310
5200,-832,-2552,-824,-864,901,288
5205,-808,-2512,-824,-857,791,253
5210,-712,-2448,-824,-813,691,207
5215,-616,-2352,-832,-733,608,150
5220,-504,-2232,-840,-625,549,83
5225,-392,-2096,-760,-495,510,16
5230,-272,-1992,-776,-362,486,-46
5235,-184,-1904,-744,-246,472,-101
5240,-72,-1816,-696,-151,458,-146
5245,0,-1736,-688,-78,453,-182
5250,64,-1696,-664,-35,458,-208
5255,128,-1656,-696,-14,469,-225
5260,192,-1616,-664,-20,487,-238
5265,248,-1592,-680,-42,515,-236
5270,264,-1576,-680,-74,550,-226
5275,272,-1616,-664,-108,576,-213
5280,256,-1616,-632,-149,593,-204
5285,240,-1656,-640,-190,606,-193
5290,216,-1688,-656,-223,613,-176
5295,176,-1768,-656,-242,617,-157
5300,168,-1808,-624,-254,615,-142
5305,112,-1864,-576,-257,611,-129
5310,72,-1920,-576,-249,606,-115
5315,32,-1960,-560,-240,601,-105
5320,16,-1976,-568,-221,599,-96
5325,16,-1976,-544,-205,593,-87
5330,0,-1960,-520,-197,586,-78
5335,0,-1936,-528,-198,572,-75
5340,-32,-1904,-520,-204,560,-77
5345,-16,-1880,-544,-211,538,-86
5350,-16,-1840,-536,-219,516,-101
5355,0,-1760,-552,-223,498,-115
5360,0,-1760,-520,-223,485,-125
5365,24,-1752,-536,-224,472,-138
5370,56,-1696,-512,-218,472,-138
5375,80,-1688,-520,-207,474,-133
5380,160,-1672,-504,-198,478,-125
5385,152,-1760,-520,-193,479,-115
5390,168,-1728,-560,-196,478,-102
5395,192,-1736,-560,-206,478,-85
5400,176,-1752,-592,-220,479,-68
5405,184,-1824,-560,-230,478,-45
5410,168,-1832,-584,-235,481,-20
5415,168,-1872,-544,-235,485,4
5420,168,-1872,-584,-233,494,24
5425,152,-1920,-496,-230,501,44
5430,136,-1928,-520,-225,506,62
5435,128,-1944,-528,-215,512,78
5440,72,-1968,-488,-204,514,97
5445,56,-1944,-496,-192,514,113
5450,32,-1936,-512,-182,513,129
5455,0,-1928,-528,-172,510,147
5460,-8,-1904,-520,-162,506,164
5465,-24,-1928,-464,-150,498,180
5470,-64,-1912,-456,-136,488,192
5475,-80,-1928,-416,-119,477,204
5480,-104,-1920,-424,-99,463,214
5485,-96,-1960,-408,-82,447,222
5490,-80,-1976,-328,-70,429,230
5495,-112,-1968,-408,-57,411,235
5500,-144,-1984,-424,-42,390,238
5505,-144,-1976,-408,-26,372,241
5510,-128,-1968,-392,-13,359,247
5515,-144,-1944,-392,1,348,250
5520,-144,-1968,-352,18,338,253
5525,-136,-1960,-376,33,331,254
5530,-112,-1968,-344,45,327,256
5535,-40,-1944,-400,51,327,259
5540,-8,-1960,-400,52,328,256
5545,0,-1936,-432,46,324,249
5550,8,-1928,-448,41,319,243
5555,24,-1928,-408,38,310,241
5560,16,-1928,-432,38,301,241
5565,16,-1928,-440,41,288,242
5570,0,-1968,-424,44,274,237
5575,0,-1984,-416,49,260,235
5580,-32,-1992,-408,47,246,231
5585,-48,-2016,-376,46,229,224
5590,-24,-2048,-392,47,207,223
5595,-72,-2080,-376,47,185,220
5600,-56,-2088,-336,56,162,215
5605,-80,-2120,-336,65,138,205
5610,-120,-2128,-296,80,113,202
5615,-104,-2144,-304,96,92,199
5620,-128,-2168,-312,108,68,192
5625,-136,-2128,-336,118,42,173
5630,-136,-2144,-272,123,16,153
5635,-128,-2136,-256,133,-10,133
5640,-176,-2128,-192,149,-33,123
5645,-144,-2136,-160,173,-56,116
5650,-152,-2152,-136,206,-85,98
5655,-184,-2128,-136,242,-114,82
5660,-184,-2112,-128,277,-147,78
5665,-184,-2104,-176,300,-185,77
5670,-240,-2088,-224,310,-226,78
5675,-248,-2096,-304,300,-266,84
5680,-224,-2112,-328,268,-294,96
5685,-168,-2184,-384,218,-307,109
5690,-80,-2288,-400,166,-306,119
5695,16,-2384,-480,123,-281,125
5700,104,-2488,-568,92,-233,135
5705,128,-2520,-768,62,-168,141
5710,320,-2560,-920,21,-96,148
5715,416,-2576,-1160,-45,-30,151
5720,504,-2576,-1376,-142,26,146
5725,624,-2592,-1592,-255,72,135
5730,752,-2592,-1696,-361,100,115
5735,872,-2624,-1720,-434,116,88
5740,968,-2608,-1680,-450,138,51
5745,1008,-2600,-1648,-397,178,12
5750,960,-2568,-1536,-295,233,-22
5755,832,-2488,-1504,-176,288,-48
5760,648,-2400,-1512,-71,335,-66
5765,472,-2240,-1512,3,368,-75
5770,232,-2080,-1528,38,382,-72
5775,-32,-1936,-1528,35,386,-55
5780,-248,-1784,-1456,6,380,-30
5785,-504,-1640,-1360,-34,366,0
5790,-688,-1560,-1248,-68,344,28
5795,-904,-1504,-1152,-83,319,53
5800,-1072,-1472,-1056,-79,294,74
5805,-1152,-1496,-960,-58,273,90
5810,-1192,-1568,-904,-27,256,97
5815,-1112,-1544,-856,10,244,98
5820,-944,-1648,-880,41,236,91
5825,-720,-1712,-920,58,230,77
5830,-512,-1760,-936,58,236,61
5835,-304,-1864,-976,37,246,53
5840,-80,-1944,-952,2,261,59
5845,112,-2024,-944,-38,273,75
5850,280,-2120,-960,-83,282,102
5855,464,-2168,-912,-127,288,135
5860,544,-2224,-960,-175,298,171
5865,632,-2248,-976,-222,316,217
5870,672,-2288,-984,-257,342,266
5875,632,-2296,-928,-278,374,323
5880,608,-2296,-888,-274,414,386
5885,520,-2304,-848,-240,456,449
5890,408,-2264,-824,-184,495,505
5895,248,-2208,-800,-108,530,555
5900,64,-2104,-752,-23,557,591
5905,-56,-2048,-776,60,580,618
5910,-176,-1960,-768,135,602,634
5915,-312,-1864,-760,185,620,644
5920,-416,-1776,-808,237,635,645
5925,-496,-1688,-768,275,647,638
5930,-560,-1624,-800,302,653,625
5935,-648,-1600,-784,320,654,607
5940,-680,-1568,-784,332,651,592
5945,-704,-1576,-760,337,647,579
5950,-704,-1608,-752,340,642,569
5955,-656,-1640,-712,340,638,563
5960,-600,-1720,-712,338,636,557
5965,-552,-1736,-712,330,639,548
5970,-456,-1800,-728,320,646,539
5975,-360,-1832,-712,305,655,535
5980,-232,-1920,-720,291,666,530
5985,-112,-1968,-728,277,683,531
5990,-80,-1960,-744,257,705,535
5995,0,-2008,-744,235,728,543
6000,0,-2008,-736,212,757,553
6005,64,-2016,-696,193,785,562
6010,48,-2040,-712,185,813,570
6015,48,-2016,-696,191,837,575
6020,16,-2024,-672,215,859,585
6025,-16,-2008,-656,248,886,592
6030,40,-2000,-672,283,916,592
6035,-128,-1976,-648,323,946,585
6040,-144,-1920,-672,359,976,574
6045,-216,-1880,-648,383,1003,558
6050,-264,-1832,-688,395,1032,544
6055,-328,-1744,-672,395,1056,530
6060,-392,-1688,-640,391,1077,518
6065,-432,-1680,-600,382,1092,505
6070,-440,-1664,-608,372,1101,494
6075,-456,-1688,-624,359,1102,479
6080,-496,-1680,-592,341,1095,468
6085,-504,-1704,-608,321,1083,457
6090,-504,-1768,-608,300,1068,446
6095,-512,-1816,-600,284,1050,435
6100,-512,-1840,-568,272,1035,425
6105,-512,-1888,-608,262,1018,416
6110,-504,-1872,-608,256,1002,406
6115,-504,-1912,-560,251,988,398
6120,-496,-1920,-568,243,979,389
6125,-464,-1896,-536,235,969,385
6130,-440,-1880,-544,222,964,379
6135,-392,-1848,-560,212,958,373
6140,-416,-1832,-584,210,953,365
6145,-320,-1832,-544,212,946,353
6150,-312,-1792,-520,221,939,338
6155,-304,-1760,-536,234,931,324
6160,-272,-1768,-520,245,924,309
6165,-272,-1752,-528,255,920,292
6170,-304,-1728,-496,260,919,274
6175,-288,-1736,-536,259,922,257
6180,-288,-1728,-504,252,928,242
6185,-304,-1712,-472,239,933,226
6190,-320,-1712,-456,222,941,215
6195,-344,-1704,-496,201,948,200
6200,-336,-1680,-456,180,955,186
6205,-336,-1728,-432,163,962,172
6210,-352,-1680,-432,148,969,157
6215,-328,-1688,-424,141,974,140
6220,-360,-1672,-408,141,979,121
6225,-328,-1624,-416,145,984,102
6230,-320,-1616,-384,151,986,85
6235,-272,-1600,-352,155,986,66
6240,-288,-1544,-344,156,987,47
6245,-280,-1544,-384,157,989,29
6250,-312,-1536,-344,153,988,13
6255,-304,-1512,-352,147,986,2
6260,-272,-1528,-344,138,985,-9
6265,-312,-1536,-344,129,987,-13
6270,-320,-1576,-328,118,987,-16
6275,-352,-1600,-280,109,991,-15
6280,-344,-1648,-288,102,995,-12
6285,-376,-1720,-224,96,1001,-9
6290,-368,-1736,-248,95,1007,-8
6295,-344,-1800,-216,97,1013,-8
6300,-344,-1848,-248,105,1026,-11
6305,-336,-1880,-208,122,1040,-19
6310,-344,-1912,-200,143,1054,-30
6315,-320,-1936,-208,169,1072,-44
6320,-280,-1928,-184,202,1089,-59
6325,-256,-1968,-160,242,1108,-76
6330,-216,-1984,-112,289,1129,-94
6335,-152,-2000,-112,341,1151,-116
6340,-152,-1944,-80,392,1171,-135
6345,-112,-1912,-96,433,1188,-151
6350,-120,-1840,-104,455,1201,-158
6355,-120,-1696,-120,461,1215,-157
6360,-88,-1664,-96,454,1233,-152
6365,-104,-1576,-112,442,1256,-147
6370,-56,-1488,-80,432,1288,-138
6375,0,-1440,-136,426,1328,-128
6380,8,-1368,-136,422,1371,-114
6385,48,-1312,-128,415,1417,-103
6390,72,-1264,-152,405,1459,-95
6395,96,-1240,-144,396,1502,-83
6400,88,-1240,-160,386,1539,-71
6405,24,-1232,-176,376,1571,-56
6410,0,-1264,-248,354,1599,-31
6415,-48,-1312,-264,312,1620,0
6420,-128,-1368,-304,250,1632,38
6425,-200,-1440,-360,175,1638,78
6430,-304,-1464,-408,100,1645,120
6435,-360,-1520,-464,33,1656,155
6440,-456,-1608,-480,-14,1677,178
6445,-496,-1696,-504,-41,1702,186
6450,-560,-1784,-496,-46,1725,181
6455,-608,-1832,-480,-33,1740,162
6460,-600,-1880,-512,-6,1746,135
6465,-576,-1896,-512,31,1745,99
6470,-552,-1888,-472,59,1742,64
6475,-520,-1840,-464,90,1738,32
6480,-488,-1752,-472,110,1734,11
6485,-432,-1672,-480,118,1728,1
6490,-384,-1592,-400,118,1726,3
6495,-328,-1496,-384,117,1727,20
6500,-296,-1440,-400,112,1733,43
6505,-280,-1360,-408,105,1738,70
6510,-248,-1360,-368,95,1739,101
6515,-272,-1336,-360,85,1734,128
6520,-312,-1344,-328,78,1730,148
6525,-344,-1360,-320,73,1721,174
6530,-408,-1448,-216,82,1717,201
6535,-464,-1512,-240,100,1711,219
6540,-496,-1592,-184,126,1709,235
6545,-536,-1592,-192,165,1703,255
6550,-560,-1624,-168,207,1694,267
6555,-568,-1640,-176,250,1680,270
6560,-552,-1560,-176,293,1655,269
6565,-536,-1472,-184,338,1632,264
6570,-504,-1416,-248,370,1608,259
6575,-512,-1328,-296,386,1579,251
6580,-472,-1224,-328,377,1548,246
6585,-448,-1128,-400,337,1520,244
6590,-408,-1072,-376,282,1506,249
6595,-464,-984,-408,225,1513,261
6600,-464,-952,-344,173,1543,281
6605,-464,-960,-344,131,1595,310
6610,-464,-960,-272,96,1659,344
6615,-488,-960,-248,68,1728,377
6620,-424,-1008,-168,48,1789,408
6625,-432,-1016,-160,36,1835,430
6630,-376,-1016,-200,27,1863,439
6635,-312,-1016,-224,22,1874,438
6640,-264,-1000,-296,13,1874,426
6645,-240,-904,-392,-4,1868,405
6650,-240,-824,-464,-33,1860,376
6655,-208,-752,-536,-78,1860,343
6660,-168,-664,-568,-136,1876,311
6665,-152,-600,-608,-205,1906,282
6670,-152,-520,-592,-282,1948,257
6675,-120,-496,-576,-359,1994,233
6680,-80,-464,-512,-429,2039,205
6685,-80,-440,-512,-489,2078,173
6690,-64,-448,-544,-550,2104,133
6695,-120,-408,-584,-615,2116,87
6700,-248,-376,-632,-691,2121,50
6705,-416,-360,-736,-776,2126,27
6710,-544,-328,-920,-880,2120,12
6715,-664,-336,-1088,-1011,2106,-13
6720,-736,-304,-1224,-1164,2089,-55
6725,-760,-320,-1416,-1334,2067,-111
6730,-744,-320,-1656,-1513,2036,-183
6735,-744,-368,-1856,-1701,1985,-268
6740,-768,-448,-1968,-1880,1910,-356
6745,-672,-536,-2064,-2027,1821,-445
6750,-520,-728,-2080,-2114,1750,-532
6755,-352,-984,-1984,-2140,1728,-618
6760,-160,-1304,-1824,-2104,1760,-704
6765,112,-1608,-1744,-2019,1832,-795
6770,360,-1928,-1656,-1913,1923,-897
6775,568,-2184,-1504,-1806,2017,-999
6780,832,-2448,-1336,-1699,2101,-1080
6785,1032,-2592,-1224,-1598,2175,-1136
6790,1168,-2720,-1064,-1480,2253,-1174
6795,1328,-2768,-944,-1356,2338,-1200
6800,1424,-2816,-896,-1247,2425,-1223
6805,1536,-2792,-888,-1154,2507,-1235
6810,1552,-2664,-856,-1086,2586,-1241
6815,1576,-2432,-912,-1047,2657,-1236
6820,1584,-2128,-904,-1030,2725,-1202
6825,1584,-1936,-912,-1018,2794,-1138
6830,1488,-1648,-936,-963,2885,-1069
6835,1384,-1520,-952,-854,3018,-996
6840,1256,-1488,-1016,-702,3207,-912
6845,1280,-1584,-1048,-553,3417,-832
6850,1336,-1896,-1000,-424,3605,-798
6855,1528,-2464,-1104,-304,3759,-811
6860,1872,-3032,-1352,-195,3859,-877
6865,2288,-3520,-1832,-124,3886,-1053
6870,2792,-3928,-2384,-114,3863,-1373
6875,3200,-4312,-2840,-186,3842,-1788
6880,3504,-4664,-3008,-283,3866,-2181
6885,3704,-5032,-3056,-303,3935,-2475
6890,3880,-5448,-3072,-197,4013,-2624
6895,3976,-5440,-3216,-3,4023,-2683
6900,3624,-5120,-3176,222,3945,-2726
6905,3320,-4840,-3016,501,3779,-2791
6910,3128,-4848,-2816,872,3588,-2822
6915,3112,-5168,-2672,1283,3445,-2768
6920,3072,-5576,-2288,1643,3346,-2661
6925,2992,-5704,-1992,1934,3242,-2565
6930,2920,-5608,-1736,2168,3100,-2488
6935,2656,-5400,-1624,2348,2893,-2459
6940,2368,-5008,-1496,2523,2597,-2558
6945,2072,-4376,-1304,2669,2334,-2684
6950,1688,-3840,-920,2700,2136,-2751
6955,1320,-3272,-544,2613,1939,-2866
6960,888,-2784,-120,2456,1750,-2998
6965,536,-2440,264,2263,1581,-3086
6970,128,-2136,456,2069,1427,-3164
6975,-216,-1896,504,1895,1266,-3233
6980,-504,-1768,608,1728,1094,-3279
6985,-696,-1680,632,1586,922,-3288
6990,-792,-1688,632,1477,777,-3228
6995,-808,-1712,592,1423,618,-3145
7000,-664,-1688,544,1429,438,-3045
7005,-352,-1664,400,1461,258,-2871
7010,64,-1600,304,1473,84,-2630
7015,448,-1480,192,1427,-69,-2364
7020,784,-1336,168,1296,-199,-2095
7025,1048,-1160,216,1095,-294,-1850
7030,1264,-960,256,868,-357,-1650
7035,1472,-832,288,668,-398,-1498
7040,1608,-632,336,539,-411,-1396
7045,1712,-504,352,505,-387,-1339
7050,1720,-392,312,534,-319,-1317
7055,1544,-272,200,624,-222,-1301
7060,1304,-192,80,753,-118,-1274
7065,1080,-200,-16,901,-19,-1237
7070,880,-216,-88,1041,68,-1196
7075,672,-256,-168,1155,137,-1149
7080,496,-296,-288,1224,177,-1094
7085,416,-360,-408,1234,214,-1026
7090,360,-448,-472,1196,238,-951
7095,344,-528,-488,1120,253,-875
7100,392,-616,-472,1025,263,-811
7105,552,-664,-464,925,277,-774
7110,704,-760,-384,829,300,-751
7115,864,-752,-280,755,335,-745
7120,1016,-664,-264,712,379,-741
7125,1176,-528,-224,676,432,-730
7130,1328,-368,-144,634,500,-727
7135,1464,-224,-88,594,576,-725
7140,1632,-128,-32,576,653,-727
7145,1840,-48,24,586,736,-730
7150,2032,-64,64,615,835,-742
7155,2192,-152,96,665,945,-764
7160,2424,-248,184,726,1061,-801
7165,2544,-344,264,794,1190,-857
7170,2704,-440,320,845,1323,-913
7175,2920,-552,416,872,1470,-965
7180,3096,-640,520,897,1645,-1009
7185,3152,-800,544,926,1842,-1027
7190,3128,-856,496,943,2022,-1016
7195,3176,-936,512,922,2174,-981
7200,3200,-936,624,877,2308,-943
7205,3168,-952,624,840,2421,-899
7210,3064,-936,712,834,2498,-851
7215,2920,-896,728,851,2526,-796
7220,2776,-864,800,874,2514,-734
7225,2624,-848,904,894,2481,-684
7230,2368,-808,1056,927,2434,-663
7235,2000,-696,1160,989,2357,-660
7240,1784,-560,1112,1053,2256,-659
7245,1552,-432,1056,1068,2155,-675
7250,1416,-320,1024,1034,2062,-691
7255,1376,-216,968,968,1973,-697
7260,1432,-168,976,865,1895,-683
7265,1560,-104,1000,749,1835,-666
7270,1720,-64,968,637,1770,-666
7275,2072,-24,1024,526,1697,-692
7280,2360,88,1088,441,1640,-774
7285,2504,192,1064,375,1607,-863
7290,2544,232,1096,272,1585,-914
7295,2640,232,1112,141,1578,-936
7300,2624,144,1200,14,1609,-918
7305,2560,32,1304,-93,1619,-893
7310,2344,-88,1272,-116,1543,-964
7315,2536,-112,984,-135,1412,-1129
7320,2304,-256,1040,-62,1432,-1163
7325,2360,-192,1000,41,1385,-1236
7330,2168,-168,880,190,1388,-1299
7335,2152,-280,896,399,1411,-1296
7340,2048,-144,1056,764,1459,-1307
7345,2016,-48,1208,1128,1446,-1261
7350,1832,32,1272,1394,1370,-1208
7355,1680,144,1152,1575,1258,-1208
7360,1720,144,1280,1672,1237,-1175
7365,1712,344,1296,1733,1283,-1145
7370,1888,472,1352,1769,1346,-1083
7375,1888,592,1376,1811,1409,-1001
7380,1912,696,1416,1845,1479,-884
7385,1864,816,1440,1855,1557,-737
7390,1848,928,1528,1830,1634,-576
7395,1856,952,1592,1772,1693,-420
7400,1888,976,1608,1691,1722,-274
7405,1848,952,1648,1589,1726,-131
7410,1912,848,1616,1448,1695,11
7415,1920,720,1728,1301,1650,130
7420,1904,616,1728,1180,1574,222
7425,1832,576,1744,1062,1493,324
7430,1872,584,1784,932,1417,460
7435,1848,440,1744,797,1354,605
7440,1824,416,1704,664,1315,737
7445,1816,440,1568,554,1303,850
7450,1768,432,1408,478,1319,943
7455,1656,416,1208,438,1348,1031
7460,1608,336,1088,425,1389,1106
7465,1488,288,976,435,1428,1167
7470,1416,208,944,466,1445,1212
7475,1336,160,968,512,1452,1238
7480,1264,112,1040,559,1451,1252
7485,1232,128,1024,594,1448,1247
7490,1224,192,1080,600,1450,1232
7495,1104,280,1112,579,1457,1211
7500,1048,400,1120,534,1459,1192
7505,1032,488,1080,480,1459,1177
7510,1008,576,1136,422,1459,1162
7515,1008,648,1216,370,1460,1149
7520,1000,712,1256,326,1458,1138
7525,984,752,1328,292,1446,1134
7530,944,728,1400,266,1424,1141
7535,920,704,1432,235,1388,1151
7540,864,656,1432,194,1353,1155
7545,800,592,1512,148,1321,1151
7550,752,512,1576,106,1290,1141
7555,736,416,1656,88,1266,1123
7560,728,304,1728,97,1232,1094
7565,744,216,1776,132,1188,1056
7570,760,136,1840,176,1143,1009
7575,792,112,1896,213,1102,948
7580,824,72,1864,229,1076,889
7585,864,64,1824,233,1058,821
7590,856,72,1848,242,1028,749
7595,848,64,1816,264,987,666
7600,896,80,1784,321,941,571
7605,904,120,1760,407,887,469
7610,824,104,1712,493,828,383
7615,864,88,1760,545,764,330
7620,1096,72,1840,563,740,267
7625,1192,80,1968,568,752,168
7630,1256,72,2008,556,775,83
7635,1296,72,2016,515,774,19
7640,1320,80,1976,455,736,-25
7645,1352,48,1880,387,676,-48
7650,1280,-40,1856,320,621,-56
7655,1328,-88,1752,258,584,-52
7660,1248,-160,1720,212,576,-34
7665,1200,-256,1776,176,585,4
7670,1152,-344,1752,150,609,52
7675,1160,-400,1784,142,644,97
7680,1072,-440,1808,147,678,128
7685,1048,-480,1800,158,691,156
7690,1056,-496,1776,176,684,176
7695,992,-504,1760,207,658,182
7700,952,-480,1704,236,617,186
7705,912,-512,1648,239,581,186
7710,856,-512,1640,213,563,182
7715,808,-504,1624,170,558,173
7720,760,-472,1592,122,564,158
7725,744,-456,1536,81,565,145
7730,760,-408,1472,54,568,132
7735,792,-424,1472,58,587,126
7740,896,-400,1472,81,605,128
7745,864,-400,1488,110,622,136
7750,880,-384,1488,154,632,150
7755,784,-352,1624,199,633,171
7760,752,-256,1656,242,632,199
7765,704,-208,1696,275,639,223
7770,608,-128,1792,286,656,242
7775,536,-120,1848,277,673,263
7780,504,-120,1896,249,683,278
7785,472,-152,1976,213,679,289
7790,440,-168,2032,181,656,286
7795,384,-224,2008,169,619,272
7800,360,-240,2048,170,565,252
7805,352,-280,2048,188,493,227
7810,376,-336,2000,219,420,200
7815,400,-376,1984,253,350,171
7820,440,-424,1960,285,286,145
7825,512,-448,1912,311,231,126
7830,544,-464,1896,323,181,114
7835,576,-464,1888,324,140,96
7840,664,-472,1864,318,109,79
7845,688,-440,1848,308,93,51
7850,720,-416,1816,292,85,28
7855,744,-392,1808,261,80,6
7860,816,-344,1760,220,80,-15
7865,856,-280,1736,175,87,-34
7870,832,-288,1704,136,96,-49
7875,840,-288,1712,102,103,-59
7880,824,-280,1648,76,112,-65
7885,816,-280,1664,56,122,-70
7890,776,-304,1704,37,133,-71
7895,768,-320,1672,16,149,-71
7900,760,-368,1696,-14,164,-70
7905,712,-392,1680,-43,183,-64
7910,696,-384,1720,-67,198,-57
7915,688,-400,1720,-80,207,-47
7920,672,-408,1696,-85,212,-40
7925,664,-368,1728,-81,213,-32
7930,640,-360,1736,-68,205,-23
7935,664,-328,1720,-54,192,-18
7940,632,-288,1744,-42,176,-14
7945,632,-256,1784,-34,159,-11
7950,640,-200,1776,-31,145,-6
7955,664,-216,1792,-34,134,-2
7960,664,-160,1808,-42,127,-1
7965,632,-160,1824,-53,123,0
7970,672,-160,1832,-60,120,-3
7975,640,-176,1840,-67,116,-8
7980,704,-144,1808,-80,112,-15
7985,688,-136,1816,-90,103,-22
7990,704,-160,1832,-92,94,-29
7995,736,-160,1808,-94,81,-35
8000,720,-160,1800,-95,71,-43
8005,744,-184,1832,-98,61,-45
8010,776,-168,1824,-95,54,-46
8015,752,-168,1800,-93,48,-49
8020,776,-144,1832,-88,42,-50
8025,792,-144,1832,-80,34,-52
8030,816,-120,1800,-67,31,-57
8035,864,-120,1840,-56,31,-61
8040,864,-104,1848,-41,33,-69
8045,888,-80,1792,-26,33,-76
8050,896,-64,1808,-19,34,-84
8055,904,-48,1824,-16,38,-86
8060,888,-48,1832,-20,44,-91
8065,912,-40,1824,-25,44,-89
8070,872,-40,1808,-31,48,-91
8075,912,-64,1784,-31,54,-86
8080,888,-56,1824,-24,61,-82
8085,880,-104,1792,-18,65,-77
8090,920,-40,1816,-12,67,-68
8095,944,-48,1824,-4,71,-62
8100,952,-40,1792,3,78,-55
8105,928,-48,1808,2,84,-45
8110,968,-48,1784,-3,92,-34
8115,920,-40,1728,-24,96,-33
8120,944,-48,1696,-48,106,-32
8125,960,-88,1744,-57,120,-28
8130,984,-112,1776,-50,130,-25
8135,968,-96,1768,-37,134,-22
8140,952,-56,1768,-20,134,-17
8145,992,-80,1736,-3,137,-15
8150,944,-80,1768,8,141,-8
8155,944,-88,1768,17,141,0
8160,944,-96,1760,22,141,9
8165,920,-112,1792,29,141,16
8170,912,-136,1736,37,143,21
8175,880,-144,1800,49,145,27
8180,880,-144,1784,61,151,29
8185,872,-128,1752,72,155,35
8190,856,-120,1760,80,159,40
8195,896,-160,1744,87,162,44
8200,824,-136,1784,88,166,50
8205,816,-136,1824,85,166,56
8210,824,-152,1832,80,161,64
8215,800,-160,1832,75,159,69
8220,776,-168,1832,71,158,72
8225,768,-184,1816,72,159,79
8230,776,-192,1792,73,157,84
8235,736,-200,1800,78,155,89
8240,784,-200,1808,85,155,89
8245,792,-192,1760,89,156,89
8250,768,-168,1800,90,158,86
8255,776,-192,1792,86,161,83
8260,776,-152,1784,81,166,84
8265,744,-160,1808,74,172,83
8270,752,-168,1784,69,178,82
8275,760,-168,1792,64,181,80
8280,744,-208,1800,62,181,75
8285,720,-208,1808,63,180,75
8290,728,-200,1784,69,177,76
8295,712,-200,1808,74,172,73
8300,664,-224,1816,78,167,68
8305,720,-216,1808,78,162,60
8310,728,-200,1816,75,157,56
8315,712,-216,1800,70,153,53
8320,744,-232,1808,64,148,50
8325,728,-216,1832,60,145,46
8330,720,-232,1824,57,142,47
8335,736,-216,1824,57,141,49
8340,720,-232,1824,59,141,49
8345,720,-240,1824,59,138,48
8350,736,-232,1840,57,137,46
8355,712,-224,1816,53,133,45
8360,720,-208,1832,50,128,41
8365,712,-224,1832,45,119,37
8370,712,-216,1824,43,114,34
8375,752,-216,1824,41,110,31
8380,720,-200,1792,42,107,24
8385,728,-192,1800,37,101,20
8390,752,-168,1784,29,93,15
8395,736,-200,1792,20,86,6
8400,744,-168,1800,12,78,2
8405,744,-176,1792,9,76,2
8410,744,-200,1776,11,74,2
8415,768,-144,1808,9,75,1
8420,744,-144,1792,4,70,-4
8425,776,-128,1800,-4,68,-6
8430,768,-128,1808,-11,64,-8
8435,768,-128,1824,-16,67,-9
8440,768,-112,1792,-21,72,-8
8445,776,-136,1792,-28,74,-8
8450,760,-104,1784,-38,76,-10
8455,776,-104,1832,-45,76,-10
8460,784,-112,1808,-47,81,-7
8465,784,-120,1808,-45,89,-6
8470,784,-112,1784,-44,93,-7
8475,792,-104,1792,-46,94,-6
8480,800,-96,1816,-46,92,-10
8485,816,-104,1824,-49,92,-12
8490,792,-128,1816,-49,90,-17
8495,784,-88,1816,-53,88,-20
8500,776,-104,1824,-57,87,-22
8505,784,-104,1816,-58,86,-23
8510,760,-104,1816,-58,88,-23
8515,800,-112,1800,-58,90,-24
8520,816,-56,1800,-58,91,-24
8525,784,-152,1808,-56,93,-26
8530,760,-136,1840,-53,95,-27
8535,752,-136,1832,-51,99,-28
8540,768,-136,1824,-49,100,-29
8545,752,-152,1824,-45,105,-30
8550,760,-160,1800,-41,106,-34
8555,752,-152,1832,-37,106,-34
8560,768,-168,1800,-32,104,-35
8565,760,-160,1816,-26,100,-37
8570,736,-160,1792,-23,97,-38
8575,760,-168,1816,-19,97,-38
8580,728,-176,1816,-15,97,-36
8585,760,-200,1856,-11,99,-36
8590,736,-192,1832,-11,98,-33
8595,728,-168,1848,-8,97,-30
8600,760,-208,1832,-8,94,-28
8605,752,-208,1824,-6,94,-26
8610,760,-200,1840,0,92,-23
8615,752,-208,1824,5,92,-19
8620,728,-192,1848,10,89,-14
8625,728,-216,1824,15,86,-11
8630,728,-120,1792,20,84,-5
8635,720,-192,1792,24,82,-3
8640,752,-176,1824,27,80,2
8645,744,-176,1832,29,79,4
8650,752,-168,1816,31,78,7
8655,712,-128,1800,30,79,10
8660,760,-160,1832,29,79,13
8665,736,-152,1832,27,80,16
8670,728,-160,1808,25,79,18
8675,736,-128,1808,24,80,20
8680,760,-120,1792,20,84,23
8685,760,-128,1792,21,86,25
8690,744,-120,1776,21,90,26
8695,760,-128,1784,18,93,28
8700,752,-128,1808,17,95,29
8705,760,-128,1792,15,98,30
8710,784,-136,1792,14,100,28
8715,752,-136,1792,13,103,27
8720,760,-120,1816,11,105,28
8725,760,-136,1832,9,106,27
8730,768,-144,1816,7,108,26
8735,784,-152,1800,6,109,23
8740,816,-120,1832,4,113,21
8745,784,-144,1824,5,118,20
8750,784,-152,1832,6,122,20
8755,776,-152,1776,8,125,20
8760,776,-152,1848,8,125,16
8765,792,-128,1824,7,125,12
8770,792,-160,1816,8,122,10
8775,792,-144,1824,10,120,8
8780,792,-168,1808,12,117,5
8785,768,-136,1840,13,113,4
8790,792,-152,1800,10,109,1
8795,768,-120,1832,9,105,-2
8800,736,-144,1824,3,103,-3
8805,752,-128,1824,-1,101,-6
8810,760,-136,1824,-4,100,-6
8815,736,-120,1824,-8,98,-5
8820,736,-152,1816,-9,98,-5
8825,736,-136,1808,-9,98,-7
8830,760,-144,1864,-9,98,-7
8835,760,-144,1808,-7,99,-9
8840,744,-144,1816,-5,100,-11
8845,720,-80,1824,-5,102,-12
8850,736,-128,1824,-4,102,-12
8855,712,-136,1824,-3,103,-14
8860,736,-128,1816,-1,103,-12
8865,720,-144,1816,0,100,-13
8870,704,-120,1800,1,99,-13
8875,704,-144,1808,0,95,-15
8880,664,-152,1808,-1,91,-17
8885,696,-144,1832,-1,89,-17
8890,704,-144,1816,-1,90,-15
8895,672,-144,1832,-1,91,-13
8900,696,-152,1848,-4,90,-14
8905,712,-160,1840,-9,89,-12
8910,712,-160,1832,-11,89,-12
8915,696,-168,1856,-11,89,-12
8920,696,-152,1824,-10,89,-15
8925,728,-136,1848,-12,89,-16
8930,720,-136,1816,-14,87,-17
8935,680,-88,1808,-17,85,-20
8940,728,-144,1808,-20,86,-21
8945,720,-128,1832,-22,88,-22
8950,720,-128,1816,-24,91,-21
8955,672,-160,1768,-24,92,-21
8960,720,-136,1800,-24,95,-22
8965,720,-160,1824,-24,95,-20
8970,736,-144,1856,-23,94,-19
8975,696,-136,1840,-23,92,-17
8980,744,-160,1824,-22,89,-14
8985,752,-136,1840,-21,86,-14
8990,744,-128,1848,-23,85,-11
8995,752,-160,1848,-25,83,-11
9000,752,-152,1808,-29,81,-10
9005,728,-128,1848,-31,79,-10
9010,736,-128,1848,-33,79,-9
9015,720,-128,1856,-32,77,-9
9020,744,-136,1832,-30,77,-7
9025,760,-152,1840,-28,76,-7
9030,752,-128,1824,-27,77,-7
9035,736,-128,1808,-26,79,-6
9040,704,-104,1784,-24,77,-6
9045,728,-144,1848,-24,78,-6
9050,728,-136,1832,-23,76,-6
9055,736,-136,1848,-25,75,-5
9060,728,-152,1808,-25,73,-5
9065,696,-128,1840,-23,73,-6
9070,720,-136,1816,-23,73,-4
9075,752,-152,1824,-23,71,-2
9080,712,-152,1832,-23,70,-2
9085,720,-136,1824,-22,69,-1
9090,752,-160,1824,-22,67,-1
9095,736,-144,1792,-21,66,-3
9100,736,-152,1856,-22,65,-2
9105,712,-144,1832,-21,64,-2
9110,728,-136,1840,-21,63,-1
9115,736,-144,1808,-21,62,-2
9120,728,-128,1832,-23,63,-1
9125,736,-136,1840,-26,63,-1
9130,712,-128,1824,-27,64,-1
9135,728,-144,1808,-27,65,0
9140,728,-160,1792,-27,67,1
9145,712,-128,1840,-28,67,0
9150,720,-120,1824,-27,67,1
9155,728,-128,1832,-26,67,3
9160,728,-112,1808,-24,68,0
9165,744,-160,1808,-22,67,1
9170,728,-136,1832,-20,66,0
9175,744,-176,1840,-20,66,0
9180,728,-144,1816,-20,64,1
9185,720,-168,1848,-21,62,-1
9190,728,-144,1832,-23,61,-1
9195,728,-136,1824,-23,60,-3
9200,704,-128,1840,-23,60,-4
9205,712,-144,1808,-23,62,-5
9210,720,-120,1848,-27,65,-9
9215,736,-176,1824,-31,67,-9
9220,728,-176,1808,-31,71,-11
9225,720,-128,1824,-31,73,-10
9230,712,-136,1808,-33,73,-10
9235,728,-144,1808,-35,74,-9
9240,728,-112,1800,-37,75,-9
9245,736,-144,1840,-39,76,-7
9250,736,-144,1832,-39,75,-5
9255,728,-168,1808,-38,75,-5
9260,728,-128,1832,-39,72,-2
9265,728,-160,1848,-37,71,-1
9270,736,-168,1832,-35,71,1
9275,736,-136,1840,-37,69,1
9280,784,-144,1792,-39,68,1
9285,712,-152,1848,-41,66,0
9290,720,-160,1816,-42,66,0
9295,712,-160,1848,-43,63,-2
9300,728,-152,1848,-43,60,-4
9305,720,-144,1832,-44,57,-5
9310,720,-160,1856,-42,54,-7
9315,728,-168,1840,-40,52,-10
9320,720,-136,1824,-38,49,-10
9325,728,-160,1856,-36,48,-10
9330,720,-152,1824,-32,46,-10
9335,688,-176,1856,-29,45,-12
9340,736,-160,1840,-27,45,-11
9345,736,-176,1824,-27,46,-11
9350,712,-120,1808,-27,46,-10
9355,712,-152,1856,-28,48,-8
9360,712,-176,1832,-30,52,-8
9365,720,-112,1832,-30,53,-5
9370,720,-152,1840,-31,54,-5
9375,736,-128,1816,-30,55,-6
9380,744,-136,1840,-32,58,-4
9385,744,-144,1816,-34,58,-4
9390,752,-184,1832,-37,56,-5
9395,744,-168,1832,-39,56,-4
9400,768,-176,1744,-41,56,-4
9405,776,-96,1824,-43,53,-4
9410,736,-128,1784,-44,54,-4
9415,720,-120,1768,-44,51,-6
9420,752,-208,1832,-44,50,-5
9425,696,-176,1864,-43,51,-5
9430,704,-208,1856,-41,50,-5
9435,752,-168,1832,-39,48,-5
9440,696,-168,1840,-38,47,-4
9445,752,-152,1832,-39,46,-6
9450,720,-152,1808,-41,47,-7
9455,712,-136,1808,-43,48,-6
9460,704,-152,1824,-46,48,-7
9465,712,-192,1880,-47,49,-8
9470,672,-144,1832,-48,50,-8
9475,776,-232,1840,-46,53,-7
9480,864,-160,1808,-43,54,-6
9485,680,-96,1832,-40,54,-6
9490,792,-168,1784,-36,53,-6
9495,760,-192,1920,-33,51,-7
9500,848,-208,1664,-31,49,-9
9505,808,-184,1824,-31,45,-10
9510,840,-152,1776,-30,43,-11
9515,744,-160,1792,-30,42,-11
9520,728,-168,1816,-31,42,-11
9525,720,-184,1808,-31,42,-12
9530,744,-168,1808,-30,41,-10
9535,736,-176,1792,-29,42,-9
9540,744,-176,1784,-28,43,-10
9545,752,-176,1808,-27,43,-9
9550,776,-128,1840,-27,44,-10
9555,776,-120,1760,-24,47,-9
9560,808,-88,1848,-24,50,-9
9565,776,-128,1800,-21,51,-9
9570,744,-232,1856,-20,55,-11
9575,760,-96,1752,-19,55,-10
9580,720,-208,1880,-19,57,-10
9585,744,-216,1832,-17,57,-11
9590,736,-136,1768,-14,56,-11
9595,728,-152,1808,-12,56,-12
9600,744,-168,1792,-10,53,-12
9605,728,-176,1792,-8,53,-13
9610,744,-184,1792,-9,54,-12
9615,712,-136,1792,-13,53,-12
9620,648,-168,1880,-21,54,-11
9625,744,-160,1840,-28,57,-8
9630,824,-144,1848,-33,56,-9
9635,704,-200,1736,-36,59,-9
9640,728,-136,1752,-36,59,-9
9645,664,-280,1824,-34,59,-10
9650,736,-144,1712,-32,58,-10
9655,688,-112,1784,-29,58,-11
9660,744,-176,1688,-26,59,-11
9665,824,-112,1848,-24,61,-11
9670,696,-176,1848,-22,63,-10
9675,760,-168,1800,-23,63,-10
9680,760,-160,1800,-23,65,-9
9685,760,-160,1824,-23,67,-8
9690,744,-168,1840,-23,66,-8
9695,800,-160,1728,-23,66,-9
9700,744,-176,1808,-22,64,-8
9705,720,-152,1880,-20,62,-8
9710,744,-136,1736,-20,60,-7
9715,720,-184,1848,-19,59,-7
9720,776,-208,1752,-18,59,-7
9725,792,-216,1744,-18,59,-5
9730,688,-152,1888,-21,58,-5
9735,720,-128,1840,-24,60,-4
9740,760,-160,1808,-26,59,-5
9745,864,-256,1784,-29,60,-5
9750,736,-152,1824,-31,60,-5
9755,760,-160,1832,-33,61,-5
9760,752,-184,1824,-32,60,-5
9765,752,-152,1824,-31,60,-4
9770,792,-152,1760,-30,59,-5
9775,792,-72,1872,-31,59,-5
9780,808,-224,1840,-31,57,-5
9785,768,-168,1648,-30,56,-5
9790,688,-192,1720,-28,56,-5
9795,696,-168,1832,-28,56,-6
9800,720,-192,1808,-29,56,-7
9805,808,-208,1888,-28,57,-8
9810,784,-192,1736,-27,57,-7
9815,752,-136,1752,-26,56,-6
9820,672,-200,1784,-27,55,-7
9825,744,-168,1816,-28,56,-8
9830,736,-192,1784,-29,56,-9
9835,720,-168,1808,-30,56,-10
9840,728,-160,1744,-32,58,-10
9845,744,-184,1856,-34,62,-11
9850,768,-160,1808,-34,62,-8
9855,792,-160,1904,-35,63,-8
9860,760,-208,1752,-35,64,-8
9865,752,-176,1792,-31,64,-8
9870,752,-192,1824,-30,63,-9
9875,760,-192,1800,-28,60,-9
9880,760,-184,1808,-24,59,-9
9885,736,-208,1848,-24,58,-8
9890,752,-192,1824,-21,57,-9
9895,736,-168,1800,-21,56,-9
9900,752,-184,1808,-21,55,-10
9905,752,-160,1816,-21,54,-11
9910,760,-112,1824,-24,56,-11
9915,760,-176,1824,-25,56,-11
9920,760,-168,1832,-28,57,-12
9925,728,-176,1832,-33,59,-11
9930,744,-160,1832,-38,60,-13
9935,776,-152,1840,-40,61,-13
9940,752,-184,1808,-42,61,-15
9945,744,-176,1800,-43,62,-15
9950,752,-176,1824,-45,63,-12
9955,736,-168,1808,-46,62,-11
9960,784,-192,1792,-46,60,-10
9965,776,-168,1840,-47,58,-9
9970,768,-160,1824,-46,56,-10
9975,768,-192,1832,-44,55,-8
9980,768,-160,1816,-41,55,-8
9985,776,-176,1832,-38,55,-8
9990,752,-168,1808,-35,55,-9
9995,768,-184,1800,-33,54,-12
10000,752,-160,1816,-31,56,-12
10005,776,-184,1808,-29,57,-12
10010,776,-192,1816,-28,61,-12
10015,744,-160,1824,-28,62,-13
10020,744,-152,1792,-27,64,-12
10025,760,-208,1840,-25,66,-11
10030,744,-200,1840,-25,68,-9
10035,760,-152,1832,-24,67,-9
10040,768,-160,1768,-22,67,-8
10045,784,-152,1768,-20,65,-8
10050,760,-168,1800,-20,66,-7
10055,744,-176,1816,-18,65,-8
10060,752,-176,1800,-18,64,-7
10065,752,-184,1808,-17,66,-8
10070,760,-168,1784,-17,66,-7
10075,760,-184,1800,-17,66,-6
10080,752,-176,1792,-17,67,-6
10085,728,-160,1792,-18,69,-6
10090,760,-184,1776,-17,69,-7
10095,744,-160,1776,-16,69,-6
10100,720,-152,1808,-16,71,-7
10105,768,-184,1784,-16,72,-8
10110,736,-168,1784,-15,73,-6
10115,744,-184,1816,-14,74,-5
10120,760,-184,1808,-15,74,-4
10125,760,-136,1800,-14,75,-5
10130,736,-200,1792,-16,75,-3
10135,752,-176,1776,-15,74,-3
10140,736,-168,1808,-16,76,-3
10145,736,-184,1816,-15,76,-1
10150,744,-208,1808,-17,79,0
10155,760,-152,1848,-15,80,-1
10160,728,-184,1792,-15,80,0
10165,744,-184,1800,-12,79,0
10170,720,-184,1816,-9,80,1
10175,752,-184,1800,-7,79,0
10180,760,-184,1808,-6,76,0
10185,760,-192,1776,-5,76,0
10190,760,-176,1800,-5,76,-1
10195,744,-168,1784,-6,76,-1
10200,744,-192,1824,-6,75,0
10205,728,-168,1816,-6,76,-1
10210,736,-184,1816,-8,75,0
10215,736,-160,1808,-9,78,0
10220,744,-192,1776,-8,78,0
10225,768,-184,1808,-6,77,2
10230,760,-176,1808,-2,77,2
10235,768,-184,1808,3,77,1
10240,760,-160,1800,6,76,0
10245,744,-176,1816,9,75,-1
10250,752,-192,1784,11,76,-1
10255,736,-168,1800,10,79,-2
10260,736,-152,1816,8,80,-4
10265,792,-200,1864,8,82,-6
10270,720,-168,1824,9,85,-7
10275,728,-176,1792,8,87,-7
10280,728,-168,1816,8,88,-8
10285,728,-168,1808,8,89,-6
10290,728,-168,1808,8,92,-7
10295,696,-184,1816,4,92,-7
10300,752,-200,1808,-2,92,-7
10305,784,-192,1824,-9,92,-6
10310,720,-176,1848,-16,91,-4
10315,752,-208,1824,-21,89,-4
10320,728,-168,1824,-20,89,-5
10325,768,-200,1808,-16,88,-6
10330,760,-176,1784,-11,87,-8
10335,752,-176,1808,-5,87,-11
10340,768,-176,1808,2,86,-12
10345,760,-176,1808,6,87,-13
10350,712,-168,1824,10,87,-12
10355,736,-176,1784,13,89,-10
10360,768,-152,1816,16,91,-11
10365,736,-152,1768,19,92,-10
10370,744,-216,1832,21,95,-9
10375,752,-136,1800,21,94,-11
10380,752,-160,1824,22,95,-12
10385,728,-144,1800,20,96,-9
10390,728,-112,1776,20,96,-12
10395,744,-160,1808,19,95,-13
10400,736,-144,1840,15,96,-10
10405,744,-168,1792,11,97,-9
10410,728,-160,1840,5,98,-8
10415,736,-144,1808,0,97,-5
10420,736,-168,1824,-6,97,-4
10425,736,-168,1808,-10,98,-4
10430,736,-152,1848,-12,97,-3
10435,728,-200,1816,-12,94,-2
10440,712,-160,1832,-13,95,-2
10445,736,-184,1848,-12,93,-1
10450,728,-144,1816,-11,93,-1
10455,736,-176,1824,-8,91,-1
10460,728,-176,1824,-7,89,-1
10465,728,-160,1792,-6,88,-3
10470,720,-192,1832,-4,86,-2
10475,752,-176,1816,-3,86,-2
10480,672,-192,1824,-3,85,-3
10485,760,-208,1792,-1,83,-1
10490,720,-168,1824,0,82,-2
10495,720,-176,1816,3,83,-2
10500,728,-160,1792,4,82,-1
10505,720,-184,1824,4,81,-3
10510,736,-168,1800,5,83,-4
10515,720,-160,1816,4,83,-5
10520,736,-152,1824,2,83,-6
10525,736,-144,1840,1,86,-6
10530,720,-152,1824,0,88,-6
10535,744,-152,1816,-1,90,-6
10540,752,-168,1824,-3,91,-5
10545,728,-152,1816,-3,92,-4
10550,736,-176,1800,-2,91,-2
10555,752,-168,1816,-3,88,-1
10560,736,-152,1832,-2,89,0
10565,752,-176,1816,0,88,0
10570,728,-168,1816,1,87,1
10575,736,-184,1816,3,86,2
10580,752,-168,1816,3,83,2
10585,712,-136,1824,4,82,3
10590,728,-184,1872,3,80,3
10595,744,-152,1816,2,77,2
10600,728,-176,1800,1,77,4
10605,744,-152,1808,-2,78,3
10610,704,-152,1808,-4,79,0
10615,712,-144,1856,-6,81,1
10620,712,-152,1800,-7,82,-2
10625,728,-160,1824,-8,86,-1
10630,720,-160,1832,-6,86,-2
10635,728,-168,1808,-8,87,-1
10640,720,-152,1824,-7,87,-2
10645,728,-160,1832,-7,87,-3
10650,712,-168,1808,-7,87,-1
10655,736,-160,1816,-5,87,0
10660,736,-176,1808,-3,86,1
10665,728,-176,1824,-3,84,0
10670,720,-176,1792,-2,84,1
10675,744,-176,1800,-2,84,1
10680,744,-160,1776,0,82,-1
10685,728,-152,1808,1,83,-1
10690,704,-144,1840,1,83,-2
10695,736,-176,1856,1,85,-1
10700,728,-96,1816,1,86,-1
10705,728,-176,1824,1,86,0
10710,728,-152,1816,-1,88,0
10715,744,-160,1832,0,88,1
10720,688,-144,1800,2,88,0
10725,728,-184,1808,3,87,1
10730,720,-160,1824,4,84,-1
10735,720,-152,1824,5,83,-1
10740,704,-128,1816,5,82,-1
10745,696,-144,1808,4,82,-2
10750,728,-144,1784,5,81,-4
10755,720,-176,1824,7,80,-7
10760,720,-144,1824,8,83,-8
10765,736,-160,1840,9,84,-8
10770,728,-168,1832,8,85,-10
10775,736,-144,1808,8,86,-10
10780,728,-152,1824,7,86,-8
10785,712,-160,1840,3,88,-6
10790,736,-184,1816,0,89,-4
10795,728,-144,1800,-3,89,-1
10800,728,-168,1816,-2,87,-1
10805,720,-144,1832,0,86,2
10810,680,-104,1808,-1,86,2
10815,704,-128,1832,0,85,3
10820,728,-160,1816,-2,84,2
10825,712,-152,1800,-1,82,3
10830,744,-152,1816,-2,81,3
10835,736,-168,1832,0,80,2
10840,696,-152,1856,0,79,1
10845,720,-152,1832,1,78,2
10850,720,-152,1832,-1,77,4
10855,736,-152,1824,-1,77,4
10860,720,-144,1856,-1,76,3
10865,704,-176,1824,-2,75,1
10870,704,-152,1832,-1,76,3
10875,712,-160,1848,0,76,4
10880,720,-160,1832,-2,76,1
10885,712,-160,1824,-5,77,1
10890,704,-144,1832,-7,78,0
10895,720,-136,1832,-9,80,0
10900,704,-160,1824,-11,81,0
10905,728,-152,1824,-11,81,0
10910,704,-144,1824,-12,82,1
10915,704,-176,1856,-10,81,1
10920,728,-160,1832,-8,82,2
10925,728,-192,1840,-8,80,1
10930,728,-168,1848,-6,78,1
10935,736,-176,1824,-2,75,1
10940,704,-168,1816,0,74,0
10945,712,-176,1808,1,71,1
10950,728,-160,1832,2,70,0
10955,720,-144,1832,1,70,-2
10960,712,-144,1816,-1,70,-3
10965,704,-136,1848,-5,72,-2
10970,720,-128,1816,-6,73,-3
10975,728,-144,1832,-7,74,-3
10980,704,-136,1840,-7,74,-4
10985,720,-144,1832,-6,73,-3
10990,712,-144,1824,-6,72,-3
10995,728,-144,1840,-6,73,-3
11000,736,-144,1824,-6,73,-4
11005,728,-128,1840,-8,75,-5
11010,712,-128,1808,-10,76,-6
11015,688,-112,1848,-9,79,-7
11020,712,-128,1824,-9,80,-5
11025,728,-72,1840,-6,81,-4
11030,728,-168,1808,-2,80,-5
11035,720,-168,1824,4,78,-4
11040,696,-152,1840,12,79,-5
11045,720,-160,1856,16,77,-5
11050,720,-168,1800,21,76,-4
11055,712,-184,1816,23,73,-4
11060,696,-152,1840,20,73,-5
11065,696,-184,1816,14,72,-4
11070,712,-152,1856,10,73,-5
11075,688,-176,1840,8,73,-6
11080,688,-144,1824,9,75,-6
11085,704,-152,1848,6,77,-8
11090,720,-136,1824,8,79,-8
11095,728,-120,1808,9,80,-9
11100,728,-144,1808,11,83,-9
11105,720,-136,1816,12,88,-10
11110,704,-128,1800,13,90,-8
11115,736,-144,1800,13,93,-5
11120,720,-144,1792,10,97,-6
11125,728,-160,1840,10,99,-7
11130,712,-120,1824,7,99,-6
11135,776,-152,1832,6,100,-6
11140,728,-136,1832,6,99,-6
11145,712,-120,1800,6,98,-4
11150,720,-144,1808,8,95,-3
11155,728,-144,1848,9,92,-3
11160,736,-144,1800,9,89,-2
11165,712,-128,1824,8,85,0
11170,728,-120,1872,6,84,2
11175,744,-152,1832,6,81,1
11180,712,-144,1832,4,79,3
11185,728,-120,1840,3,78,3
11190,744,-168,1800,2,77,3
11195,728,-136,1800,1,78,5
11200,728,-144,1816,0,78,3
11205,688,-136,1864,-1,79,4
11210,720,-120,1840,1,78,4
11215,720,-120,1840,2,81,2
11220,704,-144,1816,-3,85,-1
11225,720,-144,1864,-6,84,2
11230,696,-152,1848,-6,81,5
11235,696,-136,1840,-2,79,6
11240,704,-160,1824,2,77,5
11245,720,-128,1848,5,77,4
11250,712,-160,1816,8,78,2
11255,720,-128,1824,8,79,3
11260,728,-160,1840,8,80,3
11265,696,-152,1808,6,80,3
11270,712,-144,1800,4,80,3
11275,696,-120,1792,2,81,2
11280,712,-160,1848,0,81,1
11285,736,-144,1824,0,83,1
11290,728,-136,1840,-1,82,1
11295,696,-112,1808,-1,82,2
11300,704,-144,1808,-1,82,1
11305,712,-136,1816,-3,83,1
11310,720,-152,1840,-5,84,0
11315,720,-128,1792,-5,85,1
11320,720,-152,1792,-9,85,1
11325,704,-112,1832,-8,84,2
11330,704,-136,1848,-4,84,1
11335,688,-144,1816,-2,84,1
11340,712,-160,1792,2,83,1
11345,704,-128,1840,4,80,0
11350,576,-240,1792,5,77,-1
11355,712,-136,1808,4,75,-1
11360,704,-128,1832,3,75,0
11365,728,-128,1816,2,74,0
11370,704,-144,1808,0,73,-2
11375,712,-136,1840,0,73,-4
11380,720,-152,1824,-2,74,-5
11385,688,-144,1808,-3,76,-5
11390,704,-144,1832,-3,79,-5
11395,696,-128,1832,-4,82,-4
11400,712,-128,1856,-6,85,-4
11405,704,-120,1848,-9,87,-4
11410,720,-160,1832,-11,87,-2
11415,712,-152,1848,-15,86,-3
11420,712,-136,1832,-19,84,-2
11425,728,-144,1832,-20,82,-2
11430,696,-128,1848,-18,80,-2
11435,712,-168,1808,-16,79,-2
11440,720,-152,1848,-15,78,-1
11445,728,-152,1840,-12,74,-2
11450,680,-144,1816,-10,75,-2
11455,712,-120,1824,-10,77,-2
11460,768,-88,1768,-8,79,-1
11465,728,-152,1824,-8,80,0
11470,720,-120,1840,-6,80,0
11475,696,-128,1808,-6,80,-1
11480,704,-120,1832,-5,80,1
11485,688,-136,1840,-4,80,1
11490,728,-144,1840,-3,79,3
11495,688,-120,1832,-2,79,1
11500,696,-136,1816,-1,81,2
11505,728,-152,1824,1,81,1
11510,728,-152,1848,1,79,1
11515,712,-128,1816,1,79,1
11520,720,-152,1840,0,78,2
11525,728,-152,1856,-1,77,1
11530,720,-120,1840,-3,77,1
11535,704,-136,1824,-5,77,1
11540,720,-136,1824,-5,77,1
11545,688,-144,1848,-7,77,2
11550,728,-128,1824,-8,78,2
11555,712,-136,1824,-6,79,3
11560,704,-152,1840,-8,79,1
11565,704,-120,1824,-8,81,0
11570,704,-112,1816,-7,80,1
11575,688,-128,1832,-6,80,2
11580,688,-128,1840,-7,78,3
11585,704,-128,1832,-8,78,1
11590,704,-136,1816,-9,77,1
11595,720,-136,1808,-8,78,2
11600,680,-120,1832,-7,77,2
11605,696,-144,1816,-5,76,3
11610,696,-144,1824,-8,74,4
11615,688,-128,1840,-7,73,3
11620,712,-144,1832,-9,72,5
11625,712,-160,1824,-10,71,3
11630,696,-144,1840,-10,70,3
11635,720,-152,1832,-10,70,3
11640,696,-144,1840,-11,72,1
11645,720,-128,1848,-12,72,2
11650,720,-136,1824,-12,74,1
11655,712,-136,1808,-12,73,1
11660,720,-144,1840,-13,72,-1
11665,712,-152,1840,-14,72,0
11670,712,-128,1864,-15,70,0
11675,688,-112,1840,-15,70,-1
11680,712,-120,1832,-15,70,0
11685,688,-128,1816,-15,70,0
11690,704,-128,1848,-15,70,-2
11695,720,-144,1848,-15,68,-2
11700,720,-128,1832,-13,68,-2
11705,712,-152,1848,-11,67,-1
11710,680,-120,1832,-11,68,-2
11715,696,-128,1824,-11,66,-1
11720,720,-136,1856,-11,66,-3
11725,712,-128,1864,-11,66,-3
11730,696,-128,1832,-11,68,-2
11735,688,-128,1856,-9,68,-3
11740,704,-128,1856,-8,67,-3
11745,712,-128,1832,-10,68,-3
11750,704,-96,1856,-12,66,-2
11755,688,-112,1872,-14,69,-3
11760,696,-128,1856,-15,68,-4
11765,712,-152,1848,-17,68,-5
11770,720,-136,1840,-17,67,-4
11775,720,-144,1832,-16,68,-3
11780,696,-136,1832,-17,68,-3
11785,704,-144,1848,-15,68,-5
11790,712,-144,1768,-13,67,-6
11795,680,-128,1848,-12,67,-5
11800,696,-128,1824,-10,66,-6
11805,704,-120,1816,-8,64,-5
11810,704,-152,1840,-7,64,-7
11815,720,-136,1832,-8,64,-7
11820,688,-136,1848,-8,64,-7
11825,680,-112,1832,-10,65,-6
11830,704,-120,1856,-13,68,-7
11835,704,-104,1808,-16,69,-7
11840,704,-136,1816,-17,71,-6
11845,736,-128,1832,-18,72,-7
11850,704,-152,1816,-18,73,-5
11855,712,-112,1808,-17,73,-1
11860,712,-128,1824,-17,71,-3
11865,712,-128,1824,-18,71,-2
11870,720,-128,1792,-18,72,-2
11875,728,-128,1840,-21,71,-1
11880,688,-120,1840,-22,73,-2
11885,704,-144,1824,-24,73,-4
11890,696,-128,1848,-23,74,-3
11895,768,-112,1952,-20,73,-3
11900,696,-136,1864,-14,71,-1
11905,688,-152,1816,-8,69,-2
11910,680,-128,1824,0,68,-3
11915,680,-152,1808,5,65,-4
11920,704,-136,1848,6,62,-4
11925,688,-120,1848,4,62,-4
11930,680,-136,1848,-2,62,-6
11935,688,-128,1840,-11,62,-7
11940,712,-152,1832,-17,63,-7
11945,696,-104,1832,-20,65,-9
11950,688,-128,1848,-21,66,-10
11955,704,-152,1840,-23,67,-10
11960,720,-152,1800,-21,69,-10
11965,704,-136,1816,-20,70,-10
11970,720,-136,1848,-20,73,-11
11975,720,-128,1816,-23,75,-10
11980,704,-144,1824,-24,78,-9
11985,744,-136,1824,-25,80,-7
11990,704,-128,1840,-24,81,-7
11995,704,-128,1848,-23,81,-5
12000,720,-128,1840,-20,78,-5
12005,760,-112,1832,-19,76,-6
12010,696,-128,1824,-19,72,-6
12015,712,-120,1872,-21,70,-3
12020,704,-120,1840,-24,67,-5
12025,728,-120,1824,-28,65,-3
12030,688,-120,1840,-30,63,-3
12035,712,-136,1848,-34,62,0
12040,728,-144,1840,-36,60,0
12045,704,-144,1840,-39,59,1
12050,712,-128,1856,-42,59,1
12055,712,-120,1864,-44,61,1
12060,688,-120,1832,-45,62,0
12065,712,-136,1864,-45,63,1
12070,712,-136,1832,-45,62,1
12075,672,-128,1832,-44,62,1
12080,704,-136,1840,-45,61,0
12085,688,-136,1816,-44,60,-1
12090,704,-112,1848,-44,59,2
12095,680,-152,1832,-44,59,0
12100,696,-136,1800,-45,58,0
12105,696,-152,1800,-44,56,1
12110,712,-160,1824,-45,55,-1
12115,704,-72,1872,-48,54,1
12120,696,-144,1856,-50,53,0
12125,696,-136,1824,-52,52,-1
12130,688,-136,1832,-54,50,0
12135,696,-160,1856,-57,50,-4
12140,704,-136,1848,-60,50,-5
12145,688,-144,1840,-57,52,-5
12150,704,-160,1856,-55,52,-4
12155,728,-152,1848,-53,52,-5
12160,672,-144,1864,-52,49,-7
12165,704,-136,1848,-52,49,-8
12170,712,-136,1816,-56,47,-9
12175,696,-144,1832,-58,47,-9
12180,704,-144,1848,-59,48,-8
12185,704,-160,1824,-61,50,-7
12190,712,-144,1816,-59,53,-7
12195,696,-128,1824,-54,53,-6
12200,712,-160,1816,-50,54,-7
12205,696,-160,1800,-46,52,-6
12210,712,-168,1784,-43,53,-6
12215,720,-160,1848,-39,51,-5
12220,696,-152,1840,-40,50,-6
12225,776,-168,1856,-41,50,-5
12230,704,-160,1832,-43,49,-6
12235,712,-168,1840,-44,49,-7
12240,696,-136,1832,-46,46,-9
12245,704,-152,1824,-46,46,-11
12250,696,-144,1800,-49,47,-11
12255,728,-168,1848,-51,49,-13
12260,712,-136,1856,-53,51,-13
12265,704,-152,1840,-56,54,-13
12270,712,-160,1816,-58,55,-11
12275,720,-160,1840,-60,56,-11
12280,720,-144,1816,-62,54,-9
12285,720,-176,1840,-66,52,-10
12290,712,-176,1848,-70,51,-11
12295,728,-176,1816,-69,51,-9
12300,720,-160,1848,-67,50,-8
12305,704,-152,1864,-63,47,-7
12310,704,-176,1824,-61,43,-7
12315,712,-152,1840,-58,43,-6
12320,728,-152,1808,-56,43,-8
12325,728,-176,1816,-54,44,-9
12330,720,-144,1808,-51,43,-9
12335,704,-128,1776,-49,44,-9
12340,720,-160,1832,-47,45,-10
12345,736,-176,1832,-43,47,-10
12350,720,-168,1832,-40,47,-8
12355,712,-160,1816,-36,49,-9
12360,712,-160,1832,-35,50,-9
12365,704,-152,1816,-32,50,-9
12370,704,-176,1824,-30,49,-9
12375,720,-152,1816,-31,48,-9
12380,712,-136,1832,-31,47,-8
12385,712,-160,1816,-32,48,-8
12390,720,-160,1832,-32,48,-9
12395,712,-160,1792,-33,47,-9
12400,712,-160,1848,-35,48,-8
12405,728,-168,1800,-34,48,-9
12410,704,-176,1800,-33,49,-8
12415,728,-160,1816,-34,49,-7
12420,728,-176,1840,-33,50,-7
12425,720,-168,1824,-34,53,-7
12430,728,-152,1832,-35,54,-6
12435,720,-168,1840,-35,55,-7
12440,720,-184,1888,-35,54,-5
12445,720,-168,1840,-35,51,-5
12450,704,-184,1824,-37,48,-6
12455,712,-160,1824,-36,47,-5
12460,704,-176,1824,-34,49,-5
12465,720,-200,1840,-33,50,-6
12470,704,-184,1824,-32,51,-6
12475,696,-168,1824,-30,52,-6
12480,720,-168,1832,-31,52,-6
12485,728,-184,1800,-29,54,-6
12490,728,-160,1848,-29,54,-6
12495,720,-184,1824,-28,53,-4
12500,720,-184,1832,-27,53,-5
12505,736,-184,1848,-27,52,-6
12510,712,-168,1792,-29,51,-5
12515,720,-176,1800,-30,52,-4
12520,736,-152,1816,-28,50,-3
12525,728,-184,1800,-26,51,-4
12530,720,-144,1824,-26,51,-5
12535,728,-168,1832,-28,49,-5
12540,720,-176,1808,-31,50,-7
12545,720,-160,1816,-34,50,-8
12550,672,-200,1856,-34,50,-8
12555,704,-136,1824,-35,51,-10
12560,752,-184,1816,-36,53,-9
12565,720,-144,1832,-37,53,-7
12570,704,-176,1848,-35,55,-8
12575,712,-168,1848,-34,54,-6
12580,712,-192,1832,-32,52,-4
12585,728,-192,1824,-29,51,-4
12590,704,-168,1856,-26,48,-3
12595,728,-192,1848,-25,46,-4
12600,736,-184,1824,-25,44,-5
12605,720,-184,1800,-24,41,-6
12610,712,-160,1816,-25,39,-8
12615,712,-184,1848,-27,39,-10
12620,736,-152,1800,-29,41,-9
12625,720,-160,1800,-33,42,-9
12630,728,-152,1832,-35,43,-8
12635,712,-168,1816,-37,45,-8
12640,744,-176,1832,-37,46,-9
12645,752,-168,1840,-37,45,-8
12650,752,-168,1800,-33,46,-7
12655,768,-176,1824,-30,45,-5
12660,696,-272,1832,-24,44,-6
12665,736,-176,1792,-19,46,-6
12670,744,-160,1792,-14,47,-6
12675,728,-152,1808,-10,46,-7
12680,720,-152,1784,-7,47,-8
12685,720,-168,1816,-5,48,-11
12690,720,-160,1776,-3,50,-12
12695,720,-184,1792,-2,53,-13
12700,704,-208,1808,-1,55,-12
12705,712,-184,1816,-2,57,-12
12710,704,-176,1816,-3,58,-14
12715,696,-168,1816,-7,60,-13
12720,712,-208,1824,-13,60,-14
12725,736,-176,1848,-21,59,-11
12730,736,-184,1832,-29,61,-9
12735,744,-192,1864,-37,60,-9
12740,744,-184,1840,-41,60,-9
12745,744,-192,1832,-42,57,-8
12750,736,-192,1840,-39,55,-9
12755,736,-168,1768,-35,53,-11
12760,736,-184,1824,-30,50,-13
12765,744,-184,1792,-26,48,-11
12770,720,-192,1824,-22,48,-11
12775,712,-160,1808,-20,47,-12
12780,728,-160,1824,-20,48,-11
12785,768,-200,1792,-21,50,-12
12790,752,-168,1816,-22,53,-12
12795,744,-168,1832,-23,53,-11
12800,752,-184,1824,-24,54,-10
12805,768,-168,1824,-23,56,-10
12810,736,-160,1824,-21,57,-11
12815,752,-176,1792,-20,56,-9
12820,752,-160,1824,-17,56,-9
12825,744,-184,1800,-15,55,-9
12830,736,-176,1776,-15,57,-7
12835,736,-160,1808,-16,58,-6
12840,728,-160,1824,-16,59,-5
12845,736,-152,1816,-17,64,-5
12850,744,-176,1824,-17,64,-3
12855,744,-176,1800,-15,65,-3
12860,752,-192,1816,-13,67,-2
12865,760,-192,1800,-13,67,-2
12870,760,-184,1824,-12,67,0
12875,728,-144,1776,-12,68,0
12880,736,-152,1808,-11,68,0
12885,736,-152,1824,-13,66,-1
12890,744,-168,1800,-13,67,0
12895,736,-152,1816,-13,67,0
12900,760,-176,1816,-14,66,-1
12905,728,-160,1816,-14,64,-1
12910,728,-184,1840,-15,62,-2
12915,736,-160,1816,-15,62,-3
12920,720,-176,1808,-16,62,-4
12925,728,-168,1792,-18,60,-5
12930,744,-184,1816,-19,60,-6
12935,728,-176,1816,-21,59,-7
12940,728,-152,1808,-23,60,-11
12945,728,-184,1808,-24,63,-10
12950,744,-160,1792,-27,66,-12
12955,712,-136,1832,-29,69,-13
12960,728,-168,1816,-32,71,-15
12965,720,-176,1808,-32,74,-14
12970,744,-160,1824,-34,75,-14
12975,736,-200,1808,-33,75,-13
12980,720,-176,1840,-29,75,-13
12985,720,-192,1896,-25,74,-13
12990,728,-176,1824,-23,75,-11
12995,736,-192,1824,-18,73,-11
13000,736,-208,1800,-13,72,-10
13005,720,-192,1800,-9,70,-8
13010,760,-208,1768,-6,70,-7
13015,744,-192,1816,-5,70,-7
13020,760,-200,1792,-4,71,-8
13025,728,-192,1800,-3,73,-9
13030,728,-168,1752,-4,73,-8
13035,744,-192,1792,-5,74,-10
13040,744,-200,1848,-7,77,-9
13045,760,-176,1824,-7,80,-7
13050,744,-192,1824,-8,81,-8
13055,744,-184,1816,-8,83,-6
13060,744,-184,1808,-9,83,-7
13065,744,-192,1800,-11,83,-6
13070,752,-176,1792,-11,83,-3
13075,768,-216,1832,-11,83,-1
13080,768,-184,1832,-12,82,-1
13085,752,-192,1848,-10,82,-2
13090,760,-176,1800,-7,81,-2
13095,792,-136,1784,-7,81,-1
13100,736,-168,1848,-4,81,-1
13105,728,-144,1824,-5,82,0
13110,712,-152,1824,-5,84,0
13115,728,-160,1808,-5,85,-2
13120,760,-184,1776,-6,87,0
13125,744,-176,1800,-4,89,3
13130,752,-176,1840,-5,89,3
13135,744,-184,1864,-2,89,3
13140,720,-176,1800,0,88,3
13145,736,-184,1808,3,85,3
13150,712,-176,1816,4,83,5
13155,752,-184,1816,8,80,2
13160,728,-176,1800,10,79,2
13165,736,-192,1792,11,79,3
13170,712,-168,1808,12,79,3
13175,744,-184,1816,12,80,2
13180,704,-168,1840,11,80,0
13185,736,-144,1816,10,83,0
13190,712,-168,1816,11,83,0
13195,752,-176,1800,11,85,-1
13200,720,-184,1832,11,86,0
13205,800,-144,1856,9,88,-1
13210,736,-160,1816,6,88,0
13215,728,-168,1800,4,86,0
13220,728,-176,1840,5,85,1
13225,720,-160,1808,4,86,2
13230,728,-152,1808,6,84,1
13235,704,-168,1832,7,85,2
13240,720,-200,1840,8,83,1
13245,728,-160,1848,10,83,2
13250,720,-184,1800,11,84,2
13255,728,-200,1808,12,84,1
13260,712,-168,1832,13,85,1
13265,744,-192,1808,14,85,1
13270,728,-176,1800,14,85,1
13275,744,-152,1800,15,87,0
13280,728,-176,1816,11,89,0
13285,720,-152,1808,7,90,-1
13290,744,-144,1816,2,90,-2
13295,736,-152,1832,-4,93,-3
13300,728,-184,1808,-8,95,-1
13305,728,-160,1832,-10,98,-2
13310,744,-184,1816,-11,99,-2
13315,744,-184,1864,-10,99,-1
13320,704,-184,1824,-6,98,-1
13325,728,-192,1840,-3,97,0
13330,744,-176,1816,0,95,1
13335,728,-192,1816,2,92,1
13340,736,-176,1824,6,90,3
13345,736,-176,1784,6,86,1
13350,728,-192,1816,8,85,0
13355,720,-152,1816,8,86,-2
13360,736,-160,1816,9,84,-1
13365,712,-176,1832,7,87,-2
13370,720,-176,1832,6,86,-3
13375,736,-168,1848,4,88,-3
13380,720,-144,1800,2,90,-5
13385,712,-152,1832,2,92,-4
13390,744,-160,1792,2,91,-5
13395,712,-168,1832,2,92,-4
13400,736,-168,1832,1,92,-6
13405,752,-168,1816,2,94,-6
13410,688,-160,1784,3,93,-6
13415,720,-160,1808,4,93,-6
13420,696,-176,1896,5,93,-5
13425,688,-168,1840,7,92,-3
13430,720,-176,1840,8,91,-2
13435,704,-160,1832,11,91,-2
13440,720,-176,1800,15,91,-1
13445,728,-200,1816,18,91,1
13450,728,-184,1816,21,91,1
13455,704,-184,1824,22,88,2
13460,712,-184,1832,21,87,1
13465,720,-208,1808,18,85,1
13470,696,-176,1840,14,85,2
13475,712,-208,1888,10,86,2
13480,720,-160,1864,6,85,1
13485,712,-176,1840,5,84,-1
13490,736,-176,1832,5,83,-2
13495,704,-160,1816,6,84,-4
13500,712,-160,1848,10,83,-4
13505,728,-168,1840,18,81,-5
13510,688,-160,1808,22,79,-7
13515,704,-160,1816,25,81,-6
13520,752,-144,1800,26,86,-4
13525,704,-144,1824,25,93,-4
13530,696,-160,1872,24,97,-3
13535,712,-144,1816,23,100,-3
13540,728,-152,1824,23,99,-1
13545,728,-160,1824,24,99,0
13550,712,-128,1824,23,98,-1
13555,744,-152,1824,20,97,1
13560,728,-144,1848,15,94,1
13565,720,-136,1832,10,93,3
13570,720,-136,1880,6,91,4
13575,712,-144,1856,1,89,5
13580,712,-136,1848,-2,89,6
13585,736,-136,1848,-5,87,5
13590,720,-168,1824,-9,86,5
13595,720,-152,1840,-13,84,4
13600,736,-168,1832,-14,82,4
13605,712,-160,1840,-14,81,4
13610,712,-160,1848,-13,79,3
13615,712,-152,1856,-9,79,1
13620,720,-152,1840,-6,77,1
13625,704,-152,1848,-5,74,0
13630,704,-120,1840,-3,74,1
13635,688,-152,1816,-2,73,-1
13640,688,-120,1832,-2,74,-1
13645,712,-144,1832,-1,74,-1
13650,696,-128,1808,1,74,-1
13655,712,-152,1824,4,74,-1
13660,704,-176,1824,5,75,0
13665,704,-160,1800,6,75,-2
13670,696,-152,1832,6,76,-5
13675,720,-168,1824,7,78,-6
13680,696,-144,1824,6,80,-7
13685,704,-160,1816,6,81,-6
13690,704,-152,1816,7,83,-5
13695,688,-136,1816,8,83,-4
13700,704,-160,1800,5,83,-6
13705,696,-128,1824,1,84,-8
13710,688,-128,1808,0,88,-8
13715,704,-144,1824,-1,90,-6
13720,728,-160,1848,-3,91,-7
13725,688,-136,1800,-4,90,-6
13730,712,-160,1832,-4,88,-4
13735,736,-168,1792,-4,88,-3
13740,704,-160,1856,-1,87,-4
13745,720,-160,1816,3,87,-2
13750,720,-152,1808,7,87,-2
13755,712,-192,1824,10,86,0
13760,696,-168,1848,13,83,0
13765,712,-152,1816,13,81,0
13770,712,-168,1816,10,78,-3
13775,704,-160,1832,8,78,-3
13780,720,-144,1832,5,78,-4
13785,704,-144,1848,4,80,-5
13790,696,-152,1840,3,83,-5
13795,720,-160,1840,3,86,-5
13800,712,-128,1840,3,88,-4
13805,704,-136,1824,4,90,-6
13810,720,-160,1816,5,93,-4
13815,720,-152,1808,6,97,-3
13820,712,-112,1848,5,95,-1
13825,720,-144,1840,4,97,-1
13830,704,-144,1808,2,98,0
13835,696,-128,1840,0,96,1
13840,696,-144,1848,-1,93,1
13845,712,-136,1864,-1,91,1
13850,704,-152,1832,-2,90,3
13855,696,-112,1832,-3,89,3
13860,728,-64,1872,-5,91,5
13865,728,-152,1840,-6,93,5
13870,720,-152,1856,-8,95,7
13875,712,-144,1856,-10,96,8
13880,688,-144,1824,-12,93,8
13885,736,-160,1856,-14,92,8
13890,704,-136,1824,-14,89,6
13895,720,-152,1832,-12,88,5
13900,696,-136,1856,-7,85,6
13905,728,-160,1824,-4,83,5
13910,712,-136,1856,-1,79,5
13915,680,-136,1872,-1,77,6
13920,704,-152,1840,-4,74,6
13925,696,-152,1832,-6,73,6
13930,688,-152,1848,-8,70,2
13935,688,-136,1848,-8,70,3
13940,720,-144,1832,-9,71,2
13945,672,-144,1864,-9,71,2
13950,704,-144,1840,-9,72,2
13955,680,-144,1840,-8,72,0
13960,704,-144,1816,-8,72,1
13965,736,-120,1792,-7,72,-1
13970,696,-168,1840,-9,72,-1
13975,696,-144,1816,-6,74,-1
13980,736,-144,1824,-6,75,0
13985,696,-144,1816,-11,78,-4
13990,656,-152,1840,-17,78,1
13995,680,-144,1848,-16,76,3
14000,680,-168,1848,-13,75,1
14005,688,-160,1816,-10,74,2
14010,688,-152,1856,-6,74,2
14015,688,-144,1840,-4,74,2
14020,712,-144,1832,-3,73,1
14025,712,-152,1824,-3,72,0
14030,688,-120,1840,-5,73,0
14035,696,-144,1832,-5,74,0
14040,696,-136,1784,-6,73,1
14045,704,-160,1856,-9,71,0
14050,696,-144,1848,-8,72,1
14055,720,-144,1840,-7,72,-1
14060,720,-152,1840,-9,72,-1
14065,696,-152,1808,-9,73,0
14070,696,-152,1808,-9,73,0
14075,648,-160,1776,-10,73,-3
14080,696,-120,1856,-9,73,-4
14085,696,-160,1832,-8,73,-2
14090,720,-152,1832,-6,74,-3
14095,680,-152,1832,-5,72,-2
14100,696,-136,1832,-3,73,-1
14105,712,-160,1824,-2,72,-3
14110,704,-152,1856,-3,73,-3
14115,696,-128,1832,-2,74,-3
14120,696,-160,1856,-2,75,-1
14125,696,-136,1824,-2,75,-3
14130,696,-136,1880,-2,75,-1
14135,720,-144,1848,-2,75,-1
14140,704,-136,1832,-3,74,-1
14145,720,-144,1824,-2,75,-1
14150,680,-120,1824,-2,75,-1
14155,704,-136,1848,-3,75,-2
14160,688,-120,1840,-4,75,-2
14165,720,-184,1816,-5,75,-2
14170,712,-144,1864,-5,75,-1
14175,704,-128,1800,-2,75,-1
14180,688,-128,1848,-2,75,-1
14185,760,-144,1792,0,73,-1
14190,720,-128,1824,0,73,-2
14195,712,-144,1832,-3,75,-1
14200,688,-144,1864,-4,74,-1
14205,696,-112,1856,-5,74,-2
14210,704,-128,1848,-5,74,0
14215,712,-136,1816,-5,75,-2
14220,688,-160,1848,-4,75,-3
14225,680,-136,1872,-3,78,-3
14230,712,-144,1832,-3,78,-2
14235,680,-128,1824,-3,81,-1
14240,688,-160,1848,-4,78,-2
14245,680,-168,1848,-4,78,-2
14250,672,-136,1848,-2,78,0
14255,688,-160,1840,-1,78,0
14260,712,-144,1840,0,76,0
14265,680,-136,1864,3,74,1
14270,664,-136,1808,3,71,0
14275,704,-144,1848,3,70,1
14280,696,-168,1840,2,69,2
14285,704,-136,1840,2,69,1
14290,704,-128,1832,1,69,0
14295,744,-120,1832,-2,72,1
14300,712,-136,1848,-4,72,0
14305,696,-128,1840,-5,75,0
14310,696,-128,1808,-5,75,0
14315,696,-128,1864,-6,75,1
14320,696,-120,1864,-6,76,0
14325,688,-112,1824,-7,76,0
14330,728,-120,1840,-7,76,0
14335,696,-120,1832,-8,78,1
14340,696,-128,1832,-8,79,-1
14345,680,-120,1832,-10,78,0
14350,696,-136,1840,-10,79,-1
14355,672,-144,1856,-9,79,1
14360,680,-160,1816,-6,77,1
14365,688,-160,1808,-1,76,2
14370,680,-144,1832,5,74,0
14375,704,-168,1848,10,73,-1
14380,712,-160,1824,12,70,-2
14385,664,-128,1840,11,68,-2
14390,672,-136,1848,5,68,-3
14395,688,-136,1880,-3,68,-4
14400,712,-160,1848,-11,69,-4
14405,696,-160,1856,-15,69,-5
14410,680,-120,1824,-16,69,-7
14415,672,-144,1848,-17,71,-8
14420,688,-144,1832,-15,69,-7
14425,680,-128,1792,-13,69,-9
14430,696,-128,1832,-11,69,-9
14435,696,-120,1808,-12,69,-10
14440,712,-128,1800,-13,71,-10
14445,680,-128,1832,-15,75,-9
14450,704,-136,1832,-17,78,-6
14455,720,-152,1824,-18,79,-4
14460,728,-160,1864,-19,80,-4
14465,720,-128,1816,-20,80,-4
14470,696,-120,1872,-22,78,-4
14475,728,-128,1864,-23,75,-3
14480,696,-128,1832,-24,72,-1
14485,688,-112,1864,-25,70,-1
14490,696,-144,1856,-26,68,-1
14495,704,-144,1856,-28,65,0
14500,696,-152,1840,-30,62,1
14505,704,-152,1848,-32,61,1
14510,680,-104,1840,-33,60,2
14515,712,-152,1864,-33,58,3
14520,696,-144,1864,-35,57,3
14525,696,-144,1824,-38,57,1
14530,680,-144,1848,-37,57,1
14535,680,-128,1808,-38,55,0
14540,680,-152,1872,-39,54,-1
14545,704,-152,1832,-40,53,-3
14550,680,-152,1848,-39,53,-3
14555,688,-120,1832,-40,54,-4
14560,696,-128,1824,-38,53,-2
14565,672,-136,1840,-38,55,-3
14570,696,-152,1848,-36,54,-3
14575,696,-152,1832,-38,54,-2
14580,680,-152,1848,-40,56,-5
14585,696,-136,1840,-41,54,-5
14590,672,-128,1840,-46,53,-4
14595,704,-120,1824,-48,53,-3
14600,696,-160,1816,-49,54,-4
14605,696,-144,1832,-51,54,-4
14610,672,-136,1840,-52,53,-3
14615,688,-144,1840,-54,51,-3
14620,680,-112,1832,-56,49,-3
14625,696,-144,1840,-59,48,-4
14630,704,-152,1832,-64,49,-5
14635,688,-144,1848,-66,51,-5
14640,696,-128,1848,-65,51,-6
14645,720,-152,1832,-64,51,-3
14650,704,-144,1824,-64,50,-4
14655,712,-136,1832,-62,51,-4
14660,736,-144,1800,-61,50,-3
14665,712,-160,1824,-57,51,-3
14670,696,-176,1816,-52,51,-4
14675,728,-176,1824,-47,50,-5
14680,696,-168,1808,-45,49,-5
14685,704,-168,1832,-42,49,-4
14690,720,-184,1832,-40,48,-4
14695,696,-160,1848,-42,46,-4
14700,696,-176,1816,-45,45,-6
14705,680,-176,1840,-48,45,-9
14710,688,-144,1856,-49,44,-10
14715,688,-160,1816,-51,44,-11
14720,688,-152,1864,-51,44,-12
14725,712,-168,1840,-53,46,-11
14730,712,-144,1704,-53,48,-12
14735,712,-160,1840,-57,51,-11
14740,696,-144,1856,-61,53,-11
14745,688,-152,1824,-68,53,-10
14750,728,-144,1840,-73,55,-9
14755,728,-176,1864,-77,54,-10
14760,696,-160,1840,-78,53,-8
14765,696,-176,1832,-79,51,-8
14770,712,-176,1848,-75,49,-6
14775,720,-160,1856,-67,47,-7
14780,696,-160,1808,-61,43,-7
14785,728,-160,1816,-58,40,-7
14790,704,-160,1816,-53,40,-8
14795,696,-160,1800,-50,39,-7
14800,688,-160,1840,-48,39,-9
14805,696,-168,1832,-46,38,-10
14810,696,-160,1832,-49,35,-10
14815,704,-152,1824,-49,37,-10
14820,712,-176,1816,-50,43,-8
14825,712,-184,1824,-46,46,-7
14830,712,-192,1856,-44,46,-8
14835,720,-184,1832,-43,45,-7
14840,760,-96,1792,-43,43,-8
14845,704,-184,1856,-44,42,-9
14850,696,-168,1848,-46,39,-10
14855,696,-168,1832,-47,40,-10
14860,728,-184,1824,-49,38,-10
14865,696,-144,1840,-47,40,-9
14870,680,-192,1792,-44,38,-8
14875,712,-192,1840,-42,37,-9
14880,704,-168,1808,-38,40,-10
14885,696,-184,1840,-37,39,-10
14890,712,-152,1840,-37,42,-11
14895,712,-168,1816,-36,43,-11
14900,720,-168,1808,-33,45,-12
14905,712,-184,1800,-32,47,-10
14910,720,-176,1840,-33,48,-11
14915,744,-168,1808,-32,48,-9
14920,688,-144,1816,-33,48,-7
14925,712,-192,1832,-34,48,-9
14930,704,-160,1816,-35,46,-8
14935,720,-168,1832,-37,45,-8
14940,704,-184,1824,-36,45,-8
14945,704,-184,1792,-36,47,-8
14950,704,-184,1816,-36,46,-8
14955,728,-192,1848,-37,46,-10
14960,720,-184,1808,-36,47,-8
14965,728,-192,1816,-35,48,-9
14970,736,-208,1816,-34,47,-7
14975,736,-192,1848,-32,47,-8
14980,728,-184,1808,-32,48,-8
14985,736,-184,1840,-32,50,-6
14990,712,-168,1824,-32,47,-7
14995,720,-184,1832,-32,45,-5
