timestamp,accel_x,accel_y,accel_z,gyro_x,gyro_y,gyro_z
0,112,-1744,-672,36,454,39
5,88,-1752,-688,23,457,43
10,56,-1784,-704,8,461,45
15,72,-1792,-728,-5,464,51
20,72,-1840,-656,-17,464,58
25,56,-1816,-624,-24,462,63
30,40,-1856,-680,-29,458,69
35,24,-1872,-672,-28,452,73
40,40,-1880,-664,-23,444,77
45,16,-1904,-656,-12,434,80
50,16,-1920,-664,1,423,83
55,8,-1912,-624,13,410,84
60,16,-1928,-672,25,398,85
65,16,-1912,-640,35,384,85
70,-8,-1920,-696,44,370,84
75,0,-1896,-640,50,357,84
80,32,-1896,-688,55,348,81
85,0,-1896,-648,58,337,80
90,16,-1904,-640,59,327,78
95,56,-1912,-688,60,315,73
100,40,-1896,-648,58,304,67
105,64,-1936,-656,57,291,61
110,56,-1936,-632,56,279,53
115,40,-1928,-632,55,271,45
120,48,-1912,-640,53,265,35
125,104,-1928,-616,50,259,28
130,72,-1944,-632,54,257,19
135,112,-1944,-584,59,254,9
140,128,-1936,-592,66,251,1
145,128,-1944,-600,74,249,-7
150,152,-1952,-576,84,246,-12
155,160,-1936,-560,92,240,-17
160,152,-1920,-568,102,237,-21
165,152,-1920,-600,110,235,-25
170,176,-1904,-576,118,233,-25
175,184,-1928,-576,126,233,-24
180,176,-1904,-640,132,233,-26
185,168,-1904,-640,137,235,-24
190,168,-1920,-552,141,237,-22
195,192,-1920,-560,144,242,-18
200,200,-1928,-584,146,246,-17
205,216,-1904,-584,147,253,-16
210,240,-1912,-600,147,262,-16
215,240,-1888,-608,147,274,-17
220,264,-1920,-576,145,287,-17
225,208,-1872,-592,141,300,-19
230,248,-1856,-560,136,313,-22
235,256,-1912,-616,128,328,-22
240,248,-1888,-592,120,346,-22
245,272,-1848,-616,109,364,-21
250,312,-1888,-616,99,381,-22
255,320,-1888,-592,90,399,-24
260,344,-1888,-600,86,413,-26
265,352,-1888,-624,84,427,-29
270,328,-1880,-640,81,435,-29
275,368,-1864,-608,81,446,-32
280,352,-1864,-624,76,456,-32
285,312,-1864,-616,73,462,-28
290,320,-1864,-616,68,467,-24
295,336,-1832,-608,61,472,-20
300,344,-1880,-608,53,473,-15
305,344,-1904,-608,46,472,-11
310,312,-1896,-600,41,470,-6
315,288,-1896,-632,37,468,-1
320,280,-1872,-608,31,467,5
325,240,-1896,-616,24,469,10
330,248,-1904,-640,16,470,12
335,256,-1904,-608,7,471,12
340,240,-1912,-616,2,471,13
345,240,-1904,-616,-2,469,15
350,256,-1920,-584,-5,465,19
355,224,-1920,-616,-5,461,20
360,216,-1936,-576,-5,457,22
365,192,-1952,-576,-6,451,26
370,224,-1912,-568,-4,446,28
375,216,-1936,-560,0,440,33
380,200,-1912,-528,3,435,37
385,200,-1920,-528,7,427,41
390,168,-1904,-544,11,421,44
395,224,-1928,-552,14,414,47
400,184,-1888,-544,17,406,49
405,208,-1896,-584,18,396,53
410,232,-1872,-568,20,386,56
415,224,-1856,-568,21,377,60
420,216,-1856,-584,19,370,66
425,192,-1824,-576,15,363,70
430,208,-1824,-576,10,358,74
435,216,-1832,-600,3,353,77
440,232,-1808,-592,-5,351,81
445,264,-1824,-584,-12,352,81
450,264,-1864,-600,-19,352,80
455,272,-1872,-584,-25,352,79
460,216,-1856,-616,-31,352,77
465,296,-1864,-608,-35,349,80
470,304,-1864,-592,-39,346,79
475,272,-1872,-592,-44,343,81
480,288,-1856,-592,-46,341,83
485,280,-1848,-584,-50,340,84
490,272,-1856,-584,-54,339,85
495,296,-1880,-584,-60,339,86
500,272,-1856,-560,-66,341,88
505,296,-1864,-544,-71,342,88
510,296,-1872,-576,-76,343,86
515,320,-1920,-544,-79,342,84
520,280,-1864,-544,-80,341,81
525,280,-1888,-568,-81,339,82
530,296,-1880,-568,-80,338,81
535,288,-1856,-568,-81,337,81
540,328,-1904,-608,-80,338,79
545,328,-1888,-592,-78,342,79
550,352,-1896,-600,-75,347,75
555,344,-1864,-608,-74,356,75
560,360,-1848,-576,-73,364,77
565,440,-1864,-616,-74,375,78
570,400,-1840,-624,-74,387,80
575,408,-1856,-632,-73,397,83
580,424,-1864,-648,-73,410,84
585,440,-1848,-616,-73,420,91
590,440,-1888,-616,-71,431,98
595,456,-1864,-624,-67,442,103
600,424,-1880,-592,-64,455,111
605,416,-1856,-664,-60,467,118
610,432,-1880,-656,-55,478,127
615,440,-1872,-632,-51,490,134
620,432,-1872,-648,-47,502,142
625,408,-1872,-616,-44,511,150
630,408,-1896,-600,-40,521,155
635,400,-1872,-616,-38,531,161
640,368,-1856,-584,-37,539,166
645,376,-1872,-592,-37,545,171
650,352,-1856,-600,-37,551,177
655,344,-1880,-608,-41,554,182
660,344,-1896,-624,-45,558,188
665,312,-1864,-600,-48,562,193
670,336,-1912,-520,-53,569,202
675,344,-1864,-632,-56,576,208
680,328,-1864,-592,-56,583,213
685,336,-1856,-576,-56,591,219
690,344,-1864,-560,-53,598,225
695,328,-1832,-576,-51,604,229
700,344,-1840,-552,-51,610,237
705,376,-1848,-560,-50,617,244
710,352,-1840,-568,-49,623,250
715,384,-1840,-560,-48,629,258
720,384,-1824,-568,-49,635,265
725,384,-1816,-592,-52,639,272
730,400,-1824,-616,-54,642,280
735,400,-1816,-568,-54,644,286
740,400,-1832,-528,-52,646,293
745,416,-1872,-544,-50,647,299
750,416,-1816,-536,-50,647,305
755,360,-1848,-536,-50,646,309
760,360,-1840,-528,-51,642,315
765,320,-1840,-520,-53,641,319
770,376,-1856,-544,-55,641,323
775,320,-1872,-528,-56,642,327
780,304,-1864,-536,-52,645,332
785,320,-1872,-504,-47,648,337
790,328,-1904,-520,-38,650,342
795,328,-1904,-512,-27,651,346
800,328,-1888,-512,-16,650,350
805,360,-1920,-512,-5,648,354
810,368,-1904,-472,5,646,360
815,328,-1896,-504,14,643,367
820,368,-1896,-504,23,642,371
825,328,-1880,-504,34,640,375
830,336,-1896,-512,45,638,381
835,320,-1888,-488,57,636,386
840,328,-1928,-488,69,632,391
845,312,-1904,-488,79,627,396
850,304,-1880,-440,88,621,400
855,272,-1880,-440,97,613,406
860,304,-1888,-416,104,605,413
865,264,-1896,-424,113,597,420
870,264,-1896,-424,123,587,427
875,264,-1888,-408,133,578,432
880,256,-1888,-408,141,569,440
885,216,-1864,-400,148,559,448
890,248,-1912,-416,151,549,453
895,216,-1920,-472,144,539,458
900,248,-1920,-552,124,527,461
905,256,-1968,-608,92,519,460
910,264,-1968,-664,50,517,456
915,328,-1992,-736,5,522,453
920,360,-2040,-792,-32,538,448
925,408,-2064,-824,-58,559,446
930,408,-2064,-776,-70,589,445
935,440,-2112,-792,-68,620,444
940,416,-2112,-824,-57,654,441
945,464,-2144,-824,-40,685,438
950,464,-2160,-752,-23,713,438
955,432,-2144,-760,-1,742,436
960,368,-2128,-744,24,765,435
965,328,-2120,-728,52,786,429
970,312,-2112,-640,85,803,428
975,296,-2096,-616,119,816,421
980,232,-2080,-544,154,823,416
985,240,-2096,-520,189,822,408
990,192,-2064,-488,220,812,400
995,128,-2056,-496,245,797,391
1000,152,-2048,-400,266,774,385
1005,96,-2016,-440,285,747,377
1010,80,-2016,-448,299,718,374
1015,88,-1984,-440,307,689,372
1020,80,-1968,-488,307,663,370
1025,80,-1928,-472,300,640,369
1030,104,-1904,-520,288,625,369
1035,152,-1872,-520,272,617,369
1040,176,-1808,-568,252,613,368
1045,216,-1784,-624,230,613,365
1050,232,-1776,-640,206,616,365
1055,272,-1752,-672,184,622,363
1060,304,-1760,-688,167,630,360
1065,328,-1752,-672,153,636,356
1070,312,-1720,-720,144,644,354
1075,304,-1656,-760,139,650,353
1080,304,-1664,-760,137,654,351
1085,272,-1664,-776,137,658,354
1090,256,-1648,-768,137,659,357
1095,176,-1624,-832,136,656,361
1100,144,-1616,-840,135,651,366
1105,104,-1616,-808,129,640,371
1110,56,-1592,-784,120,630,380
1115,-16,-1584,-800,108,615,386
1120,-32,-1560,-808,92,601,392
1125,-72,-1568,-784,71,589,398
1130,-128,-1568,-784,49,577,407
1135,-136,-1576,-760,25,566,415
1140,-128,-1600,-784,-2,555,420
1145,-184,-1600,-752,-30,547,427
1150,-136,-1640,-768,-55,540,431
1155,-128,-1688,-736,-78,538,434
1160,-112,-1696,-720,-95,538,434
1165,-168,-1752,-776,-105,541,433
1170,-112,-1776,-760,-109,546,429
1175,-104,-1792,-752,-110,553,422
1180,-120,-1800,-728,-106,565,413
1185,-128,-1824,-728,-95,579,406
1190,-72,-1888,-696,-83,595,395
1195,-72,-1896,-720,-70,614,384
1200,-40,-1944,-704,-59,634,375
1205,-96,-1960,-704,-51,652,367
1210,-72,-2000,-680,-43,668,362
1215,-56,-2024,-632,-34,683,361
1220,-40,-2040,-688,-26,694,365
1225,-72,-2048,-656,-16,703,371
1230,-72,-2056,-624,-8,714,379
1235,-8,-2056,-672,-9,725,388
1240,0,-2064,-672,-12,736,398
1245,8,-2064,-688,-16,747,408
1250,8,-2072,-696,-17,757,417
1255,16,-2064,-784,-15,768,424
1260,24,-2008,-776,-9,779,432
1265,64,-2016,-720,0,790,439
1270,48,-1968,-736,12,803,444
1275,72,-1936,-736,24,819,448
1280,96,-1944,-712,35,835,450
1285,72,-1904,-704,42,852,454
1290,64,-1864,-680,45,867,456
1295,64,-1856,-712,45,877,459
1300,16,-1784,-656,41,885,465
1305,32,-1784,-680,34,891,468
1310,0,-1792,-648,24,895,472
1315,-8,-1784,-648,8,899,478
1320,-32,-1760,-664,-14,900,482
1325,-24,-1768,-680,-37,899,487
1330,-72,-1760,-624,-54,898,489
1335,-80,-1776,-632,-64,899,490
1340,-80,-1744,-624,-70,902,494
1345,-112,-1736,-640,-73,907,491
1350,-104,-1720,-640,-73,917,488
1355,-88,-1752,-624,-72,928,483
1360,-112,-1776,-648,-69,939,480
1365,-120,-1736,-616,-69,950,476
1370,-120,-1736,-624,-71,955,473
1375,-112,-1744,-592,-78,958,473
1380,-128,-1712,-600,-93,957,472
1385,-136,-1744,-624,-107,954,473
1390,-112,-1744,-632,-121,944,474
1395,-144,-1728,-600,-132,936,474
1400,-128,-1752,-584,-141,927,471
1405,-120,-1760,-576,-149,918,467
1410,-120,-1752,-576,-157,912,459
1415,-120,-1824,-544,-166,910,451
1420,-128,-1800,-544,-175,907,443
1425,-80,-1816,-528,-186,905,433
1430,-80,-1816,-544,-196,903,424
1435,-112,-1872,-520,-205,902,415
1440,-120,-1856,-528,-210,898,405
1445,-120,-1840,-536,-213,895,396
1450,-96,-1856,-520,-209,888,389
1455,-104,-1888,-528,-205,880,381
1460,-120,-1824,-536,-196,871,374
1465,-144,-1872,-528,-187,860,366
1470,-120,-1856,-528,-175,851,359
1475,-176,-1840,-544,-159,845,350
1480,-152,-1840,-480,-145,841,342
1485,-168,-1864,-496,-129,836,334
1490,-176,-1856,-440,-115,831,324
1495,-136,-1864,-448,-105,829,315
1500,-128,-1872,-416,-96,827,304
1505,-96,-1880,-360,-91,828,294
1510,-104,-1912,-344,-86,830,284
1515,-72,-1904,-336,-81,833,277
1520,-24,-1976,-344,-74,834,270
1525,32,-1968,-312,-68,834,264
1530,16,-1936,-320,-63,835,261
1535,48,-1968,-328,-51,838,258
1540,56,-1984,-288,-35,835,256
1545,64,-2056,-296,-15,831,253
1550,88,-2016,-280,8,824,252
1555,96,-2032,-312,35,819,251
1560,40,-2032,-280,66,816,250
1565,136,-2048,-288,100,807,250
1570,80,-2040,-296,135,794,249
1575,24,-2024,-344,173,780,252
1580,8,-2032,-344,211,768,251
1585,0,-2000,-336,250,761,249
1590,-24,-2024,-304,290,761,248
1595,-64,-2016,-344,323,773,244
1600,-80,-2024,-328,351,791,240
1605,-40,-2032,-360,366,812,232
1610,-8,-2032,-408,369,836,223
1615,-8,-2024,-440,358,861,217
1620,0,-2024,-528,332,879,212
1625,24,-2040,-608,295,887,207
1630,16,-2048,-688,244,886,202
1635,24,-2080,-768,183,876,204
1640,64,-2120,-808,112,863,212
1645,56,-2208,-792,42,854,223
1650,112,-2296,-848,-26,846,236
1655,160,-2360,-904,-89,827,248
1660,216,-2424,-960,-138,797,262
1665,296,-2480,-1056,-176,764,280
1670,288,-2536,-1144,-194,734,305
1675,248,-2560,-1120,-181,703,328
1680,176,-2568,-1120,-124,677,349
1685,112,-2568,-1096,-39,663,367
1690,8,-2552,-1112,52,660,377
1695,0,-2560,-1056,131,678,377
1700,0,-2520,-1024,194,709,368
1705,-72,-2440,-1080,247,750,350
1710,-136,-2360,-1104,296,792,330
1715,-160,-2288,-1112,336,834,313
1720,-216,-2200,-1112,364,883,301
1725,-264,-2160,-1128,378,936,292
1730,-264,-2056,-1128,380,990,280
1735,-272,-1952,-1168,368,1034,265
1740,-280,-1824,-1192,348,1063,247
1745,-272,-1728,-1184,323,1067,232
1750,-280,-1560,-1160,297,1055,221
1755,-288,-1520,-1200,279,1044,226
1760,-216,-1400,-1168,256,1046,240
1765,-128,-1296,-1040,228,1054,254
1770,0,-1256,-1008,200,1062,264
1775,88,-1256,-928,172,1071,269
1780,128,-1248,-904,140,1074,268
1785,224,-1248,-936,105,1066,261
1790,296,-1232,-936,66,1048,251
1795,392,-1280,-984,26,1021,240
1800,432,-1336,-1000,-17,993,228
1805,424,-1352,-976,-56,965,216
1810,456,-1464,-936,-87,943,206
1815,376,-1512,-952,-111,925,197
1820,352,-1568,-912,-123,915,192
1825,272,-1624,-904,-132,908,186
1830,248,-1680,-880,-139,907,179
1835,168,-1688,-856,-145,907,168
1840,104,-1712,-864,-146,909,155
1845,72,-1752,-864,-141,913,139
1850,16,-1712,-912,-132,916,118
1855,-8,-1728,-928,-119,915,95
1860,-8,-1736,-944,-105,915,74
1865,-16,-1776,-904,-94,913,56
1870,0,-1736,-896,-85,917,43
1875,-24,-1752,-880,-77,923,31
1880,0,-1736,-872,-71,928,22
1885,16,-1736,-816,-64,932,18
1890,40,-1752,-808,-56,934,18
1895,72,-1712,-752,-47,934,19
1900,56,-1720,-744,-34,931,26
1905,96,-1688,-760,-20,925,34
1910,112,-1704,-696,-10,914,41
1915,168,-1672,-680,-4,898,48
1920,160,-1672,-704,-1,880,54
1925,192,-1656,-712,0,859,62
1930,176,-1640,-688,0,837,68
1935,176,-1656,-680,3,813,73
1940,176,-1600,-672,5,793,80
1945,160,-1624,-704,8,776,86
1950,112,-1576,-648,12,759,93
1955,112,-1576,-664,15,739,98
1960,88,-1584,-640,18,719,102
1965,72,-1576,-624,21,699,104
1970,88,-1576,-624,23,679,110
1975,40,-1600,-632,22,661,112
1980,88,-1576,-624,21,644,113
1985,104,-1592,-600,17,631,114
1990,120,-1568,-584,11,617,115
1995,128,-1608,-568,7,604,115
2000,128,-1600,-560,-2,588,114
2005,160,-1624,-552,-9,574,110
2010,144,-1648,-536,-18,559,109
2015,144,-1664,-512,-26,542,106
2020,168,-1672,-528,-37,526,103
2025,128,-1688,-512,-46,506,101
2030,184,-1720,-480,-55,486,97
2035,128,-1728,-496,-63,463,92
2040,168,-1744,-512,-73,440,89
2045,160,-1712,-504,-80,415,86
2050,136,-1728,-496,-88,388,85
2055,152,-1752,-488,-93,360,82
2060,184,-1768,-472,-94,333,76
2065,144,-1784,-416,-92,305,71
2070,184,-1784,-384,-85,273,65
2075,160,-1824,-360,-76,242,62
2080,168,-1816,-368,-64,209,59
2085,152,-1848,-344,-51,176,56
2090,112,-1864,-328,-32,142,56
2095,136,-1888,-312,-11,101,54
2100,56,-1920,-288,14,59,53
2105,64,-1936,-288,39,9,58
2110,-16,-1992,-200,69,-45,62
2115,-72,-2008,-200,100,-97,69
2120,-136,-2040,-208,131,-145,79
2125,-184,-2072,-200,165,-187,89
2130,-152,-2080,-248,195,-218,102
2135,-184,-2160,-256,231,-237,112
2140,-24,-2112,-376,269,-232,116
2145,-16,-2088,-440,296,-195,135
2150,48,-2048,-552,313,-137,156
2155,144,-2000,-600,320,-61,169
2160,280,-1936,-648,314,27,180
2165,448,-1920,-640,307,102,182
2170,624,-1952,-568,298,158,171
2175,752,-1968,-448,294,190,152
2180,832,-1992,-352,301,199,130
2185,800,-2088,-184,319,194,110
2190,776,-2104,-56,348,174,94
2195,712,-2168,-56,378,149,81
2200,608,-2224,-112,393,125,68
2205,520,-2248,-232,379,101,46
2210,424,-2328,-384,321,73,17
2215,312,-2384,-600,229,42,-18
2220,264,-2440,-776,110,25,-56
2225,192,-2496,-992,-17,29,-82
2230,168,-2544,-1048,-131,56,-98
2235,216,-2584,-1120,-202,108,-106
2240,240,-2624,-1136,-216,176,-107
2245,312,-2656,-1056,-176,239,-114
2250,296,-2696,-1056,-97,294,-120
2255,304,-2728,-1016,12,331,-126
2260,248,-2736,-944,130,351,-128
2265,232,-2728,-968,237,355,-126
2270,176,-2648,-1024,321,346,-117
2275,88,-2496,-1120,377,325,-99
2280,24,-2400,-1184,419,294,-83
2285,0,-2288,-1192,457,246,-84
2290,-8,-2216,-1248,500,174,-94
2295,-72,-2144,-1264,533,82,-104
2300,-48,-2072,-1248,549,-21,-112
2305,-128,-1952,-1336,542,-124,-111
2310,-152,-1840,-1416,519,-205,-109
2315,-216,-1752,-1456,482,-263,-110
2320,-328,-1624,-1480,436,-298,-112
2325,-344,-1544,-1472,389,-314,-117
2330,-328,-1544,-1448,337,-319,-121
2335,-312,-1528,-1424,279,-313,-126
2340,-248,-1544,-1360,216,-301,-124
2345,-192,-1536,-1272,149,-281,-117
2350,-168,-1552,-1216,90,-254,-111
2355,-64,-1584,-1160,47,-223,-104
2360,-16,-1576,-1112,25,-188,-101
2365,-8,-1592,-1040,22,-156,-95
2370,0,-1584,-1000,30,-130,-88
2375,8,-1592,-936,45,-107,-79
2380,16,-1616,-872,60,-90,-62
2385,48,-1632,-808,68,-77,-41
2390,80,-1664,-776,66,-65,-17
2395,128,-1672,-768,61,-51,11
2400,160,-1696,-728,47,-39,40
2405,144,-1744,-728,30,-32,66
2410,200,-1696,-808,19,-31,91
2415,216,-1736,-832,11,-33,113
2420,208,-1704,-832,11,-34,132
2425,176,-1720,-840,24,-35,154
2430,136,-1664,-832,39,-33,173
2435,120,-1648,-808,56,-24,194
2440,104,-1616,-776,66,-13,213
2445,80,-1568,-728,65,0,227
2450,88,-1528,-712,54,12,236
2455,40,-1520,-712,35,23,245
2460,-8,-1464,-728,12,34,250
2465,8,-1432,-688,-12,42,253
2470,8,-1448,-672,-35,53,254
2475,-8,-1416,-648,-51,63,253
2480,0,-1432,-656,-57,73,249
2485,-8,-1408,-616,-60,86,244
2490,-24,-1416,-568,-57,97,233
2495,-8,-1432,-592,-53,109,222
2500,-40,-1432,-560,-48,123,210
2505,-56,-1456,-560,-45,135,196
2510,-40,-1424,-568,-43,147,181
2515,-48,-1472,-576,-41,154,167
2520,-80,-1448,-536,-39,162,157
2525,-104,-1480,-544,-34,170,145
2530,-104,-1488,-576,-34,171,136
2535,-112,-1512,-584,-34,170,127
2540,-128,-1536,-568,-37,168,120
2545,-168,-1560,-528,-41,162,113
2550,-152,-1616,-560,-43,152,109
2555,-176,-1600,-528,-44,140,101
2560,-200,-1640,-584,-47,124,93
2565,-216,-1688,-560,-52,107,85
2570,-176,-1768,-512,-55,92,71
2575,-208,-1720,-512,-59,77,59
2580,-208,-1752,-504,-60,61,44
2585,-184,-1752,-488,-56,48,28
2590,-168,-1784,-432,-51,36,11
2595,-160,-1792,-416,-42,27,-8
2600,-168,-1784,-384,-30,22,-29
2605,-128,-1800,-376,-17,18,-48
2610,-120,-1760,-408,0,14,-68
2615,-96,-1776,-384,18,12,-86
2620,-96,-1768,-376,35,10,-104
2625,-56,-1784,-376,47,8,-118
2630,-80,-1800,-376,61,7,-131
2635,-80,-1792,-376,73,9,-139
2640,-64,-1824,-360,85,4,-146
2645,-56,-1800,-368,96,-1,-152
2650,-48,-1808,-344,109,-6,-156
2655,-24,-1824,-376,122,-13,-155
2660,-8,-1856,-368,133,-18,-152
2665,8,-1872,-352,144,-23,-148
2670,0,-1848,-384,155,-28,-142
2675,32,-1896,-376,166,-30,-132
2680,40,-1920,-312,170,-31,-118
2685,48,-1952,-384,175,-31,-107
2690,80,-1976,-368,179,-25,-95
2695,72,-2016,-336,178,-18,-86
2700,80,-1992,-368,179,-11,-79
2705,88,-2024,-376,179,-7,-72
2710,152,-2048,-384,178,-5,-70
2715,80,-2064,-384,171,-9,-65
2720,112,-2072,-400,160,-22,-58
2725,64,-2088,-368,152,-45,-49
2730,16,-2112,-432,151,-70,-37
2735,16,-2120,-424,160,-92,-24
2740,-64,-2128,-344,179,-108,-9
2745,-104,-2160,-376,204,-108,2
2750,-136,-2168,-320,233,-95,12
2755,-112,-2208,-264,264,-65,18
2760,-80,-2232,-176,293,-19,22
2765,-40,-2264,-128,320,36,20
2770,-8,-2264,-104,337,92,19
2775,0,-2288,-144,338,138,17
2780,-16,-2304,-280,312,164,18
2785,0,-2304,-336,247,166,22
2790,88,-2312,-480,147,144,39
2795,168,-2336,-648,16,103,65
2800,176,-2376,-856,-137,52,96
2805,176,-2408,-1048,-300,-9,137
2810,128,-2456,-1168,-452,-86,175
2815,72,-2440,-1240,-569,-175,209
2820,-40,-2544,-1184,-643,-252,240
2825,-128,-2616,-1096,-650,-316,263
2830,-240,-2648,-928,-591,-342,284
2835,-384,-2768,-800,-485,-340,309
2840,-432,-2832,-760,-338,-339,299
2845,-408,-2848,-888,-193,-328,275
2850,-336,-2832,-1024,-69,-294,257
2855,-312,-2704,-1216,39,-235,241
2860,-320,-2600,-1312,138,-162,228
2865,-304,-2456,-1376,240,-92,220
2870,-200,-2272,-1400,356,-19,212
2875,-96,-2072,-1328,473,70,208
2880,-16,-1912,-1248,569,173,207
2885,24,-1744,-1192,635,275,206
2890,32,-1536,-1144,662,372,203
2895,48,-1384,-1216,643,455,197
2900,32,-1304,-1176,585,514,187
2905,80,-1184,-1200,500,539,177
2910,152,-1176,-1168,402,527,165
2915,256,-1208,-1160,298,485,150
2920,296,-1272,-1080,196,423,135
2925,344,-1360,-1016,105,351,116
2930,320,-1472,-960,34,280,93
2935,352,-1608,-920,-22,217,73
2940,272,-1688,-944,-67,170,55
2945,296,-1800,-928,-92,139,38
2950,184,-1872,-896,-96,119,21
2955,88,-1920,-888,-77,107,4
2960,8,-1944,-872,-42,100,-17
2965,-40,-1992,-888,-3,97,-33
2970,-104,-2016,-888,33,101,-52
2975,-152,-2024,-880,61,107,-73
2980,-168,-1976,-856,77,118,-97
2985,-144,-1928,-840,83,133,-121
2990,-144,-1912,-824,86,150,-145
2995,-104,-1864,-768,88,170,-173
3000,-104,-1760,-736,91,190,-198
3005,-40,-1744,-712,92,206,-227
3010,-24,-1680,-720,94,215,-248
3015,-8,-1608,-672,88,219,-265
3020,0,-1568,-632,81,218,-280
3025,16,-1512,-640,72,210,-289
3030,24,-1448,-592,53,201,-291
3035,32,-1440,-568,30,185,-287
3040,32,-1376,-568,4,167,-283
3045,8,-1360,-528,-19,146,-269
3050,16,-1320,-544,-42,120,-253
3055,8,-1328,-504,-61,90,-235
3060,16,-1312,-504,-73,58,-215
3065,8,-1328,-528,-77,25,-195
3070,0,-1296,-520,-76,-8,-174
3075,0,-1288,-528,-70,-41,-157
3080,-8,-1304,-552,-61,-73,-139
3085,0,-1296,-576,-52,-103,-126
3090,0,-1320,-584,-41,-128,-115
3095,-56,-1304,-568,-32,-150,-104
3100,-64,-1320,-584,-19,-169,-98
3105,-40,-1352,-512,-7,-185,-94
3110,-88,-1336,-576,2,-198,-96
3115,-24,-1392,-568,3,-208,-95
3120,-40,-1432,-536,-4,-218,-96
3125,32,-1456,-536,-14,-227,-98
3130,56,-1472,-544,-38,-232,-96
3135,80,-1504,-520,-67,-235,-91
3140,120,-1536,-528,-98,-238,-84
3145,152,-1552,-504,-128,-241,-79
3150,192,-1584,-488,-155,-244,-69
3155,160,-1584,-496,-177,-245,-56
3160,208,-1656,-480,-194,-248,-42
3165,264,-1680,-488,-204,-256,-30
3170,224,-1712,-440,-209,-265,-17
3175,264,-1752,-408,-206,-273,-6
3180,256,-1784,-400,-195,-283,1
3185,232,-1792,-320,-177,-297,2
3190,216,-1880,-264,-153,-314,0
3195,184,-1936,-240,-126,-337,-2
3200,152,-2016,-200,-93,-363,-8
3205,112,-2048,-128,-53,-390,-9
3210,64,-2072,-136,-7,-411,-14
3215,-8,-2144,-80,42,-419,-9
3220,-24,-2176,-144,95,-422,-8
3225,-64,-2160,-192,144,-425,-3
3230,-80,-2152,-272,183,-421,-1
3235,0,-2160,-272,211,-408,1
3240,24,-2224,-192,242,-382,3
3245,56,-2192,-248,275,-355,2
3250,40,-2200,-320,306,-321,2
3255,96,-2096,-496,321,-279,6
3260,192,-2040,-512,313,-223,16
3265,328,-1976,-560,290,-153,26
3270,488,-1976,-536,267,-82,32
3275,608,-1984,-440,252,-30,23
3280,688,-2048,-304,254,2,2
3285,736,-2072,-176,271,11,-22
3290,720,-2112,-88,301,3,-47
3295,656,-2232,-24,332,-14,-69
3300,576,-2224,-16,361,-29,-89
3305,440,-2296,-136,378,-41,-110
3310,336,-2336,-256,360,-60,-131
3315,176,-2400,-480,290,-88,-158
3320,56,-2432,-776,162,-117,-188
3325,-40,-2488,-1104,-15,-113,-210
3330,-80,-2552,-1232,-211,-60,-224
3335,-40,-2568,-1296,-372,40,-239
3340,32,-2616,-1232,-460,165,-258
3345,152,-2632,-1176,-458,295,-289
3350,288,-2680,-1208,-383,413,-327
3355,384,-2736,-1200,-266,506,-372
3360,392,-2744,-1104,-137,566,-413
3365,400,-2864,-1000,-19,584,-438
3370,328,-2928,-904,86,569,-444
3375,232,-2896,-936,164,528,-430
3380,96,-2824,-1048,215,465,-412
3385,-8,-2712,-1152,257,380,-403
3390,-152,-2528,-1248,320,279,-404
3395,-344,-2360,-1304,402,155,-408
3400,-488,-2176,-1384,487,12,-412
3405,-608,-2032,-1400,550,-140,-404
3410,-664,-1896,-1424,571,-289,-389
3415,-776,-1792,-1440,548,-423,-373
3420,-872,-1656,-1456,494,-534,-357
3425,-968,-1576,-1440,424,-613,-343
3430,-1016,-1592,-1440,356,-652,-326
3435,-968,-1584,-1408,297,-659,-302
3440,-848,-1624,-1360,249,-636,-277
3445,-656,-1704,-1272,215,-594,-256
3450,-464,-1752,-1200,189,-549,-238
3455,-280,-1800,-1152,173,-512,-227
3460,-168,-1792,-1096,155,-482,-222
3465,-64,-1760,-1072,136,-464,-227
3470,0,-1760,-984,124,-448,-234
3475,16,-1744,-928,121,-423,-230
3480,64,-1712,-856,121,-395,-225
3485,104,-1704,-856,119,-364,-212
3490,192,-1720,-808,112,-333,-196
3495,216,-1696,-784,105,-307,-171
3500,264,-1712,-816,96,-289,-144
3505,312,-1696,-824,89,-272,-113
3510,328,-1656,-840,85,-263,-81
3515,304,-1680,-840,88,-260,-49
3520,328,-1648,-784,93,-261,-13
3525,248,-1624,-736,100,-260,18
3530,200,-1568,-720,98,-257,48
3535,168,-1552,-712,95,-250,70
3540,128,-1496,-624,89,-241,87
3545,136,-1512,-624,80,-234,99
3550,56,-1424,-632,68,-230,107
3555,16,-1416,-624,53,-229,115
3560,0,-1360,-616,36,-229,118
3565,-16,-1344,-632,15,-230,120
3570,-80,-1304,-616,-6,-231,117
3575,-80,-1280,-616,-26,-227,115
3580,-104,-1296,-584,-42,-225,112
3585,-120,-1264,-584,-51,-220,106
3590,-144,-1232,-536,-56,-211,99
3595,-144,-1288,-528,-56,-198,93
3600,-136,-1256,-488,-52,-181,81
3605,-128,-1256,-488,-47,-162,69
3610,-120,-1248,-472,-44,-138,52
3615,-96,-1248,-480,-43,-116,37
3620,-88,-1256,-456,-45,-90,23
3625,-112,-1288,-496,-54,-66,9
3630,-96,-1304,-496,-71,-46,-4
3635,-144,-1320,-464,-95,-28,-17
3640,-104,-1344,-480,-120,-16,-26
3645,-128,-1368,-456,-143,-10,-38
3650,-160,-1464,-488,-162,-7,-48
3655,-80,-1488,-480,-180,-10,-57
3660,-128,-1536,-488,-194,-16,-68
3665,-128,-1552,-472,-202,-27,-79
3670,-112,-1600,-464,-207,-41,-91
3675,-144,-1640,-448,-204,-55,-104
3680,-120,-1680,-456,-198,-68,-119
3685,-120,-1736,-448,-184,-81,-133
3690,-136,-1728,-416,-167,-90,-148
3695,-120,-1784,-416,-144,-95,-161
3700,-128,-1792,-424,-119,-96,-178
3705,-128,-1800,-384,-94,-92,-194
3710,-120,-1824,-320,-63,-85,-208
3715,-128,-1840,-304,-32,-75,-221
3720,-120,-1864,-264,-2,-65,-234
3725,-96,-1832,-240,27,-56,-242
3730,-88,-1848,-280,54,-46,-247
3735,-88,-1832,-264,78,-36,-248
3740,-64,-1848,-296,98,-26,-245
3745,-24,-1880,-256,117,-16,-238
3750,0,-1880,-320,135,-7,-230
3755,0,-1912,-280,152,2,-222
3760,16,-1912,-296,175,13,-212
3765,64,-1928,-320,195,26,-202
3770,112,-1944,-312,213,40,-195
3775,152,-1976,-328,233,55,-190
3780,176,-1992,-312,251,76,-187
3785,168,-2016,-344,266,96,-184
3790,184,-2008,-360,271,112,-183
3795,168,-2024,-376,265,118,-178
3800,144,-2040,-384,248,108,-171
3805,120,-2048,-432,231,86,-160
3810,8,-2048,-424,210,53,-143
3815,-112,-2072,-520,187,18,-120
3820,-168,-2080,-416,166,-10,-98
3825,-280,-2120,-344,151,-19,-71
3830,-320,-2176,-200,145,-9,-47
3835,-328,-2256,-144,149,14,-21
3840,-352,-2288,-64,160,46,0
3845,-264,-2376,-32,176,79,18
3850,-232,-2400,0,191,111,35
3855,-176,-2432,40,209,135,50
3860,-88,-2496,40,234,154,67
3865,-72,-2488,120,267,167,88
3870,40,-2544,56,311,178,115
3875,-80,-2544,80,377,187,142
3880,-48,-2536,-8,434,181,151
3885,0,-2496,-160,452,178,167
3890,128,-2464,-336,415,176,184
3895,216,-2432,-616,322,165,200
3900,240,-2344,-1016,183,130,212
3905,104,-2312,-1424,5,61,222
3910,-80,-2344,-1712,-182,-39,240
3915,-248,-2392,-1816,-333,-146,267
3920,-440,-2440,-1720,-426,-236,283
3925,-640,-2528,-1528,-459,-298,298
3930,-856,-2600,-1288,-435,-347,319
3935,-1000,-2608,-1144,-363,-408,330
3940,-1048,-2640,-1120,-274,-488,328
3945,-1048,-2600,-1264,-189,-576,325
3950,-1040,-2552,-1416,-119,-645,341
3955,-1040,-2472,-1552,-61,-670,380
3960,-824,-2328,-1624,-3,-637,429
3965,-584,-2280,-1592,47,-534,461
3970,-216,-2208,-1488,111,-383,468
3975,88,-2072,-1328,178,-212,440
3980,184,-2024,-1320,236,-51,395
3985,312,-1880,-1384,282,76,349
3990,392,-1792,-1472,302,168,313
3995,568,-1656,-1544,291,228,289
4000,816,-1600,-1544,257,258,270
4005,920,-1552,-1552,211,266,245
4010,944,-1592,-1400,172,251,217
4015,896,-1552,-1360,151,221,186
4020,808,-1640,-1184,141,186,154
4025,656,-1744,-1128,129,149,126
4030,512,-1808,-1040,110,108,101
4035,352,-1888,-1008,86,67,81
4040,224,-1928,-1008,72,25,62
4045,80,-1992,-968,71,-13,48
4050,-24,-2000,-920,85,-45,29
4055,-128,-2048,-904,111,-70,5
4060,-248,-2024,-864,142,-93,-29
4065,-368,-2032,-864,177,-110,-73
4070,-440,-1984,-864,211,-125,-127
4075,-456,-1976,-792,241,-138,-188
4080,-520,-1944,-776,268,-150,-249
4085,-520,-1872,-696,289,-165,-310
4090,-504,-1832,-664,303,-177,-362
4095,-464,-1720,-632,312,-194,-410
4100,-368,-1672,-648,318,-213,-442
4105,-248,-1584,-616,312,-230,-463
4110,-184,-1552,-616,298,-243,-477
4115,-120,-1512,-576,268,-250,-485
4120,-40,-1472,-568,234,-255,-488
4125,16,-1392,-560,196,-261,-494
4130,48,-1352,-568,158,-268,-491
4135,136,-1280,-608,120,-275,-485
4140,104,-1248,-576,88,-285,-472
4145,120,-1208,-608,58,-299,-454
4150,144,-1168,-568,34,-320,-433
4155,128,-1160,-560,16,-345,-410
4160,144,-1160,-592,5,-370,-383
4165,144,-1112,-576,-3,-400,-355
4170,144,-1136,-592,-9,-423,-326
4175,136,-1088,-624,-11,-444,-294
4180,168,-1128,-600,-12,-462,-266
4185,136,-1144,-608,-16,-472,-238
4190,160,-1184,-576,-22,-475,-215
4195,176,-1200,-608,-30,-476,-198
4200,184,-1256,-600,-43,-471,-186
4205,192,-1304,-560,-65,-464,-182
4210,248,-1368,-576,-89,-458,-184
4215,256,-1392,-592,-119,-452,-185
4220,256,-1448,-552,-152,-449,-190
4225,280,-1496,-568,-187,-444,-195
4230,296,-1552,-552,-220,-440,-200
4235,304,-1584,-552,-250,-430,-199
4240,272,-1640,-520,-274,-419,-196
4245,256,-1728,-520,-285,-408,-186
4250,272,-1712,-504,-284,-395,-173
4255,248,-1736,-488,-273,-385,-158
4260,224,-1760,-448,-257,-379,-140
4265,200,-1792,-424,-231,-377,-118
4270,176,-1832,-392,-201,-377,-97
4275,128,-1840,-352,-163,-381,-78
4280,112,-1832,-368,-124,-388,-56
4285,40,-1824,-352,-81,-398,-35
4290,56,-1872,-360,-37,-407,-13
4295,32,-1880,-352,7,-417,8
4300,32,-1864,-352,51,-429,26
4305,8,-1864,-304,90,-437,42
4310,8,-1864,-336,127,-446,53
4315,0,-1848,-304,159,-454,63
4320,-24,-1872,-296,185,-466,67
4325,-64,-1840,-336,203,-479,68
4330,-96,-1880,-312,212,-496,67
4335,-112,-1872,-288,216,-519,62
4340,-96,-1888,-232,215,-547,52
4345,-128,-1888,-272,219,-568,50
4350,-152,-1920,-256,216,-587,42
4355,-160,-1896,-232,222,-601,40
4360,-104,-1944,-248,234,-613,39
4365,-120,-1920,-240,241,-612,36
4370,-72,-1952,-288,239,-591,39
4375,-56,-1928,-368,225,-559,37
4380,0,-1912,-472,190,-513,32
4385,56,-1896,-560,128,-456,22
4390,128,-1912,-584,56,-396,8
4395,216,-1912,-560,-11,-348,-13
4400,304,-1976,-512,-53,-316,-28
4405,344,-2032,-392,-59,-300,-39
4410,312,-2128,-240,-38,-297,-45
4415,344,-2128,-192,2,-305,-51
4420,272,-2200,-128,52,-320,-56
4425,176,-2304,-56,106,-336,-66
4430,88,-2352,0,160,-355,-79
4435,0,-2376,-16,208,-369,-93
4440,-24,-2440,-24,248,-381,-114
4445,-120,-2440,8,284,-384,-138
4450,-136,-2480,24,317,-383,-163
4455,-208,-2456,48,354,-383,-190
4460,-272,-2480,64,395,-395,-218
4465,-232,-2448,120,430,-420,-247
4470,-240,-2408,176,459,-452,-275
4475,-224,-2352,128,478,-491,-299
4480,-248,-2312,24,482,-529,-319
4485,-264,-2216,-144,441,-565,-334
4490,-264,-2152,-376,344,-594,-344
4495,-200,-2104,-816,180,-601,-350
4500,-64,-2104,-1328,-42,-570,-359
4505,144,-2104,-1624,-281,-501,-372
4510,376,-2112,-1736,-488,-397,-385
4515,560,-2088,-1720,-605,-270,-391
4520,808,-2216,-1624,-609,-140,-403
4525,1024,-2360,-1504,-533,-9,-425
4530,1072,-2528,-1352,-418,119,-451
4535,1000,-2592,-1296,-311,238,-474
4540,904,-2624,-1280,-247,335,-478
4545,760,-2632,-1336,-244,412,-462
4550,608,-2656,-1360,-267,465,-443
4555,448,-2680,-1344,-262,493,-428
4560,312,-2632,-1296,-201,484,-427
4565,184,-2608,-1272,-87,436,-441
4570,8,-2432,-1248,63,349,-460
4575,-232,-2344,-1208,208,227,-468
4580,-448,-2168,-1256,325,80,-458
4585,-600,-1992,-1280,398,-65,-428
4590,-728,-1840,-1392,425,-188,-382
4595,-736,-1784,-1400,412,-278,-328
4600,-768,-1728,-1384,368,-339,-277
4605,-672,-1744,-1384,309,-372,-230
4610,-544,-1760,-1328,241,-388,-189
4615,-392,-1752,-1224,170,-396,-158
4620,-288,-1784,-1192,105,-395,-130
4625,-88,-1832,-1096,54,-389,-104
4630,32,-1864,-1008,17,-369,-84
4635,136,-1880,-952,-4,-334,-66
4640,184,-1896,-904,-11,-282,-53
4645,264,-1920,-840,-12,-216,-39
4650,288,-1976,-824,-6,-143,-25
4655,352,-1976,-800,10,-72,-10
4660,392,-1976,-720,31,-8,7
4665,416,-1992,-736,64,42,26
4670,400,-1960,-800,104,79,51
4675,392,-1952,-816,152,101,79
4680,360,-1888,-792,202,116,106
4685,328,-1840,-744,252,124,133
4690,248,-1808,-712,297,130,160
4695,200,-1736,-720,325,130,178
4700,152,-1680,-680,334,124,190
4705,112,-1608,-640,334,117,200
4710,32,-1528,-632,321,104,205
4715,0,-1464,-680,298,96,209
4720,-56,-1400,-672,267,90,214
4725,-48,-1312,-632,233,84,218
4730,-120,-1240,-624,199,76,220
4735,-96,-1208,-560,165,65,220
4740,-80,-1192,-568,131,55,218
4745,-104,-1176,-576,95,47,210
4750,-120,-1144,-520,55,38,201
4755,-120,-1152,-496,18,32,191
4760,-104,-1120,-512,-10,28,181
4765,-104,-1128,-472,-32,27,167
4770,-72,-1168,-496,-46,30,153
4775,-72,-1152,-520,-55,38,141
4780,-80,-1192,-528,-63,48,127
4785,-48,-1184,-544,-66,65,115
4790,0,-1232,-544,-64,85,100
4795,8,-1272,-520,-62,109,85
4800,0,-1296,-544,-58,133,73
4805,8,-1328,-536,-52,155,60
4810,-8,-1352,-504,-46,172,49
4815,-24,-1392,-496,-43,180,39
4820,-40,-1400,-512,-49,183,30
4825,-88,-1448,-488,-59,183,26
4830,-96,-1512,-424,-70,180,24
4835,-136,-1512,-448,-79,177,27
4840,-168,-1536,-408,-95,175,31
4845,-168,-1552,-384,-113,170,33
4850,-152,-1584,-400,-127,164,31
4855,-168,-1560,-352,-138,161,26
4860,-144,-1632,-352,-138,160,19
4865,-144,-1648,-328,-135,163,8
4870,-144,-1648,-328,-126,169,-7
4875,-120,-1680,-296,-111,177,-26
4880,-96,-1688,-304,-90,190,-49
4885,-48,-1696,-280,-67,205,-71
4890,16,-1720,-192,-42,224,-92
4895,8,-1728,-168,-14,246,-112
4900,8,-1712,-208,15,267,-132
4905,24,-1704,-176,50,288,-149
4910,32,-1704,-224,85,304,-166
4915,48,-1744,-232,114,319,-180
4920,56,-1720,-248,137,332,-191
4925,56,-1728,-264,155,345,-200
4930,96,-1736,-248,168,356,-207
4935,96,-1736,-232,178,368,-214
4940,120,-1768,-272,185,377,-220
4945,120,-1776,-280,187,387,-225
4950,128,-1800,-256,189,396,-232
4955,112,-1784,-296,183,406,-233
4960,152,-1824,-336,180,411,-236
4965,144,-1896,-264,175,421,-231
4970,136,-1904,-272,183,417,-234
4975,96,-1960,-264,186,413,-233
4980,112,-1984,-296,184,403,-230
4985,64,-2056,-296,179,393,-229
4990,24,-2104,-320,170,375,-223
4995,88,-2152,-296,154,344,-218
5000,-8,-2120,-376,140,303,-205
5005,-88,-2216,-376,129,253,-185
5010,-232,-2240,-392,126,211,-157
5015,-352,-2320,-328,123,183,-122
5020,-344,-2344,-240,132,163,-104
5025,-296,-2352,-160,144,170,-90
5030,-320,-2472,-16,157,197,-71
5035,-200,-2456,-8,176,223,-55
5040,-256,-2528,32,192,263,-24
5045,-208,-2576,56,210,274,-19
5050,-200,-2648,136,225,286,-6
5055,-104,-2680,120,248,283,5
5060,-112,-2768,184,274,285,30
5065,-56,-2784,240,309,275,56
5070,16,-2816,256,350,271,82
5075,32,-2760,224,401,276,106
5080,56,-2776,128,441,289,133
5085,128,-2704,-96,444,304,156
5090,384,-2616,-440,391,306,157
5095,512,-2528,-696,287,299,137
5100,512,-2440,-1240,129,268,105
5105,280,-2360,-1832,-87,209,76
5110,64,-2368,-2264,-325,129,61
5115,-192,-2456,-2264,-533,58,63
5120,-384,-2440,-2160,-643,-27,48
5125,-584,-2456,-1920,-639,-129,26
5130,-920,-2416,-1680,-545,-251,32
5135,-1136,-2328,-1608,-396,-394,75
5140,-1120,-2264,-1672,-242,-542,145
5145,-1032,-2176,-1760,-126,-658,239
5150,-904,-2064,-1928,-70,-695,340
5155,-776,-1968,-1976,-59,-631,428
5160,-440,-1952,-1952,-56,-490,482
5165,16,-1856,-1968,-62,-315,498
5170,360,-1880,-1944,-87,-156,476
5175,680,-1880,-1920,-108,-38,435
5180,904,-1856,-1864,-105,23,383
5185,1032,-1872,-1864,-83,45,326
5190,1040,-1912,-1856,-61,49,266
5195,976,-1960,-1856,-64,46,207
5200,936,-2048,-1696,-88,48,150
5205,872,-2136,-1496,-112,53,95
5210,768,-2256,-1256,-118,54,41
5215,664,-2376,-1152,-106,30,-15
5220,560,-2432,-1144,-95,-11,-65
5225,424,-2480,-1152,-93,-56,-103
5230,288,-2520,-1192,-104,-94,-135
5235,192,-2488,-1208,-108,-119,-167
5240,112,-2392,-1224,-89,-129,-203
5245,80,-2320,-1176,-46,-126,-241
5250,16,-2208,-1120,19,-113,-287
5255,-88,-2072,-1080,93,-97,-337
5260,-88,-1968,-960,163,-81,-391
5265,-144,-1808,-864,222,-70,-449
5270,-144,-1664,-840,265,-68,-499
5275,-144,-1568,-824,288,-78,-537
5280,-96,-1432,-832,295,-90,-565
5285,-16,-1312,-752,282,-98,-581
5290,16,-1192,-808,251,-98,-590
5295,112,-1160,-800,207,-98,-593
5300,152,-1096,-808,147,-90,-591
5305,232,-1040,-768,75,-79,-578
5310,272,-1016,-776,0,-69,-561
5315,344,-960,-712,-71,-63,-537
5320,368,-1000,-712,-137,-60,-509
5325,456,-1016,-616,-199,-61,-476
5330,440,-1024,-600,-256,-71,-441
5335,448,-1064,-544,-312,-89,-406
5340,448,-1096,-528,-354,-117,-372
5345,400,-1136,-528,-383,-154,-339
5350,408,-1160,-520,-399,-195,-309
5355,392,-1264,-528,-403,-237,-285
5360,352,-1336,-488,-396,-282,-266
5365,312,-1408,-488,-379,-323,-252
5370,256,-1416,-504,-361,-363,-239
5375,240,-1480,-520,-345,-400,-228
5380,176,-1528,-536,-336,-432,-221
5385,128,-1600,-504,-325,-457,-211
5390,112,-1640,-496,-309,-478,-204
5395,64,-1648,-496,-284,-497,-197
5400,72,-1672,-496,-250,-511,-188
5405,8,-1680,-480,-220,-515,-174
5410,0,-1712,-456,-191,-530,-158
5415,0,-1656,-488,-163,-553,-155
5420,-24,-1672,-496,-146,-578,-146
5425,-16,-1624,-520,-139,-610,-140
5430,0,-1568,-528,-148,-644,-131
5435,-8,-1624,-544,-169,-674,-128
5440,-64,-1600,-544,-195,-703,-124
5445,-136,-1632,-528,-235,-731,-130
5450,56,-1616,-568,-311,-797,-192
5455,104,-1608,-608,-328,-767,-184
5460,112,-1616,-592,-333,-735,-155
5465,80,-1600,-576,-324,-717,-142
5470,120,-1608,-560,-307,-704,-143
5475,152,-1608,-584,-286,-697,-149
5480,184,-1616,-560,-262,-695,-156
5485,176,-1568,-560,-238,-702,-163
5490,256,-1656,-552,-213,-717,-173
5495,272,-1672,-560,-188,-733,-182
5500,288,-1704,-552,-164,-746,-195
5505,280,-1744,-592,-143,-755,-211
5510,256,-1792,-616,-123,-756,-230
5515,224,-1808,-640,-99,-751,-251
5520,192,-1856,-640,-69,-740,-268
5525,200,-1864,-656,-39,-727,-288
5530,200,-1904,-656,-9,-708,-304
5535,200,-1904,-632,21,-690,-317
5540,200,-1992,-584,49,-678,-334
5545,216,-1944,-584,70,-673,-353
5550,264,-1952,-640,81,-679,-374
5555,240,-1944,-648,87,-693,-392
5560,240,-1952,-624,89,-714,-406
5565,232,-1936,-664,93,-738,-417
5570,232,-1952,-656,96,-760,-422
5575,200,-1936,-656,100,-782,-431
5580,224,-1928,-632,105,-805,-436
5585,200,-1864,-648,107,-820,-438
5590,232,-1888,-616,106,-827,-436
5595,192,-1808,-752,98,-822,-432
5600,184,-1880,-688,84,-808,-430
5605,168,-1888,-728,66,-787,-433
5610,160,-1888,-760,47,-767,-436
5615,168,-1936,-752,31,-750,-440
5620,176,-1920,-792,12,-742,-444
5625,120,-1968,-824,-20,-741,-451
5630,112,-2040,-856,-99,-779,-495
5635,224,-1976,-992,-168,-770,-516
5640,216,-2016,-1032,-219,-743,-497
5645,232,-1976,-1024,-269,-720,-486
5650,256,-2016,-1104,-321,-689,-478
5655,312,-2064,-1152,-369,-647,-472
5660,320,-2072,-1200,-414,-601,-468
5665,368,-2088,-1336,-460,-554,-463
5670,432,-2128,-1400,-516,-503,-458
5675,464,-2176,-1440,-584,-448,-456
5680,536,-2240,-1544,-662,-386,-455
5685,640,-2320,-1568,-745,-316,-464
5690,680,-2472,-1672,-819,-242,-468
5695,688,-2592,-1696,-867,-164,-476
5700,680,-2744,-1752,-899,-88,-496
5705,616,-2992,-1736,-927,-13,-512
5710,504,-2952,-1872,-969,39,-586
5715,544,-2968,-1928,-1058,117,-638
5720,384,-2944,-1912,-1087,219,-564
5725,264,-2776,-1864,-1088,265,-535
5730,184,-2584,-1768,-1056,279,-490
5735,32,-2432,-1608,-974,257,-429
5740,8,-2112,-1472,-854,198,-371
5745,-24,-1976,-1328,-722,119,-283
5750,-88,-1776,-1224,-592,8,-207
5755,-200,-1576,-1152,-482,-127,-156
5760,-280,-1440,-1184,-411,-279,-117
5765,-328,-1296,-1224,-370,-442,-86
5770,-360,-1208,-1288,-338,-595,-62
5775,-384,-1104,-1376,-300,-728,-41
5780,-384,-1024,-1384,-256,-833,-21
5785,-424,-1000,-1384,-222,-904,0
5790,-416,-1024,-1264,-199,-940,26
5795,-376,-992,-1248,-183,-942,60
5800,-240,-1000,-1160,-184,-918,95
5805,-56,-1064,-1080,-200,-875,128
5810,104,-1112,-952,-227,-811,153
5815,320,-1184,-1032,-263,-730,168
5820,440,-1288,-1032,-316,-636,171
5825,520,-1392,-1016,-371,-540,159
5830,536,-1520,-1072,-410,-459,131
5835,504,-1632,-1160,-426,-402,91
5840,432,-1720,-1224,-419,-368,44
5845,328,-1752,-1344,-394,-356,-7
5850,144,-1752,-1368,-344,-356,-60
5855,-48,-1728,-1328,-264,-369,-109
5860,-160,-1664,-1320,-163,-390,-148
5865,-264,-1696,-1256,-56,-419,-187
5870,-320,-1592,-1256,45,-447,-220
5875,-368,-1568,-1224,117,-476,-253
5880,-368,-1520,-1240,161,-504,-283
5885,-384,-1480,-1208,177,-529,-306
5890,-376,-1440,-1192,161,-550,-322
5895,-312,-1448,-1160,138,-573,-330
5900,-288,-1416,-1128,114,-600,-332
5905,-264,-1392,-1120,87,-625,-334
5910,-264,-1448,-1104,63,-653,-326
5915,-272,-1504,-1112,52,-692,-315
5920,-328,-1496,-1160,46,-739,-302
5925,-288,-1496,-1184,38,-786,-286
5930,-264,-1496,-1192,28,-823,-265
5935,-216,-1496,-1184,24,-839,-240
5940,-168,-1488,-1136,36,-834,-216
5945,-176,-1504,-1024,65,-810,-185
5950,-224,-1496,-944,127,-792,-157
5955,-200,-1520,-960,198,-777,-133
5960,-200,-1480,-960,251,-757,-109
5965,-168,-1448,-968,283,-732,-84
5970,-160,-1440,-864,305,-708,-58
5975,-184,-1392,-824,345,-694,-31
5980,-208,-1352,-720,399,-686,-2
5985,-208,-1272,-640,460,-679,31
5990,-208,-1184,-616,521,-670,68
5995,-200,-1176,-544,572,-657,117
6000,-160,-1152,-528,623,-647,171
6005,-176,-1088,-416,675,-646,227
6010,-192,-976,-392,721,-646,283
6015,-152,-888,-416,749,-642,338
6020,-16,-784,-448,753,-610,394
6025,16,-712,-368,764,-537,446
6030,208,-528,-184,817,-438,486
6035,352,-360,-128,912,-330,517
6040,512,-224,-104,1024,-221,534
6045,648,-144,-16,1116,-125,550
6050,744,-96,-24,1178,-45,563
6055,840,-16,16,1210,12,570
6060,888,8,56,1218,43,573
6065,880,184,80,1213,51,582
6070,864,280,56,1201,62,608
6075,800,360,40,1185,85,637
6080,664,360,0,1159,123,659
6085,568,376,-64,1117,177,662
6090,464,432,-136,1067,238,644
6095,320,512,-256,1005,292,606
6100,200,568,-368,932,335,560
6105,80,584,-536,853,354,513
6110,-24,528,-664,763,349,465
6115,-136,424,-744,665,326,424
6120,-312,256,-816,559,285,393
6125,-416,152,-904,453,236,380
6130,-488,-16,-1024,341,193,386
6135,-488,-312,-1184,214,166,404
6140,-416,-536,-1480,62,142,436
6145,-152,-784,-1728,-107,117,470
6150,88,-968,-2008,-277,84,493
6155,424,-1240,-2432,-454,18,504
6160,656,-1632,-2696,-653,-118,493
6165,712,-2032,-2904,-849,-346,474
6170,640,-2520,-2760,-983,-636,477
6175,464,-2904,-2520,-996,-934,535
6180,328,-3400,-2208,-862,-1217,662
6185,232,-3664,-2032,-646,-1449,834
6190,304,-3720,-1928,-390,-1623,1020
6195,528,-3552,-1824,-124,-1737,1184
6200,616,-3312,-1736,154,-1817,1279
6205,712,-2936,-1560,423,-1861,1304
6210,736,-2584,-1320,641,-1840,1269
6215,624,-2256,-1064,801,-1741,1195
6220,512,-1936,-752,913,-1601,1083
6225,512,-1664,-608,987,-1439,958
6230,480,-1248,-416,1039,-1260,849
6235,496,-896,-296,1068,-1030,769
6240,552,-664,-216,1069,-845,728
6245,744,-624,-184,1031,-693,726
6250,928,-496,-232,968,-618,733
6255,1088,-512,-320,860,-623,729
6260,1072,-536,-304,727,-682,699
6265,952,-688,-224,604,-717,660
6270,584,-768,-120,572,-744,642
6275,352,-848,-136,544,-791,609
6280,16,-1024,-248,493,-867,571
6285,-296,-1248,-344,419,-975,540
6290,-536,-1288,-424,338,-1106,517
6295,-752,-1272,-528,262,-1241,495
6300,-856,-1272,-576,201,-1366,464
6305,-992,-1168,-712,172,-1453,431
6310,-1040,-1056,-752,177,-1497,403
6315,-920,-856,-808,212,-1501,370
6320,-832,-584,-848,266,-1470,337
6325,-752,-408,-872,319,-1418,316
6330,-520,-168,-888,351,-1360,315
6335,-176,8,-1008,342,-1316,332
6340,304,112,-1088,269,-1297,373
6345,680,128,-1224,129,-1294,419
6350,928,0,-1240,-43,-1305,471
6355,1064,-192,-1424,-194,-1321,526
6360,1144,-312,-1640,-318,-1316,562
6365,1192,-440,-1848,-444,-1270,568
6370,1200,-512,-2056,-580,-1162,535
6375,1168,-640,-2112,-710,-1022,480
6380,840,-896,-2136,-841,-875,396
6385,960,-1248,-2128,-982,-749,266
6390,840,-1608,-1992,-1037,-592,217
6395,720,-1824,-1656,-1009,-440,197
6400,616,-1840,-1456,-943,-294,162
6405,528,-1720,-1256,-883,-179,119
6410,416,-1536,-1080,-837,-115,97
6415,192,-1328,-800,-794,-121,100
6420,-72,-1232,-464,-728,-215,126
6425,-256,-1160,-216,-642,-397,163
6430,-472,-1144,0,-559,-645,191
6435,-640,-1088,8,-503,-916,210
6440,-944,-1136,-64,-479,-1167,206
6445,-1160,-1144,-152,-470,-1356,182
6450,-1288,-1168,-232,-461,-1478,147
6455,-1216,-1200,-432,-477,-1573,62
6460,-1280,-1288,-352,-418,-1564,74
6465,-1288,-1320,-272,-288,-1577,73
6470,-1224,-1400,-192,-187,-1600,41
6475,-1152,-1392,-88,-99,-1634,18
6480,-992,-1360,-192,-23,-1685,2
6485,-840,-1520,256,50,-1753,-18
6490,-1008,-1376,24,87,-1867,-37
6495,-680,-1072,-144,26,-2063,-155
6500,-816,-1016,-336,67,-2159,-110
6505,-976,-944,-320,202,-2291,-35
6510,-1152,-1000,-232,377,-2437,12
6515,-1192,-1160,-104,557,-2567,36
6520,-1264,-1320,-120,732,-2685,32
6525,-1296,-1416,-112,884,-2785,-3
6530,-1072,-1920,-96,1022,-2863,-75
6535,-1072,-2304,-440,1079,-2939,-210
6540,-1336,-3088,-424,1133,-3086,-351
6545,-1896,-3992,-944,1216,-3305,-512
6550,-2760,-4816,-1312,1234,-3611,-672
6555,-4032,-6216,-1048,1212,-3935,-781
6560,-5576,-7520,-1440,1127,-4136,-881
6565,-7760,-7680,-1896,796,-4122,-957
6570,-9016,-6984,-2360,265,-3870,-862
6575,-11064,-7112,-2104,-275,-3433,-554
6580,-11032,-7128,-2616,-681,-3286,-331
6585,-9032,-8256,-3048,-553,-3152,25
6590,-6216,-9296,-2696,-53,-3021,200
6595,-4920,-9448,-2240,895,-2894,496
6600,-4288,-8872,-2216,2032,-2794,905
6605,-4016,-7408,-2272,2886,-2666,1314
6610,-3632,-6000,-2288,3375,-2487,1709
6615,-3016,-5064,-2136,3745,-2299,2091
6620,-2304,-4304,-1448,4122,-2158,2466
6625,-1672,-3552,-976,4437,-2119,2790
6630,-1088,-2360,-976,4522,-2195,3011
6635,-496,-880,-696,4352,-2266,3163
6640,272,-656,504,3999,-2146,3307
6645,824,-616,592,3837,-1796,3342
6650,1184,-440,-24,3667,-1501,3244
6655,1288,-176,-792,3328,-1285,3111
6660,1232,-392,-736,2965,-1080,3039
6665,1320,-824,-584,2781,-842,2993
6670,1392,-1064,-592,2733,-630,2930
6675,1264,-1200,-600,2686,-428,2878
6680,1056,-1288,-512,2576,-204,2852
6685,800,-1240,-432,2411,32,2850
6690,592,-1168,-400,2227,253,2875
6695,424,-1040,-360,2054,421,2908
6700,200,-896,-408,1912,530,2958
6705,-8,-712,-368,1782,593,3020
6710,-360,-616,-64,1664,638,3090
6715,-544,-576,112,1583,653,3164
6720,-600,-592,152,1520,628,3233
6725,-560,-512,144,1440,563,3306
6730,-328,-432,136,1386,512,3357
6735,-200,-296,256,1371,474,3375
6740,-312,-200,368,1391,444,3348
6745,-632,-232,264,1391,392,3305
6750,-776,-320,288,1342,291,3279
6755,-1096,-456,368,1319,184,3266
6760,-1208,-616,544,1349,85,3258
6765,-984,-856,712,1428,-7,3229
6770,-856,-1000,736,1531,-82,3149
6775,-952,-1016,656,1596,-167,3067
6780,-960,-984,648,1618,-259,2987
6785,-1192,-856,680,1577,-315,2903
6790,-1608,-704,960,1500,-361,2807
6795,-2248,-496,1320,1405,-443,2697
6800,-2648,-376,1608,1291,-591,2569
6805,-2712,-72,1848,1187,-814,2473
6810,-2392,120,1768,1090,-1056,2424
6815,-2520,120,1528,966,-1294,2390
6820,-1688,-8,1576,823,-1529,2347
6825,-1424,-104,1680,749,-1690,2268
6830,-1272,-56,1784,735,-1794,2188
6835,-1064,-24,1848,731,-1854,2103
6840,-1056,40,1824,708,-1856,2014
6845,-1168,40,1656,635,-1811,1917
6850,-928,96,1656,508,-1690,1807
6855,-1184,208,1576,388,-1517,1674
6860,-1264,328,1648,299,-1353,1558
6865,-1568,416,1712,256,-1212,1448
6870,-1592,456,1888,247,-1102,1334
6875,-1816,464,1848,253,-980,1207
6880,-1928,528,1776,242,-825,1091
6885,-2000,608,1568,215,-646,973
6890,-2056,616,1520,195,-480,868
6895,-2072,544,1528,183,-382,765
6900,-2120,440,1544,174,-347,670
6905,-2112,280,1496,161,-354,599
6910,-2104,256,1440,169,-365,547
6915,-2112,112,1488,213,-351,535
6920,-2128,136,1488,284,-339,508
6925,-2120,96,1464,388,-284,471
6930,-2064,48,1504,505,-122,485
6935,-2040,480,1104,636,5,446
6940,-2160,16,1304,601,222,416
6945,-2088,224,1072,634,329,370
6950,-2136,304,1088,603,455,313
6955,-1984,504,952,642,464,260
6960,-1344,904,696,641,453,170
6965,-2040,592,920,604,454,136
6970,-1808,856,864,602,374,102
6975,-2080,752,800,597,259,110
6980,-1568,1136,664,616,89,36
6985,-1808,1040,888,538,43,49
6990,-1864,1064,808,489,-91,45
6995,-1808,1080,824,407,-188,-33
7000,-1824,1184,696,315,-204,-74
7005,-1856,1192,560,234,-131,-47
7010,-2072,1144,408,179,-3,-1
7015,-2112,1096,384,160,106,-11
7020,-2008,1032,520,170,181,-51
7025,-1888,968,680,185,211,-98
7030,-1760,904,840,171,199,-145
7035,-1760,760,1040,126,171,-155
7040,-1592,656,1032,87,116,-174
7045,-1576,640,1024,46,76,-165
7050,-1560,600,952,2,7,-184
7055,-1480,624,936,-30,-51,-208
7060,-1464,648,944,-55,-63,-228
7065,-1352,552,1016,-71,-79,-227
7070,-1344,480,1016,-79,-97,-236
7075,-1288,432,1072,-85,-111,-247
7080,-1224,424,1048,-91,-125,-263
7085,-1280,400,1064,-99,-129,-278
7090,-1344,384,1152,-97,-126,-287
7095,-1360,448,1128,-79,-114,-291
7100,-1456,376,1224,-51,-95,-293
7105,-1496,392,1232,-26,-80,-294
7110,-1488,416,1288,-10,-73,-300
7115,-1520,400,1344,6,-69,-317
7120,-1528,328,1464,33,-74,-341
7125,-1512,312,1528,64,-72,-367
7130,-1528,320,1640,97,-54,-385
7135,-1384,368,1648,127,-48,-399
7140,-1272,352,1704,150,-36,-407
7145,-1248,376,1728,174,-21,-411
7150,-1152,344,1680,191,-3,-412
7155,-1224,288,1656,201,27,-408
7160,-1192,168,1584,204,37,-421
7165,-1240,64,1544,212,53,-435
7170,-1288,-8,1496,232,69,-446
7175,-1304,-64,1408,263,90,-458
7180,-1368,-48,1384,302,115,-469
7185,-1456,-72,1352,349,143,-478
7190,-1512,-104,1392,403,172,-486
7195,-1608,-112,1432,462,201,-493
7200,-1688,-64,1400,515,231,-497
7205,-1680,-88,1496,556,263,-495
7210,-1680,-24,1424,579,293,-492
7215,-1688,0,1400,590,319,-494
7220,-1672,8,1352,593,348,-505
7225,-1712,0,1312,593,384,-521
7230,-1768,-8,1320,594,423,-539
7235,-1792,-32,1320,605,455,-564
7240,-1816,-72,1376,604,479,-588
7245,-1760,-104,1376,597,496,-611
7250,-1720,-104,1336,581,501,-636
7255,-1768,-112,1360,571,502,-667
7260,-1888,-144,1376,590,502,-703
7265,-2032,-168,1336,621,504,-747
7270,-2064,-272,1336,663,501,-790
7275,-2160,-264,1280,710,502,-842
7280,-2064,-344,1248,733,513,-891
7285,-2080,-384,1160,771,540,-943
7290,-2136,-456,1008,817,581,-992
7295,-2272,-504,912,865,613,-1036
7300,-2272,-592,960,932,627,-1057
7305,-2248,-576,984,1042,647,-1072
7310,-2208,-528,1160,1172,671,-1062
7315,-2208,-448,1200,1271,688,-1031
7320,-2024,-336,1192,1332,686,-969
7325,-1856,-80,1208,1344,672,-914
7330,-1808,-136,1304,1275,628,-855
7335,-1656,112,1312,1287,550,-816
7340,-1608,224,1304,1295,469,-783
7345,-1360,352,1136,1301,374,-777
7350,-1264,464,904,1303,291,-795
7355,-1152,496,760,1269,225,-833
7360,-1216,592,512,1238,174,-845
7365,-1336,672,280,1225,150,-893
7370,-1408,848,8,1204,166,-906
7375,-1704,904,8,1159,212,-885
7380,-1808,928,-80,1118,261,-843
7385,-1904,840,8,1049,354,-804
7390,-2048,744,208,971,463,-776
7395,-2152,672,336,866,572,-759
7400,-2392,576,528,740,679,-728
7405,-2488,400,808,606,784,-732
7410,-2568,128,936,523,855,-735
7415,-2424,72,848,496,871,-729
7420,-2256,104,736,431,845,-739
7425,-2104,88,656,331,778,-772
7430,-2064,48,528,219,690,-796
7435,-2072,80,336,136,595,-781
7440,-2032,120,120,52,509,-796
7445,-2096,128,-104,-14,445,-784
7450,-2120,168,-168,-73,387,-750
7455,-2232,216,-192,-130,325,-706
7460,-2264,128,-192,-201,251,-660
7465,-2320,40,-120,-277,170,-624
7470,-2336,-72,-16,-342,87,-593
7475,-2368,-232,0,-400,9,-562
7480,-2456,-336,80,-456,-60,-525
7485,-2488,-496,88,-502,-123,-493
7490,-2480,-600,136,-542,-183,-468
7495,-2456,-752,136,-569,-233,-450
7500,-2312,-840,16,-584,-266,-442
7505,-2360,-904,32,-597,-270,-440
7510,-2440,-1000,32,-590,-259,-426
7515,-2400,-1096,72,-556,-255,-402
7520,-2360,-1160,136,-512,-262,-369
7525,-2296,-1176,208,-482,-293,-334
7530,-2240,-1272,248,-454,-338,-298
7535,-2144,-1200,336,-412,-400,-247
7540,-2064,-1184,328,-347,-469,-192
7545,-1984,-1040,408,-264,-542,-131
7550,-1808,-920,368,-186,-613,-76
7555,-1704,-776,480,-129,-671,-25
7560,-1592,-624,568,-86,-706,27
7565,-1576,-584,680,-58,-715,80
7570,-1616,-608,808,-47,-694,141
7575,-1616,-624,896,-50,-654,197
7580,-1720,-656,1072,-68,-598,250
7585,-1784,-744,1080,-87,-545,294
7590,-1800,-776,1096,-106,-501,326
7595,-1792,-792,1088,-128,-468,347
7600,-1728,-808,1032,-153,-446,360
7605,-1640,-800,1040,-174,-434,361
7610,-1504,-760,992,-189,-432,353
7615,-1448,-720,952,-200,-433,335
7620,-1352,-656,928,-196,-441,311
7625,-1328,-592,920,-187,-446,293
7630,-1296,-560,920,-177,-453,274
7635,-1264,-552,896,-162,-459,259
7640,-1328,-544,880,-149,-465,246
7645,-1312,-576,880,-142,-478,236
7650,-1288,-640,856,-142,-487,226
7655,-1312,-696,848,-136,-489,216
7660,-1336,-728,840,-123,-485,206
7665,-1336,-736,864,-101,-478,190
7670,-1368,-776,880,-80,-468,171
7675,-1424,-720,920,-61,-454,156
7680,-1408,-744,952,-40,-435,141
7685,-1456,-688,960,-12,-415,123
7690,-1464,-656,1016,19,-398,101
7695,-1480,-600,1016,49,-382,81
7700,-1480,-592,1000,75,-369,58
7705,-1472,-576,1032,93,-359,36
7710,-1488,-544,1048,105,-350,13
7715,-1480,-520,1008,112,-339,-10
7720,-1512,-512,1024,112,-325,-28
7725,-1504,-496,1008,107,-307,-43
7730,-1504,-496,1032,101,-285,-56
7735,-1544,-464,1024,98,-260,-68
7740,-1608,-472,1040,96,-235,-75
7745,-1600,-456,1120,94,-211,-81
7750,-1672,-488,1088,94,-191,-85
7755,-1672,-488,1088,91,-173,-85
7760,-1720,-496,1040,87,-153,-87
7765,-1760,-512,1032,87,-131,-89
7770,-1792,-504,1040,93,-104,-90
7775,-1808,-504,1056,103,-80,-91
7780,-1840,-448,1056,118,-57,-92
7785,-1848,-352,1080,136,-35,-92
7790,-1816,-368,1072,154,-17,-88
7795,-1840,-344,1056,161,0,-84
7800,-1776,-360,1048,161,16,-77
7805,-1776,-320,976,159,33,-73
7810,-1760,-280,928,159,44,-65
7815,-1776,-248,952,160,48,-53
7820,-1792,-184,904,162,50,-38
7825,-1792,-168,896,162,46,-23
7830,-1800,-120,928,165,39,-2
7835,-1840,-112,920,171,27,14
7840,-1864,-120,944,175,17,32
7845,-1848,-120,960,180,6,43
7850,-1840,-128,960,182,-2,56
7855,-1920,-152,976,184,-5,62
7860,-1856,-120,992,182,-7,67
7865,-1864,-160,1000,177,-9,69
7870,-1888,-144,984,173,-7,68
7875,-1864,-152,984,168,-6,69
7880,-1856,-168,992,162,-5,72
7885,-1872,-160,1000,161,-5,71
7890,-1840,-144,960,161,-3,69
7895,-1856,-144,944,159,-1,69
7900,-1848,-152,960,155,4,71
7905,-1840,-128,936,152,8,68
7910,-1840,-168,960,148,12,65
7915,-1816,-144,984,147,14,62
7920,-1784,-144,976,146,13,60
7925,-1768,-136,968,143,13,57
7930,-1752,-160,960,137,11,57
7935,-1736,-152,984,131,7,57
7940,-1720,-168,976,125,6,55
7945,-1728,-192,992,117,3,53
7950,-1744,-184,1000,108,2,50
7955,-1712,-192,1016,101,2,45
7960,-1712,-224,1000,96,0,39
7965,-1704,-200,1016,91,-2,35
7970,-1704,-208,1016,89,-4,32
7975,-1752,-208,992,86,-3,27
7980,-1736,-232,1024,83,0,22
7985,-1744,-224,1024,82,6,18
7990,-1752,-224,1040,83,12,13
7995,-1744,-232,1000,87,21,6
8000,-1720,-264,1032,91,30,0
8005,-1744,-208,984,93,39,-6
8010,-1736,-232,976,96,44,-11
8015,-1728,-256,968,97,48,-17
8020,-1720,-248,960,97,47,-21
8025,-1752,-232,960,99,46,-27
8030,-1760,-232,968,100,44,-31
8035,-1760,-232,984,100,40,-32
8040,-1760,-240,1000,99,40,-34
8045,-1752,-232,1008,95,42,-38
8050,-1712,-272,1000,90,47,-40
8055,-1752,-272,976,81,52,-43
8060,-1744,-264,968,75,55,-43
8065,-1744,-240,944,70,58,-44
8070,-1720,-320,1016,67,59,-45
8075,-1744,-264,944,67,58,-46
8080,-1752,-280,936,70,54,-44
8085,-1752,-280,952,75,48,-42
8090,-1768,-304,968,80,41,-40
8095,-1784,-304,976,85,36,-37
8100,-1776,-312,960,89,34,-34
8105,-1808,-320,976,94,32,-33
8110,-1800,-312,968,100,33,-30
8115,-1792,-336,968,103,35,-29
8120,-1784,-344,976,103,38,-29
8125,-1768,-352,952,102,42,-30
8130,-1768,-320,952,102,47,-31
8135,-1776,-360,944,101,51,-33
8140,-1768,-328,944,100,56,-32
8145,-1760,-368,936,100,59,-31
8150,-1776,-344,936,99,59,-29
8155,-1760,-360,936,102,58,-28
8160,-1776,-352,920,106,54,-25
8165,-1760,-344,944,110,48,-21
8170,-1752,-344,960,115,41,-19
8175,-1744,-360,920,119,34,-16
8180,-1752,-352,936,124,26,-16
8185,-1776,-304,928,125,22,-16
8190,-1768,-320,904,126,20,-17
8195,-1760,-296,920,126,18,-19
8200,-1768,-336,912,122,19,-22
8205,-1768,-304,880,116,18,-23
8210,-1752,-320,928,112,17,-27
8215,-1752,-328,944,108,18,-29
8220,-1752,-352,872,106,15,-35
8225,-1736,-320,960,101,15,-37
8230,-1728,-320,936,95,13,-40
8235,-1696,-320,904,91,10,-40
8240,-1704,-336,936,89,7,-44
8245,-1704,-360,936,89,2,-44
8250,-1728,-296,920,88,0,-42
8255,-1712,-304,928,86,-2,-41
8260,-1720,-304,968,84,-1,-43
8265,-1752,-328,936,83,-1,-45
8270,-1720,-320,944,82,4,-46
8275,-1776,-304,920,82,6,-48
8280,-1768,-304,904,82,8,-48
8285,-1776,-328,952,82,8,-47
8290,-1784,-328,952,82,7,-46
8295,-1744,-328,952,81,6,-45
8300,-1776,-288,968,80,4,-42
8305,-1760,-320,944,80,2,-39
8310,-1768,-304,944,78,1,-37
8315,-1760,-304,968,77,2,-36
8320,-1760,-296,936,75,2,-34
8325,-1768,-328,936,74,3,-33
8330,-1744,-328,960,73,0,-29
8335,-1776,-288,960,71,-2,-29
8340,-1752,-288,984,70,-4,-28
8345,-1720,-304,912,70,-4,-27
8350,-1784,-264,952,70,-5,-25
8355,-1760,-280,960,68,-7,-23
8360,-1776,-288,960,69,-7,-23
8365,-1776,-280,968,69,-8,-20
8370,-1784,-304,960,70,-7,-18
8375,-1776,-280,936,73,-7,-17
8380,-1768,-312,952,74,-4,-18
8385,-1776,-280,976,71,-3,-17
8390,-1768,-288,928,72,-2,-18
8395,-1776,-296,960,70,-3,-16
8400,-1720,-256,936,71,-5,-15
8405,-1744,-288,976,71,-7,-14
8410,-1752,-280,960,70,-11,-12
8415,-1752,-280,992,65,-11,-11
8420,-1768,-272,976,60,-9,-9
8425,-1752,-296,976,58,-6,-11
8430,-1760,-288,944,56,-2,-11
8435,-1752,-312,976,54,1,-11
8440,-1744,-296,952,52,6,-10
8445,-1736,-312,952,54,10,-10
8450,-1752,-272,1008,51,14,-7
8455,-1728,-288,936,50,16,-7
8460,-1736,-280,976,48,16,-9
8465,-1744,-280,960,47,17,-7
8470,-1736,-256,1000,48,15,-6
8475,-1752,-272,968,49,14,-5
8480,-1760,-280,968,52,13,-3
8485,-1752,-280,976,51,14,-2
8490,-1736,-288,992,52,14,0
8495,-1752,-296,992,49,16,1
8500,-1744,-296,952,45,16,0
8505,-1704,-280,984,42,17,0
8510,-1768,-280,968,40,18,1
8515,-1752,-280,968,40,19,2
8520,-1728,-280,976,40,20,3
8525,-1736,-296,968,38,22,1
8530,-1752,-288,968,37,25,0
8535,-1752,-296,944,36,27,-2
8540,-1728,-280,960,35,30,-2
8545,-1736,-288,976,38,30,-3
8550,-1728,-280,976,35,31,-3
8555,-1720,-280,960,30,31,-1
8560,-1736,-320,1032,27,32,-1
8565,-1736,-296,952,24,37,-2
8570,-1776,-288,968,22,41,-2
8575,-1728,-304,952,22,44,-2
8580,-1760,-280,928,23,47,-3
8585,-1744,-304,976,24,47,-3
8590,-1728,-280,968,25,47,-3
8595,-1744,-296,976,23,49,-1
8600,-1776,-272,952,21,50,-1
8605,-1768,-288,960,17,51,-3
8610,-1744,-304,944,12,53,-2
8615,-1792,-312,960,8,53,-4
8620,-1752,-288,944,8,53,-2
8625,-1736,-296,944,8,52,0
8630,-1760,-280,928,11,50,0
8635,-1744,-304,952,13,48,0
8640,-1752,-280,960,17,46,-2
8645,-1744,-320,968,23,43,0
8650,-1760,-312,936,28,40,-2
8655,-1776,-272,968,32,40,-2
8660,-1760,-312,912,37,41,-5
8665,-1736,-304,944,38,43,-7
8670,-1760,-312,928,38,47,-10
8675,-1776,-312,944,35,51,-11
8680,-1744,-296,928,34,54,-13
8685,-1768,-296,936,33,54,-12
8690,-1768,-288,952,32,53,-11
8695,-1752,-272,936,32,50,-6
8700,-1752,-296,928,34,45,-7
8705,-1744,-280,920,35,41,-6
8710,-1736,-304,952,34,38,-7
8715,-1752,-312,960,34,36,-7
8720,-1752,-296,928,35,34,-9
8725,-1784,-320,856,34,35,-11
8730,-1752,-312,968,35,33,-12
8735,-1752,-312,928,36,34,-12
8740,-1744,-288,944,37,34,-13
8745,-1736,-304,912,39,33,-15
8750,-1752,-304,944,42,32,-14
8755,-1768,-296,952,46,31,-14
8760,-1744,-288,880,48,28,-13
8765,-1800,-288,912,49,27,-13
8770,-1792,-280,896,52,26,-13
8775,-1752,-288,896,53,23,-13
8780,-1800,-296,848,56,22,-14
8785,-1776,-312,936,55,19,-13
8790,-1768,-280,904,56,16,-14
8795,-1768,-288,944,59,14,-15
8800,-1776,-320,944,60,13,-15
8805,-1752,-280,952,62,10,-16
8810,-1744,-304,912,63,9,-17
8815,-1768,-296,952,64,6,-18
8820,-1752,-304,936,65,4,-19
8825,-1784,-304,936,67,4,-20
8830,-1728,-320,936,66,1,-22
8835,-1760,-288,968,67,-1,-22
8840,-1768,-288,904,67,-2,-23
8845,-1776,-288,928,66,-6,-22
8850,-1776,-296,904,64,-7,-23
8855,-1768,-272,944,61,-9,-21
8860,-1784,-280,936,59,-10,-21
8865,-1768,-280,920,57,-10,-21
8870,-1776,-288,920,57,-10,-21
8875,-1768,-288,912,58,-11,-20
8880,-1760,-304,936,59,-11,-21
8885,-1760,-320,936,59,-12,-22
8890,-1736,-312,904,60,-11,-21
8895,-1768,-312,904,59,-10,-24
8900,-1768,-312,912,63,-10,-25
8905,-1760,-304,912,63,-10,-25
8910,-1736,-304,968,65,-11,-27
8915,-1752,-304,952,66,-14,-27
8920,-1744,-312,912,67,-16,-27
8925,-1736,-320,912,70,-20,-28
8930,-1752,-296,960,72,-21,-27
8935,-1776,-264,928,76,-26,-26
8940,-1736,-280,952,77,-28,-25
8945,-1712,-288,976,80,-29,-24
8950,-1752,-296,960,79,-30,-25
8955,-1752,-304,960,78,-29,-24
8960,-1752,-280,952,77,-29,-25
8965,-1744,-296,968,78,-28,-25
8970,-1776,-312,976,77,-29,-26
8975,-1752,-320,968,77,-29,-28
8980,-1760,-296,960,75,-29,-28
8985,-1736,-344,952,72,-28,-29
8990,-1728,-304,992,71,-28,-28
8995,-1768,-320,952,67,-25,-26
9000,-1792,-296,968,64,-22,-25
9005,-1760,-288,952,61,-20,-25
9010,-1744,-296,960,58,-17,-25
9015,-1744,-280,920,54,-13,-23
9020,-1752,-328,944,53,-10,-23
9025,-1752,-304,936,53,-8,-22
9030,-1744,-352,936,52,-4,-22
9035,-1784,-280,944,53,-3,-22
9040,-1752,-312,960,53,-1,-23
9045,-1760,-312,952,57,-3,-22
9050,-1760,-312,912,56,-4,-22
9055,-1744,-312,936,58,-3,-20
9060,-1744,-304,952,59,-2,-22
9065,-1768,-288,952,60,-1,-20
9070,-1776,-296,984,60,-1,-19
9075,-1752,-304,952,60,0,-19
9080,-1768,-280,968,59,1,-15
9085,-1744,-320,968,57,2,-16
9090,-1736,-288,968,55,2,-15
9095,-1752,-280,976,54,4,-15
9100,-1768,-304,968,52,7,-16
9105,-1776,-312,920,50,9,-17
9110,-1752,-320,992,49,11,-17
9115,-1760,-296,968,48,13,-16
9120,-1736,-296,912,49,14,-18
9125,-1752,-288,976,49,13,-17
9130,-1728,-288,976,51,12,-18
9135,-1760,-288,976,52,9,-17
9140,-1736,-304,968,53,5,-17
9145,-1736,-304,976,53,5,-17
9150,-1736,-312,984,56,5,-18
9155,-1760,-272,960,57,5,-17
9160,-1760,-360,992,57,6,-17
9165,-1752,-288,976,57,9,-18
9170,-1760,-288,920,56,10,-18
9175,-1768,-312,976,55,11,-19
9180,-1776,-272,976,56,13,-17
9185,-1776,-288,944,54,13,-16
9190,-1752,-304,936,54,12,-17
9195,-1712,-280,936,54,12,-14
9200,-1768,-280,936,56,10,-16
9205,-1784,-288,944,56,8,-16
9210,-1752,-288,960,54,8,-16
9215,-1720,-280,944,52,7,-16
9220,-1768,-304,968,52,6,-17
9225,-1752,-280,976,51,6,-17
9230,-1760,-304,944,51,6,-16
9235,-1744,-264,960,51,5,-17
9240,-1776,-288,928,51,6,-15
9245,-1752,-296,952,52,5,-16
9250,-1760,-304,944,53,5,-16
9255,-1768,-296,960,54,5,-17
9260,-1768,-296,952,55,6,-19
9265,-1768,-328,920,56,7,-17
9270,-1760,-312,960,57,6,-18
9275,-1768,-304,968,57,6,-18
9280,-1752,-312,984,56,6,-18
9285,-1760,-312,960,54,7,-17
9290,-1760,-288,944,52,7,-15
9295,-1760,-304,944,51,8,-14
9300,-1752,-320,960,51,8,-14
9305,-1760,-320,928,52,7,-11
9310,-1752,-304,944,53,7,-12
9315,-1736,-312,968,53,5,-13
9320,-1760,-296,920,52,5,-11
9325,-1784,-304,936,52,6,-12
9330,-1752,-304,952,52,8,-13
9335,-1736,-304,944,52,10,-13
9340,-1736,-312,952,49,13,-12
9345,-1760,-352,960,46,16,-13
9350,-1728,-312,968,43,18,-12
9355,-1744,-288,968,42,20,-12
9360,-1776,-304,928,43,19,-11
9365,-1760,-280,944,47,19,-13
9370,-1728,-328,920,52,17,-13
9375,-1736,-328,920,53,15,-13
9380,-1776,-264,920,54,12,-13
9385,-1736,-304,952,54,11,-13
9390,-1744,-328,960,54,11,-12
9395,-1744,-336,968,53,11,-11
9400,-1736,-320,952,52,10,-9
9405,-1744,-336,968,52,9,-6
9410,-1752,-320,984,52,8,-5
9415,-1704,-336,968,51,7,-3
9420,-1776,-304,960,52,8,-4
9425,-1744,-328,912,52,9,-5
9430,-1736,-296,976,52,7,-2
9435,-1768,-312,936,54,7,-4
9440,-1744,-320,992,55,10,-4
9445,-1752,-304,968,58,10,-5
9450,-1768,-304,968,58,13,-6
9455,-1760,-296,952,58,14,-5
9460,-1760,-296,952,58,14,-5
9465,-1776,-272,944,58,16,-4
9470,-1768,-304,944,56,17,-4
9475,-1784,-280,952,54,16,-3
9480,-1768,-288,944,53,16,-2
9485,-1744,-296,960,53,13,-3
9490,-1768,-280,992,52,11,-4
9495,-1744,-280,1000,49,10,-3
9500,-1744,-296,992,50,10,-5
9505,-1736,-320,1000,50,9,-5
9510,-1744,-304,968,51,7,-5
9515,-1752,-304,968,50,7,-7
9520,-1776,-280,960,51,10,-7
9525,-1768,-296,936,50,12,-7
9530,-1760,-328,904,52,14,-7
9535,-1752,-280,960,54,15,-7
9540,-1776,-272,976,52,16,-5
9545,-1792,-312,968,53,18,-6
9550,-1752,-280,960,53,18,-5
9555,-1752,-312,976,52,20,-6
9560,-1752,-328,960,53,21,-6
9565,-1776,-328,976,52,20,-6
9570,-1736,-296,936,54,19,-5
9575,-1776,-296,968,55,19,-5
9580,-1736,-304,960,54,16,-4
9585,-1760,-288,944,56,13,-4
9590,-1736,-296,952,56,13,-4
9595,-1800,-280,888,55,12,-4
9600,-1760,-304,968,56,13,-6
9605,-1760,-304,968,55,14,-6
9610,-1760,-272,952,54,15,-6
9615,-1752,-320,960,54,16,-8
9620,-1728,-288,944,54,17,-7
9625,-1768,-280,952,53,17,-7
9630,-1752,-296,984,51,18,-9
9635,-1752,-280,960,50,18,-9
9640,-1760,-320,944,48,18,-9
9645,-1744,-272,944,47,18,-13
9650,-1696,-304,976,45,18,-10
9655,-1752,-304,944,44,18,-11
9660,-1776,-272,936,43,19,-8
9665,-1752,-288,936,42,17,-9
9670,-1768,-296,928,42,17,-8
9675,-1776,-296,936,42,17,-8
9680,-1768,-280,944,41,17,-6
9685,-1776,-296,960,40,16,-7
9690,-1720,-328,968,39,15,-4
9695,-1752,-320,920,40,13,-4
9700,-1736,-312,936,39,13,-5
9705,-1824,-328,952,40,14,-6
9710,-1752,-336,928,39,14,-6
9715,-1720,-304,968,40,13,-7
9720,-1776,-312,992,39,13,-7
9725,-1752,-296,936,42,14,-9
9730,-1776,-304,976,44,14,-8
9735,-1768,-296,952,47,14,-10
9740,-1776,-304,968,46,12,-11
9745,-1776,-304,960,46,14,-8
9750,-1744,-320,960,45,13,-10
9755,-1760,-312,960,46,13,-10
9760,-1768,-312,904,45,13,-9
9765,-1752,-288,936,45,10,-9
9770,-1744,-304,960,45,9,-10
9775,-1744,-312,936,46,8,-9
9780,-1736,-296,952,44,8,-9
9785,-1760,-304,944,44,7,-10
9790,-1760,-288,952,42,7,-9
9795,-1752,-328,960,42,5,-7
9800,-1776,-304,912,43,3,-8
9805,-1784,-280,920,43,3,-10
9810,-1704,-320,968,42,5,-11
9815,-1768,-344,976,43,6,-11
9820,-1720,-320,952,43,7,-13
9825,-1744,-296,936,44,9,-14
9830,-1744,-304,944,45,11,-13
9835,-1728,-296,952,47,10,-13
9840,-1768,-304,928,47,9,-12
9845,-1752,-296,976,50,9,-13
9850,-1728,-320,968,52,8,-13
9855,-1728,-312,928,54,7,-16
9860,-1744,-320,936,57,7,-16
9865,-1768,-296,976,56,7,-15
9870,-1728,-296,936,56,9,-13
9875,-1744,-304,952,54,11,-15
9880,-1744,-304,960,56,9,-15
9885,-1744,-312,968,57,11,-14
9890,-1744,-296,968,56,10,-13
9895,-1728,-304,952,58,10,-13
9900,-1752,-304,936,57,10,-13
9905,-1776,-288,968,60,10,-12
9910,-1768,-296,976,61,10,-11
9915,-1768,-296,976,62,12,-11
9920,-1760,-304,944,61,12,-11
9925,-1736,-312,928,60,14,-13
9930,-1728,-320,952,60,16,-12
9935,-1776,-280,944,60,17,-13
9940,-1744,-304,952,59,17,-12
9945,-1760,-288,952,59,19,-13
9950,-1768,-272,928,59,18,-11
9955,-1776,-312,984,57,17,-10
9960,-1752,-312,920,57,16,-10
9965,-1752,-312,952,55,16,-9
9970,-1752,-296,928,53,15,-9
9975,-1744,-344,936,53,15,-8
9980,-1696,-320,952,53,15,-10
9985,-1752,-280,968,54,14,-9
9990,-1760,-296,960,55,14,-11
9995,-1728,-312,944,54,13,-9
10000,-1760,-304,968,53,13,-12
10005,-1752,-296,936,52,12,-11
10010,-1752,-288,936,54,11,-10
10015,-1752,-320,960,55,10,-11
10020,-1784,-312,912,55,8,-11
10025,-1760,-296,944,55,8,-11
10030,-1744,-312,936,56,8,-10
10035,-1768,-296,952,57,8,-12
10040,-1760,-304,960,56,9,-12
10045,-1752,-304,952,55,12,-12
10050,-1768,-328,960,54,14,-12
10055,-1744,-320,976,52,17,-13
10060,-1768,-304,952,52,20,-13
10065,-1768,-320,960,53,20,-10
10070,-1784,-296,968,55,19,-12
10075,-1752,-344,944,57,17,-12
10080,-1776,-288,968,58,15,-12
10085,-1728,-312,912,60,12,-11
10090,-1752,-288,920,60,8,-13
10095,-1728,-328,928,57,5,-13
10100,-1752,-296,936,55,4,-13
10105,-1784,-288,920,54,1,-13
10110,-1760,-296,976,54,1,-13
10115,-1736,-336,944,55,-1,-11
10120,-1736,-312,936,55,0,-11
10125,-1744,-304,976,57,0,-12
10130,-1744,-304,944,59,1,-13
10135,-1752,-288,960,60,3,-13
10140,-1800,-320,952,64,3,-14
10145,-1760,-296,928,64,4,-12
10150,-1760,-288,928,64,4,-13
10155,-1744,-304,944,63,5,-13
10160,-1752,-288,968,64,8,-13
10165,-1776,-288,944,62,8,-13
10170,-1752,-296,976,62,7,-12
10175,-1760,-264,952,61,4,-12
10180,-1744,-264,976,58,2,-11
10185,-1744,-328,952,57,1,-12
10190,-1792,-288,984,55,1,-13
10195,-1736,-320,928,56,1,-12
10200,-1768,-312,944,55,2,-13
10205,-1776,-296,976,54,3,-14
10210,-1768,-304,960,54,3,-13
10215,-1744,-320,960,56,4,-14
10220,-1760,-312,952,56,3,-14
10225,-1776,-288,968,56,4,-14
10230,-1776,-280,968,58,2,-14
10235,-1760,-296,952,58,0,-13
10240,-1752,-312,960,58,-1,-12
10245,-1768,-280,936,58,-1,-13
10250,-1696,-304,896,58,0,-15
10255,-1736,-288,944,59,0,-13
10260,-1760,-312,952,60,1,-15
10265,-1760,-296,952,61,1,-15
10270,-1768,-288,952,61,2,-16
10275,-1744,-320,952,61,4,-15
10280,-1752,-304,952,61,4,-15
10285,-1768,-280,976,61,6,-16
10290,-1768,-296,936,60,7,-15
10295,-1744,-280,984,60,6,-16
10300,-1736,-288,976,62,8,-14
10305,-1776,-288,928,64,8,-14
10310,-1776,-288,928,64,7,-14
10315,-1752,-296,952,62,6,-14
10320,-1760,-288,944,62,2,-16
10325,-1744,-296,968,62,0,-15
10330,-1752,-288,976,64,-3,-15
10335,-1712,-296,960,64,-4,-16
10340,-1736,-280,976,63,-6,-18
10345,-1720,-328,984,63,-8,-18
10350,-1768,-312,912,64,-10,-19
10355,-1736,-312,984,64,-10,-19
10360,-1776,-312,960,64,-9,-17
10365,-1760,-304,976,63,-8,-16
10370,-1744,-336,936,62,-6,-16
10375,-1760,-312,960,62,-5,-16
10380,-1776,-296,944,62,-3,-16
10385,-1768,-296,944,63,-3,-14
10390,-1760,-304,944,63,-2,-14
10395,-1728,-304,952,64,-1,-14
10400,-1736,-336,952,63,0,-13
10405,-1744,-304,984,64,-1,-12
10410,-1736,-328,976,65,-2,-12
10415,-1736,-288,920,66,-3,-9
10420,-1712,-320,968,66,-4,-9
10425,-1736,-328,968,66,-5,-11
10430,-1760,-312,976,65,-5,-12
10435,-1752,-288,968,66,-5,-13
10440,-1752,-312,960,64,-4,-12
10445,-1760,-296,960,64,-4,-12
10450,-1744,-304,944,64,-2,-13
10455,-1744,-312,952,63,0,-14
10460,-1776,-304,984,63,-2,-12
10465,-1736,-288,968,63,-1,-12
10470,-1792,-296,960,62,-1,-11
10475,-1736,-328,992,61,0,-11
10480,-1736,-296,968,60,0,-13
10485,-1744,-304,944,60,1,-14
10490,-1744,-304,960,62,2,-12
10495,-1744,-304,960,63,3,-15
10500,-1752,-280,968,63,2,-16
10505,-1728,-280,1000,62,3,-14
10510,-1728,-312,968,61,2,-14
10515,-1752,-320,1000,61,0,-14
10520,-1752,-312,968,62,2,-15
10525,-1744,-248,992,61,3,-15
10530,-1760,-296,968,62,3,-14
10535,-1720,-304,952,63,2,-14
10540,-1736,-296,960,63,3,-13
10545,-1768,-264,968,62,2,-12
10550,-1736,-280,984,63,1,-12
10555,-1752,-288,968,63,1,-12
10560,-1752,-304,976,62,1,-11
10565,-1728,-272,944,63,2,-12
10570,-1752,-304,992,64,3,-13
10575,-1760,-248,992,65,1,-13
10580,-1736,-296,936,62,0,-11
10585,-1752,-288,960,61,0,-11
10590,-1728,-312,944,60,1,-14
10595,-1736,-296,976,59,2,-14
10600,-1752,-304,936,60,3,-13
10605,-1744,-304,944,61,4,-14
10610,-1728,-304,952,61,4,-13
10615,-1760,-296,960,62,3,-12
10620,-1736,-288,968,62,3,-13
10625,-1720,-320,992,63,1,-13
10630,-1688,-296,976,63,0,-13
10635,-1744,-296,976,63,-2,-15
10640,-1744,-304,960,63,-3,-14
10645,-1736,-312,952,61,-3,-13
10650,-1736,-288,976,60,-3,-15
10655,-1736,-288,944,60,-2,-14
10660,-1736,-304,992,58,0,-12
10665,-1752,-288,960,57,2,-13
10670,-1760,-280,968,56,3,-14
10675,-1760,-304,952,57,6,-13
10680,-1752,-304,944,57,6,-14
10685,-1776,-272,936,59,5,-13
10690,-1752,-280,944,61,7,-12
10695,-1744,-304,968,63,6,-13
10700,-1736,-320,952,63,4,-12
10705,-1752,-304,992,63,5,-12
10710,-1736,-304,976,61,5,-14
10715,-1752,-312,976,61,5,-14
10720,-1728,-288,968,62,5,-16
10725,-1736,-256,952,62,4,-16
10730,-1744,-288,992,62,3,-16
10735,-1704,-304,952,61,3,-14
10740,-1744,-352,992,60,3,-15
10745,-1736,-280,984,61,2,-14
10750,-1736,-288,960,60,1,-15
10755,-1720,-304,968,60,0,-14
10760,-1736,-288,952,59,-1,-15
10765,-1728,-296,976,59,0,-13
10770,-1744,-296,968,58,0,-12
10775,-1752,-304,960,57,-1,-14
10780,-1752,-304,944,57,0,-11
10785,-1752,-296,960,57,2,-11
10790,-1728,-280,1000,56,2,-12
10795,-1712,-256,992,56,2,-12
10800,-1728,-288,984,55,1,-10
10805,-1744,-304,952,55,2,-12
10810,-1744,-304,984,55,4,-15
10815,-1744,-296,968,53,5,-16
10820,-1744,-312,1000,53,8,-16
10825,-1752,-280,952,55,12,-17
10830,-1792,-304,952,54,15,-15
10835,-1728,-320,984,54,18,-15
10840,-1760,-288,960,55,17,-13
10845,-1744,-312,992,56,16,-11
10850,-1728,-320,936,57,14,-10
10855,-1752,-280,952,57,12,-7
10860,-1760,-280,952,58,9,-11
10865,-1768,-304,952,56,7,-10
10870,-1760,-288,976,55,6,-9
10875,-1736,-296,992,54,4,-9
10880,-1768,-304,984,52,4,-10
10885,-1728,-320,992,51,6,-11
10890,-1744,-304,984,51,6,-13
10895,-1760,-296,960,53,9,-14
10900,-1752,-312,952,56,10,-12
10905,-1680,-320,968,59,12,-13
10910,-1736,-320,968,62,13,-13
10915,-1736,-328,992,67,16,-16
10920,-1736,-304,992,72,16,-17
10925,-1744,-288,976,75,11,-13
10930,-1752,-272,976,75,9,-12
10935,-1744,-280,976,73,8,-10
10940,-1752,-304,960,71,8,-9
10945,-1768,-256,928,71,12,-10
10950,-1744,-304,944,73,14,-9
10955,-1752,-320,944,74,14,-9
10960,-1784,-328,960,74,13,-10
10965,-1736,-280,976,72,12,-11
10970,-1736,-288,960,69,10,-11
10975,-1728,-296,952,65,10,-13
10980,-1752,-280,976,61,11,-14
10985,-1744,-296,1000,59,12,-14
10990,-1728,-320,984,58,14,-15
10995,-1752,-280,992,57,14,-14
11000,-1728,-304,960,57,15,-12
11005,-1744,-296,976,58,15,-11
11010,-1768,-296,992,58,17,-11
11015,-1712,-320,968,59,17,-12
11020,-1744,-320,960,60,18,-11
11025,-1760,-296,960,62,19,-11
11030,-1752,-296,984,65,19,-12
11035,-1752,-264,960,67,18,-13
11040,-1712,-280,960,69,19,-12
11045,-1744,-320,952,70,18,-11
11050,-1768,-280,976,71,17,-11
11055,-1704,-320,968,70,17,-14
11060,-1736,-296,984,72,18,-14
11065,-1776,-304,952,72,17,-13
11070,-1720,-304,968,74,17,-13
11075,-1728,-280,968,74,17,-12
11080,-1744,-248,952,75,15,-11
11085,-1736,-272,976,71,14,-11
11090,-1736,-272,960,73,13,-11
11095,-1736,-264,960,71,13,-13
11100,-1752,-280,960,69,13,-12
11105,-1736,-288,984,67,13,-12
11110,-1744,-288,968,65,11,-14
11115,-1720,-280,976,63,12,-14
11120,-1744,-296,936,59,12,-13
11125,-1760,-272,984,55,12,-15
11130,-1760,-288,1008,54,12,-16
11135,-1760,-256,984,52,10,-15
11140,-1728,-288,944,53,10,-11
11145,-1752,-304,936,51,8,-12
11150,-1736,-296,992,51,8,-12
11155,-1752,-288,968,51,9,-12
11160,-1736,-288,968,53,9,-12
11165,-1712,-280,960,55,9,-13
11170,-1768,-288,984,55,9,-12
11175,-1648,-312,960,55,10,-12
11180,-1728,-304,952,53,9,-11
11185,-1744,-296,960,54,9,-12
11190,-1752,-264,1000,54,8,-12
11195,-1736,-288,992,54,8,-12
11200,-1736,-272,960,55,6,-12
11205,-1752,-280,960,54,6,-12
11210,-1776,-280,992,55,5,-12
11215,-1752,-280,992,55,4,-13
11220,-1744,-296,968,55,6,-12
11225,-1736,-320,976,55,6,-12
11230,-1752,-304,984,55,8,-13
11235,-1752,-296,968,54,9,-12
11240,-1736,-288,976,54,10,-15
11245,-1768,-296,1008,54,10,-14
11250,-1736,-280,968,52,10,-14
11255,-1752,-288,944,51,9,-12
11260,-1728,-304,960,51,8,-13
11265,-1728,-288,968,51,6,-13
11270,-1728,-288,960,50,5,-10
11275,-1744,-312,928,51,6,-12
11280,-1736,-280,976,51,7,-13
11285,-1776,-368,984,51,6,-17
11290,-1768,-312,1008,53,7,-15
11295,-1736,-296,976,54,8,-15
11300,-1752,-296,976,52,7,-13
11305,-1736,-288,984,51,9,-11
11310,-1744,-272,968,48,10,-12
11315,-1712,-288,976,47,12,-12
11320,-1776,-288,960,48,15,-13
11325,-1744,-304,976,51,17,-12
11330,-1728,-288,960,52,17,-11
11335,-1728,-304,960,53,16,-12
11340,-1744,-304,936,54,16,-12
11345,-1744,-304,976,54,15,-11
11350,-1760,-304,968,55,13,-11
11355,-1744,-304,944,54,12,-11
11360,-1744,-280,960,56,11,-10
11365,-1752,-272,984,58,10,-8
11370,-1728,-288,984,56,9,-10
11375,-1760,-288,952,55,9,-10
11380,-1776,-280,968,53,10,-9
11385,-1728,-288,952,53,10,-10
11390,-1744,-272,968,54,11,-11
11395,-1720,-312,968,53,14,-9
11400,-1752,-304,960,54,14,-9
11405,-1744,-296,968,58,16,-11
11410,-1736,-304,1000,59,15,-10
11415,-1768,-280,984,59,14,-10
11420,-1744,-280,944,58,15,-8
11425,-1752,-288,1000,60,15,-10
11430,-1768,-272,984,59,15,-9
11435,-1728,-312,944,59,16,-11
11440,-1736,-288,960,58,16,-9
11445,-1760,-280,968,58,15,-11
11450,-1744,-296,968,57,16,-10
11455,-1736,-280,1000,57,13,-11
11460,-1736,-280,960,56,13,-10
11465,-1736,-288,976,54,14,-9
11470,-1760,-288,944,54,14,-9
11475,-1752,-320,992,55,14,-10
11480,-1728,-288,968,55,15,-9
11485,-1728,-296,984,56,14,-8
11490,-1736,-328,968,55,14,-9
11495,-1768,-296,976,54,16,-8
11500,-1760,-280,976,53,17,-9
11505,-1744,-352,984,53,17,-9
11510,-1736,-296,992,54,17,-9
11515,-1752,-296,952,53,18,-11
11520,-1744,-280,992,53,18,-11
11525,-1744,-304,952,52,17,-10
11530,-1760,-272,976,52,17,-11
11535,-1736,-280,968,52,16,-11
11540,-1768,-264,984,51,15,-11
11545,-1744,-304,984,53,15,-12
11550,-1752,-288,984,54,16,-12
11555,-1744,-296,952,54,15,-12
11560,-1784,-288,984,55,13,-14
11565,-1744,-296,968,54,12,-13
11570,-1752,-296,976,53,11,-12
11575,-1744,-304,968,53,10,-12
11580,-1736,-296,960,53,11,-12
11585,-1744,-280,976,53,10,-11
11590,-1728,-304,968,52,9,-10
11595,-1744,-304,960,54,7,-10
11600,-1760,-296,976,54,7,-11
11605,-1736,-312,960,56,7,-11
11610,-1768,-312,960,57,6,-12
11615,-1736,-280,952,58,8,-14
11620,-1776,-272,968,58,8,-14
11625,-1720,-320,984,58,10,-15
11630,-1760,-296,992,58,10,-13
11635,-1760,-264,984,57,9,-14
11640,-1752,-288,928,57,9,-14
11645,-1760,-280,968,59,8,-15
11650,-1720,-272,976,60,7,-15
11655,-1752,-296,952,61,3,-14
11660,-1744,-264,992,59,2,-14
11665,-1744,-288,984,57,1,-14
11670,-1728,-296,976,56,1,-13
11675,-1768,-296,944,56,0,-15
11680,-1736,-328,960,56,2,-14
11685,-1744,-296,992,54,4,-15
11690,-1744,-296,976,54,5,-14
11695,-1760,-288,960,53,7,-15
11700,-1752,-288,976,54,7,-14
11705,-1784,-272,984,52,8,-14
11710,-1768,-296,944,53,6,-13
11715,-1760,-272,976,53,4,-13
11720,-1760,-288,928,51,4,-14
11725,-1768,-280,984,51,5,-14
11730,-1744,-296,984,50,6,-15
11735,-1752,-288,952,50,8,-15
11740,-1752,-288,1000,49,11,-15
11745,-1744,-304,968,51,12,-15
11750,-1736,-288,984,50,12,-14
11755,-1752,-304,976,51,11,-14
11760,-1784,-304,928,53,11,-16
11765,-1752,-296,944,56,11,-14
11770,-1736,-280,952,54,10,-15
11775,-1760,-288,936,57,7,-13
11780,-1728,-280,960,56,4,-15
11785,-1744,-288,968,56,3,-14
11790,-1768,-304,976,55,2,-15
11795,-1760,-272,992,53,1,-13
11800,-1744,-328,976,52,2,-12
11805,-1736,-312,984,53,3,-11
11810,-1744,-280,960,53,4,-11
11815,-1744,-296,968,53,6,-11
11820,-1728,-304,1008,55,7,-10
11825,-1712,-304,976,57,6,-11
11830,-1728,-288,936,58,7,-11
11835,-1728,-288,968,58,9,-10
11840,-1736,-272,992,60,10,-9
11845,-1736,-304,968,59,10,-10
11850,-1728,-288,984,59,10,-10
11855,-1728,-280,976,58,11,-9
11860,-1736,-288,976,57,11,-11
11865,-1704,-280,1000,54,10,-10
11870,-1736,-280,1008,54,9,-9
11875,-1728,-312,992,53,10,-10
11880,-1728,-280,952,53,9,-9
11885,-1736,-288,992,52,8,-10
11890,-1744,-280,968,52,6,-12
11895,-1720,-320,952,51,7,-12
11900,-1736,-280,984,51,5,-14
11905,-1752,-288,984,52,6,-14
11910,-1752,-280,992,53,5,-13
11915,-1720,-280,984,56,4,-14
11920,-1744,-296,976,56,4,-13
11925,-1720,-296,968,57,4,-14
11930,-1736,-296,984,58,5,-14
11935,-1752,-280,968,57,4,-14
11940,-1728,-304,976,56,5,-13
11945,-1736,-296,976,57,5,-12
11950,-1752,-272,960,57,6,-12
11955,-1728,-296,976,58,8,-14
11960,-1720,-272,960,59,10,-14
11965,-1736,-296,984,61,11,-14
11970,-1728,-296,992,61,11,-14
11975,-1752,-296,944,61,12,-15
11980,-1744,-272,952,62,10,-16
11985,-1776,-272,952,62,10,-15
11990,-1752,-280,1000,62,9,-16
11995,-1728,-344,968,61,8,-16
12000,-1744,-296,952,61,8,-16
12005,-1744,-272,952,62,7,-14
12010,-1752,-272,984,63,6,-14
12015,-1744,-288,968,63,5,-15
12020,-1752,-280,968,62,5,-14
12025,-1744,-280,976,62,4,-15
12030,-1720,-320,960,63,3,-16
12035,-1720,-320,976,62,3,-17
12040,-1720,-304,968,61,1,-16
12045,-1728,-296,952,60,0,-18
12050,-1736,-320,1000,59,-2,-16
12055,-1752,-304,936,57,-2,-16
12060,-1744,-264,968,57,-4,-15
12065,-1776,-264,992,58,-4,-15
12070,-1736,-296,960,58,-3,-16
12075,-1760,-312,968,58,-4,-17
12080,-1736,-304,968,60,-3,-15
12085,-1744,-304,944,60,-1,-15
12090,-1760,-296,976,59,1,-16
12095,-1760,-280,952,58,2,-15
12100,-1744,-296,968,58,3,-16
12105,-1744,-304,984,57,2,-15
12110,-1736,-288,968,56,1,-15
12115,-1712,-296,968,56,2,-14
12120,-1744,-288,952,56,2,-12
12125,-1752,-280,984,57,1,-12
12130,-1744,-296,952,57,0,-11
12135,-1728,-304,1016,57,-1,-11
12140,-1744,-272,968,55,-1,-12
12145,-1768,-256,960,56,-1,-12
12150,-1736,-296,968,58,-2,-11
12155,-1768,-272,960,59,-3,-11
12160,-1736,-296,960,59,-3,-11
12165,-1744,-312,968,59,-2,-10
12170,-1744,-304,984,58,-2,-12
12175,-1736,-296,984,59,-2,-13
12180,-1752,-296,984,58,0,-13
12185,-1736,-272,984,57,2,-14
12190,-1744,-296,976,56,2,-13
12195,-1736,-296,968,55,2,-15
12200,-1744,-304,976,55,1,-14
12205,-1704,-296,992,56,2,-14
12210,-1760,-312,1000,54,2,-15
12215,-1760,-280,960,54,2,-13
12220,-1744,-272,976,55,1,-15
12225,-1728,-304,984,56,1,-14
12230,-1736,-312,976,58,2,-13
12235,-1736,-304,992,59,2,-13
12240,-1712,-312,976,59,3,-13
12245,-1736,-296,960,59,2,-14
12250,-1728,-320,1000,59,2,-15
12255,-1736,-296,992,59,3,-13
12260,-1728,-288,944,59,3,-14
12265,-1760,-304,992,59,4,-14
12270,-1736,-288,1016,59,5,-14
12275,-1736,-312,976,59,3,-13
12280,-1744,-272,1008,58,4,-13
12285,-1744,-288,984,59,5,-14
12290,-1736,-280,992,60,4,-11
12295,-1744,-264,968,61,4,-12
12300,-1744,-304,952,61,3,-12
12305,-1752,-272,976,59,3,-11
12310,-1736,-288,976,60,4,-10
12315,-1744,-288,976,60,5,-12
12320,-1680,-352,952,60,4,-11
12325,-1752,-288,984,62,4,-12
12330,-1736,-288,976,63,4,-14
12335,-1736,-304,984,61,4,-13
12340,-1744,-288,992,61,4,-13
12345,-1744,-280,976,62,5,-13
12350,-1728,-280,976,62,4,-13
12355,-1720,-312,952,60,5,-15
12360,-1768,-264,984,61,5,-14
12365,-1760,-272,976,61,4,-15
12370,-1736,-280,976,61,4,-15
12375,-1736,-320,912,62,5,-14
12380,-1728,-296,968,62,6,-15
12385,-1736,-288,992,63,5,-15
12390,-1736,-304,976,63,6,-15
12395,-1744,-280,1000,65,6,-16
12400,-1736,-312,1000,64,6,-16
12405,-1736,-320,1008,61,5,-14
12410,-1720,-280,984,60,2,-14
12415,-1728,-288,976,58,4,-14
12420,-1760,-288,1008,58,4,-13
12425,-1744,-288,992,56,3,-10
12430,-1728,-320,992,57,3,-10
12435,-1736,-312,984,56,6,-10
12440,-1768,-296,984,56,6,-11
12445,-1712,-296,984,56,6,-12
12450,-1736,-280,976,58,8,-14
12455,-1744,-296,1008,59,7,-13
12460,-1728,-312,968,61,8,-15
12465,-1744,-296,992,60,7,-17
12470,-1744,-272,1000,60,7,-15
12475,-1712,-280,928,60,7,-16
12480,-1752,-264,992,57,8,-17
12485,-1744,-216,992,57,7,-15
12490,-1736,-304,1008,58,5,-16
12495,-1736,-280,960,56,5,-15
12500,-1712,-312,984,56,5,-14
12505,-1744,-296,992,57,2,-14
12510,-1720,-288,976,56,2,-15
12515,-1736,-296,992,54,1,-15
12520,-1728,-304,1008,54,3,-15
12525,-1736,-272,992,54,5,-14
12530,-1736,-320,992,53,7,-14
12535,-1728,-304,992,53,8,-15
12540,-1736,-312,944,52,8,-13
12545,-1744,-304,1008,52,9,-13
12550,-1720,-312,992,53,7,-12
12555,-1728,-288,1000,52,7,-11
12560,-1760,-272,960,51,6,-11
12565,-1760,-272,976,50,4,-11
12570,-1736,-320,1024,50,4,-12
12575,-1736,-272,1000,50,8,-14
12580,-1744,-304,984,49,10,-15
12585,-1744,-288,984,50,10,-15
12590,-1752,-304,1000,49,13,-14
12595,-1760,-320,968,48,14,-14
12600,-1728,-296,976,46,14,-13
12605,-1744,-296,1032,46,14,-11
12610,-1752,-280,992,46,14,-11
12615,-1720,-264,976,46,12,-11
12620,-1744,-296,976,48,12,-9
12625,-1720,-296,1000,51,10,-9
12630,-1736,-320,976,50,10,-11
12635,-1728,-312,952,51,9,-11
12640,-1744,-280,1000,52,8,-12
12645,-1712,-296,992,51,8,-11
12650,-1720,-264,992,49,8,-11
12655,-1712,-280,976,49,9,-12
12660,-1728,-304,992,48,9,-9
12665,-1736,-288,984,50,11,-9
12670,-1712,-320,976,49,11,-8
12675,-1712,-296,984,51,11,-8
12680,-1728,-280,1000,54,11,-6
12685,-1736,-272,968,54,11,-5
12690,-1736,-296,976,54,12,-5
12695,-1736,-312,976,53,11,-6
12700,-1744,-264,968,52,11,-6
12705,-1704,-296,1008,50,11,-8
12710,-1728,-256,992,49,12,-6
12715,-1736,-264,984,48,11,-8
12720,-1728,-296,1000,48,12,-9
12725,-1760,-272,1008,48,12,-8
12730,-1736,-288,976,47,13,-10
12735,-1736,-296,1032,47,11,-11
12740,-1728,-304,992,46,12,-12
12745,-1728,-272,984,46,12,-11
12750,-1728,-288,968,46,11,-10
12755,-1744,-264,1048,47,11,-12
12760,-1744,-296,984,47,10,-10
12765,-1728,-272,968,46,10,-11
12770,-1712,-288,992,46,10,-10
12775,-1736,-280,976,46,10,-10
12780,-1752,-296,1000,46,11,-10
12785,-1736,-304,1008,46,11,-10
12790,-1728,-296,1000,47,9,-11
12795,-1752,-280,992,45,9,-13
12800,-1728,-296,976,45,10,-12
12805,-1704,-304,960,45,10,-12
12810,-1728,-280,1024,46,10,-13
12815,-1728,-296,992,47,10,-13
12820,-1760,-280,952,48,8,-12
12825,-1720,-296,992,50,7,-13
12830,-1712,-296,960,53,8,-12
12835,-1760,-288,968,53,8,-12
12840,-1752,-288,984,53,8,-12
12845,-1728,-312,960,54,9,-11
12850,-1744,-272,992,53,11,-10
12855,-1728,-296,992,54,14,-11
12860,-1736,-320,952,53,15,-10
12865,-1760,-280,968,53,15,-12
12870,-1728,-328,976,53,16,-11
12875,-1752,-280,976,54,14,-12
12880,-1712,-312,984,53,14,-14
12885,-1736,-288,992,52,12,-15
12890,-1752,-280,984,52,11,-14
12895,-1736,-280,992,52,10,-15
12900,-1720,-288,992,52,10,-14
12905,-1760,-296,976,50,8,-14
12910,-1752,-280,976,50,9,-12
12915,-1744,-280,976,48,10,-13
12920,-1768,-304,936,49,11,-15
12925,-1728,-288,984,49,11,-14
12930,-1744,-280,976,48,11,-12
12935,-1744,-320,1000,48,11,-13
12940,-1744,-280,992,47,11,-10
12945,-1728,-280,984,47,10,-11
12950,-1728,-312,968,47,8,-10
12955,-1744,-312,984,46,8,-9
12960,-1744,-296,992,47,7,-9
12965,-1760,-296,984,48,7,-10
12970,-1760,-296,992,48,7,-11
12975,-1728,-288,1024,49,7,-10
12980,-1712,-320,992,50,9,-9
12985,-1744,-280,992,49,11,-10
12990,-1752,-296,992,49,12,-10
12995,-1728,-288,992,49,12,-9
13000,-1736,-256,1016,50,12,-10
13005,-1728,-296,992,49,13,-8
13010,-1736,-320,984,49,13,-6
13015,-1744,-288,976,48,13,-7
13020,-1752,-296,1000,47,13,-7
13025,-1744,-288,992,48,12,-10
13030,-1728,-288,1008,49,11,-8
13035,-1728,-288,984,48,11,-8
13040,-1736,-296,968,49,10,-8
13045,-1736,-280,992,48,9,-7
13050,-1712,-264,984,48,8,-7
13055,-1736,-304,992,47,7,-7
13060,-1712,-280,968,47,8,-9
13065,-1744,-296,976,48,8,-6
13070,-1712,-288,944,50,8,-8
13075,-1736,-280,984,52,9,-8
13080,-1728,-280,992,51,8,-8
13085,-1728,-328,960,52,10,-8
13090,-1720,-288,944,50,10,-10
13095,-1752,-304,984,51,11,-8
13100,-1744,-288,968,51,12,-8
13105,-1752,-280,992,51,12,-7
13110,-1736,-280,1000,52,13,-6
13115,-1728,-336,976,51,12,-6
13120,-1736,-264,976,50,12,-8
13125,-1720,-280,984,51,10,-7
13130,-1744,-304,1008,52,9,-8
13135,-1792,-296,960,53,9,-9
13140,-1728,-288,960,54,9,-9
13145,-1728,-296,984,56,9,-9
13150,-1736,-288,984,56,9,-9
13155,-1744,-272,976,56,8,-10
13160,-1744,-320,984,56,9,-11
13165,-1752,-296,968,55,9,-12
13170,-1736,-280,1032,56,9,-11
13175,-1736,-288,1000,56,10,-11
13180,-1752,-272,976,56,10,-11
13185,-1728,-288,1008,54,11,-11
13190,-1744,-256,928,55,10,-11
13195,-1720,-288,960,55,10,-11
13200,-1712,-296,992,54,11,-12
13205,-1712,-272,1008,55,12,-11
13210,-1728,-296,984,55,11,-11
13215,-1736,-288,976,57,11,-11
13220,-1712,-296,992,57,11,-10
13225,-1768,-288,968,57,11,-11
13230,-1752,-256,976,56,11,-10
13235,-1688,-280,1008,57,11,-12
13240,-1720,-280,992,57,12,-12
13245,-1736,-312,1000,56,12,-12
13250,-1744,-288,1000,55,12,-11
13255,-1736,-288,984,54,12,-13
13260,-1720,-296,1000,54,13,-11
13265,-1736,-304,992,52,12,-10
13270,-1728,-312,992,52,12,-11
13275,-1736,-288,992,52,10,-12
13280,-1744,-296,1000,51,11,-11
13285,-1720,-296,1008,53,10,-10
13290,-1720,-304,992,51,10,-10
13295,-1696,-320,1008,50,10,-9
13300,-1792,-240,968,51,9,-7
13305,-1744,-288,1000,51,10,-9
13310,-1752,-272,992,53,9,-9
13315,-1712,-304,976,54,10,-11
13320,-1736,-304,968,55,10,-11
13325,-1752,-280,984,54,11,-12
13330,-1768,-272,984,54,12,-12
13335,-1744,-288,984,52,13,-12
13340,-1720,-288,992,50,13,-12
13345,-1744,-296,1000,48,13,-10
13350,-1728,-312,1008,49,12,-10
13355,-1704,-328,968,49,10,-11
13360,-1720,-312,960,48,10,-11
13365,-1720,-272,968,49,9,-9
13370,-1720,-288,952,48,9,-8
13375,-1736,-280,1008,49,10,-9
13380,-1736,-304,968,46,10,-8
13385,-1760,-280,960,46,10,-11
13390,-1744,-280,968,46,12,-11
13395,-1736,-296,960,44,13,-10
13400,-1760,-312,984,44,12,-9
13405,-1720,-312,968,44,14,-8
13410,-1720,-312,1000,45,12,-9
13415,-1752,-296,992,45,12,-8
13420,-1736,-296,984,46,11,-8
13425,-1736,-312,992,48,11,-10
13430,-1744,-296,984,48,10,-9
13435,-1760,-288,944,48,11,-9
13440,-1736,-288,1000,47,13,-8
13445,-1752,-272,952,48,14,-10
13450,-1744,-280,976,47,16,-8
13455,-1736,-288,968,47,18,-7
13460,-1720,-336,984,46,19,-7
13465,-1728,-280,992,44,20,-7
13470,-1720,-312,984,45,22,-6
13475,-1744,-304,984,46,22,-6
13480,-1736,-296,968,46,20,-6
13485,-1728,-280,960,48,19,-6
13490,-1720,-288,992,48,16,-6
13495,-1736,-296,968,48,15,-7
13500,-1720,-288,968,46,13,-8
13505,-1720,-304,952,45,13,-9
13510,-1728,-304,1000,47,13,-9
13515,-1736,-280,992,45,13,-10
13520,-1744,-344,968,45,14,-8
13525,-1728,-328,992,46,15,-8
13530,-1728,-296,1008,47,17,-7
13535,-1736,-288,952,47,19,-9
13540,-1736,-280,984,49,19,-8
13545,-1736,-272,1000,52,20,-7
13550,-1728,-256,1000,52,19,-6
13555,-1736,-280,944,52,19,-4
13560,-1712,-272,984,51,20,-3
13565,-1728,-296,984,52,20,-4
13570,-1704,-304,984,50,20,-4
13575,-1752,-216,1024,49,19,-5
13580,-1736,-288,960,48,18,-6
13585,-1736,-272,992,47,18,-7
13590,-1744,-280,968,46,18,-7
13595,-1752,-280,968,46,18,-9
13600,-1720,-264,976,46,15,-9
13605,-1768,-248,984,47,15,-10
13610,-1728,-296,976,45,13,-11
13615,-1736,-288,992,45,12,-10
13620,-1720,-288,960,45,13,-10
13625,-1704,-264,968,46,15,-9
13630,-1712,-232,936,47,16,-10
13635,-1728,-288,984,48,18,-9
13640,-1728,-312,976,48,18,-10
13645,-1736,-288,984,48,20,-9
13650,-1752,-272,1000,47,22,-10
13655,-1736,-296,976,46,22,-10
13660,-1736,-288,992,47,20,-9
13665,-1744,-272,976,48,19,-9
13670,-1744,-280,976,49,19,-9
13675,-1736,-288,976,51,17,-10
13680,-1792,-280,976,53,17,-9
13685,-1736,-272,1000,54,16,-10
13690,-1752,-272,984,54,14,-13
13695,-1720,-304,992,54,14,-12
13700,-1720,-328,992,53,12,-12
13705,-1728,-280,952,53,12,-13
13710,-1752,-296,976,53,12,-12
13715,-1760,-280,936,53,12,-12
13720,-1736,-312,976,53,13,-12
13725,-1728,-304,976,52,14,-12
13730,-1752,-296,992,52,15,-11
13735,-1776,-312,968,52,16,-11
13740,-1728,-304,968,51,15,-11
13745,-1728,-304,960,51,15,-12
13750,-1736,-280,952,52,12,-10
13755,-1744,-272,968,50,11,-10
13760,-1744,-288,944,51,10,-10
13765,-1752,-288,968,51,7,-10
13770,-1736,-288,960,52,6,-12
13775,-1736,-328,968,51,6,-9
13780,-1760,-288,952,51,5,-12
13785,-1736,-304,976,51,5,-12
13790,-1736,-304,952,50,6,-12
13795,-1728,-296,992,48,7,-11
13800,-1752,-288,984,47,8,-12
13805,-1752,-288,976,47,8,-11
13810,-1720,-288,984,45,8,-10
13815,-1728,-304,984,46,9,-9
13820,-1736,-280,976,45,9,-11
13825,-1728,-296,960,47,10,-8
13830,-1752,-304,976,46,9,-9
13835,-1744,-312,984,48,8,-7
13840,-1752,-288,1000,48,7,-8
13845,-1728,-288,960,49,7,-7
13850,-1736,-272,976,50,5,-9
13855,-1768,-296,976,50,5,-9
13860,-1752,-304,976,50,6,-11
13865,-1720,-296,960,49,6,-10
13870,-1728,-328,968,48,6,-11
13875,-1728,-288,952,47,6,-12
13880,-1744,-264,1000,47,5,-11
13885,-1752,-288,952,48,6,-10
13890,-1744,-304,960,47,4,-11
13895,-1736,-288,992,46,4,-9
13900,-1744,-296,928,46,6,-11
13905,-1744,-296,1000,45,7,-10
13910,-1744,-280,992,46,7,-10
13915,-1752,-288,992,47,8,-11
13920,-1760,-288,968,50,8,-10
13925,-1744,-280,976,51,8,-9
13930,-1736,-288,976,51,8,-10
13935,-1712,-296,976,52,6,-9
13940,-1720,-296,992,53,5,-10
13945,-1744,-280,992,56,4,-9
13950,-1720,-264,976,57,5,-9
13955,-1728,-304,960,58,4,-11
13960,-1744,-312,952,58,3,-12
13965,-1720,-288,976,60,3,-13
13970,-1736,-280,1000,60,2,-12
13975,-1752,-272,992,61,3,-11
13980,-1736,-288,984,60,3,-12
13985,-1744,-280,960,59,2,-12
13990,-1736,-288,944,59,3,-13
13995,-1728,-312,984,58,3,-13
14000,-1736,-288,976,60,5,-12
14005,-1712,-280,992,61,4,-13
14010,-1752,-312,1016,60,5,-12
14015,-1720,-296,984,60,6,-12
14020,-1752,-288,992,59,6,-14
14025,-1728,-280,960,60,5,-15
14030,-1720,-296,976,59,6,-15
14035,-1728,-288,968,59,4,-12
14040,-1744,-296,976,60,4,-12
14045,-1752,-264,984,60,3,-12
14050,-1736,-280,960,61,5,-13
14055,-1736,-328,968,61,4,-13
14060,-1744,-280,1000,61,4,-12
14065,-1712,-256,936,62,4,-14
14070,-1736,-288,1016,62,5,-13
14075,-1728,-272,976,60,5,-12
14080,-1736,-280,1008,61,4,-13
14085,-1728,-288,984,62,3,-14
14090,-1744,-296,968,62,4,-14
14095,-1736,-280,992,62,3,-13
14100,-1720,-312,968,63,1,-14
14105,-1736,-304,984,63,0,-13
14110,-1720,-304,976,61,0,-15
14115,-1760,-272,992,62,1,-14
14120,-1688,-320,976,61,1,-15
14125,-1744,-304,992,61,2,-14
14130,-1712,-288,984,62,2,-15
14135,-1736,-264,976,61,3,-13
14140,-1728,-296,984,62,4,-12
14145,-1744,-296,984,62,2,-12
14150,-1752,-280,976,61,2,-12
14155,-1736,-296,960,63,1,-12
14160,-1744,-304,1000,64,-1,-14
14165,-1712,-272,984,65,0,-13
14170,-1744,-264,920,65,0,-14
14175,-1768,-280,984,66,1,-13
14180,-1736,-280,1000,65,1,-15
14185,-1736,-288,976,66,1,-14
14190,-1752,-288,1008,65,1,-14
14195,-1760,-280,968,62,2,-15
14200,-1712,-296,976,60,1,-14
14205,-1736,-272,976,58,1,-15
14210,-1728,-296,992,57,2,-16
14215,-1712,-312,968,54,1,-15
14220,-1720,-312,1000,53,1,-17
14225,-1736,-264,1008,53,0,-17
14230,-1720,-296,1000,53,-1,-15
14235,-1744,-288,984,53,-2,-15
14240,-1736,-320,952,52,-1,-14
14245,-1744,-288,944,53,-2,-14
14250,-1752,-304,968,53,-1,-16
14255,-1744,-296,968,53,0,-14
14260,-1744,-288,968,54,0,-15
14265,-1752,-280,944,55,2,-14
14270,-1736,-296,968,57,-1,-16
14275,-1704,-304,968,58,-4,-16
14280,-1736,-264,976,56,-5,-16
14285,-1736,-280,992,53,-6,-17
14290,-1752,-280,992,53,-3,-17
14295,-1728,-296,992,53,-2,-17
14300,-1728,-304,976,53,0,-17
14305,-1728,-296,1000,53,1,-17
14310,-1728,-296,1008,51,3,-17
14315,-1704,-312,1016,49,6,-17
14320,-1744,-304,1016,47,7,-16
14325,-1752,-288,984,49,8,-13
14330,-1720,-312,976,49,8,-12
14335,-1744,-280,960,52,7,-12
14340,-1736,-280,1008,52,5,-13
14345,-1736,-272,992,55,2,-13
14350,-1760,-280,1008,55,3,-12
14355,-1720,-304,984,53,3,-12
14360,-1736,-288,992,52,3,-11
14365,-1728,-272,1008,50,4,-9
14370,-1728,-280,984,49,6,-9
14375,-1736,-272,984,50,7,-10
14380,-1712,-296,976,50,8,-9
14385,-1720,-304,1000,51,8,-10
14390,-1632,-272,976,50,9,-8
14395,-1720,-296,984,53,9,-9
14400,-1712,-296,992,54,9,-9
14405,-1744,-280,968,55,10,-9
14410,-1736,-272,968,54,9,-9
14415,-1728,-272,968,55,9,-10
14420,-1704,-304,1000,54,9,-10
14425,-1720,-296,968,53,6,-11
14430,-1736,-296,984,53,4,-9
14435,-1768,-248,984,54,6,-9
14440,-1744,-256,992,52,5,-9
14445,-1736,-312,992,52,6,-10
14450,-1744,-272,984,51,7,-11
14455,-1712,-288,984,50,8,-13
14460,-1728,-280,984,50,9,-13
14465,-1728,-272,960,49,9,-13
14470,-1712,-296,1000,50,9,-13
14475,-1728,-272,968,50,9,-12
14480,-1712,-288,1000,52,10,-12
14485,-1728,-296,1000,52,9,-13
14490,-1736,-328,992,53,9,-14
14495,-1744,-304,984,54,9,-14
14500,-1768,-296,984,55,9,-13
14505,-1736,-272,1000,57,9,-14
14510,-1744,-288,992,58,9,-13
14515,-1744,-280,1000,59,8,-13
14520,-1704,-296,960,60,10,-14
14525,-1712,-288,1008,60,9,-13
14530,-1744,-280,984,60,8,-13
14535,-1728,-312,1000,60,8,-15
14540,-1744,-264,1016,59,8,-12
14545,-1744,-272,976,59,6,-11
14550,-1712,-304,992,60,5,-13
14555,-1728,-320,944,59,6,-13
14560,-1720,-312,992,60,4,-13
14565,-1744,-272,976,62,3,-13
14570,-1720,-296,1000,62,3,-15
14575,-1728,-288,1008,62,5,-14
14580,-1736,-296,992,62,6,-14
14585,-1720,-304,992,62,7,-13
14590,-1704,-320,1024,62,6,-14
14595,-1728,-296,944,61,5,-15
14600,-1736,-280,1008,62,5,-14
14605,-1736,-336,1016,61,4,-13
14610,-1736,-240,936,60,4,-14
14615,-1720,-280,968,59,2,-14
14620,-1728,-272,1008,58,1,-15
14625,-1744,-304,984,55,1,-13
14630,-1728,-296,1008,54,2,-12
14635,-1736,-304,992,53,3,-13
14640,-1728,-296,992,54,3,-14
14645,-1736,-288,992,52,3,-14
14650,-1736,-272,976,50,4,-13
14655,-1744,-272,1000,51,3,-13
14660,-1736,-288,1000,52,3,-13
14665,-1768,-296,1032,52,5,-13
14670,-1736,-296,1016,52,4,-11
14675,-1744,-280,1008,54,4,-10
14680,-1728,-288,1008,55,4,-10
14685,-1736,-288,1008,56,3,-12
14690,-1712,-264,1000,55,3,-12
14695,-1712,-304,1024,56,2,-11
14700,-1712,-296,984,57,2,-12
14705,-1720,-296,976,56,2,-12
14710,-1728,-288,984,55,1,-12
14715,-1768,-280,1000,54,2,-13
14720,-1728,-272,1008,53,1,-12
14725,-1728,-264,1008,53,0,-12
14730,-1720,-288,1000,52,1,-13
14735,-1744,-288,1008,52,1,-12
14740,-1720,-296,1024,51,2,-13
14745,-1728,-312,992,50,1,-12
14750,-1752,-296,992,51,1,-13
14755,-1728,-296,1008,50,2,-11
14760,-1728,-272,1008,51,2,-12
14765,-1736,-280,1008,51,3,-13
14770,-1752,-296,976,52,3,-11
14775,-1712,-272,992,53,4,-12
14780,-1712,-272,984,55,5,-11
14785,-1720,-288,992,55,5,-11
14790,-1720,-296,984,55,7,-11
14795,-1736,-264,1008,55,5,-11
14800,-1712,-272,1000,55,6,-12
14805,-1736,-304,1000,55,6,-11
14810,-1736,-248,1000,55,5,-10
14815,-1728,-296,984,54,4,-9
14820,-1728,-296,992,53,5,-10
14825,-1736,-312,1000,53,5,-10
14830,-1704,-288,1000,53,5,-10
14835,-1720,-296,992,53,5,-11
14840,-1720,-296,1008,53,5,-11
14845,-1728,-280,992,51,6,-12
14850,-1720,-280,1000,51,7,-11
14855,-1744,-296,968,52,8,-12
14860,-1728,-280,1008,54,10,-15
14865,-1712,-312,992,53,11,-14
14870,-1736,-312,1008,55,10,-11
14875,-1704,-280,1016,55,11,-10
14880,-1728,-296,1000,55,11,-11
14885,-1736,-280,992,54,11,-13
14890,-1728,-288,1024,54,10,-12
14895,-1720,-312,984,54,11,-10
14900,-1744,-280,1016,53,11,-13
14905,-1736,-296,984,53,10,-12
14910,-1744,-280,992,54,10,-11
14915,-1728,-288,1016,53,10,-12
14920,-1736,-312,992,54,10,-13
14925,-1728,-248,960,54,11,-13
14930,-1728,-312,1000,55,11,-13
14935,-1712,-288,1000,55,12,-14
14940,-1728,-288,984,56,11,-14
14945,-1728,-312,1000,56,10,-14
14950,-1720,-296,1016,58,9,-14
14955,-1728,-264,1000,57,8,-13
14960,-1736,-264,1008,57,9,-14
14965,-1736,-264,1024,56,9,-13
14970,-1696,-288,992,56,8,-11
14975,-1736,-288,1024,56,8,-12
14980,-1712,-288,976,54,8,-11
14985,-1712,-312,1008,54,6,-10
14990,-1728,-280,1024,54,6,-10
14995,-1728,-296,992,55,5,-12
