timestamp,accel_x,accel_y,accel_z,gyro_x,gyro_y,gyro_z
0,-336,-1960,480,-25,77,1
5,-304,-1984,496,-34,79,1
10,-336,-1984,512,-40,82,3
15,-328,-1984,480,-43,83,2
20,-288,-1968,472,-47,84,0
25,-280,-1968,480,-56,85,0
30,-280,-1976,448,-66,85,-3
35,-304,-1968,472,-79,85,-4
40,-288,-1976,456,-91,82,-6
45,-272,-1976,464,-105,79,-7
50,-296,-1968,464,-114,76,-11
55,-304,-1952,480,-122,70,-12
60,-312,-1952,480,-133,63,-14
65,-328,-1928,512,-146,56,-15
70,-312,-1944,544,-165,45,-19
75,-304,-1896,600,-189,35,-20
80,-360,-1936,560,-219,23,-20
85,-376,-1936,560,-261,13,-24
90,-384,-1936,528,-306,3,-31
95,-432,-1952,552,-373,-8,-44
100,-456,-1960,536,-445,-24,-50
105,-464,-1952,544,-511,-36,-56
110,-464,-1952,568,-574,-59,-70
115,-464,-1992,560,-635,-86,-78
120,-360,-2072,504,-662,-108,-72
125,-384,-2088,456,-631,-115,-59
130,-368,-2040,472,-579,-123,-50
135,-456,-2040,416,-521,-155,-50
140,-392,-2008,368,-458,-161,-47
145,-744,-1744,320,-414,-146,-55
150,-96,-1736,8,-542,-196,-110
155,-384,-1896,360,-709,-98,-122
160,-416,-2024,392,-700,-28,-99
165,-368,-1960,312,-579,-8,-58
170,-360,-1976,368,-477,11,-33
175,-400,-1960,368,-383,49,-28
180,-416,-1960,384,-317,80,-22
185,-472,-1920,336,-305,100,-24
190,-424,-2000,472,-352,123,-20
195,-440,-2016,504,-431,129,-12
200,-456,-2056,496,-511,125,-7
205,-480,-2096,512,-583,109,8
210,-504,-2144,488,-637,86,26
215,-512,-2176,400,-681,62,46
220,-520,-2208,368,-713,39,68
225,-544,-2208,360,-724,26,95
230,-512,-2200,304,-719,20,117
235,-528,-2208,312,-709,14,141
240,-504,-2160,344,-692,10,164
245,-496,-2136,312,-680,3,184
250,-472,-2112,280,-676,-10,199
255,-480,-2088,280,-683,-22,216
260,-440,-2032,272,-698,-36,229
265,-448,-1984,288,-719,-52,242
270,-432,-1952,240,-741,-67,251
275,-432,-1888,224,-764,-82,255
280,-440,-1856,232,-785,-101,257
285,-424,-1808,184,-805,-125,255
290,-480,-1776,160,-819,-150,251
295,-448,-1776,112,-831,-173,248
300,-480,-1760,40,-842,-191,246
305,-448,-1736,0,-856,-206,245
310,-464,-1744,-16,-872,-214,240
315,-416,-1760,-24,-886,-220,239
320,-424,-1808,-24,-898,-224,239
325,-424,-1840,-40,-886,-228,236
330,-424,-1856,-40,-858,-230,234
335,-408,-1864,-72,-823,-230,227
340,-416,-1896,-80,-787,-232,217
345,-416,-1880,-80,-752,-238,205
350,-392,-1904,-104,-721,-247,192
355,-408,-1872,-112,-698,-260,177
360,-416,-1896,-144,-684,-274,164
365,-440,-1888,-120,-682,-290,154
370,-504,-1928,-152,-683,-309,143
375,-520,-1984,-120,-685,-333,133
380,-520,-2056,-136,-672,-358,128
385,-504,-2104,-120,-650,-378,123
390,-512,-2136,-128,-616,-387,117
395,-496,-2152,-104,-567,-386,106
400,-528,-2136,-80,-504,-381,89
405,-480,-2128,-88,-438,-383,66
410,-448,-2072,-80,-378,-395,44
415,-440,-2056,-72,-333,-419,23
420,-408,-1984,-72,-302,-454,6
425,-416,-1968,-80,-281,-482,-8
430,-384,-1992,-72,-266,-498,-24
435,-376,-1976,-24,-261,-505,-41
440,-320,-1976,-32,-262,-507,-56
445,-296,-1984,40,-263,-508,-70
450,-296,-1968,120,-258,-512,-83
455,-288,-1976,96,-245,-511,-93
460,-320,-1968,144,-229,-514,-101
465,-344,-1976,168,-214,-519,-109
470,-360,-1984,216,-201,-532,-119
475,-416,-1984,192,-185,-548,-124
480,-424,-1984,176,-169,-565,-128
485,-416,-2000,144,-160,-576,-134
490,-408,-1992,120,-158,-586,-138
495,-400,-2008,160,-162,-593,-143
500,-368,-2000,128,-164,-594,-148
505,-344,-2048,136,-164,-585,-155
510,-288,-2000,64,-155,-572,-160
515,-312,-2032,112,-148,-568,-164
520,-336,-1984,112,-146,-582,-168
525,-336,-2000,120,-150,-604,-169
530,-360,-1984,112,-149,-627,-167
535,-368,-1992,88,-148,-644,-163
540,-440,-1984,48,-152,-651,-162
545,-480,-1952,24,-166,-649,-166
550,-504,-1984,8,-184,-646,-169
555,-536,-1976,8,-201,-648,-173
560,-592,-1984,8,-207,-657,-177
565,-624,-1960,-24,-200,-670,-178
570,-648,-1952,-64,-195,-689,-181
575,-704,-1928,-64,-195,-712,-181
580,-736,-1936,-72,-203,-737,-178
585,-720,-1936,-104,-212,-761,-169
590,-768,-1960,-88,-221,-787,-160
595,-752,-1976,-72,-229,-814,-153
600,-720,-1960,-88,-235,-837,-149
605,-712,-1984,-128,-241,-862,-147
610,-696,-1992,-136,-242,-885,-144
615,-696,-2000,-112,-245,-907,-142
620,-656,-1984,-120,-249,-928,-140
625,-632,-1984,-144,-250,-944,-136
630,-616,-2016,-120,-245,-960,-132
635,-608,-1984,-144,-236,-971,-128
640,-624,-2008,-136,-228,-979,-124
645,-600,-1992,-136,-223,-985,-124
650,-584,-2016,-112,-221,-994,-124
655,-608,-2008,-104,-217,-1004,-124
660,-640,-2008,-56,-207,-1018,-123
665,-664,-2024,-8,-193,-1032,-122
670,-672,-2032,-24,-180,-1046,-124
675,-704,-2032,-48,-171,-1056,-127
680,-688,-2024,-24,-170,-1065,-133
685,-720,-1992,-48,-170,-1072,-140
690,-696,-1976,-80,-170,-1079,-147
695,-680,-1992,-112,-172,-1084,-151
700,-672,-1984,-96,-170,-1089,-156
705,-664,-1984,-64,-167,-1095,-160
710,-672,-1944,-64,-158,-1101,-160
715,-624,-1960,-64,-148,-1104,-159
720,-648,-1960,-8,-138,-1104,-161
725,-600,-1928,16,-130,-1107,-165
730,-584,-1936,0,-122,-1109,-168
735,-536,-1912,8,-114,-1110,-174
740,-560,-1880,24,-114,-1110,-178
745,-552,-1864,24,-116,-1111,-179
750,-560,-1880,40,-119,-1113,-179
755,-544,-1856,80,-114,-1120,-177
760,-544,-1888,112,-102,-1126,-178
765,-568,-1896,120,-85,-1136,-179
770,-584,-1912,152,-76,-1139,-183
775,-608,-1904,168,-70,-1140,-191
780,-576,-1912,152,-70,-1137,-204
785,-600,-1920,136,-70,-1133,-215
790,-568,-1896,112,-67,-1125,-228
795,-592,-1880,104,-68,-1121,-238
800,-600,-1888,120,-76,-1115,-245
805,-560,-1912,96,-90,-1110,-251
810,-584,-1896,80,-107,-1105,-253
815,-520,-1920,64,-125,-1095,-256
820,-536,-1920,96,-143,-1085,-257
825,-536,-1944,104,-159,-1078,-253
830,-520,-1952,112,-169,-1078,-249
835,-504,-1976,136,-172,-1079,-242
840,-504,-1976,152,-166,-1085,-237
845,-488,-2008,152,-148,-1093,-236
850,-504,-1984,136,-121,-1093,-231
855,-504,-1976,176,-97,-1088,-223
860,-464,-1984,128,-85,-1078,-216
865,-512,-1968,136,-79,-1057,-208
870,-520,-1952,232,-70,-1035,-201
875,-576,-1984,256,-52,-1019,-193
880,-560,-2008,296,-25,-1013,-178
885,-528,-2048,264,10,-1016,-170
890,-520,-2096,208,36,-1014,-167
895,-536,-2112,96,30,-992,-162
900,-568,-2072,56,-10,-956,-153
905,-584,-2096,120,-50,-919,-146
910,-576,-2120,104,-72,-889,-142
915,-552,-2216,144,-73,-856,-137
920,-536,-2224,160,-59,-818,-133
925,-504,-2272,152,-33,-781,-126
930,-480,-2312,88,-14,-748,-112
935,-448,-2320,32,-21,-721,-92
940,-504,-2336,8,-45,-701,-76
945,-448,-2336,-24,-64,-690,-60
950,-432,-2328,-56,-72,-685,-40
955,-432,-2296,-136,-63,-687,-24
960,-416,-2232,-168,-46,-684,-10
965,-360,-2176,-280,-29,-674,1
970,-304,-2144,-312,-17,-664,9
975,-232,-2104,-352,-13,-649,14
980,-176,-2056,-368,-14,-636,14
985,-80,-2016,-376,-16,-623,11
990,8,-2000,-344,-12,-611,2
995,56,-1944,-384,-4,-600,-12
1000,136,-1944,-376,5,-593,-21
1005,216,-1944,-368,6,-589,-28
1010,288,-1944,-376,-11,-588,-41
1015,296,-1992,-384,-45,-590,-55
1020,328,-1992,-384,-87,-592,-68
1025,304,-2032,-296,-127,-596,-81
1030,296,-2056,-264,-160,-608,-92
1035,232,-2064,-272,-187,-626,-103
1040,184,-2072,-216,-205,-658,-112
1045,104,-2040,-296,-219,-698,-122
1050,72,-2136,-248,-245,-738,-134
1055,0,-2144,-272,-279,-777,-152
1060,-96,-2192,-232,-317,-816,-174
1065,-176,-2264,-176,-346,-855,-200
1070,-248,-2344,-160,-354,-896,-224
1075,-312,-2424,-176,-338,-936,-245
1080,-320,-2456,-168,-309,-969,-265
1085,-320,-2456,-184,-272,-995,-288
1090,-288,-2448,-256,-234,-1017,-307
1095,-192,-2400,-264,-203,-1035,-325
1100,-120,-2368,-328,-182,-1049,-339
1105,-80,-2304,-368,-173,-1061,-351
1110,-8,-2240,-368,-178,-1069,-355
1115,48,-2184,-408,-188,-1071,-357
1120,104,-2128,-400,-204,-1072,-358
1125,112,-2080,-360,-221,-1066,-347
1130,160,-2040,-320,-228,-1051,-330
1135,208,-2024,-240,-223,-1046,-321
1140,296,-2024,-168,-217,-1052,-310
1145,280,-2008,-144,-217,-1066,-308
1150,320,-2016,-128,-213,-1073,-291
1155,256,-2008,-112,-209,-1070,-272
1160,272,-1976,-64,-207,-1070,-268
1165,288,-1968,-104,-215,-1076,-269
1170,264,-1904,-104,-239,-1078,-274
1175,248,-1880,-136,-270,-1083,-278
1180,256,-1872,-152,-301,-1086,-279
1185,176,-1832,-144,-321,-1091,-287
1190,144,-1848,-104,-330,-1102,-290
1195,88,-1848,-96,-341,-1113,-291
1200,88,-1824,-120,-354,-1120,-286
1205,40,-1832,-152,-371,-1120,-273
1210,32,-1848,-128,-388,-1115,-256
1215,8,-1856,-152,-403,-1107,-238
1220,8,-1904,-152,-410,-1097,-222
1225,8,-1880,-160,-412,-1085,-213
1230,32,-1912,-152,-412,-1073,-201
1235,24,-1944,-152,-419,-1055,-187
1240,80,-1944,-184,-439,-1038,-176
1245,8,-1896,-168,-458,-1029,-166
1250,32,-1896,-152,-464,-1013,-150
1255,56,-1880,-184,-466,-994,-144
1260,80,-1904,-104,-464,-974,-143
1265,72,-1816,-128,-467,-958,-147
1270,128,-1824,-120,-473,-937,-144
1275,128,-1872,-120,-479,-919,-141
1280,128,-1888,-72,-486,-905,-143
1285,104,-1904,-64,-488,-888,-142
1290,128,-1872,-56,-487,-875,-140
1295,64,-1872,-56,-484,-860,-130
1300,96,-1968,-8,-483,-836,-122
1305,48,-1960,40,-477,-820,-125
1310,64,-1936,-24,-462,-810,-121
1315,24,-1968,64,-451,-809,-120
1320,0,-1936,56,-438,-813,-120
1325,-16,-1952,72,-423,-812,-115
1330,-32,-1944,72,-406,-814,-112
1335,-48,-1936,120,-387,-822,-111
1340,-64,-1920,176,-368,-833,-112
1345,-96,-1912,112,-347,-841,-107
1350,-32,-1904,152,-329,-840,-102
1355,-88,-1920,192,-305,-837,-93
1360,-88,-1896,160,-290,-833,-84
1365,-96,-1856,160,-280,-832,-80
1370,-24,-1880,96,-270,-832,-72
1375,-24,-1856,80,-270,-830,-58
1380,0,-1872,72,-276,-831,-44
1385,-16,-1904,104,-271,-833,-38
1390,8,-1944,128,-258,-839,-34
1395,40,-1976,112,-242,-846,-30
1400,48,-1976,160,-229,-851,-26
1405,56,-1976,200,-212,-852,-22
1410,88,-2008,256,-191,-849,-19
1415,96,-2040,224,-161,-840,-16
1420,112,-2048,272,-125,-829,-9
1425,112,-2064,272,-85,-814,5
1430,120,-2064,272,-45,-798,19
1435,152,-2104,224,-15,-783,29
1440,208,-2088,216,3,-761,45
1445,224,-2096,200,11,-730,45
1450,272,-2136,208,6,-693,50
1455,288,-2224,200,-2,-653,68
1460,264,-2232,168,-5,-621,83
1465,192,-2256,200,-10,-603,88
1470,152,-2280,160,-29,-598,87
1475,128,-2336,168,-57,-596,82
1480,128,-2392,280,-77,-589,70
1485,96,-2400,328,-76,-569,45
1490,128,-2424,392,-49,-534,23
1495,192,-2400,416,-2,-487,0
1500,224,-2376,376,47,-440,-32
1505,296,-2336,352,84,-378,-60
1510,296,-2272,344,108,-317,-83
1515,328,-2208,352,126,-255,-101
1520,328,-2176,312,142,-205,-116
1525,336,-2128,320,154,-172,-127
1530,288,-2080,352,166,-157,-139
1535,232,-2080,376,178,-160,-147
1540,192,-2032,416,184,-169,-147
1545,144,-1968,328,180,-178,-143
1550,144,-2024,224,151,-167,-140
1555,104,-2104,48,80,-137,-141
1560,120,-2208,-152,-43,-105,-153
1565,96,-2392,-328,-208,-73,-170
1570,104,-2528,-456,-404,-38,-193
1575,104,-2760,-544,-590,14,-238
1580,80,-2968,-584,-703,90,-294
1585,320,-3280,-624,-704,176,-361
1590,408,-3392,-608,-584,282,-439
1595,536,-3488,-664,-370,378,-501
1600,512,-3352,-656,-122,446,-537
1605,432,-3144,-640,130,480,-537
1610,424,-2976,-624,349,478,-516
1615,472,-2760,-688,508,446,-508
1620,552,-2536,-800,597,414,-507
1625,536,-2272,-968,608,392,-495
1630,432,-2040,-1144,541,364,-466
1635,224,-1872,-1240,419,301,-419
1640,8,-1760,-1248,289,194,-360
1645,-240,-1752,-1176,201,59,-301
1650,-336,-1856,-1088,162,-78,-240
1655,-464,-1968,-1032,140,-188,-202
1660,-552,-2056,-960,120,-261,-183
1665,-624,-2208,-872,99,-303,-174
1670,-640,-2384,-840,76,-324,-179
1675,-640,-2528,-800,45,-335,-191
1680,-584,-2688,-744,15,-345,-208
1685,-528,-2744,-664,9,-363,-224
1690,-456,-2752,-608,37,-377,-234
1695,-352,-2704,-552,93,-374,-234
1700,-320,-2672,-472,158,-350,-218
1705,-232,-2592,-456,210,-317,-186
1710,-184,-2528,-368,258,-283,-141
1715,-144,-2456,-312,308,-253,-91
1720,-88,-2344,-320,361,-228,-37
1725,0,-2248,-344,402,-200,24
1730,40,-2136,-360,420,-175,85
1735,136,-2040,-400,407,-150,140
1740,240,-1968,-408,373,-122,191
1745,328,-1872,-376,333,-89,240
1750,384,-1768,-360,299,-49,284
1755,392,-1624,-376,273,-3,322
1760,456,-1536,-352,258,39,349
1765,488,-1512,-368,246,73,357
1770,488,-1488,-344,214,102,352
1775,400,-1512,-320,164,126,345
1780,352,-1560,-328,111,144,338
1785,320,-1600,-296,61,168,332
1790,200,-1616,-288,22,190,327
1795,200,-1704,-256,-5,207,314
1800,40,-1864,-184,-14,229,302
1805,72,-1672,-200,-10,250,285
1810,8,-1672,-168,-3,273,275
1815,-24,-1672,-160,2,283,275
1820,-80,-1640,-152,2,296,280
1825,-160,-1592,-152,-2,317,288
1830,-152,-1528,-160,-4,331,301
1835,-176,-1496,-176,-5,356,309
1840,-216,-1464,-144,5,379,318
1845,-264,-1432,-200,8,402,326
1850,-280,-1480,-160,3,430,331
1855,-352,-1464,-152,-1,443,337
1860,-272,-1512,-152,10,442,334
1865,-128,-1520,-160,22,449,322
1870,-152,-1472,-144,37,482,304
1875,-208,-1544,-136,34,506,303
1880,-232,-1624,-144,20,506,315
1885,-224,-1704,-128,18,503,330
1890,-232,-1752,-152,9,494,319
1895,-264,-1776,-120,3,477,290
1900,-336,-1816,-96,11,461,269
1905,-336,-1856,-72,31,443,255
1910,-328,-1816,-80,58,427,239
1915,-384,-1840,-88,78,408,227
1920,-392,-1848,-56,91,397,219
1925,-408,-1824,-24,108,382,210
1930,-408,-1832,0,134,360,201
1935,-384,-1816,24,162,340,192
1940,-368,-1800,48,179,320,182
1945,-384,-1776,96,189,303,170
1950,-384,-1792,96,199,292,166
1955,-416,-1728,96,214,283,169
1960,-328,-1752,112,235,267,170
1965,-352,-1680,80,257,253,163
1970,-280,-1712,72,268,248,158
1975,-208,-1664,48,264,245,149
1980,-160,-1640,56,251,247,139
1985,-112,-1672,64,239,259,127
1990,-96,-1736,64,220,272,119
1995,-56,-1752,96,201,294,107
2000,0,-1824,144,195,319,102
2005,96,-1904,192,201,352,98
2010,88,-1944,176,220,376,84
2015,128,-1976,192,246,401,78
2020,184,-2008,192,276,428,70
2025,184,-2024,216,308,445,61
2030,136,-2008,176,346,446,59
2035,96,-1960,152,375,441,65
2040,56,-1944,128,385,422,74
2045,8,-1920,72,378,391,83
2050,-96,-1880,24,366,360,94
2055,-192,-1888,24,354,331,104
2060,-296,-1872,-40,337,316,110
2065,-352,-1888,-72,316,314,119
2070,-456,-1896,-64,292,326,129
2075,-472,-1960,-40,279,345,144
2080,-480,-1984,0,281,369,165
2085,-472,-2032,104,303,395,191
2090,-488,-2016,184,339,418,217
2095,-424,-2096,248,370,430,247
2100,-432,-2104,368,390,430,270
2105,-424,-2152,464,404,415,288
2110,-360,-2184,544,415,404,292
2115,-312,-2200,600,417,405,264
2120,-256,-2216,640,418,410,221
2125,-248,-2216,576,412,433,189
2130,-168,-2344,704,394,470,183
2135,-56,-2360,728,354,518,172
2140,0,-2424,624,302,575,145
2145,-80,-2472,544,243,622,123
2150,-168,-2536,448,183,657,129
2155,-360,-2640,272,109,679,160
2160,-496,-2752,48,-6,676,208
2165,-624,-2824,-160,-173,648,254
2170,-712,-2968,-368,-366,613,292
2175,-840,-3104,-352,-518,581,339
2180,-888,-3312,-240,-558,518,386
2185,-880,-3416,-112,-430,422,426
2190,-880,-3432,16,-170,311,463
2195,-832,-3296,-48,142,212,491
2200,-824,-3096,-184,398,144,504
2205,-744,-2888,-496,523,109,491
2210,-616,-2648,-720,516,98,447
2215,-472,-2456,-976,428,100,393
2220,-320,-2320,-1112,312,110,349
2225,-168,-2184,-1144,205,140,324
2230,16,-2152,-1176,129,199,307
2235,176,-2088,-1160,83,283,290
2240,288,-2096,-1048,58,378,280
2245,312,-2120,-920,43,471,280
2250,400,-2192,-840,36,552,296
2255,512,-2344,-752,21,623,315
2260,528,-2456,-720,-14,693,315
2265,512,-2560,-680,-59,764,304
2270,504,-2720,-592,-111,824,282
2275,504,-2792,-536,-146,879,235
2280,416,-2832,-480,-133,928,180
2285,312,-2840,-456,-77,956,118
2290,192,-2816,-376,-4,961,49
2295,40,-2736,-304,74,940,-20
2300,-80,-2712,-280,132,888,-96
2305,-280,-2632,-184,164,817,-186
2310,-304,-2560,-160,174,754,-276
2315,-392,-2464,-184,177,697,-369
2320,-424,-2312,-208,180,650,-455
2325,-360,-2152,-272,179,616,-517
2330,-344,-1984,-272,164,589,-550
2335,-344,-1848,-248,149,575,-566
2340,-288,-1664,-200,143,566,-563
2345,-296,-1608,-224,133,567,-552
2350,-272,-1504,-160,113,573,-533
2355,-304,-1456,-152,93,576,-496
2360,-328,-1400,-160,73,569,-459
2365,-320,-1456,-160,37,555,-417
2370,-296,-1480,-168,-13,533,-382
2375,-304,-1536,-144,-67,502,-360
2380,-288,-1576,-144,-109,469,-345
2385,-288,-1560,-88,-137,433,-330
2390,-304,-1584,-72,-143,410,-312
2395,-272,-1560,-40,-135,382,-296
2400,-344,-1512,-48,-120,348,-290
2405,-336,-1512,16,-106,312,-287
2410,-280,-1480,0,-89,282,-293
2415,-288,-1424,0,-69,248,-300
2420,-240,-1384,0,-60,208,-301
2425,-272,-1360,16,-61,172,-288
2430,-192,-1368,-8,-77,138,-277
2435,-160,-1408,8,-98,110,-283
2440,-80,-1408,56,-117,87,-295
2445,-56,-1408,64,-118,59,-307
2450,0,-1440,64,-98,26,-306
2455,48,-1392,48,-69,-13,-307
2460,48,-1456,-32,-48,-58,-304
2465,120,-1568,56,-43,-77,-288
2470,136,-1592,8,-47,-75,-276
2475,128,-1608,-32,-61,-66,-266
2480,168,-1640,24,-84,-53,-244
2485,208,-1664,8,-108,-36,-219
2490,216,-1640,8,-106,-19,-196
2495,152,-1776,72,-82,-11,-181
2500,224,-1664,8,-33,3,-160
2505,248,-1640,72,20,30,-159
2510,264,-1624,88,56,62,-153
2515,288,-1632,96,70,92,-122
2520,256,-1632,104,78,116,-87
2525,168,-1736,168,91,132,-58
2530,240,-1536,48,116,144,-30
2535,88,-1648,104,142,154,-1
2540,120,-1576,232,176,162,28
2545,72,-1560,120,213,167,63
2550,64,-1584,128,240,172,96
2555,48,-1664,280,250,177,125
2560,16,-1576,216,247,174,147
2565,32,-1624,184,242,173,167
2570,8,-1616,272,229,171,183
2575,144,-1536,88,204,173,200
2580,48,-1680,168,168,187,213
2585,24,-1688,152,123,201,220
2590,56,-1696,144,78,212,231
2595,0,-1704,96,38,220,240
2600,48,-1840,104,7,218,245
2605,-40,-1904,0,-24,201,241
2610,8,-1784,152,-51,177,250
2615,-152,-1904,24,-82,143,249
2620,-64,-1952,168,-111,105,243
2625,-184,-2000,72,-138,71,234
2630,-488,-1944,136,-174,42,226
2635,-168,-2032,168,-260,-1,210
2640,-328,-2320,128,-339,-10,170
2645,-576,-2352,208,-370,-60,181
2650,-432,-2272,208,-369,-120,198
2655,-424,-2456,248,-353,-135,182
2660,-360,-2480,256,-307,-124,140
2665,-312,-2496,232,-258,-107,86
2670,-168,-2472,232,-216,-88,47
2675,-112,-2456,264,-186,-82,13
2680,152,-2440,208,-162,-95,-18
2685,248,-2424,344,-135,-128,-40
2690,408,-2480,376,-105,-172,-51
2695,256,-2376,424,-71,-224,-52
2700,296,-2344,384,-50,-268,-57
2705,200,-2496,600,-49,-292,-61
2710,112,-2456,624,-57,-303,-74
2715,24,-2536,592,-66,-307,-80
2720,72,-2432,600,-71,-314,-82
2725,-32,-2416,656,-73,-330,-79
2730,-56,-2368,608,-73,-351,-73
2735,-96,-2336,600,-84,-382,-71
2740,-128,-2352,536,-100,-406,-59
2745,-96,-2328,416,-132,-419,-44
2750,-48,-2336,328,-182,-431,-45
2755,112,-2368,136,-259,-441,-72
2760,240,-2488,-136,-383,-453,-117
2765,504,-2648,-280,-559,-458,-174
2770,584,-2832,-472,-748,-452,-228
2775,568,-2920,-640,-920,-430,-287
2780,696,-3184,-736,-1036,-353,-352
2785,936,-3480,-696,-1033,-230,-452
2790,1192,-3640,-576,-856,-39,-583
2795,1448,-3696,-472,-526,172,-705
2800,1488,-3496,-504,-167,378,-756
2805,1344,-3280,-616,89,567,-733
2810,1064,-2936,-608,204,736,-679
2815,912,-2784,-616,214,868,-639
2820,800,-2624,-640,180,956,-621
2825,568,-2432,-672,147,986,-591
2830,352,-2296,-728,137,954,-531
2835,96,-2240,-696,147,875,-451
2840,-208,-2064,-776,153,759,-380
2845,-384,-1920,-960,141,619,-320
2850,-560,-1768,-912,111,471,-259
2855,-856,-1768,-984,64,327,-200
2860,-904,-1800,-1048,-3,204,-150
2865,-928,-1856,-976,-83,115,-123
2870,-920,-1984,-984,-156,68,-121
2875,-816,-2040,-848,-200,47,-144
2880,-664,-2192,-760,-213,37,-185
2885,-608,-2264,-576,-198,32,-227
2890,-504,-2352,-416,-156,3,-269
2895,-328,-2472,-304,-104,-39,-306
2900,-208,-2544,-320,-59,-64,-313
2905,-104,-2552,-328,-47,-53,-273
2910,-176,-2504,-328,-61,-21,-217
2915,-104,-2392,-344,-69,20,-156
2920,-56,-2296,-280,-49,60,-100
2925,-24,-2192,-360,-1,102,-55
2930,48,-2168,-328,57,144,-7
2935,120,-2088,-352,102,186,44
2940,152,-2000,-328,124,222,93
2945,224,-1968,-352,129,256,140
2950,200,-1984,-360,125,293,182
2955,280,-1808,-336,119,329,227
2960,328,-1768,-328,111,356,258
2965,312,-1648,-312,103,368,288
2970,344,-1608,-320,102,377,318
2975,360,-1616,-240,94,387,345
2980,264,-1584,-312,76,389,354
2985,248,-1616,-320,41,391,346
2990,224,-1680,-328,-10,402,323
2995,184,-1744,-288,-61,420,299
3000,80,-1776,-256,-97,435,268
3005,72,-1752,-264,-110,454,225
3010,56,-1744,-240,-109,484,188
3015,56,-1744,-256,-101,508,171
3020,24,-1672,-224,-99,524,167
3025,56,-1672,-184,-97,540,165
3030,72,-1624,-160,-94,559,172
3035,8,-1584,-160,-99,588,183
3040,-16,-1544,-168,-107,606,205
3045,-16,-1592,-176,-118,621,226
3050,-80,-1528,-144,-123,638,234
3055,-112,-1536,-136,-118,666,236
3060,-56,-1496,-136,-105,686,239
3065,-120,-1480,-144,-87,717,238
3070,-168,-1520,-144,-101,736,236
3075,-152,-1608,-120,-112,734,251
3080,-200,-1672,-104,-110,740,262
3085,-160,-1768,-40,-102,739,249
3090,-224,-1688,-32,-71,758,231
3095,-136,-1688,-32,-42,760,221
3100,-232,-1712,16,16,739,183
3105,-248,-1656,-24,54,711,161
3110,-280,-1616,-88,37,694,142
3115,-288,-1624,-72,-16,684,126
3120,-240,-1640,-56,-64,670,109
3125,-240,-1664,16,-87,654,96
3130,-240,-1680,8,-87,638,84
3135,-248,-1640,40,-68,628,76
3140,-296,-1640,80,-39,622,74
3145,-312,-1632,80,1,614,78
3150,-296,-1608,104,41,602,79
3155,-296,-1592,88,67,590,77
3160,-296,-1600,144,79,576,74
3165,-256,-1656,152,75,562,69
3170,-248,-1640,192,66,543,58
3175,-224,-1688,176,62,529,50
3180,-192,-1656,168,64,528,39
3185,-160,-1744,200,76,544,23
3190,-80,-1872,232,88,572,32
3195,0,-1888,240,93,591,53
3200,-40,-1896,232,116,591,34
3205,0,-1920,224,144,573,20
3210,-48,-1928,144,175,533,17
3215,-136,-1944,-8,168,473,25
3220,-184,-1960,-40,113,421,44
3225,-256,-2024,-32,51,392,65
3230,-280,-2112,0,25,376,85
3235,-264,-2192,-16,45,365,96
3240,-232,-2232,-24,92,360,98
3245,-232,-2224,-40,131,368,90
3250,-256,-2240,-8,149,388,85
3255,-240,-2248,64,147,413,91
3260,-288,-2272,120,140,428,110
3265,-352,-2280,240,141,428,145
3270,-360,-2352,288,157,399,187
3275,-352,-2368,352,186,347,230
3280,-352,-2320,360,226,289,268
3285,-384,-2304,352,267,235,291
3290,-400,-2256,328,301,197,303
3295,-408,-2176,344,320,184,299
3300,-368,-2184,352,330,195,280
3305,-288,-2160,344,330,229,249
3310,-184,-2176,384,316,280,220
3315,-128,-2216,384,298,342,190
3320,-64,-2200,368,273,407,156
3325,-32,-2264,272,230,469,131
3330,-80,-2344,168,165,515,126
3335,-168,-2512,-24,59,533,144
3340,-248,-2656,-288,-113,539,167
3345,-328,-2880,-496,-335,546,208
3350,-360,-3072,-568,-555,538,257
3355,-432,-3240,-536,-679,511,317
3360,-520,-3384,-520,-643,454,389
3365,-576,-3448,-424,-442,381,476
3370,-528,-3320,-328,-126,306,554
3375,-488,-3024,-264,220,238,604
3380,-408,-2712,-336,511,180,614
3385,-320,-2456,-400,688,145,607
3390,-312,-2176,-456,721,128,575
3395,-224,-1936,-624,654,122,523
3400,-120,-1736,-768,532,134,476
3405,-24,-1576,-952,386,172,442
3410,120,-1496,-1000,236,245,417
3415,264,-1480,-1000,113,344,401
3420,344,-1480,-904,29,446,395
3425,360,-1672,-744,-19,544,412
3430,384,-1888,-640,-50,635,432
3435,368,-2096,-544,-76,716,436
3440,296,-2328,-520,-115,783,423
3445,216,-2568,-520,-180,841,379
3450,96,-2768,-456,-247,891,310
3455,32,-2944,-376,-291,929,229
3460,-48,-3056,-312,-285,931,144
3465,-168,-3200,-208,-231,899,60
3470,-264,-3272,-160,-146,844,-15
3475,-336,-3312,-104,-39,765,-87
3480,-384,-3328,-120,83,671,-177
3485,-432,-3144,-160,204,585,-271
3490,-456,-2912,-232,312,519,-354
3495,-456,-2568,-312,398,461,-424
3500,-384,-2248,-336,454,412,-467
3505,-336,-1984,-344,474,372,-494
3510,-240,-1744,-312,455,347,-503
3515,-160,-1608,-272,408,336,-499
3520,-112,-1512,-184,357,343,-480
3525,-64,-1448,-144,299,360,-448
3530,-80,-1472,-152,238,381,-418
3535,-64,-1480,-152,178,412,-379
3540,-72,-1504,-128,129,441,-350
3545,-104,-1528,-144,96,463,-336
3550,-8,-1568,-160,62,470,-332
3555,0,-1600,-168,23,475,-335
3560,-24,-1616,-160,-18,475,-339
3565,8,-1592,-168,-52,475,-328
3570,-48,-1568,-136,-79,477,-308
3575,-88,-1584,-104,-98,479,-284
3580,-96,-1560,-128,-114,469,-262
3585,-160,-1536,-112,-129,453,-243
3590,-136,-1584,-96,-135,433,-225
3595,-136,-1528,-104,-127,402,-212
3600,-136,-1488,-112,-105,365,-208
3605,-104,-1504,-104,-84,309,-212
3610,-144,-1496,-80,-82,246,-216
3615,-136,-1488,-16,-81,184,-216
3620,-80,-1472,0,-62,127,-219
3625,-8,-1464,48,-17,83,-225
3630,-8,-1472,-8,27,50,-231
3635,48,-1464,-40,43,29,-235
3640,104,-1480,-80,30,13,-237
3645,152,-1496,-88,0,2,-231
3650,184,-1560,-112,-32,4,-223
3655,152,-1648,-80,-59,12,-207
3660,128,-1656,-56,-67,17,-190
3665,128,-1720,-24,-58,31,-164
3670,192,-1680,8,-31,54,-152
3675,184,-1688,8,-14,71,-152
3680,208,-1648,88,-5,78,-131
3685,128,-1608,104,7,84,-95
3690,152,-1592,88,18,87,-51
3695,168,-1576,120,29,92,-14
3700,120,-1536,136,38,90,16
3705,112,-1552,160,50,83,44
3710,80,-1592,128,61,73,75
3715,40,-1624,112,61,62,108
3720,0,-1664,120,53,47,139
3725,-32,-1736,96,47,36,163
3730,-80,-1736,56,47,28,182
3735,-248,-1656,32,40,1,190
3740,-48,-1808,80,-9,-34,178
3745,-128,-1984,128,-30,-7,167
3750,-136,-1968,128,-9,-34,189
3755,-144,-1976,104,12,-69,207
3760,-112,-1992,144,33,-85,220
3765,-104,-1992,104,54,-109,214
3770,-136,-2048,96,75,-135,195
3775,-144,-2088,72,93,-152,187
3780,-136,-2104,32,94,-163,176
3785,-120,-2168,40,87,-174,153
3790,-32,-2240,64,83,-176,129
3795,8,-2288,56,88,-167,108
3800,88,-2280,128,98,-156,77
3805,144,-2344,144,101,-142,47
3810,224,-2408,232,105,-121,20
3815,256,-2416,272,116,-93,-6
3820,280,-2416,312,137,-60,-24
3825,304,-2368,320,169,-29,-40
3830,320,-2296,352,205,-7,-46
3835,304,-2272,336,238,12,-46
3840,320,-2232,352,262,31,-37
3845,296,-2232,392,277,49,-25
3850,280,-2224,408,290,68,-9
3855,288,-2152,448,300,85,9
3860,176,-2176,424,299,94,29
3865,168,-2136,336,278,95,42
3870,216,-2168,232,222,93,39
3875,232,-2304,72,120,97,17
3880,184,-2440,-104,-30,97,-12
3885,144,-2640,-344,-193,81,-51
3890,120,-2912,-592,-448,66,-114
3895,80,-3176,-816,-719,94,-200
3900,120,-3472,-920,-940,201,-308
3905,160,-3712,-832,-1009,374,-443
3910,344,-3856,-744,-835,553,-607
3915,552,-3648,-680,-424,714,-768
3920,624,-3224,-712,92,840,-858
3925,608,-2752,-784,508,925,-864
3930,624,-2360,-800,707,972,-850
3935,688,-2040,-904,690,997,-843
3940,560,-1760,-960,527,988,-827
3945,280,-1688,-912,316,933,-768
3950,-96,-1728,-808,129,828,-670
3955,-456,-1744,-744,65,676,-560
3960,-616,-1816,-648,52,509,-452
3965,-800,-1816,-728,55,370,-362
3970,-816,-1864,-776,47,268,-302
3975,-864,-1896,-880,0,198,-270
3980,-888,-2024,-928,-89,135,-257
3985,-880,-2232,-952,-197,66,-250
3990,-848,-2432,-840,-298,-6,-255
3995,-768,-2648,-664,-353,-79,-267
4000,-600,-2824,-488,-335,-134,-277
4005,-456,-2952,-344,-252,-161,-275
4010,-264,-3016,-232,-145,-154,-256
4015,-144,-3040,-192,-46,-117,-219
4020,-56,-3048,-160,23,-69,-170
4025,8,-3016,-152,68,-14,-115
4030,32,-2904,-152,100,38,-45
4035,32,-2744,-216,145,80,29
4040,64,-2496,-256,195,114,96
4045,88,-2336,-352,223,145,152
4050,136,-2168,-336,222,181,198
4055,144,-1968,-336,209,224,228
4060,208,-1816,-280,211,274,251
4065,240,-1624,-288,233,322,268
4070,280,-1488,-336,259,363,276
4075,336,-1392,-360,266,397,274
4080,392,-1376,-376,237,421,272
4085,424,-1376,-328,177,438,259
4090,488,-1424,-280,104,453,248
4095,480,-1464,-224,39,476,236
4100,472,-1480,-208,-15,508,221
4105,440,-1576,-160,-68,536,207
4110,392,-1656,-176,-117,572,194
4115,336,-1744,-144,-161,616,193
4120,296,-1800,-152,-198,665,202
4125,208,-1848,-112,-224,715,204
4130,152,-1872,-96,-240,765,203
4135,136,-1872,-72,-250,814,199
4140,88,-1840,-32,-248,863,191
4145,32,-1736,-56,-227,916,194
4150,-128,-1744,0,-214,948,204
4155,-128,-1784,8,-187,967,241
4160,-216,-1744,-48,-148,991,254
4165,-224,-1688,-56,-115,1014,244
4170,-264,-1624,-64,-98,1033,220
4175,-232,-1624,-88,-91,1055,205
4180,-288,-1608,-56,-90,1076,190
4185,-296,-1632,-96,-98,1085,185
4190,-288,-1688,-32,-109,1085,179
4195,-240,-1728,-64,-110,1098,168
4200,-320,-1680,-56,-105,1124,171
4205,-392,-1712,8,-120,1107,146
4210,-384,-1720,-8,-134,1074,104
4215,-376,-1736,32,-147,1057,64
4220,-416,-1736,56,-170,1042,28
4225,-392,-1704,32,-188,1018,2
4230,-344,-1720,96,-201,1006,-22
4235,-320,-1752,112,-211,1005,-33
4240,-344,-1840,128,-215,1003,-39
4245,-320,-1872,184,-201,991,-44
4250,-288,-1920,216,-161,980,-57
4255,-200,-1920,208,-106,974,-74
4260,-128,-1888,224,-53,985,-93
4265,-48,-1864,312,1,1007,-109
4270,0,-1864,344,58,1026,-125
4275,64,-1808,328,116,1035,-139
4280,48,-1768,320,164,1042,-150
4285,72,-1744,312,195,1048,-149
4290,80,-1768,272,221,1048,-141
4295,80,-1816,248,250,1039,-139
4300,0,-1808,176,267,1022,-143
4305,-56,-1848,136,256,989,-134
4310,-96,-1880,88,230,943,-118
4315,-128,-1944,80,197,888,-102
4320,-152,-1968,-16,167,844,-93
4325,-152,-2008,-88,136,828,-97
4330,-128,-2048,-160,106,842,-109
4335,-136,-2064,-160,85,874,-126
4340,-176,-2024,-216,78,906,-138
4345,-240,-1992,-176,88,912,-140
4350,-304,-2008,-160,113,883,-117
4355,-360,-2024,-168,146,826,-70
4360,-472,-2008,-152,172,751,-17
4365,-568,-2000,-160,182,675,36
4370,-648,-1984,-152,185,612,86
4375,-688,-1928,-72,199,573,123
4380,-656,-1856,-40,225,557,149
4385,-544,-1768,64,262,567,161
4390,-448,-1632,120,302,589,159
4395,-280,-1640,184,344,621,145
4400,-40,-1592,152,373,665,119
4405,184,-1616,56,381,724,76
4410,344,-1648,72,349,815,25
4415,480,-1888,56,297,941,-16
4420,696,-2104,-32,210,1089,-46
4425,848,-2336,-136,83,1237,-81
4430,1024,-2520,-312,-71,1367,-100
4435,1064,-2672,-552,-239,1480,-103
4440,1048,-2800,-720,-395,1538,-85
4445,936,-3016,-784,-492,1532,-39
4450,736,-3144,-760,-456,1475,22
4455,512,-3232,-688,-263,1428,90
4460,304,-3168,-696,16,1406,149
4465,104,-3024,-752,236,1397,183
4470,16,-2800,-904,300,1385,193
4475,-144,-2624,-1032,205,1378,200
4480,-344,-2480,-1272,-17,1343,226
4485,-480,-2392,-1440,-315,1267,280
4490,-584,-2384,-1432,-594,1162,361
4495,-608,-2496,-1208,-754,1056,434
4500,-560,-2640,-816,-726,986,477
4505,-400,-2776,-584,-541,967,484
4510,-224,-2736,-392,-304,985,462
4515,0,-2672,-328,-114,1027,414
4520,184,-2520,-280,2,1071,341
4525,352,-2408,-272,47,1098,259
4530,520,-2288,-368,37,1112,186
4535,640,-2144,-352,-15,1124,118
4540,800,-2080,-344,-77,1136,46
4545,832,-2016,-288,-126,1154,-27
4550,872,-2024,-256,-159,1177,-93
4555,904,-2056,-280,-189,1197,-143
4560,832,-2096,-360,-231,1208,-187
4565,720,-2128,-424,-285,1211,-227
4570,688,-2232,-480,-352,1219,-265
4575,608,-2232,-432,-411,1232,-303
4580,560,-2280,-448,-438,1249,-332
4585,448,-2248,-416,-429,1268,-332
4590,368,-2200,-408,-384,1290,-315
4595,304,-2144,-344,-320,1311,-287
4600,240,-2080,-272,-253,1327,-257
4605,216,-2032,-296,-204,1332,-230
4610,192,-1872,-304,-191,1332,-206
4615,152,-1784,-328,-202,1331,-189
4620,160,-1720,-312,-226,1330,-173
4625,176,-1736,-320,-252,1331,-157
4630,200,-1752,-304,-277,1332,-143
4635,192,-1784,-304,-298,1334,-129
4640,192,-1776,-320,-319,1339,-115
4645,176,-1776,-272,-338,1336,-101
4650,160,-1760,-296,-360,1329,-91
4655,136,-1776,-264,-375,1319,-79
4660,112,-1784,-176,-379,1307,-64
4665,128,-1768,-168,-376,1295,-48
4670,120,-1768,-216,-371,1273,-36
4675,136,-1736,-224,-380,1253,-22
4680,152,-1728,-224,-389,1232,-16
4685,176,-1704,-264,-405,1209,-12
4690,192,-1728,-256,-421,1185,-8
4695,232,-1736,-184,-430,1162,-2
4700,248,-1720,-192,-430,1138,8
4705,264,-1744,-160,-424,1112,17
4710,240,-1760,-128,-414,1082,26
4715,304,-1704,-96,-411,1050,34
4720,264,-1768,-104,-412,1017,44
4725,272,-1768,-120,-419,988,57
4730,248,-1832,-128,-424,960,73
4735,264,-1872,-104,-428,939,90
4740,240,-1872,-136,-425,922,106
4745,264,-1936,-104,-414,904,119
4750,216,-1952,-136,-397,887,139
4755,240,-1992,-128,-384,866,154
4760,272,-1984,-184,-367,852,173
4765,200,-1944,-160,-348,844,186
4770,240,-1976,-144,-337,862,215
4775,200,-1976,-120,-313,878,248
4780,144,-1984,-88,-282,873,276
4785,128,-1976,-120,-255,860,302
4790,80,-1992,-136,-238,843,323
4795,24,-2000,-128,-232,825,336
4800,16,-2016,-120,-233,807,348
4805,32,-2072,-80,-233,789,354
4810,0,-2072,-48,-222,766,355
4815,32,-2112,-8,-194,735,343
4820,-8,-2168,0,-148,696,324
4825,0,-2168,32,-91,674,329
4830,-24,-2088,16,-38,662,328
4835,24,-2088,-64,-2,649,323
4840,0,-2064,-48,12,633,317
4845,-8,-2088,-8,19,618,309
4850,-24,-2080,32,37,605,300
4855,-56,-2104,80,73,582,284
4860,-56,-2128,64,116,553,265
4865,-8,-2104,64,156,511,245
4870,16,-2088,64,188,470,223
4875,32,-2056,32,210,439,203
4880,72,-2040,16,225,421,189
4885,120,-2016,-48,228,411,174
4890,192,-2000,-128,224,406,162
4895,240,-2048,-152,208,401,150
4900,336,-2080,-200,180,385,137
4905,488,-2168,-272,140,363,121
4910,512,-2280,-312,88,347,102
4915,560,-2424,-336,27,347,83
4920,544,-2528,-336,-30,367,66
4925,512,-2648,-352,-69,388,55
4930,480,-2704,-408,-79,401,55
4935,440,-2720,-504,-66,401,68
4940,416,-2672,-608,-39,388,91
4945,376,-2552,-696,-4,362,125
4950,320,-2496,-784,12,325,166
4955,208,-2400,-784,-1,280,217
4960,136,-2376,-768,-41,236,272
4965,72,-2288,-816,-87,201,317
4970,0,-2208,-848,-129,163,353
4975,-56,-2120,-848,-167,121,381
4980,-160,-2040,-824,-189,79,399
4985,-272,-1936,-840,-193,31,406
4990,-336,-1808,-832,-180,-25,408
4995,-384,-1704,-848,-155,-77,404
5000,-416,-1656,-792,-128,-121,390
5005,-496,-1576,-800,-108,-166,358
5010,-496,-1544,-784,-109,-211,325
5015,-504,-1528,-768,-126,-254,298
5020,-464,-1600,-616,-155,-288,260
5025,-400,-1648,-592,-186,-295,209
5030,-296,-1712,-536,-222,-267,156
5035,-192,-1752,-568,-267,-214,119
5040,-120,-1800,-536,-327,-147,110
5045,-24,-1912,-544,-395,-79,127
5050,32,-1992,-608,-466,-16,161
5055,32,-2088,-648,-548,21,207
5060,24,-2176,-720,-643,34,255
5065,56,-2264,-792,-739,33,294
5070,80,-2360,-784,-818,37,325
5075,56,-2432,-704,-868,33,355
5080,24,-2504,-640,-859,25,399
5085,0,-2568,-584,-793,17,449
5090,-72,-2616,-520,-697,22,482
5095,-152,-2560,-512,-599,45,496
5100,-248,-2520,-576,-521,64,503
5105,-272,-2392,-624,-464,75,513
5110,-344,-2272,-632,-418,79,513
5115,-392,-2128,-632,-371,77,507
5120,-376,-1984,-656,-324,68,498
5125,-408,-1920,-592,-284,55,487
5130,-368,-1864,-568,-250,42,479
5135,-408,-1840,-496,-219,42,486
5140,-344,-1840,-576,-196,47,507
5145,-288,-1832,-528,-190,64,523
5150,-352,-1848,-520,-195,86,539
5155,-256,-1896,-608,-220,105,587
5160,-216,-1936,-576,-256,139,643
5165,-288,-1976,-520,-279,166,693
5170,-296,-1920,-552,-293,187,733
5175,-264,-1936,-616,-301,228,780
5180,-352,-1952,-608,-311,281,825
5185,-288,-1936,-584,-319,346,864
5190,-184,-2008,-544,-322,415,887
5195,-232,-2008,-512,-307,468,891
5200,-120,-2016,-440,-279,512,882
5205,-136,-2032,-440,-235,550,865
5210,-104,-2016,-424,-184,571,850
5215,-136,-2008,-408,-137,592,828
5220,-216,-1952,-400,-78,611,806
5225,-216,-1928,-384,-23,629,773
5230,-280,-1824,-424,20,651,729
5235,-360,-1784,-392,65,664,675
5240,-416,-1728,-368,115,664,627
5245,-512,-1672,-400,164,659,589
5250,-600,-1648,-376,203,647,560
5255,-664,-1632,-416,225,635,541
5260,-712,-1608,-472,237,637,523
5265,-704,-1576,-472,233,649,504
5270,-760,-1576,-504,214,661,486
5275,-776,-1544,-496,193,667,465
5280,-744,-1568,-456,171,676,444
5285,-776,-1584,-504,150,673,419
5290,-800,-1592,-496,131,654,396
5295,-816,-1576,-496,110,622,378
5300,-824,-1576,-488,91,586,355
5305,-808,-1584,-456,80,556,324
5310,-760,-1576,-440,77,533,285
5315,-768,-1592,-384,82,516,244
5320,-768,-1640,-344,98,500,202
5325,-720,-1640,-312,122,484,159
5330,-696,-1640,-296,146,468,115
5335,-648,-1608,-288,166,450,73
5340,-608,-1584,-288,185,437,30
5345,-560,-1520,-216,198,431,-17
5350,-512,-1504,-192,207,428,-63
5355,-464,-1504,-192,210,425,-104
5360,-440,-1456,-168,206,426,-142
5365,-392,-1480,-184,200,435,-178
5370,-408,-1456,-208,191,455,-211
5375,-408,-1440,-192,175,480,-242
5380,-432,-1424,-248,150,507,-277
5385,-360,-1456,-312,110,532,-313
5390,-384,-1456,-320,61,554,-348
5395,-360,-1488,-312,12,576,-379
5400,-392,-1568,-328,-33,598,-407
5405,-456,-1592,-352,-70,622,-430
5410,-464,-1656,-328,-92,648,-449
5415,-424,-1736,-336,-102,672,-472
5420,-416,-1728,-312,-101,695,-501
5425,-376,-1768,-296,-98,712,-529
5430,-352,-1768,-288,-100,729,-554
5435,-344,-1760,-272,-101,747,-578
5440,-312,-1752,-176,-93,767,-599
5445,-272,-1776,-160,-66,792,-618
5450,-168,-1800,-96,-33,828,-638
5455,-144,-1768,-104,-8,871,-659
5460,-112,-1744,-64,10,919,-674
5465,-88,-1712,-96,29,961,-687
5470,-40,-1680,-96,51,1002,-690
5475,40,-1624,-120,70,1049,-691
5480,96,-1560,-128,78,1112,-699
5485,168,-1512,-144,74,1190,-700
5490,232,-1456,-160,58,1270,-703
5495,280,-1432,-160,39,1345,-708
5500,296,-1328,-152,19,1413,-707
5505,240,-1208,-160,6,1472,-703
5510,216,-1152,-128,4,1521,-692
5515,224,-1088,-104,13,1558,-675
5520,248,-992,-128,14,1586,-656
5525,232,-952,-144,7,1610,-637
5530,216,-920,-144,-5,1640,-611
5535,104,-912,-112,-7,1673,-583
5540,8,-960,-128,2,1711,-558
5545,-112,-1056,-104,10,1758,-539
5550,-176,-1224,-40,12,1809,-541
5555,-216,-1408,-24,16,1851,-567
5560,-256,-1560,-96,9,1880,-616
5565,-256,-1648,-168,-31,1895,-669
5570,-336,-1728,-336,-107,1916,-710
5575,-304,-1792,-448,-177,1953,-727
5580,-288,-1864,-488,-203,2010,-740
5585,-168,-1856,-616,-166,2069,-748
5590,-24,-1784,-808,-94,2122,-752
5595,0,-1600,-1104,-38,2143,-747
5600,16,-1408,-1520,-46,2118,-728
5605,-72,-1168,-1920,-154,2053,-701
5610,-224,-944,-2360,-374,1955,-670
5615,-408,-792,-2768,-677,1860,-620
5620,-376,-840,-3072,-980,1817,-551
5625,-456,-920,-3136,-1201,1824,-486
5630,-600,-1080,-2976,-1303,1834,-407
5635,-784,-1456,-2512,-1291,1773,-313
5640,-888,-1952,-1704,-1178,1630,-211
5645,-960,-2432,-688,-948,1475,-83
5650,-1008,-2864,304,-609,1293,62
5655,-1064,-3176,1000,-235,1061,225
5660,-904,-3312,1360,62,762,394
5665,-688,-3208,1440,247,478,556
5670,-568,-2880,1144,348,212,672
5675,-480,-2392,648,365,-49,704
5680,-496,-1952,-16,305,-262,681
5685,-432,-1648,-584,178,-396,636
5690,-392,-1472,-920,103,-397,569
5695,-288,-1448,-952,213,-201,482
5700,-224,-1432,-856,499,136,364
5705,-272,-1360,-648,765,426,212
5710,-288,-1200,-512,841,602,53
5715,-328,-1072,-352,696,701,-98
5720,-352,-976,-296,403,736,-221
5725,-344,-1032,-352,34,714,-300
5730,-424,-1224,-368,-343,636,-356
5735,-584,-1464,-416,-652,530,-405
5740,-776,-1744,-368,-825,421,-451
5745,-936,-2016,-232,-821,303,-495
5750,-1040,-2192,-184,-675,157,-544
5755,-1056,-2256,-96,-461,-20,-591
5760,-1008,-2208,64,-231,-191,-632
5765,-984,-2152,176,-11,-301,-662
5770,-864,-2056,176,177,-354,-684
5775,-768,-1968,192,300,-354,-717
5780,-552,-1856,136,362,-349,-776
5785,-368,-1752,128,385,-348,-854
5790,-216,-1624,120,393,-346,-913
5795,-16,-1552,168,388,-374,-937
5800,144,-1440,192,352,-404,-928
5805,456,-1432,296,279,-427,-904
5810,712,-1416,360,191,-433,-868
5815,856,-1384,384,101,-427,-827
5820,904,-1392,392,29,-408,-778
5825,936,-1440,344,-13,-380,-728
5830,944,-1472,304,-26,-340,-688
5835,992,-1536,192,0,-283,-665
5840,960,-1624,80,59,-189,-657
5845,936,-1616,-40,149,-62,-664
5850,928,-1584,-160,252,72,-683
5855,928,-1544,-328,336,192,-716
5860,856,-1464,-448,384,272,-768
5865,712,-1424,-608,407,305,-827
5870,464,-1376,-728,433,282,-874
5875,104,-1336,-856,467,195,-909
5880,-200,-1304,-992,490,58,-944
5885,-520,-1312,-1152,487,-62,-981
5890,-832,-1400,-1176,441,-126,-1006
5895,-1136,-1464,-1016,386,-139,-1013
5900,-1312,-1600,-744,378,-152,-996
5905,-1296,-1768,-480,416,-195,-962
5910,-1088,-1928,-192,469,-251,-930
5915,-776,-2056,-16,535,-302,-905
5920,-440,-2160,32,617,-338,-888
5925,-72,-2112,-8,703,-333,-889
5930,392,-2040,-80,787,-253,-911
5935,736,-1944,-120,866,-98,-952
5940,1056,-1848,-144,956,107,-1013
5945,1344,-1712,-176,1052,336,-1095
5950,1568,-1600,-216,1133,575,-1181
5955,1720,-1472,-224,1190,815,-1264
5960,1736,-1376,-192,1234,1033,-1337
5965,1656,-1264,-216,1293,1205,-1404
5970,1520,-1128,-344,1364,1319,-1468
5975,1320,-1000,-448,1412,1390,-1515
5980,1048,-952,-480,1401,1437,-1537
5985,704,-920,-440,1345,1463,-1535
5990,408,-952,-360,1304,1463,-1515
5995,128,-984,-296,1330,1429,-1489
6000,-80,-1048,-376,1417,1388,-1467
6005,-328,-1032,-456,1514,1361,-1447
6010,-520,-1080,-520,1585,1341,-1421
6015,-640,-1240,-496,1624,1316,-1391
6020,-688,-1280,-472,1651,1287,-1369
6025,-608,-1448,-504,1692,1252,-1364
6030,-472,-1456,-712,1707,1239,-1386
6035,-368,-1464,-824,1633,1257,-1428
6040,-256,-1488,-664,1495,1278,-1469
6045,-176,-1560,-424,1434,1308,-1508
6050,-112,-1544,-416,1503,1372,-1557
6055,-88,-1440,-600,1570,1454,-1618
6060,8,-1384,-640,1536,1517,-1666
6065,120,-1352,-456,1483,1543,-1696
6070,264,-1288,-496,1505,1580,-1715
6075,368,-1016,-704,1524,1681,-1718
6080,584,-768,-768,1418,1787,-1731
6085,704,-520,-752,1230,1854,-1766
6090,712,-600,-616,1074,1926,-1809
6095,504,-1256,336,1031,2199,-1773
6100,920,-2744,2016,1239,2572,-1622
6105,1832,-4040,2032,1724,2711,-1477
6110,3712,-5672,1920,2221,2837,-1401
6115,5832,-7288,1840,2578,2985,-1579
6120,8496,-8728,776,2862,2822,-2081
6125,11184,-9520,264,2930,2439,-2775
6130,13552,-10488,-664,2436,1874,-3362
6135,14456,-11264,-1696,1532,1393,-3720
6140,14176,-10888,-1520,663,1237,-3606
6145,8304,-7712,-128,552,1540,-2941
6150,4472,-5432,-352,1256,1482,-1926
6155,3896,-3952,-280,1662,807,-1613
6160,3744,-3208,-48,1425,216,-2051
6165,2512,-2760,-8,792,-82,-2521
6170,1376,-2824,296,130,-329,-2710
6175,296,-2984,872,-145,-563,-2761
6180,-248,-2800,1072,-135,-782,-2885
6185,-264,-2376,1448,-264,-863,-3125
6190,-648,-1880,1688,-591,-917,-3466
6195,-1280,-1360,1496,-972,-1065,-3718
6200,-1808,-928,1144,-1242,-1249,-3846
6205,-1160,-656,848,-1345,-1362,-3916
6210,-384,-680,672,-1274,-1255,-3980
6215,544,-848,592,-1099,-1092,-4021
6220,1088,-936,456,-842,-965,-4069
6225,1368,-1000,352,-568,-837,-4092
6230,1448,-984,624,-366,-657,-4073
6235,1464,-1048,472,-186,-427,-4002
6240,1504,-1288,408,-78,-161,-3892
6245,1504,-1520,296,23,129,-3785
6250,1456,-1616,208,141,365,-3687
6255,1296,-1504,240,273,494,-3584
6260,888,-1488,368,385,524,-3448
6265,544,-1488,400,425,484,-3337
6270,384,-1264,304,407,414,-3294
6275,-24,-960,368,342,359,-3284
6280,80,-672,544,249,257,-3219
6285,112,-352,568,194,132,-3195
6290,64,48,544,160,33,-3203
6295,144,272,696,117,-53,-3168
6300,320,328,704,74,-131,-3118
6305,296,280,536,62,-182,-3082
6310,432,248,384,88,-168,-3034
6315,584,160,344,154,-100,-3002
6320,696,56,344,226,-29,-2984
6325,760,-168,432,272,33,-2966
6330,872,-384,440,327,84,-2931
6335,1272,-440,400,385,158,-2899
6340,1072,-440,536,386,312,-2868
6345,992,-360,664,306,373,-2802
6350,816,-344,888,184,341,-2808
6355,1104,-96,944,107,252,-2838
6360,1416,192,976,62,212,-2935
6365,1800,360,920,41,191,-2995
6370,2000,528,656,80,205,-2970
6375,1920,680,696,137,277,-2927
6380,1800,928,704,191,322,-2878
6385,1832,1088,784,208,292,-2801
6390,1944,1160,824,236,195,-2697
6395,2144,1264,672,284,29,-2586
6400,2392,1360,432,356,-129,-2476
6405,2616,1560,536,473,-230,-2354
6410,2856,1704,568,591,-266,-2215
6415,3016,1880,696,680,-241,-2051
6420,3032,2048,832,734,-222,-1843
6425,3288,2176,808,749,-268,-1602
6430,3280,2344,744,730,-283,-1350
6435,3512,2504,696,705,-349,-1079
6440,3392,2592,696,668,-424,-846
6445,3376,2544,560,627,-541,-635
6450,3288,2528,472,580,-658,-463
6455,3288,2328,376,490,-720,-323
6460,3152,2064,352,382,-703,-202
6465,3016,1808,288,284,-643,-93
6470,2816,1624,304,212,-573,12
6475,2544,1552,136,200,-548,114
6480,2456,1552,48,220,-559,185
6485,2432,1584,0,266,-517,242
6490,2256,1520,104,311,-520,273
6495,2184,1448,96,332,-527,290
6500,1992,1432,160,337,-537,307
6505,1472,1240,216,281,-535,384
6510,1432,928,488,150,-618,533
6515,1224,792,536,111,-725,587
6520,1192,888,448,129,-768,557
6525,1176,880,392,121,-765,516
6530,1472,864,400,90,-750,468
6535,1280,832,280,89,-666,401
6540,1128,752,176,103,-543,425
6545,952,600,72,92,-423,483
6550,1088,480,0,76,-289,521
6555,1280,408,-48,69,-143,488
6560,1392,440,-16,82,23,399
6565,1544,464,40,119,186,323
6570,1688,392,112,157,324,263
6575,1720,424,200,196,460,233
6580,1664,408,352,226,577,228
6585,1616,464,384,244,648,235
6590,1528,568,424,239,687,245
6595,1464,656,464,223,719,270
6600,1344,688,552,204,732,307
6605,1328,704,520,189,700,347
6610,1360,696,480,178,651,383
6615,1304,656,408,165,605,414
6620,1352,600,432,158,578,439
6625,1416,520,376,159,570,469
6630,1400,504,400,171,566,500
6635,1456,456,416,188,571,531
6640,1544,416,440,213,587,556
6645,1552,392,512,244,619,569
6650,1744,360,576,282,628,576
6655,1848,352,560,316,620,580
6660,1984,248,584,337,609,592
6665,2080,168,616,350,585,609
6670,2192,160,632,357,557,618
6675,2352,152,576,357,536,623
6680,2376,176,648,359,524,627
6685,2384,240,640,358,500,642
6690,2432,280,616,358,456,660
6695,2368,344,608,365,413,670
6700,2424,360,584,377,366,682
6705,2472,384,576,375,328,681
6710,2456,424,576,364,307,691
6715,2512,448,536,341,290,722
6720,2488,496,528,313,270,764
6725,2464,512,520,284,238,808
6730,2392,488,520,261,193,845
6735,2360,504,560,244,130,875
6740,2392,504,528,218,62,900
6745,2384,472,496,190,3,924
6750,2384,440,416,163,-49,949
6755,2360,400,360,137,-93,966
6760,2288,336,352,124,-140,979
6765,2288,288,440,124,-180,985
6770,2136,184,464,154,-201,981
6775,2096,88,488,201,-189,975
6780,2000,80,456,252,-154,967
6785,2008,64,440,283,-110,942
6790,2024,48,384,293,-51,904
6795,2088,32,352,290,-1,853
6800,2048,8,376,290,47,806
6805,2056,-72,376,305,82,785
6810,2032,-64,296,321,96,770
6815,1992,-144,376,336,120,753
6820,1936,-120,400,356,131,740
6825,1872,-144,360,361,113,732
6830,1840,-152,312,334,72,720
6835,1808,-144,296,298,48,700
6840,1816,-176,304,267,56,694
6845,1784,-136,288,241,63,684
6850,1840,-144,280,202,65,668
6855,1896,-160,360,169,58,644
6860,1928,-136,376,143,42,612
6865,1952,-144,376,118,16,580
6870,2072,-216,384,96,-4,551
6875,2208,-328,408,79,-10,518
6880,2176,-464,440,84,4,484
6885,2144,-512,528,121,32,439
6890,2128,-560,496,192,71,419
6895,2136,-584,536,255,119,427
6900,2088,-616,512,301,172,438
6905,2064,-584,432,323,208,445
6910,1984,-552,440,309,228,444
6915,1896,-600,504,281,206,435
6920,1824,-640,496,273,157,426
6925,1848,-544,440,288,90,409
6930,1904,-440,328,302,36,377
6935,1872,-416,344,295,9,348
6940,1864,-336,352,291,-29,339
6945,1968,-240,368,263,-88,326
6950,1784,-224,440,200,-148,301
6955,1776,-272,440,145,-212,304
6960,1872,-360,392,125,-260,304
6965,1976,-424,376,104,-270,283
6970,2080,-488,400,94,-241,268
6975,2072,-536,456,102,-190,256
6980,2088,-600,464,127,-130,256
6985,2040,-656,480,162,-70,261
6990,2032,-720,480,211,-9,268
6995,1960,-704,464,255,50,277
7000,1944,-664,504,289,93,277
7005,1928,-592,480,313,107,271
7010,1888,-528,472,319,98,264
7015,1896,-448,392,301,70,262
7020,1872,-416,400,262,40,261
7025,1888,-368,408,220,6,259
7030,1872,-320,352,193,-25,251
7035,1888,-320,384,172,-52,242
7040,1896,-320,376,150,-74,225
7045,1896,-320,384,127,-91,212
7050,1888,-328,376,109,-106,203
7055,1896,-360,368,91,-111,192
7060,1912,-392,384,73,-109,177
7065,1928,-416,384,62,-92,160
7070,1920,-432,368,58,-70,142
7075,1912,-384,368,55,-48,127
7080,1920,-432,408,51,-27,108
7085,1896,-432,432,46,-10,92
7090,1896,-400,424,50,3,81
7095,1872,-368,408,53,7,69
7100,1872,-344,392,53,7,57
7105,1888,-280,424,48,2,45
7110,1888,-264,400,39,-8,34
7115,1872,-216,376,26,-20,25
7120,1896,-232,392,7,-34,19
7125,1904,-192,408,-13,-51,18
7130,1904,-232,392,-30,-69,15
7135,1928,-288,344,-46,-83,10
7140,1952,-328,296,-54,-98,3
7145,1992,-392,312,-55,-106,-11
7150,1992,-408,280,-48,-103,-27
7155,2016,-424,272,-37,-92,-45
7160,2056,-432,272,-28,-74,-69
7165,2072,-392,280,-22,-47,-96
7170,2072,-352,240,-20,-23,-120
7175,2072,-272,264,-21,-5,-144
7180,2120,-240,248,-23,9,-166
7185,2112,-200,240,-25,25,-186
7190,2128,-168,232,-30,39,-200
7195,2144,-136,248,-38,52,-212
7200,2144,-128,256,-46,58,-220
7205,2096,-128,264,-54,61,-221
7210,2080,-112,272,-62,61,-220
7215,2080,-136,288,-62,57,-213
7220,2056,-160,272,-61,54,-204
7225,2064,-176,272,-56,50,-194
7230,2032,-168,272,-53,42,-183
7235,2024,-160,256,-54,35,-174
7240,2040,-168,280,-51,30,-162
7245,2008,-168,248,-47,31,-151
7250,2024,-168,256,-40,38,-140
7255,2032,-184,248,-32,50,-126
7260,2024,-160,216,-28,65,-113
7265,2024,-176,248,-25,83,-100
7270,2016,-200,256,-19,101,-87
7275,2048,-192,248,-12,116,-76
7280,2048,-216,232,-2,133,-69
7285,2048,-208,232,10,154,-62
7290,2072,-200,240,24,177,-55
7295,2064,-224,216,36,199,-51
7300,2096,-208,272,46,219,-45
7305,2128,-216,280,54,239,-41
7310,2112,-200,304,65,252,-34
7315,2104,-200,296,78,258,-26
7320,2112,-184,312,86,263,-17
7325,2096,-176,296,94,266,-8
7330,2080,-168,312,104,268,4
7335,2056,-136,328,111,270,16
7340,2064,-136,328,114,266,25
7345,2056,-136,360,113,259,35
7350,2032,-104,376,107,250,43
7355,2016,-96,384,103,243,55
7360,2016,-96,360,100,235,65
7365,2016,-104,384,96,230,74
7370,2008,-112,376,96,226,81
7375,2008,-120,400,99,222,90
7380,1960,-112,408,103,219,95
7385,1992,-96,424,104,213,103
7390,1968,-96,424,99,208,109
7395,1968,-144,416,89,205,113
7400,1960,-96,424,77,201,116
7405,1976,-144,424,61,201,113
7410,1992,-160,416,49,202,111
7415,1984,-200,416,35,208,104
7420,1976,-176,344,26,217,98
7425,2024,-224,400,19,231,92
7430,2000,-240,400,17,245,88
7435,2016,-248,368,21,260,86
7440,2032,-248,376,27,268,81
7445,2024,-248,408,34,276,76
7450,2000,-280,368,39,279,70
7455,1984,-248,376,39,277,63
7460,2016,-280,376,38,274,54
7465,2000,-264,408,36,268,46
7470,1992,-264,392,33,265,39
7475,1984,-264,384,30,256,31
7480,1992,-288,424,29,246,27
7485,2024,-280,400,27,240,20
7490,1984,-296,416,26,238,14
7495,2008,-296,432,25,237,11
7500,1992,-264,432,26,237,5
7505,1968,-280,448,29,238,2
7510,1968,-320,440,30,237,-1
7515,1976,-304,424,32,233,-2
7520,1984,-336,424,35,231,-2
7525,1920,-304,456,42,228,-3
7530,1904,-304,488,48,224,-1
7535,1912,-304,488,52,217,-2
7540,1904,-288,456,52,210,-3
7545,1912,-296,528,47,203,-5
7550,1872,-288,512,40,196,-8
7555,1872,-264,536,32,186,-8
7560,1904,-304,512,27,175,-7
7565,1912,-296,504,22,168,-4
7570,1912,-304,456,22,167,-1
7575,1928,-304,512,28,167,0
7580,1936,-280,496,37,169,2
7585,1944,-264,480,43,171,2
7590,1936,-264,464,46,169,4
7595,1952,-256,480,38,166,5
7600,1944,-272,480,31,162,5
7605,1936,-232,488,28,154,6
7610,1944,-256,528,27,147,9
7615,1944,-248,552,26,136,8
7620,1968,-264,512,18,124,7
7625,1976,-232,496,5,111,6
7630,1968,-248,488,-10,101,4
7635,1880,-224,488,-25,91,2
7640,1992,-248,480,-39,87,-2
7645,1992,-256,496,-51,84,-6
7650,1968,-240,504,-58,85,-8
7655,2000,-248,440,-62,86,-9
7660,1984,-240,440,-61,92,-11
7665,1984,-248,432,-54,101,-13
7670,1992,-256,432,-40,108,-10
7675,2008,-272,424,-28,114,-8
7680,2008,-240,432,-16,115,-6
7685,2016,-224,416,-10,117,-2
7690,2008,-240,416,-7,117,2
7695,1976,-224,424,-2,116,3
7700,1976,-232,440,2,116,3
7705,1968,-224,424,6,116,2
7710,1992,-224,472,8,115,1
7715,1968,-232,488,7,110,-2
7720,1968,-256,472,3,104,-4
7725,1952,-216,496,-2,99,-4
7730,1984,-216,480,-1,98,-5
7735,1960,-232,448,6,101,-5
7740,1968,-200,464,13,103,-5
7745,2008,-216,480,19,108,-4
7750,1976,-192,472,21,113,-1
7755,1984,-192,472,21,116,0
7760,1960,-184,472,21,119,3
7765,1984,-192,504,21,118,5
7770,2000,-192,488,20,117,4
7775,1992,-184,512,17,114,5
7780,1992,-216,504,13,108,6
7785,1968,-192,504,7,100,7
7790,1952,-208,520,2,92,8
7795,1952,-224,480,2,84,8
7800,1984,-200,464,4,81,9
7805,1984,-208,496,8,79,11
7810,1968,-200,480,10,80,9
7815,1960,-232,480,9,81,12
7820,1944,-224,472,5,83,11
7825,1952,-216,512,1,82,8
7830,1968,-208,496,-1,79,7
7835,1936,-216,488,-2,79,5
7840,1944,-192,456,-2,82,4
7845,1976,-200,480,1,85,3
7850,1984,-192,504,1,90,2
7855,1968,-192,504,-3,97,1
7860,1976,-216,472,-5,102,2
7865,1992,-240,496,-7,101,1
7870,2000,-248,504,-9,96,0
7875,1976,-248,504,-12,96,1
7880,1960,-280,488,-9,94,2
7885,1952,-264,496,-4,88,3
7890,1960,-248,472,6,82,3
7895,1944,-216,496,14,79,2
7900,1992,-256,480,16,79,4
7905,1960,-240,472,13,78,6
7910,1976,-256,512,5,76,7
7915,1936,-240,496,-5,73,7
7920,1952,-248,504,-14,68,7
7925,1944,-264,496,-21,66,5
7930,1960,-280,496,-23,65,4
7935,1968,-272,504,-22,66,5
7940,1944,-272,488,-19,68,6
7945,1944,-288,496,-15,74,6
7950,1960,-272,496,-11,78,7
7955,1968,-264,480,-6,84,6
7960,1960,-256,472,-4,90,8
7965,1944,-208,448,-2,92,9
7970,1968,-248,488,-2,90,10
7975,1944,-232,496,-4,88,13
7980,1968,-248,480,-6,85,13
7985,1976,-240,480,-7,79,12
7990,1952,-240,488,-8,75,10
7995,1960,-248,512,-10,72,10
8000,1952,-232,520,-9,68,8
8005,1968,-240,496,-11,67,7
8010,1976,-256,504,-16,64,4
8015,1936,-264,488,-19,62,2
8020,1952,-232,496,-19,62,1
8025,1952,-248,472,-16,65,1
8030,1944,-224,520,-12,67,-1
8035,1952,-248,488,-9,67,-3
8040,1984,-224,496,-10,65,-5
8045,1960,-240,488,-10,64,-7
8050,1968,-256,472,-13,60,-8
8055,1952,-240,480,-15,61,-11
8060,1944,-208,520,-14,59,-11
8065,1960,-232,536,-12,57,-11
8070,1928,-232,504,-10,53,-12
8075,1960,-272,512,-9,47,-14
8080,1960,-224,472,-11,43,-14
8085,1976,-224,528,-13,41,-16
8090,1992,-272,472,-11,41,-17
8095,1984,-256,488,-7,43,-18
8100,1968,-264,488,-1,46,-17
8105,1992,-264,520,6,45,-17
8110,1968,-248,472,9,43,-16
8115,1968,-240,472,13,39,-15
8120,1960,-232,496,16,32,-11
8125,1952,-216,512,15,26,-8
8130,1968,-200,480,15,21,-6
8135,1928,-208,480,11,18,-4
8140,1952,-216,488,3,16,-2
8145,1936,-216,472,-5,15,-2
8150,1952,-216,512,-16,13,-2
8155,1976,-240,512,-24,14,-3
8160,1968,-232,480,-31,16,-2
8165,1960,-216,480,-32,17,0
8170,1976,-256,472,-34,18,-1
8175,2008,-264,488,-33,22,-3
8180,1968,-248,448,-28,27,-3
8185,1992,-240,456,-25,29,-4
8190,2000,-224,424,-21,35,-5
8195,1984,-224,432,-19,38,-7
8200,2008,-256,432,-17,41,-9
8205,1968,-264,432,-15,47,-11
8210,1968,-240,432,-12,50,-13
8215,2000,-248,456,-8,52,-14
8220,2000,-256,448,-1,53,-13
8225,1976,-224,480,1,56,-9
8230,1976,-216,448,0,59,-7
8235,1976,-232,456,-1,59,-7
8240,1984,-240,456,-6,59,-8
8245,1976,-264,472,-11,57,-7
8250,1984,-232,472,-15,54,-5
8255,2008,-240,480,-13,52,-7
8260,2000,-232,480,-12,54,-5
8265,1992,-272,464,-11,58,-5
8270,1992,-248,440,-11,59,-4
8275,1976,-240,456,-11,59,-6
8280,1992,-240,440,-12,60,-8
8285,1976,-216,440,-14,58,-11
8290,2032,-232,504,-16,58,-12
8295,1968,-248,464,-18,58,-15
8300,1976,-232,448,-20,59,-19
8305,1976,-248,488,-21,59,-19
8310,1968,-272,480,-20,59,-17
8315,1976,-240,472,-15,60,-16
8320,1960,-264,456,-11,61,-13
8325,1992,-232,472,-4,61,-12
8330,1984,-248,472,2,60,-10
8335,1976,-232,464,5,60,-8
8340,1968,-224,480,4,63,-7
8345,1976,-192,472,1,67,-4
8350,1992,-216,480,-6,66,-3
8355,1976,-240,480,-13,66,0
8360,1992,-232,504,-21,62,1
8365,1944,-240,456,-28,56,2
8370,1984,-256,504,-35,49,0
8375,1992,-232,496,-40,46,0
8380,1984,-256,456,-43,44,-1
8385,1992,-256,464,-46,43,-3
8390,1984,-232,440,-42,47,-2
8395,1976,-232,448,-39,51,-4
8400,1968,-216,456,-37,59,-6
8405,1984,-232,456,-37,66,-6
8410,1984,-232,456,-39,73,-9
8415,2000,-256,456,-40,76,-10
8420,1984,-264,496,-40,78,-9
8425,1968,-224,488,-36,78,-8
8430,1984,-240,448,-34,80,-8
8435,1960,-248,464,-30,80,-10
8440,1968,-248,464,-29,75,-7
8445,2000,-248,456,-30,69,-7
8450,1976,-264,464,-34,64,-8
8455,1976,-256,472,-39,60,-8
8460,1992,-264,464,-44,56,-8
8465,1984,-264,448,-48,55,-8
8470,1984,-248,464,-49,56,-7
8475,1984,-256,432,-49,60,-6
8480,1968,-248,440,-46,64,-6
8485,1960,-248,456,-42,69,-6
8490,2000,-256,520,-36,72,-6
8495,1992,-256,472,-32,75,-8
8500,1976,-240,464,-31,78,-8
8505,1992,-208,480,-29,79,-9
8510,1968,-288,488,-30,79,-9
8515,1984,-248,472,-29,80,-8
8520,1984,-208,440,-26,79,-7
8525,1984,-216,456,-25,78,-8
8530,1984,-200,448,-25,79,-5
8535,2000,-192,464,-30,80,-9
8540,1984,-208,464,-36,78,-8
8545,1992,-232,440,-43,78,-8
8550,2000,-240,472,-48,77,-8
8555,2000,-240,432,-50,77,-7
8560,1968,-216,464,-50,77,-5
8565,1992,-216,448,-49,76,-4
8570,2000,-208,488,-53,77,-2
8575,1976,-208,440,-59,76,-2
8580,1968,-240,496,-65,69,0
8585,1992,-240,464,-70,61,2
8590,1992,-240,496,-75,54,4
8595,1976,-240,472,-76,51,6
8600,1992,-256,480,-76,49,6
8605,1960,-232,488,-76,49,5
8610,1984,-248,488,-75,51,2
8615,2000,-248,432,-73,54,2
8620,1984,-232,448,-71,58,-1
8625,1984,-240,472,-69,66,-2
8630,1976,-224,424,-64,79,-3
8635,1976,-232,432,-59,89,-5
8640,2000,-232,424,-57,97,-5
8645,2000,-224,424,-57,102,-4
8650,1976,-224,440,-58,106,-5
8655,1984,-216,464,-61,106,-5
8660,2008,-248,488,-65,106,-3
8665,1976,-224,448,-69,106,-5
8670,1984,-240,488,-75,104,-4
8675,1960,-232,480,-80,101,-4
8680,1968,-248,480,-87,100,-4
8685,1968,-224,472,-95,97,-5
8690,1968,-232,472,-99,97,-5
8695,1976,-264,456,-102,98,-4
8700,1976,-280,496,-100,100,-4
8705,1960,-272,472,-93,103,-4
8710,1960,-256,464,-82,105,-4
8715,1968,-224,512,-68,107,-4
8720,1968,-192,480,-61,109,-7
8725,1968,-248,488,-59,111,-8
8730,1960,-240,480,-59,108,-8
8735,1952,-240,512,-61,106,-8
8740,1960,-264,496,-65,101,-10
8745,1952,-272,480,-71,93,-12
8750,1944,-232,536,-77,90,-13
8755,1952,-256,504,-83,85,-14
8760,1952,-240,488,-89,82,-13
8765,1960,-264,472,-93,78,-11
8770,1936,-248,496,-91,76,-11
8775,1976,-240,496,-90,73,-10
8780,1976,-256,448,-91,71,-10
8785,1952,-256,472,-88,71,-10
8790,1984,-256,456,-85,74,-10
8795,1968,-272,464,-79,73,-13
8800,1952,-232,456,-74,75,-14
8805,1960,-264,504,-69,76,-14
8810,1968,-264,480,-67,79,-16
8815,1968,-256,496,-64,76,-17
8820,1944,-232,480,-64,76,-18
8825,1976,-248,512,-64,77,-16
8830,1960,-232,480,-65,77,-15
8835,1960,-224,504,-66,75,-15
8840,1944,-232,488,-67,73,-15
8845,1984,-256,480,-70,71,-15
8850,1976,-224,472,-73,67,-15
8855,1960,-248,464,-77,66,-15
8860,1936,-240,448,-77,66,-16
8865,1984,-280,472,-74,64,-15
8870,1968,-256,488,-69,61,-13
8875,1952,-288,448,-66,59,-13
8880,1984,-264,464,-63,61,-15
8885,1976,-256,456,-63,64,-15
8890,1960,-240,472,-61,63,-14
8895,1976,-240,456,-60,64,-14
8900,1968,-248,472,-61,63,-14
8905,1984,-256,456,-60,62,-13
8910,1968,-232,456,-58,63,-12
8915,1944,-216,448,-55,63,-11
8920,1976,-240,464,-54,64,-13
8925,1952,-224,488,-54,68,-11
8930,1952,-264,472,-52,66,-11
8935,1976,-240,488,-50,65,-10
8940,1960,-248,448,-48,63,-10
8945,1968,-264,448,-44,62,-10
8950,1944,-248,464,-42,63,-9
8955,1976,-264,464,-39,64,-10
8960,1960,-240,496,-39,65,-10
8965,1960,-264,480,-36,63,-7
8970,1952,-248,432,-36,61,-7
8975,1968,-264,512,-35,58,-6
8980,1976,-256,472,-35,59,-6
8985,1984,-240,496,-34,60,-5
8990,1968,-256,472,-31,59,-4
8995,1968,-240,464,-29,58,-3
9000,1984,-240,464,-26,58,-3
9005,1984,-256,456,-23,56,-3
9010,1968,-256,440,-19,56,-4
9015,1984,-248,440,-17,56,-5
9020,1976,-248,448,-14,58,-6
9025,1960,-248,464,-13,57,-5
9030,1960,-256,464,-12,57,-5
9035,1976,-264,472,-13,57,-6
9040,1968,-272,464,-11,56,-5
9045,1976,-272,472,-10,55,-5
9050,1960,-232,448,-8,57,-5
9055,1968,-264,456,-3,60,-5
9060,1976,-264,432,1,60,-3
9065,1968,-264,464,7,60,-4
9070,1960,-240,456,10,63,-5
9075,1952,-264,472,12,64,-7
9080,1992,-256,464,12,66,-7
9085,1984,-240,456,10,68,-6
9090,1952,-248,456,8,69,-6
9095,1968,-256,472,8,68,-5
9100,1976,-264,488,10,70,-5
9105,1976,-264,472,13,72,-3
9110,1976,-224,488,17,73,-3
9115,1976,-248,456,20,72,-2
9120,1992,-256,472,19,72,-1
9125,1960,-232,456,18,69,-2
9130,1992,-256,448,15,64,0
9135,2000,-264,456,15,59,-1
9140,1984,-264,432,18,58,-1
9145,1976,-264,432,22,59,2
9150,1992,-264,440,27,61,4
9155,1984,-256,432,31,64,4
9160,1960,-272,440,34,67,5
9165,1984,-248,456,38,73,6
9170,1976,-264,448,41,77,5
9175,1992,-256,464,42,81,5
9180,1976,-248,480,46,86,4
9185,1968,-240,440,53,89,7
9190,1968,-224,456,59,94,8
9195,1976,-240,464,64,94,7
9200,1984,-248,456,66,97,7
9205,1968,-216,456,65,95,9
9210,1976,-232,488,63,94,8
9215,1984,-200,464,60,93,9
9220,1984,-216,472,55,91,8
9225,1992,-248,464,50,89,8
9230,1984,-200,472,45,86,10
9235,1984,-224,480,40,87,10
9240,1976,-232,456,39,89,10
9245,1984,-248,448,39,91,11
9250,1960,-240,456,39,92,12
9255,1976,-248,464,39,91,12
9260,1968,-224,464,39,88,13
9265,1968,-232,424,40,87,13
9270,1984,-248,464,43,87,13
9275,1952,-240,480,44,90,14
9280,1944,-248,472,43,92,16
9285,1976,-248,472,42,92,17
9290,1952,-256,488,43,87,17
9295,1976,-256,472,40,85,17
9300,1976,-288,472,40,83,16
9305,1968,-264,488,42,84,16
9310,1984,-264,480,47,87,14
9315,1984,-248,488,51,92,12
9320,1984,-232,456,52,96,11
9325,2000,-256,496,52,101,10
9330,1984,-248,472,49,105,9
9335,1952,-232,448,46,109,8
9340,2000,-232,504,44,111,8
9345,1960,-224,472,40,111,9
9350,1976,-232,512,34,108,8
9355,1976,-240,504,27,103,8
9360,1976,-248,488,21,101,6
9365,1976,-248,520,14,99,6
9370,2000,-264,480,9,96,6
9375,1976,-280,472,8,93,6
9380,1952,-256,472,11,91,7
9385,1976,-264,480,13,92,6
9390,1960,-240,464,17,93,6
9395,1936,-248,480,19,95,5
9400,1960,-248,480,20,95,6
9405,1936,-264,472,22,96,7
9410,1952,-256,504,26,97,6
9415,1936,-256,472,26,98,8
9420,1960,-248,512,25,99,6
9425,1936,-224,496,27,101,6
9430,1928,-216,472,29,101,6
9435,1952,-224,496,32,100,5
9440,1976,-256,520,34,98,7
9445,1976,-256,488,34,98,8
9450,1968,-248,480,29,94,7
9455,2008,-248,488,25,94,8
9460,1952,-200,496,18,96,5
9465,1992,-240,520,13,99,5
9470,1976,-224,504,6,101,5
9475,1976,-224,504,1,102,6
9480,1992,-208,464,-3,103,8
9485,1976,-240,480,-9,107,6
9490,1976,-224,488,-15,108,6
9495,1992,-232,496,-20,109,8
9500,1960,-248,472,-26,111,11
9505,1960,-248,512,-29,113,13
9510,1960,-240,488,-26,112,14
9515,1992,-248,480,-23,113,17
9520,1960,-240,496,-18,117,18
9525,1968,-240,472,-17,118,19
9530,1992,-264,472,-13,119,22
9535,1984,-240,480,-10,120,25
9540,1960,-256,488,-5,121,25
9545,1944,-248,496,-4,125,24
9550,1960,-240,480,-3,125,25
9555,1960,-256,520,-6,126,24
9560,1968,-272,496,-9,127,20
9565,1968,-304,544,-13,126,14
9570,1976,-280,520,-11,125,9
9575,1984,-304,568,-7,123,5
9580,1984,-272,536,-2,122,2
9585,1960,-248,528,-1,121,1
9590,1952,-232,520,0,118,2
9595,1944,-232,504,0,114,4
9600,1960,-264,512,1,109,7
9605,1952,-240,520,0,102,9
9610,1936,-240,520,0,98,10
9615,1952,-232,504,-3,96,9
9620,1936,-224,496,-4,95,12
9625,1952,-232,536,-3,95,13
9630,1928,-240,520,0,96,16
9635,1944,-224,536,5,96,15
9640,1960,-256,528,7,96,15
9645,1984,-248,512,7,96,15
9650,1960,-256,528,6,95,16
9655,1952,-248,504,5,93,14
9660,1960,-256,536,4,90,14
9665,1976,-264,536,3,86,13
9670,1952,-248,520,0,82,11
9675,1952,-272,520,-2,79,10
9680,1944,-256,544,-4,78,8
9685,1952,-280,528,-3,75,7
9690,1960,-256,504,-5,73,6
9695,1992,-264,504,-9,72,5
9700,1936,-248,512,-8,75,2
9705,1952,-272,432,-5,77,1
9710,1968,-256,480,-1,79,0
9715,1968,-264,520,2,83,-2
9720,1952,-240,504,2,88,-4
9725,1952,-264,504,1,88,-5
9730,1944,-248,528,-1,85,-5
9735,1968,-248,528,-3,84,-8
9740,1952,-232,496,-3,80,-8
9745,1984,-280,528,-3,81,-7
9750,1976,-280,520,-1,82,-8
9755,1960,-248,496,-2,83,-9
9760,1952,-264,488,-3,83,-10
9765,1960,-224,504,-4,85,-10
9770,1984,-264,544,-10,86,-11
9775,1960,-272,504,-18,84,-12
9780,1944,-248,504,-30,85,-14
9785,1960,-272,544,-36,85,-10
9790,1944,-256,552,-36,81,-4
9795,1968,-280,552,-33,79,-1
9800,1936,-272,504,-27,77,0
9805,1952,-296,536,-20,73,1
9810,1944,-280,512,-9,74,0
9815,1952,-256,480,0,72,2
9820,1976,-272,496,8,72,2
9825,1944,-288,456,16,71,4
9830,1968,-272,512,22,73,3
9835,1968,-240,480,28,76,6
9840,1960,-272,464,30,79,6
9845,1960,-280,464,29,83,6
9850,1984,-256,512,31,84,8
9855,1944,-264,536,34,86,5
9860,1968,-264,520,37,85,4
9865,1968,-280,520,42,85,4
9870,1952,-248,544,45,83,4
9875,1968,-264,536,43,82,5
9880,1928,-232,520,41,79,5
9885,1944,-248,504,38,77,7
9890,1952,-240,536,37,75,9
9895,1960,-240,536,33,76,9
9900,1928,-216,512,31,75,11
9905,1968,-264,504,24,75,9
9910,1976,-248,512,20,77,7
9915,1960,-240,528,17,80,6
9920,1928,-256,512,18,84,6
9925,1952,-272,568,21,85,6
9930,1968,-264,536,22,84,6
9935,1976,-240,544,24,83,5
9940,1952,-240,544,26,79,3
9945,1968,-248,520,27,78,3
9950,1944,-216,504,25,76,2
9955,1944,-224,512,26,73,0
9960,1944,-240,552,25,71,0
9965,1976,-248,504,24,70,-1
9970,1944,-240,520,19,71,-1
9975,1936,-240,520,14,74,-2
9980,1952,-224,520,10,76,-2
9985,1952,-232,512,9,79,-1
9990,1968,-264,512,9,84,-2
9995,1960,-264,536,7,88,-2
10000,1920,-248,536,5,87,0
10005,1952,-216,544,3,88,-1
10010,1960,-264,552,4,85,-1
10015,1984,-256,496,6,84,-2
10020,1968,-256,536,7,81,-2
10025,1960,-224,512,5,80,-1
10030,1952,-232,536,3,78,-1
10035,1952,-224,504,0,75,-1
10040,1968,-248,536,-6,71,1
10045,1968,-240,536,-13,70,1
10050,1976,-272,536,-16,74,1
10055,1952,-256,528,-20,79,-1
10060,1936,-264,552,-20,84,1
10065,1944,-272,544,-19,86,1
10070,1952,-256,536,-12,89,3
10075,1952,-272,528,-7,88,1
10080,1944,-240,528,-1,87,3
10085,1960,-264,520,4,86,3
10090,1968,-272,512,6,84,0
10095,1960,-240,568,5,81,0
10100,1928,-248,576,2,76,-3
10105,1960,-240,552,-2,73,-3
10110,1944,-256,520,-9,71,-4
10115,1944,-224,520,-16,69,-6
10120,1968,-264,536,-20,69,-6
10125,1960,-256,536,-24,68,-9
10130,1936,-248,552,-23,69,-8
10135,1936,-192,504,-24,70,-7
10140,1960,-272,520,-22,72,-9
10145,1968,-240,528,-20,74,-9
10150,1952,-248,512,-15,75,-9
10155,1952,-264,544,-13,75,-8
10160,1936,-256,528,-13,75,-8
10165,1944,-272,520,-12,73,-8
10170,1944,-248,536,-12,69,-7
10175,1944,-240,504,-11,67,-6
10180,1944,-248,496,-10,66,-7
10185,1944,-272,528,-11,65,-8
10190,1944,-224,520,-15,66,-8
10195,1936,-256,544,-16,67,-8
10200,1952,-248,560,-16,68,-8
10205,1976,-248,520,-13,67,-8
10210,1968,-240,536,-8,65,-8
10215,1976,-256,504,-7,64,-6
10220,1960,-248,544,-4,61,-5
10225,1968,-240,512,-5,59,-5
10230,1984,-256,512,-5,58,-4
10235,1968,-240,488,-4,59,-4
10240,1936,-224,528,-5,59,-3
10245,1952,-224,488,-8,60,-3
10250,1920,-264,552,-11,60,-3
10255,1952,-224,544,-11,58,-3
10260,1936,-232,488,-12,59,-3
10265,1952,-256,528,-14,60,-1
10270,1960,-232,528,-12,62,-2
10275,1944,-272,528,-10,64,-3
10280,1952,-256,544,-6,67,-2
10285,1960,-248,520,-2,67,-2
10290,1960,-272,496,2,65,0
10295,1976,-232,544,3,68,0
10300,1976,-256,512,4,69,1
10305,1952,-248,512,1,70,1
10310,1984,-240,528,0,72,0
10315,1968,-264,512,-2,73,1
10320,1960,-248,552,-4,74,1
10325,1944,-256,536,-6,74,1
10330,1952,-232,544,-8,70,0
10335,1976,-248,576,-10,67,0
10340,1960,-264,560,-12,64,-1
10345,1968,-256,552,-12,61,0
10350,1952,-264,568,-13,60,-1
10355,1952,-248,536,-16,59,-2
10360,1968,-240,528,-20,60,-1
10365,1952,-288,504,-23,59,-2
10370,1960,-272,536,-23,59,-2
10375,1944,-264,512,-23,60,-1
10380,1968,-256,536,-21,65,-4
10385,1976,-248,504,-21,69,-3
10390,1944,-248,488,-20,72,-4
10395,1936,-248,512,-19,75,-7
10400,1952,-256,496,-15,78,-8
10405,1960,-264,512,-10,80,-8
10410,1968,-272,512,-4,81,-6
10415,1952,-264,544,-2,83,-5
10420,1968,-264,504,-1,83,-3
10425,1944,-248,512,-4,83,-2
10430,1936,-240,520,-8,81,-1
10435,1968,-240,520,-11,78,-2
10440,1952,-224,528,-17,76,-1
10445,1960,-248,544,-21,72,-3
10450,1960,-264,520,-23,68,-4
10455,1960,-280,560,-23,65,-6
10460,1960,-248,520,-23,64,-8
10465,1968,-256,520,-21,63,-10
10470,2008,-200,544,-21,64,-9
10475,1984,-280,528,-18,66,-8
10480,1944,-248,544,-15,68,-8
10485,1944,-272,512,-11,70,-9
10490,1944,-232,528,-9,71,-7
10495,1944,-264,512,-7,73,-5
10500,1976,-248,528,-5,75,-4
10505,1952,-256,496,-4,75,-2
10510,1984,-272,504,-3,75,-3
10515,1944,-248,536,-1,75,-2
10520,1952,-224,536,-2,73,0
10525,1960,-272,544,0,74,-2
10530,1968,-232,512,0,73,1
10535,1960,-256,544,-1,71,1
10540,1952,-248,512,-2,70,1
10545,1976,-216,536,-5,67,1
10550,1968,-224,536,-6,67,0
10555,1976,-248,536,-5,67,1
10560,1968,-256,520,-5,70,1
10565,1968,-232,520,-5,72,0
10570,1952,-264,528,-3,74,0
10575,1944,-240,512,-3,78,0
10580,1952,-256,504,-2,78,1
10585,1936,-240,520,0,81,1
10590,1944,-248,520,0,81,-1
10595,1936,-248,536,-3,81,2
10600,1944,-240,512,-5,79,2
10605,1944,-248,544,-7,77,2
10610,1928,-240,528,-8,73,2
10615,1952,-264,528,-11,73,2
10620,1952,-248,528,-11,73,1
10625,1984,-304,520,-9,75,1
10630,1944,-280,520,-8,77,0
10635,1976,-256,496,-6,80,0
10640,1952,-248,520,-3,83,1
10645,1952,-248,536,0,86,-1
10650,1984,-264,544,0,87,-1
10655,1960,-248,512,0,87,1
10660,1944,-240,528,-4,84,-1
10665,1968,-240,528,-11,83,-2
10670,1976,-240,536,-18,81,-2
10675,1952,-256,536,-25,80,-2
10680,1944,-248,520,-31,80,-2
10685,1968,-264,520,-32,77,-5
10690,1936,-240,520,-33,76,-3
10695,1952,-256,528,-29,74,-5
10700,1920,-256,520,-23,75,-5
10705,1944,-272,536,-18,77,-4
10710,1928,-224,552,-17,81,-5
10715,1920,-248,544,-18,84,-6
10720,1952,-272,536,-20,86,-7
10725,1952,-272,536,-22,84,-6
10730,1936,-256,568,-22,81,-5
10735,1920,-248,552,-19,77,-5
10740,1944,-272,552,-18,75,-6
10745,1944,-272,536,-17,70,-8
10750,1936,-264,568,-18,64,-9
10755,1960,-280,544,-18,60,-8
10760,1936,-272,536,-19,57,-8
10765,1960,-272,512,-16,54,-7
10770,1944,-256,536,-14,54,-6
10775,1928,-224,496,-9,56,-6
10780,1952,-232,512,-8,58,-5
10785,1960,-240,512,-6,61,-6
10790,1952,-248,552,-7,66,-6
10795,1984,-272,544,-10,66,-7
10800,1984,-240,544,-15,66,-7
10805,1976,-224,552,-19,66,-7
10810,1944,-248,512,-22,66,-8
10815,1968,-248,528,-24,64,-7
10820,1936,-224,544,-24,65,-7
10825,1976,-248,568,-24,65,-8
10830,1952,-264,512,-25,64,-7
10835,1968,-248,512,-27,64,-8
10840,1944,-232,520,-29,64,-6
10845,1960,-256,536,-30,62,-3
10850,1944,-224,528,-28,60,-2
10855,1944,-272,528,-29,60,-1
10860,1960,-240,552,-29,61,-1
10865,1952,-256,512,-30,64,-1
10870,1960,-256,528,-32,64,-2
10875,1960,-256,560,-33,63,-3
10880,1960,-232,536,-35,63,-3
10885,1960,-240,528,-37,63,-4
10890,1968,-232,504,-42,64,-3
10895,1960,-240,528,-45,64,-4
10900,1960,-264,576,-49,68,-5
10905,1968,-248,560,-51,70,-5
10910,1968,-264,568,-52,68,-5
10915,1952,-272,576,-53,65,-5
10920,1944,-256,520,-53,63,-8
10925,1968,-256,512,-54,60,-8
10930,1952,-232,496,-53,60,-9
10935,1960,-272,520,-53,61,-10
10940,1912,-232,512,-54,61,-10
10945,1952,-256,520,-57,60,-12
10950,1976,-272,536,-59,59,-13
10955,1944,-256,520,-58,63,-14
10960,1960,-248,536,-57,67,-15
10965,1968,-264,512,-57,70,-16
10970,1968,-272,520,-58,74,-14
10975,1936,-240,528,-64,76,-15
10980,1952,-240,520,-68,74,-15
10985,1952,-256,568,-74,73,-16
10990,1960,-248,560,-77,71,-14
10995,1936,-256,504,-80,70,-14
11000,1944,-264,568,-80,70,-16
11005,1928,-248,568,-77,69,-15
11010,1952,-264,520,-76,68,-16
11015,1936,-240,536,-74,68,-20
11020,1936,-240,504,-72,68,-19
11025,1960,-280,512,-75,68,-17
11030,1952,-248,520,-78,67,-17
11035,1944,-232,528,-81,69,-16
11040,1944,-248,504,-84,67,-17
11045,1968,-280,528,-86,66,-19
11050,1944,-256,528,-86,65,-18
11055,1936,-288,536,-81,65,-18
11060,1960,-256,528,-78,61,-20
11065,1960,-280,504,-71,59,-19
11070,1960,-264,520,-67,59,-20
11075,1944,-256,512,-66,62,-19
11080,1944,-224,528,-67,63,-17
11085,1968,-248,528,-69,65,-17
11090,1944,-224,528,-69,66,-16
11095,1944,-256,520,-70,68,-16
11100,1968,-248,536,-70,71,-15
11105,1952,-248,528,-70,73,-17
11110,1968,-232,520,-70,73,-17
11115,1968,-272,512,-72,73,-16
11120,1928,-232,520,-71,73,-17
11125,1952,-256,528,-70,71,-17
11130,1952,-256,552,-68,71,-18
11135,1944,-256,528,-67,70,-18
11140,1968,-240,520,-64,69,-19
11145,1976,-248,536,-59,67,-18
11150,1936,-240,504,-53,65,-14
11155,1944,-248,504,-49,63,-12
11160,1952,-248,480,-43,63,-12
11165,1944,-272,504,-38,64,-11
11170,1952,-248,480,-33,65,-12
11175,1952,-232,520,-31,64,-12
11180,1952,-256,520,-33,63,-12
11185,1952,-256,520,-37,60,-12
11190,1936,-256,536,-40,58,-13
11195,1928,-264,520,-43,58,-13
11200,1968,-264,528,-47,57,-12
11205,1952,-240,528,-49,56,-11
11210,1936,-256,544,-52,54,-12
11215,1960,-296,536,-52,53,-12
11220,1960,-264,512,-53,52,-13
11225,1936,-272,544,-55,49,-12
11230,1936,-256,544,-57,49,-12
11235,1936,-280,512,-57,48,-15
11240,1936,-280,504,-60,51,-16
11245,1920,-280,536,-60,50,-18
11250,1912,-272,552,-60,52,-19
11255,1928,-280,552,-60,52,-18
11260,1920,-272,536,-61,54,-19
11265,1936,-248,536,-61,53,-21
11270,1944,-264,560,-64,56,-22
11275,1952,-256,544,-69,58,-23
11280,1936,-248,544,-73,57,-22
11285,1952,-240,528,-78,59,-19
11290,1928,-240,512,-79,60,-21
11295,1952,-264,520,-81,59,-19
11300,1968,-240,512,-83,57,-18
11305,1960,-264,496,-83,53,-16
11310,1952,-248,536,-84,47,-17
11315,1968,-232,488,-85,47,-16
11320,1952,-256,512,-85,48,-15
11325,1952,-248,544,-83,47,-15
11330,1968,-240,504,-79,45,-14
11335,1960,-240,488,-75,42,-12
11340,1992,-280,568,-72,41,-14
11345,1976,-256,512,-68,42,-15
11350,1968,-272,496,-64,44,-14
11355,1960,-264,496,-58,42,-14
11360,1960,-264,504,-54,42,-13
11365,1944,-240,496,-53,42,-12
11370,1968,-256,520,-52,41,-11
11375,1952,-248,528,-53,39,-12
11380,1984,-272,512,-50,38,-11
11385,1944,-256,504,-46,39,-12
11390,1952,-264,504,-45,41,-14
11395,1968,-240,496,-43,45,-14
11400,1960,-256,504,-42,48,-15
11405,1960,-256,480,-41,52,-16
11410,1960,-240,504,-42,55,-16
11415,1960,-248,504,-40,55,-17
11420,1968,-272,464,-42,56,-19
11425,1960,-248,536,-42,59,-18
11430,1960,-264,504,-42,61,-14
11435,1928,-264,472,-39,63,-15
11440,1960,-256,496,-37,60,-13
11445,1960,-288,496,-34,59,-14
11450,1944,-232,584,-30,59,-13
11455,1936,-256,472,-27,58,-12
11460,1976,-272,480,-26,58,-12
11465,1960,-248,504,-24,58,-10
11470,1968,-272,488,-24,58,-9
11475,1960,-256,480,-21,59,-9
11480,1952,-264,480,-19,61,-9
11485,1952,-232,512,-16,63,-7
11490,1968,-248,544,-13,63,-7
11495,1952,-240,520,-10,62,-6
11500,1960,-248,496,-7,60,-6
11505,1952,-272,512,-4,57,-6
11510,1984,-232,488,-4,55,-11
11515,1992,-248,464,-3,49,-17
11520,1960,-248,472,-6,47,-20
11525,1984,-256,488,-7,46,-19
11530,1976,-272,512,-9,48,-18
11535,1976,-296,488,-8,51,-16
11540,1968,-280,528,-5,53,-14
11545,1968,-280,496,0,55,-11
11550,1984,-288,464,7,56,-10
11555,1968,-264,520,12,57,-9
11560,1976,-280,480,16,59,-7
11565,1960,-216,496,18,61,-7
11570,1960,-216,480,15,62,-4
11575,1944,-216,488,12,63,-3
11580,1960,-248,504,9,64,0
11585,1968,-264,488,8,68,2
11590,1976,-272,512,7,71,3
11595,1952,-240,496,5,68,3
11600,1968,-240,536,2,69,2
11605,1952,-264,472,0,69,3
11610,1976,-248,520,0,67,3
11615,1976,-280,504,5,68,3
11620,1952,-272,480,14,72,1
11625,1952,-256,512,22,80,0
11630,1960,-248,504,32,86,2
11635,1952,-240,512,37,90,2
11640,1968,-240,520,37,97,3
11645,1968,-248,512,36,100,4
11650,1960,-216,504,33,102,5
11655,1952,-224,512,31,103,8
11660,1952,-232,488,30,102,9
11665,1960,-256,464,27,98,9
11670,1944,-272,504,24,96,10
11675,1944,-248,520,24,93,9
11680,1960,-256,536,23,88,11
11685,1936,-248,520,22,81,13
11690,1968,-248,520,24,75,13
11695,1968,-264,504,26,71,14
11700,1960,-264,480,29,70,17
11705,1952,-256,504,33,68,18
11710,1960,-280,488,39,69,17
11715,2008,-248,488,43,73,18
11720,1992,-264,488,45,75,14
11725,1960,-272,504,47,82,11
11730,1952,-264,544,47,87,11
11735,1960,-280,496,47,90,7
11740,1936,-272,544,49,94,5
11745,1984,-280,528,56,95,6
11750,1952,-248,536,65,95,6
11755,1944,-248,512,73,96,6
11760,1944,-240,512,77,97,6
11765,1952,-248,520,76,98,7
11770,1944,-224,496,72,99,9
11775,1976,-264,520,66,98,11
11780,1944,-216,512,59,95,11
11785,1960,-240,560,54,90,13
11790,1936,-240,536,51,86,13
11795,1976,-248,552,51,82,13
11800,1928,-248,528,53,83,14
11805,1960,-240,536,55,85,15
11810,1960,-232,512,57,85,15
11815,1952,-240,520,55,83,17
11820,1960,-248,512,54,82,17
11825,1968,-240,544,52,81,16
11830,1936,-232,496,49,83,14
11835,1968,-256,504,47,83,13
11840,1960,-264,544,44,84,12
11845,1952,-272,528,44,89,13
11850,1952,-272,512,45,91,12
11855,1968,-240,520,45,92,12
11860,1952,-256,480,44,93,13
11865,1952,-256,520,45,93,12
11870,1944,-256,512,44,93,11
11875,1952,-264,520,42,95,11
11880,1976,-240,520,39,96,12
11885,1960,-232,528,35,99,13
11890,1960,-256,488,37,100,15
11895,1976,-256,520,36,103,13
11900,1944,-224,528,32,101,12
11905,1952,-248,528,26,96,12
11910,1936,-248,528,17,93,7
11915,1968,-264,552,7,89,5
11920,1960,-280,552,-2,87,2
11925,1952,-272,520,-7,84,-1
11930,1944,-280,544,-7,83,-3
11935,1936,-288,528,-5,81,-5
11940,1944,-264,536,2,81,-6
11945,1944,-272,544,9,82,-7
11950,1976,-296,536,18,84,-9
11955,1928,-272,568,24,84,-9
11960,1944,-216,528,29,89,-10
11965,1952,-264,528,32,89,-11
11970,1976,-264,536,32,89,-12
11975,1960,-248,568,30,88,-13
11980,1952,-264,560,27,90,-12
11985,1968,-224,496,25,90,-11
11990,1976,-224,568,23,89,-9
11995,1960,-232,568,19,87,-7
12000,1968,-248,528,16,83,-5
12005,1960,-264,544,13,79,-2
12010,1952,-248,536,12,74,-2
12015,1936,-248,552,12,71,-2
12020,1960,-272,536,13,67,0
12025,1936,-256,544,16,65,-1
12030,1960,-264,560,17,63,-1
12035,1920,-232,584,20,62,0
12040,1928,-224,536,21,59,-1
12045,1968,-248,536,20,57,0
12050,1968,-240,560,19,54,-1
12055,1944,-224,520,16,53,-1
12060,1944,-232,560,13,53,-2
12065,1960,-232,528,8,52,-4
12070,1944,-224,544,3,54,-5
12075,1968,-232,528,-1,52,-4
12080,2000,-240,536,-4,50,-6
12085,1984,-248,528,-5,52,-5
12090,1968,-240,528,-1,52,-6
12095,1992,-240,480,6,53,-5
12100,1968,-224,496,12,55,-6
12105,1952,-224,528,18,58,-5
12110,1952,-232,512,19,60,-5
12115,1944,-232,528,19,60,-6
12120,1944,-232,520,20,58,-4
12125,1936,-240,528,22,53,-4
12130,1944,-240,560,22,51,-5
12135,1976,-264,512,20,48,-4
12140,1968,-224,496,16,49,-4
12145,1960,-256,528,15,50,-4
12150,1960,-240,520,6,51,-5
12155,1976,-240,512,-4,51,-4
12160,1984,-248,536,-11,53,-4
12165,1976,-232,520,-16,55,-3
12170,1944,-264,504,-20,58,-2
12175,1936,-272,504,-21,63,0
12180,1968,-256,504,-18,68,0
12185,1968,-264,504,-14,74,0
12190,1968,-264,512,-8,77,1
12195,1984,-264,520,-4,79,3
12200,1984,-256,488,0,82,4
12205,1968,-248,512,2,83,4
12210,1992,-208,512,5,83,3
12215,1968,-248,488,7,86,4
12220,1968,-240,520,8,86,5
12225,1968,-248,528,5,85,5
12230,1976,-224,528,0,82,5
12235,1952,-248,536,-2,78,4
12240,1976,-264,552,-5,75,4
12245,1944,-240,528,-4,73,0
12250,1936,-248,512,-6,68,-2
12255,1976,-232,520,-7,66,-3
12260,1960,-280,560,-6,64,-2
12265,1944,-240,536,-6,65,-4
12270,1936,-256,576,-3,62,-4
12275,1960,-256,544,2,62,-3
12280,1928,-256,576,7,64,-2
12285,1960,-264,544,14,66,1
12290,1944,-248,536,19,66,1
12295,1960,-256,536,24,64,3
12300,1936,-232,544,30,63,4
12305,1952,-240,536,33,61,6
12310,1944,-240,528,34,60,8
12315,1960,-216,520,34,59,8
12320,1960,-232,520,32,59,10
12325,1984,-240,552,27,57,9
12330,1936,-208,528,21,58,9
12335,1960,-224,520,13,58,12
12340,1952,-224,528,6,57,12
12345,1976,-232,528,-2,57,11
12350,1960,-240,528,-6,57,10
12355,1952,-216,536,-6,58,10
12360,1960,-224,520,-7,59,10
12365,1952,-248,520,-7,61,10
12370,1936,-264,528,-7,61,8
12375,1960,-232,504,-9,62,6
12380,1976,-248,496,-9,65,6
12385,1968,-232,480,-9,69,6
12390,1960,-256,504,-9,71,5
12395,1968,-224,504,-12,78,4
12400,1960,-232,512,-11,82,3
12405,1960,-240,496,-8,87,1
12410,1944,-240,520,-6,93,1
12415,1992,-256,512,-4,97,1
12420,1984,-248,496,-4,99,1
12425,1960,-240,512,-3,103,3
12430,2000,-272,504,-3,105,5
12435,1952,-232,496,-5,105,5
12440,1968,-264,504,-5,105,5
12445,1976,-272,528,-8,105,7
12450,1952,-248,544,-10,103,4
12455,1936,-272,536,-13,104,2
12460,1944,-248,536,-17,103,0
12465,1936,-248,536,-20,102,-3
12470,1912,-256,568,-20,100,-4
12475,1936,-240,568,-18,100,-4
12480,1952,-240,552,-18,99,-3
12485,1952,-264,552,-15,100,-2
12490,1936,-248,536,-14,101,-1
12495,1920,-256,544,-12,102,2
12500,1944,-264,544,-7,105,5
12505,1944,-272,536,-6,106,6
12510,1904,-256,544,-4,106,6
12515,1936,-232,544,-3,105,6
12520,1928,-248,552,-1,100,8
12525,1912,-216,568,-4,97,8
12530,1944,-232,560,-6,92,6
12535,1936,-232,536,-9,88,6
12540,1904,-256,512,-15,83,5
12545,1952,-240,560,-22,80,3
12550,1952,-272,568,-28,78,3
12555,1936,-256,552,-29,79,2
12560,1952,-272,552,-27,81,-1
12565,1960,-256,536,-20,83,-2
12570,1944,-240,544,-9,87,-1
12575,1952,-264,568,1,90,-1
12580,1944,-256,544,9,91,-1
12585,1944,-232,552,15,93,-1
12590,1960,-240,536,18,95,-2
12595,1944,-240,544,15,98,-1
12600,1944,-240,544,15,96,-2
12605,1952,-264,568,9,93,-2
12610,1936,-256,584,5,86,-3
12615,1952,-264,560,2,79,-4
12620,1944,-264,568,-1,72,-7
12625,1936,-280,592,-4,64,-10
12630,1912,-296,592,-2,52,-10
12635,1928,-272,552,1,43,-11
12640,1960,-304,528,9,36,-10
12645,1960,-304,512,17,34,-5
12650,1936,-264,512,28,33,-1
12655,1936,-264,512,38,33,2
12660,1952,-240,544,45,34,5
12665,1960,-256,520,45,33,6
12670,1944,-240,496,40,34,6
12675,1960,-208,528,33,35,6
12680,1976,-232,528,24,36,6
12685,1936,-216,552,19,40,6
12690,1944,-200,544,13,43,5
12695,1952,-224,552,13,45,6
12700,1952,-240,560,12,45,5
12705,1976,-208,560,15,47,6
12710,1952,-208,568,15,49,6
12715,1984,-232,584,15,49,5
12720,1968,-224,528,14,50,4
12725,1976,-232,552,11,50,4
12730,1960,-232,528,8,54,0
12735,1968,-256,552,8,55,2
12740,1960,-216,536,6,56,-1
12745,1968,-224,560,6,57,-1
12750,1960,-232,536,6,57,-3
12755,1952,-280,544,6,58,-4
12760,1976,-232,528,4,57,-5
12765,1952,-240,520,5,59,-6
12770,1960,-232,536,6,61,-6
12775,1944,-248,544,8,62,-8
12780,1952,-248,552,8,65,-8
12785,1960,-256,544,6,70,-8
12790,1968,-264,544,1,70,-7
12795,1952,-264,552,-4,70,-7
12800,1960,-224,520,-6,71,-4
12805,1960,-280,592,-5,71,-4
12810,1960,-256,528,-8,73,-4
12815,1944,-248,560,-12,70,-2
12820,1968,-256,520,-17,66,-1
12825,1952,-240,504,-23,63,-1
12830,1944,-232,528,-24,62,-3
12835,1968,-272,504,-22,64,-3
12840,1944,-264,528,-18,68,-5
12845,1944,-248,536,-14,73,-3
12850,1976,-248,536,-10,78,-4
12855,1968,-240,536,-12,82,-4
12860,1976,-248,520,-14,88,-3
12865,1968,-264,544,-15,93,-1
12870,1952,-240,520,-19,97,-1
12875,1952,-224,536,-19,99,0
12880,1960,-264,544,-15,100,2
12885,1960,-248,536,-11,98,3
12890,1944,-256,552,-7,92,4
12895,1952,-264,544,-7,86,3
12900,1960,-240,528,-6,80,2
12905,1936,-240,504,-8,76,0
12910,1912,-240,544,-10,74,0
12915,1952,-248,552,-13,74,-3
12920,1920,-248,544,-16,73,-4
12925,1944,-272,552,-19,74,-7
12930,1936,-248,528,-21,76,-9
12935,1960,-264,560,-21,79,-10
12940,1976,-240,568,-21,83,-11
12945,1952,-240,560,-21,87,-9
12950,1960,-240,536,-19,89,-9
12955,1968,-264,568,-17,88,-10
12960,1928,-264,552,-16,87,-9
12965,1928,-248,552,-18,86,-9
12970,1952,-240,544,-20,84,-8
12975,1960,-224,544,-26,79,-7
12980,1952,-216,520,-31,76,-6
12985,1944,-256,536,-37,74,-7
12990,1944,-240,544,-40,72,-8
12995,1920,-256,552,-43,72,-9
13000,1936,-248,552,-44,73,-9
13005,1960,-256,592,-42,71,-10
13010,1960,-264,552,-40,68,-9
13015,1944,-240,568,-35,70,-9
13020,1960,-248,552,-29,70,-7
13025,1944,-264,568,-26,73,-5
13030,1968,-264,544,-22,73,-4
13035,1976,-248,528,-21,73,-2
13040,1944,-216,544,-21,73,-1
13045,1968,-256,544,-21,72,1
13050,1976,-248,528,-26,72,1
13055,1952,-232,528,-29,71,-1
13060,1944,-248,592,-34,72,-3
13065,1928,-232,552,-38,70,-3
13070,1928,-248,552,-39,68,-4
13075,1960,-264,544,-39,67,-3
13080,1976,-256,560,-37,68,-4
13085,1968,-256,600,-34,68,-3
13090,1944,-264,536,-31,68,-2
13095,1952,-272,520,-29,70,-2
13100,1936,-240,528,-26,71,-1
13105,1944,-256,552,-25,71,-1
13110,1960,-264,552,-24,70,-3
13115,1936,-232,544,-25,71,-2
13120,1944,-240,552,-30,71,0
13125,1952,-248,568,-35,69,-2
13130,1952,-232,544,-40,67,-1
13135,1952,-264,536,-44,68,-2
13140,1952,-240,552,-47,66,-2
13145,1960,-272,536,-47,66,-2
13150,1968,-256,544,-49,65,-5
13155,1976,-240,520,-50,65,-5
13160,1960,-264,520,-51,65,-5
13165,1944,-280,544,-51,65,-4
13170,1936,-240,528,-51,64,-5
13175,1952,-240,504,-52,65,-4
13180,1976,-232,528,-54,63,-5
13185,1952,-224,536,-56,63,-6
13190,1936,-240,568,-60,60,-8
13195,1944,-264,544,-65,58,-11
13200,1944,-248,544,-70,59,-13
13205,1952,-256,560,-74,58,-15
13210,1960,-280,568,-76,58,-19
13215,1944,-264,568,-79,58,-19
13220,1928,-272,552,-82,57,-20
13225,1928,-232,560,-84,56,-20
13230,1952,-264,568,-85,55,-19
13235,1968,-264,552,-86,52,-20
13240,1936,-264,568,-87,51,-20
13245,1952,-272,560,-89,50,-21
13250,1960,-288,520,-89,50,-21
13255,1960,-256,544,-90,52,-21
13260,1952,-248,552,-90,52,-21
13265,1944,-224,552,-87,49,-20
13270,1944,-224,552,-87,49,-20
13275,1936,-240,560,-86,46,-18
13280,1944,-240,552,-84,44,-20
13285,1968,-248,528,-82,42,-19
13290,1968,-272,544,-79,42,-17
13295,1968,-256,544,-79,41,-17
13300,1936,-240,592,-78,41,-16
13305,1944,-248,544,-78,38,-16
13310,1960,-248,536,-79,37,-16
13315,1960,-264,544,-80,36,-15
13320,1936,-248,528,-81,38,-16
13325,1960,-232,544,-84,38,-16
13330,1960,-264,544,-86,37,-16
13335,1944,-264,528,-88,36,-16
13340,1952,-240,544,-90,34,-19
13345,1976,-248,528,-91,35,-21
13350,1960,-224,536,-91,36,-23
13355,1952,-224,536,-92,38,-24
13360,1968,-264,488,-92,39,-24
13365,1944,-256,480,-93,42,-24
13370,1968,-248,520,-91,44,-24
13375,1976,-256,536,-89,47,-23
13380,1944,-240,528,-86,47,-21
13385,1952,-240,520,-84,49,-23
13390,1944,-248,536,-82,51,-22
13395,1936,-264,552,-82,52,-22
13400,1944,-280,544,-81,51,-22
13405,1960,-264,520,-82,51,-22
13410,1992,-288,472,-82,52,-21
13415,1976,-256,552,-82,53,-21
13420,1960,-232,512,-82,55,-21
13425,1976,-240,520,-80,57,-20
13430,1960,-240,496,-81,60,-21
13435,1976,-264,512,-82,59,-18
13440,1984,-264,488,-84,61,-18
13445,1976,-232,472,-82,61,-17
13450,1984,-272,504,-80,63,-17
13455,1928,-272,496,-76,64,-18
13460,1976,-288,496,-71,65,-16
13465,1960,-288,512,-65,63,-15
13470,1968,-272,512,-60,64,-13
13475,1984,-248,536,-56,65,-13
13480,1952,-264,512,-56,64,-13
13485,1952,-240,496,-58,63,-13
13490,1960,-232,528,-62,62,-12
13495,1976,-248,544,-67,60,-11
13500,1968,-248,488,-70,57,-13
13505,1968,-280,520,-74,56,-13
13510,1944,-264,528,-75,57,-14
13515,1896,-256,552,-72,57,-15
13520,1960,-248,536,-66,59,-16
13525,1952,-256,528,-58,62,-14
13530,1928,-256,496,-50,64,-13
13535,1960,-248,536,-44,64,-13
13540,1976,-232,496,-41,68,-14
13545,1960,-240,512,-39,70,-13
13550,1968,-240,528,-41,71,-12
13555,1952,-224,520,-44,70,-13
13560,1960,-248,536,-48,70,-13
13565,1936,-240,560,-57,68,-15
13570,1952,-248,552,-62,66,-16
13575,1928,-248,600,-65,62,-15
13580,1960,-248,536,-64,62,-17
13585,1944,-256,504,-56,63,-16
13590,1952,-264,520,-47,64,-16
13595,1944,-240,512,-42,64,-17
13600,1952,-248,528,-39,63,-15
13605,1928,-232,536,-38,62,-14
13610,1968,-264,496,-41,62,-12
13615,1952,-248,480,-42,59,-10
13620,1952,-240,504,-40,58,-9
13625,1944,-240,504,-37,59,-9
13630,2032,-256,496,-37,59,-10
13635,1952,-256,520,-41,58,-10
13640,1952,-224,528,-47,58,-11
13645,1944,-264,568,-58,56,-12
13650,1952,-272,552,-65,53,-16
13655,1928,-296,512,-66,50,-17
13660,1968,-296,496,-61,49,-20
13665,1968,-288,512,-50,50,-19
13670,1960,-256,480,-41,51,-18
13675,1984,-280,480,-33,52,-16
13680,1968,-264,496,-27,54,-13
13685,1960,-256,472,-22,56,-13
13690,1952,-240,488,-20,60,-13
13695,1968,-248,520,-20,62,-13
13700,1984,-248,488,-23,63,-12
13705,1976,-248,512,-26,65,-13
13710,1976,-256,488,-26,66,-12
13715,1984,-256,520,-22,67,-12
13720,1968,-256,488,-15,67,-9
13725,1960,-232,488,-9,68,-7
13730,1960,-256,496,-5,71,-6
13735,1960,-232,480,-3,70,-4
13740,1960,-240,464,-3,72,-2
13745,1960,-240,464,-5,72,-3
13750,1960,-240,480,-7,75,-2
13755,1976,-280,488,-6,78,-2
13760,1952,-264,488,-3,81,0
13765,1952,-256,512,2,86,1
13770,1944,-280,552,10,89,1
13775,1968,-248,504,19,92,3
13780,1960,-248,512,30,92,5
13785,1952,-248,520,37,92,7
13790,1952,-248,512,40,92,9
13795,1976,-232,504,39,92,7
13800,1952,-240,496,33,91,8
13805,1952,-240,552,26,91,10
13810,1968,-256,528,18,88,8
13815,1944,-224,520,12,86,7
13820,1936,-248,528,9,86,5
13825,1952,-280,528,8,87,6
13830,1944,-256,544,11,88,6
13835,1952,-272,544,13,91,6
13840,1960,-272,504,19,96,5
13845,1920,-208,520,22,98,5
13850,1960,-248,536,25,100,5
13855,1992,-232,520,24,103,6
13860,1960,-264,520,27,107,7
13865,1944,-264,536,28,108,8
13870,1960,-264,488,26,106,10
13875,1960,-240,528,22,103,8
13880,1952,-232,536,13,99,7
13885,1968,-264,544,4,96,7
13890,1952,-272,568,-2,95,6
13895,1960,-296,536,-7,94,6
13900,1968,-296,520,-6,92,5
13905,1984,-280,520,-4,90,5
13910,1984,-272,512,2,90,4
13915,1952,-272,512,8,91,3
13920,1960,-280,528,10,91,1
13925,1928,-256,504,9,89,-1
13930,1920,-240,544,5,87,0
13935,1968,-280,536,1,84,-2
13940,1944,-248,536,-3,82,-2
13945,1944,-256,560,-8,79,-3
13950,1952,-248,544,-11,78,-3
13955,1976,-256,576,-15,76,-4
13960,1928,-248,528,-17,74,-5
13965,1952,-248,528,-18,74,-4
13970,1960,-240,512,-16,73,-3
13975,1952,-264,544,-15,74,-5
13980,1952,-248,512,-12,72,-3
13985,1960,-256,544,-9,72,-3
13990,1944,-240,528,-6,72,-3
13995,1936,-272,528,0,70,-2
14000,1968,-288,544,5,70,-4
14005,1968,-280,520,13,72,-4
14010,1952,-240,528,19,72,-5
14015,1952,-240,488,23,73,-3
14020,1968,-240,544,23,75,-3
14025,1952,-272,528,22,76,-1
14030,1968,-232,512,17,76,0
14035,1968,-240,544,11,76,1
14040,1944,-224,536,4,77,2
14045,1944,-248,552,-3,75,2
14050,1952,-240,536,-9,73,2
14055,1960,-256,504,-13,71,1
14060,1960,-256,536,-15,68,2
14065,1960,-256,536,-13,66,0
14070,1944,-304,512,-10,65,0
14075,1928,-256,480,-3,65,-1
14080,1952,-280,504,7,66,-1
14085,1960,-264,552,11,68,-3
14090,1968,-264,504,14,69,0
14095,1960,-272,520,19,71,1
14100,1960,-280,544,21,73,2
14105,1960,-256,528,23,76,2
14110,1936,-256,552,24,80,2
14115,1960,-248,528,24,83,3
14120,1960,-224,512,24,85,2
14125,1968,-264,528,21,85,1
14130,1952,-232,528,16,85,0
14135,1976,-248,536,11,86,1
14140,1944,-232,544,6,86,0
14145,1944,-248,536,4,86,2
14150,1944,-248,560,4,87,1
14155,1952,-264,544,4,84,1
14160,1920,-256,552,9,82,2
14165,1944,-248,512,12,81,0
14170,1968,-272,520,15,83,1
14175,1952,-256,544,15,83,1
14180,1968,-264,528,13,83,1
14185,1944,-248,528,11,82,1
14190,1960,-256,496,9,82,3
14195,1944,-232,536,7,83,3
14200,1968,-272,544,7,82,5
14205,1984,-256,544,5,82,4
14210,1976,-264,528,3,79,2
14215,1960,-256,568,1,77,1
14220,1952,-248,536,1,76,1
14225,1960,-248,536,2,75,2
14230,1960,-256,528,3,75,1
14235,1960,-264,528,1,75,-1
14240,1976,-248,504,-1,75,-2
14245,1944,-224,528,-2,79,-1
14250,1944,-264,568,-2,80,-2
14255,1928,-240,512,-1,84,-1
14260,1952,-264,536,0,85,-1
14265,1928,-248,536,-1,87,-2
14270,1928,-272,552,-1,88,0
14275,1936,-216,528,0,89,-1
14280,1928,-240,528,2,88,-1
14285,1936,-240,552,5,85,1
14290,1968,-256,536,7,86,-1
14295,1952,-248,520,6,84,1
14300,1944,-240,528,7,84,1
14305,1952,-280,544,7,85,2
14310,1944,-256,544,6,86,1
14315,1968,-280,488,7,86,2
14320,1952,-264,536,8,87,3
14325,1944,-216,552,11,86,4
14330,1960,-288,536,14,86,4
14335,1920,-256,560,15,87,4
14340,1928,-248,552,17,86,5
14345,1960,-240,560,16,88,5
14350,1944,-240,560,18,91,5
14355,1936,-256,552,18,96,8
14360,1944,-256,536,20,97,6
14365,1960,-232,544,20,95,7
14370,1952,-232,544,18,92,8
14375,1944,-256,560,19,88,8
14380,1936,-256,568,19,86,7
14385,1936,-240,528,19,81,7
14390,2016,-224,544,17,80,8
14395,1976,-264,544,11,81,6
14400,1960,-240,544,8,78,4
14405,1928,-272,576,7,78,2
14410,1952,-240,552,5,77,2
14415,1928,-264,576,5,79,1
14420,1944,-248,560,7,82,3
14425,1968,-264,544,8,85,2
14430,1936,-264,552,10,87,3
14435,1936,-248,536,12,88,3
14440,1936,-320,576,16,89,3
14445,1912,-240,560,16,90,3
14450,1944,-264,576,15,87,3
14455,1936,-280,584,13,80,4
14460,1928,-256,544,10,74,3
14465,1936,-232,552,9,68,2
14470,1928,-256,552,7,67,1
14475,1944,-248,544,6,66,-1
14480,1920,-256,568,7,64,-1
14485,1952,-264,528,8,63,-1
14490,1936,-288,560,9,66,-2
14495,1952,-240,552,12,69,-2
14500,1960,-256,536,18,75,-1
14505,1960,-272,528,23,78,1
14510,1968,-240,528,29,83,2
14515,1976,-232,560,31,84,3
14520,1960,-264,520,31,84,4
14525,1944,-240,544,29,81,5
14530,1952,-240,544,26,79,6
14535,1952,-232,544,23,76,5
14540,1936,-256,552,20,73,4
14545,1944,-240,544,16,70,5
14550,1928,-232,552,12,66,3
14555,1968,-256,552,7,61,2
14560,1936,-248,576,3,56,0
14565,1952,-240,576,1,52,-1
14570,1928,-280,552,5,53,1
14575,1952,-264,544,13,57,1
14580,1944,-256,536,21,63,0
14585,1952,-240,560,26,70,-1
14590,1936,-240,512,26,76,0
14595,1960,-248,544,21,81,-1
14600,1968,-264,568,17,84,2
14605,1952,-208,584,11,85,1
14610,1928,-240,536,9,88,1
14615,1952,-288,544,9,85,-1
14620,1968,-256,568,9,81,-2
14625,1912,-232,560,10,76,-4
14630,1960,-264,560,6,71,-4
14635,1960,-264,568,1,63,-7
14640,1928,-280,616,-1,56,-8
14645,1944,-280,552,0,50,-7
14650,1936,-280,552,4,47,-6
14655,1952,-256,536,9,46,-4
14660,1960,-256,528,16,47,-1
14665,1976,-240,528,22,50,1
14670,1944,-248,528,27,51,2
14675,1984,-256,496,29,56,2
14680,1944,-256,520,26,60,2
14685,1976,-232,552,22,64,2
14690,1936,-240,520,17,68,2
14695,1952,-248,536,13,72,1
14700,1968,-256,520,14,76,1
14705,1960,-256,536,19,80,2
14710,1952,-248,536,23,83,2
14715,1960,-216,552,30,86,1
14720,1928,-248,552,33,86,1
14725,1936,-240,544,33,86,2
14730,1944,-256,560,30,84,3
14735,1944,-240,536,26,81,3
14740,1960,-216,560,22,80,4
14745,1952,-248,552,20,81,5
14750,1944,-232,552,19,82,6
14755,1928,-256,560,21,83,6
14760,1952,-256,552,22,82,8
14765,1952,-264,528,24,83,8
14770,1952,-240,536,27,84,9
14775,1952,-264,568,28,84,8
14780,1960,-240,568,28,85,9
14785,1952,-272,592,26,84,7
14790,1936,-248,552,24,82,7
14795,1936,-240,528,23,82,8
14800,1968,-280,552,23,83,5
14805,1944,-264,536,22,80,5
14810,1952,-248,520,20,79,3
14815,1976,-248,544,20,77,4
14820,1952,-280,520,21,77,4
14825,1960,-232,552,22,78,4
14830,1936,-224,552,22,78,4
14835,1968,-248,560,20,79,3
14840,1960,-256,544,20,81,3
14845,1952,-264,552,20,81,3
14850,1952,-232,496,20,84,3
14855,1936,-216,528,20,83,4
14860,1936,-248,544,20,85,5
14865,1944,-232,552,18,84,5
14870,1952,-256,560,11,82,7
14875,1960,-232,560,4,81,6
14880,1928,-240,576,-2,80,5
14885,1952,-280,552,-3,81,4
14890,1944,-296,592,-2,80,3
14895,1936,-264,576,3,77,3
14900,1944,-264,584,9,76,1
14905,1944,-256,592,14,75,0
14910,1920,-248,552,19,73,-1
14915,1944,-248,584,23,74,-1
14920,1944,-232,552,20,77,-2
14925,1944,-232,560,16,78,0
14930,1936,-248,576,7,80,0
14935,1968,-280,536,-2,80,-2
14940,1928,-272,560,-9,79,-1
14945,1952,-256,568,-12,76,-4
14950,1936,-264,592,-14,76,-5
14955,1920,-232,584,-13,75,-5
14960,1936,-256,584,-10,71,-3
14965,1936,-264,592,-12,67,-6
14970,1920,-264,560,-10,62,-4
14975,1944,-280,544,-7,60,-4
14980,1960,-232,544,-4,61,-5
14985,1952,-240,560,-2,63,-5
14990,1960,-256,544,0,67,-5
14995,1984,-232,584,-3,70,-5
