timestamp,accel_x,accel_y,accel_z,gyro_x,gyro_y,gyro_z
0,176,-2056,-448,-40,10,4
5,176,-2096,-440,-41,10,2
10,176,-2088,-448,-42,10,0
15,176,-2064,-432,-43,9,1
20,184,-2064,-424,-43,11,-1
25,160,-2080,-456,-44,12,-2
30,144,-2072,-448,-44,10,-2
35,192,-2048,-448,-46,11,-2
40,136,-2040,-448,-49,10,-2
45,152,-2048,-448,-51,9,-2
50,176,-2072,-448,-54,8,-3
55,152,-2056,-448,-58,6,-2
60,176,-2072,-440,-60,5,-3
65,176,-2056,-456,-63,4,-5
70,136,-2064,-448,-66,0,-7
75,160,-2040,-448,-70,-3,-8
80,160,-2072,-472,-71,-5,-10
85,160,-2072,-448,-70,-7,-9
90,152,-2080,-448,-73,-9,-11
95,152,-2056,-448,-75,-13,-10
100,168,-2056,-448,-73,-16,-13
105,152,-2040,-440,-73,-22,-14
110,144,-2040,-440,-70,-27,-14
115,160,-2056,-456,-69,-34,-14
120,184,-2048,-456,-72,-43,-14
125,168,-2064,-432,-75,-51,-12
130,200,-2088,-456,-76,-59,-11
135,160,-2048,-424,-76,-67,-8
140,176,-2048,-424,-79,-73,-4
145,160,-2048,-440,-79,-79,-4
150,160,-2064,-440,-80,-88,-3
155,176,-2080,-424,-82,-96,-3
160,176,-2072,-392,-84,-104,-7
165,208,-2088,-416,-76,-108,-7
170,184,-2072,-464,-77,-110,-7
175,200,-2080,-456,-93,-111,-7
180,184,-2080,-424,-103,-115,-6
185,160,-2064,-376,-107,-118,-7
190,184,-2096,-416,-105,-122,-7
195,168,-2072,-424,-94,-121,-16
200,192,-2056,-408,-99,-116,-12
205,232,-2056,-440,-110,-112,-7
210,232,-2088,-440,-108,-104,-5
215,248,-2096,-440,-94,-89,-3
220,216,-2056,-456,-80,-76,-2
225,224,-2040,-440,-74,-65,-1
230,256,-2048,-424,-76,-54,2
235,280,-2008,-424,-77,-46,3
240,280,-2048,-408,-78,-39,5
245,272,-2032,-416,-77,-35,6
250,272,-2056,-408,-77,-32,9
255,288,-2056,-408,-78,-30,13
260,288,-2048,-400,-78,-29,12
265,288,-2048,-384,-82,-29,12
270,320,-2064,-408,-84,-29,12
275,312,-2048,-376,-85,-29,13
280,328,-2048,-384,-90,-30,13
285,312,-2048,-368,-97,-30,12
290,368,-2064,-344,-102,-30,12
295,328,-2096,-360,-109,-30,11
300,296,-2096,-376,-112,-29,10
305,312,-2104,-360,-116,-28,11
310,288,-2088,-376,-122,-26,13
315,312,-2104,-400,-125,-25,15
320,312,-2104,-392,-127,-22,16
325,296,-2112,-384,-130,-19,20
330,256,-2128,-400,-130,-18,22
335,312,-2120,-400,-133,-17,25
340,280,-2096,-344,-134,-15,29
345,288,-2096,-344,-135,-15,32
350,256,-2104,-408,-135,-17,34
355,256,-2072,-400,-134,-20,39
360,256,-2088,-384,-136,-23,41
365,256,-2064,-376,-134,-26,43
370,232,-2080,-352,-132,-28,47
375,232,-2056,-352,-131,-30,50
380,264,-2088,-336,-131,-35,52
385,264,-2040,-368,-129,-36,54
390,264,-2048,-328,-132,-39,56
395,216,-2040,-376,-133,-41,58
400,264,-2040,-352,-135,-41,60
405,264,-2024,-376,-137,-42,61
410,256,-2024,-392,-142,-41,61
415,272,-2048,-384,-149,-42,61
420,280,-2040,-384,-154,-40,62
425,288,-2024,-368,-158,-40,63
430,264,-2048,-384,-161,-39,63
435,288,-2048,-368,-165,-39,62
440,296,-2056,-368,-166,-39,61
445,296,-2064,-336,-168,-38,58
450,304,-2064,-344,-170,-37,57
455,256,-2064,-384,-170,-40,56
460,296,-2088,-352,-174,-42,54
465,280,-2064,-352,-174,-43,54
470,264,-2088,-344,-174,-45,55
475,272,-2104,-368,-175,-46,56
480,256,-2112,-384,-176,-47,58
485,288,-2128,-384,-178,-50,60
490,240,-2112,-392,-182,-50,62
495,264,-2144,-440,-185,-52,66
500,232,-2136,-424,-191,-56,68
505,232,-2112,-432,-197,-60,74
510,264,-2144,-440,-205,-64,78
515,240,-2136,-448,-209,-68,82
520,200,-2104,-472,-213,-74,85
525,176,-2088,-440,-216,-79,90
530,184,-2120,-496,-218,-84,93
535,176,-2096,-504,-222,-92,97
540,152,-2112,-512,-227,-99,97
545,120,-2112,-472,-231,-106,100
550,112,-2136,-520,-234,-110,103
555,80,-2088,-496,-238,-115,105
560,56,-2088,-520,-240,-119,107
565,40,-2088,-536,-241,-125,110
570,8,-2088,-544,-244,-132,111
575,-16,-2072,-536,-247,-139,115
580,-32,-2056,-560,-250,-146,115
585,-40,-2080,-560,-251,-150,116
590,-104,-2048,-568,-255,-152,118
595,-96,-2032,-560,-257,-152,118
600,-120,-2024,-576,-262,-154,117
605,-112,-1984,-536,-264,-154,115
610,-88,-2048,-528,-269,-154,111
615,-80,-2000,-568,-272,-157,108
620,-104,-1992,-576,-276,-162,103
625,-96,-2000,-552,-279,-166,98
630,-88,-2016,-552,-282,-169,95
635,-48,-2000,-544,-284,-170,91
640,-56,-2000,-488,-286,-167,89
645,-64,-1992,-472,-283,-161,85
650,-32,-2008,-456,-280,-150,82
655,-24,-2016,-456,-273,-139,80
660,-40,-2008,-440,-265,-130,79
665,8,-2000,-416,-257,-119,78
670,-8,-2040,-392,-249,-107,76
675,-8,-2040,-408,-235,-94,78
680,0,-2048,-344,-220,-83,78
685,-16,-2080,-352,-208,-72,78
690,-16,-2072,-328,-195,-63,78
695,-8,-2120,-296,-188,-53,82
700,-32,-2128,-304,-186,-45,84
705,-8,-2144,-296,-186,-36,88
710,-48,-2160,-256,-189,-23,94
715,-32,-2152,-264,-188,-12,98
720,-40,-2216,-256,-192,1,105
725,-40,-2208,-280,-195,12,109
730,-24,-2208,-312,-198,22,114
735,-32,-2200,-296,-207,32,120
740,-40,-2240,-312,-218,42,127
745,-56,-2256,-352,-228,48,132
750,-96,-2248,-352,-238,55,139
755,-104,-2248,-320,-245,62,148
760,-112,-2256,-352,-250,65,159
765,-120,-2272,-352,-254,66,169
770,-136,-2248,-304,-255,62,182
775,-152,-2216,-400,-250,55,195
780,-168,-2208,-408,-244,44,209
785,-176,-2160,-400,-233,31,223
790,-184,-2144,-400,-220,15,236
795,-208,-2104,-408,-209,-2,247
800,-208,-2104,-432,-198,-21,258
805,-224,-2080,-424,-188,-42,266
810,-208,-2056,-408,-184,-59,274
815,-216,-2048,-448,-180,-74,277
820,-240,-2024,-424,-176,-86,282
825,-224,-1976,-392,-173,-94,281
830,-248,-2008,-376,-169,-97,277
835,-232,-1992,-400,-163,-98,271
840,-248,-2008,-408,-161,-97,266
845,-256,-1984,-392,-162,-93,256
850,-256,-1976,-384,-165,-87,246
855,-232,-1952,-400,-168,-80,233
860,-216,-1928,-400,-171,-73,219
865,-208,-1936,-376,-177,-64,206
870,-208,-1920,-360,-181,-56,192
875,-200,-1920,-360,-187,-49,177
880,-160,-1856,-352,-189,-44,163
885,-200,-1872,-352,-188,-38,150
890,-144,-1888,-376,-192,-33,135
895,-168,-1872,-384,-192,-30,122
900,-160,-1904,-368,-191,-26,110
905,-160,-1888,-312,-191,-22,100
910,-168,-1904,-328,-188,-16,86
915,-160,-1904,-328,-186,-8,75
920,-152,-1904,-360,-185,-1,63
925,-152,-1888,-336,-185,8,49
930,-176,-1904,-328,-188,18,33
935,-168,-1888,-280,-193,27,18
940,-168,-1952,-320,-199,38,2
945,-192,-1936,-304,-205,52,-12
950,-208,-1952,-344,-212,65,-25
955,-184,-1992,-272,-220,81,-34
960,-208,-1968,-312,-230,99,-42
965,-200,-2016,-288,-243,117,-48
970,-208,-2040,-288,-253,133,-57
975,-224,-2024,-264,-257,143,-69
980,-184,-2048,-280,-263,156,-76
985,-184,-2064,-256,-270,170,-82
990,-224,-2080,-328,-278,182,-88
995,-200,-2120,-264,-282,191,-94
1000,-184,-2160,-296,-285,198,-100
1005,-192,-2192,-312,-286,204,-104
1010,-208,-2224,-328,-291,210,-105
1015,-184,-2272,-328,-292,215,-108
1020,-240,-2280,-272,-291,220,-111
1025,-248,-2320,-280,-288,224,-113
1030,-264,-2352,-296,-279,227,-117
1035,-288,-2392,-264,-267,228,-119
1040,-328,-2408,-288,-247,228,-122
1045,-352,-2384,-256,-228,229,-123
1050,-336,-2424,-256,-207,228,-123
1055,-344,-2448,-232,-187,229,-120
1060,-344,-2432,-192,-164,231,-119
1065,-368,-2424,-216,-141,235,-116
1070,-360,-2432,-208,-114,238,-112
1075,-352,-2384,-248,-87,239,-109
1080,-280,-2360,-280,-69,236,-106
1085,-264,-2312,-360,-69,227,-102
1090,-224,-2296,-456,-91,214,-94
1095,-256,-2328,-520,-130,200,-79
1100,-288,-2344,-560,-188,180,-54
1105,-296,-2440,-616,-249,159,-29
1110,-360,-2592,-648,-310,139,-5
1115,-472,-2720,-704,-363,120,10
1120,-512,-2872,-728,-397,100,17
1125,-592,-3024,-712,-412,78,24
1130,-640,-3096,-752,-394,45,35
1135,-704,-3176,-696,-345,3,58
1140,-704,-3200,-760,-267,-52,88
1145,-664,-3144,-776,-182,-111,125
1150,-552,-3056,-904,-102,-163,171
1155,-448,-2976,-968,-38,-206,216
1160,-288,-2856,-1096,12,-237,254
1165,-208,-2688,-1224,52,-256,281
1170,-72,-2544,-1288,87,-267,296
1175,48,-2400,-1400,115,-267,301
1180,128,-2224,-1440,144,-255,296
1185,264,-2120,-1448,168,-230,278
1190,344,-2016,-1448,194,-188,255
1195,400,-1904,-1408,225,-129,228
1200,520,-1800,-1376,251,-58,200
1205,568,-1704,-1248,269,21,167
1210,672,-1640,-1152,279,96,132
1215,736,-1552,-1040,286,170,92
1220,800,-1536,-952,292,240,44
1225,896,-1520,-880,304,301,-10
1230,920,-1496,-776,322,351,-66
1235,944,-1488,-736,336,385,-122
1240,904,-1496,-704,342,397,-175
1245,872,-1528,-744,330,384,-220
1250,752,-1536,-736,298,355,-247
1255,632,-1584,-824,244,312,-262
1260,448,-1616,-792,178,258,-267
1265,328,-1672,-792,103,193,-265
1270,160,-1744,-832,21,117,-250
1275,-16,-1752,-880,-71,34,-225
1280,-168,-1880,-864,-164,-51,-195
1285,-296,-1928,-840,-251,-132,-160
1290,-392,-2008,-848,-330,-208,-124
1295,-464,-2080,-816,-391,-272,-87
1300,-496,-2136,-824,-429,-322,-53
1305,-488,-2280,-800,-444,-358,-26
1310,-456,-2288,-784,-427,-379,-8
1315,-392,-2368,-752,-384,-375,-7
1320,-344,-2392,-744,-313,-350,-22
1325,-248,-2408,-672,-215,-310,-53
1330,-216,-2384,-640,-103,-264,-100
1335,-152,-2336,-584,5,-214,-153
1340,-128,-2312,-568,95,-167,-209
1345,-112,-2216,-576,165,-133,-269
1350,-24,-2112,-616,217,-101,-325
1355,32,-2024,-616,253,-74,-376
1360,120,-1968,-616,269,-52,-427
1365,144,-1896,-648,276,-41,-478
1370,224,-1744,-640,271,-42,-525
1375,280,-1736,-656,245,-41,-549
1380,264,-1656,-656,214,-52,-564
1385,344,-1600,-664,179,-72,-568
1390,328,-1576,-656,140,-109,-569
1395,344,-1600,-640,99,-160,-559
1400,376,-1568,-648,56,-218,-538
1405,368,-1600,-608,17,-282,-519
1410,344,-1544,-616,-9,-352,-497
1415,328,-1552,-616,-30,-418,-459
1420,304,-1608,-584,-48,-475,-417
1425,256,-1592,-576,-60,-522,-371
1430,232,-1592,-544,-60,-562,-328
1435,192,-1632,-528,-49,-598,-288
1440,144,-1632,-504,-39,-629,-250
1445,96,-1640,-472,-26,-650,-217
1450,48,-1672,-440,-10,-665,-190
1455,0,-1720,-448,6,-676,-171
1460,-8,-1744,-440,21,-684,-159
1465,-48,-1728,-400,32,-683,-148
1470,-32,-1784,-400,43,-675,-138
1475,-48,-1832,-360,51,-665,-131
1480,-64,-1848,-352,56,-654,-127
1485,-64,-1840,-344,61,-645,-125
1490,-72,-1904,-352,63,-642,-125
1495,-88,-1888,-312,64,-644,-129
1500,-32,-1920,-336,60,-652,-135
1505,-32,-1944,-320,57,-657,-131
1510,-8,-2000,-320,54,-664,-125
1515,-56,-1984,-312,53,-678,-116
1520,-48,-2024,-352,54,-698,-104
1525,-56,-2008,-344,55,-722,-86
1530,-8,-2024,-392,54,-747,-67
1535,-16,-2016,-400,51,-772,-44
1540,-24,-2008,-424,48,-797,-19
1545,8,-2016,-480,45,-818,10
1550,32,-2008,-520,40,-834,43
1555,16,-1992,-576,36,-844,74
1560,72,-1984,-552,31,-850,104
1565,112,-2008,-576,26,-852,129
1570,120,-1992,-536,18,-850,149
1575,240,-2048,-512,9,-843,160
1580,288,-2080,-472,3,-836,160
1585,328,-2120,-424,2,-824,151
1590,360,-2176,-336,7,-807,134
1595,432,-2256,-312,22,-790,109
1600,464,-2336,-192,44,-766,82
1605,520,-2408,-96,73,-739,50
1610,512,-2504,-80,103,-710,9
1615,656,-2528,-16,136,-687,-39
1620,616,-2544,0,170,-655,-95
1625,608,-2576,-88,202,-619,-150
1630,576,-2624,-200,224,-570,-195
1635,616,-2616,-312,220,-521,-247
1640,592,-2624,-528,197,-453,-280
1645,624,-2656,-712,148,-367,-303
1650,648,-2696,-936,67,-285,-329
1655,624,-2808,-1112,-43,-213,-363
1660,656,-2960,-1208,-167,-156,-394
1665,632,-3112,-1280,-292,-114,-425
1670,600,-3280,-1248,-391,-89,-461
1675,528,-3440,-1184,-440,-79,-502
1680,456,-3512,-1136,-429,-72,-545
1685,424,-3520,-1048,-375,-59,-589
1690,368,-3456,-1088,-288,-46,-628
1695,320,-3344,-1136,-178,-28,-655
1700,248,-3152,-1216,-43,-14,-666
1705,176,-2936,-1328,99,-2,-672
1710,96,-2640,-1456,226,6,-673
1715,8,-2392,-1536,323,17,-671
1720,-80,-2112,-1568,389,37,-661
1725,-192,-1864,-1560,432,63,-643
1730,-288,-1616,-1504,461,88,-618
1735,-408,-1416,-1440,481,102,-585
1740,-424,-1248,-1328,491,96,-544
1745,-528,-1120,-1192,484,71,-498
1750,-576,-1104,-1056,468,28,-441
1755,-648,-1128,-944,446,-26,-370
1760,-648,-1160,-864,424,-87,-282
1765,-568,-1208,-768,395,-142,-186
1770,-480,-1312,-736,348,-183,-99
1775,-336,-1408,-656,286,-205,-21
1780,-176,-1520,-656,215,-213,39
1785,-40,-1656,-608,132,-205,80
1790,64,-1728,-624,45,-191,108
1795,256,-1848,-568,-39,-172,124
1800,328,-1928,-584,-111,-146,134
1805,488,-1960,-568,-169,-114,137
1810,600,-2040,-616,-210,-76,140
1815,672,-2104,-664,-232,-36,139
1820,720,-2144,-680,-236,8,133
1825,744,-2224,-768,-225,47,117
1830,704,-2248,-816,-200,90,99
1835,704,-2288,-872,-165,135,84
1840,672,-2304,-920,-121,179,74
1845,552,-2352,-896,-80,242,88
1850,464,-2328,-848,-31,282,100
1855,376,-2256,-888,55,273,98
1860,304,-2200,-856,129,270,114
1865,280,-2152,-816,193,269,151
1870,200,-2056,-776,243,269,193
1875,152,-1976,-768,280,266,245
1880,88,-1880,-712,299,266,307
1885,56,-1832,-744,302,265,360
1890,24,-1784,-656,298,270,409
1895,-16,-1696,-624,288,284,453
1900,-56,-1664,-616,272,307,486
1905,-64,-1600,-576,259,341,515
1910,-112,-1528,-512,246,379,527
1915,-136,-1528,-480,224,424,531
1920,-152,-1488,-464,205,475,537
1925,-224,-1432,-424,186,525,529
1930,-216,-1416,-432,167,569,507
1935,-264,-1376,-432,141,608,470
1940,-272,-1336,-408,115,640,427
1945,-304,-1376,-424,89,667,388
1950,-264,-1360,-448,57,691,350
1955,-264,-1400,-416,26,702,313
1960,-272,-1440,-432,-3,708,280
1965,-200,-1464,-440,-29,706,249
1970,-176,-1496,-440,-51,699,222
1975,-128,-1544,-440,-70,686,197
1980,-128,-1592,-440,-89,668,173
1985,-104,-1664,-440,-102,644,150
1990,-104,-1664,-432,-112,624,127
1995,-88,-1704,-392,-123,612,109
2000,-80,-1840,-328,-133,604,94
2005,-40,-1880,-280,-126,588,70
2010,-64,-1904,-248,-117,576,43
2015,-16,-1920,-184,-111,569,16
2020,-64,-1968,-232,-104,567,-4
2025,-56,-1984,-208,-97,572,-21
2030,-72,-1984,-192,-89,583,-33
2035,-64,-2000,-176,-84,598,-40
2040,-56,-2008,-208,-82,613,-48
2045,-48,-2016,-200,-84,626,-54
2050,-48,-2024,-216,-84,637,-57
2055,-16,-2024,-216,-94,645,-63
2060,-40,-2064,-288,-109,650,-69
2065,-64,-2024,-344,-126,652,-76
2070,8,-2040,-368,-150,647,-80
2075,-120,-2128,-280,-194,649,-78
2080,-120,-2136,-392,-194,620,-75
2085,-160,-2112,-424,-190,585,-75
2090,-232,-2136,-432,-195,552,-75
2095,-320,-2136,-480,-191,514,-71
2100,-352,-2136,-456,-184,473,-63
2105,-368,-2184,-448,-175,433,-54
2110,-408,-2216,-392,-162,398,-42
2115,-440,-2224,-328,-144,370,-25
2120,-448,-2288,-248,-111,351,-10
2125,-496,-2304,-136,-63,344,9
2130,-416,-2384,-24,-4,343,27
2135,-376,-2432,80,66,348,42
2140,-384,-2472,168,140,361,62
2145,-344,-2496,224,216,372,81
2150,-264,-2528,272,288,385,106
2155,-168,-2536,216,348,398,130
2160,-104,-2448,80,377,413,150
2165,8,-2440,-128,362,429,170
2170,40,-2368,-336,299,448,186
2175,80,-2328,-584,183,462,193
2180,88,-2376,-848,20,463,198
2185,72,-2464,-1024,-175,441,198
2190,48,-2568,-1144,-369,400,201
2195,8,-2720,-1216,-526,340,207
2200,-24,-2904,-1320,-621,271,222
2205,-88,-3072,-1312,-648,199,255
2210,-136,-3200,-1312,-636,130,307
2215,-216,-3288,-1376,-605,69,376
2220,-232,-3280,-1400,-564,18,459
2225,-144,-3240,-1392,-505,-26,548
2230,-64,-3088,-1424,-416,-67,631
2235,80,-2920,-1480,-304,-110,702
2240,224,-2768,-1496,-189,-150,758
2245,328,-2568,-1536,-82,-182,792
2250,440,-2400,-1504,3,-207,806
2255,544,-2296,-1424,75,-226,799
2260,664,-2216,-1376,138,-234,770
2265,752,-2088,-1296,194,-226,717
2270,824,-2032,-1176,231,-202,647
2275,912,-1976,-1120,247,-161,562
2280,944,-1968,-1080,238,-108,460
2285,936,-1936,-960,212,-52,347
2290,952,-1896,-912,174,-2,231
2295,896,-1904,-856,120,51,114
2300,816,-1936,-760,58,107,4
2305,704,-1936,-696,-8,160,-97
2310,560,-1952,-640,-70,211,-188
2315,408,-1976,-536,-120,243,-263
2320,280,-2032,-496,-156,257,-326
2325,152,-2024,-464,-182,249,-375
2330,-8,-2024,-432,-198,231,-401
2335,-80,-2000,-440,-209,201,-415
2340,-200,-1992,-464,-222,175,-410
2345,-288,-1928,-568,-232,139,-402
2350,-296,-1888,-576,-240,114,-376
2355,-368,-1840,-632,-249,100,-340
2360,-368,-1760,-680,-263,71,-310
2365,-352,-1704,-728,-279,36,-275
2370,-312,-1656,-808,-288,7,-236
2375,-248,-1624,-824,-283,-12,-198
2380,-200,-1608,-816,-267,-29,-173
2385,-112,-1600,-792,-239,-41,-164
2390,-112,-1624,-728,-201,-49,-162
2395,-32,-1632,-720,-176,-75,-201
2400,24,-1648,-656,-150,-70,-215
2405,16,-1608,-696,-115,-63,-228
2410,56,-1600,-616,-99,-65,-266
2415,88,-1592,-560,-84,-83,-317
2420,120,-1520,-552,-69,-100,-359
2425,128,-1512,-544,-50,-109,-385
2430,104,-1456,-480,-25,-124,-402
2435,104,-1408,-440,-2,-155,-424
2440,128,-1400,-416,20,-201,-441
2445,112,-1344,-400,34,-254,-443
2450,152,-1352,-432,38,-308,-428
2455,168,-1368,-384,26,-366,-414
2460,208,-1384,-424,9,-427,-391
2465,240,-1384,-376,-20,-487,-365
2470,288,-1448,-360,-49,-534,-336
2475,288,-1464,-328,-77,-575,-305
2480,304,-1512,-320,-102,-607,-281
2485,320,-1544,-312,-122,-630,-253
2490,336,-1632,-280,-135,-634,-222
2495,304,-1696,-312,-143,-626,-190
2500,256,-1808,-280,-143,-612,-157
2505,224,-1800,-320,-143,-592,-123
2510,240,-1856,-312,-139,-565,-88
2515,200,-1928,-304,-137,-541,-56
2520,208,-1960,-312,-126,-522,-25
2525,208,-1992,-264,-110,-510,3
2530,152,-2032,-280,-89,-507,30
2535,152,-2088,-264,-64,-512,55
2540,120,-2096,-232,-39,-523,73
2545,112,-2160,-216,-15,-539,89
2550,144,-2184,-256,5,-558,100
2555,120,-2208,-336,19,-577,113
2560,128,-2232,-368,34,-593,123
2565,128,-2200,-440,41,-602,132
2570,160,-2200,-456,45,-604,140
2575,168,-2160,-512,42,-598,148
2580,184,-2136,-536,37,-581,155
2585,208,-2128,-528,26,-560,159
2590,240,-2096,-512,14,-538,160
2595,320,-2096,-440,3,-517,156
2600,328,-2120,-400,-7,-502,149
2605,384,-2176,-304,-13,-491,136
2610,440,-2208,-192,-17,-486,121
2615,464,-2272,-96,-12,-485,105
2620,504,-2368,-40,5,-481,93
2625,528,-2448,80,41,-479,75
2630,544,-2496,152,75,-476,55
2635,560,-2560,192,119,-472,37
2640,592,-2616,208,165,-465,20
2645,560,-2632,152,208,-456,1
2650,576,-2632,32,239,-436,-13
2655,624,-2616,-208,248,-403,-23
2660,664,-2544,-392,222,-350,-40
2665,736,-2504,-696,156,-282,-56
2670,832,-2496,-1016,39,-209,-75
2675,952,-2520,-1288,-130,-140,-109
2680,1088,-2672,-1456,-338,-82,-152
2685,1128,-2888,-1496,-545,-32,-206
2690,1152,-3160,-1416,-696,13,-273
2695,1096,-3440,-1336,-765,61,-350
2700,952,-3608,-1296,-764,118,-437
2705,848,-3728,-1184,-718,175,-527
2710,744,-3712,-1160,-633,234,-612
2715,584,-3648,-1168,-506,287,-674
2720,440,-3464,-1176,-331,322,-712
2725,296,-3176,-1224,-126,343,-734
2730,176,-2936,-1336,71,365,-744
2735,40,-2592,-1456,239,396,-740
2740,-120,-2224,-1552,365,447,-724
2745,-224,-1928,-1656,448,515,-694
2750,-328,-1592,-1672,500,586,-644
2755,-472,-1408,-1624,524,642,-586
2760,-528,-1192,-1472,533,669,-524
2765,-616,-1080,-1368,523,659,-457
2770,-704,-1056,-1208,497,620,-380
2775,-728,-1088,-1096,449,557,-283
2780,-744,-1120,-952,379,481,-173
2785,-664,-1200,-800,293,404,-63
2790,-552,-1320,-704,209,336,35
2795,-384,-1472,-552,128,288,116
2800,-152,-1680,-488,48,259,179
2805,32,-1864,-392,-32,259,223
2810,208,-2040,-320,-105,284,255
2815,424,-2176,-280,-162,328,278
2820,520,-2336,-256,-201,383,292
2825,672,-2352,-288,-218,442,296
2830,816,-2408,-352,-218,502,287
2835,904,-2424,-456,-215,566,262
2840,968,-2400,-608,-209,643,230
2845,992,-2376,-752,-203,729,191
2850,968,-2328,-920,-199,821,150
2855,952,-2176,-1128,-202,909,111
2860,760,-2192,-1152,-220,1012,92
2865,688,-2184,-1168,-197,1044,58
2870,552,-2168,-1136,-132,1048,29
2875,432,-2144,-1048,-35,1032,24
2880,392,-2144,-984,81,1001,35
2885,320,-2088,-880,189,961,61
2890,192,-2048,-816,277,914,108
2895,88,-1976,-728,340,871,177
2900,0,-1944,-696,379,837,252
2905,-64,-1888,-680,400,814,332
2910,-120,-1800,-560,413,805,411
2915,-152,-1768,-520,424,814,483
2920,-208,-1672,-472,426,841,545
2925,-192,-1592,-440,422,885,599
2930,-168,-1544,-416,420,946,640
2935,-216,-1488,-416,413,1011,660
2940,-256,-1392,-384,404,1070,663
2945,-288,-1312,-368,387,1124,660
2950,-296,-1256,-376,355,1163,639
2955,-336,-1224,-368,316,1188,605
2960,-376,-1168,-392,270,1198,566
2965,-384,-1176,-376,213,1200,531
2970,-360,-1184,-408,151,1192,496
2975,-336,-1216,-416,83,1173,457
2980,-288,-1184,-456,15,1143,412
2985,-280,-1272,-424,-50,1107,372
2990,-272,-1288,-416,-114,1069,333
2995,-224,-1376,-432,-164,1025,295
3000,-200,-1432,-424,-203,984,258
3005,-136,-1504,-392,-225,942,220
3010,-120,-1584,-344,-235,906,178
3015,-104,-1640,-328,-234,875,137
3020,-48,-1720,-288,-224,852,97
3025,0,-1712,-240,-208,837,58
3030,72,-1792,-216,-192,830,23
3035,88,-1808,-216,-184,839,-7
3040,96,-1912,-184,-176,847,-33
3045,72,-1952,-192,-168,852,-58
3050,112,-2000,-192,-162,860,-81
3055,136,-2032,-184,-161,876,-99
3060,120,-2056,-200,-159,893,-110
3065,136,-2096,-232,-162,910,-114
3070,120,-2136,-224,-166,925,-115
3075,72,-2160,-320,-176,928,-110
3080,64,-2208,-328,-194,923,-101
3085,24,-2264,-384,-216,901,-89
3090,-80,-2264,-304,-236,871,-73
3095,-128,-2280,-408,-246,831,-54
3100,-232,-2312,-360,-253,782,-31
3105,-304,-2360,-344,-240,725,-7
3110,-280,-2248,-400,-215,663,22
3115,-456,-2408,-200,-211,623,59
3120,-512,-2400,-240,-164,560,96
3125,-544,-2424,-160,-107,501,126
3130,-584,-2456,-136,-55,450,152
3135,-616,-2440,-40,-3,410,177
3140,-616,-2488,64,47,382,202
3145,-584,-2472,136,95,367,225
3150,-560,-2472,176,140,361,244
3155,-480,-2440,168,180,363,261
3160,-368,-2416,144,212,373,272
3165,-208,-2328,64,225,393,278
3170,-72,-2288,-64,204,428,277
3175,24,-2224,-272,139,464,260
3180,128,-2208,-496,21,490,235
3185,176,-2192,-760,-145,497,207
3190,192,-2312,-952,-336,481,180
3195,256,-2480,-1080,-505,435,148
3200,272,-2656,-1208,-622,377,125
3205,216,-2888,-1376,-686,309,118
3210,184,-3136,-1480,-727,243,137
3215,56,-3368,-1544,-757,184,186
3220,-32,-3528,-1608,-768,141,269
3225,-64,-3552,-1576,-748,112,379
3230,80,-3512,-1608,-683,92,498
3235,208,-3456,-1560,-569,75,614
3240,296,-3248,-1608,-418,56,719
3245,392,-3016,-1624,-262,27,804
3250,496,-2800,-1600,-122,-9,868
3255,648,-2600,-1520,-7,-43,903
3260,704,-2448,-1464,93,-65,905
3265,856,-2320,-1320,179,-68,879
3270,968,-2224,-1232,249,-53,827
3275,992,-2136,-1048,295,-13,745
3280,1040,-2080,-968,325,40,642
3285,984,-2072,-864,337,102,523
3290,968,-2048,-752,336,163,396
3295,880,-2024,-704,315,221,269
3300,800,-1984,-632,276,271,142
3305,664,-2016,-640,218,316,20
3310,520,-1928,-568,143,352,-94
3315,392,-1952,-552,65,383,-191
3320,224,-1912,-504,-5,403,-273
3325,56,-1864,-464,-62,397,-339
3330,-40,-1896,-440,-107,381,-384
3335,-216,-1880,-408,-130,373,-405
3340,-392,-1824,-448,-136,348,-415
3345,-432,-1808,-464,-158,311,-412
3350,-528,-1800,-496,-178,292,-388
3355,-584,-1728,-552,-197,260,-364
3360,-584,-1688,-608,-232,219,-329
3365,-584,-1616,-704,-268,176,-286
3370,-544,-1552,-784,-304,129,-238
3375,-464,-1528,-760,-334,75,-192
3380,-360,-1520,-744,-348,27,-158
3385,-208,-1528,-688,-337,-22,-137
3390,-128,-1512,-680,-299,-46,-116
3395,-96,-1544,-656,-253,-58,-101
3400,-40,-1544,-664,-215,-70,-104
3405,48,-1576,-608,-190,-97,-132
3410,64,-1536,-576,-166,-116,-161
3415,104,-1528,-552,-140,-125,-182
3420,104,-1504,-504,-120,-131,-206
3425,136,-1440,-480,-92,-143,-233
3430,152,-1416,-432,-65,-167,-268
3435,136,-1376,-456,-41,-202,-309
3440,152,-1344,-416,-18,-250,-349
3445,152,-1312,-416,8,-301,-376
3450,160,-1320,-384,30,-350,-388
3455,192,-1256,-360,40,-417,-397
3460,232,-1280,-376,32,-476,-380
3465,272,-1304,-368,19,-532,-354
3470,288,-1312,-368,4,-580,-322
3475,288,-1312,-344,-18,-623,-290
3480,288,-1368,-320,-40,-651,-254
3485,312,-1456,-304,-66,-668,-223
3490,280,-1456,-296,-92,-674,-193
3495,248,-1504,-288,-115,-669,-165
3500,216,-1544,-328,-135,-656,-135
3505,160,-1592,-312,-154,-640,-103
3510,160,-1664,-296,-171,-619,-68
3515,120,-1704,-320,-189,-593,-30
3520,168,-1736,-280,-206,-566,6
3525,160,-1800,-304,-219,-539,40
3530,152,-1888,-296,-230,-517,71
3535,192,-1904,-312,-235,-502,98
3540,192,-1976,-296,-239,-496,121
3545,224,-2016,-320,-239,-497,143
3550,192,-2032,-328,-240,-501,155
3555,200,-2096,-320,-243,-511,165
3560,240,-2120,-376,-245,-525,171
3565,248,-2192,-408,-245,-541,173
3570,264,-2248,-384,-247,-557,170
3575,312,-2296,-384,-249,-573,164
3580,256,-2336,-432,-250,-582,159
3585,296,-2416,-432,-245,-580,154
3590,288,-2464,-408,-236,-571,149
3595,336,-2512,-384,-225,-551,142
3600,360,-2552,-344,-214,-526,133
3605,384,-2592,-328,-197,-499,119
3610,480,-2664,-256,-179,-481,97
3615,552,-2680,-208,-148,-432,91
3620,560,-2760,-112,-105,-379,88
3625,624,-2808,-56,-52,-338,83
3630,696,-2920,88,6,-306,73
3635,712,-2896,112,66,-279,55
3640,728,-2944,136,123,-253,39
3645,736,-2920,208,179,-226,25
3650,696,-2928,248,228,-199,9
3655,680,-2840,320,275,-175,-3
3660,696,-2768,272,320,-149,-14
3665,664,-2688,264,356,-119,-23
3670,600,-2552,48,379,-89,-25
3675,520,-2344,-272,380,-59,-20
3680,488,-2168,-720,347,-24,0
3685,424,-1984,-1176,255,21,27
3690,472,-1848,-1664,88,61,54
3695,560,-1744,-2072,-148,89,69
3700,656,-1728,-2304,-424,99,66
3705,752,-1904,-2296,-670,100,35
3710,824,-2144,-2208,-824,83,-32
3715,816,-2464,-2072,-868,47,-133
3720,704,-2712,-2008,-855,20,-261
3725,536,-2976,-1896,-842,26,-406
3730,488,-3144,-1688,-837,75,-545
3735,440,-3136,-1504,-786,159,-662
3740,272,-3200,-1392,-647,248,-752
3745,104,-3112,-1384,-412,333,-814
3750,-56,-3008,-1456,-144,425,-860
3755,-176,-2824,-1616,86,548,-885
3760,-304,-2680,-1856,245,715,-887
3765,-416,-2552,-2008,329,915,-865
3770,-456,-2456,-2040,366,1123,-823
3775,-448,-2272,-2024,388,1301,-771
3780,-400,-2104,-1920,389,1416,-705
3785,-432,-1896,-1752,359,1458,-614
3790,-392,-1744,-1560,313,1442,-488
3795,-400,-1704,-1152,260,1388,-337
3800,-256,-1728,-856,204,1281,-183
3805,-72,-1808,-584,139,1131,-43
3810,56,-1872,-376,62,981,83
3815,256,-2000,-192,-19,838,201
3820,464,-2096,-72,-90,717,312
3825,680,-2152,-120,-123,642,408
3830,688,-2320,-32,-137,621,488
3835,760,-2296,-160,-113,596,527
3840,824,-2272,-312,-81,603,556
3845,832,-2176,-400,-63,642,579
3850,832,-2072,-560,-64,692,579
3855,816,-1920,-720,-78,741,556
3860,768,-1824,-872,-97,791,519
3865,736,-1680,-1080,-120,844,473
3870,520,-1608,-1176,-160,916,441
3875,360,-1584,-1272,-187,966,392
3880,256,-1544,-1344,-189,997,344
3885,112,-1568,-1336,-173,1034,314
3890,0,-1648,-1264,-146,1068,302
3895,-72,-1728,-1176,-111,1088,291
3900,-136,-1760,-1064,-74,1094,293
3905,-224,-1856,-976,-41,1095,309
3910,-320,-1896,-904,-6,1095,337
3915,-392,-1976,-848,27,1097,379
3920,-424,-2016,-752,57,1103,433
3925,-456,-2032,-704,97,1113,494
3930,-440,-2040,-600,142,1133,558
3935,-440,-1992,-552,206,1161,619
3940,-432,-1928,-520,264,1203,671
3945,-424,-1824,-496,314,1241,695
3950,-368,-1736,-584,340,1272,692
3955,-376,-1656,-504,341,1301,676
3960,-368,-1584,-496,316,1326,657
3965,-352,-1504,-488,273,1345,635
3970,-304,-1432,-440,223,1356,607
3975,-312,-1392,-408,165,1362,579
3980,-280,-1344,-344,112,1342,541
3985,-240,-1320,-360,60,1313,496
3990,-152,-1280,-320,3,1283,453
3995,-112,-1264,-304,-53,1256,414
4000,-40,-1264,-280,-107,1232,377
4005,-24,-1304,-272,-158,1204,345
4010,56,-1296,-296,-208,1176,313
4015,80,-1360,-320,-254,1145,284
4020,144,-1416,-336,-293,1108,261
4025,136,-1464,-352,-324,1070,239
4030,160,-1496,-344,-341,1028,222
4035,160,-1528,-320,-348,985,210
4040,184,-1592,-328,-342,947,203
4045,152,-1600,-320,-330,911,201
4050,128,-1688,-296,-326,895,212
4055,64,-1736,-256,-321,882,224
4060,40,-1880,-296,-300,862,229
4065,-8,-1872,-272,-275,843,223
4070,8,-1976,-248,-255,839,217
4075,-32,-2048,-256,-240,849,214
4080,-16,-2176,-248,-224,866,211
4085,-8,-2280,-232,-208,887,206
4090,8,-2400,-200,-190,911,204
4095,24,-2456,-224,-170,936,199
4100,24,-2536,-216,-151,959,194
4105,32,-2552,-288,-132,977,183
4110,48,-2568,-304,-113,992,171
4115,96,-2560,-288,-95,1004,157
4120,72,-2504,-376,-80,1004,134
4125,-24,-2568,-256,-101,1020,122
4130,-72,-2576,-304,-97,998,96
4135,-80,-2568,-296,-60,943,56
4140,-112,-2552,-312,-23,887,16
4145,-144,-2544,-208,12,839,-17
4150,-168,-2504,-112,51,799,-45
4155,-168,-2496,-56,96,772,-66
4160,-216,-2504,24,144,763,-80
4165,-176,-2520,96,192,772,-85
4170,-96,-2448,136,243,798,-88
4175,-112,-2432,184,293,839,-87
4180,-40,-2416,128,337,887,-86
4185,-8,-2288,48,365,935,-82
4190,-16,-2232,-128,358,969,-75
4195,-64,-2112,-344,296,972,-71
4200,-40,-2040,-584,180,952,-73
4205,-120,-2008,-840,31,911,-71
4210,-128,-1992,-1072,-137,851,-71
4215,-256,-2032,-1320,-308,784,-62
4220,-288,-2144,-1528,-460,720,-45
4225,-408,-2136,-1680,-584,657,-23
4230,-432,-2224,-1856,-665,600,23
4235,-456,-2328,-1928,-699,541,70
4240,-464,-2360,-2040,-707,480,125
4245,-520,-2408,-2120,-700,422,193
4250,-544,-2392,-2168,-683,361,271
4255,-536,-2392,-2208,-667,287,364
4260,-504,-2400,-2216,-647,195,461
4265,-480,-2352,-2256,-622,83,560
4270,-352,-2312,-2224,-588,-49,648
4275,-240,-2336,-2128,-538,-190,719
4280,-80,-2360,-1992,-458,-325,761
4285,48,-2408,-1816,-342,-433,777
4290,136,-2456,-1632,-216,-519,772
4295,248,-2536,-1528,-103,-578,745
4300,320,-2560,-1440,-27,-612,698
4305,408,-2560,-1320,13,-621,633
4310,480,-2576,-1216,30,-607,552
4315,528,-2512,-1152,27,-579,457
4320,576,-2504,-992,12,-536,355
4325,600,-2488,-880,-6,-480,241
4330,632,-2456,-720,-15,-420,120
4335,648,-2432,-680,-21,-353,0
4340,608,-2376,-568,-30,-283,-116
4345,560,-2352,-560,-45,-215,-217
4350,408,-2320,-600,-76,-167,-308
4355,256,-2312,-584,-113,-142,-390
4360,176,-2240,-680,-148,-145,-464
4365,24,-2200,-704,-174,-153,-521
4370,-72,-2088,-768,-200,-160,-559
4375,-120,-2024,-800,-223,-156,-566
4380,-168,-1904,-896,-242,-142,-548
4385,-240,-1880,-912,-257,-139,-516
4390,-280,-1808,-976,-273,-140,-478
4395,-304,-1768,-1024,-286,-155,-429
4400,-288,-1752,-1048,-297,-177,-373
4405,-256,-1736,-1056,-300,-211,-317
4410,-184,-1792,-1048,-289,-259,-272
4415,-96,-1736,-1056,-270,-339,-268
4420,-8,-1784,-952,-251,-399,-255
4425,48,-1808,-896,-213,-433,-231
4430,112,-1816,-832,-169,-456,-216
4435,128,-1856,-768,-128,-470,-212
4440,112,-1792,-712,-86,-480,-224
4445,128,-1760,-664,-45,-485,-248
4450,168,-1744,-624,-10,-494,-284
4455,176,-1712,-632,24,-499,-337
4460,176,-1680,-576,59,-503,-399
4465,216,-1632,-616,87,-508,-466
4470,240,-1576,-624,104,-510,-527
4475,272,-1592,-616,111,-507,-580
4480,296,-1576,-568,120,-507,-629
4485,280,-1544,-520,122,-508,-671
4490,256,-1496,-536,121,-514,-701
4495,328,-1536,-544,117,-526,-723
4500,328,-1512,-520,105,-543,-733
4505,304,-1512,-560,87,-558,-730
4510,280,-1440,-536,70,-575,-721
4515,256,-1408,-600,36,-585,-694
4520,248,-1400,-616,-14,-582,-649
4525,224,-1376,-584,-64,-579,-598
4530,136,-1400,-584,-111,-575,-541
4535,112,-1376,-600,-153,-568,-484
4540,40,-1416,-560,-195,-562,-425
4545,32,-1424,-520,-230,-554,-364
4550,8,-1488,-520,-258,-545,-307
4555,-16,-1560,-488,-280,-535,-253
4560,-8,-1600,-488,-291,-529,-205
4565,-8,-1640,-448,-296,-526,-162
4570,0,-1680,-392,-290,-531,-128
4575,16,-1736,-392,-278,-543,-102
4580,32,-1776,-384,-260,-562,-86
4585,72,-1784,-392,-241,-588,-77
4590,72,-1784,-392,-225,-617,-71
4595,80,-1784,-432,-210,-651,-72
4600,48,-1776,-456,-201,-689,-79
4605,88,-1784,-464,-195,-727,-84
4610,104,-1784,-456,-192,-764,-95
4615,80,-1808,-480,-187,-800,-105
4620,72,-1832,-464,-181,-831,-114
4625,88,-1856,-456,-169,-861,-123
4630,120,-1896,-456,-148,-886,-135
4635,80,-1912,-448,-126,-905,-144
4640,96,-1960,-448,-108,-919,-151
4645,104,-2000,-448,-95,-935,-157
4650,96,-2024,-472,-86,-950,-164
4655,104,-2008,-448,-80,-961,-164
4660,88,-2016,-512,-81,-973,-164
4665,88,-2008,-488,-83,-980,-162
4670,112,-2040,-536,-87,-983,-159
4675,120,-2024,-560,-92,-979,-157
4680,160,-2024,-552,-100,-969,-155
4685,192,-2000,-536,-104,-946,-148
4690,256,-2048,-496,-100,-919,-143
4695,272,-2032,-464,-95,-892,-143
4700,312,-2096,-400,-93,-860,-139
4705,368,-2104,-320,-92,-846,-143
4710,424,-2120,-280,-90,-826,-151
4715,432,-2168,-216,-91,-793,-154
4720,512,-2216,-176,-91,-760,-151
4725,520,-2256,-136,-85,-730,-163
4730,568,-2320,-128,-74,-706,-186
4735,584,-2304,-120,-67,-676,-209
4740,688,-2264,-136,-79,-631,-215
4745,728,-2328,-120,-109,-572,-231
4750,736,-2368,-80,-151,-510,-247
4755,712,-2392,-48,-196,-464,-273
4760,776,-2440,32,-244,-434,-285
4765,736,-2488,72,-278,-406,-282
4770,696,-2528,64,-292,-393,-278
4775,600,-2568,8,-294,-391,-265
4780,528,-2560,-104,-284,-392,-239
4785,464,-2560,-280,-262,-389,-207
4790,464,-2560,-496,-245,-381,-174
4795,392,-2496,-832,-240,-362,-139
4800,392,-2456,-1048,-252,-332,-107
4805,416,-2416,-1272,-285,-292,-78
4810,536,-2448,-1432,-336,-246,-54
4815,560,-2456,-1528,-363,-191,-36
4820,640,-2480,-1680,-373,-133,-28
4825,656,-2440,-1816,-369,-78,-29
4830,680,-2424,-1960,-357,-28,-38
4835,704,-2408,-2088,-348,23,-56
4840,712,-2384,-2184,-342,85,-87
4845,696,-2336,-2256,-341,167,-130
4850,632,-2320,-2408,-342,268,-183
4855,592,-2288,-2440,-346,390,-242
4860,504,-2280,-2480,-354,524,-307
4865,408,-2248,-2512,-353,656,-372
4870,328,-2280,-2472,-353,784,-434
4875,232,-2256,-2480,-337,891,-489
4880,136,-2256,-2376,-313,972,-540
4885,-8,-2256,-2272,-275,1025,-582
4890,-120,-2208,-2144,-240,1049,-615
4895,-216,-2136,-2080,-207,1054,-624
4900,-360,-2056,-1928,-175,1047,-604
4905,-472,-2000,-1768,-139,1027,-556
4910,-600,-1936,-1600,-98,994,-487
4915,-696,-1864,-1448,-60,936,-409
4920,-760,-1840,-1264,-38,859,-322
4925,-760,-1792,-1144,-37,761,-232
4930,-688,-1768,-1088,-52,656,-137
4935,-624,-1744,-1048,-91,556,-44
4940,-536,-1760,-1048,-150,473,42
4945,-384,-1792,-1056,-224,417,122
4950,-256,-1832,-1128,-298,384,198
4955,-152,-1848,-1168,-369,368,263
4960,-32,-1864,-1216,-426,366,320
4965,104,-1888,-1264,-472,377,360
4970,232,-1864,-1288,-515,411,389
4975,320,-1952,-1288,-556,456,396
4980,376,-1976,-1312,-581,497,378
4985,432,-1992,-1296,-592,539,346
4990,512,-2016,-1296,-591,585,310
4995,584,-2024,-1264,-588,632,272
5000,568,-2048,-1304,-574,677,228
5005,560,-2040,-1216,-546,709,184
5010,496,-2024,-1136,-509,729,142
5015,448,-2032,-1088,-462,736,109
5020,360,-2008,-968,-397,733,87
5025,312,-2000,-904,-328,720,78
5030,224,-2008,-848,-260,702,78
5035,104,-1984,-840,-202,685,98
5040,0,-1920,-816,-158,674,132
5045,-80,-1888,-816,-136,659,171
5050,-128,-1848,-808,-121,650,223
5055,-192,-1728,-808,-122,638,269
5060,-264,-1696,-832,-137,624,310
5065,-280,-1672,-808,-158,611,347
5070,-296,-1656,-768,-176,598,382
5075,-336,-1616,-760,-184,589,418
5080,-344,-1584,-736,-199,580,448
5085,-328,-1584,-720,-216,569,470
5090,-352,-1608,-624,-227,557,489
5095,-344,-1608,-624,-230,546,499
5100,-328,-1600,-592,-223,535,495
5105,-344,-1616,-576,-211,525,486
5110,-320,-1648,-544,-182,515,478
5115,-296,-1600,-552,-145,507,463
5120,-224,-1640,-568,-109,504,452
5125,-176,-1632,-544,-80,507,447
5130,-128,-1664,-584,-57,500,434
5135,-136,-1648,-544,-41,484,409
5140,-56,-1648,-592,-28,459,378
5145,-48,-1640,-592,-33,426,348
5150,-8,-1640,-576,-55,393,323
5155,56,-1680,-528,-85,364,293
5160,104,-1736,-512,-113,338,268
5165,176,-1800,-496,-134,317,249
5170,224,-1848,-456,-141,304,236
5175,280,-1872,-456,-134,302,226
5180,336,-1936,-432,-122,312,218
5185,384,-1960,-376,-103,327,211
5190,456,-2024,-408,-78,350,204
5195,496,-2032,-432,-43,380,197
5200,504,-2032,-440,-5,415,187
5205,496,-2008,-448,29,457,177
5210,528,-1960,-472,58,501,166
5215,512,-1904,-504,67,563,164
5220,424,-1944,-488,59,624,159
5225,376,-1880,-552,85,655,122
5230,352,-1832,-544,116,687,81
5235,312,-1808,-584,135,721,42
5240,232,-1792,-664,139,752,5
5245,184,-1744,-704,124,782,-26
5250,80,-1728,-800,94,812,-51
5255,72,-1680,-912,43,839,-70
5260,8,-1640,-984,-24,860,-83
5265,-32,-1592,-1096,-112,876,-91
5270,-72,-1600,-1232,-207,886,-92
5275,-88,-1584,-1384,-314,895,-91
5280,-104,-1584,-1496,-428,895,-89
5285,-88,-1608,-1632,-550,887,-81
5290,-80,-1624,-1704,-674,866,-71
5295,-104,-1688,-1792,-790,834,-58
5300,-80,-1720,-1824,-895,788,-39
5305,-88,-1816,-1872,-979,728,-18
5310,-112,-1896,-1856,-1042,663,8
5315,-120,-1968,-1824,-1085,592,39
5320,-128,-2048,-1792,-1109,521,83
5325,-176,-2104,-1728,-1118,452,134
5330,-160,-2168,-1640,-1110,385,190
5335,-200,-2224,-1560,-1078,321,247
5340,-152,-2232,-1488,-1019,253,298
5345,-168,-2248,-1472,-935,180,342
5350,-112,-2240,-1368,-831,98,376
5355,-96,-2216,-1360,-722,8,399
5360,-64,-2152,-1384,-623,-85,410
5365,-72,-2128,-1392,-535,-180,405
5370,-48,-2096,-1432,-462,-270,388
5375,-56,-2040,-1456,-406,-354,355
5380,-40,-2008,-1480,-372,-432,313
5385,-72,-2000,-1496,-366,-500,257
5390,-48,-1992,-1480,-390,-555,195
5395,-64,-2032,-1472,-443,-592,131
5400,-16,-2048,-1432,-512,-616,68
5405,-8,-2080,-1328,-585,-623,1
5410,64,-2152,-1224,-649,-621,-67
5415,72,-2184,-1144,-692,-616,-137
5420,144,-2208,-1104,-711,-610,-202
5425,192,-2216,-1016,-719,-594,-250
5430,288,-2168,-968,-722,-568,-292
5435,336,-2112,-912,-719,-543,-321
5440,392,-2016,-936,-707,-519,-348
5445,464,-1888,-976,-708,-489,-365
5450,512,-1784,-1016,-724,-460,-375
5455,520,-1656,-1016,-747,-441,-382
5460,536,-1536,-1048,-766,-436,-384
5465,552,-1464,-1032,-783,-441,-381
5470,584,-1448,-1080,-790,-454,-378
5475,600,-1400,-1080,-789,-475,-375
5480,600,-1400,-1048,-784,-499,-367
5485,608,-1400,-1032,-774,-528,-361
5490,576,-1456,-992,-764,-558,-354
5495,560,-1456,-968,-756,-589,-345
5500,512,-1464,-992,-757,-620,-335
5505,456,-1520,-984,-761,-650,-327
5510,440,-1536,-1008,-768,-675,-321
5515,480,-1520,-1024,-779,-696,-317
5520,384,-1536,-984,-796,-715,-314
5525,376,-1560,-1008,-815,-732,-313
5530,344,-1552,-1016,-836,-750,-314
5535,320,-1536,-1056,-870,-758,-314
5540,296,-1504,-1024,-916,-758,-318
5545,288,-1544,-984,-969,-751,-320
5550,240,-1560,-920,-1006,-748,-332
5555,184,-1552,-888,-1020,-753,-356
5560,208,-1568,-832,-1020,-756,-376
5565,152,-1552,-808,-1015,-751,-391
5570,144,-1536,-752,-1002,-748,-405
5575,112,-1568,-760,-979,-750,-415
5580,136,-1584,-712,-957,-753,-421
5585,120,-1592,-664,-933,-763,-427
5590,104,-1560,-688,-898,-779,-432
5595,80,-1592,-680,-866,-801,-434
5600,88,-1600,-728,-836,-826,-438
5605,56,-1624,-760,-805,-859,-435
5610,-32,-1560,-832,-771,-900,-429
5615,-88,-1560,-952,-752,-939,-420
5620,-56,-1544,-1032,-751,-972,-399
5625,-160,-1512,-1200,-746,-991,-384
5630,-200,-1416,-1376,-782,-1012,-349
5635,-248,-1408,-1520,-876,-1027,-311
5640,-272,-1376,-1584,-1002,-1032,-263
5645,-328,-1368,-1560,-1134,-1044,-220
5650,-288,-1448,-1480,-1252,-1076,-178
5655,-160,-1552,-1232,-1328,-1133,-159
5660,-40,-1664,-1088,-1340,-1204,-155
5665,16,-1680,-976,-1319,-1274,-151
5670,56,-1664,-920,-1289,-1329,-135
5675,72,-1592,-920,-1249,-1369,-111
5680,64,-1576,-944,-1195,-1399,-80
5685,96,-1464,-944,-1135,-1420,-48
5690,112,-1368,-968,-1080,-1427,-16
5695,120,-1288,-952,-1035,-1423,13
5700,152,-1160,-992,-1002,-1409,38
5705,240,-1080,-1032,-978,-1388,58
5710,256,-1048,-1064,-969,-1360,74
5715,336,-1008,-1080,-970,-1327,85
5720,400,-984,-1104,-982,-1295,91
5725,464,-976,-1144,-1006,-1264,93
5730,496,-968,-1064,-1034,-1238,94
5735,576,-936,-1112,-1061,-1218,93
5740,608,-928,-1088,-1088,-1204,91
5745,616,-952,-1032,-1111,-1195,91
5750,584,-968,-984,-1136,-1200,92
5755,552,-1000,-1024,-1161,-1209,95
5760,480,-1008,-992,-1192,-1221,102
5765,384,-1024,-1032,-1230,-1231,114
5770,344,-1016,-1056,-1276,-1240,131
5775,240,-1016,-1032,-1322,-1250,146
5780,176,-960,-1072,-1362,-1262,160
5785,112,-896,-1040,-1393,-1273,170
5790,16,-896,-1096,-1421,-1286,180
5795,-64,-832,-1080,-1437,-1302,187
5800,-104,-808,-1096,-1450,-1326,194
5805,-192,-744,-1072,-1461,-1358,201
5810,-272,-688,-1056,-1470,-1396,211
5815,-312,-688,-1016,-1473,-1441,221
5820,-360,-640,-960,-1467,-1490,232
5825,-400,-640,-920,-1460,-1539,248
5830,-456,-560,-856,-1444,-1592,263
5835,-472,-624,-792,-1425,-1649,275
5840,-528,-552,-760,-1410,-1704,286
5845,-536,-544,-696,-1406,-1762,294
5850,-512,-528,-712,-1409,-1810,305
5855,-568,-552,-592,-1410,-1837,332
5860,-536,-520,-576,-1418,-1868,354
5865,-512,-464,-584,-1425,-1898,383
5870,-456,-448,-520,-1435,-1920,419
5875,-416,-440,-592,-1458,-1945,459
5880,-384,-376,-504,-1480,-1981,503
5885,-352,-392,-496,-1497,-2033,547
5890,-264,-432,-448,-1489,-2087,599
5895,-240,-424,-432,-1459,-2133,658
5900,-224,-504,-400,-1413,-2168,719
5905,-192,-512,-432,-1358,-2203,782
5910,-128,-496,-528,-1302,-2254,839
5915,-128,-488,-624,-1266,-2316,904
5920,-104,-464,-672,-1245,-2385,962
5925,-72,-536,-576,-1224,-2440,1015
5930,-40,-520,-456,-1162,-2474,1062
5935,-72,-448,-504,-1079,-2487,1105
5940,8,-424,-424,-1022,-2484,1148
5945,-112,-304,-456,-996,-2460,1184
5950,-64,-136,-504,-994,-2430,1205
5955,88,80,-600,-1061,-2393,1227
5960,136,360,-592,-1173,-2318,1258
5965,336,488,-672,-1299,-2251,1263
5970,464,736,-720,-1400,-2146,1264
5975,560,928,-792,-1468,-2004,1279
5980,648,1104,-848,-1540,-1871,1268
5985,688,1184,-896,-1642,-1764,1220
5990,768,1200,-912,-1764,-1687,1145
5995,744,1016,-896,-1880,-1618,1068
6000,640,864,-936,-1911,-1548,1009
6005,504,664,-960,-1916,-1539,948
6010,328,464,-944,-1916,-1586,889
6015,144,256,-936,-1905,-1682,814
6020,-96,48,-960,-1871,-1816,724
6025,-360,-64,-1016,-1819,-1982,634
6030,-648,-208,-1032,-1767,-2182,546
6035,-936,-232,-1024,-1713,-2406,445
6040,-1344,-200,-952,-1666,-2634,337
6045,-1704,-176,-872,-1624,-2857,233
6050,-2136,-168,-760,-1566,-3071,141
6055,-2768,-208,-776,-1464,-3298,69
6060,-3496,-288,-848,-1291,-3592,0
6065,-4352,-456,-856,-1060,-3947,-66
6070,-5072,-776,-808,-772,-4313,-90
6075,-5896,-1048,-896,-428,-4671,-117
6080,-6104,-1416,-896,-41,-5093,-135
6085,-8448,304,-816,460,-5454,-155
6090,-10664,0,-1200,879,-5845,467
6095,-13856,7000,-7136,467,-6742,1583
6100,-12368,7632,-9664,-1574,-5844,3874
6105,-13896,5280,-10344,-3678,-2701,5308
6110,-9320,2920,-9336,-4555,-445,5602
6115,-3368,2968,-8312,-4051,-11,5128
6120,-6480,4168,-6376,-3694,-837,4229
6125,-4400,2000,-3592,-3410,-2436,3577
6130,-8240,3224,-2648,-2739,-4906,2914
6135,-9384,2416,-4032,-2397,-7161,2975
6140,-10640,1872,-4056,-2496,-8012,3006
6145,-12472,1360,-3000,-2499,-7955,3140
6150,-11656,-616,-1760,-2132,-8127,3352
6155,-9280,-2344,-2320,-1201,-8241,3539
6160,-10336,-2672,-3104,-182,-7522,3532
6165,-11192,-2960,-3888,395,-6308,3575
6170,-8520,-3096,-3584,252,-5217,3550
6175,-5760,-3456,-2496,-33,-4330,3076
6180,-5464,-3816,-672,114,-3540,2139
6185,-6096,-2352,-792,1098,-2959,1070
6190,-3912,-1592,-1480,2247,-2335,373
6195,-3208,-648,-1488,2946,-1554,-209
6200,1160,-104,-1432,3169,-729,-641
6205,3216,-384,-664,3223,228,-1026
6210,2456,-432,-128,3523,1125,-1686
6215,1600,-128,-80,3785,1739,-2269
6220,464,792,72,3653,2044,-2589
6225,304,1920,312,3185,2004,-2798
6230,632,3008,680,2584,1745,-3072
6235,600,4176,1184,2056,1501,-3390
6240,880,4536,1656,1778,1473,-3448
6245,1592,4512,1856,1664,1460,-3156
6250,1704,4272,2096,1590,1458,-2722
6255,1344,3808,2136,1494,1364,-2202
6260,1136,3176,1816,1327,1012,-1576
6265,880,2304,1440,1012,460,-959
6270,456,1312,1072,621,-79,-472
6275,496,256,656,284,-462,-169
6280,-280,-160,504,30,-657,-17
6285,-872,-144,464,-113,-726,155
6290,-808,0,440,-184,-729,415
6295,-784,8,416,-214,-656,664
6300,-808,-8,432,-196,-567,806
6305,-1056,-56,416,-152,-464,815
6310,-1448,-72,360,-37,-313,748
6315,-1784,-192,280,173,-44,647
6320,-1848,-304,256,446,153,473
6325,-1784,-312,160,667,219,210
6330,-1648,-176,40,764,159,-60
6335,-1488,24,-136,720,57,-290
6340,-1240,200,-152,528,-79,-463
6345,-1280,376,-48,280,-241,-579
6350,-1136,464,-16,85,-391,-635
6355,-1216,520,24,-23,-503,-655
6360,-1144,584,-40,-33,-578,-639
6365,-1392,736,-80,50,-623,-594
6370,-1488,1008,-72,185,-659,-495
6375,-1688,1288,-144,350,-690,-348
6380,-1712,1560,-208,527,-708,-166
6385,-1640,1704,-312,676,-729,4
6390,-1672,1824,-256,712,-761,143
6395,-1776,1880,-184,705,-804,268
6400,-1888,1840,-128,698,-842,375
6405,-1944,1728,-104,688,-874,456
6410,-1992,1744,8,668,-898,515
6415,-1952,1560,96,657,-922,564
6420,-2024,1512,96,662,-913,591
6425,-1904,1472,80,676,-860,598
6430,-2152,1424,208,704,-769,601
6435,-2144,1320,288,749,-703,608
6440,-2224,1160,264,782,-655,587
6445,-2280,1064,240,771,-613,551
6450,-2360,1104,304,731,-584,520
6455,-2432,1144,264,688,-577,491
6460,-2544,1296,128,644,-548,467
6465,-2728,1424,-32,590,-494,448
6470,-2808,1544,-256,581,-463,406
6475,-2976,1624,-408,566,-421,358
6480,-2984,1616,-568,519,-374,304
6485,-3024,1640,-664,431,-315,254
6490,-3008,1576,-576,316,-257,209
6495,-3000,1544,-448,202,-217,173
6500,-2976,1496,-304,108,-197,147
6505,-2944,1440,-208,43,-196,126
6510,-2928,1424,-128,4,-205,110
6515,-2888,1368,-152,-8,-208,102
6520,-2872,1264,-128,10,-195,101
6525,-2760,1192,-136,48,-170,98
6530,-2680,1128,-144,103,-138,94
6535,-2656,1056,-168,168,-93,91
6540,-2496,992,-168,227,-53,77
6545,-2352,928,-136,263,-22,58
6550,-2192,888,-128,279,-7,35
6555,-2104,856,-56,275,-5,7
6560,-2072,824,-24,257,-16,-22
6565,-1920,792,-24,229,-37,-51
6570,-1824,784,0,189,-57,-82
6575,-1704,760,-8,134,-80,-110
6580,-1680,776,32,69,-100,-137
6585,-1656,784,-8,-2,-119,-154
6590,-1640,824,-24,-75,-135,-169
6595,-1592,832,40,-144,-150,-190
6600,-1544,792,-16,-208,-164,-205
6605,-1472,760,-8,-268,-178,-225
6610,-1368,712,-16,-313,-189,-250
6615,-1288,608,16,-348,-195,-280
6620,-1256,552,8,-372,-199,-307
6625,-1288,464,8,-385,-204,-334
6630,-1256,440,-16,-396,-210,-358
6635,-1264,392,24,-405,-208,-369
6640,-1280,352,8,-411,-208,-379
6645,-1328,288,64,-410,-216,-393
6650,-1352,280,48,-402,-230,-414
6655,-1400,240,56,-393,-248,-440
6660,-1496,256,56,-378,-262,-469
6665,-1560,240,56,-356,-270,-491
6670,-1624,224,64,-339,-264,-505
6675,-1784,240,104,-325,-251,-520
6680,-1888,240,88,-316,-231,-529
6685,-1992,232,80,-315,-203,-530
6690,-2072,240,96,-315,-160,-525
6695,-2096,200,48,-319,-102,-505
6700,-2184,168,72,-343,-32,-489
6705,-2184,168,56,-374,34,-470
6710,-2232,144,64,-396,94,-436
6715,-2248,48,64,-403,154,-403
6720,-2256,24,0,-428,195,-396
6725,-2320,8,-16,-447,231,-371
6730,-2320,-8,-8,-448,259,-337
6735,-2256,-64,-88,-432,285,-297
6740,-2344,-88,-128,-401,309,-254
6745,-2376,-88,-168,-377,326,-236
6750,-2376,-120,-200,-368,330,-227
6755,-2400,-88,-224,-359,328,-215
6760,-2416,-112,-296,-350,326,-200
6765,-2392,-96,-296,-342,321,-184
6770,-2392,-136,-328,-334,311,-163
6775,-2384,-88,-328,-329,296,-145
6780,-2336,-64,-336,-321,276,-132
6785,-2320,-88,-320,-315,257,-127
6790,-2304,-80,-320,-309,236,-124
6795,-2256,-80,-296,-298,217,-123
6800,-2216,-112,-288,-275,205,-124
6805,-2184,-88,-248,-248,193,-131
6810,-2176,-72,-224,-218,189,-133
6815,-2120,-96,-248,-183,188,-136
6820,-2120,-88,-224,-152,186,-144
6825,-2072,-88,-224,-122,185,-151
6830,-2096,-72,-224,-101,180,-157
6835,-2048,-64,-256,-90,168,-158
6840,-2104,-16,-264,-76,168,-146
6845,-2056,16,-240,-68,163,-132
6850,-2136,16,-256,-72,150,-118
6855,-2152,24,-272,-84,129,-108
6860,-2096,72,-344,-101,107,-101
6865,-2096,96,-312,-126,89,-85
6870,-2104,88,-312,-150,68,-68
6875,-2096,88,-288,-177,45,-58
6880,-2080,64,-272,-198,20,-55
6885,-2056,64,-264,-221,-2,-49
6890,-2024,32,-248,-242,-17,-35
6895,-2064,24,-224,-254,-31,-18
6900,-2072,24,-208,-263,-56,-4
6905,-2112,-8,-208,-279,-96,8
6910,-2088,8,-152,-304,-146,5
6915,-2032,0,-136,-316,-172,21
6920,-2064,-16,-112,-302,-173,53
6925,-2064,-16,-80,-283,-179,83
6930,-2096,-16,-104,-269,-193,105
6935,-2080,8,-64,-268,-209,120
6940,-2088,8,-72,-258,-207,139
6945,-2088,24,-64,-240,-196,159
6950,-2128,72,-88,-218,-185,177
6955,-2120,56,-136,-203,-171,189
6960,-2152,72,-120,-187,-162,197
6965,-2120,72,-136,-177,-150,200
6970,-2128,96,-112,-170,-136,199
6975,-2112,112,-136,-160,-124,194
6980,-2104,128,-80,-148,-111,187
6985,-2104,152,-80,-137,-101,180
6990,-2064,152,-96,-120,-91,173
6995,-2072,128,-96,-100,-85,170
7000,-2064,152,-72,-79,-83,167
7005,-2056,152,-128,-62,-81,161
7010,-2056,136,-88,-43,-77,159
7015,-2064,144,-72,-28,-76,153
7020,-2048,128,-88,-14,-76,153
7025,-2072,160,-64,-1,-78,153
7030,-2064,144,-56,13,-77,152
7035,-2112,144,-40,23,-76,150
7040,-2056,184,-48,35,-75,153
7045,-2088,208,-24,48,-65,150
7050,-2048,192,8,61,-55,146
7055,-2080,184,0,76,-41,137
7060,-2080,184,32,87,-27,134
7065,-2048,192,-48,95,-20,139
7070,-2040,216,0,100,-7,133
7075,-2048,224,24,106,10,126
7080,-2072,248,40,116,27,118
7085,-2056,232,8,124,49,101
7090,-2040,200,-40,129,68,93
7095,-2040,224,-24,132,83,86
7100,-2032,272,-16,133,94,81
7105,-2032,232,8,135,102,74
7110,-2080,224,-40,141,110,72
7115,-2016,248,-40,142,115,67
7120,-2016,256,-56,139,120,63
7125,-2032,256,-56,133,123,56
7130,-1992,248,-96,130,123,52
7135,-2064,272,-80,126,124,48
7140,-2040,264,-64,126,125,46
7145,-2048,256,-40,124,129,38
7150,-2016,240,-72,123,128,35
7155,-2016,216,-112,118,129,28
7160,-2040,248,-104,113,127,26
7165,-2040,248,-136,110,126,25
7170,-2072,232,-96,106,123,24
7175,-2072,256,-120,101,122,20
7180,-2064,248,-112,100,122,17
7185,-2056,224,-104,97,124,16
7190,-2072,232,-144,99,127,15
7195,-2072,232,-160,100,126,13
7200,-2072,208,-144,100,126,11
7205,-2080,248,-136,100,124,11
7210,-2112,200,-96,102,122,14
7215,-2136,248,-112,101,119,14
7220,-2128,208,-160,99,113,13
7225,-2136,224,-192,97,110,12
7230,-2128,240,-168,93,104,15
7235,-2144,208,-200,88,101,17
7240,-2144,224,-200,83,96,19
7245,-2128,216,-184,82,93,21
7250,-2160,248,-208,78,88,23
7255,-2128,232,-192,70,84,25
7260,-2136,216,-216,64,78,23
7265,-2128,248,-192,57,74,24
7270,-2104,248,-184,49,72,26
7275,-2160,248,-224,41,69,29
7280,-2136,256,-184,37,67,32
7285,-2120,256,-224,27,61,33
7290,-2104,232,-216,20,53,34
7295,-2096,232,-160,11,45,35
7300,-2096,248,-208,5,40,35
7305,-2080,216,-216,-2,34,35
7310,-2096,256,-208,-8,25,37
7315,-2080,264,-208,-13,18,39
7320,-2072,248,-184,-18,10,39
7325,-2088,256,-120,-17,2,39
7330,-2088,256,-168,-21,-7,39
7335,-2096,256,-184,-25,-15,40
7340,-2080,256,-200,-28,-22,39
7345,-2088,280,-176,-33,-28,38
7350,-2080,272,-176,-41,-36,37
7355,-2072,288,-176,-48,-40,35
7360,-2088,288,-160,-50,-43,32
7365,-2088,288,-160,-52,-47,31
7370,-2072,264,-144,-55,-52,30
7375,-2088,256,-184,-56,-54,27
7380,-2104,272,-160,-57,-55,26
7385,-2088,264,-128,-60,-54,25
7390,-2080,272,-152,-61,-53,22
7395,-2072,272,-144,-61,-52,23
7400,-2080,264,-136,-60,-53,21
7405,-2080,264,-136,-61,-53,21
7410,-2080,248,-184,-58,-55,20
7415,-2080,248,-144,-56,-59,20
7420,-2080,272,-120,-56,-64,21
7425,-2096,264,-152,-54,-69,19
7430,-2064,248,-72,-50,-74,20
7435,-2080,256,-128,-48,-81,19
7440,-2080,280,-144,-46,-84,17
7445,-2072,264,-128,-44,-88,14
7450,-2072,280,-120,-43,-88,12
7455,-2096,256,-104,-44,-89,10
7460,-2080,264,-128,-44,-87,9
7465,-2104,280,-112,-47,-88,5
7470,-2080,280,-104,-49,-84,1
7475,-2112,264,-128,-53,-80,-2
7480,-2056,240,-128,-63,-81,-4
7485,-2056,216,-160,-71,-79,-8
7490,-2080,264,-88,-77,-74,-12
7495,-2056,264,-96,-79,-68,-16
7500,-2064,256,-128,-78,-60,-19
7505,-2080,256,-80,-78,-50,-21
7510,-2096,240,-72,-79,-42,-25
7515,-2104,240,-72,-79,-34,-27
7520,-2064,216,-88,-81,-29,-29
7525,-2064,232,-64,-81,-23,-30
7530,-2056,240,-80,-78,-19,-29
7535,-2064,216,-120,-76,-16,-30
7540,-2048,216,-72,-74,-14,-29
7545,-2040,208,-104,-70,-13,-28
7550,-2056,224,-64,-67,-12,-28
7555,-2064,208,-96,-65,-11,-28
7560,-2048,232,-96,-62,-12,-27
7565,-2056,232,-112,-60,-12,-27
7570,-2048,224,-80,-60,-12,-24
7575,-2056,224,-72,-60,-13,-23
7580,-2056,232,-88,-59,-14,-23
7585,-2048,232,-88,-59,-12,-23
7590,-2048,192,-120,-60,-13,-22
7595,-2048,216,-96,-58,-14,-19
7600,-2056,216,-112,-60,-12,-19
7605,-2064,240,-104,-61,-10,-18
7610,-2056,216,-80,-63,-9,-17
7615,-2064,232,-120,-63,-7,-15
7620,-2072,224,-104,-64,-5,-13
7625,-2048,248,-80,-65,-3,-12
7630,-2064,216,-104,-65,-1,-12
7635,-2064,248,-112,-67,2,-9
7640,-2064,248,-64,-68,4,-9
7645,-2112,216,-56,-66,6,-6
7650,-2080,232,-136,-68,8,-4
7655,-2096,216,-112,-66,11,-3
7660,-2056,208,-88,-65,10,-1
7665,-2072,192,-112,-64,10,-1
7670,-2088,232,-88,-64,10,2
7675,-2080,216,-88,-63,10,3
7680,-2072,248,-80,-61,10,5
7685,-2080,216,-136,-63,11,6
7690,-2056,248,-120,-60,9,6
7695,-2088,248,-160,-58,8,6
7700,-2056,232,-104,-56,7,6
7705,-2064,208,-120,-55,8,6
7710,-2072,256,-96,-55,8,9
7715,-2064,240,-136,-54,9,9
7720,-2080,256,-128,-54,7,8
7725,-2080,216,-96,-54,4,8
7730,-2064,240,-112,-49,2,8
7735,-2064,224,-88,-47,3,8
7740,-2096,208,-128,-46,5,9
7745,-2064,216,-112,-46,6,9
7750,-2032,288,-48,-45,7,9
7755,-2064,224,-88,-46,8,9
7760,-2072,224,-64,-46,8,10
7765,-2080,240,-88,-46,10,9
7770,-2072,240,-112,-46,9,10
7775,-2072,256,-104,-46,10,9
7780,-2040,240,-72,-45,12,9
7785,-2064,264,-104,-46,13,9
7790,-2088,256,-80,-47,14,7
7795,-2064,272,-88,-47,16,6
7800,-2080,264,-80,-46,16,7
7805,-2064,224,-136,-48,17,7
7810,-2040,248,-72,-47,19,6
7815,-2072,256,-96,-48,20,5
7820,-2072,248,-48,-46,20,5
7825,-2072,264,-96,-48,22,6
7830,-2072,240,-88,-47,24,4
7835,-2080,256,-88,-46,25,5
7840,-2064,232,-144,-45,27,4
7845,-2048,240,-112,-45,27,4
7850,-2072,240,-80,-43,28,5
7855,-2104,288,-88,-42,29,5
7860,-2048,232,-112,-44,31,4
7865,-2080,248,-104,-44,31,3
7870,-2080,272,-96,-44,31,1
7875,-2048,240,-72,-42,32,-1
7880,-2072,256,-104,-41,32,-2
7885,-2072,272,-112,-43,32,-3
7890,-2056,256,-88,-44,34,-3
7895,-2056,232,-96,-42,34,-4
7900,-2072,224,-128,-41,34,-3
7905,-2056,240,-96,-39,34,-3
7910,-2088,240,-96,-38,35,-2
7915,-2064,240,-96,-35,35,-3
7920,-2064,216,-120,-35,36,-3
7925,-2080,240,-128,-34,36,-2
7930,-2072,240,-80,-32,33,-1
7935,-2072,224,-112,-31,32,0
7940,-2072,224,-112,-31,29,1
7945,-2080,256,-136,-29,25,2
7950,-2088,248,-112,-29,21,3
7955,-2088,248,-120,-30,18,3
7960,-2080,264,-120,-33,15,3
7965,-2112,256,-112,-37,13,2
7970,-2088,240,-104,-39,11,3
7975,-2096,256,-120,-40,7,3
7980,-2104,224,-112,-43,5,2
7985,-2080,240,-112,-47,3,1
7990,-2080,240,-104,-49,3,0
7995,-2096,240,-88,-52,5,-1
8000,-2088,248,-80,-53,6,-3
8005,-2080,248,-104,-55,8,-6
8010,-2064,256,-104,-57,11,-7
8015,-2064,232,-96,-60,14,-8
8020,-2072,240,-104,-60,16,-9
8025,-2104,248,-112,-61,18,-10
8030,-2080,248,-112,-62,21,-10
8035,-2080,248,-104,-62,24,-9
8040,-2064,240,-112,-63,23,-8
8045,-2080,240,-64,-60,22,-8
8050,-2072,256,-72,-58,22,-7
8055,-2104,240,-112,-56,22,-8
8060,-2064,224,-88,-57,20,-6
8065,-2080,256,-80,-52,20,-6
8070,-2072,248,-104,-50,18,-7
8075,-2072,240,-136,-49,18,-6
8080,-2088,240,-136,-48,15,-6
8085,-2072,240,-112,-47,14,-7
8090,-2048,240,-144,-46,11,-7
8095,-2064,248,-96,-44,12,-7
8100,-2040,240,-112,-43,10,-8
8105,-2048,240,-64,-42,10,-8
8110,-2056,280,-104,-42,9,-9
8115,-2056,240,-136,-41,8,-10
8120,-2088,272,-96,-40,10,-9
8125,-2048,224,-136,-41,9,-10
8130,-2072,248,-80,-42,8,-11
8135,-2080,248,-88,-44,5,-11
8140,-2064,288,-128,-46,5,-11
8145,-2072,216,-128,-44,5,-11
8150,-2096,256,-120,-44,4,-13
8155,-2064,240,-112,-43,3,-12
8160,-2072,272,-104,-46,3,-12
8165,-2072,240,-128,-47,3,-13
8170,-2056,264,-88,-45,4,-15
8175,-2096,264,-104,-44,5,-14
8180,-2080,248,-56,-44,5,-14
8185,-2080,248,-56,-45,5,-14
8190,-2072,240,-88,-46,6,-14
8195,-2072,248,-128,-46,7,-12
8200,-2080,240,-104,-46,6,-12
8205,-2080,240,-80,-45,8,-13
8210,-2072,256,-104,-44,7,-11
8215,-2072,224,-80,-45,8,-12
8220,-2072,256,-128,-43,7,-12
8225,-2088,248,-64,-44,8,-10
8230,-2096,248,-104,-44,8,-11
8235,-2072,240,-112,-47,8,-11
8240,-2080,248,-104,-44,9,-11
8245,-2080,256,-96,-45,9,-11
8250,-2072,224,-104,-46,8,-10
8255,-2064,240,-96,-45,8,-8
8260,-2088,248,-120,-45,8,-7
8265,-2048,240,-80,-45,8,-8
8270,-2072,248,-96,-43,7,-10
8275,-2048,224,-104,-43,7,-8
8280,-2040,240,-72,-42,10,-8
8285,-2072,232,-144,-41,11,-7
8290,-2072,248,-96,-40,11,-7
8295,-2056,240,-72,-41,12,-8
8300,-2064,240,-120,-41,13,-7
8305,-2080,240,-96,-40,15,-7
8310,-2080,240,-88,-36,17,-8
8315,-2072,248,-64,-35,17,-8
8320,-2088,248,-88,-33,18,-7
8325,-2080,240,-64,-32,20,-6
8330,-2072,240,-56,-31,20,-6
8335,-2064,232,-104,-32,19,-5
8340,-2056,224,-120,-32,18,-6
8345,-2080,240,-104,-31,18,-5
8350,-2080,224,-96,-31,19,-5
8355,-2064,248,-80,-32,21,-6
8360,-2064,248,-72,-32,20,-7
8365,-2080,272,-120,-31,20,-7
8370,-2072,248,-72,-31,21,-8
8375,-2072,248,-80,-33,20,-9
8380,-2072,224,-80,-31,21,-9
8385,-2064,256,-72,-32,22,-10
8390,-2096,240,-96,-30,24,-10
8395,-2064,224,-64,-31,26,-10
8400,-2048,240,-72,-31,27,-11
8405,-2072,256,-96,-32,27,-12
8410,-2048,232,-96,-32,27,-12
8415,-2088,240,-112,-33,29,-12
8420,-2080,240,-104,-32,30,-13
8425,-2064,256,-88,-33,30,-11
8430,-2072,264,-120,-32,31,-10
8435,-2080,216,-104,-29,31,-9
8440,-2056,216,-88,-29,33,-8
8445,-2056,232,-104,-29,30,-7
8450,-2048,224,-96,-28,31,-6
8455,-2064,240,-104,-27,29,-6
8460,-2048,224,-80,-26,27,-5
8465,-2056,232,-88,-25,25,-6
8470,-2064,240,-120,-23,24,-6
8475,-2072,232,-104,-23,20,-4
8480,-2064,232,-120,-24,18,-4
8485,-2080,240,-80,-24,15,-5
8490,-2096,240,-88,-25,15,-5
8495,-2056,272,-104,-25,15,-6
8500,-2080,232,-80,-27,16,-7
8505,-2064,240,-112,-28,16,-6
8510,-2096,240,-104,-30,17,-7
8515,-2080,232,-88,-30,20,-7
8520,-2072,232,-104,-29,20,-7
8525,-2080,232,-80,-28,22,-7
8530,-2096,256,-88,-29,24,-8
8535,-2096,248,-120,-30,25,-8
8540,-2080,264,-72,-34,27,-6
8545,-2088,224,-128,-34,27,-8
8550,-2064,264,-120,-34,29,-7
8555,-2064,248,-128,-36,32,-7
8560,-2088,240,-112,-35,33,-7
8565,-2064,248,-120,-34,34,-8
8570,-2064,232,-104,-36,35,-7
8575,-2064,248,-96,-35,35,-7
8580,-2056,248,-80,-33,35,-8
8585,-2088,256,-128,-32,34,-7
8590,-2072,232,-112,-32,31,-7
8595,-2072,224,-96,-29,31,-9
8600,-2096,240,-120,-27,28,-9
8605,-2080,256,-144,-26,27,-10
8610,-2056,248,-104,-25,24,-9
8615,-2048,240,-104,-24,21,-10
8620,-2080,248,-96,-25,20,-10
8625,-2056,248,-120,-23,20,-9
8630,-2064,232,-72,-24,18,-10
8635,-2072,256,-96,-25,18,-11
8640,-2072,248,-80,-25,19,-12
8645,-2080,248,-96,-26,19,-13
8650,-2072,216,-112,-29,20,-15
8655,-2088,248,-152,-30,20,-14
8660,-2064,248,-104,-33,22,-15
8665,-2080,256,-96,-34,21,-15
8670,-2088,256,-128,-36,22,-16
8675,-2064,264,-128,-36,22,-15
8680,-2072,248,-128,-39,21,-14
8685,-2088,240,-112,-38,21,-15
8690,-2080,200,-112,-37,19,-14
8695,-2072,256,-96,-38,18,-14
8700,-2048,232,-136,-38,18,-14
8705,-2088,232,-144,-38,16,-15
8710,-2032,256,-96,-36,15,-14
8715,-2112,216,-104,-34,13,-12
8720,-2056,240,-88,-36,11,-12
8725,-2064,240,-120,-37,10,-12
8730,-2024,248,-120,-40,10,-12
8735,-2080,240,-128,-41,8,-12
8740,-2080,248,-104,-40,10,-12
8745,-2080,232,-64,-44,11,-10
8750,-2056,240,-128,-44,12,-12
8755,-2088,256,-112,-45,12,-12
8760,-2072,232,-104,-45,13,-14
8765,-2080,248,-32,-47,16,-13
8770,-2064,232,-88,-47,18,-12
8775,-2064,224,-120,-47,18,-12
8780,-2088,224,-96,-47,19,-11
8785,-2088,240,-104,-47,19,-10
8790,-2064,232,-112,-46,20,-10
8795,-2064,240,-96,-45,18,-9
8800,-2072,216,-136,-42,19,-9
8805,-2048,248,-96,-42,19,-10
8810,-2064,208,-112,-43,20,-10
8815,-2072,216,-104,-42,19,-9
8820,-2064,232,-104,-40,19,-9
8825,-2072,232,-128,-41,19,-9
8830,-2064,240,-104,-38,21,-9
8835,-2072,232,-88,-37,21,-8
8840,-2064,240,-96,-38,23,-7
8845,-2064,232,-80,-36,24,-9
8850,-2064,240,-64,-37,24,-9
8855,-2072,232,-88,-36,25,-11
8860,-2080,248,-64,-36,26,-11
8865,-2056,240,-104,-35,26,-9
8870,-2080,264,-80,-35,27,-11
8875,-2080,208,-96,-35,26,-11
8880,-2080,240,-144,-36,27,-11
8885,-2080,240,-104,-35,28,-11
8890,-2072,248,-128,-35,29,-11
8895,-2064,224,-88,-36,31,-11
8900,-2056,240,-112,-36,32,-11
8905,-2064,240,-104,-35,33,-12
8910,-2056,240,-104,-34,34,-12
8915,-2064,216,-112,-35,34,-11
8920,-2056,216,-120,-35,35,-11
8925,-2048,288,-96,-35,36,-11
8930,-2080,232,-88,-33,35,-10
8935,-2064,224,-96,-33,37,-9
8940,-2064,232,-96,-32,36,-13
8945,-2096,240,-120,-32,36,-12
8950,-2080,256,-88,-33,36,-13
8955,-2064,232,-120,-34,36,-12
8960,-2064,248,-96,-35,36,-11
8965,-2040,248,-112,-32,36,-11
8970,-2072,240,-120,-33,38,-10
8975,-2064,248,-112,-34,36,-10
8980,-2064,232,-112,-35,35,-10
8985,-2064,232,-96,-35,32,-9
8990,-2080,240,-96,-34,31,-9
8995,-2064,224,-88,-33,32,-10
9000,-2064,248,-96,-34,34,-9
9005,-2064,232,-96,-33,32,-7
9010,-2072,216,-112,-37,30,-6
9015,-2056,224,-104,-39,27,-7
9020,-2072,224,-72,-41,25,-5
9025,-2096,256,-120,-42,24,-5
9030,-2072,248,-128,-42,23,-4
9035,-2088,264,-128,-45,24,-4
9040,-2072,232,-120,-45,24,-4
9045,-2072,216,-120,-47,22,-6
9050,-2080,232,-104,-47,22,-4
9055,-2088,232,-112,-45,23,-4
9060,-2088,232,-120,-44,24,-3
9065,-2072,224,-112,-46,25,-3
9070,-2064,240,-112,-45,25,-2
9075,-2072,240,-120,-47,27,-3
9080,-2096,248,-120,-48,26,-1
9085,-2080,208,-136,-47,27,-2
9090,-2064,248,-136,-47,27,-1
9095,-2080,248,-136,-46,25,0
9100,-2040,240,-136,-45,24,0
9105,-2064,240,-120,-45,23,-1
9110,-2080,240,-120,-45,23,-1
9115,-2072,240,-88,-46,21,0
9120,-2072,240,-104,-45,21,-1
9125,-2072,224,-128,-45,18,-1
9130,-2056,232,-120,-42,18,0
9135,-2048,272,-152,-43,17,-1
9140,-2088,232,-136,-43,16,-1
9145,-2088,248,-136,-44,16,-3
9150,-2072,240,-112,-45,15,-2
9155,-2072,240,-104,-44,14,-3
9160,-2080,240,-136,-46,14,-3
9165,-2080,232,-128,-46,15,-4
9170,-2048,240,-128,-48,15,-4
9175,-2056,224,-128,-48,16,-5
9180,-2072,240,-112,-49,15,-5
9185,-2088,240,-88,-49,16,-5
9190,-2056,208,-80,-48,14,-4
9195,-2064,216,-128,-47,15,-5
9200,-2088,240,-152,-48,14,-4
9205,-2080,256,-112,-49,13,-2
9210,-2080,256,-96,-51,12,-1
9215,-2080,240,-144,-51,11,-2
9220,-2080,240,-136,-51,10,-1
9225,-2080,240,-96,-49,9,-1
9230,-2080,232,-80,-50,8,-2
9235,-2072,248,-136,-50,8,-2
9240,-2080,248,-112,-49,6,-3
9245,-2056,176,-96,-49,6,-2
9250,-2040,248,-104,-49,6,-2
9255,-2064,232,-120,-50,6,-2
9260,-2072,216,-112,-51,5,-1
9265,-2072,256,-120,-52,4,-1
9270,-2072,240,-96,-56,3,0
9275,-2080,224,-184,-57,3,0
9280,-2080,240,-104,-60,3,-1
9285,-2072,208,-128,-59,3,-1
9290,-2072,248,-120,-61,4,0
9295,-2096,232,-104,-62,6,-1
9300,-2088,248,-88,-62,5,-3
9305,-2088,248,-88,-63,5,-1
9310,-2064,240,-136,-61,5,-1
9315,-2096,240,-112,-64,6,-1
9320,-2096,240,-104,-61,6,-1
9325,-2088,216,-120,-62,6,-2
9330,-2080,240,-120,-60,7,-2
9335,-2080,256,-80,-58,8,0
9340,-2048,216,-104,-58,8,0
9345,-2112,224,-104,-56,9,-1
9350,-2112,280,-136,-56,10,-1
9355,-2080,224,-96,-56,11,-1
9360,-2056,232,-112,-54,12,0
9365,-2064,216,-104,-53,12,-1
9370,-2064,240,-128,-55,12,-1
9375,-2064,248,-96,-55,11,-1
9380,-2072,248,-104,-54,12,1
9385,-2056,224,-88,-54,11,1
9390,-2056,224,-112,-54,11,0
9395,-2080,232,-88,-54,12,0
9400,-2088,224,-104,-52,12,1
9405,-2072,248,-80,-50,12,0
9410,-2088,216,-120,-52,11,-2
9415,-2072,240,-96,-52,12,0
9420,-2072,232,-72,-50,13,-1
9425,-2088,256,-104,-51,13,0
9430,-2072,240,-96,-50,12,0
9435,-2088,240,-104,-49,13,-2
9440,-2080,232,-112,-49,13,-2
9445,-2072,232,-88,-49,14,-4
9450,-2080,216,-96,-48,14,-3
9455,-2064,240,-112,-49,15,-2
9460,-2056,224,-104,-48,14,-3
9465,-2080,216,-104,-48,14,-1
9470,-2056,240,-128,-47,15,-2
9475,-2080,248,-120,-45,15,-4
9480,-2072,256,-96,-45,15,-5
9485,-2064,240,-96,-45,14,-4
9490,-2064,248,-104,-46,15,-5
9495,-2088,240,-144,-44,17,-6
9500,-2080,240,-120,-43,17,-6
9505,-2080,256,-104,-42,17,-5
9510,-2096,208,-120,-42,16,-5
9515,-2064,224,-112,-41,14,-4
9520,-2048,208,-96,-39,14,-2
9525,-2088,248,-120,-40,12,-2
9530,-2080,232,-112,-40,13,0
9535,-2072,240,-96,-41,12,1
9540,-2072,240,-96,-44,10,3
9545,-2064,216,-96,-43,9,2
9550,-2080,256,-144,-43,7,2
9555,-2104,248,-120,-43,5,2
9560,-2072,248,-128,-46,2,3
9565,-2080,224,-152,-48,1,4
9570,-2080,232,-96,-50,0,4
9575,-2064,240,-104,-52,1,3
9580,-2088,232,-120,-52,2,3
9585,-2088,232,-136,-52,3,2
9590,-2104,240,-96,-52,4,4
9595,-2088,216,-160,-51,5,4
9600,-2080,232,-96,-49,7,3
9605,-2104,240,-80,-50,6,3
9610,-2096,248,-96,-50,6,2
9615,-2128,240,-104,-50,8,2
9620,-2072,240,-88,-49,9,2
9625,-2072,232,-120,-49,10,2
9630,-2072,232,-128,-49,11,2
9635,-2072,240,-104,-49,11,2
9640,-2080,232,-104,-50,12,0
9645,-2072,256,-112,-49,13,1
9650,-2056,248,-80,-48,12,1
9655,-2072,224,-128,-48,11,1
9660,-2112,232,-88,-48,10,1
9665,-2072,232,-104,-48,9,1
9670,-2024,256,-96,-46,8,0
9675,-2064,248,-104,-47,7,-1
9680,-2072,232,-128,-48,5,-1
9685,-2064,232,-112,-49,5,-1
9690,-2080,240,-120,-50,4,-3
9695,-2064,232,-96,-50,3,-4
9700,-2096,224,-80,-50,3,-4
9705,-2080,248,-72,-50,3,-5
9710,-2040,216,-104,-51,3,-4
9715,-2056,216,-104,-51,5,-6
9720,-2088,240,-80,-52,4,-6
9725,-2040,288,-136,-53,5,-7
9730,-2080,232,-72,-52,6,-8
9735,-2080,256,-104,-52,7,-8
9740,-2072,248,-112,-52,9,-7
9745,-2064,248,-88,-52,10,-7
9750,-2072,240,-120,-53,9,-7
9755,-2104,248,-128,-55,9,-7
9760,-2064,240,-104,-57,10,-7
9765,-2072,232,-88,-56,10,-6
9770,-2088,240,-80,-56,11,-6
9775,-2024,208,-112,-56,10,-6
9780,-2072,216,-112,-56,10,-6
9785,-2064,216,-112,-55,11,-7
9790,-2064,216,-88,-54,13,-6
9795,-2064,240,-104,-53,11,-6
9800,-2072,264,-96,-52,12,-5
9805,-2096,240,-96,-53,11,-5
9810,-2080,232,-96,-54,10,-4
9815,-2064,248,-80,-54,10,-4
9820,-2048,224,-112,-54,9,-3
9825,-2080,248,-80,-56,9,-4
9830,-2048,240,-176,-56,9,-3
9835,-2080,248,-96,-56,8,-5
9840,-2088,248,-80,-58,8,-4
9845,-2096,224,-96,-58,9,-5
9850,-2072,240,-80,-58,7,-4
9855,-2072,232,-104,-59,9,-5
9860,-2088,248,-96,-61,10,-5
9865,-2072,256,-88,-59,9,-4
9870,-2080,224,-112,-60,8,-4
9875,-2056,232,-88,-59,9,-3
9880,-2064,256,-96,-58,9,-4
9885,-2104,224,-128,-58,10,-5
9890,-2064,256,-88,-59,11,-4
9895,-2080,232,-96,-57,12,-4
9900,-2072,248,-80,-56,12,-5
9905,-2056,240,-104,-56,12,-4
9910,-2048,224,-104,-55,12,-4
9915,-2056,240,-136,-54,12,-3
9920,-2080,232,-128,-54,12,-4
9925,-2080,248,-88,-52,12,-5
9930,-2056,248,-64,-52,11,-3
9935,-2056,232,-40,-52,10,-4
9940,-2072,224,-88,-52,10,-4
9945,-2072,232,-104,-49,9,-4
9950,-2080,232,-72,-49,11,-4
9955,-2056,208,-72,-47,11,-6
9960,-2072,240,-88,-46,11,-4
9965,-2072,232,-104,-47,11,-5
9970,-2080,248,-80,-47,12,-5
9975,-2088,240,-104,-47,12,-5
9980,-2056,232,-80,-47,13,-5
9985,-2080,224,-56,-45,13,-5
9990,-2016,216,-64,-45,14,-7
9995,-2056,224,-128,-45,14,-6
10000,-2048,248,-120,-45,14,-8
10005,-2080,240,-96,-44,16,-6
10010,-2080,232,-128,-44,16,-7
10015,-2088,240,-80,-45,17,-5
10020,-2072,240,-80,-47,18,-4
10025,-2088,240,-112,-44,18,-4
10030,-2088,216,-48,-46,17,-4
10035,-2072,216,-120,-44,17,-4
10040,-2064,208,-112,-44,17,-5
10045,-2064,272,-96,-44,16,-6
10050,-2064,248,-120,-44,17,-8
10055,-2072,216,-128,-44,18,-8
10060,-2064,248,-80,-43,18,-9
10065,-2048,224,-72,-44,18,-7
10070,-2096,232,-96,-42,16,-7
10075,-2056,240,-112,-39,16,-5
10080,-2088,240,-120,-39,14,-5
10085,-2072,232,-120,-39,14,-3
10090,-2072,240,-80,-38,12,-2
10095,-2056,216,-56,-38,12,0
10100,-2080,256,-96,-38,12,1
10105,-2064,224,-96,-37,10,1
10110,-2056,200,-112,-36,7,1
10115,-2088,232,-104,-36,6,1
10120,-2080,240,-104,-38,3,2
10125,-2072,240,-80,-41,0,4
10130,-2080,256,-88,-44,0,3
10135,-2064,264,-104,-45,0,3
10140,-2088,248,-96,-46,1,3
10145,-2080,216,-120,-47,0,3
10150,-2104,200,-104,-48,1,3
10155,-2088,248,-88,-50,1,3
10160,-2080,224,-88,-48,3,3
10165,-2088,240,-72,-50,3,3
10170,-2072,240,-128,-50,4,2
10175,-2080,248,-72,-51,6,1
10180,-2080,280,-88,-52,8,0
10185,-2080,240,-104,-52,11,-1
10190,-2080,248,-80,-51,11,-1
10195,-2064,248,-80,-50,14,-1
10200,-2080,248,-128,-48,15,-1
10205,-2064,256,-128,-48,16,-1
10210,-2072,240,-88,-47,17,0
10215,-2056,264,-120,-46,16,-1
10220,-2072,240,-88,-46,17,-4
10225,-2072,240,-80,-45,16,-3
10230,-2056,224,-80,-45,14,-3
10235,-2072,248,-120,-45,13,-3
10240,-2064,224,-88,-45,12,-3
10245,-2056,256,-88,-46,11,-4
10250,-2048,240,-112,-45,10,-5
10255,-2056,312,-88,-46,9,-3
10260,-2072,224,-112,-44,8,-4
10265,-2064,240,-96,-44,8,-5
10270,-2072,208,-88,-45,8,-5
10275,-2072,232,-72,-45,10,-7
10280,-2088,248,-120,-45,10,-6
10285,-2072,224,-88,-45,11,-6
10290,-2072,240,-88,-46,12,-7
10295,-2088,248,-120,-46,13,-7
10300,-2064,240,-112,-45,14,-8
10305,-2064,232,-128,-46,14,-7
10310,-2080,240,-64,-45,16,-7
10315,-2080,256,-96,-47,16,-5
10320,-2080,264,-104,-48,17,-6
10325,-2072,248,-88,-50,17,-6
10330,-2080,240,-104,-48,18,-7
10335,-2080,232,-112,-50,18,-6
10340,-2072,256,-120,-51,17,-5
10345,-2072,248,-96,-51,17,-6
10350,-2072,216,-128,-50,19,-6
10355,-2104,240,-96,-49,19,-5
10360,-2088,256,-96,-49,19,-6
10365,-2032,248,-56,-48,18,-6
10370,-2088,248,-56,-48,17,-6
10375,-2088,256,-112,-49,14,-5
10380,-2048,240,-112,-50,14,-4
10385,-2048,224,-80,-51,13,-3
10390,-2072,248,-88,-51,11,-3
10395,-2088,248,-104,-51,12,-4
10400,-2072,216,-96,-52,11,-4
10405,-2096,248,-128,-54,10,-4
10410,-2088,256,-96,-55,8,-5
10415,-2040,288,-88,-54,9,-5
10420,-2048,232,-88,-56,8,-4
10425,-2080,240,-96,-57,8,-5
10430,-2056,232,-96,-57,7,-5
10435,-2080,240,-96,-58,9,-5
10440,-2064,240,-96,-57,9,-5
10445,-2080,240,-80,-56,9,-4
10450,-2072,240,-88,-55,10,-4
10455,-2080,240,-120,-55,12,-5
10460,-2080,272,-96,-53,13,-5
10465,-2072,232,-40,-54,12,-5
10470,-2080,240,-128,-53,14,-4
10475,-2064,256,-88,-53,13,-4
10480,-2064,232,-96,-53,14,-6
10485,-2096,264,-96,-54,14,-6
10490,-2072,232,-56,-54,14,-5
10495,-2056,240,-112,-52,16,-4
10500,-2088,224,-80,-52,16,-5
10505,-2080,232,-96,-50,14,-5
10510,-2072,232,-72,-51,14,-6
10515,-2088,216,-96,-50,15,-5
10520,-2072,280,-48,-49,13,-5
10525,-2064,240,-40,-48,13,-6
10530,-2064,224,-96,-47,14,-6
10535,-2056,232,-56,-46,14,-5
10540,-2072,208,-96,-46,15,-6
10545,-2104,264,-104,-45,15,-6
10550,-2064,240,-48,-45,15,-5
10555,-2080,240,-96,-44,15,-6
10560,-2064,264,-64,-44,15,-5
10565,-2072,240,-88,-43,15,-5
10570,-2072,256,-80,-43,16,-6
10575,-2064,240,-80,-44,15,-5
10580,-2088,224,-80,-42,16,-5
10585,-2088,224,-88,-44,17,-5
10590,-2064,248,-80,-45,15,-5
10595,-2072,216,-96,-45,17,-5
10600,-2056,256,-56,-47,16,-5
10605,-2064,240,-120,-47,16,-4
10610,-2096,272,-72,-46,17,-5
10615,-2080,248,-88,-46,16,-4
10620,-2064,240,-88,-45,16,-5
10625,-2064,240,-80,-46,16,-5
10630,-2064,248,-80,-46,15,-6
10635,-2080,248,-96,-45,15,-6
10640,-2088,256,-136,-46,14,-6
10645,-2072,224,-120,-46,15,-4
10650,-2064,256,-80,-47,14,-4
10655,-2072,232,-80,-48,14,-3
10660,-2088,256,-96,-48,15,-4
10665,-2056,240,-64,-48,14,-4
10670,-2096,256,-88,-47,15,-2
10675,-2088,240,-112,-47,14,-3
10680,-2080,264,-80,-48,14,-4
10685,-2064,200,-120,-47,14,-4
10690,-2072,232,-80,-48,15,-5
10695,-2080,232,-56,-47,16,-4
10700,-2096,232,-104,-47,16,-3
10705,-2088,248,-72,-48,16,-3
10710,-2064,232,-80,-47,16,-3
10715,-2064,224,-96,-46,17,-4
10720,-2064,256,-80,-46,17,-3
10725,-2056,208,-72,-47,18,-5
10730,-2096,232,-80,-49,18,-6
10735,-2072,272,-160,-48,18,-6
10740,-2080,248,-88,-48,20,-7
10745,-2072,248,-88,-47,19,-8
10750,-2072,248,-112,-47,19,-7
10755,-2064,224,-112,-45,20,-8
10760,-2064,224,-112,-43,21,-6
10765,-2080,232,-96,-42,21,-7
10770,-2080,248,-128,-42,21,-5
10775,-2072,232,-112,-41,21,-3
10780,-2072,248,-80,-39,22,-2
10785,-2048,232,-64,-37,23,-3
10790,-2032,296,-72,-36,22,-2
10795,-2064,264,-88,-36,20,0
10800,-2056,224,-80,-34,16,-1
10805,-2056,240,-88,-34,14,0
10810,-2056,248,-104,-37,12,-1
10815,-2064,256,-112,-38,11,1
10820,-2080,232,-104,-39,9,0
10825,-2080,256,-88,-41,10,1
10830,-2064,240,-80,-41,7,1
10835,-2056,224,-96,-44,6,1
10840,-2072,240,-104,-45,6,2
10845,-2048,288,-72,-47,5,1
10850,-2088,248,-72,-47,5,2
10855,-2080,232,-112,-47,5,3
10860,-2056,240,-80,-46,4,2
10865,-2080,232,-128,-47,4,-1
10870,-2072,248,-88,-47,5,-1
10875,-2072,248,-64,-47,7,-1
10880,-2072,240,-72,-47,8,0
10885,-2072,264,-88,-45,10,-1
10890,-2072,248,-112,-47,11,-2
10895,-2104,272,-88,-47,15,-3
10900,-2048,240,-64,-48,16,-3
10905,-2056,216,-96,-48,17,-3
10910,-2064,240,-64,-46,17,-4
10915,-2072,232,-72,-45,18,-4
10920,-2064,232,-72,-45,17,-4
10925,-2056,224,-72,-43,17,-5
10930,-2072,224,-88,-44,16,-4
10935,-2064,232,-64,-44,15,-5
10940,-2080,256,-96,-43,14,-4
10945,-2040,232,-96,-44,14,-5
10950,-2016,232,-104,-44,15,-3
10955,-2072,240,-88,-45,14,-5
10960,-2072,248,-80,-43,15,-5
10965,-2080,240,-72,-46,15,-5
10970,-2064,240,-64,-46,16,-5
10975,-2080,256,-104,-47,17,-5
10980,-2096,256,-80,-47,17,-5
10985,-2064,232,-112,-46,17,-4
10990,-2080,208,-104,-46,17,-4
10995,-2080,232,-112,-45,17,-3
11000,-2072,240,-96,-47,18,-4
11005,-2064,248,-160,-46,18,-5
11010,-2048,248,-72,-46,18,-5
11015,-2088,272,-112,-48,19,-5
11020,-2088,248,-72,-49,18,-6
11025,-2096,240,-112,-49,18,-6
11030,-2096,232,-96,-48,17,-4
11035,-2080,256,-56,-48,17,-7
11040,-2072,216,-72,-47,19,-8
11045,-2096,216,-72,-46,19,-7
11050,-2072,256,-96,-48,20,-7
11055,-2000,200,-112,-47,19,-6
11060,-2088,248,-104,-48,19,-6
11065,-2064,240,-88,-48,19,-6
11070,-2056,232,-80,-50,18,-4
11075,-2064,232,-80,-49,17,-6
11080,-2072,240,-104,-52,15,-4
11085,-2056,216,-88,-51,15,-4
11090,-2072,240,-104,-52,15,-5
11095,-2064,240,-112,-52,15,-5
11100,-2064,248,-88,-53,13,-5
11105,-2080,240,-72,-53,13,-5
11110,-2056,240,-144,-53,14,-6
11115,-2080,240,-88,-54,14,-6
11120,-2064,232,-72,-53,14,-6
11125,-2088,232,-88,-54,13,-6
11130,-2072,232,-88,-55,15,-6
11135,-2088,240,-96,-54,15,-5
11140,-2072,240,-80,-54,15,-5
11145,-2064,248,-96,-55,16,-6
11150,-2080,256,-64,-55,17,-7
11155,-2088,232,-128,-53,19,-8
11160,-2064,224,-88,-53,19,-6
11165,-2048,248,-56,-53,18,-7
11170,-2048,240,-88,-51,20,-7
11175,-2104,248,-56,-52,20,-6
11180,-2056,232,-80,-51,20,-5
11185,-2072,240,-120,-50,19,-5
11190,-2064,232,-80,-49,19,-6
11195,-2080,256,-96,-49,20,-6
11200,-2064,240,-72,-48,19,-6
11205,-2072,224,-104,-47,18,-6
11210,-2080,216,-104,-46,20,-7
11215,-2096,272,-88,-46,19,-5
11220,-2080,224,-120,-46,19,-6
11225,-2072,248,-96,-45,19,-6
11230,-2072,240,-72,-45,18,-5
11235,-2080,256,-120,-45,19,-5
11240,-2072,248,-64,-45,18,-5
11245,-2056,256,-128,-43,18,-4
11250,-2072,256,-104,-44,19,-6
11255,-2072,248,-80,-44,19,-6
11260,-2072,224,-96,-44,19,-7
11265,-2080,248,-96,-44,20,-6
11270,-2080,280,-128,-44,20,-7
11275,-2080,248,-112,-43,20,-5
11280,-2088,240,-72,-44,20,-5
11285,-2056,256,-56,-44,21,-5
11290,-2072,240,-96,-44,20,-5
11295,-2080,224,-96,-44,20,-5
11300,-2088,240,-72,-44,20,-5
11305,-2064,240,-80,-46,21,-5
11310,-2056,248,-72,-46,19,-5
11315,-2072,248,-104,-46,21,-5
11320,-2056,248,-88,-47,19,-5
11325,-2040,216,-16,-47,18,-4
11330,-2064,240,-96,-49,20,-4
11335,-2080,264,-72,-49,19,-5
11340,-2072,248,-88,-48,18,-5
11345,-2080,280,-104,-48,19,-5
11350,-2064,224,-96,-48,19,-5
11355,-2096,232,-120,-48,19,-5
11360,-2072,224,-104,-48,18,-5
11365,-2064,256,-88,-48,21,-5
11370,-2080,200,-64,-48,21,-7
11375,-2048,248,-112,-46,23,-5
11380,-2072,224,-104,-46,24,-6
11385,-2096,248,-96,-45,21,-6
11390,-2088,240,-72,-46,17,-6
11395,-2072,232,-88,-44,18,-5
11400,-2088,264,-88,-43,22,-4
11405,-2056,256,-56,-43,23,-3
11410,-2040,240,-48,-48,19,-5
11415,-2048,240,-96,-47,17,-5
11420,-2080,216,-48,-45,16,-5
11425,-2080,224,-104,-47,20,-6
11430,-2088,264,-144,-47,20,-6
11435,-2072,248,-80,-47,20,-7
11440,-2080,248,-88,-50,20,-6
11445,-2088,256,-88,-52,21,-6
11450,-2056,232,-104,-52,21,-7
11455,-2088,256,-72,-50,22,-6
11460,-2096,248,-104,-51,22,-6
11465,-2080,248,-88,-51,24,-7
11470,-2080,232,-96,-52,24,-6
11475,-2072,248,-88,-52,24,-7
11480,-2072,224,-72,-53,24,-8
11485,-2096,208,-96,-52,25,-7
11490,-2080,256,-80,-50,23,-7
11495,-2072,232,-96,-50,23,-6
11500,-2064,208,-112,-50,23,-6
11505,-2072,240,-136,-50,21,-7
11510,-2064,224,-80,-48,20,-6
11515,-2088,240,-112,-48,18,-7
11520,-2064,240,-88,-47,18,-5
11525,-2072,248,-88,-46,18,-6
11530,-2072,240,-104,-45,16,-6
11535,-2096,216,-88,-44,15,-6
11540,-2072,240,-72,-43,14,-6
11545,-2080,240,-80,-43,14,-6
11550,-2064,240,-112,-44,15,-5
11555,-2080,248,-80,-44,15,-5
11560,-2088,240,-88,-45,16,-5
11565,-2080,256,-64,-45,15,-6
11570,-2080,232,-104,-45,15,-6
11575,-2056,216,-120,-45,17,-6
11580,-2056,232,-88,-46,18,-7
11585,-2080,248,-96,-46,19,-8
11590,-2072,248,-120,-47,21,-7
11595,-2072,248,-64,-48,21,-7
11600,-2064,264,-112,-46,22,-8
11605,-2056,256,-104,-46,22,-5
11610,-2072,248,-88,-45,21,-6
11615,-2072,240,-80,-45,21,-5
11620,-2040,264,-88,-45,21,-5
11625,-2088,256,-96,-46,20,-6
11630,-2072,264,-96,-47,20,-7
11635,-2104,256,-80,-47,20,-7
11640,-2096,256,-80,-47,20,-8
11645,-2080,264,-96,-44,21,-7
11650,-2064,240,-112,-42,21,-7
11655,-2096,224,-112,-41,20,-7
11660,-2064,216,-88,-39,21,-5
11665,-2072,232,-96,-37,20,-4
11670,-2096,264,-88,-36,20,-3
11675,-2088,224,-104,-34,21,-3
11680,-2056,232,-72,-33,22,-2
11685,-2064,248,-72,-32,21,-2
11690,-2056,280,-96,-31,20,-1
11695,-2072,232,-96,-31,19,0
11700,-2080,256,-104,-30,17,0
11705,-2080,272,-104,-31,16,2
11710,-2064,248,-120,-32,15,1
11715,-2072,248,-112,-36,15,1
11720,-2064,248,-104,-38,15,0
11725,-2088,240,-88,-41,15,0
11730,-2064,256,-136,-44,14,-1
11735,-2072,232,-104,-45,14,0
11740,-2072,232,-80,-47,14,0
11745,-2088,232,-112,-50,13,-1
11750,-2096,240,-96,-51,13,0
11755,-2072,240,-88,-50,12,0
11760,-2088,240,-104,-50,12,0
11765,-2080,256,-104,-50,13,1
11770,-2064,232,-80,-51,13,0
11775,-2072,240,-104,-50,15,-1
11780,-2072,248,-96,-50,17,-2
11785,-2096,248,-104,-50,18,-2
11790,-2080,248,-104,-47,20,-2
11795,-2080,248,-80,-49,19,-3
11800,-2096,264,-120,-47,21,-2
11805,-2088,248,-88,-46,22,-3
11810,-2096,248,-88,-44,23,-3
11815,-2072,240,-96,-45,21,-4
11820,-2064,240,-88,-42,20,-4
11825,-2056,240,-96,-42,19,-5
11830,-2088,240,-88,-43,18,-6
11835,-2048,224,-88,-42,18,-5
11840,-2072,232,-104,-43,16,-6
11845,-2056,256,-88,-43,17,-6
11850,-2064,232,-96,-42,17,-7
11855,-2080,256,-88,-41,19,-7
11860,-2088,240,-104,-44,18,-7
11865,-2072,248,-96,-44,20,-8
11870,-2080,256,-104,-46,22,-7
11875,-2064,256,-72,-44,23,-7
11880,-2072,264,-56,-46,21,-7
11885,-2088,240,-96,-46,22,-7
11890,-2080,248,-88,-47,21,-6
11895,-2064,256,-96,-48,19,-6
11900,-2080,256,-88,-50,19,-7
11905,-2088,272,-120,-49,19,-8
11910,-2088,240,-96,-50,19,-8
11915,-2048,232,-88,-50,19,-7
11920,-2056,232,-80,-50,17,-8
11925,-2072,232,-96,-50,17,-8
11930,-2080,224,-80,-48,17,-8
11935,-2096,224,-120,-49,16,-7
11940,-2072,248,-80,-48,17,-6
11945,-2056,232,-96,-49,18,-8
11950,-2072,240,-104,-47,16,-6
11955,-2056,248,-88,-48,17,-5
11960,-2056,232,-96,-47,15,-5
11965,-2080,208,-72,-48,15,-5
11970,-2080,256,-72,-49,14,-5
11975,-2056,192,-80,-49,13,-5
11980,-2104,240,-72,-51,15,-6
11985,-2048,240,-80,-50,14,-6
11990,-2088,256,-88,-51,13,-5
11995,-2056,240,-112,-52,14,-5
12000,-2072,232,-120,-52,14,-5
12005,-2064,232,-72,-53,15,-6
12010,-2056,256,-96,-55,14,-6
12015,-2088,224,-104,-54,14,-6
12020,-2080,256,-80,-54,13,-5
12025,-2064,232,-104,-55,15,-3
12030,-2064,216,-96,-54,15,-6
12035,-2080,232,-80,-53,16,-4
12040,-2088,248,-88,-54,15,-6
12045,-2064,232,-80,-52,18,-6
12050,-2064,240,-80,-53,17,-5
12055,-2080,224,-104,-53,17,-5
12060,-2064,224,-64,-53,17,-3
12065,-2056,232,-96,-52,17,-4
12070,-2088,216,-96,-50,18,-5
12075,-2064,248,-80,-50,18,-5
12080,-2080,248,-88,-49,18,-7
12085,-2064,216,-96,-48,17,-6
12090,-2096,256,-88,-48,18,-5
12095,-2080,240,-96,-46,17,-5
12100,-2064,224,-80,-47,16,-5
12105,-2088,256,-112,-45,17,-5
12110,-2072,224,-72,-44,18,-4
12115,-2064,224,-104,-45,20,-4
12120,-2072,224,-112,-43,19,-5
12125,-2064,248,-80,-44,18,-7
12130,-2088,240,-96,-43,19,-7
12135,-2080,224,-88,-45,21,-7
12140,-2072,232,-112,-44,21,-6
12145,-2080,248,-80,-44,22,-8
12150,-2080,248,-104,-45,22,-7
12155,-2072,248,-88,-45,22,-7
12160,-2056,272,-88,-46,21,-7
12165,-2072,216,-104,-45,21,-7
12170,-2056,240,-128,-45,21,-6
12175,-2064,248,-88,-46,23,-6
12180,-2064,232,-88,-47,21,-6
12185,-2072,232,-120,-47,22,-5
12190,-2056,256,-96,-47,22,-5
12195,-2072,248,-88,-47,23,-5
12200,-2072,232,-96,-48,22,-6
12205,-2088,256,-96,-48,21,-5
12210,-2072,232,-104,-47,23,-5
12215,-2056,224,-112,-48,22,-5
12220,-2064,256,-80,-47,21,-3
12225,-2072,224,-136,-47,20,-4
12230,-2080,216,-72,-46,20,-4
12235,-2104,248,-64,-47,20,-3
12240,-2096,224,-56,-46,21,-4
12245,-2064,216,-88,-46,19,-6
12250,-2080,240,-80,-46,20,-5
12255,-2072,232,-120,-48,19,-5
12260,-2072,240,-104,-47,19,-5
12265,-2040,232,-96,-46,18,-5
12270,-2096,256,-96,-46,18,-6
12275,-2072,248,-136,-46,20,-5
12280,-2072,232,-88,-46,20,-4
12285,-2064,256,-128,-46,18,-4
12290,-2080,232,-96,-47,18,-4
12295,-2072,248,-112,-47,19,-5
12300,-2072,248,-112,-48,20,-5
12305,-2080,264,-88,-48,18,-5
12310,-2072,240,-112,-48,20,-4
12315,-2072,232,-144,-48,19,-5
12320,-2072,256,-80,-48,20,-5
12325,-2064,240,-120,-48,20,-5
12330,-2088,240,-96,-48,19,-5
12335,-2088,256,-112,-46,19,-6
12340,-2088,240,-88,-47,20,-5
12345,-2080,240,-104,-48,19,-6
12350,-2088,248,-80,-47,18,-5
12355,-2080,240,-112,-48,19,-5
12360,-2048,232,-88,-47,19,-8
12365,-2080,240,-96,-46,19,-5
12370,-2056,248,-72,-45,18,-6
12375,-2080,232,-72,-46,19,-6
12380,-2064,248,-120,-44,18,-7
12385,-2088,232,-88,-44,17,-5
12390,-2056,232,-88,-44,18,-5
12395,-2064,224,-96,-43,18,-5
12400,-2112,248,-96,-44,18,-7
12405,-2064,240,-88,-44,18,-5
12410,-2056,224,-120,-43,19,-5
12415,-2064,248,-104,-42,17,-6
12420,-2072,248,-120,-43,18,-7
12425,-2088,256,-88,-44,20,-8
12430,-2056,248,-96,-43,19,-7
12435,-2096,232,-80,-44,20,-7
12440,-2064,240,-80,-44,18,-6
12445,-2088,200,-144,-44,19,-5
12450,-2072,240,-88,-45,20,-6
12455,-2088,216,-112,-44,20,-6
12460,-2072,224,-72,-44,22,-6
12465,-2072,240,-112,-44,23,-7
12470,-2064,232,-96,-44,23,-7
12475,-2080,248,-96,-45,23,-10
12480,-2056,248,-72,-45,24,-9
12485,-2056,240,-96,-46,23,-10
12490,-2080,248,-88,-43,24,-11
12495,-2056,224,-56,-43,25,-11
12500,-2088,232,-80,-42,26,-10
12505,-2088,232,-96,-40,25,-8
12510,-2072,232,-80,-40,25,-7
12515,-2080,200,-96,-38,24,-5
12520,-2064,208,-96,-37,24,-5
12525,-2064,208,-120,-34,23,-4
12530,-2040,224,-64,-34,22,-3
12535,-2064,232,-120,-34,21,-3
12540,-2056,256,-56,-32,20,-2
12545,-2072,240,-120,-31,17,-1
12550,-2056,232,-96,-34,14,-2
12555,-2064,224,-112,-34,12,0
12560,-2072,240,-64,-35,11,0
12565,-2080,264,-104,-39,13,-1
12570,-2088,256,-80,-40,12,0
12575,-2088,248,-104,-43,11,0
12580,-2080,232,-120,-44,13,0
12585,-2064,248,-104,-48,12,-1
12590,-2080,232,-120,-47,12,-1
12595,-2080,248,-72,-50,12,-2
12600,-2072,240,-88,-51,13,-2
12605,-2088,192,-48,-51,14,-2
12610,-2072,232,-88,-51,13,-1
12615,-2072,224,-128,-50,13,-1
12620,-2064,256,-88,-50,13,-2
12625,-2080,216,-88,-51,14,0
12630,-2064,216,-88,-50,15,-1
12635,-2072,256,-56,-49,16,-1
12640,-2080,240,-104,-48,20,-2
12645,-2064,224,-80,-49,21,-2
12650,-2080,256,-96,-49,21,-1
12655,-2064,232,-120,-47,21,-2
12660,-2048,256,-112,-45,21,-3
12665,-2064,224,-96,-44,21,-3
12670,-2080,240,-96,-42,20,-3
12675,-2080,232,-104,-41,18,-3
12680,-2080,224,-96,-40,19,-3
12685,-2088,232,-88,-39,17,-4
12690,-2056,224,-96,-39,16,-5
12695,-2064,232,-80,-38,16,-5
12700,-2056,248,-96,-39,15,-6
12705,-2056,232,-96,-41,16,-6
12710,-2120,272,-104,-41,17,-6
12715,-2080,216,-96,-42,17,-7
12720,-2072,240,-88,-43,17,-6
12725,-2040,216,-64,-45,17,-6
12730,-2056,248,-128,-45,17,-6
12735,-2072,248,-96,-46,18,-6
12740,-2080,224,-72,-45,18,-8
12745,-2088,216,-96,-46,18,-8
12750,-2080,232,-144,-48,18,-8
12755,-2064,232,-80,-47,18,-8
12760,-2072,240,-120,-47,17,-7
12765,-2096,232,-80,-48,18,-8
12770,-2064,224,-80,-48,17,-8
12775,-2080,232,-96,-49,18,-8
12780,-2088,248,-96,-51,16,-8
12785,-2056,240,-72,-49,18,-9
12790,-2080,240,-96,-48,18,-8
12795,-2080,224,-72,-48,17,-8
12800,-2064,240,-88,-48,18,-8
12805,-2080,224,-112,-47,17,-7
12810,-2072,240,-72,-48,17,-6
12815,-2072,232,-152,-49,16,-5
12820,-2056,248,-112,-49,15,-4
12825,-2056,216,-96,-48,14,-4
12830,-2104,248,-96,-49,13,-4
12835,-2080,248,-120,-51,14,-4
12840,-2056,200,-104,-51,14,-6
12845,-2072,224,-104,-51,14,-4
12850,-2072,264,-120,-52,15,-5
12855,-2072,224,-104,-53,15,-6
12860,-2048,216,-80,-54,16,-7
12865,-2056,208,-72,-54,15,-7
12870,-2096,248,-96,-55,15,-7
12875,-2064,248,-80,-57,16,-5
12880,-2072,208,-112,-56,18,-5
12885,-2088,224,-88,-57,20,-6
12890,-2064,232,-88,-57,20,-6
12895,-2072,248,-64,-56,21,-6
12900,-2072,232,-96,-55,22,-6
12905,-2088,240,-112,-55,23,-6
12910,-2048,240,-112,-54,23,-6
12915,-2072,240,-120,-53,23,-5
12920,-2064,248,-112,-51,22,-5
12925,-2064,240,-104,-51,22,-4
12930,-2064,256,-104,-51,22,-4
12935,-2056,216,-128,-50,23,-4
12940,-2072,232,-104,-48,22,-5
12945,-2056,216,-64,-47,21,-5
12950,-2064,224,-88,-46,21,-4
12955,-2080,248,-120,-44,19,-5
12960,-2080,208,-120,-44,19,-5
12965,-2088,240,-112,-42,19,-5
12970,-2088,208,-88,-42,19,-5
12975,-2096,216,-112,-42,19,-5
12980,-2072,224,-80,-41,18,-7
12985,-2056,224,-80,-41,20,-7
12990,-2064,224,-112,-43,20,-7
12995,-2096,264,-112,-42,20,-8
13000,-2088,240,-112,-44,20,-6
13005,-2064,248,-120,-43,20,-7
13010,-2064,248,-96,-46,21,-7
13015,-2056,240,-80,-44,21,-7
13020,-2056,216,-72,-44,21,-7
13025,-2064,248,-104,-44,20,-8
13030,-2064,240,-88,-45,19,-7
13035,-2064,256,-104,-46,20,-7
13040,-2080,248,-96,-47,21,-5
13045,-2088,240,-80,-47,20,-4
13050,-2080,256,-112,-47,20,-6
13055,-2088,232,-96,-46,20,-6
13060,-2072,224,-96,-48,20,-5
13065,-2072,240,-88,-48,20,-5
13070,-2048,248,-88,-46,20,-4
13075,-2072,232,-112,-47,20,-5
13080,-2072,216,-104,-47,19,-5
13085,-2080,256,-80,-47,19,-5
13090,-2064,208,-104,-45,19,-5
13095,-2088,248,-120,-46,19,-3
13100,-2072,224,-112,-44,19,-3
13105,-2080,240,-104,-44,17,-3
13110,-2064,224,-104,-43,16,-4
13115,-2080,248,-80,-43,16,-3
13120,-2064,240,-96,-42,15,-3
13125,-2056,232,-64,-42,14,-4
13130,-2040,216,-96,-43,13,-3
13135,-2056,168,-80,-41,13,-4
13140,-2064,256,-72,-40,12,-4
13145,-2080,248,-96,-41,12,-3
13150,-2088,240,-96,-41,11,-4
13155,-2072,248,-104,-42,12,-6
13160,-2072,232,-88,-43,13,-6
13165,-2080,248,-104,-44,13,-6
13170,-2072,264,-120,-46,14,-7
13175,-2088,264,-80,-47,15,-8
13180,-2088,240,-112,-48,15,-7
13185,-2080,240,-64,-47,15,-9
13190,-2072,272,-56,-47,16,-8
13195,-2096,232,-104,-46,17,-9
13200,-2072,240,-88,-46,19,-8
13205,-2072,240,-96,-47,19,-9
13210,-2088,248,-104,-45,19,-8
13215,-2080,224,-104,-46,20,-7
13220,-2096,248,-112,-45,20,-8
13225,-2072,240,-104,-43,22,-8
13230,-2104,248,-104,-43,22,-7
13235,-2064,232,-72,-43,23,-8
13240,-2080,240,-104,-42,24,-8
13245,-2064,248,-48,-42,24,-8
13250,-2064,256,-72,-43,25,-8
13255,-2072,224,-104,-41,25,-9
13260,-2064,240,-80,-43,24,-7
13265,-2072,232,-112,-42,25,-8
13270,-2088,240,-64,-42,24,-5
13275,-2056,232,-80,-40,25,-5
13280,-2056,232,-96,-41,27,-8
13285,-2040,232,-96,-42,27,-7
13290,-2080,248,-80,-39,25,-7
13295,-2080,240,-128,-41,25,-8
13300,-2072,232,-112,-40,24,-8
13305,-2072,224,-96,-39,25,-9
13310,-2072,240,-120,-38,24,-10
13315,-2080,248,-104,-36,24,-9
13320,-2072,208,-136,-37,24,-8
13325,-2072,216,-96,-36,22,-7
13330,-2064,240,-96,-34,22,-6
13335,-2104,224,-96,-33,20,-4
13340,-2064,216,-80,-34,19,-5
13345,-2080,240,-112,-33,18,-4
13350,-2088,232,-120,-32,18,-4
13355,-2064,232,-112,-32,15,-4
13360,-2064,232,-96,-30,14,-3
13365,-2080,216,-80,-31,14,-5
13370,-2056,232,-96,-31,13,-3
13375,-2072,216,-120,-32,11,-3
13380,-2072,248,-136,-35,9,-1
13385,-2072,232,-128,-36,12,-1
13390,-2080,248,-104,-39,10,-2
13395,-2080,248,-112,-41,10,0
13400,-2056,200,-104,-43,10,0
13405,-2064,312,-104,-45,9,0
13410,-2088,232,-128,-47,10,0
13415,-2072,240,-80,-50,9,-1
13420,-2056,232,-104,-51,9,-3
13425,-2104,240,-104,-51,9,-2
13430,-2072,232,-72,-52,6,-2
13435,-2072,248,-96,-53,8,-1
13440,-2080,248,-64,-54,7,-1
13445,-2056,224,-112,-51,9,0
13450,-2104,240,-96,-51,10,-2
13455,-2048,240,-40,-48,12,-1
13460,-2088,232,-112,-49,15,-1
13465,-2064,224,-104,-48,17,-2
13470,-2064,216,-96,-47,17,-2
13475,-2080,240,-96,-45,19,-2
13480,-2072,232,-88,-45,19,-3
13485,-2080,240,-120,-43,18,-3
13490,-2080,232,-72,-42,18,-2
13495,-2056,240,-88,-41,17,-3
13500,-2072,232,-120,-42,16,-4
13505,-2080,224,-88,-42,17,-4
13510,-2072,216,-64,-42,17,-5
13515,-2072,232,-80,-41,17,-6
13520,-2048,232,-96,-40,17,-6
13525,-2088,248,-104,-42,19,-7
13530,-2064,224,-72,-43,19,-7
13535,-2032,216,-120,-43,18,-8
13540,-2072,248,-112,-44,20,-8
13545,-2072,264,-64,-44,21,-7
13550,-2064,224,-96,-48,23,-8
13555,-2072,264,-96,-47,23,-7
13560,-2072,232,-80,-48,22,-7
13565,-2096,248,-128,-49,22,-6
13570,-2064,248,-80,-49,22,-5
13575,-2096,256,-96,-49,21,-6
13580,-2072,240,-88,-51,22,-6
13585,-2088,256,-112,-49,21,-6
13590,-2088,264,-72,-48,21,-7
13595,-2064,264,-72,-49,21,-6
13600,-2072,232,-104,-50,21,-8
13605,-2080,216,-104,-51,21,-8
13610,-2064,240,-96,-49,20,-8
13615,-2048,160,-144,-48,21,-8
13620,-2056,208,-96,-49,21,-8
13625,-2088,232,-136,-47,20,-8
13630,-2080,232,-112,-48,18,-9
13635,-2064,232,-120,-47,18,-8
13640,-2104,256,-128,-49,17,-6
13645,-2072,240,-104,-49,16,-6
13650,-2072,248,-104,-51,17,-6
13655,-2072,232,-104,-52,16,-7
13660,-2080,248,-96,-53,15,-6
13665,-2064,240,-96,-54,15,-5
13670,-2048,232,-64,-56,17,-5
13675,-2088,240,-72,-57,15,-6
13680,-2088,256,-104,-58,15,-3
13685,-2088,264,-120,-62,16,-5
13690,-2072,232,-72,-64,17,-6
13695,-2064,232,-104,-64,17,-4
13700,-2064,232,-88,-62,18,-4
13705,-2064,256,-104,-62,17,-4
13710,-2080,240,-96,-62,18,-5
13715,-2064,232,-120,-59,19,-5
13720,-2072,232,-104,-58,19,-4
13725,-2072,232,-72,-58,22,-5
13730,-2088,224,-96,-56,21,-4
13735,-2056,224,-112,-55,22,-4
13740,-2080,232,-128,-53,22,-4
13745,-2080,248,-80,-52,23,-5
13750,-2080,256,-96,-51,24,-4
13755,-2080,232,-96,-51,26,-3
13760,-2088,232,-104,-49,25,-3
13765,-2088,240,-112,-47,25,-3
13770,-2096,248,-96,-47,27,-4
13775,-2096,232,-48,-45,26,-4
13780,-2064,224,-80,-44,25,-5
13785,-2072,248,-104,-42,25,-5
13790,-2072,256,-128,-42,26,-6
13795,-2064,256,-80,-42,27,-7
13800,-2080,224,-80,-42,27,-6
13805,-2064,216,-96,-42,27,-7
13810,-2064,240,-128,-39,26,-7
13815,-2088,216,-96,-41,27,-8
13820,-2072,240,-112,-40,27,-8
13825,-2088,248,-104,-39,28,-8
13830,-2064,208,-136,-40,27,-7
13835,-2040,224,-96,-40,27,-7
13840,-2072,256,-96,-42,26,-6
13845,-2080,224,-88,-40,27,-6
13850,-2064,240,-128,-39,27,-6
13855,-2064,248,-104,-38,27,-5
13860,-2080,248,-88,-38,27,-4
13865,-2088,216,-96,-39,27,-5
13870,-2080,248,-136,-38,24,-4
13875,-2072,248,-120,-39,23,-4
13880,-2080,232,-88,-40,22,-4
13885,-2080,288,-80,-39,21,-3
13890,-2080,240,-104,-40,21,-3
13895,-2072,232,-96,-39,20,-4
13900,-2064,240,-120,-42,19,-3
13905,-2072,248,-96,-40,18,-4
13910,-2080,240,-80,-41,19,-4
13915,-2072,256,-72,-40,19,-3
13920,-2072,240,-112,-40,18,-6
13925,-2064,232,-88,-41,18,-4
13930,-2056,200,-72,-43,18,-3
13935,-2112,216,-160,-42,17,-4
13940,-2064,248,-104,-43,17,-4
13945,-2088,208,-104,-45,18,-4
13950,-2080,200,-104,-46,18,-3
13955,-2056,232,-112,-46,18,-2
13960,-2048,224,-128,-45,20,-3
13965,-2072,240,-88,-45,19,-3
13970,-2080,248,-96,-47,19,-4
13975,-2056,208,-144,-46,18,-4
13980,-2072,216,-112,-46,18,-2
13985,-2064,232,-136,-45,19,-3
13990,-2072,256,-48,-43,19,-4
13995,-2072,224,-120,-45,16,-3
14000,-2080,240,-112,-45,15,-3
14005,-2096,264,-104,-44,15,-4
14010,-2064,232,-88,-44,16,-4
14015,-2080,240,-104,-43,15,-4
14020,-2088,224,-120,-44,15,-5
14025,-2064,232,-88,-41,16,-4
14030,-2072,240,-120,-42,18,-4
14035,-2056,240,-112,-43,17,-5
14040,-2056,224,-136,-45,17,-6
14045,-2104,216,-120,-47,19,-6
14050,-2072,224,-88,-46,20,-7
14055,-2072,240,-112,-48,21,-7
14060,-2072,240,-112,-49,23,-8
14065,-2072,240,-88,-48,24,-7
14070,-2080,232,-112,-47,23,-8
14075,-2064,232,-88,-48,24,-8
14080,-2072,224,-96,-48,24,-6
14085,-2080,232,-112,-46,23,-7
14090,-2072,240,-112,-46,25,-7
14095,-2072,256,-88,-45,24,-7
14100,-2080,240,-80,-44,25,-7
14105,-2064,240,-104,-43,25,-7
14110,-2072,256,-120,-43,25,-8
14115,-2072,248,-104,-41,26,-8
14120,-2080,232,-128,-41,27,-10
14125,-2072,232,-120,-39,26,-9
14130,-2080,248,-88,-37,26,-10
14135,-2048,224,-104,-40,27,-9
14140,-2056,240,-80,-39,26,-9
14145,-2064,240,-120,-39,26,-8
14150,-2088,272,-80,-40,25,-6
14155,-2088,248,-112,-39,24,-6
14160,-2048,208,-112,-39,23,-4
14165,-2064,248,-104,-36,22,-4
14170,-2056,240,-104,-38,21,-3
14175,-2064,216,-88,-37,20,-3
14180,-2080,240,-112,-38,19,-1
14185,-2056,224,-104,-39,18,-1
14190,-2072,240,-112,-39,16,-1
14195,-2072,264,-80,-40,16,-1
14200,-2088,208,-136,-41,15,-1
14205,-2096,256,-144,-42,14,-1
14210,-2080,248,-144,-43,14,0
14215,-2088,232,-104,-44,14,0
14220,-2088,248,-112,-45,16,-1
14225,-2080,256,-104,-48,17,-1
14230,-2080,208,-120,-49,18,-1
14235,-2096,232,-104,-51,17,-2
14240,-2080,208,-120,-50,19,-2
14245,-2088,232,-88,-50,18,-1
14250,-2080,248,-104,-50,17,-1
14255,-2096,280,-104,-49,17,0
14260,-2080,256,-112,-49,17,1
14265,-2072,232,-104,-49,16,1
14270,-2072,256,-80,-49,17,1
14275,-2056,232,-104,-49,18,1
14280,-2064,240,-80,-48,21,2
14285,-2064,232,-80,-46,22,1
14290,-2072,248,-80,-44,23,1
14295,-2064,240,-88,-42,23,0
14300,-2080,240,-88,-42,25,0
14305,-2048,216,-96,-42,26,-1
14310,-2104,256,-72,-39,26,-2
14315,-2064,224,-96,-39,25,-3
14320,-2088,240,-120,-38,26,-2
14325,-2072,232,-96,-38,25,-2
14330,-2056,240,-120,-37,23,-3
14335,-2064,240,-80,-37,26,-3
14340,-2064,248,-104,-38,24,-5
14345,-2048,240,-72,-40,25,-5
14350,-2080,216,-104,-38,24,-5
14355,-2064,256,-128,-39,25,-5
14360,-2064,240,-96,-39,26,-6
14365,-2056,248,-120,-41,27,-7
14370,-2080,240,-104,-43,26,-9
14375,-2048,232,-120,-45,25,-9
14380,-2080,240,-96,-46,24,-9
14385,-2072,232,-128,-47,26,-9
14390,-2064,224,-104,-47,26,-9
14395,-2056,224,-104,-49,25,-8
14400,-2072,232,-112,-48,25,-7
14405,-2088,232,-104,-50,23,-7
14410,-2088,280,-104,-50,23,-6
14415,-2104,296,-136,-49,23,-7
14420,-2048,232,-96,-50,24,-8
14425,-2088,256,-128,-50,24,-9
14430,-2064,232,-88,-49,23,-8
14435,-2072,240,-80,-48,23,-8
14440,-2072,224,-96,-49,22,-8
14445,-2088,232,-144,-48,23,-9
14450,-2056,216,-112,-50,22,-8
14455,-2104,232,-80,-49,23,-9
14460,-2088,216,-112,-49,23,-9
14465,-2080,240,-96,-50,22,-8
14470,-2072,216,-64,-50,20,-8
14475,-2072,248,-128,-51,21,-8
14480,-2080,256,-104,-51,21,-8
14485,-2088,264,-104,-53,21,-8
14490,-2096,256,-136,-53,21,-8
14495,-2080,216,-144,-53,25,-8
14500,-2064,224,-112,-53,23,-8
14505,-2096,224,-96,-55,23,-8
14510,-2080,224,-112,-54,25,-6
14515,-2080,240,-120,-53,26,-6
14520,-2064,224,-88,-52,27,-6
14525,-2056,232,-88,-52,28,-6
14530,-2088,256,-96,-52,29,-7
14535,-2072,232,-120,-50,31,-6
14540,-2064,216,-88,-50,31,-5
14545,-2064,240,-104,-50,32,-5
14550,-2072,224,-88,-50,33,-6
14555,-2072,240,-136,-48,33,-5
14560,-2080,248,-128,-50,33,-4
14565,-2072,224,-96,-47,32,-5
14570,-2048,200,-72,-48,31,-3
14575,-2056,184,-112,-47,30,-4
14580,-2056,232,-128,-44,30,-4
14585,-2064,240,-120,-43,28,-3
14590,-2064,232,-144,-44,27,-2
14595,-2048,216,-128,-41,25,-3
14600,-2056,248,-104,-40,23,-2
14605,-2064,240,-128,-39,19,-2
14610,-2064,256,-88,-39,16,-2
14615,-2072,256,-104,-40,13,-2
14620,-2088,240,-120,-38,12,-1
14625,-2064,232,-144,-38,8,-2
14630,-2056,280,-120,-40,7,-2
14635,-2048,240,-136,-40,4,-3
14640,-2072,248,-120,-41,4,-3
14645,-2080,240,-96,-42,4,-4
14650,-2064,224,-104,-43,3,-4
14655,-2080,216,-120,-44,2,-3
14660,-2096,248,-96,-47,3,-3
14665,-2080,240,-144,-48,3,-3
14670,-2080,224,-104,-47,3,-1
14675,-2048,208,-136,-48,3,-1
14680,-2056,216,-104,-50,2,-1
14685,-2064,224,-64,-49,3,0
14690,-2080,216,-120,-47,2,1
14695,-2080,248,-120,-45,1,3
14700,-2064,224,-112,-44,1,5
14705,-2080,232,-112,-44,3,5
14710,-2072,248,-88,-46,2,5
14715,-2088,224,-144,-46,1,6
14720,-2072,232,-104,-46,-1,7
14725,-2112,232,-112,-45,-2,6
14730,-2056,208,-104,-43,-4,8
14735,-2032,240,-48,-43,-6,9
14740,-2064,216,-112,-42,-11,10
14745,-2088,232,-128,-42,-12,8
14750,-2088,232,-120,-39,-14,12
14755,-2072,240,-120,-39,-14,11
14760,-2072,256,-104,-37,-17,12
14765,-2072,232,-128,-36,-18,13
14770,-2064,248,-128,-35,-22,13
14775,-2080,240,-120,-35,-25,12
14780,-2056,240,-112,-33,-28,12
14785,-2048,256,-112,-33,-29,12
14790,-2072,240,-88,-34,-32,12
14795,-2072,240,-104,-33,-36,11
14800,-2096,264,-136,-34,-38,10
14805,-2072,248,-88,-33,-39,8
14810,-2072,264,-72,-36,-40,8
14815,-2064,232,-72,-38,-40,11
14820,-2080,240,-112,-41,-40,9
14825,-2064,272,-104,-43,-41,9
14830,-2064,272,-104,-45,-37,10
14835,-2072,232,-96,-45,-36,8
14840,-2088,248,-80,-46,-32,8
14845,-2048,216,-120,-46,-29,6
14850,-2080,232,-96,-48,-25,8
14855,-2088,224,-112,-48,-22,8
14860,-2080,232,-96,-48,-17,8
14865,-2056,240,-96,-49,-15,8
14870,-2072,216,-96,-49,-12,9
14875,-2064,248,-72,-49,-7,7
14880,-2048,232,-56,-46,-4,6
14885,-2096,232,-80,-46,-1,8
14890,-2072,232,-96,-45,1,8
14895,-2056,208,-104,-44,3,8
14900,-2056,232,-104,-44,6,7
14905,-2080,248,-56,-44,7,9
14910,-2072,232,-96,-43,7,8
14915,-2048,232,-88,-40,8,8
14920,-2064,232,-80,-40,9,9
14925,-2096,248,-72,-38,8,8
14930,-2064,248,-104,-37,8,8
14935,-2056,240,-96,-38,8,7
14940,-2064,256,-88,-38,7,7
14945,-2056,248,-72,-36,8,6
14950,-2072,200,-64,-37,7,7
14955,-2072,248,-80,-38,9,5
14960,-2088,248,-112,-37,10,3
14965,-2080,272,-72,-37,13,3
14970,-2096,240,-88,-36,12,2
14975,-2064,224,-88,-36,14,1
14980,-2056,256,-72,-37,16,0
14985,-2056,248,-104,-40,17,1
14990,-2072,240,-120,-38,16,1
14995,-2080,256,-120,-38,14,3
