timestamp,accel_x,accel_y,accel_z,gyro_x,gyro_y,gyro_z
0,64,-1976,216,70,5,-5
5,24,-1968,200,70,4,-5
10,48,-1952,256,67,4,-6
15,56,-1944,192,65,4,-5
20,96,-1960,168,63,4,-6
25,96,-1968,216,60,4,-5
30,88,-1960,200,57,3,-6
35,32,-1960,232,54,3,-7
40,72,-1976,216,53,4,-8
45,56,-1984,200,51,6,-8
50,64,-1976,240,47,9,-8
55,56,-1960,200,44,11,-11
60,48,-1960,280,41,15,-10
65,56,-1992,240,38,19,-12
70,48,-1952,216,34,22,-12
75,72,-1992,208,31,23,-12
80,40,-1952,248,25,23,-11
85,56,-1968,240,23,22,-11
90,40,-1952,208,18,21,-12
95,64,-1960,216,13,20,-11
100,32,-1968,248,9,19,-12
105,48,-1968,208,6,18,-14
110,56,-1920,232,7,19,-18
115,80,-1944,232,9,20,-20
120,88,-1968,224,12,23,-24
125,72,-1936,176,13,27,-24
130,72,-1976,208,7,30,-24
135,104,-1984,224,-5,31,-22
140,112,-1976,224,-17,33,-22
145,160,-1968,216,-26,34,-18
150,128,-1976,224,-28,35,-20
155,152,-1952,232,-21,35,-23
160,152,-1968,216,-11,38,-23
165,136,-1960,240,-3,40,-25
170,136,-1992,176,0,45,-25
175,160,-1992,208,-3,47,-26
180,160,-2008,136,-10,53,-26
185,224,-2008,208,-20,59,-27
190,168,-2016,160,-31,67,-26
195,160,-2016,192,-42,70,-25
200,152,-2000,184,-53,71,-24
205,168,-2024,200,-60,74,-23
210,168,-2016,176,-64,74,-25
215,176,-2040,224,-64,76,-23
220,224,-2048,232,-62,77,-26
225,232,-2032,208,-52,79,-33
230,184,-2016,240,-36,80,-43
235,248,-2048,240,-19,81,-52
240,192,-2024,216,-6,78,-63
245,224,-2048,248,2,74,-73
250,248,-2008,256,8,70,-84
255,256,-2024,288,15,65,-90
260,232,-2000,280,25,63,-98
265,224,-1968,280,39,60,-98
270,248,-1936,288,55,62,-98
275,272,-1936,336,77,65,-94
280,264,-1912,240,99,69,-86
285,280,-1912,296,119,72,-76
290,232,-1880,232,134,71,-66
295,280,-1888,248,137,66,-57
300,248,-1840,280,130,59,-46
305,208,-1872,248,116,54,-37
310,256,-1872,288,100,47,-25
315,200,-1856,288,82,40,-16
320,224,-1888,344,68,36,-10
325,232,-1904,280,59,31,-4
330,208,-1888,296,53,27,0
335,232,-1912,296,47,24,1
340,216,-1944,312,42,22,0
345,256,-1968,288,37,21,-1
350,232,-1952,288,31,18,-4
355,240,-1968,304,28,16,-6
360,240,-1968,272,27,13,-8
365,208,-1976,288,27,12,-7
370,248,-1976,240,27,11,-8
375,256,-1992,280,28,10,-7
380,264,-1984,264,30,11,-5
385,256,-1952,272,35,14,0
390,312,-1952,272,39,15,4
395,264,-1952,336,47,15,11
400,280,-1960,256,50,15,19
405,296,-1960,272,54,15,25
410,296,-1936,240,56,17,29
415,280,-1904,240,55,20,35
420,288,-1912,232,52,20,41
425,280,-1888,192,48,20,44
430,248,-1896,224,43,20,44
435,248,-1872,240,37,19,46
440,272,-1880,240,30,18,49
445,232,-1896,208,23,14,50
450,240,-1928,200,18,11,47
455,216,-1888,184,9,8,48
460,200,-1904,216,4,3,52
465,176,-1904,168,-1,-2,53
470,168,-1888,200,-3,-7,55
475,152,-1928,200,-3,-10,55
480,152,-1936,168,-1,-13,57
485,144,-1928,192,2,-15,57
490,152,-1984,192,2,-15,56
495,160,-1976,184,3,-12,55
500,176,-1984,184,3,-7,54
505,176,-1976,192,2,-4,53
510,200,-2000,168,0,1,52
515,216,-2024,200,-1,6,51
520,240,-2040,152,-4,13,52
525,240,-2040,160,-7,18,56
530,256,-2048,152,-7,23,64
535,240,-2072,168,-6,29,70
540,248,-2080,128,-2,33,78
545,240,-2048,128,4,36,86
550,224,-2056,88,12,39,94
555,200,-2048,112,19,38,99
560,176,-2008,64,24,35,105
565,152,-2000,120,27,31,112
570,128,-1992,104,29,25,121
575,64,-1984,80,30,19,127
580,16,-1952,112,25,15,134
585,0,-1920,160,22,10,136
590,-88,-1936,208,22,1,142
595,-112,-1904,168,25,-6,149
600,-136,-1888,208,28,-12,156
605,-96,-1928,208,29,-21,157
610,-136,-1912,184,26,-25,158
615,-192,-1872,240,20,-30,158
620,-168,-1888,264,11,-38,162
625,-192,-1880,296,2,-50,164
630,-224,-1880,280,-3,-62,166
635,-224,-1904,352,-3,-69,172
640,-232,-1888,368,-1,-73,172
645,-264,-1904,408,-5,-69,171
650,-248,-1944,432,-5,-71,174
655,-248,-1984,424,-9,-70,177
660,-240,-1976,424,-17,-74,179
665,-272,-2024,416,-34,-82,179
670,-280,-2008,392,-50,-92,190
675,-264,-2000,416,-59,-105,208
680,-312,-2000,424,-66,-116,222
685,-328,-2016,448,-60,-125,232
690,-408,-2024,424,-46,-129,241
695,-424,-2040,472,-31,-133,250
700,-424,-2056,472,-17,-136,260
705,-464,-2088,416,-2,-139,276
710,-496,-2080,376,6,-140,289
715,-464,-2080,384,4,-145,289
720,-464,-2112,392,-7,-152,284
725,-392,-2088,360,-17,-157,282
730,-368,-2080,344,-19,-166,275
735,-280,-2080,352,-12,-175,271
740,-264,-2016,344,0,-180,253
745,-208,-2016,352,15,-182,234
750,-160,-1952,296,40,-182,218
755,-144,-1936,320,63,-180,205
760,-80,-1944,320,85,-173,193
765,-72,-1896,328,104,-162,181
770,-16,-1928,328,118,-148,169
775,-8,-1904,240,129,-130,158
780,24,-1888,328,140,-111,143
785,24,-1896,344,152,-91,130
790,72,-1888,384,163,-72,120
795,8,-1904,320,162,-53,114
800,24,-1904,288,156,-37,110
805,8,-1896,296,150,-22,106
810,0,-1880,344,146,-8,106
815,40,-1896,320,146,5,102
820,0,-1912,344,153,22,101
825,-16,-1872,352,162,35,102
830,-56,-1896,376,169,46,99
835,-56,-1824,320,171,54,86
840,-80,-1808,352,168,68,74
845,-72,-1832,360,164,82,65
850,-96,-1824,352,158,96,57
855,-144,-1808,328,154,108,50
860,-136,-1832,344,143,117,42
865,-192,-1856,336,133,121,31
870,-160,-1832,320,121,123,23
875,-184,-1864,344,112,122,16
880,-184,-1904,320,104,120,11
885,-280,-1912,304,97,121,6
890,-224,-1880,312,92,119,5
895,-224,-1912,368,86,119,5
900,-256,-1904,312,80,121,6
905,-232,-1904,368,73,123,9
910,-224,-1952,360,68,124,9
915,-216,-1944,400,64,129,14
920,-240,-1960,392,64,133,21
925,-264,-1968,352,66,138,26
930,-240,-1920,336,66,140,30
935,-208,-1992,344,70,146,37
940,-224,-1960,384,76,149,44
945,-208,-1936,360,79,146,46
950,-192,-1936,368,81,144,53
955,-184,-1928,368,85,142,54
960,-168,-1912,376,91,140,53
965,-152,-1920,400,101,141,51
970,-144,-1912,352,106,146,49
975,-128,-1904,368,104,149,42
980,-104,-1912,408,97,150,36
985,-128,-1920,376,89,149,32
990,-120,-1936,344,77,148,25
995,-112,-1920,384,63,149,15
1000,-120,-1928,392,50,154,7
1005,-128,-1928,336,37,163,3
1010,-136,-1936,384,30,173,-4
1015,-160,-1920,368,22,183,-6
1020,-128,-1912,360,17,192,-7
1025,-128,-1920,384,18,206,-8
1030,-136,-1904,392,26,223,-8
1035,-112,-1888,384,35,242,-12
1040,-112,-1864,352,45,259,-16
1045,-48,-1880,376,53,275,-20
1050,-56,-1896,408,60,286,-25
1055,-64,-1880,368,63,292,-33
1060,-64,-1856,400,68,298,-39
1065,-16,-1848,376,67,301,-44
1070,-64,-1832,384,64,301,-48
1075,-80,-1824,352,60,301,-54
1080,-104,-1856,360,52,302,-57
1085,-104,-1832,392,42,304,-61
1090,-112,-1856,432,33,307,-68
1095,-128,-1872,464,23,309,-71
1100,-144,-1928,400,14,312,-76
1105,-184,-1912,432,5,310,-80
1110,-184,-1928,424,-5,309,-79
1115,-216,-1952,448,-14,304,-79
1120,-264,-1952,448,-21,297,-80
1125,-264,-1952,472,-24,289,-80
1130,-288,-1936,440,-27,280,-83
1135,-256,-1952,472,-29,270,-86
1140,-280,-1936,432,-28,261,-89
1145,-264,-1920,440,-20,255,-95
1150,-232,-1920,480,-7,253,-100
1155,-272,-1960,472,4,253,-106
1160,-224,-1936,464,9,254,-109
1165,-152,-1952,440,8,256,-115
1170,-152,-1936,488,3,262,-119
1175,-80,-1984,496,-6,270,-120
1180,-88,-1976,512,-16,276,-122
1185,-96,-2008,496,-30,280,-124
1190,-88,-2000,472,-43,281,-124
1195,-112,-2008,512,-53,283,-119
1200,-120,-2040,536,-61,284,-114
1205,-136,-2064,480,-67,286,-112
1210,-168,-2080,512,-72,287,-108
1215,-160,-2080,520,-70,289,-106
1220,-200,-2048,544,-65,290,-103
1225,-248,-2080,528,-53,292,-103
1230,-232,-2088,536,-38,293,-101
1235,-280,-2080,544,-21,294,-100
1240,-296,-2088,568,-4,298,-102
1245,-296,-2032,568,11,299,-103
1250,-264,-2064,592,27,300,-104
1255,-320,-2040,632,43,297,-104
1260,-328,-2016,536,57,292,-104
1265,-360,-2032,592,64,286,-102
1270,-344,-2048,568,62,279,-100
1275,-352,-2048,568,51,274,-96
1280,-368,-2048,552,34,269,-92
1285,-368,-2072,520,12,264,-86
1290,-376,-2104,488,-17,257,-81
1295,-344,-2144,480,-49,248,-74
1300,-352,-2152,488,-78,237,-69
1305,-352,-2160,472,-100,221,-64
1310,-336,-2152,432,-106,203,-59
1315,-336,-2192,496,-103,182,-54
1320,-288,-2168,448,-90,162,-51
1325,-296,-2160,448,-73,144,-49
1330,-280,-2120,424,-53,129,-49
1335,-224,-2136,400,-42,117,-48
1340,-224,-2112,392,-38,104,-46
1345,-200,-2112,392,-43,91,-46
1350,-208,-2112,288,-55,78,-43
1355,-192,-2120,312,-74,62,-42
1360,-136,-2192,256,-94,48,-37
1365,-176,-2200,304,-111,36,-33
1370,-152,-2200,232,-127,26,-30
1375,-136,-2208,216,-141,19,-29
1380,-144,-2216,208,-154,13,-32
1385,-120,-2216,200,-161,2,-39
1390,-120,-2200,192,-161,-7,-47
1395,-120,-2192,176,-149,-12,-58
1400,-96,-2168,216,-131,-15,-69
1405,-80,-2128,152,-107,-12,-82
1410,-96,-2048,176,-83,-3,-100
1415,-40,-2048,128,-55,12,-122
1420,-24,-2000,72,-28,34,-148
1425,-16,-1944,32,0,59,-169
1430,-8,-1872,-40,21,91,-188
1435,0,-1840,-64,33,129,-201
1440,32,-1784,-136,42,172,-213
1445,40,-1704,-160,44,216,-219
1450,104,-1640,-224,41,254,-221
1455,120,-1600,-216,35,286,-220
1460,136,-1544,-192,21,308,-215
1465,192,-1520,-256,3,323,-209
1470,208,-1472,-272,-9,329,-202
1475,240,-1520,-232,-25,326,-191
1480,224,-1528,-168,-48,316,-182
1485,248,-1600,-152,-81,304,-174
1490,240,-1680,-128,-131,295,-172
1495,224,-1760,-152,-193,294,-170
1500,192,-1856,-160,-257,300,-168
1505,176,-1880,-152,-317,310,-164
1510,144,-1984,-112,-368,327,-165
1515,128,-2032,-184,-412,343,-166
1520,72,-2088,-168,-446,357,-167
1525,48,-2136,-160,-467,368,-171
1530,72,-2176,-136,-474,368,-173
1535,8,-2232,-80,-459,355,-178
1540,8,-2232,-16,-420,335,-183
1545,-8,-2240,0,-360,304,-185
1550,-40,-2256,0,-295,268,-191
1555,-40,-2280,8,-241,233,-197
1560,-88,-2248,-48,-202,203,-204
1565,-88,-2216,-96,-177,175,-213
1570,-104,-2168,-136,-169,148,-225
1575,-72,-2184,-160,-168,130,-243
1580,-88,-2120,-144,-175,119,-261
1585,-40,-2136,-136,-182,110,-282
1590,-88,-1992,-136,-189,97,-317
1595,0,-2000,-128,-198,84,-345
1600,-8,-1992,-80,-196,83,-347
1605,16,-1976,-64,-185,71,-353
1610,56,-1952,-24,-175,50,-362
1615,120,-1920,-32,-158,34,-366
1620,160,-1896,-72,-140,29,-358
1625,176,-1928,-64,-130,24,-354
1630,184,-1896,-16,-128,17,-353
1635,248,-1936,40,-122,8,-356
1640,256,-1872,0,-124,9,-351
1645,240,-1840,16,-124,13,-348
1650,256,-1864,-16,-105,15,-342
1655,248,-1856,0,-99,15,-339
1660,232,-1848,0,-108,10,-340
1665,240,-1824,8,-122,3,-343
1670,224,-1832,16,-139,-1,-340
1675,216,-1800,16,-148,-7,-339
1680,224,-1808,64,-152,-2,-335
1685,256,-1840,56,-153,2,-327
1690,176,-1832,8,-152,2,-321
1695,224,-1848,88,-149,-1,-317
1700,208,-1872,48,-145,-9,-316
1705,224,-1880,40,-143,-13,-311
1710,200,-1848,56,-145,-9,-305
1715,192,-1832,40,-151,1,-291
1720,168,-1872,32,-152,2,-276
1725,184,-1872,88,-146,-4,-269
1730,200,-1912,64,-135,-11,-264
1735,248,-1856,88,-122,-9,-255
1740,224,-1840,40,-116,2,-237
1745,192,-1816,48,-113,8,-215
1750,184,-1832,40,-111,10,-194
1755,192,-1808,40,-101,4,-178
1760,208,-1800,40,-92,2,-167
1765,208,-1792,64,-81,4,-157
1770,240,-1736,56,-78,13,-138
1775,240,-1768,80,-77,23,-118
1780,224,-1792,56,-75,27,-102
1785,264,-1816,48,-76,29,-82
1790,184,-1792,56,-74,30,-66
1795,256,-1816,80,-69,29,-54
1800,200,-1816,80,-59,28,-44
1805,232,-1784,104,-46,26,-39
1810,232,-1800,72,-31,26,-31
1815,208,-1800,112,-19,33,-21
1820,224,-1816,160,-6,40,-9
1825,200,-1816,192,6,44,1
1830,168,-1840,160,17,45,11
1835,216,-1848,208,34,40,22
1840,200,-1856,240,50,38,34
1845,152,-1824,248,67,34,48
1850,144,-1864,248,88,25,62
1855,120,-1896,304,111,13,75
1860,136,-1896,296,131,-1,90
1865,144,-1920,304,153,-16,101
1870,40,-1904,264,171,-32,111
1875,56,-1904,200,183,-48,119
1880,32,-1904,216,190,-63,126
1885,24,-1896,208,193,-78,128
1890,72,-1992,336,195,-94,129
1895,80,-1904,240,193,-112,131
1900,72,-1928,256,192,-132,134
1905,64,-1912,144,195,-153,138
1910,80,-1920,296,201,-174,143
1915,16,-1928,312,218,-197,151
1920,64,-1928,336,238,-222,158
1925,0,-1960,376,255,-249,170
1930,32,-1992,328,259,-281,184
1935,80,-2024,352,250,-306,190
1940,24,-2048,280,228,-326,195
1945,136,-2144,304,205,-340,198
1950,224,-2144,288,186,-346,196
1955,216,-2112,192,180,-341,188
1960,256,-2112,272,183,-332,180
1965,296,-2208,184,194,-316,173
1970,328,-2304,312,205,-298,170
1975,384,-2272,232,218,-278,160
1980,408,-2248,288,238,-260,149
1985,496,-2184,344,261,-250,139
1990,528,-2168,432,286,-248,130
1995,512,-2200,448,307,-256,124
2000,512,-2232,520,326,-272,120
2005,472,-2264,504,338,-292,112
2010,456,-2288,552,339,-315,104
2015,448,-2368,504,337,-333,92
2020,408,-2408,440,330,-343,71
2025,384,-2472,328,305,-346,41
2030,328,-2552,224,256,-338,8
2035,256,-2608,136,184,-325,-23
2040,224,-2688,40,105,-307,-56
2045,224,-2784,64,35,-286,-91
2050,176,-2784,-24,-13,-260,-130
2055,216,-2824,40,-29,-229,-171
2060,160,-2768,72,-10,-195,-202
2065,104,-2656,144,40,-169,-219
2070,168,-2584,88,118,-151,-219
2075,216,-2464,160,198,-138,-208
2080,344,-2392,112,272,-129,-199
2085,488,-2336,40,325,-117,-195
2090,528,-2256,-56,357,-106,-191
2095,512,-2176,-128,361,-98,-185
2100,512,-2208,-224,334,-96,-179
2105,440,-2104,-304,284,-99,-170
2110,432,-2096,-288,231,-104,-156
2115,456,-2048,-304,192,-99,-142
2120,464,-2008,-248,178,-77,-132
2125,472,-1984,-248,189,-45,-121
2130,416,-1880,-208,220,-16,-105
2135,344,-1824,-224,259,3,-86
2140,288,-1736,-240,296,11,-58
2145,256,-1712,-232,318,5,-26
2150,224,-1656,-256,325,-13,6
2155,184,-1632,-280,316,-43,36
2160,96,-1616,-280,300,-82,63
2165,40,-1608,-288,279,-127,88
2170,-24,-1576,-264,263,-169,114
2175,-168,-1520,-264,254,-205,138
2180,-240,-1536,-312,247,-237,160
2185,-312,-1576,-256,226,-265,174
2190,-376,-1640,-248,197,-288,183
2195,-416,-1640,-248,171,-304,184
2200,-408,-1728,-208,152,-307,182
2205,-416,-1720,-160,145,-304,184
2210,-352,-1784,-136,139,-295,186
2215,-312,-1808,-200,131,-287,191
2220,-288,-1808,-152,121,-283,198
2225,-240,-1856,-224,109,-275,210
2230,-72,-1928,-192,99,-270,219
2235,-40,-1936,-192,88,-266,230
2240,0,-1944,-176,71,-260,245
2245,40,-1976,-152,55,-253,259
2250,120,-2048,-168,36,-241,274
2255,120,-2048,-168,18,-224,286
2260,144,-2080,-128,9,-202,300
2265,176,-2080,-88,11,-181,312
2270,216,-2072,-56,37,-158,311
2275,200,-2088,-16,81,-129,310
2280,208,-2088,-40,128,-94,309
2285,208,-2072,-64,165,-56,303
2290,208,-2024,-88,193,-16,296
2295,176,-1968,-80,209,17,287
2300,176,-1904,-88,226,42,282
2305,160,-1864,-112,240,58,280
2310,192,-1832,-96,255,71,278
2315,160,-1824,-96,262,84,279
2320,160,-1808,-104,259,101,283
2325,176,-1808,-104,253,115,288
2330,200,-1784,-80,249,133,293
2335,184,-1800,-56,239,151,292
2340,232,-1792,-48,230,167,286
2345,184,-1816,16,232,188,278
2350,176,-1816,24,237,215,270
2355,176,-1864,56,234,245,264
2360,152,-1888,64,237,275,251
2365,128,-1904,56,246,310,239
2370,128,-1880,120,250,344,224
2375,88,-1864,152,254,370,205
2380,80,-1864,120,256,395,188
2385,64,-1864,152,253,419,175
2390,64,-1864,184,254,438,163
2395,0,-1864,144,268,452,148
2400,0,-1840,224,283,462,134
2405,-48,-1816,192,287,468,120
2410,-120,-1800,176,288,473,103
2415,-120,-1784,168,281,479,92
2420,-152,-1784,168,277,485,84
2425,-184,-1752,200,272,485,77
2430,-216,-1736,224,266,482,74
2435,-216,-1744,240,258,474,72
2440,-216,-1728,208,247,463,73
2445,-208,-1776,216,238,448,74
2450,-224,-1736,256,234,430,71
2455,-176,-1760,240,234,412,65
2460,-192,-1760,224,234,392,54
2465,-184,-1744,208,240,375,37
2470,-168,-1736,240,254,358,17
2475,-168,-1704,216,263,341,-3
2480,-192,-1720,192,258,319,-18
2485,-216,-1728,200,238,298,-31
2490,-232,-1672,248,215,275,-40
2495,-256,-1688,240,194,256,-49
2500,-264,-1736,328,183,238,-54
2505,-312,-1672,272,175,222,-62
2510,-304,-1752,304,169,206,-67
2515,-312,-1776,280,160,190,-73
2520,-288,-1792,288,154,176,-76
2525,-248,-1832,304,149,166,-81
2530,-248,-1864,328,150,158,-87
2535,-200,-1904,320,151,153,-96
2540,-208,-1912,312,157,150,-102
2545,-152,-1912,336,165,152,-106
2550,-152,-1896,400,177,155,-111
2555,-56,-1920,344,191,159,-114
2560,-56,-1912,432,208,164,-120
2565,-32,-1864,456,227,169,-126
2570,-16,-1856,480,246,174,-135
2575,16,-1864,464,260,180,-141
2580,8,-1848,496,276,188,-147
2585,0,-1824,480,292,199,-152
2590,32,-1880,472,301,214,-158
2595,-16,-1848,424,303,231,-165
2600,0,-1904,472,293,258,-176
2605,-80,-1904,368,267,279,-188
2610,-96,-1920,392,221,299,-203
2615,-128,-1896,352,176,315,-215
2620,-160,-1904,336,151,324,-221
2625,-184,-1920,288,121,326,-225
2630,-224,-1944,240,80,324,-228
2635,-240,-1984,256,24,320,-229
2640,-192,-2008,248,-12,316,-232
2645,-216,-2040,256,-30,313,-239
2650,-240,-2064,312,-32,309,-248
2655,-264,-2096,408,-19,300,-252
2660,-264,-2176,432,-5,291,-251
2665,-296,-2200,488,10,284,-240
2670,-296,-2248,616,33,280,-222
2675,-264,-2256,720,63,284,-196
2680,-248,-2232,784,98,295,-169
2685,-208,-2224,792,144,306,-141
2690,-176,-2216,848,200,316,-119
2695,-144,-2152,896,258,326,-99
2700,-120,-2144,864,312,339,-79
2705,-72,-2160,792,347,363,-61
2710,-48,-2160,704,355,399,-45
2715,24,-2208,552,319,438,-32
2720,40,-2248,416,229,473,-22
2725,40,-2368,240,99,498,-10
2730,32,-2496,216,-48,518,5
2735,8,-2592,200,-180,525,20
2740,-24,-2720,200,-261,521,37
2745,-104,-2784,200,-281,506,52
2750,-200,-2768,184,-248,486,67
2755,-280,-2712,104,-191,464,84
2760,-432,-2648,80,-129,435,102
2765,-608,-2584,32,-75,399,131
2770,-752,-2528,-72,-46,351,168
2775,-752,-2528,-112,-39,294,211
2780,-736,-2472,-256,-45,236,251
2785,-744,-2488,-296,-43,183,283
2790,-728,-2424,-272,-18,141,306
2795,-688,-2328,-320,19,102,320
2800,-576,-2256,-384,62,70,325
2805,-408,-2184,-392,110,55,306
2810,-272,-2096,-408,167,59,265
2815,-160,-2024,-464,228,77,211
2820,-16,-1984,-472,279,101,165
2825,72,-1920,-472,314,125,127
2830,224,-1776,-496,330,147,97
2835,360,-1728,-464,340,155,71
2840,432,-1624,-424,346,160,53
2845,528,-1592,-416,352,166,36
2850,568,-1552,-344,350,179,23
2855,640,-1568,-224,328,203,10
2860,624,-1584,-192,288,235,-6
2865,640,-1632,-176,233,270,-17
2870,568,-1616,-144,165,303,-30
2875,536,-1696,-144,91,332,-46
2880,472,-1768,-136,13,351,-55
2885,416,-1776,-136,-65,361,-64
2890,296,-1824,-136,-143,364,-70
2895,224,-1848,-104,-214,354,-72
2900,88,-1880,-104,-278,337,-76
2905,0,-1944,-112,-328,310,-79
2910,-72,-1968,-64,-359,281,-87
2915,-200,-2032,-32,-368,251,-86
2920,-344,-2040,-56,-368,216,-94
2925,-400,-2072,16,-364,186,-110
2930,-496,-2128,16,-342,155,-128
2935,-496,-2176,80,-307,130,-152
2940,-504,-2216,80,-255,103,-181
2945,-464,-2184,120,-198,75,-209
2950,-416,-2200,80,-137,47,-237
2955,-336,-2216,128,-73,14,-262
2960,-288,-2184,88,-22,-20,-286
2965,-208,-2088,96,21,-52,-304
2970,-96,-2032,56,57,-86,-318
2975,-24,-1928,-24,79,-117,-327
2980,24,-1896,-16,82,-149,-332
2985,120,-1808,-104,65,-180,-341
2990,120,-1776,-112,29,-207,-343
2995,200,-1784,-112,-13,-228,-332
3000,208,-1784,-120,-56,-251,-320
3005,232,-1784,-72,-99,-269,-310
3010,256,-1808,-56,-135,-286,-296
3015,264,-1816,-32,-165,-295,-285
3020,240,-1824,-40,-190,-302,-270
3025,208,-1896,-16,-211,-305,-251
3030,208,-1904,24,-226,-308,-232
3035,144,-1904,8,-240,-308,-217
3040,168,-1904,16,-257,-298,-207
3045,104,-1896,24,-279,-281,-200
3050,136,-1936,80,-299,-259,-194
3055,120,-1912,72,-304,-241,-194
3060,128,-1912,120,-305,-223,-198
3065,128,-1896,136,-296,-211,-208
3070,144,-1880,120,-284,-195,-220
3075,176,-1888,96,-276,-176,-229
3080,168,-1856,136,-275,-162,-233
3085,208,-1824,104,-276,-149,-236
3090,184,-1832,104,-277,-142,-235
3095,240,-1840,144,-275,-138,-235
3100,264,-1848,160,-266,-139,-236
3105,256,-1840,136,-253,-138,-229
3110,264,-1848,128,-247,-136,-218
3115,256,-1880,136,-248,-136,-206
3120,256,-1848,120,-251,-131,-192
3125,264,-1896,128,-246,-128,-181
3130,272,-1888,88,-240,-124,-172
3135,272,-1888,88,-230,-116,-162
3140,248,-1896,80,-216,-104,-154
3145,280,-1880,88,-202,-89,-147
3150,224,-1864,48,-188,-69,-141
3155,256,-1880,72,-173,-48,-136
3160,232,-1856,56,-160,-23,-133
3165,248,-1864,64,-150,3,-130
3170,256,-1880,96,-145,24,-127
3175,248,-1888,120,-140,45,-121
3180,248,-1896,104,-140,58,-115
3185,224,-1904,80,-139,70,-109
3190,256,-1920,152,-142,77,-100
3195,224,-1920,104,-143,81,-92
3200,232,-1904,120,-144,86,-85
3205,232,-1936,192,-142,90,-77
3210,176,-1936,144,-137,92,-68
3215,160,-1880,152,-128,94,-62
3220,144,-1912,152,-113,96,-54
3225,136,-1864,144,-96,97,-48
3230,120,-1872,152,-80,97,-43
3235,112,-1864,144,-58,93,-38
3240,152,-1888,184,-38,87,-30
3245,136,-1872,184,-23,79,-21
3250,128,-1840,184,-11,71,-12
3255,128,-1840,152,-5,63,-3
3260,168,-1904,168,0,58,7
3265,168,-1856,160,1,51,16
3270,184,-1840,184,2,44,24
3275,160,-1864,168,0,35,33
3280,112,-1848,176,-1,28,42
3285,152,-1872,184,-5,20,51
3290,144,-1856,136,-10,12,59
3295,112,-1872,120,-17,5,64
3300,120,-1856,112,-24,-2,69
3305,128,-1856,120,-35,-6,76
3310,128,-1848,120,-44,-10,79
3315,72,-1896,168,-57,-14,84
3320,88,-1872,96,-70,-19,89
3325,72,-1888,88,-87,-29,94
3330,64,-1904,32,-105,-42,100
3335,64,-1904,48,-122,-60,105
3340,40,-1920,104,-140,-79,112
3345,24,-1928,112,-155,-95,114
3350,40,-1968,128,-167,-110,118
3355,16,-2016,112,-176,-122,121
3360,0,-2000,120,-185,-128,125
3365,0,-2040,104,-195,-128,128
3370,32,-2048,112,-206,-123,129
3375,40,-2048,88,-216,-114,127
3380,96,-2072,88,-224,-102,125
3385,104,-2072,56,-231,-91,125
3390,152,-2096,72,-234,-82,124
3395,152,-2112,80,-229,-77,122
3400,160,-2112,88,-218,-80,120
3405,192,-2144,144,-205,-89,118
3410,168,-2176,160,-187,-100,116
3415,176,-2224,216,-167,-115,113
3420,120,-2224,256,-145,-130,108
3425,80,-2248,296,-122,-146,104
3430,48,-2256,360,-97,-160,101
3435,0,-2280,424,-70,-176,95
3440,-40,-2272,448,-41,-189,90
3445,-80,-2272,496,-16,-198,84
3450,-88,-2264,512,13,-205,76
3455,-120,-2248,520,46,-215,70
3460,-96,-2208,536,82,-227,64
3465,-80,-2208,584,122,-244,58
3470,-80,-2152,536,163,-266,53
3475,-8,-2136,544,207,-288,47
3480,0,-2112,536,252,-311,48
3485,40,-2080,528,291,-336,46
3490,88,-2080,488,313,-359,40
3495,112,-2104,472,318,-379,32
3500,88,-2160,400,300,-398,23
3505,168,-2144,320,249,-428,-9
3510,208,-2240,264,174,-432,-11
3515,208,-2288,136,95,-433,-20
3520,232,-2352,176,18,-436,-33
3525,272,-2432,208,-44,-429,-49
3530,280,-2416,232,-78,-410,-68
3535,280,-2464,320,-72,-379,-86
3540,304,-2448,248,-37,-340,-103
3545,288,-2384,216,16,-295,-117
3550,264,-2336,184,72,-245,-123
3555,288,-2240,104,131,-192,-127
3560,344,-2192,40,181,-134,-124
3565,376,-2168,-88,219,-76,-117
3570,448,-2144,-160,241,-20,-116
3575,408,-2096,-248,239,28,-127
3580,360,-2168,-264,208,62,-140
3585,328,-2128,-312,160,76,-150
3590,296,-2112,-288,113,74,-153
3595,360,-2112,-296,77,64,-153
3600,328,-2104,-232,68,59,-154
3605,256,-2136,-200,87,59,-151
3610,224,-2088,-192,131,59,-152
3615,120,-2032,-240,187,48,-150
3620,80,-2000,-208,241,24,-140
3625,-24,-1920,-248,280,-18,-123
3630,-96,-1896,-264,302,-70,-102
3635,-200,-1784,-376,312,-129,-83
3640,-256,-1728,-296,317,-188,-67
3645,-312,-1672,-296,332,-251,-54
3650,-368,-1616,-288,361,-315,-42
3655,-440,-1584,-304,397,-379,-34
3660,-496,-1568,-312,422,-441,-27
3665,-504,-1600,-336,421,-494,-20
3670,-504,-1632,-320,395,-539,-12
3675,-456,-1680,-344,347,-579,1
3680,-480,-1696,-368,292,-610,13
3685,-408,-1760,-360,239,-635,25
3690,-360,-1776,-264,198,-659,33
3695,-304,-1816,-312,172,-678,41
3700,-192,-1888,-272,156,-688,54
3705,-112,-1944,-240,143,-697,68
3710,-32,-1976,-232,136,-694,80
3715,16,-2032,-216,133,-682,99
3720,48,-2048,-160,137,-660,122
3725,136,-2072,-128,149,-634,143
3730,184,-2104,-152,155,-601,168
3735,248,-2120,-120,159,-564,192
3740,304,-2192,-80,166,-526,214
3745,320,-2112,-80,172,-484,235
3750,376,-2168,-24,178,-446,252
3755,352,-2152,-88,190,-410,269
3760,368,-2080,-88,208,-380,278
3765,336,-2048,-136,229,-354,283
3770,312,-2056,-176,246,-329,286
3775,304,-2008,-144,248,-307,286
3780,248,-1920,-168,256,-282,291
3785,208,-1880,-184,276,-252,297
3790,152,-1816,-216,300,-223,300
3795,144,-1816,-168,317,-187,302
3800,112,-1776,-120,327,-149,300
3805,88,-1736,-120,331,-109,293
3810,64,-1712,-72,328,-71,289
3815,72,-1688,-96,326,-34,283
3820,48,-1696,-64,323,5,276
3825,56,-1720,-64,315,39,267
3830,40,-1688,-40,299,75,261
3835,56,-1760,-32,276,110,256
3840,72,-1752,-56,256,142,248
3845,88,-1768,-48,240,174,243
3850,88,-1776,-80,225,206,238
3855,80,-1792,-64,211,233,236
3860,104,-1832,-16,204,256,226
3865,72,-1800,-32,202,279,215
3870,72,-1832,0,197,298,198
3875,72,-1856,-8,188,312,179
3880,56,-1888,0,168,326,158
3885,16,-1832,40,151,347,143
3890,0,-1824,56,153,363,134
3895,0,-1824,24,178,375,121
3900,-16,-1808,16,197,387,105
3905,-32,-1832,96,200,399,90
3910,-72,-1816,56,192,414,83
3915,-64,-1832,64,175,427,75
3920,-64,-1824,80,152,441,67
3925,-48,-1816,160,129,457,57
3930,-72,-1816,144,115,463,47
3935,-56,-1808,152,107,467,35
3940,-72,-1784,128,101,468,26
3945,-88,-1792,160,92,468,17
3950,-88,-1768,144,81,465,10
3955,-96,-1784,160,62,461,3
3960,-104,-1688,144,38,458,-7
3965,-128,-1728,184,12,455,-18
3970,-128,-1712,192,-11,450,-30
3975,-128,-1696,216,-29,441,-44
3980,-136,-1712,216,-37,432,-57
3985,-128,-1736,288,-38,423,-70
3990,-136,-1728,248,-35,415,-81
3995,-168,-1760,248,-30,401,-92
4000,-192,-1776,296,-26,387,-101
4005,-192,-1776,280,-21,372,-109
4010,-208,-1776,248,-14,358,-119
4015,-176,-1832,248,-12,347,-128
4020,-192,-1840,272,-13,337,-136
4025,-184,-1856,248,-22,331,-146
4030,-168,-1856,256,-30,326,-154
4035,-160,-1864,240,-44,325,-165
4040,-160,-1888,216,-58,324,-174
4045,-104,-1904,208,-75,321,-181
4050,-120,-1896,176,-91,317,-187
4055,-80,-1920,160,-104,314,-195
4060,-40,-1928,168,-115,310,-200
4065,-24,-1920,176,-125,305,-203
4070,24,-1856,168,-135,304,-208
4075,8,-1928,152,-144,306,-211
4080,24,-1960,152,-152,314,-217
4085,40,-1944,216,-153,326,-222
4090,72,-1976,240,-148,337,-224
4095,88,-2032,232,-139,349,-224
4100,112,-2048,264,-130,361,-221
4105,112,-2072,272,-119,371,-217
4110,120,-2104,272,-104,377,-215
4115,160,-2184,264,-91,377,-208
4120,104,-2152,232,-77,374,-204
4125,56,-2176,264,-62,362,-197
4130,0,-2200,272,-46,349,-190
4135,-72,-2232,344,-25,335,-183
4140,-136,-2232,400,5,321,-173
4145,-192,-2248,480,45,311,-160
4150,-264,-2272,544,94,307,-145
4155,-344,-2224,632,151,300,-126
4160,-344,-2232,648,221,301,-93
4165,-304,-2240,704,266,303,-67
4170,-264,-2232,712,295,308,-49
4175,-296,-2216,776,312,312,-36
4180,-192,-2208,712,326,316,-29
4185,-152,-2160,728,345,325,-23
4190,-104,-2136,736,373,337,-24
4195,-64,-2072,712,409,342,-35
4200,-16,-2032,720,453,349,-51
4205,-24,-1984,648,497,361,-60
4210,-40,-1936,648,533,376,-72
4215,-72,-1904,632,552,398,-84
4220,-112,-1896,600,548,427,-90
4225,-112,-1904,552,515,460,-96
4230,-192,-1984,464,445,496,-101
4235,-176,-2016,392,339,534,-97
4240,-208,-2112,280,202,571,-85
4245,-256,-2200,224,52,596,-70
4250,-248,-2336,200,-88,608,-49
4255,-192,-2464,200,-201,606,-25
4260,-152,-2560,248,-268,591,1
4265,-152,-2624,304,-279,561,30
4270,-200,-2656,400,-244,514,65
4275,-200,-2648,312,-176,456,94
4280,-296,-2568,328,-96,393,125
4285,-320,-2504,248,-12,329,151
4290,-424,-2416,112,61,266,172
4295,-568,-2304,16,112,206,192
4300,-656,-2248,-72,124,149,207
4305,-704,-2200,-232,96,95,231
4310,-688,-2192,-272,43,48,256
4315,-696,-2168,-368,-7,7,275
4320,-664,-2112,-432,-34,-28,296
4325,-664,-2112,-416,-52,-51,307
4330,-552,-2024,-472,-52,-74,323
4335,-376,-2008,-480,-36,-80,314
4340,-280,-1880,-504,9,-69,289
4345,-96,-1808,-520,63,-46,257
4350,88,-1744,-528,117,-12,218
4355,168,-1704,-560,175,24,181
4360,288,-1696,-552,221,54,146
4365,432,-1680,-544,234,71,119
4370,552,-1664,-472,209,75,95
4375,648,-1696,-456,168,80,79
4380,744,-1808,-328,125,87,70
4385,760,-1856,-272,76,97,67
4390,728,-1936,-184,19,111,69
4395,704,-2008,-160,-38,132,74
4400,632,-2072,-80,-86,162,77
4405,632,-2112,-104,-117,196,76
4410,568,-2144,-144,-135,232,68
4415,488,-2184,-128,-147,272,55
4420,368,-2192,-152,-158,311,36
4425,288,-2232,-136,-158,342,12
4430,232,-2192,-96,-143,359,-13
4435,64,-2168,-136,-118,366,-48
4440,0,-2128,-112,-91,363,-90
4445,-136,-2096,-128,-69,351,-137
4450,-272,-2104,-104,-51,328,-181
4455,-328,-2048,-64,-33,295,-226
4460,-416,-2032,-16,-20,252,-265
4465,-488,-1992,-48,-7,203,-302
4470,-496,-2016,-40,1,153,-338
4475,-496,-2032,-24,0,110,-375
4480,-504,-1904,-48,-6,62,-420
4485,-448,-1936,-40,-25,29,-442
4490,-344,-1904,-48,-39,1,-443
4495,-296,-1888,-72,-54,-24,-432
4500,-216,-1848,-88,-64,-56,-421
4505,-168,-1832,-72,-71,-89,-414
4510,-88,-1792,-88,-74,-128,-415
4515,-16,-1792,-80,-75,-164,-403
4520,32,-1784,-40,-70,-199,-389
4525,80,-1768,-48,-66,-231,-375
4530,120,-1792,0,-63,-255,-357
4535,176,-1768,-8,-62,-277,-340
4540,192,-1800,-24,-64,-291,-326
4545,168,-1800,-24,-73,-302,-311
4550,184,-1856,32,-89,-311,-297
4555,176,-1808,40,-107,-312,-288
4560,176,-1856,80,-121,-307,-278
4565,200,-1856,80,-129,-304,-271
4570,192,-1840,88,-125,-293,-270
4575,200,-1872,112,-118,-278,-266
4580,184,-1848,112,-106,-263,-266
4585,192,-1832,144,-85,-252,-271
4590,184,-1832,112,-64,-244,-275
4595,152,-1840,96,-43,-235,-278
4600,176,-1800,136,-25,-224,-279
4605,144,-1816,56,-13,-213,-276
4610,152,-1800,128,-3,-208,-270
4615,144,-1808,152,5,-206,-258
4620,128,-1824,120,12,-206,-248
4625,104,-1840,176,22,-211,-236
4630,104,-1800,120,31,-215,-225
4635,120,-1824,128,39,-219,-216
4640,112,-1808,152,51,-219,-207
4645,104,-1792,104,54,-212,-195
4650,152,-1784,128,52,-203,-180
4655,96,-1744,136,44,-192,-164
4660,120,-1736,64,42,-185,-150
4665,176,-1760,152,44,-178,-136
4670,176,-1720,168,47,-174,-117
4675,216,-1736,152,51,-167,-100
4680,232,-1744,176,55,-163,-83
4685,224,-1720,224,57,-159,-69
4690,240,-1776,256,62,-156,-52
4695,248,-1784,232,68,-153,-36
4700,248,-1768,280,75,-150,-21
4705,264,-1808,248,80,-147,-7
4710,224,-1792,256,85,-143,8
4715,240,-1840,280,86,-140,25
4720,200,-1824,248,83,-137,41
4725,200,-1824,232,78,-134,56
4730,176,-1848,232,72,-130,71
4735,176,-1840,232,66,-128,81
4740,160,-1896,224,61,-126,90
4745,160,-1912,232,55,-124,95
4750,128,-1912,232,50,-122,99
4755,128,-1912,224,49,-120,99
4760,144,-1928,264,52,-120,96
4765,112,-1960,304,60,-118,94
4770,96,-1960,264,73,-118,92
4775,128,-1976,296,89,-119,90
4780,136,-1944,248,106,-120,86
4785,144,-1944,296,122,-123,82
4790,144,-1928,280,135,-125,79
4795,160,-1952,272,141,-126,79
4800,168,-1960,248,142,-131,80
4805,176,-1952,232,134,-134,81
4810,160,-1976,200,119,-135,80
4815,160,-1960,200,102,-136,87
4820,176,-1968,232,80,-137,92
4825,192,-2024,216,55,-138,100
4830,176,-2032,216,33,-135,105
4835,200,-2048,192,13,-125,106
4840,216,-2064,168,-4,-109,109
4845,248,-2072,136,-19,-86,108
4850,288,-2080,120,-35,-59,107
4855,312,-2136,128,-53,-29,106
4860,336,-2200,160,-75,-13,108
4865,360,-2192,248,-99,-8,113
4870,352,-2200,336,-96,-12,113
4875,384,-2136,352,-71,-18,106
4880,352,-2216,456,-53,-28,97
4885,296,-2264,512,-33,-38,85
4890,200,-2304,576,-27,-52,73
4895,168,-2384,576,-51,-69,59
4900,120,-2352,664,-67,-89,49
4905,8,-2256,672,-43,-107,40
4910,-32,-2200,648,10,-127,32
4915,-88,-2152,584,68,-152,19
4920,-144,-2112,496,108,-177,15
4925,-128,-2168,400,117,-202,19
4930,-152,-2160,232,89,-230,25
4935,-160,-2264,176,27,-262,31
4940,-96,-2320,64,-64,-302,34
4945,-104,-2408,8,-170,-344,32
4950,-40,-2496,32,-269,-381,29
4955,0,-2560,80,-338,-403,21
4960,56,-2592,120,-360,-405,3
4965,144,-2560,104,-346,-388,-25
4970,216,-2552,72,-305,-358,-55
4975,344,-2512,24,-260,-314,-85
4980,448,-2392,-16,-213,-263,-110
4985,544,-2328,-8,-163,-204,-136
4990,664,-2192,-88,-110,-135,-162
4995,720,-2120,-136,-43,-63,-187
5000,800,-2080,-152,25,6,-215
5005,768,-2064,-272,66,64,-245
5010,720,-2048,-336,60,103,-266
5015,624,-2040,-368,18,121,-263
5020,568,-2008,-408,-42,123,-240
5025,520,-2048,-440,-103,125,-204
5030,488,-2056,-448,-154,139,-178
5035,400,-2072,-472,-179,153,-155
5040,232,-2024,-424,-180,159,-135
5045,112,-2024,-464,-168,146,-112
5050,8,-1944,-448,-153,108,-89
5055,-96,-1912,-448,-138,48,-67
5060,-216,-1832,-456,-121,-24,-47
5065,-368,-1808,-376,-88,-100,-34
5070,-432,-1776,-368,-30,-171,-22
5075,-512,-1776,-328,37,-235,-16
5080,-560,-1760,-320,97,-291,-10
5085,-640,-1776,-320,134,-333,3
5090,-712,-1760,-272,145,-363,17
5095,-696,-1776,-248,131,-386,29
5100,-664,-1808,-216,102,-400,39
5105,-584,-1808,-192,66,-408,48
5110,-464,-1832,-120,42,-410,62
5115,-352,-1848,-144,30,-408,81
5120,-184,-1896,-176,16,-401,100
5125,-48,-1912,-120,-1,-397,117
5130,128,-1912,-176,-18,-391,133
5135,272,-1936,-176,-36,-373,156
5140,392,-1936,-168,-47,-351,176
5145,408,-1936,-256,-46,-324,191
5150,504,-1976,-136,-35,-289,199
5155,576,-1960,-104,-16,-248,207
5160,560,-2016,-120,16,-204,210
5165,536,-2000,-96,48,-161,208
5170,536,-2008,-88,79,-117,202
5175,496,-2016,-128,106,-72,199
5180,408,-2024,-136,121,-26,199
5185,344,-1984,-208,125,14,201
5190,224,-1936,-224,127,51,204
5195,168,-1936,-240,132,82,207
5200,136,-1912,-208,144,107,206
5205,32,-1872,-216,157,124,205
5210,0,-1824,-192,172,140,206
5215,-24,-1824,-168,183,147,203
5220,-24,-1784,-120,194,153,203
5225,-56,-1768,-160,204,155,203
5230,-32,-1784,-112,212,158,201
5235,-24,-1800,-72,217,158,196
5240,-24,-1776,-96,221,158,191
5245,-16,-1776,-48,217,160,181
5250,0,-1808,-72,211,164,169
5255,24,-1848,-88,205,170,160
5260,-24,-1816,-96,203,177,149
5265,16,-1848,-40,204,184,142
5270,56,-1848,0,199,191,132
5275,40,-1824,32,193,198,117
5280,48,-1840,56,185,208,108
5285,64,-1840,80,179,214,103
5290,24,-1816,40,177,215,97
5295,8,-1800,64,177,215,89
5300,0,-1832,112,173,213,87
5305,-40,-1792,64,172,210,85
5310,-56,-1792,104,171,205,80
5315,-88,-1752,104,168,200,72
5320,-120,-1744,120,165,196,69
5325,-152,-1768,152,163,192,63
5330,-128,-1760,144,160,188,63
5335,-176,-1760,176,152,183,62
5340,-152,-1776,136,146,174,60
5345,-128,-1776,144,136,167,58
5350,-144,-1792,136,125,162,58
5355,-184,-1752,112,121,154,61
5360,-168,-1800,88,115,143,62
5365,-144,-1752,88,105,131,62
5370,-144,-1736,88,92,119,58
5375,-160,-1792,120,82,107,56
5380,-176,-1776,136,75,95,51
5385,-184,-1776,136,69,85,44
5390,-184,-1792,176,67,78,34
5395,-168,-1808,176,67,74,20
5400,-104,-1808,224,70,73,5
5405,-72,-1816,216,74,72,-9
5410,-64,-1840,216,86,70,-25
5415,-40,-1824,224,101,65,-39
5420,-40,-1840,208,116,59,-54
5425,-8,-1872,240,126,51,-66
5430,8,-1888,240,133,43,-75
5435,0,-1904,296,143,36,-83
5440,8,-1888,296,155,30,-88
5445,0,-1904,328,170,23,-89
5450,0,-1880,328,190,16,-86
5455,0,-1896,320,212,5,-80
5460,-48,-1920,296,226,-8,-71
5465,-40,-1888,248,232,-21,-64
5470,-96,-1888,160,222,-34,-56
5475,-88,-1912,152,206,-40,-45
5480,-104,-1960,112,187,-40,-39
5485,-64,-1992,136,175,-30,-34
5490,-48,-1992,160,174,-11,-38
5495,16,-1984,144,184,14,-45
5500,40,-1960,160,200,38,-56
5505,112,-2000,184,219,54,-69
5510,176,-2008,176,238,65,-85
5515,200,-2032,192,252,69,-100
5520,240,-2088,136,261,66,-113
5525,160,-2080,200,265,57,-123
5530,128,-2176,240,261,46,-122
5535,72,-2208,280,247,34,-109
5540,0,-2224,320,228,22,-85
5545,0,-2264,432,224,17,-51
5550,-64,-2296,496,241,26,-30
5555,-24,-2256,528,277,45,-21
5560,-32,-2288,592,325,74,-17
5565,0,-2272,592,375,109,-22
5570,8,-2288,616,410,156,-32
5575,16,-2304,584,419,198,-41
5580,32,-2392,584,404,235,-51
5585,80,-2376,496,368,267,-51
5590,112,-2424,344,316,285,-38
5595,112,-2520,216,247,289,-11
5600,96,-2592,56,157,281,26
5605,8,-2648,8,40,265,65
5610,-16,-2736,-32,-41,241,106
5615,-152,-2736,-48,-89,211,147
5620,-304,-2760,-16,-105,172,182
5625,-504,-2736,-88,-90,122,206
5630,-592,-2624,-168,-65,69,219
5635,-672,-2560,-168,-43,25,220
5640,-728,-2448,-168,-21,-7,209
5645,-768,-2312,-280,21,-24,188
5650,-776,-2192,-352,66,-27,165
5655,-664,-2152,-488,100,-24,143
5660,-560,-2040,-520,120,-23,116
5665,-512,-1888,-624,108,-7,71
5670,-408,-1792,-608,97,15,41
5675,-256,-1672,-640,88,39,10
5680,-64,-1544,-536,78,70,-30
5685,48,-1512,-520,75,98,-61
5690,200,-1440,-432,75,115,-84
5695,384,-1432,-352,77,123,-94
5700,512,-1432,-216,81,116,-96
5705,560,-1512,-120,76,98,-92
5710,576,-1560,-80,47,72,-85
5715,576,-1640,-8,-5,49,-69
5720,504,-1760,-32,-73,33,-51
5725,456,-1864,-40,-155,28,-46
5730,360,-1960,-136,-236,34,-53
5735,304,-2032,-160,-314,48,-64
5740,256,-2120,-248,-377,70,-79
5745,144,-2184,-216,-419,93,-95
5750,48,-2272,-192,-433,115,-114
5755,-8,-2312,-168,-423,132,-133
5760,-40,-2328,-192,-393,152,-159
5765,-112,-2336,-192,-352,174,-190
5770,-152,-2264,-184,-308,196,-229
5775,-208,-2264,-184,-261,208,-278
5780,-248,-2256,-232,-223,204,-332
5785,-224,-2168,-264,-201,190,-389
5790,-192,-2088,-248,-173,178,-438
5795,-160,-1992,-256,-144,168,-477
5800,-96,-1904,-224,-109,154,-504
5805,-64,-1816,-176,-66,131,-521
5810,16,-1776,-136,-21,110,-523
5815,72,-1752,-152,11,91,-510
5820,96,-1768,-120,-2,83,-483
5825,160,-1696,-48,-33,77,-457
5830,192,-1696,-56,-57,66,-437
5835,152,-1656,-48,-72,50,-416
5840,184,-1688,-48,-83,30,-391
5845,200,-1800,-24,-101,6,-372
5850,168,-1784,-32,-131,-13,-359
5855,168,-1808,-64,-171,-27,-347
5860,192,-1824,-72,-205,-34,-338
5865,176,-1888,-112,-240,-31,-332
5870,224,-1936,-64,-270,-24,-329
5875,240,-1912,-48,-286,-18,-330
5880,256,-1952,-16,-290,-7,-331
5885,248,-1976,-32,-284,0,-337
5890,296,-1960,-8,-272,12,-342
5895,280,-1912,8,-251,22,-346
5900,296,-1952,0,-231,35,-351
5905,296,-1984,24,-216,50,-354
5910,304,-2008,24,-200,60,-357
5915,304,-1984,24,-180,69,-363
5920,280,-2008,40,-164,84,-364
5925,256,-2008,88,-156,97,-362
5930,264,-2024,72,-147,109,-359
5935,256,-1992,48,-137,124,-347
5940,200,-1984,40,-127,132,-331
5945,216,-1960,32,-119,137,-309
5950,144,-1952,16,-112,137,-284
5955,120,-1936,8,-104,131,-260
5960,104,-1904,0,-99,124,-236
5965,80,-1928,-40,-97,113,-217
5970,80,-1912,-24,-88,94,-208
5975,104,-1864,-24,-78,91,-202
5980,136,-1848,-16,-68,104,-203
5985,168,-1840,-32,-56,120,-203
5990,216,-1808,-16,-44,135,-208
5995,280,-1776,0,-40,150,-212
6000,288,-1784,8,-53,161,-208
6005,344,-1800,-24,-71,164,-198
6010,304,-1816,8,-100,164,-183
6015,320,-1840,16,-128,163,-165
6020,312,-1888,24,-156,162,-145
6025,312,-1968,48,-178,155,-128
6030,304,-2008,56,-187,141,-112
6035,280,-2048,96,-186,125,-99
6040,264,-2088,152,-173,105,-87
6045,216,-2112,72,-147,88,-75
6050,200,-2136,168,-114,78,-65
6055,152,-2152,136,-78,67,-61
6060,136,-2120,144,-43,60,-58
6065,104,-2128,136,-8,51,-58
6070,120,-2112,184,31,43,-58
6075,96,-2072,208,72,34,-58
6080,104,-2048,216,106,21,-62
6085,128,-2024,184,136,10,-66
6090,152,-1976,208,168,-1,-75
6095,192,-1944,200,197,-12,-80
6100,232,-1976,224,219,-22,-86
6105,288,-1944,232,229,-32,-90
6110,296,-1888,264,229,-41,-91
6115,408,-1936,240,224,-49,-89
6120,368,-1936,224,215,-61,-85
6125,416,-1944,232,197,-76,-76
6130,384,-1968,272,178,-93,-61
6135,400,-1992,240,157,-114,-45
6140,400,-2008,240,138,-140,-29
6145,400,-2032,280,114,-167,-11
6150,376,-2056,264,100,-190,10
6155,376,-2072,264,90,-209,30
6160,352,-2040,280,85,-225,50
6165,368,-2096,240,84,-235,65
6170,344,-2048,240,84,-241,80
6175,376,-2048,200,80,-243,92
6180,368,-2008,152,73,-246,104
6185,384,-2000,88,60,-246,113
6190,400,-1992,32,43,-244,123
6195,408,-1928,16,16,-240,130
6200,400,-1976,0,-17,-235,135
6205,416,-2048,-32,-59,-224,139
6210,408,-2072,-40,-109,-212,135
6215,408,-2168,-88,-176,-203,127
6220,408,-2296,-64,-248,-198,120
6225,376,-2416,-48,-310,-189,120
6230,424,-2504,-72,-350,-176,116
6235,392,-2576,-72,-362,-161,106
6240,368,-2656,-8,-346,-140,93
6245,328,-2720,-8,-317,-113,76
6250,304,-2744,32,-278,-87,54
6255,208,-2776,96,-233,-61,30
6260,168,-2760,128,-173,-49,4
6265,120,-2768,240,-96,-42,-21
6270,88,-2728,288,-10,-44,-41
6275,80,-2672,272,84,-57,-60
6280,112,-2600,328,177,-73,-67
6285,128,-2464,320,272,-98,-63
6290,120,-2320,320,368,-130,-52
6295,88,-2216,312,425,-168,-37
6300,64,-2120,256,478,-209,-19
6305,88,-2016,192,530,-254,0
6310,80,-1864,144,573,-299,16
6315,80,-1752,16,601,-345,34
6320,72,-1648,-104,603,-393,43
6325,96,-1552,-176,573,-438,56
6330,112,-1496,-312,519,-477,66
6335,112,-1432,-424,451,-507,87
6340,80,-1400,-528,374,-531,108
6345,104,-1408,-656,293,-542,126
6350,136,-1448,-680,206,-541,130
6355,184,-1512,-712,113,-529,129
6360,200,-1592,-728,27,-516,114
6365,288,-1704,-736,-49,-483,91
6370,272,-1816,-648,-108,-447,60
6375,296,-1904,-656,-142,-411,21
6380,344,-2072,-648,-160,-370,-21
6385,336,-2128,-576,-168,-338,-63
6390,288,-2208,-552,-170,-310,-91
6395,240,-2296,-528,-156,-288,-114
6400,208,-2320,-536,-112,-285,-129
6405,80,-2368,-504,-44,-276,-141
6410,88,-2320,-528,39,-269,-148
6415,48,-2264,-504,112,-244,-149
6420,0,-2272,-488,174,-219,-144
6425,-56,-2168,-440,226,-194,-135
6430,-96,-2104,-376,268,-169,-121
6435,-96,-2096,-320,301,-153,-106
6440,-152,-2024,-296,322,-146,-88
6445,-144,-1992,-248,339,-149,-68
6450,-120,-1920,-264,350,-158,-45
6455,-136,-1888,-272,344,-174,-21
6460,-96,-1864,-216,326,-198,6
6465,-72,-1840,-208,299,-224,30
6470,-24,-1824,-208,277,-247,60
6475,8,-1840,-208,255,-274,91
6480,56,-1816,-136,230,-301,112
6485,72,-1832,-144,214,-323,127
6490,80,-1848,-128,208,-345,137
6495,72,-1824,-80,211,-369,147
6500,104,-1792,-40,227,-385,154
6505,152,-1776,-80,254,-397,151
6510,144,-1784,-72,280,-396,143
6515,144,-1752,-72,292,-389,130
6520,168,-1752,-48,286,-379,115
6525,168,-1728,-72,270,-377,95
6530,192,-1696,-80,248,-377,80
6535,168,-1680,-120,230,-374,68
6540,176,-1640,-48,211,-372,61
6545,176,-1616,-88,188,-371,57
6550,104,-1616,-72,163,-375,59
6555,88,-1584,-40,137,-378,65
6560,72,-1552,24,116,-379,75
6565,48,-1544,0,96,-379,91
6570,32,-1552,0,73,-378,115
6575,40,-1544,8,44,-382,141
6580,40,-1584,64,12,-393,163
6585,32,-1584,88,-12,-406,183
6590,48,-1648,112,-25,-418,199
6595,8,-1632,96,-30,-431,214
6600,8,-1632,72,-34,-445,223
6605,16,-1656,160,-39,-461,233
6610,0,-1688,184,-41,-478,244
6615,-24,-1696,144,-41,-493,253
6620,-48,-1720,160,-43,-503,264
6625,-72,-1728,152,-50,-512,279
6630,-96,-1720,176,-61,-519,282
6635,-112,-1728,168,-67,-526,289
6640,-128,-1784,168,-67,-528,300
6645,-152,-1760,200,-61,-528,311
6650,-200,-1760,192,-50,-527,319
6655,-184,-1816,280,-33,-529,327
6660,-216,-1752,192,-18,-533,336
6665,-200,-1760,176,-9,-528,343
6670,-200,-1720,208,-1,-520,346
6675,-192,-1712,120,4,-504,348
6680,-192,-1736,136,4,-486,347
6685,-192,-1688,136,-2,-468,348
6690,-168,-1704,88,-11,-446,351
6695,-160,-1688,88,-20,-420,353
6700,-120,-1664,40,-29,-396,356
6705,-160,-1640,-16,-39,-372,366
6710,-152,-1608,-16,-57,-344,378
6715,-160,-1544,-88,-84,-318,398
6720,-152,-1544,-104,-118,-289,418
6725,-160,-1512,-80,-149,-251,447
6730,-192,-1488,-56,-164,-203,476
6735,-176,-1456,-24,-161,-157,506
6740,-192,-1432,-8,-144,-126,537
6745,-216,-1360,-24,-122,-110,573
6750,-224,-1240,-8,-95,-101,615
6755,-240,-1120,-48,-64,-87,665
6760,-248,-984,-96,-40,-62,716
6765,-216,-896,-144,-33,-30,766
6770,-240,-728,-192,-36,-9,813
6775,-224,-560,-216,-41,-6,863
6780,-248,-408,-280,-42,-18,917
6785,-208,-216,-344,-28,-34,986
6790,-168,-80,-368,2,-51,1056
6795,-80,80,-376,49,-59,1118
6800,0,200,-400,123,-56,1187
6805,80,344,-352,218,-48,1253
6810,192,384,-264,340,-37,1305
6815,264,440,-176,482,-15,1323
6820,280,472,8,632,18,1309
6825,304,472,240,769,46,1264
6830,344,512,504,862,42,1156
6835,352,560,688,916,12,1081
6840,344,608,872,916,-62,1024
6845,312,632,1024,869,-183,1004
6850,152,568,1080,792,-351,1005
6855,32,472,944,700,-593,1039
6860,-32,288,752,587,-786,1097
6865,-136,160,552,440,-941,1153
6870,-296,-40,312,273,-1067,1208
6875,-368,-272,48,118,-1194,1242
6880,-344,-472,-192,-22,-1257,1275
6885,-320,-640,-432,-110,-1276,1291
6890,-304,-760,-488,-155,-1235,1298
6895,-272,-848,-448,-157,-1173,1305
6900,-272,-872,-328,-122,-1130,1338
6905,-192,-912,-192,-68,-1121,1408
6910,-160,-912,-40,-5,-1159,1505
6915,-112,-960,48,73,-1248,1627
6920,-80,-992,240,145,-1361,1767
6925,-112,-1016,416,197,-1470,1915
6930,-184,-1160,632,218,-1566,2066
6935,-264,-1216,816,220,-1671,2205
6940,-336,-1312,888,224,-1801,2341
6945,-496,-1456,872,272,-1935,2473
6950,-480,-1584,624,384,-2036,2569
6955,-472,-1680,368,517,-2060,2597
6960,-472,-1712,80,597,-2000,2561
6965,-512,-1696,-112,592,-1907,2431
6970,-488,-1648,-248,566,-1826,2257
6975,-424,-1576,-312,582,-1767,2092
6980,-456,-1448,-536,638,-1683,1930
6985,-464,-1384,-696,662,-1551,1786
6990,-504,-1232,-784,617,-1427,1657
6995,-464,-1120,-776,519,-1335,1544
7000,-464,-1016,-656,422,-1295,1425
7005,-424,-856,-576,365,-1319,1287
7010,-480,-672,-568,366,-1367,1167
7015,-560,-520,-640,414,-1386,1115
7020,-720,-432,-728,484,-1361,1139
7025,-936,-480,-680,539,-1346,1193
7030,-960,-512,-608,572,-1364,1254
7035,-872,-696,-560,558,-1394,1345
7040,-792,-856,-400,481,-1415,1470
7045,-664,-1048,-280,373,-1484,1603
7050,-480,-1304,-272,269,-1611,1673
7055,-200,-1528,-368,183,-1729,1684
7060,-16,-1720,-496,120,-1761,1676
7065,112,-1904,-568,99,-1700,1665
7070,224,-2008,-640,130,-1605,1619
7075,272,-2008,-648,182,-1530,1527
7080,320,-1960,-592,231,-1487,1411
7085,368,-1960,-688,287,-1476,1274
7090,176,-1952,-752,374,-1488,1148
7095,-152,-1928,-800,467,-1554,1106
7100,-320,-2160,-1000,464,-1710,1171
7105,-744,-2608,-944,318,-1872,1290
7110,-1064,-3072,-792,128,-1950,1504
7115,-1592,-3736,-1040,-14,-1913,1774
7120,-2200,-4424,-1768,-192,-1713,2059
7125,-2680,-5224,-2152,-515,-1425,2350
7130,-2680,-6136,-1520,-842,-1261,2684
7135,-2312,-6720,-984,-826,-1275,3075
7140,-1472,-7008,-192,-327,-1411,3358
7145,-1288,-6656,168,573,-1597,3398
7150,-1000,-5584,344,1599,-1746,3309
7155,-1104,-4024,392,2537,-1821,3080
7160,-1000,-3048,576,3251,-1731,2798
7165,-896,-1712,848,3766,-1493,2544
7170,-832,-120,1016,4085,-1216,2334
7175,-976,1432,1032,4070,-1041,2149
7180,-888,2312,1304,3660,-976,2038
7185,-816,2560,1448,2969,-971,2110
7190,-1072,2480,1888,2241,-922,2280
7195,-1592,1752,2072,1570,-984,2460
7200,-2296,240,2072,890,-1112,2641
7205,-3056,-1536,2816,215,-1354,2813
7210,-3776,-2888,3736,-268,-1785,2993
7215,-5080,-4384,4552,-432,-2348,3193
7220,-7704,-5792,5160,-312,-2744,3479
7225,-9424,-6672,5216,107,-2695,3841
7230,-11504,-7248,3528,734,-2266,3817
7235,-13448,-7320,2696,885,-1610,3569
7240,-13256,-6520,2512,776,-1022,3297
7245,-11000,-5200,2976,785,-722,2944
7250,-7552,-3592,2648,1094,-703,2593
7255,-3664,-1904,2784,1389,-765,2396
7260,-1824,-896,3896,1518,-886,2361
7265,-656,16,4232,1646,-1090,2511
7270,-408,1104,3672,1678,-1142,2773
7275,560,1424,4048,1440,-1256,3092
7280,-216,1384,3952,1199,-1689,3549
7285,-152,608,3064,1209,-2061,4014
7290,-1152,440,1816,1327,-2080,4183
7295,-2760,480,1136,1403,-1560,3959
7300,-4512,664,640,1447,-762,3520
7305,-5536,472,184,1344,-155,2829
7310,-6040,8,-32,1265,216,2052
7315,-5424,-496,160,1298,369,1388
7320,-4240,-784,600,1356,374,882
7325,-3000,-1088,1072,1316,326,502
7330,-2168,-1224,1368,1174,286,236
7335,-1328,-1448,1504,983,260,91
7340,-560,-1456,1432,751,240,78
7345,64,-1416,1336,474,201,141
7350,392,-1352,1128,240,157,262
7355,432,-1232,1008,142,121,412
7360,328,-944,880,177,107,568
7365,64,-696,760,280,170,767
7370,-232,-432,776,419,249,981
7375,-456,-192,744,523,339,1168
7380,-560,-16,864,580,485,1325
7385,-728,216,1120,554,668,1426
7390,-744,504,1440,480,872,1531
7395,-648,744,1664,407,1045,1652
7400,-664,888,1640,333,1112,1777
7405,-632,848,1520,251,1079,1893
7410,-600,728,1280,197,953,2010
7415,-488,584,960,160,777,2125
7420,-304,496,672,126,633,2188
7425,-352,464,576,104,538,2150
7430,-512,472,528,148,459,2052
7435,-616,544,528,245,391,1912
7440,-800,712,560,353,384,1754
7445,-1008,840,688,414,456,1616
7450,-1136,920,776,431,579,1489
7455,-1296,952,872,435,722,1375
7460,-1432,992,896,426,850,1302
7465,-1528,1088,888,387,927,1264
7470,-1616,1160,880,323,954,1248
7475,-1704,1192,904,243,940,1259
7480,-1792,1128,944,143,890,1299
7485,-1888,1048,1024,22,788,1344
7490,-2024,1008,1048,-104,625,1375
7495,-1848,832,1048,-235,418,1383
7500,-1840,648,1152,-348,215,1383
7505,-1848,584,1232,-434,48,1375
7510,-1920,440,1272,-501,-87,1363
7515,-1912,240,1264,-537,-248,1335
7520,-1936,80,1200,-548,-376,1285
7525,-1928,48,1120,-525,-474,1201
7530,-1888,24,1064,-461,-515,1097
7535,-1728,48,912,-373,-505,980
7540,-1608,160,800,-274,-454,861
7545,-1552,376,792,-183,-382,753
7550,-1544,592,824,-100,-311,667
7555,-1536,736,888,-57,-253,596
7560,-1656,936,1024,-34,-213,536
7565,-1624,1064,1072,-36,-196,483
7570,-1680,1160,1168,-63,-200,434
7575,-1672,1168,1224,-100,-220,390
7580,-1632,1208,1272,-135,-239,348
7585,-1568,1160,1344,-154,-243,322
7590,-1528,1072,1328,-152,-237,290
7595,-1464,992,1240,-137,-226,266
7600,-1408,936,1256,-113,-204,241
7605,-1272,808,1152,-82,-180,216
7610,-1208,744,1104,-44,-149,190
7615,-1168,704,1056,-2,-110,170
7620,-1120,688,1016,27,-67,155
7625,-1072,688,1016,26,-27,120
7630,-1032,736,1024,2,12,80
7635,-1000,728,1072,-31,49,36
7640,-1040,824,1112,-73,83,2
7645,-1104,864,1200,-118,106,-15
7650,-1152,888,1152,-167,88,-37
7655,-1264,944,1120,-243,56,-32
7660,-1336,944,1128,-337,-7,-17
7665,-1328,1016,1176,-428,-92,-10
7670,-1328,992,1232,-503,-184,-14
7675,-1392,992,1232,-549,-282,-20
7680,-1384,960,1248,-563,-386,-28
7685,-1240,912,1216,-558,-492,-41
7690,-1128,880,1208,-540,-578,-74
7695,-1112,840,1232,-517,-634,-117
7700,-1096,856,1232,-495,-663,-159
7705,-1112,816,1248,-475,-676,-212
7710,-1160,824,1200,-469,-678,-270
7715,-1240,760,1152,-488,-670,-319
7720,-1304,776,1128,-540,-656,-363
7725,-1208,736,1136,-611,-629,-400
7730,-1096,664,1144,-685,-585,-431
7735,-960,600,1152,-753,-525,-467
7740,-896,528,1208,-808,-444,-503
7745,-896,496,1376,-839,-345,-543
7750,-952,448,1512,-839,-246,-570
7755,-976,392,1608,-815,-171,-592
7760,-1056,256,1728,-783,-99,-619
7765,-1152,192,1744,-736,-22,-676
7770,-1208,192,1816,-683,64,-739
7775,-1208,240,1792,-637,143,-802
7780,-1328,256,1776,-602,213,-868
7785,-1400,272,1776,-556,253,-934
7790,-1512,352,1656,-506,270,-989
7795,-1592,272,1640,-453,253,-1020
7800,-1496,280,1688,-358,220,-1019
7805,-1352,256,1640,-251,195,-1035
7810,-1328,280,1672,-167,164,-1055
7815,-1512,288,1824,-79,119,-1055
7820,-1728,272,2176,55,38,-1039
7825,-1792,224,2296,288,-59,-985
7830,-1552,280,2224,601,-124,-909
7835,-1040,200,1992,880,-88,-878
7840,-1024,208,1632,1031,72,-928
7845,-1472,200,1512,999,231,-983
7850,-1800,8,1512,828,291,-968
7855,-1800,-120,1440,680,262,-827
7860,-1656,-192,1512,565,274,-647
7865,-1520,-272,1616,477,339,-512
7870,-1544,-312,1776,410,474,-421
7875,-1544,-360,1904,383,630,-355
7880,-1576,-352,1904,396,766,-300
7885,-1648,-328,1816,415,855,-260
7890,-1720,-288,1680,417,890,-214
7895,-1760,-224,1704,383,884,-173
7900,-1688,-184,1536,335,851,-171
7905,-1688,-168,1480,283,839,-218
7910,-1704,-144,1336,255,875,-284
7915,-1576,-144,1248,270,954,-368
7920,-1488,-144,1208,315,1055,-491
7925,-1272,-184,1096,363,1156,-629
7930,-1128,-160,1032,401,1256,-763
7935,-984,-176,1000,418,1317,-889
7940,-952,-128,912,425,1356,-979
7945,-848,-160,856,428,1372,-1025
7950,-800,-96,752,425,1354,-1042
7955,-784,-32,808,419,1305,-1058
7960,-832,-48,784,420,1219,-1072
7965,-1008,24,720,418,1104,-1088
7970,-1112,32,656,396,981,-1084
7975,-1224,16,632,363,870,-1064
7980,-1312,0,536,316,775,-1042
7985,-1384,-40,608,266,703,-1021
7990,-1408,-40,520,241,649,-996
7995,-1504,-88,488,199,610,-983
8000,-1544,-224,512,158,579,-965
8005,-1568,-288,568,136,557,-933
8010,-1592,-328,560,129,540,-902
8015,-1696,-352,576,133,526,-869
8020,-1824,-392,584,137,508,-821
8025,-1912,-392,664,140,477,-761
8030,-2008,-440,680,134,436,-698
8035,-2056,-488,696,113,385,-643
8040,-2184,-448,704,79,307,-608
8045,-2296,-384,656,43,226,-592
8050,-2320,-360,568,-1,164,-565
8055,-2304,-352,544,-61,115,-549
8060,-2128,-432,640,-136,51,-570
8065,-2048,-464,632,-193,-10,-630
8070,-2136,-504,648,-225,-41,-674
8075,-2192,-544,792,-225,-80,-687
8080,-2368,-504,944,-174,-121,-673
8085,-2552,-464,1048,-90,-197,-643
8090,-2560,-400,1112,11,-330,-617
8095,-2536,-408,992,107,-458,-618
8100,-2600,-440,1000,176,-530,-623
8105,-2608,-504,1000,208,-540,-610
8110,-2576,-584,1008,212,-505,-572
8115,-2472,-720,968,204,-445,-520
8120,-2352,-776,912,181,-355,-452
8125,-2208,-792,912,121,-194,-382
8130,-2136,-896,944,38,12,-294
8135,-2080,-928,992,-35,200,-196
8140,-1936,-896,984,-86,323,-107
8145,-1856,-920,1024,-142,437,-31
8150,-1720,-920,1072,-172,511,33
8155,-1720,-904,1120,-171,553,76
8160,-1536,-800,1064,-134,561,99
8165,-1512,-752,1072,-84,571,87
8170,-1472,-704,1120,-26,576,47
8175,-1416,-624,1104,39,572,-19
8180,-1416,-560,1072,100,559,-98
8185,-1448,-512,1048,154,543,-188
8190,-1456,-504,1008,194,516,-272
8195,-1504,-432,952,211,482,-328
8200,-1480,-392,936,214,445,-372
8205,-1440,-416,848,204,416,-406
8210,-1400,-376,832,187,395,-429
8215,-1440,-416,808,163,384,-439
8220,-1488,-368,784,137,371,-427
8225,-1528,-352,768,100,361,-396
8230,-1520,-376,768,45,352,-357
8235,-1544,-328,744,-28,342,-313
8240,-1560,-336,760,-111,330,-270
8245,-1584,-328,752,-198,314,-232
8250,-1624,-312,824,-283,298,-195
8255,-1624,-312,808,-322,278,-164
8260,-1576,-368,848,-343,270,-141
8265,-1640,-368,808,-348,284,-128
8270,-1824,-272,816,-327,299,-92
8275,-1824,-256,848,-299,301,-49
8280,-1832,-264,864,-276,301,-29
8285,-1864,-240,872,-253,306,-25
8290,-1872,-216,856,-217,308,-16
8295,-1872,-160,880,-188,313,-8
8300,-1904,-160,848,-173,319,-1
8305,-1936,-184,848,-162,318,4
8310,-1928,-232,920,-149,307,12
8315,-1952,-224,912,-130,292,25
8320,-1960,-264,936,-107,271,47
8325,-1896,-352,904,-79,253,77
8330,-2000,-352,920,-57,245,109
8335,-1992,-384,904,-39,242,145
8340,-2032,-424,880,-28,245,181
8345,-2048,-456,936,-18,258,215
8350,-2048,-416,832,-4,267,251
8355,-2064,-400,864,1,284,271
8360,-2080,-432,872,5,306,283
8365,-2080,-392,864,15,326,287
8370,-2056,-336,824,29,352,284
8375,-2064,-264,816,34,387,273
8380,-2032,-256,720,37,424,255
8385,-2056,-200,736,32,460,232
8390,-2040,-168,704,25,482,205
8395,-2024,-152,680,17,500,178
8400,-2024,-112,648,11,509,149
8405,-1992,-112,616,5,506,121
8410,-1976,-80,576,2,499,92
8415,-1968,-80,560,-2,486,65
8420,-1912,-72,520,-8,469,43
8425,-1936,-48,560,-17,442,22
8430,-1920,-64,464,-23,408,2
8435,-1904,-48,520,-32,371,-12
8440,-1904,-24,512,-40,330,-21
8445,-1856,-64,528,-50,288,-31
8450,-1880,-64,544,-58,243,-40
8455,-1872,-88,544,-68,201,-47
8460,-1872,-136,600,-72,163,-56
8465,-1880,-160,632,-74,125,-63
8470,-1864,-184,640,-69,85,-71
8475,-1904,-208,680,-58,48,-83
8480,-1912,-184,624,-46,17,-90
8485,-1880,-232,728,-36,-4,-94
8490,-1904,-240,688,-29,-14,-90
8495,-1944,-264,704,-27,-23,-85
8500,-1944,-280,672,-25,-34,-77
8505,-1976,-304,704,-19,-44,-71
8510,-1976,-296,712,-13,-57,-64
8515,-1976,-344,672,-3,-66,-55
8520,-1976,-320,672,11,-72,-45
8525,-2016,-280,704,27,-79,-33
8530,-2008,-344,640,45,-85,-25
8535,-2024,-336,664,63,-92,-16
8540,-2032,-360,648,80,-99,-9
8545,-2008,-360,600,93,-104,-5
8550,-2008,-336,616,105,-107,-3
8555,-2040,-336,616,119,-111,-1
8560,-2024,-360,632,134,-116,-1
8565,-2016,-384,648,155,-116,-3
8570,-2008,-368,608,176,-114,-6
8575,-1984,-408,672,198,-116,-7
8580,-1992,-400,648,218,-115,-11
8585,-2000,-392,664,233,-117,-15
8590,-1984,-408,624,243,-118,-16
8595,-1920,-424,600,249,-122,-18
8600,-1944,-384,688,252,-127,-22
8605,-1920,-392,656,251,-133,-25
8610,-1928,-376,688,246,-139,-25
8615,-1888,-392,688,240,-149,-23
8620,-1880,-392,728,236,-160,-22
8625,-1888,-376,744,232,-171,-22
8630,-1872,-344,728,222,-180,-23
8635,-1824,-360,728,207,-188,-21
8640,-1840,-352,712,190,-195,-20
8645,-1816,-344,752,175,-202,-19
8650,-1832,-328,744,160,-205,-18
8655,-1816,-304,736,146,-213,-14
8660,-1776,-320,768,131,-217,-11
8665,-1776,-312,776,115,-218,-11
8670,-1760,-344,776,101,-220,-10
8675,-1736,-320,792,87,-220,-9
8680,-1744,-360,784,75,-217,-11
8685,-1752,-352,784,65,-213,-11
8690,-1752,-320,824,59,-209,-10
8695,-1768,-336,808,58,-204,-14
8700,-1736,-344,832,58,-197,-17
8705,-1720,-368,824,60,-191,-19
8710,-1728,-352,872,62,-184,-20
8715,-1712,-344,856,64,-181,-22
8720,-1704,-368,888,69,-178,-25
8725,-1704,-360,872,72,-176,-29
8730,-1696,-344,912,75,-173,-34
8735,-1744,-344,912,73,-168,-36
8740,-1704,-352,920,72,-162,-38
8745,-1744,-320,896,72,-151,-42
8750,-1736,-344,912,72,-138,-42
8755,-1784,-280,888,74,-124,-41
8760,-1776,-328,880,75,-107,-39
8765,-1768,-312,872,74,-90,-37
8770,-1760,-336,896,70,-71,-38
8775,-1768,-312,912,65,-55,-36
8780,-1744,-320,896,64,-38,-35
8785,-1736,-296,880,63,-23,-36
8790,-1720,-320,880,67,-9,-38
8795,-1736,-328,888,73,4,-40
8800,-1736,-320,888,82,15,-42
8805,-1712,-360,864,91,26,-43
8810,-1712,-304,880,100,36,-45
8815,-1712,-320,872,109,42,-45
8820,-1728,-320,864,116,49,-43
8825,-1736,-312,832,121,55,-42
8830,-1768,-304,864,125,61,-40
8835,-1752,-296,856,127,66,-38
8840,-1768,-264,848,129,71,-33
8845,-1800,-288,832,128,77,-28
8850,-1776,-312,816,126,81,-22
8855,-1784,-304,792,122,83,-16
8860,-1768,-304,800,121,85,-12
8865,-1728,-328,808,119,84,-11
8870,-1760,-336,800,119,79,-7
8875,-1784,-312,832,117,75,-4
8880,-1808,-312,776,116,70,-2
8885,-1792,-312,792,117,64,0
8890,-1848,-312,792,119,59,1
8895,-1856,-312,784,121,52,0
8900,-1832,-264,792,120,48,2
8905,-1832,-280,784,118,44,3
8910,-1864,-304,744,116,40,4
8915,-1864,-296,752,115,36,5
8920,-1888,-248,720,114,31,6
8925,-1864,-272,728,114,28,4
8930,-1864,-280,752,114,23,3
8935,-1848,-272,760,116,18,2
8940,-1840,-320,784,117,14,3
8945,-1840,-312,784,116,12,2
8950,-1864,-304,776,112,11,3
8955,-1848,-328,800,104,7,5
8960,-1856,-336,816,95,5,9
8965,-1864,-320,784,84,2,10
8970,-1864,-304,760,76,0,13
8975,-1864,-328,784,69,-2,15
8980,-1848,-320,792,64,-3,17
8985,-1856,-288,752,57,0,17
8990,-1856,-320,768,53,3,17
8995,-1824,-280,800,49,5,19
9000,-1840,-288,784,47,6,19
9005,-1832,-296,792,48,5,16
9010,-1856,-280,760,48,2,11
9015,-1808,-256,792,49,0,10
9020,-1800,-264,784,52,-3,8
9025,-1792,-264,856,57,-7,6
9030,-1792,-288,784,60,-12,4
9035,-1816,-264,768,63,-16,1
9040,-1824,-272,784,65,-21,1
9045,-1832,-280,840,65,-27,0
9050,-1816,-256,832,64,-31,0
9055,-1840,-280,816,63,-34,1
9060,-1848,-312,808,62,-36,2
9065,-1800,-280,840,63,-38,3
9070,-1848,-272,824,64,-36,3
9075,-1824,-288,800,66,-31,3
9080,-1840,-304,856,68,-24,3
9085,-1840,-264,880,72,-18,1
9090,-1840,-272,824,76,-11,-2
9095,-1808,-264,832,83,-8,-6
9100,-1808,-264,824,89,-7,-9
9105,-1800,-256,824,91,-10,-14
9110,-1784,-264,792,94,-11,-16
9115,-1792,-288,832,91,-8,-16
9120,-1800,-272,808,90,-7,-16
9125,-1792,-288,848,85,-6,-17
9130,-1824,-272,848,82,-6,-20
9135,-1848,-280,840,80,-4,-20
9140,-1800,-280,824,77,-5,-23
9145,-1832,-280,832,72,-6,-25
9150,-1824,-272,816,68,-8,-27
9155,-1800,-304,816,64,-10,-29
9160,-1824,-296,816,58,-8,-29
9165,-1864,-288,816,51,-5,-27
9170,-1832,-296,832,44,2,-25
9175,-1864,-272,824,40,6,-26
9180,-1824,-312,800,35,9,-25
9185,-1800,-280,848,33,12,-26
9190,-1800,-336,744,34,14,-26
9195,-1824,-304,816,37,15,-27
9200,-1816,-304,808,40,14,-28
9205,-1824,-296,864,40,14,-30
9210,-1784,-304,856,44,13,-30
9215,-1808,-312,824,47,15,-29
9220,-1824,-304,856,50,15,-28
9225,-1792,-344,840,55,12,-26
9230,-1840,-288,856,59,12,-24
9235,-1816,-336,816,62,13,-24
9240,-1856,-328,792,63,14,-23
9245,-1856,-352,784,65,14,-21
9250,-1848,-320,792,66,14,-22
9255,-1832,-328,800,67,14,-24
9260,-1808,-320,784,68,14,-23
9265,-1848,-288,792,70,14,-24
9270,-1824,-296,792,72,12,-24
9275,-1824,-304,808,73,10,-26
9280,-1824,-312,816,76,10,-24
9285,-1816,-312,840,77,8,-23
9290,-1840,-296,792,78,5,-21
9295,-1792,-312,792,78,2,-19
9300,-1824,-296,848,75,-2,-17
9305,-1832,-288,800,71,-4,-16
9310,-1808,-296,784,66,-5,-13
9315,-1808,-320,800,64,-5,-8
9320,-1816,-304,808,60,-5,-7
9325,-1824,-296,808,59,-9,-3
9330,-1816,-328,856,59,-12,-1
9335,-1784,-328,792,59,-19,0
9340,-1824,-288,808,62,-25,0
9345,-1800,-328,808,64,-29,-2
9350,-1840,-304,816,67,-35,0
9355,-1848,-296,792,70,-39,1
9360,-1824,-312,824,73,-40,-2
9365,-1816,-288,808,76,-44,-1
9370,-1840,-320,824,79,-44,-1
9375,-1832,-296,824,81,-45,-2
9380,-1824,-312,816,85,-45,-3
9385,-1816,-296,808,85,-43,-3
9390,-1824,-296,816,85,-44,-4
9395,-1800,-296,872,86,-45,-5
9400,-1840,-272,840,82,-42,-6
9405,-1824,-304,816,82,-41,-5
9410,-1800,-312,792,81,-41,-7
9415,-1808,-304,840,80,-42,-9
9420,-1816,-280,832,76,-41,-11
9425,-1808,-296,832,73,-42,-12
9430,-1816,-264,832,72,-46,-15
9435,-1808,-288,824,68,-47,-15
9440,-1816,-272,832,63,-49,-17
9445,-1816,-256,840,60,-48,-17
9450,-1800,-312,816,58,-45,-17
9455,-1792,-296,880,56,-44,-17
9460,-1800,-288,856,56,-40,-17
9465,-1832,-304,808,58,-37,-17
9470,-1800,-248,832,58,-34,-18
9475,-1792,-280,856,59,-30,-16
9480,-1800,-280,856,61,-26,-17
9485,-1784,-288,832,64,-24,-15
9490,-1800,-280,864,69,-25,-17
9495,-1776,-304,864,73,-26,-16
9500,-1784,-328,904,77,-28,-17
9505,-1792,-264,848,81,-30,-17
9510,-1776,-280,888,87,-31,-19
9515,-1784,-272,856,91,-29,-19
9520,-1792,-280,832,94,-28,-21
9525,-1792,-280,880,97,-29,-22
9530,-1792,-280,872,99,-26,-25
9535,-1800,-304,888,97,-24,-26
9540,-1792,-272,864,95,-19,-28
9545,-1800,-280,896,93,-17,-28
9550,-1784,-280,912,91,-13,-29
9555,-1800,-304,888,91,-10,-29
9560,-1784,-336,888,94,-6,-30
9565,-1792,-336,904,99,-1,-32
9570,-1824,-288,880,102,3,-31
9575,-1824,-360,840,104,8,-31
9580,-1792,-320,832,105,15,-30
9585,-1800,-304,872,106,19,-29
9590,-1776,-336,840,106,22,-27
9595,-1792,-320,864,105,24,-25
9600,-1800,-312,848,106,26,-23
9605,-1784,-320,840,105,25,-20
9610,-1784,-312,848,105,24,-17
9615,-1760,-320,840,101,22,-16
9620,-1776,-304,872,95,17,-14
9625,-1816,-320,816,90,12,-10
9630,-1792,-296,840,83,5,-8
9635,-1808,-296,824,75,0,-9
9640,-1816,-288,840,67,-6,-9
9645,-1816,-288,832,60,-11,-8
9650,-1832,-272,832,52,-13,-8
9655,-1824,-296,832,45,-16,-10
9660,-1840,-296,800,38,-16,-10
9665,-1800,-288,792,33,-15,-11
9670,-1816,-264,840,28,-15,-10
9675,-1840,-280,864,24,-17,-11
9680,-1848,-288,824,21,-20,-11
9685,-1800,-296,832,19,-25,-12
9690,-1824,-304,824,18,-30,-13
9695,-1816,-304,848,17,-34,-12
9700,-1840,-288,840,19,-39,-16
9705,-1840,-296,880,21,-42,-14
9710,-1832,-312,824,24,-43,-12
9715,-1832,-304,808,26,-45,-11
9720,-1824,-304,792,27,-45,-9
9725,-1856,-288,800,30,-46,-7
9730,-1824,-272,832,34,-47,-6
9735,-1824,-304,816,36,-47,-3
9740,-1824,-296,816,40,-48,-3
9745,-1800,-288,864,45,-49,-3
9750,-1824,-280,872,48,-50,-3
9755,-1816,-272,856,53,-52,-1
9760,-1808,-304,856,59,-52,-1
9765,-1792,-296,864,64,-50,-2
9770,-1792,-312,872,71,-49,-2
9775,-1840,-296,832,76,-50,-2
9780,-1808,-264,824,79,-53,-2
9785,-1800,-264,864,83,-56,-2
9790,-1752,-264,840,85,-59,0
9795,-1768,-280,880,89,-62,-2
9800,-1808,-296,880,91,-65,-2
9805,-1752,-288,880,95,-66,-1
9810,-1792,-256,888,95,-67,-1
9815,-1768,-272,880,98,-67,-3
9820,-1776,-272,904,99,-63,-5
9825,-1760,-264,896,100,-58,-7
9830,-1784,-272,880,99,-51,-8
9835,-1752,-288,856,98,-42,-8
9840,-1776,-296,920,97,-34,-11
9845,-1744,-360,856,98,-27,-11
9850,-1752,-312,872,100,-21,-12
9855,-1752,-296,872,100,-18,-14
9860,-1768,-304,912,99,-16,-15
9865,-1752,-296,920,100,-13,-16
9870,-1768,-304,864,100,-13,-14
9875,-1760,-288,888,101,-10,-16
9880,-1744,-296,888,103,-10,-15
9885,-1744,-312,912,101,-10,-15
9890,-1744,-280,888,100,-10,-14
9895,-1784,-288,912,98,-9,-15
9900,-1752,-368,888,97,-8,-14
9905,-1768,-288,928,92,-8,-16
9910,-1768,-280,888,90,-7,-17
9915,-1776,-288,904,84,-4,-15
9920,-1784,-272,888,82,-2,-16
9925,-1784,-296,896,77,0,-17
9930,-1784,-272,896,71,1,-19
9935,-1776,-264,920,68,3,-18
9940,-1776,-288,912,64,5,-19
9945,-1776,-304,872,62,10,-21
9950,-1784,-256,880,60,12,-22
9955,-1792,-296,888,58,14,-21
9960,-1776,-280,880,56,17,-22
9965,-1800,-272,888,53,20,-24
9970,-1784,-272,904,53,22,-23
9975,-1800,-296,896,53,24,-21
9980,-1800,-296,872,53,27,-20
9985,-1744,-312,856,52,27,-20
9990,-1752,-288,880,52,28,-20
9995,-1776,-272,864,53,29,-20
10000,-1784,-272,896,55,29,-19
10005,-1784,-272,928,56,31,-18
10010,-1752,-232,816,56,30,-19
10015,-1808,-264,896,57,31,-20
10020,-1792,-280,880,57,30,-18
10025,-1800,-264,880,55,29,-17
10030,-1768,-288,904,56,28,-18
10035,-1808,-264,888,56,29,-17
10040,-1784,-280,864,55,27,-18
10045,-1800,-264,872,53,27,-16
10050,-1800,-264,856,52,27,-15
10055,-1784,-296,904,54,25,-17
10060,-1800,-288,872,55,23,-15
10065,-1768,-312,888,54,22,-15
10070,-1784,-288,904,51,20,-15
10075,-1784,-304,856,48,19,-14
10080,-1808,-288,880,45,19,-15
10085,-1808,-280,880,43,20,-14
10090,-1824,-272,872,40,21,-14
10095,-1792,-288,880,39,22,-15
10100,-1808,-280,856,39,25,-13
10105,-1776,-288,864,40,27,-12
10110,-1808,-272,840,39,29,-13
10115,-1808,-296,896,39,32,-13
10120,-1776,-296,832,39,33,-14
10125,-1768,-304,872,39,31,-12
10130,-1808,-280,888,38,29,-12
10135,-1784,-280,864,40,27,-12
10140,-1792,-280,856,41,23,-12
10145,-1816,-264,848,41,20,-10
10150,-1776,-288,856,38,15,-11
10155,-1800,-272,864,35,12,-11
10160,-1800,-288,888,30,11,-10
10165,-1808,-288,864,26,12,-9
10170,-1792,-296,880,24,12,-7
10175,-1792,-296,872,23,12,-7
10180,-1800,-296,896,22,12,-9
10185,-1800,-288,904,22,11,-8
10190,-1808,-288,864,25,10,-6
10195,-1792,-296,840,27,9,-8
10200,-1808,-288,848,27,9,-10
10205,-1808,-304,848,27,7,-13
10210,-1848,-256,864,26,4,-13
10215,-1800,-288,880,26,2,-14
10220,-1816,-264,864,23,2,-15
10225,-1776,-288,880,22,1,-16
10230,-1808,-264,872,20,1,-17
10235,-1784,-328,840,22,1,-17
10240,-1816,-288,888,22,2,-17
10245,-1792,-320,880,24,2,-20
10250,-1800,-304,896,29,5,-18
10255,-1808,-304,880,36,10,-19
10260,-1824,-272,880,44,15,-17
10265,-1800,-336,880,52,18,-16
10270,-1816,-312,840,58,21,-14
10275,-1784,-304,848,63,24,-13
10280,-1776,-280,864,66,26,-13
10285,-1760,-312,920,70,27,-10
10290,-1744,-296,872,75,27,-11
10295,-1768,-280,904,78,27,-9
10300,-1776,-280,888,81,26,-6
10305,-1792,-280,864,81,26,-6
10310,-1752,-280,864,82,25,-4
10315,-1760,-272,880,82,25,-3
10320,-1728,-280,896,81,22,-2
10325,-1808,-272,856,80,20,-1
10330,-1760,-296,872,79,18,-2
10335,-1800,-304,856,74,16,-1
10340,-1776,-320,864,70,17,1
10345,-1760,-280,880,65,14,1
10350,-1792,-304,880,58,15,-1
10355,-1776,-280,880,54,15,0
10360,-1800,-272,896,50,19,-1
10365,-1800,-280,880,48,20,-2
10370,-1808,-312,864,46,24,-2
10375,-1784,-312,896,45,26,-1
10380,-1800,-288,904,43,27,-3
10385,-1792,-296,864,43,29,-6
10390,-1792,-288,864,42,30,-6
10395,-1808,-280,872,42,31,-9
10400,-1808,-248,856,44,33,-11
10405,-1808,-264,824,45,35,-12
10410,-1816,-272,864,44,39,-15
10415,-1800,-272,840,44,42,-17
10420,-1792,-296,840,46,44,-18
10425,-1792,-280,880,45,46,-19
10430,-1808,-272,856,46,45,-19
10435,-1816,-256,816,48,43,-19
10440,-1792,-272,848,50,39,-22
10445,-1776,-320,824,52,36,-20
10450,-1800,-312,856,54,31,-21
10455,-1784,-280,848,55,26,-20
10460,-1776,-280,880,55,21,-19
10465,-1792,-280,872,51,16,-18
10470,-1792,-288,848,48,12,-16
10475,-1792,-264,864,45,9,-13
10480,-1776,-312,840,41,6,-11
10485,-1824,-232,872,36,4,-12
10490,-1792,-272,856,33,3,-8
10495,-1784,-256,832,33,4,-7
10500,-1856,-320,896,32,5,-7
10505,-1784,-288,880,34,8,-7
10510,-1824,-296,864,35,14,-6
10515,-1784,-296,872,39,17,-6
10520,-1784,-312,928,42,22,-6
10525,-1816,-280,896,48,28,-2
10530,-1808,-296,888,52,33,-3
10535,-1792,-288,912,58,34,-1
10540,-1768,-312,904,63,34,-1
10545,-1792,-304,912,66,34,0
10550,-1784,-312,920,67,33,0
10555,-1784,-312,872,65,32,2
10560,-1776,-320,888,62,32,2
10565,-1760,-296,856,59,31,0
10570,-1784,-304,896,55,31,0
10575,-1776,-288,920,53,34,0
10580,-1776,-280,880,51,36,0
10585,-1776,-288,872,51,39,-3
10590,-1768,-312,856,52,41,-5
10595,-1816,-280,832,51,44,-5
10600,-1784,-296,864,49,47,-6
10605,-1832,-272,888,47,52,-9
10610,-1840,-264,848,45,57,-11
10615,-1784,-296,824,42,60,-11
10620,-1776,-304,872,38,63,-11
10625,-1808,-272,888,36,62,-12
10630,-1776,-312,856,34,60,-13
10635,-1776,-272,864,33,56,-13
10640,-1784,-280,904,33,50,-12
10645,-1784,-296,840,33,43,-12
10650,-1800,-272,832,34,38,-12
10655,-1816,-296,840,33,35,-12
10660,-1800,-352,864,34,32,-11
10665,-1800,-288,848,34,31,-9
10670,-1816,-296,840,34,31,-8
10675,-1808,-304,856,35,31,-7
10680,-1832,-304,840,36,32,-7
10685,-1832,-272,848,38,34,-8
10690,-1816,-288,848,38,35,-9
10695,-1816,-280,880,41,37,-9
10700,-1824,-288,848,43,37,-11
10705,-1784,-296,872,46,37,-14
10710,-1808,-280,864,49,36,-14
10715,-1816,-312,856,53,36,-15
10720,-1792,-280,848,57,37,-15
10725,-1808,-296,840,62,35,-16
10730,-1784,-304,840,63,33,-15
10735,-1800,-288,808,66,31,-16
10740,-1800,-312,848,68,27,-15
10745,-1808,-264,824,69,22,-14
10750,-1816,-304,824,67,17,-13
10755,-1824,-296,856,66,12,-14
10760,-1800,-296,832,64,9,-13
10765,-1832,-304,824,62,7,-11
10770,-1832,-232,816,60,7,-8
10775,-1816,-312,832,58,7,-6
10780,-1816,-272,840,56,9,-5
10785,-1832,-296,864,54,10,-1
10790,-1824,-264,824,54,10,-1
10795,-1808,-264,824,55,9,-1
10800,-1792,-296,832,57,8,-2
10805,-1784,-296,888,61,8,-1
10810,-1800,-280,880,65,8,-2
10815,-1800,-288,840,68,8,-2
10820,-1840,-280,864,73,7,-2
10825,-1784,-296,872,78,4,0
10830,-1792,-264,848,85,3,1
10835,-1808,-264,856,93,3,1
10840,-1792,-288,880,101,2,2
10845,-1816,-272,872,107,1,4
10850,-1800,-296,872,109,-2,2
10855,-1784,-280,840,107,-5,3
10860,-1808,-296,832,104,-5,3
10865,-1800,-312,856,102,-4,-1
10870,-1808,-288,864,101,-4,-2
10875,-1808,-304,872,101,0,-4
10880,-1792,-312,856,99,5,-5
10885,-1808,-280,856,100,11,-4
10890,-1800,-288,864,101,14,-6
10895,-1792,-264,864,102,17,-6
10900,-1800,-288,872,103,21,-10
10905,-1800,-280,840,102,22,-10
10910,-1776,-280,872,100,24,-12
10915,-1752,-272,880,97,29,-13
10920,-1776,-272,856,95,32,-13
10925,-1776,-288,864,95,35,-14
10930,-1776,-288,848,94,37,-14
10935,-1808,-240,840,94,35,-15
10940,-1776,-304,864,91,32,-17
10945,-1768,-288,864,89,31,-20
10950,-1808,-248,864,86,27,-21
10955,-1808,-272,872,82,26,-20
10960,-1792,-272,872,77,24,-20
10965,-1792,-304,888,73,24,-20
10970,-1792,-256,816,68,25,-20
10975,-1816,-264,832,63,28,-18
10980,-1768,-296,872,57,29,-17
10985,-1816,-288,864,52,30,-17
10990,-1840,-320,816,48,32,-13
10995,-1792,-272,848,46,33,-14
11000,-1800,-288,840,44,32,-13
11005,-1784,-304,824,45,27,-13
11010,-1800,-280,840,44,23,-13
11015,-1840,-280,856,42,20,-12
11020,-1824,-312,864,40,16,-13
11025,-1800,-264,832,39,16,-12
11030,-1840,-272,824,37,15,-11
11035,-1824,-272,816,37,15,-10
11040,-1816,-272,848,37,15,-9
11045,-1832,-240,864,39,16,-8
11050,-1792,-280,864,40,15,-6
11055,-1808,-312,848,43,12,-7
11060,-1800,-280,824,46,9,-8
11065,-1824,-288,872,49,9,-7
11070,-1824,-304,880,53,6,-8
11075,-1824,-304,840,55,4,-6
11080,-1816,-336,856,58,4,-8
11085,-1808,-296,800,60,4,-9
11090,-1824,-304,824,62,7,-8
11095,-1816,-280,864,66,11,-11
11100,-1840,-328,840,69,16,-11
11105,-1824,-280,864,72,23,-8
11110,-1824,-272,840,74,29,-9
11115,-1792,-272,832,74,32,-7
11120,-1800,-264,872,77,33,-5
11125,-1776,-264,832,78,31,-2
11130,-1768,-264,864,80,26,-2
11135,-1784,-264,880,81,20,-1
11140,-1768,-280,864,85,10,1
11145,-1792,-256,840,86,4,2
11150,-1832,-272,792,90,-4,3
11155,-1800,-264,856,91,-15,4
11160,-1792,-280,848,91,-24,3
11165,-1832,-248,872,87,-28,2
11170,-1792,-288,848,84,-28,-2
11175,-1816,-272,864,82,-28,-2
11180,-1808,-280,872,80,-25,-5
11185,-1832,-280,872,78,-22,-7
11190,-1800,-272,912,77,-20,-9
11195,-1808,-272,856,78,-16,-10
11200,-1808,-280,880,81,-13,-13
11205,-1808,-272,832,81,-9,-15
11210,-1832,-272,824,85,-6,-18
11215,-1816,-280,880,91,-3,-19
11220,-1808,-288,864,95,-1,-19
11225,-1800,-272,856,100,2,-19
11230,-1808,-280,840,104,2,-19
11235,-1816,-280,856,106,1,-18
11240,-1776,-296,840,105,-1,-17
11245,-1808,-256,896,108,-2,-17
11250,-1832,-264,848,109,-5,-18
11255,-1816,-240,832,110,-7,-16
11260,-1816,-272,880,113,-7,-17
11265,-1800,-256,832,115,-6,-17
11270,-1808,-272,880,113,-5,-18
11275,-1808,-288,840,110,-5,-15
11280,-1832,-264,856,103,-4,-15
11285,-1816,-272,848,98,-1,-14
11290,-1808,-256,848,92,1,-13
11295,-1800,-288,856,87,2,-13
11300,-1800,-264,904,85,2,-13
11305,-1800,-240,840,81,4,-12
11310,-1816,-264,864,78,2,-13
11315,-1784,-320,904,77,1,-14
11320,-1816,-280,848,76,-4,-14
11325,-1800,-280,864,72,-8,-12
11330,-1768,-264,888,69,-13,-11
11335,-1784,-264,872,67,-16,-10
11340,-1792,-256,864,65,-17,-9
11345,-1808,-256,888,63,-16,-11
11350,-1792,-288,864,61,-15,-10
11355,-1792,-264,896,59,-13,-8
11360,-1808,-272,864,58,-8,-7
11365,-1824,-272,848,58,-3,-5
11370,-1816,-296,872,58,1,-4
11375,-1776,-264,824,58,3,-5
11380,-1816,-280,848,59,3,-5
11385,-1752,-288,880,61,4,-5
11390,-1784,-264,848,62,3,-5
11395,-1776,-280,872,63,3,-6
11400,-1776,-296,864,63,1,-5
11405,-1808,-280,888,65,0,-5
11410,-1768,-280,904,68,-1,-4
11415,-1784,-264,896,69,1,-5
11420,-1792,-280,856,67,3,-5
11425,-1816,-280,848,68,4,-5
11430,-1792,-264,888,65,4,-4
11435,-1800,-256,856,65,5,-6
11440,-1784,-280,888,64,6,-8
11445,-1776,-280,888,63,9,-7
11450,-1800,-248,888,62,11,-9
11455,-1776,-264,872,62,12,-8
11460,-1768,-288,896,62,14,-10
11465,-1776,-272,896,63,18,-12
11470,-1792,-264,888,63,18,-13
11475,-1808,-256,872,63,20,-13
11480,-1768,-288,960,62,21,-13
11485,-1784,-224,888,63,22,-13
11490,-1784,-272,896,62,25,-14
11495,-1808,-256,896,62,25,-13
11500,-1808,-272,872,61,23,-15
11505,-1808,-264,888,59,22,-15
11510,-1800,-280,848,57,22,-14
11515,-1808,-272,888,57,21,-15
11520,-1816,-264,856,55,21,-17
11525,-1816,-264,888,52,23,-17
11530,-1800,-256,896,54,25,-18
11535,-1808,-312,944,53,25,-18
11540,-1816,-280,848,54,28,-17
11545,-1808,-256,856,52,29,-16
11550,-1792,-256,840,51,28,-17
11555,-1808,-264,856,50,29,-17
11560,-1792,-288,864,51,29,-16
11565,-1808,-256,880,51,27,-14
11570,-1792,-272,880,52,24,-13
11575,-1800,-280,848,55,20,-12
11580,-1816,-248,840,57,18,-12
11585,-1808,-256,888,57,15,-12
11590,-1832,-256,784,56,13,-10
11595,-1816,-272,872,56,10,-9
11600,-1800,-272,864,57,8,-7
11605,-1808,-288,840,56,5,-7
11610,-1800,-264,864,55,2,-7
11615,-1808,-280,848,54,-1,-6
11620,-1808,-288,848,54,-2,-7
11625,-1776,-304,880,54,-3,-5
11630,-1784,-280,872,54,-3,-4
11635,-1808,-248,880,54,-4,-6
11640,-1800,-288,848,55,-4,-6
11645,-1824,-264,840,54,-2,-7
11650,-1808,-264,856,53,-5,-7
11655,-1800,-264,856,51,-6,-9
11660,-1808,-248,856,51,-5,-9
11665,-1800,-288,864,54,-3,-11
11670,-1808,-280,856,57,-1,-11
11675,-1800,-256,872,59,2,-13
11680,-1824,-248,888,61,5,-13
11685,-1800,-304,848,63,9,-11
11690,-1800,-272,872,65,11,-11
11695,-1800,-272,864,68,11,-11
11700,-1776,-264,896,72,9,-11
11705,-1792,-264,880,75,7,-8
11710,-1784,-288,896,80,4,-11
11715,-1768,-288,872,83,1,-9
11720,-1792,-248,872,83,-1,-7
11725,-1784,-272,880,81,-3,-7
11730,-1784,-272,920,80,-1,-8
11735,-1816,-248,872,78,2,-6
11740,-1792,-264,888,77,5,-6
11745,-1808,-256,880,74,10,-7
11750,-1784,-256,864,69,16,-9
11755,-1784,-280,864,67,23,-8
11760,-1776,-264,912,62,27,-12
11765,-1760,-272,888,59,31,-13
11770,-1792,-248,912,56,34,-15
11775,-1792,-264,896,55,35,-15
11780,-1768,-280,888,52,37,-17
11785,-1784,-240,888,50,38,-17
11790,-1768,-280,912,48,38,-18
11795,-1808,-256,848,45,40,-17
11800,-1824,-256,864,40,41,-18
11805,-1776,-272,888,37,39,-18
11810,-1792,-272,848,33,39,-17
11815,-1792,-272,848,28,39,-17
11820,-1816,-264,864,23,41,-18
11825,-1800,-224,848,19,41,-16
11830,-1816,-248,880,14,43,-16
11835,-1792,-264,848,9,45,-14
11840,-1792,-280,880,7,48,-13
11845,-1808,-240,880,5,50,-12
11850,-1792,-304,848,6,50,-13
11855,-1800,-272,848,7,50,-11
11860,-1816,-256,816,9,46,-11
11865,-1800,-240,848,11,43,-10
11870,-1792,-272,856,11,37,-11
11875,-1808,-280,824,12,33,-9
11880,-1824,-248,856,9,27,-10
11885,-1808,-248,832,7,23,-11
11890,-1808,-256,848,4,21,-9
11895,-1816,-240,840,0,22,-12
11900,-1816,-280,872,0,22,-12
11905,-1800,-280,896,-2,22,-13
11910,-1824,-272,856,-3,25,-12
11915,-1816,-264,864,-1,27,-10
11920,-1816,-264,888,3,29,-13
11925,-1832,-288,888,4,33,-14
11930,-1840,-288,880,8,36,-14
11935,-1792,-288,848,11,37,-14
11940,-1792,-272,880,16,40,-13
11945,-1792,-288,848,18,45,-14
11950,-1792,-264,856,22,49,-13
11955,-1808,-280,872,22,49,-11
11960,-1792,-296,856,24,51,-8
11965,-1784,-296,856,26,49,-7
11970,-1792,-288,816,29,47,-6
11975,-1792,-280,848,32,47,-4
11980,-1792,-272,880,32,46,-3
11985,-1776,-264,808,31,43,-4
11990,-1776,-280,840,28,42,-3
11995,-1768,-256,864,24,41,-3
12000,-1784,-272,872,17,37,-2
12005,-1792,-272,864,14,34,-5
12010,-1816,-264,872,10,35,-6
12015,-1808,-256,848,5,37,-5
12020,-1800,-280,896,-1,38,-5
12025,-1808,-296,856,-4,39,-6
12030,-1808,-280,848,-10,42,-7
12035,-1784,-288,856,-16,41,-7
12040,-1816,-296,848,-22,45,-6
12045,-1800,-288,856,-25,46,-6
12050,-1800,-264,864,-25,44,-8
12055,-1816,-288,864,-23,43,-9
12060,-1776,-280,888,-18,44,-9
12065,-1824,-264,872,-17,45,-12
12070,-1824,-272,824,-18,50,-11
12075,-1816,-264,848,-22,51,-12
12080,-1816,-296,856,-21,52,-10
12085,-1808,-264,840,-23,53,-13
12090,-1824,-272,832,-24,50,-14
12095,-1832,-280,832,-24,45,-17
12100,-1824,-256,824,-17,40,-20
12105,-1840,-264,800,-12,37,-21
12110,-1816,-288,824,-9,39,-20
12115,-1824,-280,800,-5,44,-22
12120,-1808,-312,832,0,52,-21
12125,-1800,-264,840,2,58,-20
12130,-1832,-280,816,3,61,-20
12135,-1800,-304,864,3,61,-18
12140,-1816,-264,944,2,59,-16
12145,-1808,-264,848,1,55,-14
12150,-1808,-264,840,-1,52,-14
12155,-1816,-264,824,-2,44,-8
12160,-1824,-272,840,-3,37,-8
12165,-1840,-304,832,-6,31,-6
12170,-1824,-288,840,-5,25,-5
12175,-1824,-280,800,-5,22,-5
12180,-1840,-304,856,-6,20,-6
12185,-1808,-272,832,-7,20,-5
12190,-1784,-264,824,-10,23,-6
12195,-1808,-304,824,-13,28,-5
12200,-1800,-312,824,-12,30,-6
12205,-1800,-320,832,-11,32,-5
12210,-1816,-280,840,-8,34,-6
12215,-1832,-304,832,-8,37,-7
12220,-1800,-304,832,-4,37,-8
12225,-1800,-312,816,1,38,-10
12230,-1808,-312,840,3,39,-11
12235,-1808,-272,824,3,38,-11
12240,-1776,-280,752,2,35,-11
12245,-1800,-288,792,-2,33,-11
12250,-1808,-256,792,-3,27,-9
12255,-1832,-264,816,-3,21,-11
12260,-1816,-296,816,1,14,-11
12265,-1824,-288,816,7,8,-11
12270,-1808,-272,824,11,5,-10
12275,-1832,-272,824,14,3,-8
12280,-1800,-320,832,19,2,-7
12285,-1832,-288,800,24,2,-9
12290,-1800,-288,832,28,4,-7
12295,-1816,-336,832,29,6,-5
12300,-1808,-320,824,30,7,-5
12305,-1816,-296,808,35,9,-4
12310,-1816,-312,840,40,9,-5
12315,-1832,-296,840,43,11,-6
12320,-1808,-296,832,48,13,-7
12325,-1808,-288,824,54,13,-6
12330,-1784,-296,856,58,14,-5
12335,-1808,-288,824,60,14,-5
12340,-1792,-264,832,62,12,-4
12345,-1816,-280,840,64,12,-5
12350,-1784,-296,904,68,10,-4
12355,-1792,-304,840,71,10,-3
12360,-1792,-296,840,73,7,-4
12365,-1808,-304,816,77,8,-6
12370,-1800,-288,848,78,8,-9
12375,-1832,-296,832,79,9,-7
12380,-1832,-288,848,81,12,-7
12385,-1800,-296,864,82,14,-10
12390,-1808,-288,848,82,17,-12
12395,-1800,-280,800,83,19,-12
12400,-1800,-304,848,82,21,-12
12405,-1768,-336,808,83,24,-14
12410,-1800,-304,824,83,23,-15
12415,-1784,-280,832,83,21,-17
12420,-1800,-288,808,82,20,-15
12425,-1808,-288,816,81,18,-17
12430,-1816,-288,808,81,14,-16
12435,-1816,-280,840,82,10,-16
12440,-1808,-280,816,81,7,-15
12445,-1832,-256,840,79,3,-14
12450,-1832,-280,808,78,0,-13
12455,-1840,-280,832,76,-3,-13
12460,-1848,-304,776,74,-7,-10
12465,-1816,-272,816,69,-10,-11
12470,-1840,-272,808,65,-13,-9
12475,-1832,-272,816,61,-15,-7
12480,-1816,-288,824,61,-12,-4
12485,-1832,-296,816,57,-12,-3
12490,-1848,-280,832,55,-7,-3
12495,-1808,-304,832,55,-3,-2
12500,-1816,-264,824,54,-1,0
12505,-1840,-280,848,57,3,1
12510,-1824,-296,824,59,4,-1
12515,-1816,-288,832,61,6,-1
12520,-1808,-312,816,63,5,-3
12525,-1800,-280,848,65,2,-3
12530,-1824,-288,832,66,2,-2
12535,-1824,-288,832,66,0,-3
12540,-1808,-288,816,66,-3,-5
12545,-1832,-256,792,65,-4,-5
12550,-1864,-264,840,65,-1,-6
12555,-1808,-280,832,65,0,-7
12560,-1816,-296,864,66,1,-6
12565,-1816,-272,808,67,0,-7
12570,-1784,-328,824,69,-1,-9
12575,-1792,-272,840,71,-4,-9
12580,-1816,-296,808,71,-3,-12
12585,-1808,-264,824,71,-6,-11
12590,-1808,-264,824,73,-6,-13
12595,-1784,-280,832,75,-6,-14
12600,-1784,-280,816,75,-5,-12
12605,-1808,-256,832,75,-4,-11
12610,-1800,-280,832,75,-3,-11
12615,-1776,-272,848,72,-2,-11
12620,-1768,-288,856,68,-3,-9
12625,-1808,-312,920,65,-6,-9
12630,-1800,-264,856,64,-10,-8
12635,-1816,-280,840,61,-14,-8
12640,-1808,-288,840,62,-16,-7
12645,-1800,-288,840,63,-15,-8
12650,-1816,-296,864,68,-14,-8
12655,-1816,-280,856,70,-13,-9
12660,-1784,-312,824,72,-12,-9
12665,-1840,-296,800,72,-12,-10
12670,-1848,-256,848,73,-13,-11
12675,-1840,-248,840,74,-9,-12
12680,-1824,-264,816,73,-5,-13
12685,-1824,-296,840,72,-1,-13
12690,-1832,-296,840,72,3,-13
12695,-1744,-344,888,73,7,-14
12700,-1768,-304,824,75,10,-13
12705,-1728,-272,784,77,11,-16
12710,-1816,-328,848,81,11,-16
12715,-1752,-344,840,84,12,-18
12720,-1768,-272,840,88,11,-17
12725,-1808,-304,904,91,10,-18
12730,-1832,-264,760,91,10,-18
12735,-1792,-328,896,91,7,-17
12740,-1824,-288,792,87,3,-18
12745,-1728,-384,808,85,1,-14
12750,-1832,-320,824,84,0,-14
12755,-1832,-336,808,83,2,-13
12760,-1744,-264,856,82,3,-12
12765,-1824,-256,816,83,4,-10
12770,-1824,-248,840,85,4,-8
12775,-1832,-272,872,86,2,-8
12780,-1672,-264,744,88,0,-9
12785,-1800,-232,816,90,-2,-11
12790,-1872,-272,800,91,-6,-11
12795,-1808,-240,808,93,-8,-10
12800,-1800,-248,848,93,-7,-12
12805,-1776,-280,880,91,-9,-11
12810,-1760,-272,800,92,-11,-11
12815,-1856,-272,816,89,-15,-9
12820,-1824,-272,824,87,-18,-10
12825,-1832,-280,816,84,-22,-9
12830,-1808,-296,872,83,-23,-9
12835,-1816,-256,856,84,-23,-10
12840,-1824,-264,864,83,-26,-10
12845,-1816,-304,840,83,-23,-12
12850,-1824,-256,872,85,-22,-12
12855,-1824,-272,848,87,-19,-15
12860,-1800,-296,872,86,-13,-14
12865,-1800,-280,832,85,-9,-17
12870,-1832,-272,824,86,-5,-17
12875,-1824,-288,832,86,-3,-18
12880,-1808,-296,840,86,1,-18
12885,-1808,-272,848,86,4,-20
12890,-1792,-296,824,87,7,-18
12895,-1816,-296,848,87,8,-17
12900,-1792,-280,840,88,8,-19
12905,-1760,-312,888,88,6,-22
12910,-1800,-248,816,91,4,-21
12915,-1776,-352,904,91,4,-22
12920,-1784,-312,848,88,3,-20
12925,-1800,-264,832,87,-2,-19
12930,-1808,-272,848,84,-7,-19
12935,-1808,-304,816,79,-11,-19
12940,-1800,-256,816,77,-14,-18
12945,-1792,-272,840,75,-14,-15
12950,-1840,-256,896,71,-15,-15
12955,-1800,-256,848,68,-17,-15
12960,-1824,-288,832,66,-21,-11
12965,-1800,-264,848,65,-27,-13
12970,-1784,-280,824,65,-30,-13
12975,-1816,-264,856,60,-31,-10
12980,-1816,-272,856,57,-32,-10
12985,-1848,-272,872,53,-33,-9
12990,-1824,-280,904,50,-30,-8
12995,-1824,-280,880,47,-26,-8
13000,-1824,-256,864,45,-20,-8
13005,-1808,-272,888,44,-16,-9
13010,-1824,-272,856,45,-10,-10
13015,-1776,-280,856,47,-5,-12
13020,-1800,-288,856,49,0,-10
13025,-1784,-296,856,53,3,-12
13030,-1784,-264,848,55,3,-13
13035,-1792,-320,880,58,3,-13
13040,-1792,-288,832,61,2,-13
13045,-1808,-248,848,63,0,-14
13050,-1792,-288,848,66,-3,-13
13055,-1792,-288,848,66,-6,-12
13060,-1776,-288,872,67,-11,-12
13065,-1800,-280,888,66,-15,-13
13070,-1800,-280,848,66,-17,-12
13075,-1784,-272,864,66,-19,-13
13080,-1816,-280,840,66,-17,-12
13085,-1776,-288,872,66,-15,-11
13090,-1824,-288,864,67,-12,-13
13095,-1832,-248,856,67,-8,-12
13100,-1800,-264,848,67,-4,-13
13105,-1800,-272,856,71,-1,-11
13110,-1800,-280,880,73,0,-12
13115,-1776,-296,848,77,2,-13
13120,-1776,-296,896,79,1,-11
13125,-1800,-272,856,81,-4,-11
13130,-1768,-288,856,80,-10,-12
13135,-1784,-256,864,80,-16,-13
13140,-1808,-248,864,79,-20,-12
13145,-1800,-264,848,80,-24,-13
13150,-1824,-264,904,80,-25,-12
13155,-1816,-264,872,81,-22,-13
13160,-1808,-272,896,81,-19,-14
13165,-1816,-256,832,81,-18,-13
13170,-1792,-336,904,82,-18,-15
13175,-1808,-272,896,83,-13,-16
13180,-1800,-256,848,84,-9,-15
13185,-1792,-264,872,83,-8,-15
13190,-1800,-256,880,84,-6,-15
13195,-1784,-264,872,82,-5,-15
13200,-1800,-280,880,82,-3,-18
13205,-1768,-296,896,83,-3,-18
13210,-1808,-248,920,83,-3,-18
13215,-1784,-264,872,84,-5,-20
13220,-1816,-304,864,83,-7,-20
13225,-1784,-264,888,79,-15,-19
13230,-1808,-272,904,77,-18,-21
13235,-1800,-288,864,76,-19,-21
13240,-1824,-264,856,73,-16,-19
13245,-1816,-280,872,70,-17,-15
13250,-1808,-280,824,68,-16,-13
13255,-1824,-272,912,67,-10,-11
13260,-1792,-272,888,67,-8,-10
13265,-1752,-288,904,63,-7,-10
13270,-1792,-264,888,68,-3,-11
13275,-1704,-248,824,70,2,-11
13280,-1792,-288,888,71,-1,-10
13285,-1792,-272,864,72,-1,-9
13290,-1784,-296,888,71,-4,-7
13295,-1800,-272,880,72,-5,-7
13300,-1784,-280,872,71,-7,-6
13305,-1784,-280,888,69,-11,-3
13310,-1808,-264,864,69,-11,-4
13315,-1808,-272,896,68,-11,-7
13320,-1784,-296,888,67,-10,-4
13325,-1808,-304,864,66,-10,-5
13330,-1824,-272,832,65,-10,-5
13335,-1816,-288,888,65,-7,-6
13340,-1824,-256,880,64,-5,-5
13345,-1824,-280,896,63,-2,-8
13350,-1800,-272,888,64,3,-8
13355,-1784,-280,840,62,9,-10
13360,-1816,-256,888,60,13,-12
13365,-1816,-264,856,60,15,-13
13370,-1776,-272,904,59,15,-14
13375,-1792,-272,888,59,14,-14
13380,-1776,-280,872,58,10,-13
13385,-1792,-280,848,56,6,-14
13390,-1816,-264,872,55,3,-13
13395,-1800,-272,848,53,-2,-14
13400,-1800,-248,848,52,-3,-14
13405,-1816,-280,856,51,-5,-14
13410,-1808,-256,864,50,-5,-12
13415,-1816,-264,872,47,-4,-11
13420,-1800,-256,880,46,-4,-11
13425,-1776,-280,880,42,-2,-11
13430,-1800,-264,864,38,0,-9
13435,-1784,-272,880,38,2,-9
13440,-1824,-256,848,38,1,-10
13445,-1800,-288,896,38,-1,-10
13450,-1776,-280,888,39,-3,-9
13455,-1800,-288,872,43,-5,-8
13460,-1792,-272,880,46,-10,-6
13465,-1816,-256,888,47,-13,-5
13470,-1816,-264,888,46,-16,-4
13475,-1784,-272,880,46,-18,-4
13480,-1792,-264,896,43,-19,-4
13485,-1776,-280,904,40,-19,-3
13490,-1784,-256,920,38,-19,-2
13495,-1776,-320,912,36,-17,0
13500,-1784,-272,904,35,-16,-2
13505,-1800,-296,904,38,-13,-3
13510,-1808,-272,888,41,-11,-3
13515,-1792,-272,920,45,-7,-6
13520,-1808,-272,904,47,-2,-8
13525,-1784,-288,896,52,1,-9
13530,-1776,-296,912,57,6,-12
13535,-1784,-312,896,60,8,-14
13540,-1776,-280,904,63,13,-15
13545,-1800,-272,864,66,17,-17
13550,-1752,-272,888,68,21,-18
13555,-1776,-272,888,67,23,-17
13560,-1776,-280,888,67,25,-17
13565,-1792,-280,888,66,27,-16
13570,-1776,-272,864,66,27,-16
13575,-1752,-272,864,65,28,-15
13580,-1752,-272,864,64,28,-14
13585,-1760,-264,888,63,26,-12
13590,-1760,-264,840,62,23,-12
13595,-1752,-264,856,60,17,-11
13600,-1776,-240,888,58,12,-11
13605,-1824,-248,848,54,6,-13
13610,-1776,-248,880,50,0,-14
13615,-1808,-264,904,45,-3,-13
13620,-1800,-280,872,42,-5,-13
13625,-1816,-256,864,39,-3,-15
13630,-1808,-256,896,36,0,-14
13635,-1800,-304,912,32,5,-13
13640,-1800,-296,856,29,10,-12
13645,-1776,-256,880,28,13,-15
13650,-1792,-280,912,26,20,-15
13655,-1800,-256,880,25,22,-15
13660,-1776,-304,920,24,25,-15
13665,-1808,-272,888,24,27,-17
13670,-1800,-256,872,23,31,-15
13675,-1824,-256,904,23,35,-15
13680,-1800,-256,856,23,39,-15
13685,-1800,-264,880,25,43,-13
13690,-1816,-248,840,24,48,-14
13695,-1808,-256,880,24,53,-13
13700,-1816,-248,904,24,55,-13
13705,-1816,-248,880,24,56,-13
13710,-1792,-272,928,22,55,-13
13715,-1768,-280,904,21,56,-13
13720,-1784,-272,864,21,55,-14
13725,-1784,-296,896,18,54,-12
13730,-1800,-288,880,15,54,-10
13735,-1776,-280,872,11,54,-11
13740,-1808,-272,888,4,55,-9
13745,-1816,-232,840,1,56,-7
13750,-1800,-280,864,-5,57,-7
13755,-1784,-264,840,-10,57,-8
13760,-1784,-264,888,-14,54,-7
13765,-1816,-304,864,-17,52,-7
13770,-1792,-256,848,-18,50,-7
13775,-1784,-280,888,-21,47,-8
13780,-1808,-248,856,-22,44,-9
13785,-1792,-280,888,-23,41,-8
13790,-1792,-280,856,-24,37,-10
13795,-1784,-288,880,-24,36,-9
13800,-1784,-296,888,-23,35,-8
13805,-1792,-304,872,-22,35,-8
13810,-1792,-264,856,-20,37,-7
13815,-1824,-280,848,-21,38,-7
13820,-1808,-344,824,-20,40,-5
13825,-1816,-304,872,-19,42,-4
13830,-1808,-288,856,-17,43,-4
13835,-1808,-288,848,-14,46,-3
13840,-1808,-296,864,-12,47,-1
13845,-1808,-296,848,-9,47,1
13850,-1800,-288,832,-8,47,3
13855,-1768,-264,888,-6,46,1
13860,-1792,-312,824,-5,46,1
13865,-1784,-312,872,-3,44,1
13870,-1816,-264,848,1,42,-2
13875,-1808,-304,840,4,43,-2
13880,-1808,-256,880,5,43,-3
13885,-1808,-288,864,6,46,-3
13890,-1784,-304,848,7,46,-3
13895,-1800,-304,888,8,48,-3
13900,-1800,-296,872,8,47,-5
13905,-1784,-296,856,11,48,-6
13910,-1800,-272,904,11,48,-8
13915,-1808,-304,840,13,49,-7
13920,-1824,-272,864,12,50,-7
13925,-1800,-272,848,15,50,-7
13930,-1784,-280,864,16,51,-7
13935,-1792,-272,840,17,51,-8
13940,-1816,-288,864,18,49,-8
13945,-1816,-288,856,17,48,-9
13950,-1816,-272,856,16,44,-9
13955,-1768,-296,864,17,40,-9
13960,-1816,-272,872,20,40,-10
13965,-1792,-304,896,21,40,-11
13970,-1840,-264,856,22,41,-10
13975,-1840,-256,856,24,44,-11
13980,-1808,-296,840,24,45,-12
13985,-1840,-280,816,25,46,-14
13990,-1808,-272,848,28,46,-14
13995,-1784,-272,808,30,46,-16
14000,-1792,-280,872,30,45,-16
14005,-1832,-288,824,33,44,-16
14010,-1816,-288,832,36,41,-15
14015,-1808,-296,840,39,37,-13
14020,-1816,-280,824,39,36,-13
14025,-1832,-256,792,41,33,-13
14030,-1816,-288,856,43,31,-12
14035,-1784,-288,856,43,28,-10
14040,-1800,-288,856,43,28,-10
14045,-1840,-288,856,43,24,-9
14050,-1824,-288,856,42,24,-10
14055,-1832,-280,848,41,21,-9
14060,-1808,-304,816,40,20,-8
14065,-1816,-328,816,43,19,-7
14070,-1816,-280,816,44,21,-9
14075,-1808,-288,824,46,24,-9
14080,-1808,-288,856,48,27,-9
14085,-1792,-288,864,49,28,-9
14090,-1800,-304,816,51,29,-8
14095,-1824,-368,848,51,30,-10
14100,-1784,-304,864,52,28,-10
14105,-1792,-288,848,53,26,-10
14110,-1800,-304,824,53,23,-11
14115,-1832,-288,824,54,20,-11
14120,-1792,-296,848,54,17,-10
14125,-1808,-288,816,56,15,-10
14130,-1800,-288,824,55,13,-9
14135,-1840,-272,808,54,10,-8
14140,-1848,-288,800,54,8,-9
14145,-1840,-272,816,54,5,-9
14150,-1848,-296,816,51,5,-9
14155,-1824,-296,824,50,4,-6
14160,-1808,-288,832,48,3,-7
14165,-1808,-288,816,47,4,-7
14170,-1816,-304,816,46,4,-7
14175,-1808,-296,840,48,6,-8
14180,-1792,-280,840,48,8,-8
14185,-1736,-296,888,54,8,-10
14190,-1784,-320,864,56,6,-11
14195,-1800,-288,832,58,4,-11
14200,-1792,-320,856,59,1,-12
14205,-1792,-280,880,60,-3,-13
14210,-1808,-272,840,63,-4,-14
14215,-1824,-296,856,61,-5,-13
14220,-1840,-272,848,62,-6,-14
14225,-1800,-280,832,62,-6,-13
14230,-1800,-312,848,60,-6,-12
14235,-1808,-272,848,57,-4,-9
14240,-1816,-296,832,53,-2,-10
14245,-1824,-312,824,48,1,-9
14250,-1840,-272,824,46,3,-8
14255,-1816,-296,840,44,5,-8
14260,-1800,-304,864,45,7,-8
14265,-1808,-296,880,47,6,-9
14270,-1808,-296,856,53,4,-8
14275,-1792,-312,864,59,3,-10
14280,-1792,-304,864,63,4,-12
14285,-1792,-288,824,67,3,-12
14290,-1816,-296,880,70,3,-14
14295,-1792,-296,856,71,3,-15
14300,-1832,-296,848,75,5,-17
14305,-1800,-280,840,78,7,-17
14310,-1840,-288,792,80,8,-20
14315,-1808,-288,840,84,9,-21
14320,-1800,-296,840,89,9,-22
14325,-1808,-296,840,94,10,-23
14330,-1816,-280,848,98,11,-22
14335,-1784,-328,864,100,11,-24
14340,-1816,-312,872,100,10,-25
14345,-1792,-304,864,101,12,-23
14350,-1792,-288,832,101,15,-22
14355,-1816,-296,816,101,16,-21
14360,-1792,-304,816,100,19,-19
14365,-1768,-296,904,98,20,-19
14370,-1808,-288,832,97,21,-19
14375,-1808,-288,856,96,21,-17
14380,-1768,-304,848,95,20,-14
14385,-1776,-280,848,95,19,-14
14390,-1808,-272,840,95,17,-15
14395,-1776,-272,832,94,15,-11
14400,-1816,-280,824,93,11,-9
14405,-1808,-272,840,90,7,-10
14410,-1792,-304,848,87,4,-9
14415,-1768,-296,848,84,1,-10
14420,-1864,-264,824,83,-2,-9
14425,-1784,-296,848,78,-4,-7
14430,-1808,-296,848,74,-4,-9
14435,-1816,-280,864,71,-5,-9
14440,-1840,-288,848,69,-4,-11
14445,-1808,-304,832,67,-2,-10
14450,-1816,-296,864,67,1,-13
14455,-1832,-256,824,67,4,-12
14460,-1832,-248,856,68,6,-13
14465,-1784,-296,864,70,8,-14
14470,-1840,-264,848,71,10,-14
14475,-1792,-312,824,74,9,-16
14480,-1808,-272,848,75,9,-15
14485,-1808,-272,856,76,9,-16
14490,-1792,-272,816,77,7,-17
14495,-1816,-248,832,79,6,-15
14500,-1816,-248,824,80,4,-15
14505,-1824,-288,824,81,3,-16
14510,-1800,-280,832,78,2,-15
14515,-1800,-296,856,76,1,-14
14520,-1800,-288,808,74,1,-12
14525,-1800,-272,840,72,-1,-11
14530,-1800,-296,864,71,-2,-12
14535,-1816,-272,840,70,-3,-13
14540,-1784,-288,824,67,-6,-12
14545,-1808,-280,840,64,-7,-11
14550,-1800,-280,832,61,-9,-10
14555,-1808,-272,872,56,-12,-8
14560,-1800,-304,840,52,-12,-7
14565,-1792,-264,832,48,-13,-9
14570,-1784,-280,880,46,-15,-8
14575,-1784,-304,816,43,-16,-8
14580,-1792,-264,872,40,-16,-7
14585,-1808,-296,896,39,-18,-8
14590,-1808,-280,856,38,-17,-9
14595,-1792,-256,856,38,-17,-9
14600,-1800,-288,864,37,-14,-10
14605,-1800,-272,888,38,-12,-13
14610,-1792,-280,880,39,-9,-13
14615,-1776,-288,880,41,-4,-12
14620,-1808,-264,936,43,1,-13
14625,-1824,-296,856,47,5,-14
14630,-1776,-288,864,51,9,-16
14635,-1808,-312,864,54,14,-15
14640,-1736,-304,840,57,16,-14
14645,-1792,-304,880,59,19,-14
14650,-1784,-296,856,59,21,-15
14655,-1768,-296,864,59,21,-14
14660,-1800,-288,880,59,21,-12
14665,-1776,-312,864,59,20,-12
14670,-1800,-296,840,58,20,-10
14675,-1792,-288,864,58,19,-9
14680,-1768,-304,864,58,18,-11
14685,-1816,-288,872,55,18,-11
14690,-1800,-320,856,54,19,-11
14695,-1760,-272,824,54,20,-9
14700,-1768,-304,864,54,22,-9
14705,-1784,-272,856,53,21,-12
14710,-1784,-288,872,53,24,-12
14715,-1816,-272,856,53,24,-12
14720,-1800,-304,848,53,25,-13
14725,-1800,-272,832,53,24,-13
14730,-1816,-280,888,53,25,-14
14735,-1800,-296,848,55,26,-14
14740,-1808,-288,856,54,25,-16
14745,-1800,-288,856,54,25,-16
14750,-1792,-288,848,53,24,-16
14755,-1808,-288,840,53,25,-15
14760,-1808,-280,856,52,25,-15
14765,-1816,-264,872,52,24,-12
14770,-1784,-296,832,52,24,-12
14775,-1816,-288,856,52,23,-13
14780,-1800,-304,864,53,21,-12
14785,-1840,-280,864,53,21,-11
14790,-1816,-264,872,53,20,-10
14795,-1784,-304,864,54,18,-10
14800,-1816,-256,856,54,17,-10
14805,-1832,-288,840,53,15,-11
14810,-1800,-264,848,54,15,-10
14815,-1824,-288,864,54,13,-11
14820,-1808,-256,832,53,12,-10
14825,-1816,-288,848,53,10,-13
14830,-1808,-288,832,55,9,-11
14835,-1808,-296,856,53,8,-9
14840,-1800,-296,856,53,7,-8
14845,-1832,-264,824,53,5,-8
14850,-1792,-280,864,53,4,-8
14855,-1816,-288,848,53,4,-9
14860,-1808,-280,864,55,3,-9
14865,-1808,-296,840,55,2,-8
14870,-1800,-288,840,55,3,-9
14875,-1808,-288,832,55,2,-9
14880,-1816,-280,864,56,2,-9
14885,-1824,-296,824,55,1,-10
14890,-1808,-296,856,56,1,-9
14895,-1808,-288,856,56,2,-9
14900,-1776,-288,856,56,3,-8
14905,-1840,-256,824,56,4,-9
14910,-1776,-248,824,56,5,-10
14915,-1784,-304,864,56,6,-10
14920,-1784,-288,864,57,7,-8
14925,-1784,-296,848,57,8,-9
14930,-1808,-264,856,58,8,-8
14935,-1808,-280,848,57,7,-9
14940,-1768,-304,840,58,7,-7
14945,-1800,-296,872,57,6,-9
14950,-1808,-312,880,54,6,-9
14955,-1832,-272,840,53,6,-9
14960,-1792,-288,872,51,7,-10
14965,-1832,-280,888,50,6,-11
14970,-1784,-304,872,51,7,-13
14975,-1824,-272,880,48,10,-12
14980,-1800,-296,872,49,13,-13
14985,-1800,-296,856,48,16,-13
14990,-1792,-272,848,46,19,-14
14995,-1792,-288,864,45,22,-16
