timestamp,accel_x,accel_y,accel_z,gyro_x,gyro_y,gyro_z
0,-96,-1584,-1232,22,36,24
5,-120,-1568,-1264,23,32,22
10,-112,-1576,-1224,24,32,18
15,-88,-1568,-1200,24,28,16
20,-136,-1560,-1192,25,25,14
25,-144,-1576,-1232,26,24,12
30,-120,-1552,-1224,27,21,10
35,-120,-1544,-1224,27,20,8
40,-120,-1568,-1192,26,17,6
45,-112,-1560,-1184,27,15,4
50,-120,-1552,-1200,29,14,4
55,-104,-1552,-1216,31,14,4
60,-80,-1600,-1208,32,13,2
65,-88,-1536,-1192,33,11,1
70,-80,-1552,-1216,34,11,0
75,-96,-1528,-1224,36,13,-2
80,-88,-1584,-1152,40,12,1
85,-64,-1552,-1152,45,12,3
90,-32,-1544,-1192,48,14,5
95,-32,-1544,-1144,53,19,7
100,-32,-1528,-1160,59,24,9
105,-32,-1504,-1128,65,28,13
110,-8,-1520,-1176,69,36,18
115,40,-1528,-1152,71,44,19
120,40,-1488,-1152,66,51,22
125,40,-1504,-1208,62,60,26
130,24,-1480,-1152,54,69,27
135,48,-1512,-1184,44,80,28
140,56,-1472,-1200,28,91,28
145,80,-1520,-1216,9,104,30
150,64,-1536,-1232,-13,119,28
155,72,-1512,-1288,-38,136,27
160,64,-1552,-1304,-63,155,30
165,80,-1544,-1336,-87,173,34
170,72,-1608,-1352,-112,191,36
175,56,-1608,-1336,-131,209,41
180,80,-1656,-1344,-147,223,43
185,56,-1712,-1376,-156,236,49
190,32,-1768,-1344,-159,246,54
195,32,-1768,-1328,-154,250,62
200,48,-1824,-1304,-143,252,75
205,40,-1808,-1304,-128,255,91
210,32,-1760,-1296,-112,264,103
215,32,-1792,-1288,-94,272,112
220,56,-1768,-1280,-76,273,115
225,56,-1768,-1176,-58,266,117
230,40,-1720,-1192,-39,254,111
235,0,-1728,-1160,-20,237,106
240,8,-1704,-1112,-2,219,98
245,-8,-1704,-1048,13,199,93
250,-32,-1688,-1032,29,178,87
255,-32,-1680,-1008,41,154,78
260,-64,-1648,-1000,52,127,73
265,-72,-1648,-1024,58,100,62
270,-72,-1624,-1008,61,72,58
275,-104,-1624,-1032,60,45,51
280,-112,-1584,-1032,56,20,47
285,-72,-1600,-1064,49,0,46
290,-56,-1624,-1104,37,-13,49
295,-88,-1560,-1112,24,-19,51
300,-16,-1592,-1152,5,-17,55
305,-24,-1576,-1176,-17,-12,58
310,24,-1592,-1216,-41,-5,61
315,56,-1592,-1232,-70,4,63
320,88,-1568,-1248,-97,14,62
325,96,-1544,-1264,-124,26,60
330,128,-1544,-1280,-149,41,57
335,136,-1528,-1288,-172,56,55
340,136,-1528,-1328,-190,77,53
345,120,-1464,-1328,-203,98,53
350,152,-1408,-1344,-212,121,53
355,152,-1440,-1344,-215,142,47
360,144,-1424,-1320,-212,164,40
365,96,-1392,-1320,-206,184,32
370,80,-1352,-1312,-199,205,24
375,72,-1360,-1312,-193,226,16
380,24,-1392,-1272,-186,247,8
385,-24,-1344,-1272,-176,261,-1
390,-32,-1360,-1248,-167,275,-9
395,-120,-1344,-1216,-151,285,-15
400,-104,-1352,-1184,-136,291,-21
405,-80,-1288,-1184,-123,296,-28
410,-200,-1320,-1160,-116,300,-29
415,-216,-1352,-1184,-112,302,-30
420,-216,-1360,-1144,-114,302,-30
425,-208,-1384,-1168,-127,300,-28
430,-200,-1400,-1192,-148,296,-27
435,-208,-1440,-1216,-171,288,-30
440,-176,-1472,-1272,-196,270,-35
445,-200,-1512,-1296,-224,247,-44
450,-232,-1536,-1296,-251,215,-53
455,-264,-1600,-1328,-280,179,-62
460,-288,-1696,-1352,-311,138,-71
465,-280,-1720,-1336,-340,101,-78
470,-312,-1776,-1344,-368,71,-79
475,-344,-1792,-1384,-396,55,-73
480,-344,-1808,-1384,-423,43,-64
485,-328,-1840,-1360,-445,34,-54
490,-320,-1832,-1352,-453,20,-51
495,-296,-1848,-1360,-459,9,-47
500,-232,-1904,-1344,-467,6,-42
505,-224,-1872,-1272,-466,-3,-42
510,-184,-1880,-1264,-456,-13,-46
515,-160,-1912,-1208,-432,-29,-55
520,-136,-1856,-1232,-402,-43,-57
525,-120,-1840,-1208,-364,-56,-56
530,-112,-1792,-1192,-326,-63,-50
535,-56,-1784,-1184,-289,-64,-40
540,-56,-1744,-1208,-252,-60,-30
545,-72,-1704,-1200,-220,-46,-19
550,-48,-1680,-1248,-193,-33,-6
555,-56,-1688,-1256,-180,-25,6
560,-64,-1656,-1328,-180,-24,18
565,-40,-1608,-1360,-193,-27,27
570,-32,-1576,-1336,-212,-32,36
575,-64,-1544,-1344,-235,-37,46
580,-48,-1576,-1344,-253,-44,55
585,-104,-1536,-1352,-271,-53,63
590,-120,-1552,-1320,-287,-62,70
595,-128,-1512,-1328,-300,-74,75
600,-160,-1480,-1288,-307,-88,77
605,-152,-1456,-1272,-312,-103,73
610,-168,-1464,-1248,-314,-120,67
615,-168,-1440,-1208,-314,-140,60
620,-176,-1400,-1240,-309,-157,50
625,-192,-1448,-1224,-303,-172,41
630,-216,-1424,-1216,-296,-185,32
635,-176,-1408,-1208,-287,-197,21
640,-192,-1416,-1176,-278,-206,11
645,-200,-1416,-1184,-270,-209,0
650,-184,-1392,-1184,-264,-211,-9
655,-184,-1400,-1184,-262,-211,-17
660,-176,-1384,-1176,-258,-208,-28
665,-160,-1408,-1160,-256,-203,-37
670,-136,-1408,-1112,-254,-199,-48
675,-152,-1440,-1112,-251,-197,-58
680,-104,-1408,-1096,-251,-194,-65
685,-96,-1424,-1128,-251,-185,-71
690,-96,-1440,-1104,-251,-174,-78
695,-104,-1456,-1112,-251,-160,-80
700,-64,-1448,-1104,-254,-140,-80
705,-40,-1480,-1120,-254,-120,-78
710,-48,-1504,-1104,-252,-97,-75
715,-32,-1488,-1136,-247,-73,-69
720,-16,-1512,-1104,-240,-51,-67
725,-16,-1520,-1088,-235,-29,-59
730,32,-1584,-1128,-230,-7,-55
735,32,-1536,-1112,-227,17,-51
740,0,-1536,-1144,-225,38,-46
745,0,-1536,-1144,-219,60,-39
750,16,-1560,-1152,-213,80,-30
755,24,-1568,-1136,-206,102,-22
760,8,-1568,-1184,-200,128,-16
765,24,-1568,-1184,-191,155,-7
770,8,-1584,-1200,-184,180,-1
775,32,-1576,-1152,-174,201,4
780,24,-1608,-1208,-165,220,10
785,48,-1592,-1240,-158,238,16
790,-16,-1600,-1232,-152,255,18
795,-24,-1624,-1256,-142,268,22
800,-32,-1600,-1264,-133,279,28
805,-40,-1608,-1296,-126,292,38
810,-40,-1624,-1288,-123,301,44
815,-56,-1640,-1320,-122,308,51
820,-40,-1664,-1344,-127,316,56
825,-32,-1640,-1360,-132,317,59
830,-64,-1672,-1352,-134,313,62
835,-40,-1672,-1360,-134,304,62
840,-112,-1720,-1304,-134,292,64
845,-104,-1680,-1376,-137,273,69
850,-112,-1672,-1392,-140,250,76
855,-176,-1656,-1392,-144,221,81
860,-216,-1632,-1400,-151,191,88
865,-240,-1672,-1384,-158,161,93
870,-312,-1680,-1384,-165,130,100
875,-344,-1688,-1376,-172,98,109
880,-384,-1680,-1376,-178,68,113
885,-432,-1728,-1344,-184,39,119
890,-456,-1744,-1368,-187,13,123
895,-488,-1840,-1344,-190,-10,125
900,-504,-1856,-1280,-192,-32,125
905,-488,-1864,-1304,-192,-50,123
910,-480,-1944,-1240,-183,-67,117
915,-472,-1984,-1208,-160,-83,106
920,-496,-2024,-1200,-125,-99,98
925,-448,-2048,-1168,-83,-116,90
930,-456,-2048,-1160,-34,-132,85
935,-416,-2040,-1168,2,-142,78
940,-392,-2000,-1216,23,-147,77
945,-376,-1912,-1320,25,-149,78
950,-368,-1864,-1416,-5,-153,70
955,-336,-1776,-1520,-66,-157,52
960,-344,-1704,-1600,-145,-167,34
965,-272,-1688,-1656,-237,-185,12
970,-256,-1728,-1720,-324,-211,-25
975,-272,-1784,-1680,-392,-244,-65
980,-312,-1872,-1648,-420,-282,-107
985,-344,-1976,-1560,-402,-324,-148
990,-440,-1984,-1488,-343,-366,-181
995,-456,-2024,-1512,-255,-403,-212
1000,-456,-2008,-1432,-157,-431,-241
1005,-440,-1952,-1520,-66,-445,-268
1010,-408,-1920,-1592,13,-440,-293
1015,-448,-1840,-1672,71,-413,-316
1020,-472,-1808,-1784,102,-374,-325
1025,-504,-1672,-1952,103,-328,-320
1030,-480,-1600,-2064,76,-278,-307
1035,-400,-1536,-2168,35,-220,-293
1040,-288,-1448,-2224,-4,-155,-286
1045,-264,-1400,-2256,-25,-89,-284
1050,-208,-1320,-2232,-21,-38,-282
1055,-176,-1224,-2224,2,0,-283
1060,-96,-1136,-2224,49,19,-290
1065,-48,-1064,-2144,107,21,-296
1070,-32,-968,-2136,173,20,-298
1075,-32,-864,-2096,237,19,-291
1080,8,-840,-2016,296,21,-276
1085,88,-768,-1952,350,21,-256
1090,80,-752,-1856,402,19,-233
1095,152,-712,-1792,452,7,-210
1100,232,-728,-1704,498,-19,-187
1105,304,-752,-1624,536,-50,-168
1110,376,-816,-1624,568,-80,-149
1115,464,-816,-1576,593,-114,-127
1120,464,-856,-1632,602,-141,-102
1125,472,-880,-1632,592,-163,-80
1130,456,-912,-1688,555,-175,-68
1135,464,-952,-1744,499,-181,-62
1140,464,-1008,-1744,435,-184,-67
1145,432,-1032,-1736,375,-186,-78
1150,376,-1104,-1736,330,-190,-98
1155,320,-1120,-1736,298,-201,-115
1160,200,-1128,-1800,265,-217,-124
1165,88,-1168,-1904,216,-231,-123
1170,24,-1224,-1880,152,-236,-121
1175,-32,-1304,-1816,93,-234,-121
1180,-64,-1392,-1752,65,-231,-131
1185,-144,-1432,-1712,67,-230,-149
1190,-208,-1472,-1688,93,-233,-175
1195,-248,-1528,-1664,129,-238,-200
1200,-360,-1512,-1720,161,-230,-221
1205,-336,-1480,-1736,182,-211,-241
1210,-360,-1480,-1720,195,-183,-263
1215,-376,-1448,-1728,208,-147,-287
1220,-304,-1384,-1696,229,-111,-313
1225,-320,-1368,-1632,256,-79,-340
1230,-288,-1304,-1632,292,-52,-362
1235,-232,-1264,-1544,331,-35,-386
1240,-144,-1240,-1504,366,-26,-405
1245,-112,-1216,-1472,395,-26,-421
1250,-32,-1136,-1440,417,-33,-433
1255,-16,-1104,-1392,431,-43,-447
1260,32,-1088,-1360,437,-52,-458
1265,112,-1088,-1320,442,-62,-462
1270,152,-1016,-1312,439,-67,-470
1275,200,-976,-1224,433,-65,-474
1280,208,-968,-1224,421,-63,-481
1285,224,-960,-1184,415,-61,-480
1290,256,-920,-1192,412,-63,-477
1295,240,-856,-1176,408,-64,-473
1300,240,-864,-1136,392,-58,-477
1305,232,-896,-1120,369,-47,-476
1310,232,-888,-1088,360,-41,-472
1315,224,-904,-1080,342,-36,-462
1320,176,-928,-1088,319,-31,-450
1325,184,-952,-1072,290,-27,-438
1330,160,-984,-1120,256,-25,-424
1335,168,-1032,-1088,219,-25,-406
1340,144,-1072,-1072,176,-29,-388
1345,112,-1096,-1096,133,-40,-366
1350,96,-1128,-1104,86,-51,-347
1355,56,-1160,-1096,35,-63,-331
1360,56,-1200,-1088,-13,-76,-316
1365,72,-1272,-1088,-52,-88,-299
1370,32,-1248,-1088,-81,-103,-282
1375,8,-1232,-1096,-101,-117,-267
1380,24,-1304,-1032,-109,-131,-252
1385,8,-1296,-1072,-105,-149,-241
1390,24,-1296,-1024,-92,-168,-230
1395,48,-1320,-984,-70,-192,-222
1400,40,-1328,-1000,-37,-218,-215
1405,64,-1280,-968,-3,-247,-209
1410,88,-1240,-968,30,-275,-206
1415,64,-1224,-912,64,-301,-202
1420,88,-1184,-936,96,-327,-200
1425,112,-1160,-936,125,-351,-200
1430,80,-1168,-952,150,-369,-199
1435,32,-1144,-1000,164,-384,-200
1440,56,-1128,-984,169,-399,-201
1445,24,-1128,-1000,162,-414,-204
1450,-8,-1136,-968,141,-428,-207
1455,-32,-1184,-1048,110,-442,-211
1460,-48,-1240,-1096,66,-459,-213
1465,-64,-1280,-1128,14,-477,-218
1470,-72,-1376,-1216,-46,-498,-225
1475,-88,-1440,-1200,-107,-517,-228
1480,-48,-1528,-1264,-164,-537,-231
1485,-88,-1608,-1296,-214,-558,-234
1490,-128,-1688,-1360,-256,-580,-233
1495,-152,-1720,-1336,-291,-602,-234
1500,-160,-1744,-1448,-311,-620,-227
1505,-144,-1816,-1480,-316,-627,-215
1510,-80,-1880,-1512,-302,-610,-196
1515,-24,-1936,-1592,-267,-563,-173
1520,80,-2000,-1632,-212,-487,-151
1525,224,-2048,-1640,-138,-395,-140
1530,376,-2168,-1608,-58,-299,-138
1535,504,-2248,-1584,29,-206,-147
1540,632,-2320,-1568,121,-121,-160
1545,760,-2408,-1568,213,-46,-179
1550,832,-2424,-1512,302,21,-193
1555,872,-2456,-1440,382,82,-199
1560,888,-2528,-1376,457,135,-193
1565,864,-2584,-1312,528,181,-177
1570,856,-2592,-1232,609,217,-157
1575,760,-2560,-1232,696,249,-136
1580,680,-2496,-1232,781,280,-107
1585,616,-2376,-1312,851,316,-79
1590,504,-2184,-1552,891,358,-52
1595,464,-2056,-1640,881,408,-35
1600,408,-1920,-1848,806,454,-29
1605,216,-1840,-1968,647,475,-20
1610,16,-1976,-2048,427,468,-12
1615,-80,-2080,-2056,183,442,-6
1620,-176,-2224,-1944,-51,419,11
1625,-248,-2360,-1824,-229,415,32
1630,-192,-2352,-1760,-323,431,57
1635,-88,-2280,-1784,-321,456,83
1640,-8,-2104,-1904,-237,479,109
1645,152,-1880,-2096,-114,492,134
1650,336,-1616,-2280,14,487,167
1655,480,-1432,-2408,128,468,173
1660,432,-1224,-2440,222,422,154
1665,384,-1120,-2416,287,355,119
1670,288,-1024,-2296,322,272,80
1675,168,-952,-2144,340,181,39
1680,88,-856,-2000,363,81,-7
1685,-32,-736,-1928,410,-12,-53
1690,-136,-704,-1816,480,-81,-95
1695,-288,-600,-1752,574,-119,-124
1700,-464,-528,-1712,680,-121,-139
1705,-664,-464,-1648,787,-88,-134
1710,-664,-456,-1584,882,-32,-117
1715,-616,-504,-1568,946,41,-105
1720,-536,-568,-1544,966,128,-114
1725,-440,-640,-1504,939,212,-136
1730,-368,-744,-1520,875,281,-161
1735,-288,-856,-1480,771,333,-184
1740,-200,-976,-1528,653,360,-195
1745,-176,-1104,-1520,502,374,-201
1750,-144,-1216,-1560,333,376,-194
1755,-88,-1320,-1592,166,380,-168
1760,-40,-1400,-1568,9,393,-135
1765,32,-1448,-1608,-103,407,-74
1770,112,-1488,-1656,-185,416,-26
1775,168,-1496,-1696,-248,426,14
1780,240,-1536,-1736,-295,433,45
1785,296,-1560,-1768,-321,427,79
1790,320,-1568,-1744,-326,398,115
1795,312,-1600,-1800,-307,362,148
1800,304,-1600,-1760,-271,316,180
1805,272,-1640,-1720,-228,270,210
1810,184,-1592,-1712,-168,228,239
1815,120,-1568,-1632,-111,193,269
1820,0,-1512,-1560,-41,168,297
1825,-40,-1432,-1544,27,154,323
1830,-24,-1384,-1496,76,153,337
1835,96,-1376,-1472,113,172,335
1840,24,-1336,-1424,142,202,322
1845,-32,-1256,-1352,173,217,328
1850,-72,-1192,-1248,206,218,341
1855,-120,-1136,-1168,245,209,344
1860,-168,-1064,-1144,287,200,335
1865,-232,-1000,-1056,332,190,326
1870,-312,-1000,-1016,369,180,317
1875,-288,-984,-1000,397,172,310
1880,-280,-976,-976,409,167,302
1885,-288,-952,-992,409,163,295
1890,-296,-904,-1024,394,154,291
1895,-288,-928,-1016,364,140,284
1900,-240,-936,-1024,324,124,278
1905,-232,-952,-1008,274,105,272
1910,-176,-976,-1024,219,85,266
1915,-112,-1024,-1048,159,63,264
1920,-80,-1096,-1064,98,38,259
1925,-32,-1200,-1032,45,21,246
1930,0,-1232,-1056,-4,12,234
1935,16,-1312,-1072,-56,4,223
1940,16,-1328,-1064,-104,2,209
1945,24,-1376,-1088,-149,7,201
1950,24,-1416,-1072,-187,15,201
1955,40,-1416,-1016,-212,22,199
1960,0,-1416,-1032,-223,31,193
1965,-24,-1400,-968,-223,39,181
1970,-16,-1392,-984,-215,45,169
1975,-32,-1368,-920,-195,49,156
1980,-64,-1352,-856,-161,54,139
1985,-128,-1312,-880,-118,59,123
1990,-144,-1288,-912,-77,66,114
1995,-152,-1280,-880,-42,74,106
2000,-192,-1224,-840,-10,88,100
2005,-200,-1200,-864,23,104,96
2010,-248,-1192,-856,53,128,91
2015,-184,-1168,-824,79,153,86
2020,-176,-1112,-872,99,181,81
2025,-144,-1112,-928,108,211,78
2030,-80,-1160,-992,102,242,76
2035,-24,-1128,-1024,76,273,71
2040,8,-1176,-1096,34,303,61
2045,56,-1208,-1168,-19,332,53
2050,88,-1288,-1208,-75,361,43
2055,128,-1352,-1280,-126,385,30
2060,152,-1464,-1344,-168,405,12
2065,168,-1560,-1352,-203,420,-10
2070,160,-1632,-1376,-226,425,-29
2075,152,-1720,-1440,-242,426,-45
2080,112,-1808,-1440,-249,424,-56
2085,48,-1888,-1488,-249,421,-59
2090,16,-1968,-1456,-240,418,-60
2095,-24,-2008,-1456,-220,411,-56
2100,-16,-2048,-1472,-192,401,-46
2105,-16,-2136,-1464,-157,392,-36
2110,-16,-2184,-1416,-118,377,-28
2115,-40,-2224,-1424,-77,347,-21
2120,-88,-2272,-1408,-35,295,-12
2125,-152,-2256,-1408,6,224,1
2130,-216,-2232,-1400,42,132,8
2135,-368,-2200,-1368,67,30,12
2140,-520,-2160,-1312,87,-73,19
2145,-520,-2168,-1192,113,-176,30
2150,-608,-2176,-1112,151,-271,41
2155,-616,-2208,-1032,207,-354,49
2160,-656,-2200,-936,279,-422,53
2165,-632,-2208,-840,360,-468,47
2170,-608,-2248,-768,451,-495,34
2175,-552,-2208,-736,546,-507,18
2180,-520,-2112,-824,625,-513,4
2185,-416,-2064,-952,665,-513,1
2190,-360,-2024,-1064,656,-504,3
2195,-256,-1992,-1208,583,-486,12
2200,-40,-1904,-1448,456,-471,12
2205,88,-1912,-1640,293,-477,-2
2210,208,-1984,-1752,102,-504,-39
2215,256,-2048,-1816,-88,-545,-88
2220,192,-2152,-1752,-243,-599,-133
2225,48,-2208,-1632,-341,-661,-171
2230,-80,-2224,-1640,-378,-719,-196
2235,-184,-2184,-1616,-367,-761,-208
2240,-256,-2152,-1672,-323,-779,-219
2245,-440,-2016,-1800,-264,-767,-229
2250,-544,-1864,-1912,-215,-729,-233
2255,-592,-1656,-2072,-200,-669,-214
2260,-576,-1528,-2176,-237,-590,-194
2265,-528,-1464,-2240,-304,-502,-169
2270,-448,-1424,-2304,-377,-414,-149
2275,-392,-1376,-2320,-431,-310,-139
2280,-352,-1240,-2256,-450,-239,-128
2285,-256,-1200,-2208,-418,-187,-113
2290,-200,-1104,-2120,-341,-149,-94
2295,-152,-992,-1960,-229,-119,-76
2300,-40,-864,-1896,-65,-99,-48
2305,144,-760,-1768,71,-90,-18
2310,264,-640,-1720,195,-89,3
2315,472,-584,-1688,301,-96,17
2320,576,-568,-1624,389,-118,25
2325,616,-592,-1640,456,-161,29
2330,656,-696,-1624,496,-213,36
2335,672,-816,-1664,505,-260,42
2340,664,-976,-1648,485,-290,51
2345,624,-1080,-1584,444,-302,57
2350,584,-1224,-1592,389,-299,58
2355,544,-1280,-1616,324,-290,52
2360,496,-1376,-1632,254,-282,40
2365,392,-1440,-1600,180,-280,26
2370,352,-1488,-1664,98,-284,14
2375,304,-1528,-1648,19,-285,-13
2380,216,-1616,-1608,-39,-282,-48
2385,128,-1664,-1624,-69,-276,-86
2390,16,-1712,-1656,-78,-258,-121
2395,-176,-1688,-1680,-81,-225,-141
2400,-280,-1712,-1840,-96,-180,-149
2405,-304,-1720,-1832,-126,-126,-156
2410,-384,-1736,-1848,-165,-69,-166
2415,-384,-1712,-1832,-199,-26,-182
2420,-368,-1664,-1784,-220,-1,-197
2425,-392,-1592,-1640,-221,7,-215
2430,-320,-1544,-1592,-196,2,-233
2435,-248,-1472,-1496,-148,-12,-250
2440,-200,-1408,-1424,-95,-29,-267
2445,-176,-1296,-1360,-33,-45,-279
2450,-120,-1216,-1280,38,-63,-285
2455,-48,-1168,-1240,105,-75,-288
2460,-32,-1024,-1208,161,-77,-291
2465,80,-1016,-1104,206,-72,-295
2470,112,-936,-1096,240,-65,-301
2475,136,-888,-1096,265,-56,-312
2480,184,-872,-1064,282,-49,-323
2485,224,-864,-1048,292,-42,-327
2490,272,-840,-984,298,-32,-330
2495,296,-816,-992,289,-15,-335
2500,304,-816,-984,275,10,-337
2505,304,-808,-992,248,38,-334
2510,336,-824,-960,208,70,-330
2515,344,-832,-952,162,103,-320
2520,320,-888,-960,115,133,-302
2525,344,-864,-968,63,163,-282
2530,320,-888,-960,10,189,-261
2535,320,-944,-952,-45,211,-237
2540,312,-952,-928,-93,224,-210
2545,288,-984,-872,-139,231,-181
2550,264,-1016,-888,-185,234,-158
2555,280,-1088,-904,-224,230,-135
2560,224,-1112,-912,-256,218,-112
2565,200,-1168,-872,-285,201,-88
2570,168,-1192,-936,-312,174,-68
2575,176,-1232,-960,-340,145,-51
2580,128,-1240,-952,-364,108,-42
2585,144,-1320,-960,-389,67,-34
2590,120,-1344,-992,-406,27,-26
2595,80,-1344,-984,-417,-14,-23
2600,96,-1352,-1016,-423,-53,-23
2605,56,-1360,-1072,-425,-88,-23
2610,64,-1408,-1104,-423,-119,-25
2615,48,-1384,-1080,-417,-150,-28
2620,16,-1392,-1080,-406,-178,-30
2625,0,-1448,-976,-388,-204,-33
2630,-48,-1440,-1024,-362,-227,-41
2635,-96,-1456,-1000,-328,-254,-40
2640,-160,-1488,-968,-288,-281,-33
2645,-176,-1496,-1016,-247,-306,-23
2650,-208,-1520,-1024,-210,-330,-13
2655,-200,-1536,-1080,-178,-348,-8
2660,-184,-1544,-1088,-153,-360,-8
2665,-160,-1576,-1136,-135,-371,-16
2670,-80,-1600,-1176,-122,-377,-33
2675,-24,-1616,-1240,-116,-373,-54
2680,88,-1664,-1312,-113,-365,-77
2685,88,-1720,-1360,-117,-349,-100
2690,112,-1728,-1368,-130,-334,-119
2695,88,-1768,-1368,-148,-325,-129
2700,80,-1824,-1392,-169,-322,-133
2705,56,-1864,-1440,-191,-321,-124
2710,56,-1928,-1448,-210,-312,-101
2715,136,-2024,-1512,-224,-281,-73
2720,152,-2024,-1528,-234,-226,-42
2725,312,-2120,-1528,-231,-148,-6
2730,376,-2144,-1464,-201,-63,13
2735,488,-2256,-1464,-142,20,18
2740,560,-2328,-1368,-57,93,15
2745,608,-2376,-1336,57,168,0
2750,664,-2432,-1272,176,221,-12
2755,656,-2520,-1168,289,263,-23
2760,632,-2560,-1176,393,289,-30
2765,576,-2584,-1104,508,305,-34
2770,520,-2568,-1120,587,315,-29
2775,480,-2560,-1184,650,321,-19
2780,448,-2504,-1176,707,337,-7
2785,400,-2336,-1328,756,368,-3
2790,416,-2200,-1528,784,413,-11
2795,280,-1960,-1784,766,458,-31
2800,104,-1776,-2056,659,484,-54
2805,-32,-1728,-2240,459,471,-77
2810,-40,-1824,-2272,201,419,-99
2815,-128,-1888,-2176,-56,354,-113
2820,-136,-1976,-1952,-236,293,-92
2825,-64,-1952,-1880,-295,253,-45
2830,136,-1880,-1928,-241,249,2
2835,312,-1648,-2152,-135,278,27
2840,464,-1480,-2376,-45,323,35
2845,504,-1248,-2560,0,358,23
2850,464,-1048,-2592,9,355,15
2855,440,-976,-2576,0,323,10
2860,280,-912,-2392,-3,264,-16
2865,136,-872,-2280,18,185,-52
2870,-24,-784,-2064,79,106,-96
2875,-152,-736,-1928,192,55,-124
2880,-328,-648,-1792,332,51,-133
2885,-520,-576,-1776,477,86,-118
2890,-584,-592,-1776,597,149,-76
2895,-520,-616,-1720,669,232,-48
2900,-384,-656,-1776,688,325,-53
2905,-336,-768,-1736,657,414,-80
2910,-272,-848,-1720,590,494,-111
2915,-200,-960,-1744,503,555,-138
2920,-152,-1008,-1712,391,596,-165
2925,-160,-1128,-1720,252,616,-193
2930,-160,-1280,-1712,124,602,-203
2935,-120,-1408,-1648,15,575,-188
2940,-112,-1512,-1648,-74,554,-150
2945,-40,-1528,-1704,-150,548,-102
2950,0,-1576,-1720,-209,554,-49
2955,104,-1600,-1792,-252,556,5
2960,160,-1640,-1784,-276,542,57
2965,224,-1680,-1880,-278,505,104
2970,224,-1696,-1856,-251,445,144
2975,224,-1744,-1856,-196,368,179
2980,192,-1768,-1832,-119,285,210
2985,168,-1736,-1832,-33,207,243
2990,104,-1712,-1784,47,144,272
2995,40,-1664,-1792,110,100,297
3000,-32,-1616,-1712,153,74,313
3005,-64,-1576,-1688,172,59,326
3010,-96,-1480,-1648,179,51,332
3015,-112,-1416,-1544,179,52,336
3020,-136,-1320,-1472,180,63,336
3025,-200,-1232,-1416,186,74,337
3030,-168,-1168,-1328,200,93,335
3035,-192,-1088,-1232,222,115,334
3040,-216,-1024,-1104,251,139,326
3045,-184,-992,-1024,291,159,311
3050,-224,-920,-952,335,167,298
3055,-224,-896,-896,382,165,286
3060,-232,-864,-800,424,151,273
3065,-224,-848,-816,458,126,261
3070,-240,-824,-840,474,91,248
3075,-200,-832,-872,477,54,234
3080,-192,-808,-872,465,18,216
3085,-184,-808,-928,433,-17,206
3090,-200,-832,-960,389,-46,201
3095,-168,-848,-1000,330,-69,201
3100,-176,-856,-992,259,-87,200
3105,-128,-928,-992,179,-99,203
3110,-152,-992,-1064,98,-111,207
3115,-96,-1088,-1048,16,-120,213
3120,-72,-1136,-1040,-64,-125,217
3125,-72,-1184,-1024,-123,-121,211
3130,-32,-1224,-1064,-172,-109,208
3135,-40,-1232,-1032,-218,-98,205
3140,-48,-1208,-1032,-263,-81,197
3145,-48,-1232,-984,-296,-60,188
3150,-24,-1224,-960,-318,-42,173
3155,8,-1224,-888,-322,-21,153
3160,-56,-1232,-912,-310,0,126
3165,-88,-1184,-832,-285,20,103
3170,-112,-1208,-816,-246,37,82
3175,-136,-1216,-744,-200,52,64
3180,-144,-1232,-768,-149,66,48
3185,-136,-1224,-752,-98,86,39
3190,-152,-1224,-768,-50,114,28
3195,-120,-1224,-808,-6,158,20
3200,-104,-1232,-792,28,201,9
3205,-64,-1248,-824,57,248,-1
3210,-32,-1224,-848,81,296,-11
3215,-32,-1240,-928,98,340,-22
3220,-8,-1208,-992,100,375,-27
3225,48,-1256,-1064,86,398,-31
3230,152,-1296,-1088,58,416,-38
3235,184,-1392,-1176,20,428,-50
3240,200,-1480,-1232,-19,438,-59
3245,248,-1528,-1248,-55,443,-63
3250,256,-1608,-1280,-84,451,-72
3255,256,-1736,-1264,-98,460,-72
3260,248,-1824,-1296,-98,463,-69
3265,216,-1880,-1328,-90,457,-66
3270,184,-1936,-1352,-77,445,-59
3275,192,-2000,-1368,-61,433,-45
3280,112,-2088,-1384,-46,415,-29
3285,104,-2112,-1464,-38,378,-14
3290,64,-2128,-1512,-35,325,7
3295,-32,-2176,-1520,-35,252,16
3300,-136,-2184,-1520,-40,164,20
3305,-240,-2232,-1496,-43,76,34
3310,-352,-2264,-1440,-39,-9,53
3315,-472,-2320,-1400,-23,-97,72
3320,-552,-2312,-1320,7,-181,89
3325,-664,-2320,-1240,48,-259,103
3330,-680,-2288,-1144,110,-332,111
3335,-744,-2384,-1048,184,-395,112
3340,-704,-2352,-1000,269,-448,102
3345,-728,-2368,-936,360,-485,78
3350,-696,-2328,-832,459,-511,57
3355,-632,-2312,-808,552,-521,28
3360,-560,-2240,-912,616,-519,-11
3365,-520,-2168,-952,636,-508,-38
3370,-384,-2064,-1096,603,-488,-46
3375,-248,-2032,-1240,521,-467,-38
3380,-72,-2000,-1464,386,-455,-28
3385,80,-1944,-1680,209,-458,-27
3390,208,-1968,-1848,4,-476,-45
3395,256,-1992,-2000,-199,-505,-83
3400,216,-2072,-2104,-376,-551,-121
3405,40,-2096,-2136,-502,-617,-154
3410,-160,-2064,-2104,-573,-699,-170
3415,-344,-2080,-2120,-586,-794,-170
3420,-560,-2040,-2160,-552,-889,-161
3425,-720,-1888,-2288,-487,-974,-142
3430,-824,-1664,-2384,-433,-1034,-128
3435,-848,-1480,-2496,-411,-1054,-123
3440,-768,-1424,-2496,-407,-1026,-123
3445,-800,-1320,-2392,-406,-961,-115
3450,-752,-1256,-2408,-390,-884,-90
3455,-544,-1168,-2248,-353,-797,-64
3460,-464,-1072,-2184,-296,-693,-53
3465,-264,-968,-2064,-210,-586,-53
3470,-96,-872,-1968,-101,-506,-47
3475,104,-784,-1856,19,-451,-38
3480,296,-672,-1800,139,-423,-30
3485,480,-624,-1784,239,-414,-23
3490,600,-560,-1816,308,-409,-18
3495,704,-568,-1808,346,-409,-10
3500,776,-608,-1784,362,-415,-3
3505,816,-720,-1792,362,-415,2
3510,816,-816,-1776,348,-411,8
3515,800,-976,-1752,327,-397,14
3520,784,-1120,-1744,304,-377,24
3525,696,-1240,-1712,276,-354,29
3530,560,-1384,-1696,240,-334,31
3535,480,-1424,-1704,203,-326,29
3540,360,-1528,-1688,161,-324,19
3545,200,-1568,-1680,120,-327,0
3550,72,-1616,-1704,88,-332,-29
3555,-40,-1640,-1736,65,-329,-61
3560,-120,-1696,-1744,49,-308,-92
3565,-264,-1656,-1856,31,-271,-116
3570,-352,-1664,-1952,2,-216,-137
3575,-440,-1640,-1968,-41,-145,-155
3580,-488,-1624,-1920,-82,-75,-174
3585,-488,-1592,-1832,-106,-15,-203
3590,-528,-1640,-1760,-101,25,-238
3595,-528,-1576,-1664,-84,43,-260
3600,-512,-1552,-1600,-60,43,-281
3605,-432,-1464,-1488,-19,31,-305
3610,-344,-1360,-1416,34,7,-325
3615,-264,-1312,-1392,86,-21,-339
3620,-208,-1216,-1272,131,-47,-356
3625,-184,-1104,-1224,165,-75,-382
3630,-128,-1056,-1160,196,-96,-408
3635,-48,-1000,-1128,227,-106,-430
3640,-64,-952,-1056,252,-112,-455
3645,32,-928,-1000,282,-115,-474
3650,64,-888,-920,314,-114,-493
3655,112,-936,-952,344,-109,-507
3660,128,-888,-904,366,-99,-522
3665,144,-848,-912,373,-85,-535
3670,184,-840,-928,353,-71,-552
3675,176,-864,-944,312,-58,-568
3680,224,-880,-944,256,-52,-579
3685,224,-896,-952,183,-53,-591
3690,200,-936,-960,104,-59,-599
3695,224,-992,-944,30,-68,-601
3700,208,-968,-976,-36,-74,-592
3705,216,-1000,-968,-99,-74,-580
3710,168,-992,-936,-158,-69,-565
3715,184,-1016,-936,-207,-61,-548
3720,160,-1032,-920,-239,-53,-521
3725,168,-1048,-952,-254,-48,-492
3730,152,-1040,-896,-263,-46,-460
3735,120,-1056,-928,-267,-46,-429
3740,112,-1112,-872,-266,-46,-404
3745,96,-1136,-848,-258,-57,-379
3750,128,-1192,-848,-245,-78,-352
3755,176,-1192,-832,-228,-106,-333
3760,208,-1224,-856,-210,-135,-324
3765,224,-1192,-840,-192,-164,-324
3770,224,-1256,-824,-169,-192,-322
3775,208,-1288,-840,-143,-222,-319
3780,216,-1288,-824,-113,-252,-318
3785,208,-1296,-816,-78,-281,-317
3790,176,-1256,-856,-44,-309,-320
3795,152,-1272,-848,-16,-339,-320
3800,80,-1248,-856,6,-363,-322
3805,40,-1248,-872,17,-385,-319
3810,-32,-1280,-920,12,-404,-311
3815,-32,-1336,-1008,-6,-422,-301
3820,-80,-1328,-984,-36,-438,-295
3825,-160,-1384,-1008,-68,-453,-291
3830,-152,-1448,-1032,-101,-473,-279
3835,-168,-1504,-1064,-131,-487,-267
3840,-120,-1592,-1120,-161,-495,-261
3845,-96,-1624,-1144,-191,-499,-258
3850,-48,-1680,-1264,-219,-495,-258
3855,-8,-1752,-1328,-246,-487,-256
3860,32,-1776,-1360,-275,-476,-255
3865,56,-1800,-1424,-304,-464,-250
3870,16,-1856,-1496,-333,-449,-234
3875,72,-1896,-1528,-358,-427,-213
3880,160,-1928,-1568,-375,-389,-184
3885,232,-1968,-1592,-386,-330,-148
3890,312,-2024,-1600,-382,-254,-115
3895,400,-2072,-1584,-364,-165,-88
3900,488,-2192,-1544,-332,-74,-73
3905,560,-2304,-1528,-281,14,-66
3910,632,-2400,-1480,-215,92,-72
3915,664,-2464,-1368,-138,158,-76
3920,648,-2552,-1328,-54,216,-77
3925,664,-2592,-1360,31,261,-68
3930,536,-2752,-1232,115,294,-52
3935,448,-2816,-1208,197,319,-30
3940,368,-2840,-1160,287,333,-1
3945,320,-2848,-1104,387,339,35
3950,224,-2776,-1088,499,345,63
3955,200,-2616,-1256,613,357,95
3960,168,-2416,-1392,709,381,121
3965,184,-2192,-1520,769,425,129
3970,192,-1976,-1776,770,466,105
3975,96,-1704,-2088,685,491,54
3980,-32,-1640,-2288,495,485,-8
3985,-160,-1584,-2352,208,432,-59
3990,-200,-1752,-2272,-98,338,-75
3995,-120,-1896,-2160,-326,236,-48
4000,32,-1928,-2048,-435,174,-4
4005,296,-1944,-2120,-430,169,37
4010,544,-1824,-2336,-354,222,58
4015,600,-1696,-2456,-259,305,70
4020,544,-1456,-2576,-181,363,87
4025,488,-1232,-2648,-124,375,107
4030,392,-1080,-2672,-85,350,114
4035,256,-984,-2648,-66,296,97
4040,136,-864,-2496,-47,224,77
4045,-24,-760,-2336,-8,157,56
4050,-176,-672,-2168,60,109,44
4055,-312,-616,-2008,169,87,32
4060,-408,-592,-1880,309,89,22
4065,-432,-608,-1776,459,113,9
4070,-416,-680,-1744,591,153,-16
4075,-400,-744,-1720,686,211,-65
4080,-376,-840,-1632,731,277,-132
4085,-376,-888,-1696,740,341,-179
4090,-360,-960,-1632,711,398,-224
4095,-376,-1032,-1568,658,436,-256
4100,-352,-1080,-1592,605,446,-271
4105,-352,-1168,-1552,523,444,-283
4110,-328,-1248,-1552,427,440,-279
4115,-288,-1344,-1552,322,431,-259
4120,-192,-1448,-1568,194,423,-226
4125,-64,-1480,-1656,106,415,-181
4130,40,-1528,-1712,31,404,-124
4135,72,-1560,-1720,-29,392,-70
4140,176,-1632,-1776,-69,376,-19
4145,304,-1568,-1792,-93,354,31
4150,336,-1560,-1776,-102,319,78
4155,344,-1544,-1760,-101,274,123
4160,336,-1528,-1760,-99,223,168
4165,368,-1536,-1736,-101,169,205
4170,352,-1536,-1720,-106,117,233
4175,320,-1496,-1624,-107,76,246
4180,240,-1488,-1608,-109,46,256
4185,152,-1360,-1600,-108,30,273
4190,112,-1304,-1528,-98,25,294
4195,56,-1216,-1448,-80,36,313
4200,-24,-1160,-1400,-53,58,335
4205,-16,-1128,-1368,-21,89,357
4210,-32,-1040,-1280,18,126,363
4215,-32,-976,-1176,67,163,365
4220,-80,-928,-1064,133,191,367
4225,-152,-888,-952,211,209,362
4230,-128,-864,-936,298,213,354
4235,-192,-856,-832,381,207,343
4240,-184,-840,-808,457,194,332
4245,-224,-792,-808,518,179,313
4250,-200,-808,-816,558,160,293
4255,-184,-776,-800,571,140,273
4260,-208,-784,-848,560,118,250
4265,-176,-784,-840,527,94,229
4270,-168,-816,-920,475,68,212
4275,-168,-880,-944,404,41,198
4280,-168,-936,-944,316,23,193
4285,-144,-984,-960,227,13,186
4290,-160,-1024,-936,143,14,182
4295,-152,-1088,-912,68,26,188
4300,-168,-1128,-872,4,47,201
4305,-88,-1160,-848,-49,75,219
4310,-96,-1184,-824,-85,102,233
4315,-136,-1176,-816,-110,130,235
4320,-136,-1176,-760,-127,146,227
4325,-144,-1144,-752,-139,150,214
4330,-184,-1072,-752,-144,145,192
4335,-176,-1032,-760,-142,133,170
4340,-192,-984,-784,-137,115,147
4345,-160,-1000,-768,-129,95,131
4350,-192,-952,-760,-119,80,115
4355,-176,-936,-760,-106,70,102
4360,-152,-960,-760,-86,71,90
4365,-136,-976,-784,-59,84,73
4370,-120,-1024,-824,-35,101,59
4375,-64,-1056,-888,-19,122,49
4380,-16,-1112,-936,-12,145,36
4385,16,-1184,-984,-15,173,26
4390,64,-1264,-1072,-26,205,18
4395,136,-1320,-1096,-33,233,15
4400,168,-1416,-1232,-48,265,18
4405,216,-1504,-1264,-71,300,21
4410,256,-1592,-1352,-100,340,28
4415,256,-1696,-1360,-131,376,25
4420,248,-1784,-1424,-166,405,24
4425,208,-1896,-1440,-192,419,24
4430,104,-2024,-1432,-210,423,22
4435,56,-2064,-1472,-213,421,25
4440,24,-2160,-1472,-212,417,31
4445,16,-2184,-1448,-201,422,34
4450,-32,-2224,-1400,-176,421,29
4455,-80,-2272,-1424,-139,404,21
4460,-160,-2304,-1384,-95,371,5
4465,-240,-2312,-1424,-51,317,-14
4470,-312,-2352,-1384,-17,243,-23
4475,-408,-2352,-1352,10,157,-20
4480,-520,-2368,-1320,33,64,-9
4485,-624,-2368,-1240,59,-38,-4
4490,-696,-2400,-1168,88,-141,-1
4495,-704,-2392,-1144,126,-244,2
4500,-688,-2416,-1088,167,-342,-13
4505,-712,-2376,-1056,218,-430,-43
4510,-600,-2408,-960,284,-504,-77
4515,-552,-2408,-896,365,-567,-117
4520,-440,-2432,-832,458,-598,-165
4525,-368,-2416,-808,550,-611,-216
4530,-264,-2344,-896,639,-609,-255
4535,-192,-2256,-1080,692,-594,-266
4540,-72,-2168,-1216,662,-561,-241
4545,136,-2056,-1512,554,-513,-208
4550,344,-1944,-1904,384,-469,-193
4555,520,-1896,-2376,154,-433,-206
4560,472,-1936,-2672,-118,-405,-223
4565,352,-2000,-2744,-378,-384,-236
4570,136,-2128,-2640,-563,-393,-253
4575,-112,-2160,-2400,-628,-441,-276
4580,-264,-2096,-2368,-601,-519,-297
4585,-472,-1928,-2520,-538,-603,-296
4590,-536,-1784,-2672,-490,-671,-273
4595,-584,-1544,-2896,-490,-697,-230
4600,-608,-1344,-3008,-530,-678,-181
4605,-608,-1128,-3008,-590,-636,-130
4610,-496,-968,-2928,-638,-576,-83
4615,-432,-840,-2792,-651,-497,-47
4620,-232,-744,-2488,-605,-408,-23
4625,-80,-672,-2232,-505,-324,-1
4630,112,-600,-1896,-361,-270,20
4635,272,-528,-1736,-195,-246,46
4640,440,-424,-1632,-32,-229,69
4645,632,-336,-1592,113,-223,88
4650,752,-312,-1584,227,-227,106
4655,768,-328,-1544,300,-234,120
4660,792,-360,-1608,341,-249,132
4665,816,-416,-1616,343,-269,144
4670,776,-624,-1648,312,-296,164
4675,792,-776,-1696,249,-323,191
4680,744,-1032,-1696,168,-345,219
4685,704,-1152,-1648,81,-359,244
4690,600,-1288,-1672,-2,-368,253
4695,464,-1384,-1712,-85,-379,250
4700,240,-1488,-1752,-165,-395,234
4705,96,-1536,-1848,-249,-409,206
4710,-56,-1664,-1912,-338,-407,170
4715,-224,-1808,-1992,-419,-390,128
4720,-368,-1960,-2008,-474,-354,76
4725,-520,-2016,-2032,-493,-293,20
4730,-584,-2000,-2024,-479,-222,-33
4735,-544,-2040,-2048,-445,-146,-78
4740,-584,-1952,-1984,-405,-66,-113
4745,-576,-1848,-1944,-369,5,-140
4750,-544,-1712,-1864,-334,49,-163
4755,-544,-1600,-1784,-300,68,-180
4760,-448,-1488,-1688,-268,72,-196
4765,-352,-1344,-1608,-235,61,-220
4770,-248,-1200,-1472,-198,42,-255
4775,-192,-1112,-1336,-144,12,-302
4780,-176,-1080,-1240,-73,-25,-342
4785,-104,-1024,-1192,-5,-69,-370
4790,-96,-920,-1144,41,-110,-399
4795,-32,-864,-1048,65,-147,-420
4800,-8,-824,-992,69,-178,-443
4805,40,-784,-944,62,-201,-479
4810,96,-768,-888,51,-217,-514
4815,152,-736,-904,43,-225,-547
4820,176,-728,-872,36,-225,-574
4825,200,-760,-864,20,-217,-600
4830,264,-720,-912,-7,-202,-627
4835,272,-800,-920,-49,-179,-651
4840,320,-808,-912,-95,-158,-661
4845,320,-824,-1000,-154,-139,-674
4850,344,-872,-1016,-219,-114,-690
4855,328,-944,-1048,-277,-95,-683
4860,320,-984,-1080,-339,-83,-665
4865,288,-1024,-1104,-408,-76,-648
4870,216,-1048,-1112,-473,-79,-628
4875,192,-1088,-1104,-534,-92,-601
4880,112,-1144,-1128,-594,-110,-572
4885,64,-1200,-1160,-653,-127,-546
4890,8,-1200,-1128,-705,-141,-533
4895,-24,-1216,-1120,-749,-157,-511
4900,-48,-1216,-1104,-781,-174,-478
4905,-40,-1216,-1080,-794,-188,-451
4910,-104,-1200,-1072,-789,-203,-430
4915,-88,-1192,-1032,-765,-215,-406
4920,-64,-1136,-1008,-725,-233,-389
4925,-24,-1144,-992,-672,-249,-381
4930,-8,-1088,-944,-603,-270,-391
4935,48,-1016,-968,-525,-294,-406
4940,112,-1016,-936,-438,-322,-425
4945,200,-952,-960,-345,-341,-453
4950,216,-912,-944,-259,-358,-481
4955,272,-904,-952,-189,-363,-513
4960,280,-888,-960,-127,-364,-543
4965,248,-872,-1024,-103,-365,-572
4970,240,-864,-1048,-105,-362,-597
4975,168,-904,-1040,-128,-359,-612
4980,144,-984,-1088,-169,-351,-621
4985,48,-1040,-1136,-228,-339,-620
4990,-32,-1136,-1216,-295,-323,-610
4995,-32,-1216,-1208,-368,-301,-593
5000,-56,-1344,-1232,-441,-278,-571
5005,-40,-1504,-1272,-507,-260,-553
5010,-56,-1608,-1304,-574,-251,-545
5015,-32,-1736,-1336,-639,-253,-530
5020,-32,-1816,-1416,-700,-270,-539
5025,-8,-1936,-1488,-740,-292,-562
5030,0,-2000,-1528,-759,-319,-579
5035,16,-2024,-1576,-752,-353,-597
5040,32,-2040,-1664,-719,-384,-608
5045,56,-2096,-1672,-659,-407,-611
5050,56,-2144,-1760,-570,-419,-613
5055,72,-2232,-1760,-457,-415,-611
5060,64,-2408,-1832,-323,-398,-603
5065,80,-2432,-1800,-169,-370,-593
5070,160,-2520,-1792,-12,-335,-576
5075,168,-2504,-1816,140,-292,-555
5080,272,-2416,-1872,286,-241,-535
5085,344,-2312,-2000,406,-173,-497
5090,424,-2200,-2064,492,-94,-449
5095,464,-2056,-2200,532,-7,-397
5100,536,-1936,-2336,527,84,-340
5105,632,-1824,-2504,466,178,-289
5110,624,-1696,-2552,360,275,-245
5115,632,-1616,-2712,199,372,-193
5120,624,-1592,-2784,2,460,-140
5125,560,-1536,-2824,-210,526,-86
5130,512,-1544,-2944,-446,564,-23
5135,376,-1600,-2992,-675,579,46
5140,336,-1712,-3008,-887,578,141
5145,264,-1808,-3016,-1081,571,248
5150,248,-1904,-2920,-1241,559,354
5155,288,-1952,-2880,-1351,549,461
5160,432,-1976,-2792,-1387,557,568
5165,464,-1856,-2664,-1316,580,634
5170,552,-1688,-2552,-1140,607,663
5175,528,-1424,-2472,-859,605,619
5180,552,-1184,-2344,-501,552,542
5185,552,-1032,-2288,-102,467,447
5190,440,-840,-2136,296,366,349
5195,288,-696,-2024,655,255,260
5200,64,-568,-1896,966,155,191
5205,-48,-520,-1808,1216,69,142
5210,-192,-432,-1760,1398,-6,104
5215,-328,-384,-1776,1511,-80,69
5220,-520,-248,-1816,1566,-155,48
5225,-632,-176,-1800,1565,-232,38
5230,-672,-144,-1848,1516,-303,27
5235,-696,-176,-1920,1424,-355,18
5240,-632,-248,-1896,1298,-378,4
5245,-528,-432,-1840,1155,-360,-19
5250,-360,-584,-1800,1018,-303,-41
5255,-184,-768,-1752,891,-216,-66
5260,-64,-896,-1720,777,-115,-91
5265,64,-1024,-1656,683,-10,-107
5270,128,-1088,-1688,599,89,-115
5275,208,-1104,-1688,516,176,-120
5280,272,-1144,-1728,430,238,-119
5285,240,-1088,-1848,318,275,-116
5290,224,-1016,-1944,187,285,-111
5295,224,-1016,-2032,38,275,-105
5300,136,-1040,-2088,-112,247,-94
5305,176,-1080,-2160,-249,214,-72
5310,160,-1120,-2128,-359,184,-47
5315,112,-1160,-2128,-423,163,-20
5320,128,-1240,-1992,-431,147,1
5325,136,-1256,-1904,-384,131,16
5330,136,-1344,-1816,-299,115,25
5335,168,-1296,-1816,-189,94,22
5340,144,-1304,-1720,-68,64,16
5345,168,-1320,-1688,54,23,3
5350,152,-1328,-1608,173,-23,-14
5355,176,-1312,-1576,283,-76,-36
5360,152,-1248,-1488,387,-105,-55
5365,168,-1224,-1408,487,-119,-70
5370,160,-1160,-1368,596,-120,-79
5375,152,-1120,-1272,676,-112,-82
5380,136,-1064,-1224,744,-100,-73
5385,104,-1032,-1224,792,-90,-59
5390,40,-1000,-1152,822,-83,-44
5395,24,-960,-1128,833,-80,-20
5400,-24,-920,-1096,820,-86,11
5405,8,-888,-1096,783,-96,52
5410,-24,-872,-1120,722,-109,92
5415,8,-912,-1112,649,-125,134
5420,24,-904,-1120,570,-144,169
5425,-8,-848,-1152,490,-162,198
5430,24,-848,-1144,413,-177,222
5435,32,-816,-1144,341,-187,230
5440,32,-832,-1160,283,-184,229
5445,-8,-808,-1176,237,-170,221
5450,-32,-792,-1152,194,-147,220
5455,-56,-816,-1104,153,-122,236
5460,-72,-848,-1080,112,-99,260
5465,-112,-880,-1056,73,-70,277
5470,-120,-872,-1024,31,-42,292
5475,-56,-928,-976,-10,-12,299
5480,-72,-904,-912,-43,17,300
5485,-88,-920,-880,-58,39,296
5490,-96,-936,-848,-64,57,284
5495,-72,-920,-792,-61,71,267
5500,-120,-888,-776,-46,86,244
5505,-120,-936,-736,-19,93,217
5510,-112,-936,-712,22,98,192
5515,-80,-952,-704,71,100,164
5520,-104,-952,-656,124,101,127
5525,-104,-984,-656,182,100,95
5530,-64,-984,-640,240,99,63
5535,-144,-968,-672,294,103,26
5540,-152,-976,-656,339,112,-7
5545,-200,-1016,-672,380,125,-33
5550,-184,-984,-672,414,139,-46
5555,-200,-944,-696,438,154,-50
5560,-176,-960,-744,454,178,-49
5565,-160,-896,-776,459,204,-44
5570,-168,-880,-776,457,229,-26
5575,-104,-880,-848,444,255,10
5580,-112,-816,-896,416,275,45
5585,-48,-776,-992,375,293,86
5590,48,-768,-1048,325,305,125
5595,136,-768,-1096,269,304,152
5600,168,-760,-1168,209,294,174
5605,288,-752,-1200,149,281,192
5610,360,-792,-1272,94,272,199
5615,432,-912,-1264,47,269,198
5620,432,-1000,-1280,6,273,201
5625,504,-1200,-1280,-20,283,192
5630,504,-1384,-1272,-29,292,170
5635,488,-1632,-1256,-29,296,138
5640,432,-1768,-1288,-22,284,125
5645,264,-1976,-1272,-14,259,125
5650,96,-2144,-1304,-16,225,141
5655,-160,-2312,-1384,-29,191,182
5660,-256,-2464,-1448,-53,148,250
5665,-384,-2560,-1496,-107,101,306
5670,-536,-2632,-1576,-177,55,343
5675,-608,-2704,-1600,-225,3,383
5680,-752,-2768,-1600,-237,-60,413
5685,-944,-2760,-1552,-212,-130,419
5690,-1016,-2744,-1464,-141,-209,404
5695,-1096,-2680,-1360,-31,-284,364
5700,-1080,-2616,-1272,111,-346,299
5705,-1008,-2560,-1208,268,-384,228
5710,-848,-2496,-1200,417,-405,160
5715,-792,-2424,-1248,526,-413,102
5720,-624,-2376,-1280,578,-419,64
5725,-456,-2240,-1424,575,-428,30
5730,-256,-2112,-1632,513,-440,-10
5735,-56,-1928,-1936,397,-450,-56
5740,56,-1768,-2128,234,-457,-115
5745,48,-1616,-2392,39,-470,-169
5750,24,-1504,-2616,-163,-492,-215
5755,-16,-1488,-2728,-367,-516,-252
5760,-40,-1440,-2800,-556,-536,-275
5765,-96,-1448,-2848,-723,-541,-292
5770,-200,-1424,-2944,-862,-532,-296
5775,-256,-1392,-2936,-974,-515,-286
5780,-312,-1352,-2960,-1056,-489,-264
5785,-360,-1232,-3008,-1113,-454,-231
5790,-384,-1080,-3000,-1144,-419,-180
5795,-328,-984,-3016,-1143,-389,-117
5800,-248,-800,-2936,-1113,-349,-51
5805,-176,-640,-2800,-1048,-315,11
5810,-40,-568,-2648,-929,-293,68
5815,128,-512,-2480,-760,-277,113
5820,400,-392,-2264,-559,-267,132
5825,592,-328,-2128,-348,-269,121
5830,760,-272,-2008,-142,-290,81
5835,760,-272,-1912,46,-325,35
5840,744,-328,-1872,202,-363,-8
5845,672,-424,-1840,320,-397,-34
5850,592,-528,-1888,383,-419,-49
5855,480,-664,-1880,388,-435,-59
5860,440,-776,-1904,334,-451,-70
5865,328,-936,-1976,230,-476,-85
5870,280,-1032,-2032,90,-508,-105
5875,24,-1152,-2016,-63,-548,-136
5880,-96,-1208,-2032,-213,-589,-169
5885,-304,-1296,-2072,-352,-629,-199
5890,-456,-1320,-2072,-479,-655,-224
5895,-608,-1376,-2144,-597,-659,-239
5900,-640,-1456,-2208,-708,-637,-244
5905,-640,-1552,-2200,-805,-589,-253
5910,-632,-1632,-2224,-878,-525,-269
5915,-552,-1672,-2208,-915,-447,-292
5920,-504,-1720,-2104,-920,-364,-310
5925,-376,-1672,-2080,-896,-283,-327
5930,-296,-1584,-2008,-843,-208,-347
5935,-168,-1504,-1952,-779,-145,-372
5940,-24,-1408,-1808,-702,-101,-397
5945,144,-1272,-1712,-608,-71,-426
5950,232,-1144,-1608,-501,-42,-456
5955,272,-1064,-1560,-373,-23,-484
5960,288,-1040,-1432,-256,-15,-517
5965,296,-968,-1416,-148,-15,-548
5970,344,-936,-1328,-51,-21,-578
5975,368,-880,-1272,16,-24,-615
5980,416,-864,-1240,66,-23,-657
5985,408,-880,-1200,95,-25,-698
5990,368,-872,-1144,106,-25,-739
5995,312,-832,-1128,88,-21,-776
6000,224,-872,-1088,56,-18,-794
6005,128,-896,-1088,12,-23,-790
6010,32,-904,-1080,-48,-36,-777
6015,0,-904,-1064,-129,-58,-765
6020,-96,-968,-992,-218,-77,-762
6025,-112,-976,-1016,-300,-118,-748
6030,-200,-936,-952,-373,-178,-736
6035,-288,-968,-928,-436,-249,-729
6040,-240,-968,-896,-472,-327,-727
6045,-224,-976,-848,-483,-406,-730
6050,-208,-936,-824,-471,-489,-745
6055,-144,-896,-792,-435,-570,-776
6060,-128,-880,-720,-371,-642,-812
6065,-112,-896,-728,-287,-706,-852
6070,-128,-872,-712,-194,-758,-895
6075,-120,-880,-728,-98,-790,-933
6080,-64,-880,-760,-9,-806,-968
6085,-32,-864,-832,68,-810,-997
6090,-40,-832,-840,132,-803,-1014
6095,-24,-848,-856,179,-789,-1016
6100,-8,-824,-872,213,-772,-1004
6105,0,-776,-912,239,-751,-981
6110,64,-808,-968,257,-728,-951
6115,88,-776,-1016,276,-704,-917
6120,112,-784,-1024,298,-680,-878
6125,136,-744,-1080,323,-658,-837
6130,160,-768,-1080,348,-636,-792
6135,176,-736,-1088,373,-620,-751
6140,200,-840,-1080,392,-610,-713
6145,168,-888,-1104,410,-614,-674
6150,136,-928,-1080,428,-630,-639
6155,112,-1008,-1088,444,-650,-603
6160,56,-1056,-1088,459,-668,-570
6165,0,-1088,-1088,468,-687,-527
6170,-32,-1112,-1136,470,-705,-491
6175,-104,-1136,-1184,456,-719,-455
6180,-120,-1168,-1184,424,-723,-417
6185,-168,-1104,-1288,376,-717,-383
6190,-168,-1120,-1320,315,-699,-349
6195,-184,-1136,-1368,252,-688,-319
6200,-152,-1096,-1360,193,-673,-296
6205,-136,-1096,-1368,141,-654,-278
6210,-112,-1112,-1312,111,-631,-261
6215,-104,-1120,-1312,98,-606,-248
6220,-104,-1112,-1288,98,-578,-237
6225,-72,-1120,-1240,110,-551,-230
6230,-72,-1144,-1224,134,-524,-225
6235,-96,-1128,-1192,161,-498,-223
6240,-136,-1096,-1200,185,-480,-219
6245,-144,-1072,-1184,202,-466,-212
6250,-144,-1040,-1160,209,-458,-202
6255,-192,-1072,-1192,204,-455,-189
6260,-216,-1048,-1176,182,-459,-177
6265,-232,-1040,-1200,149,-467,-165
6270,-232,-1048,-1192,98,-478,-155
6275,-232,-1048,-1176,34,-492,-141
6280,-200,-1064,-1176,-35,-506,-134
6285,-216,-1096,-1152,-102,-522,-130
6290,-168,-1088,-1160,-163,-534,-121
6295,-168,-1112,-1112,-216,-543,-106
6300,-104,-1128,-1120,-256,-548,-97
6305,-56,-1128,-1088,-281,-547,-97
6310,-56,-1128,-1120,-301,-544,-84
6315,-16,-1096,-1088,-309,-536,-79
6320,16,-1080,-1064,-304,-529,-78
6325,40,-1056,-1072,-286,-523,-80
6330,64,-1008,-1104,-268,-519,-84
6335,168,-912,-1120,-259,-520,-95
6340,88,-944,-1232,-254,-523,-104
6345,48,-872,-1240,-284,-514,-91
6350,80,-864,-1232,-331,-500,-82
6355,40,-872,-1232,-382,-488,-71
6360,40,-816,-1136,-425,-466,-55
6365,16,-864,-1088,-439,-441,-46
6370,48,-960,-1040,-447,-409,-5
6375,80,-1016,-1008,-455,-364,26
6380,56,-1040,-1016,-458,-319,60
6385,96,-1072,-1000,-465,-266,94
6390,72,-1088,-1008,-479,-209,126
6395,72,-1104,-1040,-493,-152,157
6400,16,-1048,-952,-527,-83,193
6405,64,-1008,-960,-563,-28,221
6410,8,-992,-920,-592,4,237
6415,40,-944,-880,-615,18,244
6420,32,-896,-832,-638,15,242
6425,16,-888,-808,-642,-4,219
6430,0,-856,-768,-661,-28,227
6435,-8,-784,-712,-682,-49,225
6440,-16,-704,-680,-704,-79,227
6445,-24,-632,-672,-726,-114,228
6450,-40,-512,-688,-750,-144,233
6455,-48,-512,-648,-776,-167,238
6460,-104,-432,-592,-796,-191,243
6465,-80,-400,-536,-805,-214,247
6470,-208,-328,-544,-807,-237,251
6475,-240,-224,-528,-802,-251,260
6480,-272,-192,-552,-797,-262,268
6485,-312,-168,-544,-798,-272,282
6490,-296,-176,-512,-805,-280,297
6495,-288,-144,-488,-815,-285,310
6500,-256,-96,-424,-826,-292,321
6505,-216,-88,-448,-834,-300,328
6510,-224,-24,-440,-848,-315,329
6515,-128,-8,-528,-872,-341,327
6520,-120,40,-560,-908,-377,314
6525,-40,104,-688,-959,-419,303
6530,-32,128,-744,-1017,-469,292
6535,0,176,-864,-1077,-515,286
6540,-24,224,-888,-1137,-555,285
6545,-40,272,-960,-1201,-592,292
6550,-64,328,-968,-1254,-616,305
6555,-80,280,-976,-1294,-633,326
6560,-48,328,-912,-1324,-650,346
6565,-160,328,-904,-1345,-677,361
6570,-168,304,-816,-1372,-703,383
6575,-176,288,-856,-1400,-723,402
6580,-112,344,-856,-1432,-741,423
6585,-168,352,-848,-1469,-758,439
6590,-176,400,-864,-1501,-778,451
6595,-200,400,-872,-1523,-795,456
6600,-192,392,-896,-1541,-818,459
6605,-256,376,-936,-1558,-841,460
6610,-216,344,-912,-1565,-867,459
6615,-240,312,-888,-1571,-884,465
6620,-176,328,-888,-1574,-889,472
6625,-192,264,-888,-1571,-890,487
6630,-176,264,-792,-1578,-907,478
6635,-144,288,-680,-1591,-928,473
6640,-128,240,-568,-1599,-928,474
6645,8,288,-512,-1617,-897,487
6650,48,216,-416,-1661,-845,508
6655,24,144,-240,-1706,-815,536
6660,160,8,-296,-1767,-761,569
6665,480,-328,-272,-1855,-676,590
6670,648,-520,-336,-1983,-575,562
6675,888,-728,-480,-2174,-478,505
6680,1064,-1136,-312,-2368,-407,413
6685,1032,-1680,96,-2460,-373,313
6690,768,-2128,584,-2381,-396,244
6695,408,-2264,624,-2132,-437,244
6700,-416,-1832,240,-1850,-451,330
6705,-1176,-1168,-96,-1626,-422,520
6710,-2080,-512,-160,-1339,-372,766
6715,-1856,-544,-640,-964,-349,996
6720,-1960,240,-1504,-734,-312,1067
6725,-3112,2464,-4640,-787,-183,1198
6730,-15056,7896,-19704,-1522,679,1853
6735,-1672,-24504,-296,505,2763,1400
6740,-21504,-7792,-14808,11052,860,-1642
6745,11160,8448,-17616,9036,289,-2637
6750,-7208,29024,-1192,3734,2201,-1897
6755,8512,7576,-5784,1051,-615,-1202
6760,-1744,10296,-5600,-1710,-1853,-474
6765,-11896,10088,-9248,-3576,-2173,-3
6770,-9784,7008,-11024,-3518,-1659,640
6775,-8856,-464,-10912,-3656,-1096,1151
6780,-7336,-3720,-13344,-3859,-167,1296
6785,-7088,-120,-13904,-3807,750,1101
6790,-7096,2944,-13000,-3522,1520,845
6795,-3336,1976,-11056,-3105,1994,759
6800,-240,-792,-9968,-2530,2177,619
6805,-232,-1008,-7232,-2290,1891,540
6810,-912,64,-5304,-1943,1299,432
6815,-1320,1048,-4880,-1566,704,321
6820,-1960,2120,-4160,-1389,220,267
6825,-1880,2336,-3752,-1369,-216,255
6830,-2024,2240,-3656,-1402,-574,221
6835,-1568,2336,-3504,-1544,-864,180
6840,-1824,1696,-3552,-1804,-1061,138
6845,-1800,472,-2904,-2138,-1103,75
6850,-1208,-40,-2440,-2445,-991,64
6855,-1448,-208,-2656,-2708,-772,84
6860,-2264,-1408,-3760,-3220,-424,282
6865,-2952,-2592,-4032,-4258,-218,963
6870,-1576,-2848,-5048,-5449,-463,2457
6875,40,-2928,-5672,-6995,-928,3839
6880,1880,-7304,-3264,-8898,-1113,4233
6885,248,-9152,-632,-9074,-561,3273
6890,-1128,-4056,-400,-7072,160,1264
6895,-1424,-528,360,-5546,327,120
6900,-848,416,912,-4697,232,-266
6905,-672,1464,976,-3854,165,-452
6910,-416,2024,1152,-3017,147,-538
6915,-528,2528,1112,-2179,92,-562
6920,-440,3176,752,-1427,-6,-512
6925,-352,3288,568,-890,-80,-425
6930,-224,3008,296,-516,-113,-334
6935,-120,2840,72,-364,-135,-312
6940,344,2624,-224,-364,-154,-331
6945,456,2240,-360,-439,-144,-397
6950,424,1784,-432,-530,-128,-489
6955,368,1528,-488,-603,-109,-564
6960,368,1344,-680,-630,-88,-607
6965,-16,848,-776,-593,-48,-624
6970,-56,496,-880,-475,-40,-643
6975,-232,488,-1080,-309,-22,-675
6980,-224,544,-1440,-172,-39,-679
6985,-488,288,-1304,-115,-65,-706
6990,-352,680,-1504,-66,-138,-681
6995,-480,888,-1496,-116,-174,-655
7000,-376,1072,-1488,-197,-218,-626
7005,-440,1088,-1296,-299,-241,-601
7010,-392,1416,-1328,-373,-272,-555
7015,-440,1376,-1184,-438,-302,-529
7020,-472,1488,-1208,-476,-292,-487
7025,-456,1728,-1064,-500,-261,-505
7030,-400,1688,-1128,-470,-296,-456
7035,-400,1672,-1008,-407,-314,-432
7040,-432,1696,-936,-328,-329,-434
7045,-344,1584,-1000,-223,-355,-461
7050,-344,1704,-1144,-109,-380,-481
7055,-296,1616,-1072,-23,-374,-513
7060,-496,1472,-1184,43,-372,-503
7065,-448,1488,-1328,94,-365,-479
7070,-624,1520,-1400,105,-328,-503
7075,-624,1496,-1544,75,-299,-488
7080,-624,1456,-1552,-16,-250,-504
7085,-704,1688,-1680,-109,-246,-524
7090,-840,1872,-1720,-254,-264,-530
7095,-824,1736,-1656,-419,-285,-523
7100,-904,2168,-1728,-559,-311,-520
7105,-848,1816,-1648,-748,-385,-503
7110,-712,1528,-1536,-850,-412,-509
7115,-1176,1320,-1488,-831,-384,-506
7120,-464,1464,-1616,-767,-332,-511
7125,-664,1112,-1608,-698,-308,-537
7130,-928,1272,-1560,-646,-212,-590
7135,-1080,1608,-1592,-647,-172,-577
7140,-1056,1480,-1480,-648,-172,-521
7145,-1208,1528,-1416,-592,-169,-475
7150,-1128,1672,-1416,-481,-161,-426
7155,-1200,1584,-1416,-361,-166,-353
7160,-1168,1432,-1328,-221,-182,-316
7165,-1160,1336,-1344,-98,-204,-299
7170,-1192,1400,-1376,-14,-219,-284
7175,-1192,1416,-1384,38,-227,-268
7180,-1152,1448,-1368,74,-241,-257
7185,-1032,1360,-1296,126,-241,-235
7190,-1072,1264,-1240,206,-238,-227
7195,-1088,1256,-1176,312,-229,-220
7200,-1112,1200,-1160,440,-210,-213
7205,-992,1128,-1168,576,-172,-200
7210,-1048,1176,-1136,711,-123,-202
7215,-1000,1168,-1128,805,-90,-192
7220,-792,1024,-1088,903,5,-175
7225,-920,1104,-1112,1024,162,-194
7230,-1200,1160,-1080,1097,217,-185
7235,-1008,1112,-1096,1177,227,-142
7240,-704,1088,-1128,1303,293,-99
7245,-464,984,-1168,1441,422,-93
7250,-600,1096,-1088,1640,619,-141
7255,-1288,1144,-1104,1772,677,-173
7260,-1272,1024,-1248,1846,597,-146
7265,-1096,928,-1360,1916,539,-93
7270,-936,872,-1400,1961,493,-51
7275,-912,840,-1464,1988,481,-33
7280,-904,824,-1520,1978,482,-17
7285,-944,800,-1600,1951,483,1
7290,-912,792,-1672,1905,483,15
7295,-952,752,-1776,1854,478,24
7300,-968,752,-1840,1791,460,31
7305,-944,688,-1888,1725,435,41
7310,-928,752,-1864,1656,430,53
7315,-904,792,-2024,1597,409,51
7320,-888,704,-2048,1522,376,39
7325,-856,792,-2144,1419,317,21
7330,-792,752,-2104,1255,227,-14
7335,-784,784,-1936,1070,123,-51
7340,-848,784,-1704,923,50,-73
7345,-1088,712,-1416,891,43,-69
7350,-1040,448,-1280,959,109,-34
7355,-968,616,-1424,1126,227,-5
7360,-880,544,-1576,1303,319,4
7365,-816,568,-1768,1403,385,11
7370,-848,592,-1856,1394,437,23
7375,-736,408,-1816,1305,467,45
7380,-592,536,-1904,1272,486,40
7385,-672,432,-1920,1236,481,19
7390,-648,464,-2008,1166,458,9
7395,-744,448,-2096,1084,420,-2
7400,-648,512,-2088,1014,364,-13
7405,-680,544,-2144,944,296,-33
7410,-744,504,-2056,813,235,-46
7415,-744,560,-2048,707,199,-58
7420,-728,656,-2048,641,173,-73
7425,-768,552,-1952,602,147,-101
7430,-824,520,-1984,577,128,-136
7435,-888,584,-1952,564,123,-164
7440,-800,504,-2032,590,116,-188
7445,-1056,344,-1976,511,127,-191
7450,-928,392,-2048,445,152,-133
7455,-1000,416,-2032,391,150,-80
7460,-1000,408,-2032,332,139,-33
7465,-872,424,-2008,274,116,-5
7470,-872,416,-1944,219,97,7
7475,-912,456,-1968,172,85,17
7480,-856,504,-2040,137,85,19
7485,-864,496,-2000,103,83,21
7490,-824,496,-1992,74,89,21
7495,-760,456,-1976,44,88,19
7500,-760,480,-1944,15,91,19
7505,-744,504,-1968,-7,89,17
7510,-760,520,-1888,-21,91,19
7515,-736,504,-1896,-34,77,16
7520,-728,520,-1896,-47,66,13
7525,-704,512,-1872,-60,56,10
7530,-728,536,-1928,-68,51,8
7535,-696,512,-1944,-74,48,5
7540,-728,520,-1856,-79,46,3
7545,-744,512,-1808,-85,45,2
7550,-760,528,-1816,-88,46,0
7555,-768,552,-1832,-89,45,-3
7560,-760,536,-1824,-91,45,-5
7565,-768,568,-1816,-93,48,-3
7570,-776,544,-1768,-97,53,-4
7575,-776,552,-1824,-101,58,-2
7580,-776,552,-1776,-104,63,-1
7585,-776,584,-1840,-106,71,0
7590,-816,584,-1856,-110,78,3
7595,-784,600,-1816,-114,83,7
7600,-776,616,-1872,-116,86,9
7605,-768,576,-1824,-120,87,11
7610,-792,608,-1864,-122,82,11
7615,-776,600,-1848,-123,74,11
7620,-776,632,-1912,-125,60,8
7625,-736,600,-1840,-128,43,3
7630,-784,624,-1920,-130,26,0
7635,-760,616,-1896,-132,7,-5
7640,-768,592,-1864,-133,-12,-9
7645,-808,592,-1864,-138,-29,-12
7650,-776,616,-1840,-143,-45,-18
7655,-776,616,-1848,-143,-54,-21
7660,-792,640,-1856,-144,-63,-21
7665,-816,640,-1808,-141,-68,-23
7670,-792,648,-1832,-136,-69,-23
7675,-816,616,-1768,-130,-65,-23
7680,-792,640,-1792,-124,-60,-24
7685,-808,632,-1800,-111,-53,-20
7690,-808,632,-1792,-95,-43,-19
7695,-816,664,-1752,-75,-30,-17
7700,-792,640,-1840,-56,-19,-14
7705,-784,624,-1768,-39,-12,-12
7710,-776,664,-1752,-25,-4,-10
7715,-744,648,-1760,-12,2,-9
7720,-768,640,-1760,1,8,-10
7725,-776,640,-1768,13,16,-10
7730,-760,640,-1800,26,22,-11
7735,-768,656,-1840,36,27,-12
7740,-760,632,-1808,45,30,-13
7745,-744,616,-1800,49,31,-13
7750,-768,576,-1768,49,32,-13
7755,-776,640,-1808,51,32,-12
7760,-792,624,-1816,51,34,-12
7765,-760,616,-1840,52,35,-12
7770,-768,624,-1816,56,37,-11
7775,-784,624,-1816,62,36,-12
7780,-784,648,-1800,66,35,-12
7785,-776,608,-1832,70,33,-12
7790,-792,632,-1800,73,32,-10
7795,-800,632,-1808,77,34,-11
7800,-824,632,-1816,84,35,-12
7805,-776,624,-1792,89,35,-12
7810,-808,640,-1824,92,34,-11
7815,-800,632,-1808,93,33,-13
7820,-760,632,-1784,94,31,-12
7825,-776,608,-1824,93,26,-13
7830,-792,600,-1816,95,24,-13
7835,-808,624,-1832,98,24,-14
7840,-792,616,-1840,100,24,-14
7845,-784,592,-1864,102,24,-15
7850,-792,616,-1816,104,23,-15
7855,-776,592,-1800,107,22,-14
7860,-824,608,-1864,110,22,-12
7865,-776,608,-1832,111,22,-13
7870,-784,600,-1840,112,19,-13
7875,-792,584,-1872,111,18,-15
7880,-792,608,-1856,108,18,-15
7885,-768,592,-1848,106,17,-17
7890,-768,600,-1840,106,18,-16
7895,-784,592,-1840,104,21,-15
7900,-792,584,-1832,103,22,-16
7905,-792,600,-1872,101,22,-15
7910,-752,592,-1824,99,25,-13
7915,-728,584,-1840,97,26,-12
7920,-768,576,-1824,93,26,-15
7925,-768,608,-1824,89,26,-15
7930,-768,592,-1840,84,25,-15
7935,-784,600,-1864,81,22,-16
7940,-768,600,-1864,77,21,-15
7945,-800,576,-1824,72,19,-14
7950,-800,592,-1840,67,17,-14
7955,-784,584,-1824,66,17,-14
7960,-792,592,-1840,62,15,-13
7965,-784,584,-1864,60,14,-14
7970,-800,624,-1880,59,14,-13
7975,-768,592,-1832,60,12,-13
7980,-800,592,-1872,59,10,-15
7985,-760,600,-1848,58,7,-15
7990,-776,584,-1864,60,4,-14
7995,-776,600,-1864,60,2,-15
8000,-752,584,-1840,58,-2,-16
8005,-760,584,-1848,54,-6,-17
8010,-768,592,-1856,51,-9,-16
8015,-800,584,-1840,49,-12,-18
8020,-808,592,-1872,48,-14,-19
8025,-808,552,-1840,46,-13,-16
8030,-784,616,-1832,45,-12,-17
8035,-776,592,-1848,44,-13,-18
8040,-784,576,-1800,43,-13,-17
8045,-792,608,-1840,43,-15,-16
8050,-768,568,-1848,41,-13,-16
8055,-768,592,-1848,39,-11,-18
8060,-784,576,-1840,39,-9,-17
8065,-800,584,-1800,37,-6,-17
8070,-800,600,-1816,36,-1,-16
8075,-776,600,-1792,35,4,-16
8080,-800,584,-1800,36,9,-13
8085,-792,584,-1792,40,14,-12
8090,-760,584,-1800,42,20,-13
8095,-776,608,-1824,43,22,-11
8100,-784,608,-1800,44,23,-12
8105,-760,584,-1856,43,26,-10
8110,-776,568,-1800,44,30,-12
8115,-752,584,-1816,44,34,-10
8120,-744,592,-1840,47,37,-9
8125,-776,600,-1824,47,40,-8
8130,-792,600,-1824,48,41,-8
8135,-832,584,-1880,52,43,-9
8140,-784,608,-1856,55,43,-9
8145,-784,592,-1840,56,42,-10
8150,-776,584,-1832,58,42,-9
8155,-776,600,-1816,59,43,-9
8160,-808,600,-1840,60,43,-9
8165,-768,592,-1800,59,46,-9
8170,-776,584,-1816,58,49,-7
8175,-768,600,-1848,58,50,-6
8180,-760,576,-1816,57,50,-6
8185,-744,568,-1808,59,51,-4
8190,-808,544,-1904,59,53,-4
8195,-776,608,-1840,61,55,-3
8200,-768,584,-1824,62,55,-4
8205,-760,592,-1840,64,56,-5
8210,-768,600,-1856,63,56,-5
8215,-752,600,-1848,62,57,-4
8220,-776,592,-1824,59,56,-3
8225,-760,600,-1816,59,57,-4
8230,-800,608,-1848,56,59,-6
8235,-776,592,-1832,55,58,-4
8240,-792,616,-1872,56,57,-4
8245,-800,608,-1856,56,54,-4
8250,-760,584,-1848,56,52,-3
8255,-768,576,-1848,55,53,-3
8260,-776,600,-1832,56,54,-4
8265,-744,584,-1848,57,56,-4
8270,-752,592,-1832,61,58,-3
8275,-760,600,-1800,64,60,-3
8280,-784,568,-1848,66,61,-4
8285,-776,584,-1816,67,62,-4
8290,-760,560,-1832,66,63,-3
8295,-760,576,-1816,65,62,-1
8300,-776,592,-1776,66,62,-1
8305,-776,608,-1808,65,65,0
8310,-760,576,-1848,64,66,1
8315,-760,592,-1840,64,67,0
8320,-728,584,-1848,66,69,0
8325,-784,592,-1856,66,69,1
8330,-752,592,-1840,66,70,1
8335,-728,576,-1832,65,70,1
8340,-744,576,-1824,63,71,1
8345,-752,576,-1872,62,71,1
8350,-744,608,-1848,64,73,-1
8355,-744,576,-1864,67,75,1
8360,-816,592,-1856,69,78,2
8365,-728,576,-1856,74,84,2
8370,-744,584,-1904,73,77,0
8375,-728,616,-1864,66,69,-1
8380,-744,592,-1856,62,64,-5
8385,-776,608,-1864,59,61,-5
8390,-776,576,-1864,62,59,-4
8395,-760,584,-1872,62,57,-5
8400,-760,600,-1880,61,56,-6
8405,-760,608,-1912,60,58,-5
8410,-744,600,-1816,61,67,0
8415,-760,576,-1872,65,60,-2
8420,-736,600,-1856,61,55,-3
8425,-744,584,-1880,54,47,-4
8430,-752,592,-1840,49,48,-4
8435,-736,624,-1864,47,46,-4
8440,-720,568,-1848,49,44,-3
8445,-752,616,-1816,52,46,-3
8450,-736,600,-1872,51,46,-3
8455,-712,568,-1872,50,52,-1
8460,-744,576,-1872,50,50,-4
8465,-712,592,-1848,48,45,-4
8470,-736,592,-1848,46,39,-5
8475,-728,592,-1832,43,38,-4
8480,-744,584,-1848,42,37,-6
8485,-744,608,-1840,45,39,-5
8490,-736,576,-1824,48,40,-7
8495,-720,576,-1856,49,41,-6
8500,-728,592,-1856,49,40,-5
8505,-736,576,-1864,50,39,-4
8510,-720,584,-1848,50,39,-5
8515,-736,664,-1824,46,38,-7
8520,-736,600,-1816,42,37,-5
8525,-736,608,-1776,47,38,-5
8530,-728,608,-1856,54,41,-6
8535,-728,584,-1816,57,43,-6
8540,-712,600,-1832,54,44,-6
8545,-720,584,-1872,53,43,-7
8550,-760,616,-1840,53,43,-6
8555,-752,592,-1896,50,41,-7
8560,-728,608,-1848,50,39,-8
8565,-728,576,-1864,51,39,-9
8570,-728,560,-1928,54,40,-8
8575,-736,600,-1848,56,37,-7
8580,-728,600,-1880,53,35,-10
8585,-744,592,-1856,52,33,-9
8590,-728,592,-1816,50,29,-10
8595,-736,560,-1856,49,29,-10
8600,-720,584,-1832,48,27,-8
8605,-736,568,-1848,49,25,-10
8610,-744,576,-1856,47,26,-8
8615,-736,576,-1872,45,27,-8
8620,-696,568,-1864,45,27,-10
8625,-752,560,-1872,46,25,-9
8630,-752,592,-1848,45,25,-9
8635,-760,584,-1880,45,26,-9
8640,-728,600,-1848,46,26,-8
8645,-736,576,-1864,47,26,-9
8650,-728,592,-1856,47,26,-8
8655,-736,608,-1856,47,26,-9
8660,-744,608,-1856,48,28,-7
8665,-720,608,-1840,47,29,-7
8670,-744,616,-1864,46,29,-6
8675,-744,568,-1880,47,30,-6
8680,-720,592,-1840,47,31,-6
8685,-712,584,-1856,47,33,-4
8690,-712,568,-1888,46,32,-7
8695,-728,592,-1832,45,33,-4
8700,-728,584,-1872,46,35,-4
8705,-744,600,-1856,46,36,-5
8710,-728,576,-1816,45,37,-3
8715,-712,576,-1832,46,36,-4
8720,-728,608,-1872,46,38,-4
8725,-728,584,-1872,45,40,-5
8730,-704,600,-1864,47,40,-4
8735,-776,624,-1848,47,41,-5
8740,-712,584,-1856,48,41,-5
8745,-728,584,-1864,49,40,-5
8750,-728,592,-1872,49,41,-4
8755,-720,592,-1864,49,41,-4
8760,-720,600,-1840,48,42,-3
8765,-720,576,-1872,48,42,-4
8770,-720,608,-1816,49,42,-3
8775,-728,584,-1880,51,42,-4
8780,-720,560,-1840,50,40,-3
8785,-712,568,-1832,51,40,-4
8790,-728,544,-1848,49,40,-4
8795,-720,568,-1864,48,41,-4
8800,-720,576,-1848,48,41,-1
8805,-720,600,-1864,48,40,-3
8810,-712,592,-1872,48,40,-3
8815,-712,592,-1880,49,40,-3
8820,-720,584,-1872,47,40,-1
8825,-744,576,-1840,49,40,-4
8830,-704,616,-1824,47,38,-3
8835,-728,600,-1848,46,40,-2
8840,-728,608,-1880,48,39,-1
8845,-728,608,-1880,47,40,-3
8850,-712,584,-1848,47,39,-3
8855,-720,600,-1840,46,39,-3
8860,-720,600,-1856,49,39,-5
8865,-728,624,-1840,52,38,-4
8870,-728,576,-1904,52,36,-4
8875,-728,600,-1864,53,32,-5
8880,-696,592,-1872,54,31,-6
8885,-744,616,-1840,52,30,-6
8890,-712,600,-1848,53,27,-7
8895,-704,584,-1920,53,27,-6
8900,-712,576,-1832,53,26,-7
8905,-704,592,-1856,51,25,-8
8910,-704,592,-1848,50,27,-7
8915,-720,584,-1840,48,26,-6
8920,-720,584,-1840,47,25,-6
8925,-712,576,-1856,48,26,-4
8930,-712,576,-1832,50,29,-5
8935,-720,600,-1864,54,32,-6
8940,-712,600,-1864,56,35,-5
8945,-712,592,-1864,57,34,-5
8950,-720,624,-1872,57,35,-6
8955,-728,592,-1872,56,34,-6
8960,-688,608,-1856,56,33,-6
8965,-704,608,-1840,55,33,-7
8970,-728,608,-1856,55,32,-7
8975,-704,584,-1864,53,30,-9
8980,-696,584,-1824,53,28,-8
8985,-696,600,-1864,52,27,-9
8990,-712,600,-1840,51,25,-9
8995,-696,584,-1880,52,24,-9
9000,-688,600,-1888,52,22,-9
9005,-744,608,-1872,53,21,-9
9010,-712,592,-1864,51,19,-10
9015,-696,600,-1880,51,17,-11
9020,-720,600,-1872,51,16,-11
9025,-720,592,-1848,50,13,-11
9030,-712,584,-1872,48,13,-12
9035,-712,592,-1880,50,11,-12
9040,-688,568,-1872,50,10,-12
9045,-736,616,-1872,50,9,-10
9050,-728,584,-1856,49,8,-11
9055,-704,600,-1872,48,9,-12
9060,-744,576,-1848,47,7,-13
9065,-728,608,-1888,49,8,-11
9070,-704,576,-1848,48,7,-12
9075,-704,592,-1864,51,6,-12
9080,-712,608,-1848,51,8,-13
9085,-728,584,-1856,50,7,-13
9090,-704,568,-1896,51,6,-14
9095,-688,592,-1856,51,5,-14
9100,-704,584,-1848,52,5,-12
9105,-712,584,-1864,51,4,-14
9110,-712,592,-1872,50,3,-13
9115,-728,568,-1856,50,5,-13
9120,-688,600,-1864,50,5,-12
9125,-704,592,-1872,48,4,-12
9130,-696,584,-1848,47,5,-12
9135,-704,592,-1848,46,5,-13
9140,-712,592,-1856,47,6,-13
9145,-688,576,-1888,51,7,-14
9150,-696,592,-1856,52,8,-12
9155,-736,616,-1888,52,8,-11
9160,-736,608,-1848,52,8,-11
9165,-712,568,-1872,52,7,-11
9170,-728,592,-1808,51,8,-10
9175,-728,608,-1864,49,7,-10
9180,-736,608,-1848,48,8,-10
9185,-728,592,-1848,48,9,-11
9190,-720,584,-1856,50,9,-10
9195,-688,576,-1824,50,9,-12
9200,-696,576,-1896,50,12,-12
9205,-712,576,-1832,51,12,-10
9210,-712,616,-1816,51,9,-11
9215,-712,560,-1872,50,9,-10
9220,-736,584,-1824,49,11,-10
9225,-752,560,-1864,48,12,-9
9230,-696,568,-1864,48,13,-9
9235,-704,576,-1840,47,14,-9
9240,-688,600,-1888,48,14,-9
9245,-704,576,-1856,48,13,-10
9250,-704,592,-1856,49,13,-9
9255,-720,592,-1856,50,11,-10
9260,-688,584,-1840,49,11,-10
9265,-712,608,-1864,50,9,-12
9270,-704,576,-1856,49,10,-10
9275,-704,600,-1848,49,9,-11
9280,-664,640,-1864,49,8,-11
9285,-712,592,-1856,50,9,-9
9290,-720,592,-1880,49,8,-10
9295,-696,584,-1856,48,7,-10
9300,-720,576,-1848,48,6,-12
9305,-712,592,-1864,49,6,-13
9310,-712,568,-1888,49,6,-13
9315,-712,568,-1872,48,8,-9
9320,-704,600,-1904,49,9,-10
9325,-720,568,-1872,48,10,-12
9330,-688,600,-1864,50,9,-11
9335,-712,568,-1808,50,9,-12
9340,-712,592,-1864,49,10,-11
9345,-680,584,-1824,49,11,-11
9350,-704,568,-1832,51,11,-9
9355,-712,584,-1856,50,13,-10
9360,-712,576,-1856,53,13,-11
9365,-688,576,-1848,53,14,-11
9370,-720,576,-1880,54,14,-10
9375,-720,592,-1856,53,13,-10
9380,-688,584,-1832,54,12,-9
9385,-664,560,-1872,53,13,-10
9390,-696,576,-1856,53,14,-10
9395,-712,584,-1832,51,13,-10
9400,-736,584,-1864,52,12,-10
9405,-688,592,-1864,52,12,-10
9410,-712,592,-1864,53,12,-9
9415,-712,584,-1848,52,13,-12
9420,-712,584,-1856,50,14,-10
9425,-712,592,-1848,50,15,-11
9430,-704,560,-1864,50,13,-11
9435,-736,616,-1832,53,14,-13
9440,-728,632,-1888,55,13,-11
9445,-736,584,-1872,55,14,-13
9450,-712,592,-1880,56,12,-12
9455,-720,592,-1880,56,11,-13
9460,-696,568,-1856,57,9,-13
9465,-744,616,-1848,54,8,-12
9470,-712,600,-1872,54,6,-13
9475,-704,568,-1864,56,7,-13
9480,-696,584,-1856,55,7,-13
9485,-704,592,-1880,54,7,-11
9490,-704,584,-1832,51,6,-12
9495,-728,560,-1872,50,5,-12
9500,-720,608,-1832,50,7,-14
9505,-712,584,-1840,50,9,-13
9510,-720,608,-1872,51,12,-12
9515,-696,584,-1856,53,13,-11
9520,-712,584,-1840,54,13,-12
9525,-704,608,-1880,57,13,-12
9530,-696,592,-1872,56,15,-10
9535,-704,584,-1832,56,15,-11
9540,-720,592,-1872,54,18,-11
9545,-704,576,-1888,53,18,-10
9550,-704,528,-1824,53,17,-13
9555,-712,576,-1864,52,17,-12
9560,-720,592,-1880,52,17,-10
9565,-736,568,-1872,51,19,-8
9570,-704,576,-1856,53,19,-9
9575,-712,584,-1880,51,16,-11
9580,-720,608,-1864,49,11,-12
9585,-736,568,-1864,47,8,-11
9590,-760,616,-1832,46,6,-13
9595,-704,568,-1864,46,7,-12
9600,-728,584,-1872,47,6,-13
9605,-736,584,-1912,48,4,-14
9610,-720,600,-1864,49,4,-13
9615,-728,592,-1840,48,4,-14
9620,-720,592,-1864,46,2,-13
9625,-672,576,-1888,46,4,-12
9630,-736,592,-1832,44,3,-12
9635,-720,600,-1816,47,3,-12
9640,-696,592,-1856,48,9,-11
9645,-704,584,-1856,48,9,-12
9650,-704,584,-1888,46,7,-12
9655,-712,576,-1864,46,8,-13
9660,-776,584,-1832,46,7,-11
9665,-720,584,-1832,47,8,-11
9670,-712,584,-1880,47,9,-11
9675,-728,592,-1840,45,7,-12
9680,-736,592,-1872,45,5,-13
9685,-720,616,-1848,44,5,-12
9690,-696,584,-1856,43,6,-11
9695,-696,560,-1848,43,6,-9
9700,-712,600,-1864,42,7,-10
9705,-688,576,-1824,40,8,-12
9710,-728,568,-1888,40,9,-13
9715,-736,592,-1824,40,10,-12
9720,-720,592,-1856,42,12,-11
9725,-712,584,-1872,46,15,-11
9730,-720,608,-1848,47,14,-11
9735,-712,592,-1872,47,15,-11
9740,-704,576,-1856,46,13,-9
9745,-712,592,-1864,45,14,-8
9750,-696,560,-1824,46,15,-10
9755,-680,584,-1856,45,16,-9
9760,-696,568,-1864,44,16,-7
9765,-712,584,-1872,45,16,-8
9770,-752,560,-1848,45,18,-7
9775,-704,592,-1896,46,19,-7
9780,-704,576,-1856,46,20,-6
9785,-688,576,-1840,47,21,-7
9790,-688,560,-1872,47,20,-7
9795,-720,592,-1824,48,21,-6
9800,-728,584,-1856,46,21,-6
9805,-696,600,-1856,46,24,-7
9810,-728,608,-1832,46,25,-7
9815,-736,576,-1880,44,25,-6
9820,-744,584,-1840,45,27,-6
9825,-736,584,-1888,45,27,-5
9830,-720,600,-1880,45,28,-6
9835,-720,608,-1856,48,29,-6
9840,-720,592,-1888,46,27,-7
9845,-704,600,-1840,45,28,-7
9850,-720,592,-1872,46,26,-7
9855,-696,592,-1848,45,25,-7
9860,-720,608,-1848,46,24,-8
9865,-720,592,-1864,46,24,-7
9870,-712,600,-1824,46,22,-6
9875,-696,584,-1872,45,23,-6
9880,-696,624,-1832,46,21,-8
9885,-736,600,-1856,45,22,-6
9890,-704,584,-1840,47,22,-7
9895,-728,576,-1856,47,21,-8
9900,-712,584,-1888,46,21,-7
9905,-712,584,-1880,46,21,-7
9910,-688,568,-1864,46,21,-7
9915,-696,576,-1824,45,21,-6
9920,-728,624,-1888,46,20,-8
9925,-720,600,-1840,44,22,-8
9930,-688,544,-1872,45,22,-10
9935,-696,584,-1856,45,21,-6
9940,-720,600,-1864,45,21,-8
9945,-720,584,-1864,45,21,-9
9950,-696,592,-1864,43,21,-8
9955,-712,576,-1888,45,20,-6
9960,-728,600,-1872,44,20,-7
9965,-696,608,-1856,44,21,-6
9970,-720,600,-1832,45,22,-6
9975,-728,592,-1872,47,22,-7
9980,-720,600,-1864,47,23,-7
9985,-744,592,-1856,46,22,-7
9990,-688,576,-1840,48,24,-8
9995,-688,584,-1896,45,23,-5
10000,-720,576,-1864,47,23,-6
10005,-704,600,-1864,46,24,-6
10010,-688,568,-1880,46,24,-6
10015,-712,584,-1848,47,23,-6
10020,-688,576,-1888,48,25,-7
10025,-688,576,-1856,48,26,-7
10030,-696,608,-1864,49,26,-6
10035,-704,584,-1864,48,26,-7
10040,-696,600,-1872,47,26,-7
10045,-704,616,-1840,48,26,-6
10050,-712,576,-1888,48,27,-6
10055,-704,584,-1848,48,28,-7
10060,-704,608,-1888,47,27,-6
10065,-696,568,-1840,44,28,-6
10070,-696,584,-1856,44,28,-7
10075,-736,632,-1864,45,27,-6
10080,-680,584,-1872,45,27,-6
10085,-688,560,-1864,45,25,-7
10090,-728,600,-1864,47,26,-6
10095,-720,584,-1848,49,26,-5
10100,-688,592,-1856,51,26,-7
10105,-688,568,-1888,49,24,-7
10110,-712,584,-1856,50,21,-6
10115,-712,600,-1880,50,18,-6
10120,-704,576,-1904,51,17,-8
10125,-704,584,-1864,52,18,-8
10130,-720,616,-1888,52,18,-9
10135,-720,600,-1888,52,19,-9
10140,-696,584,-1848,49,19,-8
10145,-688,568,-1872,47,20,-8
10150,-728,616,-1880,46,20,-8
10155,-696,576,-1872,47,23,-7
10160,-704,576,-1880,49,25,-7
10165,-688,600,-1856,53,28,-6
10170,-696,592,-1880,56,30,-6
10175,-680,568,-1880,57,30,-6
10180,-696,592,-1880,57,29,-7
10185,-728,584,-1864,56,30,-7
10190,-688,584,-1848,54,29,-6
10195,-712,584,-1912,53,28,-6
10200,-712,624,-1880,52,26,-9
10205,-704,560,-1856,52,25,-8
10210,-696,568,-1856,51,24,-7
10215,-688,600,-1880,49,22,-8
10220,-704,592,-1856,50,20,-7
10225,-696,592,-1880,50,19,-9
10230,-720,616,-1864,50,18,-11
10235,-696,576,-1872,50,17,-10
10240,-728,624,-1880,52,14,-9
10245,-680,576,-1848,53,14,-10
10250,-712,584,-1896,53,12,-10
10255,-696,584,-1872,53,10,-10
10260,-696,664,-1904,53,9,-11
10265,-680,592,-1888,54,9,-12
10270,-696,608,-1896,55,8,-11
10275,-712,576,-1880,55,7,-11
10280,-712,600,-1880,54,7,-10
10285,-704,592,-1864,54,7,-12
10290,-688,576,-1880,54,5,-12
10295,-696,600,-1840,53,3,-13
10300,-688,592,-1824,53,2,-11
10305,-704,568,-1856,54,1,-12
10310,-704,632,-1888,55,0,-12
10315,-632,576,-1880,55,0,-12
10320,-680,568,-1872,56,0,-12
10325,-696,560,-1872,57,0,-14
10330,-696,584,-1864,58,1,-14
10335,-688,576,-1856,59,0,-13
10340,-688,592,-1864,57,2,-14
10345,-728,600,-1880,56,2,-13
10350,-696,608,-1888,56,2,-12
10355,-688,632,-1832,56,1,-14
10360,-696,568,-1872,53,1,-14
10365,-688,576,-1856,53,2,-13
10370,-736,568,-1904,53,3,-12
10375,-688,584,-1864,54,4,-13
10380,-696,568,-1856,53,4,-14
10385,-704,576,-1832,52,3,-11
10390,-704,592,-1864,49,3,-9
10395,-712,584,-1896,47,3,-11
10400,-664,584,-1880,44,4,-13
10405,-712,592,-1856,45,5,-13
10410,-704,600,-1848,46,4,-11
10415,-704,568,-1872,49,7,-11
10420,-688,576,-1856,51,8,-10
10425,-704,584,-1856,54,10,-10
10430,-696,592,-1896,55,11,-9
10435,-704,592,-1856,56,11,-11
10440,-704,600,-1880,54,10,-10
10445,-720,576,-1864,50,10,-9
10450,-688,592,-1856,48,9,-10
10455,-736,608,-1872,45,10,-11
10460,-712,600,-1856,44,11,-10
10465,-728,576,-1848,45,14,-9
10470,-696,592,-1856,44,14,-10
10475,-736,592,-1928,46,16,-9
10480,-688,568,-1872,47,16,-9
10485,-704,592,-1872,48,15,-9
10490,-680,600,-1864,49,14,-10
10495,-704,576,-1904,51,13,-11
10500,-680,568,-1840,52,13,-10
10505,-712,600,-1848,53,12,-9
10510,-688,576,-1888,53,10,-12
10515,-720,608,-1856,51,7,-11
10520,-696,576,-1848,52,7,-10
10525,-696,584,-1824,50,5,-9
10530,-688,584,-1864,49,6,-10
10535,-704,584,-1864,50,4,-11
10540,-688,600,-1880,49,7,-12
10545,-712,592,-1872,49,7,-13
10550,-688,576,-1840,49,8,-12
10555,-688,600,-1856,48,8,-11
10560,-696,568,-1872,48,8,-11
10565,-712,592,-1864,47,9,-9
10570,-696,600,-1848,46,10,-10
10575,-656,560,-1856,46,10,-10
10580,-680,576,-1840,49,10,-10
10585,-712,552,-1832,49,10,-9
10590,-680,568,-1864,48,9,-11
10595,-712,576,-1848,48,11,-10
10600,-720,608,-1864,48,9,-11
10605,-704,584,-1880,47,11,-10
10610,-712,608,-1840,48,12,-11
10615,-712,584,-1856,48,12,-11
10620,-712,616,-1888,48,10,-11
10625,-704,544,-1864,48,11,-10
10630,-720,600,-1856,47,11,-11
10635,-696,584,-1872,47,11,-11
10640,-752,568,-1872,47,10,-10
10645,-704,584,-1872,46,12,-10
10650,-696,584,-1880,47,13,-10
10655,-712,584,-1864,46,13,-9
10660,-704,600,-1856,47,16,-10
10665,-720,592,-1880,48,15,-9
10670,-712,592,-1864,47,15,-11
10675,-736,600,-1888,49,14,-10
10680,-704,600,-1840,50,14,-9
10685,-728,584,-1880,51,15,-10
10690,-728,584,-1864,52,14,-11
10695,-736,616,-1856,53,12,-10
10700,-704,576,-1888,53,8,-11
10705,-680,576,-1888,53,7,-11
10710,-688,568,-1864,52,4,-12
10715,-680,568,-1904,51,3,-12
10720,-712,584,-1872,51,3,-15
10725,-704,592,-1840,52,3,-14
10730,-712,576,-1840,50,2,-13
10735,-720,584,-1880,50,2,-13
10740,-696,608,-1880,50,3,-13
10745,-704,608,-1856,52,2,-12
10750,-680,568,-1896,52,2,-11
10755,-712,576,-1872,53,1,-11
10760,-704,592,-1864,54,2,-11
10765,-712,592,-1856,53,2,-14
10770,-696,576,-1856,55,3,-14
10775,-712,592,-1856,56,5,-12
10780,-696,568,-1872,56,6,-11
10785,-728,600,-1872,54,8,-11
10790,-704,576,-1864,53,9,-12
10795,-688,600,-1864,51,11,-11
10800,-680,584,-1848,52,12,-10
10805,-712,568,-1808,54,12,-10
10810,-696,568,-1872,57,14,-11
10815,-720,592,-1864,59,14,-10
10820,-712,568,-1872,60,13,-12
10825,-720,584,-1840,58,12,-10
10830,-696,592,-1864,57,12,-10
10835,-696,592,-1856,56,12,-10
10840,-696,584,-1856,54,14,-10
10845,-696,576,-1872,53,14,-11
10850,-688,616,-1888,51,16,-11
10855,-696,584,-1880,48,17,-10
10860,-720,576,-1896,46,18,-8
10865,-704,600,-1888,46,19,-10
10870,-688,584,-1880,47,18,-8
10875,-712,584,-1872,46,19,-8
10880,-728,616,-1872,46,19,-8
10885,-680,560,-1864,46,17,-8
10890,-680,584,-1840,46,16,-8
10895,-720,608,-1840,46,14,-8
10900,-712,592,-1872,47,13,-8
10905,-688,576,-1856,47,11,-10
10910,-704,600,-1856,46,10,-9
10915,-712,576,-1864,46,9,-11
10920,-712,608,-1864,45,11,-12
10925,-712,584,-1856,44,10,-11
10930,-672,600,-1872,43,11,-9
10935,-712,584,-1872,43,10,-9
10940,-696,560,-1848,44,11,-10
10945,-704,616,-1880,44,13,-13
10950,-696,592,-1848,42,13,-10
10955,-704,600,-1888,43,14,-11
10960,-712,600,-1848,44,15,-10
10965,-696,552,-1848,44,15,-10
10970,-704,592,-1848,46,13,-11
10975,-704,568,-1864,47,15,-10
10980,-688,576,-1824,47,14,-10
10985,-720,600,-1856,47,14,-11
10990,-704,600,-1864,46,14,-10
10995,-712,592,-1872,45,12,-9
11000,-688,584,-1816,43,13,-10
11005,-704,576,-1872,44,12,-12
11010,-688,568,-1888,47,13,-11
11015,-696,560,-1864,48,13,-12
11020,-736,600,-1888,47,12,-11
11025,-720,576,-1880,49,11,-11
11030,-704,600,-1856,48,10,-11
11035,-704,584,-1872,49,9,-11
11040,-696,600,-1872,49,9,-10
11045,-696,600,-1856,48,8,-11
11050,-696,584,-1848,49,8,-11
11055,-688,576,-1872,50,7,-10
11060,-664,576,-1832,50,6,-11
11065,-712,608,-1832,50,5,-11
11070,-720,560,-1856,50,7,-12
11075,-696,560,-1824,49,7,-11
11080,-696,584,-1888,52,8,-10
11085,-712,584,-1880,50,8,-10
11090,-696,584,-1880,51,7,-12
11095,-704,576,-1880,50,8,-10
11100,-696,576,-1848,48,9,-12
11105,-672,592,-1880,50,12,-12
11110,-744,592,-1856,48,11,-11
11115,-696,568,-1888,47,12,-11
11120,-664,568,-1880,46,14,-12
11125,-712,584,-1832,47,15,-9
11130,-704,584,-1888,48,15,-10
11135,-712,576,-1864,48,15,-10
11140,-704,584,-1856,48,16,-11
11145,-696,576,-1872,49,14,-11
11150,-704,592,-1872,49,12,-10
11155,-688,552,-1888,50,12,-9
11160,-696,600,-1864,50,12,-10
11165,-696,560,-1864,51,12,-11
11170,-680,584,-1856,49,12,-11
11175,-704,584,-1840,49,11,-11
11180,-728,576,-1896,48,10,-10
11185,-680,584,-1848,49,12,-10
11190,-712,584,-1872,50,10,-10
11195,-712,584,-1864,50,10,-12
11200,-720,592,-1864,52,10,-10
11205,-712,576,-1840,54,12,-12
11210,-704,560,-1872,54,11,-9
11215,-704,592,-1880,53,11,-11
11220,-704,576,-1896,51,10,-12
11225,-704,600,-1856,49,9,-12
11230,-704,584,-1872,47,7,-11
11235,-672,608,-1872,47,8,-11
11240,-688,560,-1856,46,8,-12
11245,-688,584,-1840,45,10,-12
11250,-720,576,-1856,45,11,-10
11255,-696,568,-1872,46,13,-9
11260,-712,600,-1872,46,14,-10
11265,-680,584,-1840,48,14,-10
11270,-680,600,-1856,48,15,-11
11275,-696,600,-1888,50,14,-10
11280,-696,600,-1864,49,14,-10
11285,-720,616,-1896,50,12,-11
11290,-736,576,-1880,51,11,-11
11295,-696,576,-1872,53,11,-11
11300,-696,592,-1896,54,10,-12
11305,-704,576,-1888,54,11,-12
11310,-688,576,-1872,52,9,-9
11315,-712,592,-1856,51,10,-11
11320,-704,576,-1848,51,11,-12
11325,-696,576,-1848,52,12,-11
11330,-680,576,-1856,51,13,-12
11335,-704,600,-1848,50,13,-10
11340,-696,592,-1848,51,15,-11
11345,-680,584,-1856,50,16,-9
11350,-720,592,-1880,50,16,-10
11355,-712,576,-1872,49,16,-8
11360,-712,584,-1872,47,17,-9
11365,-688,608,-1872,48,16,-9
11370,-688,592,-1880,49,17,-9
11375,-672,576,-1872,49,17,-9
11380,-712,576,-1864,47,16,-9
11385,-696,608,-1888,48,17,-10
11390,-696,592,-1880,48,19,-10
11395,-688,592,-1800,50,18,-10
11400,-696,568,-1856,50,15,-9
11405,-688,576,-1816,49,16,-10
11410,-704,584,-1872,50,16,-10
11415,-696,568,-1864,53,15,-10
11420,-688,576,-1848,54,13,-9
11425,-704,584,-1856,55,11,-9
11430,-696,576,-1872,54,10,-12
11435,-680,576,-1896,52,7,-13
11440,-696,584,-1864,51,5,-13
11445,-704,584,-1856,53,5,-12
11450,-752,600,-1832,54,8,-11
11455,-696,552,-1880,51,9,-11
11460,-672,576,-1856,48,9,-11
11465,-728,560,-1832,45,6,-11
11470,-696,568,-1824,46,12,-12
11475,-720,568,-1840,49,14,-12
11480,-688,600,-1880,52,16,-11
11485,-712,608,-1872,54,18,-10
11490,-712,600,-1904,54,21,-9
11495,-688,584,-1864,52,21,-9
11500,-712,592,-1912,50,21,-8
11505,-720,584,-1856,50,19,-8
11510,-640,632,-1896,51,19,-8
11515,-696,576,-1840,48,19,-9
11520,-688,584,-1872,47,20,-9
11525,-712,600,-1864,47,19,-9
11530,-672,584,-1856,45,18,-9
11535,-688,584,-1888,46,17,-11
11540,-696,592,-1872,47,16,-10
11545,-712,592,-1896,47,15,-11
11550,-696,576,-1872,46,14,-12
11555,-720,576,-1848,46,13,-10
11560,-688,576,-1872,48,12,-10
11565,-688,608,-1880,47,10,-11
11570,-688,600,-1856,47,10,-12
11575,-672,600,-1896,47,8,-12
11580,-712,592,-1864,48,7,-12
11585,-688,592,-1856,47,6,-11
11590,-736,576,-1864,47,7,-14
11595,-712,600,-1896,48,6,-13
11600,-712,568,-1872,48,5,-10
11605,-704,568,-1872,48,6,-11
11610,-696,576,-1880,48,6,-12
11615,-704,560,-1856,46,6,-11
11620,-728,552,-1912,47,6,-12
11625,-704,576,-1832,46,5,-12
11630,-680,568,-1848,46,7,-14
11635,-712,576,-1864,45,8,-13
11640,-696,584,-1864,48,8,-12
11645,-680,568,-1880,47,9,-10
11650,-696,568,-1848,47,10,-10
11655,-712,600,-1848,46,10,-10
11660,-704,560,-1888,46,10,-11
11665,-672,560,-1872,46,9,-11
11670,-712,568,-1880,46,10,-12
11675,-632,584,-1920,47,11,-11
11680,-704,592,-1872,49,12,-11
11685,-704,560,-1880,50,12,-12
11690,-720,576,-1888,50,12,-11
11695,-688,584,-1880,50,11,-13
11700,-712,592,-1864,49,10,-10
11705,-688,568,-1848,49,10,-11
11710,-696,560,-1872,48,10,-9
11715,-704,568,-1872,48,9,-11
11720,-712,576,-1888,47,8,-10
11725,-696,576,-1856,46,8,-10
11730,-672,592,-1840,44,10,-10
11735,-696,592,-1856,45,9,-10
11740,-696,576,-1880,45,11,-10
11745,-696,592,-1864,46,11,-10
11750,-712,592,-1848,46,13,-10
11755,-696,576,-1856,47,16,-9
11760,-688,592,-1864,47,16,-9
11765,-696,568,-1856,48,15,-10
11770,-696,584,-1888,48,15,-9
11775,-720,576,-1864,48,15,-10
11780,-712,600,-1864,49,14,-10
11785,-704,552,-1824,47,12,-9
11790,-696,592,-1896,47,13,-11
11795,-712,600,-1824,47,11,-11
11800,-704,584,-1864,45,11,-12
11805,-704,584,-1880,45,12,-13
11810,-704,568,-1856,45,11,-11
11815,-704,592,-1872,45,12,-11
11820,-680,600,-1864,45,14,-11
11825,-688,576,-1848,46,14,-9
11830,-720,608,-1864,47,14,-11
11835,-688,584,-1880,48,13,-11
11840,-712,672,-1848,47,12,-10
11845,-728,592,-1848,46,11,-11
11850,-712,584,-1864,47,10,-11
11855,-696,568,-1856,47,9,-10
11860,-712,576,-1848,47,8,-10
11865,-704,584,-1864,47,7,-13
11870,-720,616,-1888,47,7,-10
11875,-720,560,-1856,46,8,-11
11880,-720,560,-1864,46,8,-10
11885,-680,592,-1832,46,9,-9
11890,-720,608,-1856,44,9,-10
11895,-736,600,-1872,45,11,-9
11900,-720,592,-1872,46,10,-10
11905,-720,576,-1856,47,11,-10
11910,-680,592,-1872,46,12,-10
11915,-712,600,-1856,48,12,-9
11920,-704,592,-1840,48,12,-8
11925,-720,592,-1872,48,12,-9
11930,-728,592,-1864,48,11,-8
11935,-696,584,-1904,50,11,-8
11940,-696,600,-1896,49,11,-10
11945,-728,584,-1880,49,11,-11
11950,-712,584,-1856,50,11,-10
11955,-688,560,-1864,49,10,-11
11960,-688,568,-1864,49,12,-10
11965,-688,600,-1872,50,11,-10
11970,-720,592,-1864,49,12,-9
11975,-704,576,-1880,47,13,-8
11980,-680,568,-1896,48,12,-9
11985,-696,624,-1864,49,14,-9
11990,-728,584,-1856,50,14,-9
11995,-672,568,-1848,50,16,-9
12000,-696,568,-1856,50,15,-9
12005,-704,592,-1888,50,16,-8
12010,-680,560,-1864,50,15,-9
12015,-696,592,-1864,51,16,-10
12020,-696,576,-1896,51,16,-10
12025,-696,568,-1872,51,17,-11
12030,-704,584,-1872,49,16,-11
12035,-696,608,-1840,49,16,-10
12040,-688,584,-1832,51,14,-10
12045,-680,576,-1848,51,13,-11
12050,-688,576,-1864,49,13,-10
12055,-720,560,-1848,52,14,-11
12060,-688,584,-1872,53,14,-12
12065,-704,600,-1848,54,13,-11
12070,-712,616,-1888,55,11,-11
12075,-696,608,-1832,55,10,-11
12080,-704,600,-1888,55,8,-10
12085,-696,600,-1872,54,6,-10
12090,-696,592,-1840,55,7,-11
12095,-680,584,-1848,55,7,-10
12100,-728,568,-1864,54,8,-11
12105,-712,584,-1856,52,8,-10
12110,-688,576,-1872,51,6,-12
12115,-704,576,-1864,49,7,-14
12120,-696,584,-1872,49,8,-13
12125,-712,600,-1848,52,10,-13
12130,-704,592,-1888,53,12,-11
12135,-712,584,-1888,55,14,-12
12140,-680,576,-1864,55,14,-11
12145,-720,584,-1888,54,13,-12
12150,-656,576,-1872,52,11,-14
12155,-688,576,-1872,53,11,-13
12160,-680,576,-1856,54,10,-10
12165,-720,576,-1848,53,10,-11
12170,-696,584,-1848,51,10,-10
12175,-680,584,-1848,50,9,-11
12180,-712,600,-1856,47,5,-11
12185,-696,592,-1856,49,9,-10
12190,-696,600,-1864,51,10,-11
12195,-704,576,-1872,51,11,-10
12200,-680,568,-1872,51,11,-11
12205,-672,568,-1896,49,10,-12
12210,-712,592,-1824,49,9,-12
12215,-696,600,-1880,49,7,-11
12220,-696,528,-1848,51,6,-11
12225,-712,560,-1864,49,5,-11
12230,-712,584,-1872,50,6,-12
12235,-736,608,-1880,50,4,-12
12240,-720,600,-1872,50,3,-13
12245,-704,592,-1864,49,3,-14
12250,-696,576,-1864,51,6,-10
12255,-664,592,-1856,51,8,-10
12260,-744,544,-1840,52,15,-7
12265,-688,592,-1864,54,9,-11
12270,-696,568,-1864,51,5,-11
12275,-712,552,-1880,50,5,-12
12280,-688,600,-1864,49,3,-12
12285,-688,592,-1848,49,3,-12
12290,-696,584,-1880,50,4,-13
12295,-704,592,-1856,50,5,-12
12300,-704,584,-1856,50,5,-13
12305,-712,600,-1880,49,5,-13
12310,-712,576,-1848,47,3,-12
12315,-704,592,-1848,49,3,-13
12320,-688,568,-1864,49,4,-12
12325,-712,576,-1848,50,4,-12
12330,-712,560,-1872,51,5,-10
12335,-696,568,-1864,52,6,-10
12340,-704,584,-1856,51,4,-12
12345,-712,568,-1864,50,3,-14
12350,-712,592,-1872,49,5,-13
12355,-720,592,-1856,47,3,-13
12360,-696,592,-1888,47,2,-13
12365,-712,584,-1864,47,3,-12
12370,-720,576,-1888,47,4,-11
12375,-728,576,-1888,47,5,-11
12380,-704,552,-1920,47,5,-13
12385,-720,608,-1848,46,4,-12
12390,-728,600,-1856,48,4,-12
12395,-728,576,-1864,47,7,-11
12400,-688,592,-1856,49,5,-13
12405,-720,592,-1856,48,7,-11
12410,-720,584,-1848,48,6,-12
12415,-704,584,-1856,49,9,-13
12420,-704,608,-1832,48,9,-13
12425,-704,560,-1832,48,9,-11
12430,-712,584,-1880,49,10,-9
12435,-688,592,-1864,48,9,-10
12440,-672,568,-1872,47,9,-11
12445,-720,568,-1864,47,9,-12
12450,-712,592,-1864,48,9,-11
12455,-712,576,-1856,47,7,-11
12460,-720,568,-1856,48,8,-12
12465,-712,584,-1864,47,6,-12
12470,-720,608,-1872,46,7,-12
12475,-688,576,-1872,43,7,-11
12480,-728,584,-1856,43,7,-11
12485,-720,600,-1848,42,4,-11
12490,-704,560,-1808,44,6,-12
12495,-696,576,-1856,46,10,-11
12500,-728,592,-1888,46,10,-9
12505,-712,576,-1880,47,10,-11
12510,-696,584,-1864,46,11,-10
12515,-728,592,-1872,46,11,-11
12520,-688,616,-1888,46,10,-10
12525,-712,608,-1872,47,11,-13
12530,-688,584,-1872,48,11,-11
12535,-712,608,-1848,46,11,-12
12540,-720,584,-1880,47,9,-10
12545,-728,552,-1888,45,7,-13
12550,-688,568,-1848,42,6,-12
12555,-696,544,-1880,39,5,-11
12560,-704,592,-1824,28,5,-10
12565,-712,600,-1784,30,3,-10
12570,-672,576,-1840,38,5,-12
12575,-704,600,-1856,46,8,-11
12580,-704,584,-1840,49,6,-10
12585,-704,616,-1888,46,7,-10
12590,-720,568,-1848,45,10,-9
12595,-704,592,-1856,45,12,-10
12600,-712,528,-1864,45,12,-10
12605,-696,584,-1840,46,14,-9
12610,-704,584,-1856,47,15,-10
12615,-712,592,-1880,47,14,-8
12620,-696,568,-1856,48,14,-8
12625,-704,576,-1824,49,14,-9
12630,-696,560,-1848,49,15,-9
12635,-704,600,-1872,49,14,-8
12640,-688,592,-1824,51,15,-10
12645,-720,568,-1880,50,15,-8
12650,-688,584,-1848,50,14,-11
12655,-680,568,-1848,50,13,-10
12660,-712,600,-1856,52,15,-10
12665,-704,600,-1856,50,13,-9
12670,-712,592,-1856,51,14,-10
12675,-712,608,-1856,52,14,-11
12680,-712,592,-1832,51,14,-10
12685,-720,600,-1880,50,15,-10
12690,-704,616,-1880,52,16,-8
12695,-704,576,-1816,51,19,-7
12700,-696,584,-1880,51,18,-9
12705,-696,560,-1864,50,18,-8
12710,-712,552,-1904,49,19,-8
12715,-720,600,-1880,48,19,-8
12720,-688,576,-1888,48,20,-8
12725,-688,576,-1856,48,17,-8
12730,-720,600,-1864,47,16,-9
12735,-720,576,-1848,46,15,-9
12740,-712,608,-1864,46,17,-8
12745,-720,568,-1856,46,16,-10
12750,-696,600,-1872,46,15,-11
12755,-696,600,-1864,47,15,-10
12760,-712,600,-1880,51,15,-10
12765,-672,560,-1856,52,15,-10
12770,-712,576,-1864,50,14,-9
12775,-696,592,-1864,51,11,-10
12780,-720,616,-1856,50,10,-10
12785,-720,608,-1864,49,10,-9
12790,-712,600,-1872,51,11,-11
12795,-712,584,-1832,51,11,-10
12800,-704,560,-1848,50,10,-11
12805,-744,600,-1848,47,10,-11
12810,-704,576,-1872,45,11,-10
12815,-704,592,-1840,45,11,-10
12820,-736,616,-1832,48,15,-10
12825,-696,576,-1840,51,15,-10
12830,-720,584,-1880,53,16,-11
12835,-704,576,-1848,53,17,-10
12840,-712,592,-1880,52,17,-9
12845,-696,568,-1840,50,17,-9
12850,-704,568,-1864,48,17,-10
12855,-696,576,-1864,47,17,-9
12860,-680,584,-1864,46,16,-9
12865,-704,576,-1848,43,16,-8
12870,-680,568,-1888,44,17,-7
12875,-752,568,-1872,43,17,-9
12880,-688,576,-1856,43,19,-9
12885,-696,560,-1848,43,18,-10
12890,-720,584,-1848,45,18,-10
12895,-720,592,-1864,45,17,-10
12900,-704,576,-1888,45,16,-9
12905,-712,592,-1872,46,15,-9
12910,-704,616,-1856,46,16,-9
12915,-704,576,-1848,45,16,-9
12920,-736,608,-1880,44,15,-9
12925,-704,568,-1872,44,14,-9
12930,-648,544,-1864,46,14,-8
12935,-704,584,-1864,46,14,-9
12940,-688,568,-1864,44,14,-8
12945,-704,600,-1840,44,14,-8
12950,-696,608,-1856,44,15,-8
12955,-680,584,-1888,45,15,-8
12960,-728,592,-1888,45,15,-7
12965,-720,568,-1824,45,16,-9
12970,-744,600,-1856,45,16,-9
12975,-704,568,-1856,46,17,-8
12980,-720,568,-1896,47,18,-7
12985,-712,584,-1872,47,18,-7
12990,-728,608,-1848,46,18,-9
12995,-728,608,-1856,47,19,-8
13000,-704,576,-1872,47,19,-7
13005,-736,600,-1856,47,20,-6
13010,-704,576,-1872,44,21,-7
13015,-712,568,-1864,44,20,-7
13020,-728,592,-1840,45,20,-8
13025,-680,576,-1848,47,22,-8
13030,-728,600,-1880,50,21,-8
13035,-720,552,-1888,50,20,-8
13040,-672,592,-1872,50,20,-8
13045,-696,592,-1848,50,19,-9
13050,-704,584,-1864,49,21,-8
13055,-704,576,-1840,48,20,-8
13060,-704,616,-1864,47,18,-8
13065,-720,584,-1864,46,18,-8
13070,-664,584,-1864,45,18,-7
13075,-696,592,-1840,46,19,-8
13080,-728,608,-1848,47,20,-7
13085,-680,576,-1856,47,20,-9
13090,-688,576,-1888,47,21,-6
13095,-688,592,-1880,47,21,-8
13100,-696,576,-1880,48,20,-7
13105,-712,592,-1848,47,21,-7
13110,-696,600,-1856,48,21,-8
13115,-696,592,-1880,46,23,-7
13120,-704,608,-1832,46,23,-8
13125,-704,584,-1872,46,22,-7
13130,-688,576,-1872,47,22,-8
13135,-688,568,-1848,46,22,-7
13140,-688,568,-1872,46,21,-7
13145,-696,536,-1832,47,22,-7
13150,-704,584,-1872,47,18,-8
13155,-696,600,-1880,45,17,-8
13160,-704,616,-1872,45,17,-10
13165,-696,584,-1848,45,16,-8
13170,-696,584,-1856,46,15,-7
13175,-704,576,-1864,46,14,-8
13180,-712,608,-1888,45,14,-9
13185,-688,584,-1856,45,14,-10
13190,-704,600,-1872,46,16,-10
13195,-696,568,-1856,45,15,-8
13200,-728,576,-1944,46,14,-9
13205,-712,584,-1872,46,13,-9
13210,-688,576,-1848,47,16,-7
13215,-688,568,-1880,46,15,-8
13220,-696,584,-1840,46,15,-9
13225,-696,568,-1848,47,14,-9
13230,-696,600,-1880,46,15,-8
13235,-680,576,-1856,47,15,-8
13240,-688,592,-1832,47,16,-10
13245,-680,568,-1888,47,16,-10
13250,-712,592,-1872,48,17,-8
13255,-696,592,-1888,48,17,-8
13260,-704,592,-1848,49,17,-7
13265,-688,592,-1856,50,15,-8
13270,-688,584,-1872,48,17,-8
13275,-696,592,-1880,49,17,-10
13280,-712,568,-1880,49,16,-11
13285,-688,584,-1896,51,16,-9
13290,-688,592,-1848,51,16,-7
13295,-720,600,-1856,51,15,-9
13300,-688,568,-1864,51,14,-9
13305,-704,584,-1872,52,14,-10
13310,-688,640,-1896,51,14,-11
13315,-712,616,-1880,52,13,-9
13320,-704,584,-1888,50,12,-10
13325,-696,576,-1896,50,13,-11
13330,-696,584,-1864,51,13,-10
13335,-672,584,-1880,51,12,-10
13340,-712,584,-1880,51,13,-9
13345,-704,576,-1848,52,13,-10
13350,-688,584,-1848,53,13,-8
13355,-672,568,-1864,52,12,-9
13360,-680,560,-1856,51,12,-8
13365,-736,584,-1840,51,11,-8
13370,-704,592,-1848,51,12,-10
13375,-672,592,-1832,51,12,-11
13380,-680,592,-1856,52,12,-11
13385,-696,600,-1872,51,13,-12
13390,-712,584,-1888,50,11,-11
13395,-688,600,-1864,51,10,-11
13400,-696,608,-1864,51,10,-11
13405,-704,584,-1896,50,11,-13
13410,-688,560,-1864,50,10,-11
13415,-688,576,-1880,50,11,-11
13420,-696,528,-1888,51,11,-11
13425,-720,608,-1848,50,9,-12
13430,-696,584,-1880,51,9,-11
13435,-720,608,-1880,51,10,-10
13440,-720,592,-1856,51,8,-10
13445,-720,584,-1864,51,10,-11
13450,-720,600,-1864,52,11,-12
13455,-688,568,-1888,50,10,-10
13460,-712,584,-1888,51,10,-10
13465,-696,592,-1864,52,11,-12
13470,-688,592,-1856,51,10,-12
13475,-696,576,-1864,50,10,-12
13480,-704,584,-1856,51,9,-11
13485,-688,616,-1872,50,10,-11
13490,-696,616,-1832,51,8,-11
13495,-704,592,-1864,49,9,-13
13500,-720,592,-1904,49,9,-12
13505,-680,600,-1848,50,8,-11
13510,-712,600,-1888,50,9,-11
13515,-720,592,-1840,49,9,-10
13520,-736,616,-1824,49,9,-11
13525,-688,600,-1888,50,10,-11
13530,-688,600,-1896,52,10,-12
13535,-696,584,-1896,52,10,-11
13540,-688,576,-1896,52,9,-11
13545,-696,592,-1880,55,8,-11
13550,-720,616,-1872,56,9,-12
13555,-688,584,-1848,57,6,-12
13560,-728,592,-1824,55,5,-11
13565,-712,592,-1888,52,3,-13
13570,-720,592,-1872,52,2,-12
13575,-704,568,-1856,53,5,-13
13580,-728,592,-1816,53,8,-14
13585,-696,608,-1872,52,8,-12
13590,-672,560,-1848,49,9,-14
13595,-680,600,-1848,47,8,-13
13600,-704,568,-1848,47,9,-12
13605,-696,592,-1856,48,10,-11
13610,-712,592,-1856,51,13,-12
13615,-688,568,-1864,55,14,-13
13620,-704,592,-1896,57,15,-12
13625,-680,568,-1888,58,16,-11
13630,-704,576,-1856,56,15,-11
13635,-696,600,-1864,55,13,-10
13640,-704,576,-1888,55,14,-11
13645,-696,592,-1856,54,13,-11
13650,-696,600,-1864,52,12,-12
13655,-688,592,-1872,51,11,-11
13660,-696,584,-1848,49,10,-11
13665,-712,584,-1872,46,10,-13
13670,-712,568,-1856,47,10,-12
13675,-680,568,-1888,46,9,-13
13680,-688,576,-1872,47,7,-12
13685,-704,560,-1872,46,7,-12
13690,-712,584,-1872,46,6,-11
13695,-680,584,-1880,46,6,-12
13700,-712,600,-1880,46,6,-11
13705,-704,568,-1840,47,5,-12
13710,-712,600,-1856,47,5,-13
13715,-696,600,-1872,47,4,-13
13720,-696,568,-1848,46,2,-12
13725,-712,576,-1840,48,1,-11
13730,-720,592,-1864,48,2,-11
13735,-720,616,-1856,48,2,-14
13740,-720,600,-1872,48,1,-12
13745,-680,568,-1816,49,3,-11
13750,-712,608,-1864,49,3,-13
13755,-704,568,-1880,48,4,-12
13760,-704,568,-1872,49,4,-14
13765,-688,600,-1856,49,5,-13
13770,-712,616,-1880,49,6,-11
13775,-712,576,-1856,47,8,-11
13780,-696,600,-1896,47,9,-10
13785,-728,616,-1864,47,8,-11
13790,-680,592,-1856,46,8,-11
13795,-712,624,-1848,49,9,-10
13800,-680,584,-1856,49,10,-10
13805,-688,576,-1888,51,11,-13
13810,-688,592,-1848,51,10,-12
13815,-704,584,-1872,51,9,-10
13820,-712,584,-1864,52,9,-11
13825,-696,560,-1856,51,9,-12
13830,-704,592,-1888,51,8,-13
13835,-680,608,-1824,49,7,-11
13840,-688,576,-1856,48,7,-11
13845,-704,552,-1864,48,7,-11
13850,-696,608,-1856,47,8,-10
13855,-688,584,-1872,48,8,-10
13860,-704,576,-1864,47,10,-11
13865,-720,568,-1864,49,9,-11
13870,-688,584,-1864,49,10,-11
13875,-696,576,-1840,49,9,-11
13880,-688,584,-1880,50,8,-11
13885,-696,568,-1848,51,10,-10
13890,-704,568,-1888,51,11,-11
13895,-720,568,-1872,50,11,-10
13900,-688,568,-1848,51,11,-10
13905,-712,600,-1856,51,9,-11
13910,-704,584,-1856,50,9,-10
13915,-720,576,-1880,49,10,-10
13920,-704,544,-1880,50,9,-11
13925,-680,576,-1888,50,8,-12
13930,-704,592,-1896,50,8,-11
13935,-704,600,-1872,50,8,-12
13940,-696,568,-1848,49,8,-11
13945,-712,576,-1840,49,7,-10
13950,-704,608,-1896,48,8,-11
13955,-688,584,-1888,49,9,-10
13960,-720,584,-1840,49,8,-12
13965,-736,592,-1904,50,8,-11
13970,-688,632,-1880,49,9,-11
13975,-680,584,-1856,49,8,-11
13980,-688,576,-1880,48,7,-11
13985,-696,592,-1888,48,7,-12
13990,-704,600,-1872,48,7,-11
13995,-704,584,-1856,49,7,-10
14000,-688,592,-1856,48,8,-11
14005,-696,560,-1880,49,7,-10
14010,-744,584,-1848,46,8,-11
14015,-704,568,-1864,48,8,-12
14020,-712,576,-1856,47,9,-12
14025,-720,576,-1848,48,9,-12
14030,-688,584,-1848,49,10,-10
14035,-712,584,-1872,49,11,-10
14040,-704,592,-1872,49,10,-12
14045,-696,584,-1904,51,11,-11
14050,-712,568,-1872,51,12,-13
14055,-704,600,-1856,50,11,-10
14060,-712,600,-1848,50,10,-9
14065,-696,560,-1864,50,9,-11
14070,-712,576,-1856,50,11,-10
14075,-704,576,-1856,51,10,-9
14080,-688,568,-1872,51,10,-10
14085,-696,568,-1872,50,11,-9
14090,-728,592,-1888,50,10,-12
14095,-712,584,-1856,49,11,-13
14100,-696,584,-1888,49,12,-10
14105,-704,584,-1872,50,12,-10
14110,-728,600,-1896,50,12,-10
14115,-696,592,-1880,51,13,-12
14120,-752,600,-1880,51,13,-10
14125,-656,592,-1848,51,12,-11
14130,-704,584,-1864,51,12,-12
14135,-712,592,-1856,50,11,-12
14140,-704,584,-1864,52,12,-11
14145,-712,600,-1848,50,12,-9
14150,-696,592,-1856,50,12,-10
14155,-704,592,-1848,51,12,-11
14160,-688,560,-1856,49,13,-12
14165,-664,576,-1864,49,10,-12
14170,-704,600,-1880,49,10,-11
14175,-688,568,-1840,50,10,-12
14180,-696,552,-1832,50,10,-11
14185,-696,544,-1872,50,11,-9
14190,-728,616,-1896,50,11,-10
14195,-712,584,-1840,50,10,-10
14200,-704,568,-1888,49,11,-10
14205,-712,584,-1848,50,10,-11
14210,-704,608,-1888,50,11,-11
14215,-728,592,-1880,49,11,-10
14220,-704,568,-1888,48,9,-9
14225,-704,560,-1856,48,10,-11
14230,-696,592,-1872,49,11,-10
14235,-728,584,-1896,48,11,-10
14240,-696,552,-1864,48,13,-10
14245,-712,584,-1872,47,13,-12
14250,-720,568,-1880,48,12,-10
14255,-704,584,-1872,47,13,-11
14260,-712,568,-1864,48,13,-9
14265,-712,608,-1864,48,13,-9
14270,-680,560,-1848,48,12,-8
14275,-704,608,-1864,47,14,-11
14280,-696,592,-1864,47,14,-9
14285,-688,592,-1872,48,14,-10
14290,-752,592,-1848,47,16,-10
14295,-704,552,-1888,49,15,-10
14300,-688,568,-1864,51,15,-9
14305,-712,608,-1864,51,15,-9
14310,-688,576,-1856,51,13,-10
14315,-720,576,-1864,50,12,-10
14320,-704,592,-1864,49,10,-10
14325,-720,600,-1856,50,11,-11
14330,-696,568,-1864,50,12,-11
14335,-704,584,-1880,51,12,-10
14340,-712,576,-1864,50,13,-12
14345,-712,560,-1864,47,13,-11
14350,-696,600,-1872,44,13,-8
14355,-720,560,-1824,43,14,-9
14360,-696,576,-1856,46,17,-10
14365,-736,592,-1880,52,19,-9
14370,-712,576,-1840,55,19,-8
14375,-704,568,-1896,54,21,-10
14380,-736,592,-1840,54,21,-10
14385,-680,616,-1872,51,20,-9
14390,-688,560,-1864,49,19,-9
14395,-688,576,-1856,48,19,-8
14400,-728,616,-1872,45,20,-8
14405,-712,584,-1864,46,21,-8
14410,-728,616,-1888,45,20,-8
14415,-680,584,-1864,45,20,-8
14420,-704,600,-1864,43,21,-8
14425,-704,584,-1848,45,20,-7
14430,-712,608,-1888,45,19,-8
14435,-704,584,-1888,44,19,-8
14440,-736,632,-1880,45,18,-9
14445,-696,576,-1848,45,18,-8
14450,-712,592,-1840,45,16,-9
14455,-752,696,-1856,44,14,-9
14460,-720,592,-1888,46,15,-9
14465,-688,576,-1864,44,15,-10
14470,-720,592,-1872,45,15,-10
14475,-688,584,-1904,45,15,-9
14480,-704,560,-1888,45,14,-9
14485,-704,584,-1880,45,14,-10
14490,-704,600,-1856,45,13,-9
14495,-696,568,-1896,44,14,-10
14500,-712,600,-1872,44,15,-8
14505,-720,544,-1888,46,14,-6
14510,-712,600,-1824,44,14,-9
14515,-704,592,-1880,45,14,-9
14520,-712,608,-1856,45,16,-8
14525,-688,600,-1848,46,16,-9
14530,-712,600,-1872,46,16,-9
14535,-688,568,-1840,46,17,-8
14540,-696,584,-1880,45,19,-8
14545,-680,584,-1880,45,17,-6
14550,-688,584,-1816,44,16,-7
14555,-704,600,-1856,43,16,-9
14560,-704,584,-1896,43,17,-7
14565,-696,584,-1896,46,19,-9
14570,-696,592,-1872,48,20,-9
14575,-704,600,-1848,48,19,-8
14580,-704,584,-1880,47,19,-8
14585,-704,592,-1864,47,16,-7
14590,-712,616,-1864,47,17,-8
14595,-736,624,-1864,47,16,-10
14600,-696,568,-1840,45,16,-8
14605,-688,600,-1864,44,16,-8
14610,-688,592,-1832,45,16,-8
14615,-736,608,-1840,45,17,-9
14620,-720,576,-1888,46,18,-10
14625,-720,592,-1904,47,17,-9
14630,-704,592,-1872,47,19,-8
14635,-688,584,-1848,47,19,-8
14640,-704,592,-1848,49,18,-9
14645,-672,584,-1856,48,18,-8
14650,-696,584,-1872,47,19,-7
14655,-704,552,-1848,46,20,-7
14660,-672,592,-1864,45,20,-7
14665,-696,616,-1888,46,19,-6
14670,-632,576,-1912,46,19,-7
14675,-688,576,-1904,46,19,-8
14680,-688,600,-1888,44,19,-8
14685,-704,584,-1856,45,18,-8
14690,-712,584,-1840,45,18,-9
14695,-672,584,-1872,46,18,-8
14700,-696,600,-1896,45,18,-10
14705,-672,592,-1864,45,17,-9
14710,-704,584,-1864,45,17,-9
14715,-720,608,-1872,47,17,-8
14720,-704,576,-1864,45,17,-9
14725,-720,528,-1888,44,16,-8
14730,-720,592,-1864,44,16,-9
14735,-712,576,-1880,45,15,-8
14740,-696,592,-1864,44,16,-8
14745,-688,576,-1856,45,17,-8
14750,-712,600,-1880,45,16,-7
14755,-720,576,-1848,46,17,-8
14760,-688,608,-1856,47,17,-8
14765,-704,592,-1864,47,17,-8
14770,-696,568,-1872,46,19,-6
14775,-696,568,-1880,46,18,-7
14780,-776,624,-1848,46,18,-8
14785,-696,600,-1856,46,18,-7
14790,-704,560,-1864,45,18,-7
14795,-696,592,-1848,46,19,-7
14800,-704,600,-1864,47,18,-9
14805,-704,592,-1864,46,19,-7
14810,-704,592,-1840,47,19,-7
14815,-672,584,-1864,48,20,-9
14820,-696,616,-1864,48,19,-8
14825,-720,624,-1904,47,19,-8
14830,-688,576,-1840,48,18,-8
14835,-672,600,-1768,48,18,-8
14840,-704,592,-1856,49,18,-9
14845,-696,568,-1856,49,18,-8
14850,-696,584,-1872,51,20,-8
14855,-680,576,-1872,50,19,-7
14860,-680,616,-1864,49,19,-6
14865,-728,576,-1864,51,19,-8
14870,-728,584,-1896,51,19,-7
14875,-696,592,-1872,51,19,-10
14880,-672,568,-1856,51,18,-8
14885,-720,624,-1856,51,18,-7
14890,-712,568,-1840,51,18,-8
14895,-696,600,-1856,51,19,-10
14900,-704,576,-1880,50,18,-9
14905,-704,592,-1856,50,16,-8
14910,-712,624,-1856,49,17,-9
14915,-696,576,-1872,51,16,-8
14920,-688,584,-1880,51,16,-10
14925,-688,600,-1864,50,15,-10
14930,-688,600,-1864,49,15,-9
14935,-704,600,-1864,49,15,-9
14940,-696,568,-1872,49,15,-9
14945,-712,592,-1880,49,15,-10
14950,-704,576,-1856,48,15,-9
14955,-712,592,-1896,49,14,-8
14960,-680,568,-1856,50,13,-8
14965,-672,560,-1856,51,13,-10
14970,-704,608,-1872,49,13,-8
14975,-696,592,-1904,50,11,-9
14980,-664,576,-1872,51,10,-10
14985,-712,592,-1856,51,11,-10
14990,-704,600,-1848,49,11,-10
14995,-712,592,-1848,49,10,-12
