timestamp,accel_x,accel_y,accel_z,gyro_x,gyro_y,gyro_z
0,112,-2008,-360,41,69,-1
5,144,-1992,-368,38,68,-2
10,128,-2016,-360,37,70,-3
15,104,-2000,-384,35,69,-4
20,120,-2024,-352,33,69,-5
25,128,-2032,-416,34,69,-7
30,136,-2000,-360,33,70,-8
35,104,-2016,-368,32,70,-9
40,120,-2008,-352,34,72,-10
45,152,-2016,-344,35,72,-9
50,144,-2040,-336,37,73,-12
55,104,-2024,-368,40,71,-11
60,128,-2008,-384,45,72,-14
65,152,-2008,-376,48,73,-15
70,160,-2008,-344,51,72,-17
75,80,-1992,-368,54,75,-20
80,120,-2000,-328,60,73,-21
85,96,-1992,-328,68,77,-23
90,120,-1984,-336,75,82,-24
95,128,-1992,-328,82,88,-26
100,128,-1992,-288,88,89,-28
105,96,-2008,-304,91,87,-26
110,88,-2008,-312,86,83,-23
115,80,-2040,-312,75,78,-18
120,56,-2080,-312,67,73,-12
125,80,-2104,-328,65,65,-4
130,32,-2080,-368,65,58,4
135,40,-2080,-352,64,52,11
140,48,-2088,-392,63,45,19
145,48,-2064,-392,60,40,25
150,40,-2040,-432,52,33,31
155,40,-2072,-408,40,30,38
160,32,-2064,-400,27,30,45
165,24,-2072,-408,13,32,54
170,8,-2096,-376,8,33,61
175,40,-2096,-368,14,32,71
180,24,-2064,-376,27,27,80
185,0,-2048,-336,44,20,86
190,-32,-2032,-336,63,17,90
195,-24,-2000,-320,79,17,95
200,0,-1992,-296,88,18,96
205,0,-1976,-280,91,23,98
210,-8,-1952,-272,89,27,96
215,8,-1968,-288,84,34,94
220,0,-1968,-312,76,38,91
225,-8,-1960,-304,67,42,89
230,-32,-1944,-304,56,46,87
235,-56,-1976,-240,45,50,84
240,-32,-1960,-200,35,52,81
245,-56,-1984,-232,27,55,78
250,-72,-1984,-200,23,58,75
255,-72,-1992,-184,22,55,73
260,-72,-1976,-216,22,54,74
265,-56,-2000,-224,15,52,73
270,-64,-1968,-216,5,50,70
275,-80,-1984,-216,-7,48,67
280,-80,-1984,-248,-18,41,63
285,-80,-1984,-240,-31,32,61
290,-88,-2008,-232,-43,25,55
295,-72,-2000,-272,-55,18,49
300,-104,-2032,-240,-66,10,42
305,-112,-2008,-248,-76,2,38
310,-136,-2000,-216,-85,-7,35
315,-144,-2016,-248,-94,-16,34
320,-128,-2000,-264,-103,-25,34
325,-144,-2008,-264,-113,-36,35
330,-136,-1984,-312,-126,-47,34
335,-160,-2016,-296,-142,-59,37
340,-168,-2008,-280,-158,-67,38
345,-144,-2008,-296,-173,-74,41
350,-168,-2000,-320,-183,-83,42
355,-152,-2032,-336,-193,-91,41
360,-152,-2016,-360,-202,-100,40
365,-160,-2000,-368,-213,-108,37
370,-152,-2032,-408,-221,-114,33
375,-128,-2048,-336,-228,-119,27
380,-120,-2048,-336,-230,-119,22
385,-112,-2056,-328,-230,-118,18
390,-112,-2056,-304,-228,-114,12
395,-64,-2064,-312,-227,-110,6
400,-80,-2056,-304,-223,-104,0
405,-48,-2032,-304,-216,-98,-5
410,-40,-2032,-304,-207,-92,-10
415,-64,-2024,-264,-198,-86,-14
420,-56,-2016,-248,-189,-81,-19
425,-64,-2024,-256,-183,-78,-22
430,-64,-2040,-264,-180,-76,-27
435,-64,-2032,-264,-178,-75,-31
440,-64,-2056,-248,-175,-74,-37
445,-64,-2032,-256,-173,-73,-43
450,-112,-2008,-256,-173,-73,-51
455,-128,-2040,-272,-173,-75,-58
460,-120,-2056,-240,-174,-77,-64
465,-112,-2064,-280,-174,-82,-69
470,-120,-2056,-288,-177,-88,-73
475,-144,-2056,-264,-180,-99,-79
480,-144,-2064,-272,-182,-109,-82
485,-152,-2088,-256,-182,-122,-84
490,-152,-2088,-272,-179,-135,-85
495,-168,-2080,-280,-174,-148,-86
500,-144,-2088,-272,-167,-160,-86
505,-152,-2096,-328,-159,-172,-85
510,-104,-2120,-248,-153,-181,-85
515,-144,-2072,-336,-151,-190,-85
520,-96,-2048,-328,-152,-198,-85
525,-88,-2080,-360,-160,-202,-90
530,-72,-2056,-352,-167,-203,-95
535,-48,-2040,-376,-171,-203,-98
540,0,-2040,-352,-177,-198,-103
545,8,-2040,-352,-182,-192,-110
550,24,-2032,-368,-186,-181,-115
555,104,-2008,-360,-186,-168,-117
560,152,-1984,-376,-190,-150,-121
565,208,-1976,-408,-195,-127,-122
570,232,-1944,-456,-205,-101,-123
575,264,-1920,-464,-214,-74,-126
580,288,-1872,-448,-215,-38,-124
585,328,-1824,-488,-202,2,-112
590,392,-1800,-504,-196,48,-105
595,440,-1768,-456,-189,93,-96
600,488,-1752,-448,-177,133,-81
605,560,-1688,-392,-156,173,-62
610,584,-1656,-336,-136,208,-41
615,664,-1680,-312,-115,240,-24
620,616,-1768,-304,-101,266,-7
625,632,-1832,-152,-89,283,17
630,528,-1872,-144,-79,291,40
635,440,-1952,-112,-78,278,59
640,384,-2000,-104,-92,247,81
645,280,-2064,-128,-123,216,94
650,264,-2104,-152,-176,188,97
655,216,-2160,-208,-246,159,92
660,160,-2216,-216,-317,135,84
665,96,-2272,-192,-379,118,68
670,80,-2336,-184,-428,109,48
675,16,-2352,-128,-459,108,25
680,8,-2432,-72,-468,106,4
685,-24,-2432,-48,-456,96,-13
690,-48,-2464,-48,-432,85,-26
695,-120,-2448,-72,-406,69,-38
700,-120,-2352,-120,-380,52,-54
705,-152,-2312,-144,-345,36,-66
710,-128,-2280,-160,-313,26,-84
715,-96,-2232,-168,-283,21,-110
720,-32,-2184,-192,-256,21,-143
725,8,-2160,-168,-233,28,-165
730,80,-2160,-160,-208,36,-191
735,88,-2144,-168,-182,45,-215
740,128,-2120,-208,-156,51,-225
745,168,-2040,-224,-130,54,-230
750,232,-1984,-232,-109,56,-229
755,248,-1992,-248,-94,59,-224
760,272,-1952,-248,-84,58,-219
765,320,-1912,-272,-82,65,-222
770,328,-1936,-224,-86,74,-228
775,352,-1880,-144,-91,85,-239
780,352,-1880,-176,-89,102,-244
785,376,-1824,-168,-92,112,-241
790,384,-1864,-152,-101,118,-238
795,368,-1864,-160,-108,123,-245
800,360,-1808,-176,-109,122,-255
805,360,-1824,-160,-118,128,-264
810,320,-1840,-168,-131,136,-267
815,296,-1840,-152,-140,140,-264
820,264,-1840,-200,-146,133,-260
825,256,-1840,-184,-163,131,-250
830,248,-1848,-176,-177,134,-238
835,224,-1856,-240,-183,133,-222
840,208,-1864,-192,-183,120,-207
845,224,-1840,-152,-175,106,-194
850,232,-1832,-160,-162,96,-184
855,256,-1832,-160,-151,88,-174
860,264,-1872,-208,-143,78,-158
865,248,-1848,-152,-138,69,-146
870,240,-1840,-160,-134,62,-127
875,264,-1856,-184,-131,55,-112
880,232,-1872,-208,-134,50,-98
885,264,-1832,-208,-142,49,-81
890,232,-1864,-208,-153,39,-67
895,256,-1928,-216,-158,27,-56
900,232,-1928,-168,-152,22,-43
905,224,-1960,-192,-142,16,-30
910,216,-1976,-168,-137,7,-17
915,160,-2000,-192,-135,-2,-4
920,144,-1992,-168,-133,-11,5
925,120,-1992,-176,-129,-16,6
930,80,-2024,-168,-121,-15,9
935,80,-2016,-192,-112,-11,11
940,72,-2016,-160,-104,-9,13
945,32,-2016,-168,-94,-11,17
950,56,-2008,-160,-83,-20,21
955,48,-2016,-136,-76,-35,28
960,48,-2008,-120,-68,-57,32
965,16,-2008,-128,-57,-79,41
970,48,-1992,-136,-44,-103,47
975,48,-1984,-152,-39,-124,50
980,56,-1984,-184,-45,-151,57
985,80,-1984,-160,-57,-182,58
990,24,-1968,-160,-69,-218,56
995,56,-1936,-152,-80,-258,57
1000,32,-1888,-160,-87,-299,55
1005,32,-1888,-160,-91,-339,49
1010,64,-1840,-152,-95,-377,42
1015,72,-1840,-176,-105,-406,31
1020,72,-1856,-160,-120,-424,28
1025,88,-1896,-152,-137,-437,18
1030,96,-1888,-128,-149,-451,5
1035,144,-1912,-152,-157,-476,-1
1040,136,-1976,-128,-168,-509,-2
1045,168,-2048,-112,-182,-548,4
1050,176,-2120,-144,-189,-584,0
1055,200,-2216,-88,-204,-604,-6
1060,232,-2272,-160,-221,-623,-8
1065,208,-2312,-144,-239,-645,-11
1070,208,-2368,-160,-253,-667,-7
1075,216,-2384,-184,-262,-691,3
1080,192,-2416,-200,-273,-713,17
1085,256,-2480,-216,-286,-736,31
1090,184,-2488,-208,-292,-754,35
1095,232,-2488,-232,-299,-766,45
1100,224,-2496,-256,-296,-778,45
1105,248,-2512,-232,-283,-798,51
1110,272,-2528,-192,-271,-817,49
1115,264,-2568,-192,-251,-833,44
1120,248,-2616,-144,-227,-849,38
1125,272,-2640,-96,-201,-859,38
1130,264,-2672,-72,-164,-861,35
1135,240,-2656,-16,-133,-859,31
1140,304,-2608,-8,-101,-846,29
1145,376,-2584,-64,-77,-825,28
1150,432,-2552,-144,-76,-791,32
1155,520,-2536,-296,-112,-739,33
1160,592,-2536,-552,-181,-680,28
1165,792,-2560,-648,-280,-616,20
1170,904,-2608,-720,-388,-550,12
1175,992,-2688,-728,-486,-482,0
1180,1032,-2800,-696,-556,-422,-12
1185,1008,-2904,-632,-594,-364,-29
1190,952,-2952,-480,-609,-290,-37
1195,896,-3008,-296,-584,-202,-53
1200,672,-3000,-176,-503,-117,-79
1205,496,-3024,-48,-405,-46,-102
1210,336,-2992,-8,-286,27,-125
1215,320,-2816,104,-141,109,-161
1220,328,-2576,80,36,188,-218
1225,352,-2296,24,214,231,-274
1230,376,-1920,-176,345,237,-311
1235,360,-1848,-320,385,218,-281
1240,360,-1792,-528,374,169,-229
1245,512,-1648,-712,340,135,-183
1250,776,-1496,-1008,292,139,-142
1255,928,-1392,-1200,219,163,-102
1260,872,-1304,-1296,117,198,-58
1265,792,-1328,-1360,-9,232,10
1270,664,-1432,-1496,-168,250,90
1275,648,-1552,-1560,-357,265,144
1280,624,-1760,-1528,-531,284,163
1285,656,-2040,-1448,-639,307,159
1290,616,-2352,-1384,-682,328,135
1295,504,-2480,-1304,-674,363,79
1300,264,-2552,-1264,-624,424,20
1305,-72,-2624,-1232,-541,491,-25
1310,-320,-2640,-1200,-444,527,-68
1315,-440,-2544,-1208,-322,516,-111
1320,-496,-2408,-1224,-170,483,-143
1325,-504,-2312,-1232,-1,459,-152
1330,-504,-2240,-1152,157,454,-143
1335,-496,-2192,-1112,285,453,-131
1340,-456,-2144,-1024,366,453,-125
1345,-408,-2120,-992,397,442,-133
1350,-328,-2072,-936,388,414,-145
1355,-184,-2096,-872,352,358,-139
1360,-112,-2056,-816,303,279,-122
1365,-88,-2080,-808,273,198,-85
1370,0,-2000,-840,265,115,-22
1375,40,-1928,-760,248,68,71
1380,16,-1896,-760,220,41,152
1385,112,-1816,-752,205,24,195
1390,168,-1784,-680,199,37,227
1395,216,-1776,-688,210,41,256
1400,264,-1808,-736,230,35,276
1405,208,-1712,-808,225,43,290
1410,240,-1680,-776,177,59,298
1415,224,-1624,-744,119,77,303
1420,200,-1560,-704,77,94,303
1425,160,-1552,-672,58,114,313
1430,136,-1496,-624,51,135,318
1435,144,-1464,-600,51,158,316
1440,128,-1480,-552,57,184,327
1445,72,-1464,-552,65,206,335
1450,144,-1408,-504,72,220,339
1455,160,-1360,-504,84,234,340
1460,168,-1336,-472,94,257,345
1465,112,-1232,-496,103,286,355
1470,104,-1168,-488,105,304,372
1475,40,-1208,-480,90,319,392
1480,72,-1288,-432,65,332,401
1485,-72,-1408,-344,59,342,385
1490,-96,-1376,-344,79,360,363
1495,-264,-1248,-312,96,382,364
1500,-64,-1328,-352,108,386,397
1505,8,-1392,-312,101,404,374
1510,24,-1376,-304,106,434,333
1515,8,-1352,-304,115,468,298
1520,32,-1352,-320,123,493,290
1525,56,-1312,-328,136,497,307
1530,-24,-1328,-296,144,495,320
1535,-88,-1304,-312,142,492,323
1540,-8,-1328,-272,129,514,325
1545,-48,-1336,-312,116,529,297
1550,-48,-1368,-296,109,554,278
1555,-24,-1448,-328,98,575,262
1560,0,-1496,-312,79,592,257
1565,16,-1544,-336,52,603,263
1570,0,-1592,-224,35,615,261
1575,0,-1584,-208,49,628,264
1580,-32,-1592,-120,99,635,278
1585,-96,-1512,-152,169,640,291
1590,-208,-1544,-104,233,649,305
1595,-192,-1512,-120,299,633,302
1600,-208,-1520,-152,358,615,297
1605,-224,-1616,-136,394,601,301
1610,-144,-1680,-128,414,583,299
1615,-136,-1776,-152,430,577,287
1620,-72,-1808,-184,444,590,266
1625,0,-1872,-232,431,614,241
1630,104,-1936,-248,401,644,226
1635,104,-2024,-232,378,671,220
1640,224,-2128,-240,386,703,224
1645,168,-2128,-152,425,743,232
1650,264,-2168,-112,500,778,257
1655,312,-2224,-80,583,818,267
1660,296,-2208,-16,661,840,270
1665,296,-2192,8,735,845,273
1670,296,-2144,-8,769,840,258
1675,232,-2120,-24,756,823,243
1680,224,-2112,8,703,798,237
1685,96,-2120,-8,621,766,230
1690,0,-2224,-8,519,738,240
1695,-104,-2456,80,417,714,278
1700,-168,-2656,128,346,683,294
1705,-304,-2824,104,309,672,300
1710,-312,-2952,128,336,681,296
1715,-280,-3088,104,410,712,304
1720,-152,-3104,128,500,768,321
1725,-104,-3128,200,588,834,320
1730,-96,-3032,328,661,887,313
1735,8,-2920,368,717,915,322
1740,80,-2792,432,739,941,329
1745,136,-2600,488,727,955,324
1750,64,-2432,448,670,952,332
1755,-160,-2232,208,541,913,335
1760,-472,-2072,-136,301,844,348
1765,-712,-2152,-592,-62,761,377
1770,-1032,-2392,-1064,-523,651,410
1775,-1144,-2648,-1456,-998,486,450
1780,-1160,-3000,-1664,-1371,286,488
1785,-1160,-3328,-1600,-1511,98,522
1790,-1128,-3576,-1392,-1345,-41,562
1795,-1064,-3608,-1192,-937,-117,603
1800,-992,-3456,-1024,-449,-147,641
1805,-944,-3120,-1080,-31,-158,687
1810,-808,-2752,-1088,253,-167,731
1815,-632,-2416,-1128,385,-177,760
1820,-360,-2176,-1160,386,-187,761
1825,-104,-2088,-1160,315,-183,739
1830,216,-1992,-1128,232,-149,696
1835,504,-1880,-1088,188,-78,642
1840,624,-1832,-1112,191,17,579
1845,656,-1832,-1192,210,112,512
1850,616,-1928,-1280,203,187,445
1855,576,-2080,-1336,143,229,387
1860,536,-2256,-1360,41,250,336
1865,496,-2464,-1280,-73,277,291
1870,456,-2640,-1112,-170,311,263
1875,400,-2792,-944,-230,357,254
1880,408,-2944,-792,-238,411,263
1885,256,-3000,-672,-222,483,257
1890,176,-3008,-592,-188,563,252
1895,88,-2952,-576,-140,629,243
1900,8,-2856,-608,-86,666,226
1905,8,-2680,-680,-30,672,194
1910,16,-2528,-816,24,659,145
1915,48,-2240,-896,84,644,79
1920,72,-2080,-856,143,644,7
1925,56,-1912,-736,210,654,-65
1930,0,-1784,-600,279,665,-115
1935,-16,-1672,-496,349,656,-161
1940,-80,-1576,-456,399,639,-200
1945,-104,-1448,-448,419,616,-239
1950,-144,-1344,-408,388,614,-254
1955,-184,-1312,-448,313,610,-261
1960,-320,-1272,-376,216,591,-272
1965,-424,-1312,-392,120,558,-285
1970,-552,-1456,-352,38,530,-280
1975,-552,-1360,-344,-28,486,-298
1980,-512,-1464,-320,-87,458,-283
1985,-488,-1400,-360,-109,410,-281
1990,-472,-1320,-376,-132,375,-274
1995,-472,-1296,-344,-156,336,-273
2000,-376,-1208,-392,-163,289,-280
2005,-312,-1176,-376,-170,266,-253
2010,-256,-1088,-344,-185,246,-241
2015,-264,-1056,-312,-199,202,-246
2020,-88,-1088,-328,-217,160,-272
2025,-160,-1024,-232,-223,125,-316
2030,-56,-1008,-224,-203,94,-339
2035,0,-1024,-264,-170,72,-334
2040,48,-1024,-232,-144,46,-332
2045,40,-1024,-240,-127,5,-352
2050,32,-1080,-200,-137,-33,-348
2055,56,-1112,-192,-156,-70,-329
2060,40,-1016,-240,-184,-118,-331
2065,88,-1144,-160,-225,-164,-328
2070,40,-1240,-144,-222,-215,-312
2075,64,-1288,-152,-151,-251,-268
2080,48,-1216,-176,-70,-279,-242
2085,24,-1192,-168,-27,-299,-230
2090,64,-1152,-168,5,-317,-238
2095,112,-1120,-136,29,-329,-248
2100,136,-1144,-80,27,-344,-248
2105,144,-1168,-8,8,-363,-235
2110,136,-1216,48,-10,-384,-220
2115,160,-1272,88,-11,-400,-209
2120,128,-1320,88,-2,-408,-215
2125,136,-1448,80,6,-415,-225
2130,136,-1544,-8,5,-427,-227
2135,120,-1624,-16,-5,-440,-227
2140,144,-1696,-56,-18,-456,-220
2145,112,-1768,-96,-27,-467,-213
2150,96,-1880,-96,-26,-486,-192
2155,56,-1936,-152,-21,-520,-158
2160,40,-1992,-192,-17,-572,-122
2165,-32,-2064,-224,-24,-646,-85
2170,-80,-2152,-248,-45,-736,-49
2175,-152,-2224,-240,-71,-831,-39
2180,-320,-2288,-200,-76,-915,-37
2185,-424,-2312,-240,-68,-977,-19
2190,-480,-2344,-296,-43,-998,-3
2195,-424,-2408,-360,-10,-957,15
2200,-384,-2504,-432,15,-874,35
2205,-224,-2632,-432,25,-771,42
2210,-48,-2752,-328,53,-667,24
2215,104,-2944,-168,122,-593,-17
2220,472,-3000,-104,246,-557,-70
2225,632,-3000,64,345,-517,-169
2230,792,-3040,168,394,-480,-268
2235,824,-3040,304,422,-467,-362
2240,824,-2912,272,449,-462,-429
2245,864,-2856,416,487,-457,-460
2250,760,-2704,464,533,-453,-473
2255,616,-2640,512,570,-436,-461
2260,464,-2488,600,597,-407,-445
2265,416,-2440,496,609,-370,-420
2270,432,-2424,248,538,-319,-381
2275,576,-2432,-200,337,-243,-346
2280,816,-2448,-704,9,-136,-351
2285,960,-2584,-1248,-420,-7,-382
2290,880,-2808,-1768,-894,130,-437
2295,864,-3000,-2256,-1326,245,-483
2300,960,-3248,-2496,-1671,368,-544
2305,1280,-3488,-2368,-1866,566,-628
2310,1464,-3608,-1960,-1857,834,-743
2315,1616,-3656,-1560,-1632,1084,-913
2320,1256,-3320,-1280,-1251,1277,-1095
2325,584,-2744,-1040,-834,1405,-1047
2330,248,-2520,-1064,-377,1416,-857
2335,144,-2368,-1216,-32,1338,-759
2340,328,-2216,-1208,99,1209,-717
2345,24,-1952,-1216,117,1079,-693
2350,-208,-1872,-1256,145,916,-611
2355,-328,-1776,-1368,167,721,-522
2360,-344,-1784,-1512,153,507,-452
2365,-368,-1816,-1600,92,344,-400
2370,-336,-2032,-1680,-9,255,-339
2375,-408,-2296,-1648,-127,215,-279
2380,-384,-2520,-1592,-214,176,-250
2385,-456,-2800,-1432,-271,148,-248
2390,-496,-2984,-1240,-272,84,-263
2395,-408,-3064,-1112,-213,2,-302
2400,-344,-3160,-904,-122,-56,-321
2405,-216,-3144,-784,-23,-114,-327
2410,-104,-3016,-792,74,-151,-305
2415,0,-2832,-816,136,-155,-236
2420,-72,-2584,-816,157,-155,-151
2425,-64,-2344,-864,164,-164,-68
2430,-24,-2096,-912,160,-180,-9
2435,-56,-1920,-888,140,-184,40
2440,-32,-1744,-832,124,-186,91
2445,24,-1656,-752,130,-181,143
2450,128,-1520,-728,160,-168,184
2455,192,-1472,-720,202,-142,216
2460,280,-1384,-696,240,-104,245
2465,400,-1280,-688,263,-58,268
2470,440,-1192,-728,270,0,284
2475,520,-1120,-688,264,62,322
2480,648,-1128,-688,246,129,369
2485,704,-1184,-680,210,205,410
2490,752,-1224,-560,167,293,430
2495,720,-1352,-544,137,367,430
2500,632,-1288,-536,118,429,428
2505,624,-1288,-512,78,488,433
2510,592,-1192,-480,18,547,437
2515,576,-1192,-456,-42,599,477
2520,672,-1328,-416,-100,657,501
2525,536,-1264,-400,-128,732,473
2530,384,-1224,-424,-121,800,452
2535,216,-1064,-400,-112,846,463
2540,144,-976,-424,-133,886,498
2545,120,-992,-336,-195,935,548
2550,-48,-1168,-288,-253,962,562
2555,-48,-1064,-320,-248,970,554
2560,32,-1072,-320,-241,1002,533
2565,24,-1120,-320,-213,1046,505
2570,88,-1200,-344,-213,1067,476
2575,0,-1080,-320,-223,1073,430
2580,-72,-1088,-312,-239,1069,424
2585,32,-1224,-256,-252,1060,454
2590,-24,-1112,-256,-232,1062,429
2595,-160,-1112,-224,-222,1065,424
2600,-240,-1168,-184,-205,1038,434
2605,-224,-1184,-128,-160,994,419
2610,-232,-1192,-24,-81,974,408
2615,-240,-1240,24,29,973,417
2620,-352,-1344,0,149,985,437
2625,-408,-1320,-72,243,990,432
2630,-488,-1248,-96,268,970,393
2635,-480,-1272,-48,249,953,363
2640,-432,-1344,-56,229,945,346
2645,-480,-1432,-64,221,940,339
2650,-368,-1488,-144,214,942,344
2655,-392,-1544,-160,194,959,324
2660,-320,-1600,-168,158,985,307
2665,-312,-1640,-168,124,1004,279
2670,-200,-1744,-144,103,1023,266
2675,-88,-1784,-160,100,1040,252
2680,-32,-1824,-160,103,1041,228
2685,-80,-1888,-112,99,1029,205
2690,-48,-1968,-104,101,1005,198
2695,-56,-2048,-48,103,965,202
2700,-56,-2128,-56,100,913,206
2705,0,-2208,-72,95,856,204
2710,24,-2240,-136,88,805,186
2715,64,-2248,-152,74,763,170
2720,112,-2248,-216,53,729,152
2725,56,-2344,-232,23,700,131
2730,24,-2440,-160,-31,678,112
2735,-136,-2608,-40,-63,636,110
2740,-360,-2784,120,-32,560,128
2745,-504,-2840,232,46,478,170
2750,-520,-2872,272,146,399,227
2755,-584,-2792,288,246,319,274
2760,-608,-2696,288,336,250,312
2765,-552,-2520,240,414,206,340
2770,-552,-2448,224,469,209,341
2775,-496,-2464,240,509,245,331
2780,-328,-2368,400,538,290,312
2785,-216,-2360,440,558,327,302
2790,-144,-2376,360,540,343,308
2795,-160,-2352,136,441,343,298
2800,-360,-2384,-224,216,317,292
2805,-656,-2496,-744,-158,256,300
2810,-816,-2656,-1424,-677,119,331
2815,-880,-2816,-2088,-1297,-111,362
2820,-1000,-3016,-2464,-1901,-420,390
2825,-1112,-3280,-2432,-2244,-730,441
2830,-1072,-3528,-2216,-2160,-936,515
2835,-944,-3624,-1808,-1751,-1005,604
2840,-608,-3536,-1432,-1188,-994,697
2845,-376,-3360,-1256,-629,-946,775
2850,-216,-3072,-1232,-201,-871,831
2855,0,-2744,-1264,54,-786,869
2860,288,-2416,-1296,189,-698,864
2865,584,-2208,-1360,259,-611,831
2870,728,-2064,-1400,305,-531,792
2875,768,-2056,-1432,357,-461,753
2880,744,-2176,-1520,400,-397,712
2885,664,-2264,-1608,394,-349,667
2890,600,-2448,-1672,324,-319,615
2895,520,-2632,-1616,225,-292,564
2900,464,-2880,-1504,138,-250,518
2905,384,-3104,-1328,69,-184,476
2910,352,-3176,-1176,14,-101,421
2915,296,-3304,-1048,-7,-3,360
2920,184,-3256,-936,-6,105,282
2925,48,-3176,-856,26,211,205
2930,-24,-3032,-840,80,303,145
2935,-24,-2912,-912,141,380,93
2940,-24,-2736,-960,184,434,40
2945,72,-2552,-960,208,475,-21
2950,160,-2376,-928,227,510,-81
2955,264,-2192,-872,257,542,-137
2960,280,-1968,-784,316,560,-192
2965,336,-1776,-680,390,564,-241
2970,232,-1592,-640,459,556,-271
2975,184,-1480,-560,518,535,-287
2980,176,-1400,-544,551,517,-298
2985,16,-1312,-512,554,502,-312
2990,-48,-1240,-456,550,470,-323
2995,-168,-1176,-400,534,432,-339
3000,-248,-1120,-360,499,401,-348
3005,-344,-1112,-336,449,367,-346
3010,-416,-1064,-360,378,339,-339
3015,-488,-1048,-344,281,307,-314
3020,-584,-1000,-336,182,266,-284
3025,-544,-968,-336,90,209,-287
3030,-488,-912,-392,6,162,-310
3035,-416,-872,-304,-91,154,-304
3040,-384,-824,-264,-157,141,-300
3045,-232,-808,-264,-203,132,-318
3050,-272,-800,-224,-223,125,-339
3055,-256,-744,-200,-220,106,-363
3060,-200,-840,-160,-203,72,-397
3065,-184,-824,-120,-189,35,-426
3070,-104,-856,-112,-159,-25,-418
3075,-32,-896,-112,-118,-97,-390
3080,-48,-936,-112,-78,-171,-382
3085,-16,-944,-128,-52,-254,-382
3090,8,-1032,-128,-28,-331,-382
3095,16,-1088,-120,15,-396,-385
3100,96,-1160,-88,69,-440,-387
3105,32,-1032,-120,134,-466,-408
3110,-8,-960,-136,185,-495,-422
3115,16,-944,-152,192,-530,-424
3120,48,-960,-184,162,-564,-437
3125,96,-936,-184,138,-588,-437
3130,72,-920,-168,116,-621,-389
3135,88,-992,-192,74,-681,-352
3140,96,-1112,-176,43,-720,-337
3145,24,-1224,-200,20,-752,-329
3150,-112,-1368,-168,4,-781,-320
3155,-88,-1472,-152,3,-812,-302
3160,-56,-1560,-120,34,-834,-282
3165,-24,-1632,-112,84,-843,-268
3170,-8,-1736,-112,141,-854,-257
3175,-16,-1840,-112,194,-869,-230
3180,0,-1984,-72,235,-895,-212
3185,24,-2064,-72,273,-918,-200
3190,56,-2168,-104,295,-931,-183
3195,64,-2288,-144,288,-933,-158
3200,48,-2336,-192,257,-928,-132
3205,40,-2408,-288,225,-906,-103
3210,32,-2496,-280,206,-876,-81
3215,0,-2560,-280,207,-844,-68
3220,-32,-2616,-256,224,-798,-53
3225,16,-2712,-240,256,-751,-23
3230,136,-2832,-72,296,-694,-10
3235,376,-2952,-8,350,-635,-27
3240,648,-2984,64,404,-577,-74
3245,952,-2992,144,440,-510,-139
3250,1072,-2944,224,461,-434,-209
3255,1128,-2832,272,474,-371,-271
3260,1128,-2736,312,475,-320,-313
3265,1048,-2656,336,467,-280,-335
3270,944,-2576,408,455,-247,-352
3275,736,-2496,440,439,-215,-353
3280,520,-2376,584,422,-199,-331
3285,288,-2264,544,403,-204,-284
3290,184,-2368,376,357,-230,-221
3295,256,-2536,88,223,-247,-185
3300,512,-2688,-184,-14,-216,-206
3305,488,-2824,-496,-308,-134,-270
3310,272,-2960,-1152,-630,-97,-315
3315,24,-3144,-2168,-1017,-118,-322
3320,-96,-3584,-2928,-1465,-72,-323
3325,88,-3800,-2888,-1822,133,-346
3330,632,-3960,-2280,-1901,485,-412
3335,1048,-3920,-1640,-1610,880,-581
3340,976,-3632,-1416,-1065,1187,-813
3345,696,-2816,-1160,-530,1395,-999
3350,528,-2296,-1112,-70,1493,-1005
3355,608,-2160,-1216,181,1390,-929
3360,456,-2016,-1376,230,1181,-889
3365,152,-1968,-1400,184,986,-861
3370,-80,-1984,-1392,156,800,-827
3375,-120,-1992,-1472,181,626,-792
3380,-120,-2040,-1568,202,491,-753
3385,-176,-2040,-1616,181,414,-695
3390,-240,-2136,-1624,110,381,-614
3395,-344,-2320,-1640,13,363,-517
3400,-384,-2496,-1520,-90,325,-443
3405,-376,-2680,-1400,-176,271,-391
3410,-320,-2864,-1184,-232,209,-344
3415,-240,-3000,-976,-244,148,-306
3420,-304,-3176,-792,-205,78,-265
3425,-208,-3128,-680,-114,-14,-222
3430,-104,-3064,-712,-1,-75,-191
3435,-88,-2960,-704,94,-115,-164
3440,-24,-2744,-760,172,-163,-120
3445,-8,-2496,-864,231,-204,-59
3450,-32,-2248,-864,259,-215,7
3455,-40,-2032,-920,278,-194,74
3460,-112,-1832,-824,297,-154,131
3465,-32,-1648,-720,324,-105,186
3470,0,-1528,-648,350,-59,247
3475,40,-1480,-624,367,-29,287
3480,168,-1360,-600,367,-9,303
3485,304,-1320,-544,346,18,323
3490,464,-1224,-560,299,63,350
3495,504,-1144,-568,236,123,379
3500,624,-1072,-504,165,192,404
3505,632,-1056,-504,101,260,420
3510,696,-1096,-480,33,318,434
3515,640,-1096,-392,-42,371,434
3520,672,-1088,-408,-96,423,446
3525,656,-1096,-344,-145,478,438
3530,704,-1224,-352,-157,523,402
3535,760,-1232,-304,-139,566,367
3540,560,-1120,-272,-138,643,345
3545,488,-1056,-168,-172,714,389
3550,344,-1040,-160,-214,751,452
3555,224,-1072,-128,-242,748,510
3560,152,-1064,-144,-245,733,555
3565,72,-1024,-152,-228,727,597
3570,16,-984,-160,-213,738,622
3575,-8,-1016,-136,-211,770,620
3580,-112,-992,-136,-186,806,579
3585,-88,-1064,-152,-138,842,558
3590,-56,-1024,-168,-98,874,536
3595,-112,-968,-176,-66,905,515
3600,-168,-936,-96,-49,934,502
3605,-304,-960,-80,-21,950,484
3610,-312,-1048,-72,23,942,453
3615,-304,-1112,-120,68,929,420
3620,-384,-1184,-112,98,920,409
3625,-384,-1216,-112,113,903,406
3630,-400,-1224,-80,86,892,367
3635,-440,-1296,-24,44,879,310
3640,-456,-1360,40,31,856,266
3645,-456,-1408,64,42,827,246
3650,-440,-1432,24,63,806,228
3655,-432,-1416,-24,88,794,212
3660,-472,-1472,-32,100,788,181
3665,-448,-1464,-24,114,774,140
3670,-368,-1512,-88,114,766,115
3675,-312,-1448,-104,92,776,95
3680,-192,-1472,-88,74,787,90
3685,-144,-1448,-16,63,796,89
3690,-192,-1512,-48,43,791,99
3695,-144,-1608,-40,8,749,126
3700,-152,-1728,32,-14,701,146
3705,-184,-1856,-24,-6,662,157
3710,-216,-1896,-104,-10,624,162
3715,-216,-2016,-152,-36,589,171
3720,-216,-2136,-160,-61,558,189
3725,-104,-2272,-168,-68,532,202
3730,16,-2296,-224,-48,523,205
3735,208,-2360,-280,-15,536,190
3740,344,-2416,-256,10,567,151
3745,264,-2440,-208,33,599,99
3750,136,-2512,-112,72,610,80
3755,-96,-2584,40,113,579,85
3760,-336,-2640,208,155,503,125
3765,-464,-2648,336,207,404,181
3770,-552,-2720,424,266,310,248
3775,-608,-2704,400,341,222,316
3780,-640,-2672,344,412,164,363
3785,-736,-2624,312,460,139,370
3790,-728,-2536,344,498,135,364
3795,-624,-2520,384,517,144,360
3800,-400,-2496,496,524,157,361
3805,-272,-2424,536,525,163,355
3810,-144,-2400,328,495,152,364
3815,-216,-2352,-64,351,88,378
3820,-576,-2304,-376,23,-10,391
3825,-864,-2488,-832,-454,-111,424
3830,-1024,-2824,-1520,-1019,-258,474
3835,-1056,-3256,-2096,-1580,-469,527
3840,-1112,-3664,-2288,-1930,-710,563
3845,-1248,-4056,-2232,-1867,-922,608
3850,-1016,-4280,-1944,-1406,-1039,693
3855,-744,-4280,-1496,-738,-1037,775
3860,-368,-3984,-1264,-101,-958,852
3865,0,-3544,-1128,347,-843,894
3870,160,-2960,-1088,587,-725,893
3875,392,-2360,-1192,657,-650,861
3880,512,-1912,-1272,587,-621,800
3885,568,-1640,-1312,428,-617,736
3890,536,-1504,-1384,270,-607,685
3895,512,-1584,-1520,176,-563,653
3900,336,-1816,-1696,108,-498,617
3905,216,-2144,-1768,0,-443,566
3910,72,-2536,-1736,-127,-388,509
3915,16,-2840,-1632,-228,-323,463
3920,8,-3184,-1448,-292,-240,424
3925,40,-3400,-1216,-338,-146,374
3930,80,-3552,-984,-356,-52,303
3935,40,-3584,-832,-333,37,233
3940,40,-3608,-744,-280,110,173
3945,32,-3568,-752,-210,171,116
3950,48,-3432,-800,-134,230,54
3955,128,-3216,-856,-54,286,-14
3960,184,-3016,-848,27,338,-84
3965,288,-2760,-816,111,374,-157
3970,296,-2456,-824,187,397,-238
3975,352,-2232,-736,257,400,-317
3980,360,-1992,-672,314,388,-378
3985,352,-1840,-576,361,371,-421
3990,328,-1632,-488,406,353,-455
3995,232,-1504,-464,437,338,-473
4000,136,-1424,-384,440,317,-484
4005,56,-1352,-440,404,300,-490
4010,-168,-1264,-344,343,279,-495
4015,-392,-1232,-336,283,242,-507
4020,-536,-1240,-304,226,206,-527
4025,-584,-1160,-368,171,158,-576
4030,-592,-1176,-304,98,147,-579
4035,-608,-1232,-296,20,141,-550
4040,-672,-1256,-256,-46,108,-531
4045,-624,-1216,-224,-82,31,-546
4050,-648,-1120,-208,-87,-45,-570
4055,-496,-1048,-256,-97,-100,-573
4060,-368,-1016,-192,-119,-128,-575
4065,-344,-984,-176,-147,-144,-583
4070,-192,-960,-152,-152,-173,-579
4075,-88,-904,-152,-141,-195,-576
4080,-40,-856,-152,-124,-206,-573
4085,-8,-808,-152,-119,-217,-566
4090,32,-808,-144,-121,-229,-547
4095,88,-864,-112,-127,-243,-514
4100,128,-904,-128,-132,-261,-479
4105,176,-944,-120,-121,-277,-457
4110,176,-952,-96,-100,-287,-434
4115,216,-952,-64,-82,-296,-405
4120,240,-904,-80,-68,-305,-367
4125,288,-1080,-8,-58,-321,-327
4130,296,-1184,24,-65,-340,-318
4135,248,-1240,40,-65,-352,-315
4140,256,-1216,48,-61,-356,-296
4145,256,-1320,88,-54,-349,-263
4150,240,-1360,120,-39,-326,-235
4155,272,-1416,160,-21,-297,-213
4160,264,-1384,144,14,-258,-209
4165,288,-1336,112,59,-230,-205
4170,320,-1288,64,100,-223,-194
4175,328,-1192,40,124,-228,-182
4180,192,-1256,-120,127,-234,-160
4185,112,-1296,-160,119,-230,-142
4190,72,-1384,-160,111,-224,-119
4195,96,-1456,-152,116,-224,-100
4200,136,-1528,-152,135,-237,-96
4205,128,-1624,-128,159,-271,-103
4210,120,-1720,-128,176,-320,-111
4215,40,-1704,-160,176,-364,-116
4220,0,-1784,-232,166,-402,-104
4225,-64,-1872,-296,152,-427,-86
4230,-160,-1944,-384,132,-441,-65
4235,-200,-2056,-384,103,-436,-41
4240,-216,-2192,-376,78,-408,-13
4245,-120,-2424,-256,74,-346,5
4250,32,-2616,-152,94,-256,0
4255,256,-2832,-8,121,-142,-40
4260,424,-3008,104,132,-36,-104
4265,520,-3192,208,140,52,-185
4270,656,-3232,336,161,125,-278
4275,784,-3224,336,209,187,-383
4280,856,-3040,328,289,256,-483
4285,840,-2768,256,370,306,-524
4290,768,-2568,296,400,312,-493
4295,640,-2432,248,403,291,-445
4300,496,-2376,288,412,247,-383
4305,288,-2336,336,413,194,-323
4310,64,-2424,272,399,137,-278
4315,-40,-2528,96,341,88,-249
4320,16,-2768,-56,201,67,-227
4325,48,-2952,-296,-1,45,-234
4330,-24,-3024,-696,-221,9,-251
4335,-176,-3112,-1280,-452,-25,-251
4340,-352,-3200,-1920,-678,-27,-251
4345,-392,-3264,-2408,-855,47,-245
4350,-216,-3392,-2592,-930,213,-280
4355,456,-3632,-2368,-905,447,-387
4360,864,-3600,-1784,-750,688,-589
4365,920,-3296,-1296,-445,851,-773
4370,872,-2768,-1024,-81,915,-858
4375,808,-2360,-896,186,901,-858
4380,576,-2136,-992,295,824,-814
4385,248,-1944,-1208,263,738,-755
4390,-120,-1744,-1424,139,676,-697
4395,-304,-1672,-1496,-19,603,-658
4400,-376,-1696,-1496,-143,507,-643
4405,-344,-1800,-1464,-215,421,-638
4410,-320,-1984,-1360,-257,373,-627
4415,-312,-2160,-1312,-289,338,-605
4420,-248,-2312,-1320,-319,309,-574
4425,-208,-2488,-1304,-332,284,-545
4430,-200,-2648,-1336,-342,248,-523
4435,-144,-2800,-1232,-378,201,-504
4440,-56,-2904,-1128,-429,152,-473
4445,-88,-3120,-888,-464,131,-403
4450,-8,-3152,-824,-441,70,-336
4455,24,-3168,-808,-380,22,-270
4460,8,-3064,-808,-322,-7,-212
4465,32,-2912,-832,-267,-25,-148
4470,40,-2688,-888,-207,-36,-86
4475,8,-2472,-896,-152,-36,-13
4480,0,-2248,-920,-105,-40,61
4485,32,-2048,-824,-58,-38,140
4490,-8,-1992,-648,-18,-10,238
4495,64,-1864,-576,42,-41,286
4500,-32,-1704,-504,101,-72,283
4505,8,-1552,-448,149,-80,287
4510,8,-1464,-424,198,-88,281
4515,120,-1344,-440,220,-95,277
4520,192,-1216,-440,217,-102,280
4525,192,-1096,-432,196,-105,292
4530,248,-1000,-424,162,-104,300
4535,272,-1000,-408,119,-90,305
4540,328,-992,-400,66,-76,311
4545,328,-976,-360,8,-57,313
4550,392,-968,-344,-45,-31,322
4555,328,-976,-280,-105,-9,316
4560,368,-1064,-304,-179,-1,301
4565,288,-1088,-232,-255,12,277
4570,216,-1064,-208,-308,28,261
4575,192,-1080,-168,-352,47,272
4580,208,-1080,-160,-385,69,290
4585,56,-1120,-152,-408,91,311
4590,16,-1112,-96,-408,105,338
4595,-8,-1056,-64,-390,115,348
4600,0,-1040,-16,-353,132,356
4605,-40,-1040,-8,-268,163,362
4610,-240,-1048,40,-152,201,363
4615,-240,-1048,-40,-55,233,376
4620,-240,-1048,-32,-6,251,364
4625,-272,-984,-96,8,248,318
4630,-272,-968,-120,-8,241,283
4635,-264,-1040,-72,-53,215,266
4640,-392,-1096,-32,-102,179,245
4645,-344,-1256,-8,-143,136,244
4650,-328,-1328,-32,-172,93,238
4655,-376,-1400,-40,-184,63,205
4660,-448,-1408,-40,-175,55,173
4665,-392,-1432,-32,-145,59,147
4670,-384,-1432,-40,-107,72,111
4675,-328,-1480,-152,-77,93,79
4680,-360,-1472,-192,-70,119,44
4685,-192,-1536,-224,-74,149,17
4690,-208,-1576,-264,-86,180,-20
4695,-176,-1688,-160,-93,207,-56
4700,-144,-1728,-168,-90,225,-94
4705,-120,-1744,-192,-90,235,-125
4710,-120,-1816,-200,-97,233,-141
4715,-168,-1904,-176,-113,228,-153
4720,-72,-1952,-216,-131,228,-156
4725,-24,-1968,-240,-138,237,-148
4730,0,-2040,-248,-132,250,-120
4735,0,-2112,-192,-130,252,-86
4740,24,-2152,-176,-133,233,-56
4745,64,-2232,-168,-136,196,-27
4750,104,-2216,-224,-137,146,-15
4755,104,-2232,-248,-135,87,-27
4760,48,-2304,-264,-125,24,-40
4765,-64,-2384,-272,-119,-40,-52
4770,-232,-2520,-256,-119,-102,-40
4775,-328,-2576,-200,-110,-152,-2
4780,-496,-2864,-16,-101,-183,75
4785,-544,-2960,0,-7,-251,120
4790,-584,-3024,-40,111,-291,160
4795,-528,-3104,-24,213,-302,195
4800,-432,-3144,-80,300,-288,212
4805,-400,-3112,-72,380,-255,191
4810,-192,-3008,-8,453,-198,160
4815,-128,-2936,120,503,-131,129
4820,80,-2976,232,525,-85,112
4825,184,-2880,344,516,-52,94
4830,128,-2792,344,477,-27,84
4835,-48,-2632,192,408,-19,101
4840,-280,-2488,-224,246,-29,133
4845,-544,-2400,-688,-74,-30,162
4850,-824,-2384,-1232,-543,-66,195
4855,-968,-2488,-1824,-1073,-172,244
4860,-960,-2664,-2288,-1563,-328,283
4865,-936,-2912,-2416,-1873,-495,307
4870,-872,-3104,-2224,-1851,-630,327
4875,-816,-3144,-1976,-1470,-716,344
4880,-840,-3032,-1736,-916,-757,351
4885,-856,-2752,-1552,-413,-790,389
4890,-680,-2440,-1360,-60,-866,458
4895,-400,-2096,-1288,117,-990,519
4900,-136,-1912,-1312,127,-1117,555
4905,272,-1880,-1288,24,-1208,575
4910,600,-1984,-1232,-132,-1240,583
4915,824,-2032,-1192,-283,-1216,573
4920,864,-2080,-1176,-392,-1170,556
4925,760,-2136,-1160,-456,-1120,539
4930,632,-2152,-1272,-470,-1062,524
4935,488,-2184,-1344,-440,-998,510
4940,416,-2208,-1376,-380,-943,499
4945,312,-2288,-1440,-322,-876,463
4950,208,-2456,-1424,-299,-795,415
4955,104,-2520,-1384,-308,-706,350
4960,-16,-2560,-1344,-338,-611,282
4965,-48,-2736,-1288,-380,-513,223
4970,-152,-2856,-1176,-436,-414,141
4975,-168,-2888,-1080,-463,-326,36
4980,-104,-2864,-1072,-452,-262,-47
4985,-8,-2768,-984,-417,-217,-119
4990,80,-2664,-880,-348,-181,-176
4995,160,-2472,-832,-249,-151,-221
5000,288,-2296,-768,-122,-133,-245
5005,400,-2088,-672,14,-119,-263
5010,448,-1848,-656,143,-110,-282
5015,504,-1656,-584,244,-105,-292
5020,512,-1496,-608,306,-114,-289
5025,464,-1384,-592,323,-126,-270
5030,400,-1288,-576,294,-143,-249
5035,312,-1168,-640,231,-177,-233
5040,304,-1224,-552,140,-207,-234
5045,216,-1216,-568,40,-237,-248
5050,104,-1240,-488,-59,-265,-250
5055,32,-1280,-440,-136,-309,-268
5060,0,-1312,-440,-195,-345,-285
5065,-72,-1304,-352,-250,-371,-296
5070,-152,-1320,-352,-298,-396,-295
5075,-280,-1360,-264,-328,-436,-303
5080,-336,-1320,-336,-319,-498,-339
5085,-304,-1296,-320,-301,-535,-356
5090,-352,-1216,-328,-288,-571,-368
5095,-304,-1200,-384,-284,-603,-378
5100,-216,-1120,-392,-294,-620,-379
5105,-232,-1128,-384,-324,-633,-378
5110,-184,-1184,-376,-345,-653,-395
5115,-136,-1168,-320,-351,-664,-412
5120,-32,-1200,-312,-341,-671,-435
5125,-8,-1216,-296,-330,-674,-429
5130,32,-1288,-280,-304,-691,-415
5135,64,-1320,-240,-264,-709,-403
5140,104,-1352,-240,-226,-720,-390
5145,168,-1344,-304,-220,-725,-387
5150,304,-1408,-280,-253,-732,-397
5155,360,-1440,-248,-290,-746,-415
5160,352,-1472,-200,-320,-767,-414
5165,336,-1496,-160,-342,-786,-407
5170,296,-1584,-120,-357,-792,-392
5175,360,-1752,-16,-360,-782,-371
5180,384,-1856,-32,-333,-756,-364
5185,344,-2000,24,-287,-688,-383
5190,312,-2112,24,-208,-609,-399
5195,288,-2128,-64,-107,-546,-408
5200,256,-2088,-256,-44,-512,-412
5205,264,-2088,-392,-29,-510,-403
5210,232,-2128,-432,-30,-520,-386
5215,224,-2192,-448,-13,-510,-371
5220,144,-2208,-448,29,-462,-356
5225,80,-2256,-352,88,-393,-326
5230,40,-2216,-328,149,-336,-292
5235,32,-2264,-328,204,-289,-256
5240,48,-2264,-368,235,-247,-215
5245,64,-2352,-368,255,-209,-175
5250,152,-2352,-440,266,-169,-132
5255,184,-2408,-424,273,-126,-92
5260,256,-2376,-424,276,-83,-57
5265,368,-2336,-352,282,-40,-26
5270,432,-2272,-272,293,-8,9
5275,488,-2272,-160,326,9,49
5280,488,-2200,-72,391,8,93
5285,424,-2176,-64,455,-4,134
5290,328,-2136,-64,501,-30,168
5295,296,-2128,-112,532,-59,202
5300,272,-2024,-296,556,-85,227
5305,224,-1952,-568,551,-92,242
5310,232,-1816,-952,488,-73,244
5315,328,-1712,-1464,354,-24,219
5320,352,-1648,-1920,142,57,170
5325,216,-1576,-2368,-144,160,113
5330,-16,-1600,-2672,-461,254,65
5335,-168,-1648,-2872,-735,304,44
5340,-80,-1792,-2832,-887,313,11
5345,264,-2104,-2496,-861,329,-63
5350,496,-2488,-1904,-685,392,-170
5355,456,-2664,-1272,-420,480,-285
5360,264,-2792,-800,-136,551,-372
5365,32,-2816,-432,119,599,-417
5370,-288,-2744,-240,313,624,-422
5375,-576,-2584,-304,429,644,-389
5380,-720,-2392,-440,468,666,-341
5385,-744,-2120,-632,484,669,-299
5390,-776,-1904,-728,486,633,-232
5395,-800,-1664,-760,463,541,-139
5400,-816,-1544,-656,435,406,-19
5405,-720,-1512,-552,408,228,94
5410,-536,-1616,-416,372,30,171
5415,-352,-1768,-416,325,-138,223
5420,-136,-1928,-480,280,-262,264
5425,24,-2064,-600,238,-364,298
5430,144,-2216,-728,202,-443,332
5435,272,-2392,-816,171,-488,360
5440,360,-2496,-880,132,-498,368
5445,328,-2616,-800,76,-479,367
5450,344,-2680,-664,30,-485,340
5455,408,-2680,-632,34,-497,284
5460,464,-2584,-584,69,-467,239
5465,456,-2480,-648,132,-406,205
5470,408,-2392,-712,207,-310,180
5475,304,-2192,-760,286,-179,170
5480,168,-2048,-792,366,-37,170
5485,96,-1904,-744,438,86,179
5490,8,-1832,-656,494,164,191
5495,-104,-1728,-520,535,197,208
5500,-128,-1704,-384,560,194,230
5505,-152,-1704,-208,576,168,250
5510,-184,-1736,-96,587,131,268
5515,-232,-1792,-80,607,80,279
5520,-224,-1792,-48,611,29,280
5525,-312,-1824,16,607,-13,281
5530,-304,-1832,192,616,-62,278
5535,-248,-1824,168,656,-86,263
5540,-128,-1824,216,704,-61,239
5545,-24,-1704,184,751,0,194
5550,24,-1584,312,803,58,141
5555,104,-1512,416,873,68,116
5560,168,-1472,344,939,24,116
5565,160,-1416,-48,937,-29,115
5570,232,-1320,-440,812,-40,119
5575,248,-1232,-544,624,-2,114
5580,288,-1176,-608,475,55,114
5585,216,-1144,-592,409,104,128
5590,104,-1080,-496,383,142,164
5595,-24,-928,-400,376,188,221
5600,128,-1152,-344,407,236,300
5605,-32,-1232,-184,365,251,305
5610,-88,-1232,-88,359,286,311
5615,-160,-1208,-240,429,362,319
5620,-216,-1112,-312,454,424,315
5625,-144,-1016,-296,432,440,320
5630,-120,-864,-248,387,412,326
5635,-80,-760,-208,347,349,306
5640,0,-672,-280,330,255,277
5645,48,-584,-384,309,146,250
5650,120,-432,-536,247,38,222
5655,128,-296,-504,142,-50,190
5660,168,-120,-544,87,-129,190
5665,96,120,-688,112,-185,189
5670,56,96,-656,62,-192,219
5675,72,56,-704,35,-180,260
5680,16,48,-752,0,-161,308
5685,8,-40,-800,-42,-138,359
5690,-144,-48,-712,-111,-113,383
5695,-184,-184,-624,-179,-114,414
5700,-184,-200,-640,-183,-128,426
5705,-176,-288,-552,-179,-131,445
5710,-176,-304,-536,-152,-136,467
5715,-152,-192,-568,-95,-152,483
5720,-120,-216,-624,-72,-172,503
5725,-64,-136,-712,-58,-199,500
5730,-32,-56,-848,-72,-227,480
5735,-24,104,-936,-132,-249,450
5740,24,144,-944,-225,-274,427
5745,-24,264,-936,-311,-302,403
5750,-104,312,-808,-391,-335,389
5755,-144,280,-752,-450,-377,379
5760,-176,208,-712,-486,-407,377
5765,-224,192,-744,-503,-420,377
5770,-336,184,-816,-532,-411,377
5775,-472,176,-896,-552,-396,380
5780,-520,160,-920,-594,-377,388
5785,-528,128,-872,-645,-365,400
5790,-520,80,-776,-698,-373,407
5795,-536,40,-688,-742,-419,409
5800,-440,-152,-528,-797,-499,412
5805,-320,-256,-496,-831,-599,389
5810,-224,-336,-432,-850,-683,360
5815,-120,-304,-360,-875,-733,343
5820,-136,-312,-408,-875,-763,334
5825,-88,-312,-512,-863,-783,337
5830,-72,-256,-632,-866,-793,347
5835,-72,-184,-736,-883,-808,362
5840,-16,-40,-976,-915,-829,381
5845,40,104,-1168,-977,-833,412
5850,96,144,-1296,-1071,-800,450
5855,160,240,-1304,-1195,-714,478
5860,304,240,-1392,-1310,-603,513
5865,408,96,-1296,-1459,-462,543
5870,480,64,-1336,-1600,-302,564
5875,312,-232,-1472,-1692,-179,575
5880,272,-680,-1464,-1837,-47,570
5885,384,-976,-1488,-1973,95,522
5890,400,-1104,-1552,-2044,225,449
5895,312,-1304,-1632,-2075,333,431
5900,352,-1504,-1896,-2112,417,441
5905,344,-1688,-2200,-2192,460,431
5910,384,-1968,-2592,-2325,477,417
5915,632,-2224,-3136,-2493,479,393
5920,936,-2584,-3912,-2693,492,340
5925,1296,-3120,-5008,-2979,567,235
5930,1488,-3864,-6312,-3393,699,64
5935,1720,-4888,-7424,-3936,775,-164
5940,1824,-6120,-7760,-4501,731,-444
5945,1168,-7208,-7504,-4818,634,-667
5950,40,-8032,-7328,-4741,618,-610
5955,-1016,-8344,-7520,-4456,662,-279
5960,-1864,-8752,-7760,-4287,671,202
5965,-2712,-9176,-7520,-4513,539,668
5970,-3888,-9128,-6592,-4921,297,1090
5975,-4488,-7624,-5024,-4980,14,1580
5980,-5032,-6528,-3968,-4380,-191,2082
5985,-4488,-5688,-3152,-3422,-362,2609
5990,-3864,-4936,-2496,-2623,-521,2890
5995,-2800,-4168,-1736,-2253,-828,2795
6000,-1896,-3376,-1064,-2294,-1260,2454
6005,-1088,-2672,-528,-2458,-1691,2066
6010,-312,-2176,-120,-2610,-2034,1782
6015,40,-1816,-48,-2741,-2288,1588
6020,104,-1544,88,-2835,-2455,1513
6025,184,-1352,312,-2874,-2539,1510
6030,392,-1160,656,-2879,-2550,1503
6035,464,-952,880,-2893,-2490,1436
6040,400,-840,904,-2959,-2418,1361
6045,336,-744,712,-3089,-2364,1274
6050,-168,-800,488,-3264,-2293,1199
6055,-536,-952,328,-3500,-2227,1213
6060,-704,-1200,376,-3827,-2109,1282
6065,-896,-1432,592,-4200,-1882,1374
6070,-832,-1544,824,-4580,-1586,1472
6075,-784,-1448,1088,-4870,-1250,1572
6080,-600,-1328,1160,-4989,-946,1645
6085,-304,-1304,1104,-4915,-742,1634
6090,0,-1432,1008,-4660,-650,1544
6095,184,-1600,888,-4262,-678,1448
6100,320,-1776,928,-3817,-872,1404
6105,520,-1880,904,-3390,-1194,1407
6110,544,-2000,968,-3015,-1547,1441
6115,480,-1976,816,-2753,-1877,1509
6120,408,-1720,552,-2621,-2093,1597
6125,256,-1368,392,-2621,-2119,1681
6130,-104,-1024,304,-2738,-1960,1761
6135,-248,-600,152,-2942,-1717,1829
6140,-304,-280,-72,-3167,-1439,1857
6145,-352,-48,-128,-3327,-1188,1843
6150,-208,240,-72,-3395,-1062,1779
6155,-136,488,-56,-3358,-1060,1711
6160,-32,688,-160,-3254,-1117,1661
6165,48,832,-96,-3166,-1197,1626
6170,-104,960,8,-3064,-1276,1543
6175,-160,888,88,-2962,-1328,1422
6180,-256,752,32,-2840,-1313,1321
6185,-232,568,-344,-2693,-1184,1244
6190,-80,536,-696,-2523,-956,1175
6195,112,568,-792,-2367,-716,1107
6200,312,680,-688,-2211,-525,1023
6205,272,784,-488,-2012,-417,915
6210,264,1016,-336,-1794,-434,805
6215,-120,1136,-416,-1657,-555,656
6220,-712,1376,-704,-1530,-699,460
6225,-1288,1400,-928,-1352,-778,228
6230,-2192,1488,-1464,-1029,-716,-16
6235,-2984,1456,-1680,-790,-608,-247
6240,-4552,2672,-2168,-550,-545,-473
6245,-4600,1752,-2728,-455,-600,-528
6250,-4728,1448,-2864,-227,-480,-886
6255,-4624,1560,-3208,37,-535,-1126
6260,-4736,2168,-3088,24,-750,-1347
6265,-5608,2720,-3632,-128,-924,-1240
6270,-5408,2376,-4544,-112,-806,-967
6275,-12120,8384,-9816,124,-240,-664
6280,-5064,3936,-2832,325,1244,357
6285,-2456,2600,-1904,134,815,351
6290,-2296,2072,-2504,174,-180,-7
6295,-4336,2176,-3920,147,-1174,-388
6300,-4608,800,-3344,66,-1327,-386
6305,-4528,64,-3088,-116,-1418,-410
6310,-5216,840,-3104,-253,-1598,-267
6315,-4696,704,-2944,-287,-1677,-70
6320,-4152,2064,-2728,-108,-1446,34
6325,-3464,2736,-2200,-124,-1284,165
6330,-3264,3024,-2104,-110,-1287,266
6335,-2384,2672,-1800,-65,-1329,349
6340,-1952,2464,-1624,-18,-1263,299
6345,-1856,2192,-1600,22,-1124,238
6350,-2136,2168,-1776,86,-873,307
6355,-1928,1888,-1552,51,-530,401
6360,-2072,1640,-1256,106,-290,423
6365,-1552,1224,-1032,269,-170,464
6370,-1680,1064,-1024,471,-39,470
6375,-1352,1224,-1024,614,137,478
6380,-1512,888,-864,689,396,446
6385,-1168,712,-872,739,639,402
6390,-1384,1248,-1000,876,1043,330
6395,-1784,1816,-952,950,1500,335
6400,-1760,1904,-800,942,1798,386
6405,-1912,2200,-760,870,1810,420
6410,-1904,2072,-720,754,1641,463
6415,-2088,2048,-816,625,1488,475
6420,-2096,2000,-872,471,1338,458
6425,-2008,1880,-896,293,1189,428
6430,-2048,1592,-904,100,991,381
6435,-1984,1520,-1008,-25,778,311
6440,-2136,1744,-1240,-8,691,327
6445,-2048,1480,-1144,22,575,307
6450,-1688,1248,-992,-5,328,296
6455,-1600,992,-840,-54,64,292
6460,-1800,976,-824,-91,-130,263
6465,-1816,800,-840,-125,-236,239
6470,-1896,960,-1016,-128,-266,181
6475,-1688,864,-1112,-164,-300,121
6480,-1512,888,-1136,-169,-322,48
6485,-1456,864,-1064,-181,-366,-10
6490,-1504,808,-960,-175,-414,-64
6495,-1456,856,-920,-153,-443,-93
6500,-1304,848,-792,-139,-461,-120
6505,-1296,872,-824,-127,-458,-154
6510,-1280,872,-896,-117,-438,-184
6515,-1208,888,-968,-106,-428,-211
6520,-1224,856,-1016,-95,-424,-240
6525,-1160,872,-1064,-88,-424,-273
6530,-1184,824,-1024,-79,-415,-301
6535,-1112,816,-1016,-57,-395,-316
6540,-1048,800,-1024,-37,-350,-310
6545,-1016,776,-1024,-27,-287,-291
6550,-1000,768,-1048,-28,-218,-270
6555,-936,736,-1088,-28,-151,-248
6560,-864,800,-1128,-13,-89,-229
6565,-944,816,-1128,13,-27,-204
6570,-1264,640,-1080,47,26,-169
6575,-1328,552,-1104,94,67,-155
6580,-1344,552,-1112,146,111,-155
6585,-1416,568,-1144,187,152,-156
6590,-1456,560,-1184,219,190,-159
6595,-1480,544,-1184,247,224,-163
6600,-1512,560,-1184,275,261,-166
6605,-1520,528,-1176,304,294,-170
6610,-1544,504,-1216,325,325,-176
6615,-1552,496,-1208,345,354,-182
6620,-1576,480,-1280,360,378,-183
6625,-1568,512,-1312,372,393,-181
6630,-1584,504,-1320,383,407,-180
6635,-1592,520,-1352,395,417,-181
6640,-1584,512,-1392,405,423,-182
6645,-1616,528,-1464,420,423,-183
6650,-1616,488,-1480,428,422,-189
6655,-1640,528,-1512,434,424,-195
6660,-1632,480,-1488,442,425,-202
6665,-1640,464,-1480,447,423,-214
6670,-1616,424,-1496,452,415,-222
6675,-1600,392,-1472,449,403,-228
6680,-1568,360,-1472,442,393,-232
6685,-1552,312,-1416,434,390,-235
6690,-1544,296,-1392,425,387,-238
6695,-1536,280,-1400,415,385,-242
6700,-1512,288,-1432,411,380,-244
6705,-1520,264,-1424,407,370,-243
6710,-1480,304,-1472,406,352,-236
6715,-1416,360,-1464,397,342,-216
6720,-1472,288,-1408,382,359,-178
6725,-1536,272,-1392,378,352,-174
6730,-1496,272,-1400,385,341,-179
6735,-1528,240,-1400,391,339,-182
6740,-1496,232,-1400,398,338,-190
6745,-1512,240,-1424,401,343,-195
6750,-1504,232,-1416,385,344,-196
6755,-1480,232,-1408,356,353,-189
6760,-1528,224,-1456,326,363,-186
6765,-1512,224,-1440,296,360,-182
6770,-1536,176,-1480,268,342,-176
6775,-1528,168,-1488,245,313,-172
6780,-1520,200,-1504,224,285,-164
6785,-1512,192,-1512,199,258,-149
6790,-1536,200,-1528,174,237,-130
6795,-1536,232,-1528,153,222,-117
6800,-1504,224,-1512,133,210,-101
6805,-1520,216,-1504,110,201,-86
6810,-1488,200,-1472,94,194,-74
6815,-1520,208,-1496,77,187,-61
6820,-1512,192,-1512,62,177,-47
6825,-1496,192,-1536,48,163,-32
6830,-1504,232,-1528,37,147,-19
6835,-1512,224,-1600,28,132,-9
6840,-1496,256,-1592,18,118,1
6845,-1520,232,-1584,8,107,6
6850,-1512,248,-1576,0,95,11
6855,-1496,256,-1544,-5,83,14
6860,-1520,248,-1568,-8,69,18
6865,-1488,224,-1560,-11,50,19
6870,-1488,232,-1552,-14,27,23
6875,-1472,224,-1544,-16,1,24
6880,-1480,232,-1512,-13,-24,25
6885,-1472,240,-1488,-9,-40,27
6890,-1472,240,-1480,-8,-51,29
6895,-1456,232,-1480,-11,-54,30
6900,-1432,240,-1480,-18,-57,34
6905,-1472,248,-1464,-29,-56,39
6910,-1448,224,-1472,-39,-57,42
6915,-1440,248,-1440,-48,-58,45
6920,-1456,248,-1432,-55,-59,48
6925,-1432,240,-1432,-61,-57,49
6930,-1440,240,-1400,-63,-56,51
6935,-1448,240,-1400,-68,-51,50
6940,-1440,240,-1360,-71,-44,51
6945,-1424,240,-1376,-74,-38,50
6950,-1416,224,-1368,-76,-30,49
6955,-1424,256,-1368,-77,-24,48
6960,-1440,264,-1384,-80,-20,49
6965,-1488,192,-1368,-86,-16,50
6970,-1464,272,-1392,-91,-10,52
6975,-1456,288,-1400,-92,-1,51
6980,-1472,272,-1392,-91,9,50
6985,-1472,272,-1392,-84,18,47
6990,-1480,312,-1392,-77,24,45
6995,-1472,296,-1416,-70,31,43
7000,-1472,288,-1416,-63,36,39
7005,-1496,320,-1384,-59,38,38
7010,-1480,280,-1392,-56,40,36
7015,-1496,288,-1384,-55,45,33
7020,-1472,280,-1392,-57,53,31
7025,-1488,288,-1392,-58,65,27
7030,-1472,304,-1416,-57,80,23
7035,-1488,304,-1408,-51,91,21
7040,-1472,264,-1384,-45,99,16
7045,-1480,304,-1440,-38,102,15
7050,-1472,304,-1448,-31,104,12
7055,-1488,304,-1440,-23,99,8
7060,-1496,312,-1448,-12,91,1
7065,-1496,312,-1448,0,84,-6
7070,-1512,304,-1456,12,75,-9
7075,-1504,312,-1456,20,64,-12
7080,-1488,312,-1456,24,58,-16
7085,-1504,272,-1472,25,55,-17
7090,-1504,288,-1440,25,52,-18
7095,-1480,280,-1464,26,50,-19
7100,-1488,280,-1488,26,45,-21
7105,-1512,296,-1472,28,40,-22
7110,-1488,280,-1448,30,33,-27
7115,-1488,288,-1448,31,27,-30
7120,-1488,296,-1464,30,21,-34
7125,-1496,304,-1464,27,13,-36
7130,-1496,288,-1416,27,7,-39
7135,-1472,288,-1384,26,5,-42
7140,-1464,264,-1384,27,7,-43
7145,-1464,280,-1376,31,10,-46
7150,-1448,256,-1384,38,13,-49
7155,-1464,280,-1400,46,12,-52
7160,-1432,248,-1408,52,12,-53
7165,-1472,272,-1352,54,12,-53
7170,-1448,256,-1368,50,15,-53
7175,-1480,264,-1376,45,21,-53
7180,-1480,248,-1408,40,28,-51
7185,-1496,280,-1328,32,35,-49
7190,-1480,248,-1408,26,45,-47
7195,-1480,264,-1384,16,55,-44
7200,-1472,256,-1384,8,65,-42
7205,-1440,240,-1392,-1,77,-41
7210,-1464,272,-1432,-9,86,-41
7215,-1480,280,-1376,-16,95,-41
7220,-1456,232,-1384,-20,103,-39
7225,-1472,232,-1408,-21,108,-38
7230,-1496,272,-1416,-22,111,-37
7235,-1480,288,-1432,-26,110,-36
7240,-1488,248,-1456,-31,112,-38
7245,-1504,256,-1448,-37,113,-38
7250,-1480,256,-1408,-46,119,-39
7255,-1496,224,-1432,-51,125,-36
7260,-1504,240,-1440,-51,127,-32
7265,-1480,248,-1448,-50,126,-30
7270,-1504,232,-1448,-51,121,-24
7275,-1496,248,-1456,-51,112,-19
7280,-1496,256,-1432,-50,104,-14
7285,-1520,232,-1464,-48,97,-9
7290,-1504,248,-1448,-49,92,-6
7295,-1504,264,-1456,-46,88,-4
7300,-1488,256,-1448,-44,81,-2
7305,-1504,264,-1464,-43,79,-1
7310,-1488,280,-1440,-42,77,-1
7315,-1504,272,-1440,-42,76,0
7320,-1472,240,-1408,-38,73,-1
7325,-1480,264,-1408,-33,75,-2
7330,-1496,248,-1416,-26,77,-2
7335,-1496,264,-1376,-20,79,-1
7340,-1480,256,-1416,-14,81,-2
7345,-1496,280,-1408,-10,80,-2
7350,-1480,256,-1424,-7,79,-2
7355,-1480,256,-1392,-6,76,0
7360,-1456,264,-1392,-5,78,2
7365,-1448,232,-1408,-9,84,3
7370,-1472,240,-1416,-13,92,5
7375,-1472,232,-1384,-14,100,7
7380,-1480,256,-1360,-18,108,9
7385,-1472,232,-1392,-22,118,11
7390,-1448,232,-1400,-25,127,14
7395,-1464,288,-1416,-28,134,15
7400,-1472,248,-1424,-29,140,16
7405,-1472,264,-1368,-30,144,17
7410,-1504,264,-1416,-29,149,18
7415,-1456,264,-1408,-30,154,19
7420,-1464,256,-1384,-31,157,19
7425,-1472,256,-1464,-34,163,19
7430,-1496,280,-1392,-34,168,18
7435,-1488,264,-1400,-33,174,18
7440,-1480,248,-1424,-35,175,18
7445,-1472,264,-1424,-35,176,18
7450,-1488,280,-1432,-36,178,18
7455,-1472,272,-1416,-35,180,21
7460,-1456,280,-1416,-36,183,22
7465,-1464,232,-1416,-38,187,23
7470,-1448,256,-1416,-42,194,25
7475,-1480,264,-1424,-46,202,27
7480,-1456,264,-1424,-48,212,26
7485,-1472,272,-1432,-51,222,26
7490,-1464,240,-1400,-51,228,27
7495,-1424,248,-1432,-49,233,26
7500,-1432,240,-1440,-47,233,26
7505,-1440,272,-1440,-46,231,26
7510,-1448,296,-1448,-43,226,26
7515,-1424,264,-1440,-42,222,26
7520,-1448,288,-1440,-44,221,25
7525,-1448,272,-1448,-45,225,26
7530,-1440,280,-1424,-45,227,26
7535,-1440,288,-1472,-43,230,27
7540,-1432,280,-1424,-38,233,26
7545,-1448,280,-1440,-36,239,27
7550,-1464,272,-1472,-31,244,29
7555,-1448,240,-1472,-30,253,32
7560,-1432,256,-1456,-24,259,34
7565,-1392,288,-1480,-19,261,33
7570,-1408,272,-1480,-17,256,32
7575,-1392,280,-1464,-15,249,31
7580,-1432,280,-1488,-16,244,31
7585,-1416,304,-1464,-21,239,31
7590,-1392,296,-1464,-25,236,31
7595,-1416,304,-1488,-26,231,32
7600,-1448,280,-1496,-29,225,32
7605,-1416,256,-1472,-32,225,33
7610,-1416,288,-1464,-32,223,31
7615,-1416,288,-1464,-31,224,31
7620,-1416,296,-1480,-34,225,29
7625,-1432,288,-1480,-36,224,28
7630,-1416,304,-1488,-35,222,27
7635,-1408,272,-1504,-35,217,24
7640,-1424,272,-1520,-35,214,23
7645,-1432,288,-1512,-35,212,23
7650,-1416,304,-1504,-36,210,21
7655,-1400,288,-1512,-41,201,21
7660,-1416,304,-1512,-43,192,23
7665,-1432,296,-1520,-45,185,24
7670,-1432,304,-1512,-45,179,23
7675,-1424,288,-1536,-44,180,23
7680,-1400,296,-1544,-42,182,24
7685,-1432,312,-1536,-40,184,25
7690,-1408,320,-1520,-40,179,23
7695,-1384,304,-1552,-36,169,21
7700,-1432,304,-1560,-32,157,19
7705,-1416,320,-1584,-28,143,16
7710,-1400,304,-1560,-25,130,13
7715,-1392,328,-1600,-16,121,9
7720,-1384,280,-1552,-19,107,6
7725,-1408,320,-1560,-20,96,8
7730,-1408,328,-1544,-20,85,8
7735,-1392,296,-1560,-18,74,8
7740,-1400,296,-1560,-19,62,4
7745,-1416,296,-1536,-20,54,1
7750,-1400,312,-1504,-22,47,1
7755,-1392,312,-1528,-24,41,-1
7760,-1384,312,-1512,-23,35,-2
7765,-1400,312,-1496,-22,32,-4
7770,-1392,296,-1528,-19,29,-6
7775,-1384,312,-1488,-17,30,-8
7780,-1384,312,-1512,-16,28,-11
7785,-1392,288,-1504,-15,28,-12
7790,-1392,296,-1528,-17,25,-11
7795,-1392,280,-1512,-18,20,-13
7800,-1432,344,-1504,-16,17,-12
7805,-1392,312,-1496,-10,19,-23
7810,-1384,264,-1480,-20,17,-20
7815,-1392,272,-1480,-21,16,-14
7820,-1392,288,-1480,-24,15,-11
7825,-1416,288,-1480,-24,18,-10
7830,-1408,280,-1504,-22,21,-9
7835,-1400,240,-1464,-21,27,-11
7840,-1408,288,-1488,-20,31,-11
7845,-1392,272,-1504,-19,34,-9
7850,-1376,272,-1512,-19,37,-9
7855,-1408,288,-1480,-17,38,-7
7860,-1368,280,-1488,-16,41,-6
7865,-1392,296,-1480,-15,43,-6
7870,-1400,264,-1472,-15,47,-5
7875,-1408,288,-1472,-15,49,-6
7880,-1392,280,-1504,-15,54,-5
7885,-1400,280,-1464,-15,57,-2
7890,-1392,288,-1424,-14,59,-3
7895,-1400,296,-1480,-14,62,0
7900,-1440,296,-1464,-12,67,2
7905,-1416,280,-1480,-13,69,2
7910,-1392,288,-1480,-14,73,4
7915,-1416,288,-1496,-15,75,6
7920,-1384,272,-1448,-17,79,6
7925,-1392,304,-1464,-19,82,10
7930,-1416,288,-1488,-21,85,12
7935,-1384,288,-1472,-23,87,14
7940,-1400,288,-1488,-23,87,15
7945,-1408,296,-1472,-23,88,15
7950,-1400,296,-1464,-21,93,14
7955,-1408,296,-1456,-17,102,11
7960,-1416,312,-1496,-11,109,9
7965,-1376,296,-1488,-8,116,7
7970,-1400,312,-1488,-5,122,5
7975,-1400,296,-1480,-3,123,5
7980,-1384,280,-1488,-2,122,6
7985,-1424,296,-1456,1,120,4
7990,-1392,280,-1464,3,117,3
7995,-1400,288,-1504,3,112,3
8000,-1376,280,-1488,4,110,3
8005,-1392,280,-1480,1,105,2
8010,-1384,272,-1456,-3,105,5
8015,-1408,280,-1448,-9,107,8
8020,-1416,288,-1432,-11,114,12
8025,-1400,280,-1488,-6,122,11
8030,-1400,296,-1520,-1,129,11
8035,-1400,312,-1544,1,129,8
8040,-1408,304,-1560,0,128,5
8045,-1408,312,-1544,-5,123,5
8050,-1408,320,-1544,-11,120,6
8055,-1408,336,-1496,-16,114,7
8060,-1400,288,-1496,-19,108,7
8065,-1392,304,-1520,-21,104,8
8070,-1392,320,-1528,-23,104,10
8075,-1400,304,-1520,-23,102,11
8080,-1376,320,-1560,-18,97,9
8085,-1400,320,-1528,-13,90,6
8090,-1376,304,-1552,-8,82,4
8095,-1408,320,-1512,-5,76,3
8100,-1392,312,-1536,-5,71,3
8105,-1376,296,-1528,-6,67,-1
8110,-1408,312,-1544,-9,65,0
8115,-1392,296,-1512,-10,63,-2
8120,-1376,312,-1520,-11,61,-2
8125,-1376,304,-1528,-11,57,-2
8130,-1384,312,-1520,-9,53,-3
8135,-1384,312,-1512,-6,46,-5
8140,-1384,304,-1488,-3,42,-6
8145,-1368,320,-1496,-1,42,-8
8150,-1368,288,-1496,0,42,-9
8155,-1376,288,-1472,1,44,-11
8160,-1392,296,-1504,2,44,-11
8165,-1408,320,-1536,3,44,-12
8170,-1368,288,-1496,4,46,-11
8175,-1360,304,-1512,6,48,-13
8180,-1384,312,-1512,7,49,-16
8185,-1384,304,-1528,7,49,-17
8190,-1392,288,-1504,5,49,-18
8195,-1384,288,-1528,4,44,-16
8200,-1408,304,-1504,3,39,-18
8205,-1384,296,-1512,2,37,-18
8210,-1400,280,-1496,4,36,-17
8215,-1392,280,-1480,4,36,-18
8220,-1416,288,-1496,5,35,-17
8225,-1384,272,-1496,3,36,-18
8230,-1400,288,-1512,2,36,-19
8235,-1408,288,-1480,1,35,-18
8240,-1408,304,-1472,3,36,-17
8245,-1392,296,-1496,3,36,-18
8250,-1400,296,-1512,3,36,-18
8255,-1400,304,-1464,2,37,-16
8260,-1392,288,-1480,3,39,-14
8265,-1392,288,-1496,4,41,-13
8270,-1400,272,-1512,2,40,-11
8275,-1400,280,-1480,1,42,-11
8280,-1368,272,-1472,1,45,-10
8285,-1416,280,-1504,0,47,-10
8290,-1416,272,-1472,0,50,-9
8295,-1392,264,-1488,-2,50,-7
8300,-1384,272,-1488,-4,49,-4
8305,-1400,288,-1496,-6,48,-4
8310,-1400,264,-1472,-7,46,-2
8315,-1392,280,-1472,-9,46,1
8320,-1408,280,-1480,-9,48,0
8325,-1376,264,-1496,-9,51,1
8330,-1400,296,-1520,-9,52,2
8335,-1400,296,-1496,-10,52,2
8340,-1400,296,-1472,-11,53,3
8345,-1408,304,-1472,-12,54,3
8350,-1408,288,-1448,-12,55,4
8355,-1392,272,-1480,-14,57,3
8360,-1392,304,-1488,-16,61,4
8365,-1408,280,-1480,-15,63,5
8370,-1408,280,-1496,-17,67,5
8375,-1400,280,-1480,-19,69,5
8380,-1368,248,-1432,-21,70,6
8385,-1408,280,-1472,-23,71,9
8390,-1376,272,-1480,-24,71,10
8395,-1408,280,-1496,-23,73,12
8400,-1392,272,-1464,-23,76,12
8405,-1400,304,-1520,-24,81,13
8410,-1408,280,-1488,-23,84,13
8415,-1400,288,-1496,-25,89,11
8420,-1384,280,-1496,-25,91,11
8425,-1408,288,-1504,-27,95,12
8430,-1384,336,-1496,-28,97,12
8435,-1376,280,-1496,-27,98,11
8440,-1400,304,-1488,-26,103,11
8445,-1392,272,-1512,-24,105,8
8450,-1408,312,-1496,-18,105,7
8455,-1360,304,-1504,-15,104,6
8460,-1400,288,-1536,-12,104,4
8465,-1384,288,-1480,-9,102,4
8470,-1392,288,-1496,-8,102,3
8475,-1360,304,-1504,-6,102,2
8480,-1392,304,-1520,-6,99,3
8485,-1400,304,-1496,-7,94,3
8490,-1424,312,-1536,-9,92,4
8495,-1384,304,-1488,-12,89,2
8500,-1416,312,-1512,-13,87,2
8505,-1400,296,-1552,-13,86,2
8510,-1376,296,-1520,-15,86,2
8515,-1400,304,-1512,-15,85,2
8520,-1400,312,-1496,-15,86,3
8525,-1368,296,-1464,-13,88,0
8530,-1384,288,-1536,-11,88,0
8535,-1408,288,-1536,-11,88,1
8540,-1392,304,-1528,-11,85,0
8545,-1408,304,-1520,-11,83,1
8550,-1392,264,-1504,-11,79,0
8555,-1392,312,-1536,-12,76,0
8560,-1384,288,-1512,-11,72,-1
8565,-1392,288,-1512,-10,70,-1
8570,-1384,296,-1512,-8,70,-1
8575,-1416,320,-1504,-8,69,-2
8580,-1384,296,-1496,-8,70,-4
8585,-1392,288,-1512,-9,70,-5
8590,-1408,336,-1512,-10,69,-4
8595,-1424,312,-1512,-12,67,-4
8600,-1408,304,-1528,-12,68,-3
8605,-1392,304,-1520,-12,64,-3
8610,-1408,296,-1528,-13,60,-5
8615,-1408,304,-1504,-13,60,-4
8620,-1384,304,-1520,-14,59,-4
8625,-1376,280,-1520,-14,59,-3
8630,-1368,288,-1472,-13,61,-4
8635,-1384,272,-1504,-12,63,-5
8640,-1400,296,-1504,-9,62,-8
8645,-1384,256,-1496,-9,62,-7
8650,-1392,296,-1512,-8,62,-8
8655,-1384,280,-1496,-8,63,-7
8660,-1392,296,-1480,-8,63,-8
8665,-1376,280,-1472,-6,63,-9
8670,-1384,296,-1488,-6,65,-8
8675,-1408,312,-1464,-7,64,-7
8680,-1384,264,-1480,-5,65,-8
8685,-1384,280,-1544,-6,63,-8
8690,-1408,320,-1520,-5,63,-7
8695,-1392,296,-1504,-6,65,-7
8700,-1392,304,-1504,-4,68,-7
8705,-1392,288,-1488,-4,70,-6
8710,-1400,360,-1512,-6,70,-6
8715,-1400,280,-1512,-6,70,-5
8720,-1408,304,-1512,-6,68,-6
8725,-1392,272,-1496,-8,68,-6
8730,-1384,288,-1512,-9,65,-6
8735,-1400,288,-1520,-8,64,-7
8740,-1392,296,-1472,-5,65,-6
8745,-1360,280,-1488,-2,67,-6
8750,-1376,264,-1496,-1,68,-8
8755,-1400,248,-1456,-4,71,-7
8760,-1384,280,-1504,-8,71,-3
8765,-1376,256,-1472,-10,75,-1
8770,-1376,288,-1464,-10,79,0
8775,-1400,296,-1496,-5,83,1
8780,-1392,304,-1536,-3,84,1
8785,-1400,312,-1544,0,83,1
8790,-1416,296,-1504,-3,81,0
8795,-1400,288,-1504,-4,81,0
8800,-1408,296,-1504,-8,80,0
8805,-1392,280,-1504,-10,78,-1
8810,-1392,296,-1496,-11,76,0
8815,-1416,280,-1504,-12,77,1
8820,-1400,304,-1528,-15,79,2
8825,-1400,280,-1480,-15,80,3
8830,-1376,280,-1512,-13,82,4
8835,-1392,288,-1512,-12,83,3
8840,-1392,296,-1496,-11,83,4
8845,-1384,272,-1496,-11,84,2
8850,-1400,280,-1504,-11,85,3
8855,-1400,288,-1504,-13,85,4
8860,-1408,296,-1488,-13,84,5
8865,-1400,280,-1504,-13,82,4
8870,-1384,296,-1472,-12,82,4
8875,-1368,296,-1496,-10,83,5
8880,-1384,296,-1504,-8,87,4
8885,-1400,296,-1504,-7,90,5
8890,-1376,288,-1512,-6,93,4
8895,-1392,312,-1504,-6,95,4
8900,-1392,304,-1480,-6,97,3
8905,-1368,280,-1512,-6,99,5
8910,-1408,296,-1512,-7,99,5
8915,-1432,304,-1496,-7,102,9
8920,-1360,296,-1528,-6,109,14
8925,-1344,296,-1456,-6,108,12
8930,-1368,280,-1504,-8,105,10
8935,-1384,304,-1488,-10,101,9
8940,-1384,288,-1488,-12,99,8
8945,-1384,288,-1512,-14,96,7
8950,-1376,296,-1488,-15,94,7
8955,-1368,304,-1496,-15,93,8
8960,-1376,304,-1488,-14,92,7
8965,-1384,296,-1560,-13,92,7
8970,-1392,296,-1520,-13,91,6
8975,-1376,296,-1512,-14,93,6
8980,-1392,296,-1512,-15,97,7
8985,-1392,304,-1504,-17,97,7
8990,-1376,304,-1512,-18,98,7
8995,-1400,304,-1496,-17,100,9
9000,-1384,304,-1512,-15,102,8
9005,-1376,280,-1528,-13,100,7
9010,-1392,288,-1520,-12,97,7
9015,-1392,296,-1496,-13,92,6
9020,-1368,312,-1520,-12,87,7
9025,-1376,296,-1504,-12,81,5
9030,-1384,312,-1512,-9,78,3
9035,-1392,320,-1560,-9,78,2
9040,-1360,288,-1512,-8,76,1
9045,-1384,320,-1520,-8,74,1
9050,-1384,288,-1536,-9,73,2
9055,-1368,296,-1504,-11,72,2
9060,-1392,304,-1512,-12,71,2
9065,-1376,304,-1536,-13,70,2
9070,-1384,312,-1528,-13,70,1
9075,-1384,304,-1512,-12,69,-1
9080,-1392,304,-1520,-12,66,-2
9085,-1400,304,-1488,-12,65,-2
9090,-1384,304,-1536,-10,64,-3
9095,-1368,304,-1504,-9,66,-3
9100,-1352,304,-1504,-8,67,-4
9105,-1368,304,-1496,-7,67,-7
9110,-1368,312,-1472,-5,65,-9
9115,-1376,280,-1520,-6,64,-9
9120,-1384,296,-1528,-6,62,-9
9125,-1376,296,-1520,-6,63,-9
9130,-1384,296,-1512,-5,61,-10
9135,-1384,296,-1520,-4,62,-11
9140,-1376,288,-1536,-4,62,-12
9145,-1360,296,-1488,-4,64,-12
9150,-1392,312,-1480,-4,66,-11
9155,-1352,304,-1512,-6,66,-10
9160,-1392,312,-1512,-9,67,-9
9165,-1392,304,-1512,-11,71,-9
9170,-1376,280,-1496,-12,72,-8
9175,-1376,296,-1504,-12,76,-8
9180,-1392,296,-1504,-12,80,-7
9185,-1384,272,-1504,-11,82,-7
9190,-1360,304,-1496,-11,84,-7
9195,-1352,312,-1528,-11,82,-4
9200,-1408,320,-1488,-11,83,-1
9205,-1392,264,-1496,-10,84,-4
9210,-1384,280,-1504,-6,88,-4
9215,-1376,272,-1504,-5,92,-3
9220,-1352,280,-1488,-7,95,-1
9225,-1392,320,-1504,-8,98,-2
9230,-1392,296,-1488,-10,100,0
9235,-1400,272,-1496,-11,101,0
9240,-1384,280,-1512,-8,104,1
9245,-1304,296,-1504,-9,105,3
9250,-1384,304,-1512,-12,107,6
9255,-1384,296,-1496,-12,108,7
9260,-1392,256,-1488,-12,110,6
9265,-1392,288,-1488,-10,116,4
9270,-1344,304,-1528,-10,123,7
9275,-1352,304,-1512,-8,129,8
9280,-1384,296,-1480,-6,130,7
9285,-1384,264,-1520,1,131,8
9290,-1416,296,-1496,5,129,11
9295,-1416,304,-1512,5,134,28
9300,-1328,272,-1504,3,140,32
9305,-1344,296,-1520,6,131,28
9310,-1360,296,-1536,4,123,25
9315,-1360,304,-1520,0,120,27
9320,-1368,264,-1528,2,120,27
9325,-1376,288,-1480,6,122,30
9330,-1344,256,-1520,7,127,37
9335,-1392,312,-1560,10,129,39
9340,-1384,288,-1568,10,121,40
9345,-1336,312,-1536,10,120,46
9350,-1352,304,-1536,7,117,45
9355,-1336,264,-1512,5,109,43
9360,-1368,280,-1512,4,106,37
9365,-1360,312,-1544,5,103,37
9370,-1400,320,-1552,2,100,43
9375,-1360,312,-1536,1,100,48
9380,-1312,296,-1512,-5,99,56
9385,-1376,264,-1528,-4,96,52
9390,-1416,320,-1568,-9,92,45
9395,-1368,336,-1528,-11,86,44
9400,-1400,264,-1520,-12,88,48
9405,-1384,312,-1568,-6,91,55
9410,-1384,336,-1544,-1,92,54
9415,-1336,304,-1544,0,88,57
9420,-1304,280,-1520,3,90,47
9425,-1360,328,-1576,1,83,40
9430,-1400,336,-1560,-3,74,33
9435,-1400,304,-1512,-7,70,29
9440,-1352,296,-1504,-10,70,25
9445,-1360,304,-1528,-17,71,22
9450,-1376,304,-1528,-22,69,21
9455,-1368,304,-1528,-21,67,21
9460,-1376,296,-1496,-21,66,19
9465,-1376,296,-1528,-22,66,19
9470,-1392,248,-1504,-23,71,17
9475,-1344,304,-1504,-18,74,17
9480,-1352,328,-1520,-11,78,15
9485,-1336,296,-1520,-2,79,12
9490,-1368,336,-1544,0,75,10
9495,-1376,328,-1552,3,76,12
9500,-1352,328,-1528,1,75,13
9505,-1376,312,-1520,-3,71,10
9510,-1352,296,-1504,-9,70,9
9515,-1360,320,-1512,-13,67,7
9520,-1352,304,-1544,-16,68,5
9525,-1368,288,-1512,-18,68,4
9530,-1384,320,-1528,-17,67,3
9535,-1368,320,-1552,-13,68,4
9540,-1376,312,-1528,-11,71,3
9545,-1384,312,-1552,-6,71,1
9550,-1352,312,-1552,-5,73,-1
9555,-1376,312,-1536,-3,72,-2
9560,-1360,312,-1560,-4,72,-3
9565,-1352,304,-1520,-5,69,-3
9570,-1376,320,-1536,-6,68,-2
9575,-1376,272,-1512,-7,66,-2
9580,-1360,296,-1528,-5,61,-1
9585,-1344,312,-1536,-4,60,0
9590,-1344,312,-1536,-5,62,0
9595,-1352,328,-1520,-4,61,0
9600,-1376,312,-1544,-3,61,-1
9605,-1328,296,-1528,-3,61,-2
9610,-1344,312,-1552,-1,59,-1
9615,-1352,296,-1520,-1,55,-1
9620,-1344,296,-1496,0,51,1
9625,-1336,272,-1520,4,50,1
9630,-1360,304,-1544,3,52,1
9635,-1368,296,-1504,2,53,2
9640,-1368,304,-1536,1,52,3
9645,-1360,312,-1528,1,51,4
9650,-1352,272,-1512,0,50,4
9655,-1376,280,-1528,-1,50,8
9660,-1360,288,-1496,0,51,9
9665,-1360,312,-1560,-2,49,13
9670,-1360,296,-1536,-5,49,13
9675,-1344,296,-1528,-6,50,12
9680,-1360,312,-1504,-6,53,12
9685,-1360,296,-1472,-7,53,11
9690,-1376,280,-1528,-9,56,12
9695,-1360,296,-1528,-12,57,14
9700,-1368,320,-1520,-12,60,16
9705,-1376,320,-1528,-9,62,16
9710,-1384,320,-1536,-7,62,12
9715,-1376,304,-1528,-6,64,11
9720,-1344,304,-1520,-4,65,9
9725,-1368,312,-1512,-2,68,8
9730,-1360,288,-1520,-1,70,7
9735,-1392,296,-1520,-2,70,8
9740,-1376,296,-1520,-4,73,7
9745,-1376,296,-1496,-6,78,8
9750,-1368,312,-1528,-7,81,6
9755,-1352,304,-1512,-8,83,7
9760,-1360,312,-1504,-10,86,8
9765,-1376,304,-1488,-10,86,8
9770,-1360,304,-1504,-11,86,8
9775,-1376,288,-1504,-11,85,9
9780,-1352,304,-1496,-12,86,10
9785,-1376,328,-1544,-9,86,9
9790,-1360,320,-1536,-9,87,9
9795,-1368,304,-1552,-8,88,9
9800,-1336,208,-1520,-8,86,9
9805,-1320,304,-1544,-8,86,9
9810,-1352,288,-1504,-10,85,10
9815,-1360,304,-1536,-11,88,9
9820,-1352,296,-1512,-12,90,11
9825,-1368,304,-1512,-14,93,11
9830,-1368,304,-1536,-13,93,9
9835,-1376,288,-1520,-12,92,8
9840,-1344,296,-1552,-12,89,6
9845,-1328,304,-1528,-13,84,7
9850,-1344,304,-1576,-14,79,7
9855,-1352,304,-1520,-16,72,7
9860,-1360,304,-1560,-17,70,7
9865,-1392,336,-1544,-16,69,5
9870,-1376,320,-1520,-16,67,5
9875,-1344,328,-1560,-16,62,5
9880,-1360,304,-1544,-15,61,5
9885,-1344,320,-1528,-15,58,4
9890,-1336,304,-1520,-16,57,2
9895,-1376,296,-1536,-15,56,2
9900,-1360,312,-1528,-14,58,1
9905,-1360,304,-1528,-14,56,1
9910,-1344,304,-1520,-15,54,1
9915,-1360,344,-1536,-14,51,2
9920,-1352,312,-1512,-13,46,1
9925,-1368,320,-1544,-12,44,0
9930,-1360,304,-1528,-10,45,0
9935,-1368,328,-1520,-7,46,-3
9940,-1352,304,-1512,-6,49,-1
9945,-1360,312,-1536,-4,52,-2
9950,-1352,312,-1520,-5,55,1
9955,-1368,320,-1512,-2,59,-1
9960,-1384,320,-1528,-5,63,-1
9965,-1368,312,-1488,-6,68,-3
9970,-1360,296,-1504,-6,73,-5
9975,-1384,312,-1520,-6,77,-6
9980,-1368,312,-1520,-5,80,-3
9985,-1320,296,-1504,-2,81,-4
9990,-1352,288,-1536,0,84,-4
9995,-1368,312,-1512,2,89,-3
10000,-1344,320,-1520,5,94,-5
10005,-1336,288,-1504,5,97,-4
10010,-1368,312,-1520,4,100,-4
10015,-1392,328,-1496,3,103,-4
10020,-1344,304,-1504,2,107,-3
10025,-1344,272,-1496,-1,111,-1
10030,-1368,312,-1552,-4,116,0
10035,-1336,312,-1504,-5,121,1
10040,-1336,304,-1496,-7,123,2
10045,-1344,304,-1536,-10,128,2
10050,-1344,312,-1528,-10,131,4
10055,-1360,312,-1536,-10,133,4
10060,-1344,296,-1528,-7,136,4
10065,-1344,288,-1544,-5,139,5
10070,-1352,296,-1528,-3,140,5
10075,-1352,304,-1552,-2,139,7
10080,-1360,272,-1512,-2,140,6
10085,-1360,288,-1520,-4,139,7
10090,-1344,288,-1528,-7,139,10
10095,-1352,272,-1544,-11,137,12
10100,-1432,256,-1504,-12,134,18
10105,-1352,288,-1496,-12,148,40
10110,-1312,312,-1504,-11,158,52
10115,-1328,304,-1512,-12,153,46
10120,-1344,296,-1536,-16,142,39
10125,-1312,264,-1544,-20,137,34
10130,-1328,288,-1520,-22,136,33
10135,-1336,312,-1552,-21,135,34
10140,-1368,328,-1552,-18,135,35
10145,-1376,336,-1568,-18,136,39
10150,-1336,312,-1592,-18,137,44
10155,-1376,312,-1600,-20,143,51
10160,-1352,304,-1544,-19,145,59
10165,-1304,312,-1560,-23,138,58
10170,-1304,296,-1552,-29,125,49
10175,-1336,336,-1592,-34,116,44
10180,-1344,336,-1552,-40,109,39
10185,-1336,336,-1560,-40,106,35
10190,-1336,328,-1560,-37,105,33
10195,-1344,336,-1544,-34,101,31
10200,-1336,344,-1568,-30,101,28
10205,-1320,320,-1600,-29,99,27
10210,-1336,328,-1552,-29,92,26
10215,-1352,328,-1576,-29,86,24
10220,-1336,344,-1560,-29,84,23
10225,-1328,328,-1544,-29,83,23
10230,-1320,336,-1552,-28,83,21
10235,-1344,336,-1512,-27,85,18
10240,-1336,320,-1512,-24,86,16
10245,-1312,336,-1544,-23,87,13
10250,-1328,336,-1552,-22,87,12
10255,-1352,320,-1544,-21,87,8
10260,-1336,320,-1560,-19,88,7
10265,-1304,304,-1568,-16,88,5
10270,-1320,336,-1544,-15,89,4
10275,-1312,336,-1576,-13,89,2
10280,-1320,320,-1568,-12,89,1
10285,-1320,312,-1560,-12,90,0
10290,-1328,344,-1568,-11,90,-1
10295,-1344,344,-1544,-10,86,-4
10300,-1328,320,-1576,-9,87,-5
10305,-1312,328,-1512,-9,87,-5
10310,-1320,328,-1536,-9,89,-6
10315,-1336,328,-1528,-8,93,-7
10320,-1352,352,-1544,-8,98,-6
10325,-1320,328,-1568,-9,99,-6
10330,-1352,320,-1560,-12,102,-7
10335,-1344,312,-1536,-13,105,-8
10340,-1344,312,-1544,-14,106,-6
10345,-1320,344,-1560,-15,105,-5
10350,-1328,320,-1560,-16,103,-5
10355,-1320,320,-1560,-16,104,-2
10360,-1328,304,-1552,-15,103,-4
10365,-1320,328,-1560,-15,104,-2
10370,-1320,296,-1520,-12,106,-3
10375,-1312,304,-1528,-11,107,-3
10380,-1320,320,-1536,-11,109,-2
10385,-1336,320,-1528,-11,108,0
10390,-1288,328,-1544,-10,109,1
10395,-1328,320,-1544,-13,107,2
10400,-1328,296,-1544,-17,107,4
10405,-1312,304,-1544,-17,107,4
10410,-1320,312,-1552,-21,108,6
10415,-1320,312,-1568,-24,109,9
10420,-1336,320,-1544,-24,107,9
10425,-1328,312,-1568,-23,108,11
10430,-1312,320,-1568,-24,107,11
10435,-1328,312,-1592,-24,106,13
10440,-1328,312,-1576,-25,105,13
10445,-1304,320,-1568,-25,101,15
10450,-1352,328,-1544,-27,101,17
10455,-1312,328,-1552,-29,100,17
10460,-1280,312,-1512,-31,102,18
10465,-1336,280,-1536,-33,105,16
10470,-1296,424,-1576,-32,104,18
10475,-1288,248,-1520,-34,103,19
10480,-1368,352,-1568,-34,102,18
10485,-1296,392,-1472,-34,103,20
10490,-1288,376,-1440,-32,104,18
10495,-1336,200,-1496,-31,105,20
10500,-1280,320,-1640,-34,104,21
10505,-1312,336,-1560,-34,109,25
10510,-1312,320,-1560,-33,107,22
10515,-1304,360,-1592,-32,107,22
10520,-1312,320,-1560,-33,107,21
10525,-1296,288,-1488,-33,109,22
10530,-1384,360,-1472,-33,111,22
10535,-1264,344,-1576,-29,112,21
10540,-1320,368,-1560,-26,112,19
10545,-1320,352,-1552,-24,112,19
10550,-1312,336,-1544,-24,109,18
10555,-1304,320,-1520,-24,109,19
10560,-1328,312,-1568,-23,109,19
10565,-1272,344,-1576,-23,111,19
10570,-1256,336,-1576,-25,110,17
10575,-1272,304,-1520,-25,112,16
10580,-1272,320,-1576,-25,113,18
10585,-1304,336,-1576,-26,113,17
10590,-1304,344,-1568,-24,112,16
10595,-1312,360,-1592,-22,109,13
10600,-1360,328,-1552,-19,105,12
10605,-1256,256,-1536,-16,105,11
10610,-1376,272,-1520,-12,107,10
10615,-1312,328,-1472,-10,107,7
10620,-1280,304,-1576,-11,105,6
10625,-1264,376,-1600,-11,101,5
10630,-1352,296,-1624,-14,101,6
10635,-1312,352,-1648,-17,98,7
10640,-1288,352,-1504,-19,99,8
10645,-1280,384,-1600,-22,97,7
10650,-1144,376,-1592,-21,94,7
10655,-1288,344,-1584,-20,93,9
10660,-1320,344,-1552,-18,91,9
10665,-1272,312,-1560,-18,90,8
10670,-1304,312,-1560,-18,92,9
10675,-1296,320,-1576,-20,95,9
10680,-1352,336,-1584,-20,98,9
10685,-1320,360,-1592,-18,99,10
10690,-1280,312,-1488,-21,100,9
10695,-1208,304,-1592,-22,101,9
10700,-1216,496,-1560,-21,102,9
10705,-1200,336,-1552,-19,104,9
10710,-1224,312,-1720,-17,108,10
10715,-1272,368,-1488,-17,113,10
10720,-1264,400,-1368,-15,117,12
10725,-1360,352,-1576,-16,121,13
10730,-1304,336,-1552,-18,124,13
10735,-1304,336,-1584,-19,129,13
10740,-1280,344,-1576,-18,128,12
10745,-1312,352,-1600,-15,127,13
10750,-1304,344,-1632,-14,122,12
10755,-1304,352,-1600,-13,115,11
10760,-1272,344,-1616,-11,108,9
10765,-1288,344,-1608,-10,103,9
10770,-1328,344,-1584,-10,100,8
10775,-1304,344,-1616,-10,96,7
10780,-1312,376,-1632,-10,93,7
10785,-1320,312,-1592,-10,89,6
10790,-1248,320,-1464,-10,89,8
10795,-1272,392,-1616,-13,86,9
10800,-1296,328,-1472,-16,83,11
10805,-1296,320,-1568,-18,83,10
10810,-1296,352,-1584,-17,82,11
10815,-1288,336,-1608,-15,82,12
10820,-1288,328,-1576,-12,83,12
10825,-1288,312,-1696,-12,85,12
10830,-1400,288,-1560,-12,86,12
10835,-1288,320,-1600,-18,85,12
10840,-1256,296,-1648,-24,84,11
10845,-1280,248,-1576,-27,82,11
10850,-1264,224,-1568,-29,81,10
10855,-1296,328,-1552,-32,81,13
10860,-1264,320,-1576,-32,82,15
10865,-1304,320,-1600,-31,81,12
10870,-1272,344,-1608,-28,79,11
10875,-1320,288,-1528,-26,78,11
10880,-1280,360,-1576,-20,78,10
10885,-1304,368,-1584,-20,76,8
10890,-1296,344,-1608,-19,76,8
10895,-1296,352,-1616,-19,73,8
10900,-1288,352,-1520,-19,72,7
10905,-1328,376,-1552,-20,70,8
10910,-1280,352,-1600,-21,70,6
10915,-1288,344,-1576,-20,70,6
10920,-1312,320,-1616,-18,71,6
10925,-1280,368,-1640,-18,71,2
10930,-1224,304,-1536,-16,72,3
10935,-1288,360,-1600,-15,70,3
10940,-1288,344,-1584,-16,70,2
10945,-1280,352,-1568,-16,70,1
10950,-1280,320,-1584,-17,71,1
10955,-1280,288,-1656,-16,71,0
10960,-1288,344,-1576,-13,71,0
10965,-1296,344,-1560,-10,73,-2
10970,-1280,336,-1608,-10,75,-3
10975,-1280,336,-1584,-8,74,-5
10980,-1280,328,-1624,-7,73,-3
10985,-1288,352,-1584,-7,73,-3
10990,-1312,344,-1560,-4,75,-2
10995,-1272,344,-1544,-4,76,-2
11000,-1384,328,-1536,-3,79,-2
11005,-1264,328,-1568,-4,79,-1
11010,-1304,360,-1592,-4,82,-1
11015,-1272,368,-1584,-6,82,-1
11020,-1272,336,-1584,-9,81,0
11025,-1288,368,-1648,-11,82,1
11030,-1288,320,-1568,-11,81,1
11035,-1280,336,-1544,-10,83,-2
11040,-1280,368,-1576,-7,84,-1
11045,-1272,352,-1592,-6,82,-1
11050,-1272,352,-1600,-5,80,0
11055,-1288,344,-1592,-3,77,0
11060,-1272,304,-1560,-2,75,-2
11065,-1256,344,-1600,1,75,0
11070,-1280,328,-1576,0,73,-1
11075,-1264,336,-1584,-2,73,-2
11080,-1288,352,-1576,-5,74,-2
11085,-1288,352,-1552,-7,75,0
11090,-1280,336,-1584,-9,76,1
11095,-1280,320,-1576,-12,77,2
11100,-1280,360,-1584,-14,78,2
11105,-1288,312,-1560,-13,79,1
11110,-1288,336,-1584,-14,80,1
11115,-1296,360,-1600,-13,81,2
11120,-1272,352,-1576,-12,81,1
11125,-1296,360,-1600,-11,81,2
11130,-1288,336,-1600,-10,81,0
11135,-1280,360,-1592,-10,82,2
11140,-1288,336,-1616,-12,79,2
11145,-1280,352,-1584,-13,78,2
11150,-1272,352,-1544,-14,76,1
11155,-1280,344,-1576,-14,76,1
11160,-1288,344,-1584,-13,77,0
11165,-1280,352,-1592,-12,80,1
11170,-1296,320,-1584,-11,83,-1
11175,-1296,360,-1616,-9,82,0
11180,-1272,344,-1568,-8,81,-1
11185,-1272,328,-1608,-6,82,-3
11190,-1088,136,-1632,0,92,-2
11195,-1136,432,-1576,33,149,11
11200,-1312,320,-1584,11,111,1
11205,-1272,344,-1624,7,95,-1
11210,-1264,344,-1584,2,88,-2
11215,-1272,336,-1592,0,85,-4
11220,-1272,336,-1600,-1,85,-5
11225,-1264,352,-1544,-3,85,-6
11230,-1272,336,-1584,-4,87,-7
11235,-1280,368,-1592,-2,86,-6
11240,-1280,360,-1584,-3,86,-6
11245,-1272,352,-1600,-4,84,-5
11250,-1296,368,-1616,-5,83,-5
11255,-1272,360,-1584,-6,81,-6
11260,-1272,344,-1600,-5,79,-6
11265,-1272,352,-1592,-3,80,-5
11270,-1272,344,-1568,-2,80,-5
11275,-1296,336,-1552,-1,82,-6
11280,-1288,336,-1568,0,83,-6
11285,-1272,360,-1576,-1,85,-6
11290,-1272,344,-1568,1,86,-6
11295,-1272,352,-1568,0,89,-6
11300,-1272,344,-1568,0,88,-7
11305,-1288,336,-1592,1,89,-7
11310,-1248,312,-1600,0,88,-7
11315,-1280,352,-1616,-1,87,-6
11320,-1248,312,-1576,-2,85,-7
11325,-1280,312,-1464,1,84,-7
11330,-1280,344,-1576,0,82,-7
11335,-1288,336,-1608,1,81,-7
11340,-1272,328,-1592,0,78,-6
11345,-1304,352,-1592,-1,76,-7
11350,-1304,344,-1608,-1,75,-5
11355,-1264,352,-1584,-3,73,-6
11360,-1272,320,-1600,-4,70,-5
11365,-1288,336,-1608,-4,69,-5
11370,-1272,344,-1576,-5,68,-5
11375,-1280,344,-1576,-6,66,-5
11380,-1256,328,-1608,-6,65,-6
11385,-1288,328,-1624,-4,66,-4
11390,-1280,360,-1592,-5,65,-3
11395,-1288,360,-1584,-6,66,-3
11400,-1288,320,-1592,-4,64,-3
11405,-1296,344,-1544,-5,66,-4
11410,-1272,320,-1584,-6,67,-3
11415,-1272,328,-1584,-10,69,-3
11420,-1264,344,-1568,-10,71,-4
11425,-1280,344,-1576,-12,73,-4
11430,-1256,344,-1600,-12,75,-5
11435,-1280,336,-1592,-11,77,-5
11440,-1288,344,-1600,-9,79,-6
11445,-1288,336,-1592,-5,82,-7
11450,-1280,336,-1608,-3,80,-7
11455,-1248,336,-1600,-4,79,-7
11460,-1288,320,-1624,-3,76,-8
11465,-1288,344,-1584,-5,71,-7
11470,-1280,336,-1560,-6,69,-6
11475,-1264,344,-1552,-7,66,-5
11480,-1288,336,-1616,-8,67,-6
11485,-1272,344,-1584,-6,67,-5
11490,-1288,320,-1576,-7,66,-3
11495,-1280,336,-1584,-7,64,-4
11500,-1288,328,-1592,-8,64,-2
11505,-1280,320,-1576,-10,65,-3
11510,-1280,320,-1568,-11,68,0
11515,-1280,344,-1584,-8,72,0
11520,-1272,312,-1568,-3,75,0
11525,-1288,344,-1624,0,75,1
11530,-1272,368,-1584,-1,74,-2
11535,-1296,344,-1608,-1,75,0
11540,-1328,344,-1568,-3,73,1
11545,-1272,352,-1584,-6,73,5
11550,-1272,328,-1584,-7,75,8
11555,-1264,352,-1600,-9,75,9
11560,-1280,352,-1568,-12,71,7
11565,-1256,328,-1584,-12,67,5
11570,-1272,344,-1568,-9,66,2
11575,-1264,304,-1568,-6,68,1
11580,-1272,344,-1600,-4,70,2
11585,-1264,344,-1592,-3,71,0
11590,-1288,360,-1576,-3,71,-1
11595,-1272,344,-1584,-5,70,0
11600,-1272,344,-1608,-6,72,-1
11605,-1264,320,-1592,-7,72,1
11610,-1240,360,-1592,-7,73,0
11615,-1256,304,-1600,-6,74,1
11620,-1288,344,-1600,-6,75,1
11625,-1280,328,-1592,-5,75,1
11630,-1280,344,-1568,-7,76,1
11635,-1264,352,-1568,-7,79,1
11640,-1288,344,-1584,-6,79,2
11645,-1280,336,-1592,-5,80,3
11650,-1280,360,-1576,-6,81,3
11655,-1264,344,-1592,-5,79,2
11660,-1256,328,-1584,-5,80,2
11665,-1280,328,-1576,-5,82,2
11670,-1264,344,-1576,-6,84,0
11675,-1248,328,-1584,-5,85,-1
11680,-1272,344,-1600,-3,89,-3
11685,-1280,320,-1568,-1,89,-6
11690,-1288,352,-1592,2,87,-5
11695,-1272,312,-1584,4,84,-5
11700,-1264,328,-1616,5,84,-7
11705,-1248,328,-1576,6,82,-8
11710,-1280,344,-1600,6,83,-7
11715,-1280,320,-1584,6,82,-7
11720,-1264,328,-1584,4,81,-6
11725,-1248,328,-1600,2,79,-8
11730,-1264,312,-1584,1,77,-7
11735,-1272,344,-1608,-2,75,-7
11740,-1272,328,-1608,-1,73,-9
11745,-1272,320,-1584,1,74,-9
11750,-1256,304,-1616,0,73,-9
11755,-1296,296,-1544,1,72,-8
11760,-1272,320,-1624,3,72,-10
11765,-1280,344,-1600,4,71,-10
11770,-1256,312,-1608,3,72,-10
11775,-1272,336,-1584,3,71,-9
11780,-1288,328,-1568,3,70,-9
11785,-1264,328,-1608,0,69,-8
11790,-1264,336,-1616,-2,68,-8
11795,-1288,352,-1608,-4,68,-7
11800,-1272,320,-1592,-4,67,-7
11805,-1280,320,-1560,-5,65,-8
11810,-1288,328,-1592,-7,63,-5
11815,-1288,336,-1584,-6,61,-5
11820,-1272,320,-1608,-8,61,-4
11825,-1272,320,-1592,-9,60,-2
11830,-1256,352,-1592,-9,59,-3
11835,-1296,352,-1624,-10,60,-4
11840,-1280,328,-1584,-10,61,-2
11845,-1256,320,-1592,-11,64,0
11850,-1272,328,-1608,-13,63,0
11855,-1288,336,-1608,-11,64,1
11860,-1288,328,-1600,-12,66,1
11865,-1272,336,-1592,-12,68,2
11870,-1200,352,-1560,-11,69,3
11875,-1288,360,-1584,-12,71,6
11880,-1280,320,-1632,-10,72,7
11885,-1280,304,-1592,-11,73,8
11890,-1264,344,-1600,-10,71,8
11895,-1280,344,-1592,-9,68,6
11900,-1272,312,-1576,-7,64,2
11905,-1272,320,-1584,-8,63,2
11910,-1264,296,-1584,-8,61,1
11915,-1264,336,-1600,-7,60,-2
11920,-1264,336,-1600,-6,61,-1
11925,-1288,328,-1600,-7,61,-2
11930,-1288,344,-1592,-5,61,-4
11935,-1272,344,-1576,-7,62,-4
11940,-1288,320,-1576,-7,66,-3
11945,-1280,344,-1576,-7,67,-3
11950,-1264,344,-1576,-7,71,-5
11955,-1264,328,-1600,-4,75,-5
11960,-1280,344,-1592,-5,75,-5
11965,-1256,336,-1600,-5,77,-6
11970,-1256,336,-1584,-3,79,-7
11975,-1280,336,-1560,-4,82,-9
11980,-1264,336,-1608,-5,82,-8
11985,-1288,336,-1584,-3,79,-6
11990,-1272,320,-1576,-2,78,-7
11995,-1280,344,-1600,-2,76,-7
12000,-1264,344,-1600,-1,76,-6
12005,-1280,344,-1592,-2,75,-6
12010,-1264,328,-1632,-2,76,-5
12015,-1256,312,-1608,-3,78,-5
12020,-1272,328,-1576,-4,78,-5
12025,-1264,336,-1576,-4,80,-3
12030,-1264,320,-1576,-5,83,-2
12035,-1272,360,-1592,-6,84,-3
12040,-1272,328,-1552,-6,86,-4
12045,-1288,320,-1608,-3,89,-5
12050,-1312,336,-1592,1,90,-5
12055,-1272,320,-1576,3,92,-7
12060,-1288,336,-1608,6,94,-6
12065,-1288,296,-1592,8,99,-3
12070,-1280,304,-1576,7,105,3
12075,-1288,304,-1592,5,108,7
12080,-1296,336,-1560,3,110,12
12085,-1296,352,-1600,-1,109,13
12090,-1264,296,-1600,-5,105,12
12095,-1272,336,-1592,-10,104,14
12100,-1264,344,-1624,-15,100,16
12105,-1280,352,-1616,-17,97,16
12110,-1256,336,-1608,-18,94,17
12115,-1256,312,-1624,-20,92,17
12120,-1272,320,-1608,-19,90,19
12125,-1256,320,-1632,-17,91,18
12130,-1264,320,-1616,-18,91,17
12135,-1264,296,-1544,-17,90,16
12140,-1264,328,-1608,-15,92,15
12145,-1280,328,-1616,-11,91,15
12150,-1280,344,-1624,-7,90,13
12155,-1256,320,-1600,-6,87,15
12160,-1264,336,-1592,-3,84,17
12165,-1248,320,-1624,2,84,20
12170,-1248,328,-1576,7,89,23
12175,-1224,304,-1616,18,102,26
12180,-1176,272,-1584,29,122,31
12185,-816,-96,-1520,61,166,45
12190,-1504,472,-1624,203,333,114
12195,-1392,648,-1696,191,301,123
12200,-1280,400,-1616,68,177,50
12205,-1288,312,-1608,9,114,14
12210,-1280,352,-1616,-7,91,5
12215,-1256,312,-1600,-14,85,4
12220,-1232,304,-1600,-17,81,4
12225,-1264,336,-1600,-17,76,3
12230,-1256,352,-1600,-15,75,2
12235,-1248,328,-1592,-13,72,1
12240,-1256,336,-1624,-9,73,-1
12245,-1248,328,-1616,-8,71,-2
12250,-1272,320,-1600,-5,69,-3
12255,-1232,320,-1600,-7,67,-4
12260,-1256,328,-1608,-9,64,-5
12265,-1248,328,-1616,-11,64,-5
12270,-1256,328,-1592,-13,67,-4
12275,-1248,344,-1616,-15,71,-4
12280,-1264,328,-1608,-16,73,-1
12285,-1264,320,-1608,-18,73,-3
12290,-1272,344,-1576,-15,78,-3
12295,-1256,312,-1624,-9,78,-4
12300,-1256,352,-1656,-3,78,-6
12305,-1240,296,-1584,-1,75,-7
12310,-1272,320,-1640,-4,73,-6
12315,-1256,360,-1624,-10,71,-7
12320,-1240,320,-1592,-14,69,-4
12325,-1240,320,-1600,-17,67,-4
12330,-1240,344,-1616,-19,69,-3
12335,-1256,328,-1584,-20,69,0
12340,-1240,320,-1592,-21,72,-1
12345,-1256,312,-1608,-20,74,1
12350,-1280,328,-1624,-19,77,2
12355,-1256,336,-1600,-15,77,-1
12360,-1264,328,-1600,-14,79,0
12365,-1264,336,-1632,-14,80,-1
12370,-1224,320,-1592,-13,82,-1
12375,-1248,336,-1600,-15,82,0
12380,-1264,336,-1592,-14,82,0
12385,-1240,320,-1576,-14,83,1
12390,-1248,344,-1608,-11,84,2
12395,-1248,320,-1592,-8,85,1
12400,-1248,328,-1600,-6,87,0
12405,-1256,296,-1600,-6,87,0
12410,-1240,320,-1616,-6,88,0
12415,-1256,328,-1608,-7,87,2
12420,-1232,320,-1600,-10,90,3
12425,-1256,344,-1608,-11,92,5
12430,-1264,368,-1584,-12,96,5
12435,-1240,336,-1616,-13,98,6
12440,-1248,328,-1608,-13,98,7
12445,-1232,344,-1640,-13,97,9
12450,-1224,320,-1624,-13,98,9
12455,-1248,336,-1608,-14,98,11
12460,-1248,320,-1600,-13,100,10
12465,-1240,344,-1616,-11,101,11
12470,-1224,320,-1584,-12,101,11
12475,-1264,336,-1624,-13,100,12
12480,-1248,328,-1640,-14,99,11
12485,-1208,336,-1648,-14,99,12
12490,-1240,336,-1624,-16,99,14
12495,-1248,352,-1616,-18,99,14
12500,-1240,328,-1632,-19,99,13
12505,-1232,336,-1608,-20,97,13
12510,-1248,336,-1640,-19,97,11
12515,-1248,376,-1608,-19,94,12
12520,-1208,328,-1608,-20,92,14
12525,-1240,336,-1608,-21,93,13
12530,-1256,344,-1600,-22,94,13
12535,-1240,328,-1584,-23,95,11
12540,-1224,328,-1632,-23,95,12
12545,-1232,352,-1616,-22,95,11
12550,-1232,328,-1608,-22,95,10
12555,-1240,320,-1608,-21,94,9
12560,-1224,336,-1640,-19,94,7
12565,-1208,336,-1616,-21,94,6
12570,-1256,352,-1616,-21,94,6
12575,-1248,336,-1624,-21,93,5
12580,-1224,352,-1616,-22,90,6
12585,-1240,312,-1624,-24,90,6
12590,-1240,328,-1640,-25,91,6
12595,-1224,328,-1640,-27,88,6
12600,-1224,336,-1656,-27,87,7
12605,-1232,320,-1640,-27,88,7
12610,-1240,344,-1648,-27,88,6
12615,-1248,328,-1640,-28,89,8
12620,-1248,344,-1632,-25,89,5
12625,-1240,336,-1632,-26,86,6
12630,-1224,360,-1672,-27,85,6
12635,-1240,352,-1600,-27,85,6
12640,-1208,352,-1648,-25,85,5
12645,-1216,344,-1608,-25,85,4
12650,-1248,336,-1608,-23,81,4
12655,-1240,344,-1624,-22,78,4
12660,-1240,336,-1648,-21,76,2
12665,-1248,352,-1632,-20,75,2
12670,-1248,360,-1648,-19,74,2
12675,-1240,336,-1624,-19,75,2
12680,-1232,336,-1600,-19,78,1
12685,-1240,360,-1600,-19,82,3
12690,-1240,336,-1624,-20,84,4
12695,-1240,312,-1632,-21,85,4
12700,-1240,336,-1600,-22,85,3
12705,-1216,344,-1592,-23,86,4
12710,-1248,352,-1608,-23,85,4
12715,-1208,328,-1584,-21,88,3
12720,-1216,352,-1632,-18,86,4
12725,-1240,336,-1632,-13,89,3
12730,-1248,336,-1632,-10,88,2
12735,-1240,368,-1608,-8,86,0
12740,-1256,352,-1656,-4,85,-1
12745,-1240,344,-1640,-2,83,-1
12750,-1256,352,-1656,0,80,-2
12755,-1264,352,-1656,1,77,-1
12760,-1248,344,-1632,0,73,-1
12765,-1240,336,-1616,-2,70,-2
12770,-1232,328,-1632,-5,67,-1
12775,-1240,336,-1592,-8,67,0
12780,-1240,328,-1600,-9,69,1
12785,-1216,328,-1608,-9,70,2
12790,-1224,328,-1600,-9,71,5
12795,-1216,336,-1616,-11,74,4
12800,-1256,344,-1616,-12,75,7
12805,-1248,320,-1600,-12,79,8
12810,-1240,344,-1616,-13,82,8
12815,-1224,296,-1648,-14,85,8
12820,-1224,336,-1664,-15,85,10
12825,-1232,344,-1616,-19,86,13
12830,-1224,328,-1608,-21,85,15
12835,-1224,320,-1616,-26,85,16
12840,-1208,344,-1640,-27,87,17
12845,-1224,352,-1616,-28,87,19
12850,-1240,368,-1560,-27,88,18
12855,-1216,352,-1640,-26,87,16
12860,-1216,336,-1632,-26,88,17
12865,-1240,376,-1616,-23,90,16
12870,-1240,352,-1608,-22,92,13
12875,-1216,352,-1632,-21,92,13
12880,-1216,336,-1632,-20,91,12
12885,-1224,336,-1648,-20,89,11
12890,-1224,360,-1632,-20,87,9
12895,-1216,336,-1632,-20,87,8
12900,-1232,368,-1600,-20,90,8
12905,-1240,344,-1608,-20,94,8
12910,-1216,360,-1608,-20,97,7
12915,-1232,344,-1608,-20,99,7
12920,-1232,336,-1624,-18,99,6
12925,-1248,336,-1624,-17,99,4
12930,-1200,328,-1592,-17,100,4
12935,-1248,352,-1624,-17,99,4
12940,-1224,344,-1608,-15,96,3
12945,-1224,344,-1656,-13,94,2
12950,-1232,328,-1616,-12,95,3
12955,-1240,336,-1648,-11,97,2
12960,-1224,352,-1600,-10,99,0
12965,-1208,360,-1632,-10,98,0
12970,-1224,352,-1616,-11,96,0
12975,-1224,344,-1648,-14,95,1
12980,-1216,344,-1640,-16,96,2
12985,-1224,336,-1608,-18,97,3
12990,-1232,368,-1608,-18,99,3
12995,-1248,352,-1640,-18,100,3
13000,-1240,368,-1664,-16,100,2
13005,-1232,344,-1672,-14,94,2
13010,-1240,336,-1648,-13,90,2
13015,-1216,352,-1640,-13,85,1
13020,-1224,336,-1632,-13,83,0
13025,-1240,352,-1632,-14,81,1
13030,-1232,368,-1632,-16,79,2
13035,-1216,344,-1648,-18,77,1
13040,-1224,328,-1616,-20,77,3
13045,-1200,320,-1624,-19,74,3
13050,-1216,360,-1624,-21,75,4
13055,-1208,328,-1608,-24,74,5
13060,-1160,312,-1592,-28,74,8
13065,-1216,344,-1616,-31,76,8
13070,-1224,344,-1592,-30,80,10
13075,-1232,352,-1632,-26,87,10
13080,-1216,368,-1680,-19,91,10
13085,-1232,376,-1664,-13,92,7
13090,-1208,336,-1656,-11,92,4
13095,-1216,360,-1656,-13,91,5
13100,-1216,344,-1672,-19,88,4
13105,-1232,360,-1632,-22,83,7
13110,-1224,360,-1632,-24,80,6
13115,-1184,344,-1648,-26,76,7
13120,-1232,368,-1632,-27,79,9
13125,-1208,344,-1616,-26,75,7
13130,-1224,352,-1616,-22,73,7
13135,-1208,360,-1616,-19,72,5
13140,-1240,376,-1664,-16,74,4
13145,-1216,360,-1624,-14,75,3
13150,-1216,360,-1632,-14,76,2
13155,-1224,352,-1624,-14,78,2
13160,-1216,376,-1616,-14,78,2
13165,-1224,344,-1616,-15,80,2
13170,-1232,352,-1616,-14,80,3
13175,-1168,344,-1568,-13,82,2
13180,-1208,344,-1656,-10,81,0
13185,-1208,328,-1624,-8,83,-1
13190,-1216,360,-1632,-7,83,-1
13195,-1200,368,-1640,-6,82,-1
13200,-1208,336,-1616,-6,80,-2
13205,-1200,328,-1624,-8,81,-3
13210,-1216,352,-1624,-7,81,-3
13215,-1216,352,-1616,-7,81,-2
13220,-1224,352,-1640,-5,82,-4
13225,-1216,360,-1632,-5,83,-3
13230,-1208,368,-1648,-3,82,-3
13235,-1208,344,-1616,-5,83,-5
13240,-1200,320,-1632,-5,84,-4
13245,-1216,336,-1616,-5,82,-4
13250,-1200,344,-1672,-5,82,-3
13255,-1208,368,-1672,-6,81,-2
13260,-1208,352,-1640,-4,80,-4
13265,-1200,344,-1664,-5,78,-3
13270,-1224,352,-1648,-6,76,-5
13275,-1224,360,-1648,-7,77,-5
13280,-1208,368,-1624,-7,76,-4
13285,-1200,376,-1648,-11,75,-4
13290,-1224,344,-1632,-12,74,-5
13295,-1208,360,-1664,-14,74,-5
13300,-1232,352,-1592,-11,75,-4
13305,-1216,344,-1648,-8,73,-4
13310,-1224,360,-1648,-7,70,-4
13315,-1224,344,-1624,-6,70,-4
13320,-1192,336,-1640,-7,68,-3
13325,-1224,352,-1656,-9,68,-3
13330,-1208,328,-1632,-10,68,-2
13335,-1208,360,-1608,-11,68,-2
13340,-1216,368,-1632,-12,68,-1
13345,-1200,360,-1624,-14,69,-1
13350,-1224,376,-1664,-18,69,-1
13355,-1232,352,-1616,-18,68,1
13360,-1208,352,-1648,-18,71,-1
13365,-1208,368,-1576,-16,72,0
13370,-1208,336,-1616,-14,73,-1
13375,-1208,368,-1616,-12,74,-1
13380,-1200,344,-1616,-11,75,0
13385,-1216,360,-1640,-11,76,-1
13390,-1216,360,-1592,-11,80,1
13395,-1256,384,-1632,-11,82,2
13400,-1224,352,-1632,-10,84,2
13405,-1208,336,-1608,-10,87,3
13410,-1184,352,-1632,-11,91,5
13415,-1224,344,-1608,-12,89,5
13420,-1184,344,-1600,-11,88,5
13425,-1224,352,-1656,-11,88,3
13430,-1208,328,-1616,-9,88,3
13435,-1208,344,-1656,-8,88,2
13440,-1224,368,-1656,-6,90,2
13445,-1216,360,-1648,-4,89,2
13450,-1208,368,-1640,-4,91,3
13455,-1224,376,-1640,-3,91,3
13460,-1200,336,-1648,-4,93,4
13465,-1232,368,-1648,-2,94,4
13470,-1192,352,-1624,-2,94,6
13475,-1216,368,-1656,-3,91,6
13480,-1208,352,-1616,-2,90,6
13485,-1208,360,-1616,-2,90,5
13490,-1200,344,-1648,-4,88,4
13495,-1200,344,-1664,-4,86,5
13500,-1224,344,-1648,-4,85,4
13505,-1216,368,-1672,-5,81,4
13510,-1176,368,-1640,-6,79,3
13515,-1192,352,-1640,-7,76,3
13520,-1216,384,-1632,-8,73,3
13525,-1208,360,-1640,-10,70,2
13530,-1224,360,-1656,-9,67,3
13535,-1208,328,-1656,-8,65,3
13540,-1216,352,-1648,-8,63,1
13545,-1296,272,-1504,9,80,-4
13550,-1128,440,-1616,29,97,13
13555,-1232,352,-1672,10,76,3
13560,-1208,352,-1640,2,70,-1
13565,-1224,352,-1640,-3,68,-2
13570,-1192,344,-1648,-3,66,-2
13575,-1200,336,-1656,-8,67,-2
13580,-1216,360,-1640,-10,66,-2
13585,-1200,344,-1632,-11,66,-1
13590,-1232,360,-1624,-10,65,-1
13595,-1208,352,-1648,-9,66,-1
13600,-1192,368,-1640,-11,64,1
13605,-1216,344,-1632,-12,63,1
13610,-1240,320,-1584,-10,63,0
13615,-1216,368,-1648,-7,64,-3
13620,-1176,344,-1656,-6,63,-3
13625,-1224,392,-1664,-3,63,-5
13630,-1208,336,-1640,-4,64,-5
13635,-1192,352,-1656,-4,62,-6
13640,-1224,352,-1608,-3,62,-6
13645,-1184,344,-1640,-3,62,-8
13650,-1192,368,-1664,-3,60,-7
13655,-1208,360,-1664,-3,60,-8
13660,-1216,352,-1632,-5,59,-7
13665,-1200,360,-1656,-7,59,-7
13670,-1208,352,-1624,-8,58,-7
13675,-1176,336,-1616,-8,61,-7
13680,-1200,352,-1648,-7,60,-8
13685,-1224,376,-1648,-7,60,-8
13690,-1192,360,-1632,-7,58,-7
13695,-1208,360,-1632,-10,61,-8
13700,-1200,336,-1624,-11,63,-8
13705,-1208,360,-1624,-11,68,-7
13710,-1208,336,-1616,-9,72,-8
13715,-1208,360,-1648,-8,77,-7
13720,-1216,296,-1640,-6,78,-8
13725,-1200,328,-1640,-9,74,-8
13730,-1208,352,-1640,-8,71,-8
13735,-1208,344,-1648,-10,69,-8
13740,-1216,360,-1608,-10,70,-7
13745,-1208,344,-1608,-12,72,-6
13750,-1176,336,-1648,-13,73,-6
13755,-1208,352,-1592,-11,77,-7
13760,-1216,352,-1616,-8,81,-6
13765,-1192,336,-1632,-7,86,-6
13770,-1192,352,-1616,-8,88,-5
13775,-1200,336,-1624,-9,92,-5
13780,-1208,336,-1608,-12,93,-3
13785,-1208,344,-1592,-15,98,-1
13790,-1176,296,-1632,-16,101,1
13795,-1216,344,-1624,-14,104,3
13800,-1216,336,-1616,-10,106,3
13805,-1192,336,-1648,-7,109,6
13810,-1232,360,-1664,-8,119,9
13815,-1248,320,-1664,-9,120,12
13820,-1176,376,-1648,-13,127,20
13825,-1176,376,-1608,-14,123,18
13830,-1192,352,-1640,-15,111,15
13835,-1208,368,-1656,-15,107,15
13840,-1208,352,-1656,-15,106,17
13845,-1184,360,-1664,-15,107,17
13850,-1208,368,-1648,-13,103,14
13855,-1200,336,-1640,-12,100,13
13860,-1176,344,-1656,-10,97,12
13865,-1192,344,-1648,-8,97,10
13870,-1200,352,-1632,-6,95,8
13875,-1208,352,-1656,-7,93,6
13880,-1224,384,-1664,-6,90,5
13885,-1192,368,-1648,-7,88,3
13890,-1184,384,-1648,-5,85,4
13895,-1192,360,-1664,-4,82,2
13900,-1208,352,-1656,-4,78,2
13905,-1216,352,-1640,-6,74,1
13910,-1192,344,-1656,-6,73,2
13915,-1208,360,-1624,-8,72,2
13920,-1208,336,-1648,-10,71,1
13925,-1176,360,-1680,-11,71,0
13930,-1208,336,-1664,-10,69,-1
13935,-1216,376,-1656,-9,71,-3
13940,-1152,336,-1648,-8,69,-4
13945,-1192,344,-1640,-7,70,-6
13950,-1192,368,-1656,-7,67,-5
13955,-1176,344,-1664,-9,66,-6
13960,-1184,352,-1648,-11,65,-6
13965,-1192,368,-1648,-12,65,-7
13970,-1200,352,-1640,-13,62,-6
13975,-1176,336,-1656,-13,63,-5
13980,-1176,344,-1648,-15,60,-6
13985,-1208,328,-1664,-13,59,-7
13990,-1200,344,-1672,-14,57,-6
13995,-1200,368,-1672,-15,54,-6
14000,-1184,344,-1664,-15,50,-5
14005,-1200,352,-1648,-16,48,-6
14010,-1176,352,-1672,-17,43,-8
14015,-1184,352,-1648,-16,42,-9
14020,-1208,352,-1640,-14,41,-10
14025,-1208,368,-1648,-13,43,-9
14030,-1208,368,-1632,-11,42,-9
14035,-1216,368,-1672,-11,39,-8
14040,-1168,344,-1664,-12,36,-10
14045,-1208,352,-1656,-13,31,-8
14050,-1216,368,-1640,-15,27,-9
14055,-1208,336,-1680,-17,21,-9
14060,-1200,352,-1664,-19,15,-8
14065,-1224,360,-1656,-20,10,-7
14070,-1216,352,-1664,-22,4,-7
14075,-1208,328,-1640,-25,0,-7
14080,-1232,336,-1608,-29,-1,-7
14085,-1200,352,-1632,-30,-1,-5
14090,-1208,360,-1632,-30,1,-5
14095,-1192,336,-1584,-29,5,-5
14100,-1200,344,-1624,-27,9,-4
14105,-1192,328,-1576,-27,14,-4
14110,-1208,360,-1616,-26,19,-4
14115,-1200,352,-1608,-23,24,-5
14120,-1208,368,-1624,-21,30,-5
14125,-1216,336,-1600,-21,35,-7
14130,-1224,360,-1632,-19,40,-6
14135,-1216,352,-1600,-19,43,-5
14140,-1232,352,-1592,-20,49,-5
14145,-1232,344,-1608,-19,53,-5
14150,-1224,352,-1632,-18,58,-4
14155,-1208,328,-1704,-17,60,-5
14160,-1240,360,-1632,-17,62,-3
14165,-1208,336,-1608,-15,64,-4
14170,-1216,352,-1616,-13,65,-4
14175,-1224,344,-1632,-11,67,-3
14180,-1192,336,-1616,-9,69,-3
14185,-1208,336,-1608,-10,69,-4
14190,-1240,352,-1640,-10,71,-2
14195,-1208,352,-1616,-10,72,-2
14200,-1208,344,-1632,-11,74,-2
14205,-1208,352,-1616,-10,75,-2
14210,-1192,352,-1616,-9,76,-2
14215,-1200,344,-1648,-10,76,-1
14220,-1216,344,-1624,-11,76,-1
14225,-1216,352,-1624,-12,75,1
14230,-1208,360,-1632,-13,74,1
14235,-1200,328,-1648,-13,76,0
14240,-1176,360,-1592,-13,80,1
14245,-1216,352,-1640,-11,80,1
14250,-1200,352,-1608,-9,81,1
14255,-1184,312,-1624,-8,82,1
14260,-1192,336,-1616,-8,84,0
14265,-1216,368,-1624,-7,86,-1
14270,-1192,344,-1624,-9,86,0
14275,-1216,360,-1632,-10,86,0
14280,-1200,352,-1640,-11,84,1
14285,-1208,336,-1632,-14,80,2
14290,-1192,328,-1616,-16,77,3
14295,-1216,352,-1616,-16,77,4
14300,-1200,368,-1656,-17,76,5
14305,-1232,368,-1640,-17,76,7
14310,-1200,344,-1656,-17,75,7
14315,-1208,336,-1632,-19,73,8
14320,-1200,352,-1648,-18,70,9
14325,-1200,360,-1616,-19,70,9
14330,-1200,352,-1656,-18,71,10
14335,-1200,336,-1640,-17,71,10
14340,-1208,352,-1624,-16,67,11
14345,-1192,360,-1632,-16,66,10
14350,-1216,384,-1608,-14,65,9
14355,-1200,360,-1640,-14,66,7
14360,-1176,360,-1664,-11,66,8
14365,-1208,376,-1640,-9,70,6
14370,-1176,352,-1696,-8,69,4
14375,-1208,344,-1632,-8,69,2
14380,-1216,360,-1656,-9,69,3
14385,-1216,336,-1640,-9,69,2
14390,-1224,368,-1624,-7,69,1
14395,-1208,336,-1616,-4,69,-1
14400,-1208,360,-1624,-4,70,0
14405,-1200,344,-1648,-5,70,0
14410,-1240,368,-1624,-6,70,0
14415,-1184,368,-1616,-6,68,-1
14420,-1200,352,-1640,-6,68,-1
14425,-1216,336,-1624,-4,73,3
14430,-1200,352,-1624,-2,82,9
14435,-1192,376,-1656,0,81,9
14440,-1184,352,-1640,-2,79,7
14445,-1216,360,-1624,-2,79,4
14450,-1208,344,-1656,0,75,1
14455,-1192,352,-1640,-2,73,1
14460,-1208,368,-1624,-3,73,-1
14465,-1216,352,-1624,-4,75,-2
14470,-1200,320,-1640,-3,76,-3
14475,-1200,344,-1648,-5,77,-4
14480,-1216,352,-1624,-6,74,-3
14485,-1224,344,-1648,-6,70,-4
14490,-1200,360,-1648,-6,66,-3
14495,-1208,368,-1632,-7,63,-3
14500,-1208,336,-1632,-7,62,-3
14505,-1200,360,-1624,-8,63,-2
14510,-1232,352,-1632,-8,66,-4
14515,-1208,360,-1672,-7,68,-4
14520,-1224,352,-1648,-5,69,-4
14525,-1216,344,-1632,-7,69,-3
14530,-1200,328,-1624,-8,69,-4
14535,-1208,344,-1632,-10,70,-2
14540,-1200,336,-1624,-11,70,-2
14545,-1200,344,-1616,-12,71,-4
14550,-1224,344,-1624,-13,72,-2
14555,-1216,360,-1640,-13,71,-1
14560,-1208,336,-1656,-12,72,-1
14565,-1192,344,-1648,-11,73,-1
14570,-1192,352,-1624,-12,71,1
14575,-1200,336,-1624,-15,71,0
14580,-1184,344,-1616,-17,73,3
14585,-1200,336,-1608,-18,77,3
14590,-1200,336,-1624,-16,82,4
14595,-1208,360,-1640,-9,85,4
14600,-1208,360,-1664,-5,86,1
14605,-1192,360,-1688,-5,84,1
14610,-1192,368,-1640,-6,83,2
14615,-1200,360,-1648,-12,79,1
14620,-1200,368,-1664,-16,75,2
14625,-1216,344,-1640,-19,75,3
14630,-1200,344,-1640,-20,78,3
14635,-1200,344,-1632,-21,81,4
14640,-1200,328,-1632,-22,82,4
14645,-1224,360,-1624,-21,84,3
14650,-1216,352,-1640,-17,82,5
14655,-1192,360,-1624,-15,81,4
14660,-1200,376,-1640,-15,80,5
14665,-1192,328,-1664,-16,83,4
14670,-1208,352,-1640,-17,83,4
14675,-1208,352,-1624,-18,83,5
14680,-1176,344,-1640,-19,85,6
14685,-1224,368,-1656,-19,84,7
14690,-1200,360,-1640,-17,84,5
14695,-1208,384,-1640,-17,85,5
14700,-1184,360,-1600,-16,84,5
14705,-1200,352,-1648,-16,86,4
14710,-1208,352,-1648,-16,85,4
14715,-1224,376,-1616,-16,85,3
14720,-1208,368,-1648,-14,86,1
14725,-1224,360,-1672,-14,87,2
14730,-1208,384,-1640,-13,85,2
14735,-1192,368,-1624,-13,84,3
14740,-1192,392,-1624,-14,83,2
14745,-1208,368,-1624,-13,81,2
14750,-1216,344,-1664,-13,80,2
14755,-1168,336,-1648,-13,84,2
14760,-1184,352,-1648,-14,82,1
14765,-1208,344,-1608,-14,82,3
14770,-1216,368,-1664,-15,84,5
14775,-1184,344,-1656,-14,84,5
14780,-1200,360,-1632,-14,85,4
14785,-1224,376,-1648,-13,87,5
14790,-1192,352,-1632,-15,88,5
14795,-1200,360,-1664,-17,89,3
14800,-1208,368,-1616,-19,89,5
14805,-1192,360,-1640,-19,89,5
14810,-1208,312,-1664,-18,88,4
14815,-1208,368,-1640,-17,88,1
14820,-1184,336,-1648,-16,85,2
14825,-1184,336,-1672,-18,82,1
14830,-1208,352,-1648,-18,80,1
14835,-1224,368,-1632,-17,80,1
14840,-1216,360,-1664,-17,79,1
14845,-1200,352,-1632,-17,78,2
14850,-1192,344,-1672,-18,77,1
14855,-1192,352,-1648,-19,76,2
14860,-1216,344,-1664,-20,78,1
14865,-1208,352,-1648,-22,76,2
14870,-1200,360,-1640,-22,76,3
14875,-1208,368,-1664,-23,76,3
14880,-1216,344,-1616,-23,76,4
14885,-1208,368,-1648,-22,75,2
14890,-1192,352,-1656,-21,74,1
14895,-1216,360,-1672,-20,73,2
14900,-1216,368,-1664,-21,73,4
14905,-1208,352,-1664,-20,73,3
14910,-1224,360,-1656,-22,71,2
14915,-1192,312,-1568,-24,71,4
14920,-1176,352,-1648,-23,70,5
14925,-1184,352,-1624,-24,74,6
14930,-1192,352,-1640,-24,77,5
14935,-1208,392,-1624,-24,80,7
14940,-1168,344,-1656,-24,81,9
14945,-1192,376,-1632,-24,82,9
14950,-1200,352,-1624,-23,81,10
14955,-1216,376,-1632,-22,82,9
14960,-1184,360,-1640,-24,84,10
14965,-1184,376,-1656,-22,85,9
14970,-1176,368,-1656,-21,83,10
14975,-1200,360,-1680,-21,83,9
14980,-1208,352,-1648,-22,83,10
14985,-1224,368,-1632,-24,85,11
14990,-1200,376,-1640,-25,87,11
14995,-1168,352,-1656,-25,89,12
