timestamp,accel_x,accel_y,accel_z,gyro_x,gyro_y,gyro_z
0,56,-2056,-80,4,-57,17
5,88,-2056,-80,0,-48,13
10,72,-2056,-104,-9,-42,10
15,64,-2040,-88,-16,-36,9
20,48,-2032,-96,-24,-31,8
25,72,-2048,-56,-31,-27,8
30,64,-2056,-96,-39,-23,6
35,40,-2040,-120,-48,-23,8
40,24,-2032,-64,-56,-21,8
45,40,-2048,-96,-62,-20,10
50,32,-2048,-96,-70,-19,10
55,32,-2040,-120,-79,-19,9
60,40,-2048,-88,-86,-17,9
65,32,-2056,-104,-92,-16,8
70,48,-2056,-96,-98,-15,8
75,48,-2056,-88,-103,-14,8
80,48,-2056,-96,-105,-13,8
85,40,-2056,-96,-109,-10,6
90,48,-2056,-96,-113,-8,7
95,48,-2064,-96,-117,-4,6
100,72,-2048,-104,-120,-2,5
105,48,-2064,-96,-124,-2,5
110,56,-2064,-88,-125,-2,4
115,24,-2056,-112,-125,-3,5
120,32,-2048,-120,-126,-3,6
125,40,-2056,-104,-126,-5,8
130,32,-2056,-96,-128,-7,11
135,32,-2056,-112,-130,-6,13
140,40,-2048,-96,-135,-5,12
145,32,-2048,-104,-142,-3,14
150,16,-2064,-96,-151,-2,13
155,40,-2080,-64,-153,1,12
160,48,-2096,-72,-151,4,11
165,24,-2080,-96,-147,4,11
170,24,-2104,-80,-140,3,9
175,24,-2096,-80,-133,2,10
180,40,-2088,-112,-125,0,9
185,24,-2080,-56,-120,-3,9
190,32,-2072,-64,-114,-6,9
195,40,-2072,-88,-111,-10,10
200,32,-2056,-72,-107,-10,7
205,40,-2080,-72,-104,-10,6
210,56,-2096,-72,-104,-8,5
215,56,-2064,-72,-103,-5,3
220,80,-2048,-88,-106,-2,1
225,72,-2056,-72,-109,3,-3
230,56,-2048,-48,-113,6,-5
235,48,-2064,-40,-118,10,-8
240,32,-2072,-32,-116,12,-10
245,40,-2088,-40,-113,15,-10
250,40,-2056,-64,-107,18,-8
255,48,-2080,-88,-101,20,-9
260,56,-2088,-80,-98,20,-9
265,48,-2064,-104,-96,21,-9
270,40,-2056,-72,-97,21,-8
275,56,-2064,-112,-101,22,-8
280,40,-2056,-64,-103,24,-9
285,40,-2072,-88,-106,27,-10
290,24,-2072,-56,-110,30,-11
295,40,-2064,-80,-112,36,-12
300,56,-2072,-72,-114,41,-15
305,72,-2048,-64,-116,46,-17
310,56,-2056,-88,-113,50,-19
315,80,-2064,-88,-115,53,-19
320,96,-2064,-24,-120,58,-19
325,64,-2056,-64,-123,60,-20
330,88,-2056,-72,-126,63,-19
335,104,-2064,-72,-131,65,-19
340,104,-2056,-96,-134,68,-19
345,72,-2064,-64,-140,70,-18
350,120,-2072,-112,-144,73,-16
355,88,-2064,-96,-149,76,-15
360,96,-2056,-96,-150,80,-15
365,88,-2064,-104,-150,86,-15
370,88,-2072,-72,-149,93,-14
375,112,-2064,-80,-153,99,-14
380,96,-2072,-112,-157,105,-16
385,104,-2064,-96,-160,112,-14
390,112,-2064,-112,-165,119,-17
395,112,-2056,-120,-171,127,-17
400,88,-2104,-104,-176,134,-16
405,128,-2056,-144,-181,142,-15
410,144,-2048,-128,-185,149,-15
415,144,-2056,-104,-190,159,-14
420,152,-2048,-112,-195,168,-14
425,144,-2040,-112,-199,177,-15
430,144,-2056,-104,-204,187,-15
435,144,-2080,-152,-211,195,-17
440,184,-2080,-168,-216,201,-21
445,144,-2064,-160,-221,205,-26
450,144,-2072,-152,-224,210,-27
455,208,-2128,-128,-226,213,-29
460,128,-2080,-152,-225,216,-28
465,128,-2088,-152,-223,222,-28
470,128,-2088,-184,-223,224,-24
475,160,-2112,-176,-221,228,-22
480,128,-2080,-184,-219,231,-19
485,136,-2096,-168,-221,235,-17
490,144,-2072,-168,-224,238,-16
495,144,-2064,-208,-227,240,-17
500,112,-2088,-192,-232,241,-16
505,120,-2072,-224,-234,243,-14
510,128,-2096,-248,-235,240,-11
515,104,-2080,-216,-235,237,-8
520,120,-2088,-208,-234,234,-3
525,120,-2064,-224,-236,230,1
530,128,-2064,-232,-240,227,6
535,112,-2080,-224,-242,226,10
540,128,-2048,-184,-242,225,12
545,112,-2080,-200,-241,225,15
550,112,-2096,-224,-239,223,19
555,144,-2104,-240,-237,222,21
560,112,-2088,-184,-233,222,24
565,96,-2088,-208,-226,223,26
570,104,-2088,-208,-218,228,28
575,96,-2112,-232,-208,231,29
580,104,-2128,-224,-196,237,31
585,104,-2112,-248,-185,241,34
590,128,-2112,-224,-175,246,36
595,72,-2104,-232,-167,249,37
600,88,-2144,-224,-164,253,40
605,80,-2144,-208,-162,259,40
610,72,-2136,-216,-159,261,40
615,32,-2120,-240,-156,263,39
620,24,-2128,-208,-155,261,41
625,16,-2144,-224,-152,261,42
630,32,-2144,-208,-151,259,45
635,-8,-2112,-200,-149,255,51
640,0,-2088,-232,-147,251,57
645,-32,-2128,-200,-143,245,66
650,-80,-2112,-184,-138,237,77
655,-80,-2112,-176,-135,231,87
660,-96,-2120,-192,-132,224,95
665,-88,-2128,-184,-132,222,103
670,-128,-2112,-176,-129,220,108
675,-112,-2120,-168,-126,219,111
680,-144,-2104,-160,-124,213,114
685,-136,-2112,-168,-121,205,116
690,-136,-2120,-176,-119,194,121
695,-144,-2120,-176,-119,179,124
700,-128,-2112,-224,-122,165,127
705,-176,-2112,-216,-125,149,131
710,-192,-2072,-168,-131,136,134
715,-184,-2080,-200,-132,124,137
720,-216,-2056,-176,-136,111,140
725,-224,-2048,-200,-136,98,147
730,-248,-2040,-176,-140,85,154
735,-248,-2024,-192,-143,71,158
740,-232,-2008,-248,-148,56,161
745,-208,-2024,-216,-154,43,166
750,-192,-2000,-176,-162,34,168
755,-192,-2008,-232,-167,29,170
760,-192,-1976,-176,-172,29,172
765,-184,-1992,-136,-179,34,173
770,-144,-2016,-104,-185,39,170
775,-136,-2016,-96,-190,44,166
780,-120,-2032,-136,-198,52,161
785,-88,-1984,-88,-210,55,155
790,-120,-1992,-120,-226,56,152
795,-80,-2000,-128,-249,53,152
800,-72,-2016,-160,-273,53,153
805,-64,-2040,-168,-296,59,153
810,-56,-2048,-152,-311,72,152
815,-48,-2080,-152,-316,88,151
820,-8,-2104,-152,-315,103,154
825,-32,-2152,-120,-310,116,156
830,-16,-2168,-120,-304,129,162
835,-56,-2176,-176,-294,142,168
840,-56,-2168,-176,-283,156,171
845,-40,-2160,-200,-273,172,175
850,-16,-2136,-208,-262,191,179
855,-16,-2112,-208,-258,217,180
860,8,-2080,-216,-256,242,178
865,16,-2064,-208,-255,270,177
870,16,-2056,-208,-253,299,176
875,24,-2032,-216,-254,329,172
880,48,-2056,-192,-255,356,167
885,40,-2048,-192,-253,379,164
890,40,-2064,-232,-249,401,160
895,24,-2080,-224,-245,422,157
900,16,-2056,-232,-242,442,155
905,0,-2064,-232,-240,458,152
910,-8,-2040,-256,-237,474,148
915,0,-2048,-240,-233,488,144
920,-56,-2032,-240,-230,503,137
925,-56,-2056,-264,-221,522,132
930,-24,-2056,-256,-211,542,126
935,-64,-2056,-216,-201,559,120
940,-80,-2080,-248,-190,578,111
945,-96,-2080,-240,-177,601,101
950,-48,-2072,-216,-166,622,91
955,-64,-2088,-208,-152,646,80
960,-48,-2080,-240,-140,667,69
965,0,-2096,-248,-128,687,56
970,-16,-2080,-192,-117,706,45
975,-8,-2088,-208,-107,721,33
980,8,-2104,-200,-96,736,23
985,8,-2112,-192,-85,753,12
990,16,-2096,-184,-77,769,0
995,0,-2080,-168,-67,781,-12
1000,-8,-2056,-144,-56,793,-24
1005,-40,-2048,-144,-44,803,-35
1010,-80,-2040,-160,-36,813,-45
1015,-72,-2048,-136,-29,823,-53
1020,-80,-2032,-160,-24,836,-59
1025,-96,-2056,-144,-24,848,-64
1030,-136,-2056,-160,-24,856,-64
1035,-152,-2064,-144,-25,863,-66
1040,-136,-2056,-176,-28,870,-66
1045,-120,-2128,-56,-31,872,-66
1050,-176,-2032,-184,-35,874,-66
1055,-152,-2040,-168,-41,877,-66
1060,-160,-2040,-152,-46,879,-66
1065,-152,-2048,-144,-50,880,-68
1070,-128,-2040,-136,-51,881,-71
1075,-144,-2056,-120,-50,881,-73
1080,-136,-2080,-136,-44,879,-76
1085,-136,-2064,-104,-36,878,-79
1090,-128,-2080,-112,-29,878,-84
1095,-144,-2056,-160,-24,881,-87
1100,-128,-1960,-168,-21,882,-94
1105,-120,-2048,-136,-19,883,-101
1110,-136,-2032,-136,-21,884,-107
1115,-136,-2016,-176,-27,885,-113
1120,-144,-2000,-136,-31,885,-116
1125,-144,-2016,-144,-38,884,-118
1130,-176,-1984,-168,-43,883,-120
1135,-184,-1992,-128,-51,885,-118
1140,-232,-1976,-160,-59,886,-117
1145,-208,-1984,-160,-69,886,-114
1150,-232,-2000,-168,-81,883,-110
1155,-240,-2000,-200,-90,877,-108
1160,-264,-2008,-200,-99,870,-106
1165,-248,-2024,-200,-107,863,-104
1170,-264,-2040,-160,-112,855,-102
1175,-272,-2040,-144,-114,844,-102
1180,-312,-2048,-112,-112,832,-103
1185,-304,-2072,-112,-109,820,-105
1190,-336,-2072,-64,-101,806,-108
1195,-328,-2080,-104,-95,790,-108
1200,-352,-2088,-96,-88,775,-107
1205,-344,-2080,-136,-82,760,-107
1210,-344,-2120,-104,-76,745,-106
1215,-360,-2144,-96,-71,731,-104
1220,-352,-2176,-136,-72,721,-104
1225,-320,-2200,-128,-79,713,-105
1230,-304,-2240,-160,-84,705,-105
1235,-264,-2248,-176,-85,700,-107
1240,-248,-2296,-200,-89,698,-110
1245,-224,-2328,-176,-89,703,-116
1250,-232,-2376,-208,-93,709,-121
1255,-248,-2392,-232,-99,714,-125
1260,-224,-2464,-240,-107,717,-125
1265,-192,-2512,-296,-116,721,-121
1270,-176,-2560,-312,-128,724,-117
1275,-240,-2592,-344,-136,725,-110
1280,-208,-2608,-376,-137,723,-105
1285,-176,-2640,-376,-125,719,-97
1290,-232,-2584,-408,-105,710,-95
1295,-208,-2560,-408,-78,694,-92
1300,-248,-2560,-416,-40,673,-98
1305,-248,-2504,-392,0,647,-107
1310,-248,-2496,-440,39,629,-124
1315,-248,-2416,-448,69,617,-144
1320,-256,-2408,-456,89,612,-166
1325,-248,-2352,-456,100,611,-191
1330,-240,-2320,-472,105,618,-218
1335,-200,-2272,-504,106,634,-250
1340,-160,-2256,-456,108,654,-285
1345,-120,-2208,-480,112,684,-321
1350,-128,-2160,-512,114,711,-359
1355,-40,-2160,-512,119,738,-396
1360,-16,-2120,-504,125,763,-429
1365,16,-2064,-528,134,790,-452
1370,72,-2048,-536,146,820,-474
1375,104,-1976,-592,155,849,-494
1380,120,-1936,-608,162,876,-509
1385,176,-1888,-656,164,902,-519
1390,184,-1856,-648,156,924,-526
1395,232,-1784,-672,141,948,-531
1400,256,-1744,-688,125,972,-534
1405,304,-1704,-672,105,990,-536
1410,288,-1632,-664,89,1004,-536
1415,352,-1672,-664,73,1007,-531
1420,336,-1656,-656,57,999,-521
1425,288,-1680,-592,44,979,-503
1430,240,-1720,-616,31,946,-480
1435,184,-1752,-576,15,907,-451
1440,136,-1832,-544,-8,868,-422
1445,96,-1880,-472,-39,817,-394
1450,16,-1936,-472,-69,761,-368
1455,0,-2008,-432,-97,699,-347
1460,-64,-2040,-416,-118,631,-328
1465,-88,-2048,-416,-136,555,-314
1470,-72,-2104,-424,-141,488,-294
1475,-88,-2144,-424,-142,429,-276
1480,-128,-2152,-448,-150,375,-262
1485,-88,-2184,-496,-157,321,-263
1490,0,-2184,-512,-156,278,-255
1495,8,-2192,-552,-156,246,-230
1500,24,-2192,-504,-159,216,-216
1505,112,-2192,-552,-148,191,-215
1510,160,-2168,-528,-127,178,-222
1515,144,-2128,-504,-108,172,-239
1520,216,-2088,-520,-99,166,-262
1525,232,-2096,-528,-91,172,-280
1530,304,-2096,-520,-88,174,-295
1535,280,-2064,-496,-85,177,-305
1540,344,-2064,-504,-72,182,-309
1545,312,-2040,-472,-53,183,-306
1550,336,-2040,-488,-33,180,-305
1555,312,-2016,-456,-17,176,-301
1560,304,-2000,-456,-5,172,-298
1565,280,-1936,-448,4,165,-294
1570,280,-1960,-464,8,156,-288
1575,240,-1920,-448,7,145,-285
1580,224,-1904,-440,2,130,-278
1585,224,-1888,-432,-6,114,-271
1590,224,-1920,-456,-11,98,-265
1595,208,-1896,-456,-16,82,-258
1600,176,-1904,-456,-21,67,-250
1605,176,-1920,-424,-26,49,-246
1610,176,-1904,-448,-32,30,-236
1615,176,-1920,-440,-36,12,-225
1620,168,-1936,-440,-42,-7,-214
1625,160,-1952,-440,-42,-31,-205
1630,168,-1968,-392,-39,-59,-194
1635,160,-1952,-408,-38,-83,-182
1640,112,-2000,-496,-40,-104,-169
1645,208,-2008,-400,-38,-127,-155
1650,176,-2008,-384,-40,-147,-142
1655,192,-2024,-352,-39,-167,-127
1660,160,-2008,-360,-37,-182,-111
1665,176,-2008,-344,-34,-199,-93
1670,160,-2016,-320,-28,-211,-73
1675,216,-1992,-304,-22,-225,-53
1680,208,-2040,-312,-13,-232,-33
1685,208,-2008,-312,-5,-238,-16
1690,216,-2024,-320,2,-248,-2
1695,192,-2072,-224,10,-255,11
1700,208,-2008,-320,17,-264,23
1705,216,-1992,-328,23,-269,36
1710,224,-2016,-320,24,-273,50
1715,216,-2000,-320,22,-276,65
1720,184,-2016,-296,21,-280,78
1725,176,-2016,-280,23,-290,94
1730,200,-2008,-312,28,-302,110
1735,184,-2024,-280,31,-313,126
1740,160,-2000,-280,32,-323,141
1745,144,-2000,-288,32,-334,155
1750,192,-1984,-216,35,-341,165
1755,160,-1968,-248,41,-347,173
1760,152,-1992,-208,46,-354,184
1765,176,-1952,-200,48,-360,194
1770,112,-1952,-184,45,-371,204
1775,128,-2008,-224,43,-383,214
1780,128,-2032,-216,38,-393,222
1785,112,-2032,-192,33,-402,233
1790,120,-2048,-192,28,-414,240
1795,88,-2056,-208,24,-432,249
1800,64,-2080,-168,22,-461,259
1805,40,-2112,-168,20,-493,270
1810,16,-2176,-136,23,-529,280
1815,0,-2200,-88,26,-567,290
1820,-24,-2232,-120,35,-600,300
1825,-56,-2280,-120,55,-632,307
1830,-72,-2288,-64,77,-661,313
1835,-112,-2288,-64,101,-685,316
1840,-136,-2304,-40,126,-705,320
1845,-120,-2328,-80,152,-721,322
1850,-112,-2312,-80,177,-734,321
1855,-128,-2312,-80,204,-745,320
1860,-96,-2304,-64,231,-755,321
1865,-56,-2312,-56,253,-765,322
1870,-72,-2352,-32,270,-774,324
1875,-80,-2296,-8,280,-785,326
1880,-88,-2304,-8,288,-797,329
1885,-88,-2272,40,293,-817,333
1890,-80,-2248,40,290,-839,339
1895,-112,-2248,56,287,-863,345
1900,-128,-2264,96,287,-891,354
1905,-152,-2264,128,295,-922,361
1910,-144,-2280,184,308,-953,368
1915,-136,-2304,184,333,-983,377
1920,-152,-2288,224,369,-1013,386
1925,-112,-2280,232,412,-1040,392
1930,-104,-2248,240,452,-1065,396
1935,-64,-2224,248,485,-1086,401
1940,8,-2224,192,503,-1098,398
1945,24,-2288,160,501,-1105,389
1950,48,-2328,48,472,-1106,367
1955,24,-2392,-40,414,-1107,337
1960,0,-2424,-168,332,-1110,303
1965,8,-2504,-312,234,-1116,269
1970,8,-2552,-488,130,-1122,237
1975,168,-2600,-592,41,-1119,206
1980,384,-2632,-712,-17,-1092,172
1985,584,-2648,-848,-53,-1047,127
1990,768,-2640,-920,-86,-995,70
1995,928,-2648,-992,-117,-937,3
2000,1008,-2624,-1040,-147,-872,-68
2005,1040,-2584,-1128,-166,-797,-142
2010,1048,-2496,-1152,-163,-711,-210
2015,1008,-2368,-1200,-141,-618,-270
2020,928,-2240,-1216,-112,-530,-317
2025,816,-2136,-1184,-75,-463,-344
2030,696,-2080,-1088,-41,-428,-351
2035,536,-2040,-1016,-16,-422,-344
2040,360,-2008,-944,-11,-440,-315
2045,160,-1992,-816,-8,-459,-269
2050,-24,-1976,-736,-4,-476,-212
2055,-208,-2008,-688,-3,-488,-153
2060,-352,-2000,-632,-1,-492,-93
2065,-432,-2024,-608,-2,-505,-37
2070,-488,-2032,-600,1,-525,14
2075,-472,-2088,-584,6,-551,66
2080,-424,-2120,-568,4,-575,119
2085,-336,-2176,-520,1,-591,167
2090,-248,-2184,-464,-4,-595,214
2095,-112,-2224,-424,-8,-590,258
2100,-16,-2216,-440,-18,-576,298
2105,80,-2216,-392,-32,-556,333
2110,224,-2208,-400,-47,-538,362
2115,304,-2184,-456,-58,-516,387
2120,328,-2176,-472,-63,-492,402
2125,384,-2136,-512,-70,-468,410
2130,424,-2104,-512,-76,-438,413
2135,400,-2048,-520,-81,-412,410
2140,376,-2008,-512,-84,-385,405
2145,392,-2016,-528,-81,-358,395
2150,368,-1944,-512,-71,-328,379
2155,328,-1880,-496,-54,-292,362
2160,296,-1824,-512,-33,-254,347
2165,224,-1792,-520,-22,-212,334
2170,184,-1752,-512,-19,-175,323
2175,128,-1696,-520,-24,-146,314
2180,56,-1688,-504,-36,-126,312
2185,16,-1688,-496,-46,-112,313
2190,-80,-1664,-504,-55,-106,315
2195,-72,-1656,-456,-62,-103,321
2200,-136,-1656,-432,-68,-103,323
2205,-152,-1648,-464,-81,-105,320
2210,-144,-1680,-408,-103,-106,311
2215,-136,-1680,-424,-120,-107,305
2220,-152,-1680,-376,-134,-105,298
2225,-112,-1720,-392,-152,-105,283
2230,-112,-1792,-328,-167,-101,269
2235,-96,-1832,-320,-173,-93,254
2240,-80,-1880,-336,-177,-81,237
2245,-48,-1984,-288,-183,-65,218
2250,-56,-2024,-288,-190,-45,199
2255,-32,-2040,-240,-192,-30,182
2260,-72,-2048,-232,-188,-23,165
2265,-56,-2056,-200,-174,-20,147
2270,-24,-2072,-200,-150,-20,131
2275,-64,-2056,-192,-123,-21,114
2280,-40,-2040,-176,-93,-24,95
2285,-8,-2032,-80,-59,-26,77
2290,-56,-1976,-176,-33,-23,65
2295,-32,-1944,-168,-13,-14,48
2300,-64,-1928,-176,4,0,27
2305,-16,-1920,-168,10,7,2
2310,-8,-1928,-168,14,16,-22
2315,-8,-1920,-144,14,26,-43
2320,8,-1920,-136,18,34,-63
2325,0,-1880,-128,24,40,-78
2330,-8,-1904,-88,31,41,-90
2335,0,-1912,-56,39,40,-103
2340,-32,-1944,-48,45,34,-114
2345,-56,-1904,-80,52,25,-124
2350,-96,-1904,-72,58,16,-134
2355,-112,-1888,-80,63,7,-139
2360,-136,-1888,-112,68,-2,-141
2365,-144,-1912,-96,75,-7,-139
2370,-120,-1896,-136,77,-13,-139
2375,-168,-1848,-128,78,-19,-140
2380,-184,-1840,-168,76,-25,-140
2385,-208,-1840,-176,66,-31,-138
2390,-184,-1832,-200,49,-34,-137
2395,-192,-1864,-144,29,-34,-135
2400,-160,-1896,-128,5,-32,-133
2405,-184,-1936,-136,-17,-31,-131
2410,-176,-1968,-104,-35,-25,-130
2415,-136,-2048,-88,-48,-12,-127
2420,-128,-2064,-112,-58,2,-127
2425,-96,-2128,-104,-67,19,-133
2430,-24,-2152,-112,-71,35,-146
2435,-40,-2160,-112,-66,46,-161
2440,-16,-2192,-120,-62,54,-180
2445,16,-2216,-120,-59,57,-198
2450,0,-2272,-112,-64,61,-211
2455,-8,-2280,-88,-72,64,-219
2460,-32,-2352,-72,-80,69,-221
2465,-8,-2384,-8,-86,78,-220
2470,0,-2400,-16,-82,88,-214
2475,-24,-2448,0,-68,103,-208
2480,-16,-2456,8,-49,117,-199
2485,0,-2456,56,-35,131,-189
2490,8,-2424,136,-18,144,-180
2495,16,-2424,224,-3,158,-172
2500,8,-2368,232,11,170,-166
2505,48,-2320,272,19,186,-164
2510,80,-2304,312,26,210,-162
2515,72,-2256,312,33,242,-166
2520,88,-2256,312,38,278,-176
2525,112,-2248,304,46,324,-194
2530,96,-2264,336,53,371,-214
2535,120,-2336,280,56,419,-233
2540,104,-2400,192,38,470,-249
2545,160,-2544,64,1,515,-257
2550,152,-2624,-80,-63,553,-261
2555,184,-2752,-240,-150,584,-265
2560,160,-2808,-400,-243,606,-265
2565,80,-2872,-416,-317,618,-260
2570,8,-2944,-400,-332,608,-243
2575,-144,-2920,-312,-280,571,-211
2580,-280,-2856,-336,-193,508,-174
2585,-432,-2776,-336,-113,429,-134
2590,-592,-2632,-400,-66,341,-96
2595,-704,-2552,-496,-47,250,-62
2600,-776,-2488,-576,-52,155,-36
2605,-800,-2400,-656,-71,56,-10
2610,-776,-2320,-800,-98,-36,23
2615,-736,-2216,-872,-138,-112,56
2620,-672,-2128,-912,-168,-173,79
2625,-616,-2064,-936,-177,-217,92
2630,-536,-1992,-896,-166,-246,101
2635,-352,-1960,-912,-139,-261,105
2640,-208,-1952,-880,-113,-255,106
2645,-8,-1944,-872,-103,-228,109
2650,200,-1944,-864,-109,-188,115
2655,408,-1984,-840,-114,-141,120
2660,576,-2000,-776,-112,-93,120
2665,744,-2024,-792,-94,-46,112
2670,824,-2024,-720,-70,-3,99
2675,896,-2024,-704,-51,36,81
2680,928,-1976,-728,-41,75,59
2685,968,-1944,-736,-37,111,36
2690,912,-1912,-696,-43,144,14
2695,912,-1872,-728,-51,176,-14
2700,816,-1936,-680,-67,206,-53
2705,728,-1952,-624,-88,229,-93
2710,568,-1960,-624,-109,248,-136
2715,472,-2024,-560,-130,258,-180
2720,328,-2064,-552,-154,259,-221
2725,224,-2080,-488,-169,256,-260
2730,88,-2112,-496,-173,249,-296
2735,56,-2104,-480,-174,240,-325
2740,0,-2144,-464,-161,231,-344
2745,-40,-2072,-480,-143,211,-361
2750,-56,-2088,-432,-129,197,-361
2755,-80,-2064,-480,-105,185,-351
2760,-88,-2048,-472,-77,167,-337
2765,-96,-2024,-496,-57,141,-322
2770,-80,-1976,-480,-41,111,-304
2775,-64,-1952,-504,-19,89,-280
2780,-32,-1936,-472,3,70,-254
2785,0,-1880,-456,21,51,-233
2790,16,-1888,-480,34,36,-212
2795,40,-1864,-488,40,26,-197
2800,88,-1848,-432,42,19,-188
2805,96,-1840,-440,43,16,-179
2810,112,-1824,-448,41,15,-172
2815,120,-1808,-408,37,11,-166
2820,96,-1792,-376,32,8,-161
2825,160,-1808,-368,23,2,-156
2830,216,-1808,-328,13,-3,-153
2835,232,-1808,-344,-2,-8,-152
2840,232,-1800,-352,-14,-8,-145
2845,280,-1816,-352,-33,-3,-136
2850,320,-1816,-312,-50,4,-123
2855,336,-1800,-296,-59,13,-116
2860,328,-1832,-280,-65,22,-108
2865,368,-1848,-296,-75,29,-102
2870,392,-1864,-264,-84,34,-94
2875,400,-1904,-232,-91,36,-88
2880,384,-1960,-192,-95,38,-85
2885,424,-1896,-216,-92,40,-81
2890,416,-1920,-200,-81,41,-78
2895,392,-1968,-192,-69,43,-73
2900,352,-1944,-136,-59,46,-68
2905,360,-1968,-184,-56,53,-59
2910,312,-1976,-144,-54,60,-50
2915,280,-1984,-144,-49,67,-38
2920,240,-1928,-192,-40,70,-30
2925,240,-1928,-168,-32,72,-19
2930,200,-1920,-192,-24,72,-6
2935,144,-1792,-272,-17,71,4
2940,200,-1896,-200,-13,71,15
2945,136,-1808,-208,-10,72,30
2950,168,-1800,-184,-9,77,45
2955,176,-1792,-160,-10,85,59
2960,208,-1792,-152,-17,95,70
2965,216,-1816,-160,-25,108,84
2970,272,-1816,-168,-35,123,97
2975,264,-1784,-152,-41,137,108
2980,280,-1776,-168,-49,147,116
2985,296,-1776,-192,-57,157,121
2990,320,-1784,-152,-71,166,121
2995,328,-1792,-208,-96,176,121
3000,320,-1800,-248,-123,185,119
3005,336,-1856,-232,-152,193,117
3010,304,-1872,-216,-181,197,116
3015,312,-1952,-160,-200,194,113
3020,288,-2040,-144,-208,188,109
3025,280,-2064,-144,-202,177,108
3030,256,-2096,-128,-189,166,108
3035,232,-2144,-120,-172,154,107
3040,184,-2184,-96,-159,139,109
3045,136,-2224,-80,-145,119,112
3050,72,-2288,-64,-135,94,116
3055,32,-2328,-56,-125,69,125
3060,24,-2360,-56,-109,42,138
3065,0,-2376,-16,-89,16,149
3070,-24,-2416,-24,-69,-10,161
3075,0,-2432,-48,-46,-33,169
3080,0,-2456,-56,-28,-53,174
3085,32,-2400,-48,-6,-70,177
3090,72,-2400,-64,18,-83,178
3095,128,-2384,-40,44,-97,179
3100,136,-2360,-24,67,-111,185
3105,160,-2384,-16,88,-126,186
3110,176,-2312,-8,104,-140,190
3115,176,-2360,32,115,-154,196
3120,176,-2352,96,124,-168,197
3125,176,-2352,88,129,-181,197
3130,144,-2320,152,124,-192,195
3135,168,-2336,192,122,-203,198
3140,136,-2336,264,133,-219,195
3145,136,-2376,272,149,-240,195
3150,160,-2408,280,157,-261,191
3155,208,-2432,272,158,-282,187
3160,224,-2496,216,144,-301,173
3165,248,-2544,152,117,-313,152
3170,232,-2600,24,63,-320,124
3175,256,-2728,-128,-26,-328,93
3180,224,-2824,-312,-135,-334,63
3185,224,-2888,-408,-237,-341,39
3190,296,-2976,-472,-297,-352,14
3195,400,-3032,-480,-296,-359,-10
3200,496,-3064,-488,-249,-356,-30
3205,624,-3032,-496,-179,-337,-49
3210,728,-2976,-584,-121,-296,-69
3215,824,-2936,-648,-92,-232,-93
3220,816,-2816,-744,-86,-157,-121
3225,744,-2656,-848,-88,-81,-145
3230,648,-2512,-944,-72,-22,-158
3235,576,-2368,-1016,-33,16,-157
3240,520,-2184,-1056,17,38,-149
3245,432,-2008,-1064,71,42,-139
3250,336,-1880,-1080,113,26,-124
3255,216,-1760,-1072,137,-2,-104
3260,80,-1640,-1072,137,-36,-85
3265,-88,-1552,-1072,115,-76,-66
3270,-288,-1488,-1008,74,-124,-44
3275,-448,-1456,-928,24,-182,-22
3280,-512,-1488,-872,-23,-238,1
3285,-576,-1528,-784,-61,-284,23
3290,-656,-1552,-680,-90,-321,41
3295,-696,-1608,-664,-110,-343,55
3300,-688,-1664,-608,-120,-356,71
3305,-600,-1752,-536,-115,-363,89
3310,-488,-1816,-504,-105,-362,109
3315,-360,-1952,-480,-99,-345,139
3320,-256,-2032,-472,-105,-317,170
3325,-104,-2104,-424,-120,-282,201
3330,0,-2144,-400,-134,-243,231
3335,120,-2232,-424,-145,-207,256
3340,208,-2280,-424,-146,-172,277
3345,296,-2320,-448,-134,-140,291
3350,352,-2344,-440,-103,-109,303
3355,368,-2328,-480,-63,-78,312
3360,376,-2312,-512,-16,-51,318
3365,400,-2240,-520,25,-26,320
3370,400,-2128,-536,59,1,323
3375,368,-2064,-520,81,27,322
3380,328,-2024,-544,88,48,315
3385,312,-1976,-528,87,74,305
3390,224,-1928,-504,84,103,299
3395,192,-1872,-512,80,133,292
3400,128,-1888,-504,66,167,281
3405,64,-1816,-504,50,205,272
3410,32,-1832,-488,33,241,263
3415,16,-1816,-456,15,269,255
3420,-8,-1792,-456,-3,288,247
3425,-24,-1800,-424,-16,301,239
3430,-104,-1800,-416,-24,304,233
3435,-88,-1808,-400,-35,299,226
3440,-104,-1800,-352,-42,293,218
3445,-112,-1808,-392,-44,285,213
3450,-128,-1784,-384,-41,278,206
3455,-168,-1760,-376,-39,280,203
3460,-152,-1776,-376,-49,276,200
3465,-152,-1744,-392,-64,273,195
3470,-168,-1752,-384,-79,269,190
3475,-168,-1752,-368,-98,264,188
3480,-184,-1776,-336,-114,259,182
3485,-128,-1816,-344,-129,259,175
3490,-144,-1824,-288,-138,265,169
3495,-128,-1856,-320,-141,273,163
3500,-112,-1888,-248,-139,280,158
3505,-96,-1920,-312,-134,288,153
3510,-120,-1904,-272,-131,290,143
3515,-64,-1928,-264,-128,281,132
3520,-104,-1920,-264,-120,267,120
3525,-72,-1912,-272,-109,252,105
3530,-32,-1920,-256,-95,236,85
3535,-48,-1896,-288,-83,223,64
3540,-16,-1880,-240,-76,214,36
3545,0,-1920,-224,-77,215,8
3550,0,-1904,-232,-77,216,-23
3555,-32,-1912,-192,-77,223,-51
3560,-16,-1928,-200,-76,230,-78
3565,-16,-1944,-176,-73,237,-102
3570,-72,-1952,-160,-63,241,-123
3575,-80,-1960,-160,-44,241,-144
3580,-104,-1936,-176,-24,240,-163
3585,-120,-1856,-168,-7,233,-178
3590,-136,-1920,-160,6,228,-193
3595,-112,-1936,-112,12,220,-206
3600,-144,-1920,-112,11,213,-219
3605,-96,-1904,-88,9,206,-232
3610,-104,-1952,-56,3,202,-247
3615,-96,-1944,-56,-5,199,-258
3620,-104,-1944,-80,-15,197,-266
3625,-96,-1960,-88,-29,196,-274
3630,-104,-1984,-112,-45,193,-277
3635,-120,-2024,-120,-68,189,-275
3640,-80,-2048,-144,-92,189,-271
3645,-56,-2064,-168,-114,190,-262
3650,-32,-2088,-208,-132,196,-255
3655,-16,-2144,-200,-149,210,-248
3660,24,-2232,-184,-159,228,-242
3665,56,-2256,-192,-151,252,-241
3670,80,-2336,-176,-132,281,-241
3675,136,-2400,-128,-106,309,-246
3680,128,-2448,-136,-74,332,-251
3685,208,-2448,-64,-46,351,-255
3690,208,-2472,-80,-24,363,-258
3695,200,-2496,-80,-12,373,-262
3700,200,-2488,-80,-6,381,-266
3705,200,-2496,8,-1,385,-268
3710,176,-2472,48,6,391,-266
3715,168,-2496,80,16,396,-263
3720,152,-2488,120,32,405,-256
3725,112,-2448,184,52,420,-244
3730,104,-2384,208,76,438,-230
3735,56,-2368,248,103,455,-214
3740,16,-2320,264,132,475,-193
3745,32,-2256,288,160,494,-171
3750,72,-2240,296,188,512,-151
3755,104,-2184,304,216,534,-136
3760,168,-2176,352,238,558,-121
3765,208,-2168,360,255,584,-113
3770,224,-2176,392,265,614,-108
3775,240,-2224,352,278,643,-111
3780,272,-2376,200,275,673,-116
3785,336,-2512,-8,233,704,-122
3790,320,-2592,-288,131,753,-124
3795,352,-2712,-600,-21,830,-133
3800,304,-2800,-728,-182,923,-152
3805,152,-2880,-616,-255,995,-167
3810,-88,-2880,-480,-171,1003,-161
3815,-248,-2792,-432,-9,943,-131
3820,-352,-2728,-400,96,851,-96
3825,-456,-2680,-440,124,768,-76
3830,-616,-2560,-560,113,691,-66
3835,-720,-2496,-768,82,608,-55
3840,-760,-2400,-928,27,523,-25
3845,-728,-2272,-1080,-40,440,17
3850,-704,-2120,-1232,-91,370,73
3855,-696,-2008,-1344,-109,310,132
3860,-696,-1888,-1312,-105,270,187
3865,-576,-1832,-1288,-89,257,236
3870,-432,-1840,-1200,-84,279,272
3875,-176,-1896,-1080,-96,333,290
3880,64,-1968,-984,-116,409,293
3885,328,-2048,-832,-128,482,286
3890,608,-2160,-752,-122,538,275
3895,800,-2200,-744,-96,574,263
3900,976,-2232,-688,-58,601,254
3905,1016,-2224,-672,-20,622,240
3910,1048,-2168,-664,9,642,207
3915,1056,-2112,-680,35,660,160
3920,1032,-2056,-648,61,681,105
3925,904,-2008,-656,86,706,42
3930,736,-1960,-640,94,726,-25
3935,568,-1960,-624,83,744,-94
3940,408,-1992,-584,58,759,-161
3945,216,-2016,-544,32,771,-228
3950,56,-2016,-520,4,779,-294
3955,0,-2048,-472,-18,782,-357
3960,-104,-2048,-440,-22,784,-412
3965,-176,-2032,-448,-12,780,-459
3970,-232,-2040,-424,3,776,-493
3975,-304,-2016,-408,17,767,-516
3980,-336,-1976,-384,18,738,-532
3985,-336,-1960,-360,9,694,-532
3990,-328,-1952,-360,6,652,-503
3995,-312,-1976,-376,8,615,-463
4000,-296,-1952,-376,16,578,-420
4005,-248,-1896,-376,21,529,-378
4010,-208,-1848,-368,21,479,-339
4015,-160,-1816,-424,15,431,-307
4020,-96,-1808,-416,11,390,-276
4025,0,-1728,-440,4,357,-254
4030,16,-1712,-440,-8,330,-237
4035,24,-1680,-424,-19,309,-220
4040,80,-1680,-408,-33,293,-200
4045,120,-1720,-328,-51,280,-187
4050,136,-1720,-344,-66,267,-178
4055,184,-1744,-304,-80,254,-175
4060,216,-1760,-304,-95,236,-172
4065,208,-1760,-264,-112,222,-171
4070,240,-1752,-264,-129,208,-165
4075,216,-1776,-240,-146,192,-162
4080,240,-1784,-280,-166,178,-157
4085,232,-1856,-240,-186,166,-144
4090,288,-1888,-208,-203,150,-132
4095,232,-1912,-168,-212,133,-124
4100,216,-1936,-160,-212,112,-118
4105,248,-1944,-160,-199,93,-109
4110,240,-1960,-120,-184,79,-94
4115,264,-1968,-96,-167,74,-76
4120,240,-1936,-128,-157,77,-60
4125,240,-2056,-80,-143,80,-48
4130,216,-1936,-128,-122,84,-39
4135,208,-1904,-152,-97,87,-26
4140,216,-1872,-160,-75,90,-12
4145,144,-1856,-192,-61,94,-2
4150,152,-1848,-216,-62,97,11
4155,160,-1848,-208,-75,101,23
4160,160,-1864,-168,-96,104,35
4165,144,-1824,-176,-123,99,48
4170,136,-1832,-160,-153,92,60
4175,144,-1832,-184,-183,85,73
4180,184,-1880,-216,-203,76,86
4185,160,-1824,-240,-217,67,99
4190,176,-1784,-192,-219,69,108
4195,208,-1816,-160,-210,71,116
4200,208,-1816,-144,-201,79,118
4205,248,-1872,-176,-199,86,120
4210,272,-1896,-168,-193,93,115
4215,288,-1920,-128,-182,94,104
4220,312,-1976,-120,-169,92,89
4225,288,-1992,-104,-154,87,72
4230,248,-2048,-112,-144,78,55
4235,256,-2072,-88,-139,67,42
4240,184,-2112,-80,-132,52,30
4245,144,-2192,-72,-112,37,21
4250,88,-2208,-64,-84,21,19
4255,72,-2248,-64,-54,7,23
4260,-8,-2224,-64,-23,-9,34
4265,-48,-2256,-112,2,-25,49
4270,-88,-2248,-144,16,-43,65
4275,-96,-2288,-176,23,-61,79
4280,-72,-2288,-152,30,-75,91
4285,-64,-2304,-176,34,-87,98
4290,-24,-2328,-176,34,-99,101
4295,-24,-2368,-168,34,-110,103
4300,0,-2392,-136,35,-122,104
4305,8,-2384,-96,39,-135,105
4310,24,-2400,-80,48,-152,107
4315,32,-2408,-56,53,-171,112
4320,48,-2384,0,54,-193,117
4325,72,-2416,8,55,-212,122
4330,96,-2432,104,55,-233,125
4335,112,-2408,160,56,-255,123
4340,80,-2424,224,58,-274,120
4345,72,-2424,232,62,-298,117
4350,88,-2448,248,64,-331,112
4355,72,-2488,272,67,-359,107
4360,88,-2536,280,74,-387,103
4365,72,-2616,168,74,-419,90
4370,56,-2696,136,55,-448,70
4375,48,-2808,0,14,-471,45
4380,64,-2904,-160,-46,-484,17
4385,112,-3000,-336,-110,-490,-6
4390,152,-3080,-408,-162,-497,-31
4395,288,-3136,-504,-185,-503,-58
4400,424,-3160,-544,-168,-501,-86
4405,528,-3080,-576,-118,-486,-111
4410,680,-3072,-576,-60,-451,-139
4415,776,-2984,-600,-14,-398,-166
4420,840,-2856,-712,16,-329,-191
4425,792,-2664,-808,41,-259,-209
4430,752,-2488,-896,73,-196,-216
4435,672,-2256,-968,120,-148,-215
4440,624,-2080,-1008,171,-115,-205
4445,544,-1880,-1000,219,-93,-191
4450,416,-1712,-1024,243,-88,-174
4455,296,-1592,-1024,248,-100,-149
4460,184,-1528,-1032,238,-135,-118
4465,8,-1456,-992,210,-183,-83
4470,-152,-1392,-920,178,-231,-50
4475,-320,-1376,-888,148,-274,-21
4480,-392,-1392,-832,119,-310,-3
4485,-464,-1416,-808,73,-333,9
4490,-520,-1504,-768,12,-351,15
4495,-552,-1544,-712,-47,-367,22
4500,-568,-1656,-688,-85,-382,30
4505,-536,-1768,-600,-113,-399,44
4510,-456,-1904,-576,-136,-404,60
4515,-376,-2016,-504,-158,-394,76
4520,-256,-2080,-432,-173,-367,93
4525,-152,-2152,-384,-177,-333,109
4530,-32,-2200,-392,-177,-294,128
4535,56,-2224,-376,-173,-254,153
4540,168,-2280,-312,-171,-215,176
4545,296,-2320,-296,-158,-179,199
4550,368,-2352,-328,-130,-149,223
4555,392,-2352,-360,-95,-125,249
4560,400,-2344,-440,-58,-105,270
4565,376,-2288,-464,-34,-94,289
4570,408,-2208,-496,-19,-83,309
4575,352,-2144,-496,-1,-67,329
4580,320,-2120,-488,7,-55,345
4585,264,-2056,-480,8,-46,351
4590,232,-1976,-448,0,-39,354
4595,160,-1984,-384,-5,-30,353
4600,136,-1960,-400,-9,-24,344
4605,64,-1920,-360,-14,-18,335
4610,24,-1904,-352,-15,-14,327
4615,-8,-1872,-328,-8,-13,315
4620,-112,-1832,-360,-2,-18,302
4625,-112,-1792,-360,-1,-27,283
4630,-184,-1768,-392,0,-35,270
4635,-232,-1728,-376,-3,-49,254
4640,-256,-1704,-352,-16,-66,237
4645,-272,-1696,-344,-29,-78,224
4650,-272,-1680,-344,-41,-90,212
4655,-280,-1656,-336,-52,-107,202
4660,-280,-1632,-280,-64,-119,197
4665,-232,-1672,-280,-71,-130,196
4670,-208,-1672,-248,-74,-143,193
4675,-160,-1664,-224,-82,-167,191
4680,-112,-1712,-232,-96,-190,185
4685,-104,-1704,-192,-102,-201,182
4690,-72,-1712,-176,-110,-215,183
4695,-24,-1744,-128,-131,-232,179
4700,-40,-1776,-80,-142,-245,174
4705,8,-1816,-96,-138,-264,171
4710,-8,-1848,-128,-121,-276,165
4715,-24,-1856,-120,-94,-290,153
4720,64,-1824,-192,-62,-303,139
4725,-32,-1784,-152,-26,-308,124
4730,-32,-1744,-168,4,-314,101
4735,-64,-1696,-184,18,-317,76
4740,-64,-1664,-144,20,-317,51
4745,-56,-1664,-184,13,-316,25
4750,-96,-1640,-168,-2,-314,0
4755,-120,-1664,-144,-20,-316,-24
4760,-144,-1656,-136,-43,-320,-45
4765,-168,-1696,-112,-68,-323,-67
4770,-184,-1792,-40,-94,-330,-85
4775,-176,-1776,-80,-121,-338,-108
4780,-192,-1808,-64,-145,-346,-129
4785,-240,-1848,-16,-163,-353,-146
4790,-256,-1928,-8,-175,-356,-153
4795,-240,-1984,0,-181,-355,-160
4800,-216,-1992,0,-183,-351,-166
4805,-192,-2016,-8,-181,-338,-171
4810,-168,-2056,-16,-177,-322,-178
4815,-96,-2064,-88,-176,-304,-187
4820,-56,-2120,-96,-178,-285,-196
4825,16,-2216,-144,-176,-268,-205
4830,56,-2288,-144,-173,-246,-216
4835,120,-2360,-160,-164,-227,-229
4840,104,-2384,-144,-152,-214,-240
4845,112,-2424,-168,-133,-211,-246
4850,88,-2464,-160,-123,-218,-245
4855,64,-2488,-160,-119,-224,-234
4860,48,-2504,-128,-118,-228,-220
4865,40,-2504,-104,-116,-219,-204
4870,24,-2488,-88,-115,-197,-191
4875,40,-2512,-32,-118,-165,-180
4880,16,-2552,40,-122,-127,-163
4885,32,-2568,112,-127,-87,-140
4890,88,-2600,248,-120,-55,-111
4895,72,-2592,320,-100,-29,-82
4900,88,-2576,384,-65,-11,-56
4905,72,-2536,392,-21,1,-33
4910,64,-2504,416,22,12,-11
4915,136,-2456,472,61,28,-2
4920,144,-2440,408,91,52,-1
4925,128,-2424,360,120,81,-3
4930,168,-2448,224,134,117,-9
4935,248,-2544,80,116,165,-11
4940,288,-2672,-64,49,227,-9
4945,336,-2784,-312,-65,304,-5
4950,376,-2944,-480,-207,389,-6
4955,336,-3096,-552,-325,453,-1
4960,208,-3168,-512,-350,481,19
4965,48,-3192,-456,-254,468,61
4970,-176,-3120,-280,-103,415,124
4975,-328,-3016,-272,21,339,185
4980,-480,-2840,-296,91,260,235
4985,-632,-2664,-440,130,178,261
4990,-744,-2536,-560,139,85,271
4995,-744,-2368,-816,121,1,275
5000,-656,-2192,-1016,76,-57,282
5005,-624,-2040,-1184,8,-98,284
5010,-512,-1936,-1320,-43,-127,280
5015,-456,-1840,-1296,-58,-145,275
5020,-344,-1752,-1272,-51,-149,274
5025,-200,-1760,-1216,-49,-129,270
5030,0,-1768,-1144,-71,-80,260
5035,200,-1816,-1048,-109,-7,243
5040,384,-1856,-992,-151,73,220
5045,560,-1880,-896,-187,150,201
5050,696,-1904,-872,-211,215,190
5055,760,-1912,-872,-223,268,181
5060,848,-1912,-864,-226,309,171
5065,840,-1880,-888,-231,344,151
5070,832,-1888,-912,-235,376,127
5075,728,-1896,-816,-240,404,92
5080,656,-1920,-776,-243,421,42
5085,488,-1976,-704,-243,433,-7
5090,312,-2032,-640,-247,437,-57
5095,200,-2128,-592,-259,427,-107
5100,32,-2160,-536,-274,410,-156
5105,-56,-2240,-496,-283,392,-202
5110,-160,-2280,-496,-283,370,-249
5115,-224,-2272,-456,-273,346,-292
5120,-256,-2280,-480,-260,321,-333
5125,-264,-2152,-448,-241,295,-364
5130,-272,-2136,-448,-217,268,-381
5135,-272,-2064,-472,-186,238,-386
5140,-264,-2024,-472,-153,199,-380
5145,-232,-1992,-480,-122,158,-365
5150,-216,-1936,-488,-98,120,-343
5155,-192,-1912,-440,-81,85,-312
5160,-160,-1872,-504,-68,57,-281
5165,-128,-1808,-496,-66,33,-259
5170,-72,-1784,-520,-71,13,-246
5175,0,-1744,-512,-80,-1,-243
5180,32,-1704,-488,-85,-9,-243
5185,40,-1680,-472,-85,-12,-251
5190,128,-1680,-440,-92,-12,-257
5195,176,-1704,-400,-100,-4,-269
5200,176,-1728,-376,-104,0,-282
5205,184,-1728,-384,-107,3,-292
5210,224,-1760,-336,-109,2,-298
5215,216,-1792,-336,-111,-1,-305
5220,184,-1808,-280,-116,-5,-313
5225,192,-1792,-304,-118,-15,-315
5230,176,-1792,-280,-119,-24,-310
5235,176,-1784,-272,-115,-31,-297
5240,152,-1776,-304,-110,-41,-284
5245,144,-1776,-288,-109,-48,-270
5250,152,-1784,-280,-107,-55,-256
5255,120,-1784,-296,-108,-60,-239
5260,160,-1792,-320,-109,-67,-222
5265,160,-1824,-272,-112,-73,-205
5270,168,-1824,-280,-114,-80,-186
5275,152,-1824,-264,-109,-88,-170
5280,152,-1840,-256,-103,-97,-149
5285,128,-1824,-256,-97,-104,-129
5290,152,-1824,-280,-83,-112,-106
5295,152,-1840,-288,-66,-118,-80
5300,152,-1856,-272,-57,-123,-51
5305,104,-1840,-304,-54,-128,-23
5310,120,-1816,-240,-51,-134,-2
5315,120,-1816,-224,-47,-139,20
5320,152,-1864,-224,-45,-144,46
5325,160,-1880,-176,-45,-145,70
5330,184,-1896,-200,-45,-142,93
5335,184,-1904,-152,-41,-135,112
5340,208,-1928,-136,-33,-128,128
5345,264,-1920,-136,-24,-117,143
5350,312,-1960,-128,-11,-107,156
5355,320,-1968,-88,1,-95,169
5360,336,-1952,-88,17,-81,178
5365,336,-2008,40,29,-66,187
5370,376,-1984,-96,38,-51,192
5375,336,-1968,-104,43,-35,194
5380,336,-2008,-128,39,-24,191
5385,360,-2024,-136,34,-15,188
5390,328,-2000,-136,28,-8,181
5395,312,-1976,-104,21,-7,175
5400,264,-2000,-128,15,-10,172
5405,248,-2008,-120,10,-18,168
5410,184,-2024,-72,7,-31,170
5415,136,-2056,-104,-2,-47,174
5420,96,-2080,-72,-9,-66,184
5425,32,-2144,-56,-12,-90,195
5430,0,-2184,-80,-15,-115,210
5435,-48,-2256,-72,-16,-141,225
5440,-56,-2296,-80,-11,-168,238
5445,-88,-2360,-8,-2,-194,250
5450,-56,-2416,-80,9,-219,257
5455,-56,-2432,-48,26,-243,256
5460,-24,-2480,-24,41,-262,256
5465,0,-2520,-8,55,-280,250
5470,40,-2560,0,71,-295,242
5475,80,-2576,64,88,-308,226
5480,136,-2608,136,108,-318,212
5485,160,-2608,184,134,-325,194
5490,224,-2624,232,163,-336,177
5495,256,-2608,320,196,-352,162
5500,248,-2568,400,227,-376,150
5505,256,-2536,408,258,-408,143
5510,280,-2480,408,286,-443,142
5515,312,-2424,424,307,-479,143
5520,296,-2408,360,311,-512,142
5525,328,-2448,192,288,-543,142
5530,240,-2488,8,217,-568,135
5535,160,-2576,-256,92,-584,124
5540,80,-2712,-480,-81,-597,110
5545,-16,-2872,-608,-260,-608,96
5550,-24,-2992,-624,-379,-622,81
5555,64,-3040,-608,-395,-637,65
5560,216,-3064,-648,-322,-650,47
5565,384,-3072,-744,-236,-651,17
5570,568,-3024,-784,-192,-632,-24
5575,616,-2896,-896,-195,-588,-82
5580,608,-2776,-952,-223,-528,-141
5585,512,-2552,-1056,-237,-473,-193
5590,472,-2328,-1128,-216,-437,-238
5595,424,-2152,-1208,-165,-418,-275
5600,360,-2008,-1248,-101,-410,-298
5605,240,-1912,-1280,-42,-415,-317
5610,128,-1848,-1192,2,-429,-328
5615,-64,-1832,-1160,27,-438,-328
5620,-216,-1792,-1112,27,-439,-314
5625,-320,-1768,-1024,12,-431,-296
5630,-384,-1768,-960,-11,-392,-285
5635,-472,-1800,-816,-34,-338,-277
5640,-520,-1816,-736,-49,-284,-258
5645,-544,-1880,-600,-50,-246,-223
5650,-512,-1896,-576,-33,-237,-169
5655,-440,-1984,-512,-12,-240,-96
5660,-304,-2016,-480,4,-236,-19
5665,-184,-2008,-488,12,-219,55
5670,-40,-2032,-480,9,-193,128
5675,56,-2056,-496,-1,-163,192
5680,184,-2080,-488,-13,-136,253
5685,288,-2080,-448,-16,-107,312
5690,360,-2096,-424,-15,-85,361
5695,440,-2096,-432,-7,-66,404
5700,464,-2064,-432,16,-43,438
5705,464,-2064,-448,45,-20,464
5710,448,-2008,-488,79,6,479
5715,480,-1968,-472,116,36,483
5720,448,-1904,-440,146,72,472
5725,432,-1864,-472,171,115,453
5730,392,-1832,-472,181,158,422
5735,344,-1784,-488,190,212,387
5740,288,-1784,-496,195,272,359
5745,224,-1736,-520,190,329,332
5750,152,-1696,-520,174,377,306
5755,120,-1648,-560,150,417,279
5760,56,-1624,-576,127,453,266
5765,0,-1584,-592,104,481,257
5770,-16,-1576,-632,77,502,246
5775,-88,-1536,-536,44,517,234
5780,-160,-1528,-552,1,528,220
5785,-192,-1504,-560,-55,533,206
5790,-216,-1512,-552,-123,533,195
5795,-264,-1512,-544,-191,527,182
5800,-272,-1528,-576,-262,518,170
5805,-296,-1552,-552,-321,505,160
5810,-344,-1592,-528,-375,491,154
5815,-312,-1664,-488,-420,482,146
5820,-280,-1736,-424,-457,481,138
5825,-264,-1808,-392,-477,487,127
5830,-256,-1872,-328,-479,497,114
5835,-256,-1968,-280,-468,507,104
5840,-248,-2024,-256,-453,510,94
5845,-224,-2112,-200,-425,505,79
5850,-208,-2128,-200,-376,494,60
5855,-168,-2128,-200,-321,480,37
5860,-168,-2128,-152,-267,466,12
5865,-120,-2128,-176,-229,455,-13
5870,-128,-2056,-184,-202,443,-43
5875,-88,-2040,-200,-175,432,-69
5880,-48,-2016,-168,-147,423,-91
5885,-32,-1976,-192,-113,415,-111
5890,0,-1896,-200,-85,409,-129
5895,8,-1840,-240,-74,399,-148
5900,8,-1816,-208,-82,387,-167
5905,56,-1808,-256,-102,379,-183
5910,40,-1784,-232,-135,375,-200
5915,32,-1760,-192,-174,369,-214
5920,72,-1768,-224,-215,363,-224
5925,64,-1784,-208,-257,355,-231
5930,48,-1816,-184,-290,345,-228
5935,120,-1824,-152,-302,337,-222
5940,96,-1872,-96,-304,347,-217
5945,144,-1936,-104,-293,365,-209
5950,128,-1936,-80,-276,391,-203
5955,112,-1992,-104,-257,413,-199
5960,200,-1968,-176,-241,431,-200
5965,96,-2080,-232,-231,446,-203
5970,88,-2080,-336,-218,452,-205
5975,24,-2168,-344,-211,462,-214
5980,16,-2200,-408,-197,464,-216
5985,32,-2264,-392,-183,469,-223
5990,-16,-2296,-360,-168,483,-228
5995,-8,-2376,-304,-152,500,-236
6000,16,-2424,-280,-132,520,-246
6005,8,-2464,-240,-112,543,-263
6010,16,-2496,-208,-86,557,-276
6015,72,-2472,-136,-67,562,-287
6020,48,-2440,-120,-54,562,-298
6025,64,-2472,-120,-49,559,-301
6030,48,-2488,-88,-47,554,-299
6035,-8,-2520,-32,-55,553,-294
6040,-32,-2536,24,-57,554,-281
6045,-8,-2552,56,-52,559,-260
6050,0,-2560,136,-37,562,-234
6055,0,-2552,208,-4,567,-208
6060,8,-2504,264,34,572,-184
6065,40,-2464,304,82,578,-162
6070,40,-2408,344,133,587,-138
6075,72,-2336,344,183,605,-122
6080,80,-2336,288,224,629,-111
6085,120,-2368,144,247,665,-104
6090,200,-2448,8,238,709,-102
6095,248,-2528,-208,175,767,-97
6100,320,-2664,-512,32,839,-93
6105,312,-2840,-840,-195,907,-90
6110,304,-3032,-976,-437,940,-83
6115,208,-3160,-928,-573,928,-57
6120,16,-3176,-776,-526,875,-3
6125,-128,-3096,-624,-360,793,67
6130,-312,-3032,-608,-215,701,132
6135,-624,-2896,-680,-134,603,178
6140,-816,-2744,-880,-103,501,213
6145,-832,-2608,-1160,-99,406,243
6150,-768,-2456,-1464,-99,325,271
6155,-784,-2224,-1560,-96,262,297
6160,-712,-2040,-1624,-87,216,326
6165,-632,-1848,-1608,-70,187,359
6170,-496,-1816,-1480,-61,186,385
6175,-328,-1848,-1352,-71,209,395
6180,-128,-1952,-1184,-94,247,389
6185,56,-2072,-1056,-123,301,377
6190,232,-2152,-1040,-147,352,356
6195,368,-2216,-1064,-173,393,337
6200,480,-2200,-1016,-190,429,324
6205,584,-2184,-960,-183,462,309
6210,664,-2176,-856,-152,486,274
6215,680,-2152,-688,-97,491,217
6220,664,-2128,-584,-41,487,144
6225,544,-2080,-576,-5,468,63
6230,464,-2088,-536,8,451,-16
6235,320,-2120,-528,14,440,-89
6240,200,-2176,-536,21,437,-154
6245,48,-2144,-544,33,423,-222
6250,0,-2144,-536,25,381,-293
6255,-80,-2160,-504,17,347,-347
6260,-120,-2112,-520,36,324,-380
6265,-216,-2008,-520,58,300,-407
6270,-216,-1880,-576,70,267,-428
6275,-288,-1800,-560,90,243,-433
6280,-344,-1704,-576,111,212,-433
6285,-344,-1616,-632,113,166,-433
6290,-352,-1576,-608,101,116,-423
6295,-336,-1568,-592,81,77,-394
6300,-304,-1584,-616,50,44,-361
6305,-256,-1624,-560,16,14,-325
6310,-200,-1616,-536,-1,-15,-293
6315,-136,-1624,-488,-8,-40,-262
6320,-64,-1672,-520,-8,-56,-240
6325,0,-1648,-504,-8,-68,-227
6330,56,-1632,-504,-8,-79,-221
6335,128,-1608,-504,-5,-92,-221
6340,144,-1616,-496,-7,-102,-226
6345,232,-1600,-512,-14,-113,-235
6350,256,-1600,-504,-26,-118,-241
6355,304,-1600,-480,-34,-113,-241
6360,312,-1624,-464,-41,-109,-236
6365,312,-1664,-416,-49,-103,-231
6370,312,-1656,-472,-60,-103,-223
6375,344,-1688,-432,-66,-103,-215
6380,304,-1712,-424,-70,-104,-204
6385,312,-1744,-400,-75,-104,-190
6390,304,-1784,-384,-69,-104,-172
6395,344,-1840,-400,-64,-97,-151
6400,304,-1856,-344,-57,-91,-130
6405,280,-1880,-352,-43,-86,-109
6410,272,-1888,-328,-25,-80,-89
6415,256,-1888,-288,-7,-74,-71
6420,256,-1896,-304,7,-68,-50
6425,200,-1880,-304,16,-59,-28
6430,176,-1848,-248,25,-49,-7
6435,168,-1840,-256,37,-41,11
6440,120,-1816,-248,52,-32,26
6445,136,-1800,-224,64,-21,44
6450,80,-1832,-184,73,-12,64
6455,104,-1784,-184,85,-2,85
6460,112,-1792,-200,99,10,106
6465,104,-1800,-224,110,25,124
6470,152,-1776,-200,109,36,136
6475,160,-1784,-160,107,46,149
6480,200,-1816,-168,107,54,157
6485,248,-1856,-120,104,60,164
6490,264,-1880,-80,101,62,166
6495,256,-1912,-96,99,62,167
6500,272,-1944,-64,102,62,169
6505,264,-1952,-80,108,60,171
6510,288,-1968,-56,119,58,171
6515,288,-2040,-24,132,56,170
6520,232,-2000,-64,146,58,168
6525,232,-2032,-80,156,56,167
6530,160,-2040,-120,156,52,169
6535,144,-2072,-168,146,45,171
6540,104,-2104,-176,131,37,173
6545,48,-2152,-184,113,20,172
6550,16,-2208,-144,98,0,173
6555,24,-2344,-16,90,-23,171
6560,-80,-2312,-112,92,-46,175
6565,-144,-2344,-120,101,-66,184
6570,-136,-2400,-136,111,-83,196
6575,-104,-2448,-120,117,-89,205
6580,-104,-2472,-136,118,-92,206
6585,-88,-2520,-96,119,-97,203
6590,-16,-2536,-40,120,-112,198
6595,8,-2544,0,124,-136,187
6600,32,-2584,48,129,-166,173
6605,64,-2608,152,139,-195,155
6610,48,-2624,208,159,-225,129
6615,104,-2616,304,190,-248,103
6620,56,-2576,368,238,-271,74
6625,72,-2504,408,290,-303,47
6630,72,-2448,360,328,-338,29
6635,96,-2424,336,373,-376,16
6640,64,-2416,232,403,-420,3
6645,32,-2416,56,408,-466,-9
6650,-40,-2440,-144,373,-513,-19
6655,-144,-2536,-360,279,-558,-29
6660,-168,-2680,-608,124,-596,-41
6665,-144,-2848,-760,-58,-626,-52
6670,-120,-2944,-984,-218,-658,-73
6675,0,-2984,-984,-293,-690,-101
6680,160,-2920,-1024,-245,-709,-146
6685,408,-2800,-1112,-129,-705,-213
6690,600,-2680,-1240,-37,-683,-302
6695,720,-2536,-1400,-11,-648,-398
6700,704,-2376,-1528,-49,-620,-492
6705,632,-2136,-1600,-103,-587,-564
6710,600,-2016,-1672,-140,-555,-612
6715,512,-1904,-1632,-144,-511,-639
6720,472,-1864,-1512,-118,-459,-651
6725,424,-1920,-1416,-82,-396,-649
6730,280,-2016,-1176,-76,-317,-631
6735,104,-2160,-1016,-108,-243,-599
6740,-72,-2336,-816,-163,-182,-543
6745,-224,-2536,-648,-198,-143,-470
6750,-344,-2624,-592,-187,-125,-388
6755,-384,-2656,-544,-140,-118,-303
6760,-368,-2648,-560,-81,-118,-218
6765,-288,-2584,-584,-32,-115,-132
6770,-200,-2536,-592,-3,-104,-47
6775,-64,-2480,-592,20,-90,40
6780,56,-2424,-544,41,-72,123
6785,200,-2368,-520,61,-48,200
6790,304,-2312,-488,79,-26,272
6795,392,-2264,-448,106,0,337
6800,408,-2184,-448,142,24,391
6805,400,-2112,-448,182,39,425
6810,376,-2080,-416,219,55,460
6815,392,-2048,-440,249,74,489
6820,344,-1960,-464,267,95,507
6825,400,-1928,-464,274,123,518
6830,368,-1816,-424,276,153,519
6835,400,-1752,-472,276,179,510
6840,408,-1704,-456,273,207,497
6845,400,-1648,-488,261,233,471
6850,408,-1568,-440,250,265,449
6855,384,-1480,-512,241,305,425
6860,320,-1432,-520,226,336,400
6865,216,-1360,-520,207,373,377
6870,168,-1344,-504,178,404,354
6875,88,-1304,-480,144,427,338
6880,0,-1272,-448,109,440,325
6885,-56,-1248,-432,71,440,316
6890,-120,-1248,-456,37,427,305
6895,-144,-1320,-384,8,405,293
6900,-192,-1352,-344,-24,385,283
6905,-216,-1440,-336,-55,373,280
6910,-264,-1504,-344,-90,370,277
6915,-304,-1544,-336,-117,370,265
6920,-320,-1600,-328,-139,372,250
6925,-312,-1640,-312,-152,374,236
6930,-320,-1680,-320,-162,375,227
6935,-304,-1784,-304,-173,375,221
6940,-296,-1816,-240,-174,373,210
6945,-304,-1872,-216,-162,368,195
6950,-280,-1896,-200,-142,357,179
6955,-280,-1920,-176,-114,339,158
6960,-248,-1944,-136,-86,316,136
6965,-224,-1888,-136,-62,290,109
6970,-192,-1920,-128,-37,264,77
6975,-168,-1920,-128,-12,237,42
6980,-176,-1872,-160,16,204,9
6985,-168,-1808,-176,38,173,-20
6990,-216,-1784,-168,51,144,-46
6995,-184,-1792,-168,53,116,-69
7000,-160,-1776,-128,51,89,-91
7005,-184,-1760,-128,39,67,-113
7010,-176,-1768,-96,22,48,-134
7015,-192,-1800,-80,6,30,-154
7020,-208,-1840,-8,-6,9,-169
7025,-200,-1856,-40,-4,-13,-179
7030,-184,-1896,16,6,-35,-188
7035,-176,-1888,8,23,-57,-197
7040,-168,-1928,32,33,-76,-204
7045,-160,-1920,32,34,-93,-208
7050,-168,-1968,8,29,-111,-211
7055,-144,-1968,8,16,-126,-213
7060,-112,-1976,0,-6,-131,-212
7065,-88,-2008,-56,-36,-127,-213
7070,-16,-2048,-128,-70,-112,-212
7075,8,-2096,-112,-100,-84,-211
7080,48,-2136,-152,-128,-45,-211
7085,112,-2216,-128,-145,4,-210
7090,104,-2264,-176,-148,49,-205
7095,144,-2312,-112,-146,88,-200
7100,216,-2408,-112,-134,113,-197
7105,224,-2416,-96,-123,123,-192
7110,216,-2464,-112,-114,123,-187
7115,208,-2480,-56,-111,125,-185
7120,192,-2488,-16,-103,128,-176
7125,168,-2480,0,-94,138,-172
7130,176,-2488,56,-92,158,-161
7135,168,-2512,136,-100,187,-154
7140,88,-2536,232,-109,221,-147
7145,80,-2552,320,-109,256,-140
7150,104,-2496,288,-95,281,-132
7155,0,-2552,416,-66,301,-122
7160,-8,-2520,448,-34,319,-113
7165,-48,-2504,504,1,338,-105
7170,-48,-2456,520,37,358,-94
7175,-24,-2432,472,75,387,-85
7180,-32,-2384,448,110,426,-85
7185,0,-2392,344,140,470,-84
7190,32,-2440,160,150,519,-89
7195,144,-2536,32,109,578,-95
7200,200,-2664,-176,13,646,-95
7205,256,-2800,-672,-155,717,-99
7210,256,-2984,-976,-381,778,-104
7215,120,-3144,-968,-562,808,-99
7220,-112,-3264,-808,-557,793,-60
7225,-320,-3216,-600,-387,728,8
7230,-496,-3112,-528,-198,622,86
7235,-672,-2984,-480,-85,498,154
7240,-856,-2808,-544,-31,374,214
7245,-912,-2552,-768,-8,264,267
7250,-816,-2384,-960,-29,166,299
7255,-624,-2168,-1208,-75,85,319
7260,-488,-2040,-1376,-144,14,324
7265,-368,-1920,-1520,-208,-50,332
7270,-208,-1896,-1528,-248,-88,343
7275,-24,-1896,-1424,-261,-95,351
7280,144,-1984,-1296,-257,-68,353
7285,360,-2088,-1104,-248,-13,349
7290,528,-2208,-976,-249,61,335
7295,680,-2288,-912,-258,143,319
7300,760,-2296,-912,-264,219,310
7305,832,-2288,-912,-259,287,301
7310,944,-2240,-888,-242,346,285
7315,1024,-2192,-776,-220,397,251
7320,1024,-2152,-704,-185,433,199
7325,936,-2104,-640,-148,463,142
7330,752,-2088,-552,-131,484,81
7335,544,-2088,-544,-140,484,9
7340,384,-2104,-528,-163,469,-68
7345,248,-2072,-504,-183,444,-143
7350,88,-2104,-488,-197,412,-211
7355,0,-2120,-496,-205,378,-276
7360,-88,-2088,-480,-202,351,-336
7365,-208,-2024,-472,-184,322,-387
7370,-184,-2008,-496,-175,277,-433
7375,-192,-1936,-448,-158,247,-469
7380,-208,-1848,-456,-135,229,-491
7385,-224,-1832,-464,-125,211,-500
7390,-272,-1720,-480,-126,191,-503
7395,-256,-1704,-480,-136,163,-492
7400,-256,-1600,-456,-144,137,-459
7405,-248,-1616,-472,-152,112,-423
7410,-184,-1632,-432,-162,95,-384
7415,-128,-1600,-400,-171,85,-344
7420,-40,-1656,-440,-181,75,-309
7425,8,-1656,-384,-195,65,-285
7430,64,-1656,-344,-208,50,-275
7435,128,-1608,-360,-212,42,-265
7440,176,-1568,-344,-200,38,-260
7445,200,-1560,-296,-186,31,-257
7450,264,-1544,-336,-172,18,-255
7455,280,-1512,-320,-169,4,-257
7460,296,-1496,-304,-178,-10,-256
7465,296,-1456,-328,-192,-24,-249
7470,304,-1480,-328,-214,-36,-234
7475,272,-1440,-360,-244,-44,-215
7480,280,-1440,-392,-277,-47,-189
7485,264,-1440,-424,-318,-40,-164
7490,296,-1480,-400,-357,-25,-142
7495,296,-1512,-392,-394,-5,-122
7500,296,-1560,-360,-430,19,-105
7505,336,-1640,-336,-462,41,-95
7510,368,-1688,-272,-484,59,-91
7515,416,-1784,-288,-498,72,-94
7520,432,-1872,-224,-497,84,-100
7525,424,-1936,-192,-482,94,-103
7530,376,-1960,-184,-450,102,-102
7535,376,-2008,-200,-411,103,-96
7540,328,-2000,-184,-368,100,-83
7545,240,-1952,-216,-325,92,-65
7550,184,-1936,-232,-276,80,-44
7555,128,-1888,-224,-229,67,-22
7560,112,-1904,-224,-183,57,3
7565,88,-1872,-232,-142,48,29
7570,40,-1856,-264,-107,39,52
7575,8,-1840,-184,-79,30,74
7580,16,-1808,-248,-61,21,95
7585,40,-1808,-216,-49,9,117
7590,40,-1808,-184,-43,-3,134
7595,72,-1816,-160,-48,-16,146
7600,80,-1832,-184,-65,-24,157
7605,112,-1880,-176,-86,-33,166
7610,96,-1880,-160,-103,-40,174
7615,120,-1968,-184,-114,-49,181
7620,136,-1992,-152,-121,-61,184
7625,120,-2032,-112,-117,-77,187
7630,104,-2072,-32,-101,-99,189
7635,136,-2184,-16,-77,-130,191
7640,128,-2264,8,-52,-170,191
7645,112,-2336,72,-22,-217,190
7650,112,-2376,24,14,-263,183
7655,72,-2448,80,54,-309,171
7660,80,-2512,88,94,-351,156
7665,88,-2520,40,134,-379,143
7670,56,-2552,16,177,-391,135
7675,16,-2528,8,215,-397,129
7680,16,-2472,-48,242,-400,124
7685,40,-2480,-40,261,-399,120
7690,24,-2440,-32,278,-393,120
7695,32,-2440,24,287,-398,119
7700,56,-2432,16,295,-408,125
7705,136,-2472,96,296,-426,128
7710,176,-2552,176,300,-445,131
7715,256,-2568,296,302,-466,132
7720,392,-2624,336,311,-475,135
7725,480,-2664,392,325,-471,135
7730,560,-2704,440,336,-455,128
7735,592,-2712,464,348,-433,121
7740,624,-2608,352,365,-415,113
7745,648,-2656,464,379,-405,110
7750,632,-2592,440,390,-400,112
7755,608,-2584,416,391,-396,117
7760,592,-2544,408,387,-390,124
7765,616,-2464,384,386,-375,125
7770,632,-2344,256,386,-358,127
7775,688,-2312,8,372,-337,123
7780,728,-2296,-336,329,-314,115
7785,712,-2304,-728,229,-297,109
7790,696,-2320,-1176,74,-293,106
7795,648,-2320,-1720,-148,-305,102
7800,680,-2280,-2504,-445,-326,97
7805,656,-2312,-3000,-790,-348,97
7810,656,-2344,-3192,-1088,-357,90
7815,712,-2456,-3096,-1237,-336,68
7820,696,-2608,-2848,-1216,-297,16
7825,544,-2872,-2480,-1061,-261,-60
7830,344,-3064,-2104,-827,-228,-142
7835,168,-3184,-1680,-581,-184,-215
7840,48,-3296,-1312,-340,-97,-281
7845,-144,-3320,-960,-128,35,-348
7850,-408,-3312,-768,49,177,-407
7855,-696,-3208,-656,181,295,-448
7860,-880,-3040,-704,263,359,-452
7865,-992,-2832,-736,308,393,-401
7870,-1000,-2632,-784,340,383,-322
7875,-912,-2480,-792,367,346,-227
7880,-744,-2288,-800,383,305,-120
7885,-536,-2152,-808,372,267,-10
7890,-224,-2112,-808,336,231,93
7895,16,-2088,-848,287,202,187
7900,272,-2048,-824,223,178,282
7905,392,-2040,-896,152,172,377
7910,504,-2088,-920,75,165,468
7915,560,-2040,-880,-8,159,555
7920,568,-2072,-848,-94,160,642
7925,552,-2120,-736,-169,161,720
7930,488,-2088,-648,-227,162,784
7935,416,-2072,-640,-252,157,828
7940,368,-2064,-560,-247,149,848
7945,312,-2024,-520,-224,145,849
7950,296,-1952,-528,-187,164,841
7955,280,-1896,-520,-149,202,828
7960,272,-1736,-528,-124,250,806
7965,248,-1696,-512,-110,309,776
7970,192,-1616,-512,-115,372,743
7975,136,-1560,-504,-126,439,709
7980,72,-1512,-488,-140,507,681
7985,32,-1464,-504,-148,572,659
7990,-16,-1416,-488,-160,626,632
7995,-64,-1384,-520,-167,681,607
8000,-160,-1312,-488,-170,732,589
8005,-184,-1304,-464,-164,763,580
8010,-208,-1296,-472,-153,780,568
8015,-192,-1256,-464,-147,792,551
8020,-176,-1312,-440,-141,800,535
8025,-168,-1312,-448,-136,808,523
8030,-120,-1320,-464,-132,815,509
8035,-48,-1368,-480,-137,821,492
8040,-16,-1448,-472,-142,830,473
8045,-8,-1520,-440,-140,839,454
8050,0,-1616,-448,-130,844,432
8055,-32,-1664,-440,-120,842,408
8060,-64,-1760,-392,-98,835,389
8065,-72,-1824,-400,-65,824,368
8070,-88,-1840,-400,-30,810,348
8075,-72,-1912,-440,2,801,328
8080,-72,-1872,-416,24,802,311
8085,-40,-1912,-464,38,811,289
8090,-16,-1904,-488,54,829,257
8095,16,-1872,-512,70,850,223
8100,-8,-1904,-536,80,863,185
8105,0,-1920,-528,88,872,153
8110,8,-1928,-520,95,876,128
8115,24,-1976,-528,89,867,99
8120,0,-2024,-536,82,860,69
8125,-64,-2080,-504,76,854,39
8130,-80,-2168,-472,71,840,15
8135,-112,-2248,-464,70,818,-3
8140,-128,-2352,-408,77,791,-15
8145,-144,-2424,-368,97,768,-22
8150,-160,-2496,-320,135,754,-28
8155,-176,-2568,-232,190,750,-34
8160,-192,-2616,-192,254,749,-44
8165,-200,-2616,-128,325,747,-53
8170,-216,-2608,-128,398,738,-65
8175,-256,-2560,-104,460,727,-83
8180,-312,-2416,-104,504,718,-106
8185,-352,-2288,-104,516,709,-132
8190,-376,-2144,-104,503,696,-157
8195,-384,-1992,-80,469,683,-182
8200,-368,-1816,-16,427,669,-203
8205,-352,-1632,-16,365,660,-220
8210,-336,-1536,8,274,651,-239
8215,-264,-1504,-32,148,641,-259
8220,-240,-1488,-152,2,624,-280
8225,-192,-1544,-200,-148,604,-304
8230,-160,-1600,-248,-284,598,-326
8235,-96,-1712,-288,-394,607,-348
8240,-64,-1840,-232,-468,639,-373
8245,-16,-1960,-152,-523,670,-394
8250,0,-2080,-104,-577,693,-410
8255,88,-2208,-16,-609,695,-416
8260,96,-2344,8,-607,682,-416
8265,80,-2464,-8,-566,657,-408
8270,80,-2496,-88,-507,626,-391
8275,80,-2520,-104,-456,604,-373
8280,112,-2488,-152,-408,588,-357
8285,88,-2440,-184,-369,580,-341
8290,8,-2400,-272,-341,576,-324
8295,-8,-2368,-328,-316,569,-308
8300,-40,-2336,-400,-298,566,-288
8305,-72,-2312,-496,-296,571,-268
8310,-80,-2336,-552,-307,579,-244
8315,-128,-2352,-608,-334,585,-219
8320,-160,-2408,-608,-366,585,-188
8325,-160,-2488,-608,-399,578,-153
8330,-176,-2624,-560,-415,567,-116
8335,-264,-2608,-496,-414,545,-78
8340,-280,-2688,-488,-402,513,-39
8345,-256,-2672,-512,-383,472,-3
8350,-200,-2648,-528,-363,424,24
8355,-248,-2584,-616,-332,371,41
8360,-288,-2496,-688,-290,314,51
8365,-288,-2360,-776,-238,262,57
8370,-304,-2272,-824,-189,219,65
8375,-344,-2120,-864,-155,188,73
8380,-368,-2056,-896,-137,163,78
8385,-352,-1968,-912,-124,146,79
8390,-392,-1928,-976,-121,139,85
8395,-360,-1856,-1032,-127,137,89
8400,-336,-1760,-1088,-141,146,93
8405,-288,-1744,-1168,-173,174,91
8410,-264,-1688,-1296,-217,211,87
8415,-224,-1648,-1376,-265,252,81
8420,-184,-1616,-1384,-316,300,76
8425,-104,-1664,-1432,-360,344,67
8430,-40,-1712,-1448,-397,376,49
8435,8,-1824,-1392,-429,401,24
8440,48,-1920,-1376,-465,415,-9
8445,72,-2040,-1256,-486,427,-42
8450,96,-2144,-1168,-497,427,-68
8455,120,-2248,-1120,-490,418,-93
8460,104,-2360,-1032,-477,408,-116
8465,72,-2464,-952,-459,400,-129
8470,80,-2544,-872,-432,383,-148
8475,96,-2608,-792,-394,359,-172
8480,80,-2632,-736,-355,330,-198
8485,128,-2648,-760,-325,290,-229
8490,112,-2600,-800,-299,241,-258
8495,128,-2512,-840,-276,191,-285
8500,120,-2408,-896,-254,151,-309
8505,136,-2272,-936,-239,123,-328
8510,104,-2176,-1008,-233,117,-333
8515,88,-2088,-1000,-243,126,-331
8520,104,-2032,-968,-255,152,-321
8525,72,-2024,-920,-266,186,-306
8530,64,-1992,-872,-267,223,-289
8535,40,-2008,-800,-267,261,-273
8540,16,-2032,-744,-270,293,-267
8545,16,-2048,-672,-273,320,-267
8550,0,-2064,-568,-267,338,-275
8555,0,-2096,-512,-260,337,-295
8560,40,-2120,-480,-251,317,-322
8565,16,-2104,-488,-224,305,-344
8570,24,-2088,-408,-186,290,-366
8575,16,-2048,-400,-147,270,-393
8580,8,-1968,-424,-106,253,-420
8585,8,-1920,-400,-62,236,-446
8590,0,-1816,-400,-28,219,-464
8595,-8,-1744,-488,-9,192,-484
8600,8,-1648,-488,-6,159,-503
8605,-16,-1584,-520,-6,142,-509
8610,-32,-1520,-544,-14,124,-505
8615,-56,-1472,-528,-32,106,-495
8620,-40,-1480,-544,-49,95,-482
8625,0,-1448,-520,-62,78,-475
8630,0,-1440,-528,-77,64,-463
8635,32,-1432,-520,-86,59,-446
8640,64,-1432,-488,-93,56,-431
8645,112,-1464,-496,-89,62,-412
8650,152,-1456,-480,-88,72,-397
8655,168,-1416,-464,-85,69,-390
8660,192,-1432,-472,-83,65,-372
8665,240,-1392,-472,-85,59,-351
8670,272,-1368,-488,-96,54,-331
8675,328,-1384,-432,-111,52,-307
8680,320,-1384,-384,-124,54,-285
8685,312,-1344,-416,-138,61,-262
8690,320,-1392,-384,-155,72,-238
8695,248,-1392,-392,-170,78,-217
8700,256,-1408,-416,-188,85,-195
8705,240,-1488,-400,-198,97,-169
8710,208,-1496,-400,-199,112,-144
8715,216,-1520,-400,-185,125,-117
8720,176,-1536,-384,-163,132,-91
8725,160,-1536,-432,-155,130,-64
8730,104,-1528,-448,-151,123,-33
8735,96,-1536,-432,-154,111,-4
8740,112,-1536,-488,-160,96,26
8745,112,-1536,-440,-166,88,53
8750,104,-1528,-424,-166,84,77
8755,128,-1568,-392,-165,83,95
8760,144,-1584,-368,-165,84,108
8765,136,-1600,-384,-173,85,114
8770,192,-1640,-384,-193,88,119
8775,208,-1720,-440,-211,93,116
8780,224,-1792,-432,-229,96,110
8785,240,-1896,-432,-241,95,101
8790,248,-1944,-432,-251,86,89
8795,280,-2024,-384,-250,66,72
8800,296,-2096,-376,-245,39,51
8805,280,-2144,-352,-236,4,22
8810,248,-2192,-352,-230,-34,-6
8815,168,-2200,-336,-229,-66,-33
8820,96,-2224,-360,-229,-88,-57
8825,56,-2232,-360,-224,-93,-76
8830,16,-2248,-424,-218,-87,-93
8835,8,-2264,-400,-209,-76,-106
8840,-24,-2264,-416,-197,-64,-116
8845,-24,-2248,-368,-187,-52,-118
8850,-64,-2240,-384,-183,-59,-120
8855,-16,-2272,-296,-183,-81,-119
8860,32,-2360,-272,-185,-105,-116
8865,32,-2400,-208,-187,-141,-118
8870,72,-2496,-176,-194,-189,-123
8875,96,-2568,-168,-207,-239,-129
8880,136,-2680,-104,-235,-289,-135
8885,136,-2768,-96,-257,-329,-137
8890,152,-2832,-96,-265,-364,-142
8895,216,-2864,-72,-264,-399,-143
8900,240,-2872,-112,-265,-423,-146
8905,320,-2840,-200,-272,-436,-159
8910,384,-2768,-328,-276,-435,-173
8915,432,-2624,-520,-296,-428,-197
8920,512,-2512,-920,-347,-428,-223
8925,608,-2312,-1264,-440,-427,-240
8930,480,-2272,-1560,-576,-437,-250
8935,424,-2208,-1800,-747,-468,-252
8940,416,-2120,-2048,-942,-510,-244
8945,392,-2056,-2248,-1142,-551,-227
8950,416,-2048,-2456,-1321,-593,-197
8955,480,-2000,-2584,-1448,-651,-156
8960,472,-1968,-2576,-1505,-720,-106
8965,480,-1936,-2440,-1511,-768,-51
8970,464,-1864,-2256,-1483,-797,-12
8975,520,-1800,-2040,-1410,-808,-7
8980,680,-1680,-2024,-1277,-827,-29
8985,640,-1600,-2024,-1101,-836,-77
8990,592,-1504,-2032,-918,-832,-140
8995,544,-1360,-1944,-756,-809,-210
9000,408,-1288,-1864,-677,-780,-282
9005,288,-1232,-1816,-687,-762,-334
9010,240,-1176,-1680,-750,-759,-354
9015,232,-1176,-1648,-825,-755,-340
9020,272,-1184,-1664,-909,-746,-307
9025,296,-1224,-1728,-1019,-718,-271
9030,232,-1360,-1776,-1160,-663,-239
9035,144,-1512,-1712,-1307,-587,-207
9040,8,-1672,-1536,-1428,-506,-168
9045,24,-1888,-1184,-1498,-424,-124
9050,0,-2032,-832,-1489,-324,-71
9055,40,-2056,-544,-1393,-237,-17
9060,0,-1952,-384,-1245,-186,54
9065,176,-1744,-144,-1087,-159,144
9070,368,-1544,96,-936,-105,242
9075,520,-1360,280,-799,-15,334
9080,560,-1168,376,-678,70,374
9085,640,-1096,528,-619,114,368
9090,680,-1080,736,-597,128,348
9095,704,-1168,1032,-561,125,340
9100,712,-1296,1392,-501,131,344
9105,536,-1384,1360,-414,185,359
9110,552,-1464,1192,-330,244,393
9115,792,-1392,896,-223,303,426
9120,912,-1200,536,-142,412,430
9125,888,-1096,336,-170,551,412
9130,560,-1032,344,-278,704,392
9135,360,-1008,440,-404,795,383
9140,464,-944,304,-470,833,384
9145,616,-888,32,-477,893,376
9150,712,-824,-264,-484,995,362
9155,624,-808,-472,-557,1120,365
9160,432,-864,-608,-724,1224,393
9165,248,-1032,-672,-947,1296,427
9170,144,-1344,-688,-1164,1333,431
9175,8,-1640,-736,-1310,1335,396
9180,-184,-1880,-672,-1362,1288,332
9185,-240,-2048,-600,-1333,1197,270
9190,-288,-2224,-568,-1265,1086,225
9195,-272,-2400,-512,-1186,964,203
9200,-168,-2640,-560,-1080,841,204
9205,-64,-2912,-848,-942,703,222
9210,8,-3056,-1184,-792,564,232
9215,0,-3040,-1424,-690,449,209
9220,-64,-2960,-1568,-701,347,152
9225,-208,-2792,-1608,-816,259,78
9230,-336,-2592,-1624,-984,178,29
9235,-504,-2400,-1760,-1177,101,20
9240,-720,-2392,-2024,-1444,4,71
9245,-792,-2688,-2392,-1817,-172,231
9250,-752,-3208,-2600,-2270,-414,509
9255,-648,-3744,-2600,-2665,-671,801
9260,-600,-4112,-2672,-2855,-918,1019
9265,-392,-4368,-2888,-2877,-1145,1143
9270,-88,-4536,-3080,-2881,-1314,1209
9275,200,-4688,-3056,-2931,-1414,1257
9280,496,-4920,-2960,-2970,-1445,1312
9285,792,-5120,-2672,-2940,-1402,1355
9290,1056,-5224,-2464,-2812,-1311,1370
9295,1264,-5160,-2344,-2609,-1206,1358
9300,1480,-4968,-2312,-2394,-1098,1329
9305,1560,-4616,-2232,-2186,-970,1290
9310,1600,-4080,-2192,-1991,-815,1235
9315,1736,-3680,-1848,-1856,-644,1181
9320,1632,-3040,-1648,-1644,-480,1074
9325,1568,-2312,-1632,-1411,-318,965
9330,1520,-1616,-1672,-1270,-133,869
9335,1432,-1040,-1600,-1250,80,780
9340,1368,-536,-1456,-1304,315,701
9345,1344,-128,-1224,-1397,543,630
9350,1384,96,-976,-1503,727,558
9355,1440,192,-752,-1596,848,471
9360,1432,224,-568,-1673,929,379
9365,1376,176,-472,-1733,997,291
9370,1224,112,-400,-1749,1103,228
9375,944,56,-304,-1714,1255,199
9380,608,32,-288,-1667,1389,186
9385,296,0,-264,-1653,1449,190
9390,8,-8,-256,-1665,1455,200
9395,-224,8,-160,-1669,1428,195
9400,-400,40,-128,-1654,1403,181
9405,-448,32,-64,-1630,1374,155
9410,-496,112,32,-1606,1332,111
9415,-560,120,176,-1576,1299,62
9420,-696,120,240,-1561,1284,16
9425,-776,112,336,-1536,1295,-34
9430,-848,128,240,-1493,1310,-107
9435,-920,264,176,-1450,1318,-194
9440,-976,448,-120,-1429,1321,-289
9445,-1016,704,-488,-1466,1315,-396
9450,-1024,872,-872,-1574,1307,-516
9455,-1024,1032,-1128,-1697,1266,-635
9460,-1032,1192,-1160,-1798,1155,-737
9465,-1016,1296,-1176,-1877,954,-799
9470,-960,1256,-1264,-1956,668,-817
9475,-920,1192,-1424,-2050,322,-788
9480,-800,984,-1544,-2164,-44,-724
9485,-744,720,-1560,-2273,-397,-625
9490,-672,496,-1552,-2354,-708,-502
9495,-600,280,-1448,-2382,-929,-383
9500,-472,152,-1424,-2335,-1042,-271
9505,-296,136,-1480,-2244,-1063,-174
9510,-56,200,-1592,-2165,-1048,-92
9515,48,344,-1808,-2098,-995,-34
9520,144,504,-2008,-2083,-901,12
9525,216,552,-2080,-2127,-785,37
9530,192,568,-1912,-2173,-670,50
9535,216,504,-1784,-2187,-559,64
9540,224,424,-1592,-2187,-454,76
9545,208,336,-1448,-2179,-343,80
9550,208,184,-1296,-2178,-225,78
9555,240,48,-1192,-2194,-106,70
9560,288,-120,-1112,-2191,3,63
9565,240,-304,-976,-2137,85,63
9570,336,-280,-1024,-2042,153,61
9575,368,-312,-960,-1956,208,56
9580,248,-216,-856,-1927,252,38
9585,392,-312,-624,-2013,254,0
9590,336,-432,-376,-2039,338,-4
9595,416,-504,-256,-1992,426,-13
9600,400,-520,-208,-1920,504,-32
9605,344,-568,-280,-1837,602,-73
9610,320,-584,-496,-1787,681,-131
9615,336,-680,-552,-1774,734,-202
9620,344,-696,-576,-1784,740,-284
9625,304,-640,-520,-1800,697,-371
9630,344,-584,-352,-1854,601,-453
9635,328,-520,-96,-1965,449,-517
9640,216,-560,-64,-2062,234,-580
9645,48,-592,-176,-2131,-32,-636
9650,-80,-704,-432,-2162,-322,-684
9655,-288,-824,-536,-2167,-621,-701
9660,-432,-1016,-536,-2087,-933,-695
9665,-576,-1176,-528,-1905,-1263,-658
9670,-744,-1256,-872,-1661,-1590,-607
9675,-800,-1432,-1344,-1467,-1878,-554
9680,-912,-1368,-1864,-1407,-2143,-506
9685,-920,-1568,-2136,-1294,-2369,-423
9690,-1056,-1544,-2256,-1125,-2670,-279
9695,-1120,-1360,-2456,-889,-3095,-54
9700,-1144,-1040,-2568,-618,-3593,221
9705,-1176,-800,-2688,-390,-4050,499
9710,-1248,-624,-2808,-242,-4394,735
9715,-1424,-592,-3032,-115,-4634,897
9720,-1736,-528,-3448,92,-4857,991
9725,-2224,-280,-3896,393,-5131,1021
9730,-2568,96,-4296,669,-5487,1038
9735,-2840,768,-4288,777,-5876,1071
9740,-2752,1576,-4128,816,-6366,1188
9745,-3160,3016,-3024,919,-6893,1415
9750,-3824,7744,-14848,1205,-7496,1998
9755,-12336,12064,-9792,1342,-2349,4575
9760,-10920,24936,-20824,-1559,296,7134
9765,12080,19560,-11000,-7786,778,9582
9770,24760,5664,592,-9253,-3014,7241
9775,5208,-3272,816,-6521,-7297,2430
9780,-1528,-8096,-9144,-5373,-7227,435
9785,-5840,-9584,-8576,-6566,-5785,294
9790,-13112,-512,-760,-7222,-4729,1585
9795,-8384,7008,-6904,-5772,-3182,2932
9800,-9200,11512,-9928,-4426,-2611,2454
9805,-10680,13056,-10592,-3198,-3327,1190
9810,-10616,11944,-11768,-1863,-3943,479
9815,-6896,6416,-10552,-1025,-4257,-109
9820,-6808,6296,-8400,-104,-4473,-1578
9825,-4984,3448,-2936,504,-4837,-2965
9830,-3992,2688,88,1007,-5095,-4220
9835,-3680,2680,-400,1188,-4797,-5077
9840,-1552,-88,3488,636,-4077,-5336
9845,-344,-560,2800,1157,-3333,-5182
9850,1120,-1696,2672,1672,-2923,-4636
9855,1616,-1136,2408,2173,-2752,-4247
9860,2096,-32,1552,3009,-2396,-3669
9865,3056,752,248,3822,-1761,-2925
9870,3272,1400,-648,4078,-943,-2532
9875,3224,1984,-976,3686,-180,-2479
9880,3344,2160,-872,3040,511,-2530
9885,3320,2152,-808,2495,1162,-2520
9890,3416,1808,-968,2139,1763,-2386
9895,3128,1528,-928,1862,2294,-2212
9900,2568,1096,-840,1533,2694,-2031
9905,2104,632,-808,1148,2953,-1879
9910,976,552,-992,822,3088,-1759
9915,56,200,-1048,672,3137,-1568
9920,-688,-32,-976,693,3107,-1336
9925,-1416,-72,-760,764,2986,-1111
9930,-1792,16,-568,736,2828,-941
9935,-2168,224,-256,556,2662,-795
9940,-2520,448,72,338,2518,-643
9945,-2416,528,152,209,2401,-489
9950,-2072,584,128,165,2329,-358
9955,-1968,640,112,99,2206,-292
9960,-1792,440,72,35,2054,-245
9965,-1840,504,128,26,1913,-195
9970,-1560,448,0,79,1778,-56
9975,-1200,352,0,200,1683,101
9980,-856,400,-120,386,1647,253
9985,-624,776,-352,533,1659,411
9990,-248,912,-480,549,1667,559
9995,96,1064,-672,572,1743,663
10000,736,1120,-952,602,1879,713
10005,368,1568,-1136,564,2004,674
10010,-24,1520,-2064,443,2136,708
10015,88,1408,-792,173,2371,712
10020,-352,1512,-800,214,2354,644
10025,-616,1088,-2360,96,2447,563
10030,-736,1000,-1696,-185,2776,346
10035,-1400,880,-2712,-189,2916,147
10040,-2376,1392,-2824,-194,3420,-23
10045,-1544,472,-1424,-289,3534,-145
10050,-1408,848,-2384,-68,3548,-367
10055,-856,928,-1896,-215,3681,-514
10060,96,824,-1728,-399,3405,-585
10065,-384,-256,-1752,-174,3062,-478
10070,-664,536,-2960,199,2383,-344
10075,-3016,264,-2304,359,1596,-266
10080,-1864,272,-4760,918,1069,36
10085,-1496,416,-2512,519,1261,202
10090,-1816,1768,-3536,242,1344,221
10095,-3024,1120,-3808,264,1334,189
10100,-3568,880,-6120,537,837,338
10105,-752,-496,-3968,39,497,663
10110,-2320,1184,-3872,-211,485,746
10115,-224,1584,-3168,-274,551,774
10120,-688,1848,-2768,-191,741,642
10125,-1840,2008,-2584,-91,1125,476
10130,-1976,1736,-3216,-8,1379,308
10135,-1744,1136,-3080,34,1462,241
10140,-1808,944,-3040,37,1457,216
10145,-1824,984,-3144,22,1383,210
10150,-1688,1000,-3184,-41,1269,203
10155,-1368,752,-3232,-81,1115,184
10160,-1280,872,-3128,-92,940,162
10165,-1208,912,-3000,-92,771,138
10170,-1136,832,-2904,-97,617,110
10175,-912,672,-2576,-129,477,85
10180,-816,536,-2400,-136,378,68
10185,-560,592,-2288,-157,312,65
10190,-616,624,-2152,-204,271,67
10195,-696,704,-2080,-238,238,63
10200,-792,752,-1984,-254,233,70
10205,-264,512,-1920,-300,219,83
10210,-480,424,-1984,-292,264,74
10215,-424,312,-1912,-283,308,40
10220,-296,48,-1880,-217,319,12
10225,-536,64,-1864,-131,335,-12
10230,-512,32,-1944,-45,349,-31
10235,-376,-24,-2008,11,348,-63
10240,-352,-8,-1936,33,336,-87
10245,-248,0,-1960,57,326,-104
10250,-304,8,-1960,91,317,-119
10255,-368,0,-1992,115,289,-120
10260,-408,88,-2000,123,266,-116
10265,-328,152,-1976,138,258,-116
10270,-392,88,-1976,146,252,-121
10275,-352,104,-2008,160,245,-123
10280,-344,104,-2048,173,238,-128
10285,-344,64,-2080,188,242,-134
10290,-384,64,-2064,200,245,-135
10295,-368,56,-2072,205,251,-137
10300,-384,48,-2128,216,256,-138
10305,-376,32,-2128,225,263,-139
10310,-392,40,-2128,231,270,-138
10315,-392,16,-2168,239,276,-135
10320,-408,56,-2224,241,283,-129
10325,-392,8,-2224,249,290,-126
10330,-392,24,-2272,259,291,-121
10335,-392,8,-2272,265,295,-117
10340,-472,16,-2264,267,298,-114
10345,-456,24,-2312,282,288,-112
10350,-464,0,-2344,288,279,-109
10355,-456,-24,-2336,275,267,-103
10360,-416,-56,-2344,257,257,-89
10365,-416,-48,-2344,236,260,-76
10370,-440,-40,-2320,219,262,-61
10375,-472,0,-2360,202,251,-50
10380,-448,0,-2408,189,236,-42
10385,-424,-8,-2400,173,221,-35
10390,-384,8,-2384,151,218,-31
10395,-440,0,-2400,128,214,-30
10400,-424,0,-2376,105,214,-30
10405,-416,0,-2368,84,214,-28
10410,-448,0,-2384,67,211,-24
10415,-448,-8,-2424,53,203,-25
10420,-488,-32,-2448,35,187,-22
10425,-464,-56,-2432,20,174,-23
10430,-496,-32,-2376,5,162,-20
10435,-496,-8,-2384,-8,151,-19
10440,-504,-16,-2392,-16,142,-21
10445,-472,0,-2368,-23,132,-21
10450,-472,-16,-2352,-31,124,-20
10455,-456,-48,-2344,-32,115,-20
10460,-464,-40,-2312,-42,106,-20
10465,-448,-48,-2280,-51,97,-20
10470,-456,-40,-2288,-62,89,-20
10475,-472,0,-2240,-73,84,-20
10480,-440,-16,-2256,-83,77,-21
10485,-464,-32,-2232,-92,72,-21
10490,-464,-32,-2256,-97,63,-19
10495,-488,-16,-2256,-101,51,-16
10500,-488,-32,-2304,-99,41,-13
10505,-448,-24,-2256,-95,29,-12
10510,-432,-16,-2224,-93,23,-11
10515,-432,-8,-2240,-91,17,-9
10520,-432,8,-2280,-89,13,-7
10525,-416,8,-2232,-87,12,-7
10530,-400,8,-2248,-88,12,-6
10535,-424,16,-2280,-87,11,-6
10540,-416,32,-2248,-88,12,-5
10545,-408,8,-2232,-86,16,-5
10550,-440,16,-2264,-86,15,-2
10555,-400,32,-2240,-83,18,-2
10560,-408,24,-2264,-82,18,-1
10565,-400,24,-2256,-75,17,-3
10570,-392,8,-2288,-68,19,-3
10575,-392,24,-2248,-61,22,-1
10580,-376,8,-2280,-58,28,-1
10585,-392,32,-2256,-53,33,-2
10590,-424,32,-2312,-51,40,-2
10595,-368,16,-2272,-48,45,-1
10600,-408,32,-2248,-48,50,1
10605,-408,32,-2384,-45,56,0
10610,-400,32,-2264,-43,55,2
10615,-384,16,-2272,-43,54,2
10620,-400,16,-2328,-43,53,3
10625,-400,24,-2312,-44,54,3
10630,-400,24,-2288,-45,57,4
10635,-400,40,-2272,-46,60,4
10640,-416,40,-2288,-46,61,6
10645,-376,64,-2296,-43,62,5
10650,-376,40,-2272,-38,64,5
10655,-400,32,-2304,-32,59,3
10660,-392,40,-2296,-27,57,2
10665,-400,48,-2328,-24,55,1
10670,-512,88,-2264,-23,54,2
10675,-416,64,-2216,-26,57,1
10680,-416,56,-2264,-26,58,0
10685,-424,24,-2264,-29,58,0
10690,-424,16,-2280,-28,56,0
10695,-416,8,-2264,-27,57,1
10700,-400,24,-2264,-27,57,0
10705,-400,24,-2272,-26,55,0
10710,-392,32,-2280,-27,53,-2
10715,-424,48,-2232,-28,50,-2
10720,-424,32,-2256,-30,47,-3
10725,-416,24,-2232,-32,45,-5
10730,-400,8,-2240,-34,46,-5
10735,-432,32,-2248,-34,46,-6
10740,-416,16,-2272,-31,46,-7
10745,-416,16,-2296,-24,48,-9
10750,-424,16,-2280,-20,50,-10
10755,-432,24,-2312,-19,51,-12
10760,-392,16,-2280,-18,51,-13
10765,-416,0,-2272,-20,49,-14
10770,-392,0,-2280,-19,46,-14
10775,-408,8,-2256,-21,47,-15
10780,-400,8,-2264,-22,45,-15
10785,-400,0,-2272,-21,46,-16
10790,-480,0,-2240,-19,45,-13
10795,-400,0,-2296,-19,44,-14
10800,-400,0,-2248,-17,42,-14
10805,-384,8,-2312,-15,44,-14
10810,-400,8,-2272,-13,43,-15
10815,-384,0,-2296,-13,44,-15
10820,-392,8,-2296,-12,42,-15
10825,-408,24,-2296,-13,41,-15
10830,-392,0,-2304,-14,43,-14
10835,-392,0,-2288,-15,40,-12
10840,-408,8,-2288,-15,40,-14
10845,-376,0,-2224,-18,40,-12
10850,-376,0,-2288,-19,40,-13
10855,-384,0,-2256,-20,40,-12
10860,-384,0,-2280,-23,40,-13
10865,-400,0,-2280,-22,40,-11
10870,-376,0,-2288,-24,40,-9
10875,-376,8,-2264,-23,43,-9
10880,-392,8,-2256,-26,43,-7
10885,-376,-16,-2288,-27,45,-8
10890,-392,8,-2272,-31,46,-5
10895,-360,-16,-2264,-33,48,-4
10900,-384,0,-2264,-32,47,-4
10905,-368,0,-2256,-35,49,-4
10910,-392,8,-2224,-36,49,-2
10915,-376,0,-2272,-35,51,-3
10920,-368,16,-2272,-35,51,-2
10925,-392,0,-2272,-37,53,-2
10930,-376,0,-2272,-38,55,-2
10935,-392,0,-2256,-39,53,-1
10940,-368,8,-2264,-38,53,0
10945,-384,0,-2288,-37,53,-1
10950,-384,8,-2280,-38,53,0
10955,-392,24,-2304,-37,53,-1
10960,-376,8,-2288,-37,52,0
10965,-392,16,-2224,-39,51,-1
10970,-392,16,-2264,-39,50,1
10975,-376,24,-2272,-41,49,1
10980,-368,0,-2288,-43,47,-1
10985,-400,8,-2272,-46,47,0
10990,-384,8,-2288,-46,46,0
10995,-400,0,-2296,-45,44,-1
11000,-376,0,-2272,-43,45,-1
11005,-368,8,-2264,-41,44,-2
11010,-384,24,-2288,-40,46,-3
11015,-376,8,-2280,-38,44,-4
11020,-392,0,-2280,-35,43,-4
11025,-376,16,-2280,-33,40,-3
11030,-352,16,-2312,-32,37,-2
11035,-368,8,-2296,-31,35,-3
11040,-352,8,-2272,-34,33,-4
11045,-384,8,-2304,-34,32,-4
11050,-376,0,-2272,-34,33,-4
11055,-376,16,-2296,-35,32,-5
11060,-376,24,-2312,-35,31,-5
11065,-392,8,-2312,-34,30,-5
11070,-384,8,-2280,-34,30,-5
11075,-376,8,-2296,-34,29,-6
11080,-376,8,-2320,-35,27,-5
11085,-392,8,-2256,-35,25,-5
11090,-384,16,-2280,-32,22,-6
11095,-360,16,-2264,-33,19,-6
11100,-368,16,-2280,-31,18,-5
11105,-392,16,-2272,-29,18,-7
11110,-392,8,-2280,-28,18,-5
11115,-384,8,-2248,-28,17,-6
11120,-368,0,-2288,-28,15,-7
11125,-392,8,-2288,-30,14,-8
11130,-384,8,-2304,-31,15,-8
11135,-360,0,-2272,-31,16,-6
11140,-376,16,-2288,-31,16,-8
11145,-424,40,-2304,-31,13,-9
11150,-392,0,-2304,-32,5,-13
11155,-400,0,-2272,-31,5,-13
11160,-392,0,-2248,-30,14,-10
11165,-392,8,-2264,-32,22,-8
11170,-376,-8,-2272,-32,28,-7
11175,-368,0,-2256,-33,29,-7
11180,-376,16,-2288,-34,30,-8
11185,-368,0,-2304,-35,29,-7
11190,-376,8,-2296,-34,26,-6
11195,-392,0,-2264,-35,26,-5
11200,-376,0,-2280,-35,26,-5
11205,-376,8,-2312,-35,28,-5
11210,-368,32,-2288,-33,28,-5
11215,-360,0,-2296,-37,28,-6
11220,-384,-8,-2280,-36,29,-6
11225,-376,8,-2296,-36,28,-5
11230,-368,0,-2304,-36,29,-5
11235,-376,-16,-2272,-38,30,-4
11240,-376,0,-2272,-37,31,-4
11245,-376,8,-2272,-35,31,-4
11250,-368,-8,-2288,-33,30,-5
11255,-368,0,-2288,-32,30,-3
11260,-384,0,-2304,-29,28,-3
11265,-376,8,-2288,-28,28,-3
11270,-368,0,-2288,-29,28,-4
11275,-368,0,-2256,-30,27,-3
11280,-368,16,-2272,-33,30,-3
11285,-376,0,-2288,-31,31,-3
11290,-352,-16,-2280,-31,31,-4
11295,-368,0,-2248,-30,30,-4
11300,-384,-8,-2264,-28,30,-3
11305,-368,-8,-2304,-27,30,-3
11310,-376,-8,-2288,-29,27,-3
11315,-360,0,-2312,-31,27,-2
11320,-376,0,-2248,-36,28,-2
11325,-368,8,-2264,-38,29,-3
11330,-376,0,-2248,-40,29,-3
11335,-352,8,-2280,-35,29,-2
11340,-368,8,-2280,-29,31,-3
11345,-376,-8,-2304,-27,34,-4
11350,-360,0,-2296,-28,36,-4
11355,-360,8,-2296,-29,37,-3
11360,-360,0,-2272,-30,36,-4
11365,-344,0,-2312,-29,35,-4
11370,-336,0,-2288,-32,35,-4
11375,-352,-16,-2248,-34,34,-5
11380,-384,8,-2296,-34,32,-5
11385,-376,0,-2240,-37,32,-6
11390,-272,72,-2304,-37,31,-5
11395,-376,8,-2280,-36,31,-5
11400,-376,-8,-2280,-34,31,-4
11405,-392,8,-2296,-33,30,-4
11410,-368,8,-2280,-32,29,-5
11415,-384,8,-2296,-31,30,-3
11420,-376,8,-2328,-31,29,-5
11425,-344,0,-2296,-29,29,-5
11430,-352,0,-2264,-31,28,-4
11435,-368,0,-2272,-32,28,-4
11440,-344,16,-2304,-32,28,-6
11445,-416,24,-2304,-34,26,-7
11450,-352,0,-2264,-34,26,-5
11455,-368,8,-2280,-34,26,-6
11460,-376,0,-2288,-35,25,-5
11465,-384,0,-2264,-35,24,-7
11470,-352,0,-2264,-35,26,-5
11475,-376,8,-2288,-35,28,-6
11480,-344,-24,-2296,-35,28,-5
11485,-344,16,-2280,-33,27,-4
11490,-352,0,-2264,-34,28,-4
11495,-368,0,-2272,-34,28,-5
11500,-384,8,-2288,-34,27,-5
11505,-400,8,-2304,-34,27,-6
11510,-352,-16,-2280,-35,25,-5
11515,-360,0,-2288,-34,25,-5
11520,-344,0,-2280,-34,25,-6
11525,-368,8,-2280,-32,25,-6
11530,-368,0,-2264,-33,25,-5
11535,-360,0,-2288,-34,24,-5
11540,-384,0,-2280,-35,24,-5
11545,-368,0,-2256,-37,23,-5
11550,-384,0,-2264,-38,22,-6
11555,-360,0,-2272,-36,22,-5
11560,-368,0,-2328,-35,21,-5
11565,-360,0,-2280,-36,22,-4
11570,-360,0,-2296,-37,23,-4
11575,-352,0,-2272,-40,22,-4
11580,-352,0,-2272,-42,22,-4
11585,-344,0,-2296,-43,24,-4
11590,-376,0,-2256,-43,25,-4
11595,-368,-8,-2272,-43,26,-5
11600,-368,8,-2272,-42,28,-4
11605,-352,-16,-2296,-41,28,-5
11610,-344,0,-2280,-39,29,-5
11615,-344,-16,-2280,-38,29,-6
11620,-368,-8,-2312,-38,29,-4
11625,-352,0,-2272,-38,29,-4
11630,-336,0,-2288,-38,29,-5
11635,-352,-16,-2288,-35,27,-4
11640,-376,0,-2232,-37,25,-5
11645,-368,8,-2272,-38,25,-3
11650,-384,-24,-2296,-37,25,-4
11655,-360,-8,-2272,-36,24,-3
11660,-352,0,-2296,-36,24,-2
11665,-360,0,-2256,-37,24,-5
11670,-392,8,-2288,-38,23,-4
11675,-376,0,-2296,-37,24,-3
11680,-360,0,-2320,-35,24,-4
11685,-360,0,-2296,-35,24,-4
11690,-344,-8,-2280,-34,23,-3
11695,-344,8,-2296,-36,22,-4
11700,-368,0,-2312,-36,23,-4
11705,-344,-8,-2288,-36,23,-2
11710,-336,0,-2288,-37,21,-3
11715,-352,-8,-2280,-36,22,-3
11720,-360,-8,-2264,-34,21,-3
11725,-352,-8,-2296,-35,22,-3
11730,-376,0,-2288,-35,23,-4
11735,-360,0,-2280,-35,22,-4
11740,-360,-8,-2304,-34,24,-3
11745,-336,0,-2272,-32,25,-4
11750,-368,0,-2272,-33,24,-5
11755,-360,0,-2304,-33,24,-7
11760,-336,8,-2280,-34,24,-4
11765,-360,0,-2296,-33,25,-5
11770,-344,-16,-2288,-36,25,-5
11775,-344,8,-2304,-37,25,-5
11780,-360,-24,-2272,-38,24,-4
11785,-360,0,-2296,-37,23,-3
11790,-376,-8,-2288,-37,23,-4
11795,-344,-16,-2280,-36,24,-4
11800,-344,-8,-2296,-37,25,-4
11805,-368,16,-2288,-36,24,-6
11810,-392,-8,-2312,-36,24,-5
11815,-384,-8,-2288,-36,25,-5
11820,-384,0,-2280,-38,24,-5
11825,-360,0,-2288,-37,26,-5
11830,-368,0,-2272,-36,27,-6
11835,-368,-24,-2272,-36,26,-5
11840,-352,-16,-2296,-37,24,-4
11845,-352,-16,-2280,-37,24,-5
11850,-344,8,-2272,-37,23,-5
11855,-344,0,-2312,-37,23,-4
11860,-352,0,-2256,-38,24,-3
11865,-344,0,-2288,-38,24,-4
11870,-376,-24,-2288,-40,24,-4
11875,-344,-40,-2320,-40,23,-4
11880,-360,0,-2256,-41,23,-5
11885,-360,0,-2304,-41,22,-4
11890,-352,0,-2288,-39,22,-4
11895,-352,-16,-2288,-36,20,-5
11900,-352,8,-2296,-37,20,-4
11905,-352,-16,-2288,-37,21,-4
11910,-344,0,-2256,-39,22,-5
11915,-344,-8,-2280,-40,23,-6
11920,-368,16,-2240,-41,23,-6
11925,-352,-16,-2272,-41,24,-6
11930,-368,0,-2272,-38,23,-5
11935,-368,0,-2272,-38,23,-5
11940,-360,0,-2296,-37,24,-5
11945,-360,-8,-2288,-38,22,-5
11950,-336,0,-2256,-37,21,-4
11955,-360,8,-2248,-39,20,-4
11960,-360,-8,-2256,-43,21,-5
11965,-344,0,-2272,-45,22,-5
11970,-320,-8,-2296,-44,24,-6
11975,-360,0,-2280,-41,26,-6
11980,-352,0,-2288,-34,27,-7
11985,-376,8,-2280,-35,29,-7
11990,-360,-8,-2320,-39,30,-7
11995,-344,-16,-2304,-43,31,-7
12000,-360,0,-2264,-46,30,-6
12005,-336,-16,-2280,-48,28,-6
12010,-376,0,-2256,-52,28,-6
12015,-384,0,-2296,-53,26,-5
12020,-368,8,-2264,-53,24,-5
12025,-352,0,-2288,-51,22,-4
12030,-352,0,-2296,-51,21,-4
12035,-368,-8,-2272,-50,21,-5
12040,-360,-16,-2296,-49,20,-5
12045,-288,56,-2352,-47,21,-4
12050,-360,0,-2288,-47,20,-5
12055,-344,0,-2296,-47,20,-6
12060,-336,-24,-2312,-49,20,-6
12065,-328,0,-2272,-50,19,-5
12070,-360,0,-2280,-50,18,-8
12075,-344,-16,-2272,-51,17,-7
12080,-352,-32,-2272,-51,17,-5
12085,-336,-8,-2272,-52,16,-4
12090,-344,-16,-2288,-51,15,-6
12095,-328,-16,-2296,-50,18,-6
12100,-336,-8,-2216,-50,17,-5
12105,-344,0,-2288,-51,18,-5
12110,-368,-16,-2304,-50,19,-5
12115,-360,-16,-2272,-50,20,-5
12120,-352,-8,-2280,-50,19,-6
12125,-336,0,-2288,-49,20,-6
12130,-376,8,-2280,-47,21,-6
12135,-344,0,-2288,-44,21,-5
12140,-336,0,-2280,-43,21,-4
12145,-352,-40,-2296,-43,21,-6
12150,-344,-8,-2288,-42,20,-7
12155,-352,-24,-2304,-42,20,-5
12160,-360,0,-2272,-42,21,-5
12165,-352,-8,-2256,-43,20,-6
12170,-368,-8,-2304,-41,20,-5
12175,-352,0,-2296,-42,20,-5
12180,-360,0,-2296,-43,19,-6
12185,-360,-48,-2272,-44,20,-6
12190,-352,-8,-2312,-44,18,-6
12195,-368,0,-2280,-42,18,-4
12200,-352,0,-2304,-39,17,-5
12205,-352,0,-2304,-36,18,-6
12210,-368,0,-2312,-37,18,-6
12215,-344,0,-2296,-39,20,-6
12220,-360,8,-2264,-43,20,-6
12225,-344,-24,-2248,-46,22,-5
12230,-360,-16,-2304,-46,22,-6
12235,-368,0,-2304,-45,24,-7
12240,-368,-16,-2288,-46,27,-6
12245,-344,-8,-2256,-45,26,-8
12250,-352,-24,-2264,-46,28,-8
12255,-360,-16,-2328,-43,28,-5
12260,-352,-24,-2280,-40,29,-6
12265,-352,-16,-2272,-39,28,-5
12270,-352,0,-2312,-38,26,-5
12275,-344,0,-2312,-38,26,-4
12280,-344,-8,-2312,-36,25,-6
12285,-352,8,-2288,-36,23,-5
12290,-376,0,-2296,-36,22,-5
12295,-360,0,-2288,-36,22,-5
12300,-352,8,-2296,-36,20,-5
12305,-376,8,-2296,-39,20,-4
12310,-344,0,-2296,-39,20,-4
12315,-360,-24,-2288,-39,22,-4
12320,-344,-24,-2280,-38,21,-5
12325,-344,-8,-2296,-38,21,-4
12330,-336,0,-2272,-36,20,-5
12335,-368,8,-2272,-33,20,-4
12340,-360,0,-2264,-34,20,-3
12345,-360,0,-2280,-32,19,-4
12350,-336,-32,-2288,-33,19,-5
12355,-360,0,-2312,-35,20,-4
12360,-344,0,-2272,-36,21,-3
12365,-352,0,-2288,-38,20,-3
12370,-352,-16,-2256,-39,21,-3
12375,-336,-24,-2264,-40,22,-3
12380,-344,-8,-2296,-39,22,-4
12385,-336,-16,-2280,-40,23,-4
12390,-344,-16,-2288,-37,24,-5
12395,-352,0,-2296,-35,24,-4
12400,-352,-16,-2272,-31,23,-4
12405,-352,-8,-2312,-32,24,-3
12410,-344,-8,-2296,-31,23,-3
12415,-344,8,-2280,-32,23,-4
12420,-328,-16,-2272,-33,23,-4
12425,-344,0,-2312,-33,23,-4
12430,-344,0,-2304,-33,20,-4
12435,-352,-32,-2288,-33,20,-5
12440,-352,8,-2296,-33,20,-5
12445,-336,-8,-2312,-35,19,-3
12450,-360,-8,-2256,-36,19,-4
12455,-352,0,-2264,-37,18,-4
12460,-344,-16,-2288,-37,19,-5
12465,-352,-16,-2280,-37,20,-6
12470,-352,-16,-2296,-37,20,-6
12475,-368,0,-2296,-36,20,-5
12480,-344,-32,-2304,-36,17,-4
12485,-360,-16,-2296,-33,16,-4
12490,-336,0,-2304,-33,15,-5
12495,-336,-16,-2312,-32,14,-3
12500,-360,-32,-2288,-33,14,-4
12505,-320,8,-2312,-34,15,-4
12510,-360,0,-2280,-37,15,-2
12515,-360,-8,-2288,-37,17,-5
12520,-352,-24,-2288,-35,18,-5
12525,-360,-8,-2304,-33,19,-6
12530,-352,-16,-2312,-34,18,-4
12535,-360,-16,-2248,-35,18,-5
12540,-360,-16,-2288,-37,18,-5
12545,-360,-40,-2280,-39,20,-5
12550,-360,-8,-2248,-41,19,-4
12555,-328,-32,-2240,-44,23,-4
12560,-360,-24,-2280,-44,24,-4
12565,-360,-8,-2280,-41,25,-6
12570,-368,-24,-2288,-35,26,-3
12575,-336,0,-2352,-31,27,-4
12580,-360,-24,-2288,-30,29,-3
12585,-336,-24,-2288,-31,28,-4
12590,-352,-8,-2296,-31,27,-4
12595,-344,-16,-2272,-33,26,-5
12600,-328,-24,-2312,-35,25,-4
12605,-360,0,-2312,-37,24,-5
12610,-376,0,-2280,-40,25,-5
12615,-368,-24,-2296,-36,27,-4
12620,-352,-16,-2280,-38,28,-4
12625,-344,-16,-2296,-42,25,-6
12630,-360,-16,-2240,-42,24,-5
12635,-336,0,-2272,-43,23,-5
12640,-352,-8,-2288,-43,24,-4
12645,-304,56,-2352,-40,24,-5
12650,-344,-8,-2296,-40,23,-5
12655,-344,-8,-2304,-39,24,-4
12660,-336,0,-2272,-38,24,-4
12665,-344,-16,-2304,-36,23,-5
12670,-320,-48,-2312,-36,24,-3
12675,-352,-8,-2304,-36,24,-3
12680,-336,-8,-2360,-36,25,-2
12685,-336,-8,-2296,-37,23,-3
12690,-344,-24,-2272,-37,23,-4
12695,-328,-24,-2296,-37,23,-4
12700,-392,-72,-2248,-39,24,-4
12705,-336,-8,-2280,-38,25,-5
12710,-336,-24,-2304,-38,24,-5
12715,-344,0,-2280,-38,24,-4
12720,-328,0,-2304,-37,24,-3
12725,-376,-8,-2296,-37,24,-3
12730,-360,-16,-2288,-38,25,-4
12735,-336,-40,-2280,-39,25,-6
12740,-360,0,-2256,-37,26,-5
12745,-352,0,-2280,-38,25,-5
12750,-336,-24,-2280,-38,24,-6
12755,-360,-32,-2288,-39,24,-6
12760,-344,-32,-2312,-38,21,-5
12765,-344,-16,-2264,-38,23,-5
12770,-352,-16,-2288,-41,22,-4
12775,-352,-8,-2272,-41,21,-5
12780,-344,-8,-2280,-43,20,-6
12785,-352,-8,-2296,-41,21,-4
12790,-352,-16,-2296,-42,19,-5
12795,-344,-8,-2328,-40,18,-4
12800,-344,-16,-2296,-40,20,-4
12805,-352,-16,-2288,-43,19,-4
12810,-336,-24,-2280,-43,20,-5
12815,-328,-16,-2272,-45,21,-4
12820,-344,0,-2256,-47,21,-6
12825,-352,-8,-2288,-46,22,-6
12830,-352,-24,-2272,-46,23,-4
12835,-344,-24,-2280,-47,23,-5
12840,-336,-16,-2248,-44,22,-5
12845,-336,-32,-2272,-41,22,-5
12850,-328,-32,-2280,-40,21,-5
12855,-336,-24,-2296,-40,19,-5
12860,-360,0,-2312,-41,17,-3
12865,-344,-8,-2296,-39,18,-4
12870,-360,-16,-2288,-41,16,-4
12875,-336,-24,-2264,-40,15,-4
12880,-352,-40,-2304,-39,15,-4
12885,-336,-16,-2280,-40,16,-5
12890,-328,-24,-2320,-41,17,-5
12895,-344,-8,-2280,-41,19,-6
12900,-344,-16,-2296,-41,18,-5
12905,-328,-16,-2304,-41,19,-5
12910,-328,-32,-2296,-40,18,-4
12915,-360,-16,-2280,-41,18,-3
12920,-344,-8,-2280,-39,19,-3
12925,-352,-8,-2288,-38,17,-2
12930,-352,-16,-2288,-37,16,-3
12935,-344,0,-2288,-37,16,-4
12940,-336,-16,-2304,-37,15,-3
12945,-344,-24,-2320,-37,17,-3
12950,-352,0,-2264,-39,16,-3
12955,-368,0,-2304,-38,18,-3
12960,-376,-8,-2272,-39,17,-3
12965,-376,0,-2272,-38,17,-3
12970,-336,-32,-2304,-39,16,-3
12975,-360,8,-2280,-38,18,-4
12980,-344,-8,-2288,-37,19,-4
12985,-336,0,-2288,-36,18,-4
12990,-360,-24,-2312,-36,20,-3
12995,-328,-8,-2296,-37,20,-5
13000,-336,-16,-2296,-38,21,-5
13005,-328,-24,-2280,-37,20,-5
13010,-360,-16,-2280,-35,21,-5
13015,-336,-40,-2264,-37,21,-5
13020,-328,-32,-2304,-36,20,-4
13025,-344,-56,-2296,-37,20,-4
13030,-344,0,-2288,-37,20,-5
13035,-336,-40,-2288,-39,20,-3
13040,-320,-48,-2288,-38,19,-5
13045,-344,-16,-2288,-38,20,-5
13050,-336,-8,-2312,-37,21,-5
13055,-328,-40,-2264,-36,21,-5
13060,-336,-32,-2288,-36,23,-5
13065,-360,-24,-2272,-37,22,-4
13070,-336,-24,-2296,-38,23,-4
13075,-352,0,-2288,-40,24,-2
13080,-352,0,-2272,-41,24,-3
13085,-352,-16,-2360,-39,26,-4
13090,-360,-8,-2288,-41,25,-5
13095,-344,-40,-2304,-40,25,-5
13100,-336,-8,-2288,-38,23,-5
13105,-344,-56,-2304,-36,23,-6
13110,-336,-16,-2320,-38,24,-6
13115,-352,-8,-2296,-39,23,-4
13120,-336,-24,-2304,-39,23,-4
13125,-344,-16,-2312,-41,20,-4
13130,-336,-24,-2280,-41,21,-4
13135,-312,-32,-2256,-42,20,-5
13140,-328,-40,-2312,-42,21,-5
13145,-344,0,-2288,-40,19,-4
13150,-312,-24,-2288,-38,18,-4
13155,-344,-8,-2296,-38,17,-4
13160,-328,-40,-2264,-43,17,-4
13165,-352,-32,-2272,-47,18,-5
13170,-320,-16,-2248,-51,18,-5
13175,-344,-16,-2256,-49,21,-2
13180,-344,-48,-2288,-46,23,-3
13185,-336,-8,-2288,-39,23,-4
13190,-336,-24,-2312,-34,22,-5
13195,-320,-24,-2328,-34,24,-6
13200,-328,-32,-2304,-37,25,-6
13205,-336,-16,-2304,-39,25,-5
13210,-368,-8,-2280,-41,25,-3
13215,-344,0,-2256,-44,25,-3
13220,-352,-8,-2304,-45,23,-3
13225,-328,-48,-2296,-44,23,-5
13230,-352,-16,-2320,-44,21,-6
13235,-328,-8,-2296,-43,19,-4
13240,-344,-24,-2304,-42,20,-5
13245,-336,-16,-2304,-41,20,-5
13250,-336,-40,-2280,-42,20,-5
13255,-336,-16,-2312,-41,20,-5
13260,-328,-16,-2320,-41,21,-5
13265,-352,-8,-2264,-42,21,-4
13270,-344,-32,-2312,-42,20,-5
13275,-344,0,-2272,-41,21,-5
13280,-352,0,-2272,-41,20,-5
13285,-344,-32,-2320,-40,19,-6
13290,-336,-24,-2304,-42,19,-7
13295,-312,-168,-2320,-42,18,-5
13300,-344,-32,-2288,-42,19,-5
13305,-336,-24,-2312,-40,18,-5
13310,-352,-8,-2304,-41,20,-5
13315,-352,-16,-2240,-42,20,-6
13320,-344,-32,-2312,-40,20,-5
13325,-328,-40,-2304,-40,20,-6
13330,-360,-24,-2288,-41,22,-7
13335,-328,-8,-2288,-42,23,-5
13340,-336,-16,-2296,-40,23,-7
13345,-344,-24,-2288,-39,22,-6
13350,-360,16,-2344,-38,20,-6
13355,-344,-40,-2272,-39,21,-6
13360,-344,-48,-2296,-39,20,-4
13365,-352,-32,-2280,-39,18,-5
13370,-328,-16,-2272,-37,18,-4
13375,-328,-16,-2272,-37,18,-5
13380,-344,-16,-2304,-37,16,-4
13385,-336,-24,-2312,-36,16,-4
13390,-328,-8,-2296,-36,16,-5
13395,-360,-32,-2312,-38,14,-4
13400,-352,0,-2312,-39,13,-3
13405,-344,-32,-2296,-38,13,-3
13410,-360,-32,-2280,-38,12,-4
13415,-360,-8,-2304,-35,12,-5
13420,-344,-48,-2304,-35,13,-5
13425,-344,-24,-2264,-37,13,-4
13430,-352,-8,-2288,-38,14,-4
13435,-352,0,-2296,-40,16,-3
13440,-320,-24,-2312,-39,16,-3
13445,-344,-8,-2296,-41,19,-4
13450,-336,-24,-2256,-40,19,-5
13455,-336,-48,-2296,-40,20,-6
13460,-336,-56,-2280,-38,20,-4
13465,-336,-40,-2320,-38,20,-4
13470,-336,-8,-2328,-37,19,-5
13475,-312,-48,-2264,-38,18,-5
13480,-352,-32,-2280,-39,19,-6
13485,-312,-40,-2280,-39,17,-4
13490,-328,-32,-2304,-38,17,-4
13495,-336,-16,-2288,-38,17,-4
13500,-328,-24,-2304,-40,18,-6
13505,-352,-16,-2248,-39,19,-4
13510,-344,-16,-2288,-40,20,-6
13515,-296,-48,-2272,-40,20,-5
13520,-360,-16,-2304,-40,21,-4
13525,-352,0,-2264,-40,21,-4
13530,-344,-8,-2272,-41,21,-5
13535,-336,-24,-2296,-39,21,-4
13540,-344,-24,-2320,-40,20,-5
13545,-344,-32,-2280,-38,20,-2
13550,-344,-16,-2328,-36,20,-3
13555,-352,-24,-2312,-36,22,-3
13560,-328,0,-2288,-35,22,-3
13565,-344,-24,-2288,-36,22,-3
13570,-344,-8,-2280,-37,20,-4
13575,-336,-16,-2296,-40,19,-3
13580,-360,-32,-2312,-39,19,-4
13585,-344,-48,-2288,-40,19,-5
13590,-360,-40,-2312,-40,19,-4
13595,-336,-16,-2264,-40,20,-4
13600,-352,-16,-2304,-41,20,-5
13605,-336,-16,-2272,-41,21,-5
13610,-352,-24,-2296,-39,20,-5
13615,-336,-48,-2288,-39,21,-4
13620,-352,-32,-2264,-39,21,-4
13625,-328,-24,-2288,-38,19,-5
13630,-336,-16,-2312,-39,18,-5
13635,-336,-16,-2296,-38,18,-4
13640,-360,-24,-2280,-38,18,-4
13645,-344,-24,-2304,-39,19,-5
13650,-344,-24,-2288,-38,19,-6
13655,-376,-24,-2272,-39,19,-5
13660,-352,0,-2256,-38,18,-7
13665,-336,-32,-2280,-39,18,-6
13670,-320,-40,-2272,-38,17,-5
13675,-352,-32,-2272,-38,18,-5
13680,-336,-48,-2280,-37,19,-7
13685,-344,0,-2304,-38,19,-6
13690,-312,-40,-2272,-39,19,-5
13695,-328,-8,-2280,-34,19,-4
13700,-344,-32,-2296,-36,18,-4
13705,-328,-48,-2312,-36,17,-4
13710,-320,-40,-2272,-36,17,-4
13715,-328,-24,-2256,-37,17,-5
13720,-344,-24,-2280,-36,17,-6
13725,-320,-16,-2304,-36,17,-6
13730,-352,-32,-2288,-36,19,-4
13735,-344,-32,-2304,-34,19,-5
13740,-352,-40,-2296,-34,16,-4
13745,-336,-32,-2280,-34,14,-3
13750,-328,-24,-2272,-35,12,-2
13755,-344,-16,-2296,-34,10,-1
13760,-336,-8,-2288,-35,9,0
13765,-352,-40,-2304,-35,8,-1
13770,-344,-16,-2296,-38,9,-2
13775,-336,-40,-2256,-37,7,-3
13780,-336,-48,-2264,-38,8,-4
13785,-344,-56,-2288,-38,9,-4
13790,-352,-24,-2288,-39,9,-3
13795,-352,-32,-2296,-41,8,-3
13800,-352,-16,-2296,-40,7,-3
13805,-344,-16,-2280,-39,7,-2
13810,-352,-24,-2280,-41,8,-3
13815,-336,-40,-2296,-41,10,-3
13820,-336,-40,-2280,-44,10,-3
13825,-336,-32,-2248,-46,13,-4
13830,-344,-64,-2256,-49,15,-4
13835,-360,-16,-2272,-47,16,-5
13840,-336,-80,-2272,-41,19,-5
13845,-328,-40,-2288,-37,21,-3
13850,-336,-24,-2288,-35,23,-4
13855,-336,0,-2288,-36,25,-6
13860,-336,-40,-2304,-35,26,-6
13865,-360,-16,-2304,-36,27,-4
13870,-352,-40,-2288,-38,25,-6
13875,-344,-40,-2296,-40,24,-4
13880,-336,-32,-2312,-40,23,-7
13885,-328,-32,-2296,-40,23,-5
13890,-352,-24,-2280,-40,21,-6
13895,-352,-32,-2328,-41,22,-6
13900,-336,-24,-2272,-40,22,-5
13905,-336,0,-2288,-41,22,-4
13910,-328,-8,-2288,-41,22,-6
13915,-336,-32,-2280,-40,22,-6
13920,-328,-16,-2272,-41,22,-7
13925,-336,-16,-2256,-39,22,-6
13930,-336,-40,-2272,-39,21,-6
13935,-344,-48,-2320,-39,20,-7
13940,-344,-56,-2264,-40,20,-6
13945,-344,-8,-2320,-41,20,-5
13950,-272,-128,-2272,-39,21,-5
13955,-336,-24,-2264,-40,21,-5
13960,-360,-40,-2296,-41,21,-6
13965,-352,-32,-2304,-43,21,-6
13970,-328,-16,-2288,-42,21,-6
13975,-344,-16,-2296,-42,21,-6
13980,-344,-32,-2288,-43,23,-5
13985,-320,-40,-2280,-44,23,-4
13990,-320,-32,-2312,-44,25,-5
13995,-328,-48,-2288,-42,25,-6
14000,-336,-48,-2288,-43,25,-5
14005,-328,-80,-2280,-42,23,-5
14010,-352,-16,-2288,-44,24,-6
14015,-368,-8,-2288,-45,25,-7
14020,-344,0,-2272,-46,25,-6
14025,-336,-40,-2312,-46,26,-5
14030,-344,-40,-2296,-45,26,-5
14035,-328,-40,-2264,-46,25,-4
14040,-344,-40,-2256,-46,26,-7
14045,-320,-48,-2256,-47,25,-5
14050,-336,-40,-2272,-48,25,-6
14055,-320,-32,-2288,-47,24,-6
14060,-336,-48,-2312,-46,25,-6
14065,-344,-40,-2288,-46,25,-6
14070,-320,-64,-2320,-44,24,-5
14075,-344,-24,-2304,-44,22,-5
14080,-344,-48,-2280,-44,22,-4
14085,-328,-24,-2264,-45,22,-3
14090,-344,-24,-2280,-46,23,-4
14095,-320,-48,-2280,-45,21,-3
14100,-352,-24,-2336,-46,23,-4
14105,-336,-24,-2304,-47,22,-3
14110,-328,-48,-2280,-45,23,-5
14115,-344,-40,-2272,-45,23,-4
14120,-328,-40,-2272,-46,22,-4
14125,-328,-40,-2288,-45,23,-2
14130,-344,-48,-2296,-44,22,-3
14135,-320,-16,-2296,-46,21,-5
14140,-328,-48,-2304,-46,19,-4
14145,-344,-48,-2288,-45,18,-4
14150,-360,-16,-2264,-46,18,-4
14155,-352,-32,-2304,-45,18,-4
14160,-344,-16,-2320,-46,17,-5
14165,-344,-32,-2312,-46,17,-5
14170,-344,-32,-2296,-47,16,-4
14175,-344,-32,-2288,-48,16,-4
14180,-328,-56,-2296,-45,17,-4
14185,-352,-32,-2272,-47,17,-5
14190,-320,-24,-2312,-49,16,-4
14195,-336,-32,-2272,-50,15,-4
14200,-320,-32,-2328,-50,16,-4
14205,-336,-40,-2304,-50,16,-4
14210,-320,-24,-2272,-51,15,-4
14215,-344,-32,-2272,-51,14,-5
14220,-352,-40,-2296,-51,15,-4
14225,-320,-32,-2280,-50,16,-4
14230,-360,-24,-2280,-51,15,-5
14235,-320,-16,-2296,-50,15,-5
14240,-336,-24,-2288,-49,16,-6
14245,-320,-32,-2312,-49,16,-7
14250,-328,-8,-2328,-49,16,-6
14255,-336,-48,-2272,-49,15,-5
14260,-352,-8,-2280,-49,16,-6
14265,-328,-64,-2264,-49,17,-4
14270,-344,-8,-2288,-48,16,-5
14275,-312,-56,-2296,-48,17,-6
14280,-336,-32,-2312,-48,15,-6
14285,-344,-32,-2256,-50,15,-6
14290,-328,-64,-2304,-49,16,-6
14295,-352,-24,-2304,-50,16,-5
14300,-320,-40,-2280,-49,16,-6
14305,-336,-24,-2296,-48,16,-6
14310,-336,-48,-2280,-48,15,-4
14315,-336,-16,-2296,-48,17,-6
14320,-320,-40,-2256,-48,18,-5
14325,-328,-48,-2312,-47,18,-5
14330,-312,-40,-2304,-48,18,-7
14335,-312,-32,-2264,-49,19,-7
14340,-336,-32,-2256,-49,17,-6
14345,-336,-16,-2304,-49,18,-5
14350,-344,-32,-2304,-50,19,-5
14355,-344,-48,-2288,-50,20,-6
14360,-320,-56,-2296,-53,18,-5
14365,-304,-32,-2280,-52,19,-5
14370,-328,-48,-2320,-50,19,-5
14375,-344,-8,-2264,-49,19,-6
14380,-352,0,-2288,-49,19,-5
14385,-352,-24,-2264,-48,18,-5
14390,-352,0,-2296,-48,19,-5
14395,-344,-16,-2312,-49,19,-5
14400,-344,-16,-2264,-48,19,-7
14405,-336,-24,-2296,-50,18,-5
14410,-320,-24,-2272,-51,18,-6
14415,-344,-32,-2272,-50,19,-5
14420,-344,-32,-2304,-51,20,-6
14425,-328,-32,-2280,-49,19,-6
14430,-352,-24,-2312,-51,19,-7
14435,-336,-48,-2280,-50,19,-4
14440,-336,-32,-2288,-51,21,-6
14445,-328,-56,-2320,-53,20,-5
14450,-336,-16,-2296,-51,19,-5
14455,-344,-40,-2328,-50,18,-5
14460,-328,-32,-2288,-50,19,-5
14465,-320,-16,-2304,-51,18,-4
14470,-320,-48,-2296,-52,17,-4
14475,-328,-8,-2288,-50,17,-6
14480,-344,-40,-2304,-49,17,-6
14485,-312,-8,-2296,-50,19,-6
14490,-344,-32,-2280,-51,19,-6
14495,-360,-64,-2272,-50,19,-7
14500,-376,-8,-2296,-49,19,-6
14505,-344,-8,-2296,-50,19,-5
14510,-320,-32,-2296,-49,20,-6
14515,-312,-40,-2304,-49,20,-5
14520,-328,-16,-2264,-48,19,-6
14525,-336,-16,-2272,-47,20,-6
14530,-312,-40,-2296,-49,19,-6
14535,-320,-48,-2296,-48,18,-6
14540,-328,-8,-2272,-48,18,-6
14545,-336,-40,-2280,-48,18,-5
14550,-336,-40,-2296,-49,19,-5
14555,-336,-32,-2288,-49,18,-6
14560,-320,-32,-2312,-49,18,-7
14565,-336,-24,-2304,-51,19,-5
14570,-320,-40,-2328,-51,19,-5
14575,-328,-40,-2296,-51,19,-7
14580,-328,-32,-2280,-49,19,-5
14585,-328,-48,-2296,-48,17,-6
14590,-336,-40,-2304,-45,16,-4
14595,-336,-24,-2288,-47,14,-6
14600,-336,-16,-2288,-45,15,-6
14605,-312,-104,-2208,-48,15,-5
14610,-328,-16,-2296,-47,16,-5
14615,-328,-16,-2304,-48,14,-5
14620,-312,-24,-2312,-47,15,-4
14625,-352,-32,-2296,-48,15,-3
14630,-344,-16,-2296,-48,16,-5
14635,-328,-32,-2312,-48,15,-6
14640,-336,-16,-2264,-49,15,-6
14645,-336,-24,-2264,-50,17,-6
14650,-344,-56,-2264,-54,17,-6
14655,-328,-48,-2256,-58,17,-6
14660,-240,64,-2304,-62,19,-5
14665,-312,-64,-2264,-59,20,-6
14670,-344,-8,-2264,-55,20,-6
14675,-344,0,-2288,-46,21,-6
14680,-328,-24,-2328,-39,23,-6
14685,-352,-24,-2336,-41,25,-6
14690,-312,-32,-2304,-44,26,-6
14695,-320,-24,-2288,-48,24,-6
14700,-304,-48,-2296,-49,23,-5
14705,-344,-8,-2296,-53,21,-6
14710,-352,-16,-2296,-55,21,-6
14715,-304,-24,-2304,-55,18,-5
14720,-336,-32,-2296,-53,17,-4
14725,-336,-16,-2312,-52,16,-5
14730,-336,-32,-2288,-52,16,-4
14735,-352,-8,-2312,-54,16,-5
14740,-368,0,-2312,-53,19,-5
14745,-344,-24,-2304,-54,20,-7
14750,-328,-24,-2280,-55,21,-5
14755,-328,-40,-2288,-56,21,-6
14760,-328,-24,-2288,-53,20,-6
14765,-344,-32,-2272,-52,21,-6
14770,-360,0,-2304,-50,22,-7
14775,-320,-32,-2256,-51,22,-7
14780,-328,-32,-2304,-51,21,-7
14785,-344,-32,-2288,-51,22,-7
14790,-328,-24,-2296,-51,23,-6
14795,-352,-32,-2288,-48,24,-6
14800,-352,-32,-2296,-49,23,-6
14805,-312,-40,-2264,-50,24,-5
14810,-360,-24,-2312,-48,24,-4
14815,-320,0,-2296,-50,24,-6
14820,-312,-32,-2304,-49,24,-6
14825,-344,-8,-2264,-50,23,-6
14830,-320,-16,-2304,-49,24,-6
14835,-312,-32,-2304,-48,22,-6
14840,-344,-16,-2280,-49,22,-6
14845,-320,-16,-2312,-47,20,-5
14850,-320,-24,-2272,-49,19,-5
14855,-336,-16,-2312,-49,19,-6
14860,-352,-16,-2256,-49,19,-5
14865,-352,-24,-2296,-48,17,-4
14870,-336,-8,-2296,-48,17,-4
14875,-336,-8,-2304,-49,17,-6
14880,-304,-72,-2288,-49,16,-5
14885,-328,-40,-2288,-50,16,-8
14890,-336,-8,-2320,-48,15,-7
14895,-328,-16,-2280,-48,16,-6
14900,-344,-24,-2320,-47,15,-5
14905,-352,-8,-2288,-48,15,-5
14910,-328,-16,-2304,-48,15,-4
14915,-352,-24,-2288,-50,14,-5
14920,-344,-8,-2296,-54,15,-6
14925,-336,0,-2280,-53,15,-5
14930,-328,-16,-2288,-53,17,-6
14935,-336,-40,-2312,-53,16,-5
14940,-328,-24,-2304,-53,18,-4
14945,-352,-16,-2296,-53,18,-5
14950,-296,-48,-2304,-52,17,-6
14955,-328,-40,-2280,-50,17,-5
14960,-336,-8,-2272,-50,16,-4
14965,-320,-16,-2304,-50,16,-5
14970,-336,0,-2296,-49,15,-6
14975,-336,-32,-2304,-50,16,-6
14980,-336,-32,-2304,-49,16,-4
14985,-320,-16,-2280,-51,17,-5
14990,-344,-16,-2320,-53,18,-6
14995,-336,-16,-2272,-53,20,-6
