timestamp,accel_x,accel_y,accel_z,gyro_x,gyro_y,gyro_z
0,40,-2016,-128,16,4,-17
5,64,-2008,-152,16,2,-17
10,40,-2024,-112,16,2,-16
15,56,-2032,-104,16,1,-16
20,40,-2016,-80,17,0,-16
25,72,-2016,-88,18,-1,-17
30,72,-2008,-136,18,-4,-18
35,64,-2000,-120,20,-6,-18
40,64,-2016,-104,21,-9,-19
45,88,-2016,-104,24,-12,-21
50,80,-2000,-104,24,-16,-26
55,104,-2000,-120,28,-18,-28
60,48,-2008,-104,31,-23,-30
65,48,-2024,-96,34,-27,-33
70,112,-1992,-40,36,-31,-35
75,88,-2000,-96,38,-35,-39
80,88,-2000,-88,40,-40,-41
85,80,-1984,-112,42,-45,-44
90,88,-1992,-72,45,-53,-45
95,72,-1976,-48,47,-61,-49
100,72,-1992,-40,49,-68,-50
105,72,-1968,-48,48,-75,-49
110,72,-1968,8,47,-83,-49
115,96,-2008,16,46,-90,-50
120,64,-1968,64,45,-99,-50
125,64,-2000,104,45,-108,-48
130,72,-2016,96,49,-116,-45
135,96,-2016,128,53,-124,-41
140,120,-2040,120,55,-132,-39
145,128,-2048,144,55,-140,-35
150,112,-2056,128,53,-146,-31
155,120,-2056,120,50,-153,-30
160,128,-2056,120,44,-158,-30
165,104,-2088,136,38,-165,-32
170,128,-2104,136,36,-172,-34
175,112,-2112,128,41,-176,-38
180,96,-2120,72,49,-181,-45
185,112,-2104,64,57,-188,-54
190,120,-2088,32,69,-193,-62
195,136,-2104,0,86,-197,-73
200,144,-2096,-16,111,-200,-87
205,120,-2096,-48,143,-204,-102
210,136,-2088,-128,183,-212,-118
215,128,-2120,-160,227,-221,-132
220,144,-2104,-144,282,-224,-145
225,152,-2120,-168,346,-220,-160
230,144,-2112,-136,410,-208,-171
235,152,-2080,-104,463,-196,-184
240,184,-2064,-96,498,-187,-189
245,208,-2088,-80,516,-184,-193
250,240,-2056,-24,524,-179,-188
255,256,-2040,-24,516,-176,-181
260,248,-2000,48,504,-162,-171
265,288,-1992,32,485,-139,-160
270,304,-1976,40,464,-111,-146
275,320,-1936,16,446,-82,-133
280,344,-1936,48,423,-51,-116
285,336,-1904,-48,398,-24,-101
290,384,-1912,-24,373,1,-88
295,360,-1888,-16,345,21,-76
300,368,-1912,-56,322,30,-62
305,352,-1944,-72,299,39,-52
310,336,-1920,-24,276,48,-46
315,320,-1920,-8,257,60,-44
320,296,-1936,32,242,76,-48
325,312,-1912,48,231,89,-55
330,336,-1960,24,218,103,-64
335,304,-1920,48,201,119,-73
340,336,-1968,64,180,131,-79
345,352,-1968,88,155,143,-90
350,336,-1984,72,129,159,-99
355,360,-1960,112,104,175,-109
360,312,-1968,72,84,188,-119
365,304,-1960,80,68,202,-126
370,272,-1936,64,53,214,-128
375,272,-1968,72,39,224,-133
380,256,-1960,80,25,234,-137
385,248,-1928,64,15,244,-141
390,232,-1936,64,4,252,-144
395,224,-1944,64,-9,261,-150
400,200,-1936,80,-21,268,-156
405,224,-1936,64,-29,275,-162
410,176,-1904,80,-38,279,-170
415,192,-1880,64,-50,282,-178
420,168,-1888,72,-65,281,-181
425,136,-1920,112,-81,277,-182
430,136,-1896,88,-99,273,-184
435,144,-1904,96,-115,269,-183
440,96,-1912,80,-132,264,-181
445,96,-1928,112,-150,257,-177
450,48,-1912,72,-164,248,-171
455,80,-1936,72,-175,242,-160
460,56,-1944,80,-180,234,-147
465,32,-1912,72,-184,227,-133
470,8,-1928,64,-190,217,-121
475,40,-1920,104,-192,209,-106
480,-8,-1896,120,-192,202,-95
485,32,-1920,104,-190,192,-82
490,24,-1912,120,-187,186,-69
495,32,-1896,168,-189,180,-63
500,16,-1920,160,-192,176,-53
505,64,-1944,144,-198,173,-49
510,104,-1936,152,-204,170,-45
515,88,-1920,152,-207,169,-45
520,112,-1896,184,-209,169,-43
525,128,-1944,184,-211,169,-41
530,168,-1952,160,-215,169,-36
535,152,-1936,168,-218,171,-31
540,168,-1960,152,-216,177,-27
545,160,-1944,200,-209,185,-22
550,168,-1936,152,-205,191,-17
555,192,-1952,160,-205,194,-8
560,160,-1936,184,-200,194,2
565,160,-1952,160,-193,194,14
570,168,-1944,104,-186,198,26
575,168,-1952,160,-183,200,36
580,152,-1976,144,-180,202,43
585,144,-1944,144,-179,204,51
590,128,-1944,136,-178,204,59
595,136,-1976,168,-179,203,67
600,144,-1952,144,-181,202,74
605,120,-1920,184,-180,202,83
610,144,-1936,176,-177,203,85
615,128,-1920,160,-174,200,88
620,136,-1944,168,-171,201,90
625,136,-1968,176,-167,201,95
630,144,-1944,176,-163,200,94
635,112,-1944,144,-159,196,89
640,128,-1944,168,-154,193,80
645,184,-1944,184,-149,189,70
650,176,-1960,200,-147,187,61
655,184,-1928,176,-144,188,54
660,232,-1936,168,-145,186,51
665,240,-1928,152,-150,190,54
670,256,-1936,192,-161,197,65
675,240,-1920,112,-173,200,74
680,232,-1920,152,-185,203,81
685,256,-1952,136,-196,204,89
690,232,-1928,136,-204,198,89
695,256,-1936,120,-216,189,85
700,256,-1928,104,-230,184,83
705,272,-1960,112,-247,182,86
710,288,-1936,104,-265,180,95
715,288,-1960,96,-282,179,99
720,280,-1960,128,-291,176,102
725,288,-2008,136,-300,170,104
730,296,-2048,128,-305,160,103
735,296,-2072,152,-308,156,102
740,320,-2104,136,-305,153,105
745,328,-2120,152,-300,147,110
750,344,-2192,136,-293,136,106
755,352,-2176,80,-285,128,102
760,368,-2256,104,-283,122,101
765,472,-2336,88,-286,120,106
770,496,-2304,184,-292,120,109
775,480,-2288,184,-280,125,119
780,496,-2288,200,-249,134,128
785,504,-2192,248,-207,147,136
790,560,-2136,208,-160,162,141
795,568,-2168,176,-128,177,149
800,608,-2144,144,-125,195,154
805,624,-2152,88,-143,216,150
810,688,-2208,72,-171,244,153
815,712,-2264,8,-207,274,156
820,696,-2328,-112,-255,305,151
825,744,-2376,-176,-315,334,141
830,744,-2488,-256,-383,371,125
835,776,-2624,-312,-448,418,101
840,808,-2712,-312,-498,477,74
845,792,-2816,-312,-530,547,44
850,768,-2912,-240,-534,620,8
855,752,-2936,-216,-505,687,-25
860,720,-2944,-112,-456,754,-42
865,680,-2896,-72,-385,808,-55
870,648,-2816,-40,-302,849,-48
875,608,-2704,-40,-219,892,-27
880,560,-2616,-40,-144,929,6
885,448,-2472,-56,-85,947,48
890,336,-2360,-112,-43,945,95
895,256,-2248,-136,-20,933,145
900,176,-2160,-232,-8,910,193
905,128,-2064,-288,-3,880,242
910,112,-1896,-328,-8,856,297
915,144,-1832,-408,-23,838,361
920,136,-1760,-432,-45,810,422
925,144,-1752,-488,-71,774,473
930,144,-1720,-528,-102,731,515
935,88,-1696,-616,-140,684,551
940,72,-1656,-640,-185,646,578
945,48,-1680,-664,-228,613,592
950,0,-1648,-688,-260,582,590
955,-48,-1648,-712,-289,551,571
960,-56,-1696,-648,-306,529,538
965,-32,-1744,-592,-308,526,494
970,-88,-1704,-576,-292,536,444
975,-40,-1680,-560,-276,549,392
980,-72,-1648,-480,-280,557,346
985,-32,-1624,-440,-289,557,309
990,-24,-1592,-408,-299,552,285
995,-16,-1576,-400,-300,551,266
1000,-8,-1576,-328,-286,566,254
1005,8,-1600,-304,-266,587,248
1010,0,-1608,-256,-250,607,237
1015,16,-1616,-328,-247,618,229
1020,24,-1640,-328,-256,627,227
1025,56,-1656,-368,-270,631,231
1030,120,-1720,-368,-291,637,230
1035,136,-1816,-376,-308,649,230
1040,120,-1864,-352,-322,654,230
1045,128,-1976,-384,-323,660,243
1050,176,-2072,-384,-319,669,266
1055,176,-2096,-392,-307,683,302
1060,168,-2136,-400,-297,697,336
1065,120,-2184,-360,-291,701,365
1070,96,-2192,-344,-286,700,391
1075,24,-2168,-312,-275,694,411
1080,56,-2136,-280,-249,697,431
1085,80,-2152,-248,-212,715,469
1090,8,-2096,-240,-153,733,510
1095,-64,-2064,-280,-92,740,529
1100,-136,-1976,-288,-39,731,525
1105,-200,-1864,-312,7,712,500
1110,-256,-1824,-304,38,697,483
1115,-280,-1800,-296,68,691,486
1120,-320,-1760,-296,103,694,502
1125,-376,-1728,-296,136,701,520
1130,-432,-1680,-264,167,694,496
1135,-464,-1608,-296,200,669,455
1140,-480,-1552,-288,222,649,423
1145,-472,-1528,-280,228,623,407
1150,-480,-1520,-312,224,589,390
1155,-472,-1528,-312,217,554,366
1160,-464,-1504,-320,205,521,344
1165,-424,-1528,-288,175,492,327
1170,-408,-1568,-288,141,463,306
1175,-416,-1592,-288,110,438,288
1180,-416,-1632,-280,82,408,260
1185,-376,-1624,-264,53,377,229
1190,-368,-1640,-296,32,346,205
1195,-352,-1688,-240,13,320,186
1200,-336,-1672,-256,-1,303,177
1205,-272,-1680,-208,-4,290,161
1210,-344,-1760,-208,-5,277,131
1215,-328,-1784,-200,-7,267,100
1220,-320,-1784,-216,-7,259,69
1225,-288,-1824,-152,-8,254,47
1230,-296,-1856,-144,-9,246,21
1235,-272,-1856,-128,-6,243,-2
1240,-280,-1848,-128,-1,244,-14
1245,-328,-1872,-112,1,246,-29
1250,-320,-1912,-104,-3,251,-42
1255,-360,-1936,-112,-7,257,-49
1260,-360,-1920,-96,-9,264,-54
1265,-320,-1944,-120,-5,270,-58
1270,-312,-1976,-128,4,275,-61
1275,-280,-2000,-144,17,280,-64
1280,-272,-1992,-112,35,290,-66
1285,-176,-2008,-112,54,306,-64
1290,-144,-2008,-112,85,318,-62
1295,-160,-2016,-120,121,317,-58
1300,-136,-2056,-120,163,308,-47
1305,-144,-2040,-168,198,301,-36
1310,-128,-2080,-200,223,291,-22
1315,-152,-2088,-184,235,285,-4
1320,-144,-2144,-176,249,284,18
1325,-112,-2144,-144,263,288,37
1330,-112,-2168,-160,284,295,60
1335,-64,-2232,-144,302,306,78
1340,-56,-2312,-88,319,319,91
1345,-112,-2384,-32,341,332,100
1350,-136,-2440,64,369,340,108
1355,-144,-2512,64,401,347,116
1360,-240,-2496,48,425,352,126
1365,-280,-2528,56,436,357,140
1370,-360,-2568,72,433,365,151
1375,-416,-2608,200,431,375,156
1380,-488,-2624,248,440,373,158
1385,-544,-2592,320,457,361,164
1390,-552,-2552,272,468,346,176
1395,-576,-2536,136,451,333,187
1400,-496,-2504,16,403,322,188
1405,-440,-2536,-56,317,316,174
1410,-416,-2568,-136,207,311,159
1415,-392,-2616,-160,104,289,144
1420,-392,-2672,-352,13,247,133
1425,-336,-2712,-576,-88,201,138
1430,-280,-2760,-856,-215,161,145
1435,-216,-2872,-1120,-341,129,157
1440,-152,-2944,-1192,-427,104,177
1445,-168,-2960,-1104,-419,75,193
1450,-136,-2880,-1112,-320,28,221
1455,-128,-2696,-1200,-178,-33,223
1460,-88,-2424,-1400,-83,-74,220
1465,-48,-2192,-1488,-60,-89,232
1470,32,-1952,-1448,-60,-96,238
1475,152,-1760,-1368,-44,-75,250
1480,296,-1632,-1200,-12,-11,266
1485,448,-1520,-952,42,74,265
1490,592,-1368,-752,109,147,257
1495,744,-1280,-584,176,188,239
1500,752,-1248,-488,222,195,192
1505,728,-1160,-512,241,194,154
1510,712,-1144,-536,222,209,117
1515,600,-1104,-472,204,249,71
1520,512,-1160,-456,171,302,28
1525,440,-1208,-432,126,357,-12
1530,312,-1264,-360,78,398,-44
1535,176,-1360,-248,38,418,-70
1540,40,-1472,-216,13,422,-99
1545,-32,-1568,-248,-14,409,-128
1550,-120,-1624,-264,-48,384,-161
1555,-216,-1760,-304,-88,357,-191
1560,-360,-1816,-352,-129,325,-231
1565,-416,-1896,-440,-164,285,-267
1570,-440,-1960,-440,-190,241,-287
1575,-472,-1936,-488,-206,194,-310
1580,-344,-1976,-512,-201,155,-331
1585,-224,-1984,-584,-174,133,-344
1590,-128,-1984,-584,-144,127,-343
1595,-32,-1976,-584,-109,125,-337
1600,-16,-1928,-504,-68,119,-339
1605,40,-1840,-472,-2,112,-347
1610,80,-1800,-432,82,114,-335
1615,112,-1736,-472,143,107,-305
1620,144,-1728,-416,162,99,-262
1625,120,-1656,-368,155,87,-219
1630,128,-1648,-328,145,70,-182
1635,152,-1632,-248,142,54,-130
1640,152,-1656,-232,147,36,-88
1645,144,-1672,-200,145,15,-52
1650,136,-1720,-184,131,-9,-22
1655,80,-1720,-160,111,-36,-2
1660,88,-1760,-216,86,-61,12
1665,80,-1760,-200,66,-83,14
1670,88,-1792,-208,49,-94,18
1675,80,-1824,-248,31,-100,25
1680,104,-1864,-240,22,-96,29
1685,64,-1848,-200,28,-92,25
1690,104,-1888,-280,47,-90,4
1695,120,-1904,-208,72,-81,-20
1700,112,-1896,-200,89,-69,-40
1705,88,-1840,-160,106,-55,-49
1710,112,-1800,-152,120,-51,-53
1715,88,-1776,-136,140,-53,-63
1720,80,-1744,-120,162,-62,-73
1725,32,-1712,-136,180,-76,-79
1730,48,-1680,-72,188,-94,-81
1735,16,-1648,-88,190,-111,-74
1740,-8,-1680,-72,185,-134,-62
1745,-16,-1704,-64,181,-163,-57
1750,-64,-1744,8,176,-193,-52
1755,-64,-1800,0,170,-227,-48
1760,-112,-1856,40,169,-266,-46
1765,-112,-1912,56,178,-306,-40
1770,-144,-1960,48,194,-346,-25
1775,-168,-2104,72,205,-388,-8
1780,-200,-2192,80,206,-436,8
1785,-192,-2264,72,213,-484,26
1790,-192,-2256,88,242,-534,39
1795,-112,-2304,72,294,-582,54
1800,-48,-2344,56,360,-625,59
1805,-24,-2304,24,416,-669,50
1810,-32,-2272,-32,453,-702,53
1815,-24,-2264,-32,469,-712,65
1820,-40,-2296,-144,466,-712,81
1825,24,-2272,-192,449,-692,94
1830,8,-2320,-176,426,-653,96
1835,0,-2336,-48,402,-618,88
1840,72,-2376,56,390,-602,66
1845,120,-2416,120,404,-599,27
1850,216,-2464,240,428,-590,-28
1855,352,-2560,344,446,-562,-91
1860,488,-2608,456,460,-528,-154
1865,600,-2640,592,480,-511,-217
1870,648,-2704,696,511,-511,-272
1875,656,-2672,680,559,-522,-322
1880,872,-2720,600,606,-526,-343
1885,736,-2624,536,629,-529,-334
1890,728,-2624,320,616,-507,-296
1895,600,-2552,80,547,-449,-275
1900,528,-2536,-208,415,-374,-272
1905,368,-2456,-504,228,-303,-277
1910,232,-2528,-688,-6,-258,-279
1915,24,-2592,-936,-245,-248,-270
1920,-120,-2672,-976,-431,-259,-256
1925,-64,-2768,-960,-507,-241,-258
1930,144,-2856,-920,-474,-168,-284
1935,288,-2800,-872,-368,-66,-342
1940,576,-2688,-872,-212,44,-416
1945,920,-2416,-992,-52,150,-493
1950,1168,-2120,-1152,70,270,-532
1955,1216,-1856,-1264,127,384,-541
1960,1056,-1648,-1264,130,465,-503
1965,832,-1520,-1112,126,508,-443
1970,576,-1376,-1008,136,508,-370
1975,392,-1296,-824,146,465,-297
1980,168,-1272,-696,152,410,-236
1985,-56,-1288,-632,136,353,-193
1990,-248,-1424,-488,108,300,-154
1995,-744,-1376,-432,82,213,-149
2000,-1032,-1408,-392,85,128,-122
2005,-1088,-1472,-424,112,67,-59
2010,-1032,-1568,-520,131,41,21
2015,-944,-1576,-632,100,31,96
2020,-864,-1632,-720,20,18,156
2025,-664,-1752,-704,-87,-1,199
2030,-480,-1856,-680,-184,-27,206
2035,-224,-2016,-624,-264,-50,170
2040,-32,-2128,-496,-318,-51,107
2045,120,-2240,-416,-333,-26,45
2050,240,-2368,-360,-305,19,-3
2055,336,-2400,-352,-232,77,-27
2060,384,-2424,-344,-130,132,-27
2065,424,-2376,-368,-21,187,1
2070,448,-2336,-456,62,260,54
2075,360,-2232,-448,121,329,134
2080,376,-2088,-464,170,375,209
2085,296,-1944,-424,204,411,243
2090,200,-1784,-384,226,435,284
2095,104,-1656,-424,241,440,333
2100,8,-1592,-360,256,443,415
2105,-32,-1560,-320,265,432,480
2110,-80,-1488,-288,267,409,504
2115,-120,-1368,-256,288,385,511
2120,-96,-1344,-272,313,371,530
2125,-64,-1344,-272,327,374,543
2130,-56,-1304,-312,316,379,532
2135,-64,-1280,-336,287,390,500
2140,-48,-1272,-408,228,411,474
2145,-40,-1264,-408,162,430,451
2150,-40,-1296,-368,93,448,431
2155,-32,-1272,-384,26,459,408
2160,-32,-1368,-328,-41,461,385
2165,-64,-1392,-328,-98,467,362
2170,-96,-1512,-288,-140,471,338
2175,-64,-1600,-232,-167,478,305
2180,-168,-1696,-216,-179,489,270
2185,-232,-1728,-184,-172,506,238
2190,-280,-1768,-136,-146,514,203
2195,-320,-1768,-176,-118,519,171
2200,-392,-1784,-208,-94,519,150
2205,-424,-1776,-200,-78,509,128
2210,-448,-1728,-160,-69,486,91
2215,-456,-1768,-128,-63,462,62
2220,-496,-1792,-104,-64,429,34
2225,-448,-1800,-72,-66,392,12
2230,-416,-1816,-32,-65,359,-4
2235,-408,-1784,-48,-60,336,-8
2240,-320,-1792,-64,-53,319,-9
2245,-240,-1784,-40,-46,312,-12
2250,-240,-1768,-72,-38,319,-16
2255,-88,-1776,-72,-29,349,-22
2260,-32,-1792,-96,-17,379,-36
2265,-8,-1832,-64,-7,411,-43
2270,40,-1856,-56,8,455,-50
2275,104,-1888,-32,29,496,-61
2280,152,-1912,16,53,523,-76
2285,136,-1960,8,75,547,-80
2290,144,-1984,8,97,561,-81
2295,136,-1968,32,113,564,-82
2300,40,-1976,72,128,550,-79
2305,-40,-2008,56,143,516,-63
2310,-160,-1992,-80,147,475,-35
2315,-320,-2056,-200,129,443,-2
2320,-400,-2072,-264,88,434,22
2325,-488,-2080,-392,42,442,43
2330,-336,-2256,-280,11,448,52
2335,-312,-2400,-240,0,446,51
2340,-312,-2504,-216,4,460,41
2345,-328,-2544,56,33,482,16
2350,-352,-2640,272,95,487,-5
2355,-480,-2696,408,187,463,-18
2360,-648,-2680,368,280,424,-13
2365,-848,-2688,336,344,396,17
2370,-936,-2680,280,382,371,70
2375,-920,-2656,272,403,353,132
2380,-864,-2656,304,418,345,194
2385,-888,-2616,328,433,345,240
2390,-648,-2584,440,457,364,279
2395,-464,-2592,568,510,376,284
2400,-264,-2544,600,564,363,279
2405,-32,-2472,480,584,348,269
2410,256,-2328,96,529,346,250
2415,592,-2264,-272,391,365,213
2420,848,-2288,-488,201,385,157
2425,920,-2384,-680,7,397,100
2430,776,-2536,-736,-130,401,66
2435,400,-2616,-736,-174,389,68
2440,144,-2656,-680,-125,343,117
2445,-200,-2536,-744,-32,276,199
2450,-464,-2328,-888,46,231,282
2455,-656,-2112,-1072,82,215,344
2460,-696,-1912,-1256,76,197,405
2465,-736,-1808,-1408,33,158,482
2470,-672,-1736,-1496,-39,80,569
2475,-640,-1696,-1528,-135,-40,646
2480,-552,-1704,-1496,-225,-161,713
2485,-392,-1768,-1336,-288,-252,764
2490,-272,-1824,-1168,-312,-308,764
2495,-16,-1936,-984,-299,-345,709
2500,200,-2080,-736,-267,-353,652
2505,376,-2216,-520,-199,-346,589
2510,536,-2256,-408,-89,-326,517
2515,664,-2240,-360,30,-287,431
2520,824,-2224,-320,121,-232,331
2525,952,-2240,-344,179,-173,225
2530,1032,-2240,-400,210,-107,112
2535,1048,-2224,-392,226,-37,-8
2540,1016,-2208,-376,239,39,-128
2545,960,-2176,-400,260,124,-263
2550,792,-2120,-400,286,209,-352
2555,536,-2016,-384,301,291,-406
2560,304,-1928,-384,306,352,-424
2565,128,-1800,-392,303,391,-413
2570,-8,-1752,-376,303,408,-383
2575,-136,-1648,-448,312,417,-348
2580,-224,-1616,-432,320,418,-305
2585,-304,-1616,-456,325,406,-267
2590,-392,-1552,-424,319,379,-235
2595,-408,-1496,-384,313,346,-203
2600,-432,-1416,-312,321,305,-178
2605,-440,-1176,-168,348,264,-158
2610,-432,-1240,-208,387,222,-145
2615,-416,-1144,-184,410,178,-136
2620,-416,-1064,-232,397,127,-120
2625,-368,-1056,-216,342,66,-105
2630,-312,-1064,-208,254,6,-101
2635,-232,-1088,-184,156,-41,-106
2640,-128,-1216,-112,87,-68,-113
2645,-16,-1320,-24,55,-79,-130
2650,88,-1432,-16,50,-79,-154
2655,128,-1520,40,53,-69,-174
2660,168,-1576,48,44,-63,-194
2665,208,-1648,72,18,-69,-217
2670,264,-1680,72,-16,-77,-234
2675,296,-1720,40,-40,-87,-241
2680,352,-1824,32,-64,-96,-237
2685,336,-1848,-16,-100,-106,-230
2690,344,-1928,-8,-141,-109,-215
2695,336,-1992,-32,-174,-107,-196
2700,344,-1984,-24,-181,-101,-176
2705,296,-1968,-8,-162,-89,-152
2710,288,-1936,-32,-133,-74,-116
2715,248,-1888,-56,-103,-59,-74
2720,240,-1840,-24,-80,-47,-30
2725,200,-1816,-32,-56,-45,14
2730,168,-1776,-8,-40,-40,60
2735,96,-1752,-24,-26,-31,97
2740,88,-1736,24,-21,-25,131
2745,32,-1712,64,-21,-24,155
2750,16,-1752,80,-19,-23,174
2755,8,-1800,80,-7,-24,184
2760,-32,-1872,176,17,-26,185
2765,-72,-1912,200,48,-34,181
2770,-96,-1960,232,79,-44,172
2775,-144,-2032,272,105,-57,156
2780,-104,-2088,272,130,-73,145
2785,-48,-2160,256,155,-91,130
2790,-16,-2224,256,182,-107,116
2795,-16,-2288,240,211,-130,96
2800,64,-2352,232,236,-152,78
2805,104,-2408,208,255,-171,64
2810,96,-2416,152,271,-187,45
2815,144,-2448,24,280,-195,34
2820,112,-2480,-40,267,-194,24
2825,16,-2576,8,234,-198,9
2830,-48,-2584,64,190,-224,5
2835,-208,-2656,200,164,-278,16
2840,-288,-2752,272,171,-343,36
2845,-232,-2864,360,206,-394,52
2850,-136,-2968,512,255,-412,36
2855,-8,-3000,640,319,-409,-23
2860,240,-3032,784,390,-405,-94
2865,368,-2960,896,469,-418,-164
2870,512,-2864,864,551,-430,-208
2875,608,-2824,768,616,-438,-248
2880,736,-2720,608,638,-433,-277
2885,752,-2640,392,605,-404,-286
2890,680,-2568,96,520,-360,-299
2895,584,-2488,-232,393,-317,-314
2900,464,-2464,-400,234,-279,-327
2905,256,-2448,-568,76,-249,-332
2910,8,-2448,-696,-46,-228,-326
2915,-8,-2464,-768,-119,-192,-316
2920,104,-2464,-888,-150,-120,-313
2925,248,-2432,-944,-160,-20,-320
2930,520,-2448,-1008,-153,83,-333
2935,744,-2264,-1080,-137,169,-364
2940,936,-2072,-1208,-131,238,-394
2945,1032,-1824,-1264,-144,313,-402
2950,1016,-1728,-1280,-181,410,-381
2955,912,-1608,-1184,-225,513,-333
2960,768,-1536,-1016,-249,592,-275
2965,680,-1464,-856,-249,643,-219
2970,664,-1432,-728,-243,676,-172
2975,544,-1424,-640,-247,709,-143
2980,352,-1520,-400,-256,744,-126
2985,96,-1640,-232,-249,763,-114
2990,-160,-1776,-200,-218,759,-103
2995,-384,-1896,-200,-175,742,-93
3000,-496,-1976,-248,-123,724,-78
3005,-616,-2008,-296,-77,713,-50
3010,-704,-2032,-352,-41,710,4
3015,-776,-2080,-432,-26,706,68
3020,-736,-2080,-440,-46,694,128
3025,-640,-2120,-504,-101,690,182
3030,-552,-2136,-584,-161,694,220
3035,-408,-2184,-544,-224,707,239
3040,-224,-2248,-376,-277,725,239
3045,-104,-2336,-528,-319,734,229
3050,0,-2376,-464,-326,731,232
3055,72,-2384,-424,-290,711,241
3060,120,-2344,-424,-214,691,260
3065,120,-2312,-392,-118,670,295
3070,152,-2216,-400,-26,645,326
3075,160,-2056,-384,48,627,348
3080,168,-1888,-392,92,626,368
3085,184,-1720,-400,133,635,401
3090,176,-1464,-416,147,648,416
3095,176,-1392,-456,138,676,426
3100,144,-1232,-408,126,714,456
3105,120,-1152,-368,116,751,500
3110,56,-1112,-264,106,775,530
3115,8,-1096,-248,93,785,538
3120,-8,-1072,-264,71,793,524
3125,0,-1120,-152,42,814,513
3130,-8,-1200,-160,17,836,485
3135,-24,-1208,-192,-12,864,449
3140,-8,-1240,-240,-65,897,425
3145,-16,-1336,-184,-122,928,395
3150,-56,-1384,-264,-175,946,364
3155,-104,-1456,-248,-231,951,343
3160,-96,-1552,-184,-267,949,317
3165,-136,-1584,-184,-278,947,294
3170,-160,-1648,-160,-282,952,282
3175,-184,-1720,-128,-286,959,284
3180,-232,-1768,-88,-283,967,288
3185,-296,-1848,-112,-269,971,279
3190,-352,-1800,-152,-254,966,254
3195,-392,-1824,-128,-243,961,232
3200,-408,-1800,-104,-234,948,210
3205,-432,-1768,-80,-213,926,186
3210,-472,-1768,-24,-199,906,154
3215,-464,-1760,0,-183,891,129
3220,-440,-1736,0,-152,872,110
3225,-416,-1760,64,-116,856,92
3230,-408,-1768,72,-83,843,74
3235,-384,-1832,72,-54,836,52
3240,-400,-1856,88,-30,827,31
3245,-344,-1904,96,-3,815,12
3250,-336,-1912,96,24,810,-12
3255,-288,-1976,128,51,810,-37
3260,-240,-2000,160,77,817,-58
3265,-208,-2040,176,104,830,-81
3270,-200,-2056,128,128,838,-98
3275,-160,-2064,104,144,845,-104
3280,-96,-2080,144,158,847,-110
3285,-152,-2080,96,176,832,-114
3290,-232,-2008,80,194,784,-99
3295,-328,-1992,-56,207,690,-75
3300,-440,-1912,-320,200,568,-42
3305,-520,-1848,-528,161,460,-5
3310,-544,-1856,-616,91,394,29
3315,-528,-1952,-736,15,376,61
3320,-448,-2040,-600,-44,398,79
3325,-360,-2216,-288,-63,441,79
3330,-344,-2384,88,-31,486,68
3335,-344,-2472,328,47,509,55
3340,-408,-2544,560,158,500,40
3345,-512,-2600,616,284,467,36
3350,-616,-2632,592,381,429,50
3355,-736,-2640,432,432,397,82
3360,-800,-2640,384,441,371,130
3365,-792,-2640,336,431,358,182
3370,-784,-2648,336,418,352,228
3375,-840,-2616,440,415,361,269
3380,-536,-2600,376,418,396,318
3385,-440,-2552,312,408,411,333
3390,-112,-2512,64,362,430,336
3395,160,-2536,-168,265,469,313
3400,456,-2608,-352,139,496,256
3405,648,-2616,-512,29,493,181
3410,744,-2624,-600,-47,475,114
3415,656,-2704,-768,-85,442,78
3420,336,-2656,-968,-89,389,90
3425,-16,-2576,-1192,-83,333,150
3430,-296,-2368,-1344,-99,292,237
3435,-408,-2240,-1472,-145,252,329
3440,-440,-2104,-1544,-213,194,414
3445,-416,-2000,-1520,-290,138,512
3450,-448,-1920,-1456,-361,64,591
3455,-384,-1888,-1384,-371,-14,648
3460,-248,-1792,-1264,-339,-60,699
3465,-104,-1808,-1040,-324,-81,739
3470,72,-1968,-864,-298,-105,702
3475,304,-1976,-680,-228,-114,615
3480,464,-2056,-576,-158,-99,529
3485,632,-2064,-456,-98,-76,432
3490,792,-1992,-456,-54,-48,320
3495,904,-2032,-400,-29,-14,202
3500,960,-2000,-368,-18,33,89
3505,944,-2048,-344,-14,89,-20
3510,872,-2064,-328,-6,153,-122
3515,744,-2088,-216,10,212,-210
3520,544,-2128,-168,35,267,-284
3525,440,-2152,-256,59,310,-342
3530,200,-2080,-320,69,347,-380
3535,0,-2016,-352,68,381,-399
3540,-120,-1992,-384,71,421,-396
3545,-168,-2000,-416,87,457,-375
3550,-288,-1928,-456,118,483,-350
3555,-304,-1872,-464,158,510,-332
3560,-272,-1832,-488,188,541,-310
3565,-248,-1784,-440,213,564,-290
3570,-232,-1736,-336,245,566,-277
3575,-144,-1704,-352,281,549,-272
3580,-88,-1592,-304,305,520,-274
3585,-48,-1488,-216,324,487,-271
3590,-16,-1336,-176,348,446,-268
3595,0,-1240,-216,368,399,-269
3600,8,-1144,-248,373,348,-268
3605,24,-1056,-280,337,299,-267
3610,32,-1032,-296,263,258,-265
3615,8,-976,-248,174,227,-260
3620,0,-1016,-216,95,209,-253
3625,16,-1048,-184,32,201,-248
3630,24,-1136,-72,-15,201,-250
3635,56,-1256,-96,-60,201,-262
3640,8,-1352,-80,-109,192,-274
3645,0,-1448,-120,-167,166,-285
3650,32,-1488,-80,-228,134,-290
3655,16,-1552,-32,-275,104,-293
3660,40,-1640,-24,-309,65,-296
3665,16,-1728,-48,-339,29,-293
3670,16,-1832,-48,-369,-5,-284
3675,8,-1888,-88,-398,-38,-265
3680,8,-1968,-72,-432,-66,-243
3685,40,-2040,-32,-444,-89,-208
3690,-16,-2096,8,-420,-117,-169
3695,16,-2104,-32,-375,-143,-124
3700,32,-2136,48,-322,-164,-89
3705,24,-2184,64,-261,-180,-61
3710,48,-2176,96,-199,-188,-35
3715,40,-2200,160,-130,-194,-18
3720,40,-2200,176,-59,-214,-3
3725,-16,-2176,168,9,-247,8
3730,-24,-2168,144,75,-276,28
3735,-80,-2176,88,130,-293,45
3740,-112,-2160,80,173,-301,56
3745,-120,-2152,56,212,-304,67
3750,-40,-2192,8,247,-306,74
3755,-16,-2184,32,277,-305,67
3760,8,-2256,-24,310,-304,54
3765,16,-2256,32,340,-300,40
3770,0,-2240,48,372,-297,18
3775,-16,-2192,64,399,-304,-3
3780,-16,-2184,-56,427,-325,-15
3785,56,-2248,-104,433,-336,-21
3790,16,-2360,-56,394,-339,-33
3795,-32,-2448,72,339,-354,-40
3800,-80,-2592,272,295,-389,-35
3805,-112,-2704,416,294,-428,-28
3810,-40,-2800,472,324,-445,-31
3815,112,-2840,576,378,-433,-51
3820,280,-2856,592,439,-413,-91
3825,496,-2832,656,501,-403,-136
3830,752,-2720,608,558,-412,-177
3835,720,-2592,520,593,-441,-206
3840,720,-2432,312,584,-442,-195
3845,640,-2296,136,523,-435,-188
3850,464,-2192,-96,407,-439,-181
3855,320,-2136,-424,256,-443,-174
3860,144,-2096,-680,94,-437,-155
3865,16,-2088,-936,-61,-415,-138
3870,-24,-2072,-1176,-199,-373,-140
3875,88,-2072,-1344,-310,-298,-157
3880,320,-2096,-1472,-393,-198,-200
3885,560,-2080,-1568,-452,-67,-272
3890,736,-2072,-1544,-493,41,-354
3895,888,-2056,-1472,-522,136,-439
3900,840,-1976,-1312,-536,195,-499
3905,824,-1952,-1224,-520,218,-535
3910,736,-1928,-1160,-459,240,-554
3915,616,-1904,-1040,-388,290,-552
3920,400,-1912,-920,-297,370,-530
3925,176,-1936,-800,-203,435,-504
3930,-104,-1952,-640,-124,454,-473
3935,-312,-2064,-552,-62,431,-430
3940,-504,-2152,-528,-29,393,-395
3945,-688,-2280,-472,-16,362,-359
3950,-792,-2392,-416,-3,333,-311
3955,-872,-2440,-408,15,288,-258
3960,-928,-2440,-376,44,223,-181
3965,-936,-2424,-368,83,141,-85
3970,-880,-2344,-368,139,71,26
3975,-632,-2184,-456,202,37,139
3980,-384,-2040,-552,227,35,238
3985,-176,-1896,-600,191,45,310
3990,-32,-1800,-568,118,42,357
3995,104,-1848,-560,39,24,392
4000,192,-1928,-536,-18,0,411
4005,192,-2000,-472,-36,-17,408
4010,248,-2048,-440,-17,-10,391
4015,232,-2024,-328,18,17,378
4020,232,-1976,-224,67,49,365
4025,288,-1864,-232,119,86,343
4030,272,-1704,-208,161,135,330
4035,328,-1552,-240,194,188,329
4040,280,-1344,-264,204,238,342
4045,232,-1224,-384,192,275,359
4050,112,-1104,-368,149,295,371
4055,104,-1024,-392,93,298,367
4060,48,-1032,-360,43,300,368
4065,16,-1032,-368,16,297,367
4070,-8,-1064,-312,-7,301,370
4075,-32,-1120,-272,-28,323,369
4080,-48,-1200,-272,-42,355,362
4085,-80,-1240,-296,-62,397,345
4090,-96,-1336,-288,-100,446,333
4095,-152,-1392,-232,-136,491,306
4100,-192,-1464,-256,-160,514,267
4105,-176,-1528,-248,-182,530,230
4110,-200,-1568,-288,-208,537,194
4115,-256,-1632,-264,-237,532,168
4120,-280,-1712,-232,-258,513,147
4125,-352,-1736,-200,-263,491,133
4130,-424,-1784,-192,-251,472,120
4135,-424,-1832,-208,-238,450,110
4140,-432,-1816,-192,-227,435,101
4145,-448,-1856,-168,-220,417,89
4150,-440,-1856,-112,-204,395,73
4155,-416,-1880,-128,-178,375,54
4160,-408,-1888,-24,-148,357,30
4165,-384,-1888,8,-111,352,5
4170,-304,-1904,24,-69,354,-17
4175,-272,-1960,64,-28,363,-39
4180,-192,-1960,72,10,376,-55
4185,-144,-2040,64,49,394,-76
4190,-96,-2072,104,89,413,-92
4195,-80,-2088,88,128,432,-102
4200,-8,-2128,72,172,449,-106
4205,-16,-2120,96,209,445,-105
4210,-64,-2136,112,245,427,-91
4215,-160,-2160,72,275,394,-65
4220,-248,-2112,-24,294,334,-29
4225,-376,-2128,-120,290,269,8
4230,-416,-2104,-304,262,225,51
4235,-456,-2176,-320,222,211,86
4240,-424,-2224,-320,187,215,111
4245,-368,-2304,-288,172,228,119
4250,-264,-2384,-200,177,237,115
4255,-192,-2472,-48,194,260,93
4260,-104,-2600,152,231,290,50
4265,-120,-2680,360,292,312,2
4270,-240,-2744,512,379,313,-34
4275,-392,-2752,488,468,303,-43
4280,-592,-2752,408,534,295,-20
4285,-688,-2712,320,571,294,26
4290,-744,-2656,272,583,303,74
4295,-680,-2584,256,583,331,114
4300,-624,-2536,312,586,361,131
4305,-512,-2456,384,596,366,152
4310,-384,-2376,408,617,369,165
4315,-176,-2256,176,627,389,173
4320,120,-2144,-96,599,436,169
4325,320,-2072,-368,517,492,151
4330,504,-2000,-680,384,538,127
4335,624,-1952,-936,231,567,97
4340,616,-1952,-1032,99,567,74
4345,472,-1920,-1112,11,537,85
4350,352,-1840,-1176,-25,494,143
4355,152,-1768,-1232,-62,464,227
4360,-120,-1720,-1328,-114,444,303
4365,-344,-1664,-1376,-179,403,377
4370,-472,-1608,-1512,-252,324,444
4375,-560,-1536,-1600,-341,239,516
4380,-608,-1608,-1536,-444,135,605
4385,-568,-1784,-1320,-525,14,676
4390,-472,-1952,-1080,-567,-100,716
4395,-296,-2208,-832,-565,-185,720
4400,-72,-2416,-648,-497,-241,680
4405,152,-2584,-512,-378,-281,599
4410,376,-2696,-504,-254,-293,513
4415,512,-2784,-552,-166,-291,414
4420,664,-2792,-648,-114,-280,305
4425,696,-2784,-600,-72,-252,181
4430,760,-2720,-584,-12,-206,52
4435,776,-2680,-512,75,-140,-81
4440,680,-2624,-480,179,-58,-210
4445,560,-2496,-448,285,22,-327
4450,456,-2328,-440,387,84,-428
4455,232,-2112,-432,460,131,-494
4460,72,-1896,-416,511,162,-517
4465,-48,-1680,-440,544,191,-511
4470,-112,-1608,-432,561,214,-482
4475,-184,-1536,-408,553,230,-447
4480,-248,-1408,-432,516,249,-407
4485,-320,-1344,-376,470,256,-357
4490,-328,-1208,-264,430,240,-306
4495,-248,-1216,-288,399,213,-272
4500,-184,-1200,-264,373,181,-245
4505,-152,-1136,-208,350,155,-232
4510,-128,-1096,-128,325,131,-223
4515,-136,-1064,-144,305,103,-206
4520,-136,-1040,-128,282,68,-191
4525,-136,-1040,-160,252,29,-192
4530,-112,-1016,-184,205,-9,-204
4535,-80,-1024,-184,145,-42,-218
4540,-96,-1088,-128,71,-69,-237
4545,-40,-1168,-120,-11,-85,-255
4550,-8,-1328,-24,-91,-95,-272
4555,16,-1456,56,-155,-106,-294
4560,104,-1560,96,-191,-115,-312
4565,112,-1624,112,-193,-124,-321
4570,160,-1720,136,-177,-131,-322
4575,224,-1816,160,-167,-139,-315
4580,248,-1856,104,-167,-155,-316
4585,136,-1896,64,-174,-166,-313
4590,112,-1912,88,-193,-158,-279
4595,152,-1952,80,-194,-146,-243
4600,152,-1936,104,-181,-144,-219
4605,216,-1896,184,-168,-150,-207
4610,96,-1872,112,-152,-177,-193
4615,72,-1904,72,-156,-200,-143
4620,88,-1960,56,-176,-218,-85
4625,128,-1968,112,-188,-237,-42
4630,24,-2040,96,-181,-266,-11
4635,-16,-2128,144,-150,-289,37
4640,-48,-2128,152,-90,-309,75
4645,-88,-2144,168,-20,-335,100
4650,-176,-2120,152,48,-365,118
4655,-208,-2104,104,103,-397,121
4660,-264,-2112,128,139,-436,109
4665,-232,-2144,120,164,-480,91
4670,-176,-2184,88,182,-517,69
4675,-96,-2184,104,211,-529,46
4680,-32,-2248,104,253,-526,28
4685,-16,-2296,80,294,-516,16
4690,-48,-2296,72,317,-513,7
4695,-8,-2328,48,321,-515,7
4700,88,-2384,80,315,-508,7
4705,104,-2440,160,302,-496,-1
4710,72,-2520,368,281,-500,-10
4715,80,-2648,488,268,-525,-8
4720,72,-2760,568,280,-549,1
4725,144,-2792,680,313,-545,-3
4730,336,-2768,768,369,-515,-28
4735,480,-2712,776,444,-486,-68
4740,720,-2600,712,516,-467,-114
4745,968,-2480,504,559,-450,-154
4750,1040,-2272,192,535,-426,-178
4755,1048,-2136,-216,446,-394,-182
4760,984,-2088,-544,269,-345,-204
4765,800,-2024,-1112,1,-319,-237
4770,616,-2072,-1480,-330,-323,-272
4775,400,-2200,-1744,-657,-353,-297
4780,224,-2336,-1824,-897,-361,-321
4785,192,-2352,-1832,-1042,-313,-365
4790,208,-2384,-1768,-1109,-201,-452
4795,424,-2344,-1560,-1110,-45,-564
4800,600,-2272,-1384,-1048,138,-673
4805,776,-2136,-1328,-920,287,-768
4810,848,-2080,-1320,-770,374,-803
4815,744,-2080,-1296,-639,436,-785
4820,520,-2136,-1112,-523,513,-735
4825,264,-2208,-912,-395,581,-716
4830,152,-2272,-752,-262,629,-685
4835,-40,-2352,-632,-125,642,-649
4840,-304,-2456,-496,-16,594,-602
4845,-504,-2520,-456,44,504,-540
4850,-712,-2584,-512,52,395,-439
4855,-824,-2624,-600,15,289,-310
4860,-864,-2640,-568,-47,199,-186
4865,-776,-2632,-576,-71,117,-86
4870,-704,-2568,-528,-54,62,23
4875,-520,-2448,-536,-14,22,134
4880,-384,-2336,-640,40,9,247
4885,-176,-2160,-696,84,21,360
4890,-8,-2008,-712,103,47,451
4895,168,-1944,-720,121,74,525
4900,264,-1840,-696,132,99,580
4905,328,-1864,-656,134,122,609
4910,360,-1888,-584,129,154,604
4915,384,-1912,-488,128,202,581
4920,392,-1952,-344,144,250,545
4925,344,-1872,-288,194,285,498
4930,288,-1792,-248,251,320,440
4935,280,-1616,-216,283,367,396
4940,264,-1464,-200,299,433,390
4945,272,-1248,-200,309,501,388
4950,208,-1064,-264,325,566,392
4955,168,-960,-264,330,613,409
4960,120,-784,-288,304,641,407
4965,16,-728,-248,245,660,407
4970,-48,-728,-176,177,649,403
4975,-88,-688,-136,126,608,393
4980,-128,-824,-32,82,567,394
4985,-176,-880,-56,39,538,392
4990,-200,-984,-16,-11,534,397
4995,-216,-1080,-40,-61,548,403
5000,-264,-1160,-24,-109,569,404
5005,-288,-1248,-80,-142,596,395
5010,-256,-1320,-72,-167,620,383
5015,-248,-1400,-96,-193,647,373
5020,-216,-1480,-144,-223,660,358
5025,-224,-1504,-152,-254,663,340
5030,-232,-1600,-136,-283,661,320
5035,-240,-1664,-152,-300,656,301
5040,-264,-1784,-96,-297,649,281
5045,-248,-1824,-160,-283,644,246
5050,-248,-1856,-176,-268,644,203
5055,-248,-1824,-160,-242,652,156
5060,-288,-1824,-176,-210,657,115
5065,-280,-1800,-160,-172,662,74
5070,-296,-1696,-160,-133,672,33
5075,-304,-1712,-128,-112,691,-3
5080,-248,-1760,-128,-79,704,-31
5085,-232,-1720,-96,-44,708,-55
5090,-192,-1768,-32,-26,721,-76
5095,-120,-1792,-8,-3,739,-89
5100,-136,-1832,-24,16,751,-100
5105,48,-1848,24,24,773,-101
5110,40,-1944,-24,28,795,-119
5115,72,-2032,0,38,799,-120
5120,120,-2056,-80,51,787,-113
5125,120,-2096,-128,63,759,-109
5130,8,-2104,-232,62,726,-99
5135,16,-2112,-256,44,708,-72
5140,96,-2088,-448,39,686,-54
5145,-48,-2096,-544,22,650,-35
5150,-48,-2120,-648,-12,613,-9
5155,-80,-2200,-736,-63,605,4
5160,-32,-2272,-512,-114,634,7
5165,-80,-2424,-288,-100,660,-13
5170,-208,-2504,-72,-42,660,-21
5175,-376,-2616,112,52,644,-9
5180,-560,-2688,208,153,624,25
5185,-656,-2808,256,246,608,82
5190,-688,-2928,288,310,604,153
5195,-712,-3016,336,352,607,224
5200,-680,-3096,432,376,615,286
5205,-696,-3160,608,401,626,331
5210,-520,-3160,648,429,652,367
5215,-432,-3168,688,460,642,389
5220,-328,-3152,760,479,606,403
5225,-224,-3072,712,493,560,417
5230,-128,-2896,616,507,513,416
5235,-72,-2592,352,510,477,400
5240,16,-2360,64,483,482,379
5245,192,-2096,-448,409,537,351
5250,408,-1952,-896,274,632,314
5255,552,-1912,-1272,97,740,260
5260,496,-2032,-1464,-89,829,193
5265,336,-2088,-1528,-216,865,148
5270,152,-2120,-1488,-304,852,137
5275,-80,-2144,-1440,-358,813,151
5280,-280,-2016,-1400,-374,742,188
5285,-368,-1888,-1400,-363,651,228
5290,-400,-1560,-1552,-326,530,255
5295,-384,-1432,-1656,-342,429,330
5300,-464,-1360,-1800,-343,281,376
5305,-464,-1256,-1936,-358,83,418
5310,-344,-1280,-1872,-452,-133,492
5315,-232,-1320,-1784,-564,-329,568
5320,-56,-1544,-1592,-663,-466,623
5325,128,-1832,-1424,-715,-525,642
5330,352,-2152,-1168,-747,-511,647
5335,488,-2400,-896,-751,-442,645
5340,592,-2536,-720,-697,-353,640
5345,712,-2680,-504,-579,-265,622
5350,832,-2768,-448,-421,-177,577
5355,936,-2784,-488,-245,-83,494
5360,920,-2784,-560,-81,27,383
5365,832,-2728,-584,54,152,245
5370,744,-2576,-616,185,277,80
5375,600,-2368,-608,263,404,-91
5380,416,-2104,-600,305,517,-252
5385,232,-1936,-592,313,613,-363
5390,40,-1680,-600,311,675,-432
5395,-88,-1400,-664,267,721,-444
5400,-208,-1272,-688,162,734,-412
5405,-328,-1056,-744,40,683,-399
5410,-400,-960,-664,-73,586,-404
5415,-464,-840,-640,-146,475,-415
5420,-536,-704,-576,-202,369,-421
5425,-592,-664,-504,-248,251,-421
5430,-688,-600,-480,-283,124,-427
5435,-744,-624,-416,-313,-9,-436
5440,-816,-720,-408,-352,-133,-436
5445,-840,-832,-384,-423,-244,-441
5450,-896,-1048,-312,-511,-342,-460
5455,-768,-1312,-240,-600,-422,-482
5460,-680,-1584,-136,-680,-494,-515
5465,-512,-1912,-80,-731,-538,-562
5470,-280,-2184,-48,-734,-546,-598
5475,-72,-2440,8,-697,-535,-639
5480,112,-2600,-16,-637,-526,-677
5485,232,-2720,24,-566,-530,-699
5490,416,-2824,40,-460,-554,-701
5495,504,-2760,24,-330,-581,-701
5500,592,-2648,-48,-200,-590,-697
5505,640,-2528,-120,-83,-582,-681
5510,632,-2336,-216,17,-548,-658
5515,656,-2176,-280,98,-508,-637
5520,560,-2024,-368,148,-455,-596
5525,520,-1864,-328,186,-393,-533
5530,392,-1832,-400,226,-339,-462
5535,296,-1736,-344,257,-282,-380
5540,216,-1608,-336,292,-233,-311
5545,24,-1472,-264,324,-198,-254
5550,24,-1336,-208,339,-159,-204
5555,40,-1248,-200,338,-118,-167
5560,-16,-1216,-200,322,-91,-152
5565,-16,-1216,-152,282,-81,-149
5570,0,-1256,-176,226,-84,-159
5575,24,-1352,-128,159,-102,-175
5580,48,-1408,-144,91,-131,-193
5585,72,-1456,-128,35,-167,-210
5590,96,-1552,-104,-1,-210,-225
5595,88,-1608,-72,-10,-262,-241
5600,72,-1616,-64,10,-320,-248
5605,96,-1656,-64,41,-382,-240
5610,24,-1728,-112,69,-450,-232
5615,-24,-1768,-152,84,-515,-227
5620,16,-1848,-176,90,-585,-224
5625,-48,-1936,-208,91,-659,-228
5630,-24,-2120,-200,96,-738,-241
5635,-32,-2328,-216,123,-811,-276
5640,-8,-2600,-176,163,-864,-315
5645,16,-2816,-152,232,-889,-366
5650,136,-3000,-120,319,-902,-422
5655,160,-3176,-32,428,-894,-481
5660,256,-3272,-24,547,-882,-525
5665,376,-3296,64,652,-856,-566
5670,464,-3272,112,740,-829,-597
5675,440,-3160,144,821,-787,-621
5680,504,-2960,80,839,-771,-618
5685,504,-2808,144,781,-764,-603
5690,552,-2712,208,690,-745,-580
5695,704,-2584,312,599,-716,-542
5700,760,-2552,352,520,-679,-490
5705,856,-2456,424,467,-639,-424
5710,960,-2376,520,416,-619,-361
5715,952,-2216,536,357,-618,-305
5720,968,-2112,456,258,-632,-253
5725,1064,-2056,296,126,-634,-196
5730,992,-1896,96,-32,-607,-125
5735,872,-1664,-320,-211,-585,-51
5740,976,-1528,-784,-401,-561,48
5745,1304,-1448,-1432,-608,-471,112
5750,1536,-1456,-1736,-852,-287,146
5755,1504,-1432,-1920,-1151,-110,131
5760,1272,-1704,-1672,-1436,3,98
5765,1232,-2072,-1488,-1611,80,70
5770,1136,-2320,-1360,-1692,131,14
5775,1008,-2552,-1128,-1707,205,-48
5780,800,-2736,-984,-1692,296,-97
5785,704,-2912,-944,-1652,380,-146
5790,616,-3064,-968,-1611,445,-216
5795,592,-3160,-968,-1547,502,-292
5800,472,-3304,-976,-1445,529,-377
5805,328,-3336,-1008,-1302,499,-481
5810,-48,-3224,-1064,-1111,443,-550
5815,-256,-2792,-1176,-874,412,-509
5820,-408,-2392,-1248,-625,408,-348
5825,-632,-1736,-1200,-400,387,-111
5830,-880,-1272,-1000,-216,288,104
5835,-1048,-912,-856,-49,112,257
5840,-928,-920,-776,114,-68,364
5845,-720,-904,-688,277,-217,437
5850,-672,-896,-784,402,-351,443
5855,-680,-952,-912,442,-458,450
5860,-680,-1072,-1016,357,-537,473
5865,-576,-1272,-976,172,-580,493
5870,-560,-1456,-976,-32,-608,500
5875,-464,-1704,-920,-218,-619,481
5880,-224,-1872,-1032,-380,-629,452
5885,-16,-2056,-1080,-537,-594,406
5890,160,-2160,-1248,-695,-524,353
5895,368,-2208,-1384,-832,-416,302
5900,520,-2320,-1408,-923,-278,258
5905,600,-2312,-1400,-925,-126,230
5910,552,-2224,-1360,-835,24,210
5915,488,-2112,-1304,-682,147,200
5920,352,-1928,-1208,-507,242,215
5925,280,-1768,-1144,-339,311,246
5930,192,-1616,-1016,-200,370,284
5935,104,-1544,-944,-92,421,324
5940,112,-1544,-936,-21,456,360
5945,96,-1472,-944,12,492,389
5950,-8,-1448,-888,0,533,418
5955,-32,-1536,-840,-41,560,451
5960,-16,-1600,-848,-83,573,470
5965,-32,-1632,-840,-118,594,480
5970,-8,-1752,-800,-131,615,489
5975,56,-1768,-776,-123,633,485
5980,64,-1728,-712,-106,659,461
5985,64,-1656,-656,-82,688,435
5990,88,-1632,-640,-42,714,422
5995,112,-1576,-576,-8,740,409
6000,88,-1568,-528,17,755,388
6005,80,-1544,-520,35,769,369
6010,64,-1504,-448,43,792,371
6015,8,-1488,-400,51,808,385
6020,-88,-1440,-376,61,812,408
6025,-128,-1408,-320,66,807,429
6030,-200,-1384,-312,63,782,431
6035,-208,-1352,-312,51,745,425
6040,-240,-1376,-280,42,713,429
6045,-296,-1304,-264,37,688,436
6050,-304,-1296,-328,33,671,439
6055,-376,-1152,-344,30,666,440
6060,-376,-1224,-408,27,665,447
6065,-328,-1184,-384,14,663,439
6070,-336,-1184,-416,13,665,446
6075,-312,-1192,-448,17,666,459
6080,-248,-1160,-448,26,670,464
6085,-232,-1168,-464,30,688,486
6090,-192,-1208,-456,22,705,511
6095,-192,-1184,-456,17,711,520
6100,-144,-1192,-448,5,717,531
6105,-128,-1208,-456,3,710,525
6110,-72,-1200,-440,4,699,497
6115,8,-1192,-440,-1,703,476
6120,16,-1184,-440,-10,724,455
6125,80,-1216,-440,-25,733,430
6130,96,-1232,-424,-33,737,388
6135,72,-1224,-448,-43,745,347
6140,112,-1264,-456,-62,752,337
6145,120,-1296,-424,-93,762,344
6150,144,-1304,-416,-120,791,354
6155,184,-1400,-376,-141,823,361
6160,168,-1408,-376,-149,850,356
6165,216,-1464,-368,-163,872,360
6170,248,-1592,-328,-171,904,358
6175,248,-1688,-312,-143,925,343
6180,264,-1776,-336,-88,937,325
6185,264,-1848,-376,-20,942,306
6190,272,-1960,-448,55,938,293
6195,256,-2072,-576,123,936,277
6200,168,-2160,-592,174,943,277
6205,160,-2232,-568,213,954,299
6210,128,-2296,-512,256,959,328
6215,-8,-2328,-544,310,963,373
6220,8,-2392,-504,349,956,431
6225,0,-2408,-512,363,941,461
6230,80,-2472,-488,364,933,471
6235,160,-2488,-496,350,941,486
6240,280,-2536,-432,314,961,508
6245,456,-2592,-280,278,964,483
6250,592,-2696,-176,249,951,428
6255,568,-2736,-64,226,927,369
6260,568,-2816,32,215,907,329
6265,440,-2960,104,223,890,295
6270,200,-3016,104,247,886,278
6275,48,-3016,128,260,887,287
6280,-120,-2992,192,258,887,313
6285,-280,-2888,192,264,886,335
6290,-464,-2744,96,283,864,340
6295,-576,-2592,-16,298,820,330
6300,-616,-2424,-88,288,773,314
6305,-720,-2312,-168,264,715,302
6310,-784,-2136,-352,229,640,293
6315,-832,-1968,-648,165,554,289
6320,-832,-1784,-1080,51,470,290
6325,-784,-1672,-1368,-104,389,271
6330,-880,-1488,-1848,-314,331,230
6335,-736,-1320,-2088,-555,301,189
6340,-568,-1208,-2352,-763,279,129
6345,-464,-1248,-2472,-933,265,65
6350,-496,-1232,-2480,-1053,229,-7
6355,-616,-1288,-2256,-1132,132,-64
6360,-720,-1360,-2008,-1116,-30,-102
6365,-992,-1456,-1736,-1054,-232,-133
6370,-1200,-1520,-1616,-998,-449,-114
6375,-1224,-1544,-1504,-961,-639,-31
6380,-1184,-1544,-1376,-922,-800,65
6385,-1032,-1592,-1352,-876,-939,146
6390,-752,-1640,-1344,-796,-1038,224
6395,-528,-1768,-1328,-673,-1093,277
6400,-248,-1912,-1272,-526,-1115,263
6405,-48,-1912,-1248,-368,-1110,204
6410,72,-1896,-1160,-231,-1060,126
6415,216,-1896,-1024,-133,-964,65
6420,400,-1848,-944,-63,-836,9
6425,608,-1840,-736,-6,-681,-55
6430,872,-1848,-512,44,-510,-143
6435,1032,-1816,-336,94,-326,-237
6440,1152,-1768,-224,159,-144,-311
6445,1208,-1720,-160,252,29,-361
6450,1224,-1656,-208,346,189,-387
6455,1152,-1552,-280,418,342,-400
6460,1064,-1456,-328,447,491,-408
6465,960,-1400,-400,436,637,-410
6470,896,-1328,-392,390,779,-404
6475,808,-1216,-368,316,913,-383
6480,664,-1152,-296,222,1025,-345
6485,568,-1144,-216,112,1109,-278
6490,400,-1200,0,19,1154,-198
6495,400,-1288,-16,-30,1146,-121
6500,288,-1416,40,-38,1097,-62
6505,216,-1536,8,5,1032,-22
6510,264,-1600,48,71,960,9
6515,248,-1640,0,126,873,15
6520,136,-1640,-144,175,774,-7
6525,-64,-1544,-368,228,670,-19
6530,-384,-1480,-272,254,527,-20
6535,-304,-1432,-192,202,280,-42
6540,-464,-1456,-352,65,-40,-197
6545,-872,-1448,-616,-161,-278,-326
6550,-1008,-1408,-872,-403,-382,-355
6555,-720,-1280,-968,-574,-394,-382
6560,-336,-1208,-1016,-624,-411,-469
6565,-120,-1280,-1064,-550,-537,-578
6570,88,-1408,-1208,-382,-813,-658
6575,336,-1424,-1272,-172,-1168,-692
6580,616,-1320,-1432,29,-1484,-696
6585,672,-1208,-1664,140,-1677,-732
6590,656,-1160,-1840,126,-1767,-822
6595,448,-1288,-2096,-3,-1805,-958
6600,56,-1536,-2160,-227,-1843,-1114
6605,-216,-1760,-1816,-453,-1866,-1268
6610,-280,-1984,-1448,-585,-1815,-1415
6615,-208,-2168,-1168,-650,-1726,-1611
6620,-328,-2248,-952,-695,-1705,-1911
6625,-536,-2392,-944,-766,-1615,-2187
6630,-504,-2520,-1208,-829,-1409,-2398
6635,-512,-2720,-1504,-863,-1103,-2537
6640,-536,-3240,-1456,-827,-815,-2642
6645,-400,-3944,-776,-637,-640,-2744
6650,-336,-4320,-248,-236,-583,-2911
6655,-256,-4472,176,173,-540,-2984
6660,-352,-4472,320,391,-498,-2913
6665,-360,-4376,40,422,-435,-2648
6670,-112,-4224,-408,284,-250,-2194
6675,256,-4144,-480,37,-68,-1660
6680,536,-3928,-408,-237,29,-1183
6685,704,-3816,-240,-537,55,-817
6690,744,-3696,-168,-811,104,-522
6695,800,-3776,-112,-981,181,-254
6700,760,-3776,-48,-1134,262,-15
6705,720,-3736,-88,-1281,393,159
6710,648,-3704,-80,-1418,598,245
6715,696,-3632,-192,-1576,864,259
6720,576,-3944,-248,-1780,1142,217
6725,440,-4072,-416,-2002,1390,202
6730,280,-3976,-440,-2331,1574,256
6735,216,-4144,-64,-2678,1708,385
6740,88,-4032,144,-2860,1705,561
6745,472,-3432,128,-2841,1637,708
6750,632,-2472,216,-2655,1753,629
6755,672,-1384,224,-2353,1881,422
6760,480,-608,32,-2052,2037,251
6765,472,344,88,-1839,2026,252
6770,400,1072,-328,-1687,1820,310
6775,56,1520,-640,-1652,1543,368
6780,-224,1624,-768,-1711,1234,439
6785,-368,1792,-880,-1768,894,519
6790,-696,1720,-704,-1719,510,548
6795,-968,1760,-640,-1529,73,582
6800,-1056,1768,-656,-1320,-345,634
6805,-1032,1696,-648,-1202,-660,659
6810,-752,1472,-584,-1188,-843,648
6815,-264,1168,-648,-1255,-918,591
6820,288,888,-632,-1425,-907,490
6825,704,496,-400,-1632,-803,352
6830,1056,264,-344,-1716,-622,280
6835,1480,-176,-80,-1695,-364,182
6840,1784,-440,88,-1576,-63,40
6845,2088,-592,144,-1407,228,-107
6850,2520,-448,-176,-1200,493,-223
6855,2800,-400,-624,-1087,714,-343
6860,2848,-136,-1216,-1117,888,-465
6865,2512,128,-1664,-1265,992,-523
6870,2024,240,-1736,-1476,1044,-507
6875,1464,168,-1536,-1662,1081,-440
6880,1056,80,-1352,-1751,1134,-345
6885,592,48,-1048,-1734,1212,-264
6890,328,40,-808,-1650,1280,-220
6895,80,104,-712,-1509,1323,-208
6900,-104,200,-736,-1372,1322,-198
6905,-392,456,-856,-1292,1261,-200
6910,-504,520,-920,-1318,1152,-186
6915,-544,616,-928,-1417,1027,-169
6920,-480,672,-936,-1555,919,-140
6925,-408,552,-928,-1664,840,-122
6930,-304,648,-880,-1745,786,-126
6935,-224,616,-840,-1773,757,-150
6940,-48,688,-824,-1770,744,-200
6945,120,672,-856,-1765,728,-258
6950,272,632,-872,-1773,708,-317
6955,384,504,-840,-1802,687,-371
6960,496,368,-776,-1833,665,-424
6965,576,256,-768,-1856,652,-468
6970,624,152,-760,-1871,653,-507
6975,616,104,-832,-1886,664,-535
6980,536,8,-808,-1907,680,-552
6985,424,-64,-832,-1927,701,-553
6990,320,-152,-760,-1953,723,-543
6995,168,-200,-688,-1979,745,-523
7000,72,-264,-680,-2009,762,-502
7005,-120,-304,-576,-2042,772,-479
7010,-216,-336,-472,-2070,786,-444
7015,-296,-344,-408,-2069,801,-406
7020,-368,-296,-360,-2045,807,-372
7025,-368,-248,-392,-2004,804,-338
7030,-408,-192,-408,-1959,792,-303
7035,-400,-208,-448,-1922,777,-271
7040,-360,-192,-504,-1881,755,-252
7045,-344,-224,-504,-1848,728,-250
7050,-280,-192,-544,-1817,701,-261
7055,-272,-264,-520,-1783,674,-288
7060,-272,-304,-520,-1752,645,-319
7065,-264,-392,-512,-1718,627,-346
7070,-224,-384,-504,-1650,614,-353
7075,-160,-424,-536,-1589,602,-363
7080,-224,-384,-512,-1549,579,-391
7085,-232,-480,-520,-1553,551,-409
7090,-176,-560,-504,-1566,540,-420
7095,-104,-584,-496,-1576,546,-444
7100,-64,-720,-464,-1553,565,-464
7105,-56,-760,-456,-1469,598,-473
7110,-24,-808,-440,-1365,627,-475
7115,-16,-824,-424,-1280,637,-474
7120,24,-840,-424,-1205,621,-475
7125,-40,-848,-520,-1119,601,-463
7130,-24,-720,-688,-1046,581,-440
7135,-80,-688,-720,-1050,574,-439
7140,-96,-608,-624,-1109,575,-458
7145,-120,-608,-536,-1188,590,-481
7150,-176,-544,-440,-1278,633,-499
7155,-296,-504,-320,-1402,671,-507
7160,-336,-448,-288,-1607,706,-505
7165,-312,-424,-288,-1807,771,-509
7170,-344,-480,-312,-1955,859,-517
7175,-328,-584,-440,-2020,944,-520
7180,-184,-648,-528,-2009,1034,-511
7185,0,-592,-736,-1958,1137,-507
7190,152,-488,-840,-1912,1246,-527
7195,312,-352,-1032,-1893,1328,-541
7200,528,-144,-1216,-1923,1358,-547
7205,600,-56,-952,-2058,1370,-560
7210,576,-32,-728,-2201,1350,-582
7215,424,-112,-552,-2307,1279,-589
7220,168,-304,-24,-2326,1216,-544
7225,3856,1664,456,-2043,1194,-389
7230,3592,3992,-2552,113,-1941,-1294
7235,-2688,1128,-2272,245,-1295,-1238
7240,-128,712,-5560,-764,1762,130
7245,2216,1280,-2776,-784,4106,690
7250,4352,4904,-2504,-734,4116,265
7255,5816,7048,-4160,-11,2496,-204
7260,7624,15816,-11640,441,774,-1064
7265,4912,19320,-9624,-1667,-585,-2864
7270,1944,12672,-7680,-2726,-2160,-2273
7275,14600,424,-7960,-39,-1687,-1209
7280,18096,-216,-16256,1301,-1189,-1322
7285,14296,2824,-13840,-994,-1456,-2072
7290,9576,4680,-12648,-2278,-1114,-2365
7295,8504,8560,-13128,-2276,-662,-2009
7300,2168,5840,-9344,-3626,-761,-1705
7305,1744,3656,-6448,-4641,-719,-1214
7310,1168,1608,-4672,-5158,-572,-668
7315,2024,3112,-1960,-5980,-682,-176
7320,1520,528,-1248,-6770,-879,-87
7325,1536,-1624,-1904,-6262,-1332,138
7330,2992,-1576,-2648,-5712,-2019,727
7335,2256,-12848,-5392,-5601,-2448,1269
7340,3040,-28424,-3920,-575,-741,1616
7345,-2000,-11520,-5208,10043,2295,-504
7350,2408,11888,-5296,12969,108,-4903
7355,-3144,11840,-1160,8933,-2892,-4913
7360,-1408,9088,1064,5256,-3260,-1837
7365,-1400,-4272,2784,4036,-2205,2008
7370,4376,-608,2320,3957,15,4919
7375,2632,5072,-1728,4142,-1160,2500
7380,448,7056,-2408,3626,-1859,-877
7385,80,8696,-2128,2908,-1236,-1909
7390,736,9584,-1424,2251,-160,-1096
7395,2184,9792,-1336,1579,935,352
7400,3320,8784,-1424,1082,1378,1300
7405,3608,7472,-1576,754,1317,1426
7410,3392,5376,-1960,412,1091,989
7415,2464,3680,-1328,-186,871,377
7420,1456,2400,-424,-720,880,-52
7425,784,1080,-112,-859,1047,-178
7430,496,208,40,-803,1068,-80
7435,24,-600,-16,-762,1034,74
7440,-80,-1488,-88,-850,970,145
7445,-896,-1592,-96,-969,1009,25
7450,-992,-1528,-112,-1025,941,-101
7455,-968,-1392,-216,-989,933,-90
7460,-912,-1064,-288,-935,1018,-42
7465,-936,-840,-376,-882,1135,0
7470,-888,-624,-376,-813,1196,75
7475,-792,-432,-472,-683,1165,131
7480,-744,-144,-512,-520,1075,121
7485,-632,264,-504,-369,959,52
7490,-528,712,-448,-253,835,-38
7495,-456,1072,-264,-209,705,-131
7500,168,1544,-312,-201,585,-195
7505,720,1728,-352,-175,403,-228
7510,1224,1816,-384,-94,226,-212
7515,1520,1880,-568,45,81,-156
7520,1368,1632,-512,164,-26,-101
7525,1112,1448,-672,271,-213,-99
7530,904,1304,-776,276,-371,-41
7535,600,1008,-776,176,-554,66
7540,1008,976,-1160,37,-776,191
7545,1256,720,-1352,-94,-1092,243
7550,1064,640,-1408,-211,-1235,236
7555,544,456,-1320,-334,-1226,124
7560,760,520,-1592,-348,-1080,25
7565,968,440,-1584,-360,-909,-55
7570,1144,472,-1784,-315,-879,-53
7575,1184,528,-1832,-322,-861,-102
7580,1280,864,-1888,-373,-843,-173
7585,984,1088,-1816,-395,-860,-232
7590,1184,976,-1768,-298,-816,-189
7595,1048,1160,-1800,-100,-631,-139
7600,1112,1568,-1808,-14,-532,-74
7605,1240,1168,-1888,146,-423,10
7610,1784,856,-1968,283,-278,123
7615,1800,992,-2088,321,-251,143
7620,1416,1200,-2184,370,-159,124
7625,1512,1312,-2256,397,-134,134
7630,1512,1576,-2328,367,-120,113
7635,1392,1688,-2272,327,-116,94
7640,1376,1640,-2264,321,-113,83
7645,1416,1512,-2256,332,-123,56
7650,1480,1584,-2312,352,-153,14
7655,1224,1672,-2320,364,-201,-59
7660,1344,1592,-2288,409,-264,-156
7665,1584,1576,-2320,501,-260,-215
7670,1688,1504,-2384,550,-212,-192
7675,1528,1368,-2224,504,-191,-156
7680,1176,1264,-2176,466,-190,-108
7685,1256,1160,-2168,424,-206,-97
7690,1456,1024,-2200,428,-181,-30
7695,1352,1000,-1992,424,-95,81
7700,1040,1008,-1864,463,11,134
7705,1048,968,-1840,504,38,167
7710,1136,832,-1696,503,36,156
7715,1136,984,-1600,527,88,145
7720,1048,904,-1480,548,160,173
7725,752,360,-1256,543,175,243
7730,688,-312,-1176,575,114,304
7735,744,-528,-1312,599,18,321
7740,736,-456,-1200,531,-101,304
7745,584,-56,-1112,456,-219,281
7750,800,208,-1072,387,-303,253
7755,960,296,-1048,376,-342,288
7760,992,336,-1040,363,-417,335
7765,960,248,-1184,336,-504,382
7770,984,368,-1032,305,-575,418
7775,984,416,-1152,273,-641,443
7780,696,384,-1120,220,-679,437
7785,784,256,-1232,210,-703,506
7790,680,136,-1264,163,-691,572
7795,840,40,-1352,151,-672,595
7800,960,48,-1424,153,-645,581
7805,688,-16,-1552,157,-601,502
7810,784,112,-1632,163,-523,428
7815,728,120,-1544,190,-427,308
7820,776,296,-1544,256,-369,231
7825,712,384,-1616,293,-337,197
7830,744,320,-1680,324,-324,187
7835,744,456,-1712,323,-284,164
7840,776,384,-1608,336,-226,150
7845,784,296,-1768,359,-184,144
7850,768,232,-1960,359,-147,139
7855,1016,24,-1856,306,-76,123
7860,936,128,-1840,279,-15,88
7865,760,96,-1800,233,18,68
7870,808,-32,-1936,223,17,85
7875,864,-272,-1944,188,30,76
7880,784,-160,-1912,138,3,58
7885,856,-200,-2040,86,-10,45
7890,928,-24,-1936,39,-27,44
7895,952,-32,-2032,31,-52,45
7900,904,152,-2056,26,-70,47
7905,880,152,-2008,9,-87,45
7910,888,192,-1992,8,-94,48
7915,896,264,-1992,9,-95,43
7920,920,232,-1968,12,-86,37
7925,904,184,-1960,17,-73,32
7930,920,144,-1952,18,-55,28
7935,896,136,-1920,20,-35,22
7940,920,176,-1936,21,-11,17
7945,880,240,-1888,12,14,8
7950,928,232,-1880,0,38,-1
7955,904,240,-1824,-15,56,-10
7960,904,248,-1856,-31,71,-20
7965,952,248,-1848,-48,81,-28
7970,992,224,-1816,-63,87,-38
7975,992,240,-1840,-74,95,-47
7980,968,368,-1864,-91,97,-58
7985,992,360,-1832,-106,101,-69
7990,968,336,-1800,-116,107,-77
7995,976,344,-1792,-120,109,-86
8000,960,336,-1776,-125,110,-91
8005,952,360,-1792,-131,110,-95
8010,936,328,-1744,-134,114,-96
8015,912,328,-1744,-136,115,-96
8020,888,336,-1712,-136,115,-96
8025,840,344,-1688,-135,114,-98
8030,840,344,-1656,-130,113,-95
8035,856,304,-1664,-121,109,-91
8040,856,352,-1648,-113,102,-89
8045,864,344,-1624,-105,97,-85
8050,864,352,-1600,-98,90,-81
8055,864,336,-1608,-90,83,-77
8060,864,328,-1608,-83,75,-73
8065,864,328,-1592,-77,67,-70
8070,872,344,-1592,-72,61,-67
8075,872,320,-1584,-66,59,-60
8080,864,384,-1624,-60,53,-59
8085,856,384,-1584,-51,49,-58
8090,856,384,-1568,-44,44,-55
8095,864,384,-1608,-35,36,-53
8100,888,344,-1624,-24,29,-46
8105,864,384,-1592,-11,19,-42
8110,888,376,-1576,-1,10,-38
8115,872,360,-1616,10,4,-33
8120,888,336,-1656,19,-1,-31
8125,888,368,-1624,26,-4,-27
8130,880,344,-1648,33,-5,-22
8135,880,352,-1648,39,-8,-20
8140,872,376,-1648,45,-9,-19
8145,880,392,-1640,50,-13,-18
8150,912,392,-1632,53,-19,-18
8155,896,392,-1672,58,-26,-15
8160,896,376,-1688,63,-32,-15
8165,872,384,-1672,66,-38,-13
8170,872,384,-1648,72,-42,-11
8175,888,384,-1656,76,-43,-10
8180,896,368,-1672,80,-45,-10
8185,896,384,-1672,82,-44,-8
8190,880,368,-1696,86,-45,-7
8195,872,400,-1688,91,-46,-6
8200,912,328,-1688,95,-47,-3
8205,888,360,-1704,97,-48,-4
8210,896,336,-1712,100,-47,-1
8215,880,352,-1704,103,-45,-1
8220,888,320,-1744,104,-46,-2
8225,896,336,-1704,104,-45,1
8230,872,336,-1720,104,-44,1
8235,896,304,-1704,103,-43,1
8240,912,328,-1720,100,-40,2
8245,896,336,-1736,100,-39,2
8250,904,296,-1728,96,-38,1
8255,912,312,-1760,94,-38,2
8260,896,328,-1736,92,-35,1
8265,904,320,-1768,88,-34,0
8270,896,312,-1752,86,-30,0
8275,880,320,-1736,81,-25,-1
8280,888,320,-1768,77,-22,-3
8285,888,304,-1736,73,-18,-3
8290,896,296,-1752,69,-13,-5
8295,888,304,-1760,66,-9,-4
8300,896,320,-1744,64,-5,-8
8305,848,320,-1736,63,0,-7
8310,864,320,-1728,62,5,-4
8315,872,304,-1728,62,9,-3
8320,856,320,-1728,63,12,-3
8325,864,312,-1688,63,15,-2
8330,848,304,-1688,62,18,-3
8335,872,304,-1720,62,20,-2
8340,856,280,-1712,63,21,0
8345,856,312,-1696,62,22,-1
8350,832,312,-1720,60,22,-2
8355,848,264,-1712,59,19,-3
8360,848,296,-1712,55,19,-3
8365,880,304,-1712,50,19,-4
8370,864,296,-1664,43,18,-5
8375,864,296,-1672,39,19,-7
8380,872,304,-1696,35,20,-10
8385,864,296,-1656,32,20,-12
8390,856,336,-1696,33,19,-12
8395,880,288,-1696,34,18,-13
8400,880,336,-1728,35,14,-15
8405,896,312,-1704,34,12,-14
8410,872,328,-1704,31,10,-15
8415,864,312,-1696,28,12,-16
8420,888,304,-1712,24,12,-17
8425,872,312,-1696,22,13,-18
8430,872,336,-1672,18,14,-19
8435,888,328,-1680,16,15,-21
8440,880,336,-1704,15,17,-20
8445,872,336,-1696,14,17,-21
8450,904,344,-1696,15,16,-23
8455,888,344,-1720,16,15,-24
8460,888,336,-1720,20,14,-25
8465,888,360,-1696,24,11,-23
8470,888,328,-1688,26,7,-24
8475,880,360,-1704,30,5,-23
8480,872,352,-1712,31,2,-20
8485,864,344,-1712,33,1,-21
8490,864,360,-1696,35,-1,-20
8495,888,368,-1672,36,-2,-17
8500,872,344,-1688,38,-3,-20
8505,864,344,-1720,38,-4,-20
8510,880,352,-1712,39,-7,-20
8515,864,360,-1696,39,-7,-18
8520,872,344,-1656,40,-7,-18
8525,888,376,-1696,41,-9,-18
8530,872,328,-1680,43,-11,-16
8535,880,352,-1680,47,-12,-15
8540,896,336,-1704,48,-13,-17
8545,864,360,-1712,51,-13,-15
8550,872,344,-1696,53,-13,-15
8555,896,368,-1712,52,-13,-12
8560,872,352,-1664,53,-10,-12
8565,848,352,-1680,55,-9,-10
8570,872,344,-1704,55,-8,-12
8575,848,368,-1720,56,-9,-11
8580,920,272,-1672,57,-10,-9
8585,872,320,-1712,58,-10,-11
8590,864,344,-1680,58,-10,-10
8595,872,336,-1704,57,-11,-9
8600,832,360,-1664,57,-13,-9
8605,888,336,-1680,56,-13,-9
8610,888,352,-1688,56,-14,-7
8615,864,336,-1712,57,-13,-8
8620,864,336,-1720,57,-11,-7
8625,888,320,-1712,57,-9,-8
8630,848,328,-1704,57,-9,-8
8635,848,344,-1688,56,-6,-8
8640,856,320,-1712,55,-4,-8
8645,872,352,-1696,55,-4,-9
8650,864,320,-1712,53,-5,-10
8655,872,328,-1728,54,-4,-9
8660,864,328,-1712,53,-4,-8
8665,872,336,-1704,53,-4,-10
8670,872,344,-1728,52,-3,-8
8675,856,328,-1696,51,-2,-9
8680,864,352,-1696,51,0,-9
8685,856,328,-1736,50,1,-9
8690,848,344,-1712,50,4,-9
8695,888,312,-1728,48,5,-8
8700,888,296,-1720,46,5,-8
8705,872,320,-1728,47,6,-10
8710,856,352,-1688,46,6,-10
8715,856,328,-1720,47,6,-10
8720,848,328,-1720,47,6,-9
8725,880,336,-1728,48,7,-9
8730,880,320,-1728,49,8,-10
8735,880,328,-1704,50,9,-10
8740,864,328,-1712,50,9,-9
8745,856,328,-1704,47,11,-10
8750,904,304,-1704,44,16,-10
8755,872,296,-1704,41,19,-12
8760,888,304,-1704,39,21,-13
8765,848,328,-1680,39,20,-14
8770,872,320,-1688,40,18,-17
8775,872,344,-1704,42,15,-17
8780,856,352,-1736,43,13,-16
8785,872,328,-1680,44,12,-15
8790,872,328,-1728,46,10,-15
8795,880,328,-1736,48,9,-14
8800,880,328,-1680,49,8,-15
8805,856,336,-1712,47,7,-15
8810,864,352,-1696,49,7,-16
8815,872,336,-1704,48,5,-15
8820,872,328,-1672,47,6,-14
8825,872,320,-1720,46,6,-15
8830,896,312,-1688,45,8,-15
8835,872,344,-1680,46,6,-17
8840,840,344,-1704,45,4,-16
8845,864,368,-1680,43,1,-16
8850,872,328,-1712,44,-2,-18
8855,872,344,-1712,43,-3,-17
8860,856,328,-1712,43,-3,-17
8865,864,312,-1704,42,-3,-17
8870,856,320,-1736,43,-2,-18
8875,856,352,-1720,42,-1,-18
8880,864,328,-1720,41,1,-16
8885,856,336,-1704,39,1,-15
8890,872,344,-1704,41,3,-14
8895,864,352,-1704,42,3,-14
8900,872,344,-1704,43,3,-12
8905,880,320,-1704,45,3,-12
8910,888,344,-1704,48,2,-10
8915,880,360,-1712,50,3,-9
8920,872,312,-1704,51,3,-11
8925,888,344,-1720,51,3,-11
8930,872,336,-1712,52,4,-10
8935,872,336,-1728,53,4,-10
8940,824,312,-1704,53,3,-10
8945,848,336,-1712,52,4,-9
8950,840,312,-1728,51,4,-10
8955,880,320,-1752,50,6,-11
8960,872,328,-1704,47,5,-10
8965,840,336,-1680,46,5,-9
8970,856,344,-1672,47,5,-11
8975,856,344,-1704,52,6,-9
8980,848,328,-1728,55,6,-8
8985,848,328,-1728,58,6,-7
8990,864,320,-1752,59,6,-8
8995,872,320,-1752,57,6,-8
9000,888,320,-1712,54,7,-8
9005,848,360,-1712,52,9,-8
9010,840,328,-1688,48,10,-8
9015,888,360,-1752,48,10,-8
9020,864,312,-1696,45,9,-10
9025,848,312,-1696,44,11,-9
9030,872,344,-1728,43,12,-9
9035,840,344,-1712,44,14,-10
9040,848,392,-1712,44,13,-11
9045,864,336,-1712,46,13,-11
9050,880,344,-1704,47,11,-10
9055,864,320,-1688,49,8,-10
9060,872,320,-1696,51,7,-10
9065,896,344,-1696,53,6,-9
9070,864,328,-1704,53,6,-11
9075,864,320,-1712,53,4,-10
9080,880,344,-1736,55,3,-11
9085,864,344,-1704,54,3,-10
9090,840,352,-1728,55,4,-11
9095,864,344,-1728,54,6,-11
9100,840,344,-1696,52,6,-12
9105,888,344,-1704,50,7,-12
9110,872,352,-1680,49,7,-12
9115,872,328,-1680,48,7,-13
9120,816,336,-1728,48,7,-15
9125,840,360,-1728,48,9,-13
9130,856,360,-1696,48,10,-14
9135,864,336,-1728,49,11,-12
9140,888,320,-1720,49,11,-12
9145,856,352,-1728,50,10,-14
9150,864,336,-1704,52,10,-12
9155,856,344,-1720,54,11,-12
9160,896,328,-1704,52,11,-11
9165,856,328,-1712,52,12,-9
9170,864,344,-1736,53,11,-10
9175,864,328,-1704,52,12,-9
9180,896,320,-1720,52,11,-9
9185,832,344,-1712,50,10,-12
9190,864,336,-1720,49,10,-12
9195,888,320,-1720,47,9,-10
9200,848,344,-1712,47,8,-10
9205,888,344,-1712,48,9,-11
9210,872,320,-1704,48,8,-11
9215,880,336,-1728,47,9,-13
9220,872,344,-1728,46,10,-12
9225,856,344,-1696,46,11,-13
9230,872,344,-1744,45,13,-13
9235,856,328,-1704,45,14,-12
9240,864,344,-1696,45,15,-11
9245,848,344,-1712,46,16,-12
9250,880,320,-1720,46,16,-13
9255,864,320,-1704,47,16,-11
9260,848,336,-1688,46,16,-10
9265,864,328,-1704,47,15,-10
9270,840,288,-1640,46,15,-11
9275,872,336,-1696,45,14,-10
9280,896,328,-1736,44,14,-9
9285,888,336,-1728,43,12,-9
9290,872,320,-1728,43,13,-10
9295,864,352,-1672,44,12,-11
9300,848,336,-1696,45,12,-10
9305,840,352,-1704,46,12,-11
9310,872,328,-1704,45,11,-13
9315,872,328,-1696,45,12,-11
9320,864,312,-1728,45,13,-12
9325,856,344,-1720,43,14,-12
9330,880,328,-1712,43,15,-13
9335,856,352,-1712,42,15,-11
9340,848,352,-1688,42,14,-12
9345,864,328,-1744,40,15,-12
9350,856,352,-1720,42,16,-11
9355,864,344,-1712,45,16,-11
9360,872,328,-1712,45,15,-9
9365,864,352,-1704,46,15,-9
9370,848,344,-1720,49,14,-10
9375,856,344,-1704,49,13,-9
9380,872,352,-1720,49,12,-9
9385,872,328,-1704,51,11,-9
9390,864,328,-1704,52,10,-11
9395,864,368,-1696,53,10,-9
9400,864,344,-1712,52,10,-10
9405,848,336,-1728,52,9,-9
9410,864,336,-1720,51,9,-9
9415,840,320,-1720,50,8,-10
9420,848,352,-1704,49,8,-10
9425,864,328,-1736,47,8,-11
9430,864,328,-1688,46,9,-10
9435,864,320,-1720,46,9,-12
9440,864,352,-1720,45,10,-12
9445,896,328,-1696,46,10,-11
9450,864,312,-1704,46,10,-12
9455,864,344,-1728,46,11,-12
9460,856,352,-1712,47,11,-10
9465,896,304,-1704,48,10,-9
9470,856,328,-1696,47,9,-11
9475,880,352,-1704,47,10,-12
9480,864,336,-1688,45,10,-11
9485,864,328,-1680,44,10,-11
9490,864,328,-1712,44,9,-10
9495,856,336,-1704,45,10,-11
9500,872,328,-1736,47,8,-9
9505,864,304,-1720,48,10,-10
9510,888,344,-1720,50,8,-10
9515,880,336,-1720,51,6,-8
9520,888,328,-1728,52,5,-9
9525,840,368,-1712,54,6,-11
9530,880,336,-1696,54,5,-9
9535,872,328,-1736,55,6,-8
9540,872,344,-1720,56,7,-7
9545,864,336,-1688,57,7,-7
9550,848,344,-1704,57,7,-8
9555,864,312,-1728,56,6,-9
9560,848,320,-1720,55,6,-11
9565,888,344,-1696,50,6,-13
9570,864,336,-1704,45,5,-12
9575,872,328,-1672,46,5,-14
9580,848,344,-1704,47,4,-14
9585,880,336,-1728,50,4,-12
9590,848,336,-1736,53,4,-12
9595,864,336,-1752,56,6,-12
9600,848,320,-1728,55,6,-11
9605,864,328,-1728,54,8,-12
9610,872,344,-1704,52,12,-12
9615,896,328,-1688,49,14,-12
9620,848,344,-1672,47,17,-12
9625,840,336,-1680,45,17,-12
9630,864,336,-1704,44,16,-13
9635,864,344,-1704,43,18,-14
9640,864,336,-1688,42,18,-13
9645,880,320,-1696,43,17,-12
9650,912,328,-1712,44,14,-12
9655,880,320,-1712,45,13,-11
9660,904,336,-1704,47,11,-11
9665,872,352,-1720,49,11,-12
9670,864,352,-1712,49,9,-11
9675,880,344,-1696,50,8,-11
9680,840,360,-1688,50,8,-11
9685,856,344,-1720,50,8,-11
9690,864,360,-1688,50,9,-12
9695,856,328,-1752,50,11,-11
9700,864,352,-1712,51,12,-11
9705,848,360,-1736,49,12,-10
9710,856,344,-1712,49,13,-11
9715,856,336,-1696,48,13,-11
9720,872,352,-1704,49,13,-10
9725,856,344,-1728,53,14,-10
9730,872,352,-1704,52,15,-9
9735,872,336,-1696,53,13,-9
9740,856,360,-1704,55,14,-10
9745,888,328,-1704,55,14,-8
9750,856,320,-1728,54,14,-7
9755,864,344,-1672,55,15,-7
9760,864,344,-1736,54,15,-7
9765,864,320,-1704,53,15,-6
9770,856,336,-1688,53,15,-7
9775,872,312,-1720,52,17,-8
9780,848,320,-1744,52,16,-9
9785,872,336,-1696,52,15,-8
9790,848,352,-1704,50,15,-9
9795,864,328,-1688,49,15,-8
9800,872,320,-1688,47,15,-9
9805,880,328,-1712,49,14,-9
9810,888,336,-1712,48,13,-9
9815,848,344,-1728,49,14,-8
9820,880,336,-1720,50,14,-9
9825,864,344,-1712,49,15,-10
9830,920,320,-1656,48,15,-9
9835,840,368,-1696,46,14,-12
9840,880,344,-1696,45,15,-11
9845,864,344,-1696,46,17,-13
9850,864,336,-1688,44,17,-11
9855,888,352,-1704,44,15,-11
9860,864,336,-1712,45,16,-12
9865,880,336,-1712,46,14,-9
9870,864,344,-1728,46,12,-10
9875,872,344,-1704,47,10,-10
9880,856,352,-1712,46,11,-10
9885,856,344,-1712,46,12,-12
9890,848,336,-1696,46,13,-10
9895,864,344,-1696,45,13,-12
9900,880,336,-1704,46,12,-11
9905,848,368,-1712,48,12,-11
9910,872,336,-1704,49,13,-11
9915,856,344,-1712,49,13,-10
9920,872,344,-1704,52,13,-9
9925,880,336,-1720,52,14,-10
9930,864,336,-1688,51,16,-10
9935,856,336,-1712,51,14,-10
9940,856,336,-1736,52,15,-9
9945,864,336,-1720,51,16,-11
9950,856,336,-1720,50,16,-12
9955,856,344,-1720,49,16,-11
9960,888,352,-1704,50,15,-12
9965,864,336,-1728,49,14,-12
9970,888,336,-1704,49,14,-11
9975,840,336,-1712,50,14,-11
9980,872,336,-1736,50,12,-12
9985,864,344,-1688,51,10,-11
9990,848,336,-1696,51,10,-11
9995,864,336,-1696,52,8,-10
10000,848,368,-1720,53,6,-10
10005,872,320,-1720,54,6,-10
10010,848,336,-1720,54,6,-10
10015,864,376,-1712,53,6,-11
10020,832,352,-1704,53,6,-11
10025,864,336,-1728,52,7,-10
10030,848,328,-1688,51,7,-11
10035,872,336,-1712,51,9,-12
10040,864,344,-1720,50,7,-12
10045,872,328,-1672,50,7,-12
10050,864,344,-1728,49,7,-13
10055,872,328,-1704,50,8,-12
10060,856,328,-1720,52,9,-12
10065,880,328,-1720,52,10,-10
10070,864,336,-1728,53,11,-9
10075,864,344,-1712,54,12,-8
10080,880,336,-1704,52,12,-8
10085,856,328,-1688,52,13,-8
10090,872,312,-1688,51,12,-9
10095,840,328,-1712,51,12,-9
10100,896,336,-1728,50,12,-9
10105,856,328,-1728,49,12,-9
10110,864,320,-1720,47,12,-11
10115,872,328,-1696,46,12,-11
10120,888,352,-1704,45,11,-12
10125,848,368,-1720,45,12,-11
10130,864,344,-1720,46,11,-10
10135,856,360,-1712,46,12,-10
10140,840,344,-1704,47,13,-10
10145,856,328,-1720,49,14,-10
10150,872,320,-1712,51,14,-10
10155,856,368,-1736,52,15,-10
10160,880,312,-1720,53,15,-9
10165,872,328,-1720,54,16,-8
10170,872,304,-1720,55,16,-9
10175,848,344,-1688,55,17,-8
10180,856,344,-1712,55,19,-11
10185,856,328,-1696,52,18,-10
10190,856,336,-1688,49,19,-11
10195,856,328,-1648,45,16,-11
10200,840,328,-1648,44,15,-11
10205,856,328,-1688,47,13,-11
10210,880,320,-1712,50,12,-11
10215,848,312,-1672,52,11,-11
10220,864,336,-1744,52,9,-11
10225,856,352,-1704,51,9,-9
10230,864,320,-1712,49,12,-8
10235,864,360,-1720,46,13,-10
10240,872,336,-1720,45,16,-11
10245,856,336,-1712,43,20,-13
10250,880,336,-1720,44,20,-11
10255,848,336,-1696,43,20,-12
10260,872,336,-1736,45,20,-11
10265,872,328,-1728,47,22,-11
10270,880,336,-1712,49,22,-9
10275,888,328,-1728,51,22,-11
10280,896,328,-1720,53,22,-10
10285,896,344,-1704,55,22,-9
10290,872,376,-1736,56,20,-9
10295,864,344,-1696,57,19,-7
10300,856,352,-1728,59,19,-8
10305,832,328,-1728,59,18,-8
10310,888,336,-1688,60,18,-9
10315,872,352,-1704,59,18,-9
10320,856,368,-1704,59,18,-9
10325,872,352,-1704,58,20,-10
10330,864,352,-1696,57,21,-9
10335,856,328,-1720,57,21,-10
10340,880,352,-1664,56,21,-12
10345,872,336,-1704,56,19,-11
10350,856,336,-1688,57,18,-12
10355,880,352,-1680,56,18,-10
10360,880,312,-1704,55,16,-8
10365,864,360,-1704,55,16,-9
10370,872,304,-1688,55,14,-9
10375,840,352,-1688,56,13,-9
10380,864,344,-1696,57,13,-8
10385,872,336,-1744,57,13,-9
10390,872,320,-1688,56,12,-9
10395,864,328,-1696,56,13,-10
10400,864,344,-1680,55,13,-11
10405,848,336,-1704,53,13,-9
10410,848,360,-1720,53,14,-10
10415,848,328,-1688,51,16,-11
10420,856,344,-1720,50,16,-11
10425,872,328,-1696,49,14,-11
10430,904,368,-1640,50,14,-10
10435,856,336,-1656,50,13,-11
10440,880,336,-1720,52,13,-10
10445,848,328,-1744,53,13,-9
10450,872,336,-1728,54,14,-10
10455,888,336,-1728,54,16,-10
10460,848,320,-1720,55,17,-9
10465,896,344,-1720,56,16,-9
10470,848,344,-1712,55,17,-9
10475,840,336,-1704,56,18,-10
10480,856,320,-1696,57,19,-9
10485,856,328,-1720,56,18,-9
10490,872,352,-1744,56,20,-8
10495,864,344,-1704,58,21,-8
10500,856,360,-1728,58,22,-10
10505,880,336,-1728,57,23,-8
10510,872,344,-1696,57,24,-9
10515,864,336,-1736,56,26,-9
10520,872,336,-1744,55,27,-11
10525,840,344,-1736,54,29,-11
10530,848,320,-1704,54,30,-12
10535,904,344,-1728,53,32,-11
10540,864,320,-1712,53,31,-13
10545,880,336,-1704,53,31,-13
10550,872,336,-1712,52,31,-14
10555,880,336,-1696,53,32,-15
10560,864,328,-1688,52,32,-14
10565,872,352,-1704,51,30,-13
10570,880,336,-1696,53,31,-15
10575,888,352,-1704,55,29,-13
10580,856,344,-1696,56,28,-12
10585,888,320,-1696,56,27,-12
10590,856,328,-1752,57,27,-11
10595,880,320,-1696,57,26,-10
10600,872,328,-1704,57,25,-10
10605,872,328,-1744,58,24,-10
10610,856,336,-1736,58,25,-10
10615,864,328,-1728,57,25,-9
10620,864,336,-1672,57,23,-11
10625,856,328,-1728,55,25,-11
10630,888,352,-1712,57,25,-11
10635,888,328,-1696,57,25,-12
10640,856,360,-1720,58,25,-11
10645,864,352,-1704,56,24,-9
10650,864,328,-1704,56,23,-12
10655,888,336,-1680,59,23,-9
10660,872,344,-1696,59,22,-9
10665,864,344,-1720,58,20,-11
10670,896,352,-1720,57,19,-11
10675,872,320,-1696,56,20,-11
10680,872,360,-1704,55,18,-12
10685,872,328,-1728,54,18,-11
10690,872,304,-1720,53,17,-12
10695,864,328,-1696,53,16,-13
10700,872,336,-1736,53,16,-13
10705,872,336,-1736,53,16,-11
10710,880,344,-1720,55,16,-11
10715,848,344,-1720,56,18,-10
10720,888,344,-1712,56,16,-11
10725,864,352,-1736,56,18,-9
10730,864,336,-1736,56,19,-9
10735,872,336,-1688,57,20,-10
10740,872,336,-1712,56,20,-9
10745,896,304,-1696,55,21,-10
10750,872,344,-1712,55,22,-10
10755,864,328,-1696,53,22,-9
10760,856,328,-1712,51,22,-10
10765,864,352,-1712,51,22,-10
10770,896,328,-1728,51,22,-9
10775,872,336,-1672,49,23,-9
10780,872,320,-1672,48,22,-10
10785,848,328,-1704,48,20,-10
10790,856,312,-1712,48,19,-11
10795,888,336,-1704,48,18,-11
10800,896,304,-1696,48,18,-10
10805,888,320,-1712,47,16,-10
10810,904,328,-1704,48,17,-10
10815,848,360,-1712,49,16,-10
10820,880,328,-1704,48,16,-10
10825,888,296,-1680,46,15,-12
10830,872,312,-1672,44,16,-11
10835,872,328,-1672,44,14,-12
10840,880,304,-1672,45,12,-12
10845,880,360,-1696,51,10,-10
10850,880,320,-1712,56,8,-8
10855,872,352,-1712,62,9,-7
10860,872,336,-1736,64,7,-6
10865,840,360,-1704,66,7,-6
10870,896,328,-1720,65,9,-6
10875,872,352,-1736,62,10,-6
10880,880,336,-1712,59,11,-7
10885,896,320,-1704,57,12,-7
10890,888,328,-1712,54,13,-9
10895,880,344,-1744,51,11,-9
10900,864,312,-1688,49,12,-9
10905,872,336,-1712,47,11,-9
10910,880,344,-1688,45,11,-10
10915,888,320,-1704,44,10,-9
10920,864,360,-1672,42,8,-11
10925,872,328,-1680,42,6,-11
10930,848,344,-1664,41,4,-12
10935,872,344,-1688,41,1,-12
10940,864,344,-1688,42,0,-13
10945,848,368,-1720,41,-3,-11
10950,872,312,-1696,43,-5,-11
10955,872,344,-1712,43,-5,-9
10960,856,328,-1688,43,-8,-10
10965,888,344,-1696,45,-8,-11
10970,872,328,-1696,44,-10,-11
10975,880,352,-1720,44,-11,-11
10980,872,312,-1696,45,-13,-9
10985,848,336,-1664,45,-11,-8
10990,872,336,-1720,45,-12,-10
10995,872,328,-1688,44,-11,-9
11000,872,336,-1704,43,-9,-9
11005,856,344,-1712,42,-7,-11
11010,864,352,-1712,39,-6,-10
11015,864,352,-1712,38,-4,-10
11020,864,336,-1704,37,-5,-10
11025,888,336,-1712,35,-4,-10
11030,856,312,-1760,35,-4,-12
11035,864,352,-1712,35,-3,-12
11040,864,344,-1720,36,-3,-13
11045,880,352,-1720,38,-2,-12
11050,864,336,-1696,38,0,-13
11055,864,344,-1728,39,0,-11
11060,856,352,-1664,39,2,-9
11065,872,328,-1720,40,3,-9
11070,848,328,-1728,39,4,-10
11075,864,344,-1696,41,4,-11
11080,880,336,-1696,40,4,-9
11085,864,328,-1736,41,3,-10
11090,856,336,-1704,39,2,-11
11095,856,344,-1704,38,2,-12
11100,888,328,-1712,37,1,-12
11105,888,320,-1696,37,2,-11
11110,888,328,-1696,35,3,-12
11115,856,344,-1712,33,4,-13
11120,856,320,-1712,34,5,-14
11125,880,328,-1704,33,7,-12
11130,880,320,-1728,33,8,-12
11135,864,336,-1720,34,8,-12
11140,856,352,-1688,34,9,-12
11145,872,336,-1680,33,9,-13
11150,880,344,-1728,33,7,-14
11155,848,352,-1696,34,7,-15
11160,872,344,-1712,36,7,-13
11165,864,336,-1704,36,8,-14
11170,896,320,-1688,36,8,-13
11175,872,344,-1664,36,8,-13
11180,880,344,-1696,36,8,-15
11185,848,344,-1704,37,9,-13
11190,856,344,-1720,38,9,-15
11195,856,320,-1744,38,8,-14
11200,864,352,-1696,38,9,-14
11205,872,320,-1688,40,8,-13
11210,880,344,-1712,40,6,-13
11215,864,336,-1696,41,5,-12
11220,872,352,-1728,41,5,-11
11225,848,344,-1736,43,5,-12
11230,816,328,-1656,45,2,-14
11235,888,384,-1712,48,0,-14
11240,904,360,-1680,45,5,-13
11245,896,328,-1736,48,6,-11
11250,864,344,-1680,48,6,-9
11255,872,368,-1696,47,6,-11
11260,864,344,-1712,44,6,-12
11265,872,344,-1720,44,5,-11
11270,848,344,-1712,43,6,-11
11275,864,352,-1688,41,5,-12
11280,864,328,-1712,42,6,-13
11285,840,344,-1720,42,4,-12
11290,856,328,-1720,43,5,-11
11295,848,352,-1696,43,4,-12
11300,856,336,-1704,44,3,-12
11305,872,312,-1688,44,3,-12
11310,856,352,-1696,43,2,-11
11315,880,344,-1736,43,2,-12
11320,848,336,-1680,42,2,-12
11325,848,344,-1720,41,1,-13
11330,856,344,-1712,40,2,-14
11335,872,336,-1736,41,1,-12
11340,888,336,-1712,41,0,-13
11345,856,336,-1720,41,0,-11
11350,864,352,-1736,42,0,-12
11355,856,336,-1744,43,2,-13
11360,848,320,-1720,44,2,-13
11365,872,352,-1720,45,4,-12
11370,840,336,-1728,44,5,-11
11375,848,376,-1728,43,7,-13
11380,880,352,-1712,42,7,-12
11385,840,360,-1720,40,7,-13
11390,872,336,-1704,38,6,-14
11395,840,328,-1704,37,6,-14
11400,864,320,-1720,37,6,-13
11405,864,352,-1736,36,6,-14
11410,840,352,-1728,37,7,-13
11415,872,328,-1712,37,7,-13
11420,848,376,-1704,38,9,-13
11425,864,368,-1712,40,9,-12
11430,880,336,-1728,42,9,-13
11435,864,344,-1744,43,10,-11
11440,864,352,-1720,45,10,-10
11445,880,344,-1720,47,11,-10
11450,864,352,-1688,49,11,-10
11455,872,352,-1744,50,11,-9
11460,848,320,-1736,50,11,-10
11465,888,296,-1792,51,14,-10
11470,864,344,-1688,51,15,-10
11475,856,336,-1672,49,16,-11
11480,880,320,-1664,46,17,-12
11485,856,344,-1688,43,15,-13
11490,840,328,-1688,42,14,-11
11495,880,336,-1680,43,11,-11
11500,832,352,-1696,44,11,-11
11505,848,344,-1696,46,9,-12
11510,864,336,-1728,47,7,-11
11515,848,344,-1680,48,6,-12
11520,848,360,-1720,46,5,-12
11525,864,368,-1680,43,6,-12
11530,928,344,-1680,41,8,-13
11535,872,336,-1696,39,7,-13
11540,848,344,-1704,38,6,-13
11545,856,352,-1712,39,7,-13
11550,872,344,-1752,38,7,-15
11555,896,336,-1712,38,7,-16
11560,864,360,-1728,39,7,-14
11565,880,352,-1696,40,7,-13
11570,856,344,-1704,42,6,-14
11575,904,344,-1736,43,4,-14
11580,872,360,-1712,43,3,-13
11585,880,352,-1704,45,1,-13
11590,888,352,-1752,46,1,-13
11595,864,336,-1712,46,1,-13
11600,840,344,-1720,47,0,-14
11605,864,336,-1712,46,-1,-14
11610,848,344,-1720,46,1,-12
11615,856,336,-1744,46,1,-13
11620,880,344,-1704,47,2,-11
11625,864,336,-1696,46,2,-11
11630,848,336,-1696,45,4,-13
11635,840,336,-1704,45,3,-13
11640,864,360,-1736,46,3,-12
11645,832,360,-1672,45,2,-11
11650,840,352,-1728,44,2,-13
11655,872,328,-1728,45,3,-13
11660,872,360,-1712,46,4,-13
11665,848,352,-1720,47,5,-12
11670,856,376,-1712,46,7,-13
11675,864,352,-1696,46,9,-12
11680,832,360,-1712,47,11,-12
11685,872,344,-1736,48,12,-11
11690,848,352,-1696,47,12,-11
11695,864,344,-1688,47,11,-9
11700,888,360,-1712,45,10,-10
11705,872,352,-1688,44,9,-10
11710,840,368,-1712,43,8,-10
11715,856,344,-1704,42,6,-10
11720,840,360,-1752,42,7,-10
11725,872,352,-1712,43,8,-11
11730,896,328,-1704,43,10,-11
11735,840,352,-1728,42,10,-11
11740,856,328,-1696,44,13,-11
11745,864,328,-1704,45,15,-12
11750,872,360,-1720,45,16,-13
11755,872,344,-1688,44,14,-12
11760,880,320,-1728,44,15,-11
11765,856,368,-1696,45,14,-11
11770,856,328,-1728,45,13,-12
11775,840,384,-1712,43,13,-13
11780,848,352,-1696,43,13,-10
11785,856,328,-1720,43,13,-12
11790,848,368,-1736,43,13,-11
11795,872,344,-1696,43,14,-13
11800,864,360,-1728,43,13,-12
11805,872,344,-1712,44,13,-12
11810,856,376,-1720,44,14,-13
11815,872,328,-1728,45,15,-13
11820,856,344,-1728,46,16,-11
11825,856,352,-1712,46,16,-12
11830,856,320,-1712,47,16,-12
11835,848,328,-1744,46,17,-11
11840,848,360,-1696,47,17,-13
11845,856,360,-1704,47,17,-13
11850,856,368,-1744,46,17,-12
11855,848,360,-1712,46,17,-12
11860,856,336,-1704,45,18,-13
11865,856,336,-1688,46,17,-11
11870,856,352,-1712,46,17,-12
11875,864,336,-1712,47,16,-11
11880,856,344,-1712,46,16,-12
11885,856,368,-1696,48,15,-10
11890,856,368,-1648,49,15,-13
11895,856,336,-1712,48,14,-11
11900,856,360,-1720,48,13,-11
11905,864,336,-1736,48,12,-11
11910,840,352,-1720,47,11,-11
11915,864,352,-1688,48,11,-10
11920,864,384,-1720,48,12,-10
11925,840,360,-1712,49,11,-11
11930,864,352,-1704,50,11,-11
11935,848,352,-1696,50,12,-11
11940,872,360,-1720,49,12,-10
11945,880,352,-1720,50,13,-9
11950,840,344,-1728,51,12,-11
11955,856,344,-1688,52,12,-9
11960,864,344,-1712,52,13,-10
11965,856,352,-1688,52,13,-10
11970,848,344,-1704,52,14,-10
11975,864,344,-1712,53,14,-9
11980,848,344,-1728,52,14,-10
11985,864,352,-1688,52,13,-10
11990,864,344,-1728,52,13,-10
11995,864,360,-1712,51,15,-10
12000,856,352,-1704,51,15,-10
12005,864,328,-1712,50,15,-9
12010,864,384,-1712,50,14,-10
12015,864,336,-1728,50,16,-10
12020,856,360,-1712,50,15,-10
12025,848,360,-1736,50,15,-11
12030,864,352,-1728,50,14,-10
12035,864,336,-1696,49,13,-11
12040,864,352,-1712,48,11,-12
12045,872,328,-1696,48,13,-12
12050,856,336,-1728,46,14,-12
12055,848,360,-1744,45,14,-13
12060,832,368,-1720,45,15,-12
12065,864,320,-1672,46,13,-11
12070,864,368,-1712,47,13,-11
12075,840,376,-1712,48,13,-11
12080,856,376,-1712,48,14,-11
12085,880,352,-1712,49,14,-13
12090,864,344,-1728,49,14,-13
12095,872,352,-1696,49,15,-11
12100,856,344,-1736,50,16,-11
12105,856,336,-1712,51,17,-10
12110,840,360,-1728,54,17,-11
12115,856,360,-1712,55,17,-11
12120,848,336,-1704,55,16,-10
12125,864,320,-1704,54,18,-9
12130,856,344,-1712,53,18,-10
12135,848,360,-1680,52,18,-12
12140,872,328,-1696,50,19,-12
12145,856,336,-1672,47,17,-11
12150,832,352,-1688,47,17,-11
12155,848,344,-1688,48,13,-10
12160,848,328,-1720,51,11,-9
12165,880,352,-1720,56,10,-9
12170,864,336,-1704,58,10,-8
12175,864,352,-1712,56,8,-8
12180,856,352,-1712,54,9,-8
12185,856,368,-1736,52,10,-7
12190,848,344,-1728,50,13,-7
12195,872,368,-1728,48,15,-8
12200,872,376,-1728,47,15,-10
12205,880,328,-1744,46,16,-9
12210,856,368,-1712,45,17,-10
12215,848,360,-1712,47,16,-11
12220,872,344,-1720,47,17,-10
12225,864,336,-1712,48,17,-11
12230,888,336,-1720,50,17,-12
12235,856,368,-1744,50,15,-10
12240,888,328,-1688,51,12,-11
12245,848,344,-1736,52,13,-10
12250,864,360,-1704,53,13,-8
12255,856,352,-1704,54,9,-10
12260,848,352,-1712,54,11,-10
12265,864,336,-1680,54,10,-11
12270,848,376,-1696,54,9,-10
12275,856,344,-1696,54,8,-12
12280,848,352,-1704,54,8,-10
12285,872,344,-1712,55,8,-11
12290,864,360,-1720,53,9,-11
12295,856,344,-1688,55,7,-12
12300,872,360,-1720,53,7,-13
12305,856,344,-1704,53,6,-13
12310,848,352,-1720,53,8,-12
12315,864,384,-1704,52,8,-12
12320,856,352,-1712,52,9,-12
12325,864,352,-1696,53,11,-13
12330,856,336,-1728,53,12,-11
12335,864,320,-1696,52,12,-10
12340,896,352,-1736,52,12,-10
12345,872,376,-1728,52,12,-10
12350,864,336,-1720,51,13,-11
12355,872,344,-1760,51,13,-10
12360,856,352,-1704,51,13,-10
12365,856,360,-1736,50,13,-12
12370,824,376,-1712,49,14,-11
12375,856,336,-1688,48,15,-12
12380,872,320,-1768,48,14,-12
12385,856,344,-1720,48,16,-10
12390,872,344,-1712,49,16,-11
12395,856,352,-1712,48,16,-10
12400,856,344,-1712,49,16,-11
12405,856,352,-1704,48,18,-12
12410,848,392,-1720,47,19,-11
12415,872,360,-1720,47,19,-12
12420,856,344,-1680,48,19,-10
12425,864,352,-1688,47,18,-12
12430,872,328,-1704,47,18,-12
12435,840,344,-1696,46,16,-13
12440,872,336,-1744,47,14,-12
12445,880,344,-1736,47,14,-11
12450,864,352,-1712,46,12,-11
12455,840,344,-1712,47,13,-11
12460,872,360,-1712,44,13,-12
12465,832,360,-1704,43,13,-11
12470,872,352,-1744,43,13,-11
12475,864,344,-1704,43,12,-11
12480,856,352,-1696,43,14,-12
12485,864,368,-1704,44,15,-11
12490,856,376,-1728,45,14,-13
12495,848,344,-1720,46,13,-13
12500,880,352,-1696,46,13,-13
12505,880,344,-1688,47,13,-12
12510,872,368,-1744,47,13,-12
12515,864,360,-1704,48,13,-11
12520,880,328,-1720,48,12,-12
12525,872,352,-1704,47,13,-11
12530,864,360,-1680,47,13,-10
12535,856,368,-1720,47,11,-11
12540,856,360,-1704,47,10,-12
12545,848,368,-1728,47,9,-11
12550,848,360,-1720,48,8,-10
12555,864,352,-1720,49,9,-11
12560,840,368,-1704,49,9,-13
12565,864,336,-1696,50,8,-12
12570,848,344,-1696,50,8,-12
12575,848,368,-1712,52,7,-11
12580,856,336,-1704,51,8,-10
12585,864,360,-1704,52,7,-12
12590,848,352,-1704,54,7,-10
12595,880,352,-1720,53,7,-10
12600,864,344,-1736,52,6,-10
12605,856,352,-1704,54,5,-11
12610,832,344,-1696,53,4,-10
12615,864,344,-1704,53,4,-10
12620,864,360,-1704,53,5,-11
12625,872,344,-1704,52,4,-11
12630,856,352,-1720,53,4,-10
12635,872,360,-1696,52,4,-10
12640,872,312,-1736,51,5,-11
12645,856,328,-1688,50,6,-11
12650,880,336,-1728,49,8,-10
12655,840,360,-1744,49,9,-11
12660,848,368,-1704,50,11,-11
12665,856,400,-1792,48,12,-12
12670,872,344,-1744,47,13,-13
12675,856,352,-1704,46,15,-14
12680,864,352,-1720,46,15,-12
12685,864,368,-1752,44,18,-14
12690,840,360,-1744,43,18,-14
12695,864,320,-1728,44,19,-15
12700,848,360,-1736,44,20,-16
12705,848,368,-1712,43,19,-14
12710,848,360,-1736,45,19,-16
12715,864,352,-1712,45,19,-14
12720,888,352,-1696,46,19,-13
12725,880,328,-1712,47,20,-14
12730,880,328,-1680,47,20,-13
12735,856,360,-1728,47,21,-12
12740,848,376,-1712,48,23,-12
12745,848,352,-1712,48,22,-11
12750,864,352,-1688,49,23,-11
12755,872,352,-1712,51,23,-11
12760,888,336,-1728,50,24,-11
12765,848,336,-1712,52,22,-12
12770,856,360,-1736,52,19,-11
12775,864,352,-1736,53,19,-11
12780,856,368,-1696,54,19,-9
12785,880,352,-1696,54,18,-9
12790,864,360,-1736,57,17,-9
12795,880,328,-1720,59,16,-8
12800,840,352,-1744,61,17,-9
12805,896,352,-1720,62,15,-9
12810,856,368,-1712,61,18,-7
12815,856,328,-1696,60,20,-9
12820,872,288,-1696,56,19,-8
12825,848,336,-1664,53,18,-10
12830,872,336,-1704,50,19,-11
12835,848,368,-1688,47,18,-12
12840,896,360,-1680,49,16,-12
12845,848,368,-1688,52,14,-10
12850,880,360,-1728,56,11,-12
12855,864,360,-1728,57,11,-11
12860,880,336,-1744,57,8,-9
12865,856,376,-1728,56,9,-11
12870,872,344,-1728,53,10,-9
12875,840,368,-1696,52,11,-10
12880,872,368,-1728,49,12,-11
12885,856,360,-1680,48,12,-11
12890,864,352,-1720,49,12,-12
12895,872,360,-1688,50,14,-12
12900,872,360,-1712,51,13,-12
12905,880,360,-1728,52,14,-11
12910,864,344,-1720,55,14,-9
12915,888,352,-1728,56,14,-9
12920,856,352,-1680,56,13,-10
12925,864,352,-1736,58,13,-10
12930,856,344,-1720,59,13,-10
12935,856,360,-1696,59,13,-10
12940,856,352,-1712,59,12,-11
12945,872,360,-1712,58,12,-10
12950,840,368,-1728,60,12,-10
12955,856,368,-1712,60,14,-10
12960,856,336,-1696,59,13,-9
12965,872,360,-1728,60,14,-8
12970,856,352,-1728,61,15,-9
12975,848,352,-1704,60,15,-9
12980,848,344,-1728,60,15,-9
12985,864,344,-1720,60,17,-8
12990,848,344,-1696,59,17,-8
12995,864,344,-1704,60,16,-9
13000,864,344,-1712,58,18,-8
13005,864,336,-1704,58,20,-8
13010,856,344,-1720,59,19,-6
13015,840,376,-1688,58,21,-8
13020,888,328,-1720,60,22,-7
13025,864,360,-1696,61,22,-7
13030,824,376,-1704,61,23,-8
13035,864,352,-1712,61,22,-9
13040,856,336,-1696,61,23,-7
13045,848,360,-1704,59,24,-6
13050,864,328,-1712,60,24,-7
13055,880,344,-1688,58,25,-7
13060,864,360,-1720,57,25,-7
13065,880,328,-1720,57,25,-7
13070,864,352,-1720,57,24,-9
13075,904,336,-1696,57,24,-8
13080,864,328,-1712,58,24,-8
13085,864,344,-1720,57,24,-8
13090,864,328,-1712,57,25,-7
13095,864,328,-1688,58,23,-6
13100,928,320,-1744,59,23,-7
13105,864,328,-1696,60,24,-7
13110,864,360,-1704,60,23,-8
13115,856,336,-1704,59,23,-8
13120,856,344,-1712,60,23,-8
13125,872,344,-1696,61,24,-9
13130,864,360,-1688,60,24,-9
13135,856,336,-1704,60,23,-10
13140,880,328,-1704,60,23,-9
13145,864,328,-1704,61,23,-9
13150,856,344,-1712,60,23,-9
13155,856,344,-1720,61,22,-10
13160,856,352,-1720,61,23,-10
13165,880,336,-1712,62,22,-10
13170,872,336,-1728,60,24,-10
13175,864,344,-1696,59,23,-11
13180,856,368,-1728,60,23,-12
13185,896,336,-1696,60,22,-12
13190,880,352,-1704,60,21,-11
13195,864,344,-1728,60,21,-11
13200,880,352,-1736,60,20,-11
13205,872,344,-1688,58,20,-11
13210,864,328,-1688,58,19,-9
13215,856,352,-1696,59,19,-11
13220,880,312,-1712,59,19,-11
13225,872,344,-1704,59,20,-10
13230,856,344,-1656,60,19,-11
13235,848,352,-1704,61,19,-11
13240,888,360,-1728,61,18,-10
13245,856,344,-1720,61,17,-9
13250,872,328,-1704,62,16,-9
13255,864,344,-1720,62,16,-8
13260,872,344,-1744,63,16,-9
13265,880,376,-1688,64,16,-9
13270,880,344,-1704,64,17,-11
13275,880,312,-1720,64,17,-10
13280,872,336,-1704,66,18,-9
13285,848,352,-1728,67,18,-8
13290,856,336,-1712,67,20,-9
13295,872,320,-1720,66,20,-10
13300,864,344,-1712,66,23,-10
13305,880,336,-1720,64,24,-10
13310,888,352,-1696,63,24,-11
13315,864,344,-1688,63,25,-11
13320,872,344,-1696,63,24,-9
13325,872,336,-1712,62,25,-9
13330,904,336,-1712,63,25,-11
13335,880,320,-1696,62,25,-11
13340,864,344,-1728,62,24,-10
13345,864,336,-1704,61,25,-10
13350,872,344,-1720,61,25,-10
13355,864,352,-1680,61,25,-11
13360,872,336,-1704,63,25,-10
13365,856,328,-1744,62,26,-10
13370,864,336,-1680,63,27,-10
13375,856,352,-1688,63,26,-9
13380,880,336,-1712,64,26,-10
13385,864,344,-1720,64,24,-9
13390,880,328,-1736,62,23,-11
13395,872,328,-1680,62,24,-11
13400,864,336,-1712,61,23,-10
13405,888,312,-1688,60,23,-12
13410,872,344,-1696,59,23,-12
13415,896,336,-1720,59,22,-11
13420,872,336,-1688,59,22,-12
13425,864,352,-1696,59,22,-13
13430,880,344,-1712,59,22,-11
13435,864,352,-1704,60,22,-11
13440,864,312,-1712,60,21,-10
13445,880,336,-1712,60,21,-10
13450,872,336,-1704,61,21,-11
13455,864,352,-1712,61,21,-10
13460,880,352,-1688,61,21,-11
13465,888,336,-1688,61,20,-10
13470,848,336,-1704,60,19,-10
13475,880,312,-1688,61,19,-11
13480,856,336,-1728,60,19,-12
13485,896,320,-1696,59,17,-12
13490,864,336,-1672,59,15,-12
13495,880,320,-1704,58,15,-11
13500,864,328,-1696,59,14,-13
13505,880,352,-1720,58,14,-13
13510,880,328,-1704,56,13,-12
13515,888,328,-1704,55,13,-13
13520,872,312,-1704,56,12,-15
13525,856,320,-1728,55,9,-15
13530,872,304,-1736,55,10,-15
13535,888,344,-1720,56,10,-16
13540,872,328,-1704,57,11,-15
13545,864,344,-1688,58,10,-14
13550,864,336,-1704,59,10,-14
13555,872,336,-1696,61,10,-16
13560,856,320,-1728,61,11,-14
13565,872,320,-1712,65,12,-13
13570,888,336,-1720,67,13,-13
13575,880,320,-1704,68,13,-12
13580,880,336,-1704,68,14,-12
13585,888,336,-1728,65,15,-14
13590,864,320,-1696,62,16,-15
13595,856,336,-1696,59,15,-14
13600,864,336,-1672,58,15,-16
13605,896,328,-1712,61,15,-15
13610,864,344,-1728,67,14,-15
13615,904,328,-1736,69,16,-15
13620,880,344,-1720,71,15,-14
13625,872,328,-1712,73,16,-13
13630,872,336,-1704,72,18,-12
13635,880,328,-1704,67,20,-13
13640,856,320,-1712,65,23,-13
13645,872,344,-1696,63,23,-15
13650,896,336,-1688,60,24,-14
13655,872,328,-1712,59,24,-15
13660,880,352,-1728,58,25,-16
13665,880,352,-1720,60,27,-18
13670,872,336,-1728,61,27,-17
13675,880,328,-1688,62,27,-17
13680,888,352,-1704,63,26,-17
13685,872,328,-1712,65,24,-16
13690,880,328,-1704,67,24,-16
13695,872,344,-1704,67,23,-14
13700,904,288,-1624,67,22,-12
13705,880,328,-1712,66,21,-13
13710,896,336,-1704,65,21,-13
13715,880,336,-1720,64,21,-14
13720,864,336,-1704,65,22,-13
13725,864,336,-1728,64,23,-13
13730,880,336,-1704,64,22,-14
13735,856,328,-1704,63,22,-14
13740,856,352,-1704,65,21,-13
13745,880,320,-1712,65,23,-12
13750,864,352,-1696,65,23,-12
13755,872,336,-1712,66,22,-11
13760,872,312,-1712,65,22,-11
13765,888,328,-1728,65,23,-11
13770,880,328,-1704,65,23,-12
13775,880,328,-1712,65,23,-10
13780,896,304,-1704,64,21,-12
13785,888,344,-1712,65,21,-12
13790,888,312,-1696,64,21,-12
13795,872,336,-1720,63,21,-13
13800,888,336,-1712,62,22,-13
13805,880,328,-1664,60,23,-12
13810,880,352,-1760,62,22,-11
13815,880,312,-1704,59,23,-13
13820,888,328,-1704,60,24,-13
13825,896,336,-1712,60,23,-13
13830,888,304,-1696,59,22,-13
13835,872,344,-1712,58,20,-14
13840,888,312,-1696,56,19,-15
13845,880,320,-1704,55,18,-13
13850,880,312,-1704,53,17,-14
13855,880,328,-1696,52,16,-15
13860,872,312,-1728,52,15,-16
13865,856,312,-1712,51,17,-16
13870,896,304,-1712,50,16,-16
13875,888,312,-1712,51,16,-15
13880,928,328,-1728,51,15,-14
13885,880,328,-1712,53,16,-16
13890,864,344,-1744,54,17,-14
13895,848,328,-1720,54,17,-14
13900,904,296,-1720,55,19,-11
13905,864,328,-1704,57,19,-13
13910,872,312,-1680,56,20,-13
13915,904,408,-1712,57,18,-13
13920,888,336,-1720,58,20,-14
13925,880,328,-1736,57,22,-15
13930,864,336,-1728,58,22,-15
13935,896,304,-1720,59,24,-16
13940,872,320,-1712,59,25,-16
13945,904,320,-1720,57,24,-17
13950,888,328,-1688,57,24,-18
13955,904,320,-1696,56,26,-18
13960,880,320,-1704,57,25,-17
13965,888,328,-1688,56,24,-16
13970,872,352,-1688,56,24,-15
13975,912,336,-1680,56,22,-16
13980,896,328,-1680,55,22,-16
13985,880,320,-1688,56,22,-15
13990,896,352,-1688,55,21,-15
13995,872,336,-1712,55,21,-16
14000,880,312,-1712,56,20,-16
14005,896,336,-1672,57,20,-15
14010,880,312,-1680,56,19,-16
14015,872,312,-1696,55,19,-15
14020,880,312,-1712,54,18,-15
14025,872,328,-1688,53,17,-15
14030,888,312,-1712,54,17,-16
14035,872,328,-1696,55,17,-15
14040,888,336,-1672,54,16,-12
14045,880,336,-1720,54,16,-12
14050,864,352,-1688,53,14,-13
14055,888,320,-1688,54,15,-13
14060,872,328,-1688,54,15,-13
14065,856,344,-1672,53,13,-10
14070,872,328,-1712,55,13,-10
14075,880,320,-1720,54,13,-9
14080,904,312,-1656,52,12,-9
14085,896,288,-1704,52,12,-10
14090,880,336,-1712,49,12,-10
14095,888,328,-1688,49,10,-11
14100,896,328,-1696,50,9,-10
14105,896,312,-1680,49,9,-11
14110,888,312,-1696,49,10,-13
14115,928,288,-1688,47,9,-13
14120,880,320,-1696,46,8,-11
14125,880,304,-1680,46,8,-12
14130,888,336,-1728,45,7,-11
14135,896,312,-1688,45,7,-13
14140,888,336,-1704,45,6,-12
14145,872,312,-1712,42,6,-13
14150,904,312,-1720,41,5,-14
14155,872,328,-1680,41,3,-15
14160,896,304,-1688,40,3,-15
14165,872,336,-1704,39,3,-14
14170,904,312,-1712,38,1,-15
14175,864,320,-1688,38,2,-15
14180,888,320,-1712,38,2,-15
14185,872,320,-1688,40,3,-15
14190,872,336,-1704,40,4,-16
14195,872,320,-1712,42,4,-16
14200,904,336,-1704,43,6,-14
14205,872,336,-1696,44,7,-13
14210,904,344,-1712,46,8,-15
14215,872,352,-1720,49,9,-14
14220,904,320,-1680,49,11,-12
14225,888,320,-1728,49,12,-12
14230,888,312,-1720,48,13,-12
14235,864,312,-1712,49,13,-10
14240,896,328,-1696,50,14,-12
14245,880,312,-1712,47,15,-12
14250,912,304,-1720,47,16,-14
14255,872,328,-1696,44,15,-14
14260,880,328,-1720,45,15,-14
14265,872,328,-1712,46,14,-14
14270,880,336,-1672,44,14,-13
14275,872,344,-1712,44,14,-12
14280,896,320,-1712,45,15,-13
14285,872,312,-1696,47,13,-12
14290,880,352,-1728,47,12,-11
14295,872,328,-1680,48,12,-8
14300,1072,352,-1664,49,13,-10
14305,872,336,-1712,48,13,-11
14310,888,312,-1696,50,12,-10
14315,864,336,-1672,49,12,-10
14320,896,312,-1680,49,11,-12
14325,864,336,-1680,49,11,-10
14330,880,328,-1680,49,10,-12
14335,872,320,-1696,49,12,-9
14340,848,344,-1704,49,10,-9
14345,896,320,-1696,48,10,-9
14350,872,328,-1688,48,10,-10
14355,880,336,-1696,47,8,-10
14360,888,328,-1704,47,8,-10
14365,888,328,-1696,46,7,-10
14370,888,328,-1728,46,5,-9
14375,864,320,-1696,46,4,-11
14380,888,312,-1696,46,3,-10
14385,872,320,-1704,44,2,-9
14390,896,320,-1680,42,1,-10
14395,880,328,-1712,42,-1,-11
14400,896,312,-1720,40,-3,-12
14405,848,336,-1696,37,-3,-11
14410,880,312,-1736,35,-4,-12
14415,888,320,-1712,34,-4,-12
14420,896,328,-1688,31,-4,-13
14425,888,328,-1728,29,-4,-11
14430,904,320,-1712,28,-6,-12
14435,880,344,-1712,26,-5,-13
14440,888,328,-1704,26,-6,-13
14445,872,304,-1704,27,-4,-13
14450,888,328,-1736,24,-4,-13
14455,856,352,-1712,25,-5,-14
14460,864,352,-1672,26,-5,-14
14465,904,320,-1696,26,-7,-16
14470,888,336,-1712,29,-6,-15
14475,864,312,-1680,28,-6,-14
14480,896,328,-1704,31,-4,-14
14485,872,320,-1696,32,-4,-12
14490,880,328,-1704,32,-3,-13
14495,856,328,-1680,31,-2,-12
14500,880,296,-1688,30,-2,-14
14505,872,328,-1688,30,-2,-14
14510,856,344,-1680,28,-2,-14
14515,856,376,-1752,30,-3,-14
14520,880,328,-1680,34,-4,-13
14525,880,336,-1696,41,-4,-11
14530,864,344,-1736,46,-5,-10
14535,888,360,-1736,48,-3,-9
14540,880,344,-1776,48,-2,-11
14545,880,336,-1736,45,1,-10
14550,856,344,-1696,42,4,-9
14555,848,328,-1680,38,8,-12
14560,864,320,-1736,35,8,-10
14565,880,328,-1720,32,9,-11
14570,880,328,-1712,30,10,-13
14575,904,328,-1720,29,10,-14
14580,872,344,-1728,29,11,-12
14585,896,320,-1728,29,11,-14
14590,888,352,-1712,30,11,-12
14595,896,304,-1688,31,12,-13
14600,888,320,-1696,33,11,-14
14605,888,320,-1704,37,11,-13
14610,880,328,-1720,36,10,-12
14615,880,336,-1688,40,9,-12
14620,888,344,-1688,41,7,-11
14625,896,336,-1712,40,6,-12
14630,904,320,-1704,41,8,-10
14635,872,352,-1720,42,8,-11
14640,880,328,-1704,42,8,-10
14645,864,336,-1696,42,11,-11
14650,888,328,-1696,41,11,-11
14655,880,336,-1688,40,12,-12
14660,888,336,-1728,39,14,-11
14665,880,328,-1688,39,14,-11
14670,872,344,-1720,38,15,-11
14675,888,320,-1720,37,15,-12
14680,872,336,-1712,37,16,-14
14685,872,344,-1696,37,16,-12
14690,872,352,-1688,36,15,-13
14695,872,336,-1688,36,13,-12
14700,872,336,-1712,35,11,-13
14705,904,320,-1696,35,12,-13
14710,872,336,-1720,32,10,-14
14715,864,328,-1704,32,9,-13
14720,888,328,-1720,32,9,-14
14725,856,360,-1728,32,9,-14
14730,864,320,-1672,34,9,-13
14735,880,352,-1712,35,8,-12
14740,872,352,-1696,35,8,-12
14745,856,328,-1704,35,7,-14
14750,888,360,-1696,35,7,-15
14755,888,320,-1720,36,7,-12
14760,872,360,-1688,35,8,-14
14765,856,352,-1728,35,9,-15
14770,872,320,-1704,34,9,-14
14775,888,344,-1712,32,10,-14
14780,872,328,-1696,30,11,-14
14785,832,360,-1704,30,11,-15
14790,872,344,-1704,30,11,-14
14795,880,336,-1672,30,11,-14
14800,888,352,-1688,29,10,-14
14805,880,352,-1688,31,9,-15
14810,880,344,-1680,31,9,-14
14815,880,360,-1720,30,9,-15
14820,888,344,-1712,30,8,-15
14825,840,360,-1688,30,8,-14
14830,888,336,-1712,30,9,-15
14835,872,344,-1712,30,8,-15
14840,872,352,-1712,31,8,-13
14845,880,360,-1712,31,8,-14
14850,880,336,-1720,31,8,-14
14855,872,344,-1696,31,8,-15
14860,888,344,-1704,31,8,-14
14865,872,368,-1712,31,10,-14
14870,872,360,-1704,32,10,-11
14875,864,368,-1712,33,10,-13
14880,864,360,-1728,34,11,-14
14885,872,360,-1712,34,12,-15
14890,856,360,-1704,36,12,-14
14895,864,352,-1736,36,13,-12
14900,872,328,-1696,37,13,-13
14905,880,312,-1712,37,12,-12
14910,880,352,-1704,38,13,-11
14915,880,352,-1704,38,12,-13
14920,872,352,-1712,39,10,-14
14925,888,336,-1704,39,10,-13
14930,872,344,-1704,37,9,-13
14935,880,336,-1696,38,9,-13
14940,896,352,-1696,35,8,-13
14945,864,328,-1680,35,7,-12
14950,896,304,-1680,35,6,-13
14955,864,360,-1680,35,6,-15
14960,864,352,-1736,35,6,-13
14965,888,368,-1696,33,5,-14
14970,872,360,-1712,33,5,-14
14975,872,368,-1720,32,4,-14
14980,864,352,-1728,33,3,-13
14985,880,368,-1704,33,3,-13
14990,904,328,-1696,33,3,-15
14995,872,320,-1720,34,3,-13
