timestamp,accel_x,accel_y,accel_z,gyro_x,gyro_y,gyro_z
0,-40,-1864,-136,127,139,5
5,-72,-1920,-264,139,146,-7
10,-160,-1920,-272,145,144,-17
15,-16,-1968,-272,124,150,-19
20,-176,-1968,-272,82,158,-25
25,-136,-1952,-344,71,147,-23
30,-88,-1928,-280,39,150,-37
35,-144,-1984,-320,10,146,-44
40,-128,-1976,-304,-25,131,-26
45,-64,-1968,-288,-44,125,-42
50,-16,-1888,-256,-49,114,-62
55,-136,-2008,-360,-62,88,-60
60,-136,-2032,-376,-77,63,-62
65,-32,-2056,-312,-106,48,-48
70,-40,-2096,-376,-137,31,-27
75,-64,-2016,-408,-129,12,-38
80,120,-1952,-416,-121,-1,-62
85,-64,-1984,-440,-137,-17,-65
90,-88,-2104,-472,-163,-37,-32
95,-48,-2088,-440,-198,-32,-5
100,0,-2008,-352,-205,-9,-10
105,96,-1904,-312,-199,18,-8
110,216,-1880,-224,-193,49,-3
115,408,-1864,-208,-190,77,-1
120,72,-1864,-168,-177,104,-18
125,208,-1960,-280,-161,110,21
130,376,-1960,-224,-175,132,31
135,296,-1912,-168,-185,144,7
140,240,-1912,-224,-178,129,15
145,160,-2008,-248,-179,114,23
150,96,-2016,-288,-193,95,33
155,64,-2016,-288,-205,80,34
160,-32,-2088,-344,-210,66,33
165,-120,-2072,-320,-210,58,31
170,-176,-2080,-336,-205,60,29
175,-192,-2040,-328,-199,70,29
180,-240,-2032,-352,-194,88,28
185,-280,-2024,-336,-192,112,27
190,-296,-2000,-328,-192,135,27
195,-224,-2056,-336,-189,165,31
200,-160,-2072,-328,-187,195,26
205,-136,-2088,-312,-187,218,18
210,-128,-2096,-264,-187,232,10
215,-96,-2104,-280,-184,238,0
220,-48,-2104,-288,-181,240,-10
225,-16,-2088,-320,-183,236,-18
230,40,-2024,-288,-185,240,-31
235,40,-2000,-248,-185,244,-40
240,96,-2016,-256,-195,239,-48
245,72,-1976,-248,-196,236,-58
250,16,-1960,-288,-193,232,-62
255,-8,-1976,-248,-194,224,-62
260,-24,-1992,-224,-194,217,-60
265,-48,-1992,-208,-190,215,-55
270,-48,-2000,-208,-186,216,-50
275,-88,-2000,-184,-179,219,-45
280,-104,-2056,-192,-170,221,-39
285,-112,-2080,-184,-163,221,-29
290,-128,-2104,-200,-158,219,-16
295,-120,-2120,-176,-156,219,-3
300,-104,-2104,-208,-164,218,10
305,-120,-2120,-232,-178,215,20
310,-104,-2072,-288,-205,207,27
315,-16,-2064,-264,-238,201,28
320,-56,-1984,-312,-264,207,9
325,-24,-1952,-352,-296,204,-7
330,8,-1920,-312,-330,204,-21
335,88,-1888,-312,-354,214,-37
340,112,-1848,-376,-373,228,-58
345,128,-1768,-384,-390,240,-75
350,176,-1712,-384,-399,258,-88
355,200,-1672,-416,-403,284,-97
360,256,-1664,-448,-410,315,-101
365,208,-1656,-424,-416,352,-97
370,240,-1720,-416,-420,389,-78
375,224,-1712,-416,-425,423,-57
380,208,-1744,-416,-418,455,-42
385,168,-1712,-416,-406,486,-26
390,168,-1752,-392,-393,512,-7
395,120,-1768,-320,-380,532,13
400,96,-1816,-272,-372,540,32
405,48,-1800,-256,-367,539,53
410,-8,-1872,-240,-360,520,74
415,-48,-1976,-176,-359,486,95
420,-64,-2024,-176,-356,445,111
425,-88,-2104,-152,-354,403,120
430,-96,-2224,-80,-355,359,132
435,-80,-2328,-72,-362,312,138
440,-80,-2440,-56,-368,265,140
445,16,-2520,0,-367,221,138
450,16,-2536,-8,-357,187,131
455,48,-2552,-8,-349,153,121
460,48,-2552,-80,-336,122,113
465,40,-2488,-56,-319,91,103
470,40,-2416,-104,-302,70,93
475,40,-2320,-136,-289,61,80
480,48,-2208,-152,-281,59,72
485,8,-2096,-168,-278,62,62
490,0,-2016,-136,-280,70,49
495,-8,-1968,-192,-291,79,34
500,8,-1952,-176,-309,82,18
505,-8,-1928,-168,-337,78,0
510,-16,-1912,-216,-374,66,-14
515,-8,-1912,-168,-416,47,-33
520,-8,-1936,-224,-460,23,-50
525,-24,-1960,-224,-504,-5,-70
530,-8,-1992,-264,-545,-28,-86
535,8,-2040,-288,-579,-46,-99
540,24,-2064,-280,-605,-57,-111
545,96,-2048,-320,-622,-54,-123
550,128,-2024,-328,-634,-44,-133
555,168,-2008,-376,-639,-27,-141
560,232,-2008,-336,-637,-4,-150
565,248,-1976,-400,-630,21,-164
570,264,-1952,-384,-614,46,-175
575,304,-1952,-416,-593,68,-186
580,304,-1912,-368,-569,88,-196
585,344,-1920,-368,-543,106,-204
590,336,-1920,-352,-516,115,-211
595,360,-1904,-336,-490,119,-217
600,336,-1928,-344,-466,119,-222
605,328,-1928,-304,-448,111,-221
610,312,-1936,-320,-433,97,-226
615,264,-1920,-336,-424,78,-229
620,280,-1928,-352,-419,57,-228
625,272,-1944,-320,-417,32,-227
630,208,-1904,-336,-418,6,-228
635,208,-1936,-296,-418,-22,-224
640,200,-1936,-288,-416,-48,-222
645,184,-1936,-288,-411,-69,-219
650,184,-1936,-224,-405,-91,-216
655,216,-1960,-264,-397,-108,-214
660,208,-1952,-248,-390,-119,-213
665,208,-1968,-184,-384,-127,-212
670,216,-1976,-200,-378,-131,-208
675,208,-1960,-184,-373,-135,-205
680,216,-1984,-176,-364,-138,-201
685,208,-1968,-176,-356,-142,-195
690,216,-1992,-184,-347,-146,-191
695,208,-2032,-160,-338,-149,-185
700,208,-2048,-168,-330,-154,-179
705,208,-2080,-160,-320,-161,-172
710,216,-2128,-160,-311,-168,-165
715,208,-2144,-184,-301,-175,-158
720,216,-2176,-192,-289,-183,-154
725,224,-2192,-184,-273,-191,-150
730,128,-2176,-240,-254,-204,-147
735,176,-2184,-232,-236,-221,-144
740,160,-2168,-232,-226,-239,-145
745,128,-2152,-264,-215,-259,-143
750,112,-2144,-248,-209,-282,-142
755,80,-2112,-280,-205,-309,-140
760,80,-2128,-288,-203,-336,-137
765,48,-2128,-304,-197,-364,-133
770,72,-2184,-336,-191,-391,-129
775,56,-2176,-352,-186,-418,-124
780,88,-2248,-360,-179,-444,-118
785,80,-2280,-320,-170,-472,-115
790,64,-2352,-336,-156,-499,-106
795,96,-2376,-328,-132,-520,-98
800,128,-2408,-256,-101,-537,-89
805,128,-2440,-264,-63,-549,-80
810,192,-2464,-224,-10,-557,-73
815,248,-2448,-192,54,-557,-66
820,288,-2488,-160,127,-554,-64
825,328,-2464,-160,204,-547,-61
830,376,-2440,-144,278,-541,-61
835,416,-2392,-144,349,-535,-62
840,448,-2392,-120,408,-533,-63
845,472,-2352,-104,459,-538,-66
850,504,-2352,-96,497,-546,-70
855,544,-2368,-112,520,-562,-76
860,552,-2424,-152,527,-582,-83
865,608,-2512,-224,517,-603,-92
870,616,-2576,-288,492,-624,-94
875,640,-2672,-384,454,-638,-89
880,704,-2744,-456,405,-641,-77
885,720,-2752,-544,343,-637,-62
890,744,-2752,-616,267,-625,-46
895,768,-2752,-680,194,-597,-32
900,768,-2696,-736,136,-549,-22
905,720,-2688,-728,104,-484,-16
910,680,-2632,-784,105,-404,-16
915,656,-2544,-760,134,-311,-20
920,584,-2512,-808,172,-213,-28
925,496,-2480,-840,213,-121,-40
930,408,-2464,-832,244,-51,-51
935,312,-2456,-872,274,-3,-62
940,208,-2408,-920,297,18,-72
945,112,-2360,-936,317,19,-85
950,48,-2296,-968,339,6,-91
955,-112,-2216,-992,367,-19,-87
960,-208,-2080,-952,397,-60,-75
965,-312,-2000,-960,427,-115,-57
970,-392,-1888,-920,458,-179,-38
975,-448,-1792,-928,483,-243,-19
980,-488,-1680,-896,503,-302,-1
985,-480,-1568,-856,516,-349,19
990,-488,-1480,-840,526,-385,34
995,-424,-1416,-832,516,-404,55
1000,-384,-1320,-800,496,-423,70
1005,-344,-1272,-824,468,-441,88
1010,-256,-1232,-832,436,-458,99
1015,-112,-1208,-848,399,-476,94
1020,-40,-1248,-800,345,-474,95
1025,24,-1280,-760,282,-463,92
1030,64,-1336,-712,219,-449,81
1035,112,-1424,-696,161,-433,71
1040,128,-1560,-648,117,-417,69
1045,128,-1608,-648,84,-405,68
1050,160,-1672,-640,58,-395,68
1055,104,-1720,-624,37,-385,65
1060,64,-1768,-656,18,-378,62
1065,72,-1800,-664,4,-367,59
1070,40,-1848,-616,-8,-354,62
1075,-8,-1856,-616,-15,-340,64
1080,-16,-1936,-600,-18,-326,66
1085,-24,-1984,-616,-10,-301,66
1090,-64,-1992,-632,-1,-273,68
1095,-40,-2024,-576,9,-245,69
1100,-64,-2072,-624,20,-215,69
1105,-48,-2080,-568,35,-189,70
1110,-88,-2072,-624,48,-164,70
1115,-96,-2064,-648,59,-144,73
1120,-104,-2056,-664,62,-128,73
1125,-112,-2024,-664,64,-115,74
1130,-120,-2000,-680,66,-107,76
1135,-128,-1960,-704,70,-103,79
1140,-128,-1936,-696,73,-103,84
1145,-136,-1920,-696,71,-106,88
1150,-144,-1896,-696,70,-112,96
1155,-136,-1880,-680,64,-121,103
1160,-144,-1832,-680,52,-131,110
1165,-128,-1832,-688,40,-141,116
1170,-128,-1816,-672,25,-147,124
1175,-128,-1824,-664,14,-148,130
1180,-128,-1816,-648,1,-147,133
1185,-112,-1832,-616,-10,-142,138
1190,-112,-1848,-632,-24,-132,145
1195,-64,-1856,-552,-38,-118,150
1200,-40,-1848,-552,-53,-104,148
1205,-8,-1864,-552,-68,-89,144
1210,0,-1856,-520,-84,-75,137
1215,16,-1848,-504,-99,-59,131
1220,24,-1856,-464,-114,-43,127
1225,32,-1848,-464,-128,-27,122
1230,40,-1840,-496,-141,-12,118
1235,72,-1840,-464,-153,2,119
1240,16,-1832,-432,-169,17,118
1245,48,-1832,-432,-181,29,116
1250,8,-1824,-416,-189,40,115
1255,-24,-1832,-416,-197,48,119
1260,0,-1872,-384,-201,57,115
1265,-24,-1864,-360,-208,64,109
1270,-56,-1896,-336,-215,69,103
1275,-64,-1912,-312,-218,71,95
1280,-48,-1928,-304,-217,73,92
1285,-80,-1912,-280,-216,77,87
1290,-56,-1944,-280,-216,82,82
1295,-48,-1960,-240,-215,92,74
1300,-48,-1952,-240,-212,103,70
1305,-32,-1920,-240,-208,116,69
1310,0,-1904,-248,-204,133,66
1315,40,-1856,-192,-199,153,60
1320,16,-1848,-232,-192,171,56
1325,48,-1816,-184,-188,188,50
1330,56,-1808,-192,-182,205,47
1335,0,-1776,-176,-181,222,40
1340,88,-1808,-168,-183,238,32
1345,96,-1792,-128,-182,253,24
1350,72,-1808,-152,-181,265,18
1355,56,-1864,-128,-178,274,16
1360,80,-1928,-80,-171,279,12
1365,64,-1944,-80,-169,286,6
1370,64,-1984,-128,-169,292,1
1375,40,-2008,-136,-176,298,-5
1380,32,-2072,-112,-185,296,-9
1385,40,-2128,-160,-191,293,-12
1390,40,-2136,-160,-197,288,-18
1395,24,-2184,-152,-203,284,-22
1400,64,-2192,-136,-216,288,-23
1405,32,-2192,-120,-210,291,-35
1410,8,-2200,-112,-193,289,-58
1415,32,-2216,-96,-174,298,-76
1420,64,-2200,-72,-146,320,-83
1425,48,-2208,-72,-118,351,-83
1430,24,-2216,-40,-83,373,-95
1435,48,-2248,-56,-43,394,-114
1440,80,-2256,-40,4,418,-131
1445,72,-2256,-24,58,443,-141
1450,72,-2288,40,115,470,-146
1455,64,-2264,40,176,498,-145
1460,8,-2288,56,238,520,-136
1465,-8,-2264,40,303,526,-139
1470,-8,-2216,80,365,531,-141
1475,16,-2176,56,418,536,-138
1480,48,-2168,64,456,538,-139
1485,72,-2120,56,478,543,-141
1490,80,-2088,16,481,552,-140
1495,104,-2160,-32,469,555,-132
1500,112,-2200,-80,443,558,-121
1505,72,-2288,-144,410,562,-108
1510,24,-2432,-240,366,560,-90
1515,-64,-2536,-368,315,562,-74
1520,-120,-2664,-448,260,577,-56
1525,-200,-2800,-528,197,618,-40
1530,-256,-2896,-608,120,679,-24
1535,-264,-3024,-696,37,743,-3
1540,-304,-3096,-784,-42,790,25
1545,-344,-3160,-880,-94,802,59
1550,-400,-3120,-1000,-120,773,98
1555,-400,-3016,-1112,-118,701,139
1560,-328,-2888,-1216,-96,601,177
1565,-216,-2696,-1248,-42,500,200
1570,-112,-2496,-1216,38,431,209
1575,8,-2328,-1112,136,403,215
1580,176,-2144,-1064,229,405,212
1585,312,-1992,-1048,301,424,205
1590,392,-1896,-1040,350,458,197
1595,472,-1864,-1112,380,511,189
1600,464,-1784,-1160,385,588,185
1605,496,-1776,-1224,369,685,183
1610,480,-1784,-1232,330,788,184
1615,448,-1856,-1232,274,878,183
1620,416,-1944,-1216,202,944,177
1625,360,-2024,-1144,126,978,165
1630,328,-2080,-1016,48,981,148
1635,256,-2152,-960,-22,952,134
1640,216,-2192,-896,-83,890,121
1645,168,-2224,-808,-130,807,111
1650,112,-2200,-728,-162,703,107
1655,48,-2168,-696,-185,583,107
1660,-8,-2152,-664,-201,454,111
1665,-104,-2088,-656,-209,326,115
1670,-160,-2040,-608,-213,204,112
1675,-232,-1960,-552,-212,90,103
1680,-264,-2056,-696,-208,-6,92
1685,-344,-2008,-664,-206,-79,80
1690,-408,-1968,-640,-202,-134,69
1695,-424,-1960,-616,-191,-171,59
1700,-448,-1928,-568,-167,-192,49
1705,-432,-1872,-576,-132,-204,37
1710,-456,-1784,-560,-94,-204,24
1715,-440,-1744,-552,-51,-195,11
1720,-360,-1688,-568,-8,-179,-1
1725,-288,-1640,-584,32,-151,-17
1730,-240,-1576,-664,62,-123,-37
1735,-152,-1536,-648,84,-95,-59
1740,-80,-1496,-680,94,-70,-79
1745,-24,-1456,-648,92,-51,-89
1750,40,-1448,-672,82,-45,-104
1755,96,-1456,-680,61,-44,-115
1760,144,-1456,-648,31,-50,-124
1765,200,-1456,-600,-6,-56,-132
1770,184,-1472,-608,-47,-70,-141
1775,232,-1488,-592,-92,-89,-146
1780,216,-1504,-520,-134,-111,-150
1785,248,-1496,-504,-170,-136,-153
1790,224,-1472,-480,-205,-164,-156
1795,224,-1520,-448,-237,-194,-159
1800,200,-1520,-456,-259,-225,-157
1805,216,-1544,-472,-274,-253,-156
1810,224,-1576,-416,-285,-280,-150
1815,216,-1616,-440,-289,-301,-139
1820,200,-1616,-416,-295,-323,-133
1825,168,-1648,-448,-303,-342,-129
1830,160,-1680,-464,-311,-362,-120
1835,120,-1688,-448,-320,-377,-112
1840,136,-1736,-424,-326,-388,-105
1845,136,-1800,-440,-330,-398,-99
1850,144,-1848,-424,-335,-408,-99
1855,136,-1872,-392,-332,-417,-99
1860,120,-1880,-376,-329,-420,-99
1865,144,-1912,-360,-324,-421,-101
1870,136,-1960,-392,-319,-418,-99
1875,136,-1984,-384,-311,-409,-93
1880,128,-1992,-360,-299,-396,-84
1885,120,-2016,-368,-287,-382,-77
1890,128,-2024,-368,-268,-370,-68
1895,128,-1992,-352,-241,-359,-63
1900,128,-1960,-320,-210,-352,-57
1905,136,-1968,-360,-179,-342,-53
1910,104,-1960,-328,-147,-332,-50
1915,128,-1968,-320,-116,-324,-49
1920,88,-1936,-280,-90,-321,-44
1925,72,-1928,-216,-70,-321,-40
1930,64,-1920,-192,-55,-326,-33
1935,64,-1944,-160,-42,-337,-24
1940,32,-1920,-112,-33,-353,-15
1945,-16,-1944,-96,-27,-375,-7
1950,-16,-1912,-96,-28,-402,0
1955,-16,-1920,-64,-30,-429,8
1960,-48,-1920,-56,-30,-459,17
1965,-48,-1944,-72,-30,-483,25
1970,-64,-1960,-24,-35,-495,33
1975,-72,-1904,-96,-39,-499,44
1980,-16,-1880,-152,-42,-482,55
1985,32,-1856,-200,-46,-450,60
1990,128,-1856,-208,-58,-416,61
1995,152,-1848,-232,-70,-379,56
2000,232,-1848,-264,-84,-350,45
2005,224,-1848,-256,-99,-328,32
2010,240,-1880,-248,-113,-314,14
2015,272,-1936,-264,-119,-305,0
2020,304,-1992,-248,-121,-297,-13
2025,304,-2056,-288,-118,-286,-25
2030,336,-2088,-280,-113,-272,-32
2035,360,-2152,-320,-107,-257,-39
2040,376,-2200,-312,-106,-238,-47
2045,432,-2272,-360,-108,-217,-60
2050,472,-2368,-360,-112,-196,-74
2055,432,-2336,-336,-119,-180,-90
2060,400,-2368,-280,-115,-171,-101
2065,360,-2416,-200,-99,-177,-107
2070,272,-2408,-152,-64,-197,-109
2075,208,-2416,-72,-10,-230,-102
2080,104,-2408,-16,61,-273,-96
2085,24,-2376,48,141,-320,-87
2090,0,-2344,112,217,-368,-77
2095,-104,-2384,152,285,-413,-63
2100,-144,-2344,232,336,-458,-48
2105,-256,-2384,272,366,-508,-42
2110,-264,-2464,296,383,-547,-44
2115,-256,-2600,272,404,-565,-45
2120,-160,-2808,272,419,-585,-69
2125,-64,-3016,200,431,-593,-113
2130,72,-3120,72,433,-587,-158
2135,264,-3264,-160,408,-555,-201
2140,416,-3264,-368,350,-503,-246
2145,528,-3192,-576,266,-428,-283
2150,600,-3104,-808,167,-345,-309
2155,648,-2992,-960,89,-265,-318
2160,680,-2888,-1024,50,-186,-304
2165,656,-2752,-1080,71,-107,-278
2170,576,-2600,-1112,131,-17,-250
2175,408,-2472,-1128,195,69,-227
2180,264,-2360,-1096,233,130,-210
2185,128,-2248,-1080,233,153,-199
2190,0,-2160,-1088,195,142,-194
2195,-112,-2080,-1096,133,103,-188
2200,-128,-1984,-1056,52,31,-179
2205,-184,-1928,-1056,-27,-71,-168
2210,-272,-1920,-1000,-85,-197,-153
2215,-344,-1864,-960,-108,-342,-135
2220,-464,-1872,-968,-94,-494,-121
2225,-536,-1896,-952,-61,-644,-106
2230,-616,-1904,-952,-24,-781,-92
2235,-600,-1952,-920,6,-901,-82
2240,-624,-1944,-960,25,-997,-79
2245,-544,-1928,-880,35,-1068,-82
2250,-528,-1912,-888,39,-1111,-87
2255,-448,-1944,-864,43,-1121,-92
2260,-360,-1912,-824,45,-1102,-95
2265,-232,-1928,-832,44,-1052,-98
2270,-152,-1888,-816,36,-971,-101
2275,-32,-1920,-808,23,-864,-102
2280,64,-1880,-744,5,-739,-106
2285,176,-1904,-720,-16,-603,-113
2290,272,-1912,-712,-37,-471,-122
2295,344,-1880,-696,-61,-341,-133
2300,424,-1904,-696,-87,-221,-147
2305,512,-1928,-664,-111,-117,-161
2310,544,-1904,-680,-137,-25,-169
2315,584,-1888,-664,-157,47,-175
2320,608,-1904,-680,-171,104,-183
2325,608,-1880,-696,-182,144,-185
2330,600,-1848,-688,-187,167,-182
2335,576,-1784,-736,-183,180,-178
2340,552,-1720,-728,-173,180,-171
2345,504,-1680,-752,-154,179,-160
2350,456,-1664,-752,-135,167,-140
2355,416,-1664,-736,-116,154,-113
2360,336,-1624,-720,-103,139,-78
2365,312,-1648,-680,-98,126,-44
2370,232,-1632,-712,-101,112,-13
2375,176,-1632,-672,-110,95,20
2380,136,-1624,-648,-122,82,51
2385,72,-1624,-656,-137,72,77
2390,48,-1616,-624,-157,68,105
2395,40,-1616,-600,-180,69,124
2400,24,-1632,-592,-201,77,141
2405,-56,-1624,-552,-219,90,157
2410,-40,-1624,-568,-235,106,170
2415,-24,-1608,-552,-251,132,178
2420,-48,-1640,-560,-260,158,185
2425,-64,-1624,-528,-269,184,189
2430,-56,-1648,-512,-275,218,190
2435,-72,-1696,-472,-280,247,186
2440,-96,-1728,-464,-290,275,183
2445,-96,-1736,-472,-301,303,180
2450,-112,-1728,-416,-313,328,177
2455,-128,-1752,-464,-322,353,170
2460,-128,-1768,-416,-332,380,164
2465,-128,-1768,-440,-335,404,160
2470,-128,-1768,-392,-331,420,152
2475,-128,-1760,-376,-329,434,145
2480,-104,-1760,-384,-317,445,141
2485,-112,-1792,-400,-306,450,131
2490,-88,-1792,-376,-293,448,121
2495,-80,-1824,-352,-279,441,117
2500,-24,-1872,-352,-261,424,105
2505,32,-1928,-336,-249,408,95
2510,88,-1904,-352,-258,416,103
2515,40,-2008,-288,-280,415,113
2520,64,-2048,-280,-252,377,68
2525,40,-1984,-296,-221,351,33
2530,96,-1984,-256,-197,341,22
2535,112,-1984,-232,-175,338,13
2540,128,-1968,-224,-154,333,5
2545,120,-1928,-200,-131,328,0
2550,120,-1896,-176,-108,320,-5
2555,48,-1832,-144,-88,308,-9
2560,40,-1832,-88,-68,297,-11
2565,8,-1816,-120,-54,287,-15
2570,16,-1768,-96,-41,279,-22
2575,-8,-1768,-96,-32,279,-31
2580,16,-1784,-56,-29,286,-40
2585,-8,-1808,-104,-30,299,-47
2590,64,-1840,-40,-33,320,-54
2595,80,-1888,-24,-40,350,-62
2600,112,-1952,-8,-51,388,-67
2605,128,-1992,-48,-70,421,-73
2610,136,-2080,-40,-94,442,-73
2615,104,-2096,-48,-125,446,-74
2620,96,-2120,-160,-158,419,-74
2625,72,-2104,-184,-186,364,-71
2630,8,-2096,-224,-208,289,-71
2635,-40,-2088,-288,-223,218,-66
2640,-88,-2056,-328,-228,164,-62
2645,-88,-2024,-296,-222,128,-61
2650,-80,-2056,-272,-200,116,-60
2655,-104,-2088,-208,-156,124,-65
2660,-80,-2152,-168,-92,150,-73
2665,-104,-2216,-88,-17,180,-82
2670,-144,-2288,-64,67,205,-90
2675,-192,-2376,-32,151,220,-91
2680,-240,-2384,8,227,219,-84
2685,-224,-2416,-16,293,208,-74
2690,-192,-2416,8,346,197,-65
2695,-112,-2400,-16,379,191,-56
2700,-24,-2432,-64,390,196,-46
2705,56,-2456,-32,383,214,-39
2710,136,-2552,-48,367,244,-31
2715,224,-2640,-24,356,278,-18
2720,200,-2776,-56,352,309,-2
2725,232,-2952,-152,341,319,18
2730,184,-3072,-312,304,317,49
2735,184,-3200,-520,234,309,83
2740,112,-3320,-704,115,295,117
2745,240,-3200,-1048,-54,275,161
2750,16,-3336,-1184,-303,272,232
2755,-120,-3320,-1296,-505,181,242
2760,-184,-3224,-1312,-602,44,240
2765,-144,-3104,-1232,-569,-96,251
2770,-40,-3000,-1112,-418,-203,276
2775,88,-2856,-1032,-206,-266,302
2780,240,-2648,-936,4,-284,311
2785,320,-2432,-904,179,-263,300
2790,392,-2216,-896,313,-203,289
2795,416,-2032,-872,415,-120,283
2800,496,-1840,-856,498,-20,287
2805,560,-1696,-944,562,104,290
2810,616,-1560,-992,605,253,288
2815,608,-1480,-1088,619,434,280
2820,592,-1448,-1168,608,646,265
2825,568,-1440,-1216,565,875,246
2830,496,-1472,-1216,497,1103,222
2835,472,-1616,-1184,406,1299,196
2840,440,-1728,-1152,290,1434,164
2845,384,-1936,-1104,159,1508,128
2850,336,-2056,-1040,24,1520,97
2855,240,-2168,-960,-104,1479,75
2860,168,-2216,-848,-211,1397,59
2865,104,-2232,-760,-293,1284,52
2870,16,-2208,-672,-347,1145,59
2875,-32,-2176,-608,-380,989,74
2880,-104,-2176,-488,-397,821,88
2885,-128,-2144,-512,-395,641,104
2890,-184,-2064,-520,-381,465,114
2895,-248,-2008,-480,-358,299,125
2900,-280,-1952,-512,-326,152,133
2905,-264,-1912,-528,-293,28,140
2910,-344,-1808,-560,-263,-74,144
2915,-400,-1728,-584,-231,-161,149
2920,-432,-1656,-632,-201,-233,152
2925,-520,-1600,-640,-178,-289,151
2930,-544,-1528,-656,-154,-327,154
2935,-568,-1520,-680,-132,-348,151
2940,-576,-1472,-704,-115,-354,144
2945,-576,-1456,-712,-109,-337,139
2950,-520,-1440,-688,-109,-312,126
2955,-488,-1424,-720,-113,-282,113
2960,-432,-1392,-760,-116,-247,103
2965,-328,-1432,-720,-120,-214,88
2970,-296,-1448,-712,-126,-180,63
2975,-232,-1480,-688,-131,-155,39
2980,-152,-1472,-680,-140,-140,19
2985,-104,-1512,-672,-155,-134,-9
2990,-72,-1536,-680,-167,-144,-49
2995,8,-1576,-640,-180,-158,-87
3000,72,-1592,-600,-199,-175,-96
3005,104,-1592,-528,-216,-203,-100
3010,112,-1616,-512,-235,-248,-111
3015,152,-1616,-472,-248,-295,-127
3020,160,-1592,-480,-256,-341,-139
3025,176,-1584,-440,-257,-388,-144
3030,184,-1600,-408,-253,-436,-151
3035,248,-1608,-432,-251,-476,-157
3040,256,-1616,-408,-245,-516,-164
3045,248,-1624,-440,-239,-555,-174
3050,248,-1624,-384,-238,-590,-186
3055,264,-1640,-416,-240,-623,-199
3060,208,-1680,-368,-246,-652,-220
3065,184,-1680,-408,-256,-682,-246
3070,160,-1760,-384,-268,-699,-250
3075,144,-1856,-376,-283,-700,-233
3080,136,-1928,-344,-301,-688,-205
3085,88,-1944,-328,-319,-673,-191
3090,80,-1952,-352,-329,-658,-185
3095,80,-1920,-344,-328,-643,-183
3100,24,-1920,-352,-320,-630,-186
3105,0,-1936,-352,-302,-615,-188
3110,0,-1960,-288,-278,-595,-186
3115,-32,-1960,-296,-251,-571,-186
3120,-40,-1968,-304,-222,-547,-178
3125,-88,-1936,-272,-199,-525,-170
3130,-80,-1896,-248,-174,-505,-162
3135,-72,-1888,-216,-150,-493,-153
3140,-64,-1888,-200,-130,-489,-146
3145,-80,-1880,-160,-110,-491,-138
3150,-96,-1904,-112,-90,-500,-130
3155,-80,-1912,-56,-70,-520,-118
3160,-104,-1944,-56,-50,-551,-107
3165,-120,-1992,16,-30,-593,-92
3170,-128,-2024,16,-8,-645,-75
3175,-120,-2056,56,10,-703,-63
3180,-152,-2088,40,33,-761,-53
3185,-128,-2088,-16,58,-811,-41
3190,-120,-2064,-88,79,-839,-32
3195,-64,-2040,-152,95,-842,-15
3200,48,-2056,-208,93,-813,6
3205,152,-2072,-240,72,-765,17
3210,224,-2072,-288,38,-718,19
3215,224,-2056,-336,2,-674,12
3220,248,-2056,-336,-35,-640,4
3225,224,-2040,-424,-69,-619,-3
3230,208,-2040,-432,-93,-608,-2
3235,248,-2064,-416,-102,-602,5
3240,296,-2088,-424,-98,-598,15
3245,384,-2112,-376,-83,-589,22
3250,456,-2208,-376,-64,-572,19
3255,568,-2336,-312,-40,-544,9
3260,616,-2424,-288,-18,-508,-10
3265,592,-2496,-184,10,-470,-35
3270,544,-2576,-104,50,-436,-60
3275,448,-2672,-8,104,-415,-81
3280,336,-2632,88,183,-412,-91
3285,240,-2664,152,284,-419,-91
3290,160,-2648,200,395,-432,-85
3295,32,-2608,208,501,-449,-75
3300,-176,-2592,304,592,-479,-58
3305,-304,-2680,304,665,-518,-46
3310,-280,-2864,336,728,-554,-51
3315,-240,-3080,288,790,-598,-66
3320,-176,-3328,160,847,-659,-86
3325,-80,-3512,-88,874,-716,-111
3330,80,-3584,-432,822,-750,-144
3335,208,-3536,-792,680,-753,-164
3340,296,-3424,-1160,467,-733,-177
3345,312,-3296,-1384,231,-672,-186
3350,400,-3104,-1464,52,-573,-206
3355,448,-2888,-1472,-18,-427,-213
3360,384,-2680,-1456,28,-259,-199
3365,312,-2472,-1456,154,-132,-168
3370,88,-2280,-1504,285,-71,-137
3375,-32,-2056,-1608,362,-63,-115
3380,-144,-1952,-1720,362,-106,-111
3385,-280,-1776,-1728,327,-193,-116
3390,-440,-1696,-1664,287,-321,-116
3395,-616,-1672,-1512,258,-478,-110
3400,-720,-1720,-1328,252,-648,-101
3405,-808,-1832,-1160,268,-815,-93
3410,-832,-1912,-1000,296,-991,-89
3415,-808,-1936,-920,329,-1100,-92
3420,-744,-1984,-840,353,-1167,-95
3425,-672,-2000,-800,357,-1196,-96
3430,-536,-2016,-768,338,-1197,-98
3435,-416,-2032,-784,295,-1172,-93
3440,-296,-2024,-752,229,-1128,-84
3445,-176,-2008,-688,143,-1061,-70
3450,-48,-1968,-712,43,-977,-56
3455,136,-1936,-688,-63,-881,-41
3460,272,-1944,-680,-162,-777,-27
3465,384,-1928,-624,-254,-677,-13
3470,496,-1960,-624,-323,-584,-7
3475,608,-1952,-600,-376,-502,-5
3480,664,-1968,-648,-417,-434,-9
3485,680,-1912,-688,-457,-383,-22
3490,688,-1848,-704,-482,-348,-39
3495,656,-1784,-760,-494,-325,-54
3500,592,-1720,-808,-498,-306,-66
3505,496,-1680,-848,-493,-302,-69
3510,400,-1672,-824,-478,-305,-66
3515,336,-1656,-784,-454,-318,-61
3520,200,-1624,-760,-424,-344,-45
3525,144,-1608,-760,-393,-373,-24
3530,16,-1568,-752,-372,-402,4
3535,-64,-1536,-744,-355,-431,38
3540,-136,-1512,-696,-345,-456,70
3545,-136,-1480,-696,-338,-479,100
3550,-144,-1464,-632,-335,-493,127
3555,-176,-1432,-584,-332,-502,144
3560,-184,-1384,-584,-336,-505,166
3565,-192,-1376,-544,-351,-501,188
3570,-128,-1360,-536,-368,-486,204
3575,-104,-1360,-472,-385,-449,229
3580,-96,-1368,-432,-402,-410,250
3585,-64,-1416,-440,-425,-372,262
3590,-32,-1456,-448,-456,-328,269
3595,32,-1504,-456,-504,-279,286
3600,-16,-1576,-384,-562,-232,286
3605,24,-1608,-432,-587,-199,263
3610,64,-1608,-448,-601,-167,242
3615,64,-1632,-488,-612,-130,235
3620,120,-1640,-480,-623,-92,227
3625,80,-1648,-520,-626,-56,219
3630,120,-1720,-520,-627,-24,206
3635,96,-1728,-512,-623,0,194
3640,64,-1752,-512,-619,21,190
3645,40,-1776,-480,-609,39,187
3650,0,-1824,-512,-598,55,183
3655,-16,-1848,-496,-583,66,174
3660,-32,-1856,-464,-560,75,162
3665,-56,-1840,-440,-535,80,154
3670,-64,-1864,-440,-508,83,145
3675,-72,-1840,-424,-482,83,135
3680,-88,-1800,-432,-457,82,122
3685,-64,-1824,-400,-430,78,107
3690,-48,-1768,-408,-410,73,90
3695,24,-1736,-400,-391,68,71
3700,-32,-1808,-344,-376,65,53
3705,-16,-1800,-328,-373,64,39
3710,-40,-1800,-336,-375,70,27
3715,-48,-1832,-272,-382,76,17
3720,-24,-1864,-264,-391,88,12
3725,-64,-1896,-248,-403,101,12
3730,-56,-1944,-192,-407,117,15
3735,-40,-1992,-184,-410,130,14
3740,-24,-2040,-168,-406,139,14
3745,-48,-2104,-160,-395,147,14
3750,-16,-2272,-184,-383,154,15
3755,24,-2160,-200,-372,161,21
3760,48,-2208,-232,-367,169,29
3765,16,-2232,-224,-360,178,31
3770,16,-2224,-224,-347,187,25
3775,32,-2264,-192,-328,196,21
3780,24,-2288,-144,-305,201,25
3785,16,-2296,-240,-278,203,26
3790,0,-2328,-168,-250,202,30
3795,-24,-2328,-160,-216,200,34
3800,-72,-2368,-72,-180,198,41
3805,-56,-2304,-160,-143,199,49
3810,-48,-2368,-144,-104,207,56
3815,-48,-2368,-112,-65,222,60
3820,-64,-2368,-128,-24,242,58
3825,-72,-2352,-144,16,264,56
3830,-88,-2328,-144,57,286,53
3835,-112,-2312,-184,94,305,51
3840,-120,-2280,-168,127,324,49
3845,-120,-2288,-192,150,337,50
3850,-128,-2256,-248,168,347,47
3855,-232,-2376,-184,177,352,45
3860,-192,-2208,-304,177,349,43
3865,-208,-2168,-328,162,342,43
3870,-224,-2168,-360,138,333,44
3875,-256,-2192,-408,98,323,51
3880,-232,-2272,-408,49,314,61
3885,-192,-2376,-448,-6,310,73
3890,-224,-2496,-456,-64,307,88
3895,-184,-2656,-448,-123,301,109
3900,-184,-2808,-456,-176,291,129
3905,-184,-2944,-544,-225,270,139
3910,-264,-3000,-720,-272,240,149
3915,-200,-3120,-832,-317,206,164
3920,-176,-3144,-1032,-367,166,174
3925,-136,-3168,-1248,-423,125,185
3930,-96,-3152,-1448,-468,98,195
3935,-24,-3040,-1656,-485,93,197
3940,72,-2928,-1736,-454,107,192
3945,168,-2784,-1832,-372,131,184
3950,144,-2648,-1800,-266,163,188
3955,184,-2472,-1824,-133,179,178
3960,200,-2336,-1928,-6,206,163
3965,200,-2112,-1816,69,249,160
3970,152,-1976,-1840,92,302,164
3975,120,-1872,-1784,71,355,165
3980,96,-1856,-1720,25,412,165
3985,64,-1832,-1696,-34,468,155
3990,8,-1896,-1648,-101,516,143
3995,-88,-1936,-1624,-173,553,133
4000,-160,-2016,-1616,-242,585,131
4005,-200,-2064,-1568,-299,617,136
4010,-240,-2152,-1560,-346,641,144
4015,-224,-2144,-1624,-380,656,152
4020,-136,-2256,-1512,-407,657,158
4025,-32,-2296,-1440,-411,646,160
4030,-8,-2264,-1408,-388,617,158
4035,80,-2296,-1312,-341,582,152
4040,136,-2280,-1248,-270,544,141
4045,176,-2336,-1136,-186,504,129
4050,208,-2376,-1136,-107,463,115
4055,216,-2416,-1032,-45,422,99
4060,200,-2456,-952,1,378,83
4065,168,-2472,-920,33,325,65
4070,128,-2416,-872,54,262,47
4075,40,-2400,-760,70,193,33
4080,-56,-2296,-776,92,117,23
4085,-120,-2224,-736,115,45,18
4090,-232,-2120,-752,136,-16,15
4095,-272,-1992,-752,147,-60,18
4100,-360,-1928,-808,148,-84,21
4105,-376,-1824,-840,132,-88,26
4110,-400,-1720,-840,105,-74,33
4115,-408,-1616,-816,71,-50,36
4120,-392,-1584,-824,36,-20,34
4125,-296,-1520,-784,2,16,27
4130,-280,-1504,-752,-32,51,17
4135,-208,-1504,-744,-64,83,4
4140,-168,-1488,-704,-93,109,-9
4145,-128,-1496,-696,-119,131,-23
4150,-128,-1512,-648,-143,142,-45
4155,-56,-1520,-664,-159,135,-80
4160,-16,-1528,-608,-183,136,-94
4165,40,-1544,-592,-203,134,-94
4170,72,-1568,-576,-218,119,-99
4175,16,-1552,-528,-227,96,-106
4180,72,-1520,-520,-227,65,-112
4185,104,-1488,-560,-212,25,-118
4190,64,-1448,-568,-190,-23,-125
4195,96,-1416,-536,-169,-76,-141
4200,88,-1400,-528,-145,-121,-148
4205,80,-1376,-568,-119,-165,-156
4210,104,-1360,-544,-97,-199,-165
4215,128,-1336,-568,-80,-223,-179
4220,104,-1296,-544,-63,-231,-177
4225,88,-1288,-528,-51,-231,-173
4230,56,-1336,-440,-44,-229,-171
4235,80,-1296,-504,-39,-219,-172
4240,72,-1280,-520,-36,-204,-174
4245,120,-1296,-504,-36,-181,-178
4250,72,-1312,-480,-34,-148,-185
4255,104,-1312,-488,-36,-112,-190
4260,152,-1352,-456,-43,-75,-196
4265,128,-1352,-448,-46,-41,-205
4270,176,-1352,-456,-54,-11,-209
4275,184,-1368,-416,-61,14,-208
4280,184,-1360,-416,-68,36,-205
4285,232,-1408,-440,-72,53,-197
4290,232,-1432,-408,-78,65,-187
4295,240,-1456,-408,-87,71,-179
4300,232,-1480,-400,-91,71,-169
4305,264,-1512,-400,-95,66,-158
4310,256,-1520,-368,-101,59,-152
4315,256,-1504,-368,-103,48,-146
4320,256,-1504,-336,-100,32,-139
4325,224,-1496,-368,-94,12,-133
4330,208,-1512,-336,-80,-15,-125
4335,168,-1488,-320,-56,-39,-117
4340,176,-1520,-264,-28,-63,-103
4345,168,-1560,-272,7,-85,-95
4350,152,-1568,-288,43,-109,-98
4355,144,-1592,-232,64,-117,-77
4360,136,-1648,-192,83,-117,-55
4365,88,-1736,-200,98,-115,-41
4370,56,-1768,-136,113,-115,-35
4375,0,-1832,-168,122,-115,-40
4380,8,-1880,-176,125,-116,-49
4385,-32,-1880,-208,125,-103,-44
4390,-24,-1920,-272,127,-88,-31
4395,-40,-1960,-304,123,-72,-26
4400,-80,-1976,-304,118,-57,-32
4405,-72,-1968,-384,111,-47,-43
4410,-80,-1904,-440,106,-34,-55
4415,-48,-1848,-448,107,-24,-66
4420,16,-1792,-440,120,-15,-75
4425,40,-1768,-448,146,-11,-79
4430,120,-1712,-480,182,-16,-79
4435,224,-1688,-456,228,-24,-78
4440,296,-1704,-456,271,-31,-74
4445,376,-1776,-416,305,-30,-67
4450,480,-1920,-368,327,-19,-59
4455,568,-2064,-288,333,2,-53
4460,728,-2152,-248,329,36,-57
4465,856,-2264,-152,324,76,-72
4470,912,-2400,-88,321,120,-96
4475,920,-2472,-16,324,165,-123
4480,848,-2568,64,337,201,-149
4485,696,-2624,176,364,222,-167
4490,552,-2672,256,406,215,-175
4495,384,-2688,328,459,184,-170
4500,152,-2680,424,521,136,-157
4505,-40,-2664,488,591,73,-136
4510,-240,-2640,552,670,-8,-108
4515,-496,-2592,560,755,-107,-72
4520,-704,-2544,512,843,-226,-26
4525,-832,-2552,440,918,-360,24
4530,-864,-2616,216,975,-500,72
4535,-800,-2592,-64,1001,-633,111
4540,-704,-2624,-360,996,-753,128
4545,-488,-2600,-720,954,-852,128
4550,-272,-2512,-1080,881,-911,121
4555,-16,-2432,-1448,782,-929,105
4560,248,-2320,-1736,633,-905,81
4565,496,-2224,-2000,482,-843,50
4570,712,-2128,-2264,306,-754,6
4575,904,-2144,-2384,112,-638,-47
4580,976,-2136,-2544,-93,-507,-107
4585,928,-2200,-2592,-313,-367,-173
4590,840,-2352,-2592,-527,-236,-237
4595,568,-2472,-2472,-705,-129,-292
4600,280,-2632,-2240,-810,-43,-329
4605,-96,-2776,-2040,-818,9,-339
4610,-464,-2944,-1856,-734,25,-331
4615,-776,-3056,-1744,-579,8,-317
4620,-1112,-3080,-1600,-380,-25,-306
4625,-1360,-3104,-1480,-168,-45,-299
4630,-1448,-3008,-1352,25,-43,-289
4635,-1392,-2872,-1200,175,-24,-278
4640,-1224,-2656,-1120,271,-5,-271
4645,-1040,-2464,-1024,304,9,-259
4650,-768,-2264,-944,286,19,-247
4655,-480,-2144,-840,219,27,-232
4660,-168,-2040,-824,122,26,-208
4665,64,-2008,-856,11,13,-183
4670,352,-2008,-760,-96,-14,-158
4675,536,-2056,-784,-191,-39,-140
4680,704,-2120,-720,-266,-65,-124
4685,824,-2152,-664,-312,-98,-120
4690,880,-2240,-624,-328,-138,-119
4695,872,-2304,-592,-313,-181,-118
4700,784,-2328,-576,-279,-239,-109
4705,656,-2312,-592,-231,-299,-91
4710,504,-2240,-680,-180,-354,-62
4715,368,-2224,-728,-132,-400,-29
4720,192,-2128,-776,-90,-436,9
4725,32,-2040,-816,-57,-465,52
4730,-104,-1976,-792,-32,-487,90
4735,-192,-1888,-792,-13,-501,124
4740,-264,-1784,-744,4,-502,151
4745,-336,-1712,-752,11,-489,172
4750,-336,-1648,-704,11,-457,186
4755,-320,-1608,-656,3,-414,196
4760,-280,-1536,-616,-13,-359,198
4765,-272,-1472,-616,-37,-287,202
4770,-208,-1480,-592,-75,-198,214
4775,-120,-1440,-592,-124,-103,223
4780,-104,-1392,-640,-177,-12,225
4785,-32,-1400,-632,-230,70,225
4790,40,-1448,-680,-276,142,223
4795,96,-1464,-680,-318,201,217
4800,176,-1480,-672,-352,245,215
4805,184,-1512,-696,-379,271,205
4810,184,-1560,-680,-390,284,190
4815,208,-1592,-696,-391,286,171
4820,192,-1616,-680,-395,285,158
4825,224,-1664,-640,-391,283,152
4830,144,-1664,-616,-384,277,143
4835,144,-1624,-640,-380,259,128
4840,56,-1552,-624,-376,241,121
4845,56,-1496,-624,-376,218,120
4850,-8,-1472,-608,-375,193,115
4855,-96,-1440,-536,-378,166,112
4860,-112,-1456,-480,-384,135,110
4865,-128,-1440,-488,-386,106,108
4870,-152,-1440,-440,-390,87,101
4875,-128,-1440,-440,-393,82,101
4880,-144,-1440,-400,-405,87,99
4885,-136,-1416,-360,-412,99,99
4890,-160,-1408,-368,-419,113,101
4895,-208,-1416,-368,-423,128,108
4900,-152,-1440,-328,-428,145,119
4905,-136,-1456,-336,-429,160,135
4910,-136,-1472,-320,-428,171,149
4915,-120,-1504,-328,-431,181,161
4920,-96,-1496,-320,-435,186,172
4925,-48,-1544,-328,-446,189,179
4930,-32,-1584,-312,-460,192,187
4935,-16,-1624,-360,-473,193,196
4940,-16,-1672,-320,-485,193,197
4945,-16,-1752,-328,-495,191,197
4950,-32,-1824,-304,-500,185,194
4955,-48,-1864,-240,-496,176,192
4960,-88,-1944,-224,-480,166,185
4965,-88,-1984,-200,-455,155,179
4970,-112,-2024,-136,-419,146,170
4975,-128,-1992,-96,-371,136,161
4980,-128,-1960,-88,-312,127,154
4985,-128,-1888,-72,-244,119,149
4990,-96,-1824,-128,-167,117,144
4995,-112,-1792,-96,-90,130,132
5000,-56,-1760,-96,-20,156,120
5005,-88,-1720,-64,39,197,100
5010,-48,-1728,-72,85,242,81
5015,-40,-1728,-112,117,291,57
5020,16,-1744,-56,133,340,38
5025,-8,-1808,-40,135,386,21
5030,-24,-1880,8,128,423,14
5035,-8,-1952,40,116,450,13
5040,-32,-2008,32,106,473,15
5045,-80,-2072,48,103,490,23
5050,-128,-2104,32,103,496,35
5055,-128,-2144,-64,110,491,50
5060,-136,-2120,-128,125,479,64
5065,-160,-2088,-224,141,460,81
5070,-160,-2064,-336,156,437,97
5075,-184,-2072,-464,163,408,118
5080,-264,-2000,-640,160,370,141
5085,-296,-1976,-808,141,310,166
5090,-360,-1952,-1064,100,229,194
5095,-456,-1904,-1320,34,122,226
5100,-608,-1864,-1584,-71,-13,270
5105,-696,-1872,-1856,-217,-167,326
5110,-760,-1936,-2128,-402,-302,395
5115,-864,-1992,-2384,-630,-385,462
5120,-832,-2144,-2560,-885,-407,529
5125,-712,-2360,-2584,-1119,-367,583
5130,-472,-2592,-2504,-1289,-270,611
5135,-208,-2856,-2256,-1342,-148,596
5140,-8,-3000,-2064,-1261,-52,545
5145,240,-3008,-1952,-1098,1,482
5150,400,-2984,-1856,-905,38,415
5155,536,-2856,-1736,-703,72,349
5160,608,-2712,-1664,-524,106,284
5165,656,-2576,-1584,-368,135,219
5170,648,-2456,-1464,-228,159,149
5175,536,-2312,-1296,-115,180,82
5180,352,-2192,-1176,-35,195,23
5185,144,-2096,-984,14,197,-15
5190,-16,-1992,-856,46,182,-36
5195,-144,-1944,-704,73,147,-41
5200,-304,-1912,-640,96,94,-39
5205,-408,-1896,-664,109,33,-31
5210,-528,-1952,-648,95,-20,-20
5215,-600,-2056,-672,53,-62,-8
5220,-608,-2192,-728,-13,-88,0
5225,-440,-2288,-776,-93,-91,4
5230,-496,-2312,-728,-184,-70,-5
5235,-336,-2352,-768,-248,-57,-10
5240,-104,-2344,-768,-282,-43,-31
5245,48,-2272,-824,-309,-36,-65
5250,176,-2176,-840,-323,-32,-100
5255,312,-2104,-888,-318,-29,-131
5260,416,-2024,-936,-280,-35,-160
5265,520,-1904,-904,-214,-44,-180
5270,632,-1776,-904,-142,-59,-196
5275,648,-1664,-840,-77,-80,-208
5280,624,-1544,-728,-25,-108,-216
5285,576,-1480,-616,12,-134,-223
5290,568,-1464,-528,34,-155,-237
5295,464,-1440,-400,61,-171,-255
5300,440,-1448,-304,107,-183,-270
5305,336,-1416,-288,162,-196,-276
5310,216,-1392,-256,216,-211,-273
5315,120,-1448,-200,259,-225,-264
5320,56,-1448,-256,286,-237,-251
5325,-64,-1424,-328,293,-247,-235
5330,-120,-1344,-440,279,-256,-213
5335,-208,-1184,-496,237,-259,-190
5340,-176,-1104,-640,166,-249,-161
5345,-176,-920,-760,105,-214,-143
5350,-128,-792,-856,39,-163,-142
5355,-8,-616,-936,-34,-95,-148
5360,40,-416,-952,-122,-10,-160
5365,88,-328,-976,-214,76,-178
5370,152,-232,-952,-312,152,-195
5375,240,-224,-832,-436,192,-210
5380,168,-288,-624,-554,179,-223
5385,16,-432,-416,-614,121,-235
5390,-160,-528,-176,-602,35,-232
5395,-336,-672,96,-521,-64,-201
5400,-408,-880,232,-385,-183,-153
5405,-392,-1032,208,-223,-318,-104
5410,-336,-1240,104,-83,-450,-59
5415,-192,-1376,-40,5,-574,-32
5420,-104,-1464,-216,37,-685,-33
5425,-56,-1432,-296,40,-771,-51
5430,48,-1472,-272,18,-826,-73
5435,144,-1432,-264,12,-838,-95
5440,224,-1424,-296,25,-808,-123
5445,216,-1320,-304,39,-731,-154
5450,304,-1304,-280,44,-612,-182
5455,352,-1256,-208,56,-461,-212
5460,368,-1152,-312,69,-286,-238
5465,368,-1128,-384,80,-95,-259
5470,376,-1056,-424,102,107,-274
5475,416,-960,-472,126,297,-286
5480,424,-872,-608,134,468,-287
5485,440,-736,-752,123,616,-282
5490,360,-552,-848,94,747,-276
5495,280,-440,-848,44,844,-258
5500,264,-416,-696,12,909,-232
5505,288,-408,-496,-6,916,-201
5510,232,-472,-296,-23,868,-176
5515,184,-536,-64,-36,780,-154
5520,128,-640,120,-27,670,-129
5525,120,-752,208,9,567,-104
5530,88,-824,232,55,484,-80
5535,64,-952,288,70,432,-47
5540,8,-1024,184,36,419,-16
5545,16,-1112,24,-17,451,5
5550,-8,-1200,-136,-55,525,24
5555,96,-1240,-160,-96,627,53
5560,128,-1336,-136,-157,745,76
5565,160,-1408,-240,-215,863,97
5570,176,-1336,-416,-218,992,124
5575,192,-1240,-696,-157,1161,144
5580,280,-1096,-816,-128,1340,161
5585,384,-944,-784,-195,1474,172
5590,496,-920,-576,-334,1503,190
5595,568,-856,-504,-406,1409,198
5600,560,-832,-448,-356,1268,206
5605,472,-776,-312,-269,1156,249
5610,272,-720,-248,-176,1078,301
5615,64,-608,-168,-104,1012,369
5620,-176,-448,-320,-64,983,439
5625,-328,-336,-488,-53,984,510
5630,-400,-224,-688,-88,1014,571
5635,-400,-176,-960,-147,1073,605
5640,-392,-184,-1088,-230,1159,623
5645,-352,-272,-944,-314,1251,634
5650,-136,-416,-864,-366,1325,642
5655,8,-496,-872,-385,1366,636
5660,88,-576,-992,-405,1367,622
5665,48,-584,-1192,-433,1329,614
5670,-32,-592,-1240,-481,1262,621
5675,-112,-536,-1264,-515,1191,626
5680,-144,-608,-1104,-521,1129,636
5685,-168,-744,-1024,-514,1090,640
5690,-136,-952,-1008,-506,1048,619
5695,-240,-1152,-1000,-507,989,569
5700,-272,-1456,-944,-514,913,519
5705,-368,-1936,-640,-523,854,459
5710,-352,-2480,-216,-515,834,377
5715,-280,-3016,144,-500,854,277
5720,-256,-3568,480,-491,892,153
5725,-248,-4232,576,-513,916,7
5730,-416,-5176,528,-602,941,-150
5735,-1328,-6064,-80,-763,1020,-306
5740,-2312,-7072,-984,-1070,1147,-343
5745,-3208,-8168,-1840,-1342,1327,-315
5750,-3080,-8968,-2144,-1428,1455,-438
5755,-2024,-8976,-2120,-1355,1635,-566
5760,-968,-7464,-2312,-1191,1711,-642
5765,48,-5144,-2336,-1082,1638,-580
5770,912,-2960,-2128,-1113,1509,-486
5775,1616,-1016,-2056,-1268,1351,-458
5780,2040,728,-1864,-1558,1183,-498
5785,2144,2312,-1608,-1899,1017,-560
5790,1928,3864,-1776,-2257,865,-623
5795,1496,5160,-1888,-2580,779,-663
5800,944,5984,-2136,-2693,756,-731
5805,584,6088,-2352,-2636,838,-788
5810,680,5232,-2744,-2515,1044,-810
5815,1056,3720,-3016,-2406,1296,-824
5820,1336,2040,-3088,-2329,1472,-898
5825,1256,600,-3112,-2320,1487,-1019
5830,1184,-480,-3080,-2416,1403,-1111
5835,1072,-1224,-3168,-2611,1312,-1171
5840,1080,-1624,-3168,-2861,1261,-1211
5845,1048,-1728,-2936,-3124,1287,-1240
5850,1136,-1552,-2632,-3339,1381,-1259
5855,1344,-1272,-2336,-3489,1491,-1267
5860,1528,-1000,-1976,-3627,1606,-1279
5865,1768,-864,-1592,-3755,1730,-1288
5870,2104,-832,-1320,-3839,1856,-1285
5875,2464,-880,-1000,-3883,1992,-1289
5880,2768,-864,-520,-3939,2196,-1294
5885,2912,-816,-216,-3984,2475,-1280
5890,2944,-640,-272,-3940,2708,-1235
5895,2776,-448,-760,-3793,2746,-1216
5900,2344,-408,-1280,-3634,2585,-1239
5905,1800,-808,-1632,-3591,2399,-1248
5910,1040,-1384,-1808,-3671,2269,-1214
5915,-2168,-3672,-5424,-3852,2134,-1090
5920,5632,-21216,-22592,-5699,722,164
5925,5032,-200,3912,-12265,-1091,175
5930,9960,-248,2584,-10037,2447,-2093
5935,-5936,6032,-3320,-6719,700,-2515
5940,-5064,8952,-3960,-4831,-1653,-1540
5945,-3704,1632,-4496,-3857,-641,-981
5950,-208,-2472,-7112,-3088,156,-600
5955,3864,-3128,-7544,-2937,129,-623
5960,4560,-1200,-7784,-3068,222,-604
5965,3128,-40,-7320,-3196,150,-621
5970,1808,656,-7472,-3275,-60,-777
5975,1672,2384,-7632,-3698,-317,-1096
5980,1864,2224,-8856,-4036,-427,-1327
5985,1544,1784,-8960,-4191,-593,-1563
5990,3904,896,-8728,-4118,-472,-1804
5995,5000,-72,-7912,-3858,-355,-1784
6000,1832,-472,-8320,-3058,-663,-1441
6005,2336,-784,-7752,-2567,-443,-1184
6010,1896,680,-5376,-2603,144,-1095
6015,2232,136,-4744,-2463,619,-956
6020,1248,-304,-4016,-2154,825,-771
6025,1736,528,-3080,-1921,969,-677
6030,1552,192,-3032,-1703,982,-587
6035,1632,-96,-2984,-1502,1034,-490
6040,1048,-352,-2888,-1317,1079,-424
6045,1752,336,-2168,-1363,1225,-475
6050,1016,-384,-2176,-1371,1288,-484
6055,1192,-128,-1912,-1413,1287,-490
6060,472,-824,-1936,-1411,1242,-489
6065,1256,80,-1592,-1481,1235,-566
6070,1192,416,-2256,-1370,1125,-545
6075,1024,240,-2040,-1360,1056,-562
6080,1672,216,-2192,-1245,987,-558
6085,1560,512,-2056,-1151,960,-610
6090,1472,472,-2032,-1103,947,-623
6095,1216,296,-2144,-1098,1003,-626
6100,720,88,-1968,-1078,1055,-619
6105,1848,-24,-1704,-1101,1118,-661
6110,1352,600,-1808,-1145,1033,-762
6115,1280,104,-2328,-1319,876,-719
6120,872,656,-1128,-1472,840,-757
6125,1232,568,-1168,-1478,686,-778
6130,944,424,-1512,-1402,513,-751
6135,656,448,-1584,-1389,468,-729
6140,-88,568,-1976,-1334,447,-677
6145,616,-264,-1832,-1427,446,-531
6150,920,168,-1736,-1466,456,-519
6155,592,320,-1752,-1443,444,-551
6160,904,768,-1560,-1441,412,-562
6165,768,456,-1832,-1291,432,-546
6170,736,232,-1992,-1164,511,-522
6175,696,392,-1832,-1092,533,-436
6180,720,480,-1464,-1106,421,-345
6185,1240,888,-1720,-1080,251,-278
6190,1048,880,-1632,-1034,183,-217
6195,840,720,-1536,-1004,136,-192
6200,968,744,-1728,-983,107,-183
6205,800,728,-1576,-979,99,-182
6210,1040,488,-1680,-924,67,-157
6215,992,640,-1584,-913,13,-140
6220,1128,800,-1616,-905,-46,-131
6225,1136,856,-1560,-886,-67,-128
6230,1032,1016,-1592,-851,-66,-133
6235,1264,808,-1560,-784,-68,-109
6240,1680,1312,-1488,-726,-63,-74
6245,1120,816,-1512,-643,-10,-53
6250,800,928,-1832,-524,-1,-82
6255,704,168,-1560,-493,-8,-70
6260,1200,1344,-1688,-425,-53,-102
6265,632,1104,-1744,-440,-109,-52
6270,144,-648,-2128,-294,-321,-13
6275,1568,1592,-1896,-309,-540,-125
6280,2344,2080,-1488,-412,-521,-84
6285,1072,840,-1384,-318,-424,-40
6290,864,864,-1728,-153,-393,-59
6295,424,432,-1632,-112,-394,-67
6300,696,696,-1504,-143,-431,-23
6305,1416,1008,-1408,-151,-444,-9
6310,1720,1000,-1336,-59,-427,-7
6315,728,504,-1752,154,-461,-11
6320,712,560,-1864,174,-479,-11
6325,944,952,-1856,132,-487,-22
6330,960,968,-1688,227,-507,-15
6335,824,584,-1824,430,-548,16
6340,1016,480,-1792,453,-552,30
6345,840,528,-1736,457,-620,18
6350,720,504,-1840,422,-625,22
6355,848,576,-1792,374,-605,36
6360,928,656,-1728,367,-599,48
6365,608,680,-1832,472,-670,44
6370,520,368,-2152,484,-677,56
6375,936,576,-1848,313,-563,49
6380,920,616,-1848,268,-507,33
6385,928,656,-1824,262,-488,26
6390,1192,864,-1728,281,-488,26
6395,800,640,-1896,391,-556,23
6400,856,648,-1952,417,-573,21
6405,1072,712,-2072,359,-521,22
6410,1048,712,-2176,351,-521,12
6415,984,680,-2216,333,-501,2
6420,1144,720,-2216,313,-470,-2
6425,896,672,-2160,335,-492,-21
6430,1024,688,-2040,353,-474,-29
6435,1112,656,-2152,330,-436,-28
6440,872,736,-2160,329,-440,-36
6445,1376,616,-2296,333,-414,-37
6450,240,496,-2208,368,-522,-71
6455,928,632,-2168,378,-461,-55
6460,1024,624,-2160,356,-391,-30
6465,904,656,-2096,352,-389,-25
6470,1128,584,-2152,355,-392,-20
6475,824,656,-2032,349,-416,-25
6480,864,584,-1960,379,-401,-13
6485,912,528,-1896,393,-406,-7
6490,616,536,-1976,424,-450,-15
6495,856,552,-2008,446,-429,-4
6500,736,592,-2152,420,-429,2
6505,752,696,-2240,395,-462,2
6510,1024,680,-2256,386,-517,2
6515,712,656,-2160,407,-511,-1
6520,1120,560,-2272,398,-432,9
6525,544,656,-1960,385,-456,-11
6530,760,672,-2128,429,-401,-4
6535,784,464,-2240,415,-394,9
6540,920,720,-2024,416,-416,13
6545,912,576,-2072,433,-433,8
6550,576,648,-2240,435,-471,-1
6555,1056,728,-2456,423,-473,10
6560,800,624,-2280,428,-418,6
6565,688,664,-2352,440,-394,1
6570,952,952,-2560,426,-396,23
6575,656,616,-2328,375,-366,59
6580,736,-8,-2200,394,-329,46
6585,704,896,-2624,381,-337,45
6590,784,632,-2520,317,-326,93
6595,680,680,-2504,329,-232,134
6600,680,456,-2400,342,-134,164
6605,904,432,-2752,345,-19,192
6610,1248,904,-2616,277,90,175
6615,416,-168,-1216,217,169,152
6620,984,792,-2696,210,174,147
6625,752,560,-2552,136,264,127
6630,752,1288,-2608,106,420,98
6635,840,880,-2592,93,567,81
6640,392,568,-2472,95,673,70
6645,224,88,-2152,59,687,84
6650,416,312,-2112,20,610,109
6655,744,-168,-1736,-11,475,122
6660,760,-608,-1280,57,303,138
6665,608,-584,-856,141,48,133
6670,392,-360,-1400,244,-258,144
6675,352,-152,-1656,282,-456,144
6680,184,-16,-1680,255,-549,152
6685,152,280,-1872,214,-606,160
6690,552,536,-1952,155,-605,165
6695,1000,472,-1912,145,-553,164
6700,1088,520,-1968,152,-504,140
6705,1112,448,-2096,156,-475,110
6710,960,624,-2160,120,-452,85
6715,896,544,-2080,107,-421,73
6720,888,704,-2272,109,-411,55
6725,464,552,-2200,111,-376,60
6730,616,392,-2120,142,-318,88
6735,632,144,-2192,176,-257,96
6740,488,352,-2216,166,-206,98
6745,496,504,-2240,137,-172,107
6750,648,192,-2248,120,-150,124
6755,552,224,-2256,77,-142,98
6760,560,376,-2072,21,-151,73
6765,496,432,-2128,-4,-181,76
6770,440,472,-2144,0,-209,82
6775,576,328,-2120,19,-216,85
6780,552,312,-2144,26,-215,78
6785,488,376,-2200,26,-211,75
6790,552,288,-2344,44,-184,83
6795,496,352,-2392,53,-130,73
6800,640,512,-2368,44,-75,68
6805,528,448,-2392,13,-15,65
6810,576,264,-2496,8,34,88
6815,832,208,-2488,5,90,78
6820,400,280,-2504,30,98,61
6825,696,376,-2344,4,187,62
6830,728,240,-2384,13,227,72
6835,832,288,-2344,-12,264,61
6840,808,304,-2288,-16,297,43
6845,832,352,-2152,-27,319,25
6850,624,472,-2112,-36,315,11
6855,832,456,-2112,-28,317,11
6860,752,368,-2192,-31,304,6
6865,760,336,-2144,-36,298,3
6870,608,432,-2208,-43,287,3
6875,752,416,-2248,-49,299,12
6880,768,216,-2184,-82,305,13
6885,744,416,-2280,-87,328,15
6890,992,528,-2360,-100,370,4
6895,968,336,-2352,-116,380,-17
6900,720,-48,-2136,-155,402,-22
6905,856,312,-2272,-170,423,-21
6910,848,248,-2056,-224,420,-27
6915,816,104,-1896,-238,404,-25
6920,856,344,-2032,-223,374,-29
6925,920,360,-1992,-220,347,-40
6930,856,312,-1976,-220,318,-57
6935,744,440,-1960,-212,274,-64
6940,752,552,-1936,-207,226,-59
6945,792,528,-1912,-187,184,-49
6950,816,432,-1976,-165,139,-39
6955,840,456,-1944,-157,100,-34
6960,792,480,-1952,-150,69,-34
6965,784,408,-1976,-139,41,-28
6970,832,352,-2000,-128,23,-21
6975,776,344,-2040,-126,7,-24
6980,744,392,-2072,-120,-6,-26
6985,736,376,-2112,-114,-17,-23
6990,720,400,-2136,-106,-24,-22
6995,744,360,-2160,-105,-23,-19
7000,688,400,-2112,-115,-21,-20
7005,680,392,-2008,-125,-23,-19
7010,736,368,-1984,-130,-36,-17
7015,752,392,-1936,-134,-60,-17
7020,760,424,-1936,-130,-94,-18
7025,776,376,-1944,-122,-134,-19
7030,752,424,-1984,-113,-169,-18
7035,744,424,-2016,-108,-200,-19
7040,704,432,-2016,-101,-222,-23
7045,728,440,-1992,-96,-241,-24
7050,688,432,-2016,-92,-261,-27
7055,680,432,-1968,-87,-282,-31
7060,720,440,-2008,-81,-304,-32
7065,712,424,-2040,-69,-318,-29
7070,680,424,-2112,-57,-329,-30
7075,688,440,-2128,-43,-332,-28
7080,744,408,-2192,-34,-334,-26
7085,704,392,-2208,-27,-332,-26
7090,752,392,-2184,-32,-329,-27
7095,648,424,-2168,-36,-326,-29
7100,656,480,-2152,-44,-331,-35
7105,680,488,-2232,-50,-331,-38
7110,672,416,-2296,-61,-319,-35
7115,688,392,-2296,-73,-294,-37
7120,672,448,-2288,-84,-266,-39
7125,688,448,-2328,-85,-244,-41
7130,592,488,-2336,-91,-225,-41
7135,736,408,-2296,-92,-204,-35
7140,680,464,-2280,-78,-182,-37
7145,648,496,-2320,-71,-165,-38
7150,672,464,-2272,-80,-146,-39
7155,672,400,-2280,-89,-128,-38
7160,672,472,-2264,-83,-105,-36
7165,616,464,-2280,-74,-80,-33
7170,664,456,-2280,-71,-59,-29
7175,600,504,-2296,-74,-39,-27
7180,832,288,-2240,-99,-43,-28
7185,592,528,-2152,-99,-19,-27
7190,640,440,-2216,-82,13,-23
7195,664,432,-2216,-71,32,-19
7200,664,432,-2224,-75,43,-16
7205,600,456,-2288,-85,47,-17
7210,848,352,-2144,-119,34,-17
7215,624,400,-2104,-115,41,-19
7220,640,440,-2144,-104,46,-18
7225,640,456,-2096,-99,43,-18
7230,584,496,-2144,-98,37,-15
7235,784,336,-2136,-106,27,-12
7240,648,488,-2104,-102,41,-12
7245,632,440,-2088,-87,45,-11
7250,672,456,-2096,-74,42,-11
7255,624,456,-2104,-68,34,-7
7260,624,456,-2152,-59,25,-4
7265,648,400,-2144,-50,20,0
7270,640,480,-2136,-44,16,1
7275,648,440,-2112,-39,11,0
7280,640,448,-2152,-36,3,2
7285,632,440,-2112,-33,-3,4
7290,648,440,-2120,-33,-7,4
7295,664,432,-2112,-32,-11,4
7300,640,448,-2096,-33,-9,3
7305,648,424,-2112,-31,-13,3
7310,648,424,-2096,-28,-15,3
7315,640,432,-2112,-27,-17,3
7320,648,432,-2104,-26,-19,2
7325,656,416,-2152,-26,-25,0
7330,664,432,-2136,-24,-31,0
7335,680,432,-2192,-26,-38,0
7340,648,440,-2184,-25,-42,0
7345,672,416,-2184,-23,-39,1
7350,656,424,-2208,-23,-33,1
7355,656,432,-2200,-23,-25,1
7360,664,408,-2160,-24,-16,2
7365,688,416,-2192,-25,-8,1
7370,680,416,-2200,-26,-2,2
7375,680,440,-2176,-27,1,2
7380,696,432,-2200,-22,5,1
7385,672,448,-2192,-21,6,0
7390,688,448,-2184,-24,8,-1
7395,680,432,-2168,-26,5,-3
7400,656,432,-2136,-29,1,-4
7405,672,432,-2144,-36,-5,-4
7410,664,432,-2128,-38,-15,-7
7415,640,432,-2160,-40,-22,-6
7420,688,440,-2184,-40,-29,-6
7425,664,440,-2200,-41,-31,-6
7430,680,424,-2176,-41,-27,-7
7435,656,432,-2184,-42,-23,-8
7440,664,456,-2152,-41,-16,-6
7445,680,448,-2208,-42,-13,-6
7450,672,448,-2176,-41,-12,-6
7455,688,416,-2168,-44,-13,-6
7460,656,456,-2184,-43,-15,-5
7465,656,440,-2168,-43,-16,-5
7470,648,424,-2136,-42,-18,-4
7475,624,432,-2152,-37,-20,-3
7480,656,440,-2152,-36,-18,-4
7485,616,440,-2184,-39,-19,-5
7490,664,448,-2144,-40,-21,-4
7495,648,432,-2120,-43,-25,-4
7500,632,440,-2176,-41,-31,-4
7505,648,408,-2152,-39,-34,-4
7510,664,400,-2152,-43,-35,-4
7515,640,408,-2096,-44,-37,-3
7520,616,440,-2128,-47,-39,-5
7525,632,392,-2200,-53,-41,-5
7530,648,416,-2168,-60,-41,-7
7535,656,416,-2144,-60,-45,-7
7540,656,432,-2160,-63,-49,-8
7545,648,408,-2168,-58,-54,-6
7550,648,424,-2176,-53,-59,-5
7555,616,440,-2168,-46,-64,-3
7560,624,448,-2240,-44,-64,-4
7565,608,448,-2216,-41,-60,-3
7570,640,432,-2200,-42,-52,-6
7575,624,472,-2168,-45,-47,-5
7580,640,440,-2160,-48,-46,-6
7585,624,424,-2168,-46,-46,-4
7590,616,424,-2144,-43,-48,-4
7595,616,448,-2168,-42,-50,-3
7600,640,432,-2192,-42,-54,-3
7605,632,424,-2160,-42,-56,-4
7610,616,408,-2184,-43,-55,-5
7615,632,432,-2184,-45,-52,-6
7620,600,424,-2168,-44,-51,-7
7625,624,432,-2128,-43,-49,-8
7630,632,408,-2160,-43,-50,-8
7635,640,424,-2192,-39,-50,-12
7640,608,472,-2184,-34,-54,-16
7645,592,448,-2192,-31,-60,-15
7650,632,440,-2200,-32,-63,-13
7655,608,440,-2224,-36,-62,-13
7660,616,448,-2176,-42,-60,-12
7665,608,456,-2176,-45,-54,-10
7670,632,424,-2176,-46,-49,-11
7675,536,400,-2152,-42,-38,-9
7680,632,448,-2136,-49,-29,-9
7685,616,440,-2184,-42,-29,-10
7690,616,408,-2264,-30,-23,-8
7695,608,416,-2200,-34,-15,-7
7700,608,448,-2152,-34,-8,-6
7705,608,416,-2184,-33,-6,-6
7710,600,440,-2184,-31,-3,-5
7715,632,456,-2168,-32,-4,-5
7720,608,440,-2192,-34,1,-5
7725,616,440,-2168,-37,1,-6
7730,608,424,-2208,-42,1,-7
7735,616,432,-2160,-45,-1,-7
7740,624,416,-2176,-46,-2,-8
7745,632,440,-2160,-48,-3,-8
7750,632,416,-2184,-49,-3,-10
7755,632,432,-2160,-52,-3,-10
7760,600,440,-2168,-53,-3,-10
7765,616,416,-2160,-51,0,-11
7770,600,440,-2144,-49,1,-7
7775,616,432,-2160,-43,-2,-6
7780,616,424,-2168,-42,-6,-4
7785,608,432,-2144,-41,-8,-5
7790,600,416,-2136,-39,-9,-2
7795,600,432,-2144,-39,-11,-2
7800,600,432,-2160,-40,-13,-3
7805,592,424,-2200,-38,-13,-2
7810,592,432,-2136,-38,-14,-1
7815,616,408,-2168,-37,-15,0
7820,616,408,-2192,-35,-15,-1
7825,584,440,-2184,-33,-15,-1
7830,632,424,-2192,-32,-16,-1
7835,616,432,-2192,-33,-16,-2
7840,608,432,-2168,-36,-15,-2
7845,632,416,-2168,-42,-12,-3
7850,608,440,-2208,-46,-8,-4
7855,624,448,-2168,-47,-4,-3
7860,608,448,-2200,-43,-1,-3
7865,608,416,-2176,-43,2,-2
7870,584,360,-2176,-46,10,0
7875,608,424,-2168,-42,14,-5
7880,600,408,-2176,-43,11,-6
7885,600,424,-2192,-44,9,-6
7890,608,440,-2144,-45,9,-6
7895,616,424,-2192,-47,8,-7
7900,592,440,-2176,-46,6,-8
7905,608,448,-2168,-47,5,-8
7910,600,424,-2160,-47,4,-8
7915,416,352,-2248,-34,4,-8
7920,624,424,-2128,-58,4,-7
7925,608,448,-2184,-51,-5,-8
7930,592,416,-2208,-42,-6,-8
7935,600,424,-2192,-49,4,-8
7940,600,456,-2176,-51,7,-7
7945,576,440,-2160,-49,7,-8
7950,600,408,-2160,-48,5,-6
7955,592,416,-2176,-48,5,-6
7960,616,432,-2176,-51,2,-7
7965,600,440,-2184,-50,1,-7
7970,632,408,-2176,-50,-1,-9
7975,600,432,-2184,-49,-3,-9
7980,568,440,-2192,-50,-3,-8
7985,568,432,-2200,-50,-4,-7
7990,608,440,-2168,-49,-5,-7
7995,584,440,-2200,-49,-5,-6
8000,584,432,-2176,-48,-5,-6
8005,608,424,-2168,-46,-4,-7
8010,616,432,-2184,-44,-2,-5
8015,576,440,-2176,-44,-1,-7
8020,616,416,-2184,-43,1,-6
8025,592,432,-2192,-42,3,-4
8030,608,432,-2200,-43,4,-5
8035,608,440,-2176,-41,5,-6
8040,608,408,-2192,-43,3,-6
8045,616,440,-2168,-43,2,-8
8050,608,392,-2160,-45,3,-7
8055,592,424,-2200,-49,1,-6
8060,624,424,-2176,-49,2,-6
8065,600,424,-2208,-51,1,-7
8070,608,424,-2168,-51,1,-6
8075,616,440,-2168,-52,2,-6
8080,600,464,-2192,-52,3,-7
8085,584,424,-2184,-52,5,-6
8090,600,432,-2192,-52,5,-8
8095,600,440,-2152,-50,6,-7
8100,600,424,-2200,-50,7,-5
8105,616,416,-2192,-50,6,-5
8110,592,448,-2208,-52,4,-4
8115,544,416,-2176,-50,0,-2
8120,216,360,-2120,-35,-21,14
8125,800,528,-2208,-19,-67,30
8130,624,448,-2184,-31,-39,13
8135,624,448,-2184,-48,-16,3
8140,608,424,-2184,-58,1,-1
8145,600,440,-2208,-55,6,-3
8150,600,424,-2160,-54,10,-2
8155,592,448,-2160,-53,9,-3
8160,592,464,-2176,-52,9,-2
8165,600,448,-2176,-53,7,-4
8170,608,400,-2160,-53,6,-4
8175,584,424,-2184,-55,6,-4
8180,592,416,-2120,-57,4,-3
8185,576,424,-2128,-59,3,-5
8190,576,424,-2184,-58,2,-4
8195,608,440,-2184,-55,-1,-3
8200,600,424,-2176,-54,-4,-4
8205,600,432,-2200,-51,-5,-4
8210,592,416,-2200,-47,-7,-3
8215,584,432,-2192,-44,-6,-2
8220,584,440,-2184,-43,-5,-2
8225,584,424,-2176,-42,-6,-3
8230,584,416,-2208,-47,-5,-1
8235,568,432,-2160,-50,-5,-2
8240,584,448,-2208,-51,-5,-2
8245,584,424,-2152,-49,-7,-2
8250,576,424,-2184,-45,-8,-2
8255,592,416,-2160,-46,-9,-1
8260,600,416,-2184,-42,-7,-2
8265,592,432,-2168,-39,-6,-3
8270,600,424,-2216,-41,-4,-3
8275,584,424,-2136,-44,-2,-3
8280,600,432,-2144,-46,1,-3
8285,584,416,-2128,-44,2,-3
8290,616,424,-2184,-38,-1,-2
8295,600,424,-2200,-31,-6,-3
8300,576,424,-2208,-33,-12,-4
8305,592,432,-2200,-37,-12,-4
8310,584,432,-2184,-42,-11,-5
8315,576,440,-2176,-45,-10,-5
8320,576,440,-2168,-48,-10,-6
8325,600,424,-2184,-49,-9,-7
8330,584,408,-2184,-50,-6,-6
8335,576,416,-2208,-52,-2,-6
8340,568,432,-2168,-52,2,-5
8345,576,432,-2240,-52,4,-5
8350,576,448,-2208,-51,7,-4
8355,584,416,-2184,-49,7,-4
8360,584,424,-2176,-48,8,-4
8365,568,440,-2192,-47,7,-3
8370,584,432,-2152,-44,7,-3
8375,576,432,-2200,-45,7,-2
8380,584,424,-2160,-45,5,-2
8385,600,416,-2200,-43,3,-2
8390,600,440,-2168,-43,-1,-2
8395,560,416,-2184,-44,-1,-2
8400,600,432,-2144,-46,-2,-2
8405,576,424,-2168,-47,-2,-2
8410,584,424,-2160,-45,-3,-4
8415,584,416,-2136,-44,-3,-3
8420,568,464,-2200,-41,-2,-3
8425,592,424,-2192,-42,-3,-3
8430,584,424,-2176,-42,-4,-4
8435,576,408,-2200,-42,-4,-5
8440,600,440,-2184,-41,-3,-4
8445,584,416,-2216,-41,-3,-5
8450,568,424,-2160,-41,-2,-4
8455,600,432,-2152,-41,-1,-5
8460,576,440,-2176,-43,1,-4
8465,576,416,-2200,-44,0,-5
8470,584,432,-2184,-44,2,-6
8475,576,432,-2200,-46,3,-5
8480,592,432,-2216,-48,6,-7
8485,576,440,-2192,-46,8,-7
8490,576,432,-2200,-44,9,-7
8495,568,440,-2232,-44,9,-6
8500,576,440,-2168,-45,10,-5
8505,592,432,-2168,-46,12,-4
8510,584,440,-2184,-47,14,-5
8515,584,416,-2184,-45,16,-4
8520,568,424,-2192,-45,17,-6
8525,568,392,-2176,-47,19,-6
8530,576,440,-2160,-48,20,-5
8535,592,432,-2184,-48,20,-3
8540,592,440,-2152,-48,20,-4
8545,600,432,-2168,-47,19,-5
8550,544,424,-2208,-46,18,-4
8555,560,440,-2152,-46,15,-4
8560,584,400,-2144,-48,12,-4
8565,576,416,-2176,-50,11,-3
8570,544,440,-2184,-47,10,-4
8575,568,424,-2176,-47,8,-4
8580,584,416,-2176,-46,6,-4
8585,576,424,-2184,-45,6,-3
8590,520,240,-2056,-44,8,-3
8595,560,360,-2200,-44,8,-3
8600,536,424,-2192,-44,11,-3
8605,560,408,-2184,-45,14,-3
8610,568,424,-2216,-46,14,-2
8615,560,440,-2120,-47,14,-3
8620,568,440,-2176,-46,15,-3
8625,576,432,-2176,-46,16,-4
8630,592,424,-2208,-50,16,-4
8635,584,416,-2184,-49,17,-3
8640,584,440,-2192,-49,16,-4
8645,576,432,-2176,-49,17,-4
8650,584,448,-2144,-50,16,-3
8655,592,424,-2184,-50,17,-4
8660,584,424,-2144,-49,15,-4
8665,592,416,-2208,-50,16,-5
8670,584,432,-2192,-48,15,-3
8675,568,416,-2192,-49,14,-3
8680,576,432,-2176,-49,15,-4
8685,592,432,-2200,-49,14,-5
8690,576,432,-2200,-48,14,-3
8695,576,432,-2160,-49,14,-4
8700,576,424,-2192,-48,14,-4
8705,584,440,-2192,-45,13,-3
8710,584,432,-2184,-45,12,-3
8715,576,424,-2168,-45,11,-3
8720,568,448,-2184,-45,10,-5
8725,568,440,-2184,-46,11,-4
8730,584,432,-2192,-46,9,-4
8735,576,416,-2200,-47,8,-4
8740,584,416,-2208,-49,8,-3
8745,576,448,-2176,-49,6,-4
8750,568,440,-2216,-47,8,-4
8755,576,416,-2176,-48,8,-5
8760,592,416,-2208,-46,7,-4
8765,568,448,-2192,-45,7,-2
8770,576,424,-2176,-42,8,-3
8775,576,448,-2200,-42,8,-5
8780,560,424,-2160,-42,10,-3
8785,568,424,-2176,-42,10,-3
8790,576,432,-2184,-43,10,-3
8795,584,440,-2208,-44,10,-4
8800,576,424,-2184,-46,12,-4
8805,568,440,-2184,-49,10,-5
8810,576,416,-2184,-50,8,-4
8815,568,440,-2216,-48,7,-3
8820,584,432,-2184,-48,7,-5
8825,584,432,-2184,-47,7,-5
8830,600,440,-2184,-47,7,-4
8835,560,424,-2192,-46,6,-4
8840,568,440,-2184,-44,7,-4
8845,576,448,-2184,-42,7,-4
8850,576,416,-2208,-43,6,-4
8855,568,424,-2208,-41,7,-4
8860,560,440,-2184,-41,6,-4
8865,560,424,-2184,-42,7,-3
8870,576,440,-2192,-43,9,-5
8875,576,440,-2184,-44,8,-3
8880,592,424,-2184,-47,6,-4
8885,600,440,-2168,-47,5,-4
8890,568,424,-2192,-46,5,-5
8895,552,424,-2176,-44,4,-4
8900,544,448,-2176,-43,3,-3
8905,536,424,-2184,-40,5,-3
8910,544,432,-2200,-40,8,-4
8915,568,432,-2184,-43,10,-4
8920,568,416,-2144,-44,11,-4
8925,576,440,-2192,-45,9,-4
8930,552,448,-2144,-42,9,-3
8935,576,408,-2176,-40,7,-4
8940,600,432,-2224,-39,9,-2
8945,576,424,-2200,-38,11,-3
8950,560,440,-2168,-37,13,-3
8955,600,424,-2192,-40,14,-4
8960,560,440,-2160,-42,16,-5
8965,576,432,-2192,-47,18,-5
8970,576,384,-2168,-50,18,-5
8975,584,440,-2176,-51,16,-5
8980,584,424,-2200,-44,12,-5
8985,568,432,-2200,-34,7,-5
8990,648,456,-2272,-33,0,-4
8995,584,416,-2232,-35,-1,-4
9000,576,440,-2208,-40,-1,-4
9005,584,440,-2200,-42,1,-6
9010,552,424,-2176,-42,2,-5
9015,576,416,-2208,-43,4,-4
9020,576,424,-2208,-45,5,-4
9025,576,440,-2192,-45,7,-5
9030,592,440,-2216,-46,10,-5
9035,576,416,-2200,-43,10,-5
9040,576,448,-2184,-45,12,-5
9045,560,352,-2176,-43,13,-4
9050,576,440,-2192,-42,12,-3
9055,584,440,-2192,-41,13,-5
9060,576,440,-2176,-41,13,-5
9065,592,448,-2192,-43,13,-4
9070,576,440,-2184,-42,11,-4
9075,568,432,-2184,-44,12,-4
9080,544,408,-2200,-44,13,-5
9085,576,440,-2192,-44,12,-5
9090,576,408,-2192,-44,12,-5
9095,560,448,-2216,-43,13,-5
9100,584,504,-2256,-42,13,-4
9105,568,400,-2168,-43,13,-4
9110,584,416,-2184,-43,12,-4
9115,552,400,-2176,-40,12,-3
9120,600,448,-2144,-41,12,-5
9125,560,448,-2160,-42,11,-5
9130,584,432,-2208,-39,11,-3
9135,576,432,-2208,-40,11,-1
9140,568,456,-2200,-39,11,-4
9145,576,432,-2192,-38,11,-3
9150,664,456,-2144,-38,11,-2
9155,576,432,-2208,-37,11,-2
9160,576,416,-2216,-37,11,-2
9165,576,416,-2176,-39,11,-3
9170,568,432,-2200,-39,11,-4
9175,568,424,-2168,-38,12,-4
9180,568,424,-2216,-38,10,-4
9185,536,440,-2144,-40,10,-4
9190,576,416,-2168,-42,11,-5
9195,584,440,-2160,-42,10,-5
9200,560,448,-2192,-43,9,-4
9205,616,456,-2296,-42,8,-4
9210,552,424,-2184,-40,9,-4
9215,584,400,-2176,-37,9,-4
9220,592,432,-2192,-40,11,-4
9225,568,448,-2176,-43,13,-7
9230,576,440,-2200,-43,11,-5
9235,576,432,-2136,-44,11,-5
9240,584,432,-2200,-44,10,-5
9245,584,424,-2176,-45,9,-5
9250,560,440,-2192,-46,8,-6
9255,560,432,-2168,-45,6,-5
9260,656,384,-2264,-42,5,-4
9265,584,432,-2192,-42,5,-5
9270,568,408,-2192,-43,5,-6
9275,576,408,-2192,-42,7,-5
9280,552,424,-2192,-43,8,-5
9285,568,416,-2216,-44,9,-5
9290,576,424,-2216,-44,11,-3
9295,576,440,-2200,-43,12,-5
9300,584,432,-2192,-43,13,-4
9305,576,408,-2176,-43,14,-5
9310,560,416,-2168,-43,14,-5
9315,544,488,-2176,-44,16,-5
9320,592,416,-2168,-46,15,-5
9325,576,424,-2176,-46,14,-5
9330,568,440,-2176,-47,15,-5
9335,568,424,-2144,-46,14,-5
9340,560,440,-2200,-46,13,-5
9345,592,424,-2184,-42,14,-5
9350,568,440,-2192,-41,14,-4
9355,568,448,-2176,-40,15,-4
9360,568,424,-2192,-39,18,-4
9365,584,416,-2208,-39,17,-4
9370,616,432,-2184,-39,20,-5
9375,576,416,-2200,-39,20,-4
9380,560,424,-2184,-40,20,-4
9385,568,424,-2160,-42,20,-4
9390,552,424,-2176,-42,18,-3
9395,552,424,-2176,-43,19,-3
9400,576,416,-2192,-42,18,-4
9405,552,424,-2200,-41,17,-4
9410,592,424,-2200,-41,17,-2
9415,568,424,-2184,-41,18,-3
9420,576,416,-2208,-41,19,-4
9425,656,480,-2160,-41,19,-3
9430,560,432,-2184,-41,19,-3
9435,560,408,-2184,-39,20,-3
9440,560,416,-2192,-41,22,-4
9445,568,448,-2200,-40,22,-4
9450,560,416,-2160,-38,22,-2
9455,560,424,-2176,-37,23,-2
9460,536,440,-2200,-37,23,-3
9465,568,432,-2176,-39,24,-2
9470,552,432,-2200,-39,24,-2
9475,568,448,-2152,-41,23,-3
9480,512,360,-2144,-41,22,-4
9485,592,416,-2152,-41,22,-3
9490,576,408,-2176,-42,21,-2
9495,560,440,-2208,-41,20,-3
9500,568,432,-2216,-42,20,-2
9505,544,424,-2176,-41,20,-3
9510,568,448,-2200,-41,21,-3
9515,560,432,-2184,-43,19,-2
9520,568,416,-2216,-43,19,-4
9525,584,408,-2192,-44,17,-3
9530,560,384,-2192,-41,17,-3
9535,648,448,-2224,-41,18,-3
9540,560,424,-2176,-45,19,-2
9545,576,432,-2176,-46,17,-5
9550,560,448,-2200,-50,16,-5
9555,584,424,-2184,-49,16,-3
9560,552,440,-2168,-49,13,-3
9565,568,400,-2176,-48,12,-2
9570,568,456,-2208,-47,11,-4
9575,568,424,-2200,-45,12,-3
9580,592,424,-2216,-43,13,-3
9585,560,440,-2200,-44,16,-3
9590,576,344,-2128,-47,19,-5
9595,568,424,-2168,-50,18,-4
9600,568,440,-2176,-49,18,-4
9605,560,424,-2208,-46,14,-5
9610,560,448,-2192,-43,14,-4
9615,560,424,-2176,-40,14,-3
9620,584,408,-2224,-39,16,-3
9625,568,416,-2192,-39,17,-2
9630,568,432,-2208,-40,18,-3
9635,576,416,-2160,-41,20,-3
9640,584,416,-2192,-45,22,-4
9645,576,416,-2184,-48,25,-5
9650,568,432,-2144,-47,24,-5
9655,576,416,-2200,-42,21,-4
9660,592,408,-2200,-34,15,-3
9665,568,392,-2216,-32,10,-4
9670,584,400,-2216,-34,8,-4
9675,552,416,-2192,-39,9,-5
9680,568,432,-2176,-44,9,-4
9685,552,416,-2216,-46,10,-5
9690,552,424,-2200,-48,9,-5
9695,576,528,-2224,-47,11,-4
9700,592,416,-2200,-50,11,-5
9705,576,440,-2160,-49,14,-5
9710,568,400,-2200,-46,15,-4
9715,552,448,-2168,-45,15,-3
9720,608,440,-2192,-44,17,-4
9725,560,448,-2232,-43,16,-4
9730,568,424,-2168,-42,15,-4
9735,552,424,-2208,-42,15,-4
9740,576,416,-2176,-42,14,-4
9745,576,432,-2160,-43,13,-5
9750,576,400,-2184,-44,13,-6
9755,560,440,-2176,-46,12,-4
9760,568,424,-2192,-46,12,-3
9765,584,408,-2176,-46,13,-4
9770,576,416,-2192,-48,12,-4
9775,568,432,-2176,-46,13,-3
9780,592,424,-2184,-46,12,-5
9785,560,440,-2152,-45,10,-4
9790,576,424,-2176,-45,11,-4
9795,560,424,-2160,-46,10,-5
9800,568,416,-2200,-45,9,-6
9805,656,504,-2288,-44,9,-4
9810,568,432,-2200,-45,10,-3
9815,560,432,-2184,-43,11,-4
9820,584,408,-2200,-43,13,-5
9825,584,416,-2200,-42,14,-5
9830,568,408,-2200,-41,14,-3
9835,584,416,-2192,-42,15,-3
9840,584,424,-2200,-41,16,-4
9845,568,416,-2184,-42,16,-5
9850,576,424,-2200,-42,17,-5
9855,584,424,-2176,-44,18,-4
9860,568,432,-2256,-44,16,-4
9865,568,416,-2200,-47,18,-4
9870,552,416,-2184,-50,17,-5
9875,552,448,-2208,-50,16,-6
9880,576,424,-2184,-47,15,-5
9885,592,392,-2168,-45,17,-4
9890,592,376,-2112,-34,25,-6
9895,560,448,-2208,-52,20,-5
9900,560,424,-2216,-36,13,-5
9905,576,416,-2208,-36,13,-4
9910,584,416,-2184,-45,19,-4
9915,544,544,-2104,-44,19,-5
9920,560,408,-2192,-42,17,-4
9925,560,416,-2176,-40,13,-5
9930,560,432,-2192,-42,13,-5
9935,584,432,-2168,-41,12,-4
9940,568,416,-2184,-44,12,-4
9945,560,424,-2200,-43,15,-4
9950,584,432,-2200,-43,17,-5
9955,576,432,-2192,-43,18,-5
9960,584,432,-2200,-42,19,-4
9965,568,408,-2192,-44,19,-3
9970,576,344,-2136,-45,20,-3
9975,568,432,-2192,-48,19,-5
9980,560,424,-2216,-48,21,-5
9985,576,392,-2192,-47,20,-6
9990,600,400,-2184,-45,21,-4
9995,552,416,-2176,-46,23,-5
10000,576,416,-2184,-46,23,-5
10005,584,400,-2216,-48,24,-5
10010,576,416,-2192,-49,24,-5
10015,552,416,-2184,-49,22,-5
10020,560,408,-2168,-49,23,-4
10025,512,424,-2184,-50,23,-6
10030,552,456,-2232,-49,22,-5
10035,568,424,-2176,-49,22,-4
10040,560,424,-2192,-48,20,-5
10045,544,416,-2216,-50,21,-5
10050,568,448,-2168,-50,22,-5
10055,584,408,-2200,-51,24,-5
10060,592,432,-2168,-54,24,-5
10065,584,416,-2192,-53,24,-6
10070,576,440,-2136,-53,21,-5
10075,584,432,-2176,-52,20,-5
10080,568,424,-2168,-52,20,-6
10085,560,456,-2184,-50,22,-4
10090,560,416,-2200,-50,24,-6
10095,584,424,-2176,-49,26,-5
10100,584,416,-2184,-48,26,-5
10105,576,440,-2208,-48,27,-5
10110,576,408,-2224,-51,27,-5
10115,584,424,-2168,-51,26,-4
10120,576,408,-2192,-52,26,-6
10125,552,408,-2176,-53,24,-6
10130,560,432,-2200,-54,24,-7
10135,576,432,-2192,-54,22,-6
10140,568,416,-2200,-56,21,-7
10145,576,408,-2216,-57,19,-7
10150,568,424,-2200,-56,18,-5
10155,576,432,-2216,-55,16,-6
10160,584,440,-2184,-54,16,-5
10165,560,440,-2184,-54,18,-5
10170,584,408,-2192,-55,15,-6
10175,552,432,-2176,-54,14,-7
10180,568,424,-2168,-52,13,-7
10185,576,424,-2208,-53,13,-6
10190,576,416,-2192,-52,13,-6
10195,576,416,-2224,-55,12,-6
10200,600,416,-2184,-55,13,-5
10205,560,424,-2168,-54,11,-5
10210,552,424,-2216,-53,11,-6
10215,584,432,-2200,-53,10,-5
10220,584,424,-2200,-53,8,-4
10225,568,432,-2184,-52,10,-4
10230,560,424,-2160,-51,10,-4
10235,568,408,-2184,-49,11,-5
10240,560,416,-2200,-48,10,-5
10245,560,432,-2208,-48,11,-4
10250,560,432,-2184,-50,11,-5
10255,576,440,-2192,-51,10,-4
10260,576,392,-2192,-52,10,-5
10265,568,440,-2184,-53,10,-6
10270,584,408,-2184,-49,9,-4
10275,576,416,-2184,-47,8,-3
10280,576,392,-2216,-46,10,-3
10285,560,408,-2200,-46,10,-3
10290,600,424,-2216,-48,12,-4
10295,568,416,-2152,-48,13,-4
10300,576,424,-2176,-49,15,-5
10305,560,440,-2192,-49,15,-5
10310,568,432,-2176,-48,14,-3
10315,576,440,-2176,-43,14,-3
10320,560,424,-2208,-42,14,-3
10325,560,432,-2152,-43,16,-3
10330,544,416,-2176,-43,19,-4
10335,592,424,-2192,-47,21,-3
10340,568,424,-2152,-50,21,-4
10345,584,448,-2176,-51,23,-4
10350,560,416,-2160,-51,24,-2
10355,584,432,-2176,-47,22,-4
10360,568,416,-2208,-38,15,-3
10365,592,424,-2192,-34,8,-4
10370,568,424,-2232,-38,4,-4
10375,584,400,-2176,-41,2,-5
10380,528,408,-2168,-45,5,-5
10385,560,424,-2176,-48,4,-5
10390,568,424,-2200,-47,3,-3
10395,568,440,-2192,-46,4,-3
10400,584,432,-2168,-47,6,-3
10405,560,416,-2168,-47,8,-4
10410,552,408,-2176,-46,10,-5
10415,568,448,-2184,-45,12,-3
10420,592,432,-2200,-42,13,-3
10425,552,432,-2168,-43,13,-3
10430,576,416,-2192,-43,12,-4
10435,552,432,-2184,-42,11,-4
10440,576,440,-2144,-41,11,-4
10445,576,408,-2192,-44,9,-3
10450,576,416,-2184,-45,10,-4
10455,576,416,-2144,-44,10,-4
10460,552,440,-2208,-44,9,-4
10465,576,432,-2184,-46,10,-3
10470,560,416,-2192,-48,12,-4
10475,576,424,-2200,-47,10,-4
10480,584,440,-2176,-47,10,-4
10485,576,400,-2160,-47,10,-4
10490,560,440,-2184,-46,9,-3
10495,568,432,-2176,-46,8,-5
10500,568,408,-2192,-46,7,-4
10505,560,440,-2184,-46,8,-4
10510,552,424,-2224,-44,9,-4
10515,568,416,-2208,-45,8,-3
10520,552,424,-2184,-45,9,-4
10525,552,424,-2176,-45,9,-4
10530,552,416,-2208,-45,10,-3
10535,592,424,-2184,-46,9,-4
10540,568,416,-2208,-47,12,-4
10545,592,432,-2184,-48,12,-5
10550,568,416,-2176,-49,11,-5
10555,560,448,-2168,-47,11,-5
10560,576,416,-2144,-47,10,-4
10565,568,432,-2192,-48,9,-4
10570,552,432,-2168,-50,10,-6
10575,560,432,-2176,-49,11,-4
10580,544,432,-2200,-47,8,-4
10585,568,400,-2232,-43,10,-4
10590,568,416,-2200,-44,13,-4
10595,584,400,-2168,-45,13,-4
10600,568,432,-2192,-47,14,-3
10605,568,416,-2200,-49,13,-3
10610,568,440,-2200,-47,14,-4
10615,576,416,-2192,-46,13,-3
10620,568,400,-2184,-46,11,-2
10625,544,416,-2200,-49,10,-4
10630,568,424,-2192,-47,9,-4
10635,576,424,-2192,-47,8,-5
10640,560,424,-2192,-47,8,-4
10645,560,424,-2216,-46,9,-5
10650,568,448,-2224,-47,8,-5
10655,560,416,-2192,-43,8,-4
10660,544,440,-2224,-44,11,-3
10665,576,432,-2176,-45,12,-3
10670,576,416,-2200,-45,12,-4
10675,552,424,-2216,-45,14,-4
10680,568,424,-2192,-45,15,-4
10685,576,392,-2176,-45,16,-4
10690,592,416,-2200,-46,16,-5
10695,576,416,-2184,-48,16,-5
10700,568,432,-2208,-50,16,-4
10705,560,456,-2184,-50,15,-4
10710,568,432,-2168,-47,16,-5
10715,552,424,-2184,-47,15,-4
10720,560,440,-2184,-46,15,-4
10725,560,448,-2192,-46,15,-4
10730,584,432,-2208,-47,15,-5
10735,568,424,-2208,-47,16,-3
10740,568,432,-2184,-47,15,-3
10745,560,432,-2176,-46,15,-4
10750,552,416,-2200,-46,15,-3
10755,552,440,-2176,-45,15,-3
10760,592,408,-2176,-46,15,-4
10765,584,400,-2176,-47,14,-3
10770,568,424,-2208,-46,14,-5
10775,568,424,-2192,-45,12,-4
10780,560,424,-2176,-44,11,-4
10785,560,432,-2176,-43,12,-3
10790,568,432,-2168,-43,13,-3
10795,576,424,-2200,-44,12,-3
10800,544,424,-2216,-44,14,-3
10805,560,440,-2184,-44,15,-3
10810,584,424,-2200,-43,14,-3
10815,544,440,-2208,-44,15,-4
10820,560,416,-2184,-44,15,-3
10825,568,424,-2184,-45,14,-3
10830,576,440,-2184,-46,15,-3
10835,576,416,-2208,-48,14,-4
10840,552,416,-2176,-47,14,-4
10845,560,424,-2168,-45,14,-2
10850,568,424,-2160,-47,14,-5
10855,544,416,-2200,-47,13,-4
10860,568,416,-2200,-45,13,-4
10865,576,416,-2224,-46,13,-2
10870,560,400,-2224,-46,13,-3
10875,568,440,-2168,-45,13,-3
10880,568,424,-2208,-45,15,-2
10885,560,416,-2168,-46,15,-4
10890,592,424,-2152,-46,14,-5
10895,576,408,-2192,-48,14,-5
10900,568,432,-2184,-49,13,-4
10905,576,392,-2184,-48,13,-4
10910,568,432,-2200,-48,12,-4
10915,576,416,-2192,-49,14,-4
10920,568,432,-2192,-47,13,-3
10925,568,440,-2168,-48,13,-3
10930,560,432,-2200,-46,13,-4
10935,560,416,-2176,-44,11,-5
10940,584,400,-2200,-45,10,-4
10945,568,448,-2184,-44,10,-4
10950,552,448,-2176,-43,11,-3
10955,592,416,-2168,-43,11,-3
10960,568,416,-2200,-45,12,-3
10965,544,440,-2176,-46,12,-5
10970,552,432,-2184,-48,11,-3
10975,544,416,-2184,-47,12,-3
10980,584,432,-2208,-46,11,-4
10985,552,448,-2184,-45,10,-3
10990,568,408,-2192,-41,8,-4
10995,544,408,-2208,-39,9,-3
11000,584,392,-2216,-39,13,-4
11005,544,440,-2200,-43,15,-3
11010,560,440,-2168,-44,17,-4
11015,568,424,-2176,-44,17,-4
11020,576,424,-2200,-46,17,-4
11025,536,424,-2192,-44,15,-3
11030,584,424,-2208,-41,15,-3
11035,576,416,-2200,-42,16,-4
11040,544,424,-2184,-41,19,-4
11045,552,424,-2200,-41,19,-3
11050,568,440,-2144,-43,19,-4
11055,560,424,-2192,-44,20,-5
11060,536,432,-2184,-48,20,-4
11065,568,424,-2160,-51,19,-7
11070,568,424,-2168,-53,16,-6
11075,560,424,-2184,-48,13,-5
11080,584,432,-2208,-39,9,-4
11085,576,400,-2192,-37,5,-5
11090,576,424,-2240,-40,2,-4
11095,544,448,-2200,-43,2,-5
11100,552,440,-2160,-47,2,-5
11105,560,400,-2168,-48,2,-6
11110,560,424,-2176,-50,3,-5
11115,568,440,-2216,-48,4,-5
11120,568,424,-2208,-48,7,-5
11125,552,424,-2184,-47,10,-4
11130,544,416,-2200,-45,11,-4
11135,568,432,-2200,-44,13,-4
11140,576,424,-2208,-43,13,-4
11145,568,408,-2200,-42,14,-4
11150,552,440,-2216,-44,14,-4
11155,568,408,-2160,-43,15,-5
11160,552,424,-2184,-45,15,-5
11165,600,416,-2208,-45,14,-5
11170,568,432,-2184,-47,14,-5
11175,568,392,-2184,-47,13,-4
11180,552,416,-2232,-47,14,-4
11185,560,432,-2184,-47,15,-4
11190,544,448,-2184,-45,17,-4
11195,592,432,-2184,-45,16,-3
11200,560,448,-2224,-44,15,-4
11205,576,432,-2192,-46,15,-3
11210,584,432,-2200,-45,17,-5
11215,552,424,-2160,-43,17,-4
11220,560,424,-2200,-44,16,-3
11225,552,440,-2192,-41,14,-2
11230,568,432,-2176,-41,14,-2
11235,560,424,-2208,-42,15,-2
11240,552,408,-2216,-41,17,-3
11245,560,424,-2208,-42,17,-2
11250,552,416,-2192,-40,19,-2
11255,544,448,-2192,-40,19,-3
11260,552,440,-2184,-41,18,-2
11265,560,456,-2224,-39,20,-3
11270,568,432,-2144,-38,18,-2
11275,568,424,-2192,-38,15,-2
11280,544,416,-2208,-41,15,-3
11285,560,424,-2192,-43,15,-3
11290,552,424,-2184,-42,15,-2
11295,568,408,-2208,-44,15,-2
11300,568,408,-2192,-40,15,-3
11305,560,448,-2224,-38,15,-2
11310,560,416,-2216,-40,15,-3
11315,568,424,-2152,-41,17,-3
11320,576,400,-2208,-44,17,-3
11325,560,400,-2160,-45,17,-3
11330,568,440,-2200,-43,16,-4
11335,560,424,-2168,-45,14,-4
11340,584,392,-2144,-46,12,-4
11345,560,408,-2168,-47,9,-5
11350,568,416,-2192,-46,8,-5
11355,560,432,-2200,-45,7,-5
11360,576,424,-2200,-45,9,-5
11365,576,408,-2208,-46,10,-5
11370,576,432,-2200,-45,11,-5
11375,560,432,-2184,-46,14,-6
11380,560,424,-2192,-46,15,-6
11385,560,440,-2160,-47,16,-6
11390,552,440,-2216,-47,17,-5
11395,576,400,-2192,-47,18,-6
11400,560,416,-2200,-46,18,-5
11405,552,424,-2224,-46,20,-4
11410,552,424,-2200,-47,19,-5
11415,536,440,-2184,-46,19,-4
11420,576,416,-2208,-47,19,-5
11425,560,416,-2208,-48,17,-5
11430,576,432,-2176,-47,16,-4
11435,552,448,-2208,-46,15,-5
11440,576,416,-2192,-45,14,-6
11445,544,432,-2168,-46,12,-6
11450,560,432,-2184,-46,12,-6
11455,552,424,-2176,-48,13,-6
11460,544,416,-2184,-47,13,-5
11465,568,448,-2160,-46,11,-5
11470,576,448,-2192,-45,10,-5
11475,576,408,-2168,-45,11,-5
11480,576,440,-2184,-44,10,-5
11485,552,432,-2176,-44,11,-6
11490,560,408,-2184,-43,9,-4
11495,584,424,-2176,-43,9,-5
11500,600,432,-2208,-43,8,-4
11505,576,424,-2184,-43,9,-5
11510,568,400,-2192,-43,9,-6
11515,536,416,-2184,-44,11,-4
11520,560,416,-2192,-43,12,-4
11525,552,424,-2168,-42,14,-4
11530,560,424,-2200,-43,13,-5
11535,568,416,-2208,-43,14,-3
11540,568,424,-2192,-42,13,-5
11545,568,424,-2208,-44,14,-5
11550,552,440,-2192,-42,15,-4
11555,568,400,-2176,-43,16,-6
11560,568,408,-2168,-44,17,-5
11565,584,432,-2200,-44,15,-5
11570,552,440,-2152,-46,15,-4
11575,544,440,-2208,-49,16,-4
11580,584,424,-2192,-49,15,-4
11585,560,416,-2184,-45,14,-3
11590,568,400,-2208,-44,14,-4
11595,584,424,-2200,-44,13,-5
11600,568,408,-2192,-43,16,-5
11605,552,416,-2176,-43,16,-6
11610,592,416,-2184,-43,16,-4
11615,560,424,-2168,-44,16,-4
11620,560,408,-2184,-46,16,-5
11625,544,408,-2176,-47,17,-5
11630,568,424,-2168,-46,18,-4
11635,568,456,-2152,-47,19,-5
11640,576,424,-2208,-48,20,-4
11645,568,440,-2200,-48,19,-4
11650,576,408,-2208,-47,18,-6
11655,544,440,-2192,-48,18,-5
11660,568,416,-2192,-44,18,-5
11665,552,416,-2208,-43,17,-4
11670,560,440,-2168,-43,17,-3
11675,560,424,-2200,-44,18,-4
11680,552,392,-2200,-46,18,-5
11685,584,432,-2160,-46,19,-3
11690,584,424,-2184,-45,16,-4
11695,560,440,-2192,-47,16,-3
11700,560,408,-2208,-44,15,-3
11705,568,416,-2200,-40,14,-5
11710,560,424,-2208,-37,14,-3
11715,544,448,-2192,-37,16,-5
11720,560,440,-2200,-38,18,-4
11725,560,432,-2192,-38,20,-3
11730,576,408,-2184,-37,23,-3
11735,592,424,-2200,-36,21,-3
11740,552,448,-2152,-35,21,-3
11745,576,408,-2224,-30,21,-2
11750,552,408,-2216,-30,22,-2
11755,568,416,-2200,-31,22,-2
11760,568,408,-2184,-31,24,-2
11765,552,432,-2192,-33,23,-4
11770,576,416,-2192,-36,24,-2
11775,584,400,-2152,-42,24,-4
11780,536,416,-2160,-43,23,-4
11785,568,408,-2168,-45,20,-3
11790,544,440,-2168,-40,16,-3
11795,560,424,-2200,-34,10,-4
11800,560,408,-2168,-30,6,-3
11805,568,416,-2216,-31,2,-5
11810,560,424,-2208,-36,4,-4
11815,568,400,-2152,-41,6,-5
11820,568,416,-2176,-44,7,-4
11825,560,424,-2192,-43,6,-4
11830,576,432,-2200,-42,7,-5
11835,584,424,-2192,-43,10,-5
11840,576,416,-2192,-43,12,-4
11845,576,408,-2208,-42,13,-3
11850,560,424,-2200,-41,15,-4
11855,576,408,-2192,-41,15,-5
11860,576,424,-2200,-40,16,-5
11865,552,440,-2168,-43,16,-5
11870,576,440,-2208,-43,16,-4
11875,560,440,-2208,-44,15,-4
11880,560,424,-2208,-43,17,-5
11885,568,400,-2192,-46,17,-4
11890,568,416,-2232,-45,17,-4
11895,560,424,-2176,-46,16,-4
11900,568,432,-2200,-45,15,-6
11905,600,424,-2184,-44,15,-6
11910,536,432,-2168,-45,14,-5
11915,568,432,-2176,-45,14,-4
11920,568,424,-2216,-44,15,-5
11925,544,456,-2184,-44,15,-4
11930,544,432,-2208,-42,15,-3
11935,560,432,-2176,-41,16,-4
11940,528,440,-2160,-41,16,-4
11945,568,432,-2176,-43,17,-4
11950,560,424,-2208,-42,17,-4
11955,560,400,-2216,-43,19,-4
11960,552,432,-2184,-44,19,-4
11965,560,416,-2184,-44,20,-5
11970,544,416,-2192,-44,18,-4
11975,568,416,-2176,-47,19,-4
11980,536,416,-2216,-45,18,-4
11985,584,416,-2176,-44,17,-4
11990,544,392,-2192,-43,17,-5
11995,544,408,-2200,-43,15,-4
12000,552,408,-2176,-44,14,-5
12005,560,440,-2200,-43,15,-5
12010,568,408,-2168,-41,16,-4
12015,544,432,-2192,-40,18,-4
12020,560,432,-2192,-36,20,-4
12025,544,408,-2200,-35,23,-2
12030,568,440,-2184,-36,25,-3
12035,552,424,-2184,-40,26,-2
12040,576,408,-2200,-42,28,-5
12045,568,424,-2208,-44,28,-5
12050,560,424,-2192,-43,27,-3
12055,552,416,-2184,-43,25,-5
12060,560,424,-2200,-43,24,-3
12065,552,416,-2184,-45,22,-4
12070,576,400,-2216,-45,22,-4
12075,552,384,-2176,-46,21,-5
12080,536,408,-2184,-48,20,-5
12085,552,432,-2168,-49,19,-4
12090,592,384,-2200,-49,21,-5
12095,576,416,-2208,-49,22,-4
12100,576,424,-2200,-49,24,-4
12105,584,416,-2192,-48,27,-4
12110,544,440,-2192,-47,28,-4
12115,576,424,-2208,-46,28,-4
12120,552,400,-2176,-46,29,-4
12125,568,424,-2200,-44,30,-5
12130,560,432,-2168,-44,31,-4
12135,544,432,-2200,-47,31,-4
12140,568,392,-2192,-46,32,-4
12145,584,432,-2200,-48,33,-6
12150,568,416,-2168,-50,34,-5
12155,536,432,-2160,-53,35,-5
12160,568,408,-2144,-51,33,-5
12165,568,416,-2168,-50,31,-5
12170,568,424,-2208,-50,30,-5
12175,560,432,-2192,-48,30,-5
12180,568,424,-2176,-49,29,-5
12185,552,432,-2176,-47,28,-5
12190,568,424,-2216,-46,26,-6
12195,568,440,-2184,-46,26,-5
12200,568,432,-2184,-46,28,-5
12205,584,416,-2192,-45,27,-5
12210,568,424,-2176,-44,25,-4
12215,576,424,-2192,-43,23,-4
12220,576,432,-2200,-42,21,-4
12225,568,408,-2192,-43,21,-5
12230,568,408,-2192,-43,21,-4
12235,568,440,-2200,-44,23,-3
12240,552,424,-2208,-44,23,-4
12245,568,424,-2176,-45,23,-4
12250,560,424,-2184,-46,22,-5
12255,592,432,-2168,-46,23,-5
12260,576,392,-2168,-47,23,-5
12265,584,432,-2192,-47,21,-4
12270,568,416,-2200,-47,20,-5
12275,576,432,-2168,-46,21,-5
12280,592,408,-2200,-47,21,-4
12285,552,432,-2200,-49,23,-5
12290,560,424,-2208,-47,28,-4
12295,584,440,-2184,-46,27,-4
12300,600,440,-2184,-46,28,-3
12305,528,368,-2192,-33,39,-4
12310,608,424,-2184,-53,31,-5
12315,584,392,-2216,-37,15,-4
12320,576,408,-2208,-35,16,-5
12325,560,440,-2176,-47,20,-5
12330,552,440,-2176,-46,21,-5
12335,584,408,-2200,-45,21,-5
12340,568,424,-2160,-44,21,-4
12345,592,392,-2200,-46,19,-4
12350,568,408,-2208,-44,18,-4
12355,552,424,-2192,-45,21,-4
12360,568,440,-2192,-46,23,-5
12365,560,424,-2192,-46,22,-5
12370,584,424,-2192,-48,22,-5
12375,560,424,-2184,-48,21,-5
12380,560,432,-2192,-46,20,-5
12385,584,432,-2160,-46,20,-3
12390,568,448,-2152,-47,19,-3
12395,568,416,-2192,-47,20,-5
12400,576,440,-2192,-47,18,-5
12405,576,400,-2192,-48,20,-5
12410,568,416,-2152,-49,18,-5
12415,568,432,-2192,-48,18,-5
12420,576,416,-2168,-49,18,-4
12425,600,368,-2184,-48,15,-4
12430,560,408,-2208,-47,14,-4
12435,576,424,-2192,-46,13,-3
12440,560,424,-2224,-43,12,-4
12445,576,424,-2232,-41,14,-3
12450,552,424,-2192,-41,16,-4
12455,568,424,-2208,-43,17,-2
12460,576,400,-2184,-44,18,-4
12465,584,448,-2160,-46,18,-4
12470,568,440,-2184,-50,17,-5
12475,592,424,-2208,-49,15,-5
12480,568,416,-2200,-47,15,-4
12485,560,424,-2192,-45,14,-4
12490,560,424,-2192,-43,14,-5
12495,576,416,-2176,-44,13,-4
12500,584,432,-2168,-45,15,-3
12505,568,416,-2200,-47,15,-5
12510,592,408,-2160,-52,17,-5
12515,576,416,-2144,-54,17,-5
12520,560,432,-2176,-56,18,-5
12525,576,432,-2136,-51,16,-3
12530,560,424,-2152,-42,8,-4
12535,568,424,-2216,-39,1,-4
12540,568,392,-2184,-41,0,-5
12545,560,424,-2168,-45,2,-5
12550,576,408,-2200,-49,3,-6
12555,592,424,-2184,-51,4,-6
12560,560,416,-2176,-51,5,-5
12565,560,432,-2192,-49,8,-4
12570,576,416,-2192,-50,11,-2
12575,584,432,-2240,-48,14,-4
12580,592,424,-2200,-49,16,-5
12585,600,440,-2168,-48,17,-5
12590,576,424,-2192,-46,16,-4
12595,584,440,-2200,-46,16,-3
12600,560,416,-2200,-47,16,-3
12605,560,384,-2200,-47,14,-2
12610,576,416,-2184,-49,13,-3
12615,584,432,-2192,-49,14,-4
12620,568,448,-2200,-51,15,-4
12625,552,416,-2184,-52,13,-4
12630,560,408,-2184,-51,13,-5
12635,576,408,-2176,-50,14,-4
12640,576,408,-2184,-50,13,-4
12645,568,424,-2168,-50,12,-4
12650,568,416,-2184,-48,12,-4
12655,544,432,-2168,-49,11,-4
12660,568,416,-2200,-47,10,-3
12665,568,456,-2184,-46,9,-4
12670,576,424,-2184,-44,9,-3
12675,568,440,-2184,-44,8,-4
12680,600,408,-2184,-44,9,-4
12685,600,392,-2192,-44,9,-4
12690,568,440,-2184,-44,10,-4
12695,552,408,-2200,-44,12,-4
12700,560,432,-2192,-44,11,-4
12705,568,432,-2176,-43,13,-4
12710,584,432,-2200,-44,14,-4
12715,568,400,-2176,-45,14,-4
12720,576,400,-2176,-44,14,-4
12725,568,408,-2192,-44,12,-4
12730,544,424,-2224,-45,12,-3
12735,576,416,-2192,-50,14,-2
12740,576,432,-2176,-49,15,-4
12745,544,432,-2200,-46,13,-4
12750,576,432,-2200,-43,13,-3
12755,576,416,-2200,-43,14,-2
12760,560,408,-2176,-43,15,-3
12765,552,448,-2208,-43,17,-3
12770,560,424,-2208,-46,18,-4
12775,568,416,-2192,-48,18,-2
12780,592,384,-2184,-49,16,-4
12785,584,416,-2192,-49,14,-3
12790,584,424,-2208,-48,12,-4
12795,560,424,-2192,-48,11,-4
12800,584,416,-2192,-47,9,-4
12805,560,424,-2184,-47,9,-4
12810,568,408,-2184,-48,7,-4
12815,576,424,-2152,-50,7,-5
12820,576,408,-2200,-49,7,-4
12825,568,408,-2208,-50,5,-4
12830,600,424,-2200,-51,7,-5
12835,568,416,-2192,-52,6,-4
12840,560,416,-2208,-52,6,-5
12845,576,424,-2184,-53,7,-4
12850,576,440,-2216,-51,6,-5
12855,560,424,-2160,-52,6,-4
12860,584,416,-2176,-52,5,-6
12865,552,416,-2200,-52,5,-6
12870,552,440,-2192,-52,3,-5
12875,568,400,-2176,-53,3,-4
12880,576,424,-2200,-52,4,-5
12885,552,432,-2200,-50,5,-5
12890,536,448,-2184,-51,4,-4
12895,552,440,-2216,-50,5,-4
12900,560,408,-2192,-51,5,-4
12905,568,416,-2184,-49,6,-4
12910,576,408,-2160,-49,7,-5
12915,584,416,-2192,-49,8,-5
12920,568,424,-2216,-50,8,-5
12925,560,432,-2224,-51,8,-3
12930,560,432,-2192,-50,8,-4
12935,584,400,-2168,-49,7,-4
12940,568,424,-2192,-49,7,-5
12945,552,424,-2200,-50,8,-5
12950,552,432,-2168,-50,5,-3
12955,560,424,-2200,-51,5,-4
12960,552,440,-2184,-51,6,-4
12965,560,416,-2208,-49,7,-4
12970,584,408,-2208,-49,7,-4
12975,552,432,-2216,-47,7,-4
12980,592,392,-2200,-46,8,-5
12985,568,416,-2144,-47,10,-4
12990,560,432,-2184,-47,10,-4
12995,560,440,-2168,-48,11,-4
13000,536,424,-2208,-49,11,-4
13005,552,432,-2184,-49,11,-3
13010,528,416,-2192,-48,11,-3
13015,552,416,-2192,-48,12,-3
13020,552,448,-2184,-50,11,-4
13025,536,440,-2184,-51,11,-4
13030,552,448,-2184,-50,11,-5
13035,576,408,-2176,-50,11,-4
13040,544,424,-2240,-50,10,-4
13045,560,432,-2208,-48,12,-5
13050,568,416,-2200,-46,11,-4
13055,568,424,-2168,-46,11,-3
13060,568,448,-2216,-47,11,-4
13065,552,440,-2176,-46,13,-4
13070,568,416,-2200,-46,12,-4
13075,536,432,-2208,-48,13,-4
13080,552,432,-2192,-48,13,-4
13085,576,416,-2192,-48,12,-4
13090,552,416,-2216,-50,12,-5
13095,584,432,-2192,-51,11,-4
13100,576,432,-2208,-52,11,-3
13105,552,408,-2200,-49,10,-5
13110,568,432,-2184,-49,8,-4
13115,552,416,-2192,-49,9,-3
13120,560,416,-2200,-48,9,-4
13125,576,416,-2168,-46,9,-4
13130,560,416,-2224,-45,9,-3
13135,552,440,-2216,-47,9,-4
13140,568,432,-2232,-47,9,-3
13145,560,408,-2200,-48,8,-4
13150,576,424,-2216,-47,7,-4
13155,536,432,-2224,-43,6,-3
13160,536,440,-2184,-41,6,-3
13165,528,408,-2216,-38,7,-4
13170,544,424,-2224,-35,9,-2
13175,568,408,-2232,-38,13,-3
13180,552,432,-2168,-40,16,-3
13185,568,424,-2192,-44,18,-3
13190,576,448,-2176,-46,18,-2
13195,568,464,-2200,-44,18,-3
13200,552,416,-2192,-41,17,-3
13205,560,424,-2200,-39,18,-2
13210,568,416,-2152,-41,20,-2
13215,576,416,-2176,-41,22,-3
13220,568,408,-2192,-42,20,-3
13225,560,400,-2200,-46,20,-3
13230,544,424,-2184,-50,21,-3
13235,552,432,-2160,-55,20,-4
13240,576,392,-2152,-56,18,-5
13245,560,440,-2152,-52,16,-3
13250,536,440,-2200,-44,13,-4
13255,560,416,-2208,-34,6,-3
13260,552,416,-2224,-31,1,-2
13265,576,408,-2224,-34,-1,-4
13270,552,416,-2168,-39,0,-4
13275,544,440,-2216,-44,2,-4
13280,560,432,-2168,-47,3,-3
13285,568,408,-2184,-47,5,-4
13290,552,440,-2208,-49,7,-4
13295,568,408,-2208,-50,11,-4
13300,536,408,-2224,-50,12,-4
13305,568,448,-2224,-51,15,-5
13310,536,432,-2192,-51,17,-4
13315,560,424,-2200,-50,15,-4
13320,552,416,-2160,-49,15,-4
13325,552,448,-2184,-49,15,-4
13330,552,408,-2208,-48,14,-5
13335,576,400,-2184,-50,12,-4
13340,568,432,-2200,-51,12,-5
13345,560,416,-2192,-49,12,-6
13350,560,416,-2176,-47,11,-4
13355,560,440,-2208,-47,11,-4
13360,560,432,-2168,-46,12,-3
13365,576,424,-2192,-47,12,-3
13370,576,392,-2184,-48,14,-3
13375,544,424,-2176,-47,14,-5
13380,568,416,-2192,-46,14,-2
13385,552,440,-2192,-44,13,-5
13390,576,432,-2208,-44,12,-4
13395,560,432,-2192,-42,12,-4
13400,552,440,-2192,-43,12,-3
13405,560,440,-2208,-44,11,-3
13410,600,408,-2192,-46,9,-3
13415,552,408,-2192,-45,8,-2
13420,552,416,-2184,-47,8,-3
13425,552,432,-2176,-45,7,-4
13430,560,424,-2216,-47,8,-4
13435,560,424,-2176,-48,9,-4
13440,568,448,-2176,-46,8,-5
13445,552,440,-2184,-44,8,-5
13450,544,424,-2200,-44,6,-5
13455,568,432,-2208,-45,7,-3
13460,552,416,-2200,-45,8,-3
13465,544,424,-2224,-44,7,-3
13470,544,424,-2168,-45,10,-3
13475,552,440,-2184,-44,11,-4
13480,552,416,-2192,-42,11,-5
13485,536,440,-2176,-42,15,-4
13490,576,416,-2200,-45,17,-5
13495,552,424,-2176,-48,17,-2
13500,568,408,-2168,-49,16,-4
13505,560,424,-2208,-47,14,-4
13510,552,424,-2184,-47,12,-3
13515,552,432,-2248,-46,12,-2
13520,584,416,-2184,-45,11,-4
13525,568,416,-2232,-44,11,-4
13530,576,424,-2208,-41,11,-3
13535,560,432,-2200,-40,11,-3
13540,560,432,-2176,-40,12,-4
13545,592,392,-2224,-39,13,-4
13550,528,424,-2216,-41,13,-4
13555,576,432,-2224,-43,14,-5
13560,552,448,-2216,-43,14,-3
13565,560,440,-2208,-42,16,-4
13570,560,400,-2192,-43,16,-4
13575,560,424,-2184,-42,15,-5
13580,552,424,-2192,-43,14,-4
13585,568,448,-2192,-44,14,-4
13590,552,408,-2176,-44,13,-5
13595,568,408,-2144,-43,11,-5
13600,544,416,-2208,-44,11,-5
13605,584,408,-2168,-45,9,-6
13610,560,408,-2152,-43,7,-6
13615,544,432,-2184,-45,7,-6
13620,552,448,-2176,-41,7,-5
13625,552,440,-2200,-40,8,-5
13630,568,416,-2192,-39,7,-5
13635,560,392,-2184,-39,8,-5
13640,560,432,-2192,-39,7,-5
13645,544,400,-2192,-40,9,-5
13650,536,456,-2200,-40,9,-5
13655,544,424,-2200,-41,8,-5
13660,560,416,-2192,-43,9,-5
13665,552,424,-2216,-42,10,-4
13670,584,424,-2192,-42,11,-4
13675,552,432,-2232,-42,11,-4
13680,576,408,-2168,-42,13,-5
13685,552,424,-2216,-40,13,-4
13690,568,424,-2216,-42,15,-5
13695,544,424,-2144,-40,15,-4
13700,576,416,-2168,-42,16,-6
13705,552,424,-2184,-43,17,-6
13710,544,432,-2192,-45,17,-4
13715,560,400,-2184,-46,17,-4
13720,568,416,-2200,-46,16,-5
13725,584,416,-2216,-46,17,-5
13730,544,440,-2200,-45,16,-5
13735,520,448,-2184,-45,17,-5
13740,568,424,-2184,-44,19,-3
13745,560,424,-2184,-46,19,-5
13750,568,424,-2216,-46,19,-6
13755,536,440,-2184,-45,20,-5
13760,544,432,-2168,-45,20,-5
13765,552,424,-2192,-42,20,-4
13770,568,408,-2192,-41,21,-4
13775,544,432,-2240,-41,23,-2
13780,552,424,-2200,-43,24,-5
13785,560,424,-2184,-44,25,-4
13790,552,440,-2200,-45,24,-4
13795,552,424,-2200,-45,23,-4
13800,568,392,-2168,-44,22,-3
13805,552,416,-2200,-43,21,-4
13810,568,408,-2176,-45,20,-5
13815,552,416,-2168,-43,17,-5
13820,552,392,-2160,-40,17,-2
13825,544,440,-2200,-40,15,-4
13830,568,416,-2176,-39,15,-5
13835,576,424,-2200,-39,12,-3
13840,568,424,-2200,-35,12,-2
13845,536,432,-2168,-36,13,-3
13850,536,432,-2184,-36,12,-3
13855,560,424,-2176,-39,13,-4
13860,560,416,-2200,-40,12,-5
13865,560,392,-2184,-40,10,-4
13870,568,408,-2200,-40,10,-5
13875,552,392,-2184,-39,9,-3
13880,568,432,-2208,-39,7,-2
13885,568,416,-2176,-37,7,-4
13890,536,408,-2208,-37,7,-4
13895,560,416,-2224,-39,12,-3
13900,552,424,-2192,-41,13,-3
13905,560,432,-2208,-44,16,-5
13910,576,408,-2216,-46,14,-4
13915,552,408,-2208,-45,15,-4
13920,560,440,-2208,-41,14,-4
13925,552,424,-2192,-41,16,-5
13930,568,408,-2176,-42,18,-4
13935,552,416,-2216,-41,19,-5
13940,552,416,-2184,-40,22,-5
13945,552,424,-2176,-43,24,-4
13950,560,392,-2192,-45,26,-4
13955,560,408,-2168,-49,26,-6
13960,560,424,-2128,-50,26,-5
13965,568,408,-2176,-50,24,-5
13970,584,408,-2200,-42,19,-4
13975,592,392,-2208,-33,15,-2
13980,544,448,-2208,-33,10,-4
13985,568,416,-2192,-38,9,-4
13990,552,424,-2176,-43,12,-5
13995,560,416,-2208,-46,14,-5
14000,560,400,-2184,-47,13,-6
14005,536,416,-2168,-47,12,-5
14010,560,376,-2176,-47,13,-4
14015,552,424,-2184,-47,14,-4
14020,528,424,-2200,-46,16,-5
14025,544,416,-2200,-46,16,-4
14030,544,424,-2208,-45,17,-5
14035,560,432,-2192,-44,18,-4
14040,544,424,-2192,-43,18,-6
14045,544,424,-2192,-41,19,-3
14050,560,424,-2200,-41,18,-4
14055,528,416,-2176,-43,18,-5
14060,552,416,-2192,-45,16,-5
14065,528,448,-2192,-45,16,-4
14070,560,432,-2136,-45,16,-5
14075,560,400,-2176,-46,16,-3
14080,552,416,-2184,-47,15,-4
14085,528,424,-2208,-45,15,-5
14090,560,440,-2160,-47,15,-5
14095,568,392,-2192,-46,15,-4
14100,536,432,-2192,-45,17,-4
14105,544,432,-2168,-45,15,-4
14110,560,416,-2200,-46,16,-5
14115,560,392,-2184,-44,18,-5
14120,568,408,-2200,-42,18,-3
14125,560,424,-2216,-43,18,-4
14130,544,424,-2168,-43,19,-5
14135,568,408,-2184,-43,21,-4
14140,576,416,-2160,-44,20,-4
14145,560,424,-2192,-43,20,-5
14150,568,408,-2232,-45,18,-3
14155,552,400,-2168,-46,18,-4
14160,552,432,-2232,-46,18,-4
14165,576,400,-2192,-45,18,-4
14170,560,400,-2200,-45,15,-4
14175,568,416,-2224,-45,13,-4
14180,544,440,-2192,-46,15,-4
14185,576,400,-2168,-45,12,-4
14190,576,400,-2184,-45,13,-3
14195,576,392,-2184,-44,13,-4
14200,544,408,-2216,-42,13,-4
14205,536,400,-2184,-42,15,-3
14210,560,408,-2200,-44,18,-5
14215,576,416,-2192,-46,20,-3
14220,568,440,-2176,-46,21,-5
14225,552,440,-2224,-47,22,-4
14230,552,408,-2184,-46,23,-4
14235,552,448,-2200,-46,21,-5
14240,552,408,-2160,-46,21,-5
14245,560,416,-2184,-44,19,-5
14250,576,432,-2184,-44,18,-4
14255,552,416,-2208,-42,17,-3
14260,544,408,-2184,-42,15,-4
14265,544,424,-2184,-43,16,-4
14270,552,416,-2184,-42,15,-5
14275,560,440,-2232,-42,16,-5
14280,560,432,-2192,-43,18,-4
14285,576,408,-2216,-43,18,-4
14290,576,424,-2216,-43,19,-4
14295,552,424,-2176,-41,24,-3
14300,560,424,-2200,-40,27,-4
14305,584,408,-2216,-40,27,-4
14310,544,440,-2200,-41,25,-4
14315,568,416,-2216,-44,22,-6
14320,552,448,-2192,-45,22,-6
14325,544,416,-2168,-44,23,-5
14330,568,400,-2192,-45,22,-5
14335,560,424,-2184,-44,20,-6
14340,536,424,-2208,-44,20,-4
14345,552,424,-2200,-42,20,-4
14350,576,432,-2192,-43,20,-4
14355,560,408,-2216,-43,21,-5
14360,560,416,-2184,-44,22,-5
14365,536,416,-2192,-44,22,-5
14370,568,416,-2200,-45,21,-4
14375,552,432,-2152,-45,20,-5
14380,544,432,-2192,-45,21,-4
14385,576,424,-2184,-45,19,-4
14390,552,424,-2168,-46,18,-4
14395,568,392,-2216,-43,17,-4
14400,560,424,-2200,-43,18,-4
14405,544,440,-2216,-41,20,-4
14410,536,440,-2176,-40,23,-4
14415,576,424,-2160,-39,22,-3
14420,552,400,-2208,-42,19,-3
14425,560,416,-2224,-44,17,-6
14430,544,424,-2184,-44,17,-6
14435,568,408,-2208,-43,17,-7
14440,552,432,-2176,-44,14,-6
14445,560,416,-2208,-46,12,-7
14450,560,424,-2208,-47,12,-6
14455,552,432,-2192,-47,15,-5
14460,576,424,-2192,-48,15,-2
14465,560,400,-2216,-49,14,-3
14470,560,400,-2160,-47,13,-5
14475,560,408,-2160,-45,15,-5
14480,552,424,-2208,-45,15,-5
14485,568,400,-2144,-45,14,-5
14490,552,432,-2184,-45,13,-5
14495,544,416,-2192,-46,13,-4
14500,568,424,-2216,-46,11,-4
14505,560,432,-2208,-48,11,-5
14510,560,400,-2208,-48,11,-5
14515,552,432,-2168,-49,11,-6
14520,536,432,-2192,-50,13,-5
14525,584,384,-2208,-49,14,-5
14530,568,416,-2192,-49,16,-4
14535,568,408,-2192,-48,18,-4
14540,552,408,-2184,-46,18,-4
14545,560,408,-2208,-46,18,-5
14550,528,416,-2208,-45,18,-4
14555,552,400,-2168,-43,19,-4
14560,568,416,-2216,-45,19,-4
14565,536,440,-2232,-46,18,-5
14570,544,416,-2208,-47,20,-5
14575,568,400,-2200,-46,21,-5
14580,552,440,-2192,-45,20,-5
14585,568,400,-2208,-48,19,-4
14590,560,416,-2216,-47,19,-5
14595,568,416,-2176,-45,26,-4
14600,568,376,-2152,-46,24,-3
14605,592,408,-2192,-42,20,-5
14610,568,424,-2200,-42,17,-5
14615,568,416,-2208,-42,16,-5
14620,560,408,-2168,-43,18,-4
14625,552,408,-2176,-46,21,-5
14630,600,408,-2136,-48,21,-4
14635,576,424,-2216,-50,19,-5
14640,560,440,-2160,-49,25,-3
14645,584,416,-2184,-48,23,-4
14650,568,416,-2160,-48,19,-5
14655,552,416,-2200,-49,15,-5
14660,560,424,-2184,-49,15,-5
14665,568,392,-2192,-49,15,-5
14670,560,408,-2176,-52,16,-5
14675,560,408,-2176,-54,16,-6
14680,552,416,-2208,-55,18,-6
14685,584,408,-2160,-57,19,-5
14690,544,424,-2136,-52,18,-5
14695,584,416,-2192,-44,14,-5
14700,568,392,-2200,-36,7,-4
14705,576,408,-2216,-37,2,-4
14710,552,392,-2208,-41,0,-5
14715,528,408,-2224,-44,0,-5
14720,544,424,-2168,-48,0,-4
14725,544,400,-2192,-50,0,-4
14730,560,432,-2192,-50,2,-4
14735,560,408,-2184,-49,4,-6
14740,560,440,-2176,-50,7,-6
14745,568,424,-2192,-50,9,-7
14750,560,408,-2200,-52,10,-6
14755,576,400,-2192,-51,10,-5
14760,576,416,-2184,-50,11,-5
14765,560,408,-2176,-50,10,-5
14770,568,384,-2176,-52,9,-5
14775,560,408,-2192,-56,8,-5
14780,528,432,-2200,-56,6,-5
14785,560,424,-2192,-57,4,-6
14790,552,448,-2192,-57,4,-6
14795,544,424,-2192,-56,4,-5
14800,560,432,-2192,-56,5,-4
14805,560,432,-2184,-54,5,-4
14810,576,416,-2168,-54,4,-5
14815,544,424,-2152,-55,5,-4
14820,576,400,-2216,-54,4,-5
14825,560,424,-2200,-52,5,-5
14830,576,408,-2184,-53,5,-5
14835,552,424,-2216,-49,5,-5
14840,560,448,-2208,-52,5,-3
14845,536,416,-2208,-51,6,-3
14850,544,408,-2216,-51,6,-5
14855,584,416,-2224,-50,8,-5
14860,560,408,-2168,-51,8,-4
14865,552,432,-2176,-52,8,-4
14870,568,416,-2192,-53,8,-5
14875,568,408,-2200,-51,9,-5
14880,552,432,-2168,-53,9,-5
14885,544,416,-2168,-53,9,-5
14890,560,416,-2168,-52,10,-4
14895,528,416,-2200,-52,8,-5
14900,568,464,-2176,-52,8,-5
14905,536,408,-2192,-53,8,-4
14910,568,416,-2192,-53,9,-3
14915,552,440,-2232,-52,8,-4
14920,560,400,-2184,-48,8,-2
14925,536,440,-2168,-46,10,-3
14930,528,440,-2168,-47,12,-3
14935,576,440,-2168,-48,12,-4
14940,552,416,-2176,-50,14,-4
14945,528,408,-2176,-51,15,-5
14950,576,424,-2184,-52,14,-3
14955,584,384,-2200,-50,12,-3
14960,568,416,-2200,-51,11,-5
14965,552,432,-2200,-50,11,-3
14970,560,416,-2208,-50,12,-2
14975,544,400,-2208,-49,13,-3
14980,544,424,-2200,-49,13,-4
14985,552,424,-2192,-49,14,-5
14990,568,416,-2208,-50,18,-4
14995,552,416,-2160,-50,18,-3
