timestamp,accel_x,accel_y,accel_z,gyro_x,gyro_y,gyro_z
0,152,-2112,88,-40,48,-5
5,176,-2136,88,-41,48,-2
10,152,-2152,112,-42,45,-4
15,144,-2152,120,-45,42,-1
20,152,-2144,88,-47,39,-2
25,112,-2168,152,-51,35,1
30,120,-2112,88,-53,33,1
35,120,-2144,120,-55,32,3
40,80,-2128,88,-56,30,2
45,72,-2152,120,-56,29,6
50,64,-2160,128,-56,26,5
55,88,-2144,128,-57,24,8
60,80,-2168,128,-58,20,8
65,80,-2160,104,-57,20,15
70,72,-2168,152,-58,19,16
75,88,-2144,144,-58,18,20
80,88,-2136,104,-60,15,22
85,88,-2144,144,-60,13,28
90,56,-2120,152,-60,13,28
95,56,-2120,192,-60,11,33
100,88,-2104,200,-62,8,31
105,80,-2120,176,-63,6,33
110,136,-2120,264,-68,3,32
115,16,-2080,272,-77,1,34
120,8,-2128,216,-84,-1,31
125,-8,-2176,176,-90,-5,33
130,-32,-2176,160,-98,-10,29
135,-64,-2096,144,-101,-14,27
140,72,-2104,336,-103,-19,24
145,72,-2120,248,-103,-24,24
150,-64,-2056,200,-103,-30,17
155,-24,-2112,176,-103,-34,15
160,32,-2088,272,-101,-38,8
165,-88,-2112,264,-101,-41,5
170,32,-2080,264,-106,-43,-3
175,-56,-2120,256,-110,-47,-7
180,64,-2000,384,-115,-51,-20
185,16,-2080,296,-122,-52,-26
190,-72,-2080,264,-131,-56,-36
195,-16,-2040,464,-137,-58,-42
200,32,-2016,344,-145,-62,-52
205,80,-2072,168,-154,-65,-54
210,8,-2008,304,-164,-69,-61
215,24,-2016,328,-173,-76,-61
220,16,-2016,320,-179,-80,-67
225,8,-2032,328,-184,-86,-62
230,-8,-2024,320,-189,-93,-62
235,-40,-2048,296,-197,-99,-59
240,-16,-2072,288,-207,-107,-58
245,-32,-2056,280,-217,-116,-55
250,-48,-2064,216,-231,-125,-55
255,-48,-1984,200,-247,-132,-52
260,-24,-2032,168,-264,-138,-51
265,-24,-2024,152,-285,-144,-46
270,8,-2048,128,-305,-146,-46
275,24,-2032,96,-325,-146,-41
280,40,-2064,72,-352,-139,-44
285,104,-2040,32,-373,-129,-44
290,136,-2048,8,-396,-114,-49
295,192,-2088,-64,-420,-93,-51
300,240,-2096,-104,-444,-67,-59
305,296,-2056,-144,-467,-34,-62
310,320,-2040,-184,-488,3,-67
315,360,-1976,-208,-504,48,-62
320,392,-1944,-224,-518,94,-56
325,392,-1896,-248,-533,146,-36
330,408,-1840,-256,-545,213,-17
335,432,-1816,-248,-554,273,12
340,472,-1784,-216,-557,336,37
345,528,-1832,-128,-557,397,69
350,536,-1872,0,-562,452,93
355,536,-1976,88,-570,490,118
360,496,-2056,264,-585,515,127
365,464,-2168,336,-605,517,141
370,416,-2288,392,-624,502,142
375,352,-2384,392,-641,476,141
380,264,-2448,376,-652,444,138
385,184,-2480,336,-644,413,134
390,64,-2512,344,-621,392,126
395,80,-2544,320,-587,376,123
400,-16,-2536,328,-552,359,96
405,-72,-2496,320,-514,338,60
410,-72,-2448,352,-481,314,17
415,-104,-2416,360,-462,289,-27
420,-160,-2360,416,-457,259,-78
425,-168,-2264,320,-462,217,-134
430,-192,-2224,296,-474,192,-187
435,-240,-2208,344,-477,163,-241
440,-168,-2144,312,-471,132,-286
445,-152,-2120,280,-446,130,-302
450,-128,-2120,304,-423,123,-315
455,-72,-2104,288,-410,94,-324
460,-72,-2112,232,-406,63,-338
465,-32,-2112,240,-403,30,-347
470,24,-2128,176,-401,-10,-361
475,64,-2128,200,-387,-48,-372
480,120,-2128,176,-363,-81,-386
485,208,-2128,152,-339,-101,-394
490,264,-2120,144,-308,-108,-395
495,272,-2120,136,-276,-110,-396
500,328,-2096,128,-244,-114,-402
505,344,-2104,144,-212,-112,-400
510,384,-2056,176,-181,-119,-400
515,392,-2032,96,-161,-109,-398
520,400,-2064,136,-142,-101,-390
525,448,-2032,64,-114,-117,-380
530,456,-2024,72,-96,-108,-372
535,456,-2000,48,-84,-92,-361
540,440,-2016,72,-71,-83,-355
545,416,-2024,72,-60,-71,-344
550,424,-2016,104,-46,-67,-334
555,376,-2016,144,-36,-58,-320
560,352,-2000,152,-24,-52,-307
565,328,-1992,160,-8,-55,-288
570,312,-2008,168,6,-58,-269
575,280,-1976,208,24,-61,-248
580,240,-1976,232,41,-68,-232
585,240,-1936,208,53,-78,-216
590,224,-1968,232,60,-82,-204
595,224,-1952,216,66,-93,-187
600,208,-1936,240,67,-109,-178
605,232,-1952,240,71,-129,-163
610,184,-1968,224,73,-148,-154
615,216,-1984,216,74,-168,-136
620,176,-2000,288,77,-188,-124
625,168,-2016,264,83,-203,-106
630,128,-2064,272,92,-213,-90
635,96,-2136,296,96,-226,-69
640,80,-2168,264,94,-244,-52
645,72,-2216,248,90,-265,-27
650,32,-2216,288,82,-293,-9
655,16,-2264,264,79,-321,13
660,8,-2264,288,83,-352,30
665,48,-2296,304,84,-388,48
670,48,-2296,328,87,-421,56
675,104,-2304,336,91,-446,61
680,176,-2296,352,92,-464,57
685,256,-2296,352,90,-473,52
690,336,-2280,368,91,-472,38
695,416,-2256,400,88,-462,28
700,528,-2288,392,83,-443,8
705,632,-2312,376,78,-420,-10
710,736,-2376,384,72,-393,-37
715,856,-2416,376,61,-362,-62
720,920,-2504,328,41,-325,-100
725,968,-2592,328,5,-296,-134
730,1032,-2648,304,-31,-268,-177
735,1040,-2696,240,-70,-247,-217
740,1032,-2768,160,-117,-226,-262
745,1040,-2808,80,-152,-191,-299
750,1048,-2872,32,-163,-139,-335
755,1024,-2888,24,-146,-75,-363
760,952,-2936,40,-117,-5,-390
765,872,-2968,16,-99,56,-414
770,824,-3000,32,-96,111,-431
775,760,-3008,16,-100,150,-441
780,616,-2976,24,-108,189,-453
785,472,-2904,8,-112,221,-454
790,392,-2776,40,-99,246,-450
795,336,-2720,96,-69,266,-436
800,256,-2672,168,-38,270,-415
805,176,-2584,192,-18,258,-382
810,128,-2520,128,-17,227,-343
815,80,-2440,-8,-37,178,-278
820,48,-2408,-176,-76,105,-222
825,40,-2392,-336,-103,43,-158
830,24,-2320,-416,-118,-14,-99
835,32,-2248,-520,-116,-66,-45
840,104,-2200,-632,-116,-110,4
845,136,-2152,-760,-127,-147,48
850,176,-2088,-784,-143,-182,75
855,216,-2048,-808,-152,-215,99
860,184,-1968,-800,-156,-239,115
865,184,-1920,-704,-146,-259,130
870,192,-1928,-680,-121,-271,140
875,224,-1904,-616,-99,-278,146
880,248,-1936,-560,-81,-278,142
885,336,-1936,-536,-66,-273,139
890,392,-1920,-504,-51,-262,127
895,448,-1896,-496,-36,-244,119
900,496,-1888,-480,-18,-210,110
905,512,-1832,-472,-7,-172,110
910,560,-1800,-424,-4,-137,115
915,536,-1776,-424,-12,-100,134
920,560,-1792,-384,-34,-71,157
925,552,-1784,-352,-60,-51,185
930,544,-1784,-312,-80,-20,211
935,488,-1800,-288,-93,3,239
940,408,-1880,-208,-111,7,255
945,392,-1904,-216,-118,-1,281
950,344,-1960,-184,-122,22,328
955,224,-2000,-216,-145,21,357
960,248,-2040,-232,-175,1,369
965,208,-2064,-272,-196,9,402
970,136,-2096,-248,-207,23,423
975,136,-2136,-232,-204,39,434
980,88,-2104,-136,-188,57,435
985,192,-2088,-128,-157,78,444
990,160,-2064,-104,-134,110,447
995,184,-2024,-128,-115,136,455
1000,120,-1984,-104,-102,157,460
1005,144,-1936,-112,-99,154,464
1010,120,-1904,-72,-97,146,458
1015,152,-1896,-80,-85,133,461
1020,128,-1856,-56,-66,129,467
1025,104,-1856,-8,-44,124,482
1030,104,-1832,-48,-18,112,485
1035,96,-1816,-32,0,111,494
1040,96,-1816,-40,8,104,491
1045,64,-1856,-16,16,105,494
1050,48,-1856,-32,26,100,493
1055,32,-1824,-24,36,98,503
1060,16,-1816,0,45,99,513
1065,-8,-1816,0,59,101,530
1070,-16,-1808,8,62,102,548
1075,-32,-1800,0,56,95,565
1080,8,-1768,-24,49,84,580
1085,0,-1768,8,40,73,605
1090,-16,-1776,-24,41,68,609
1095,16,-1736,-64,52,75,604
1100,72,-1712,-64,58,91,596
1105,136,-1704,-72,59,113,615
1110,104,-1736,8,36,207,651
1115,104,-1720,-8,28,205,624
1120,224,-1680,-80,39,187,581
1125,232,-1648,-24,34,210,551
1130,288,-1640,-72,23,243,523
1135,296,-1624,-40,12,275,490
1140,336,-1632,0,-6,307,450
1145,360,-1640,-64,-23,343,412
1150,408,-1656,-8,-43,399,378
1155,296,-1736,8,-73,469,353
1160,296,-1784,0,-83,494,279
1165,304,-1848,0,-86,520,216
1170,256,-1920,24,-94,561,157
1175,272,-2032,48,-99,608,106
1180,224,-2152,112,-93,653,53
1185,184,-2264,160,-68,696,12
1190,136,-2408,248,-31,736,-27
1195,64,-2440,248,15,771,-57
1200,-8,-2464,256,55,796,-84
1205,-112,-2488,248,84,799,-107
1210,-248,-2472,272,117,785,-115
1215,-344,-2464,248,153,764,-104
1220,-456,-2416,296,190,737,-81
1225,-520,-2344,264,221,710,-51
1230,-496,-2272,216,239,684,-23
1235,-472,-2272,200,242,657,4
1240,-512,-2208,216,228,619,24
1245,-592,-2224,272,206,567,47
1250,-728,-2272,224,174,494,69
1255,-664,-2280,240,131,393,110
1260,-624,-2480,128,46,256,144
1265,-584,-2632,200,-39,166,187
1270,-600,-2688,272,-73,103,224
1275,-584,-2648,328,-68,64,262
1280,-600,-2560,432,-48,36,284
1285,-576,-2536,472,-31,17,303
1290,-520,-2528,496,-16,7,311
1295,-928,-2904,576,8,1,324
1300,-512,-2856,48,36,-14,373
1305,320,-3056,-544,-120,-12,448
1310,376,-3296,-792,-533,-41,475
1315,96,-3424,-640,-720,-124,505
1320,64,-3312,-552,-701,-216,545
1325,192,-3352,-544,-644,-288,580
1330,328,-3288,-624,-553,-332,609
1335,336,-3232,-576,-410,-314,656
1340,96,-3112,-448,-250,-248,705
1345,-48,-3080,-416,-110,-156,758
1350,-48,-3040,-456,-14,-65,795
1355,0,-2920,-552,44,24,817
1360,120,-2776,-696,59,83,817
1365,184,-2592,-832,69,129,799
1370,280,-2328,-944,90,172,767
1375,400,-2184,-1024,120,220,735
1380,528,-2064,-1088,153,266,704
1385,664,-1936,-1216,181,309,674
1390,808,-1912,-1176,203,355,630
1395,864,-1880,-1120,221,407,576
1400,840,-1896,-1032,239,459,501
1405,728,-1936,-936,260,519,445
1410,656,-2008,-856,274,557,392
1415,592,-2088,-736,276,583,346
1420,528,-2176,-648,267,591,298
1425,432,-2264,-520,253,596,255
1430,312,-2360,-472,235,593,210
1435,168,-2360,-480,208,587,164
1440,48,-2408,-480,173,583,117
1445,-64,-2416,-472,135,573,69
1450,-128,-2416,-456,105,557,3
1455,-200,-2376,-448,67,540,-53
1460,-248,-2296,-544,38,514,-115
1465,-280,-2200,-536,13,485,-179
1470,-272,-2152,-576,-10,450,-243
1475,-312,-2080,-560,-43,410,-302
1480,-336,-2096,-544,-74,376,-352
1485,-352,-2032,-528,-70,348,-389
1490,-384,-1992,-504,-53,320,-418
1495,-432,-1960,-496,-42,281,-455
1500,-520,-1984,-416,-43,227,-481
1505,-504,-1968,-440,-40,168,-503
1510,-384,-1912,-456,-51,127,-520
1515,-360,-1936,-360,-48,121,-525
1520,-248,-1904,-344,-15,91,-536
1525,-176,-1848,-344,42,85,-545
1530,-72,-1768,-272,93,72,-565
1535,32,-1736,-232,120,65,-584
1540,96,-1712,-248,148,60,-595
1545,176,-1680,-224,184,45,-594
1550,192,-1600,-184,207,21,-602
1555,240,-1592,-248,218,-4,-590
1560,232,-1648,-200,245,-23,-564
1565,216,-1616,-192,252,-35,-559
1570,200,-1632,-152,241,-41,-551
1575,184,-1672,-48,231,-49,-533
1580,96,-1672,-40,218,-54,-525
1585,104,-1640,-56,198,-80,-515
1590,128,-1632,-40,179,-93,-506
1595,128,-1640,-48,158,-87,-490
1600,88,-1640,-56,139,-60,-474
1605,48,-1640,-32,117,-43,-457
1610,56,-1616,-48,104,-32,-436
1615,32,-1592,-16,85,-20,-406
1620,56,-1584,-56,66,-23,-380
1625,64,-1576,-40,39,-38,-351
1630,40,-1600,-56,-5,-66,-326
1635,32,-1584,-80,-59,-106,-295
1640,40,-1552,-88,-120,-137,-260
1645,16,-1592,-80,-191,-177,-238
1650,8,-1584,-80,-232,-213,-220
1655,32,-1584,-112,-260,-244,-196
1660,64,-1664,-32,-282,-271,-175
1665,80,-1736,-16,-281,-298,-155
1670,88,-1808,16,-259,-332,-143
1675,104,-1920,112,-223,-369,-131
1680,64,-2048,184,-174,-409,-120
1685,40,-2120,176,-120,-453,-107
1690,-8,-2192,192,-61,-501,-91
1695,-32,-2240,208,24,-548,-77
1700,-80,-2272,200,94,-584,-64
1705,-40,-2384,184,165,-608,-41
1710,-24,-2400,216,230,-618,-19
1715,0,-2456,232,280,-637,0
1720,24,-2472,264,324,-665,0
1725,32,-2384,336,367,-698,-6
1730,64,-2296,344,405,-735,-15
1735,72,-2208,288,431,-764,-17
1740,88,-2104,232,441,-772,-13
1745,224,-2096,104,427,-751,-10
1750,352,-2072,32,381,-704,-24
1755,424,-2176,96,301,-651,-56
1760,600,-2216,232,241,-609,-103
1765,728,-2240,352,225,-571,-146
1770,856,-2296,392,222,-525,-196
1775,920,-2344,464,216,-472,-246
1780,936,-2352,464,201,-413,-300
1785,968,-2392,520,184,-349,-350
1790,1072,-2728,480,178,-280,-400
1795,1640,-2856,592,170,-255,-451
1800,1184,-2864,56,25,-345,-558
1805,1072,-3336,-592,-355,-388,-600
1810,1416,-3600,-768,-676,-335,-674
1815,1440,-3528,-704,-760,-199,-802
1820,1112,-3520,-576,-709,-45,-907
1825,784,-3464,-600,-596,93,-966
1830,512,-3368,-592,-446,221,-1021
1835,384,-3192,-528,-289,323,-1071
1840,336,-3128,-464,-118,398,-1080
1845,296,-3120,-544,-30,422,-1070
1850,168,-3072,-712,1,406,-1052
1855,16,-2920,-928,18,354,-1027
1860,-88,-2720,-1080,56,286,-987
1865,-184,-2496,-1176,123,220,-935
1870,-320,-2272,-1168,217,147,-875
1875,-480,-2120,-1136,304,75,-804
1880,-608,-1960,-1056,365,2,-726
1885,-648,-1848,-960,397,-95,-620
1890,-672,-1832,-944,409,-177,-527
1895,-600,-1864,-840,405,-254,-431
1900,-544,-1944,-816,389,-315,-332
1905,-448,-2072,-680,362,-353,-237
1910,-304,-2144,-592,333,-378,-153
1915,-128,-2192,-496,299,-391,-86
1920,40,-2248,-528,252,-399,-32
1925,136,-2240,-552,194,-397,13
1930,304,-2208,-576,139,-380,64
1935,472,-2152,-600,77,-334,116
1940,504,-2208,-520,20,-292,154
1945,712,-2192,-552,-21,-290,169
1950,752,-2184,-488,-42,-252,191
1955,832,-2136,-504,-45,-211,227
1960,792,-2136,-440,-59,-158,270
1965,880,-2136,-480,-65,-102,316
1970,648,-2176,-320,-63,-11,380
1975,624,-2136,-400,-55,-8,407
1980,552,-2104,-416,-50,19,437
1985,464,-2040,-416,-48,52,463
1990,376,-1968,-448,-42,79,488
1995,344,-1936,-440,-47,103,510
2000,368,-1920,-424,-66,128,531
2005,320,-1896,-408,-81,150,547
2010,280,-1864,-408,-91,173,562
2015,256,-1856,-352,-100,192,575
2020,208,-1832,-360,-98,216,591
2025,480,-1688,-408,-89,242,604
2030,-24,-1864,-152,-108,343,647
2035,32,-1800,-288,-85,299,625
2040,80,-1784,-296,-69,283,603
2045,64,-1776,-264,-56,307,586
2050,48,-1728,-256,-42,331,574
2055,48,-1736,-232,-33,359,562
2060,192,-1656,-264,-28,383,548
2065,24,-1808,-56,-35,447,562
2070,40,-1760,-152,-19,432,525
2075,96,-1704,-160,-10,408,482
2080,152,-1688,-152,-3,409,465
2085,96,-1672,-128,6,421,455
2090,136,-1656,-128,12,448,451
2095,8,-1656,-64,16,465,430
2100,0,-1584,-64,28,454,388
2105,16,-1544,-56,27,452,348
2110,-8,-1520,-64,17,451,324
2115,-56,-1496,-48,2,455,299
2120,-64,-1504,-32,-13,452,271
2125,-96,-1488,0,-25,442,253
2130,-144,-1472,8,-44,435,233
2135,-144,-1464,8,-67,438,221
2140,-200,-1544,56,-85,440,221
2145,-240,-1544,104,-93,428,191
2150,-200,-1584,112,-99,409,161
2155,-184,-1600,160,-107,400,138
2160,-112,-1688,160,-119,396,121
2165,-80,-1712,184,-123,391,106
2170,-24,-1744,184,-121,387,92
2175,64,-1768,256,-114,387,78
2180,80,-1840,224,-107,383,79
2185,152,-1856,200,-100,390,58
2190,224,-1856,160,-94,400,45
2195,304,-1928,144,-88,409,31
2200,384,-1976,128,-87,422,12
2205,392,-2008,72,-95,439,-10
2210,408,-2088,56,-112,459,-33
2215,416,-2128,96,-131,479,-49
2220,360,-2216,104,-145,503,-75
2225,296,-2320,152,-148,526,-93
2230,240,-2392,200,-127,541,-99
2235,192,-2520,208,-103,556,-103
2240,128,-2536,240,-75,574,-101
2245,-16,-2592,248,-51,592,-98
2250,-184,-2624,176,-31,594,-92
2255,-160,-2656,120,-30,559,-72
2260,-168,-2704,64,-58,509,-46
2265,-216,-2744,192,-69,473,-22
2270,-256,-2728,328,-43,444,6
2275,-272,-2704,496,19,418,31
2280,-272,-2608,520,72,397,60
2285,-272,-2504,616,119,381,85
2290,-240,-2360,648,166,368,103
2295,-200,-2320,576,198,356,131
2300,-104,-2240,576,211,359,131
2305,-16,-2264,592,212,365,132
2310,-272,-2640,624,207,370,135
2315,-864,-2704,400,193,315,182
2320,-64,-3008,48,1,334,265
2325,200,-3200,-360,-306,394,347
2330,56,-3400,-816,-470,342,406
2335,-96,-3472,-576,-462,253,462
2340,-64,-3480,-464,-354,185,534
2345,104,-3400,-568,-208,164,600
2350,120,-3232,-680,-45,184,637
2355,40,-3296,-920,122,229,651
2360,-80,-2960,-648,228,296,674
2365,-48,-2848,-752,328,365,705
2370,16,-2688,-840,302,391,712
2375,120,-2448,-976,252,391,720
2380,264,-2272,-1040,218,374,732
2385,392,-2176,-1048,229,363,723
2390,432,-2104,-1048,271,365,703
2395,504,-2096,-984,311,377,678
2400,528,-2088,-984,340,404,643
2405,464,-2072,-992,358,438,597
2410,336,-2024,-984,358,479,546
2415,240,-2032,-960,331,508,486
2420,136,-2080,-888,282,511,442
2425,80,-2160,-864,223,492,398
2430,56,-2240,-824,163,461,358
2435,0,-2280,-816,115,423,316
2440,-88,-2320,-776,79,380,271
2445,-192,-2320,-664,57,332,225
2450,-272,-2376,-544,37,279,174
2455,-312,-2408,-480,29,217,119
2460,-376,-2400,-400,28,151,55
2465,-392,-2384,-288,38,70,-1
2470,-368,-2376,-256,50,-1,-56
2475,-320,-2296,-264,55,-68,-111
2480,-296,-2216,-288,54,-134,-164
2485,-272,-2192,-312,38,-191,-220
2490,-160,-2112,-400,9,-248,-277
2495,-136,-2080,-416,-27,-269,-308
2500,-184,-2040,-424,-57,-289,-341
2505,-96,-2040,-440,-79,-320,-380
2510,-160,-2008,-400,-96,-348,-419
2515,-200,-2016,-336,-108,-383,-461
2520,-200,-2000,-344,-112,-439,-491
2525,-64,-2000,-328,-116,-478,-515
2530,-96,-1992,-336,-90,-461,-516
2535,-96,-1936,-296,-56,-461,-526
2540,-88,-1856,-240,-23,-477,-544
2545,-32,-1808,-240,0,-512,-579
2550,128,-1792,-304,24,-511,-584
2555,80,-1728,-240,66,-450,-574
2560,112,-1736,-184,95,-413,-564
2565,136,-1704,-160,107,-396,-555
2570,160,-1680,-184,107,-400,-546
2575,96,-1680,-128,99,-403,-543
2580,224,-1696,-152,83,-426,-542
2585,240,-1688,-152,89,-416,-515
2590,232,-1680,-128,89,-387,-492
2595,224,-1648,-80,86,-361,-478
2600,232,-1704,-56,81,-340,-456
2605,208,-1704,-24,79,-326,-440
2610,216,-1728,0,90,-329,-422
2615,248,-1696,-8,101,-328,-406
2620,248,-1712,-24,109,-316,-388
2625,264,-1688,8,119,-308,-377
2630,240,-1656,16,125,-304,-360
2635,224,-1616,24,122,-296,-346
2640,224,-1640,48,105,-296,-330
2645,224,-1608,16,91,-298,-312
2650,224,-1568,8,70,-303,-293
2655,208,-1536,-8,33,-304,-273
2660,208,-1528,56,3,-301,-248
2665,208,-1504,64,-23,-299,-228
2670,168,-1488,56,-46,-299,-204
2675,216,-1560,128,-69,-298,-182
2680,184,-1608,200,-77,-293,-154
2685,192,-1680,296,-67,-295,-129
2690,192,-1776,328,-43,-303,-103
2695,160,-1880,360,-10,-317,-76
2700,136,-2000,360,20,-335,-42
2705,72,-2112,312,49,-358,-15
2710,16,-2152,280,72,-370,12
2715,-40,-2224,240,96,-378,29
2720,0,-2272,240,120,-378,45
2725,0,-2264,240,138,-376,52
2730,48,-2264,216,149,-380,54
2735,80,-2320,192,143,-385,57
2740,112,-2328,256,130,-401,59
2745,96,-2344,304,120,-430,57
2750,24,-2328,320,117,-474,61
2755,-16,-2328,392,119,-508,68
2760,-16,-2296,408,127,-529,84
2765,56,-2272,312,138,-528,96
2770,168,-2304,136,119,-488,108
2775,88,-2432,120,51,-424,93
2780,224,-2472,240,-14,-395,65
2785,400,-2464,360,-21,-374,33
2790,480,-2376,512,9,-333,3
2795,528,-2392,576,51,-287,-39
2800,520,-2400,616,85,-243,-70
2805,552,-2408,632,97,-214,-110
2810,520,-2360,632,106,-191,-146
2815,496,-2320,648,115,-173,-179
2820,872,-2784,528,136,-154,-199
2825,1080,-2640,872,128,-148,-251
2830,664,-2928,112,-30,-275,-343
2835,584,-3336,-480,-350,-324,-402
2840,936,-3576,-624,-507,-248,-482
2845,1040,-3472,-264,-434,-99,-636
2850,864,-3424,-168,-250,19,-729
2855,712,-3312,-208,-124,104,-808
2860,584,-3160,-296,-29,178,-878
2865,584,-3056,-304,51,236,-941
2870,592,-2960,-368,128,271,-986
2875,536,-2872,-504,161,279,-1022
2880,528,-2752,-784,143,262,-1046
2885,456,-2496,-1160,115,233,-1058
2890,344,-2152,-1320,104,217,-1056
2895,184,-1944,-1232,139,217,-1027
2900,-24,-1792,-1032,236,211,-979
2905,-208,-1712,-832,318,184,-921
2910,-312,-1728,-768,359,145,-848
2915,-360,-1776,-744,345,99,-769
2920,-352,-1832,-744,286,48,-674
2925,-360,-1936,-776,209,1,-575
2930,-336,-2112,-752,137,-38,-466
2935,-272,-2224,-688,82,-64,-362
2940,-88,-2376,-648,53,-64,-237
2945,-16,-2432,-608,49,-32,-148
2950,176,-2480,-632,47,-2,-76
2955,312,-2472,-576,43,31,-22
2960,432,-2368,-496,34,66,32
2965,592,-2264,-424,24,106,87
2970,616,-2144,-360,17,174,167
2975,576,-2080,-248,-5,222,230
2980,640,-2048,-216,-6,216,262
2985,648,-2000,-192,-1,217,288
2990,632,-1960,-264,2,242,333
2995,624,-1968,-248,-8,267,361
3000,608,-1960,-272,-25,298,386
3005,632,-1968,-232,-44,328,401
3010,616,-1976,-240,-69,363,419
3015,592,-1976,-232,-95,401,434
3020,560,-2024,-216,-116,435,454
3025,488,-2008,-200,-134,471,470
3030,504,-1944,-232,-142,503,495
3035,184,-1928,-32,-151,599,573
3040,128,-1840,-80,-145,564,578
3045,120,-1776,-112,-129,536,585
3050,0,-1728,-88,-111,549,625
3055,-32,-1720,-80,-90,555,670
3060,-248,-1696,8,-69,556,678
3065,-248,-1672,16,-57,512,650
3070,-288,-1672,24,-53,474,636
3075,-320,-1672,64,-50,442,620
3080,-296,-1688,88,-51,409,607
3085,-312,-1744,96,-59,378,584
3090,-288,-1760,40,-70,358,557
3095,-232,-1792,80,-85,346,539
3100,-240,-1800,40,-102,333,516
3105,-176,-1824,32,-113,303,484
3110,-104,-1800,24,-114,285,457
3115,-80,-1784,16,-112,278,433
3120,-64,-1736,32,-106,278,411
3125,-24,-1720,16,-102,287,390
3130,32,-1720,40,-99,301,373
3135,56,-1680,24,-99,317,346
3140,120,-1688,16,-107,330,332
3145,144,-1624,-32,-125,341,319
3150,256,-1632,-48,-156,358,318
3155,104,-1688,8,-200,393,319
3160,112,-1680,16,-227,377,288
3165,160,-1696,16,-248,357,256
3170,144,-1696,0,-266,355,239
3175,136,-1704,8,-285,362,218
3180,128,-1696,32,-303,373,193
3185,144,-1712,8,-321,386,166
3190,112,-1704,64,-334,390,142
3195,136,-1720,72,-343,396,113
3200,128,-1752,96,-348,401,89
3205,136,-1792,120,-345,406,63
3210,120,-1872,176,-333,419,46
3215,152,-1960,248,-306,439,27
3220,192,-2072,352,-267,467,20
3225,176,-2208,408,-224,501,13
3230,152,-2240,440,-174,551,4
3235,160,-2248,448,-90,583,-5
3240,168,-2328,400,-31,614,-10
3245,152,-2400,328,16,634,-21
3250,64,-2408,296,48,654,-25
3255,-32,-2424,288,67,675,-34
3260,-88,-2432,320,79,689,-35
3265,-96,-2400,328,94,698,-35
3270,-56,-2400,384,106,706,-31
3275,-32,-2336,360,118,717,-37
3280,-24,-2288,232,116,713,-41
3285,128,-2304,144,72,673,-45
3290,72,-2312,96,6,619,-42
3295,-40,-2360,304,-24,576,-40
3300,-152,-2368,384,-15,530,-20
3305,-296,-2464,440,-2,479,11
3310,-312,-2720,816,-29,427,56
3315,-568,-2232,416,6,402,91
3320,-576,-2384,472,41,356,146
3325,-544,-2352,488,61,323,197
3330,-536,-2376,600,100,306,239
3335,-1080,-2720,584,147,276,258
3340,-832,-2664,424,163,191,326
3345,-416,-3016,264,-39,221,408
3350,-200,-3392,-280,-344,156,485
3355,-440,-3536,-432,-461,-18,541
3360,-440,-3496,-176,-409,-137,603
3365,-232,-3536,-304,-315,-216,664
3370,-88,-3536,-480,-243,-290,728
3375,-56,-3344,-552,-162,-352,764
3380,-8,-3232,-592,-85,-383,796
3385,-144,-3240,-808,-36,-389,801
3390,-536,-2536,-784,-50,-422,755
3395,-208,-2920,-816,32,-403,807
3400,-80,-2736,-984,43,-396,800
3405,112,-2616,-1120,55,-384,768
3410,256,-2504,-1128,84,-350,724
3415,312,-2400,-1160,130,-302,670
3420,416,-2328,-1168,168,-245,605
3425,472,-2224,-1152,183,-199,552
3430,568,-2160,-1128,190,-154,507
3435,656,-2104,-1040,204,-105,458
3440,728,-2016,-944,228,-47,418
3445,720,-1960,-880,254,6,375
3450,712,-1928,-816,266,45,338
3455,688,-1896,-768,259,63,300
3460,608,-1920,-720,233,63,263
3465,568,-1960,-648,197,50,213
3470,432,-2024,-616,144,37,174
3475,344,-2120,-576,90,33,128
3480,208,-2168,-592,33,33,81
3485,40,-2200,-536,-20,38,31
3490,-48,-2216,-528,-62,47,-14
3495,-176,-2248,-496,-93,50,-63
3500,-240,-2240,-448,-115,43,-105
3505,-280,-2240,-408,-135,30,-152
3510,-288,-2200,-424,-155,8,-195
3515,-272,-2192,-440,-177,-21,-258
3520,-256,-2176,-456,-217,-47,-309
3525,-232,-2200,-432,-244,-68,-371
3530,-96,-2176,-456,-267,-72,-414
3535,-128,-2200,-400,-281,-47,-450
3540,-120,-2240,-320,-285,-39,-496
3545,-64,-2160,-336,-263,-41,-538
3550,-88,-2112,-336,-235,-52,-553
3555,-184,-2008,-272,-221,-64,-585
3560,8,-2000,-272,-231,-105,-638
3565,0,-1936,-272,-183,-97,-639
3570,-16,-1904,-280,-133,-78,-637
3575,-48,-1840,-160,-106,-90,-658
3580,8,-1824,-176,-106,-127,-674
3585,96,-1816,-208,-104,-142,-672
3590,144,-1800,-232,-96,-143,-658
3595,152,-1808,-200,-83,-128,-643
3600,96,-1800,-160,-81,-121,-635
3605,-16,-1816,-120,-85,-141,-644
3610,112,-1752,-184,-105,-182,-669
3615,128,-1792,-160,-112,-195,-660
3620,144,-1752,-72,-104,-212,-642
3625,128,-1744,-24,-100,-229,-634
3630,152,-1768,-96,-98,-251,-627
3635,112,-1784,0,-98,-259,-625
3640,192,-1776,32,-78,-275,-611
3645,168,-1808,72,-57,-287,-608
3650,224,-1792,40,-30,-303,-596
3655,216,-1792,72,-23,-314,-592
3660,304,-1784,40,-16,-324,-583
3665,304,-1816,0,-9,-320,-582
3670,264,-1752,72,-10,-298,-567
3675,264,-1736,96,-13,-295,-553
3680,264,-1776,72,-10,-299,-531
3685,440,-1800,40,-10,-280,-516
3690,184,-1704,40,-14,-210,-518
3695,288,-1776,72,-42,-204,-488
3700,184,-1720,96,-43,-202,-461
3705,232,-1760,96,-53,-217,-427
3710,288,-1760,72,-70,-233,-401
3715,240,-1800,120,-81,-222,-381
3720,296,-1872,144,-92,-207,-361
3725,304,-1920,184,-103,-191,-346
3730,352,-1960,168,-107,-178,-323
3735,320,-1976,216,-105,-169,-310
3740,344,-1992,168,-100,-163,-292
3745,360,-1960,216,-88,-163,-277
3750,392,-1952,168,-71,-159,-255
3755,400,-1928,208,-52,-148,-235
3760,416,-1976,200,-37,-152,-216
3765,416,-2040,176,-27,-154,-200
3770,408,-2152,160,-21,-158,-184
3775,392,-2256,152,-12,-170,-171
3780,392,-2352,200,-1,-188,-157
3785,328,-2416,272,22,-206,-143
3790,288,-2480,288,55,-228,-128
3795,232,-2520,336,92,-252,-118
3800,176,-2544,320,128,-284,-101
3805,128,-2568,344,166,-318,-87
3810,88,-2552,384,185,-346,-65
3815,32,-2520,344,195,-375,-48
3820,64,-2512,376,197,-392,-14
3825,24,-2480,432,196,-401,22
3830,40,-2456,464,201,-403,61
3835,136,-2464,544,213,-407,92
3840,216,-2408,664,236,-409,115
3845,304,-2320,712,260,-420,125
3850,360,-2264,752,275,-441,132
3855,424,-2240,776,273,-458,128
3860,456,-2224,720,245,-469,121
3865,512,-2208,704,191,-480,104
3870,552,-2256,544,111,-488,87
3875,568,-2296,440,17,-487,62
3880,648,-2368,288,-82,-477,36
3885,696,-2424,88,-185,-449,-2
3890,768,-2520,-16,-286,-412,-40
3895,896,-2648,-192,-384,-359,-101
3900,1000,-2760,-360,-503,-282,-157
3905,1080,-2864,-528,-606,-214,-219
3910,1120,-2976,-720,-698,-139,-273
3915,1224,-3056,-872,-759,-53,-332
3920,1320,-3032,-976,-771,36,-395
3925,1312,-3000,-1016,-735,133,-469
3930,1176,-2936,-960,-671,226,-536
3935,1000,-2824,-896,-587,285,-594
3940,848,-2720,-904,-491,306,-624
3945,704,-2616,-936,-399,305,-636
3950,496,-2544,-912,-303,287,-625
3955,368,-2576,-896,-233,264,-598
3960,256,-2544,-872,-168,233,-554
3965,224,-2504,-888,-100,205,-497
3970,104,-2408,-904,-32,188,-428
3975,64,-2312,-952,29,180,-353
3980,72,-2224,-984,77,178,-273
3985,96,-2120,-984,106,172,-201
3990,96,-2040,-960,106,164,-124
3995,88,-1992,-928,74,150,-35
4000,48,-1968,-920,28,134,36
4005,80,-2032,-928,-22,98,95
4010,72,-2056,-864,-67,68,149
4015,144,-2112,-896,-118,32,190
4020,272,-2168,-864,-155,24,221
4025,424,-2144,-888,-161,62,253
4030,368,-2208,-704,-193,143,292
4035,384,-2280,-608,-231,184,285
4040,560,-2344,-640,-244,192,267
4045,600,-2392,-592,-238,260,257
4050,592,-2376,-576,-227,331,254
4055,608,-2344,-528,-220,398,264
4060,592,-2336,-480,-215,449,274
4065,576,-2264,-456,-208,473,282
4070,568,-2200,-504,-197,488,297
4075,528,-2208,-448,-188,510,320
4080,440,-2144,-440,-185,526,352
4085,456,-2064,-472,-177,534,377
4090,456,-2048,-456,-166,548,408
4095,384,-2008,-432,-168,556,432
4100,336,-2000,-408,-177,551,448
4105,288,-1984,-384,-177,555,460
4110,272,-1952,-400,-158,565,476
4115,248,-1936,-368,-131,583,492
4120,296,-1888,-328,-108,602,508
4125,160,-1912,-272,-94,658,553
4130,16,-1848,-160,-82,665,561
4135,72,-1832,-168,-63,634,575
4140,88,-1776,-200,-56,621,599
4145,72,-1744,-208,-66,631,635
4150,-24,-1784,-208,-79,633,662
4155,-40,-1760,-200,-82,608,657
4160,-32,-1752,-224,-85,588,655
4165,-64,-1728,-176,-81,586,661
4170,-72,-1712,-176,-68,594,667
4175,-96,-1712,-160,-52,596,662
4180,-88,-1728,-104,-39,592,656
4185,-96,-1696,-112,-23,587,647
4190,8,-1656,-184,-14,598,651
4195,-96,-1696,-104,-21,629,671
4200,-80,-1680,-144,-22,605,650
4205,-16,-1672,-160,-27,578,622
4210,8,-1624,-200,-28,567,606
4215,56,-1616,-208,-21,559,591
4220,72,-1600,-168,-13,561,564
4225,80,-1608,-152,-7,569,533
4230,104,-1600,-152,2,575,499
4235,120,-1616,-112,21,574,472
4240,160,-1592,-104,47,572,448
4245,152,-1568,-112,67,582,429
4250,136,-1512,-72,83,598,417
4255,64,-1520,-80,95,621,417
4260,-72,-1568,0,89,635,400
4265,-104,-1552,-64,84,597,350
4270,-144,-1552,-88,70,584,306
4275,-136,-1568,-104,50,590,271
4280,-184,-1552,-120,33,601,232
4285,-200,-1576,-72,13,606,210
4290,-200,-1592,-64,0,607,193
4295,-160,-1624,-56,-6,603,179
4300,-152,-1656,0,-9,601,166
4305,-96,-1648,-8,-10,602,148
4310,-56,-1696,48,-19,613,121
4315,-16,-1744,88,-20,619,98
4320,40,-1792,152,-10,615,83
4325,120,-1824,184,8,615,67
4330,120,-1920,256,30,628,58
4335,136,-1920,232,69,630,46
4340,144,-1936,232,106,630,28
4345,144,-1944,184,131,639,17
4350,64,-2016,272,143,657,14
4355,-40,-2056,192,173,654,7
4360,-64,-2056,192,223,636,-6
4365,-96,-2064,184,264,631,-7
4370,-168,-2088,232,287,622,-4
4375,-200,-2120,224,297,614,-2
4380,-216,-2128,248,291,604,-4
4385,-176,-2144,216,274,587,-8
4390,-144,-2168,176,248,573,-18
4395,-80,-2184,176,217,562,-28
4400,-16,-2208,168,189,550,-40
4405,64,-2264,216,168,550,-51
4410,104,-2288,264,153,555,-65
4415,160,-2336,360,153,557,-79
4420,176,-2384,416,158,568,-96
4425,184,-2392,392,166,581,-107
4430,120,-2456,456,162,611,-121
4435,56,-2456,440,148,643,-128
4440,32,-2536,448,125,665,-129
4445,-40,-2648,360,86,678,-120
4450,-88,-2784,272,42,678,-100
4455,-184,-2904,160,2,663,-70
4460,-288,-3040,80,-36,632,-30
4465,-344,-3208,-112,-73,586,22
4470,-328,-3320,-272,-114,526,102
4475,-312,-3432,-376,-156,485,172
4480,-280,-3488,-560,-169,448,244
4485,-288,-3488,-728,-149,416,317
4490,-360,-3432,-880,-104,385,392
4495,-408,-3336,-1048,-42,353,473
4500,-368,-3248,-1200,15,312,548
4505,-272,-3112,-1368,62,263,610
4510,-224,-2960,-1416,105,226,659
4515,-112,-2728,-1488,145,204,698
4520,-32,-2488,-1432,191,194,715
4525,80,-2280,-1312,233,201,720
4530,96,-2128,-1120,283,214,710
4535,160,-2008,-1000,334,224,685
4540,144,-1984,-960,367,224,643
4545,136,-1984,-888,368,219,587
4550,160,-2096,-808,337,209,514
4555,216,-2216,-752,293,189,433
4560,216,-2368,-696,244,158,346
4565,192,-2480,-680,203,105,241
4570,144,-2560,-728,161,56,163
4575,104,-2624,-680,133,3,90
4580,32,-2576,-688,115,-48,20
4585,-80,-2584,-592,108,-87,-39
4590,-152,-2512,-520,110,-137,-96
4595,-256,-2440,-448,121,-172,-146
4600,-312,-2424,-344,126,-200,-189
4605,-400,-2392,-312,126,-220,-221
4610,-408,-2376,-264,119,-247,-259
4615,-408,-2344,-256,102,-298,-295
4620,-320,-2264,-248,83,-330,-319
4625,-304,-2264,-296,60,-347,-328
4630,-296,-2208,-344,32,-370,-339
4635,-256,-2216,-344,4,-400,-348
4640,-224,-2200,-344,-22,-438,-360
4645,-200,-2152,-360,-33,-474,-363
4650,-200,-2112,-376,-38,-507,-369
4655,-168,-2040,-376,-48,-543,-378
4660,-168,-1992,-424,-57,-579,-389
4665,-128,-1896,-424,-70,-607,-399
4670,-104,-1832,-424,-76,-634,-413
4675,-48,-1736,-424,-82,-657,-429
4680,56,-1744,-376,-92,-672,-447
4685,48,-1680,-360,-83,-655,-442
4690,112,-1656,-336,-88,-650,-451
4695,112,-1624,-304,-100,-652,-446
4700,208,-1608,-304,-108,-660,-452
4705,288,-1576,-336,-119,-657,-452
4710,288,-1632,-328,-124,-625,-441
4715,248,-1632,-280,-127,-613,-431
4720,256,-1680,-232,-132,-616,-428
4725,312,-1704,-208,-136,-621,-428
4730,312,-1744,-144,-131,-619,-432
4735,280,-1816,-80,-119,-624,-436
4740,272,-1832,0,-100,-634,-452
4745,296,-1832,-32,-81,-642,-466
4750,304,-1816,-16,-48,-639,-470
4755,256,-1792,-48,-10,-611,-474
4760,248,-1768,-24,18,-594,-480
4765,232,-1728,-56,31,-580,-484
4770,216,-1696,-48,40,-566,-482
4775,200,-1664,-64,38,-544,-476
4780,136,-1576,-112,30,-517,-462
4785,128,-1520,-112,15,-503,-448
4790,120,-1464,-128,2,-489,-434
4795,144,-1408,-104,-12,-462,-410
4800,168,-1408,-48,-28,-438,-385
4805,184,-1424,-32,-52,-412,-357
4810,256,-1456,-40,-73,-393,-335
4815,264,-1536,32,-92,-370,-305
4820,312,-1656,72,-109,-346,-282
4825,264,-1736,120,-116,-319,-262
4830,272,-1872,216,-113,-299,-247
4835,264,-1952,216,-98,-285,-225
4840,200,-1976,216,-81,-271,-213
4845,184,-2000,160,-74,-264,-205
4850,112,-1968,144,-73,-249,-203
4855,64,-1936,120,-80,-245,-202
4860,88,-1912,112,-93,-247,-205
4865,40,-1816,64,-121,-251,-203
4870,48,-1744,8,-157,-251,-205
4875,88,-1728,8,-202,-233,-197
4880,152,-1760,8,-245,-207,-186
4885,200,-1848,0,-280,-163,-169
4890,248,-1968,8,-297,-113,-163
4895,296,-2112,80,-296,-52,-152
4900,320,-2224,88,-272,7,-149
4905,368,-2312,208,-244,46,-145
4910,360,-2368,192,-212,77,-143
4915,344,-2416,208,-185,105,-140
4920,336,-2456,192,-168,125,-142
4925,344,-2416,192,-163,141,-144
4930,264,-2408,176,-159,164,-150
4935,240,-2352,216,-145,186,-158
4940,192,-2352,224,-130,204,-151
4945,176,-2384,216,-122,226,-135
4950,120,-2384,264,-103,233,-134
4955,104,-2424,280,-87,235,-131
4960,144,-2432,352,-77,226,-125
4965,120,-2472,384,-63,217,-114
4970,120,-2464,424,-48,210,-111
4975,128,-2480,512,-34,207,-109
4980,112,-2528,568,-14,207,-113
4985,136,-2512,656,14,211,-113
4990,136,-2464,712,40,219,-116
4995,136,-2400,672,58,229,-112
5000,224,-2376,576,61,241,-110
5005,272,-2296,480,48,257,-102
5010,320,-2240,272,14,273,-103
5015,424,-2192,112,-46,285,-103
5020,480,-2136,-40,-122,291,-116
5025,560,-2088,-224,-213,305,-129
5030,640,-2048,-376,-306,322,-151
5035,704,-2000,-488,-378,348,-170
5040,752,-1960,-512,-420,396,-202
5045,776,-1912,-496,-423,454,-229
5050,744,-1888,-448,-406,516,-271
5055,712,-1920,-424,-388,581,-307
5060,584,-1944,-440,-371,650,-348
5065,504,-1984,-408,-356,723,-388
5070,432,-1984,-432,-351,798,-429
5075,424,-1960,-384,-343,882,-453
5080,416,-1944,-360,-333,964,-469
5085,440,-1896,-352,-326,1034,-459
5090,472,-1864,-376,-327,1095,-423
5095,504,-1784,-368,-337,1135,-367
5100,504,-1776,-344,-350,1168,-310
5105,456,-1792,-416,-371,1192,-242
5110,416,-1800,-456,-405,1205,-180
5115,408,-1792,-504,-450,1207,-122
5120,376,-1864,-632,-502,1210,-72
5125,312,-1904,-624,-551,1210,-23
5130,280,-1920,-624,-585,1215,8
5135,288,-1944,-624,-604,1238,27
5140,288,-1936,-536,-608,1272,26
5145,248,-1888,-488,-596,1312,22
5150,184,-1872,-384,-586,1345,20
5155,184,-1856,-320,-582,1361,27
5160,240,-1840,-312,-594,1361,36
5165,152,-1912,-304,-640,1367,62
5170,104,-1984,-224,-687,1326,53
5175,104,-2096,-160,-713,1283,48
5180,-56,-2152,-72,-714,1236,32
5185,0,-2152,-200,-723,1149,15
5190,-104,-2240,-208,-770,1127,-2
5195,-216,-2248,-200,-787,1110,-15
5200,-296,-2232,-176,-777,1105,-27
5205,-464,-2200,-96,-751,1076,-39
5210,-416,-2176,-120,-715,1017,-51
5215,-400,-2144,-104,-688,981,-38
5220,-336,-2176,-72,-666,946,-16
5225,-288,-2184,0,-644,904,15
5230,-200,-2168,16,-622,858,66
5235,-160,-2176,32,-621,805,116
5240,-96,-2160,40,-639,753,160
5245,-64,-2160,8,-680,703,202
5250,24,-2184,-32,-718,648,240
5255,120,-2176,-24,-767,627,291
5260,-96,-2312,112,-794,644,337
5265,-72,-2224,80,-756,566,330
5270,-56,-2216,56,-712,517,321
5275,-96,-2208,160,-683,502,320
5280,-176,-2208,256,-636,461,324
5285,-184,-2192,288,-570,407,315
5290,-336,-2048,368,-513,376,310
5295,-440,-2072,416,-453,334,316
5300,-488,-2008,232,-381,283,280
5305,-528,-1936,144,-323,260,259
5310,-544,-1888,48,-265,256,251
5315,-536,-1872,8,-207,256,251
5320,-464,-1840,8,-151,251,259
5325,-536,-1800,-24,-92,251,297
5330,-432,-1720,-104,-27,255,315
5335,-264,-1680,-152,22,253,334
5340,-88,-1568,-136,72,259,348
5345,-16,-1584,-144,114,268,378
5350,136,-1432,-184,171,295,399
5355,312,-1400,-296,256,340,408
5360,472,-1456,-256,307,415,419
5365,416,-1376,-72,358,511,417
5370,496,-1400,-8,434,576,416
5375,600,-1344,64,425,621,416
5380,584,-1384,168,387,653,400
5385,632,-1416,96,386,669,402
5390,576,-1448,152,394,705,373
5395,568,-1288,208,395,767,356
5400,520,-1128,24,474,864,322
5405,624,-968,-184,537,965,322
5410,768,-872,-440,534,1031,319
5415,1104,-824,-760,508,1067,292
5420,1136,-504,-520,341,1137,292
5425,1248,-584,-512,363,1168,274
5430,1152,-608,-512,417,1134,232
5435,1336,-1080,-864,475,1087,255
5440,976,-616,-328,360,1146,233
5445,408,-672,-32,338,1271,208
5450,272,-840,-176,405,1333,189
5455,312,-808,-360,446,1362,132
5460,256,-720,-472,436,1436,89
5465,88,-632,-472,410,1474,59
5470,0,-456,-392,376,1474,62
5475,-112,-288,-456,348,1465,70
5480,-72,-240,-568,276,1430,81
5485,96,-256,-704,151,1376,98
5490,232,-320,-824,-3,1310,99
5495,304,-440,-832,-122,1252,96
5500,168,-520,-720,-194,1227,85
5505,-56,-672,-560,-240,1212,78
5510,-184,-736,-512,-263,1172,57
5515,-392,-784,-424,-295,1137,44
5520,-560,-856,-368,-331,1110,38
5525,-720,-944,-368,-368,1057,48
5530,-752,-992,-440,-431,967,63
5535,-648,-1048,-504,-528,849,77
5540,-560,-1056,-520,-638,713,67
5545,-520,-984,-456,-740,561,39
5550,-512,-896,-512,-837,400,-1
5555,-440,-760,-576,-943,251,-50
5560,-320,-648,-696,-1066,132,-137
5565,-280,-584,-840,-1239,35,-223
5570,-168,-504,-952,-1392,-29,-315
5575,-40,-504,-1016,-1526,-80,-398
5580,40,-504,-1008,-1633,-127,-482
5585,112,-568,-1032,-1728,-191,-553
5590,240,-488,-1096,-1810,-257,-614
5595,400,-424,-1248,-1865,-307,-643
5600,440,-480,-1496,-1914,-335,-656
5605,528,-704,-1784,-1993,-360,-668
5610,672,-1024,-1976,-2073,-381,-691
5615,752,-1328,-2032,-2115,-372,-713
5620,664,-1688,-2136,-2161,-358,-741
5625,792,-2048,-2344,-2267,-376,-772
5630,880,-2504,-2680,-2430,-436,-816
5635,920,-2720,-3016,-2639,-506,-865
5640,984,-2792,-3680,-2866,-570,-904
5645,744,-2760,-4672,-3118,-653,-901
5650,72,-3024,-6224,-3471,-851,-861
5655,-1144,-3488,-8360,-4083,-1391,-764
5660,-1888,-4400,-10120,-5154,-2063,-677
5665,-1080,-6232,-9216,-5831,-2528,-505
5670,-520,-7992,-6528,-5625,-2611,-113
5675,664,-8984,-4760,-4754,-2722,480
5680,2040,-8848,-4152,-3943,-2725,804
5685,2272,-8656,-3704,-3789,-2281,716
5690,2144,-7424,-3456,-4079,-1904,512
5695,2672,-6608,-3424,-4292,-1708,390
5700,3144,-5816,-3160,-4214,-1479,267
5705,2632,-4304,-2944,-3677,-1206,-65
5710,2256,-3120,-2296,-3288,-865,-476
5715,1888,-2400,-776,-3133,-488,-766
5720,1928,-1776,368,-3115,-387,-980
5725,1824,-1416,896,-3390,-395,-1180
5730,1872,-1712,656,-3870,-424,-1356
5735,1712,-2144,496,-4321,-379,-1471
5740,1336,-2360,504,-4600,-276,-1565
5745,1048,-2584,632,-4723,-194,-1579
5750,392,-2968,1048,-4729,-79,-1519
5755,-304,-3136,1376,-4591,-8,-1423
5760,-864,-3192,1472,-4386,17,-1333
5765,-1176,-3088,1096,-4124,-1,-1256
5770,-1408,-3008,696,-3864,-68,-1225
5775,-1384,-2624,432,-3690,-191,-1238
5780,-1104,-2088,328,-3627,-280,-1226
5785,-920,-1792,328,-3629,-288,-1171
5790,-672,-1504,520,-3619,-232,-1123
5795,-392,-1416,800,-3562,-140,-1085
5800,48,-1312,904,-3465,-40,-1104
5805,480,-1344,952,-3414,37,-1118
5810,904,-1288,672,-3319,101,-1124
5815,1232,-1232,384,-3156,203,-1107
5820,1464,-1128,112,-2950,372,-1096
5825,1672,-968,-136,-2733,615,-1086
5830,1856,-840,-408,-2523,905,-1077
5835,1984,-680,-520,-2341,1236,-1079
5840,2248,-440,-240,-2173,1582,-1112
5845,2392,-336,-24,-1954,2002,-1176
5850,2256,-384,-336,-1640,2302,-1197
5855,2304,-296,-528,-1593,2569,-1193
5860,2584,-272,-552,-1550,2802,-1196
5865,2384,-560,-1136,-1396,3012,-1122
5870,2760,-160,-1144,-1404,3239,-1077
5875,2400,-48,-1456,-1360,3472,-1108
5880,2304,128,-1704,-1261,3673,-1104
5885,2136,232,-1920,-1192,3815,-1071
5890,2096,360,-2152,-1121,3896,-1018
5895,2360,304,-2336,-973,3948,-1031
5900,2056,320,-2232,-850,4007,-1057
5905,1864,384,-2560,-668,4083,-1047
5910,1784,568,-2760,-506,4153,-1046
5915,1560,864,-3048,-381,4253,-1039
5920,1336,1072,-3128,-329,4332,-1037
5925,1040,1416,-2888,-354,4364,-1011
5930,688,1576,-2648,-278,4395,-1008
5935,256,1512,-2680,-106,4430,-968
5940,392,1048,-2600,-42,4357,-851
5945,648,1136,-2352,18,4221,-876
5950,-720,1648,-3128,262,4061,-990
5955,1496,2032,-4440,73,3262,-1099
5960,-1936,704,-1664,-307,2597,-1371
5965,-8,488,-1384,-301,3087,-1188
5970,-136,1248,-2464,-3,2657,-1448
5975,296,2064,-3472,35,1344,-1886
5980,1712,2504,-4328,-244,811,-2210
5985,1992,3136,-3944,-791,439,-2432
5990,5784,4832,-7552,-1778,-740,-2737
5995,392,3368,-1064,-3889,-2170,-3618
6000,312,2424,-4264,-2722,-2145,-3461
6005,3560,3192,-4264,-781,-1764,-3017
6010,4448,3016,-4648,11,-1630,-2864
6015,6408,3424,-6272,73,-1716,-2722
6020,3360,2192,-5464,-615,-1785,-2648
6025,2600,1192,-4848,-1153,-1655,-2377
6030,2864,928,-4352,-1219,-1317,-2173
6035,3000,1200,-4120,-887,-914,-2056
6040,2600,1264,-3928,-587,-740,-1937
6045,1432,856,-3080,-428,-543,-1804
6050,1704,816,-2528,-235,-308,-1702
6055,1896,912,-2248,-98,-192,-1527
6060,1472,1104,-2160,-56,-284,-1236
6065,1808,1264,-2184,4,-415,-899
6070,1696,1496,-1768,113,-484,-626
6075,1616,1744,-1768,173,-531,-460
6080,1664,1752,-1792,87,-661,-278
6085,1600,1552,-1688,-80,-706,-163
6090,1552,1320,-1472,-193,-687,-65
6095,1288,1296,-1368,-269,-690,-4
6100,1344,1528,-1368,-294,-715,41
6105,1440,1304,-1344,-274,-740,105
6110,1088,1136,-1216,-314,-803,150
6115,1112,1040,-1384,-267,-837,193
6120,1064,888,-1544,-243,-837,217
6125,1160,616,-1672,-236,-815,249
6130,1240,608,-1936,-186,-774,261
6135,1128,496,-1728,-229,-764,230
6140,1120,560,-1672,-236,-756,193
6145,1096,552,-1624,-199,-746,178
6150,1064,648,-1656,-165,-738,156
6155,1080,720,-1752,-141,-724,128
6160,1080,736,-1848,-145,-713,92
6165,1032,704,-1800,-146,-701,62
6170,912,712,-1664,-130,-675,19
6175,896,680,-1864,-81,-644,-20
6180,968,672,-1536,-105,-652,-37
6185,920,656,-1512,-136,-692,-62
6190,880,600,-1472,-111,-709,-74
6195,888,440,-1488,-88,-729,-84
6200,944,320,-1616,-42,-750,-79
6205,928,432,-1744,35,-744,-86
6210,784,360,-1720,114,-738,-93
6215,856,248,-2008,162,-753,-88
6220,840,280,-2120,134,-712,-141
6225,688,376,-1048,106,-729,-159
6230,856,768,-1920,78,-849,-115
6235,1008,800,-2432,110,-813,-67
6240,1048,352,-2192,158,-661,-42
6245,744,32,-1872,185,-555,-36
6250,696,312,-1688,194,-509,-40
6255,776,136,-1632,180,-546,-8
6260,824,224,-1656,202,-597,8
6265,752,48,-1976,265,-620,32
6270,816,-88,-2056,375,-576,39
6275,976,56,-2104,415,-527,32
6280,1008,40,-2216,415,-493,21
6285,912,104,-2248,418,-462,14
6290,912,160,-2208,407,-437,18
6295,968,224,-2344,403,-412,29
6300,984,416,-2304,416,-362,48
6305,928,352,-2256,404,-321,97
6310,920,264,-2288,408,-291,139
6315,704,200,-2128,395,-261,166
6320,728,152,-2032,356,-262,173
6325,848,464,-2008,328,-232,164
6330,904,376,-2192,317,-225,188
6335,920,368,-2408,316,-179,214
6340,936,520,-2432,285,-95,257
6345,920,632,-2352,224,11,352
6350,816,544,-2200,146,119,464
6355,864,384,-2136,114,184,541
6360,784,320,-2184,95,225,606
6365,824,312,-2088,60,252,645
6370,920,280,-2064,43,263,658
6375,920,224,-2072,35,260,625
6380,872,232,-2136,21,258,570
6385,864,232,-2104,11,272,518
6390,760,184,-2064,-7,290,466
6395,704,128,-2016,-20,299,427
6400,728,32,-1976,-30,297,400
6405,648,-40,-2000,-27,295,376
6410,664,-56,-2032,-5,297,349
6415,672,-80,-2056,10,304,330
6420,736,-32,-2080,30,319,319
6425,752,-8,-2104,51,339,307
6430,776,8,-2048,71,362,304
6435,832,-24,-2048,87,387,304
6440,880,16,-2040,109,411,309
6445,888,40,-1992,126,426,315
6450,864,112,-1936,136,430,305
6455,928,120,-1912,143,419,289
6460,888,232,-1856,144,386,285
6465,920,184,-1824,133,339,292
6470,1000,-16,-1840,114,296,309
6475,928,-48,-1864,130,278,314
6480,936,16,-1824,123,261,304
6485,936,40,-1912,100,240,305
6490,1016,-72,-1936,95,248,295
6495,1000,-40,-2008,104,279,285
6500,1000,24,-2008,112,321,265
6505,1048,8,-1992,116,356,249
6510,1032,40,-1952,94,361,246
6515,1040,64,-2016,91,367,235
6520,1096,88,-2008,73,359,236
6525,1056,80,-1952,54,345,229
6530,1064,128,-1976,45,331,228
6535,1056,176,-1912,27,307,235
6540,1048,80,-1856,6,278,244
6545,1080,112,-1912,-5,254,250
6550,1032,128,-1896,-4,221,266
6555,1080,56,-2000,-7,208,257
6560,1184,56,-1992,-9,203,238
6565,1208,48,-1952,-10,200,208
6570,1072,152,-1968,-23,192,182
6575,968,64,-1968,-53,173,173
6580,1032,0,-1872,-73,151,169
6585,1072,0,-1856,-82,114,169
6590,1096,56,-1816,-82,75,165
6595,1016,56,-1824,-63,50,151
6600,992,112,-1912,-48,47,134
6605,920,16,-1840,-61,48,118
6610,984,-96,-1840,-72,55,102
6615,1016,-168,-1792,-77,71,89
6620,1072,-232,-1744,-69,86,76
6625,1136,-296,-1816,-50,96,59
6630,1128,-224,-1864,-33,95,39
6635,1096,-64,-1912,-22,83,7
6640,1064,-8,-1888,-39,61,-15
6645,1072,-32,-1880,-67,33,-27
6650,1048,-72,-1848,-85,9,-30
6655,1040,-64,-1872,-94,-12,-37
6660,1008,0,-1888,-106,-36,-43
6665,1016,0,-1896,-118,-54,-52
6670,1016,24,-1928,-137,-71,-57
6675,976,32,-1944,-152,-86,-65
6680,944,64,-1984,-162,-94,-69
6685,936,88,-1896,-164,-102,-73
6690,944,72,-1872,-158,-105,-71
6695,928,72,-1880,-150,-111,-74
6700,944,96,-1888,-145,-115,-71
6705,936,72,-1920,-142,-122,-73
6710,928,72,-1936,-144,-126,-72
6715,936,88,-1936,-147,-128,-73
6720,920,120,-1952,-154,-129,-73
6725,952,120,-1984,-158,-127,-76
6730,952,168,-1992,-160,-123,-75
6735,968,112,-1984,-161,-117,-77
6740,944,120,-1992,-159,-113,-79
6745,968,120,-1984,-158,-111,-86
6750,968,112,-1968,-158,-109,-87
6755,976,120,-2016,-157,-103,-89
6760,968,144,-2000,-155,-99,-90
6765,952,152,-1960,-155,-94,-93
6770,960,160,-1960,-153,-90,-92
6775,936,168,-2008,-146,-87,-92
6780,944,128,-2000,-136,-84,-82
6785,936,144,-1992,-118,-78,-78
6790,936,120,-1960,-102,-69,-69
6795,960,168,-1984,-88,-59,-63
6800,944,216,-1936,-82,-47,-59
6805,912,184,-1952,-76,-40,-55
6810,904,152,-1968,-62,-35,-43
6815,928,168,-1960,-52,-32,-36
6820,960,192,-1992,-43,-28,-25
6825,944,192,-1992,-31,-23,-18
6830,936,192,-1944,-22,-22,-6
6835,936,144,-1976,-4,-22,-4
6840,920,168,-1968,6,-20,4
6845,912,168,-2000,17,-15,6
6850,952,168,-2008,23,-7,12
6855,944,144,-1960,24,0,15
6860,880,136,-1960,32,6,21
6865,904,96,-1960,37,10,20
6870,928,88,-1976,41,16,21
6875,928,120,-2000,42,26,17
6880,928,112,-1960,44,33,19
6885,936,104,-1960,47,35,19
6890,912,112,-1976,51,35,20
6895,928,96,-1952,51,32,17
6900,928,112,-1952,50,26,19
6905,920,96,-1968,48,24,15
6910,936,112,-2016,48,25,15
6915,928,104,-2040,46,31,12
6920,920,120,-1984,45,39,14
6925,928,128,-2008,43,47,13
6930,920,80,-1992,39,54,14
6935,928,88,-1984,36,61,11
6940,936,112,-2000,29,69,12
6945,928,112,-1976,20,76,9
6950,952,104,-1976,12,81,9
6955,944,64,-1992,4,83,4
6960,952,88,-1992,-3,84,5
6965,952,112,-1976,-13,82,0
6970,952,112,-1960,-25,81,0
6975,952,96,-1992,-37,79,-6
6980,960,88,-1968,-42,78,-5
6985,960,80,-1952,-48,78,-11
6990,952,104,-1976,-54,79,-10
6995,952,104,-1960,-59,79,-15
7000,960,112,-1992,-63,83,-15
7005,944,88,-1976,-64,85,-20
7010,928,16,-1976,-64,83,-20
7015,936,128,-1984,-54,82,-43
7020,928,120,-1976,-60,87,-48
7025,944,112,-2000,-60,88,-52
7030,952,136,-1968,-64,90,-49
7035,944,112,-1984,-67,92,-47
7040,928,128,-1936,-68,91,-44
7045,952,136,-1944,-68,86,-45
7050,952,136,-1904,-66,80,-41
7055,944,136,-1912,-65,72,-41
7060,944,160,-1944,-63,64,-36
7065,936,152,-1928,-59,56,-36
7070,928,128,-1960,-53,50,-33
7075,936,128,-1952,-47,43,-37
7080,936,144,-1944,-44,38,-34
7085,928,152,-1968,-44,34,-35
7090,944,160,-1936,-42,32,-28
7095,928,136,-1944,-41,29,-27
7100,936,144,-1936,-40,25,-20
7105,936,144,-1936,-40,25,-20
7110,936,128,-1944,-37,24,-13
7115,912,128,-1952,-32,23,-11
7120,952,120,-1952,-30,20,-6
7125,928,136,-1968,-27,19,-8
7130,936,144,-1960,-23,17,-4
7135,936,128,-1968,-22,17,-6
7140,944,144,-1976,-22,16,-4
7145,920,136,-1952,-21,18,-6
7150,944,144,-1976,-23,19,-3
7155,936,144,-2016,-22,23,-6
7160,936,144,-1968,-18,21,-3
7165,936,136,-1968,-18,23,-5
7170,936,128,-1976,-17,22,-1
7175,936,136,-1984,-17,25,-4
7180,944,144,-1992,-17,28,-2
7185,928,120,-2024,-20,32,-5
7190,912,120,-1992,-21,35,-2
7195,928,136,-1992,-22,39,-5
7200,928,136,-2000,-23,42,-3
7205,928,144,-1992,-25,44,-6
7210,928,112,-1984,-24,46,-6
7215,1016,240,-1816,-25,49,-7
7220,928,136,-2008,-24,50,-3
7225,936,128,-2000,-24,54,-6
7230,928,144,-1984,-23,59,-2
7235,944,136,-2016,-24,61,-5
7240,928,128,-1992,-22,64,-3
7245,936,136,-1992,-20,67,-4
7250,936,104,-2008,-19,71,-2
7255,936,120,-1960,-18,76,-3
7260,928,144,-1984,-16,80,0
7265,936,144,-2008,-14,84,-2
7270,928,136,-1952,-14,85,0
7275,928,136,-1952,-14,87,-1
7280,936,144,-1952,-12,86,1
7285,944,144,-1968,-13,86,-2
7290,944,136,-1944,-13,84,1
7295,928,136,-1944,-12,81,-1
7300,928,152,-1952,-13,79,1
7305,936,136,-1960,-12,76,-2
7310,928,144,-1944,-9,75,1
7315,912,160,-1928,-8,73,-2
7320,912,144,-1952,-9,70,0
7325,928,160,-1952,-7,68,-1
7330,920,128,-1968,-8,68,2
7335,944,128,-1952,-9,65,-1
7340,928,136,-1944,-10,65,1
7345,936,128,-1960,-12,65,-2
7350,920,152,-1976,-15,65,0
7355,928,128,-1968,-15,64,-4
7360,952,104,-1952,-17,64,-1
7365,936,144,-1992,-16,64,-3
7370,936,136,-1968,-15,65,-1
7375,944,144,-2000,-16,68,-4
7380,952,144,-2008,-15,70,-2
7385,928,144,-1976,-16,74,-5
7390,936,144,-2016,-18,76,-2
7395,928,160,-1992,-19,80,-4
7400,936,136,-1960,-20,83,-2
7405,936,128,-1968,-18,83,-4
7410,952,120,-1976,-20,86,-3
7415,936,144,-1976,-22,87,-5
7420,936,128,-1960,-23,86,-5
7425,936,144,-1984,-23,88,-6
7430,928,152,-1976,-24,91,-4
7435,944,120,-1984,-27,93,-8
7440,936,136,-1984,-30,94,-4
7445,944,112,-1976,-32,98,-5
7450,928,144,-1976,-34,99,-5
7455,936,136,-1984,-35,102,-6
7460,944,136,-1968,-37,106,-5
7465,920,136,-1976,-37,110,-6
7470,936,144,-1960,-36,115,-4
7475,952,120,-1976,-36,118,-5
7480,936,160,-1984,-35,122,-4
7485,928,144,-1984,-35,128,-4
7490,952,152,-2008,-38,133,-2
7495,952,128,-2000,-40,136,-3
7500,952,136,-2000,-42,141,-3
7505,968,136,-2000,-42,143,-5
7510,944,128,-2000,-43,145,-4
7515,968,136,-1984,-42,148,-5
7520,952,136,-1984,-42,151,-3
7525,960,144,-1976,-41,153,-4
7530,968,120,-1968,-40,155,-2
7535,960,112,-1968,-40,154,-4
7540,952,136,-1968,-41,156,-4
7545,976,144,-1952,-42,156,-3
7550,952,200,-1968,-41,157,-3
7555,960,152,-1944,-39,158,-3
7560,952,152,-1944,-38,157,-1
7565,944,160,-1952,-34,154,-4
7570,944,152,-1912,-32,152,0
7575,944,152,-1952,-29,150,-1
7580,936,160,-1944,-27,148,1
7585,960,144,-1896,-25,146,-1
7590,960,144,-1936,-23,146,1
7595,944,152,-1920,-24,147,-1
7600,960,136,-1968,-23,146,0
7605,936,136,-1928,-27,146,-2
7610,968,136,-1920,-28,145,-1
7615,960,136,-1920,-30,142,-2
7620,968,136,-1920,-31,139,-2
7625,968,136,-1936,-30,133,-4
7630,976,112,-1928,-26,127,-2
7635,976,144,-1960,-25,121,-2
7640,984,144,-1944,-25,116,-3
7645,968,152,-1928,-27,114,-4
7650,968,144,-1944,-30,113,-3
7655,976,128,-1912,-32,111,-5
7660,984,152,-1928,-36,111,-5
7665,968,176,-1944,-36,108,-7
7670,976,144,-1936,-36,106,-6
7675,984,152,-1952,-34,105,-6
7680,976,152,-1936,-34,100,-5
7685,992,144,-1928,-33,96,-6
7690,992,136,-1872,-30,90,-6
7695,984,144,-1928,-29,88,-7
7700,976,160,-1928,-30,83,-7
7705,1000,160,-1904,-30,81,-7
7710,984,152,-1952,-29,77,-6
7715,968,168,-1944,-27,72,-6
7720,984,144,-1936,-27,71,-5
7725,1008,144,-1944,-28,69,-6
7730,976,152,-1904,-27,66,-7
7735,960,144,-1920,-27,65,-9
7740,992,184,-1920,-26,63,-8
7745,960,144,-1920,-26,60,-8
7750,976,152,-1912,-28,58,-8
7755,984,144,-1904,-29,53,-8
7760,976,152,-1928,-28,48,-7
7765,976,144,-1928,-30,45,-9
7770,960,160,-1928,-28,39,-8
7775,960,128,-1912,-28,37,-8
7780,968,160,-1944,-26,35,-7
7785,976,168,-1928,-26,33,-7
7790,976,144,-1952,-25,31,-8
7795,992,144,-1904,-25,30,-8
7800,976,136,-1952,-25,30,-7
7805,976,128,-1952,-25,28,-7
7810,976,144,-1936,-26,28,-6
7815,976,152,-1936,-26,28,-8
7820,968,168,-1920,-29,26,-7
7825,976,168,-1912,-28,25,-8
7830,976,152,-1944,-29,25,-8
7835,976,136,-1920,-28,24,-10
7840,952,144,-1968,-26,25,-8
7845,960,176,-1944,-26,26,-8
7850,968,160,-1968,-27,28,-6
7855,968,152,-1944,-27,30,-7
7860,968,144,-1968,-25,33,-6
7865,968,152,-1936,-23,34,-7
7870,984,160,-1944,-24,35,-7
7875,968,136,-1952,-26,38,-6
7880,960,152,-1944,-26,41,-7
7885,968,160,-1976,-26,44,-6
7890,968,152,-1960,-28,48,-7
7895,976,160,-1960,-30,50,-5
7900,976,136,-1968,-30,55,-6
7905,984,144,-1976,-30,55,-6
7910,952,152,-1952,-29,56,-7
7915,960,152,-1952,-31,58,-6
7920,960,152,-1976,-29,59,-6
7925,960,136,-1976,-27,61,-7
7930,968,184,-1952,-26,63,-7
7935,1000,160,-1952,-27,67,-8
7940,968,168,-1944,-26,68,-9
7945,976,144,-1976,-27,74,-9
7950,960,168,-1952,-26,73,-9
7955,984,144,-1960,-26,74,-6
7960,984,152,-1936,-25,72,-7
7965,976,176,-1928,-24,73,-5
7970,984,176,-1936,-23,72,-7
7975,952,168,-1944,-23,72,-7
7980,960,144,-1952,-24,74,-8
7985,968,168,-1968,-24,75,-7
7990,968,176,-1952,-22,74,-6
7995,968,160,-1952,-23,73,-6
8000,952,176,-1928,-22,73,-5
8005,960,160,-1936,-22,70,-5
8010,952,168,-1952,-20,67,-5
8015,984,152,-1928,-20,64,-6
8020,960,176,-1936,-19,64,-5
8025,976,152,-1920,-19,61,-3
8030,968,152,-1920,-17,59,-5
8035,976,168,-1944,-15,57,-5
8040,976,160,-1920,-16,54,-5
8045,960,152,-1952,-16,52,-4
8050,984,152,-1928,-16,50,-5
8055,968,176,-1928,-17,48,-4
8060,992,160,-1912,-17,48,-6
8065,960,160,-1928,-18,48,-6
8070,960,184,-1912,-18,47,-7
8075,984,152,-1944,-21,45,-6
8080,968,168,-1984,-23,43,-8
8085,976,144,-1952,-23,42,-6
8090,976,160,-1952,-24,44,-8
8095,984,168,-1960,-25,43,-8
8100,976,160,-1952,-26,44,-10
8105,976,160,-1952,-27,44,-10
8110,976,192,-1960,-29,43,-11
8115,992,152,-1952,-30,42,-12
8120,976,160,-1936,-29,43,-13
8125,976,176,-1936,-27,43,-11
8130,968,160,-1976,-26,43,-13
8135,936,184,-1968,-25,44,-10
8140,976,184,-1944,-25,43,-11
8145,960,176,-1960,-25,43,-7
8150,968,160,-1960,-25,43,-8
8155,984,152,-1952,-26,42,-7
8160,968,144,-1944,-26,41,-9
8165,976,176,-1936,-26,41,-8
8170,968,160,-1928,-25,39,-9
8175,952,168,-1976,-24,39,-7
8180,960,160,-1952,-20,39,-7
8185,960,168,-1976,-18,37,-6
8190,960,160,-1952,-17,38,-7
8195,968,152,-1992,-19,38,-7
8200,976,176,-1976,-22,39,-8
8205,968,160,-1968,-24,39,-6
8210,960,168,-1960,-24,41,-7
8215,960,168,-1952,-23,41,-6
8220,976,168,-1952,-22,43,-8
8225,960,184,-1952,-21,43,-6
8230,960,176,-1952,-18,45,-7
8235,944,168,-1952,-16,44,-4
8240,952,176,-1952,-13,48,-5
8245,968,168,-1952,-11,49,-2
8250,952,176,-1944,-11,49,-3
8255,952,160,-1920,-12,51,-2
8260,984,160,-1960,-11,51,-2
8265,960,176,-1952,-9,50,1
8270,960,192,-1976,-9,52,0
8275,944,160,-1968,-7,53,1
8280,968,136,-1936,-5,54,-2
8285,952,168,-1952,-3,57,-1
8290,960,184,-1936,-4,58,-1
8295,944,184,-1960,-5,59,1
8300,952,168,-1960,-6,58,-1
8305,952,168,-1976,-6,59,0
8310,960,160,-1944,-6,60,-1
8315,960,184,-1960,-6,60,1
8320,968,176,-1936,-6,60,0
8325,960,168,-1936,-7,61,-1
8330,952,144,-1920,-8,62,-3
8335,976,152,-1968,-8,63,0
8340,984,152,-1976,-10,63,-2
8345,968,176,-1976,-9,63,0
8350,968,176,-1928,-9,62,-2
8355,952,176,-1952,-11,60,-1
8360,992,168,-1920,-12,60,-4
8365,984,160,-1960,-13,59,-2
8370,960,168,-1928,-16,58,-5
8375,944,176,-1960,-16,59,-2
8380,952,184,-1952,-14,61,-4
8385,960,176,-1976,-14,61,-2
8390,960,168,-1936,-16,62,-5
8395,976,176,-1960,-16,61,-4
8400,968,144,-1944,-16,61,-6
8405,976,144,-1936,-16,60,-2
8410,968,176,-1936,-16,60,-5
8415,968,168,-1912,-15,59,-4
8420,960,168,-1944,-15,58,-5
8425,968,168,-1952,-17,59,-3
8430,960,152,-1960,-17,60,-6
8435,968,152,-1936,-16,59,-4
8440,984,168,-1944,-15,58,-5
8445,960,168,-1936,-15,57,-2
8450,960,168,-1944,-15,55,-5
8455,968,176,-1960,-15,58,-3
8460,976,160,-1944,-14,57,-5
8465,968,168,-1976,-15,59,-2
8470,976,160,-1920,-16,59,-4
8475,968,160,-1968,-16,58,-3
8480,976,160,-1952,-14,60,-5
8485,968,168,-1944,-13,58,-1
8490,968,160,-1944,-12,60,-4
8495,952,184,-1920,-12,57,-1
8500,952,168,-1944,-11,57,-4
8505,944,160,-1952,-12,57,-2
8510,960,184,-1968,-11,57,-3
8515,952,168,-1960,-10,57,-2
8520,968,160,-1944,-12,56,-4
8525,984,160,-1944,-12,57,-3
8530,976,160,-1960,-12,58,-5
8535,968,176,-1952,-11,58,-2
8540,944,168,-1920,-11,57,-3
8545,968,168,-1920,-10,58,0
8550,968,160,-1912,-11,58,-3
8555,944,168,-1928,-11,58,0
8560,976,160,-1944,-11,57,-4
8565,952,184,-1960,-12,59,-2
8570,968,144,-1928,-11,60,-3
8575,968,192,-1960,-11,59,-1
8580,976,136,-1944,-12,59,-2
8585,960,168,-1944,-11,59,-1
8590,952,184,-1920,-12,57,-4
8595,968,136,-1936,-11,59,-1
8600,976,168,-1944,-12,60,-5
8605,976,160,-1968,-11,60,-2
8610,952,176,-1944,-11,61,-4
8615,968,176,-1952,-11,60,-1
8620,968,160,-1960,-12,59,-3
8625,984,152,-1968,-12,57,0
8630,968,160,-1952,-13,58,-3
8635,984,168,-1928,-13,59,-1
8640,960,168,-1960,-12,58,-4
8645,968,160,-1928,-13,57,-1
8650,976,176,-1968,-12,56,-5
8655,952,168,-1968,-14,58,-3
8660,976,144,-1944,-15,57,-7
8665,968,168,-1976,-15,57,-4
8670,968,168,-1944,-15,55,-7
8675,944,160,-1944,-14,56,-5
8680,952,144,-1968,-15,56,-7
8685,960,160,-1928,-13,56,-5
8690,984,168,-1944,-12,57,-8
8695,968,160,-1936,-9,59,-7
8700,976,184,-1960,-7,61,-10
8705,968,168,-1960,-9,63,-8
8710,976,168,-1936,-10,62,-9
8715,976,144,-1952,-11,61,-5
8720,952,168,-1968,-14,62,-6
8725,952,184,-1928,-16,60,-4
8730,952,160,-1944,-19,58,-6
8735,968,152,-1952,-21,58,-4
8740,976,160,-1944,-19,57,-6
8745,984,152,-1960,-16,55,-1
8750,960,184,-1944,-12,54,-5
8755,968,168,-1936,-12,54,-3
8760,984,192,-1944,-14,55,-6
8765,944,184,-1984,-15,60,-3
8770,976,176,-1936,-18,62,-5
8775,960,168,-1960,-18,65,-3
8780,968,176,-1952,-20,68,-6
8785,968,168,-1960,-18,69,-2
8790,992,160,-1928,-17,69,-5
8795,976,168,-1960,-16,69,-3
8800,968,184,-1960,-14,70,-6
8805,968,160,-1936,-11,72,-3
8810,976,176,-1984,-9,74,-6
8815,968,144,-1960,-8,74,-7
8820,936,192,-1952,-4,78,-13
8825,960,176,-1936,-7,77,-8
8830,968,176,-1944,-8,74,-7
8835,944,176,-1960,-6,74,-2
8840,968,168,-1952,-5,71,-2
8845,960,152,-1888,-5,70,0
8850,968,160,-1976,-4,69,-3
8855,976,176,-1936,-5,68,1
8860,960,168,-1976,-6,67,-2
8865,952,176,-1888,-6,66,1
8870,960,144,-1920,-6,64,-2
8875,960,168,-1912,-8,61,1
8880,968,184,-1944,-8,59,-2
8885,992,168,-1936,-10,58,0
8890,968,168,-1928,-9,56,-3
8895,952,168,-1936,-11,53,-1
8900,976,144,-1928,-12,54,-3
8905,968,168,-1944,-13,52,-2
8910,960,168,-1912,-13,50,-5
8915,952,152,-1936,-14,50,-2
8920,984,176,-1952,-12,48,-4
8925,976,160,-1968,-13,48,-1
8930,952,160,-1936,-13,49,-3
8935,992,184,-1936,-13,49,-1
8940,960,160,-1960,-13,46,-3
8945,960,184,-1912,-13,45,-2
8950,984,136,-1936,-13,45,-4
8955,968,184,-1944,-15,48,-2
8960,960,160,-1960,-15,48,-5
8965,960,160,-1952,-16,49,-2
8970,952,176,-1936,-17,51,-4
8975,960,168,-1952,-17,52,-2
8980,968,168,-1968,-17,51,-4
8985,960,168,-1944,-16,50,-2
8990,960,152,-1952,-15,49,-6
8995,952,168,-1936,-14,48,-4
9000,984,144,-1960,-13,51,-6
9005,968,160,-1976,-14,53,-5
9010,968,168,-1960,-15,54,-6
9015,1064,144,-1944,-17,54,-4
9020,968,168,-1968,-18,54,-7
9025,944,168,-1944,-18,54,-5
9030,952,168,-1960,-16,56,-6
9035,952,176,-1928,-16,56,-4
9040,976,152,-1944,-16,55,-6
9045,944,184,-1944,-17,53,-3
9050,952,184,-1928,-17,52,-4
9055,952,168,-1952,-15,52,-2
9060,976,176,-1968,-14,53,-3
9065,976,176,-1952,-13,52,-2
9070,960,176,-1960,-13,52,-3
9075,960,176,-1944,-12,53,-2
9080,984,176,-1968,-12,54,-3
9085,992,168,-1936,-12,55,-2
9090,976,144,-1928,-12,55,-3
9095,960,192,-1936,-14,56,-2
9100,968,160,-1968,-14,56,-2
9105,952,168,-1944,-13,58,-1
9110,960,176,-1960,-12,58,-3
9115,976,144,-1928,-11,57,-1
9120,944,160,-1952,-11,59,-3
9125,952,168,-1976,-12,60,-1
9130,944,152,-1960,-10,61,-3
9135,968,160,-1968,-10,60,-1
9140,952,184,-1976,-10,62,-2
9145,944,184,-1952,-10,61,0
9150,936,192,-1960,-9,62,-1
9155,952,168,-1952,-8,61,0
9160,960,136,-1928,-8,63,-1
9165,968,176,-1952,-8,62,1
9170,992,160,-1944,-7,61,-1
9175,936,168,-1936,-8,61,1
9180,952,152,-1928,-7,61,0
9185,944,160,-1960,-7,62,-1
9190,952,200,-1936,-8,62,0
9195,952,152,-1960,-7,63,0
9200,976,160,-1952,-9,63,-1
9205,952,152,-1944,-9,63,0
9210,952,160,-1944,-9,62,-1
9215,952,144,-1944,-7,63,-1
9220,976,160,-1928,-10,62,-3
9225,976,184,-1952,-8,61,-2
9230,984,192,-1928,-9,60,-6
9235,936,200,-1944,-9,60,-6
9240,960,160,-1944,-10,58,-6
9245,960,152,-1928,-10,58,-6
9250,992,168,-1968,-9,58,-6
9255,936,200,-1968,-10,58,-5
9260,960,184,-1968,-10,58,-7
9265,976,168,-1992,-11,57,-6
9270,952,168,-1944,-11,54,-7
9275,944,200,-1936,-11,53,-6
9280,952,160,-1944,-12,54,-5
9285,968,168,-1968,-11,53,-4
9290,976,168,-1928,-10,53,-3
9295,984,168,-1976,-10,51,-3
9300,960,152,-1936,-11,53,-4
9305,960,184,-1936,-12,53,-5
9310,960,184,-1936,-15,54,-6
9315,960,152,-1936,-17,54,-6
9320,968,176,-1936,-20,52,-7
9325,952,176,-1912,-18,50,-4
9330,952,168,-1944,-14,47,-3
9335,960,144,-1968,-11,45,-3
9340,952,152,-1992,-12,44,-3
9345,944,168,-1968,-14,45,-4
9350,968,184,-1952,-15,47,-5
9355,952,168,-1944,-18,48,-5
9360,960,184,-1952,-18,49,-5
9365,968,152,-1936,-19,51,-7
9370,952,168,-1952,-17,51,-11
9375,976,176,-1960,-13,54,-12
9380,976,208,-1944,-10,55,-13
9385,968,168,-1928,-11,54,-10
9390,960,168,-1968,-13,53,-7
9395,968,168,-1976,-12,52,-3
9400,976,176,-1976,-12,49,-4
9405,960,168,-1936,-10,50,-1
9410,968,184,-1968,-10,50,-1
9415,976,152,-1944,-10,51,0
9420,968,176,-1960,-9,53,0
9425,960,168,-1968,-9,53,-2
9430,976,168,-1952,-8,53,-1
9435,960,168,-1968,-8,54,0
9440,968,136,-1944,-8,53,0
9445,984,152,-1904,-9,54,0
9450,968,160,-1960,-7,55,1
9455,952,160,-1968,-8,55,1
9460,960,160,-1976,-10,56,0
9465,960,160,-1960,-9,54,-1
9470,960,168,-1976,-7,55,2
9475,960,176,-1936,-8,54,1
9480,936,168,-1960,-6,55,0
9485,960,176,-1952,-7,56,-1
9490,960,160,-1944,-8,56,0
9495,952,160,-1968,-8,57,0
9500,976,144,-1936,-8,56,0
9505,960,168,-1984,-8,55,0
9510,1000,144,-1976,-8,55,-1
9515,976,168,-1960,-9,56,-1
9520,960,184,-1936,-11,55,0
9525,944,176,-1960,-9,55,-2
9530,960,168,-1944,-8,56,-2
9535,952,168,-1968,-9,56,-5
9540,952,160,-1952,-10,54,-3
9545,960,184,-1928,-10,54,-3
9550,968,168,-1960,-11,55,-1
9555,960,176,-1960,-10,55,-2
9560,992,152,-1936,-11,56,1
9565,936,168,-1952,-12,56,-1
9570,976,144,-1920,-12,55,-1
9575,960,160,-1936,-11,56,-2
9580,960,184,-1960,-12,56,-2
9585,960,160,-1976,-12,58,-3
9590,960,184,-1928,-13,60,-2
9595,968,184,-1936,-13,61,-2
9600,976,144,-1960,-14,60,-2
9605,952,168,-1920,-15,60,-2
9610,960,168,-1976,-15,59,-1
9615,976,144,-1976,-16,59,-3
9620,952,184,-1968,-17,57,-2
9625,968,152,-1960,-17,58,-3
9630,960,176,-1912,-17,58,-1
9635,928,192,-1968,-18,55,-4
9640,960,184,-1944,-18,55,-4
9645,952,160,-1960,-17,55,-4
9650,976,168,-1960,-19,55,-4
9655,968,168,-1960,-19,53,-5
9660,960,152,-1928,-18,54,-4
9665,960,160,-1976,-18,54,-4
9670,960,160,-1936,-18,53,-2
9675,944,168,-1960,-19,55,-4
9680,952,152,-1968,-17,54,-3
9685,952,184,-1928,-17,53,-4
9690,968,160,-1944,-17,52,-2
9695,944,176,-1920,-17,51,-4
9700,960,160,-1920,-17,51,-4
9705,960,128,-1952,-17,51,-4
9710,968,184,-1944,-18,51,-2
9715,960,152,-1944,-17,51,-4
9720,960,184,-1952,-17,50,-2
9725,968,176,-1960,-17,49,-4
9730,960,176,-1944,-17,48,-2
9735,968,160,-1960,-18,50,-3
9740,944,176,-1936,-19,48,-1
9745,960,176,-1920,-18,47,-3
9750,944,184,-1936,-19,47,-3
9755,968,176,-1920,-18,47,-5
9760,952,168,-1928,-18,48,-1
9765,968,192,-1960,-17,47,-2
9770,968,168,-1968,-18,48,-1
9775,968,168,-1944,-18,49,-3
9780,968,168,-1960,-17,50,-2
9785,976,160,-1976,-16,51,-4
9790,960,160,-1968,-19,53,-3
9795,944,184,-1960,-18,54,-4
9800,960,168,-1944,-19,57,-2
9805,952,184,-1960,-21,58,-5
9810,968,168,-1944,-21,58,-3
9815,944,168,-1952,-21,59,-5
9820,952,184,-1992,-21,60,-3
9825,960,144,-1952,-22,61,-5
9830,952,176,-1928,-24,63,-4
9835,952,160,-1920,-24,65,-6
9840,944,176,-1936,-24,67,-3
9845,944,176,-1992,-24,68,-5
9850,960,176,-1944,-26,69,-4
9855,984,168,-1960,-27,70,-6
9860,960,176,-1944,-27,71,-4
9865,960,168,-1952,-28,72,-6
9870,952,176,-1960,-29,71,-4
9875,944,176,-1952,-28,69,-6
9880,944,160,-1936,-28,68,-4
9885,960,168,-1976,-27,65,-6
9890,976,168,-1928,-26,66,-3
9895,936,184,-1944,-24,67,-4
9900,952,184,-1936,-25,66,-2
9905,960,160,-1928,-23,67,-5
9910,952,184,-1944,-23,66,-2
9915,960,168,-1952,-23,65,-4
9920,952,184,-1976,-21,64,-3
9925,968,192,-1936,-22,62,-6
9930,968,152,-1936,-24,62,-1
9935,952,184,-1912,-23,61,-5
9940,944,192,-1928,-24,59,-2
9945,968,176,-1928,-23,55,-4
9950,952,192,-1944,-19,53,-1
9955,968,168,-1952,-16,48,-3
9960,976,184,-1968,-14,47,-2
9965,960,192,-1976,-16,47,-5
9970,952,160,-1944,-17,51,-2
9975,968,176,-1968,-19,52,-4
9980,984,160,-1952,-21,53,-3
9985,944,176,-1944,-23,53,-4
9990,952,192,-1952,-22,52,-3
9995,976,176,-1960,-20,51,-5
10000,952,184,-1968,-18,51,-3
10005,952,160,-1968,-18,49,-4
10010,944,200,-1944,-16,51,-3
10015,976,160,-1960,-17,50,-4
10020,968,168,-1960,-14,50,-2
10025,952,200,-1976,-14,50,-5
10030,960,176,-1952,-13,52,-1
10035,968,152,-1976,-12,53,-3
10040,960,176,-1960,-13,53,0
10045,960,200,-1936,-13,53,-4
10050,968,168,-1960,-14,54,-2
10055,960,184,-1944,-14,55,-4
10060,944,168,-1952,-12,55,-2
10065,984,176,-1968,-13,55,-5
10070,944,192,-1960,-14,55,-2
10075,944,176,-1960,-13,56,-4
10080,960,160,-1984,-12,57,0
10085,968,176,-1960,-12,57,-3
10090,952,168,-1952,-13,59,-1
10095,960,176,-1952,-11,61,-5
10100,976,176,-1960,-12,59,-2
10105,960,184,-1960,-13,60,-3
10110,968,160,-1944,-13,60,1
10115,936,160,-1952,-13,61,-3
10120,968,192,-1944,-15,61,-2
10125,984,176,-1968,-15,59,-3
10130,960,176,-1952,-15,60,0
10135,952,168,-1944,-13,58,-3
10140,936,184,-1928,-15,57,-1
10145,960,176,-1960,-15,57,-3
10150,952,168,-1952,-16,58,1
10155,960,184,-1936,-17,57,-3
10160,960,168,-1936,-17,57,0
10165,944,160,-1952,-17,57,-3
10170,960,168,-1944,-16,59,-1
10175,976,176,-1944,-16,57,-5
10180,952,176,-1968,-16,59,-2
10185,976,160,-1936,-18,59,-3
10190,944,144,-1936,-18,59,-1
10195,960,176,-1920,-19,60,-4
10200,936,168,-1928,-18,59,-2
10205,952,168,-1936,-17,60,-4
10210,952,176,-1960,-18,63,-2
10215,952,184,-1944,-18,61,-5
10220,944,176,-1944,-17,60,-3
10225,936,160,-1944,-19,59,-4
10230,960,176,-1960,-21,57,-2
10235,960,168,-1952,-20,55,-4
10240,960,160,-1960,-21,55,-2
10245,960,168,-1952,-19,54,-4
10250,952,168,-1920,-18,56,-2
10255,960,168,-1968,-19,55,-5
10260,952,184,-1944,-19,54,-2
10265,952,184,-1960,-19,54,-4
10270,960,176,-1952,-19,53,-1
10275,944,184,-1920,-20,54,-3
10280,944,176,-1968,-18,54,-2
10285,976,184,-1944,-18,54,-5
10290,952,192,-1944,-16,55,-2
10295,968,200,-1960,-16,54,-3
10300,968,160,-1960,-15,54,0
10305,960,176,-1928,-15,55,-2
10310,936,192,-1976,-15,54,0
10315,952,184,-1920,-15,55,-3
10320,952,184,-1952,-14,56,-3
10325,952,192,-1944,-14,55,-4
10330,960,168,-1936,-15,55,-1
10335,968,192,-1952,-14,55,-3
10340,936,168,-1952,-15,58,-1
10345,952,184,-1952,-14,58,-4
10350,952,184,-1976,-14,58,-1
10355,952,184,-1936,-14,58,-3
10360,944,160,-1928,-14,58,0
10365,936,152,-1928,-14,57,-2
10370,952,192,-1952,-15,57,-1
10375,968,184,-1968,-14,56,-4
10380,968,168,-1928,-14,56,-2
10385,952,168,-1952,-14,55,-4
10390,976,152,-1952,-15,55,-1
10395,968,184,-1968,-15,54,-3
10400,968,152,-1960,-15,53,-2
10405,960,168,-1944,-17,55,-3
10410,960,168,-1952,-16,55,-2
10415,968,168,-1960,-16,53,-3
10420,968,176,-1968,-17,54,-1
10425,944,176,-1928,-17,55,-2
10430,976,168,-1936,-16,57,-1
10435,960,160,-1976,-16,58,-3
10440,952,192,-1952,-17,59,-1
10445,952,192,-1928,-16,60,-2
10450,952,176,-1968,-16,60,1
10455,968,168,-1936,-16,61,-1
10460,952,176,-1968,-16,60,1
10465,936,168,-1928,-17,61,-1
10470,944,176,-1944,-16,61,-1
10475,976,184,-1952,-15,61,-3
10480,944,176,-1944,-16,61,-2
10485,952,168,-1936,-14,59,-2
10490,952,176,-1968,-13,59,-1
10495,960,184,-1944,-12,58,-2
10500,960,176,-1992,-12,57,-1
10505,952,168,-1976,-13,59,-2
10510,968,176,-1968,-12,62,-1
10515,968,200,-1944,-12,62,-3
10520,944,184,-1968,-10,62,0
10525,944,192,-1952,-8,62,-1
10530,952,176,-1952,-8,63,0
10535,952,192,-1952,-8,62,-2
10540,960,160,-1952,-8,64,1
10545,984,160,-1968,-8,64,-2
10550,944,184,-1952,-9,65,-2
10555,968,168,-1968,-11,66,-2
10560,944,176,-1928,-12,65,-2
10565,952,192,-1928,-14,63,-2
10570,936,168,-1928,-16,61,-1
10575,976,160,-1912,-15,61,-2
10580,944,160,-1928,-14,60,0
10585,968,168,-1960,-12,59,-2
10590,952,168,-1968,-9,58,0
10595,936,184,-1992,-9,59,-2
10600,968,184,-1976,-10,60,-1
10605,960,176,-1968,-13,60,-1
10610,944,168,-1944,-16,62,-1
10615,944,184,-1952,-17,62,-2
10620,944,176,-1944,-18,62,-1
10625,944,184,-1928,-17,62,-2
10630,944,168,-1952,-15,60,-2
10635,968,184,-1928,-15,61,-3
10640,944,184,-1968,-14,59,-2
10645,960,176,-1952,-11,58,-2
10650,968,160,-1944,-9,60,-1
10655,944,176,-1936,-8,60,-1
10660,968,176,-1960,-11,60,-1
10665,968,176,-1984,-11,61,0
10670,960,176,-1984,-10,59,0
10675,952,168,-1944,-11,58,-2
10680,960,176,-1976,-11,57,-1
10685,944,176,-1960,-9,58,-2
10690,952,184,-1944,-8,57,-1
10695,984,160,-1952,-7,57,-2
10700,968,184,-1952,-7,58,0
10705,952,176,-1928,-6,59,0
10710,968,192,-1968,-6,59,0
10715,944,176,-1928,-7,59,-1
10720,944,160,-1944,-10,59,-1
10725,960,176,-1960,-7,59,-2
10730,960,192,-1960,-8,60,0
10735,960,184,-1984,-8,61,-1
10740,960,160,-1960,-9,60,0
10745,952,176,-1952,-8,60,-1
10750,968,184,-1968,-8,59,-1
10755,976,192,-1976,-9,59,-1
10760,968,160,-1936,-10,61,-1
10765,976,176,-1936,-12,60,0
10770,960,168,-1984,-12,60,-1
10775,944,168,-1960,-11,61,-1
10780,960,192,-1944,-11,62,-1
10785,968,184,-1928,-11,62,-1
10790,968,176,-1944,-11,63,0
10795,936,208,-1952,-11,64,0
10800,976,176,-1984,-12,65,-1
10805,976,168,-1960,-12,65,-1
10810,928,152,-1976,-13,66,0
10815,976,160,-1936,-11,67,0
10820,968,192,-1976,-12,66,-1
10825,960,168,-1936,-12,64,-1
10830,960,176,-1952,-11,66,-1
10835,968,168,-1936,-12,66,-2
10840,944,168,-1944,-12,66,-3
10845,944,176,-1928,-11,68,-2
10850,952,192,-1952,-10,66,0
10855,960,200,-1936,-11,65,0
10860,944,184,-1952,-11,64,-1
10865,960,176,-1960,-10,64,-1
10870,944,168,-1928,-11,63,-1
10875,992,176,-1960,-11,62,0
10880,960,168,-1952,-10,61,0
10885,976,160,-1912,-10,62,0
10890,952,184,-1952,-9,61,-1
10895,968,168,-1976,-9,60,0
10900,952,168,-1960,-10,60,0
10905,944,200,-1976,-11,61,-1
10910,968,160,-1976,-11,60,-1
10915,960,160,-1944,-11,58,-1
10920,976,176,-1960,-10,58,-1
10925,960,176,-1912,-9,59,-1
10930,968,200,-1976,-10,59,-1
10935,960,200,-1944,-11,58,0
10940,960,176,-1952,-11,58,-1
10945,944,192,-1944,-12,58,0
10950,944,176,-1936,-10,59,-1
10955,936,176,-1952,-11,59,1
10960,952,184,-1928,-12,59,1
10965,976,168,-1952,-11,59,-1
10970,952,184,-1960,-11,60,-1
10975,968,160,-1936,-13,60,-1
10980,952,160,-1960,-11,59,-2
10985,960,192,-1968,-11,60,1
10990,968,176,-1976,-10,59,-1
10995,944,184,-1936,-11,59,0
11000,952,184,-1960,-11,61,-2
11005,944,192,-1952,-11,62,-1
11010,976,168,-1920,-12,61,-1
11015,944,168,-1976,-12,62,-1
11020,968,160,-1944,-12,60,-2
11025,976,168,-1960,-11,60,-2
11030,952,184,-1960,-13,61,-3
11035,960,184,-1944,-13,63,0
11040,960,160,-1952,-13,63,-2
11045,1008,176,-1960,-14,62,-1
11050,968,192,-1952,-14,63,0
11055,960,152,-1944,-14,61,0
11060,952,184,-1952,-14,61,-2
11065,968,160,-1944,-16,63,-2
11070,952,184,-1960,-15,61,-2
11075,952,192,-1936,-14,62,-1
11080,944,168,-1952,-14,62,-2
11085,984,184,-1944,-14,64,0
11090,968,192,-1952,-13,64,-3
11095,952,192,-1976,-13,64,0
11100,976,168,-1960,-14,62,-2
11105,944,168,-1960,-12,62,-2
11110,968,176,-1960,-14,62,-3
11115,944,184,-1912,-13,60,-3
11120,960,184,-1936,-11,61,-3
11125,984,176,-1944,-11,60,-1
11130,976,168,-1968,-11,59,-2
11135,960,176,-1928,-11,59,0
11140,968,176,-1936,-11,60,-2
11145,944,192,-1960,-11,62,0
11150,960,192,-1936,-10,62,-1
11155,984,176,-1944,-10,62,0
11160,952,168,-1920,-9,61,-2
11165,976,184,-1968,-10,61,0
11170,976,160,-1960,-11,62,-3
11175,984,192,-1944,-11,61,0
11180,968,192,-1952,-10,61,-2
11185,952,176,-1952,-8,61,0
11190,992,152,-1944,-9,61,-2
11195,968,176,-1960,-9,61,-1
11200,968,160,-1928,-7,60,0
11205,976,160,-1936,-8,63,2
11210,952,168,-1936,-7,65,-1
11215,976,168,-1920,-8,65,1
11220,968,184,-1920,-9,65,-2
11225,968,176,-1928,-11,67,1
11230,960,184,-1936,-13,65,-3
11235,952,192,-1912,-14,65,0
11240,968,160,-1904,-16,66,-3
11245,968,176,-1896,-14,63,0
11250,960,168,-1944,-12,61,0
11255,960,200,-1968,-9,59,1
11260,960,160,-1960,-9,57,-2
11265,976,160,-1976,-12,59,-1
11270,960,160,-1992,-14,59,-4
11275,984,160,-1976,-14,60,-3
11280,944,160,-1920,-14,63,-5
11285,976,176,-1928,-16,65,-2
11290,960,168,-1960,-16,65,-6
11295,960,168,-1968,-15,64,-3
11300,960,176,-1920,-13,63,-4
11305,968,152,-1944,-12,63,-5
11310,968,168,-1960,-10,63,-11
11315,944,200,-1928,-9,64,-12
11320,960,176,-1968,-9,63,-12
11325,952,184,-1952,-8,62,-7
11330,952,184,-1920,-7,61,-8
11335,952,160,-1960,-7,61,-8
11340,1000,152,-1936,-5,62,-13
11345,952,200,-1968,2,66,-16
11350,960,224,-1936,0,70,-20
11355,960,152,-1968,-4,68,-10
11360,960,184,-1944,-5,65,-8
11365,976,168,-1960,-7,65,-4
11370,960,152,-1960,-7,65,-6
11375,968,168,-1952,-7,66,-3
11380,960,192,-1944,-7,69,-5
11385,968,168,-1944,-6,70,-5
11390,984,160,-1984,-5,71,-8
11395,968,176,-1952,-7,71,-6
11400,968,184,-1960,-6,71,-8
11405,952,184,-1968,-8,70,-6
11410,968,168,-1928,-7,70,-6
11415,936,192,-1960,-8,68,-2
11420,960,152,-1952,-9,70,-4
11425,952,176,-1952,-9,69,0
11430,976,160,-1952,-9,66,-2
11435,960,168,-1944,-8,69,-1
11440,968,152,-1944,-8,70,-2
11445,960,160,-1952,-8,69,0
11450,968,176,-1960,-8,69,-2
11455,976,184,-1944,-8,68,0
11460,952,168,-1936,-8,68,-3
11465,952,176,-1960,-7,67,1
11470,960,192,-1976,-7,67,-2
11475,984,168,-1936,-8,67,0
11480,976,160,-1936,-8,66,-2
11485,984,168,-1960,-7,63,0
11490,968,168,-1912,-7,61,-4
11495,944,176,-1944,-5,61,-3
11500,984,160,-1928,-4,63,-6
11505,968,160,-1936,-3,64,-7
11510,968,152,-1968,-2,65,-9
11515,960,208,-1936,-2,65,-6
11520,952,184,-1960,-2,64,-9
11525,976,152,-1936,0,65,-6
11530,976,152,-1920,-1,64,-9
11535,1000,144,-1904,-2,63,-6
11540,944,160,-1928,-3,63,-9
11545,976,168,-1920,-4,62,-7
11550,960,168,-1944,-6,60,-11
11555,968,168,-1960,-8,61,-8
11560,968,168,-1960,-9,60,-10
11565,960,168,-1936,-11,60,-9
11570,960,192,-1952,-11,61,-12
11575,960,160,-1936,-10,61,-9
11580,992,176,-1952,-9,64,-13
11585,960,176,-1912,-9,64,-11
11590,960,168,-1944,-9,63,-13
11595,968,184,-1952,-10,62,-10
11600,968,192,-1928,-12,62,-10
11605,984,176,-1960,-13,62,-8
11610,968,176,-1952,-13,61,-9
11615,984,176,-1960,-13,61,-5
11620,952,176,-1944,-11,60,-7
11625,960,184,-1952,-12,59,-5
11630,952,184,-1936,-11,61,-7
11635,960,176,-1952,-10,61,-5
11640,984,160,-1920,-11,61,-6
11645,960,176,-1944,-9,61,-3
11650,960,168,-1952,-10,61,-5
11655,984,176,-1936,-11,61,-2
11660,952,176,-1936,-9,60,-4
11665,984,168,-1944,-9,60,-1
11670,976,192,-1944,-9,60,-3
11675,960,160,-1928,-10,62,0
11680,968,168,-1960,-10,62,-3
11685,976,152,-1960,-9,63,0
11690,984,168,-1936,-9,65,-3
11695,976,176,-1960,-9,64,1
11700,960,152,-1968,-10,67,-2
11705,984,160,-1936,-11,66,0
11710,968,184,-1936,-12,67,-2
11715,984,184,-1960,-13,67,-1
11720,968,176,-1960,-12,68,-3
11725,984,160,-1960,-13,70,-1
11730,968,168,-1952,-12,69,-5
11735,968,160,-1960,-11,69,-3
11740,968,176,-1936,-11,70,-8
11745,960,176,-1920,-9,70,-6
11750,976,168,-1952,-10,71,-8
11755,984,168,-1976,-8,70,-7
11760,968,168,-1984,-6,70,-9
11765,984,168,-1960,0,71,-6
11770,952,192,-1952,0,73,-10
11775,960,184,-1952,-1,74,-7
11780,992,176,-1968,-4,74,-8
11785,984,136,-1944,-5,74,-4
11790,984,176,-1944,-8,73,-5
11795,960,176,-1960,-9,73,-2
11800,952,184,-1896,-9,72,-5
11805,960,176,-1928,-9,70,-2
11810,992,176,-1936,-10,70,-4
11815,984,184,-1936,-10,70,-1
11820,992,152,-1920,-11,67,-4
11825,968,168,-1944,-11,66,-4
11830,968,168,-1952,-13,66,-5
11835,968,160,-1928,-12,66,-3
11840,968,168,-1960,-12,66,-6
11845,976,168,-1928,-12,66,-4
11850,968,168,-1944,-12,65,-6
11855,960,184,-1928,-12,66,-5
11860,984,160,-1912,-11,65,-5
11865,984,168,-1944,-13,62,-3
11870,944,168,-1928,-12,61,-4
11875,944,176,-1920,-12,62,-2
11880,976,176,-1968,-13,61,-4
11885,960,184,-1936,-13,58,-2
11890,968,168,-1904,-14,60,-4
11895,960,160,-1960,-15,59,-2
11900,952,184,-1952,-15,59,-3
11905,976,184,-1952,-13,60,-1
11910,952,176,-1976,-13,60,-4
11915,968,160,-1936,-12,59,-1
11920,984,176,-1944,-12,59,-3
11925,984,168,-1976,-12,59,-2
11930,968,176,-1944,-11,58,-3
11935,968,184,-1920,-11,58,0
11940,968,152,-1936,-10,59,-1
11945,984,160,-1936,-10,57,0
11950,968,168,-1904,-10,58,-2
11955,960,192,-1944,-12,58,-2
11960,968,184,-1944,-13,57,-3
11965,968,192,-1944,-15,59,-1
11970,952,152,-1928,-17,59,-5
11975,968,168,-1888,-17,59,-2
11980,968,152,-1944,-14,58,-2
11985,992,184,-1944,-13,58,0
11990,976,160,-1960,-9,57,-1
11995,960,176,-1944,-8,56,0
12000,960,184,-1952,-10,57,-2
12005,960,168,-1944,-13,60,-1
12010,968,176,-1952,-14,63,-3
12015,968,168,-1936,-16,64,-2
12020,976,144,-1960,-15,65,-4
12025,944,176,-1960,-15,64,-5
12030,976,160,-1944,-14,64,-7
12035,1000,168,-1968,-11,63,-7
12040,944,176,-1928,-10,62,-9
12045,960,184,-1936,-8,63,-7
12050,968,176,-1928,-9,62,-9
12055,984,152,-1936,-9,63,-5
12060,960,176,-1912,-9,63,-5
12065,968,168,-1944,-9,62,-2
12070,984,192,-1952,-11,62,-3
12075,968,152,-1976,-10,62,-2
12080,984,160,-1952,-9,61,-3
12085,976,144,-1952,-10,61,-2
12090,1000,144,-1920,-11,61,-4
12095,968,152,-1968,-9,60,-2
12100,976,168,-1944,-8,61,-4
12105,976,176,-1952,-8,60,-4
12110,976,144,-1952,-7,61,-4
12115,952,184,-1944,-7,62,-4
12120,976,168,-1952,-6,61,-4
12125,968,160,-1976,-7,62,-4
12130,952,160,-1952,-7,62,-4
12135,968,168,-1936,-8,62,-4
12140,976,176,-1944,-9,62,-4
12145,976,160,-1952,-9,61,-3
12150,984,152,-1952,-10,63,-3
12155,984,176,-1944,-10,62,-3
12160,984,176,-1968,-10,62,-2
12165,976,160,-1960,-11,63,-2
12170,976,144,-1952,-13,62,-2
12175,960,184,-1936,-13,62,-1
12180,992,176,-1952,-12,63,0
12185,984,152,-1952,-13,64,-1
12190,968,160,-1960,-12,61,-1
12195,968,152,-1944,-12,62,-1
12200,960,160,-1928,-13,62,-1
12205,952,192,-1936,-14,62,-1
12210,960,160,-1944,-14,61,-1
12215,952,184,-1936,-14,63,-1
12220,984,192,-1944,-15,61,-1
12225,984,176,-1920,-14,61,-1
12230,984,144,-1952,-14,61,-2
12235,984,168,-1928,-14,61,-2
12240,976,176,-1960,-12,63,-2
12245,984,192,-1960,-13,63,-2
12250,976,176,-1952,-12,62,-2
12255,976,192,-1952,-12,62,-1
12260,992,184,-1952,-13,63,-2
12265,960,160,-1920,-14,63,-1
12270,984,168,-1936,-14,63,-1
12275,992,160,-1944,-15,62,-1
12280,976,184,-1936,-15,60,-2
12285,968,184,-1928,-15,59,-1
12290,984,176,-1944,-15,59,-1
12295,960,192,-1960,-13,59,-2
12300,984,184,-1928,-13,57,0
12305,992,176,-1936,-14,57,-2
12310,976,192,-1960,-16,59,-2
12315,976,144,-1952,-16,59,-2
12320,960,192,-1952,-15,60,-3
12325,968,176,-1912,-16,61,-2
12330,984,160,-1912,-15,60,-4
12335,968,192,-1960,-13,60,-2
12340,960,168,-1936,-12,57,0
12345,1000,168,-1976,-14,58,-1
12350,952,176,-1936,-12,56,0
12355,984,176,-1960,-11,56,-2
12360,968,176,-1920,-12,56,-1
12365,984,160,-1936,-11,55,-3
12370,984,176,-1928,-12,54,-2
12375,984,176,-1952,-13,55,-2
12380,968,192,-1968,-14,57,-1
12385,984,168,-1928,-15,56,-2
12390,952,176,-1928,-15,55,-2
12395,976,184,-1936,-14,55,-3
12400,984,176,-1952,-15,54,-2
12405,984,200,-1944,-16,52,-3
12410,976,168,-1912,-17,50,-2
12415,984,176,-1944,-17,51,-3
12420,968,160,-1944,-18,51,-3
12425,976,176,-1960,-18,50,-4
12430,976,160,-1960,-19,51,-1
12435,976,152,-1960,-18,52,-2
12440,976,176,-1944,-18,52,-1
12445,968,176,-1960,-18,50,-2
12450,960,168,-1928,-18,51,-2
12455,976,192,-1944,-17,52,-1
12460,976,184,-1944,-17,54,-2
12465,984,160,-1928,-18,53,-4
12470,952,176,-1944,-18,54,-4
12475,984,160,-1936,-19,53,-5
12480,984,176,-1960,-19,52,-3
12485,960,192,-1936,-20,52,-5
12490,960,152,-1952,-19,51,-3
12495,960,168,-1968,-19,51,-4
12500,976,184,-1944,-19,51,-3
12505,968,160,-1960,-18,51,-4
12510,960,160,-1928,-19,50,-3
12515,968,176,-1944,-18,50,-3
12520,984,160,-1936,-18,51,-2
12525,976,152,-1928,-18,51,-3
12530,952,192,-1936,-18,51,-3
12535,984,168,-1936,-19,50,-3
12540,976,160,-1920,-20,49,-2
12545,968,184,-1968,-19,49,-2
12550,960,176,-1920,-21,50,-2
12555,968,184,-1936,-21,50,-3
12560,952,160,-1952,-20,50,-2
12565,952,168,-1904,-19,50,-3
12570,968,176,-1920,-20,50,-1
12575,976,208,-1944,-21,50,-4
12580,984,168,-1936,-20,49,-1
12585,984,168,-1952,-20,49,-4
12590,976,152,-1960,-20,48,-2
12595,952,176,-1936,-21,48,-5
12600,992,152,-1952,-19,48,-2
12605,976,160,-1928,-20,48,-4
12610,920,120,-1904,-19,49,-2
12615,952,152,-1960,-20,50,-5
12620,976,184,-1936,-20,50,-2
12625,968,168,-1944,-20,51,-4
12630,952,168,-1920,-20,51,-1
12635,976,168,-1936,-21,49,-3
12640,976,168,-1920,-21,51,-2
12645,976,152,-1960,-19,51,-3
12650,968,176,-1952,-21,49,-2
12655,976,184,-1976,-20,48,-4
12660,976,176,-1952,-21,49,-1
12665,968,160,-1920,-21,49,-4
12670,968,176,-1936,-20,48,-1
12675,976,184,-1912,-22,50,-3
12680,960,200,-1944,-23,48,-2
12685,976,208,-1928,-23,48,-4
12690,1000,160,-1912,-22,48,-2
12695,960,168,-1968,-22,49,-4
12700,960,160,-1912,-22,48,-2
12705,960,192,-1952,-21,48,-3
12710,944,176,-1960,-19,49,0
12715,968,160,-1936,-19,49,-3
12720,992,168,-1952,-17,50,-1
12725,976,160,-1936,-15,54,-2
12730,960,160,-1944,-17,56,-2
12735,960,168,-1960,-17,54,-4
12740,944,176,-1960,-19,54,-1
12745,952,160,-1936,-20,53,-4
12750,984,168,-1944,-22,52,-2
12755,976,168,-1896,-24,50,-5
12760,960,176,-1920,-22,48,-3
12765,968,168,-1912,-20,45,-4
12770,960,184,-1944,-17,43,0
12775,960,168,-1984,-15,44,-3
12780,952,176,-1960,-15,43,-1
12785,992,160,-1960,-17,47,-3
12790,976,152,-1936,-20,51,-2
12795,960,168,-1976,-24,55,-4
12800,960,192,-1968,-23,57,-2
12805,968,184,-1968,-23,57,-5
12810,976,168,-1952,-23,57,-3
12815,960,168,-1952,-21,56,-4
12820,968,168,-1960,-19,56,-2
12825,968,184,-1920,-17,55,-4
12830,960,176,-1944,-14,55,-2
12835,976,184,-1952,-13,53,-3
12840,952,200,-1928,-11,53,-1
12845,960,176,-1936,-12,54,-3
12850,968,160,-1952,-12,54,-1
12855,968,200,-1952,-11,53,-2
12860,960,192,-1952,-12,55,0
12865,944,208,-1936,-13,55,-2
12870,984,168,-1968,-12,55,0
12875,1000,168,-1936,-14,55,-2
12880,952,176,-1968,-12,53,0
12885,976,160,-1936,-13,53,-2
12890,952,168,-1952,-13,52,0
12895,968,184,-1960,-14,51,-2
12900,952,160,-1936,-16,53,1
12905,968,176,-1968,-14,52,-2
12910,968,168,-1936,-14,53,0
12915,968,160,-1952,-13,52,-2
12920,976,192,-1960,-13,52,0
12925,960,160,-1936,-14,52,-1
12930,952,192,-1952,-13,52,0
12935,960,176,-1928,-13,54,-1
12940,944,192,-1960,-15,53,0
12945,968,168,-1944,-15,54,-2
12950,976,176,-1960,-14,55,-1
12955,984,176,-1944,-16,53,-2
12960,960,160,-1952,-17,53,0
12965,944,192,-1936,-17,54,-3
12970,968,176,-1960,-17,53,-2
12975,960,208,-1976,-18,53,-3
12980,952,176,-1952,-16,53,0
12985,976,168,-1936,-16,54,-3
12990,968,184,-1952,-16,53,0
12995,968,176,-1920,-16,52,-2
13000,960,184,-1976,-17,53,0
13005,968,168,-1936,-17,53,-3
13010,976,192,-1920,-16,53,-1
13015,968,176,-1944,-18,51,-3
13020,968,176,-1944,-17,52,-1
13025,976,192,-1968,-16,52,-2
13030,944,184,-1944,-16,52,1
13035,976,176,-1952,-17,51,-3
13040,960,168,-1936,-15,52,-1
13045,936,184,-1912,-16,51,-3
13050,952,184,-1936,-16,51,-1
13055,992,168,-1952,-16,51,-4
13060,960,184,-1936,-19,50,-1
13065,960,184,-1952,-19,49,-4
13070,968,168,-1944,-19,48,-2
13075,984,184,-1912,-19,49,-4
13080,952,200,-1968,-19,47,-1
13085,968,168,-1960,-19,48,-3
13090,944,184,-1944,-20,49,-2
13095,960,168,-1936,-21,50,-4
13100,960,192,-1968,-21,50,-1
13105,960,192,-1936,-20,49,-4
13110,968,192,-1920,-19,50,-3
13115,968,168,-1936,-21,49,-4
13120,968,176,-1936,-20,50,-2
13125,960,184,-1912,-20,50,-4
13130,976,176,-1944,-18,50,-3
13135,984,192,-1936,-17,48,-5
13140,968,144,-1936,-17,48,-1
13145,968,176,-1936,-16,50,-3
13150,952,192,-1928,-17,50,-1
13155,960,176,-1960,-17,49,-5
13160,976,176,-1944,-17,50,-1
13165,976,176,-1944,-17,50,-4
13170,976,184,-1936,-16,48,0
13175,960,152,-1952,-15,49,-4
13180,984,160,-1944,-15,49,-1
13185,944,176,-1928,-15,49,-4
13190,968,192,-1952,-16,49,-2
13195,976,184,-1952,-18,50,-4
13200,944,192,-1944,-17,50,-1
13205,960,184,-1944,-18,51,-3
13210,952,208,-1968,-18,50,0
13215,968,168,-1944,-17,51,-4
13220,960,176,-1952,-17,52,-1
13225,960,184,-1952,-19,52,-2
13230,952,168,-1968,-18,53,-1
13235,968,184,-1944,-17,52,-4
13240,960,192,-1960,-16,52,-1
13245,968,184,-1920,-16,53,-3
13250,960,168,-1968,-17,53,-1
13255,976,184,-1944,-17,53,-2
13260,968,176,-1960,-16,53,0
13265,944,208,-1960,-17,53,-1
13270,952,176,-1960,-15,53,-1
13275,952,168,-1936,-16,52,-3
13280,960,184,-1928,-16,53,-1
13285,952,168,-1968,-16,52,-2
13290,952,184,-1984,-16,54,0
13295,960,192,-1976,-16,52,-2
13300,952,192,-1944,-16,52,0
13305,952,192,-1968,-16,52,-3
13310,968,176,-1968,-16,52,-1
13315,960,192,-1944,-16,53,-2
13320,968,168,-1960,-15,54,-2
13325,968,184,-1928,-16,53,-3
13330,976,168,-1928,-16,55,-1
13335,960,184,-1928,-17,55,-3
13340,968,192,-1968,-15,57,-1
13345,968,176,-1928,-16,56,-3
13350,944,184,-1952,-15,54,0
13355,968,160,-1928,-16,54,-2
13360,984,176,-1944,-16,53,-2
13365,960,192,-1944,-15,53,-3
13370,984,176,-1928,-15,52,-2
13375,944,184,-1936,-15,53,-3
13380,960,184,-1968,-14,53,0
13385,976,168,-1944,-14,51,-2
13390,936,184,-1944,-15,51,0
13395,952,192,-1944,-14,51,-3
13400,952,184,-1928,-13,50,-1
13405,952,160,-1968,-11,51,-2
13410,944,208,-1928,-10,51,1
13415,952,160,-1944,-10,53,0
13420,976,176,-1952,-9,53,1
13425,952,192,-1968,-8,54,0
13430,952,176,-1960,-8,55,0
13435,944,200,-1944,-8,55,-1
13440,968,184,-1952,-8,56,1
13445,968,152,-1960,-7,56,0
13450,960,192,-1960,-8,57,-1
13455,952,200,-1936,-9,58,-1
13460,944,160,-1944,-13,58,-1
13465,960,200,-1920,-12,57,-2
13470,936,184,-1944,-13,57,-1
13475,968,176,-1952,-12,56,-2
13480,952,184,-1960,-7,55,0
13485,952,192,-1968,-7,56,-1
13490,960,184,-2000,-10,58,1
13495,944,184,-1984,-12,61,-2
13500,960,184,-1984,-15,62,-1
13505,960,200,-1936,-15,64,-2
13510,952,184,-1960,-16,64,-3
13515,968,192,-1944,-16,64,-2
13520,976,200,-1976,-15,63,0
13525,976,168,-1936,-14,61,-1
13530,984,176,-1952,-11,61,0
13535,968,192,-1928,-10,61,0
13540,960,192,-1968,-10,59,1
13545,944,192,-1968,-9,61,-1
13550,968,184,-1976,-10,61,-1
13555,960,176,-1952,-9,60,-1
13560,952,192,-1952,-9,60,0
13565,968,192,-1936,-8,61,-1
13570,968,200,-1944,-7,61,-2
13575,944,168,-1960,-8,62,-2
13580,968,184,-1944,-6,63,0
13585,952,160,-1944,-6,63,0
13590,968,184,-1952,-5,64,-1
13595,952,184,-1944,-6,63,0
13600,968,176,-1936,-7,64,0
13605,960,184,-1960,-6,63,-1
13610,968,168,-1936,-6,66,0
13615,968,184,-1944,-6,64,0
13620,960,168,-1952,-7,62,1
13625,944,184,-1928,-6,63,-1
13630,952,192,-1976,-9,64,1
13635,952,168,-1960,-8,62,0
13640,968,160,-1912,-7,62,1
13645,992,184,-1952,-6,59,0
13650,976,168,-1960,-7,61,2
13655,960,184,-1968,-8,63,1
13660,960,184,-1928,-8,63,0
13665,960,184,-1952,-7,64,0
13670,976,144,-1944,-8,64,0
13675,952,192,-1936,-7,63,0
13680,952,152,-1976,-6,63,1
13685,952,184,-1928,-7,62,0
13690,952,176,-1976,-10,62,0
13695,976,176,-1952,-10,63,1
13700,944,184,-1936,-11,66,0
13705,936,192,-1960,-12,65,-2
13710,968,168,-1968,-13,66,-2
13715,960,168,-1952,-12,66,-2
13720,960,168,-1920,-13,65,0
13725,968,176,-1960,-11,65,-2
13730,960,192,-1944,-12,64,-2
13735,952,160,-1968,-9,65,-1
13740,968,184,-1960,-9,66,-1
13745,1000,160,-1944,-9,65,-1
13750,968,176,-1968,-10,66,-1
13755,952,176,-1936,-10,66,-1
13760,960,152,-1960,-8,66,1
13765,984,192,-1968,-10,68,-1
13770,944,192,-1944,-10,68,-1
13775,960,192,-1952,-10,67,-1
13780,968,160,-1944,-10,68,1
13785,968,184,-1960,-9,68,1
13790,952,208,-1968,-9,67,1
13795,968,160,-1944,-8,69,0
13800,976,192,-1960,-9,70,0
13805,952,184,-1936,-9,71,2
13810,960,184,-1952,-10,69,1
13815,968,168,-1936,-6,70,0
13820,952,176,-1952,-7,70,0
13825,968,168,-1968,-8,69,2
13830,960,192,-1920,-9,70,0
13835,960,184,-1944,-8,70,1
13840,952,184,-1944,-9,69,-1
13845,960,176,-1960,-7,70,0
13850,960,160,-1960,-8,71,-1
13855,944,184,-1968,-9,70,0
13860,960,176,-1952,-8,68,-1
13865,952,184,-1968,-9,68,-1
13870,952,192,-1944,-9,68,0
13875,960,168,-1960,-9,69,1
13880,952,176,-1928,-10,67,0
13885,952,184,-1952,-10,67,2
13890,960,168,-1968,-10,68,0
13895,952,176,-1952,-10,68,-1
13900,952,192,-1960,-11,67,-2
13905,976,168,-1952,-10,68,0
13910,968,192,-1960,-9,69,0
13915,976,184,-1960,-11,68,1
13920,960,176,-1960,-11,67,1
13925,976,192,-1952,-9,67,1
13930,960,176,-1952,-8,67,0
13935,984,168,-1952,-9,66,0
13940,960,200,-1944,-9,67,0
13945,968,160,-1912,-10,65,0
13950,944,168,-1960,-10,64,-1
13955,1000,160,-1952,-10,66,-2
13960,960,184,-1928,-11,66,-1
13965,944,192,-1944,-10,66,1
13970,968,176,-1952,-11,64,-2
13975,952,192,-1936,-10,63,0
13980,952,176,-1920,-10,62,0
13985,976,160,-1984,-9,62,0
13990,952,200,-1944,-11,63,-1
13995,976,168,-1944,-10,61,1
14000,944,176,-1952,-10,64,-1
14005,976,168,-1952,-9,63,0
14010,984,176,-1944,-8,63,-1
14015,960,176,-1960,-9,64,1
14020,968,168,-1936,-8,63,0
14025,968,192,-1944,-9,62,1
14030,1008,168,-2008,-10,63,-3
14035,976,152,-1952,-9,63,1
14040,976,192,-1920,-9,61,-2
14045,960,192,-1952,-7,61,0
14050,976,184,-1968,-8,62,0
14055,952,176,-1960,-9,63,0
14060,960,176,-1928,-8,61,-2
14065,992,176,-1968,-7,62,1
14070,960,176,-1952,-8,62,0
14075,992,184,-1944,-7,61,1
14080,968,176,-1936,-8,61,0
14085,976,160,-1960,-8,61,1
14090,952,176,-1952,-7,62,-1
14095,960,168,-1952,-6,61,0
14100,968,200,-1944,-6,63,-1
14105,968,184,-1968,-5,64,1
14110,968,168,-1944,-4,62,0
14115,976,176,-1944,-4,61,2
14120,984,152,-1944,-2,63,0
14125,984,176,-1944,-2,63,2
14130,992,160,-1960,-2,66,-1
14135,968,160,-1984,-4,66,2
14140,976,160,-2000,-3,66,-1
14145,968,160,-1968,-3,66,1
14150,960,144,-1944,-5,68,-1
14155,952,160,-1960,-5,67,1
14160,968,160,-1920,-7,67,-1
14165,952,168,-1904,-6,67,1
14170,968,168,-1944,-6,67,-1
14175,960,168,-1928,-4,67,2
14180,984,160,-1984,-2,66,1
14185,976,160,-1976,-2,66,1
14190,976,192,-1952,-4,68,-1
14195,968,168,-1928,-5,69,1
14200,968,160,-1952,-9,72,-1
14205,952,184,-1920,-11,73,0
14210,960,184,-1944,-10,73,-3
14215,984,160,-1952,-10,72,-1
14220,968,160,-1976,-10,72,-3
14225,976,184,-1904,-8,71,-2
14230,1008,176,-1944,-8,70,-2
14235,1000,168,-1920,-7,70,0
14240,992,176,-1928,-7,70,-2
14245,984,176,-1968,-6,69,0
14250,976,184,-1944,-6,70,-2
14255,976,168,-1944,-7,70,0
14260,976,176,-1904,-7,70,-2
14265,968,160,-1960,-7,68,-1
14270,968,192,-1936,-6,66,-2
14275,976,184,-1920,-6,66,0
14280,952,184,-1936,-8,65,-3
14285,984,176,-1952,-8,65,0
14290,984,152,-1952,-8,64,-2
14295,952,168,-1952,-8,65,0
14300,968,152,-1936,-10,64,-2
14305,992,152,-1960,-9,66,0
14310,960,176,-1952,-9,66,-3
14315,968,184,-1944,-8,65,-1
14320,992,160,-1928,-9,63,-5
14325,968,160,-1928,-8,64,-2
14330,968,176,-1928,-8,64,-6
14335,968,184,-1968,-8,64,-4
14340,984,160,-1944,-10,64,-5
14345,1000,176,-1944,-8,64,-2
14350,984,136,-1960,-10,64,-4
14355,968,168,-1928,-10,63,-1
14360,984,136,-1928,-9,64,-3
14365,968,168,-1920,-8,65,-1
14370,984,168,-1936,-10,64,-4
14375,976,176,-1928,-9,65,-2
14380,968,160,-1944,-10,65,-6
14385,984,168,-1936,-9,63,-4
14390,984,184,-1976,-9,62,-7
14395,976,192,-1960,-7,63,-5
14400,976,168,-1944,-7,61,-6
14405,960,216,-2008,-7,61,-3
14410,992,168,-1928,-8,60,-6
14415,968,152,-1936,-9,61,-3
14420,984,152,-1960,-8,61,-5
14425,976,152,-1936,-8,61,-3
14430,968,152,-1944,-7,63,-5
14435,976,152,-1936,-5,63,-2
14440,976,168,-1944,-6,63,-5
14445,968,176,-1944,-4,62,-3
14450,960,168,-1928,-4,60,-5
14455,976,168,-1928,-4,60,-4
14460,968,152,-1944,-3,59,-6
14465,960,184,-1896,-5,59,-3
14470,960,160,-1928,-5,59,-6
14475,976,176,-1944,-6,59,-3
14480,984,152,-1968,-7,57,-5
14485,976,176,-1968,-7,56,0
14490,968,152,-1944,-6,58,-3
14495,976,160,-1960,-6,57,-1
14500,984,168,-1960,-7,56,-4
14505,968,176,-1960,-9,58,-1
14510,960,168,-1920,-9,58,-3
14515,968,176,-1912,-9,59,0
14520,984,192,-1952,-10,60,-3
14525,984,168,-1960,-11,59,-1
14530,960,160,-1944,-10,58,-3
14535,984,176,-1960,-12,58,-1
14540,960,176,-1968,-10,58,-4
14545,976,160,-1968,-12,57,-1
14550,992,168,-1944,-11,60,-4
14555,984,184,-1952,-12,60,-3
14560,968,200,-1944,-12,60,-5
14565,968,168,-1952,-12,61,-2
14570,976,176,-1936,-12,62,-4
14575,984,152,-1944,-12,61,-3
14580,1008,176,-1936,-12,59,-5
14585,976,168,-1952,-11,60,-2
14590,968,144,-1912,-11,60,-5
14595,968,184,-1928,-12,60,-3
14600,968,160,-1920,-10,58,-5
14605,960,160,-1960,-10,57,-4
14610,992,168,-1920,-7,58,-8
14615,960,160,-1936,-3,58,-7
14620,960,192,-1944,-3,58,-8
14625,984,168,-1936,-7,56,-4
14630,952,184,-1968,-12,57,-5
14635,984,176,-1952,-13,55,-1
14640,976,168,-1952,-15,54,-3
14645,992,176,-1960,-17,53,-2
14650,944,168,-1936,-19,54,-4
14655,960,160,-1952,-20,56,-3
14660,968,144,-1936,-19,56,-4
14665,976,144,-1944,-20,55,-1
14670,1000,168,-1944,-22,54,-2
14675,976,192,-1928,-21,55,-2
14680,984,152,-1920,-22,55,-4
14685,960,184,-1936,-23,53,-3
14690,976,176,-1952,-22,52,-5
14695,960,176,-1936,-23,52,-3
14700,968,208,-1936,-23,52,-5
14705,968,200,-1888,-22,51,-2
14710,984,168,-1928,-20,53,-3
14715,984,176,-1936,-21,53,-2
14720,968,184,-1920,-21,53,-3
14725,992,176,-1952,-20,52,-2
14730,984,176,-1944,-21,52,-4
14735,960,192,-1960,-23,51,-3
14740,960,176,-1944,-22,50,-5
14745,976,192,-1944,-22,47,-3
14750,976,184,-1936,-23,48,-5
14755,968,168,-1912,-24,46,-4
14760,952,192,-1920,-24,46,-5
14765,976,176,-1944,-23,45,-4
14770,976,152,-1960,-24,45,-5
14775,968,176,-1936,-23,45,-3
14780,968,176,-1952,-22,44,-5
14785,968,184,-1944,-23,46,-3
14790,984,168,-1920,-21,47,-6
14795,968,152,-1944,-21,45,-2
14800,976,176,-1920,-23,44,-4
14805,976,176,-1928,-22,42,-3
14810,976,192,-1944,-22,41,-4
14815,968,160,-1952,-23,43,-2
14820,952,184,-1936,-22,42,-3
14825,968,152,-1952,-23,41,-1
14830,968,168,-1968,-22,42,-5
14835,960,176,-2000,-23,43,-2
14840,952,184,-1960,-22,46,-5
14845,968,168,-1944,-22,46,-4
14850,944,160,-1944,-23,45,-4
14855,976,160,-1952,-23,45,-3
14860,976,184,-1936,-22,45,-3
14865,960,184,-1952,-22,44,-2
14870,984,168,-1968,-21,46,-4
14875,960,160,-1960,-21,46,-3
14880,944,176,-1960,-20,47,-3
14885,968,168,-1968,-20,49,-2
14890,984,176,-1944,-20,49,-3
14895,968,160,-1928,-20,50,-4
14900,976,176,-1952,-21,49,-4
14905,952,176,-1936,-21,49,-3
14910,944,184,-1928,-21,50,-5
14915,976,160,-1952,-22,49,-4
14920,984,176,-1864,-24,47,-4
14925,960,184,-1912,-22,45,-3
14930,968,152,-1960,-21,44,-3
14935,960,168,-1952,-18,43,-2
14940,976,168,-1968,-18,41,-3
14945,976,184,-1968,-17,44,-3
14950,960,176,-1968,-20,44,-4
14955,960,184,-1952,-22,47,-4
14960,960,176,-1920,-24,48,-4
14965,992,160,-1952,-25,50,-3
14970,984,184,-1944,-26,51,-4
14975,968,192,-1920,-26,51,-2
14980,960,168,-1944,-23,49,-5
14985,976,160,-1944,-24,48,-4
14990,984,168,-1976,-23,48,-4
