timestamp,accel_x,accel_y,accel_z,gyro_x,gyro_y,gyro_z
0,360,-2144,-328,242,-55,26
5,368,-2176,-328,264,-16,31
10,400,-2200,-336,277,16,38
15,392,-2216,-360,284,40,43
20,384,-2216,-392,283,65,54
25,336,-2216,-360,281,84,61
30,264,-2192,-368,278,103,66
35,248,-2184,-376,275,121,82
40,200,-2152,-344,261,141,98
45,136,-2128,-328,251,160,110
50,120,-2080,-320,241,182,119
55,96,-2056,-328,229,201,124
60,48,-2056,-288,211,217,129
65,16,-2040,-256,188,231,136
70,16,-2016,-232,166,240,140
75,-16,-1984,-248,146,244,142
80,-8,-2008,-184,130,246,152
85,0,-2024,-208,121,240,164
90,-48,-2008,-184,112,232,175
95,-32,-2000,-216,104,225,190
100,-56,-1896,-216,89,219,207
105,-24,-1936,-240,61,214,225
110,-32,-1984,-176,39,205,232
115,-56,-1976,-184,24,195,236
120,-16,-1992,-176,11,190,242
125,56,-2024,-208,-3,190,247
130,8,-2024,-256,-23,191,249
135,112,-2048,-192,-52,199,256
140,176,-2080,-160,-79,212,265
145,208,-2088,-152,-88,228,269
150,232,-2088,-168,-87,244,273
155,336,-2136,-152,-85,262,280
160,344,-2104,-128,-83,278,273
165,376,-2088,-96,-87,298,263
170,416,-2088,-128,-94,322,262
175,408,-2080,-112,-99,355,265
180,432,-2032,-112,-108,391,270
185,400,-2064,-64,-119,425,273
190,456,-2040,-112,-128,463,275
195,416,-2040,-88,-127,500,275
200,408,-2040,-72,-121,532,273
205,344,-2032,-72,-114,560,272
210,320,-2040,-48,-100,584,269
215,312,-2016,-96,-92,611,262
220,280,-2008,-112,-85,642,257
225,256,-2000,-8,-80,671,249
230,200,-1960,-32,-77,700,237
235,232,-2016,-56,-78,722,227
240,176,-2024,-104,-80,743,212
245,184,-1992,-8,-81,760,195
250,152,-2008,8,-81,774,180
255,152,-1968,-16,-82,785,162
260,128,-1968,-24,-81,794,144
265,120,-1912,-32,-84,799,123
270,104,-1864,-40,-86,804,105
275,128,-1848,-16,-93,807,87
280,128,-1808,-48,-97,810,67
285,128,-1784,-48,-102,816,47
290,104,-1744,0,-109,823,29
295,144,-1736,88,-113,831,10
300,96,-1728,16,-115,843,-10
305,88,-1736,24,-115,857,-31
310,96,-1752,16,-112,872,-47
315,120,-1752,56,-107,887,-65
320,160,-1792,88,-103,904,-82
325,128,-1784,64,-100,921,-98
330,136,-1784,40,-96,935,-115
335,176,-1848,8,-101,947,-130
340,176,-1864,0,-105,956,-143
345,216,-1880,-8,-113,964,-156
350,328,-1920,72,-117,972,-167
355,240,-1952,24,-119,978,-178
360,256,-1952,-24,-119,986,-187
365,248,-2000,8,-122,992,-194
370,264,-2048,0,-125,996,-202
375,288,-2080,0,-125,995,-209
380,264,-2088,8,-126,992,-215
385,240,-2112,0,-129,988,-217
390,240,-2136,8,-132,980,-219
395,208,-2152,32,-136,973,-220
400,176,-2168,8,-139,967,-219
405,144,-2168,16,-143,961,-215
410,104,-2176,8,-146,957,-209
415,72,-2200,32,-149,954,-198
420,32,-2160,80,-150,949,-187
425,0,-2128,120,-150,944,-174
430,-16,-2088,208,-151,938,-158
435,-40,-2056,256,-152,930,-145
440,0,-2040,304,-155,919,-134
445,-8,-1992,320,-161,906,-124
450,-16,-1960,408,-175,892,-114
455,16,-1952,448,-188,876,-103
460,32,-1880,440,-201,861,-91
465,48,-1920,416,-212,841,-82
470,72,-1968,272,-222,822,-77
475,32,-2040,160,-236,793,-71
480,0,-2160,24,-255,750,-61
485,-88,-2296,-216,-294,692,-49
490,-248,-2384,-424,-358,619,-27
495,-360,-2544,-560,-458,536,7
500,-496,-2712,-696,-578,459,51
505,-568,-2872,-728,-693,395,107
510,-696,-3040,-624,-779,341,178
515,-672,-3184,-536,-824,299,270
520,-648,-3312,-440,-815,256,377
525,-608,-3352,-240,-744,204,494
530,-496,-3376,-112,-623,144,609
535,-368,-3352,-72,-465,78,720
540,-256,-3256,-80,-299,11,811
545,-152,-3168,-208,-163,-48,889
550,-64,-3056,-272,-79,-98,949
555,0,-2952,-424,-37,-141,979
560,56,-2856,-472,-18,-166,974
565,32,-2768,-576,-9,-163,942
570,72,-2664,-664,-8,-136,888
575,64,-2592,-752,-8,-94,819
580,40,-2512,-824,-6,-45,735
585,56,-2432,-888,-2,7,646
590,32,-2328,-944,0,67,556
595,80,-2232,-1032,1,132,468
600,88,-2112,-1064,-11,204,385
605,120,-2032,-1104,-30,284,306
610,160,-1952,-1072,-55,366,236
615,168,-1872,-1080,-80,445,169
620,248,-1792,-1032,-102,516,110
625,280,-1744,-976,-114,573,55
630,288,-1712,-888,-112,614,7
635,352,-1728,-816,-98,638,-28
640,336,-1696,-784,-75,650,-57
645,344,-1712,-712,-44,652,-78
650,392,-1712,-696,-9,650,-99
655,392,-1744,-624,27,648,-115
660,352,-1744,-600,63,644,-128
665,256,-1720,-584,100,634,-132
670,112,-1736,-576,127,614,-122
675,48,-1800,-616,139,586,-97
680,-48,-1864,-616,139,546,-62
685,-160,-1920,-616,136,498,-23
690,-256,-1976,-584,133,449,16
695,-304,-2008,-536,132,399,55
700,-384,-2000,-528,141,350,105
705,-464,-2064,-464,165,298,141
710,-496,-2064,-408,207,241,175
715,-520,-2048,-408,264,183,206
720,-488,-2064,-408,326,126,227
725,-472,-2096,-360,389,73,223
730,-448,-2072,-400,448,18,208
735,-416,-2048,-440,498,-17,199
740,-352,-2112,-408,538,-37,174
745,-296,-2128,-464,571,-51,107
750,-248,-2104,-488,584,-66,27
755,-208,-2064,-512,567,-80,-41
760,-152,-2056,-552,519,-91,-96
765,-96,-2064,-576,474,-102,-157
770,-24,-2056,-576,424,-113,-221
775,0,-2024,-640,368,-119,-276
780,-24,-1960,-688,303,-121,-313
785,0,-1952,-616,230,-118,-336
790,0,-1928,-568,166,-119,-346
795,-32,-1912,-528,121,-128,-348
800,-40,-1920,-496,99,-139,-346
805,-24,-1896,-424,102,-153,-343
810,0,-1928,-368,121,-166,-340
815,24,-1904,-280,146,-175,-338
820,-16,-1920,-272,172,-183,-336
825,0,-1944,-208,197,-192,-327
830,16,-1936,-224,217,-202,-317
835,-32,-1968,-216,231,-217,-309
840,8,-2008,-256,240,-235,-303
845,-16,-2040,-240,247,-256,-299
850,0,-2048,-240,253,-281,-298
855,16,-2072,-264,259,-310,-296
860,-8,-2048,-288,260,-340,-293
865,-8,-2040,-296,262,-368,-288
870,0,-2032,-304,262,-391,-285
875,-32,-2016,-280,259,-412,-276
880,-16,-2032,-296,254,-435,-265
885,16,-2032,-264,256,-455,-255
890,16,-2040,-272,264,-476,-248
895,56,-2040,-240,272,-494,-241
900,64,-2024,-216,279,-509,-239
905,40,-2000,-192,282,-524,-241
910,96,-1984,-176,283,-537,-244
915,88,-1944,-176,276,-550,-245
920,96,-1928,-176,264,-564,-247
925,72,-1912,-128,251,-574,-255
930,88,-1896,-104,233,-581,-257
935,112,-1872,-112,214,-588,-257
940,88,-1832,-48,188,-593,-255
945,96,-1792,-48,169,-597,-251
950,48,-1792,-8,155,-600,-242
955,64,-1784,-24,143,-601,-224
960,72,-1768,0,133,-601,-204
965,64,-1728,8,124,-599,-180
970,96,-1696,8,114,-598,-154
975,96,-1664,0,95,-596,-126
980,128,-1640,0,68,-597,-99
985,152,-1600,24,36,-599,-72
990,168,-1648,16,6,-604,-45
995,192,-1632,40,-25,-610,-19
1000,200,-1672,56,-50,-619,8
1005,192,-1696,88,-67,-630,33
1010,160,-1720,96,-77,-644,59
1015,136,-1776,136,-77,-663,81
1020,184,-1816,152,-72,-680,102
1025,152,-1880,168,-63,-698,122
1030,128,-1928,208,-49,-718,139
1035,112,-1992,240,-30,-738,154
1040,88,-2040,256,-3,-752,168
1045,56,-2056,240,31,-762,181
1050,16,-2128,304,69,-770,191
1055,56,-2136,328,106,-776,196
1060,88,-2168,312,140,-779,197
1065,112,-2152,240,163,-777,193
1070,136,-2192,192,175,-755,185
1075,144,-2120,120,165,-719,175
1080,216,-2088,48,135,-683,166
1085,304,-2064,16,83,-656,150
1090,352,-2032,-80,11,-631,132
1095,440,-1984,-88,-80,-608,112
1100,472,-1968,-16,-178,-593,96
1105,520,-1976,64,-259,-586,84
1110,520,-2016,192,-307,-581,69
1115,504,-2072,336,-312,-571,51
1120,456,-2104,392,-288,-551,24
1125,424,-2104,504,-246,-524,-4
1130,432,-2128,552,-199,-493,-24
1135,392,-2160,552,-148,-456,-43
1140,360,-2192,528,-85,-417,-58
1145,280,-2288,440,-9,-375,-73
1150,312,-2432,224,73,-335,-86
1155,376,-2544,48,128,-305,-113
1160,344,-2592,-192,120,-268,-161
1165,432,-2736,-512,21,-213,-230
1170,408,-2840,-584,-156,-127,-317
1175,408,-2952,-616,-363,-15,-412
1180,368,-3016,-480,-538,104,-510
1185,384,-3056,-312,-643,214,-599
1190,392,-3040,-160,-666,309,-686
1195,408,-3016,-40,-617,392,-770
1200,432,-2936,64,-522,462,-861
1205,416,-2816,96,-409,524,-949
1210,352,-2664,64,-315,573,-1018
1215,256,-2576,96,-263,599,-1072
1220,216,-2400,24,-254,593,-1108
1225,208,-2312,8,-270,559,-1120
1230,216,-2224,32,-296,505,-1101
1235,240,-2144,-8,-318,443,-1060
1240,272,-2112,-8,-331,383,-1001
1245,296,-2096,-80,-334,330,-930
1250,304,-2112,-168,-325,287,-858
1255,296,-2104,-328,-310,249,-793
1260,280,-2072,-472,-296,211,-740
1265,184,-2032,-576,-289,168,-693
1270,216,-1984,-736,-294,116,-646
1275,136,-1912,-800,-311,49,-602
1280,80,-1816,-872,-329,-35,-554
1285,-16,-1752,-936,-348,-141,-505
1290,-136,-1704,-1008,-359,-271,-462
1295,-248,-1624,-992,-361,-412,-422
1300,-376,-1600,-952,-349,-549,-378
1305,-456,-1600,-848,-321,-671,-327
1310,-520,-1624,-832,-272,-771,-267
1315,-568,-1688,-800,-211,-847,-203
1320,-584,-1760,-768,-146,-896,-148
1325,-560,-1880,-680,-81,-918,-103
1330,-488,-2024,-632,-21,-920,-77
1335,-416,-2120,-536,38,-917,-67
1340,-312,-2272,-464,106,-911,-69
1345,-224,-2368,-400,186,-898,-74
1350,-96,-2472,-376,279,-884,-77
1355,24,-2536,-432,364,-870,-87
1360,144,-2584,-456,428,-852,-109
1365,264,-2576,-432,465,-827,-139
1370,368,-2576,-528,479,-795,-175
1375,488,-2560,-560,479,-757,-220
1380,552,-2552,-560,466,-707,-262
1385,648,-2544,-536,454,-660,-271
1390,728,-2504,-496,460,-619,-260
1395,760,-2456,-448,483,-595,-246
1400,760,-2384,-448,519,-584,-213
1405,728,-2296,-408,571,-581,-159
1410,696,-2208,-400,614,-582,-89
1415,576,-2096,-336,652,-582,-9
1420,496,-2040,-368,674,-577,72
1425,472,-1936,-432,676,-567,146
1430,448,-1832,-384,645,-547,219
1435,384,-1752,-376,584,-518,296
1440,368,-1672,-432,499,-488,366
1445,312,-1600,-464,398,-457,425
1450,288,-1552,-464,288,-423,472
1455,296,-1544,-448,177,-388,510
1460,328,-1576,-416,73,-354,535
1465,368,-1608,-400,-17,-322,541
1470,392,-1640,-376,-88,-290,535
1475,464,-1672,-304,-142,-261,520
1480,464,-1728,-280,-183,-235,505
1485,464,-1760,-224,-218,-212,490
1490,520,-1808,-168,-241,-194,474
1495,504,-1816,-136,-259,-178,453
1500,504,-1864,-128,-268,-158,433
1505,496,-1904,-48,-275,-135,420
1510,496,-1920,-32,-277,-107,408
1515,456,-1984,-8,-279,-76,398
1520,464,-1952,-16,-276,-41,395
1525,424,-1968,-56,-273,-2,394
1530,368,-1984,-8,-268,44,393
1535,360,-1928,-64,-266,95,393
1540,368,-1936,-40,-260,149,395
1545,328,-1896,-64,-256,204,397
1550,320,-1872,-80,-250,260,394
1555,296,-1864,-64,-243,315,396
1560,272,-1824,-48,-234,366,396
1565,280,-1808,-32,-224,412,393
1570,256,-1816,-24,-210,455,391
1575,248,-1808,-32,-201,491,384
1580,224,-1768,16,-192,524,377
1585,216,-1760,-24,-188,550,366
1590,216,-1736,8,-192,575,352
1595,192,-1736,8,-200,593,334
1600,200,-1736,0,-216,611,316
1605,200,-1728,0,-230,626,298
1610,160,-1704,0,-246,636,277
1615,160,-1696,8,-262,642,257
1620,144,-1712,40,-278,643,231
1625,152,-1744,72,-287,643,202
1630,128,-1776,104,-286,643,172
1635,128,-1784,128,-277,644,143
1640,96,-1816,192,-257,644,116
1645,64,-1824,192,-229,647,90
1650,64,-1848,192,-195,653,66
1655,56,-1880,240,-157,662,42
1660,64,-1896,208,-117,672,20
1665,64,-1912,160,-76,683,0
1670,64,-1896,136,-43,691,-21
1675,112,-1896,56,-17,700,-42
1680,176,-1944,64,-8,710,-66
1685,192,-1952,24,-16,720,-91
1690,240,-1952,16,-38,728,-123
1695,240,-1984,-24,-67,733,-153
1700,232,-2024,0,-99,727,-181
1705,240,-2056,-8,-124,706,-205
1710,192,-2128,-32,-140,664,-228
1715,112,-2160,-24,-145,600,-246
1720,24,-2176,-96,-146,523,-254
1725,-56,-2200,-120,-157,446,-251
1730,-104,-2248,-96,-180,379,-235
1735,-208,-2296,0,-206,331,-213
1740,-264,-2296,80,-229,299,-180
1745,-320,-2392,176,-236,275,-139
1750,-352,-2400,360,-207,253,-81
1755,-304,-2424,520,-141,228,-4
1760,-256,-2416,584,-56,208,78
1765,-216,-2360,696,32,193,151
1770,-120,-2320,712,109,179,211
1775,0,-2272,688,175,167,261
1780,80,-2272,592,229,149,297
1785,96,-2296,392,272,115,323
1790,88,-2384,176,283,60,339
1795,0,-2472,-88,229,-19,355
1800,-112,-2568,-400,83,-108,377
1805,-176,-2800,-696,-143,-190,403
1810,-256,-2936,-760,-415,-249,433
1815,-344,-3072,-832,-674,-280,467
1820,-480,-3152,-768,-859,-297,522
1825,-560,-3216,-640,-941,-320,606
1830,-624,-3280,-464,-915,-361,712
1835,-576,-3328,-312,-789,-418,833
1840,-432,-3328,-240,-599,-472,946
1845,-240,-3264,-232,-376,-500,1039
1850,-40,-3184,-272,-156,-489,1114
1855,96,-3016,-368,29,-454,1173
1860,200,-2824,-456,158,-406,1212
1865,200,-2648,-560,222,-360,1228
1870,248,-2536,-640,246,-326,1210
1875,256,-2416,-728,244,-303,1158
1880,232,-2304,-808,228,-284,1081
1885,216,-2168,-856,199,-251,990
1890,232,-2072,-944,159,-199,892
1895,256,-2000,-912,118,-126,788
1900,248,-1864,-912,89,-34,674
1905,312,-1776,-904,78,73,561
1910,336,-1696,-952,70,190,444
1915,320,-1568,-960,57,311,332
1920,392,-1440,-944,37,426,224
1925,472,-1376,-896,0,531,135
1930,528,-1368,-864,-44,615,65
1935,576,-1392,-768,-84,669,-5
1940,632,-1440,-712,-111,692,-77
1945,648,-1480,-632,-122,690,-140
1950,664,-1576,-568,-117,672,-192
1955,616,-1672,-504,-91,643,-234
1960,496,-1792,-448,-55,612,-259
1965,424,-1896,-424,-6,579,-271
1970,288,-2040,-400,56,543,-274
1975,152,-2112,-392,126,500,-269
1980,24,-2208,-384,200,457,-257
1985,-112,-2264,-400,268,413,-227
1990,-240,-2320,-376,321,359,-175
1995,-392,-2384,-416,361,318,-112
2000,-504,-2448,-384,388,284,-39
2005,-608,-2464,-408,406,255,37
2010,-704,-2440,-496,418,234,116
2015,-736,-2408,-528,410,221,196
2020,-784,-2320,-512,393,206,259
2025,-728,-2288,-504,399,179,294
2030,-672,-2208,-520,429,138,305
2035,-608,-2144,-456,467,92,286
2040,-528,-2088,-448,511,44,237
2045,-504,-2008,-440,544,-8,169
2050,-464,-1960,-424,559,-62,98
2055,-376,-1840,-456,538,-116,23
2060,-288,-1824,-464,479,-167,-56
2065,-176,-1808,-432,384,-202,-138
2070,-80,-1840,-416,279,-219,-227
2075,16,-1864,-360,188,-221,-316
2080,8,-1904,-336,113,-219,-399
2085,0,-1960,-344,60,-218,-464
2090,8,-2040,-288,34,-227,-503
2095,16,-2040,-288,28,-240,-520
2100,8,-2056,-280,27,-255,-522
2105,8,-2056,-304,30,-269,-513
2110,8,-2056,-288,32,-281,-497
2115,16,-2080,-304,40,-292,-476
2120,16,-2096,-296,48,-306,-460
2125,0,-2112,-216,64,-318,-445
2130,-8,-2136,-168,88,-332,-429
2135,-16,-2096,-168,119,-342,-406
2140,0,-2096,-152,148,-352,-380
2145,0,-2056,-160,179,-361,-354
2150,-24,-2000,-128,206,-370,-327
2155,-32,-1976,-112,223,-384,-303
2160,-32,-1904,-120,236,-400,-279
2165,-32,-1856,-104,241,-421,-257
2170,-24,-1832,-96,239,-449,-233
2175,-40,-1784,-40,237,-482,-211
2180,-8,-1760,-16,231,-520,-193
2185,-32,-1728,-32,217,-561,-185
2190,0,-1680,-64,194,-603,-183
2195,16,-1624,-56,160,-644,-184
2200,0,-1592,-64,121,-684,-181
2205,0,-1552,-32,71,-719,-175
2210,-16,-1552,-40,18,-750,-167
2215,0,-1536,8,-36,-779,-155
2220,8,-1552,16,-90,-804,-141
2225,0,-1544,32,-138,-829,-125
2230,8,-1568,64,-180,-853,-107
2235,0,-1576,80,-218,-876,-84
2240,40,-1632,88,-255,-900,-54
2245,16,-1664,112,-281,-922,-24
2250,8,-1696,128,-302,-943,10
2255,16,-1752,160,-317,-962,46
2260,16,-1792,192,-321,-984,81
2265,8,-1872,200,-317,-1008,116
2270,16,-1912,216,-303,-1029,152
2275,-8,-1928,224,-281,-1051,188
2280,0,-1992,240,-249,-1069,219
2285,16,-2016,280,-210,-1083,245
2290,32,-1976,272,-167,-1090,270
2295,16,-2032,280,-122,-1093,291
2300,40,-2032,272,-78,-1090,304
2305,80,-2040,288,-35,-1083,309
2310,112,-2040,312,4,-1068,306
2315,144,-2024,312,37,-1048,295
2320,192,-2032,168,65,-1014,280
2325,208,-2008,120,75,-953,263
2330,288,-1984,80,71,-876,246
2335,360,-1944,16,55,-806,227
2340,456,-1952,-32,22,-740,198
2345,528,-1872,-144,-33,-676,158
2350,560,-1872,-144,-115,-619,118
2355,632,-1912,-16,-202,-573,76
2360,656,-1976,72,-263,-546,26
2365,656,-2032,232,-288,-525,-30
2370,608,-2040,336,-279,-501,-95
2375,552,-2032,440,-252,-470,-160
2380,512,-2064,536,-216,-438,-216
2385,440,-2104,616,-174,-408,-265
2390,384,-2184,576,-109,-384,-304
2395,296,-2280,504,-21,-358,-333
2400,264,-2392,392,70,-337,-352
2405,256,-2520,120,122,-316,-370
2410,256,-2592,-144,101,-278,-403
2415,240,-2688,-440,-25,-205,-458
2420,240,-2816,-608,-235,-84,-526
2425,200,-2896,-624,-486,60,-606
2430,152,-2944,-512,-718,193,-688
2435,64,-3032,-312,-883,291,-762
2440,-40,-3032,-80,-950,339,-830
2445,-88,-3056,120,-927,341,-892
2450,-8,-3064,272,-830,315,-955
2455,-8,-3016,368,-684,286,-1013
2460,-24,-2984,432,-511,263,-1053
2465,-24,-2920,336,-344,237,-1074
2470,-32,-2864,240,-210,198,-1084
2475,-64,-2760,112,-113,145,-1085
2480,-112,-2648,8,-45,83,-1070
2485,-80,-2592,-112,-4,13,-1039
2490,-56,-2528,-336,10,-58,-990
2495,40,-2488,-456,-4,-123,-938
2500,48,-2448,-616,-39,-184,-895
2505,80,-2304,-688,-89,-249,-854
2510,48,-2216,-872,-155,-331,-818
2515,8,-2072,-992,-233,-428,-765
2520,0,-1920,-1056,-315,-538,-712
2525,0,-1784,-1088,-395,-660,-661
2530,-64,-1680,-1080,-458,-789,-614
2535,-160,-1552,-1048,-501,-918,-564
2540,-304,-1496,-968,-513,-1056,-506
2545,-432,-1416,-952,-494,-1145,-443
2550,-552,-1384,-896,-454,-1206,-369
2555,-616,-1424,-752,-396,-1244,-285
2560,-688,-1536,-736,-305,-1268,-205
2565,-648,-1672,-640,-217,-1281,-129
2570,-592,-1864,-544,-128,-1293,-64
2575,-488,-2072,-480,-41,-1308,-14
2580,-360,-2232,-440,50,-1323,24
2585,-184,-2440,-432,158,-1327,62
2590,-72,-2536,-416,279,-1320,104
2595,32,-2584,-456,407,-1302,142
2600,160,-2640,-496,516,-1275,170
2605,248,-2680,-560,593,-1246,179
2610,440,-2680,-672,626,-1215,177
2615,560,-2672,-760,615,-1186,170
2620,656,-2624,-728,571,-1158,158
2625,736,-2568,-776,515,-1139,146
2630,784,-2528,-736,466,-1120,138
2635,784,-2424,-696,437,-1109,140
2640,800,-2328,-688,428,-1099,167
2645,752,-2224,-592,439,-1089,211
2650,640,-2072,-552,464,-1081,261
2655,568,-1992,-528,491,-1075,315
2660,488,-1864,-496,498,-1066,367
2665,384,-1736,-504,474,-1056,411
2670,336,-1624,-560,411,-1038,450
2675,256,-1552,-528,322,-1016,488
2680,192,-1504,-536,222,-996,519
2685,104,-1472,-536,119,-970,537
2690,64,-1464,-520,21,-945,540
2695,24,-1480,-488,-67,-914,533
2700,32,-1552,-480,-135,-887,530
2705,56,-1624,-408,-170,-860,523
2710,96,-1688,-384,-185,-834,511
2715,120,-1784,-368,-182,-812,497
2720,232,-1776,-336,-165,-791,488
2725,272,-1840,-272,-140,-769,480
2730,352,-1872,-272,-118,-746,471
2735,400,-1896,-264,-107,-723,465
2740,440,-1888,-232,-102,-698,459
2745,464,-1904,-232,-108,-670,452
2750,480,-1920,-192,-120,-639,445
2755,456,-1920,-168,-139,-602,439
2760,496,-1936,-160,-163,-560,430
2765,464,-1968,-120,-187,-511,418
2770,472,-2000,-136,-209,-452,402
2775,496,-1992,-152,-218,-385,381
2780,448,-2008,-128,-231,-308,363
2785,416,-2008,-128,-246,-231,344
2790,392,-1984,-128,-261,-148,325
2795,368,-2016,-144,-270,-68,309
2800,320,-2024,-112,-269,3,290
2805,296,-2016,-80,-259,64,274
2810,248,-2000,-64,-242,118,261
2815,240,-2008,-40,-222,169,254
2820,240,-2000,-56,-194,215,248
2825,216,-2032,-40,-163,256,243
2830,176,-1992,-16,-131,296,241
2835,176,-1984,-8,-99,334,239
2840,176,-1960,-48,-73,365,234
2845,168,-1920,0,-48,393,225
2850,152,-1896,16,-32,414,212
2855,160,-1840,40,-23,432,196
2860,152,-1872,104,-19,451,174
2865,184,-1848,152,-13,472,149
2870,168,-1848,224,-1,500,120
2875,232,-1896,256,19,533,91
2880,200,-1856,352,51,565,59
2885,224,-1944,360,91,600,24
2890,232,-1952,432,136,633,-10
2895,240,-1920,400,179,666,-43
2900,248,-1936,432,215,694,-75
2905,232,-1896,424,240,714,-101
2910,200,-1848,424,257,728,-124
2915,176,-1800,424,266,733,-139
2920,128,-1744,392,257,733,-145
2925,8,-1688,368,236,722,-146
2930,-64,-1672,288,202,700,-140
2935,-224,-1680,128,164,655,-136
2940,-200,-1680,8,112,593,-138
2945,-296,-1672,-120,34,518,-144
2950,-384,-1696,-264,-73,444,-158
2955,-520,-1728,-304,-197,384,-170
2960,-544,-1800,-320,-318,345,-182
2965,-584,-1904,-288,-404,335,-193
2970,-576,-1968,-192,-448,350,-204
2975,-528,-2064,-72,-447,385,-206
2980,-440,-2168,120,-408,428,-199
2985,-368,-2216,288,-326,461,-182
2990,-264,-2256,416,-218,476,-165
2995,-184,-2232,456,-106,469,-146
3000,-88,-2184,504,-2,439,-132
3005,0,-2208,440,89,388,-123
3010,24,-2272,296,164,325,-116
3015,32,-2360,112,206,236,-109
3020,-16,-2472,-104,186,155,-97
3025,-112,-2568,-384,85,62,-78
3030,-264,-2736,-584,-104,-34,-44
3035,-384,-2968,-768,-361,-132,10
3040,-544,-3152,-904,-705,-228,82
3045,-728,-3312,-896,-960,-326,186
3050,-936,-3432,-792,-1132,-434,331
3055,-1120,-3496,-552,-1177,-553,522
3060,-1152,-3544,-352,-1075,-675,752
3065,-1048,-3552,-168,-847,-791,988
3070,-784,-3520,-32,-538,-887,1204
3075,-520,-3440,-16,-213,-940,1382
3080,-304,-3280,-88,82,-956,1516
3085,-120,-3088,-224,314,-945,1612
3090,8,-2888,-368,464,-921,1668
3095,96,-2688,-504,537,-895,1683
3100,216,-2520,-624,548,-861,1647
3105,320,-2336,-712,513,-818,1562
3110,400,-2216,-736,451,-759,1447
3115,456,-2056,-784,371,-690,1319
3120,496,-1976,-800,285,-609,1178
3125,520,-1904,-768,200,-517,1031
3130,504,-1784,-800,133,-421,887
3135,480,-1648,-824,86,-324,743
3140,504,-1608,-832,56,-221,612
3145,520,-1536,-872,33,-106,502
3150,560,-1528,-912,7,19,408
3155,680,-1488,-848,-21,155,321
3160,760,-1488,-880,-52,286,230
3165,832,-1520,-792,-90,395,137
3170,840,-1560,-784,-120,468,46
3175,848,-1624,-744,-141,505,-33
3180,848,-1720,-720,-153,513,-103
3185,744,-1784,-680,-154,497,-162
3190,656,-1928,-696,-150,466,-207
3195,552,-2008,-712,-137,429,-242
3200,392,-2072,-672,-112,390,-260
3205,264,-2144,-680,-78,349,-257
3210,56,-2256,-648,-30,306,-233
3215,-96,-2336,-616,33,260,-190
3220,-240,-2400,-616,98,212,-134
3225,-424,-2432,-584,158,164,-65
3230,-552,-2448,-592,213,116,8
3235,-664,-2432,-568,257,70,83
3240,-736,-2456,-552,292,23,155
3245,-752,-2432,-536,324,-24,216
3250,-792,-2360,-528,368,-77,263
3255,-784,-2320,-496,423,-136,296
3260,-704,-2248,-456,489,-198,313
3265,-568,-2192,-400,566,-258,312
3270,-448,-2160,-320,646,-316,291
3275,-344,-2120,-304,723,-364,255
3280,-248,-2056,-288,792,-397,212
3285,-184,-2024,-312,831,-421,174
3290,-168,-1976,-304,835,-441,134
3295,-96,-1952,-368,801,-463,90
3300,-40,-1928,-360,739,-490,42
3305,-16,-1896,-392,662,-519,-1
3310,0,-1912,-416,584,-545,-43
3315,40,-1936,-424,512,-567,-82
3320,0,-1912,-448,441,-586,-123
3325,8,-1928,-448,377,-607,-158
3330,-16,-1904,-464,312,-626,-186
3335,-40,-1912,-448,250,-643,-206
3340,-64,-1904,-424,200,-653,-218
3345,-104,-1904,-408,166,-659,-225
3350,-112,-1936,-352,149,-663,-232
3355,-88,-1936,-344,147,-665,-232
3360,-80,-1960,-280,152,-664,-225
3365,-80,-1944,-272,163,-662,-212
3370,-64,-1944,-224,183,-660,-198
3375,-8,-1936,-192,203,-663,-182
3380,-8,-1928,-168,220,-669,-170
3385,8,-1888,-120,226,-685,-160
3390,16,-1848,-104,220,-707,-151
3395,8,-1832,-104,195,-733,-144
3400,8,-1808,-104,158,-765,-133
3405,0,-1832,-56,109,-797,-127
3410,-40,-1808,-64,57,-834,-122
3415,-8,-1824,-80,3,-865,-118
3420,-40,-1848,-72,-46,-894,-114
3425,-80,-1856,-8,-87,-920,-114
3430,-88,-1840,-48,-128,-947,-116
3435,-80,-1824,-8,-175,-971,-124
3440,-64,-1832,-16,-224,-994,-129
3445,-56,-1832,0,-272,-1007,-133
3450,-64,-1816,0,-328,-1022,-134
3455,-72,-1824,8,-392,-1038,-129
3460,-56,-1840,24,-465,-1056,-123
3465,-56,-1880,8,-517,-1076,-116
3470,-80,-1912,16,-556,-1093,-108
3475,-72,-1928,8,-579,-1110,-102
3480,-48,-1968,16,-585,-1126,-94
3485,-32,-2024,8,-574,-1141,-83
3490,-32,-2048,56,-544,-1155,-72
3495,-32,-2072,56,-496,-1167,-57
3500,-8,-2072,64,-444,-1176,-41
3505,-24,-2104,88,-387,-1182,-25
3510,8,-2104,112,-333,-1185,-12
3515,0,-2128,152,-280,-1184,4
3520,0,-2136,120,-234,-1184,17
3525,-32,-2144,96,-189,-1182,27
3530,24,-2168,96,-151,-1177,39
3535,0,-2112,104,-118,-1171,49
3540,8,-2096,72,-91,-1161,59
3545,0,-2072,16,-62,-1152,67
3550,32,-2056,48,-31,-1137,74
3555,56,-2024,56,-2,-1120,79
3560,104,-1992,32,25,-1104,83
3565,128,-1960,48,46,-1093,84
3570,144,-1968,104,68,-1086,79
3575,128,-1976,88,87,-1086,72
3580,184,-2000,160,103,-1089,62
3585,120,-2016,216,117,-1095,50
3590,112,-2032,224,128,-1101,34
3595,96,-2032,168,134,-1099,18
3600,128,-2040,168,129,-1085,6
3605,184,-2040,168,110,-1059,-9
3610,208,-2000,128,83,-1031,-22
3615,232,-1960,112,47,-1001,-40
3620,256,-1904,120,4,-971,-58
3625,288,-1848,168,-46,-946,-66
3630,304,-1832,216,-92,-929,-70
3635,312,-1816,304,-125,-917,-75
3640,288,-1800,328,-145,-901,-75
3645,304,-1776,392,-162,-884,-68
3650,304,-1760,416,-183,-864,-58
3655,312,-1728,504,-209,-843,-50
3660,312,-1728,472,-241,-825,-43
3665,304,-1704,480,-281,-813,-38
3670,264,-1752,480,-324,-800,-31
3675,272,-1840,392,-359,-788,-22
3680,240,-1960,264,-379,-773,-20
3685,264,-2064,128,-380,-759,-33
3690,304,-2152,-32,-381,-747,-59
3695,256,-2320,-168,-401,-727,-96
3700,280,-2448,-272,-443,-692,-148
3705,256,-2592,-280,-502,-635,-206
3710,224,-2680,-272,-557,-560,-271
3715,200,-2736,-248,-591,-476,-337
3720,232,-2816,-144,-597,-393,-402
3725,224,-2880,-16,-574,-321,-470
3730,192,-2912,8,-530,-261,-543
3735,152,-2936,32,-466,-215,-620
3740,152,-2952,24,-396,-180,-695
3745,80,-2896,16,-340,-151,-762
3750,72,-2864,-32,-302,-130,-819
3755,48,-2816,-96,-282,-120,-866
3760,16,-2736,-144,-277,-111,-900
3765,8,-2688,-152,-283,-108,-921
3770,0,-2608,-152,-286,-107,-933
3775,32,-2544,-136,-277,-113,-928
3780,24,-2520,-184,-257,-128,-915
3785,48,-2448,-248,-228,-153,-893
3790,64,-2360,-328,-203,-192,-864
3795,64,-2272,-496,-187,-246,-827
3800,0,-2168,-584,-184,-317,-783
3805,-48,-2056,-680,-191,-403,-732
3810,-120,-1960,-808,-202,-501,-677
3815,-152,-1856,-808,-211,-603,-623
3820,-168,-1760,-896,-214,-708,-568
3825,-192,-1664,-936,-208,-818,-514
3830,-208,-1552,-976,-195,-927,-455
3835,-248,-1440,-1000,-177,-1041,-393
3840,-288,-1304,-1024,-170,-1155,-329
3845,-336,-1184,-1032,-184,-1265,-268
3850,-336,-1200,-968,-215,-1363,-210
3855,-344,-1248,-952,-241,-1446,-165
3860,-344,-1328,-856,-242,-1506,-126
3865,-336,-1472,-792,-211,-1536,-90
3870,-264,-1600,-696,-158,-1537,-54
3875,-144,-1792,-600,-90,-1519,-22
3880,-8,-1984,-512,-14,-1480,8
3885,56,-2120,-416,66,-1426,33
3890,160,-2296,-392,139,-1357,60
3895,248,-2448,-376,202,-1272,83
3900,352,-2600,-344,251,-1203,99
3905,424,-2696,-360,285,-1139,106
3910,552,-2768,-376,301,-1086,107
3915,616,-2768,-416,295,-1037,109
3920,704,-2808,-464,275,-992,114
3925,736,-2752,-504,245,-951,124
3930,752,-2688,-496,214,-915,139
3935,744,-2616,-480,194,-882,162
3940,760,-2576,-416,193,-858,191
3945,696,-2488,-456,203,-834,224
3950,640,-2432,-416,225,-806,260
3955,584,-2304,-440,247,-774,293
3960,480,-2184,-376,260,-741,327
3965,448,-2104,-368,261,-712,356
3970,376,-2000,-336,237,-688,376
3975,312,-1888,-352,186,-670,388
3980,296,-1824,-328,123,-654,396
3985,256,-1792,-328,60,-640,395
3990,216,-1768,-360,12,-627,389
3995,184,-1728,-312,-21,-614,377
4000,224,-1728,-296,-36,-601,362
4005,208,-1720,-272,-39,-590,353
4010,224,-1656,-240,-31,-579,346
4015,224,-1736,-264,-21,-573,341
4020,240,-1752,-216,-16,-568,341
4025,224,-1752,-192,-24,-568,343
4030,256,-1800,-160,-44,-572,345
4035,248,-1816,-160,-76,-578,345
4040,224,-1840,-160,-117,-580,344
4045,240,-1848,-120,-166,-578,345
4050,208,-1880,-152,-216,-572,344
4055,224,-1912,-128,-264,-559,343
4060,224,-1944,-128,-307,-538,337
4065,264,-1848,-104,-344,-508,333
4070,232,-1920,-80,-375,-472,329
4075,240,-1928,-104,-400,-427,327
4080,248,-1920,-88,-422,-380,327
4085,248,-1936,-80,-438,-329,326
4090,224,-1944,-64,-441,-277,320
4095,216,-1944,-40,-436,-230,312
4100,240,-2000,0,-424,-187,303
4105,200,-1952,0,-402,-146,295
4110,128,-1976,-8,-376,-104,288
4115,136,-1992,-56,-350,-67,288
4120,112,-2016,-88,-332,-37,288
4125,112,-1944,-56,-321,-15,287
4130,104,-1944,-48,-321,5,284
4135,80,-1952,-80,-324,23,274
4140,72,-1928,-128,-326,38,261
4145,72,-1920,-112,-325,49,241
4150,72,-1944,-80,-318,57,217
4155,64,-1960,-24,-304,66,192
4160,72,-1944,-24,-279,74,171
4165,64,-1976,8,-247,87,149
4170,96,-2008,72,-208,102,126
4175,96,-1936,64,-164,116,105
4180,56,-1976,152,-116,128,86
4185,80,-1976,192,-65,136,70
4190,56,-1952,208,-19,142,59
4195,72,-1928,224,24,148,53
4200,88,-1904,272,61,157,50
4205,96,-1920,256,94,164,51
4210,64,-1904,288,120,174,56
4215,48,-1904,312,140,180,61
4220,88,-1888,288,157,180,69
4225,72,-1864,288,164,176,83
4230,32,-1840,248,169,164,95
4235,56,-1880,256,165,145,109
4240,8,-1864,200,151,120,122
4245,8,-1880,168,125,90,129
4250,-8,-1944,136,93,54,129
4255,0,-1984,128,51,19,123
4260,-8,-2024,136,5,-11,110
4265,-56,-2056,160,-42,-33,86
4270,-128,-2120,152,-78,-46,56
4275,-160,-2176,184,-98,-46,25
4280,-184,-2224,224,-100,-40,-2
4285,-216,-2296,160,-77,-30,-29
4290,-208,-2320,176,-31,-26,-49
4295,-232,-2376,96,29,-33,-66
4300,-304,-2448,40,95,-51,-76
4305,-360,-2512,-24,151,-79,-82
4310,-456,-2568,-168,172,-118,-82
4315,-568,-2576,-320,143,-169,-70
4320,-696,-2688,-448,54,-226,-43
4325,-784,-2752,-504,-93,-289,16
4330,-776,-2832,-520,-280,-354,87
4335,-824,-2912,-504,-461,-420,175
4340,-688,-3008,-320,-589,-484,279
4345,-600,-3088,-168,-631,-557,406
4350,-400,-3144,-8,-577,-620,548
4355,-216,-3192,72,-443,-679,693
4360,-80,-3224,80,-263,-733,816
4365,0,-3168,-40,-78,-780,912
4370,80,-3080,-184,105,-818,978
4375,160,-2936,-360,199,-841,1018
4380,232,-2784,-464,235,-840,1034
4385,264,-2656,-560,232,-816,1020
4390,312,-2520,-648,209,-770,979
4395,280,-2400,-720,180,-707,922
4400,240,-2240,-768,147,-636,853
4405,248,-2112,-840,110,-563,776
4410,224,-1992,-840,72,-486,687
4415,240,-1920,-864,28,-404,592
4420,216,-1832,-864,-14,-316,502
4425,184,-1744,-880,-49,-225,424
4430,192,-1672,-896,-75,-134,359
4435,240,-1640,-896,-103,-40,308
4440,288,-1592,-896,-131,49,260
4445,360,-1568,-832,-163,131,215
4450,472,-1544,-792,-195,202,178
4455,496,-1560,-752,-222,253,145
4460,600,-1592,-616,-236,280,113
4465,608,-1624,-568,-229,290,79
4470,640,-1672,-536,-207,283,50
4475,640,-1784,-488,-174,267,29
4480,560,-1888,-472,-125,237,11
4485,504,-2008,-472,-59,196,5
4490,352,-2080,-480,17,150,3
4495,232,-2176,-440,103,93,3
4500,72,-2216,-416,193,36,13
4505,-64,-2296,-424,277,-22,32
4510,-176,-2368,-472,348,-75,57
4515,-272,-2384,-440,404,-122,82
4520,-424,-2392,-496,441,-157,106
4525,-496,-2424,-512,458,-184,133
4530,-520,-2416,-504,462,-203,156
4535,-560,-2376,-488,464,-215,171
4540,-568,-2328,-504,473,-224,173
4545,-520,-2304,-464,492,-233,162
4550,-480,-2232,-504,521,-250,139
4555,-360,-2128,-464,548,-268,108
4560,-216,-2056,-472,560,-288,73
4565,-88,-1984,-480,558,-310,29
4570,8,-1912,-440,543,-329,-18
4575,48,-1856,-448,520,-351,-63
4580,80,-1816,-392,490,-380,-104
4585,88,-1808,-448,459,-408,-143
4590,112,-1768,-480,413,-437,-180
4595,88,-1712,-480,345,-462,-208
4600,56,-1704,-480,263,-481,-228
4605,40,-1712,-472,175,-494,-240
4610,0,-1768,-456,95,-504,-242
4615,-56,-1800,-408,32,-512,-237
4620,-120,-1824,-392,-13,-518,-233
4625,-168,-1872,-352,-42,-524,-231
4630,-184,-1912,-320,-64,-531,-227
4635,-192,-1960,-296,-81,-537,-220
4640,-192,-1984,-240,-88,-541,-208
4645,-176,-2040,-256,-88,-547,-195
4650,-144,-2056,-176,-88,-558,-181
4655,-112,-2072,-216,-86,-576,-163
4660,-24,-2120,-176,-81,-600,-144
4665,-32,-2088,-192,-68,-629,-124
4670,-16,-2112,-192,-57,-669,-108
4675,-16,-2128,-176,-50,-712,-96
4680,8,-2136,-144,-47,-753,-85
4685,-16,-2104,-144,-41,-792,-75
4690,-8,-2072,-144,-31,-827,-65
4695,8,-2104,-128,-20,-858,-56
4700,0,-2056,-128,-15,-884,-50
4705,16,-2024,-96,-13,-906,-46
4710,24,-2024,-80,-19,-926,-46
4715,16,-1984,-144,-28,-942,-49
4720,64,-1960,-16,-35,-958,-55
4725,72,-1920,-32,-40,-974,-56
4730,40,-1880,-40,-52,-987,-55
4735,64,-1824,-16,-73,-997,-55
4740,40,-1808,-32,-100,-1007,-53
4745,56,-1768,-16,-129,-1018,-45
4750,16,-1744,16,-161,-1028,-32
4755,32,-1744,32,-189,-1039,-14
4760,32,-1704,56,-216,-1054,4
4765,-8,-1728,96,-236,-1072,26
4770,-8,-1704,152,-250,-1091,51
4775,-16,-1704,152,-262,-1114,74
4780,-24,-1712,160,-273,-1141,100
4785,-24,-1776,168,-279,-1168,130
4790,-40,-1800,176,-282,-1191,155
4795,-72,-1800,200,-283,-1210,179
4800,-48,-1824,248,-282,-1222,202
4805,-40,-1856,184,-281,-1230,221
4810,-56,-1912,200,-276,-1225,235
4815,0,-1920,216,-264,-1215,246
4820,8,-1992,152,-246,-1203,255
4825,88,-1992,240,-208,-1186,256
4830,104,-2016,248,-167,-1169,252
4835,152,-2040,272,-117,-1150,245
4840,160,-2056,216,-68,-1121,234
4845,184,-2088,192,-31,-1075,220
4850,264,-2104,112,-11,-1029,206
4855,328,-2048,32,-9,-994,189
4860,376,-2048,-24,-30,-961,168
4865,424,-2032,-80,-68,-927,143
4870,448,-2032,-128,-117,-906,121
4875,472,-2040,8,-157,-890,101
4880,456,-2008,104,-168,-866,83
4885,456,-2032,192,-148,-825,62
4890,488,-2008,304,-112,-776,40
4895,488,-2032,344,-69,-715,7
4900,464,-2056,432,-25,-654,-43
4905,352,-2072,400,3,-603,-94
4910,328,-2104,392,24,-558,-141
4915,264,-2152,336,32,-518,-181
4920,256,-2248,112,23,-484,-216
4925,280,-2360,-32,-29,-450,-256
4930,248,-2464,-304,-134,-397,-301
4935,336,-2608,-392,-279,-303,-354
4940,384,-2736,-408,-425,-173,-413
4945,376,-2864,-400,-540,-24,-482
4950,384,-2952,-344,-600,115,-562
4955,368,-3008,-192,-612,223,-649
4960,328,-3048,-48,-586,287,-740
4965,280,-3056,64,-524,316,-831
4970,312,-3000,72,-436,326,-917
4975,328,-2968,128,-330,325,-994
4980,288,-2880,112,-229,319,-1056
4985,208,-2800,-64,-155,304,-1103
4990,160,-2728,-152,-120,279,-1137
4995,88,-2640,-208,-105,244,-1151
5000,72,-2536,-280,-107,204,-1141
5005,72,-2456,-408,-117,154,-1115
5010,72,-2408,-528,-130,100,-1069
5015,48,-2304,-648,-145,27,-1009
5020,16,-2256,-768,-165,-64,-952
5025,0,-2136,-888,-183,-164,-890
5030,-8,-2064,-928,-205,-260,-821
5035,-56,-1992,-976,-218,-354,-744
5040,-32,-1840,-1032,-225,-434,-667
5045,-64,-1752,-1024,-225,-506,-594
5050,-128,-1664,-952,-214,-573,-527
5055,-208,-1656,-912,-194,-640,-460
5060,-288,-1600,-832,-166,-711,-400
5065,-352,-1624,-776,-136,-778,-342
5070,-432,-1664,-720,-108,-828,-280
5075,-432,-1768,-688,-79,-860,-209
5080,-408,-1832,-624,-45,-875,-140
5085,-336,-1920,-616,-23,-872,-72
5090,-184,-2064,-560,-1,-859,-14
5095,-120,-2224,-536,51,-839,21
5100,-8,-2368,-552,133,-819,44
5105,64,-2424,-560,230,-800,53
5110,184,-2472,-616,324,-782,55
5115,336,-2472,-648,396,-762,46
5120,480,-2488,-648,437,-732,21
5125,600,-2464,-688,450,-690,-16
5130,760,-2432,-688,441,-635,-59
5135,880,-2368,-648,415,-577,-105
5140,968,-2320,-632,376,-526,-150
5145,1032,-2256,-528,335,-478,-182
5150,1024,-2192,-520,303,-434,-201
5155,1016,-2120,-472,284,-396,-202
5160,968,-2056,-392,281,-368,-176
5165,856,-2024,-344,291,-345,-128
5170,784,-1960,-304,316,-326,-63
5175,624,-1880,-304,339,-302,15
5180,552,-1824,-344,342,-273,98
5185,440,-1792,-392,322,-235,185
5190,328,-1736,-400,270,-196,276
5195,248,-1728,-376,198,-164,365
5200,152,-1720,-424,113,-144,444
5205,128,-1744,-480,31,-128,495
5210,80,-1752,-424,-46,-113,529
5215,80,-1784,-432,-112,-99,544
5220,72,-1816,-440,-161,-80,546
5225,104,-1880,-336,-189,-65,533
5230,136,-1904,-280,-179,-59,504
5235,168,-1920,-256,-142,-56,465
5240,224,-1944,-232,-83,-53,421
5245,240,-1920,-200,-36,-50,384
5250,312,-1872,-160,-9,-46,348
5255,224,-1880,-328,2,-41,315
5260,288,-1856,-120,-5,-31,281
5265,296,-1880,-176,-24,-18,246
5270,280,-1880,-160,-45,-4,220
5275,264,-1864,-152,-73,14,201
5280,296,-1864,-160,-100,38,191
5285,280,-1864,-136,-124,69,182
5290,280,-1888,-96,-145,105,178
5295,320,-1896,-88,-155,148,177
5300,288,-1896,-80,-157,188,175
5305,240,-1888,-120,-152,228,169
5310,288,-1896,-56,-144,261,164
5315,256,-1928,-16,-130,289,162
5320,208,-1936,-16,-110,314,163
5325,168,-1976,16,-87,333,167
5330,136,-1984,16,-64,350,174
5335,104,-1968,8,-47,364,179
5340,48,-1944,16,-39,376,181
5345,48,-1936,40,-40,384,179
5350,32,-1920,24,-52,389,179
5355,0,-1880,40,-74,389,177
5360,32,-1928,96,-97,386,173
5365,16,-1848,136,-117,383,164
5370,32,-1856,168,-127,378,154
5375,48,-1872,248,-129,373,142
5380,80,-1848,272,-125,370,126
5385,72,-1880,312,-115,371,107
5390,88,-1880,312,-101,370,89
5395,112,-1912,344,-84,370,70
5400,72,-1864,352,-67,366,57
5405,80,-1880,280,-48,360,51
5410,72,-1880,320,-32,354,50
5415,120,-1848,288,-17,349,53
5420,88,-1872,296,-8,347,58
5425,104,-1864,296,0,343,65
5430,80,-1864,312,-2,337,71
5435,120,-1896,296,-14,326,80
5440,88,-1888,280,-30,308,88
5445,128,-1896,288,-54,287,97
5450,136,-1912,272,-81,266,101
5455,136,-1968,304,-108,248,99
5460,160,-2008,296,-137,235,93
5465,184,-2056,288,-157,221,81
5470,184,-2048,264,-163,207,67
5475,104,-2096,256,-155,197,53
5480,40,-2120,296,-145,191,39
5485,16,-2120,280,-138,190,25
5490,0,-2168,272,-125,188,15
5495,-48,-2224,280,-98,185,13
5500,-40,-2288,224,-46,170,22
5505,-56,-2336,120,20,148,36
5510,-120,-2352,48,76,122,49
5515,-160,-2392,-96,93,99,61
5520,-224,-2464,-168,61,71,76
5525,-288,-2624,-264,-22,31,96
5530,-360,-2656,-328,-144,-28,127
5535,-400,-2816,-336,-276,-101,180
5540,-440,-2944,-328,-388,-181,256
5545,-456,-3072,-256,-450,-253,350
5550,-472,-3136,-216,-446,-316,458
5555,-504,-3192,-160,-375,-382,575
5560,-512,-3200,-216,-254,-456,700
5565,-488,-3120,-264,-110,-533,832
5570,-392,-3048,-400,31,-592,956
5575,-232,-2888,-512,140,-611,1061
5580,-80,-2768,-568,207,-584,1145
5585,8,-2592,-600,247,-518,1207
5590,80,-2464,-600,273,-439,1230
5595,128,-2320,-648,295,-362,1222
5600,152,-2160,-680,307,-290,1183
5605,232,-2048,-760,308,-250,1122
5610,256,-1904,-840,295,-217,1041
5615,296,-1752,-880,264,-179,955
5620,352,-1656,-888,212,-126,870
5625,392,-1560,-872,171,-62,783
5630,432,-1496,-856,139,6,696
5635,480,-1456,-792,124,69,615
5640,520,-1440,-656,117,122,538
5645,616,-1456,-600,116,164,459
5650,672,-1504,-552,102,201,372
5655,752,-1600,-520,62,232,277
5660,720,-1680,-512,-13,254,176
5665,640,-1848,-512,-100,270,81
5670,560,-1976,-464,-182,276,-3
5675,472,-2120,-504,-238,271,-84
5680,392,-2200,-512,-267,258,-158
5685,248,-2248,-480,-264,239,-217
5690,176,-2368,-488,-234,218,-258
5695,8,-2408,-456,-182,197,-272
5700,-128,-2424,-480,-122,171,-262
5705,-288,-2448,-472,-62,144,-229
5710,-464,-2464,-448,-18,115,-181
5715,-648,-2496,-440,13,75,-123
5720,-744,-2512,-432,40,27,-65
5725,-824,-2520,-400,61,-30,-12
5730,-896,-2496,-408,85,-98,36
5735,-928,-2440,-432,108,-176,79
5740,-928,-2224,-472,117,-260,111
5745,-840,-2192,-432,100,-348,137
5750,-768,-2152,-344,85,-436,133
5755,-648,-2128,-328,102,-523,97
5760,-512,-2056,-272,146,-594,44
5765,-376,-2024,-312,189,-646,-6
5770,-216,-1920,-360,208,-680,-57
5775,-128,-1856,-376,191,-693,-115
5780,8,-1792,-464,130,-700,-174
5785,64,-1720,-496,38,-701,-234
5790,128,-1696,-496,-80,-701,-298
5795,168,-1672,-512,-209,-700,-358
5800,200,-1712,-504,-324,-701,-405
5805,216,-1768,-464,-414,-702,-431
5810,200,-1832,-416,-464,-709,-447
5815,176,-1832,-368,-485,-721,-454
5820,112,-1872,-360,-491,-738,-445
5825,72,-1928,-328,-493,-762,-430
5830,16,-1944,-256,-495,-789,-414
5835,0,-1984,-232,-491,-814,-392
5840,-24,-1976,-216,-492,-834,-366
5845,-8,-2032,-184,-502,-846,-338
5850,8,-2008,-208,-518,-851,-307
5855,24,-2000,-216,-541,-852,-275
5860,48,-1992,-176,-566,-855,-239
5865,40,-1992,-200,-597,-866,-210
5870,48,-1984,-176,-619,-880,-184
5875,64,-2016,-152,-619,-897,-163
5880,56,-2040,-96,-590,-914,-146
5885,72,-2040,-96,-527,-931,-131
5890,32,-1992,-88,-444,-947,-117
5895,64,-1984,-120,-356,-961,-100
5900,32,-1992,-40,-270,-974,-85
5905,56,-1952,-32,-193,-985,-70
5910,40,-1936,-72,-123,-994,-58
5915,56,-1888,-48,-71,-999,-46
5920,48,-1888,-32,-38,-1001,-35
5925,64,-1816,-88,-17,-1003,-23
5930,56,-1744,-112,-17,-998,-14
5935,48,-1720,-112,-37,-992,-4
5940,64,-1648,-88,-67,-985,5
5945,56,-1640,-72,-102,-981,15
5950,32,-1600,-64,-136,-978,24
5955,112,-1632,-24,-165,-975,35
5960,88,-1600,0,-185,-969,48
5965,104,-1608,16,-196,-963,60
5970,112,-1608,40,-203,-958,73
5975,112,-1616,48,-202,-951,84
5980,112,-1624,80,-200,-944,93
5985,136,-1664,112,-198,-939,103
5990,144,-1688,112,-191,-930,111
5995,184,-1744,136,-173,-924,114
6000,200,-1824,184,-149,-916,118
6005,232,-1888,248,-111,-910,122
6010,248,-1936,152,-60,-898,119
6015,296,-1992,232,-8,-868,113
6020,312,-1992,168,35,-829,106
6025,328,-2032,136,61,-792,96
6030,352,-2024,88,61,-764,86
6035,392,-2048,64,41,-736,70
6040,344,-2048,72,17,-708,53
6045,304,-2080,88,5,-691,41
6050,264,-2112,144,-3,-673,35
6055,256,-2144,200,7,-639,24
6060,208,-2176,248,25,-597,13
6065,168,-2200,336,48,-540,2
6070,168,-2160,400,65,-480,-5
6075,112,-2112,416,62,-424,-14
6080,80,-2072,488,35,-381,-29
6085,32,-2040,544,-16,-354,-48
6090,8,-2048,496,-68,-340,-68
6095,8,-2072,368,-108,-326,-87
6100,8,-2128,208,-130,-305,-105
6105,96,-2240,-16,-149,-273,-130
6110,200,-2432,-336,-192,-226,-169
6115,304,-2680,-552,-276,-150,-229
6120,472,-2848,-704,-391,-39,-299
6125,608,-3088,-720,-498,106,-377
6130,752,-3344,-632,-560,256,-463
6135,872,-3504,-496,-560,388,-561
6140,888,-3568,-384,-520,483,-673
6145,872,-3544,-328,-452,538,-798
6150,880,-3480,-384,-379,569,-928
6155,808,-3400,-504,-308,586,-1058
6160,656,-3232,-592,-254,590,-1172
6165,520,-3128,-704,-211,567,-1264
6170,344,-3040,-848,-178,509,-1337
6175,224,-2856,-800,-153,430,-1378
6180,144,-2664,-864,-137,343,-1397
6185,88,-2480,-968,-133,264,-1400
6190,64,-2320,-912,-143,196,-1389
6195,8,-2152,-904,-155,126,-1365
6200,-72,-2048,-952,-165,45,-1328
6205,-144,-1928,-896,-173,-54,-1267
6210,-224,-1944,-904,-180,-171,-1201
6215,-264,-1912,-848,-178,-291,-1120
6220,-328,-1880,-832,-154,-405,-1021
6225,-400,-1832,-848,-107,-493,-895
6230,-416,-1832,-768,-47,-558,-748
6235,-448,-1872,-752,11,-595,-592
6240,-472,-1960,-688,67,-612,-435
6245,-448,-2016,-664,120,-614,-281
6250,-392,-2088,-624,158,-609,-135
6255,-264,-2192,-608,182,-596,-6
6260,-96,-2320,-584,208,-582,101
6265,24,-2408,-560,240,-567,187
6270,184,-2568,-528,293,-558,260
6275,288,-2664,-528,373,-550,316
6280,472,-2768,-512,479,-537,354
6285,592,-2816,-504,598,-521,360
6290,712,-2824,-512,717,-497,348
6295,880,-2792,-512,824,-460,316
6300,1008,-2712,-568,916,-413,266
6305,1096,-2584,-584,983,-353,209
6310,1168,-2448,-632,1019,-283,151
6315,1216,-2208,-632,1021,-210,95
6320,1192,-2016,-624,978,-145,46
6325,1176,-1848,-640,895,-94,12
6330,1072,-1680,-552,784,-54,-7
6335,1056,-1536,-528,669,-21,-5
6340,1000,-1424,-448,563,14,15
6345,896,-1368,-368,481,55,53
6350,760,-1328,-344,418,105,111
6355,616,-1360,-304,366,159,178
6360,504,-1400,-344,318,213,256
6365,368,-1448,-384,270,260,337
6370,248,-1512,-384,218,296,410
6375,120,-1536,-376,163,318,474
6380,40,-1576,-408,107,331,535
6385,0,-1584,-456,47,337,583
6390,-16,-1632,-464,-16,340,616
6395,-8,-1704,-488,-82,346,635
6400,0,-1736,-480,-143,351,635
6405,0,-1792,-456,-193,355,611
6410,16,-1792,-384,-221,361,573
6415,56,-1800,-352,-229,366,531
6420,112,-1784,-264,-220,367,489
6425,168,-1744,-240,-202,365,445
6430,168,-1704,-216,-188,363,402
6435,152,-1688,-192,-183,363,354
6440,160,-1688,-64,-186,363,317
6445,192,-1704,-16,-189,366,282
6450,200,-1696,-104,-193,370,252
6455,176,-1752,88,-182,382,223
6460,232,-1760,24,-159,399,198
6465,224,-1920,48,-131,421,177
6470,216,-1880,40,-105,447,163
6475,240,-1848,56,-78,471,158
6480,264,-1888,64,-47,492,158
6485,200,-1880,80,-26,510,164
6490,232,-1864,64,-10,520,171
6495,136,-1880,104,10,522,176
6500,168,-1888,168,35,513,178
6505,88,-1928,152,62,499,179
6510,16,-1960,56,92,485,183
6515,32,-1976,224,123,473,188
6520,-8,-1968,168,156,462,194
6525,-8,-1960,64,190,452,202
6530,-48,-2000,112,225,443,205
6535,-24,-1968,72,255,438,202
6540,-48,-1968,80,282,436,197
6545,-8,-1976,40,304,440,187
6550,40,-1936,0,322,446,173
6555,80,-1952,40,338,459,157
6560,120,-1984,56,343,473,133
6565,264,-1960,-8,344,494,103
6570,320,-1968,-24,335,518,73
6575,392,-2080,64,322,541,40
6580,504,-1952,80,298,558,3
6585,512,-1976,160,268,572,-29
6590,560,-2000,256,230,581,-62
6595,632,-2016,320,190,584,-94
6600,600,-2016,376,142,581,-118
6605,552,-1968,400,88,572,-142
6610,520,-2008,456,24,559,-155
6615,448,-1960,456,-49,544,-160
6620,360,-1968,424,-124,526,-159
6625,264,-1960,496,-191,509,-148
6630,192,-1968,504,-237,486,-129
6635,120,-1984,520,-259,463,-101
6640,56,-1968,488,-258,442,-76
6645,8,-1864,464,-257,427,-56
6650,-8,-1792,456,-265,420,-44
6655,-32,-1760,496,-285,420,-31
6660,-32,-1720,472,-317,430,-21
6665,-24,-1664,552,-358,440,-11
6670,-24,-1720,528,-401,451,-7
6675,-32,-1736,504,-438,454,-3
6680,-32,-1848,424,-467,441,3
6685,16,-1976,248,-480,410,10
6690,32,-2136,56,-484,370,11
6695,-96,-2376,-184,-483,328,11
6700,-256,-2608,-528,-492,272,14
6705,-536,-2816,-864,-549,201,34
6710,-824,-3032,-1224,-680,124,78
6715,-1008,-3192,-1376,-882,55,135
6720,-1208,-3336,-1512,-1107,2,198
6725,-1352,-3400,-1416,-1288,-44,281
6730,-1416,-3400,-1248,-1365,-98,393
6735,-1304,-3416,-1120,-1311,-156,529
6740,-1040,-3384,-1032,-1140,-213,670
6745,-784,-3272,-1016,-899,-255,798
6750,-456,-3160,-1000,-644,-279,910
6755,-144,-3032,-992,-413,-293,1006
6760,136,-2856,-960,-213,-304,1084
6765,408,-2616,-920,-45,-312,1136
6770,640,-2352,-864,95,-306,1162
6775,816,-2080,-808,199,-286,1165
6780,984,-1840,-704,256,-258,1152
6785,1088,-1632,-608,260,-224,1125
6790,1176,-1496,-488,221,-190,1084
6795,1216,-1416,-432,160,-163,1026
6800,1256,-1408,-424,93,-133,945
6805,1192,-1416,-424,15,-99,840
6810,1112,-1512,-448,-71,-62,712
6815,896,-1568,-520,-164,-23,570
6820,656,-1640,-504,-261,22,421
6825,488,-1712,-528,-353,73,276
6830,312,-1832,-480,-424,115,139
6835,160,-1904,-456,-464,144,17
6840,0,-2008,-432,-476,165,-94
6845,-152,-2056,-368,-465,180,-196
6850,-288,-2184,-296,-429,187,-288
6855,-480,-2240,-296,-371,184,-369
6860,-640,-2304,-296,-314,167,-434
6865,-824,-2328,-304,-258,130,-481
6870,-920,-2328,-384,-216,75,-506
6875,-1008,-2336,-408,-190,2,-510
6880,-1096,-2328,-408,-184,-92,-499
6885,-1176,-2304,-448,-199,-201,-456
6890,-1112,-2288,-464,-239,-317,-379
6895,-1048,-2232,-464,-296,-433,-284
6900,-960,-2152,-416,-355,-541,-188
6905,-872,-2048,-368,-394,-640,-101
6910,-704,-2008,-368,-402,-727,-24
6915,-584,-1936,-280,-378,-809,16
6920,-432,-1888,-272,-326,-877,23
6925,-248,-1848,-256,-260,-929,7
6930,-104,-1776,-248,-190,-962,-21
6935,16,-1760,-248,-133,-987,-60
6940,128,-1720,-264,-99,-1003,-109
6945,216,-1704,-264,-96,-1021,-166
6950,328,-1632,-304,-111,-1044,-224
6955,416,-1592,-328,-161,-1071,-283
6960,464,-1568,-392,-232,-1098,-342
6965,520,-1592,-424,-324,-1124,-394
6970,536,-1608,-464,-437,-1139,-438
6975,600,-1672,-432,-560,-1146,-465
6980,608,-1736,-328,-667,-1145,-480
6985,592,-1856,-384,-751,-1134,-486
6990,504,-1912,-400,-812,-1115,-486
6995,456,-2000,-424,-860,-1091,-465
7000,376,-2064,-408,-884,-1065,-433
7005,288,-2096,-400,-877,-1042,-395
7010,168,-2152,-368,-834,-1033,-348
7015,88,-2200,-352,-747,-1047,-295
7020,80,-2200,-344,-624,-1057,-235
7025,72,-2224,-256,-486,-1041,-174
7030,104,-2240,-232,-349,-994,-116
7035,120,-2184,-192,-230,-923,-78
7040,176,-2152,-248,-139,-844,-66
7045,176,-2104,-184,-89,-773,-64
7050,192,-2040,-256,-77,-732,-73
7055,192,-1984,-312,-97,-718,-88
7060,224,-1920,-376,-145,-717,-104
7065,248,-1872,-456,-214,-711,-119
7070,232,-1840,-416,-293,-695,-134
7075,288,-1840,-424,-367,-672,-141
7080,320,-1864,-376,-426,-643,-141
7085,376,-1856,-376,-455,-613,-139
7090,376,-1832,-344,-462,-584,-133
7095,432,-1888,-264,-453,-556,-124
7100,432,-1880,-248,-436,-530,-115
7105,472,-1928,-248,-418,-503,-102
7110,472,-1944,-232,-407,-468,-94
7115,464,-2016,-248,-404,-427,-85
7120,416,-2008,-240,-404,-380,-78
7125,384,-2048,-296,-418,-326,-73
7130,320,-2072,-328,-442,-264,-68
7135,240,-2096,-312,-470,-203,-60
7140,200,-2120,-264,-496,-148,-48
7145,128,-2152,-312,-512,-108,-38
7150,88,-2200,-296,-512,-75,-25
7155,56,-2208,-320,-490,-50,-11
7160,32,-2248,-304,-447,-27,-1
7165,32,-2296,-312,-399,-3,7
7170,40,-2264,-320,-361,19,10
7175,32,-2232,-376,-329,42,9
7180,56,-2216,-360,-311,66,-2
7185,56,-2192,-320,-300,87,-19
7190,64,-2208,-360,-291,105,-40
7195,48,-2184,-368,-284,117,-63
7200,32,-2192,-312,-280,121,-86
7205,40,-2176,-320,-281,126,-110
7210,24,-2216,-320,-289,133,-133
7215,16,-2224,-304,-300,146,-151
7220,40,-2224,-392,-311,166,-164
7225,32,-2192,-384,-326,183,-175
7230,24,-2192,-472,-343,199,-181
7235,48,-2160,-512,-372,205,-183
7240,0,-2128,-560,-410,206,-180
7245,56,-2088,-584,-463,204,-174
7250,48,-2056,-664,-527,199,-164
7255,56,-2016,-664,-594,187,-152
7260,88,-1960,-696,-658,165,-137
7265,128,-1944,-752,-715,133,-122
7270,184,-1912,-792,-766,92,-105
7275,224,-1904,-784,-816,42,-96
7280,296,-1864,-784,-870,-8,-96
7285,352,-1776,-744,-935,-64,-109
7290,376,-1680,-664,-1007,-120,-133
7295,352,-1544,-512,-1084,-180,-167
7300,352,-1448,-376,-1159,-239,-206
7305,424,-1264,-168,-1226,-287,-253
7310,480,-1104,32,-1278,-321,-304
7315,528,-1008,144,-1310,-345,-366
7320,528,-816,224,-1316,-362,-416
7325,512,-688,208,-1299,-375,-464
7330,520,-616,168,-1256,-389,-506
7335,424,-592,96,-1187,-410,-541
7340,192,-624,-40,-1104,-469,-561
7345,-8,-744,-248,-1020,-538,-563
7350,-176,-896,-432,-957,-606,-535
7355,-248,-1064,-544,-926,-653,-477
7360,-344,-1248,-584,-945,-672,-398
7365,-320,-1408,-704,-996,-667,-312
7370,-352,-1528,-784,-1064,-652,-221
7375,-296,-1576,-816,-1139,-625,-128
7380,-192,-1552,-864,-1204,-581,-37
7385,-88,-1488,-904,-1252,-524,57
7390,120,-1416,-976,-1282,-466,153
7395,424,-1400,-920,-1290,-402,249
7400,632,-1464,-896,-1262,-360,339
7405,840,-1616,-832,-1188,-366,405
7410,984,-1768,-760,-1076,-431,447
7415,1104,-2048,-640,-951,-538,457
7420,1208,-2352,-496,-820,-659,447
7425,1264,-2608,-368,-679,-767,421
7430,1184,-2816,-264,-519,-862,373
7435,1088,-3008,-248,-351,-950,309
7440,960,-3096,-328,-211,-1030,228
7445,800,-3088,-424,-126,-1102,147
7450,664,-2984,-536,-104,-1162,84
7455,528,-2840,-656,-131,-1215,39
7460,432,-2744,-784,-189,-1266,10
7465,360,-2648,-880,-264,-1316,-4
7470,288,-2576,-872,-338,-1377,-1
7475,232,-2520,-848,-407,-1451,8
7480,256,-2480,-768,-474,-1550,19
7485,232,-2360,-656,-538,-1677,20
7490,184,-2264,-576,-595,-1828,17
7495,64,-2112,-456,-638,-1998,22
7500,-16,-2024,-456,-675,-2181,36
7505,-112,-1944,-424,-710,-2375,59
7510,-256,-1896,-472,-743,-2563,102
7515,-384,-1896,-528,-795,-2737,169
7520,-512,-1864,-664,-866,-2892,264
7525,-544,-1920,-784,-963,-3025,373
7530,-592,-2016,-824,-1072,-3136,482
7535,-584,-2152,-856,-1172,-3235,595
7540,-544,-2312,-856,-1246,-3328,700
7545,-424,-2528,-864,-1295,-3421,792
7550,-296,-2656,-824,-1317,-3526,865
7555,-232,-2832,-832,-1326,-3646,911
7560,-168,-2904,-760,-1322,-3782,935
7565,-88,-2928,-728,-1303,-3921,935
7570,-32,-2952,-648,-1271,-4044,920
7575,-8,-2872,-584,-1217,-4161,891
7580,16,-2720,-536,-1153,-4258,858
7585,40,-2584,-568,-1114,-4343,829
7590,128,-2432,-624,-1116,-4416,798
7595,200,-2224,-688,-1175,-4475,765
7600,280,-2056,-712,-1301,-4525,736
7605,352,-1872,-736,-1480,-4558,702
7610,376,-1720,-760,-1696,-4574,655
7615,392,-1592,-712,-1938,-4577,592
7620,368,-1448,-624,-2194,-4575,520
7625,384,-1312,-480,-2438,-4564,436
7630,344,-1176,-408,-2660,-4532,336
7635,336,-1064,-328,-2854,-4483,221
7640,320,-944,-248,-3017,-4419,95
7645,272,-800,-208,-3138,-4342,-41
7650,296,-680,-136,-3194,-4261,-178
7655,224,-568,8,-3176,-4192,-322
7660,216,-416,128,-3101,-4126,-472
7665,216,-328,272,-2989,-4070,-602
7670,256,-176,272,-2855,-3983,-719
7675,296,-48,168,-2713,-3861,-812
7680,336,24,136,-2573,-3739,-884
7685,320,104,80,-2444,-3657,-953
7690,256,176,40,-2327,-3627,-1019
7695,192,240,-40,-2216,-3629,-1071
7700,104,312,-152,-2115,-3626,-1084
7705,32,344,-272,-2018,-3595,-1046
7710,-40,336,-376,-1924,-3550,-963
7715,-168,344,-368,-1829,-3497,-844
7720,-248,288,-328,-1727,-3442,-704
7725,-312,192,-280,-1617,-3387,-556
7730,-376,128,-96,-1503,-3325,-412
7735,-400,64,0,-1390,-3263,-251
7740,-416,16,32,-1284,-3205,-122
7745,-384,0,48,-1186,-3149,0
7750,-360,-24,32,-1103,-3086,115
7755,-288,0,-32,-1026,-3000,224
7760,-184,56,-128,-963,-2930,336
7765,-88,48,-296,-923,-2861,457
7770,16,120,-376,-906,-2777,566
7775,128,120,-464,-913,-2674,660
7780,192,112,-512,-934,-2567,741
7785,240,40,-512,-957,-2471,797
7790,224,-96,-472,-961,-2382,822
7795,176,-248,-352,-939,-2289,825
7800,104,-472,-264,-899,-2185,814
7805,88,-624,-328,-852,-2049,796
7810,40,-752,-464,-815,-1865,781
7815,32,-832,-504,-792,-1661,769
7820,0,-896,-504,-751,-1484,755
7825,-8,-968,-512,-671,-1361,716
7830,-96,-1088,-584,-579,-1288,638
7835,-232,-1296,-512,-490,-1276,509
7840,-472,-1664,-488,-404,-1315,325
7845,-912,-2032,-560,-324,-1377,98
7850,-1544,-2360,-344,-253,-1440,-137
7855,-2296,-2584,-192,-201,-1510,-340
7860,-3128,-2824,-360,-205,-1565,-485
7865,-4120,-3088,-560,-285,-1582,-553
7870,-5328,-3480,-872,-426,-1586,-515
7875,-6568,-3576,-1384,-650,-1640,-354
7880,-7864,-3040,-2096,-993,-1832,-58
7885,-9064,-2352,-2688,-1378,-2211,348
7890,-10392,-1936,-3144,-1665,-2747,761
7895,-11536,-1600,-3104,-1770,-3412,1128
7900,-12112,-1264,-2976,-1587,-4135,1418
7905,-12408,-1008,-2872,-1086,-4803,1650
7910,-12376,-928,-3032,-374,-5230,1968
7915,-11800,-1048,-3112,369,-5461,2399
7920,-10760,-1336,-3032,1033,-5580,2908
7925,-9328,-1832,-2504,1571,-5580,3463
7930,-7480,-2432,-1760,2075,-5400,4033
7935,-6296,-3144,-584,2503,-4944,4456
7940,-5280,-3872,680,2927,-4358,4794
7945,-4232,-4440,1528,3354,-3729,5036
7950,-3592,-4576,1840,3683,-3079,5156
7955,-3040,-4408,1528,3782,-2497,5241
7960,-2584,-4064,960,3601,-2050,5326
7965,-1992,-3664,520,3216,-1780,5368
7970,-1208,-3216,136,2801,-1629,5296
7975,-408,-2664,-8,2452,-1466,5098
7980,296,-2208,48,2188,-1229,4795
7985,512,-1688,256,1997,-938,4431
7990,848,-1352,808,1837,-634,4088
7995,1064,-1048,1080,1740,-356,3748
8000,1232,-840,1168,1679,-69,3475
8005,1432,-648,1008,1651,216,3301
8010,1672,-632,712,1668,454,3222
8015,1768,-528,368,1735,624,3189
8020,1688,-424,0,1817,728,3156
8025,1448,-224,-400,1849,800,3082
8030,1048,48,-496,1762,877,2980
8035,624,320,-480,1555,967,2880
8040,192,576,-408,1265,1081,2786
8045,-224,800,-256,958,1226,2709
8050,-600,968,-200,680,1389,2652
8055,-1032,1080,-168,441,1540,2595
8060,-1432,1128,-16,234,1665,2535
8065,-1864,1128,192,60,1754,2456
8070,-2312,1080,368,-77,1793,2366
8075,-2792,968,376,-170,1779,2286
8080,-3208,848,384,-202,1697,2229
8085,-3560,656,288,-181,1543,2188
8090,-3696,408,224,-130,1344,2125
8095,-3752,184,32,-75,1170,2036
8100,-3624,-40,-96,-22,1043,1938
8105,-3448,-296,-208,51,951,1839
8110,-3248,-464,-352,181,888,1734
8115,-3024,-536,-440,376,859,1643
8120,-2664,-664,-504,609,858,1574
8125,-2296,-768,-472,833,878,1492
8130,-2024,-744,-464,1000,902,1386
8135,-1768,-648,-480,1095,906,1274
8140,-1520,-480,-560,1142,877,1183
8145,-1448,-168,-464,1160,846,1129
8150,-1376,136,-440,1173,812,1113
8155,-1208,496,-520,1200,767,1121
8160,-1016,888,-536,1235,708,1124
8165,-920,1264,-544,1268,690,1093
8170,-816,1776,-600,1292,729,1037
8175,-768,2288,-648,1287,813,987
8180,-720,2736,-672,1234,918,932
8185,-696,3080,-776,1147,1008,806
8190,-840,3408,-856,1052,1099,618
8195,-1000,3688,-952,966,1145,429
8200,-1176,3712,-1000,883,1124,237
8205,-1504,3664,-1056,761,1070,-3
8210,-1848,3520,-1024,570,1002,-268
8215,-2264,3488,-960,411,952,-504
8220,-2304,3320,-856,294,948,-659
8225,-2568,3048,-672,241,1008,-771
8230,-2936,2704,-488,239,1048,-883
8235,-3104,2360,-416,259,1013,-1002
8240,-3032,2008,-392,269,939,-1118
8245,-2912,1664,-472,255,895,-1250
8250,-2664,1384,-520,236,919,-1367
8255,-2736,1128,-424,229,1011,-1453
8260,-2656,1040,-376,280,1123,-1502
8265,-2280,872,-320,387,1218,-1515
8270,-2200,792,-208,506,1273,-1562
8275,-2056,800,-232,630,1251,-1592
8280,-2088,936,-208,751,1166,-1591
8285,-2024,1072,-272,855,1036,-1565
8290,-1864,1248,-352,927,880,-1524
8295,-1784,1432,-424,947,709,-1486
8300,-1800,1712,-448,913,535,-1432
8305,-1768,1856,-408,842,372,-1345
8310,-1704,1920,-408,752,233,-1259
8315,-1680,1912,-400,629,112,-1203
8320,-1744,1840,-264,468,0,-1161
8325,-1816,1688,-160,309,-101,-1112
8330,-1776,1536,-32,172,-202,-1056
8335,-1696,1368,-40,74,-287,-1001
8340,-1616,1176,-72,8,-341,-943
8345,-1576,1000,-144,-41,-365,-893
8350,-1568,880,-192,-80,-374,-852
8355,-1592,704,-312,-109,-376,-814
8360,-1552,760,-424,-130,-378,-771
8365,-1544,712,-576,-132,-392,-720
8370,-1520,656,-688,-132,-426,-667
8375,-1456,616,-736,-136,-482,-608
8380,-1400,584,-864,-145,-545,-547
8385,-1360,520,-912,-172,-602,-487
8390,-1344,504,-968,-216,-646,-433
8395,-1384,512,-928,-268,-675,-383
8400,-1416,536,-928,-311,-694,-321
8405,-1488,520,-856,-356,-709,-255
8410,-1544,552,-744,-407,-745,-196
8415,-1648,528,-680,-442,-799,-135
8420,-1704,568,-640,-473,-863,-70
8425,-1776,560,-624,-495,-924,-8
8430,-1824,576,-584,-502,-968,53
8435,-1864,592,-600,-504,-994,110
8440,-1920,552,-624,-507,-1001,153
8445,-1920,528,-656,-511,-993,180
8450,-1960,488,-664,-510,-960,192
8455,-1968,424,-656,-500,-908,186
8460,-1936,360,-688,-486,-848,173
8465,-1944,360,-656,-473,-781,149
8470,-1936,208,-648,-468,-717,113
8475,-1928,184,-632,-463,-653,70
8480,-1936,88,-592,-458,-590,18
8485,-1936,24,-552,-443,-536,-38
8490,-1976,0,-544,-419,-491,-94
8495,-1992,-24,-496,-382,-453,-149
8500,-2016,-72,-480,-341,-428,-192
8505,-2048,-64,-488,-297,-410,-227
8510,-2080,-96,-512,-251,-392,-250
8515,-2128,-80,-480,-198,-375,-264
8520,-2176,-72,-464,-135,-354,-267
8525,-2152,-32,-496,-67,-327,-265
8530,-2192,0,-472,6,-298,-260
8535,-2160,-16,-496,75,-267,-254
8540,-2168,16,-496,145,-237,-247
8545,-2152,32,-504,217,-210,-246
8550,-2096,64,-528,283,-186,-243
8555,-2072,112,-536,332,-168,-245
8560,-2032,112,-528,366,-158,-248
8565,-2032,112,-528,389,-166,-257
8570,-2016,80,-512,398,-180,-261
8575,-2048,120,-544,393,-195,-264
8580,-2064,120,-512,382,-211,-261
8585,-2080,112,-544,359,-222,-255
8590,-2072,80,-520,327,-225,-246
8595,-2128,80,-512,286,-215,-232
8600,-2144,80,-504,244,-204,-216
8605,-2144,16,-496,198,-198,-200
8610,-2136,-8,-504,144,-196,-187
8615,-2144,0,-472,103,-199,-171
8620,-2096,-24,-464,66,-202,-162
8625,-2096,-64,-448,30,-204,-155
8630,-2056,-80,-440,1,-201,-149
8635,-2040,-112,-416,-25,-198,-145
8640,-2008,-136,-416,-47,-192,-144
8645,-1984,-152,-376,-62,-192,-138
8650,-1896,-184,-376,-67,-190,-129
8655,-1896,-192,-344,-73,-185,-121
8660,-1896,-200,-328,-74,-177,-109
8665,-1792,-240,-336,-72,-172,-93
8670,-1768,-240,-328,-70,-164,-83
8675,-1776,-264,-360,-68,-154,-70
8680,-1808,-256,-368,-64,-144,-53
8685,-1728,-224,-368,-58,-142,-34
8690,-1720,-248,-352,-60,-141,-20
8695,-1752,-232,-360,-67,-135,-11
8700,-1768,-200,-408,-79,-128,2
8705,-1792,-200,-376,-90,-122,10
8710,-1800,-176,-376,-96,-113,16
8715,-1816,-160,-400,-96,-100,20
8720,-1816,-136,-416,-92,-87,21
8725,-1888,-120,-392,-85,-75,19
8730,-1880,-128,-424,-75,-66,14
8735,-1920,-80,-376,-59,-56,12
8740,-1952,-64,-424,-39,-50,9
8745,-1952,-32,-392,-18,-43,7
8750,-1960,-8,-368,-1,-37,8
8755,-1984,-16,-376,13,-36,12
8760,-1992,0,-416,24,-35,19
8765,-2008,16,-400,31,-35,26
8770,-1992,8,-392,34,-37,35
8775,-2000,8,-376,32,-36,42
8780,-1976,16,-432,27,-35,51
8785,-2000,56,-400,20,-30,59
8790,-1952,16,-408,11,-26,69
8795,-1952,40,-400,1,-19,76
8800,-1976,48,-424,-9,-11,83
8805,-1952,24,-416,-16,-3,89
8810,-1952,32,-416,-22,3,94
8815,-1944,48,-448,-24,5,96
8820,-1960,40,-416,-24,8,99
8825,-1968,32,-432,-21,12,102
8830,-1984,56,-432,-16,14,97
8835,-1960,56,-416,-9,17,93
8840,-1992,56,-368,-6,23,96
8845,-1992,64,-424,-5,29,99
8850,-1984,64,-416,-2,34,101
8855,-1992,80,-424,-3,39,101
8860,-1992,88,-424,-4,40,102
8865,-1992,88,-416,-8,43,103
8870,-1984,104,-432,-13,42,104
8875,-1984,96,-376,-18,39,106
8880,-2008,128,-416,-22,36,107
8885,-1984,104,-400,-28,34,109
8890,-1968,96,-424,-30,32,112
8895,-1984,112,-384,-34,30,112
8900,-1960,104,-376,-35,28,111
8905,-1952,104,-440,-35,25,111
8910,-1952,120,-416,-33,25,108
8915,-1960,120,-392,-28,23,106
8920,-1928,104,-368,-21,19,102
8925,-1944,104,-392,-13,16,99
8930,-1960,144,-392,-5,11,94
8935,-1936,128,-400,1,5,89
8940,-1944,128,-376,8,-2,85
8945,-1960,136,-360,16,-8,75
8950,-1944,144,-376,22,-15,68
8955,-1960,144,-384,27,-21,61
8960,-1984,176,-400,31,-26,53
8965,-1960,184,-416,30,-31,45
8970,-1968,184,-416,30,-34,35
8975,-1960,168,-432,27,-34,28
8980,-1968,192,-416,23,-33,18
8985,-1976,184,-392,21,-30,10
8990,-1944,168,-408,18,-29,3
8995,-1960,208,-440,14,-25,-3
9000,-1968,120,-440,11,-20,-9
9005,-1992,200,-440,6,-16,-16
9010,-1984,192,-432,4,-13,-20
9015,-2008,184,-432,1,-14,-25
9020,-1952,152,-424,-6,-12,-27
9025,-2008,160,-448,-12,-11,-30
9030,-1984,144,-472,-17,-11,-30
9035,-1968,144,-424,-20,-11,-28
9040,-1960,120,-440,-27,-9,-28
9045,-1952,112,-416,-36,-11,-24
9050,-1952,120,-416,-42,-13,-21
9055,-1904,136,-336,-49,-16,-18
9060,-1976,112,-400,-55,-21,-19
9065,-1968,80,-416,-59,-28,-16
9070,-1952,56,-424,-63,-34,-14
9075,-1984,80,-384,-62,-35,-15
9080,-1944,56,-400,-60,-38,-14
9085,-1992,88,-432,-60,-36,-16
9090,-1952,24,-384,-59,-33,-17
9095,-1960,48,-408,-57,-28,-17
9100,-1984,32,-408,-54,-20,-17
9105,-2000,8,-352,-52,-15,-19
9110,-1968,40,-392,-49,-8,-18
9115,-1976,24,-416,-47,-3,-16
9120,-1960,40,-400,-44,0,-16
9125,-1952,24,-368,-39,0,-12
9130,-1968,40,-400,-34,0,-9
9135,-1976,56,-392,-27,1,-8
9140,-1968,32,-408,-20,0,-7
9145,-1992,48,-400,-15,-2,-6
9150,-1976,40,-376,-7,-3,-6
9155,-1968,48,-392,-3,-2,-4
9160,-1944,32,-472,2,-3,-6
9165,-1976,40,-448,4,-3,-5
9170,-1992,64,-392,6,-3,-6
9175,-1976,48,-392,5,-2,-5
9180,-1976,32,-384,5,-3,-6
9185,-1944,24,-392,4,-5,-5
9190,-1976,56,-408,1,-4,-5
9195,-1936,64,-392,-3,-5,-5
9200,-1992,80,-376,-8,-2,-5
9205,-1976,80,-400,-10,-1,-5
9210,-1960,40,-392,-14,2,-4
9215,-1976,16,-368,-18,4,-3
9220,-1928,48,-424,-22,7,-3
9225,-1936,32,-400,-26,11,-3
9230,-1968,72,-400,-28,13,-2
9235,-1952,88,-392,-31,15,-1
9240,-1960,72,-400,-29,19,1
9245,-1936,48,-408,-33,20,3
9250,-1952,80,-392,-32,19,5
9255,-1968,72,-400,-33,18,8
9260,-1984,88,-368,-34,18,10
9265,-1952,56,-440,-34,20,14
9270,-1952,80,-376,-33,23,15
9275,-1952,88,-384,-33,26,17
9280,-1952,64,-400,-32,30,17
9285,-1952,80,-352,-34,34,18
9290,-1968,80,-376,-37,35,18
9295,-1976,104,-416,-39,38,18
9300,-1952,88,-368,-44,42,17
9305,-1976,104,-416,-48,45,16
9310,-1976,96,-408,-52,49,15
9315,-1968,88,-384,-57,51,13
9320,-1992,80,-416,-61,55,10
9325,-1960,96,-368,-63,58,10
9330,-1952,72,-408,-63,59,7
9335,-1976,88,-376,-65,60,6
9340,-1960,96,-424,-63,60,8
9345,-1984,96,-424,-60,57,7
9350,-1968,104,-448,-59,56,5
9355,-1976,120,-408,-54,55,4
9360,-1960,80,-424,-50,55,3
9365,-1976,64,-432,-44,53,3
9370,-1984,80,-432,-41,52,3
9375,-1984,88,-440,-38,50,1
9380,-1976,88,-456,-35,48,1
9385,-1944,64,-432,-34,46,-1
9390,-1968,88,-416,-31,42,-4
9395,-1968,120,-432,-33,39,-7
9400,-1968,80,-400,-33,35,-10
9405,-1960,96,-448,-36,30,-12
9410,-1984,112,-400,-37,25,-14
9415,-1960,104,-432,-42,22,-17
9420,-1960,72,-424,-46,18,-17
9425,-1976,88,-424,-51,14,-19
9430,-1976,96,-424,-57,14,-20
9435,-1960,96,-432,-62,15,-22
9440,-1944,72,-448,-66,18,-24
9445,-1968,80,-432,-68,20,-23
9450,-1976,96,-416,-67,23,-21
9455,-1936,40,-392,-63,26,-19
9460,-1936,24,-368,-52,27,-19
9465,-1968,48,-392,-37,25,-14
9470,-1976,32,-400,-18,20,-6
9475,-1944,16,-400,1,17,-1
9480,-1960,48,-392,20,12,6
9485,-1984,32,-400,36,9,10
9490,-1984,32,-432,49,11,10
9495,-1968,48,-464,61,10,8
9500,-1976,96,-456,73,11,5
9505,-1960,88,-416,81,12,4
9510,-1976,120,-416,82,9,2
9515,-1912,112,-472,77,6,0
9520,-1952,104,-408,70,1,0
9525,-1936,136,-424,58,-5,-1
9530,-1960,152,-416,44,-14,-1
9535,-1976,128,-448,26,-21,-4
9540,-1960,144,-416,8,-23,-4
9545,-1944,120,-408,-11,-25,-7
9550,-1960,96,-408,-28,-22,-12
9555,-1984,128,-392,-44,-17,-14
9560,-1976,104,-424,-56,-10,-18
9565,-1960,88,-392,-68,-2,-21
9570,-1960,80,-392,-77,6,-22
9575,-1984,112,-400,-84,13,-25
9580,-1976,112,-384,-87,22,-29
9585,-1968,88,-440,-91,28,-30
9590,-1992,80,-432,-90,32,-30
9595,-1976,88,-424,-90,35,-28
9600,-1952,80,-376,-87,33,-27
9605,-1968,64,-376,-83,31,-24
9610,-1960,64,-392,-78,29,-24
9615,-1952,40,-400,-74,25,-21
9620,-1968,48,-392,-69,22,-19
9625,-1976,40,-384,-64,19,-18
9630,-1992,56,-376,-59,16,-16
9635,-1984,80,-416,-56,15,-15
9640,-1944,32,-392,-49,14,-14
9645,-1976,48,-432,-45,15,-14
9650,-1968,64,-392,-41,16,-15
9655,-1976,64,-400,-36,18,-14
9660,-1952,56,-424,-31,21,-13
9665,-1968,56,-408,-26,24,-14
9670,-1976,72,-384,-22,28,-14
9675,-1992,80,-376,-16,30,-15
9680,-1960,80,-424,-10,31,-14
9685,-1992,88,-392,-6,36,-12
9690,-1968,56,-376,-7,41,-7
9695,-1984,80,-336,-5,41,-4
9700,-1968,32,-408,-5,42,0
9705,-1936,64,-416,-4,41,3
9710,-1960,72,-400,-6,43,6
9715,-1928,64,-400,-5,40,5
9720,-1944,80,-416,0,33,3
9725,-1936,72,-416,-1,28,3
9730,-1960,80,-424,0,24,4
9735,-1936,48,-424,-2,23,3
9740,-1968,88,-408,-4,21,4
9745,-1968,48,-384,-11,21,4
9750,-1976,88,-416,-14,21,2
9755,-1968,96,-408,-20,22,1
9760,-1952,80,-432,-23,22,-1
9765,-1984,80,-408,-24,22,-3
9770,-1976,104,-408,-27,22,-1
9775,-2000,104,-384,-27,19,1
9780,-1976,72,-424,-27,15,2
9785,-1984,96,-400,-24,14,5
9790,-1944,80,-384,-24,15,7
9795,-1968,80,-392,-27,17,8
9800,-2000,104,-424,-23,20,10
9805,-1952,96,-408,-22,22,12
9810,-1976,88,-408,-20,25,11
9815,-1960,88,-424,-20,27,12
9820,-1968,72,-400,-20,27,12
9825,-1968,64,-424,-21,27,11
9830,-1952,64,-432,-25,25,8
9835,-1960,80,-408,-24,24,7
9840,-1992,88,-416,-20,20,5
9845,-1960,80,-432,-17,14,1
9850,-1984,112,-440,-13,11,0
9855,-1952,104,-440,-13,12,0
9860,-1960,56,-416,-12,15,2
9865,-1976,88,-424,-14,18,1
9870,-1992,96,-400,-18,20,1
9875,-1976,80,-416,-20,19,-1
9880,-1976,88,-416,-23,17,-2
9885,-1952,64,-408,-26,15,-5
9890,-1944,56,-416,-29,15,-7
9895,-1960,88,-416,-33,16,-6
9900,-1968,88,-416,-36,13,-8
9905,-1984,56,-392,-40,11,-7
9910,-1960,96,-416,-42,11,-8
9915,-1976,104,-392,-46,9,-8
9920,-1984,112,-424,-45,6,-8
9925,-1968,96,-408,-45,0,-10
9930,-1952,72,-400,-48,1,-11
9935,-1952,96,-416,-56,6,-8
9940,-1960,104,-408,-66,9,-6
9945,-1936,96,-392,-74,7,-4
9950,-1960,88,-376,-82,9,-4
9955,-1944,56,-384,-85,10,-4
9960,-1968,88,-416,-88,7,-7
9965,-1976,72,-408,-88,9,-9
9970,-1968,64,-360,-87,10,-12
9975,-1976,64,-384,-83,11,-14
9980,-1952,48,-368,-77,10,-15
9985,-1984,72,-416,-70,10,-14
9990,-1976,48,-408,-61,8,-13
9995,-1960,64,-424,-53,10,-13
10000,-1960,64,-368,-46,12,-8
10005,-1952,80,-432,-43,15,-7
10010,-1944,56,-392,-39,16,-6
10015,-1992,72,-472,-37,16,-4
10020,-1936,72,-416,-36,17,-2
10025,-1952,48,-416,-34,16,-1
10030,-1960,96,-392,-32,16,0
10035,-1976,96,-440,-32,15,0
10040,-1952,56,-416,-30,13,0
10045,-1968,80,-408,-31,12,-1
10050,-1960,72,-416,-31,12,1
10055,-1952,64,-424,-30,13,2
10060,-1968,72,-408,-30,13,0
10065,-1928,120,-448,-33,11,1
10070,-1984,72,-408,-34,8,-1
10075,-1944,64,-424,-37,9,-1
10080,-1960,80,-424,-40,9,-3
10085,-1984,88,-424,-46,9,-2
10090,-1992,88,-408,-48,10,-2
10095,-1984,96,-416,-50,8,-3
10100,-1968,104,-400,-51,9,-2
10105,-1968,96,-408,-55,11,-1
10110,-1952,72,-416,-57,10,1
10115,-1944,88,-424,-59,11,1
10120,-1872,72,-360,-57,11,2
10125,-1968,96,-440,-57,10,1
10130,-1968,64,-408,-57,9,2
10135,-1960,80,-376,-55,6,3
10140,-1960,64,-416,-54,7,3
10145,-1984,48,-392,-49,4,2
10150,-1976,64,-392,-46,4,2
10155,-1952,56,-408,-41,3,1
10160,-1944,48,-416,-36,4,2
10165,-1928,56,-400,-32,4,1
10170,-1968,72,-416,-32,4,2
10175,-1976,80,-384,-33,6,1
10180,-1952,64,-424,-34,7,1
10185,-1968,80,-432,-37,6,1
10190,-1984,88,-368,-40,7,0
10195,-1976,56,-408,-46,8,1
10200,-1944,80,-384,-47,8,-2
10205,-1952,80,-408,-50,9,-1
10210,-1952,88,-392,-50,10,2
10215,-1984,72,-416,-51,12,1
10220,-1976,72,-408,-49,13,2
10225,-1944,64,-328,-46,12,0
10230,-1976,72,-400,-44,13,2
10235,-1976,88,-384,-41,12,4
10240,-1976,80,-424,-40,11,2
10245,-1952,80,-424,-37,11,1
10250,-1992,96,-424,-34,10,2
10255,-1984,88,-416,-34,10,2
10260,-1952,72,-408,-34,8,3
10265,-1944,64,-408,-35,7,3
10270,-1968,88,-376,-37,7,4
10275,-1952,72,-424,-40,5,3
10280,-1952,88,-432,-43,4,5
10285,-1968,80,-384,-46,3,4
10290,-1968,72,-416,-48,2,3
10295,-1984,80,-416,-49,2,2
10300,-1976,104,-424,-49,1,0
10305,-1960,88,-408,-47,1,1
10310,-1960,80,-392,-45,2,0
10315,-1952,88,-376,-39,3,0
10320,-1960,80,-392,-34,2,2
10325,-1976,104,-408,-32,1,2
10330,-1960,72,-384,-29,3,2
10335,-1960,80,-416,-26,3,1
10340,-1960,88,-448,-25,4,2
10345,-1960,88,-392,-25,7,-1
10350,-1984,64,-424,-25,9,-3
10355,-1976,72,-424,-27,11,-4
10360,-1952,72,-408,-28,11,-4
10365,-1952,96,-416,-28,12,-4
10370,-1952,64,-400,-31,11,-4
10375,-1952,96,-376,-30,8,-4
10380,-1968,112,-416,-29,6,-3
10385,-2000,88,-392,-28,3,-1
10390,-1920,80,-408,-26,0,-1
10395,-1952,88,-392,-29,0,1
10400,-1976,96,-376,-31,0,2
10405,-1984,88,-400,-34,1,1
10410,-1984,80,-408,-33,2,0
10415,-1944,80,-392,-33,0,-1
10420,-1952,104,-384,-35,1,-1
10425,-1968,112,-384,-38,3,-1
10430,-1960,72,-384,-40,4,-1
10435,-1960,80,-400,-42,7,0
10440,-1960,48,-408,-41,9,0
10445,-1960,88,-376,-40,8,0
10450,-1968,88,-400,-40,9,1
10455,-1960,88,-384,-35,7,-1
10460,-1952,88,-416,-32,6,-3
10465,-1960,48,-384,-29,8,1
10470,-1968,88,-440,-25,7,1
10475,-1936,56,-368,-21,5,2
10480,-1928,80,-432,-17,5,3
10485,-1984,72,-400,-17,4,3
10490,-1960,88,-384,-18,5,3
10495,-1976,104,-416,-17,6,2
10500,-1968,96,-384,-20,7,2
10505,-1944,72,-416,-23,8,2
10510,-1936,72,-392,-28,10,2
10515,-1968,96,-368,-30,10,1
10520,-1960,80,-384,-34,10,0
10525,-1992,88,-392,-36,13,1
10530,-1968,80,-408,-37,12,0
10535,-1976,80,-384,-39,12,0
10540,-1968,88,-392,-42,14,-1
10545,-1960,144,-424,-43,14,0
10550,-1976,96,-424,-44,14,0
10555,-1960,80,-424,-44,14,0
10560,-1960,72,-416,-46,16,-3
10565,-1944,80,-368,-45,18,-2
10570,-1976,88,-400,-44,17,-2
10575,-1968,80,-392,-44,16,-1
10580,-1984,80,-424,-45,15,-1
10585,-1944,56,-424,-45,13,0
10590,-1992,80,-432,-47,14,1
10595,-1968,64,-432,-49,11,1
10600,-1976,56,-376,-49,11,1
10605,-1984,96,-424,-52,11,1
10610,-1976,72,-400,-55,10,1
10615,-1968,96,-440,-57,12,1
10620,-1960,80,-424,-60,12,-1
10625,-1968,88,-408,-60,12,-2
10630,-1944,56,-416,-62,14,-3
10635,-1984,88,-384,-63,15,-2
10640,-1960,80,-416,-61,14,-2
10645,-1952,48,-392,-58,14,-2
10650,-1984,88,-432,-54,16,-2
10655,-1936,96,-320,-49,14,0
10660,-1976,96,-400,-45,13,-1
10665,-1968,88,-416,-43,13,-1
10670,-1992,112,-384,-41,12,-1
10675,-1968,96,-416,-38,11,-1
10680,-1976,80,-400,-39,11,1
10685,-1968,72,-376,-38,10,2
10690,-1944,80,-416,-35,9,2
10695,-1968,80,-416,-36,9,1
10700,-1984,88,-456,-35,10,3
10705,-1952,64,-440,-38,10,1
10710,-1952,80,-400,-37,10,1
10715,-1960,88,-416,-41,10,2
10720,-1952,72,-392,-45,11,2
10725,-1960,96,-384,-48,11,2
10730,-1976,104,-416,-51,10,0
10735,-1968,96,-408,-55,10,-3
10740,-1984,96,-432,-59,9,-3
10745,-1968,56,-384,-61,7,-2
10750,-1968,80,-392,-65,8,-3
10755,-1952,104,-384,-66,10,-1
10760,-2008,80,-424,-67,9,-3
10765,-1952,96,-400,-69,10,-1
10770,-1952,80,-408,-69,9,-2
10775,-1960,80,-432,-68,8,-2
10780,-1976,64,-384,-66,9,-3
10785,-1952,80,-384,-62,10,-4
10790,-1944,72,-408,-60,11,-3
10795,-1968,80,-392,-57,11,-3
10800,-1960,64,-368,-54,11,-3
10805,-1976,88,-400,-53,11,-3
10810,-1936,80,-392,-52,12,-3
10815,-1904,72,-392,-52,14,-3
10820,-1976,88,-392,-53,13,-5
10825,-1984,104,-384,-54,14,-6
10830,-1976,104,-376,-55,14,-5
10835,-1960,96,-408,-60,15,-5
10840,-1960,104,-392,-60,15,-7
10845,-1960,80,-360,-63,15,-6
10850,-1968,88,-392,-67,16,-7
10855,-1984,104,-392,-68,15,-8
10860,-1952,72,-392,-71,18,-8
10865,-1912,96,-368,-72,17,-7
10870,-1976,104,-400,-72,19,-8
10875,-1952,88,-400,-74,21,-9
10880,-1968,80,-352,-75,22,-10
10885,-1968,64,-384,-76,22,-7
10890,-1976,64,-416,-72,24,-7
10895,-1960,64,-392,-70,24,-9
10900,-1968,72,-392,-70,23,-9
10905,-1984,104,-376,-69,23,-9
10910,-1968,96,-408,-65,25,-8
10915,-1968,72,-384,-65,24,-8
10920,-1960,96,-424,-64,25,-7
10925,-1960,80,-392,-65,26,-8
10930,-1968,88,-416,-64,25,-8
10935,-1968,96,-384,-66,24,-8
10940,-1944,88,-456,-69,25,-8
10945,-1968,88,-400,-71,25,-8
10950,-1936,88,-408,-72,24,-9
10955,-1952,72,-424,-74,21,-8
10960,-1968,96,-416,-74,19,-8
10965,-1960,56,-400,-72,18,-8
10970,-1952,80,-400,-72,17,-8
10975,-1992,120,-408,-68,19,-8
10980,-1960,72,-400,-63,19,-9
10985,-1976,64,-416,-56,20,-9
10990,-1984,88,-392,-52,21,-8
10995,-1976,104,-376,-48,20,-7
11000,-1976,88,-424,-43,22,-6
11005,-1968,88,-408,-40,23,-8
11010,-1960,72,-416,-40,23,-9
11015,-1968,64,-400,-40,25,-9
11020,-2000,80,-416,-42,26,-8
11025,-1952,64,-432,-48,28,-11
11030,-1944,80,-424,-52,29,-12
11035,-1952,88,-408,-56,30,-12
11040,-1960,72,-416,-61,30,-12
11045,-1968,88,-448,-66,29,-12
11050,-1968,72,-408,-67,27,-12
11055,-1944,88,-400,-70,26,-11
11060,-1960,72,-400,-70,24,-11
11065,-1976,96,-392,-69,23,-9
11070,-1976,88,-384,-71,22,-9
11075,-1968,88,-424,-73,22,-8
11080,-1984,88,-392,-73,20,-6
11085,-1960,96,-424,-72,20,-5
11090,-1960,88,-416,-71,20,-4
11095,-1944,64,-424,-73,22,-4
11100,-1976,80,-408,-74,21,-5
11105,-1968,128,-424,-71,22,-6
11110,-1944,64,-376,-71,22,-5
11115,-1936,80,-400,-69,22,-5
11120,-1944,80,-384,-68,20,-5
11125,-2000,112,-408,-63,19,-5
11130,-1984,96,-408,-61,18,-4
11135,-1968,88,-400,-57,17,-3
11140,-1960,72,-408,-54,15,-1
11145,-1976,72,-424,-50,15,-2
11150,-1960,80,-408,-47,15,-2
11155,-1960,88,-400,-44,15,-2
11160,-1968,88,-384,-42,15,-2
11165,-1968,72,-376,-42,16,-3
11170,-1968,64,-384,-42,16,-4
11175,-1960,72,-400,-41,17,-3
11180,-1952,80,-360,-44,18,-6
11185,-1992,112,-400,-46,19,-6
11190,-1960,88,-416,-48,21,-7
11195,-1984,104,-408,-50,20,-7
11200,-1984,88,-376,-54,19,-7
11205,-1960,80,-416,-57,20,-8
11210,-1960,80,-400,-59,22,-6
11215,-1992,88,-408,-62,21,-7
11220,-1976,80,-416,-64,19,-8
11225,-1960,96,-416,-66,18,-6
11230,-1960,72,-392,-66,19,-5
11235,-1960,88,-384,-67,20,-7
11240,-1944,72,-416,-67,20,-5
11245,-1968,96,-416,-68,18,-5
11250,-1968,88,-408,-68,18,-6
11255,-1984,64,-392,-66,17,-6
11260,-1952,64,-408,-67,17,-5
11265,-1976,88,-400,-66,16,-5
11270,-1960,48,-416,-63,15,-5
11275,-1968,72,-376,-65,17,-6
11280,-1968,64,-384,-66,16,-7
11285,-1944,80,-392,-68,16,-8
11290,-1976,88,-408,-71,18,-9
11295,-1992,80,-392,-71,19,-9
11300,-1960,64,-424,-73,21,-10
11305,-1976,64,-408,-73,21,-9
11310,-1968,56,-408,-73,21,-9
11315,-1952,80,-408,-71,21,-8
11320,-1944,72,-408,-66,21,-7
11325,-1960,64,-392,-60,20,-6
11330,-1976,64,-416,-54,20,-4
11335,-1984,72,-424,-48,19,-2
11340,-1976,88,-352,-46,19,-3
11345,-2008,72,-400,-41,17,-2
11350,-1952,64,-384,-38,18,-2
11355,-1960,72,-424,-35,18,-3
11360,-1960,104,-424,-33,17,-1
11365,-1960,64,-424,-33,16,-3
11370,-1968,80,-408,-33,15,-3
11375,-1960,80,-392,-35,16,-2
11380,-1984,96,-400,-34,15,-1
11385,-1952,88,-392,-36,16,-1
11390,-1984,72,-432,-40,15,-2
11395,-1960,88,-408,-41,15,-4
11400,-1968,88,-472,-45,16,-3
11405,-1968,64,-400,-49,16,-3
11410,-1968,96,-408,-53,15,-2
11415,-1976,80,-400,-55,13,-2
11420,-1952,88,-400,-58,15,-2
11425,-1960,64,-400,-60,14,-2
11430,-1968,80,-432,-62,13,-4
11435,-1984,72,-392,-63,13,-2
11440,-1992,104,-400,-60,14,-2
11445,-1984,88,-392,-58,15,-1
11450,-1984,104,-440,-56,16,-1
11455,-1968,80,-424,-55,16,-1
11460,-1960,64,-424,-52,16,-1
11465,-1968,72,-424,-50,17,0
11470,-1960,72,-424,-47,16,0
11475,-1952,64,-400,-47,17,1
11480,-1968,96,-424,-46,17,1
11485,-1976,56,-432,-46,17,-1
11490,-1952,72,-392,-45,16,-1
11495,-1944,64,-424,-45,16,0
11500,-1944,56,-464,-44,16,0
11505,-1952,104,-360,-43,14,0
11510,-1960,56,-432,-43,15,1
11515,-1952,64,-400,-43,13,1
11520,-1968,80,-392,-44,14,0
11525,-1944,80,-424,-43,14,1
11530,-1952,80,-432,-43,12,1
11535,-1968,80,-424,-48,13,2
11540,-1968,72,-400,-48,15,1
11545,-1936,48,-392,-50,16,3
11550,-1968,96,-400,-48,15,2
11555,-1976,88,-368,-49,16,3
11560,-2000,56,-432,-46,14,4
11565,-1960,56,-392,-43,14,5
11570,-1960,80,-416,-41,14,6
11575,-1968,80,-392,-41,13,6
11580,-1968,96,-424,-38,13,5
11585,-1976,80,-416,-36,13,6
11590,-1960,104,-400,-35,12,6
11595,-1952,104,-400,-36,12,5
11600,-1944,56,-424,-37,11,7
11605,-1960,88,-408,-39,10,6
11610,-1944,96,-432,-39,9,6
11615,-1976,40,-432,-41,10,5
11620,-1976,80,-408,-42,9,6
11625,-1976,80,-384,-44,8,4
11630,-1968,72,-432,-46,8,2
11635,-1976,72,-400,-45,7,3
11640,-1984,80,-408,-45,7,3
11645,-1992,104,-432,-43,6,2
11650,-1968,112,-384,-38,4,4
11655,-1968,80,-424,-33,4,4
11660,-1952,80,-392,-26,5,3
11665,-1968,128,-384,-20,5,3
11670,-1952,72,-392,-14,4,4
11675,-1952,96,-408,-12,4,4
11680,-1976,96,-400,-11,5,4
11685,-1976,80,-416,-12,6,4
11690,-1984,80,-416,-14,6,4
11695,-1984,72,-424,-17,8,2
11700,-1960,80,-416,-22,9,0
11705,-1936,56,-416,-29,12,1
11710,-1976,72,-392,-35,14,-1
11715,-1976,96,-408,-40,14,-1
11720,-1976,56,-392,-43,13,-1
11725,-1968,56,-400,-46,12,-1
11730,-1944,56,-408,-44,11,0
11735,-1992,80,-384,-43,11,1
11740,-1952,72,-392,-43,10,3
11745,-1952,80,-432,-42,10,3
11750,-1952,96,-392,-44,8,5
11755,-1976,104,-400,-43,9,6
11760,-1968,104,-400,-42,10,5
11765,-1968,88,-424,-42,9,6
11770,-1976,80,-424,-42,9,6
11775,-2000,112,-432,-42,10,6
11780,-1952,80,-392,-40,10,5
11785,-1960,88,-416,-41,10,6
11790,-1944,80,-392,-41,10,5
11795,-1960,88,-408,-40,9,7
11800,-1968,88,-400,-37,8,7
11805,-1984,88,-424,-36,7,7
11810,-1984,96,-400,-34,4,8
11815,-2000,88,-408,-32,4,9
11820,-1968,96,-400,-29,3,9
11825,-1880,72,-384,-28,3,8
11830,-1952,64,-400,-28,4,10
11835,-1976,80,-416,-26,5,9
11840,-1984,72,-392,-24,8,10
11845,-1976,96,-392,-22,9,8
11850,-1960,96,-360,-23,11,6
11855,-1976,56,-392,-23,11,6
11860,-1976,104,-392,-24,10,5
11865,-1952,96,-424,-26,13,4
11870,-1976,80,-424,-26,12,3
11875,-1976,80,-408,-26,12,1
11880,-1952,64,-384,-28,11,3
11885,-1952,80,-392,-30,10,3
11890,-1952,104,-424,-34,11,4
11895,-1960,80,-416,-36,12,3
11900,-1960,72,-408,-38,11,3
11905,-1944,112,-400,-44,10,4
11910,-1952,120,-416,-45,10,3
11915,-1976,96,-408,-47,12,3
11920,-1952,112,-392,-48,12,4
11925,-1952,72,-392,-51,13,4
11930,-1976,96,-408,-52,10,2
11935,-1960,144,-328,-53,9,3
11940,-1960,96,-424,-53,9,4
11945,-1968,80,-392,-52,9,5
11950,-1952,64,-400,-52,8,4
11955,-1952,80,-400,-52,9,3
11960,-1952,64,-400,-52,11,2
11965,-1976,88,-408,-53,10,1
11970,-1944,64,-384,-53,10,0
11975,-1984,96,-408,-56,10,0
11980,-1984,72,-408,-58,13,0
11985,-1928,72,-392,-57,12,-2
11990,-1960,64,-416,-55,13,-1
11995,-1968,88,-400,-52,12,0
12000,-1976,88,-376,-47,12,1
12005,-1944,96,-424,-41,11,3
12010,-1952,88,-392,-38,10,2
12015,-1952,80,-384,-32,10,5
12020,-1976,88,-376,-30,9,4
12025,-1968,72,-408,-29,10,4
12030,-1944,88,-424,-26,10,5
12035,-1944,96,-376,-23,9,5
12040,-1976,104,-424,-23,9,4
12045,-1952,96,-408,-23,9,4
12050,-1960,72,-392,-24,11,4
12055,-1960,72,-400,-25,10,4
12060,-1976,96,-408,-26,10,3
12065,-1952,72,-416,-29,11,4
12070,-1968,104,-440,-34,11,3
12075,-1968,80,-376,-37,10,3
12080,-1944,104,-416,-42,11,3
12085,-1960,104,-400,-46,9,2
12090,-1976,112,-400,-49,10,2
12095,-1904,48,-360,-50,11,2
12100,-1976,80,-416,-50,10,3
12105,-1960,88,-408,-51,7,0
12110,-1960,88,-408,-53,7,0
12115,-1968,96,-376,-52,9,1
12120,-1944,72,-376,-50,9,2
12125,-1952,96,-352,-48,8,3
12130,-1960,104,-400,-47,11,1
12135,-1944,88,-400,-44,11,2
12140,-1992,112,-368,-42,14,1
12145,-1968,112,-384,-41,14,1
12150,-1992,120,-408,-40,14,1
12155,-1968,72,-408,-39,13,1
12160,-1960,88,-384,-38,12,1
12165,-1984,112,-400,-38,12,3
12170,-1968,96,-408,-39,12,1
12175,-1992,96,-400,-40,12,2
12180,-1952,88,-400,-40,13,2
12185,-1968,80,-392,-40,13,2
12190,-1968,96,-384,-41,12,3
12195,-1968,72,-416,-41,12,3
12200,-1960,88,-408,-40,11,5
12205,-1976,96,-384,-40,11,3
12210,-1968,80,-376,-40,12,4
12215,-1944,80,-384,-43,13,4
12220,-1960,72,-408,-42,11,5
12225,-1952,104,-376,-42,10,3
12230,-1960,96,-400,-41,11,4
12235,-1984,72,-400,-44,11,3
12240,-1936,80,-384,-45,11,3
12245,-1960,104,-376,-44,11,3
12250,-1960,64,-384,-42,12,2
12255,-1952,72,-368,-42,12,2
12260,-1976,112,-392,-40,12,1
12265,-1952,104,-392,-39,13,1
12270,-1960,96,-392,-36,11,2
12275,-1952,88,-368,-33,11,1
12280,-1936,104,-400,-34,11,2
12285,-1944,80,-400,-33,11,1
12290,-1984,88,-432,-33,11,1
12295,-1976,88,-408,-34,10,0
12300,-1984,128,-400,-36,10,2
12305,-1984,88,-424,-36,11,1
12310,-1936,80,-392,-38,12,2
12315,-1968,104,-424,-40,12,3
12320,-1976,112,-384,-41,7,2
12325,-1960,104,-400,-44,4,1
12330,-1944,96,-408,-46,3,1
12335,-1968,104,-368,-46,0,0
12340,-1960,88,-416,-47,0,1
12345,-2000,112,-392,-46,1,-1
12350,-1976,120,-384,-42,2,-2
12355,-1968,112,-392,-39,5,-3
12360,-1944,56,-416,-35,6,-4
12365,-1984,104,-392,-32,6,-6
12370,-1976,104,-392,-30,8,-3
12375,-1960,96,-384,-28,7,-2
12380,-1968,96,-384,-27,5,0
12385,-1976,88,-400,-24,3,-2
12390,-1952,80,-408,-23,3,-2
12395,-1984,64,-400,-26,5,-2
12400,-1952,56,-392,-28,8,-5
12405,-1960,64,-416,-30,8,-4
12410,-1952,112,-376,-31,9,-3
12415,-1960,56,-392,-31,9,-3
12420,-1960,72,-416,-31,9,-4
12425,-1976,112,-400,-33,8,-4
12430,-1968,104,-400,-34,8,-2
12435,-1936,64,-408,-36,8,0
12440,-1968,96,-392,-40,9,1
12445,-1960,112,-344,-43,9,1
12450,-1952,96,-392,-45,9,1
12455,-1984,120,-400,-45,9,1
12460,-1968,104,-400,-43,9,1
12465,-1992,72,-360,-43,10,2
12470,-1960,88,-424,-42,9,2
12475,-1952,96,-400,-42,10,1
12480,-1960,88,-392,-42,8,-1
12485,-1976,112,-392,-43,9,1
12490,-1968,72,-344,-42,9,3
12495,-1968,88,-384,-38,7,4
12500,-1960,72,-408,-35,4,4
12505,-1968,80,-376,-33,2,3
12510,-1976,88,-400,-32,1,3
12515,-1960,96,-384,-27,2,3
12520,-1952,72,-344,-24,1,4
12525,-1976,64,-360,-23,3,2
12530,-1976,104,-400,-22,5,2
12535,-1976,112,-376,-22,7,1
12540,-1968,88,-408,-21,8,1
12545,-1976,104,-400,-23,9,3
12550,-1968,80,-392,-25,8,2
12555,-1968,120,-416,-27,8,0
12560,-2000,112,-392,-30,9,1
12565,-1952,120,-400,-34,9,1
12570,-1944,120,-368,-35,9,1
12575,-1888,112,-384,-37,11,1
12580,-1952,96,-408,-41,10,-1
12585,-1968,120,-384,-43,10,1
12590,-1968,112,-392,-43,9,-1
12595,-1952,96,-408,-44,8,-1
12600,-1960,128,-392,-46,8,-1
12605,-1976,80,-432,-47,8,-1
12610,-1976,120,-392,-48,10,-1
12615,-1976,120,-400,-48,10,-3
12620,-1984,96,-376,-50,11,-3
12625,-1952,48,-392,-50,8,-2
12630,-1952,64,-384,-50,7,-1
12635,-2000,120,-384,-52,6,0
12640,-1952,80,-352,-55,6,1
12645,-1968,96,-392,-57,6,1
12650,-1960,80,-400,-59,6,1
12655,-1968,96,-392,-62,6,-1
12660,-1976,120,-376,-68,6,-3
12665,-1984,96,-384,-73,8,-4
12670,-1968,104,-392,-77,9,-5
12675,-1960,72,-408,-79,10,-6
12680,-1976,64,-432,-82,10,-6
12685,-1968,96,-392,-80,9,-6
12690,-1936,80,-368,-79,9,-7
12695,-1952,88,-384,-76,8,-7
12700,-1960,104,-368,-73,9,-6
12705,-1976,88,-384,-70,8,-7
12710,-1984,88,-392,-65,10,-6
12715,-1928,104,-384,-62,10,-6
12720,-1960,88,-416,-59,10,-6
12725,-1976,104,-384,-57,10,-5
12730,-1968,112,-384,-55,10,-6
12735,-1960,88,-376,-51,11,-5
12740,-1960,96,-376,-49,12,-7
12745,-1952,112,-392,-48,12,-8
12750,-1968,88,-384,-49,12,-7
12755,-2000,112,-408,-53,12,-8
12760,-1976,104,-400,-53,13,-9
12765,-1976,80,-392,-58,13,-8
12770,-1960,120,-384,-62,12,-11
12775,-1968,96,-416,-67,13,-12
12780,-1944,72,-392,-71,13,-12
12785,-1960,72,-392,-76,11,-11
12790,-1944,112,-400,-79,13,-11
12795,-1968,88,-376,-81,14,-11
12800,-1944,96,-408,-80,15,-13
12805,-1960,120,-376,-82,15,-13
12810,-1952,72,-392,-81,16,-12
12815,-1944,96,-376,-80,16,-14
12820,-1936,72,-408,-78,16,-15
12825,-1976,96,-392,-75,17,-13
12830,-1952,88,-376,-72,17,-14
12835,-1992,112,-456,-69,17,-14
12840,-1920,104,-400,-66,18,-14
12845,-1968,96,-408,-65,17,-15
12850,-1952,80,-400,-62,19,-14
12855,-1952,64,-368,-61,20,-12
12860,-1984,104,-376,-62,19,-12
12865,-1960,104,-376,-63,18,-12
12870,-1976,96,-392,-62,19,-11
12875,-1960,88,-360,-65,19,-11
12880,-1960,64,-400,-63,20,-10
12885,-1960,88,-376,-63,18,-10
12890,-1992,144,-408,-63,19,-9
12895,-1992,80,-400,-66,18,-8
12900,-1976,120,-424,-67,18,-11
12905,-1952,96,-384,-68,17,-10
12910,-1952,88,-392,-67,19,-10
12915,-1976,88,-360,-69,18,-13
12920,-1944,88,-360,-69,18,-12
12925,-1968,96,-384,-68,19,-11
12930,-1952,96,-392,-68,17,-11
12935,-2008,104,-408,-67,18,-10
12940,-1952,104,-400,-69,18,-11
12945,-1960,104,-320,-67,19,-10
12950,-1960,88,-352,-67,18,-10
12955,-1960,88,-400,-66,19,-9
12960,-1944,80,-376,-65,18,-10
12965,-1968,80,-416,-64,19,-10
12970,-1952,88,-376,-62,20,-10
12975,-1968,80,-392,-59,20,-10
12980,-1960,96,-376,-58,20,-10
12985,-1952,96,-400,-58,20,-10
12990,-1936,88,-400,-57,20,-11
12995,-1952,120,-408,-58,19,-9
13000,-1992,112,-368,-59,19,-11
13005,-1944,104,-424,-61,19,-11
13010,-1992,96,-400,-64,19,-10
13015,-1960,104,-408,-67,20,-10
13020,-1976,104,-400,-70,17,-11
13025,-1944,96,-376,-69,18,-12
13030,-1944,104,-376,-72,15,-11
13035,-1952,88,-400,-73,14,-11
13040,-1960,80,-352,-72,15,-10
13045,-1968,104,-368,-71,13,-10
13050,-1952,88,-376,-68,13,-12
13055,-2000,96,-368,-63,13,-10
13060,-1976,96,-384,-56,14,-11
13065,-1984,104,-384,-50,14,-10
13070,-1984,96,-384,-45,15,-10
13075,-1952,96,-392,-39,16,-10
13080,-1992,104,-400,-36,15,-10
13085,-1960,80,-400,-33,15,-10
13090,-1944,104,-392,-33,17,-12
13095,-1992,88,-408,-37,20,-12
13100,-1944,96,-368,-40,21,-13
13105,-1968,96,-440,-46,21,-13
13110,-1960,88,-368,-52,22,-14
13115,-1952,72,-400,-57,24,-14
13120,-1968,96,-416,-61,22,-13
13125,-1936,80,-360,-65,21,-14
13130,-1984,112,-384,-68,20,-12
13135,-1944,72,-376,-67,19,-9
13140,-1960,80,-408,-66,17,-9
13145,-1944,64,-376,-66,16,-8
13150,-1984,128,-376,-65,17,-8
13155,-1976,80,-384,-64,16,-7
13160,-1984,112,-392,-63,15,-8
13165,-1944,88,-424,-63,15,-6
13170,-1968,96,-392,-62,16,-5
13175,-1976,112,-400,-59,17,-5
13180,-1976,96,-400,-56,16,-5
13185,-1960,104,-392,-54,18,-5
13190,-1968,88,-384,-54,17,-4
13195,-1976,104,-416,-53,15,-4
13200,-1968,112,-384,-50,13,-4
13205,-1976,104,-400,-48,12,-4
13210,-1976,96,-400,-46,10,-4
13215,-1936,80,-432,-42,10,-4
13220,-1976,72,-368,-40,10,-2
13225,-1968,96,-360,-37,9,-1
13230,-1952,72,-384,-37,10,0
13235,-1976,72,-392,-34,10,0
13240,-1976,88,-392,-34,11,-2
13245,-1984,96,-368,-34,12,-3
13250,-1960,72,-400,-35,13,-2
13255,-1984,96,-408,-36,15,-4
13260,-1992,104,-432,-38,16,-5
13265,-1976,96,-392,-39,16,-4
13270,-1960,96,-376,-39,17,-6
13275,-1968,104,-408,-43,17,-4
13280,-1968,88,-416,-43,17,-4
13285,-1976,104,-384,-44,16,-4
13290,-1968,88,-416,-45,16,-2
13295,-1960,96,-400,-46,16,-2
13300,-1976,96,-384,-47,17,-2
13305,-1952,104,-384,-47,16,-1
13310,-1968,72,-368,-48,15,-3
13315,-1976,64,-408,-48,15,-2
13320,-1984,120,-392,-49,14,-3
13325,-1952,80,-376,-49,14,-1
13330,-1976,88,-400,-49,13,-2
13335,-1984,96,-392,-48,11,-3
13340,-1984,96,-392,-47,10,-2
13345,-1968,88,-368,-46,10,0
13350,-1984,80,-384,-45,10,0
13355,-1960,80,-392,-44,10,-1
13360,-1952,64,-408,-43,11,0
13365,-1952,112,-376,-46,11,0
13370,-1960,80,-384,-49,13,-2
13375,-1928,104,-400,-50,13,-3
13380,-1952,96,-408,-52,14,-4
13385,-1960,64,-416,-50,16,-3
13390,-1952,88,-400,-50,14,-2
13395,-1960,72,-408,-45,15,-1
13400,-1952,72,-416,-40,13,2
13405,-1960,88,-360,-37,13,3
13410,-1976,104,-392,-31,12,2
13415,-1976,72,-416,-27,11,2
13420,-1944,48,-400,-25,12,4
13425,-2016,112,-400,-21,11,4
13430,-1960,104,-384,-19,10,4
13435,-1952,80,-368,-19,9,4
13440,-1960,88,-392,-20,10,2
13445,-1960,80,-376,-20,9,4
13450,-1968,80,-408,-22,9,3
13455,-1952,72,-424,-24,8,3
13460,-1960,72,-416,-26,8,2
13465,-1968,96,-424,-26,9,2
13470,-1960,64,-416,-29,8,3
13475,-1984,104,-416,-32,8,2
13480,-1944,112,-312,-36,6,3
13485,-1960,104,-400,-39,5,2
13490,-1960,96,-384,-44,7,2
13495,-1960,112,-400,-47,7,2
13500,-1968,96,-400,-50,6,2
13505,-1968,104,-384,-50,7,2
13510,-1960,88,-376,-51,8,3
13515,-1960,80,-376,-50,7,3
13520,-1960,72,-392,-48,7,2
13525,-1976,104,-392,-47,9,2
13530,-1944,72,-392,-42,10,3
13535,-1992,72,-456,-39,9,1
13540,-1976,88,-400,-36,9,2
13545,-1968,96,-384,-33,10,3
13550,-1960,72,-400,-31,10,3
13555,-1960,88,-384,-28,7,4
13560,-1952,80,-376,-26,7,4
13565,-1976,104,-400,-27,10,4
13570,-1976,72,-384,-28,11,5
13575,-1936,72,-400,-29,9,6
13580,-1984,104,-440,-32,9,6
13585,-2008,72,-424,-32,8,6
13590,-1968,80,-384,-32,9,5
13595,-1968,80,-392,-32,8,5
13600,-1976,88,-384,-32,8,5
13605,-1960,96,-368,-34,8,4
13610,-1968,104,-392,-34,8,4
13615,-1976,104,-384,-32,9,3
13620,-1936,96,-360,-33,8,3
13625,-1992,80,-384,-34,8,3
13630,-1984,88,-392,-35,7,3
13635,-1976,88,-336,-34,8,4
13640,-2016,64,-376,-34,8,3
13645,-1976,104,-392,-36,8,4
13650,-1976,96,-408,-36,7,4
13655,-1952,96,-384,-37,9,5
13660,-1952,88,-376,-35,9,5
13665,-1968,112,-368,-35,8,6
13670,-1984,80,-360,-35,9,5
13675,-1960,96,-392,-31,8,6
13680,-1984,112,-400,-30,8,6
13685,-1944,72,-384,-29,10,4
13690,-1968,88,-392,-29,9,5
13695,-1920,112,-392,-27,10,4
13700,-1960,72,-392,-27,9,3
13705,-1960,88,-392,-26,10,3
13710,-1952,112,-416,-29,10,4
13715,-1952,88,-376,-30,10,4
13720,-1960,104,-400,-32,10,3
13725,-1952,80,-392,-33,11,4
13730,-1968,96,-384,-33,9,3
13735,-1976,88,-400,-34,8,6
13740,-1944,72,-392,-35,7,5
13745,-1960,96,-376,-35,6,5
13750,-1952,72,-368,-37,4,4
13755,-1976,80,-368,-35,3,4
13760,-1976,96,-384,-34,3,5
13765,-1968,96,-392,-31,3,2
13770,-1960,80,-376,-27,5,3
13775,-1976,80,-384,-22,4,3
13780,-1960,104,-352,-17,5,4
13785,-1976,104,-400,-16,7,5
13790,-1944,88,-384,-14,6,3
13795,-2000,80,-384,-13,7,1
13800,-1976,88,-368,-16,8,1
13805,-1960,80,-416,-18,10,-1
13810,-1976,96,-376,-22,12,0
13815,-1952,72,-376,-26,13,-1
13820,-1960,64,-376,-30,14,-4
13825,-1960,72,-384,-34,16,-2
13830,-1960,80,-384,-34,15,-1
13835,-1984,96,-392,-34,13,-1
13840,-1960,96,-400,-36,12,1
13845,-1984,112,-424,-36,11,2
13850,-1960,80,-352,-37,10,5
13855,-1984,128,-384,-36,10,5
13860,-1952,96,-344,-38,8,7
13865,-1960,96,-392,-39,9,7
13870,-1968,104,-384,-38,8,5
13875,-1976,96,-408,-39,7,5
13880,-1936,88,-392,-38,7,7
13885,-1984,112,-352,-38,8,6
13890,-1960,96,-392,-37,7,6
13895,-1968,104,-352,-36,8,6
13900,-1944,88,-392,-37,7,5
13905,-1936,120,-400,-36,7,5
13910,-1968,112,-384,-36,5,7
13915,-1968,104,-376,-36,5,6
13920,-1976,96,-376,-35,3,6
13925,-1968,104,-400,-33,3,7
13930,-1992,104,-368,-29,1,7
13935,-1968,112,-392,-28,2,6
13940,-1984,96,-384,-24,3,6
13945,-1952,104,-384,-21,4,5
13950,-1952,96,-384,-20,4,6
13955,-1984,96,-384,-18,6,5
13960,-2008,104,-416,-18,9,5
13965,-1952,112,-368,-19,9,5
13970,-1968,112,-408,-20,9,4
13975,-2000,128,-376,-20,11,1
13980,-1984,112,-368,-22,12,2
13985,-1944,80,-368,-24,11,3
13990,-1960,112,-408,-28,11,2
13995,-1984,120,-408,-30,12,1
14000,-1960,96,-392,-32,10,1
14005,-1984,96,-344,-35,10,1
14010,-1968,96,-400,-36,10,1
14015,-1992,176,-408,-37,10,2
14020,-1960,104,-368,-39,9,1
14025,-1952,80,-392,-42,10,1
14030,-1984,96,-376,-46,10,-1
14035,-1984,96,-352,-48,8,-1
14040,-1968,104,-392,-48,8,0
14045,-1968,128,-360,-47,8,1
14050,-1960,112,-368,-45,7,1
14055,-1936,88,-344,-45,6,2
14060,-1968,96,-376,-43,5,3
14065,-1984,64,-416,-41,3,5
14070,-1968,104,-408,-40,3,5
14075,-1960,96,-400,-41,4,3
14080,-1968,88,-392,-42,4,2
14085,-1976,88,-352,-44,7,1
14090,-1984,104,-400,-47,9,0
14095,-1960,80,-384,-50,11,0
14100,-1936,80,-384,-50,11,-1
14105,-1968,112,-344,-49,12,0
14110,-1984,96,-368,-48,11,-1
14115,-1960,96,-400,-44,12,0
14120,-1968,120,-352,-40,11,1
14125,-1952,104,-368,-36,11,1
14130,-1936,104,-384,-31,11,1
14135,-1968,112,-336,-28,11,1
14140,-1960,136,-360,-23,9,3
14145,-1944,80,-408,-21,9,2
14150,-1960,96,-360,-21,10,4
14155,-1952,112,-360,-21,8,5
14160,-1992,112,-352,-24,9,3
14165,-1976,104,-352,-23,9,3
14170,-1968,128,-400,-24,12,3
14175,-1952,96,-416,-26,10,2
14180,-1968,80,-368,-26,10,0
14185,-1968,96,-408,-32,10,1
14190,-1968,88,-408,-37,10,1
14195,-1976,104,-392,-41,8,1
14200,-1968,128,-376,-43,7,1
14205,-1952,80,-352,-47,10,0
14210,-1944,120,-384,-50,9,-2
14215,-1976,112,-400,-52,10,-3
14220,-1984,128,-376,-53,10,-3
14225,-1944,72,-344,-55,9,-3
14230,-1960,96,-352,-53,9,-4
14235,-1960,112,-368,-50,8,-2
14240,-1952,112,-376,-49,10,0
14245,-1960,96,-384,-46,9,-1
14250,-1968,96,-368,-44,10,-2
14255,-1968,112,-416,-44,11,-1
14260,-1984,96,-368,-43,12,-3
14265,-1960,112,-384,-41,11,-3
14270,-1952,112,-368,-41,11,-4
14275,-1944,96,-392,-40,11,-3
14280,-1984,88,-440,-40,12,-2
14285,-1968,104,-360,-40,11,-2
14290,-1960,88,-360,-39,12,-3
14295,-1944,96,-392,-39,10,-2
14300,-1984,88,-392,-40,10,-2
14305,-1992,104,-376,-41,10,-1
14310,-1976,96,-384,-40,10,0
14315,-1976,112,-384,-40,8,-1
14320,-1992,112,-368,-40,8,-1
14325,-1944,112,-352,-40,8,0
14330,-1960,104,-368,-40,9,-1
14335,-1968,136,-424,-41,10,0
14340,-1952,80,-400,-42,10,0
14345,-1976,112,-384,-42,11,1
14350,-1984,120,-384,-43,11,1
14355,-1952,96,-360,-41,11,0
14360,-1976,104,-368,-41,11,0
14365,-1960,104,-384,-41,10,1
14370,-1944,80,-376,-42,10,0
14375,-1968,104,-360,-42,11,0
14380,-1936,56,-376,-43,9,1
14385,-1984,96,-384,-45,8,1
14390,-1968,96,-360,-45,8,1
14395,-1960,104,-392,-46,8,0
14400,-1968,88,-384,-47,8,0
14405,-1976,112,-368,-48,10,0
14410,-1960,88,-336,-48,11,-1
14415,-1968,120,-376,-49,10,-1
14420,-1928,88,-368,-49,11,-1
14425,-1936,80,-384,-51,13,-1
14430,-1960,120,-368,-51,13,-2
14435,-1944,128,-384,-52,13,-2
14440,-1928,96,-336,-54,14,-2
14445,-1944,104,-360,-56,15,-2
14450,-1960,120,-376,-56,15,-4
14455,-1976,128,-408,-60,16,-4
14460,-1952,112,-376,-61,15,-2
14465,-1944,112,-360,-64,13,-2
14470,-1960,112,-384,-66,14,-3
14475,-1968,128,-344,-72,14,-5
14480,-1952,96,-360,-76,12,-3
14485,-1968,96,-416,-77,12,-4
14490,-1984,128,-360,-77,11,-6
14495,-1976,72,-320,-78,9,-6
14500,-1960,104,-360,-77,8,-8
14505,-1976,104,-352,-73,10,-10
14510,-1968,96,-352,-68,13,-10
14515,-1976,112,-408,-64,14,-11
14520,-1976,112,-368,-58,14,-11
14525,-1968,96,-360,-55,15,-12
14530,-1976,112,-376,-53,16,-11
14535,-1952,96,-360,-52,17,-10
14540,-1976,128,-320,-52,19,-12
14545,-1944,72,-336,-54,22,-14
14550,-1976,96,-392,-59,23,-15
14555,-1952,96,-360,-60,25,-15
14560,-1944,96,-400,-66,26,-15
14565,-1944,80,-368,-69,27,-15
14570,-1960,104,-360,-71,27,-16
14575,-1960,72,-360,-74,26,-15
14580,-1968,104,-392,-73,25,-15
14585,-1976,112,-352,-75,23,-13
14590,-1968,104,-400,-78,23,-12
14595,-1960,96,-384,-78,22,-11
14600,-1936,88,-296,-78,21,-10
14605,-1944,120,-392,-79,22,-10
14610,-1960,104,-352,-77,21,-10
14615,-1968,112,-368,-77,21,-9
14620,-1952,104,-392,-76,21,-10
14625,-1952,112,-352,-76,21,-11
14630,-1968,104,-392,-74,23,-11
14635,-1952,96,-360,-74,24,-11
14640,-1960,104,-400,-75,24,-12
14645,-1968,96,-376,-75,24,-13
14650,-1976,104,-384,-75,23,-12
14655,-2016,112,-456,-73,19,-12
14660,-1976,88,-376,-73,18,-11
14665,-1968,88,-384,-70,16,-10
14670,-1960,96,-376,-65,15,-10
14675,-1968,88,-376,-63,15,-8
14680,-1960,96,-352,-61,14,-8
14685,-1952,88,-384,-57,15,-9
14690,-1992,120,-360,-57,17,-7
14695,-1952,64,-360,-55,19,-9
14700,-1984,88,-368,-53,20,-11
14705,-1976,96,-384,-53,23,-11
14710,-1976,112,-368,-53,22,-11
14715,-1968,112,-384,-56,22,-12
14720,-1960,80,-384,-59,23,-13
14725,-1960,80,-376,-62,24,-12
14730,-1976,120,-368,-63,23,-11
14735,-1968,112,-400,-66,22,-12
14740,-1976,120,-400,-69,24,-13
14745,-1968,112,-360,-72,23,-12
14750,-1952,112,-376,-75,23,-13
14755,-1984,112,-360,-78,22,-13
14760,-1936,120,-424,-79,23,-13
14765,-1992,96,-368,-82,24,-14
14770,-1968,104,-368,-84,23,-14
14775,-1976,104,-360,-87,22,-13
14780,-1968,120,-392,-86,23,-12
14785,-1952,96,-368,-86,20,-13
14790,-1968,112,-360,-85,21,-12
14795,-1960,96,-320,-85,20,-11
14800,-1976,72,-392,-80,20,-11
14805,-1960,72,-376,-81,19,-9
14810,-1960,112,-392,-80,19,-10
14815,-1936,104,-328,-78,19,-8
14820,-1960,96,-368,-77,20,-9
14825,-1960,88,-376,-76,21,-11
14830,-1960,104,-368,-75,21,-11
14835,-1968,88,-360,-78,23,-12
14840,-1944,96,-368,-78,22,-15
14845,-1968,96,-392,-79,23,-14
14850,-1960,88,-368,-76,23,-15
14855,-1968,104,-376,-73,23,-13
14860,-1944,112,-384,-70,23,-14
14865,-1944,88,-392,-66,24,-13
14870,-1944,96,-400,-62,23,-11
14875,-1968,120,-368,-57,21,-9
14880,-1968,88,-400,-54,21,-9
14885,-1944,64,-384,-48,23,-8
14890,-1952,88,-376,-47,21,-8
14895,-1960,88,-400,-45,22,-7
14900,-1976,112,-400,-45,21,-8
14905,-1976,120,-384,-46,21,-8
14910,-1952,96,-392,-44,22,-8
14915,-1976,96,-392,-45,21,-7
14920,-1976,88,-384,-49,21,-9
14925,-1952,80,-400,-53,21,-10
14930,-1968,96,-400,-55,19,-11
14935,-1968,88,-368,-61,21,-13
14940,-1952,96,-368,-68,20,-11
14945,-1968,88,-368,-71,19,-11
14950,-1960,112,-376,-75,19,-11
14955,-1968,136,-376,-78,20,-11
14960,-1984,88,-376,-81,17,-11
14965,-1976,88,-400,-83,18,-10
14970,-1944,96,-360,-85,18,-11
14975,-1936,120,-312,-84,20,-11
14980,-1960,104,-376,-83,19,-12
14985,-1944,80,-400,-81,20,-12
14990,-1960,96,-360,-79,21,-12
14995,-1960,104,-408,-76,22,-12
