timestamp,accel_x,accel_y,accel_z,gyro_x,gyro_y,gyro_z
0,64,-2008,-176,47,-4,-13
5,40,-2008,-200,46,-2,-9
10,48,-1984,-144,45,-3,-9
15,48,-1992,-192,45,-2,-9
20,24,-2016,-160,44,0,-9
25,32,-1992,-176,45,0,-8
30,16,-2000,-168,45,-1,-7
35,40,-2008,-192,46,-1,-8
40,24,-1952,-216,44,0,-6
45,8,-2000,-192,44,-2,-7
50,32,-1976,-192,42,-2,-8
55,16,-1968,-184,39,-2,-7
60,40,-1976,-176,36,-3,-8
65,32,-1992,-200,34,-5,-9
70,32,-1992,-192,34,-6,-8
75,32,-2008,-216,34,-5,-10
80,64,-1992,-208,35,-3,-9
85,48,-1992,-248,36,-2,-9
90,64,-1992,-232,35,0,-9
95,64,-1984,-248,34,2,-10
100,56,-1992,-216,31,3,-9
105,56,-1960,-248,27,2,-8
110,56,-1968,-192,24,2,-6
115,40,-1960,-232,21,0,-3
120,40,-1936,-248,17,2,-1
125,40,-1944,-232,11,3,4
130,32,-1936,-240,3,4,7
135,40,-1888,-240,-6,4,12
140,-8,-1904,-280,-16,4,19
145,32,-1896,-240,-26,5,25
150,56,-1896,-256,-37,7,32
155,56,-1872,-256,-48,9,37
160,40,-1880,-256,-60,12,41
165,88,-1864,-256,-73,16,46
170,64,-1856,-216,-89,21,56
175,72,-1872,-200,-109,25,66
180,112,-1872,-136,-129,27,71
185,56,-1888,-152,-154,31,79
190,48,-1888,-96,-181,33,86
195,40,-1912,-56,-210,33,98
200,0,-1928,16,-238,31,109
205,0,-1992,24,-264,30,119
210,-32,-2024,24,-283,32,132
215,-32,-2056,72,-298,33,145
220,-56,-2096,88,-307,37,157
225,-96,-2144,144,-308,43,167
230,-80,-2192,160,-298,49,176
235,-80,-2224,120,-275,60,182
240,-128,-2248,104,-238,73,189
245,-104,-2320,120,-192,85,193
250,-120,-2344,88,-126,100,192
255,-104,-2376,80,-53,111,186
260,-152,-2376,88,35,123,180
265,-192,-2368,72,135,134,168
270,-208,-2344,88,235,141,155
275,-280,-2232,72,331,142,140
280,-288,-2200,104,408,131,132
285,-328,-2152,64,482,109,122
290,-368,-2112,56,556,76,114
295,-416,-2080,32,622,34,111
300,-472,-2032,96,673,-11,103
305,-504,-2000,128,712,-58,99
310,-568,-1968,176,738,-98,97
315,-600,-1928,208,747,-133,94
320,-672,-1920,256,742,-167,94
325,-704,-1960,248,728,-201,93
330,-720,-1968,200,712,-234,97
335,-752,-1960,200,700,-264,98
340,-768,-2016,184,692,-293,99
345,-776,-2032,144,687,-323,97
350,-776,-2032,104,684,-355,93
355,-760,-2048,112,683,-391,89
360,-760,-2072,80,685,-433,86
365,-728,-2080,88,688,-476,84
370,-680,-2096,64,694,-519,79
375,-672,-2096,48,698,-562,77
380,-584,-2128,40,701,-603,76
385,-584,-2080,24,706,-639,72
390,-536,-2088,48,703,-674,66
395,-504,-2080,-8,701,-708,58
400,-512,-2064,-24,698,-738,49
405,-496,-2064,-24,694,-765,38
410,-520,-2008,-16,693,-789,29
415,-528,-1992,-16,688,-812,20
420,-544,-1992,-64,679,-832,12
425,-544,-1968,-40,668,-854,6
430,-568,-1936,-64,650,-871,0
435,-560,-1920,-48,628,-886,3
440,-584,-1928,-72,612,-900,8
445,-592,-1920,16,606,-919,11
450,-584,-1944,-128,605,-935,17
455,-576,-1944,-104,603,-951,22
460,-584,-1936,-80,600,-970,25
465,-592,-1952,-72,602,-994,28
470,-608,-2008,0,601,-1021,27
475,-624,-1968,-56,597,-1051,27
480,-624,-2040,0,590,-1085,23
485,-632,-2024,32,581,-1120,23
490,-640,-2056,64,568,-1158,23
495,-624,-2088,40,554,-1196,19
500,-600,-2080,64,538,-1233,15
505,-528,-2072,40,517,-1267,6
510,-536,-2072,48,495,-1293,-5
515,-528,-2080,24,475,-1318,-15
520,-440,-2056,16,452,-1333,-19
525,-456,-2032,8,429,-1349,-31
530,-432,-2016,-24,413,-1363,-44
535,-368,-1976,-48,398,-1372,-49
540,-328,-1984,-16,385,-1378,-49
545,-296,-1984,-72,377,-1383,-44
550,-272,-1912,-80,361,-1388,-39
555,-192,-1888,-120,340,-1390,-35
560,-144,-1840,-104,317,-1391,-31
565,-136,-1832,-72,287,-1389,-25
570,-80,-1800,-128,263,-1388,-24
575,-48,-1800,-168,239,-1386,-29
580,-16,-1768,-200,214,-1376,-34
585,-16,-1728,-184,183,-1365,-39
590,40,-1752,-208,149,-1350,-47
595,56,-1752,-208,114,-1334,-52
600,136,-1728,-232,74,-1313,-50
605,192,-1728,-208,31,-1288,-55
610,176,-1760,-184,-5,-1263,-65
615,248,-1704,-232,-35,-1239,-78
620,296,-1744,-168,-79,-1213,-80
625,352,-1824,-120,-110,-1191,-90
630,408,-1880,-88,-109,-1162,-111
635,480,-1880,-64,-93,-1126,-117
640,512,-1856,-16,-87,-1084,-114
645,544,-1880,16,-97,-1040,-113
650,624,-1888,56,-99,-996,-117
655,632,-1832,80,-103,-953,-125
660,640,-1856,136,-109,-914,-123
665,648,-1880,112,-115,-876,-118
670,688,-1928,144,-125,-835,-114
675,672,-1984,160,-142,-794,-114
680,664,-2032,176,-164,-757,-118
685,656,-2072,208,-187,-723,-124
690,616,-2088,192,-206,-694,-130
695,616,-2112,208,-222,-665,-136
700,576,-2136,200,-236,-634,-141
705,584,-2136,256,-248,-601,-148
710,584,-2192,216,-255,-574,-160
715,552,-2240,176,-265,-556,-167
720,528,-2272,240,-276,-539,-177
725,480,-2256,248,-285,-525,-187
730,488,-2232,216,-291,-509,-198
735,488,-2216,216,-292,-490,-211
740,472,-2208,216,-288,-465,-226
745,448,-2200,184,-278,-448,-237
750,424,-2136,168,-266,-427,-248
755,384,-2080,176,-252,-406,-257
760,344,-2048,112,-245,-387,-263
765,288,-1992,112,-245,-370,-270
770,280,-1960,104,-236,-355,-276
775,296,-1896,64,-226,-343,-277
780,248,-1880,72,-225,-333,-280
785,240,-1824,72,-228,-325,-283
790,240,-1776,128,-232,-313,-286
795,224,-1744,168,-235,-305,-288
800,248,-1752,184,-240,-300,-289
805,224,-1736,192,-247,-292,-287
810,264,-1736,184,-264,-281,-282
815,272,-1744,208,-281,-265,-282
820,256,-1752,200,-298,-247,-280
825,272,-1816,200,-318,-230,-284
830,264,-1760,184,-334,-212,-291
835,240,-1776,192,-353,-192,-295
840,296,-1784,200,-369,-172,-295
845,280,-1792,200,-381,-146,-291
850,328,-1800,192,-386,-116,-285
855,344,-1824,200,-390,-88,-275
860,296,-1832,184,-398,-62,-263
865,256,-1848,224,-412,-41,-249
870,224,-1880,264,-424,-22,-234
875,192,-1880,232,-429,-14,-223
880,144,-1880,232,-438,-7,-217
885,136,-1904,232,-455,0,-203
890,136,-1928,248,-462,3,-184
895,56,-1928,232,-467,4,-174
900,48,-1904,200,-487,3,-164
905,88,-1880,176,-518,-4,-159
910,64,-1928,200,-553,-12,-151
915,72,-2008,248,-564,-20,-143
920,96,-2016,200,-545,-20,-130
925,72,-1984,176,-518,-17,-129
930,80,-1976,248,-511,-30,-139
935,128,-2016,208,-524,-50,-145
940,136,-2000,248,-527,-64,-148
945,128,-2032,248,-526,-79,-153
950,88,-2088,272,-522,-91,-159
955,32,-2096,328,-518,-105,-166
960,48,-2152,352,-506,-125,-168
965,48,-2256,368,-496,-156,-172
970,64,-2408,376,-499,-207,-184
975,-24,-2432,496,-483,-256,-187
980,-56,-2480,520,-412,-294,-170
985,-120,-2552,536,-319,-341,-152
990,-144,-2520,536,-244,-398,-137
995,-168,-2528,472,-209,-454,-139
1000,-248,-2592,512,-223,-512,-149
1005,-208,-2584,512,-237,-575,-127
1010,-64,-2584,448,-231,-631,-106
1015,-48,-2536,384,-207,-678,-97
1020,16,-2496,344,-182,-717,-90
1025,32,-2400,304,-166,-747,-93
1030,48,-2384,328,-153,-763,-98
1035,96,-2328,288,-126,-775,-110
1040,176,-2288,312,-115,-774,-128
1045,296,-2280,304,-104,-792,-172
1050,376,-2304,192,-103,-798,-225
1055,472,-2360,256,-132,-779,-274
1060,520,-2440,296,-176,-758,-316
1065,576,-2560,288,-209,-731,-351
1070,616,-2672,208,-228,-696,-384
1075,624,-2744,128,-252,-664,-414
1080,608,-2816,16,-291,-627,-431
1085,656,-2880,-64,-342,-587,-435
1090,632,-2848,-104,-384,-535,-430
1095,592,-2816,-184,-404,-464,-413
1100,600,-2728,-144,-387,-376,-371
1105,672,-2616,-144,-325,-284,-304
1110,808,-2408,-88,-232,-192,-217
1115,856,-2200,-152,-147,-125,-126
1120,880,-2008,-208,-102,-85,-44
1125,840,-1888,-224,-101,-56,15
1130,872,-1864,-296,-128,-39,64
1135,808,-1864,-384,-156,-22,111
1140,760,-1856,-448,-177,-1,159
1145,632,-1864,-496,-210,20,202
1150,504,-1856,-480,-257,26,233
1155,424,-1904,-536,-308,22,252
1160,224,-1944,-560,-351,0,257
1165,96,-1936,-576,-369,-37,256
1170,-96,-1952,-544,-378,-91,248
1175,-176,-1880,-528,-381,-171,251
1180,-208,-1840,-544,-374,-261,246
1185,-248,-1840,-560,-359,-331,226
1190,-256,-1824,-496,-330,-362,207
1195,-272,-1888,-456,-283,-355,181
1200,-272,-1864,-416,-228,-326,148
1205,-256,-1944,-368,-176,-294,120
1210,-264,-1960,-336,-121,-269,98
1215,-264,-1984,-344,-67,-258,80
1220,-256,-1904,-368,-21,-265,63
1225,-304,-1816,-400,20,-277,43
1230,-216,-1712,-440,53,-282,41
1235,-88,-1704,-432,62,-298,37
1240,72,-1680,-408,33,-324,36
1245,144,-1720,-376,-17,-336,59
1250,168,-1768,-344,-62,-344,85
1255,200,-1832,-320,-95,-356,117
1260,296,-1904,-304,-106,-374,148
1265,344,-1920,-280,-94,-380,175
1270,400,-1920,-288,-72,-351,219
1275,392,-1936,-312,-57,-316,275
1280,392,-1960,-328,-51,-283,333
1285,336,-1928,-336,-35,-262,377
1290,304,-1880,-360,-8,-244,394
1295,336,-1768,-368,31,-216,411
1300,296,-1760,-344,53,-178,429
1305,344,-1728,-336,73,-146,433
1310,256,-1688,-320,93,-107,438
1315,216,-1656,-320,112,-77,435
1320,160,-1552,-288,118,-52,427
1325,72,-1560,-344,120,-22,421
1330,-16,-1560,-336,124,9,420
1335,-48,-1544,-336,136,31,399
1340,-112,-1464,-288,150,54,373
1345,-128,-1472,-280,151,85,367
1350,-168,-1480,-272,136,107,372
1355,-184,-1496,-272,131,115,368
1360,-168,-1512,-304,145,120,359
1365,-176,-1552,-304,149,117,344
1370,-168,-1600,-312,137,110,316
1375,-200,-1608,-304,110,98,286
1380,-240,-1664,-280,75,83,267
1385,-200,-1672,-248,45,62,253
1390,-232,-1664,-240,21,47,247
1395,-264,-1720,-232,5,35,239
1400,-272,-1704,-320,1,19,222
1405,-272,-1712,-296,-12,9,216
1410,-296,-1752,-256,-30,6,208
1415,-336,-1704,-224,-47,3,198
1420,-320,-1704,-304,-61,-2,197
1425,-296,-1712,-304,-61,-3,184
1430,-280,-1704,-304,-59,2,170
1435,-280,-1712,-304,-67,15,148
1440,-256,-1736,-320,-71,22,130
1445,-280,-1744,-336,-85,28,118
1450,-232,-1688,-328,-87,34,106
1455,-200,-1712,-360,-89,46,93
1460,-176,-1728,-312,-105,67,79
1465,-144,-1792,-296,-120,94,62
1470,-120,-1832,-280,-128,127,39
1475,-88,-1864,-248,-141,167,24
1480,-96,-1960,-216,-152,208,3
1485,-8,-2032,-192,-139,243,-20
1490,40,-2072,-152,-112,282,-50
1495,40,-2088,-112,-82,332,-74
1500,144,-2128,-96,-47,385,-93
1505,168,-2168,-40,-6,434,-112
1510,168,-2192,24,41,477,-124
1515,152,-2232,48,91,513,-132
1520,136,-2208,56,147,530,-137
1525,-8,-2192,72,199,534,-139
1530,-88,-2208,-32,235,516,-128
1535,-232,-2184,-112,248,488,-109
1540,-400,-2216,-216,242,461,-81
1545,-480,-2256,-192,228,447,-49
1550,-552,-2280,-96,228,449,-21
1555,-552,-2336,-16,248,458,6
1560,-528,-2384,80,280,465,21
1565,-504,-2400,72,317,471,27
1570,-456,-2368,64,347,474,22
1575,-416,-2376,128,372,480,8
1580,-376,-2384,184,395,485,-15
1585,-400,-2360,248,415,486,-30
1590,-424,-2352,272,430,467,-34
1595,-432,-2312,240,433,432,-21
1600,-496,-2240,144,409,394,5
1605,-456,-2176,64,351,362,42
1610,-376,-2168,-88,261,339,72
1615,-312,-2208,-104,150,322,91
1620,-248,-2264,-112,37,298,96
1625,-264,-2384,-160,-64,256,115
1630,-344,-2480,-232,-153,192,152
1635,-304,-2584,-368,-241,121,190
1640,-312,-2664,-464,-347,31,238
1645,-328,-2816,-696,-458,-57,302
1650,-432,-2984,-864,-546,-133,376
1655,-408,-3040,-992,-565,-189,436
1660,-352,-2968,-1088,-519,-226,494
1665,-344,-2888,-1112,-440,-262,526
1670,-344,-2736,-1200,-340,-306,516
1675,-312,-2592,-1296,-245,-347,496
1680,-272,-2400,-1368,-163,-371,474
1685,-160,-2296,-1352,-94,-367,447
1690,-16,-2088,-1264,-26,-329,404
1695,184,-1984,-1064,56,-260,353
1700,392,-1752,-944,155,-173,289
1705,592,-1584,-840,252,-79,222
1710,656,-1448,-752,321,4,130
1715,824,-1320,-696,350,57,13
1720,920,-1208,-688,348,91,-85
1725,976,-1240,-584,308,127,-167
1730,968,-1256,-512,263,169,-242
1735,936,-1320,-392,207,217,-294
1740,792,-1424,-208,151,270,-330
1745,648,-1552,-40,118,326,-338
1750,488,-1680,40,112,371,-325
1755,312,-1712,-16,136,398,-292
1760,216,-1776,-88,141,400,-256
1765,88,-1808,-224,108,397,-226
1770,24,-1840,-352,58,398,-198
1775,0,-1896,-424,10,408,-172
1780,-32,-1936,-480,-28,421,-150
1785,-24,-1944,-512,-57,432,-141
1790,0,-1880,-496,-73,437,-138
1795,56,-1912,-520,-55,434,-148
1800,64,-1928,-520,-39,426,-162
1805,32,-1856,-512,-13,414,-185
1810,56,-1800,-496,8,399,-195
1815,56,-1784,-480,25,380,-194
1820,16,-1784,-456,40,357,-197
1825,24,-1768,-384,51,337,-195
1830,-8,-1752,-336,71,323,-200
1835,-8,-1704,-296,99,312,-202
1840,-32,-1688,-232,126,304,-190
1845,-56,-1648,-224,153,292,-172
1850,-56,-1600,-224,177,273,-151
1855,-136,-1560,-216,191,249,-131
1860,-144,-1560,-224,196,220,-106
1865,-184,-1552,-240,191,179,-88
1870,-184,-1576,-240,182,127,-80
1875,-136,-1608,-208,174,71,-90
1880,-192,-1640,-224,174,18,-114
1885,-96,-1568,-320,180,-41,-162
1890,-48,-1624,-240,171,-79,-168
1895,-40,-1632,-296,168,-117,-174
1900,-64,-1680,-304,151,-158,-196
1905,24,-1592,-256,111,-186,-208
1910,56,-1648,-272,93,-205,-214
1915,96,-1712,-224,80,-216,-212
1920,136,-1760,-208,61,-224,-208
1925,160,-1760,-176,52,-225,-197
1930,200,-1744,-152,51,-225,-186
1935,248,-1720,-136,62,-224,-175
1940,256,-1728,-104,80,-223,-159
1945,256,-1744,-136,95,-228,-140
1950,272,-1736,-128,91,-234,-122
1955,240,-1656,-120,70,-238,-98
1960,216,-1616,-152,53,-243,-73
1965,240,-1624,-104,30,-250,-51
1970,200,-1648,-88,11,-256,-34
1975,160,-1672,-72,-13,-267,-19
1980,144,-1760,-40,-39,-286,-10
1985,104,-1784,32,-54,-305,5
1990,80,-1872,64,-52,-324,17
1995,16,-1904,72,-32,-343,30
2000,0,-1960,120,1,-360,50
2005,-48,-2048,128,38,-379,68
2010,-48,-2128,104,82,-404,81
2015,-32,-2224,104,125,-433,84
2020,-16,-2272,80,163,-459,87
2025,-32,-2344,40,204,-487,89
2030,0,-2368,40,252,-522,83
2035,32,-2400,-32,297,-556,69
2040,0,-2456,-48,325,-582,57
2045,-24,-2488,24,346,-606,48
2050,-32,-2464,-32,378,-624,49
2055,-112,-2456,-120,393,-642,49
2060,-96,-2504,-128,389,-649,36
2065,-32,-2536,-32,388,-639,23
2070,-24,-2568,72,392,-633,9
2075,16,-2584,152,405,-637,-1
2080,136,-2616,280,430,-643,-24
2085,296,-2640,328,458,-634,-61
2090,440,-2672,416,480,-608,-112
2095,568,-2648,528,501,-575,-160
2100,728,-2648,600,516,-557,-203
2105,768,-2624,576,536,-544,-226
2110,880,-2584,544,557,-529,-236
2115,984,-2408,472,560,-498,-233
2120,1048,-2440,384,549,-444,-222
2125,1080,-2376,176,505,-367,-208
2130,1024,-2392,-16,416,-288,-208
2135,928,-2384,-328,286,-221,-217
2140,824,-2424,-528,116,-173,-241
2145,672,-2472,-696,-79,-143,-272
2150,504,-2576,-832,-276,-110,-304
2155,304,-2600,-896,-442,-58,-327
2160,176,-2632,-872,-552,17,-347
2165,216,-2608,-888,-599,111,-369
2170,392,-2536,-880,-573,219,-402
2175,664,-2368,-880,-462,350,-402
2180,888,-2080,-848,-299,462,-383
2185,1000,-1808,-832,-143,541,-335
2190,992,-1624,-848,-26,605,-254
2195,952,-1576,-832,30,634,-175
2200,768,-1416,-856,32,632,-107
2205,632,-1320,-896,-8,603,-58
2210,472,-1312,-928,-76,558,-47
2215,192,-1416,-832,-138,508,-77
2220,-24,-1456,-744,-167,467,-119
2225,-368,-1608,-616,-168,420,-148
2230,-632,-1656,-568,-146,357,-163
2235,-864,-1744,-608,-151,267,-174
2240,-936,-1832,-632,-183,186,-163
2245,-880,-1912,-640,-214,149,-125
2250,-760,-1960,-688,-238,140,-89
2255,-552,-2008,-760,-252,137,-52
2260,-352,-2032,-760,-264,136,-23
2265,-152,-2064,-736,-287,138,-3
2270,24,-2128,-752,-317,149,2
2275,184,-2200,-664,-338,171,8
2280,304,-2312,-536,-332,203,24
2285,344,-2368,-528,-284,240,57
2290,384,-2368,-496,-218,282,97
2295,416,-2352,-448,-157,321,149
2300,392,-2344,-480,-91,363,219
2305,344,-2240,-432,-26,397,288
2310,328,-2136,-416,19,431,349
2315,264,-2032,-440,44,453,397
2320,328,-1824,-416,74,473,426
2325,296,-1600,-440,101,524,489
2330,280,-1544,-392,140,583,564
2335,280,-1384,-448,194,619,609
2340,264,-1344,-416,203,644,612
2345,240,-1320,-368,207,671,599
2350,144,-1264,-352,207,697,605
2355,152,-1384,-296,183,697,624
2360,184,-1432,-296,177,701,606
2365,152,-1448,-304,167,736,578
2370,88,-1472,-344,159,777,572
2375,72,-1456,-336,146,810,567
2380,16,-1432,-368,134,843,547
2385,24,-1424,-392,114,871,526
2390,-16,-1400,-408,73,884,521
2395,-32,-1440,-384,29,888,513
2400,-136,-1472,-352,-3,880,504
2405,-232,-1416,-320,-38,857,497
2410,-256,-1512,-288,-91,828,502
2415,-312,-1584,-192,-136,793,499
2420,-352,-1688,-184,-146,766,477
2425,-384,-1720,-192,-123,753,438
2430,-400,-1736,-200,-96,753,396
2435,-392,-1752,-128,-80,763,356
2440,-344,-1776,-80,-62,777,295
2445,-304,-1800,-120,-42,796,238
2450,-224,-1792,-120,-17,815,184
2455,-208,-1784,-96,-4,837,136
2460,-160,-1792,-80,5,857,92
2465,-80,-1800,-72,17,873,49
2470,-32,-1792,-72,25,897,8
2475,8,-1776,-56,26,929,-22
2480,64,-1832,-64,21,957,-43
2485,96,-1856,-40,21,978,-58
2490,176,-1864,-96,18,989,-67
2495,216,-1904,-48,10,999,-65
2500,224,-1944,-64,11,1002,-64
2505,208,-1952,-40,18,1003,-57
2510,160,-2008,-8,20,1005,-42
2515,80,-2072,64,35,991,-20
2520,-8,-2136,64,75,960,2
2525,-72,-2152,16,132,916,23
2530,-152,-2184,-48,173,873,48
2535,-256,-2288,-120,198,834,76
2540,-400,-2312,-240,216,807,100
2545,-432,-2384,-264,227,785,122
2550,-496,-2336,-272,240,773,136
2555,-480,-2464,-144,260,768,138
2560,-528,-2488,-56,295,761,129
2565,-520,-2496,24,345,744,103
2570,-568,-2472,136,404,732,76
2575,-640,-2440,168,461,728,52
2580,-688,-2472,272,503,718,34
2585,-824,-2456,384,545,698,27
2590,-896,-2440,360,580,661,39
2595,-952,-2424,304,593,624,57
2600,-896,-2392,272,596,590,92
2605,-888,-2400,256,603,558,130
2610,-832,-2360,328,610,529,168
2615,-848,-2368,424,621,495,213
2620,-720,-2280,440,628,470,265
2625,-640,-2224,248,620,450,306
2630,-440,-2200,80,543,461,356
2635,-128,-2248,-200,398,493,388
2640,288,-2312,-448,209,506,393
2645,704,-2488,-544,15,498,366
2650,976,-2648,-728,-124,476,330
2655,1016,-2696,-832,-198,466,302
2660,784,-2792,-872,-214,459,286
2665,552,-2776,-920,-156,426,329
2670,264,-2664,-976,-61,381,400
2675,104,-2568,-1112,25,334,455
2680,8,-2232,-1312,76,315,478
2685,0,-2056,-1344,67,318,510
2690,8,-1800,-1344,45,296,561
2695,-16,-1656,-1424,3,236,638
2700,-72,-1656,-1440,-59,163,722
2705,-64,-1552,-1400,-131,80,774
2710,-48,-1688,-1232,-233,3,809
2715,-8,-1936,-1008,-298,-66,799
2720,208,-2088,-776,-277,-97,729
2725,296,-2104,-672,-189,-86,626
2730,464,-2120,-496,-96,-59,519
2735,576,-2144,-344,-12,-29,414
2740,656,-2112,-328,58,-1,316
2745,696,-2112,-304,115,27,216
2750,664,-2064,-280,165,64,115
2755,696,-2048,-248,201,108,9
2760,648,-2008,-240,233,155,-105
2765,560,-1944,-232,259,206,-212
2770,408,-1872,-264,281,250,-301
2775,288,-1856,-224,293,274,-362
2780,152,-1728,-256,290,281,-393
2785,40,-1648,-304,264,272,-412
2790,-48,-1544,-432,234,260,-416
2795,-80,-1472,-520,203,257,-406
2800,-128,-1424,-520,173,254,-388
2805,-208,-1376,-544,140,247,-364
2810,-184,-1304,-576,103,238,-340
2815,-152,-1248,-536,69,230,-324
2820,-160,-1240,-480,47,216,-309
2825,-144,-1200,-448,70,180,-297
2830,-64,-1088,-432,91,143,-295
2835,8,-1112,-376,55,112,-278
2840,-32,-1128,-352,10,76,-268
2845,56,-1160,-424,-15,34,-272
2850,136,-1208,-368,-45,-4,-279
2855,144,-1256,-304,-63,-38,-292
2860,256,-1296,-288,-81,-58,-313
2865,248,-1424,-184,-117,-60,-312
2870,240,-1576,-160,-149,-57,-303
2875,264,-1696,-72,-148,-60,-299
2880,248,-1784,-16,-164,-74,-304
2885,264,-1928,56,-202,-94,-316
2890,304,-2120,24,-209,-114,-309
2895,328,-2136,-40,-165,-136,-301
2900,296,-2096,-56,-148,-170,-307
2905,248,-2136,-56,-164,-188,-302
2910,216,-2136,-128,-170,-210,-283
2915,112,-2136,-120,-198,-225,-262
2920,40,-2200,-64,-222,-241,-215
2925,-16,-2200,-48,-203,-261,-175
2930,-56,-2192,-32,-149,-288,-146
2935,-136,-2128,-16,-85,-315,-118
2940,-128,-2104,48,-15,-341,-93
2945,-160,-2056,88,57,-363,-82
2950,-168,-1976,88,119,-380,-69
2955,-128,-1976,80,168,-385,-52
2960,-152,-1944,128,212,-403,-50
2965,-152,-2000,136,237,-431,-54
2970,-216,-1920,184,261,-476,-63
2975,-240,-1968,224,284,-519,-66
2980,-264,-2016,256,307,-566,-66
2985,-256,-2072,312,329,-622,-68
2990,-232,-2120,296,366,-676,-73
2995,-168,-2160,288,398,-718,-84
3000,-96,-2200,256,414,-756,-96
3005,-32,-2256,248,421,-789,-109
3010,-24,-2336,240,430,-816,-119
3015,-32,-2400,256,439,-844,-126
3020,-64,-2488,224,454,-884,-124
3025,-128,-2536,176,463,-916,-111
3030,-56,-2536,64,456,-939,-87
3035,40,-2592,64,450,-929,-76
3040,32,-2592,112,463,-905,-78
3045,88,-2616,216,491,-894,-86
3050,192,-2640,344,535,-900,-91
3055,304,-2576,360,590,-895,-104
3060,520,-2552,448,649,-861,-131
3065,672,-2544,432,698,-818,-172
3070,792,-2416,552,727,-792,-213
3075,872,-2264,560,750,-782,-237
3080,872,-2168,584,759,-782,-244
3085,880,-2056,608,752,-780,-237
3090,816,-1968,384,718,-765,-224
3095,800,-1840,232,653,-731,-218
3100,688,-1792,8,548,-690,-223
3105,520,-1736,-256,397,-655,-235
3110,384,-1712,-464,196,-618,-248
3115,232,-1728,-728,-37,-592,-255
3120,136,-1816,-984,-274,-556,-259
3125,168,-1960,-1200,-491,-489,-265
3130,312,-2088,-1344,-656,-373,-289
3135,496,-2176,-1424,-764,-244,-342
3140,752,-2208,-1424,-817,-112,-417
3145,960,-2184,-1368,-807,22,-511
3150,1200,-2144,-1320,-740,147,-609
3155,1280,-2064,-1272,-655,265,-682
3160,1232,-1992,-1232,-573,373,-698
3165,1008,-2000,-1128,-510,447,-668
3170,712,-2088,-1016,-450,492,-625
3175,368,-2200,-872,-369,524,-597
3180,48,-2416,-648,-280,541,-578
3185,-216,-2512,-536,-203,536,-563
3190,-512,-2624,-448,-136,515,-531
3195,-864,-2744,-448,-74,472,-484
3200,-1048,-2864,-456,-37,421,-409
3205,-1208,-2880,-400,-25,369,-311
3210,-1272,-2848,-440,-21,314,-191
3215,-1208,-2720,-512,6,252,-62
3220,-1056,-2528,-640,68,200,82
3225,-744,-2288,-800,140,174,244
3230,-472,-2120,-816,193,163,389
3235,-280,-2088,-752,204,137,458
3240,-56,-1976,-704,215,99,496
3245,184,-1928,-600,238,63,522
3250,336,-1856,-504,267,41,527
3255,416,-1848,-472,295,32,510
3260,544,-1816,-408,320,40,467
3265,592,-1776,-336,334,75,404
3270,656,-1800,-304,333,122,356
3275,624,-1800,-312,329,188,330
3280,656,-1720,-272,310,265,313
3285,560,-1576,-280,304,344,308
3290,520,-1464,-296,321,427,319
3295,424,-1248,-312,336,504,344
3300,392,-1152,-296,317,573,397
3305,280,-1032,-360,288,626,442
3310,168,-1032,-392,251,667,493
3315,48,-896,-384,220,674,501
3320,0,-832,-344,179,675,511
3325,-56,-808,-336,149,680,521
3330,-80,-824,-320,111,681,540
3335,-120,-944,-328,48,682,562
3340,-184,-1104,-312,-20,675,550
3345,-248,-1136,-344,-77,658,496
3350,-224,-1248,-328,-152,652,453
3355,-232,-1336,-288,-230,651,407
3360,-256,-1432,-232,-291,648,352
3365,-288,-1552,-200,-346,641,298
3370,-296,-1624,-128,-385,624,245
3375,-368,-1736,-96,-406,600,198
3380,-376,-1800,-96,-413,579,152
3385,-376,-1872,-24,-413,562,113
3390,-480,-1880,-72,-399,549,82
3395,-520,-1912,-48,-379,537,57
3400,-536,-1912,-48,-358,523,34
3405,-536,-1912,-32,-338,504,8
3410,-568,-1928,-40,-315,478,-23
3415,-544,-1952,-40,-291,450,-55
3420,-520,-1968,16,-263,418,-82
3425,-496,-2000,32,-228,385,-102
3430,-488,-2040,48,-192,353,-118
3435,-488,-2000,32,-155,313,-126
3440,-416,-1992,40,-120,284,-132
3445,-368,-1976,-16,-84,257,-134
3450,-312,-2016,40,-46,243,-135
3455,-280,-2000,-16,-6,241,-131
3460,-208,-2000,8,37,244,-123
3465,-144,-2032,-16,68,259,-116
3470,-56,-2080,8,98,284,-104
3475,-48,-2080,8,128,318,-96
3480,16,-2096,48,168,350,-84
3485,16,-2088,104,215,380,-73
3490,-24,-2080,88,264,402,-60
3495,-32,-2072,104,311,398,-41
3500,-144,-2056,64,344,378,-14
3505,-216,-2056,8,354,357,24
3510,-248,-2080,-96,338,348,63
3515,-280,-2136,-136,302,349,94
3520,-208,-2248,-120,259,361,123
3525,-160,-2264,-16,232,374,141
3530,-88,-2384,64,227,385,147
3535,-72,-2400,72,237,387,140
3540,-168,-2440,72,242,383,134
3545,-200,-2464,88,237,393,132
3550,-312,-2496,168,225,412,138
3555,-440,-2536,240,225,418,155
3560,-648,-2488,344,245,413,188
3565,-800,-2472,376,268,406,238
3570,-856,-2432,312,282,401,293
3575,-912,-2400,288,284,393,342
3580,-896,-2416,312,288,388,382
3585,-888,-2336,336,305,387,403
3590,-784,-2288,376,320,393,410
3595,-696,-2240,312,325,408,405
3600,-440,-2160,152,285,428,396
3605,-168,-2216,16,185,458,372
3610,32,-2240,-216,43,480,336
3615,320,-2432,-352,-110,492,307
3620,464,-2480,-424,-239,480,271
3625,488,-2576,-576,-324,430,245
3630,384,-2648,-696,-351,349,255
3635,152,-2576,-816,-331,246,289
3640,-80,-2400,-984,-286,153,331
3645,-176,-2240,-1088,-230,91,352
3650,-296,-2024,-1184,-194,65,366
3655,-248,-1848,-1296,-198,38,395
3660,-152,-1768,-1392,-242,-2,443
3665,-104,-1712,-1432,-310,-55,496
3670,-48,-1720,-1448,-394,-130,548
3675,24,-1656,-1384,-483,-207,596
3680,104,-1912,-1080,-536,-262,635
3685,256,-1904,-968,-511,-321,590
3690,416,-2072,-816,-497,-365,540
3695,576,-2272,-584,-462,-377,486
3700,696,-2304,-384,-379,-360,424
3705,752,-2344,-304,-285,-319,362
3710,768,-2272,-272,-189,-268,286
3715,792,-2224,-256,-119,-215,204
3720,776,-2176,-288,-75,-167,116
3725,752,-2160,-296,-47,-122,25
3730,728,-2160,-320,-33,-74,-62
3735,688,-2168,-304,-32,-25,-147
3740,592,-2128,-304,-37,26,-225
3745,480,-2080,-296,-38,76,-301
3750,344,-2056,-368,-36,116,-374
3755,168,-1992,-368,-44,143,-433
3760,48,-1944,-416,-50,159,-469
3765,-32,-1888,-424,-58,164,-484
3770,-144,-1840,-408,-71,166,-482
3775,-264,-1808,-376,-76,166,-472
3780,-320,-1744,-344,-52,157,-455
3785,-320,-1696,-256,-9,145,-435
3790,-344,-1624,-312,41,129,-422
3795,-312,-1608,-304,100,114,-403
3800,-208,-1536,-240,147,108,-386
3805,-176,-1424,-248,165,108,-368
3810,-120,-1304,-192,175,105,-351
3815,-88,-1256,-160,179,96,-336
3820,-40,-1136,-224,185,70,-333
3825,16,-1064,-248,150,37,-339
3830,104,-1040,-208,88,5,-352
3835,168,-1040,-192,16,-21,-361
3840,264,-1072,-160,-56,-33,-361
3845,288,-1176,-72,-116,-37,-357
3850,280,-1352,-16,-165,-37,-353
3855,280,-1552,40,-186,-48,-355
3860,224,-1640,64,-171,-55,-352
3865,184,-1744,56,-170,-68,-352
3870,128,-1824,56,-181,-82,-348
3875,152,-1944,8,-197,-95,-343
3880,112,-1984,48,-221,-109,-335
3885,96,-2024,24,-256,-119,-331
3890,80,-2064,-8,-290,-131,-312
3895,144,-2104,24,-313,-136,-285
3900,128,-2136,8,-321,-130,-258
3905,176,-2120,-48,-298,-130,-225
3910,168,-2072,-72,-256,-126,-187
3915,184,-2000,-56,-198,-124,-159
3920,208,-1896,-112,-140,-121,-123
3925,208,-1856,-96,-99,-115,-82
3930,208,-1808,-96,-77,-119,-48
3935,216,-1800,0,-71,-123,-11
3940,192,-1792,-32,-70,-133,5
3945,168,-1776,0,-64,-133,15
3950,144,-1840,56,-50,-128,26
3955,112,-1880,128,-34,-126,35
3960,64,-1952,192,-21,-132,44
3965,64,-2064,232,-3,-142,44
3970,40,-2152,320,26,-151,38
3975,40,-2232,272,66,-163,31
3980,72,-2312,288,109,-178,20
3985,104,-2408,200,156,-198,10
3990,176,-2520,152,199,-214,1
3995,224,-2536,104,247,-216,-3
4000,152,-2496,0,296,-216,-2
4005,104,-2552,48,326,-214,15
4010,88,-2504,-64,334,-219,52
4015,104,-2528,-56,323,-224,81
4020,-8,-2536,104,295,-242,99
4025,-24,-2576,256,274,-270,122
4030,0,-2600,344,279,-300,140
4035,88,-2616,352,300,-309,143
4040,216,-2584,376,323,-290,125
4045,488,-2536,400,342,-252,92
4050,808,-2472,296,358,-204,50
4055,992,-2408,144,360,-156,-6
4060,1160,-2424,-112,316,-116,-64
4065,1248,-2512,-392,207,-85,-119
4070,1304,-2720,-728,53,-48,-182
4075,1296,-2880,-976,-133,16,-264
4080,1208,-3152,-1192,-333,110,-361
4085,1000,-3288,-1304,-508,223,-454
4090,816,-3296,-1312,-627,353,-514
4095,776,-3072,-1248,-675,492,-532
4100,912,-2880,-1232,-627,632,-516
4105,1008,-2536,-1328,-507,757,-477
4110,984,-2176,-1360,-367,844,-402
4115,768,-1936,-1264,-240,876,-275
4120,560,-1736,-1160,-109,832,-141
4125,448,-1608,-1088,34,745,-30
4130,208,-1464,-968,158,670,55
4135,-24,-1432,-848,242,647,113
4140,-264,-1464,-632,300,642,140
4145,-376,-1544,-656,356,615,139
4150,-424,-1560,-680,380,577,119
4155,-504,-1704,-656,339,552,94
4160,-504,-1800,-616,281,546,81
4165,-456,-1824,-680,232,551,74
4170,-288,-1776,-664,177,554,66
4175,-184,-1784,-640,103,560,75
4180,-8,-1800,-568,34,558,87
4185,104,-1840,-472,-10,551,100
4190,200,-1832,-392,-30,543,127
4195,272,-1904,-376,-38,543,174
4200,304,-1936,-376,-39,545,225
4205,344,-1992,-472,-33,563,276
4210,360,-1968,-592,-41,590,341
4215,264,-2000,-608,-75,629,428
4220,240,-2072,-592,-100,657,517
4225,88,-2064,-520,-112,672,579
4230,8,-2072,-432,-85,677,626
4235,-32,-2000,-376,-30,682,662
4240,-56,-1952,-288,34,689,670
4245,-40,-1872,-272,106,706,677
4250,-32,-1680,-328,192,725,647
4255,-24,-1432,-416,275,762,606
4260,32,-1256,-464,340,811,578
4265,96,-1048,-560,376,859,555
4270,112,-968,-592,372,903,546
4275,136,-944,-568,335,942,536
4280,104,-984,-488,287,971,520
4285,128,-1064,-448,235,1001,506
4290,64,-1104,-448,166,1042,499
4295,0,-1232,-376,93,1074,480
4300,8,-1256,-384,41,1091,449
4305,48,-1312,-432,-22,1115,424
4310,24,-1344,-408,-101,1130,415
4315,-32,-1384,-440,-182,1134,398
4320,-16,-1456,-376,-242,1129,373
4325,-88,-1528,-360,-287,1115,353
4330,-192,-1608,-264,-314,1090,337
4335,-256,-1736,-168,-322,1063,333
4340,-360,-1824,-112,-311,1036,319
4345,-408,-1864,-128,-287,1017,301
4350,-408,-1920,-144,-249,1007,285
4355,-384,-1968,-112,-200,1006,267
4360,-424,-2000,-88,-142,1010,251
4365,-440,-2056,-80,-83,1008,236
4370,-456,-2072,-24,-29,992,209
4375,-464,-2072,8,20,968,180
4380,-448,-2128,-8,66,941,152
4385,-424,-2136,8,104,913,130
4390,-392,-2144,-40,138,885,111
4395,-336,-2168,-16,167,860,92
4400,-248,-2168,0,188,835,77
4405,-240,-2160,0,204,809,64
4410,-176,-2152,8,221,780,55
4415,-152,-2152,-16,249,747,50
4420,-192,-2128,64,279,717,53
4425,-224,-2056,8,310,683,53
4430,-328,-2008,-32,336,649,56
4435,-384,-1912,-184,347,599,60
4440,-432,-1848,-296,335,524,58
4445,-472,-1816,-424,300,470,57
4450,-520,-1880,-448,238,435,57
4455,-544,-2008,-304,166,410,49
4460,-528,-2112,-128,108,391,35
4465,-480,-2208,72,108,376,9
4470,-488,-2344,248,143,362,-40
4475,-504,-2464,312,196,350,-94
4480,-504,-2560,328,244,347,-150
4485,-520,-2592,296,267,349,-197
4490,-584,-2576,304,273,338,-226
4495,-656,-2552,232,270,304,-227
4500,-680,-2456,80,248,254,-212
4505,-568,-2424,-120,188,213,-193
4510,-488,-2384,-200,93,180,-177
4515,-344,-2512,-264,-12,140,-162
4520,-288,-2600,-280,-94,85,-143
4525,-200,-2624,-224,-144,23,-110
4530,-160,-2672,-296,-167,-46,-65
4535,-112,-2616,-464,-181,-129,2
4540,56,-2584,-872,-207,-197,81
4545,256,-2552,-1032,-241,-237,142
4550,216,-2440,-1088,-221,-269,189
4555,304,-2232,-1072,-124,-279,244
4560,296,-2056,-1144,-2,-283,295
4565,288,-1800,-1320,85,-285,332
4570,344,-1576,-1456,108,-295,366
4575,376,-1488,-1376,73,-302,417
4580,408,-1472,-1168,22,-298,448
4585,424,-1416,-1072,-27,-269,446
4590,440,-1280,-880,-70,-214,419
4595,520,-1400,-576,-117,-161,399
4600,544,-1488,-520,-138,-127,345
4605,656,-1632,-560,-165,-111,281
4610,736,-1760,-592,-213,-78,209
4615,688,-1976,-568,-290,-29,145
4620,680,-2136,-520,-363,27,83
4625,528,-2192,-448,-423,80,24
4630,376,-2208,-384,-446,125,-27
4635,208,-2208,-320,-427,163,-70
4640,136,-2232,-264,-361,204,-113
4645,160,-2280,-336,-271,256,-162
4650,128,-2280,-432,-177,315,-217
4655,80,-2288,-384,-89,372,-272
4660,32,-2280,-408,-2,410,-317
4665,-8,-2200,-400,94,424,-363
4670,-48,-2112,-392,182,422,-396
4675,-16,-1992,-432,257,417,-411
4680,-24,-1896,-392,311,404,-411
4685,24,-1776,-352,353,378,-406
4690,48,-1696,-296,381,347,-398
4695,56,-1600,-240,401,319,-384
4700,56,-1440,-280,425,289,-362
4705,-8,-1344,-208,450,264,-342
4710,-16,-1224,-184,462,246,-324
4715,-80,-1176,-160,457,234,-313
4720,-152,-1112,-136,442,205,-315
4725,-200,-1048,-184,404,173,-306
4730,-264,-960,-144,356,138,-294
4735,-272,-1048,-152,305,96,-281
4740,-312,-1144,-96,234,54,-278
4745,-344,-1264,-40,144,8,-280
4750,-280,-1464,0,39,-42,-289
4755,-200,-1656,40,-77,-91,-301
4760,-168,-1792,112,-187,-131,-313
4765,-96,-1896,176,-224,-164,-332
4770,-48,-1928,168,-188,-188,-347
4775,-16,-1920,112,-121,-208,-362
4780,16,-1984,112,-59,-233,-365
4785,32,-1992,128,-17,-268,-356
4790,24,-2008,144,12,-305,-337
4795,24,-2032,112,45,-343,-303
4800,64,-2064,104,79,-389,-274
4805,56,-2064,64,109,-428,-250
4810,40,-2096,48,143,-458,-220
4815,16,-2136,32,183,-483,-189
4820,-32,-2200,56,231,-511,-163
4825,-72,-2240,48,281,-551,-147
4830,-64,-2288,96,339,-604,-135
4835,-32,-2320,128,397,-646,-128
4840,80,-2328,144,454,-669,-120
4845,88,-2320,160,502,-663,-110
4850,160,-2280,160,549,-643,-104
4855,128,-2216,232,564,-619,-87
4860,64,-2256,288,532,-614,-66
4865,80,-2336,368,489,-642,-43
4870,128,-2464,400,457,-677,-18
4875,176,-2480,408,451,-690,-2
4880,272,-2552,424,483,-676,1
4885,216,-2584,512,531,-657,-3
4890,128,-2592,624,562,-661,2
4895,120,-2608,680,573,-696,24
4900,168,-2568,744,578,-730,43
4905,296,-2440,728,590,-741,56
4910,496,-2352,584,605,-720,47
4915,616,-2048,344,607,-680,24
4920,720,-2120,120,592,-617,-2
4925,752,-2024,-256,541,-573,-24
4930,792,-1952,-576,412,-559,-51
4935,904,-1952,-1000,214,-568,-81
4940,912,-2208,-1368,-102,-577,-134
4945,960,-2376,-1768,-350,-565,-193
4950,904,-2488,-2048,-585,-509,-263
4955,896,-2656,-2136,-774,-423,-363
4960,992,-2728,-1984,-846,-306,-480
4965,1128,-2568,-1752,-790,-148,-585
4970,1104,-2376,-1568,-685,9,-688
4975,952,-2176,-1416,-586,113,-757
4980,680,-2120,-1248,-492,171,-783
4985,312,-2088,-1048,-395,205,-778
4990,-24,-2144,-800,-293,224,-747
4995,-192,-2168,-648,-170,235,-697
5000,-288,-2224,-568,-42,246,-631
5005,-424,-2280,-536,58,258,-555
5010,-544,-2344,-560,120,242,-469
5015,-576,-2408,-568,139,188,-372
5020,-608,-2440,-560,108,98,-278
5025,-576,-2512,-512,75,-7,-197
5030,-552,-2440,-448,74,-88,-120
5035,-488,-2320,-456,112,-135,-40
5040,-384,-2136,-448,155,-150,56
5045,-224,-1888,-528,181,-153,175
5050,-88,-1720,-624,200,-162,294
5055,40,-1592,-704,211,-166,406
5060,168,-1520,-744,209,-167,511
5065,304,-1552,-720,186,-158,591
5070,376,-1664,-680,177,-133,643
5075,488,-1712,-624,160,-97,652
5080,496,-1816,-544,116,-31,639
5085,448,-1936,-384,66,54,626
5090,376,-2016,-224,38,116,607
5095,368,-1968,-200,70,137,556
5100,392,-1808,-200,124,188,516
5105,432,-1656,-200,173,275,491
5110,352,-1424,-256,216,372,469
5115,304,-1264,-352,244,464,466
5120,248,-1040,-336,241,541,471
5125,216,-904,-392,201,610,502
5130,160,-816,-360,156,652,510
5135,152,-824,-296,120,685,523
5140,56,-872,-232,106,719,527
5145,-56,-896,-128,102,738,501
5150,-80,-976,-72,89,730,472
5155,-112,-1024,-64,56,728,444
5160,-136,-1152,-16,4,743,434
5165,-160,-1224,-8,-45,761,410
5170,-144,-1320,8,-90,782,397
5175,-184,-1488,16,-132,799,386
5180,-208,-1608,72,-165,801,366
5185,-256,-1640,64,-184,794,343
5190,-304,-1776,96,-192,782,324
5195,-352,-1872,96,-184,766,312
5200,-416,-1976,72,-155,749,294
5205,-424,-1976,48,-111,740,272
5210,-448,-1936,-16,-65,735,245
5215,-416,-1952,-72,-23,730,219
5220,-456,-1920,-80,21,726,185
5225,-360,-1912,-120,63,724,149
5230,-304,-1968,-104,103,729,105
5235,-232,-2000,-72,135,742,53
5240,-128,-2064,16,173,753,0
5245,-64,-2056,32,217,759,-49
5250,-64,-2048,48,254,753,-94
5255,-48,-2024,24,282,730,-124
5260,-128,-2040,8,300,695,-138
5265,-232,-2032,-16,299,656,-137
5270,-296,-2016,-112,285,609,-114
5275,-248,-1960,-232,254,558,-82
5280,-208,-1960,-232,212,516,-58
5285,-184,-2040,-240,163,479,-45
5290,-136,-2096,-152,121,451,-36
5295,-136,-2240,-8,105,428,-38
5300,-232,-2344,160,115,411,-47
5305,-312,-2416,192,145,395,-58
5310,-400,-2536,208,167,378,-62
5315,-416,-2680,256,166,374,-61
5320,-408,-2800,328,147,395,-60
5325,-368,-2944,504,132,429,-61
5330,-400,-3016,520,140,464,-49
5335,-480,-3000,504,173,486,-25
5340,-536,-2912,328,214,493,9
5345,-456,-2848,184,255,491,31
5350,-344,-2704,72,296,492,35
5355,-288,-2592,-8,333,502,29
5360,-136,-2408,-272,348,533,17
5365,48,-2192,-544,315,582,4
5370,256,-2112,-840,227,647,-12
5375,424,-2024,-1008,110,715,-31
5380,408,-2008,-1160,-2,766,-39
5385,544,-1896,-1392,-91,803,-12
5390,528,-1728,-1584,-163,811,18
5395,480,-1592,-1768,-239,800,63
5400,448,-1536,-1808,-318,770,121
5405,256,-1416,-1952,-400,695,200
5410,32,-1432,-2040,-491,615,289
5415,-72,-1528,-1976,-598,520,383
5420,-104,-1656,-1712,-726,393,471
5425,-40,-1736,-1488,-837,244,530
5430,0,-2072,-1088,-871,112,559
5435,56,-2312,-856,-826,11,550
5440,80,-2568,-648,-785,-54,543
5445,120,-2744,-576,-775,-88,536
5450,152,-2888,-584,-781,-100,520
5455,152,-3040,-584,-773,-101,492
5460,176,-3104,-600,-735,-90,446
5465,152,-3120,-616,-653,-61,378
5470,120,-3072,-624,-510,-25,277
5475,104,-2992,-592,-321,11,133
5480,80,-2896,-488,-86,37,-53
5485,48,-2760,-488,175,44,-241
5490,48,-2392,-432,395,75,-427
5495,80,-2048,-440,570,129,-580
5500,0,-1888,-352,696,186,-684
5505,-16,-1576,-384,736,223,-749
5510,-168,-1392,-328,685,254,-770
5515,-328,-1296,-264,566,242,-753
5520,-456,-1280,-240,417,179,-724
5525,-528,-1264,-192,258,96,-697
5530,-552,-1264,-144,134,20,-665
5535,-440,-1272,-72,70,-59,-638
5540,-368,-1288,-16,59,-129,-627
5545,-344,-1280,-16,77,-190,-629
5550,-320,-1192,-64,105,-242,-638
5555,-280,-1056,-136,118,-283,-656
5560,-288,-872,-232,111,-322,-696
5565,-360,-720,-304,69,-372,-748
5570,-296,-576,-304,-12,-433,-788
5575,-336,-552,-304,-123,-481,-818
5580,-192,-608,-248,-258,-518,-827
5585,-88,-776,-144,-384,-524,-834
5590,48,-1016,-88,-483,-520,-832
5595,152,-1192,-16,-562,-506,-827
5600,280,-1440,0,-618,-499,-813
5605,408,-1656,32,-638,-504,-787
5610,416,-1912,48,-616,-521,-755
5615,520,-2016,-64,-567,-557,-728
5620,488,-2072,-104,-505,-581,-704
5625,552,-2104,-208,-446,-596,-684
5630,584,-2088,-296,-407,-606,-670
5635,576,-2080,-328,-374,-614,-660
5640,624,-2024,-368,-333,-619,-651
5645,624,-1992,-376,-277,-604,-614
5650,568,-1936,-360,-195,-581,-561
5655,528,-1888,-336,-102,-548,-492
5660,488,-1832,-328,-19,-520,-435
5665,416,-1736,-360,48,-492,-383
5670,408,-1744,-312,109,-451,-329
5675,360,-1688,-304,152,-410,-285
5680,328,-1664,-296,160,-385,-254
5685,328,-1672,-280,153,-376,-225
5690,328,-1712,-296,136,-386,-197
5695,272,-1736,-240,114,-409,-170
5700,208,-1832,-200,91,-435,-146
5705,168,-1912,-176,65,-463,-130
5710,112,-2024,-176,42,-494,-112
5715,96,-2112,-208,28,-530,-97
5720,8,-2248,-192,31,-579,-84
5725,-8,-2408,-176,55,-644,-78
5730,8,-2568,-168,99,-709,-73
5735,-24,-2824,-112,155,-779,-84
5740,56,-2928,-152,252,-829,-110
5745,56,-3096,-104,371,-844,-142
5750,-32,-3208,-40,515,-844,-169
5755,64,-3208,64,671,-874,-194
5760,112,-3168,104,801,-909,-224
5765,56,-3032,120,903,-938,-250
5770,72,-2904,160,932,-966,-277
5775,-24,-2736,224,896,-975,-292
5780,-112,-2680,344,804,-986,-288
5785,-128,-2592,440,688,-986,-275
5790,-48,-2592,536,554,-982,-266
5795,136,-2656,584,409,-992,-270
5800,368,-2664,608,282,-1001,-274
5805,584,-2640,512,173,-1005,-278
5810,760,-2592,496,67,-1005,-268
5815,952,-2528,400,-28,-1001,-249
5820,944,-2360,264,-105,-987,-216
5825,872,-2160,48,-176,-972,-175
5830,736,-1976,-208,-244,-949,-125
5835,680,-1792,-472,-309,-887,-58
5840,600,-1568,-832,-378,-756,31
5845,568,-1304,-1224,-460,-586,130
5850,616,-1128,-1448,-567,-429,207
5855,760,-1048,-1552,-705,-302,262
5860,960,-1080,-1536,-849,-208,285
5865,1192,-1224,-1392,-964,-139,260
5870,1408,-1432,-1216,-1023,-93,200
5875,1488,-1696,-1024,-1066,-65,127
5880,1432,-2040,-960,-1112,-36,59
5885,1256,-2248,-928,-1164,-1,21
5890,1048,-2504,-872,-1235,45,6
5895,928,-2824,-824,-1263,109,-16
5900,792,-3112,-952,-1200,194,-58
5905,560,-3328,-1128,-1073,308,-116
5910,464,-3368,-1288,-902,431,-178
5915,192,-3344,-1352,-705,607,-220
5920,-80,-3064,-1360,-444,808,-218
5925,-256,-2496,-1376,-123,949,-171
5930,-248,-2024,-1312,162,986,-83
5935,-216,-1512,-1128,361,892,-5
5940,-216,-1088,-936,448,679,23
5945,-152,-936,-816,444,423,40
5950,-112,-960,-752,352,181,69
5955,-160,-1072,-696,203,-40,104
5960,-232,-1248,-648,41,-214,152
5965,-304,-1488,-592,-129,-335,177
5970,-360,-1696,-576,-287,-414,188
5975,-240,-1928,-616,-408,-450,204
5980,-240,-2072,-600,-482,-440,219
5985,-216,-2248,-624,-510,-430,235
5990,-160,-2336,-624,-505,-437,269
5995,-120,-2336,-648,-456,-438,314
6000,-96,-2264,-696,-376,-450,372
6005,-48,-2208,-728,-299,-457,433
6010,-40,-2040,-752,-253,-466,482
6015,32,-1896,-760,-236,-472,520
6020,32,-1704,-760,-238,-473,542
6025,40,-1568,-736,-266,-477,556
6030,72,-1520,-712,-312,-476,576
6035,56,-1448,-656,-348,-467,596
6040,24,-1368,-640,-373,-443,619
6045,24,-1336,-608,-395,-404,649
6050,48,-1344,-528,-415,-373,680
6055,56,-1376,-464,-430,-361,702
6060,168,-1448,-392,-447,-360,738
6065,232,-1592,-312,-457,-356,773
6070,280,-1760,-232,-438,-365,788
6075,256,-1832,-248,-386,-355,792
6080,272,-1928,-200,-297,-316,793
6085,328,-1992,-264,-180,-253,796
6090,288,-1968,-320,-69,-164,802
6095,320,-1864,-376,34,-55,805
6100,336,-1824,-352,94,53,813
6105,296,-1672,-368,158,174,801
6110,216,-1576,-376,208,285,798
6115,184,-1408,-424,223,363,799
6120,56,-1328,-368,193,428,804
6125,24,-1352,-312,134,466,810
6130,0,-1288,-336,96,485,791
6135,40,-1288,-280,62,526,780
6140,-32,-1256,-312,19,571,768
6145,-136,-1280,-280,-28,612,760
6150,-232,-1352,-224,-61,632,739
6155,-224,-1336,-232,-85,642,710
6160,-248,-1336,-296,-117,650,682
6165,-272,-1376,-288,-159,661,665
6170,-352,-1408,-264,-204,667,651
6175,-376,-1432,-280,-236,665,645
6180,-360,-1472,-312,-245,663,648
6185,-280,-1544,-336,-238,671,657
6190,-216,-1608,-376,-217,692,653
6195,-152,-1648,-424,-198,730,651
6200,-80,-1744,-352,-188,777,654
6205,-32,-1816,-368,-167,823,637
6210,48,-1912,-296,-123,858,598
6215,224,-1920,-312,-67,881,540
6220,264,-1912,-344,-19,902,473
6225,384,-1976,-288,6,929,406
6230,440,-1968,-272,24,955,318
6235,472,-2040,-240,22,989,235
6240,512,-2016,-224,28,1022,156
6245,536,-2032,-184,29,1058,92
6250,536,-1984,-240,16,1081,46
6255,552,-2024,-224,-24,1097,7
6260,480,-2056,-256,-58,1094,-43
6265,368,-2104,-272,-81,1089,-81
6270,360,-2208,-288,-89,1076,-101
6275,256,-2288,-400,-79,1066,-138
6280,208,-2304,-512,-56,1067,-160
6285,64,-2248,-536,-57,1087,-184
6290,-96,-2208,-616,-90,1117,-211
6295,-216,-2184,-656,-132,1141,-247
6300,-344,-2232,-696,-165,1157,-278
6305,-424,-2072,-848,-179,1158,-291
6310,-520,-1968,-1056,-227,1156,-282
6315,-552,-1832,-1296,-307,1122,-260
6320,-576,-1688,-1416,-422,1064,-244
6325,-608,-1504,-1432,-533,996,-224
6330,-528,-1312,-1472,-598,900,-196
6335,-392,-1112,-1456,-636,827,-164
6340,-344,-1064,-1336,-674,784,-150
6345,-336,-912,-1224,-670,791,-152
6350,-200,-736,-1152,-620,841,-160
6355,-96,-576,-1048,-536,941,-176
6360,-72,-512,-1016,-438,1051,-187
6365,-136,-472,-992,-341,1127,-214
6370,-152,-288,-1008,-252,1158,-237
6375,-192,-280,-920,-223,1176,-207
6380,-384,-304,-728,-235,1175,-166
6385,-568,-432,-440,-244,1098,-155
6390,-632,-456,-400,-238,957,-153
6395,-552,-536,-320,-272,811,-138
6400,-376,-552,-312,-375,696,-114
6405,-112,-728,-288,-537,627,-97
6410,88,-1000,-304,-716,588,-99
6415,216,-1192,-288,-881,564,-127
6420,376,-1472,-368,-1036,552,-170
6425,568,-1728,-416,-1190,559,-225
6430,728,-2032,-296,-1332,589,-303
6435,760,-2264,-160,-1447,609,-409
6440,712,-2424,-48,-1530,601,-497
6445,632,-2584,88,-1563,581,-526
6450,512,-2888,680,-1521,581,-513
6455,336,-3192,928,-1321,557,-472
6460,56,-3328,624,-921,462,-451
6465,8,-3032,-344,-362,383,-389
6470,-16,-2176,-1616,285,419,-278
6475,-80,-1064,-2544,861,521,-196
6480,-216,40,-2816,1137,506,-183
6485,-296,520,-2616,982,269,-180
6490,-480,696,-2136,538,-90,-149
6495,-288,408,-1488,118,-360,-131
6500,136,40,-1352,-105,-478,-238
6505,296,-144,-1544,-237,-524,-455
6510,288,-208,-1752,-442,-615,-683
6515,232,-440,-1944,-713,-760,-894
6520,224,-784,-2112,-969,-884,-1082
6525,280,-1224,-2104,-1161,-968,-1249
6530,88,-1688,-1672,-1255,-1068,-1407
6535,-56,-2184,-1456,-1215,-1248,-1486
6540,-96,-2800,-1216,-1100,-1459,-1438
6545,-160,-3424,-936,-990,-1617,-1345
6550,-288,-3744,-1208,-854,-1785,-1266
6555,-480,-3864,-1936,-777,-1946,-1156
6560,-560,-4040,-2408,-816,-1996,-976
6565,-584,-4360,-2624,-910,-1877,-817
6570,-512,-4704,-2304,-938,-1664,-798
6575,-384,-5080,-1712,-832,-1456,-947
6580,-328,-5176,-1256,-629,-1335,-1237
6585,-384,-4984,-1000,-454,-1352,-1594
6590,-328,-4424,-1120,-425,-1438,-1924
6595,-56,-3952,-1248,-548,-1433,-2193
6600,104,-3672,-1304,-763,-1256,-2406
6605,208,-3656,-1200,-1027,-929,-2583
6610,160,-3872,-952,-1293,-570,-2711
6615,64,-4208,-832,-1563,-335,-2740
6620,-16,-4736,-688,-1841,-250,-2656
6625,-232,-5360,-688,-2088,-240,-2471
6630,-592,-6288,-520,-2287,-236,-2157
6635,-424,-6480,-368,-2325,-210,-1555
6640,-648,-6136,-256,-2319,-73,-909
6645,-872,-5584,88,-2473,166,-291
6650,-688,-4936,272,-2808,464,279
6655,-664,-4344,352,-3339,709,689
6660,-696,-3520,848,-4030,900,940
6665,-120,-2800,1112,-4522,1138,1020
6670,664,-1880,1128,-4469,1394,805
6675,1816,-880,1104,-4051,1457,403
6680,2776,-64,1072,-3568,1385,2
6685,3832,808,848,-3150,1343,-406
6690,4312,1256,32,-2854,1380,-797
6695,4528,1328,-1032,-2722,1453,-1015
6700,4072,728,-1864,-2823,1468,-1048
6705,3912,824,-1816,-3107,1417,-825
6710,2936,1024,-808,-3377,1252,-574
6715,712,672,168,-3175,926,-570
6720,-1936,168,1128,-2704,448,-511
6725,-3360,-632,2152,-2291,-80,-43
6730,-3960,-1392,3048,-1820,-646,599
6735,-3800,-1816,2416,-1221,-1114,1010
6740,-3232,-1368,608,-597,-1367,1052
6745,-2168,-720,-1328,-266,-1460,830
6750,-1376,-336,-2144,-361,-1251,599
6755,-304,-8,-2552,-714,-854,391
6760,408,352,-2344,-1082,-462,294
6765,864,600,-1784,-1403,-251,180
6770,1328,888,-1040,-1601,-231,37
6775,1568,912,-736,-1641,-347,-97
6780,1752,840,-728,-1614,-488,-204
6785,1896,792,-656,-1608,-579,-267
6790,1752,968,-664,-1596,-537,-318
6795,1568,1072,-768,-1575,-362,-339
6800,1408,1256,-848,-1618,-153,-330
6805,1232,1312,-944,-1740,27,-282
6810,1032,1296,-888,-1927,145,-198
6815,808,1152,-720,-2084,222,-104
6820,512,1144,-552,-2172,277,-5
6825,408,1176,-464,-2185,306,89
6830,168,1112,-360,-2170,286,150
6835,-16,1072,-424,-2152,199,168
6840,-200,1032,-488,-2155,60,152
6845,-384,1000,-560,-2179,-73,110
6850,-416,920,-680,-2179,-161,43
6855,-424,776,-768,-2141,-203,-44
6860,-408,576,-776,-2111,-205,-120
6865,-336,352,-696,-2120,-191,-171
6870,-232,176,-560,-2145,-173,-215
6875,-168,24,-464,-2157,-158,-259
6880,-112,-24,-360,-2161,-158,-301
6885,-16,-32,-264,-2180,-184,-325
6890,-88,-96,-200,-2191,-231,-337
6895,-112,-152,-96,-2177,-275,-333
6900,-152,-192,-56,-2162,-316,-329
6905,-216,-200,-40,-2137,-350,-313
6910,-192,-184,-80,-2093,-363,-292
6915,-200,-120,-128,-2055,-361,-267
6920,-216,-72,-192,-2023,-325,-239
6925,-104,-48,-224,-2010,-269,-213
6930,-24,-24,-312,-2006,-218,-194
6935,80,-48,-320,-2000,-186,-178
6940,256,-144,-384,-1975,-163,-163
6945,312,-160,-384,-1932,-117,-154
6950,392,-168,-376,-1876,-49,-146
6955,408,-160,-376,-1814,31,-143
6960,472,-200,-352,-1754,110,-144
6965,464,-152,-392,-1701,186,-154
6970,392,-160,-416,-1663,250,-164
6975,360,-144,-376,-1635,302,-167
6980,296,-184,-352,-1599,352,-158
6985,224,-192,-352,-1561,407,-141
6990,168,-192,-344,-1528,460,-119
6995,104,-184,-328,-1513,507,-94
7000,88,-168,-368,-1508,533,-69
7005,120,-112,-440,-1503,545,-49
7010,128,-144,-464,-1493,548,-35
7015,136,-104,-464,-1477,558,-30
7020,176,-96,-528,-1460,573,-28
7025,216,-136,-496,-1446,590,-38
7030,240,-160,-520,-1437,601,-52
7035,328,-216,-488,-1416,610,-67
7040,360,-216,-464,-1382,618,-86
7045,424,-272,-360,-1338,622,-109
7050,464,-312,-216,-1294,612,-142
7055,488,-352,-80,-1249,573,-189
7060,464,-288,-104,-1211,513,-232
7065,448,-400,-96,-1195,445,-266
7070,416,-352,-112,-1206,396,-272
7075,256,-400,-120,-1243,404,-282
7080,112,-440,-216,-1265,453,-291
7085,56,-400,-248,-1251,518,-312
7090,32,-304,-304,-1224,583,-330
7095,0,-272,-288,-1229,615,-352
7100,0,-48,-168,-1251,637,-379
7105,40,32,200,-1284,680,-365
7110,184,128,640,-1298,727,-361
7115,200,304,1200,-1323,756,-373
7120,344,1112,1672,-1390,745,-351
7125,1024,1952,2144,-1424,647,-232
7130,-1248,2392,-128,-1041,194,-375
7135,968,2200,3496,-1368,167,-425
7140,1640,848,960,-1240,232,-211
7145,1576,2320,-1144,373,1569,-373
7150,2960,4456,-2712,1046,742,-505
7155,4056,10616,-4216,615,307,-396
7160,4632,15624,-4208,263,87,-1525
7165,2608,13984,-3904,-593,-1472,-3168
7170,1448,17008,-10176,-1039,-2452,-3459
7175,1616,5488,-8616,1057,-1652,-868
7180,4768,-7152,-17224,3061,-2508,2200
7185,3192,-2176,-14752,1123,-1663,1950
7190,3664,9200,-15304,-156,-1172,310
7195,-4088,9888,-18864,248,-1179,-922
7200,-1000,3696,-23008,223,-625,-1123
7205,584,6080,-18432,-72,1128,-985
7210,-1856,2976,-13656,329,2732,-630
7215,1792,1552,-11936,1976,3723,-603
7220,-2824,-5512,-8048,2927,3903,-123
7225,-1856,-4552,-6192,3391,4307,-286
7230,-3344,1584,-4120,2710,4327,-331
7235,-1592,4088,-2640,591,3720,400
7240,-480,-1080,-1264,-875,3029,594
7245,-2248,5528,2856,-185,2600,119
7250,-592,3696,1824,-1005,1032,918
7255,400,-3480,2968,-1599,421,1506
7260,544,-3520,1896,1149,461,989
7265,1984,3480,4976,3532,1080,-328
7270,3120,7080,3448,3798,542,-636
7275,3640,-184,4240,3639,-478,28
7280,4256,-2120,3432,5137,-522,272
7285,744,-3416,4656,6344,-198,-661
7290,-912,-6648,2872,8217,-938,-161
7295,80,1712,-2632,7662,-1231,1333
7300,1216,6736,-2888,4310,-1534,1665
7305,1232,8808,-3216,766,-2102,930
7310,496,7160,-1520,-1809,-2425,-81
7315,-336,6128,-1040,-2540,-2199,-394
7320,-432,5184,-1952,-1757,-1672,-164
7325,-1040,4144,-1696,-1128,-1271,-170
7330,-640,2024,-744,-851,-1004,-246
7335,144,-288,616,155,-631,-79
7340,-32,-496,-1128,1590,-818,-258
7345,-368,1096,-2600,1907,-1261,-446
7350,0,2392,-2776,1519,-1554,-526
7355,-464,3224,-3288,732,-2350,-898
7360,-376,2088,-728,-358,-1998,-657
7365,192,1936,-488,-358,-1070,-269
7370,-280,1400,-1312,104,-436,47
7375,96,224,-896,303,-64,296
7380,360,40,-784,327,56,299
7385,496,400,-1224,325,40,302
7390,568,584,-1736,285,-39,284
7395,592,1512,-2240,240,-87,266
7400,520,1872,-2512,163,-131,258
7405,216,1760,-2512,75,-149,313
7410,104,2144,-2552,-48,-140,368
7415,152,1416,-2368,-216,-107,452
7420,160,1032,-2328,-297,-41,544
7425,184,752,-2392,-359,-20,578
7430,352,848,-2584,-393,-36,586
7435,288,312,-2472,-456,-18,528
7440,376,288,-2496,-396,38,538
7445,504,448,-2784,-363,109,518
7450,504,464,-2832,-362,241,424
7455,520,432,-2776,-391,400,309
7460,808,408,-2552,-400,520,278
7465,896,224,-2392,-384,599,248
7470,984,72,-2384,-351,657,210
7475,928,72,-2336,-327,723,174
7480,712,-32,-2256,-287,765,139
7485,696,88,-2200,-303,805,125
7490,560,120,-2056,-334,844,111
7495,608,264,-2024,-343,877,85
7500,576,432,-1992,-374,975,39
7505,936,496,-1952,-370,1057,21
7510,760,624,-1936,-305,1138,-33
7515,944,728,-1760,-235,1180,-90
7520,648,992,-1936,-130,1201,-168
7525,648,1120,-1784,-101,1287,-219
7530,696,1256,-1664,-129,1364,-285
7535,624,1328,-1584,-73,1365,-303
7540,600,1208,-1472,10,1340,-311
7545,632,1272,-1488,109,1289,-312
7550,600,1056,-1288,189,1249,-348
7555,656,992,-1304,298,1169,-388
7560,672,1016,-1320,331,1078,-437
7565,440,976,-1328,249,962,-438
7570,416,928,-1424,127,836,-368
7575,544,832,-1608,8,746,-271
7580,896,744,-1696,-10,717,-190
7585,832,592,-1680,34,741,-141
7590,904,520,-1576,76,772,-115
7595,880,416,-1552,101,799,-115
7600,872,440,-1544,105,796,-117
7605,872,448,-1584,80,760,-92
7610,840,336,-1560,56,715,-48
7615,800,216,-1560,60,673,5
7620,840,280,-1536,87,649,46
7625,824,392,-1544,111,630,81
7630,768,472,-1480,120,601,121
7635,736,472,-1488,137,563,169
7640,712,512,-1464,157,517,220
7645,744,488,-1512,180,456,289
7650,784,544,-1496,184,400,351
7655,776,584,-1488,194,346,410
7660,640,464,-1472,201,297,477
7665,704,408,-1448,182,253,548
7670,800,328,-1472,150,217,592
7675,872,256,-1504,123,190,601
7680,816,256,-1400,108,180,600
7685,872,200,-1424,85,168,616
7690,904,160,-1440,66,149,625
7695,904,144,-1472,66,132,626
7700,968,128,-1560,68,119,618
7705,976,88,-1560,69,116,597
7710,1000,112,-1680,65,119,576
7715,1000,88,-1672,36,137,559
7720,1016,56,-1720,19,161,528
7725,992,72,-1720,6,169,486
7730,1032,64,-1728,-7,179,448
7735,992,72,-1752,-14,196,411
7740,992,104,-1776,-20,208,373
7745,992,48,-1712,-34,216,341
7750,1016,136,-1776,-51,215,316
7755,960,152,-1792,-82,221,279
7760,1016,112,-1784,-116,221,252
7765,984,112,-1848,-138,220,229
7770,952,80,-1872,-149,225,205
7775,976,48,-1888,-136,238,188
7780,1000,0,-1832,-130,247,168
7785,1048,-16,-1864,-110,252,152
7790,976,16,-1832,-96,262,123
7795,1008,8,-1848,-84,275,97
7800,1008,0,-1848,-73,283,72
7805,1008,24,-1816,-67,290,51
7810,1048,40,-1784,-50,298,35
7815,1128,120,-1816,-30,313,11
7820,1032,128,-1800,-20,331,-8
7825,960,192,-1816,-23,342,-21
7830,984,176,-1832,-23,369,-25
7835,1056,144,-1744,-30,387,-25
7840,1040,112,-1784,-35,391,-30
7845,1024,112,-1712,-44,392,-41
7850,1016,192,-1712,-50,403,-51
7855,1088,184,-1616,-60,411,-52
7860,1080,152,-1608,-68,400,-59
7865,1040,176,-1528,-75,380,-70
7870,1040,184,-1512,-77,363,-79
7875,1032,176,-1520,-77,346,-91
7880,1000,192,-1512,-80,326,-101
7885,1024,232,-1528,-86,305,-108
7890,968,224,-1528,-87,289,-112
7895,992,248,-1512,-86,274,-110
7900,968,256,-1480,-85,255,-106
7905,1008,248,-1480,-86,235,-102
7910,992,272,-1496,-84,218,-98
7915,968,296,-1480,-80,198,-93
7920,1008,296,-1528,-81,177,-85
7925,1008,304,-1480,-79,153,-75
7930,992,296,-1496,-75,130,-67
7935,1000,288,-1488,-71,105,-58
7940,1000,296,-1480,-65,76,-50
7945,992,296,-1480,-56,54,-43
7950,968,256,-1480,-46,31,-35
7955,1008,264,-1488,-38,9,-32
7960,1032,288,-1512,-32,-13,-30
7965,1016,280,-1504,-24,-36,-24
7970,1040,296,-1456,-13,-54,-20
7975,1080,280,-1480,-1,-72,-15
7980,1048,320,-1536,13,-92,-12
7985,1032,312,-1536,25,-114,-5
7990,1032,296,-1576,34,-133,-2
7995,1040,304,-1568,40,-149,3
8000,1072,312,-1584,46,-164,3
8005,1072,328,-1592,51,-175,5
8010,1096,320,-1624,57,-182,3
8015,1064,328,-1632,63,-185,2
8020,1080,296,-1664,67,-181,2
8025,1136,336,-1664,70,-173,2
8030,1080,328,-1656,72,-162,2
8035,1080,304,-1680,76,-151,2
8040,1080,328,-1688,81,-142,-2
8045,1088,304,-1680,85,-132,-3
8050,1072,312,-1696,87,-125,-5
8055,1088,272,-1680,88,-121,-6
8060,1056,288,-1688,88,-116,-7
8065,1048,312,-1664,89,-112,-5
8070,1064,272,-1640,88,-109,-5
8075,1032,304,-1704,90,-107,-2
8080,1016,296,-1680,90,-106,-1
8085,1008,280,-1656,93,-103,-2
8090,1016,272,-1648,96,-104,1
8095,1008,264,-1632,98,-103,4
8100,1024,264,-1648,98,-104,5
8105,1008,256,-1616,99,-103,4
8110,992,248,-1648,100,-104,5
8115,1000,240,-1632,102,-104,9
8120,976,248,-1640,103,-102,8
8125,976,232,-1640,102,-98,6
8130,976,248,-1600,100,-94,5
8135,976,264,-1624,98,-92,8
8140,992,240,-1656,95,-95,6
8145,992,248,-1616,93,-96,6
8150,984,232,-1656,89,-95,7
8155,968,272,-1640,89,-94,5
8160,992,232,-1648,88,-90,4
8165,976,248,-1616,86,-89,5
8170,1000,256,-1632,85,-90,5
8175,984,248,-1648,83,-90,5
8180,960,224,-1656,83,-93,3
8185,1000,256,-1656,81,-95,4
8190,984,240,-1656,83,-96,5
8195,984,232,-1664,83,-94,4
8200,968,240,-1632,84,-89,4
8205,992,224,-1632,81,-81,-1
8210,952,224,-1640,76,-72,-4
8215,968,176,-1624,70,-56,-15
8220,944,176,-1632,63,-30,-29
8225,928,168,-1600,55,-1,-48
8230,960,144,-1568,50,30,-66
8235,944,184,-1600,51,66,-90
8240,976,184,-1640,62,110,-113
8245,992,184,-1712,74,158,-133
8250,1016,224,-1768,77,200,-150
8255,1088,248,-1792,66,222,-158
8260,1128,280,-1824,63,214,-156
8265,1144,304,-1840,82,186,-150
8270,1136,296,-1896,111,152,-143
8275,1112,256,-1896,125,124,-135
8280,1072,216,-1896,120,117,-141
8285,1024,216,-1840,105,131,-152
8290,1040,192,-1816,87,158,-170
8295,1032,216,-1760,71,182,-190
8300,1024,224,-1744,61,198,-212
8305,1032,216,-1664,52,205,-233
8310,1000,240,-1608,54,206,-248
8315,1008,240,-1552,66,204,-259
8320,992,272,-1584,81,199,-256
8325,992,280,-1552,88,190,-247
8330,1000,336,-1528,89,171,-228
8335,984,368,-1488,83,139,-201
8340,984,320,-1480,76,98,-172
8345,992,320,-1496,67,57,-149
8350,984,328,-1488,65,15,-121
8355,992,344,-1528,85,-21,-103
8360,976,360,-1592,100,-41,-90
8365,952,376,-1616,95,-41,-79
8370,984,376,-1624,86,-33,-59
8375,968,368,-1600,72,-23,-41
8380,960,328,-1536,63,-16,-24
8385,952,328,-1472,61,-13,-13
8390,960,296,-1448,58,-17,-4
8395,960,288,-1432,53,-27,2
8400,976,256,-1416,50,-41,5
8405,1008,248,-1480,56,-61,6
8410,1040,248,-1552,70,-81,10
8415,1040,256,-1632,86,-92,10
8420,1048,256,-1760,100,-91,6
8425,1048,256,-1824,104,-80,0
8430,1072,240,-1800,99,-59,-5
8435,1080,232,-1760,92,-41,-11
8440,1064,248,-1680,79,-33,-19
8445,1040,264,-1680,73,-34,-24
8450,1064,264,-1680,75,-42,-25
8455,1008,288,-1712,76,-48,-28
8460,992,320,-1912,66,-47,-30
8465,1008,288,-1712,63,-42,-27
8470,1016,272,-1752,69,-35,-24
8475,992,288,-1768,74,-24,-19
8480,1016,272,-1648,64,-14,-17
8485,1040,256,-1648,57,-10,-15
8490,1008,280,-1712,61,-10,-13
8495,1048,256,-1720,61,-12,-8
8500,992,256,-1688,60,-9,-6
8505,992,288,-1720,56,-6,-6
8510,984,264,-1744,46,3,-7
8515,992,264,-1664,40,15,-10
8520,992,256,-1664,37,24,-8
8525,992,256,-1608,36,31,-7
8530,952,264,-1592,36,33,-6
8535,992,232,-1560,36,31,-7
8540,976,272,-1504,39,23,-6
8545,984,248,-1504,44,13,-4
8550,984,232,-1504,48,3,-5
8555,984,248,-1536,50,-1,-8
8560,1016,232,-1568,50,-5,-12
8565,1000,224,-1632,53,-7,-13
8570,1016,224,-1672,57,-7,-16
8575,1008,240,-1680,61,-5,-19
8580,1016,216,-1680,63,-2,-19
8585,1008,224,-1648,71,-2,-24
8590,992,192,-1672,89,-8,-27
8595,1032,264,-1648,105,-10,-34
8600,1000,296,-1704,102,-11,-37
8605,1000,304,-1696,96,-10,-32
8610,984,296,-1688,92,-9,-29
8615,984,288,-1648,87,-5,-24
8620,976,240,-1656,84,-1,-20
8625,984,280,-1600,77,2,-16
8630,968,264,-1600,68,2,-13
8635,984,248,-1568,60,0,-13
8640,992,224,-1536,53,-1,-16
8645,960,224,-1544,47,0,-20
8650,992,224,-1592,45,0,-24
8655,992,232,-1640,53,1,-26
8660,1008,240,-1752,63,7,-28
8665,1016,248,-1728,71,20,-32
8670,1056,200,-1752,77,35,-34
8675,1024,240,-1720,83,48,-39
8680,1040,216,-1728,93,54,-47
8685,1032,248,-1768,100,58,-53
8690,1032,224,-1752,110,58,-59
8695,1048,264,-1728,112,56,-68
8700,1032,256,-1720,110,56,-78
8705,1048,288,-1704,110,58,-81
8710,1032,328,-1704,109,55,-78
8715,1008,280,-1632,101,45,-79
8720,1024,312,-1632,91,33,-72
8725,1000,336,-1648,78,21,-63
8730,984,320,-1624,57,10,-51
8735,976,344,-1576,39,2,-33
8740,976,320,-1536,25,-6,-19
8745,936,328,-1552,21,-12,-7
8750,960,304,-1512,20,-16,-1
8755,960,288,-1512,26,-21,4
8760,944,264,-1480,33,-27,5
8765,992,264,-1504,40,-35,8
8770,968,256,-1544,46,-42,9
8775,984,264,-1576,54,-50,9
8780,992,232,-1560,59,-54,9
8785,992,208,-1552,60,-53,5
8790,992,224,-1616,61,-52,-1
8795,1016,240,-1696,59,-49,-8
8800,1024,240,-1672,57,-49,-12
8805,1024,248,-1728,57,-45,-18
8810,1024,264,-1768,57,-40,-20
8815,1072,224,-1736,59,-37,-22
8820,1016,264,-1728,60,-32,-24
8825,1024,280,-1728,63,-29,-25
8830,1008,272,-1736,67,-27,-23
8835,1016,256,-1736,73,-27,-22
8840,1000,288,-1736,79,-26,-21
8845,1024,208,-1744,81,-26,-18
8850,1000,280,-1760,82,-31,-14
8855,976,272,-1760,79,-36,-9
8860,992,240,-1736,72,-36,-6
8865,992,232,-1680,66,-27,-4
8870,968,240,-1632,61,-16,-4
8875,976,264,-1616,58,-11,-2
8880,944,272,-1616,51,-5,0
8885,960,256,-1584,46,1,0
8890,960,272,-1584,45,2,1
8895,960,264,-1576,45,0,3
8900,968,240,-1584,47,-10,5
8905,960,264,-1584,45,-20,6
8910,984,216,-1568,46,-30,7
8915,952,264,-1560,46,-36,4
8920,976,248,-1560,43,-44,3
8925,984,224,-1568,43,-54,0
8930,960,224,-1608,43,-56,-7
8935,1000,216,-1632,43,-54,-13
8940,992,232,-1632,43,-49,-21
8945,992,224,-1672,49,-44,-26
8950,1008,280,-1752,56,-41,-31
8955,1008,264,-1784,57,-31,-33
8960,1024,264,-1768,62,-16,-29
8965,1016,240,-1776,65,-7,-28
8970,1016,288,-1768,64,-2,-24
8975,1000,288,-1768,67,1,-22
8980,984,280,-1768,68,7,-20
8985,1000,264,-1752,66,15,-19
8990,1008,264,-1728,62,22,-19
8995,960,304,-1688,59,28,-16
9000,1000,256,-1672,55,29,-12
9005,976,288,-1600,52,27,-11
9010,984,232,-1624,44,27,-8
9015,968,256,-1632,39,25,-9
9020,968,256,-1584,36,24,-8
9025,960,272,-1608,34,23,-6
9030,960,264,-1592,34,22,-5
9035,952,264,-1568,34,19,-3
9040,952,280,-1584,36,14,-1
9045,984,248,-1608,38,8,2
9050,976,256,-1576,40,2,4
9055,976,264,-1600,43,-7,7
9060,976,336,-1704,45,-17,11
9065,984,256,-1592,46,-25,14
9070,968,248,-1592,41,-32,14
9075,968,216,-1592,41,-38,6
9080,984,232,-1608,40,-39,-2
9085,1000,216,-1648,38,-29,-9
9090,992,256,-1688,44,-16,-15
9095,1000,248,-1720,49,-5,-17
9100,1000,256,-1704,53,3,-19
9105,1016,288,-1712,60,6,-15
9110,1008,232,-1768,64,12,-15
9115,1008,256,-1752,68,15,-11
9120,992,272,-1760,70,20,-9
9125,992,248,-1760,72,23,-6
9130,1000,272,-1736,72,29,-4
9135,976,272,-1768,71,35,1
9140,992,256,-1728,70,39,4
9145,976,304,-1704,71,44,5
9150,984,280,-1680,68,46,8
9155,976,264,-1680,63,47,10
9160,992,248,-1608,59,45,11
9165,992,240,-1640,53,44,10
9170,976,240,-1608,48,41,10
9175,968,256,-1608,44,38,5
9180,976,248,-1608,40,34,5
9185,984,256,-1616,37,30,4
9190,968,264,-1600,35,25,2
9195,976,272,-1616,38,20,3
9200,992,224,-1600,39,16,4
9205,984,256,-1616,42,12,5
9210,976,248,-1640,46,10,6
9215,976,256,-1616,47,2,9
9220,984,240,-1616,43,-7,7
9225,984,248,-1600,39,-13,5
9230,984,248,-1632,35,-18,2
9235,968,232,-1640,32,-18,-4
9240,984,232,-1664,32,-17,-9
9245,992,248,-1688,36,-13,-14
9250,1008,264,-1680,44,-7,-16
9255,1000,272,-1744,51,-2,-14
9260,1008,248,-1736,58,5,-11
9265,984,272,-1712,61,10,-8
9270,1008,264,-1760,62,12,-6
9275,992,264,-1744,62,16,-5
9280,984,256,-1704,63,19,-5
9285,992,272,-1680,59,22,-5
9290,984,256,-1712,58,25,-5
9295,984,248,-1672,56,27,-6
9300,984,280,-1656,54,29,-7
9305,992,264,-1664,50,29,-8
9310,992,256,-1608,48,25,-8
9315,976,240,-1600,47,21,-9
9320,992,264,-1624,47,16,-9
9325,992,232,-1624,48,11,-9
9330,992,256,-1592,47,6,-10
9335,968,240,-1584,47,0,-8
9340,976,296,-1592,47,-7,-7
9345,976,264,-1608,48,-14,-6
9350,992,256,-1624,48,-22,-5
9355,984,288,-1632,51,-27,-2
9360,992,264,-1592,54,-34,2
9365,992,256,-1648,58,-43,7
9370,984,272,-1624,62,-49,12
9375,984,248,-1664,64,-56,12
9380,968,256,-1632,65,-64,14
9385,976,240,-1656,64,-72,18
9390,1032,224,-1560,67,-83,19
9395,920,256,-1632,81,-107,10
9400,968,280,-1648,71,-122,15
9405,968,248,-1608,70,-126,22
9410,984,248,-1584,71,-133,26
9415,992,256,-1528,78,-152,27
9420,960,264,-1576,87,-184,24
9425,976,264,-1616,90,-203,32
9430,960,256,-1608,98,-221,38
9435,968,240,-1656,107,-238,41
9440,936,240,-1656,109,-255,43
9445,960,216,-1696,104,-263,46
9450,928,240,-1736,96,-266,47
9455,984,232,-1696,91,-261,47
9460,912,232,-1672,92,-254,39
9465,920,256,-1640,93,-250,36
9470,952,216,-1680,94,-247,34
9475,936,240,-1672,98,-246,26
9480,936,240,-1736,102,-248,26
9485,920,232,-1720,100,-244,26
9490,960,224,-1696,100,-231,28
9495,936,280,-1816,106,-223,25
9500,928,216,-1720,107,-214,22
9505,904,232,-1736,109,-205,18
9510,920,256,-1712,108,-193,16
9515,952,216,-1720,109,-176,14
9520,904,240,-1744,108,-163,14
9525,904,232,-1696,105,-141,18
9530,936,240,-1736,104,-123,19
9535,936,232,-1752,103,-112,19
9540,968,232,-1768,101,-105,19
9545,944,232,-1720,107,-112,6
9550,848,248,-1752,95,-119,5
9555,920,232,-1744,95,-96,11
9560,904,240,-1720,93,-80,14
9565,912,216,-1744,88,-72,15
9570,896,216,-1712,83,-66,12
9575,928,232,-1736,79,-63,10
9580,912,216,-1736,75,-63,8
9585,912,200,-1720,73,-60,8
9590,904,200,-1736,69,-58,6
9595,896,232,-1744,67,-53,6
9600,888,216,-1728,63,-47,4
9605,896,224,-1736,60,-41,5
9610,912,240,-1728,58,-36,4
9615,1072,176,-1680,55,-31,4
9620,816,248,-1760,61,-50,-10
9625,864,264,-1776,50,-43,-4
9630,936,200,-1768,57,-18,-1
9635,904,216,-1728,55,-2,-1
9640,920,200,-1736,51,6,-3
9645,888,208,-1728,50,13,-3
9650,896,216,-1712,48,18,-4
9655,904,216,-1704,48,20,-5
9660,912,232,-1736,47,21,-5
9665,904,216,-1720,45,22,-6
9670,920,208,-1704,44,25,-7
9675,904,192,-1728,44,27,-8
9680,920,208,-1704,45,27,-8
9685,912,256,-1704,44,28,-9
9690,880,232,-1712,44,30,-9
9695,888,240,-1704,44,32,-8
9700,888,224,-1696,43,30,-9
9705,888,208,-1720,43,30,-10
9710,896,216,-1720,44,29,-9
9715,904,216,-1712,46,31,-8
9720,880,232,-1704,49,32,-8
9725,872,232,-1680,51,33,-8
9730,896,200,-1704,55,34,-9
9735,896,208,-1712,56,34,-7
9740,896,208,-1720,57,34,-7
9745,920,208,-1744,57,35,-7
9750,912,248,-1720,58,36,-9
9755,920,184,-1704,57,38,-9
9760,896,232,-1712,58,38,-9
9765,896,208,-1720,56,41,-10
9770,896,224,-1696,56,41,-11
9775,920,216,-1688,53,41,-12
9780,904,216,-1680,52,40,-12
9785,912,232,-1720,51,38,-11
9790,912,232,-1696,52,38,-12
9795,912,256,-1712,53,37,-11
9800,920,248,-1712,54,37,-9
9805,920,232,-1752,55,35,-9
9810,896,232,-1704,57,34,-7
9815,920,256,-1688,56,33,-7
9820,920,216,-1696,56,32,-8
9825,904,224,-1680,55,30,-8
9830,904,208,-1696,54,27,-8
9835,904,256,-1704,53,24,-9
9840,920,232,-1688,54,21,-7
9845,912,232,-1696,53,18,-6
9850,904,240,-1672,53,15,-6
9855,896,232,-1672,51,11,-9
9860,912,232,-1696,49,10,-9
9865,896,232,-1704,48,5,-9
9870,904,232,-1712,47,1,-10
9875,920,232,-1704,47,0,-8
9880,952,192,-1672,48,-2,-10
9885,912,216,-1704,48,-1,-10
9890,904,248,-1712,47,-1,-10
9895,904,208,-1688,46,0,-8
9900,904,224,-1688,47,-1,-9
9905,920,200,-1728,48,-1,-10
9910,896,232,-1680,50,1,-8
9915,896,216,-1688,49,1,-9
9920,912,232,-1688,50,-1,-9
9925,920,248,-1688,50,-1,-7
9930,880,216,-1704,49,-2,-7
9935,880,224,-1728,49,-2,-7
9940,904,216,-1752,49,-1,-8
9945,920,232,-1688,51,-3,-7
9950,920,232,-1696,52,-4,-7
9955,896,208,-1712,54,-4,-6
9960,896,232,-1728,58,-5,-5
9965,920,232,-1696,60,-2,-6
9970,896,232,-1720,58,2,-6
9975,944,200,-1704,57,4,-7
9980,880,216,-1712,55,7,-9
9985,920,224,-1688,53,8,-8
9990,888,224,-1664,52,8,-8
9995,880,240,-1656,50,4,-9
10000,904,232,-1664,54,1,-8
10005,904,216,-1712,60,-5,-6
10010,896,192,-1704,64,-10,-7
10015,928,208,-1744,68,-11,-4
10020,912,216,-1744,66,-12,-6
10025,896,192,-1752,60,-10,-6
10030,912,208,-1736,54,-5,-6
10035,888,216,-1720,53,2,-6
10040,896,208,-1736,52,9,-10
10045,896,216,-1752,51,13,-12
10050,888,256,-1704,49,13,-15
10055,912,232,-1720,48,12,-13
10060,936,208,-1744,47,11,-13
10065,912,240,-1720,49,15,-12
10070,912,208,-1728,49,16,-13
10075,896,224,-1704,52,16,-13
10080,904,256,-1728,51,17,-12
10085,904,224,-1712,50,17,-12
10090,896,232,-1728,49,19,-11
10095,904,264,-1712,47,21,-11
10100,904,216,-1704,45,21,-12
10105,912,216,-1720,46,21,-11
10110,912,224,-1712,48,23,-11
10115,888,216,-1728,47,22,-10
10120,904,200,-1704,46,22,-10
10125,912,216,-1720,46,21,-10
10130,896,224,-1712,48,21,-8
10135,912,208,-1688,49,21,-7
10140,904,224,-1688,48,21,-8
10145,920,232,-1712,49,19,-9
10150,880,240,-1696,50,17,-10
10155,920,216,-1728,52,16,-9
10160,888,208,-1704,51,16,-7
10165,920,232,-1688,53,15,-8
10170,904,232,-1728,53,13,-6
10175,912,240,-1720,53,12,-6
10180,896,208,-1712,53,10,-6
10185,904,232,-1704,50,7,-5
10190,904,224,-1696,49,6,-4
10195,904,240,-1696,49,4,-4
10200,904,200,-1712,50,3,-6
10205,904,216,-1696,53,2,-5
10210,904,216,-1696,55,2,-4
10215,896,240,-1704,56,2,-4
10220,920,216,-1712,55,2,-5
10225,912,216,-1728,55,2,-5
10230,920,240,-1688,54,1,-4
10235,904,216,-1720,54,-1,-3
10240,904,224,-1720,55,1,-3
10245,904,216,-1704,54,1,-2
10250,904,216,-1688,55,2,-4
10255,880,184,-1680,56,2,-5
10260,928,208,-1712,56,1,-6
10265,896,200,-1720,57,1,-6
10270,928,216,-1728,59,0,-7
10275,840,224,-1776,65,-19,-18
10280,896,232,-1720,55,-17,-12
10285,888,216,-1744,63,-1,-9
10290,896,232,-1736,64,5,-8
10295,904,232,-1720,64,10,-6
10300,904,224,-1720,66,16,-6
10305,912,200,-1712,68,21,-5
10310,904,200,-1728,67,27,-5
10315,912,208,-1752,66,33,-4
10320,920,192,-1728,68,40,-5
10325,904,216,-1680,66,44,-5
10330,896,224,-1720,63,46,-5
10335,904,200,-1696,59,50,-6
10340,872,200,-1680,55,50,-8
10345,904,200,-1688,52,48,-10
10350,928,200,-1688,50,45,-11
10355,920,216,-1696,49,41,-9
10360,880,200,-1664,48,34,-10
10365,912,208,-1656,46,30,-9
10370,888,192,-1728,45,26,-10
10375,896,208,-1688,47,21,-10
10380,928,216,-1696,47,17,-11
10385,896,224,-1704,47,15,-10
10390,920,208,-1704,48,13,-9
10395,912,208,-1704,48,12,-10
10400,888,224,-1696,49,13,-10
10405,920,192,-1688,49,14,-10
10410,904,216,-1712,49,14,-9
10415,912,208,-1696,49,15,-9
10420,888,232,-1688,50,16,-9
10425,904,240,-1712,50,16,-8
10430,920,232,-1704,51,15,-7
10435,912,224,-1688,51,14,-8
10440,896,240,-1704,52,16,-7
10445,904,240,-1696,50,14,-7
10450,896,216,-1688,50,14,-7
10455,936,224,-1696,50,13,-6
10460,888,192,-1696,50,12,-6
10465,904,208,-1728,47,11,-7
10470,912,216,-1672,46,11,-7
10475,904,232,-1680,46,9,-7
10480,928,224,-1680,48,7,-9
10485,896,200,-1736,48,5,-7
10490,920,208,-1712,50,4,-7
10495,920,184,-1696,51,3,-7
10500,896,200,-1720,51,0,-7
10505,920,208,-1688,52,0,-7
10510,920,232,-1672,54,-1,-5
10515,904,224,-1696,55,-4,-7
10520,896,224,-1728,54,-6,-6
10525,904,216,-1720,54,-9,-4
10530,944,280,-1712,54,-12,-5
10535,928,216,-1712,57,-17,-6
10540,912,200,-1696,57,-19,-8
10545,896,184,-1704,57,-23,-9
10550,1112,112,-1576,57,-27,-13
10555,784,232,-1696,61,-63,-29
10560,856,240,-1712,48,-57,-23
10565,928,200,-1672,55,-34,-19
10570,872,152,-1728,56,-28,-15
10575,880,168,-1648,54,-28,-15
10580,864,152,-1760,58,-33,-18
10585,928,216,-1680,62,-39,-17
10590,952,176,-1640,71,-51,-22
10595,856,240,-1736,71,-86,-32
10600,896,232,-1744,63,-77,-29
10605,912,208,-1776,60,-62,-23
10610,888,240,-1736,53,-52,-19
10615,880,248,-1736,51,-46,-17
10620,896,232,-1752,55,-40,-18
10625,912,240,-1768,58,-38,-17
10630,896,216,-1720,55,-31,-18
10635,904,216,-1776,53,-26,-16
10640,904,224,-1720,52,-22,-16
10645,904,240,-1760,48,-17,-16
10650,880,208,-1760,46,-11,-16
10655,920,224,-1720,46,-5,-13
10660,888,224,-1744,44,-1,-14
10665,880,248,-1720,42,4,-14
10670,912,200,-1688,40,5,-15
10675,904,216,-1712,37,3,-15
10680,896,200,-1704,38,3,-15
10685,896,232,-1728,40,2,-14
10690,880,216,-1720,40,2,-14
10695,880,256,-1672,41,4,-14
10700,872,232,-1720,42,4,-11
10705,896,216,-1720,43,7,-9
10710,896,232,-1728,44,9,-10
10715,872,216,-1712,45,10,-10
10720,904,232,-1752,47,12,-10
10725,880,240,-1728,47,12,-9
10730,888,216,-1704,47,14,-8
10735,872,224,-1720,51,15,-9
10740,880,216,-1704,52,14,-8
10745,880,216,-1712,54,18,-7
10750,888,232,-1696,54,18,-8
10755,896,208,-1712,55,19,-7
10760,888,216,-1720,54,18,-8
10765,904,216,-1728,52,16,-8
10770,888,208,-1696,50,16,-5
10775,888,208,-1712,51,16,-7
10780,880,216,-1696,51,15,-6
10785,904,216,-1736,53,15,-5
10790,888,208,-1712,56,17,-6
10795,920,200,-1728,57,17,-8
10800,888,224,-1720,57,20,-7
10805,880,200,-1752,56,23,-8
10810,904,192,-1696,54,24,-9
10815,880,224,-1712,54,25,-10
10820,896,240,-1736,52,25,-9
10825,920,208,-1720,51,24,-10
10830,928,200,-1696,52,26,-10
10835,920,200,-1712,50,26,-13
10840,888,200,-1752,51,24,-13
10845,888,192,-1704,49,23,-11
10850,896,200,-1712,48,23,-11
10855,856,200,-1712,47,22,-12
10860,872,200,-1728,45,19,-13
10865,904,224,-1720,45,19,-12
10870,912,192,-1704,45,17,-11
10875,904,192,-1704,44,15,-13
10880,904,216,-1704,45,15,-14
10885,880,248,-1704,46,12,-15
10890,896,208,-1688,45,10,-13
10895,928,216,-1696,45,8,-13
10900,896,216,-1680,45,7,-12
10905,888,232,-1712,46,5,-13
10910,912,200,-1696,47,4,-11
10915,928,208,-1616,50,1,-11
10920,912,216,-1720,51,1,-12
10925,904,216,-1696,51,0,-9
10930,888,240,-1720,51,-1,-12
10935,904,200,-1712,52,-3,-10
10940,920,224,-1664,51,-5,-10
10945,896,232,-1688,51,-7,-12
10950,896,224,-1720,52,-9,-10
10955,904,200,-1720,54,-13,-12
10960,896,208,-1688,55,-17,-10
10965,904,216,-1696,56,-21,-10
10970,864,240,-1728,58,-24,-11
10975,880,240,-1704,59,-26,-10
10980,872,240,-1720,61,-28,-9
10985,872,216,-1720,63,-29,-8
10990,904,200,-1720,63,-31,-8
10995,872,224,-1696,64,-32,-8
11000,888,216,-1688,65,-33,-9
11005,872,208,-1736,66,-35,-6
11010,888,208,-1680,65,-36,-6
11015,904,208,-1736,63,-37,-7
11020,888,216,-1744,63,-36,-9
11025,880,192,-1720,61,-34,-8
11030,864,200,-1704,59,-34,-6
11035,880,224,-1760,57,-35,-7
11040,872,216,-1760,55,-36,-5
11045,896,208,-1728,53,-36,-5
11050,888,184,-1736,51,-37,-7
11055,896,216,-1744,51,-37,-7
11060,904,216,-1752,50,-35,-4
11065,864,208,-1728,50,-32,-5
11070,880,224,-1768,53,-29,-6
11075,888,216,-1768,54,-24,-6
11080,888,216,-1760,53,-20,-6
11085,888,200,-1728,52,-17,-6
11090,1080,136,-1656,53,-17,-8
11095,816,240,-1760,53,-40,-15
11100,896,208,-1752,49,-17,-9
11105,864,224,-1744,49,5,-5
11110,864,224,-1720,46,12,-9
11115,872,208,-1712,43,14,-9
11120,880,240,-1712,44,14,-8
11125,864,216,-1704,45,15,-8
11130,872,176,-1752,44,14,-8
11135,880,208,-1752,43,15,-9
11140,888,200,-1680,41,15,-9
11145,888,200,-1680,39,14,-9
11150,856,240,-1704,38,14,-10
11155,848,216,-1688,36,12,-9
11160,864,224,-1680,35,9,-9
11165,896,200,-1680,36,6,-9
11170,872,200,-1672,40,4,-8
11175,888,216,-1712,46,-2,-7
11180,872,224,-1744,54,-5,-6
11185,872,208,-1744,59,-8,-5
11190,872,192,-1744,56,-8,-3
11195,888,200,-1776,50,-4,-4
11200,896,200,-1728,46,2,-6
11205,880,208,-1720,45,8,-7
11210,872,216,-1712,45,13,-7
11215,880,224,-1736,45,16,-8
11220,872,216,-1744,44,17,-8
11225,896,208,-1704,44,16,-10
11230,888,224,-1672,43,13,-8
11235,872,208,-1728,43,12,-8
11240,864,232,-1736,44,11,-8
11245,896,216,-1720,44,8,-8
11250,904,184,-1696,44,7,-8
11255,896,216,-1696,44,7,-9
11260,872,200,-1720,43,4,-9
11265,856,224,-1712,43,0,-11
11270,880,200,-1736,44,-1,-10
11275,920,208,-1720,43,-2,-11
11280,856,232,-1728,44,-4,-12
11285,840,224,-1728,45,-4,-10
11290,848,248,-1704,44,-4,-11
11295,864,232,-1712,47,-3,-11
11300,896,216,-1736,48,-2,-12
11305,880,208,-1760,47,-1,-12
11310,880,224,-1720,50,-1,-10
11315,896,224,-1720,52,0,-10
11320,864,216,-1696,54,0,-10
11325,888,216,-1736,57,0,-10
11330,880,208,-1728,58,2,-12
11335,872,224,-1728,59,1,-12
11340,872,200,-1728,58,0,-11
11345,864,208,-1712,57,2,-12
11350,856,216,-1728,55,0,-11
11355,864,208,-1704,53,1,-11
11360,888,200,-1720,50,1,-13
11365,896,224,-1720,46,1,-14
11370,872,200,-1720,46,1,-14
11375,880,192,-1712,47,0,-14
11380,912,192,-1736,47,-1,-12
11385,856,232,-1736,47,-1,-13
11390,880,192,-1736,47,-1,-12
11395,856,208,-1704,46,0,-11
11400,880,192,-1728,46,-1,-12
11405,904,208,-1704,46,-1,-13
11410,880,208,-1744,46,-2,-13
11415,888,192,-1720,44,1,-12
11420,872,208,-1752,44,2,-12
11425,848,232,-1736,45,2,-12
11430,904,192,-1768,43,3,-12
11435,856,240,-1728,43,5,-14
11440,856,240,-1776,42,10,-14
11445,872,224,-1744,43,12,-13
11450,864,216,-1736,42,15,-12
11455,864,208,-1728,42,18,-12
11460,880,216,-1728,43,21,-11
11465,880,208,-1760,44,23,-11
11470,880,216,-1744,46,26,-12
11475,856,216,-1736,47,27,-12
11480,888,192,-1720,48,29,-13
11485,864,208,-1712,48,32,-13
11490,856,200,-1736,49,32,-13
11495,864,208,-1728,50,32,-13
11500,880,216,-1728,49,31,-12
11505,856,200,-1744,47,30,-11
11510,872,216,-1712,44,29,-11
11515,880,200,-1696,43,27,-12
11520,896,224,-1696,41,23,-13
11525,864,232,-1688,40,20,-12
11530,856,200,-1688,41,15,-12
11535,872,248,-1696,41,12,-11
11540,880,216,-1712,40,7,-11
11545,896,192,-1688,41,2,-10
11550,904,216,-1696,42,-2,-10
11555,888,216,-1720,44,-8,-9
11560,880,216,-1712,44,-12,-9
11565,880,264,-1760,44,-17,-8
11570,872,224,-1688,44,-20,-7
11575,880,216,-1744,45,-24,-7
11580,888,192,-1720,45,-25,-4
11585,872,216,-1760,45,-27,-5
11590,896,184,-1736,47,-25,-5
11595,880,216,-1736,45,-24,-3
11600,856,232,-1728,44,-23,-6
11605,848,240,-1736,43,-22,-8
11610,864,200,-1728,40,-21,-7
11615,872,232,-1728,40,-21,-7
11620,848,232,-1720,41,-20,-7
11625,856,232,-1704,41,-20,-9
11630,856,224,-1728,41,-21,-8
11635,864,216,-1768,41,-24,-6
11640,872,216,-1736,40,-25,-7
11645,856,240,-1728,40,-26,-9
11650,864,208,-1736,40,-26,-7
11655,888,224,-1752,40,-28,-6
11660,864,216,-1720,41,-28,-5
11665,864,224,-1736,41,-29,-4
11670,864,224,-1680,42,-30,-4
11675,888,200,-1736,40,-29,-4
11680,872,216,-1720,40,-29,-3
11685,848,248,-1720,42,-30,-4
11690,960,200,-1696,43,-33,-3
11695,832,240,-1736,51,-54,-11
11700,864,232,-1752,42,-53,-4
11705,856,224,-1696,45,-40,-2
11710,856,208,-1712,44,-36,1
11715,832,216,-1728,44,-37,1
11720,856,200,-1720,47,-39,2
11725,856,232,-1728,48,-41,2
11730,864,272,-1704,49,-43,3
11735,856,216,-1744,49,-44,3
11740,864,232,-1720,47,-45,1
11745,880,200,-1704,45,-45,1
11750,792,256,-1712,47,-52,-7
11755,832,216,-1696,38,-61,-4
11760,840,208,-1720,38,-55,-1
11765,840,216,-1688,40,-55,0
11770,872,208,-1672,45,-59,2
11775,864,240,-1720,52,-64,2
11780,824,232,-1760,61,-70,4
11785,832,240,-1752,66,-71,4
11790,840,224,-1768,66,-69,8
11795,848,232,-1776,62,-65,7
11800,832,224,-1760,57,-62,3
11805,824,216,-1744,50,-63,2
11810,848,216,-1752,50,-44,1
11815,816,208,-1752,52,-30,2
11820,848,216,-1736,51,-26,0
11825,848,232,-1744,49,-26,0
11830,856,216,-1736,47,-26,0
11835,848,216,-1744,44,-25,3
11840,848,200,-1752,44,-21,2
11845,848,200,-1728,42,-17,1
11850,832,224,-1736,43,-12,0
11855,824,232,-1792,43,-8,-2
11860,848,208,-1752,43,-2,-2
11865,840,224,-1744,44,3,-3
11870,848,216,-1784,46,8,-3
11875,848,216,-1744,45,13,-2
11880,872,200,-1752,43,17,-4
11885,848,208,-1776,43,20,-6
11890,856,224,-1744,42,22,-5
11895,824,208,-1744,41,22,-6
11900,872,216,-1712,40,24,-6
11905,856,232,-1736,41,25,-5
11910,856,224,-1712,40,26,-6
11915,840,224,-1752,42,25,-6
11920,832,216,-1744,42,24,-6
11925,872,232,-1752,44,25,-6
11930,848,216,-1720,44,24,-7
11935,872,184,-1744,45,23,-6
11940,824,240,-1736,44,20,-4
11945,848,224,-1744,49,17,-5
11950,880,240,-1848,51,16,-5
11955,840,208,-1744,51,19,-4
11960,856,232,-1760,51,20,-3
11965,840,216,-1712,52,21,-3
11970,840,216,-1736,51,21,-4
11975,848,216,-1760,50,23,-4
11980,832,208,-1728,52,25,-6
11985,840,224,-1744,49,27,-4
11990,800,216,-1720,50,30,-5
11995,856,200,-1720,47,31,-7
12000,840,232,-1728,47,31,-9
12005,832,232,-1760,46,30,-7
12010,840,216,-1744,44,28,-8
12015,880,208,-1736,41,24,-7
12020,848,224,-1728,45,20,-8
12025,856,208,-1736,45,17,-5
12030,840,208,-1728,48,13,-6
12035,848,240,-1736,48,13,-4
12040,848,208,-1728,48,12,-6
12045,848,224,-1728,48,13,-4
12050,840,208,-1760,49,11,-4
12055,840,224,-1776,49,11,-5
12060,840,208,-1720,48,11,-5
12065,864,216,-1752,46,11,-6
12070,848,216,-1704,46,14,-5
12075,840,200,-1752,45,17,-8
12080,832,224,-1752,45,16,-8
12085,848,208,-1736,43,17,-8
12090,832,240,-1784,41,17,-9
12095,880,176,-1744,42,18,-9
12100,840,240,-1744,41,18,-10
12105,848,216,-1728,41,18,-8
12110,824,208,-1752,41,19,-8
12115,856,208,-1752,42,20,-7
12120,848,232,-1744,42,20,-5
12125,824,216,-1720,44,22,-6
12130,872,224,-1720,44,22,-5
12135,848,224,-1736,45,24,-7
12140,840,216,-1728,45,24,-6
12145,832,208,-1720,44,24,-5
12150,856,216,-1736,44,22,-5
12155,816,232,-1728,45,22,-7
12160,848,248,-1736,45,21,-8
12165,848,248,-1800,46,21,-5
12170,848,224,-1720,47,21,-6
12175,864,224,-1704,47,21,-6
12180,856,224,-1736,46,21,-4
12185,840,224,-1728,47,22,-4
12190,832,208,-1696,47,22,-2
12195,840,240,-1728,47,24,-1
12200,848,224,-1736,47,26,-2
12205,832,224,-1768,49,27,-1
12210,832,216,-1744,49,31,-1
12215,856,224,-1768,50,35,-1
12220,856,216,-1752,51,39,0
12225,856,216,-1752,51,43,-2
12230,856,208,-1776,52,47,-2
12235,880,216,-1752,51,51,-2
12240,864,208,-1744,51,57,0
12245,840,216,-1728,50,60,-2
12250,872,232,-1768,48,64,-3
12255,856,224,-1744,46,66,-4
12260,856,208,-1688,44,62,-3
12265,864,216,-1744,42,60,-2
12270,856,200,-1720,41,57,-1
12275,872,208,-1688,40,50,-1
12280,848,208,-1704,42,44,1
12285,856,224,-1696,41,39,1
12290,848,240,-1720,41,34,1
12295,848,232,-1744,43,30,1
12300,856,224,-1744,45,28,4
12305,840,232,-1712,48,27,5
12310,864,200,-1712,49,26,4
12315,872,200,-1728,53,25,3
12320,856,232,-1744,54,25,4
12325,856,216,-1696,56,23,3
12330,872,232,-1712,56,22,3
12335,864,200,-1704,56,22,2
12340,856,216,-1712,55,22,-1
12345,880,216,-1728,52,21,-2
12350,856,224,-1704,50,21,-3
12355,848,232,-1712,46,19,-3
12360,848,232,-1720,46,16,-5
12365,856,232,-1704,45,13,-5
12370,856,216,-1688,47,6,-2
12375,856,224,-1696,52,1,0
12380,864,200,-1720,59,-4,2
12385,856,208,-1712,65,-8,1
12390,848,224,-1752,70,-10,2
12395,864,216,-1776,69,-10,3
12400,856,224,-1736,63,-8,2
12405,848,184,-1744,56,-2,1
12410,864,200,-1744,54,4,-1
12415,864,216,-1704,51,7,-3
12420,840,208,-1760,50,11,-4
12425,840,208,-1736,49,11,-6
12430,864,232,-1728,50,10,-6
12435,856,208,-1728,51,9,-6
12440,856,248,-1728,54,10,-6
12445,872,224,-1752,56,9,-6
12450,856,240,-1760,57,6,-7
12455,856,232,-1736,56,6,-7
12460,872,208,-1736,56,6,-8
12465,856,200,-1720,56,3,-8
12470,848,232,-1712,56,1,-7
12475,856,224,-1736,57,0,-6
12480,832,208,-1712,58,0,-5
12485,824,224,-1752,58,-1,-6
12490,840,216,-1704,58,-2,-7
12495,872,176,-1680,58,-2,-6
12500,832,224,-1720,58,-3,-7
12505,872,200,-1744,58,-3,-5
12510,840,232,-1720,60,-2,-5
12515,848,200,-1704,61,-3,-5
12520,864,200,-1736,62,-4,-5
12525,856,208,-1720,62,-4,-6
12530,856,208,-1744,60,-2,-7
12535,864,192,-1720,59,-1,-6
12540,848,232,-1744,57,0,-8
12545,872,200,-1752,57,2,-7
12550,856,192,-1736,55,1,-6
12555,856,232,-1736,55,1,-7
12560,840,232,-1736,56,3,-6
12565,840,208,-1696,55,1,-7
12570,848,216,-1752,55,0,-6
12575,848,200,-1744,55,1,-7
12580,840,232,-1720,53,2,-5
12585,856,208,-1736,53,5,-6
12590,856,224,-1736,55,6,-7
12595,848,216,-1744,55,7,-7
12600,872,192,-1728,51,9,-8
12605,864,200,-1728,50,14,-8
12610,848,224,-1720,46,16,-8
12615,872,200,-1744,47,18,-8
12620,864,200,-1728,47,19,-8
12625,848,232,-1728,48,18,-7
12630,856,224,-1760,50,19,-7
12635,840,224,-1728,52,20,-5
12640,848,224,-1752,54,21,-6
12645,848,224,-1736,55,24,-7
12650,832,192,-1736,54,27,-8
12655,848,208,-1768,53,28,-7
12660,864,192,-1760,51,30,-8
12665,864,232,-1712,53,30,-7
12670,872,208,-1704,49,30,-9
12675,840,232,-1720,48,30,-7
12680,896,192,-1712,48,29,-8
12685,856,208,-1720,48,27,-7
12690,864,184,-1728,49,27,-7
12695,880,208,-1728,51,23,-8
12700,848,248,-1712,51,21,-7
12705,848,208,-1720,52,19,-7
12710,864,200,-1712,52,17,-8
12715,840,192,-1728,53,14,-7
12720,848,216,-1712,53,12,-7
12725,856,192,-1696,53,9,-6
12730,864,208,-1712,55,6,-7
12735,856,192,-1752,55,5,-9
12740,856,208,-1728,53,5,-7
12745,832,224,-1728,52,5,-8
12750,856,216,-1712,52,6,-9
12755,840,208,-1720,50,5,-9
12760,880,192,-1744,51,4,-9
12765,856,232,-1760,51,4,-7
12770,856,224,-1720,52,5,-8
12775,856,208,-1736,53,4,-6
12780,840,184,-1712,54,4,-8
12785,848,232,-1720,55,4,-8
12790,872,224,-1744,54,3,-6
12795,840,232,-1712,53,2,-8
12800,864,224,-1720,54,2,-9
12805,848,216,-1776,54,3,-7
12810,840,216,-1704,54,4,-7
12815,856,200,-1728,55,5,-7
12820,880,216,-1704,56,6,-7
12825,864,224,-1768,57,6,-6
12830,856,208,-1744,58,7,-7
12835,864,224,-1728,57,8,-8
12840,848,216,-1728,57,8,-7
12845,848,216,-1728,55,9,-8
12850,856,224,-1712,55,9,-7
12855,856,224,-1736,55,9,-9
12860,864,208,-1728,56,8,-7
12865,840,224,-1736,57,7,-5
12870,848,192,-1688,58,7,-5
12875,864,192,-1696,57,6,-5
12880,880,224,-1728,56,5,-5
12885,856,216,-1712,56,5,-5
12890,880,192,-1744,55,3,-7
12895,840,208,-1720,55,4,-8
12900,864,216,-1728,54,4,-6
12905,840,216,-1744,57,3,-7
12910,864,200,-1736,58,4,-6
12915,856,184,-1736,59,7,-7
12920,856,192,-1736,58,10,-6
12925,872,208,-1720,61,12,-7
12930,848,192,-1736,61,15,-8
12935,856,200,-1752,63,17,-6
12940,856,208,-1744,66,20,-6
12945,864,192,-1736,66,20,-8
12950,856,184,-1736,66,21,-8
12955,856,224,-1696,64,22,-10
12960,840,208,-1744,60,26,-10
12965,832,216,-1712,57,28,-12
12970,856,200,-1680,54,28,-14
12975,840,200,-1696,54,27,-12
12980,848,216,-1720,57,26,-12
12985,872,192,-1728,62,23,-10
12990,880,216,-1728,69,19,-10
12995,872,216,-1752,74,18,-8
13000,880,192,-1752,78,20,-10
13005,880,200,-1776,74,23,-10
13010,864,200,-1808,69,26,-9
13015,840,208,-1768,60,35,-11
13020,840,200,-1752,55,43,-13
13025,832,192,-1744,52,49,-15
13030,856,176,-1728,50,50,-14
13035,848,208,-1720,46,50,-15
13040,864,208,-1712,47,50,-13
13045,864,200,-1728,47,48,-14
13050,848,208,-1728,47,48,-15
13055,856,208,-1712,48,46,-15
13060,856,200,-1704,50,44,-13
13065,832,208,-1720,50,42,-12
13070,848,224,-1680,52,41,-14
13075,856,200,-1704,51,40,-13
13080,848,216,-1728,52,38,-12
13085,864,200,-1720,52,34,-11
13090,880,232,-1696,53,33,-11
13095,880,200,-1728,53,31,-10
13100,864,208,-1736,54,30,-10
13105,864,216,-1696,53,26,-11
13110,872,208,-1704,54,24,-11
13115,888,208,-1744,54,24,-11
13120,864,224,-1728,55,22,-9
13125,856,184,-1752,56,22,-9
13130,864,224,-1736,59,20,-7
13135,880,192,-1704,59,19,-6
13140,856,192,-1712,61,19,-5
13145,856,192,-1728,61,19,-6
13150,840,216,-1728,62,20,-6
13155,880,208,-1712,60,21,-6
13160,880,208,-1728,60,20,-6
13165,840,216,-1744,60,20,-6
13170,848,184,-1728,59,21,-5
13175,856,208,-1712,58,21,-5
13180,872,184,-1736,58,21,-6
13185,872,184,-1744,59,24,-5
13190,896,200,-1744,60,23,-5
13195,840,208,-1744,60,23,-4
13200,816,136,-1744,64,23,-5
13205,888,192,-1744,65,25,-5
13210,856,200,-1720,64,25,-3
13215,856,200,-1744,65,27,-3
13220,888,176,-1752,63,28,-5
13225,856,216,-1736,61,30,-4
13230,872,208,-1712,60,32,-3
13235,888,192,-1720,59,33,-6
13240,840,216,-1720,59,32,-7
13245,896,192,-1728,60,33,-6
13250,880,200,-1720,62,32,-6
13255,856,200,-1768,62,32,-5
13260,872,200,-1728,62,32,-7
13265,864,168,-1704,61,34,-6
13270,896,192,-1712,60,34,-7
13275,880,184,-1760,59,35,-6
13280,872,200,-1728,58,37,-8
13285,880,184,-1744,57,38,-10
13290,920,168,-1712,58,39,-9
13295,840,216,-1720,56,40,-9
13300,872,200,-1768,58,39,-9
13305,880,176,-1744,58,40,-10
13310,864,192,-1744,59,40,-11
13315,864,208,-1720,58,41,-12
13320,880,192,-1760,55,41,-13
13325,880,224,-1760,55,40,-12
13330,888,224,-1728,54,41,-11
13335,872,208,-1696,52,40,-11
13340,888,208,-1744,50,39,-14
13345,856,200,-1720,51,41,-14
13350,888,208,-1712,51,42,-15
13355,864,216,-1736,50,42,-13
13360,896,216,-1720,50,39,-13
13365,856,208,-1704,51,37,-13
13370,872,192,-1744,51,37,-13
13375,888,200,-1696,51,35,-13
13380,872,200,-1728,51,35,-13
13385,880,192,-1704,52,33,-14
13390,864,192,-1688,53,32,-12
13395,896,200,-1696,54,30,-9
13400,880,216,-1688,54,27,-9
13405,872,192,-1704,55,25,-10
13410,912,200,-1720,56,23,-10
13415,880,216,-1696,59,20,-11
13420,880,208,-1696,58,18,-9
13425,864,216,-1696,57,16,-10
13430,872,200,-1704,56,16,-8
13435,880,224,-1696,56,15,-8
13440,896,192,-1704,57,12,-9
13445,872,192,-1704,57,11,-7
13450,880,184,-1696,58,8,-7
13455,912,208,-1720,59,6,-8
13460,864,208,-1704,59,5,-7
13465,880,192,-1760,62,3,-8
13470,880,200,-1704,62,3,-6
13475,872,192,-1728,61,2,-6
13480,864,200,-1728,61,2,-6
13485,880,208,-1728,60,2,-7
13490,888,192,-1744,60,3,-7
13495,864,184,-1744,59,4,-7
13500,896,216,-1728,60,7,-6
13505,896,192,-1744,58,7,-5
13510,872,200,-1728,56,8,-6
13515,888,208,-1744,58,8,-5
13520,864,200,-1728,57,7,-6
13525,840,208,-1744,57,6,-8
13530,864,192,-1736,58,6,-7
13535,872,176,-1728,58,8,-7
13540,888,200,-1744,56,10,-8
13545,864,176,-1760,54,11,-8
13550,872,184,-1728,51,12,-9
13555,872,208,-1712,50,12,-9
13560,872,216,-1720,50,15,-9
13565,872,208,-1728,51,13,-9
13570,888,184,-1712,54,13,-8
13575,888,200,-1704,55,12,-8
13580,864,200,-1736,57,13,-6
13585,880,192,-1712,56,16,-6
13590,872,208,-1728,56,17,-8
13595,864,192,-1704,54,22,-8
13600,880,176,-1720,51,24,-9
13605,872,224,-1696,48,23,-11
13610,896,184,-1704,46,21,-10
13615,896,184,-1696,48,19,-13
13620,872,192,-1704,51,15,-10
13625,888,184,-1712,58,9,-8
13630,856,192,-1712,64,4,-7
13635,880,192,-1720,69,2,-7
13640,896,200,-1776,68,1,-5
13645,856,184,-1768,61,3,-8
13650,880,184,-1720,53,9,-7
13655,872,192,-1704,53,14,-10
13660,888,192,-1720,50,16,-10
13665,888,200,-1752,50,17,-11
13670,872,192,-1728,50,16,-11
13675,872,184,-1752,50,13,-13
13680,864,200,-1736,49,15,-13
13685,880,208,-1720,51,13,-12
13690,872,216,-1720,51,12,-13
13695,872,200,-1696,51,10,-12
13700,904,200,-1744,52,9,-9
13705,880,192,-1720,54,8,-10
13710,888,184,-1688,53,6,-9
13715,872,192,-1720,54,5,-11
13720,872,160,-1704,53,5,-10
13725,872,192,-1744,54,6,-12
13730,888,208,-1720,53,5,-12
13735,864,208,-1720,53,4,-11
13740,880,184,-1704,54,1,-8
13745,864,168,-1720,56,1,-10
13750,872,192,-1680,57,-2,-9
13755,864,192,-1736,58,-3,-9
13760,872,200,-1744,58,-5,-10
13765,872,192,-1704,58,-6,-9
13770,888,192,-1720,57,-8,-9
13775,880,184,-1744,56,-12,-9
13780,896,200,-1720,57,-12,-9
13785,880,184,-1736,57,-15,-9
13790,896,176,-1760,56,-15,-9
13795,888,208,-1720,57,-16,-9
13800,880,160,-1672,59,-17,-8
13805,872,184,-1728,60,-18,-8
13810,872,200,-1712,60,-18,-10
13815,872,184,-1728,60,-20,-9
13820,848,200,-1768,59,-18,-8
13825,864,192,-1712,60,-19,-8
13830,840,192,-1704,60,-19,-8
13835,872,192,-1720,61,-18,-7
13840,872,192,-1744,60,-19,-7
13845,896,168,-1728,60,-19,-8
13850,856,200,-1728,62,-18,-8
13855,888,192,-1744,61,-15,-8
13860,864,176,-1744,59,-14,-9
13865,856,176,-1736,56,-12,-8
13870,864,192,-1752,56,-9,-9
13875,872,208,-1720,55,-8,-10
13880,864,192,-1736,53,-6,-11
13885,888,184,-1728,54,-3,-12
13890,840,200,-1728,54,-1,-11
13895,872,184,-1752,52,2,-10
13900,888,192,-1744,52,4,-12
13905,872,184,-1752,50,5,-12
13910,848,168,-1728,50,8,-10
13915,880,216,-1720,48,9,-10
13920,864,208,-1776,50,13,-11
13925,880,184,-1752,50,13,-13
13930,880,184,-1728,48,15,-12
13935,864,200,-1736,47,15,-12
13940,880,200,-1704,48,15,-12
13945,848,200,-1704,49,16,-10
13950,872,224,-1760,48,17,-12
13955,872,184,-1720,49,17,-11
13960,872,208,-1728,47,17,-11
13965,880,176,-1704,47,17,-11
13970,872,208,-1704,46,16,-11
13975,872,168,-1704,46,16,-11
13980,872,168,-1736,46,17,-11
13985,888,176,-1728,45,16,-12
13990,864,184,-1728,46,17,-11
13995,872,184,-1728,46,18,-11
14000,888,200,-1736,47,18,-13
14005,864,192,-1728,49,17,-10
14010,880,176,-1744,48,17,-10
14015,904,160,-1720,49,18,-10
14020,880,168,-1744,50,18,-10
14025,872,192,-1720,51,16,-10
14030,856,176,-1696,50,17,-8
14035,872,192,-1720,51,16,-9
14040,888,160,-1744,50,16,-9
14045,896,184,-1728,50,15,-7
14050,864,168,-1736,50,14,-8
14055,880,184,-1736,49,14,-7
14060,840,216,-1712,47,15,-8
14065,864,200,-1752,49,16,-7
14070,880,200,-1696,50,16,-7
14075,880,200,-1744,50,14,-8
14080,872,192,-1760,51,14,-7
14085,872,200,-1720,51,14,-8
14090,880,200,-1704,50,12,-9
14095,880,192,-1736,52,10,-7
14100,888,176,-1736,50,9,-8
14105,872,192,-1704,51,9,-9
14110,856,192,-1736,50,8,-7
14115,872,168,-1736,49,9,-8
14120,856,208,-1696,50,9,-8
14125,856,192,-1736,48,9,-9
14130,872,200,-1744,47,7,-9
14135,864,192,-1712,48,7,-9
14140,872,184,-1720,48,7,-8
14145,904,200,-1728,48,7,-8
14150,864,200,-1712,49,7,-6
14155,848,184,-1712,51,6,-7
14160,872,200,-1752,53,6,-7
14165,864,184,-1720,52,7,-8
14170,880,208,-1744,49,8,-8
14175,880,168,-1728,50,9,-7
14180,888,192,-1728,49,8,-7
14185,832,216,-1728,48,9,-8
14190,856,168,-1712,46,9,-8
14195,872,184,-1712,45,9,-7
14200,880,184,-1736,46,6,-9
14205,856,184,-1712,46,6,-10
14210,848,200,-1696,46,6,-9
14215,888,200,-1736,45,6,-10
14220,880,168,-1712,46,5,-8
14225,856,192,-1720,45,4,-8
14230,880,184,-1720,45,4,-8
14235,864,184,-1728,46,3,-8
14240,848,208,-1728,48,3,-7
14245,856,200,-1728,48,0,-5
14250,896,176,-1744,50,-1,-5
14255,864,200,-1712,51,-3,-5
14260,864,184,-1720,53,-6,-4
14265,920,168,-1656,53,-9,-8
14270,816,224,-1752,48,-32,-11
14275,864,192,-1696,45,-21,-7
14280,864,208,-1704,48,-11,-5
14285,856,192,-1672,45,-7,-4
14290,872,200,-1672,45,-12,-3
14295,848,208,-1680,51,-18,-2
14300,872,176,-1704,60,-25,1
14305,896,176,-1712,70,-35,4
14310,880,192,-1712,78,-45,7
14315,792,200,-1776,84,-70,-2
14320,800,200,-1768,70,-77,5
14325,832,192,-1776,69,-60,8
14330,824,200,-1712,66,-48,11
14335,848,200,-1720,64,-40,10
14340,864,216,-1688,63,-41,12
14345,856,216,-1688,64,-46,15
14350,960,152,-1704,65,-54,15
14355,864,200,-1720,70,-76,7
14360,816,216,-1736,67,-86,9
14365,808,200,-1760,73,-79,14
14370,848,200,-1728,73,-74,18
14375,840,224,-1728,71,-70,20
14380,856,184,-1712,69,-69,22
14385,864,160,-1728,68,-70,24
14390,864,168,-1736,69,-72,23
14395,824,192,-1744,68,-80,18
14400,856,216,-1792,63,-84,13
14405,832,192,-1744,63,-70,13
14410,848,176,-1784,62,-55,10
14415,864,208,-1776,59,-43,7
14420,856,208,-1768,58,-30,1
14425,864,192,-1736,59,-24,-1
14430,848,200,-1776,57,-19,-3
14435,848,208,-1752,57,-20,-5
14440,848,184,-1776,55,-18,-4
14445,832,184,-1752,53,-17,-6
14450,840,184,-1728,53,-16,-7
14455,848,184,-1736,51,-14,-6
14460,832,168,-1752,51,-13,-7
14465,856,160,-1752,50,-10,-6
14470,824,200,-1768,46,-8,-6
14475,840,192,-1712,45,-5,-7
14480,848,208,-1752,44,-3,-8
14485,832,168,-1752,44,1,-9
14490,832,168,-1752,41,5,-8
14495,856,168,-1720,39,7,-8
14500,824,160,-1720,39,7,-10
14505,824,192,-1752,39,5,-9
14510,840,176,-1720,41,7,-9
14515,864,168,-1728,42,6,-7
14520,824,176,-1744,43,8,-8
14525,832,160,-1744,44,8,-8
14530,840,192,-1728,43,10,-7
14535,848,176,-1752,44,12,-8
14540,848,184,-1736,44,12,-7
14545,840,192,-1728,45,12,-8
14550,840,192,-1712,45,12,-7
14555,824,216,-1760,46,10,-6
14560,832,184,-1744,46,9,-7
14565,848,200,-1736,45,7,-7
14570,856,184,-1744,46,6,-6
14575,848,168,-1736,46,6,-5
14580,832,192,-1712,46,7,-5
14585,848,200,-1736,48,7,-4
14590,840,184,-1736,50,10,-4
14595,856,192,-1752,48,12,-5
14600,856,184,-1728,49,12,-4
14605,824,176,-1736,50,13,-7
14610,824,216,-1736,49,14,-7
14615,840,216,-1728,49,13,-7
14620,864,160,-1728,50,13,-6
14625,816,224,-1728,50,13,-5
14630,856,176,-1752,51,13,-7
14635,856,168,-1760,53,14,-4
14640,824,192,-1720,52,13,-4
14645,840,184,-1728,55,11,-4
14650,840,176,-1736,53,11,-4
14655,864,160,-1720,52,10,-4
14660,808,200,-1728,51,8,-6
14665,872,176,-1736,49,5,-6
14670,856,168,-1744,50,5,-6
14675,840,200,-1728,50,3,-7
14680,872,176,-1720,50,1,-7
14685,848,176,-1728,51,-2,-9
14690,848,200,-1752,51,-3,-8
14695,848,208,-1728,51,-2,-7
14700,824,184,-1784,50,-2,-8
14705,816,192,-1752,50,-3,-6
14710,848,184,-1712,51,-4,-9
14715,840,176,-1736,51,-5,-9
14720,840,192,-1752,53,-6,-7
14725,816,192,-1728,55,-9,-6
14730,856,208,-1728,56,-12,-5
14735,848,176,-1728,57,-13,-4
14740,848,184,-1744,57,-15,-4
14745,832,184,-1728,57,-16,-2
14750,840,200,-1736,56,-17,-2
14755,840,184,-1744,56,-18,-3
14760,824,208,-1736,56,-18,-2
14765,832,192,-1720,54,-18,-1
14770,816,200,-1752,55,-20,0
14775,816,192,-1736,54,-19,-3
14780,848,176,-1576,52,-20,-4
14785,840,184,-1736,53,-20,-3
14790,848,176,-1736,53,-19,-4
14795,840,152,-1752,52,-19,-6
14800,832,176,-1736,51,-17,-7
14805,824,248,-1760,51,-16,-7
14810,832,160,-1752,50,-16,-6
14815,824,192,-1752,50,-14,-7
14820,832,184,-1744,49,-15,-6
14825,808,192,-1760,50,-15,-5
14830,832,192,-1744,50,-16,-6
14835,864,152,-1720,48,-15,-5
14840,824,176,-1728,47,-15,-6
14845,840,184,-1760,47,-15,-6
14850,832,176,-1744,47,-15,-8
14855,832,168,-1768,46,-14,-5
14860,824,176,-1736,45,-11,-6
14865,840,184,-1752,42,-10,-8
14870,840,192,-1752,41,-8,-8
14875,824,192,-1752,42,-6,-8
14880,824,176,-1744,44,-6,-9
14885,848,184,-1760,45,-2,-9
14890,792,184,-1736,44,-2,-8
14895,832,184,-1776,45,-1,-8
14900,824,192,-1760,44,0,-8
14905,848,176,-1744,44,2,-10
14910,816,184,-1752,42,3,-10
14915,840,168,-1728,39,4,-10
14920,840,184,-1712,39,4,-8
14925,832,184,-1728,38,3,-10
14930,840,176,-1768,40,2,-9
14935,832,192,-1760,42,1,-9
14940,832,184,-1760,44,0,-7
14945,816,208,-1784,46,-1,-7
14950,816,176,-1736,48,-1,-7
14955,832,184,-1728,51,-1,-4
14960,816,176,-1760,51,-1,-2
14965,848,168,-1744,54,-1,-6
14970,824,192,-1720,53,1,-5
14975,832,168,-1752,53,2,-5
14980,824,192,-1728,52,5,-6
14985,840,184,-1752,48,6,-6
14990,832,184,-1744,45,6,-8
14995,832,152,-1744,42,6,-8
