timestamp,accel_x,accel_y,accel_z,gyro_x,gyro_y,gyro_z
0,136,-2056,-200,-19,51,-3
5,120,-2040,-224,-18,53,-5
10,128,-2040,-208,-18,55,-4
15,128,-2032,-232,-18,56,-6
20,128,-2024,-232,-18,58,-4
25,112,-2032,-200,-18,56,-6
30,112,-2048,-240,-18,57,-4
35,104,-2024,-240,-19,57,-6
40,112,-2064,-224,-20,56,-4
45,128,-2024,-224,-21,57,-9
50,96,-2024,-216,-22,56,-8
55,112,-2048,-216,-22,56,-12
60,112,-2048,-224,-25,56,-12
65,120,-2064,-216,-27,57,-16
70,88,-2024,-224,-28,55,-15
75,120,-2008,-240,-34,54,-21
80,104,-2024,-192,-39,54,-21
85,112,-2016,-248,-44,53,-26
90,96,-2040,-224,-48,53,-26
95,104,-2024,-240,-55,52,-30
100,104,-2032,-200,-60,51,-29
105,96,-2024,-240,-63,53,-33
110,88,-2016,-240,-68,51,-32
115,72,-2000,-272,-73,50,-35
120,104,-2024,-280,-79,50,-32
125,80,-2008,-264,-81,50,-34
130,64,-2016,-240,-88,48,-31
135,56,-2008,-232,-97,46,-31
140,80,-2008,-224,-104,45,-27
145,72,-2024,-232,-109,42,-28
150,72,-2032,-240,-115,39,-24
155,56,-2048,-232,-117,37,-27
160,48,-2040,-192,-116,35,-26
165,48,-2032,-184,-112,36,-28
170,64,-2056,-168,-106,37,-27
175,40,-2056,-192,-100,39,-31
180,56,-2048,-144,-90,39,-33
185,56,-2072,-128,-78,39,-37
190,64,-2064,-168,-64,39,-42
195,48,-2016,-152,-47,39,-49
200,48,-2056,-144,-36,42,-50
205,72,-2056,-176,-27,46,-57
210,64,-2024,-176,-19,51,-59
215,72,-2024,-152,-15,57,-62
220,96,-2032,-152,-10,64,-61
225,88,-2000,-152,-5,70,-61
230,80,-2032,-168,-3,76,-58
235,104,-2000,-168,-2,79,-57
240,112,-2016,-208,-3,78,-55
245,104,-1992,-216,-10,78,-59
250,104,-2016,-200,-23,78,-60
255,80,-1992,-240,-40,74,-66
260,96,-2008,-232,-55,70,-69
265,88,-1992,-248,-73,69,-74
270,88,-2000,-272,-91,67,-76
275,72,-2000,-272,-112,65,-81
280,72,-1992,-272,-128,63,-82
285,80,-2032,-248,-141,63,-86
290,80,-2000,-232,-153,60,-90
295,64,-2000,-248,-160,58,-96
300,72,-2008,-256,-165,55,-97
305,80,-2016,-264,-170,51,-101
310,112,-2016,-288,-176,48,-105
315,120,-2008,-272,-180,45,-108
320,88,-2000,-256,-184,42,-113
325,104,-1992,-264,-189,38,-117
330,128,-2008,-264,-191,34,-119
335,144,-2008,-216,-190,32,-120
340,136,-2008,-240,-188,32,-119
345,152,-2008,-256,-186,32,-119
350,168,-2008,-216,-186,31,-115
355,184,-2000,-200,-185,33,-111
360,176,-2024,-216,-183,33,-108
365,192,-2032,-224,-180,31,-104
370,176,-2032,-176,-177,30,-101
375,224,-2072,-176,-174,29,-99
380,216,-2064,-184,-173,30,-97
385,232,-2072,-200,-172,33,-94
390,248,-2080,-176,-170,36,-91
395,248,-2072,-184,-167,38,-90
400,248,-2072,-192,-164,43,-92
405,256,-2088,-200,-160,46,-94
410,256,-2056,-224,-160,50,-98
415,280,-2056,-224,-162,55,-100
420,280,-2048,-256,-164,59,-108
425,312,-2056,-272,-168,67,-110
430,288,-2064,-288,-175,74,-119
435,296,-2040,-240,-182,81,-124
440,320,-2064,-256,-184,86,-132
445,296,-2064,-264,-188,89,-138
450,280,-2056,-232,-193,92,-147
455,272,-2080,-248,-193,90,-149
460,288,-2064,-216,-195,88,-155
465,280,-2072,-256,-197,85,-157
470,232,-2080,-224,-198,78,-164
475,224,-2056,-208,-199,74,-164
480,184,-2048,-232,-197,67,-168
485,208,-2064,-232,-193,60,-168
490,176,-2064,-208,-186,51,-169
495,152,-2056,-224,-183,41,-167
500,144,-2032,-216,-177,32,-168
505,136,-2048,-184,-170,22,-163
510,104,-2040,-208,-165,10,-165
515,104,-2032,-192,-158,0,-161
520,64,-2040,-176,-149,-13,-161
525,64,-2008,-176,-143,-25,-154
530,56,-2024,-192,-135,-39,-152
535,56,-2008,-168,-133,-51,-147
540,-16,-2032,-224,-129,-68,-148
545,-480,-2048,-320,-129,-90,-138
550,-200,-2056,-312,-140,-139,-118
555,-200,-2016,-256,-146,-190,-104
560,48,-2016,-288,-141,-235,-96
565,-56,-1984,-248,-155,-251,-87
570,144,-2024,-200,-187,-258,-68
575,72,-1976,-232,-215,-264,-53
580,80,-2024,-216,-214,-264,-55
585,152,-2016,-208,-207,-274,-54
590,168,-2016,-208,-200,-283,-57
595,160,-2008,-216,-197,-298,-57
600,200,-2000,-200,-195,-316,-63
605,248,-2056,-176,-197,-331,-64
610,216,-1992,-200,-197,-340,-67
615,232,-2000,-232,-197,-345,-70
620,224,-1984,-200,-198,-347,-74
625,232,-1984,-200,-198,-347,-78
630,232,-2000,-184,-199,-344,-86
635,216,-2008,-192,-197,-339,-90
640,200,-2024,-216,-194,-339,-96
645,192,-2008,-176,-186,-345,-99
650,168,-2000,-208,-175,-348,-103
655,184,-1976,-216,-166,-351,-103
660,176,-2000,-232,-159,-350,-106
665,192,-2016,-216,-153,-349,-104
670,216,-2000,-224,-150,-346,-104
675,200,-2032,-232,-150,-340,-104
680,168,-2016,-208,-154,-331,-105
685,160,-2048,-200,-157,-324,-102
690,144,-2048,-192,-158,-322,-106
695,144,-2032,-184,-149,-326,-104
700,136,-2032,-240,-138,-331,-107
705,144,-2016,-224,-131,-335,-105
710,160,-2016,-200,-127,-338,-105
715,112,-2016,-216,-126,-342,-103
720,120,-2008,-160,-124,-344,-100
725,168,-2016,-184,-124,-348,-96
730,144,-1976,-176,-121,-353,-94
735,152,-2016,-192,-109,-356,-90
740,176,-1992,-168,-102,-360,-87
745,168,-1992,-144,-97,-363,-85
750,160,-1992,-144,-98,-365,-83
755,152,-1968,-144,-102,-369,-78
760,128,-2000,-160,-102,-372,-76
765,136,-2032,-168,-101,-378,-73
770,128,-2008,-128,-101,-387,-68
775,144,-2008,-112,-106,-396,-60
780,152,-2000,-160,-107,-399,-56
785,136,-2000,-88,-108,-403,-48
790,136,-2024,-112,-105,-408,-42
795,160,-2032,-128,-95,-414,-37
800,176,-2000,-104,-87,-415,-31
805,160,-2032,-88,-76,-416,-27
810,240,-2032,-96,-62,-416,-26
815,208,-2000,-120,-52,-417,-26
820,208,-1992,-72,-46,-419,-24
825,240,-2024,-80,-41,-423,-24
830,224,-2024,-88,-36,-426,-27
835,192,-2024,-80,-27,-431,-35
840,200,-2024,-104,-20,-434,-41
845,232,-2016,-96,-18,-438,-45
850,232,-2032,-88,-15,-442,-46
855,216,-2032,-88,-12,-445,-47
860,216,-2016,-96,-16,-448,-44
865,232,-2024,-144,-25,-458,-43
870,224,-2032,-112,-40,-466,-42
875,248,-2040,-80,-49,-472,-41
880,240,-2032,-128,-56,-478,-36
885,224,-2000,-104,-64,-484,-35
890,216,-1992,-112,-62,-492,-33
895,264,-1992,-120,-58,-499,-36
900,256,-1984,-136,-58,-503,-34
905,272,-1992,-120,-62,-504,-31
910,280,-1968,-128,-67,-503,-21
915,304,-2008,-120,-69,-500,-16
920,296,-2008,-112,-73,-497,-7
925,304,-2048,-112,-73,-497,-3
930,312,-2072,-96,-75,-499,3
935,296,-2096,-48,-76,-503,5
940,312,-2152,-40,-67,-507,10
945,312,-2144,0,-60,-508,8
950,320,-2160,-16,-53,-506,11
955,320,-2200,-16,-45,-509,10
960,304,-2208,48,-37,-509,13
965,296,-2232,48,-18,-509,11
970,312,-2240,16,-3,-508,15
975,336,-2256,72,15,-505,15
980,360,-2248,64,36,-501,20
985,368,-2240,88,56,-497,20
990,360,-2232,88,80,-495,26
995,416,-2240,72,100,-493,27
1000,424,-2256,80,113,-489,30
1005,440,-2296,-16,128,-480,26
1010,480,-2312,-128,131,-461,20
1015,456,-2336,-248,128,-439,1
1020,480,-2336,-432,111,-414,-22
1025,504,-2400,-552,77,-384,-58
1030,544,-2472,-648,37,-351,-97
1035,600,-2544,-680,-10,-318,-148
1040,664,-2592,-664,-64,-283,-199
1045,720,-2696,-624,-119,-245,-259
1050,744,-2728,-520,-155,-203,-312
1055,792,-2768,-360,-174,-154,-372
1060,816,-2760,-184,-160,-90,-400
1065,864,-2736,-32,-111,-37,-411
1070,824,-2672,32,-39,9,-402
1075,776,-2624,88,37,37,-387
1080,672,-2560,136,114,41,-362
1085,584,-2504,112,180,20,-336
1090,432,-2392,96,237,-14,-298
1095,272,-2280,64,285,-62,-252
1100,136,-2208,-8,326,-118,-194
1105,40,-2096,-176,357,-193,-122
1110,-24,-2016,-328,380,-254,-60
1115,-88,-1896,-472,379,-308,-6
1120,-104,-1840,-576,356,-352,44
1125,-128,-1784,-704,306,-393,81
1130,-200,-1720,-768,242,-430,109
1135,-216,-1688,-816,173,-467,121
1140,-256,-1696,-872,102,-506,132
1145,-280,-1656,-904,34,-548,136
1150,-320,-1680,-888,-24,-589,139
1155,-312,-1680,-880,-74,-637,134
1160,-368,-1664,-824,-102,-673,126
1165,-416,-1704,-728,-122,-704,112
1170,-448,-1712,-712,-133,-726,98
1175,-448,-1712,-712,-133,-738,82
1180,-432,-1728,-696,-120,-732,75
1185,-408,-1752,-800,-94,-710,74
1190,-312,-1752,-816,-69,-674,83
1195,-264,-1736,-800,-49,-629,95
1200,-152,-1776,-824,-35,-575,108
1205,-64,-1776,-784,-32,-532,117
1210,72,-1864,-784,-39,-493,132
1215,136,-1904,-744,-53,-466,148
1220,208,-1928,-704,-73,-446,172
1225,288,-1992,-616,-90,-427,198
1230,312,-2016,-576,-101,-404,225
1235,368,-2064,-504,-107,-378,251
1240,408,-2112,-456,-103,-356,271
1245,416,-2144,-440,-98,-336,294
1250,416,-2168,-440,-88,-311,314
1255,432,-2184,-424,-70,-284,335
1260,424,-2224,-424,-39,-255,353
1265,416,-2232,-432,-3,-216,373
1270,400,-2192,-400,40,-177,391
1275,376,-2192,-400,78,-135,408
1280,304,-2144,-416,121,-96,426
1285,296,-2112,-440,161,-60,441
1290,232,-2072,-480,189,-26,451
1295,168,-2032,-488,207,14,462
1300,160,-2008,-488,214,40,467
1305,104,-1968,-520,214,62,473
1310,32,-1896,-528,218,82,478
1315,-24,-1872,-504,229,102,489
1320,-24,-1840,-544,238,118,500
1325,-40,-1840,-504,243,130,512
1330,-80,-1808,-496,260,142,518
1335,-88,-1752,-520,277,157,523
1340,-96,-1704,-480,292,173,522
1345,-112,-1656,-504,302,192,520
1350,-160,-1664,-536,287,205,512
1355,-160,-1616,-600,260,219,506
1360,-160,-1592,-464,209,233,491
1365,-200,-1544,-424,193,249,474
1370,-208,-1512,-432,197,260,454
1375,-216,-1512,-416,197,266,432
1380,-224,-1472,-432,180,272,404
1385,-192,-1496,-408,159,280,376
1390,-192,-1520,-416,139,285,334
1395,-208,-1496,-400,103,284,300
1400,-232,-1528,-336,73,280,267
1405,-184,-1584,-304,52,276,241
1410,-176,-1600,-312,38,269,212
1415,-160,-1624,-288,29,264,187
1420,-120,-1704,-264,29,261,156
1425,-96,-1744,-240,34,260,133
1430,-88,-1800,-176,44,260,106
1435,-48,-1840,-192,57,261,80
1440,-56,-1840,-176,84,266,59
1445,-72,-1856,-152,113,267,43
1450,-72,-1856,-144,141,270,26
1455,-96,-1816,-176,165,279,17
1460,-112,-1824,-128,189,278,0
1465,-96,-1816,-176,202,278,-9
1470,-112,-1776,-152,207,282,-23
1475,-112,-1744,-168,209,287,-31
1480,-136,-1696,-168,210,299,-44
1485,-104,-1664,-128,209,313,-56
1490,-120,-1664,-104,200,329,-68
1495,-96,-1664,-112,183,346,-74
1500,-80,-1696,-128,165,367,-84
1505,-72,-1696,-72,150,389,-94
1510,-40,-1744,-56,134,414,-106
1515,-16,-1760,-40,121,442,-113
1520,-8,-1824,-32,107,470,-123
1525,24,-1832,-24,97,496,-128
1530,136,-1904,0,88,520,-140
1535,32,-2000,32,92,555,-146
1540,32,-2072,48,100,571,-162
1545,56,-2112,-24,109,585,-173
1550,40,-2152,-8,122,600,-189
1555,8,-2176,-8,140,617,-199
1560,-40,-2224,-32,152,626,-211
1565,-48,-2264,-40,163,626,-217
1570,-80,-2320,-104,169,620,-226
1575,-128,-2336,-104,171,616,-228
1580,-168,-2392,-72,164,616,-222
1585,-232,-2440,-64,149,616,-210
1590,-272,-2496,-72,135,613,-195
1595,-336,-2504,-48,112,604,-173
1600,-440,-2624,64,88,591,-148
1605,-504,-2544,80,73,575,-117
1610,-576,-2600,168,64,558,-83
1615,-624,-2592,208,71,542,-46
1620,-632,-2584,264,99,534,-9
1625,-680,-2584,288,144,524,27
1630,-696,-2552,248,205,514,72
1635,-712,-2560,176,242,501,113
1640,-696,-2560,8,251,479,162
1645,-552,-2584,-224,230,455,215
1650,-664,-2664,-304,192,428,274
1655,-544,-2624,-464,129,404,336
1660,-520,-2712,-544,50,379,395
1665,-504,-2800,-600,-39,348,452
1670,-528,-2936,-624,-127,312,508
1675,-584,-3040,-616,-216,260,564
1680,-616,-3096,-528,-308,181,601
1685,-664,-3056,-456,-360,99,623
1690,-784,-2944,-456,-373,14,631
1695,-784,-2792,-464,-353,-64,626
1700,-752,-2664,-520,-310,-119,606
1705,-640,-2560,-544,-257,-132,580
1710,-472,-2512,-568,-190,-106,543
1715,-288,-2440,-592,-108,-54,494
1720,-120,-2320,-656,-7,15,431
1725,40,-2184,-720,97,103,346
1730,240,-2040,-768,200,178,273
1735,416,-1840,-800,267,250,202
1740,536,-1736,-824,314,314,141
1745,720,-1616,-848,339,373,91
1750,848,-1536,-808,348,428,50
1755,936,-1464,-760,343,469,17
1760,1024,-1424,-712,328,497,-11
1765,1064,-1424,-696,307,508,-42
1770,976,-1392,-712,285,501,-74
1775,952,-1424,-744,230,475,-93
1780,928,-1520,-696,139,437,-108
1785,832,-1568,-656,19,391,-125
1790,720,-1680,-608,-86,345,-129
1795,616,-1824,-592,-186,307,-132
1800,480,-2040,-576,-265,269,-145
1805,368,-2168,-552,-320,238,-185
1810,248,-2256,-536,-351,215,-237
1815,96,-2296,-440,-358,193,-297
1820,-40,-2304,-416,-323,156,-355
1825,-160,-2280,-368,-251,127,-395
1830,-216,-2264,-392,-196,94,-422
1835,-328,-2288,-376,-134,56,-445
1840,-376,-2256,-432,-67,18,-461
1845,-408,-2256,-432,-22,-17,-476
1850,-424,-2192,-448,11,-58,-488
1855,-400,-2152,-440,36,-98,-499
1860,-448,-2096,-424,71,-133,-498
1865,-416,-2048,-440,113,-175,-500
1870,-400,-1952,-432,143,-222,-489
1875,-352,-1912,-408,169,-258,-481
1880,-248,-1888,-432,183,-287,-471
1885,-208,-1856,-408,197,-317,-460
1890,-176,-1792,-400,214,-345,-443
1895,-88,-1768,-328,236,-376,-431
1900,-40,-1720,-328,276,-402,-409
1905,-16,-1696,-312,311,-428,-394
1910,80,-1648,-320,346,-453,-374
1915,160,-1600,-344,376,-477,-355
1920,192,-1568,-328,401,-503,-342
1925,232,-1544,-384,404,-521,-335
1930,248,-1512,-392,382,-538,-328
1935,288,-1520,-352,345,-555,-325
1940,328,-1496,-368,304,-569,-316
1945,344,-1496,-304,266,-575,-312
1950,368,-1480,-312,230,-580,-302
1955,384,-1512,-296,200,-579,-294
1960,384,-1544,-312,166,-574,-282
1965,416,-1568,-288,123,-568,-274
1970,424,-1600,-264,76,-556,-264
1975,424,-1624,-288,42,-542,-257
1980,448,-1648,-208,11,-526,-246
1985,416,-1648,-216,-10,-506,-242
1990,432,-1656,-192,-20,-480,-233
1995,432,-1672,-136,-29,-448,-225
2000,432,-1688,-160,-32,-414,-211
2005,432,-1728,-112,-34,-380,-199
2010,424,-1776,-80,-31,-349,-179
2015,440,-1768,-72,-25,-311,-156
2020,408,-1808,-40,-21,-281,-129
2025,416,-1824,-64,-19,-250,-104
2030,392,-1824,-48,-14,-219,-73
2035,408,-1856,-16,-5,-189,-41
2040,408,-1872,0,5,-163,-6
2045,416,-1888,40,12,-139,23
2050,408,-1920,64,24,-120,55
2055,392,-1888,40,35,-103,78
2060,408,-1904,104,49,-91,108
2065,384,-1872,88,66,-82,121
2070,352,-1888,96,80,-83,137
2075,304,-1880,96,95,-87,144
2080,240,-1864,96,108,-98,150
2085,216,-1896,96,116,-116,153
2090,184,-1880,64,122,-135,152
2095,160,-1864,64,122,-151,141
2100,120,-1856,48,111,-168,125
2105,88,-1888,24,92,-187,105
2110,40,-1888,8,65,-208,86
2115,16,-1912,8,30,-226,71
2120,-48,-1968,-56,5,-248,66
2125,-80,-1968,-56,-18,-271,63
2130,-72,-2048,-88,-36,-294,71
2135,-56,-2080,-56,-55,-313,78
2140,-72,-2120,-72,-77,-327,90
2145,-56,-2144,-120,-99,-332,99
2150,-16,-2200,-96,-120,-326,105
2155,56,-2256,-80,-135,-315,103
2160,112,-2296,-88,-155,-308,95
2165,192,-2336,16,-167,-308,77
2170,264,-2400,112,-176,-313,51
2175,320,-2456,216,-179,-319,19
2180,352,-2512,360,-181,-328,-16
2185,408,-2528,528,-170,-340,-53
2190,416,-2584,648,-139,-352,-89
2195,416,-2584,712,-98,-365,-116
2200,384,-2600,736,-43,-384,-133
2205,352,-2616,696,18,-410,-139
2210,368,-2608,592,94,-432,-139
2215,312,-2696,336,147,-446,-141
2220,240,-2744,64,165,-453,-147
2225,208,-2760,-208,161,-457,-167
2230,296,-2856,-416,136,-452,-204
2235,416,-2936,-624,79,-435,-254
2240,480,-3008,-712,13,-403,-316
2245,472,-3008,-664,-45,-368,-377
2250,496,-2992,-576,-90,-342,-431
2255,616,-2872,-472,-128,-311,-450
2260,744,-2800,-456,-142,-277,-453
2265,824,-2664,-448,-134,-241,-446
2270,792,-2536,-528,-102,-213,-438
2275,672,-2416,-568,-48,-211,-423
2280,528,-2296,-584,16,-238,-400
2285,360,-2112,-600,71,-299,-365
2290,160,-2032,-592,114,-383,-325
2295,-8,-1976,-584,149,-466,-281
2300,-176,-1856,-648,188,-531,-237
2305,-304,-1792,-744,237,-550,-201
2310,-496,-1648,-808,273,-538,-170
2315,-608,-1568,-896,303,-516,-140
2320,-648,-1528,-928,331,-493,-113
2325,-616,-1512,-984,338,-472,-73
2330,-576,-1576,-1032,301,-437,-25
2335,-496,-1656,-1000,217,-394,36
2340,-408,-1728,-936,109,-356,85
2345,-320,-1800,-784,15,-328,134
2350,-224,-1880,-656,-77,-300,160
2355,-128,-1912,-552,-141,-275,186
2360,40,-2000,-456,-189,-246,208
2365,144,-2024,-416,-216,-209,238
2370,200,-2048,-320,-214,-169,265
2375,288,-2080,-296,-198,-130,297
2380,344,-2128,-352,-172,-95,326
2385,432,-2192,-312,-139,-66,358
2390,448,-2192,-344,-97,-37,386
2395,456,-2216,-328,-63,-7,422
2400,520,-2216,-336,-41,22,446
2405,560,-2216,-320,-27,56,476
2410,536,-2208,-344,-3,99,502
2415,432,-2192,-368,20,142,529
2420,368,-2192,-400,37,181,546
2425,336,-2200,-400,42,213,561
2430,264,-2192,-360,58,235,563
2435,136,-2136,-400,102,253,568
2440,96,-2088,-448,146,269,567
2445,48,-1920,-248,203,292,563
2450,-24,-1864,-408,326,309,559
2455,-24,-1752,-408,420,337,560
2460,-16,-1672,-408,481,362,554
2465,-64,-1608,-424,508,379,544
2470,-48,-1560,-456,511,403,524
2475,-88,-1480,-488,497,431,499
2480,-112,-1416,-464,452,459,465
2485,-136,-1368,-472,388,478,438
2490,-192,-1304,-440,309,484,408
2495,-248,-1216,-384,219,479,394
2500,-272,-1152,-352,162,467,384
2505,-264,-1104,-264,123,457,378
2510,-200,-1104,-264,88,450,367
2515,-216,-1112,-264,55,454,359
2520,-232,-1160,-248,24,461,344
2525,-184,-1200,-160,-7,469,323
2530,-192,-1224,-152,-37,474,287
2535,-176,-1288,-160,-71,478,241
2540,-120,-1368,-152,-126,478,196
2545,-112,-1456,-152,-174,483,150
2550,-96,-1536,-128,-216,489,100
2555,-96,-1592,-128,-253,499,59
2560,-120,-1648,-72,-274,506,18
2565,-88,-1688,-96,-286,504,-19
2570,-96,-1760,-80,-293,504,-49
2575,-64,-1808,-32,-288,502,-74
2580,-88,-1816,-16,-270,502,-99
2585,-88,-1792,8,-246,504,-122
2590,-104,-1832,40,-216,508,-140
2595,-112,-1856,56,-187,512,-159
2600,-96,-1872,88,-154,522,-183
2605,-96,-1896,144,-116,534,-203
2610,-96,-1880,184,-73,550,-224
2615,-96,-1912,200,-24,565,-240
2620,-96,-1904,232,27,579,-254
2625,-64,-1944,248,81,594,-263
2630,-32,-1960,256,135,610,-271
2635,-24,-1968,240,203,636,-271
2640,-16,-1968,184,248,660,-268
2645,-16,-2064,200,277,694,-256
2650,8,-2112,152,288,715,-255
2655,64,-2136,104,284,727,-256
2660,48,-2192,80,275,736,-261
2665,96,-2248,16,265,741,-264
2670,64,-2296,-16,255,744,-262
2675,88,-2328,-48,255,724,-256
2680,88,-2296,-48,248,687,-245
2685,48,-2344,-104,214,660,-237
2690,-8,-2336,-104,163,639,-226
2695,-96,-2384,-56,101,622,-211
2700,-216,-2392,24,31,611,-188
2705,-416,-2464,160,-33,602,-160
2710,-504,-2512,312,-82,598,-122
2715,-608,-2512,384,-109,598,-75
2720,-704,-2552,464,-109,595,-21
2725,-808,-2560,496,-79,588,47
2730,-816,-2568,448,-2,579,101
2735,-768,-2568,472,74,580,148
2740,-776,-2528,416,147,585,188
2745,-736,-2528,376,197,592,222
2750,-696,-2528,176,222,600,255
2755,-656,-2512,56,217,603,287
2760,-512,-2544,-88,170,604,325
2765,-352,-2624,-200,98,611,357
2770,-280,-2712,-384,10,619,389
2775,-256,-2864,-464,-86,613,421
2780,-296,-3024,-576,-186,587,443
2785,-400,-3128,-672,-262,536,463
2790,-448,-3224,-760,-322,461,479
2795,-496,-3256,-800,-365,378,491
2800,-584,-3216,-872,-376,293,506
2805,-616,-3112,-1000,-374,212,524
2810,-616,-2912,-1096,-374,135,538
2815,-608,-2656,-1072,-370,77,531
2820,-504,-2424,-1104,-365,56,507
2825,-296,-2280,-1080,-336,90,481
2830,-96,-2120,-1040,-285,149,450
2835,88,-1944,-960,-204,211,419
2840,232,-1784,-912,-114,256,397
2845,424,-1648,-824,-34,274,377
2850,576,-1560,-720,49,262,360
2855,712,-1512,-672,132,234,335
2860,752,-1440,-696,192,204,306
2865,816,-1408,-688,218,175,273
2870,912,-1528,-584,196,137,227
2875,944,-1704,-536,108,102,161
2880,912,-1896,-496,-8,75,83
2885,840,-2048,-400,-119,52,-6
2890,680,-2160,-280,-197,24,-96
2895,504,-2288,-216,-239,-15,-193
2900,400,-2320,-168,-247,-61,-285
2905,200,-2424,-208,-228,-110,-377
2910,-16,-2464,-192,-197,-158,-457
2915,-96,-2528,-248,-162,-205,-547
2920,-264,-2504,-248,-113,-267,-610
2925,-384,-2496,-352,-52,-312,-660
2930,-400,-2424,-392,3,-358,-691
2935,-464,-2336,-352,43,-397,-713
2940,-488,-2264,-424,74,-438,-721
2945,-496,-2144,-432,78,-477,-724
2950,-496,-2040,-384,83,-511,-714
2955,-480,-1944,-376,95,-542,-700
2960,-424,-1856,-392,99,-574,-679
2965,-408,-1776,-400,91,-616,-655
2970,-336,-1720,-368,87,-652,-625
2975,-240,-1680,-360,97,-684,-595
2980,-168,-1592,-280,124,-715,-556
2985,-88,-1552,-256,167,-745,-518
2990,-24,-1496,-240,219,-772,-479
2995,0,-1440,-264,269,-798,-447
3000,64,-1376,-272,311,-826,-412
3005,120,-1328,-264,341,-849,-385
3010,256,-1320,-312,365,-868,-354
3015,288,-1304,-336,352,-885,-348
3020,344,-1328,-320,306,-892,-348
3025,368,-1288,-352,246,-885,-349
3030,416,-1256,-256,184,-871,-350
3035,424,-1280,-224,133,-857,-358
3040,440,-1280,-192,90,-841,-361
3045,488,-1336,-192,48,-819,-365
3050,464,-1344,-144,10,-787,-363
3055,512,-1416,-160,-32,-752,-358
3060,520,-1496,-136,-67,-706,-341
3065,552,-1560,-120,-108,-666,-323
3070,584,-1600,-160,-139,-623,-299
3075,568,-1624,-160,-162,-577,-276
3080,584,-1680,-136,-174,-532,-250
3085,584,-1704,-80,-181,-487,-227
3090,576,-1736,-128,-184,-440,-201
3095,592,-1736,-56,-191,-394,-176
3100,624,-1768,-40,-193,-347,-149
3105,608,-1760,-8,-193,-300,-122
3110,616,-1784,48,-190,-245,-89
3115,592,-1760,64,-185,-204,-63
3120,584,-1768,72,-174,-162,-33
3125,560,-1776,128,-162,-124,-7
3130,520,-1776,208,-153,-93,25
3135,472,-1792,200,-139,-68,54
3140,424,-1824,216,-121,-49,83
3145,384,-1856,216,-101,-36,110
3150,368,-1912,216,-83,-29,137
3155,304,-1880,184,-66,-24,161
3160,288,-1896,168,-45,-25,179
3165,216,-1944,184,-33,-32,187
3170,176,-1936,144,-20,-46,196
3175,96,-1944,152,-9,-59,203
3180,72,-1944,160,-3,-78,209
3185,32,-1936,104,1,-96,216
3190,48,-1984,80,-4,-113,222
3195,24,-1968,80,-17,-120,226
3200,96,-1992,40,-37,-120,231
3205,136,-2016,-112,-53,-106,234
3210,192,-2064,-272,-69,-78,231
3215,168,-2080,-360,-101,-39,220
3220,104,-2080,-416,-142,-9,208
3225,88,-2080,-360,-188,4,197
3230,72,-2096,-304,-237,2,184
3235,96,-2144,-176,-282,-4,174
3240,184,-2200,56,-316,-8,162
3245,304,-2320,224,-337,-14,143
3250,384,-2440,504,-344,-20,101
3255,336,-2568,656,-333,-31,53
3260,336,-2632,800,-308,-47,4
3265,288,-2680,856,-252,-73,-33
3270,248,-2744,864,-167,-112,-59
3275,192,-2760,832,-66,-158,-74
3280,200,-2816,720,42,-203,-78
3285,192,-2888,448,142,-240,-74
3290,168,-2904,32,218,-261,-77
3295,136,-2912,-392,253,-266,-105
3300,144,-2904,-712,219,-249,-158
3305,256,-2968,-1048,133,-216,-239
3310,416,-3048,-1240,16,-173,-346
3315,472,-3112,-1144,-98,-134,-453
3320,552,-3096,-1008,-182,-108,-552
3325,680,-2952,-816,-235,-79,-623
3330,928,-2824,-784,-278,-23,-669
3335,1000,-2728,-800,-311,46,-698
3340,960,-2624,-816,-318,98,-723
3345,752,-2528,-816,-290,108,-729
3350,488,-2416,-720,-220,52,-710
3355,240,-2328,-576,-152,-59,-671
3360,-16,-2248,-544,-72,-196,-626
3365,-184,-2160,-552,21,-320,-574
3370,-336,-2104,-592,126,-399,-525
3375,-432,-1992,-736,234,-417,-469
3380,-632,-1856,-888,336,-377,-401
3385,-784,-1672,-1000,410,-326,-318
3390,-848,-1592,-1048,438,-280,-205
3395,-792,-1592,-1104,395,-249,-106
3400,-712,-1600,-1120,311,-233,-21
3405,-640,-1664,-1048,203,-226,50
3410,-608,-1728,-960,78,-227,107
3415,-488,-1784,-848,-56,-234,161
3420,-312,-1840,-696,-171,-230,202
3425,-168,-1888,-560,-260,-217,239
3430,-16,-1928,-464,-316,-194,265
3435,152,-1968,-376,-343,-164,293
3440,304,-2016,-352,-350,-123,319
3445,400,-2032,-360,-340,-86,343
3450,488,-2072,-312,-326,-49,363
3455,520,-2072,-312,-307,-13,387
3460,560,-2088,-296,-292,16,409
3465,656,-2104,-280,-274,41,438
3470,696,-2104,-272,-256,71,464
3475,624,-2136,-264,-245,103,498
3480,584,-2104,-256,-239,134,533
3485,512,-2088,-240,-220,173,572
3490,416,-2096,-272,-187,222,595
3495,416,-2112,-288,-151,260,618
3500,352,-2056,-320,-100,297,627
3505,264,-2000,-328,-34,333,636
3510,184,-1944,-376,37,376,643
3515,128,-1864,-408,93,415,655
3520,88,-1760,-392,131,455,659
3525,32,-1664,-464,169,494,664
3530,24,-1560,-456,179,531,655
3535,-24,-1424,-288,171,574,641
3540,-88,-1344,-336,229,602,626
3545,-96,-1296,-336,275,634,615
3550,-56,-1296,-432,281,673,585
3555,-64,-1336,-504,224,710,541
3560,-144,-1264,-464,101,734,488
3565,-232,-1200,-408,-11,743,452
3570,-200,-1192,-328,-76,737,423
3575,-216,-1176,-232,-99,726,398
3580,-264,-1168,-184,-90,715,360
3585,-264,-1208,-176,-76,706,330
3590,-224,-1264,-136,-69,698,293
3595,-232,-1304,-128,-61,688,262
3600,-184,-1376,-88,-56,678,223
3605,-176,-1440,-112,-59,664,185
3610,-176,-1488,-128,-67,649,135
3615,-168,-1576,-96,-74,638,83
3620,-168,-1672,-96,-82,630,27
3625,-176,-1704,-80,-85,621,-19
3630,-192,-1760,-80,-85,605,-66
3635,-200,-1832,-112,-78,599,-94
3640,-232,-1848,-112,-69,594,-121
3645,-272,-1848,-88,-51,588,-137
3650,-296,-1848,-112,-29,580,-151
3655,-296,-1896,-48,-5,571,-156
3660,-304,-1888,-56,14,565,-163
3665,-352,-1896,-32,36,558,-167
3670,-384,-1912,16,59,554,-170
3675,-376,-1912,24,81,549,-174
3680,-368,-1928,56,104,542,-176
3685,-264,-1968,80,121,538,-176
3690,-248,-1992,80,142,542,-178
3695,-216,-2000,152,159,551,-175
3700,-192,-1984,104,179,561,-171
3705,-184,-2032,152,192,568,-164
3710,-96,-2064,128,197,575,-155
3715,-64,-2096,144,203,586,-150
3720,-48,-2136,128,209,600,-147
3725,-64,-2176,120,223,610,-142
3730,-48,-2224,72,242,606,-143
3735,-48,-2256,-8,255,583,-140
3740,-32,-2304,-128,251,533,-136
3745,-88,-2320,-216,222,470,-128
3750,-96,-2336,-264,174,401,-122
3755,-144,-2376,-248,109,359,-120
3760,-272,-2416,-160,36,340,-112
3765,-384,-2432,-40,-18,336,-98
3770,-512,-2464,80,-53,333,-70
3775,-592,-2496,168,-66,332,-38
3780,-696,-2504,288,-54,326,0
3785,-752,-2536,336,-16,321,41
3790,-800,-2472,432,46,314,83
3795,-896,-2472,392,126,311,122
3800,-904,-2448,400,213,310,160
3805,-880,-2416,264,287,307,195
3810,-768,-2400,152,334,308,232
3815,-632,-2456,-40,349,318,261
3820,-488,-2456,-248,328,345,296
3825,-336,-2552,-392,246,380,322
3830,-200,-2648,-456,134,417,349
3835,-152,-2832,-528,9,434,373
3840,-128,-3000,-592,-111,420,405
3845,-96,-3096,-632,-206,374,436
3850,-112,-3200,-696,-264,306,472
3855,-232,-3264,-768,-296,222,499
3860,-320,-3216,-888,-325,124,522
3865,-408,-3104,-1032,-351,29,542
3870,-520,-2944,-1128,-385,-70,553
3875,-504,-2728,-1168,-397,-132,544
3880,-400,-2568,-1152,-389,-154,523
3885,-232,-2376,-1128,-356,-125,496
3890,-64,-2216,-1040,-299,-56,474
3895,88,-2112,-960,-215,13,453
3900,248,-2024,-856,-111,74,446
3905,392,-1896,-776,-5,114,441
3910,552,-1776,-720,111,133,443
3915,704,-1656,-680,240,135,428
3920,784,-1576,-704,391,130,412
3925,904,-1584,-680,469,120,383
3930,960,-1640,-624,467,105,341
3935,960,-1792,-584,387,88,278
3940,992,-1928,-544,266,79,208
3945,912,-2016,-440,147,74,123
3950,784,-2096,-320,55,62,38
3955,688,-2200,-248,-5,43,-53
3960,512,-2240,-184,-28,14,-158
3965,368,-2272,-160,-2,-31,-242
3970,216,-2272,-152,44,-70,-312
3975,40,-2264,-240,105,-108,-370
3980,-72,-2248,-280,155,-153,-417
3985,-160,-2216,-392,178,-198,-468
3990,-184,-2160,-424,177,-241,-510
3995,-272,-2104,-440,158,-274,-550
4000,-328,-1992,-448,129,-304,-581
4005,-320,-1944,-480,93,-328,-609
4010,-360,-1856,-456,42,-353,-617
4015,-328,-1792,-440,-4,-378,-620
4020,-320,-1720,-424,-21,-396,-610
4025,-280,-1688,-424,-24,-413,-597
4030,-248,-1608,-368,-25,-433,-572
4035,-184,-1576,-336,-13,-455,-545
4040,-104,-1552,-336,12,-480,-505
4045,-88,-1496,-296,55,-506,-464
4050,-16,-1480,-304,102,-532,-419
4055,80,-1440,-296,144,-555,-374
4060,152,-1432,-296,183,-585,-338
4065,248,-1424,-312,192,-612,-317
4070,296,-1400,-304,194,-635,-297
4075,352,-1376,-344,197,-652,-290
4080,376,-1336,-328,188,-665,-283
4085,480,-1344,-328,170,-675,-276
4090,464,-1368,-336,135,-679,-279
4095,488,-1368,-296,93,-680,-287
4100,496,-1352,-312,48,-671,-290
4105,472,-1384,-328,1,-654,-295
4110,488,-1448,-296,-57,-638,-289
4115,488,-1496,-240,-114,-624,-285
4120,472,-1544,-208,-166,-604,-274
4125,504,-1584,-224,-205,-576,-265
4130,496,-1664,-208,-234,-544,-249
4135,512,-1688,-208,-258,-511,-236
4140,504,-1736,-192,-280,-477,-216
4145,520,-1800,-120,-300,-441,-196
4150,504,-1792,-64,-311,-405,-167
4155,488,-1832,-48,-310,-367,-146
4160,496,-1888,0,-311,-337,-120
4165,512,-1840,56,-309,-309,-97
4170,488,-1912,40,-301,-284,-74
4175,480,-1904,88,-296,-260,-53
4180,472,-1904,72,-290,-240,-28
4185,456,-1912,80,-274,-217,-7
4190,424,-1912,136,-252,-200,13
4195,400,-1904,152,-222,-180,36
4200,360,-1944,192,-189,-155,66
4205,336,-1944,200,-150,-140,87
4210,296,-1984,176,-117,-130,110
4215,176,-1984,192,-91,-126,125
4220,160,-2040,232,-63,-133,138
4225,112,-2064,232,-32,-147,148
4230,40,-2072,304,-1,-168,158
4235,40,-2088,232,26,-188,170
4240,24,-2104,240,51,-208,183
4245,24,-2096,224,79,-220,195
4250,56,-2080,192,114,-231,202
4255,88,-2080,160,143,-225,202
4260,152,-2104,88,163,-211,203
4265,232,-2120,-40,165,-192,198
4270,288,-2136,-208,148,-164,188
4275,248,-2160,-288,121,-126,171
4280,184,-2152,-304,78,-86,151
4285,128,-2104,-224,31,-68,134
4290,152,-2168,-120,-17,-70,119
4295,208,-2160,40,-67,-84,107
4300,280,-2208,208,-101,-97,92
4305,360,-2288,376,-131,-102,69
4310,376,-2312,560,-144,-104,36
4315,376,-2392,600,-135,-103,8
4320,360,-2392,696,-102,-104,-11
4325,424,-2448,656,-45,-111,-18
4330,504,-2544,472,18,-119,-24
4335,472,-2592,144,72,-122,-39
4340,408,-2664,-184,96,-118,-82
4345,384,-2768,-536,67,-118,-138
4350,392,-2856,-808,-6,-108,-221
4355,456,-2952,-936,-120,-81,-318
4360,560,-3056,-992,-245,-37,-423
4365,568,-3120,-896,-360,9,-520
4370,664,-3136,-720,-455,45,-601
4375,816,-3088,-624,-527,83,-653
4380,904,-2984,-512,-562,141,-681
4385,920,-2880,-464,-551,206,-689
4390,880,-2792,-464,-478,261,-685
4395,736,-2648,-488,-380,264,-671
4400,512,-2488,-520,-264,225,-643
4405,296,-2336,-448,-156,142,-593
4410,48,-2256,-384,-59,26,-535
4415,-136,-2208,-400,40,-91,-467
4420,-336,-2112,-496,139,-187,-402
4425,-528,-2024,-576,229,-244,-330
4430,-704,-1848,-712,319,-269,-259
4435,-896,-1680,-800,394,-277,-171
4440,-984,-1608,-888,442,-274,-98
4445,-1008,-1568,-992,442,-268,-22
4450,-928,-1584,-1104,377,-267,49
4455,-832,-1600,-1104,268,-263,117
4460,-792,-1680,-1072,150,-252,165
4465,-744,-1696,-960,39,-236,205
4470,-568,-1800,-824,-70,-218,228
4475,-360,-1832,-712,-162,-194,245
4480,-136,-1872,-576,-236,-153,251
4485,0,-1920,-512,-290,-113,261
4490,152,-1952,-464,-320,-66,273
4495,312,-1976,-456,-335,-12,295
4500,416,-2000,-424,-331,47,316
4505,480,-2040,-448,-323,102,343
4510,600,-2064,-424,-325,148,365
4515,648,-2064,-352,-331,183,389
4520,720,-2072,-328,-333,210,407
4525,736,-2040,-296,-328,248,443
4530,752,-2080,-288,-323,294,468
4535,712,-2056,-272,-315,336,500
4540,632,-2048,-224,-304,377,522
4545,536,-2024,-272,-287,419,542
4550,480,-2056,-224,-278,455,551
4555,376,-2024,-280,-272,478,560
4560,312,-2000,-312,-236,502,559
4565,224,-1968,-288,-187,537,559
4570,176,-1912,-312,-128,576,550
4575,128,-1848,-224,-58,621,543
4580,72,-1760,-304,35,657,537
4585,40,-1656,-256,103,695,529
4590,-16,-1576,-288,178,724,515
4595,-16,-1576,-376,225,755,501
4600,-56,-1536,-464,220,790,474
4605,-96,-1464,-480,170,825,452
4610,-120,-1448,-472,108,853,435
4615,-152,-1400,-440,52,864,428
4620,-216,-1344,-408,10,865,422
4625,-216,-1304,-368,-10,857,426
4630,-240,-1296,-296,-5,852,423
4635,-216,-1288,-272,5,845,417
4640,-216,-1344,-264,3,835,398
4645,-216,-1328,-248,3,823,375
4650,-216,-1368,-288,-4,809,339
4655,-176,-1416,-224,-21,800,298
4660,-208,-1448,-224,-37,792,247
4665,-176,-1496,-192,-45,779,202
4670,-224,-1552,-176,-49,763,144
4675,-224,-1608,-160,-62,751,100
4680,-240,-1632,-192,-80,738,56
4685,-208,-1696,-152,-92,723,22
4690,-240,-1704,-144,-94,707,-9
4695,-264,-1744,-128,-86,690,-33
4700,-288,-1776,-88,-66,677,-50
4705,-264,-1792,-96,-49,664,-63
4710,-312,-1784,-96,-29,642,-78
4715,-288,-1816,-56,-7,622,-91
4720,-336,-1816,-16,21,611,-108
4725,-320,-1808,56,52,602,-116
4730,-328,-1784,88,89,599,-123
4735,-336,-1776,88,128,598,-128
4740,-280,-1808,96,164,597,-134
4745,-248,-1792,80,187,601,-138
4750,-184,-1816,88,197,608,-141
4755,-160,-1872,88,201,619,-141
4760,-136,-1920,64,199,624,-143
4765,-32,-1960,96,186,633,-144
4770,24,-2064,64,179,653,-148
4775,0,-2104,56,172,673,-148
4780,32,-2192,-8,162,670,-160
4785,16,-2240,-56,143,659,-169
4790,-8,-2280,-112,120,631,-177
4795,-48,-2328,-144,93,587,-176
4800,-72,-2392,-168,61,533,-172
4805,-144,-2432,-184,23,484,-164
4810,-256,-2480,-112,-22,446,-150
4815,-344,-2504,-64,-72,426,-130
4820,-464,-2536,32,-95,414,-104
4825,-528,-2568,56,-104,406,-67
4830,-616,-2600,152,-102,404,-25
4835,-672,-2624,296,-78,406,21
4840,-744,-2624,376,-36,409,69
4845,-792,-2616,432,28,411,116
4850,-784,-2616,472,103,411,162
4855,-808,-2584,448,183,414,213
4860,-840,-2576,240,276,412,255
4865,-752,-2608,72,326,401,309
4870,-600,-2648,-312,334,389,372
4875,-352,-2656,-632,290,400,435
4880,-136,-2760,-808,188,439,497
4885,-64,-2936,-848,45,488,550
4890,-64,-3152,-856,-97,508,591
4895,-96,-3304,-848,-216,473,621
4900,-160,-3376,-840,-307,396,646
4905,-344,-3336,-864,-385,273,668
4910,-576,-3208,-968,-430,160,676
4915,-736,-3048,-1096,-458,54,673
4920,-736,-2816,-1248,-474,-23,663
4925,-600,-2592,-1224,-457,-49,644
4930,-288,-2440,-1144,-400,-9,620
4935,-96,-2352,-1000,-304,80,584
4940,144,-2240,-888,-156,192,549
4945,344,-2104,-832,13,303,512
4950,504,-2040,-768,178,405,476
4955,720,-1912,-640,357,451,443
4960,896,-1776,-616,507,469,408
4965,1008,-1632,-656,640,479,366
4970,1088,-1568,-680,713,484,324
4975,1192,-1608,-704,698,475,270
4980,1184,-1688,-712,599,455,208
4985,1152,-1768,-688,441,429,131
4990,1000,-1912,-600,270,404,49
4995,808,-1968,-504,102,377,-59
5000,616,-2056,-432,-46,332,-139
5005,408,-2128,-416,-116,283,-215
5010,216,-2160,-392,-155,225,-277
5015,-8,-2224,-432,-175,167,-335
5020,-168,-2280,-440,-177,105,-379
5025,-288,-2312,-456,-165,54,-427
5030,-472,-2296,-480,-143,15,-463
5035,-536,-2264,-504,-117,-16,-500
5040,-544,-2208,-480,-97,-44,-530
5045,-560,-2152,-464,-76,-65,-563
5050,-584,-2112,-448,-50,-73,-579
5055,-560,-2024,-432,-34,-91,-595
5060,-536,-1960,-368,-7,-117,-600
5065,-488,-1888,-360,35,-152,-599
5070,-488,-1800,-400,68,-193,-585
5075,-416,-1712,-352,89,-244,-567
5080,-368,-1648,-336,123,-292,-537
5085,-272,-1592,-336,171,-342,-511
5090,-168,-1528,-320,228,-385,-472
5095,-80,-1456,-312,291,-424,-445
5100,8,-1440,-328,337,-454,-419
5105,40,-1384,-344,360,-483,-401
5110,120,-1344,-344,377,-514,-382
5115,240,-1312,-352,389,-544,-372
5120,232,-1320,-368,380,-580,-370
5125,280,-1280,-376,354,-612,-375
5130,288,-1240,-336,311,-635,-373
5135,344,-1240,-312,264,-653,-369
5140,328,-1232,-248,210,-669,-356
5145,352,-1248,-256,166,-675,-349
5150,384,-1280,-272,120,-675,-334
5155,408,-1312,-272,78,-670,-323
5160,408,-1368,-240,33,-663,-310
5165,408,-1400,-248,-13,-653,-296
5170,384,-1440,-200,-54,-639,-275
5175,360,-1504,-208,-80,-620,-257
5180,352,-1568,-216,-108,-599,-231
5185,344,-1624,-176,-139,-573,-203
5190,352,-1664,-112,-152,-554,-175
5195,368,-1712,-144,-153,-533,-154
5200,328,-1688,-96,-150,-513,-127
5205,328,-1696,-64,-140,-493,-103
5210,312,-1712,-88,-131,-473,-73
5215,296,-1704,-64,-131,-453,-46
5220,288,-1704,-16,-133,-434,-14
5225,296,-1688,-8,-135,-419,20
5230,288,-1672,0,-132,-401,61
5235,304,-1712,8,-134,-380,88
5240,288,-1728,32,-138,-363,119
5245,264,-1712,56,-137,-348,140
5250,232,-1728,88,-137,-338,164
5255,224,-1768,112,-136,-335,181
5260,224,-1784,112,-135,-338,196
5265,208,-1816,144,-127,-337,209
5270,224,-1832,96,-115,-334,221
5275,128,-1888,120,-102,-331,225
5280,232,-1880,80,-99,-338,225
5285,232,-1872,64,-95,-338,223
5290,248,-1920,-16,-102,-342,221
5295,264,-1976,-64,-123,-346,214
5300,216,-1968,-80,-153,-352,206
5305,184,-2032,-112,-193,-360,197
5310,136,-2088,-96,-236,-373,189
5315,128,-2144,-136,-281,-386,181
5320,80,-2200,-128,-321,-397,177
5325,96,-2264,-136,-359,-395,171
5330,80,-2288,-144,-389,-376,165
5335,104,-2352,-112,-402,-350,162
5340,176,-2416,-32,-395,-324,157
5345,280,-2472,48,-370,-297,150
5350,392,-2528,112,-326,-270,135
5355,504,-2552,296,-270,-243,105
5360,592,-2608,424,-203,-223,63
5365,664,-2656,576,-133,-215,15
5370,656,-2704,648,-53,-212,-49
5375,592,-2712,744,43,-218,-101
5380,544,-2760,832,120,-226,-145
5385,496,-2768,832,192,-237,-186
5390,424,-2816,736,261,-243,-219
5395,432,-2864,352,312,-239,-247
5400,304,-2888,-96,333,-219,-280
5405,192,-2904,-528,310,-196,-317
5410,208,-2920,-824,239,-183,-372
5415,424,-2984,-1224,122,-162,-452
5420,632,-3072,-1456,-61,-80,-538
5425,736,-3176,-1392,-220,21,-640
5430,744,-3232,-1168,-351,118,-747
5435,824,-3128,-928,-444,191,-840
5440,936,-2984,-728,-493,255,-899
5445,992,-2872,-616,-496,322,-926
5450,968,-2760,-560,-473,372,-940
5455,880,-2616,-496,-429,390,-943
5460,640,-2456,-480,-351,366,-933
5465,400,-2312,-520,-252,294,-881
5470,280,-2232,-520,-127,206,-812
5475,56,-2168,-552,-16,102,-731
5480,-112,-2136,-624,90,-5,-653
5485,-384,-2080,-640,186,-93,-570
5490,-656,-2000,-768,272,-152,-486
5495,-928,-1920,-872,349,-198,-397
5500,-1096,-1856,-904,400,-238,-307
5505,-1144,-1800,-960,429,-279,-209
5510,-1136,-1792,-1064,443,-320,-92
5515,-1120,-1784,-1160,422,-343,3
5520,-1080,-1816,-1176,366,-350,93
5525,-1072,-1848,-1080,285,-341,179
5530,-960,-1904,-968,196,-321,248
5535,-776,-1904,-848,114,-296,306
5540,-560,-1984,-752,38,-262,340
5545,-352,-1960,-664,-31,-216,366
5550,-144,-1984,-608,-87,-167,381
5555,-16,-1976,-504,-127,-120,396
5560,192,-1976,-448,-134,-53,402
5565,368,-2000,-432,-118,2,411
5570,504,-1992,-432,-108,59,421
5575,608,-2032,-392,-108,117,432
5580,672,-2024,-352,-118,164,434
5585,744,-2056,-336,-136,203,441
5590,752,-2032,-280,-150,240,445
5595,824,-1976,-232,-140,275,454
5600,824,-1944,-224,-105,313,460
5605,792,-1944,-192,-57,360,482
5610,752,-1912,-264,-24,399,496
5615,744,-1920,-232,16,437,509
5620,560,-1856,-328,57,475,502
5625,488,-1840,-304,98,517,498
5630,384,-1816,-304,138,566,492
5635,312,-1784,-344,179,612,486
5640,296,-1776,-464,212,652,475
5645,248,-1696,-224,240,689,463
5650,120,-1584,-448,267,739,441
5655,120,-1488,-280,293,783,432
5660,64,-1512,-368,302,827,424
5665,32,-1456,-384,306,870,421
5670,32,-1416,-352,309,910,412
5675,-8,-1360,-360,314,948,406
5680,-64,-1344,-440,303,981,395
5685,-80,-1320,-432,275,1006,394
5690,-128,-1288,-432,240,1020,390
5695,-160,-1272,-384,206,1019,392
5700,-168,-1272,-264,171,1004,391
5705,-176,-1256,-336,139,994,384
5710,-160,-1344,-280,106,984,367
5715,-216,-1376,-296,70,976,347
5720,-232,-1400,-256,32,964,321
5725,-192,-1472,-184,10,950,292
5730,-200,-1488,-184,5,939,256
5735,-248,-1520,-216,-5,929,217
5740,-280,-1568,-200,-19,920,165
5745,-296,-1624,-136,-33,907,127
5750,-312,-1688,-112,-38,892,84
5755,-312,-1744,-128,-44,873,48
5760,-312,-1792,-88,-46,852,11
5765,-336,-1816,-88,-44,835,-21
5770,-320,-1864,-96,-39,815,-52
5775,-392,-1856,-48,-17,797,-74
5780,-408,-1848,-32,14,773,-90
5785,-400,-1816,-16,48,749,-100
5790,-408,-1832,-24,78,726,-114
5795,-376,-1800,16,111,714,-119
5800,-368,-1776,24,134,711,-127
5805,-376,-1760,40,152,712,-129
5810,-352,-1744,64,170,714,-132
5815,-320,-1744,72,181,712,-131
5820,-280,-1728,56,187,708,-134
5825,-264,-1720,56,184,704,-134
5830,-192,-1744,64,180,701,-137
5835,-128,-1768,48,157,698,-145
5840,-80,-1824,80,122,705,-151
5845,-48,-1880,32,102,721,-155
5850,56,-1936,56,75,742,-165
5855,120,-2008,8,43,764,-172
5860,96,-2088,64,20,792,-176
5865,120,-2136,56,2,799,-184
5870,40,-2192,-24,-16,789,-191
5875,32,-2256,-80,-30,751,-190
5880,8,-2320,-120,-56,693,-183
5885,-64,-2360,-160,-90,639,-177
5890,-112,-2368,-160,-125,610,-169
5895,-208,-2440,-96,-160,594,-154
5900,-296,-2480,-16,-189,579,-136
5905,-432,-2528,40,-198,566,-111
5910,-496,-2576,136,-194,556,-79
5915,-584,-2592,240,-175,553,-42
5920,-672,-2664,336,-133,553,1
5925,-736,-2704,408,-73,555,50
5930,-784,-2744,472,-2,556,114
5935,-760,-2760,544,94,555,166
5940,-712,-2736,552,175,560,216
5945,-632,-2752,584,243,574,264
5950,-576,-2736,624,304,586,303
5955,-544,-2728,568,352,595,330
5960,-568,-2680,352,376,592,356
5965,-464,-2632,72,364,565,382
5970,-304,-2616,-232,314,534,413
5975,-144,-2592,-448,225,520,451
5980,-136,-2608,-728,74,526,481
5985,-184,-2680,-888,-76,520,510
5990,-184,-2776,-1000,-230,494,545
5995,-168,-2920,-1096,-365,447,579
6000,-152,-2976,-1128,-463,395,606
6005,-296,-2968,-1104,-519,339,626
6010,-512,-2872,-1208,-558,273,646
6015,-616,-2664,-1248,-598,191,664
6020,-584,-2456,-1200,-633,105,678
6025,-512,-2312,-1144,-637,43,676
6030,-344,-2232,-1024,-604,50,672
6035,-176,-2176,-920,-539,94,653
6040,-16,-2152,-904,-439,150,625
6045,152,-2088,-792,-314,198,584
6050,312,-2080,-664,-171,231,536
6055,504,-2024,-520,-31,244,476
6060,656,-2000,-488,102,242,410
6065,840,-1936,-512,223,245,321
6070,944,-1904,-568,331,264,247
6075,1072,-1904,-600,360,278,170
6080,1104,-1928,-544,337,280,91
6085,1040,-2008,-512,268,267,0
6090,920,-2080,-496,171,244,-89
6095,760,-2152,-464,64,214,-178
6100,584,-2184,-456,-26,171,-262
6105,352,-2224,-448,-86,115,-346
6110,136,-2232,-464,-117,56,-423
6115,-56,-2256,-448,-132,-13,-511
6120,-240,-2224,-448,-134,-67,-572
6125,-352,-2208,-480,-131,-112,-621
6130,-424,-2200,-488,-119,-150,-651
6135,-544,-2136,-528,-119,-185,-679
6140,-552,-2072,-552,-137,-217,-696
6145,-544,-2032,-560,-163,-237,-709
6150,-536,-1912,-472,-193,-254,-710
6155,-584,-1816,-464,-205,-267,-700
6160,-592,-1720,-464,-206,-290,-669
6165,-552,-1648,-432,-198,-323,-636
6170,-520,-1584,-440,-186,-358,-597
6175,-440,-1512,-384,-167,-399,-566
6180,-344,-1440,-360,-119,-435,-533
6185,-184,-1368,-368,-57,-467,-513
6190,-96,-1288,-352,-6,-493,-489
6195,24,-1240,-408,37,-520,-472
6200,88,-1232,-312,74,-540,-460
6205,152,-1208,-312,101,-561,-456
6210,208,-1168,-320,115,-586,-449
6215,232,-1136,-336,107,-605,-443
6220,320,-1184,-272,85,-623,-434
6225,336,-1176,-264,60,-645,-436
6230,352,-1216,-256,33,-657,-425
6235,376,-1216,-264,-5,-666,-414
6240,384,-1224,-240,-51,-671,-397
6245,400,-1264,-232,-101,-671,-380
6250,424,-1368,-184,-154,-663,-359
6255,416,-1456,-200,-206,-643,-337
6260,416,-1520,-184,-267,-620,-310
6265,448,-1624,-152,-308,-592,-288
6270,480,-1696,-120,-332,-566,-258
6275,456,-1752,-120,-343,-536,-236
6280,440,-1848,-64,-342,-504,-211
6285,440,-1872,-40,-317,-470,-191
6290,432,-1904,-8,-280,-437,-168
6295,424,-1928,-8,-235,-405,-148
6300,408,-1912,8,-189,-377,-118
6305,408,-1912,-24,-147,-343,-96
6310,432,-1896,-16,-127,-314,-72
6315,424,-1872,16,-119,-285,-54
6320,392,-1808,40,-106,-259,-32
6325,384,-1800,8,-84,-232,-15
6330,392,-1776,40,-73,-210,5
6335,360,-1760,24,-67,-194,21
6340,304,-1760,64,-69,-182,37
6345,296,-1824,64,-76,-177,50
6350,240,-1808,64,-92,-177,68
6355,200,-1848,72,-102,-181,80
6360,136,-1880,16,-108,-192,95
6365,128,-1936,48,-114,-209,105
6370,128,-1952,32,-121,-225,113
6375,88,-2000,0,-132,-245,112
6380,-24,-2024,32,-155,-270,109
6385,-80,-2072,8,-178,-293,108
6390,-96,-2088,8,-201,-322,112
6395,-112,-2112,-8,-210,-354,115
6400,-72,-2136,-48,-209,-363,121
6405,-80,-2160,-96,-207,-355,123
6410,-8,-2200,-136,-209,-337,125
6415,32,-2232,-136,-214,-316,120
6420,80,-2240,-176,-218,-294,113
6425,184,-2272,-176,-220,-267,96
6430,232,-2288,-184,-222,-235,75
6435,296,-2320,-128,-222,-206,52
6440,384,-2376,-56,-218,-184,21
6445,472,-2424,80,-196,-169,-6
6450,608,-2544,296,-163,-164,-38
6455,696,-2616,528,-113,-163,-83
6460,752,-2704,592,-48,-166,-131
6465,728,-2752,744,19,-169,-184
6470,688,-2840,760,85,-175,-231
6475,640,-2880,800,143,-183,-270
6480,544,-2912,824,196,-197,-295
6485,432,-2920,816,255,-212,-303
6490,424,-2896,648,329,-228,-290
6495,368,-2864,504,384,-228,-272
6500,304,-2856,96,415,-218,-254
6505,264,-2800,-352,399,-195,-244
6510,264,-2784,-800,333,-166,-255
6515,344,-2776,-1168,212,-129,-288
6520,448,-2848,-1464,51,-80,-347
6525,568,-2896,-1576,-123,-15,-426
6530,712,-2912,-1568,-280,65,-520
6535,824,-2840,-1520,-401,195,-633
6540,952,-2728,-1360,-499,306,-718
6545,1056,-2600,-1240,-548,401,-782
6550,1080,-2512,-1136,-570,466,-832
6555,968,-2400,-1032,-570,497,-862
6560,808,-2304,-944,-540,491,-873
6565,672,-2200,-896,-485,443,-851
6570,480,-2096,-776,-410,357,-805
6575,264,-2072,-648,-324,256,-734
6580,56,-2048,-520,-222,137,-638
6585,-224,-2000,-520,-77,52,-552
6590,-552,-1968,-568,45,-20,-467
6595,-856,-1944,-672,167,-80,-374
6600,-1040,-1976,-840,265,-129,-272
6605,-1096,-1944,-968,317,-172,-156
6610,-1088,-1928,-1088,324,-205,-35
6615,-1152,-1928,-1120,303,-219,89
6620,-1128,-1952,-1064,271,-225,194
6625,-1072,-1960,-1008,231,-219,301
6630,-928,-1992,-960,150,-198,362
6635,-704,-1952,-848,66,-172,400
6640,-592,-1944,-736,-13,-136,414
6645,-408,-1936,-624,-81,-99,420
6650,-136,-1920,-568,-132,-58,421
6655,40,-1920,-528,-163,-12,424
6660,224,-1912,-488,-168,38,426
6665,400,-1912,-528,-155,93,438
6670,528,-1920,-480,-137,146,451
6675,608,-1912,-456,-122,201,466
6680,696,-1920,-432,-124,229,476
6685,808,-1904,-352,-136,247,490
6690,792,-1856,-320,-155,263,501
6695,736,-1840,-240,-181,271,518
6700,680,-1824,-256,-191,287,532
6705,664,-1792,-224,-197,307,552
6710,592,-1760,-280,-204,330,561
6715,504,-1768,-304,-197,354,570
6720,448,-1736,-288,-169,389,573
6725,424,-1720,-296,-127,431,581
6730,344,-1712,-304,-75,477,584
6735,272,-1680,-336,-27,516,584
6740,152,-1608,-408,4,547,575
6745,192,-1560,-408,19,580,570
6750,192,-1480,-216,45,616,556
6755,152,-1432,-296,135,650,549
6760,32,-1352,-328,202,693,527
6765,-96,-1304,-416,230,747,505
6770,-120,-1264,-424,223,787,483
6775,-96,-1256,-512,210,817,466
6780,-112,-1232,-456,162,837,432
6785,-144,-1200,-448,116,849,406
6790,-184,-1152,-360,75,857,380
6795,-224,-1168,-344,53,850,361
6800,-240,-1160,-328,41,827,336
6805,-248,-1200,-368,24,798,313
6810,-264,-1232,-384,-5,764,282
6815,-296,-1280,-360,-49,747,254
6820,-312,-1328,-344,-85,736,221
6825,-320,-1376,-304,-115,723,195
6830,-296,-1440,-256,-135,706,161
6835,-336,-1480,-192,-137,688,131
6840,-344,-1536,-184,-131,668,101
6845,-320,-1584,-192,-112,649,75
6850,-264,-1656,-200,-87,634,49
6855,-264,-1656,-168,-62,626,23
6860,-248,-1728,-176,-29,623,-2
6865,-256,-1728,-184,4,618,-24
6870,-240,-1776,-192,37,610,-52
6875,-264,-1784,-208,69,602,-74
6880,-256,-1752,-216,91,595,-100
6885,-272,-1736,-152,108,590,-119
6890,-248,-1736,-152,119,579,-140
6895,-232,-1736,-120,129,572,-154
6900,-200,-1704,-64,139,572,-169
6905,-152,-1688,-24,136,578,-178
6910,-232,-1688,-24,120,586,-186
6915,-152,-1704,-32,93,588,-187
6920,-96,-1720,16,71,598,-190
6925,-80,-1768,0,64,600,-194
6930,-40,-1752,-80,57,593,-204
6935,-32,-1776,-96,45,594,-215
6940,-16,-1816,-136,29,603,-223
6945,8,-1824,-232,3,609,-234
6950,-16,-1888,-312,-35,625,-245
6955,-24,-1952,-376,-76,633,-256
6960,48,-2008,-464,-129,634,-274
6965,136,-2064,-504,-195,646,-289
6970,288,-2152,-480,-266,686,-303
6975,272,-2264,-408,-333,738,-319
6980,128,-2408,-280,-395,762,-335
6985,-72,-2504,-232,-446,740,-347
6990,-272,-2600,-160,-479,682,-346
6995,-464,-2736,-64,-490,615,-326
7000,-608,-2784,96,-476,578,-292
7005,-800,-2896,208,-437,562,-239
7010,-896,-3016,384,-381,559,-172
7015,-1000,-3136,496,-309,561,-90
7020,-1000,-3256,632,-231,560,7
7025,-968,-3400,712,-139,542,110
7030,-992,-3472,736,-48,520,223
7035,-928,-3528,784,29,490,332
7040,-960,-3512,776,124,440,448
7045,-904,-3456,744,188,380,523
7050,-880,-3368,712,238,330,587
7055,-856,-3304,696,269,286,639
7060,-800,-3144,712,292,245,678
7065,-720,-3008,720,345,214,698
7070,-760,-2840,560,433,191,709
7075,-664,-2712,288,526,153,715
7080,-480,-2528,-320,563,108,728
7085,-240,-2384,-904,497,74,737
7090,-88,-2288,-1400,301,59,727
7095,-48,-2240,-1776,79,36,703
7100,-24,-2256,-2040,-161,-17,673
7105,-96,-2336,-2208,-394,-88,637
7110,-256,-2368,-2208,-626,-183,605
7115,-416,-2408,-2056,-832,-310,590
7120,-640,-2424,-1808,-1005,-476,601
7125,-784,-2344,-1472,-1132,-675,630
7130,-744,-2344,-1160,-1205,-866,667
7135,-760,-2384,-928,-1225,-1016,677
7140,-768,-2488,-640,-1165,-1052,669
7145,-800,-2552,-520,-1025,-1034,645
7150,-816,-2608,-480,-819,-1008,613
7155,-736,-2656,-592,-579,-994,572
7160,-496,-2648,-784,-345,-993,523
7165,-128,-2608,-920,-135,-981,460
7170,344,-2560,-920,58,-948,389
7175,792,-2504,-872,248,-893,281
7180,1128,-2408,-880,424,-802,175
7185,1248,-2344,-856,504,-716,58
7190,1304,-2168,-784,529,-637,-55
7195,1336,-2072,-736,524,-582,-176
7200,1224,-2016,-688,490,-556,-289
7205,1080,-1896,-712,415,-564,-403
7210,896,-1736,-608,306,-592,-502
7215,688,-1672,-520,196,-627,-585
7220,504,-1592,-504,106,-667,-639
7225,312,-1544,-408,28,-718,-679
7230,104,-1552,-368,-6,-770,-700
7235,-48,-1512,-384,-26,-831,-723
7240,-136,-1480,-392,-45,-880,-735
7245,-240,-1424,-448,-57,-913,-744
7250,-336,-1376,-472,-53,-943,-747
7255,-384,-1304,-504,-60,-967,-752
7260,-416,-1296,-472,-75,-994,-747
7265,-456,-1264,-504,-98,-1025,-743
7270,-448,-1232,-504,-132,-1057,-722
7275,-464,-1232,-560,-163,-1062,-699
7280,-392,-1216,-592,-192,-1076,-676
7285,-352,-1208,-600,-218,-1106,-659
7290,-320,-1184,-744,-264,-1144,-641
7295,-216,-1120,-640,-338,-1181,-635
7300,-48,-1152,-616,-387,-1221,-631
7305,24,-1088,-536,-419,-1240,-647
7310,72,-1120,-536,-438,-1247,-664
7315,96,-1136,-448,-472,-1252,-689
7320,184,-1104,-336,-521,-1259,-703
7325,240,-1104,-264,-511,-1269,-725
7330,216,-1096,-256,-478,-1281,-736
7335,224,-1112,-192,-443,-1295,-736
7340,232,-1176,-184,-404,-1312,-722
7345,232,-1240,-168,-383,-1340,-713
7350,280,-1328,-88,-367,-1376,-694
7355,296,-1392,-64,-354,-1412,-676
7360,288,-1456,-56,-333,-1446,-641
7365,280,-1536,-24,-300,-1476,-622
7370,264,-1600,0,-269,-1503,-605
7375,248,-1680,0,-237,-1529,-595
7380,288,-1752,16,-209,-1550,-578
7385,328,-1816,-24,-174,-1563,-561
7390,352,-1888,-48,-124,-1559,-538
7395,296,-1944,-40,-78,-1548,-529
7400,336,-2024,-64,-43,-1543,-518
7405,320,-2048,-64,-20,-1529,-513
7410,248,-2040,-88,24,-1520,-501
7415,248,-2048,-88,75,-1512,-486
7420,192,-1976,-128,122,-1502,-459
7425,136,-1920,-128,174,-1492,-428
7430,120,-1840,-112,231,-1485,-388
7435,56,-1744,-56,293,-1484,-340
7440,64,-1648,64,352,-1496,-279
7445,32,-1552,88,409,-1517,-214
7450,24,-1560,120,449,-1549,-139
7455,-40,-1536,128,471,-1595,-50
7460,-192,-1464,112,481,-1633,32
7465,-256,-1432,112,488,-1671,113
7470,-296,-1384,120,495,-1708,191
7475,-296,-1336,128,499,-1749,264
7480,-248,-1344,104,491,-1786,336
7485,-208,-1328,64,470,-1820,402
7490,-144,-1352,-48,433,-1848,465
7495,-88,-1352,-168,385,-1867,525
7500,16,-1376,-208,327,-1885,593
7505,56,-1384,-264,248,-1890,644
7510,16,-1432,-288,183,-1896,699
7515,24,-1456,-304,122,-1928,755
7520,-24,-1520,-376,62,-1977,811
7525,-40,-1528,-392,8,-2040,864
7530,-32,-1504,-384,-37,-2101,918
7535,-24,-1472,-464,-77,-2148,969
7540,-56,-1480,-528,-117,-2170,1011
7545,-88,-1424,-512,-152,-2170,1052
7550,-144,-1368,-488,-174,-2158,1094
7555,-104,-1296,-504,-161,-2146,1137
7560,-96,-1240,-504,-113,-2131,1184
7565,-32,-1176,-600,-50,-2102,1233
7570,88,-1056,-568,-10,-2060,1272
7575,136,-944,-640,27,-2021,1297
7580,120,-800,-736,32,-1983,1311
7585,184,-672,-808,-5,-1948,1331
7590,264,-592,-880,-53,-1912,1332
7595,344,-584,-968,-119,-1862,1310
7600,408,-552,-1128,-194,-1812,1282
7605,512,-584,-1264,-306,-1743,1256
7610,536,-576,-1216,-448,-1655,1218
7615,512,-544,-1264,-589,-1576,1182
7620,528,-504,-1232,-721,-1497,1164
7625,592,-440,-1216,-840,-1420,1164
7630,736,-360,-1152,-939,-1342,1177
7635,784,-280,-1088,-997,-1264,1213
7640,808,-256,-1192,-1031,-1160,1251
7645,768,-224,-1248,-1085,-1065,1282
7650,696,-192,-1280,-1154,-969,1305
7655,584,-264,-1320,-1225,-871,1320
7660,496,-344,-1288,-1303,-775,1327
7665,408,-384,-1088,-1364,-688,1333
7670,344,-448,-984,-1404,-612,1334
7675,224,-464,-896,-1418,-552,1337
7680,184,-464,-816,-1417,-504,1336
7685,112,-456,-784,-1415,-467,1337
7690,80,-408,-768,-1415,-451,1333
7695,-16,-320,-744,-1416,-445,1331
7700,-64,-248,-816,-1427,-452,1324
7705,-128,-112,-920,-1451,-460,1316
7710,-216,0,-960,-1477,-471,1307
7715,-400,120,-1000,-1503,-483,1309
7720,-472,-104,-1192,-1542,-506,1306
7725,-584,-80,-1056,-1685,-515,1260
7730,-912,592,-552,-1757,-568,1265
7735,-1032,432,-752,-1644,-643,1365
7740,-1024,376,-752,-1609,-718,1428
7745,-1040,288,-768,-1569,-799,1487
7750,-1072,208,-744,-1553,-869,1533
7755,-1096,96,-776,-1555,-927,1583
7760,-1064,-112,-856,-1585,-977,1612
7765,-1032,-480,-952,-1708,-1010,1584
7770,-1040,-488,-840,-1882,-1018,1533
7775,-976,-584,-816,-1973,-1027,1528
7780,-840,-848,-872,-2040,-1035,1538
7785,-920,-840,-720,-2082,-1037,1538
7790,-896,-1128,-880,-2049,-1046,1554
7795,-944,-1392,-824,-2045,-1036,1546
7800,-952,-1464,-808,-2044,-1037,1529
7805,-928,-1576,-840,-1988,-1048,1543
7810,-920,-1656,-824,-1900,-1070,1561
7815,-824,-1776,-672,-1787,-1086,1604
7820,-760,-1928,-600,-1649,-1090,1679
7825,-680,-2048,-520,-1475,-1093,1752
7830,-672,-2096,-440,-1314,-1080,1829
7835,-576,-2168,-472,-1121,-1054,1922
7840,-592,-2176,-448,-952,-1014,2001
7845,-744,-2080,-352,-797,-983,2098
7850,-976,-1976,-440,-618,-969,2226
7855,-1400,-1696,-488,-515,-952,2370
7860,-1704,-1368,-448,-536,-914,2523
7865,-1808,-1184,-304,-611,-856,2724
7870,-1856,-1064,-272,-665,-776,2875
7875,-1872,-1008,-376,-687,-715,3037
7880,-1760,-1040,-680,-776,-658,3164
7885,-1536,-896,-824,-1006,-584,3243
7890,-1360,-816,-616,-1235,-486,3328
7895,-1272,-848,-552,-1390,-407,3426
7900,-1160,-912,-416,-1515,-315,3520
7905,-888,-896,-256,-1629,-199,3626
7910,-616,-1040,-264,-1713,-85,3713
7915,-216,-1104,-264,-1831,78,3733
7920,-896,-1120,-504,-1959,256,3699
7925,-2720,-928,-88,-2111,392,3651
7930,-1640,-456,1200,-2106,448,3747
7935,-3176,-992,-1128,-1370,481,4185
7940,-4200,304,-840,-1038,591,4543
7945,-6920,1368,-1528,-908,911,4942
7950,-7328,1000,-344,-956,1229,5325
7955,-5544,3000,-3448,-306,1277,5643
7960,-7672,1600,-5496,54,2371,6114
7965,-10000,2984,-7856,-15,3577,5880
7970,-8528,1880,-6232,-675,4644,5884
7975,-9272,3648,-7312,-1187,5029,5768
7980,-9168,3688,-6832,-1898,5222,5788
7985,-9560,5000,-7640,-2431,5039,5549
7990,-7920,4344,-7208,-2724,4772,5051
7995,-6888,1664,-6856,-2308,4490,4305
8000,-4008,-1176,-6528,-1739,4371,3595
8005,-472,-3960,-6376,-1577,4184,2487
8010,648,-5496,-6592,-1738,3885,1337
8015,136,-5024,-6136,-1890,3670,307
8020,-872,-3096,-4544,-1898,3288,-393
8025,-1776,-1792,-3440,-1646,2824,-719
8030,-2256,-648,-3328,-1276,2281,-899
8035,-3048,0,-3384,-1024,1787,-1076
8040,-3296,-16,-3016,-917,1461,-1281
8045,-3832,-520,-2824,-811,1249,-1490
8050,-4336,-624,-2464,-716,1099,-1688
8055,-4688,-296,-2112,-737,932,-1755
8060,-3736,-360,-2040,-845,806,-1684
8065,-3720,-832,-2040,-978,769,-1627
8070,-3832,160,-1696,-1085,757,-1617
8075,-3576,784,-1560,-1087,694,-1476
8080,-3544,1104,-1456,-1108,591,-1335
8085,-3360,1288,-1560,-1172,478,-1196
8090,-3232,1256,-1512,-1282,380,-1082
8095,-3168,1120,-1608,-1495,298,-975
8100,-2984,768,-1648,-1868,222,-893
8105,-2840,448,-1520,-2208,180,-848
8110,-2648,480,-1232,-2472,112,-798
8115,-2472,664,-920,-2557,2,-681
8120,-1992,760,-872,-2465,-154,-500
8125,-1672,784,-888,-2282,-308,-320
8130,-1240,888,-808,-2059,-435,-192
8135,-776,1000,-760,-1810,-527,-93
8140,-488,1168,-768,-1575,-578,-34
8145,-272,1408,-872,-1374,-613,-11
8150,-48,1416,-904,-1285,-632,-21
8155,-16,1392,-944,-1236,-661,-72
8160,40,1376,-976,-1194,-715,-137
8165,144,1232,-1056,-1130,-768,-187
8170,216,1048,-1064,-1060,-801,-220
8175,184,872,-1040,-997,-823,-239
8180,64,752,-1088,-951,-842,-246
8185,80,592,-1080,-909,-844,-247
8190,80,512,-1088,-856,-821,-251
8195,64,456,-1096,-802,-801,-266
8200,48,360,-1168,-775,-785,-289
8205,-40,280,-1152,-764,-781,-333
8210,-96,112,-1032,-748,-767,-382
8215,-176,104,-928,-684,-740,-425
8220,-288,88,-896,-589,-710,-455
8225,-392,64,-808,-486,-667,-477
8230,-440,32,-752,-403,-626,-501
8235,-480,80,-720,-344,-578,-543
8240,-624,280,-704,-320,-528,-566
8245,-808,544,-680,-354,-485,-583
8250,-1112,864,-584,-422,-452,-596
8255,-1232,1000,-560,-483,-435,-606
8260,-1224,968,-472,-533,-416,-631
8265,-1280,872,-392,-519,-391,-664
8270,-1408,768,-472,-397,-352,-682
8275,-1400,640,-496,-240,-290,-699
8280,-1520,504,-416,-79,-242,-722
8285,-1464,392,-416,136,-223,-727
8290,-1624,248,-392,344,-181,-741
8295,-1432,152,-432,556,-129,-764
8300,-1312,168,-528,817,-24,-772
8305,-1224,224,-640,1095,98,-756
8310,-1240,264,-744,1304,189,-732
8315,-1248,584,-800,1434,247,-698
8320,-1336,992,-840,1515,270,-612
8325,-1384,1224,-872,1525,286,-524
8330,-1344,1344,-936,1535,329,-483
8335,-1288,1296,-880,1549,375,-476
8340,-1272,1288,-872,1558,400,-493
8345,-1296,1280,-896,1559,404,-509
8350,-1264,1376,-824,1570,397,-500
8355,-1320,1456,-576,1603,414,-473
8360,-1608,1736,-672,1677,436,-413
8365,-1920,1880,-816,1705,435,-315
8370,-1768,1944,-968,1690,489,-158
8375,-1672,1864,-944,1617,637,-46
8380,-1744,2008,-968,1536,815,34
8385,-1824,2208,-1072,1470,996,129
8390,-1536,2432,-1432,1389,1189,258
8395,-1336,2448,-1712,1216,1389,392
8400,-1280,2304,-1920,943,1540,510
8405,-1168,2040,-2056,609,1600,589
8410,-1128,1816,-2144,247,1558,609
8415,-1168,1664,-2136,-101,1400,563
8420,-1296,1520,-2088,-476,1211,495
8425,-1408,1384,-1936,-717,1018,409
8430,-1544,1272,-1696,-862,854,332
8435,-1720,1144,-1648,-909,736,265
8440,-1992,1152,-1640,-872,661,229
8445,-2096,1160,-1784,-771,615,225
8450,-2152,1128,-1904,-649,604,244
8455,-2160,1128,-2008,-560,614,257
8460,-2160,1144,-2104,-520,620,268
8465,-2216,1096,-2144,-520,590,251
8470,-2256,1056,-2128,-544,524,218
8475,-2272,1000,-2160,-559,429,167
8480,-2280,928,-2200,-562,315,118
8485,-2232,856,-2232,-547,191,62
8490,-2160,784,-2248,-500,81,17
8495,-2096,736,-2232,-432,-5,-31
8500,-1920,736,-2176,-352,-64,-66
8505,-1744,752,-2144,-267,-105,-94
8510,-1600,792,-2096,-187,-137,-101
8515,-1472,864,-2080,-149,-153,-103
8520,-1352,888,-2024,-135,-172,-101
8525,-1256,896,-1992,-134,-192,-101
8530,-1224,896,-1968,-141,-205,-92
8535,-1136,880,-1952,-163,-217,-85
8540,-1096,776,-1904,-193,-226,-73
8545,-1040,696,-1792,-209,-229,-63
8550,-976,592,-1752,-206,-230,-51
8555,-952,472,-1648,-174,-226,-46
8560,-896,376,-1592,-127,-221,-36
8565,-872,256,-1544,-63,-212,-31
8570,-848,176,-1520,19,-199,-23
8575,-784,136,-1488,107,-182,-19
8580,-768,120,-1472,198,-159,-14
8585,-720,88,-1488,281,-136,-14
8590,-720,72,-1536,353,-112,-14
8595,-704,64,-1512,414,-88,-23
8600,-696,112,-1576,472,-62,-31
8605,-688,136,-1584,508,-46,-46
8610,-704,168,-1624,531,-33,-60
8615,-744,192,-1656,545,-22,-75
8620,-744,224,-1672,545,-14,-89
8625,-776,232,-1640,535,-7,-107
8630,-808,264,-1656,514,-4,-130
8635,-872,248,-1648,483,-7,-155
8640,-952,256,-1616,446,-12,-183
8645,-1016,216,-1552,395,-22,-208
8650,-1056,248,-1512,353,-32,-226
8655,-1120,256,-1520,319,-49,-241
8660,-1152,296,-1488,286,-72,-248
8665,-1184,336,-1496,252,-90,-258
8670,-1216,328,-1480,218,-111,-266
8675,-1240,328,-1520,183,-142,-268
8680,-1280,344,-1544,146,-179,-269
8685,-1320,304,-1592,105,-225,-271
8690,-1320,296,-1600,61,-285,-274
8695,-1368,256,-1648,30,-337,-275
8700,-1384,200,-1728,6,-384,-274
8705,-1408,160,-1728,-10,-427,-269
8710,-1448,104,-1752,-17,-463,-258
8715,-1496,48,-1760,-20,-495,-249
8720,-1544,8,-1760,-18,-522,-235
8725,-1536,-96,-1760,-10,-549,-226
8730,-1520,-144,-1776,-2,-565,-230
8735,-1520,-168,-1800,16,-567,-235
8740,-1528,-208,-1816,53,-559,-240
8745,-1608,-144,-1816,98,-537,-249
8750,-1656,-72,-1808,145,-514,-236
8755,-1656,-120,-1768,171,-500,-218
8760,-1640,-144,-1760,187,-491,-211
8765,-1664,-152,-1728,201,-491,-207
8770,-1640,-152,-1728,213,-491,-206
8775,-1656,-72,-1704,240,-476,-200
8780,-1664,-56,-1760,264,-463,-171
8785,-1664,-32,-1704,276,-455,-149
8790,-1664,-32,-1728,277,-443,-133
8795,-1640,-24,-1664,281,-431,-117
8800,-1640,-24,-1688,285,-415,-99
8805,-1640,-16,-1632,288,-395,-83
8810,-1640,32,-1648,292,-371,-71
8815,-1688,40,-1608,290,-343,-59
8820,-1680,40,-1552,294,-318,-48
8825,-1680,64,-1528,296,-292,-32
8830,-1640,72,-1480,297,-267,-20
8835,-1608,96,-1432,291,-238,-6
8840,-1608,120,-1424,281,-209,2
8845,-1608,88,-1368,270,-182,11
8850,-1608,120,-1336,255,-155,16
8855,-1616,72,-1296,240,-132,24
8860,-1624,88,-1240,222,-112,27
8865,-1624,80,-1256,204,-94,34
8870,-1624,56,-1208,186,-82,41
8875,-1640,48,-1176,168,-66,47
8880,-1640,48,-1136,153,-58,48
8885,-1640,24,-1160,140,-53,50
8890,-1648,24,-1152,131,-43,48
8895,-1648,48,-1184,127,-40,49
8900,-1688,72,-1184,123,-40,50
8905,-1600,72,-1264,119,-34,55
8910,-1552,48,-1296,116,-22,57
8915,-1544,80,-1296,116,-3,60
8920,-1528,72,-1336,117,22,60
8925,-1496,64,-1296,121,41,64
8930,-1496,72,-1280,126,60,63
8935,-1512,80,-1304,130,75,69
8940,-1504,104,-1304,134,90,69
8945,-1504,112,-1296,136,106,74
8950,-1512,112,-1352,137,119,73
8955,-1512,136,-1344,134,134,77
8960,-1512,120,-1328,128,148,74
8965,-1536,136,-1376,121,166,76
8970,-1560,192,-1392,115,178,73
8975,-1576,192,-1416,109,194,74
8980,-1552,168,-1416,102,208,70
8985,-1568,192,-1456,95,222,72
8990,-1568,224,-1472,85,237,68
8995,-1568,216,-1472,72,251,69
9000,-1552,192,-1472,54,262,67
9005,-1560,184,-1480,34,270,69
9010,-1536,168,-1488,12,280,66
9015,-1544,192,-1496,-5,286,68
9020,-1544,152,-1496,-20,291,64
9025,-1536,128,-1464,-32,294,66
9030,-1528,136,-1496,-45,296,64
9035,-1536,128,-1496,-52,297,65
9040,-1528,96,-1472,-57,297,61
9045,-1512,64,-1488,-57,295,63
9050,-1536,104,-1496,-54,291,62
9055,-1568,104,-1496,-54,284,63
9060,-1544,104,-1528,-48,277,58
9065,-1536,96,-1512,-41,269,60
9070,-1536,120,-1544,-37,261,54
9075,-1536,128,-1584,-34,252,55
9080,-1504,152,-1584,-32,241,49
9085,-1504,152,-1624,-34,233,48
9090,-1512,168,-1608,-36,223,42
9095,-1512,184,-1592,-44,214,40
9100,-1480,168,-1608,-51,203,32
9105,-1480,176,-1568,-60,194,29
9110,-1496,152,-1568,-66,184,23
9115,-1504,168,-1544,-70,173,20
9120,-1480,120,-1496,-71,160,15
9125,-1464,128,-1528,-68,149,14
9130,-1480,120,-1544,-66,140,9
9135,-1472,144,-1504,-63,132,11
9140,-1472,136,-1528,-59,124,9
9145,-1456,120,-1536,-57,120,11
9150,-1504,160,-1528,-57,116,9
9155,-1496,176,-1512,-59,113,11
9160,-1480,144,-1520,-60,111,8
9165,-1488,136,-1512,-61,108,10
9170,-1472,128,-1512,-63,105,6
9175,-1464,120,-1528,-62,100,8
9180,-1456,120,-1504,-59,92,8
9185,-1464,128,-1512,-56,87,9
9190,-1480,120,-1496,-49,84,7
9195,-1448,96,-1488,-42,80,7
9200,-1464,120,-1496,-34,78,5
9205,-1464,96,-1512,-28,76,8
9210,-1456,136,-1496,-22,72,5
9215,-1472,112,-1520,-18,72,6
9220,-1464,128,-1504,-14,68,5
9225,-1472,136,-1536,-9,65,6
9230,-1488,112,-1528,-6,62,5
9235,-1504,152,-1544,-3,57,3
9240,-1480,128,-1528,0,54,1
9245,-1512,144,-1528,2,51,1
9250,-1512,152,-1528,3,49,0
9255,-1520,136,-1528,4,42,1
9260,-1496,120,-1512,6,38,0
9265,-1512,152,-1504,7,35,1
9270,-1496,144,-1528,5,31,2
9275,-1496,152,-1520,4,29,3
9280,-1512,144,-1520,3,27,1
9285,-1496,160,-1512,3,27,2
9290,-1496,168,-1520,-1,28,1
9295,-1512,128,-1512,-3,30,-1
9300,-1488,168,-1496,-6,33,-1
9305,-1488,136,-1496,-11,36,-2
9310,-1472,136,-1512,-16,37,-2
9315,-1488,120,-1504,-19,36,-5
9320,-1512,128,-1496,-20,34,-4
9325,-1504,144,-1504,-19,32,-5
9330,-1488,152,-1504,-19,28,-5
9335,-1520,152,-1488,-21,31,-5
9340,-1496,128,-1488,-17,32,-6
9345,-1504,144,-1480,-15,34,-7
9350,-1488,112,-1488,-14,35,-8
9355,-1512,152,-1504,-12,36,-9
9360,-1520,120,-1496,-9,39,-10
9365,-1504,120,-1512,-10,41,-11
9370,-1488,152,-1504,-9,42,-11
9375,-1488,128,-1504,-8,42,-12
9380,-1504,128,-1488,-10,43,-13
9385,-1480,112,-1504,-12,43,-12
9390,-1496,160,-1488,-11,45,-11
9395,-1488,112,-1488,-11,44,-10
9400,-1504,152,-1496,-9,44,-9
9405,-1504,128,-1488,-5,45,-11
9410,-1496,128,-1488,-4,45,-9
9415,-1496,112,-1480,-2,45,-9
9420,-1496,104,-1496,-2,46,-8
9425,-1504,128,-1488,-1,48,-9
9430,-1512,144,-1496,0,50,-7
9435,-1488,104,-1480,-1,51,-6
9440,-1504,136,-1488,-4,51,-4
9445,-1496,120,-1504,-6,53,-5
9450,-1488,120,-1504,-10,55,-4
9455,-1488,112,-1504,-12,54,-6
9460,-1480,96,-1504,-11,54,-4
9465,-1496,128,-1472,-9,54,-6
9470,-1472,112,-1472,-10,53,-5
9475,-1488,192,-1504,-8,53,-7
9480,-1496,96,-1392,-10,54,-4
9485,-1512,104,-1488,-7,55,-5
9490,-1520,128,-1488,-5,55,-7
9495,-1512,128,-1512,-7,55,-9
9500,-1512,128,-1488,-9,56,-5
9505,-1528,112,-1488,-12,59,-3
9510,-1504,104,-1512,-9,62,0
9515,-1512,104,-1520,-8,60,-4
9520,-1528,120,-1504,-10,60,1
9525,-1504,112,-1488,-13,64,2
9530,-1504,144,-1512,-17,66,6
9535,-1504,144,-1496,-22,67,7
9540,-1488,144,-1488,-30,69,12
9545,-1512,152,-1496,-34,71,11
9550,-1512,120,-1496,-38,72,13
9555,-1472,112,-1504,-39,73,11
9560,-1520,120,-1496,-39,75,14
9565,-1520,120,-1504,-35,75,10
9570,-1504,144,-1488,-30,74,10
9575,-1520,128,-1504,-28,73,7
9580,-1528,152,-1480,-25,74,9
9585,-1504,136,-1488,-21,76,7
9590,-1504,136,-1504,-21,77,9
9595,-1512,144,-1520,-21,79,5
9600,-1496,152,-1496,-22,80,6
9605,-1488,144,-1512,-23,82,4
9610,-1504,128,-1496,-24,84,7
9615,-1480,128,-1520,-24,87,5
9620,-1472,120,-1520,-29,87,7
9625,-1496,144,-1520,-32,85,7
9630,-1464,152,-1488,-33,85,9
9635,-1488,136,-1496,-35,84,8
9640,-1480,128,-1472,-37,83,9
9645,-1488,112,-1496,-36,82,6
9650,-1480,136,-1480,-32,83,8
9655,-1480,120,-1496,-25,82,5
9660,-1488,128,-1520,-20,84,6
9665,-1472,136,-1496,-16,85,6
9670,-1472,136,-1528,-13,87,8
9675,-1496,120,-1504,-9,87,5
9680,-1488,128,-1520,-7,87,8
9685,-1504,120,-1504,-5,85,7
9690,-1464,136,-1512,-4,82,10
9695,-1488,136,-1536,-6,80,8
9700,-1472,136,-1520,-7,82,12
9705,-1496,128,-1520,-3,81,11
9710,-1488,136,-1536,-3,76,9
9715,-1480,144,-1552,-4,73,6
9720,-1496,144,-1512,-4,72,6
9725,-1448,152,-1488,-1,71,5
9730,-1512,96,-1504,7,70,11
9735,-1528,128,-1520,16,62,2
9740,-1496,144,-1544,18,57,4
9745,-1480,168,-1552,15,60,-1
9750,-1496,136,-1504,14,63,0
9755,-1512,168,-1536,15,63,-2
9760,-1504,192,-1504,13,63,-1
9765,-1496,152,-1520,7,60,-2
9770,-1480,128,-1512,2,58,-2
9775,-1488,176,-1504,-3,56,-2
9780,-1512,160,-1504,-8,55,0
9785,-1496,152,-1480,-11,56,0
9790,-1488,136,-1504,-16,57,2
9795,-1488,144,-1512,-19,59,0
9800,-1504,160,-1496,-21,62,3
9805,-1504,128,-1520,-19,61,0
9810,-1504,168,-1488,-20,65,0
9815,-1488,152,-1536,-17,69,0
9820,-1496,168,-1496,-16,71,0
9825,-1472,160,-1488,-18,74,-2
9830,-1336,192,-1528,-20,77,0
9835,-1560,96,-1504,-17,91,10
9840,-1528,104,-1496,-14,81,0
9845,-1480,96,-1464,-12,76,4
9850,-1512,96,-1568,-6,71,2
9855,-1520,152,-1512,-5,68,-1
9860,-1496,168,-1504,-6,69,0
9865,-1512,176,-1536,-8,72,1
9870,-1520,152,-1528,-12,74,2
9875,-1496,136,-1504,-16,76,2
9880,-1528,152,-1520,-21,77,2
9885,-1512,152,-1536,-23,76,-2
9890,-1528,136,-1536,-25,75,0
9895,-1496,128,-1520,-24,75,-1
9900,-1512,112,-1504,-24,73,0
9905,-1464,128,-1512,-25,72,2
9910,-1496,136,-1512,-26,73,2
9915,-1480,136,-1488,-25,74,4
9920,-1480,120,-1512,-25,76,4
9925,-1480,112,-1480,-23,80,5
9930,-1488,128,-1504,-21,83,6
9935,-1488,104,-1512,-21,86,7
9940,-1496,128,-1512,-21,88,10
9945,-1472,104,-1480,-22,90,10
9950,-1480,112,-1512,-22,92,10
9955,-1480,120,-1512,-21,92,11
9960,-1472,128,-1528,-19,92,11
9965,-1472,104,-1504,-19,92,13
9970,-1480,120,-1528,-19,90,14
9975,-1472,152,-1520,-17,86,13
9980,-1488,152,-1480,-17,86,12
9985,-1488,144,-1528,-14,82,11
9990,-1504,144,-1496,-14,80,10
9995,-1472,136,-1536,-12,79,10
10000,-1480,144,-1552,-10,79,7
10005,-1528,136,-1520,-8,78,7
10010,-1496,144,-1528,-5,79,6
10015,-1512,144,-1528,-6,79,8
10020,-1520,136,-1544,-6,81,8
10025,-1464,128,-1512,-4,81,10
10030,-1472,136,-1496,-6,81,9
10035,-1456,136,-1520,-5,81,12
10040,-1488,136,-1512,-4,82,11
10045,-1504,136,-1536,-4,79,12
10050,-1480,144,-1536,-5,79,9
10055,-1472,160,-1536,-9,79,11
10060,-1448,160,-1544,-12,78,8
10065,-1456,136,-1512,-15,76,9
10070,-1432,152,-1496,-17,74,6
10075,-1464,152,-1496,-14,75,10
10080,-1432,56,-1464,-2,83,19
10085,-1560,112,-1512,13,76,11
10090,-1520,128,-1544,22,65,5
10095,-1504,144,-1552,26,66,7
10100,-1488,120,-1512,26,74,6
10105,-1528,160,-1528,38,76,1
10110,-1544,160,-1560,45,71,-1
10115,-1528,152,-1592,39,69,0
10120,-1528,160,-1560,34,71,-7
10125,-1528,160,-1552,31,72,-6
10130,-1512,136,-1544,35,70,-10
10135,-1528,136,-1520,41,72,-10
10140,-1552,144,-1544,51,77,-17
10145,-1552,128,-1552,59,81,-21
10150,-1528,128,-1488,69,87,-30
10155,-1536,136,-1504,76,95,-30
10160,-1480,128,-1544,80,108,-39
10165,-1544,136,-1560,88,128,-44
10170,-1560,160,-1520,91,145,-49
10175,-1520,128,-1528,93,162,-49
10180,-1528,128,-1544,102,175,-56
10185,-1528,128,-1544,111,186,-54
10190,-1528,104,-1560,120,196,-55
10195,-1520,136,-1576,125,201,-52
10200,-1544,144,-1560,126,209,-50
10205,-1496,160,-1592,126,216,-43
10210,-1496,152,-1600,121,221,-39
10215,-1480,136,-1600,115,228,-29
10220,-1456,160,-1568,112,229,-24
10225,-1440,128,-1544,106,231,-15
10230,-1408,128,-1560,100,234,-13
10235,-1408,144,-1584,95,232,-4
10240,-1384,112,-1592,85,229,-3
10245,-1360,128,-1600,78,225,6
10250,-1336,144,-1568,68,216,8
10255,-1384,152,-1560,63,205,14
10260,-1376,144,-1520,62,187,17
10265,-1424,144,-1544,68,165,27
10270,-1456,232,-1488,90,143,50
10275,-1472,232,-1488,147,111,95
10280,-1400,256,-1464,177,78,118
10285,-1376,232,-1472,184,44,131
10290,-1376,224,-1504,183,18,132
10295,-1400,200,-1504,176,3,133
10300,-1424,176,-1544,171,-10,128
10305,-1392,152,-1480,167,-23,128
10310,-1400,144,-1488,159,-35,122
10315,-1368,112,-1480,155,-46,120
10320,-1384,104,-1520,149,-59,112
10325,-1400,112,-1504,141,-73,108
10330,-1376,104,-1488,132,-89,101
10335,-1360,128,-1504,120,-100,102
10340,-1344,64,-1496,106,-107,99
10345,-1312,56,-1536,96,-106,99
10350,-1312,48,-1512,88,-97,92
10355,-1320,64,-1528,79,-89,83
10360,-1328,56,-1536,76,-84,67
10365,-1328,40,-1536,71,-84,55
10370,-1368,80,-1552,64,-89,42
10375,-1392,96,-1512,57,-92,34
10380,-1432,88,-1496,53,-102,26
10385,-1448,128,-1544,50,-113,25
10390,-1464,120,-1528,44,-124,21
10395,-1496,128,-1568,35,-130,23
10400,-1488,96,-1560,22,-130,20
10405,-1488,80,-1552,8,-126,16
10410,-1480,40,-1576,-10,-122,9
10415,-1504,0,-1568,-34,-114,-6
10420,-1520,-8,-1560,-53,-108,-17
10425,-1552,16,-1536,-60,-100,-20
10430,-1496,-16,-1528,-58,-97,-21
10435,-1528,0,-1544,-57,-91,-16
10440,-1512,-16,-1576,-63,-86,-15
10445,-1536,8,-1512,-70,-80,-12
10450,-1536,32,-1544,-74,-75,-7
10455,-1536,16,-1528,-80,-72,-3
10460,-1472,16,-1552,-83,-71,1
10465,-1544,32,-1544,-83,-66,5
10470,-1560,56,-1496,-84,-67,13
10475,-1552,48,-1520,-93,-65,17
10480,-1536,72,-1488,-93,-58,20
10485,-1528,72,-1488,-92,-52,24
10490,-1544,56,-1488,-89,-47,28
10495,-1568,88,-1472,-89,-44,30
10500,-1552,56,-1480,-84,-50,36
10505,-1520,64,-1472,-84,-56,35
10510,-1504,80,-1472,-82,-59,40
10515,-1512,64,-1440,-79,-58,41
10520,-1496,72,-1448,-72,-59,41
10525,-1504,64,-1472,-64,-62,40
10530,-1528,96,-1464,-57,-65,39
10535,-1520,96,-1464,-51,-68,38
10540,-1520,88,-1464,-47,-69,38
10545,-1520,112,-1464,-42,-67,38
10550,-1520,112,-1464,-39,-63,39
10555,-1528,128,-1472,-38,-53,40
10560,-1512,128,-1432,-39,-42,39
10565,-1488,96,-1464,-39,-25,38
10570,-1496,72,-1464,-34,-14,38
10575,-1520,112,-1432,-30,-3,34
10580,-1496,88,-1432,-27,6,33
10585,-1480,144,-1416,-27,14,30
10590,-1488,136,-1400,-26,21,35
10595,-1456,144,-1408,-27,33,34
10600,-1496,160,-1416,-32,44,35
10605,-1480,160,-1416,-36,51,30
10610,-1464,152,-1416,-43,58,25
10615,-1464,144,-1432,-45,62,21
10620,-1456,144,-1448,-45,68,19
10625,-1440,104,-1464,-40,71,14
10630,-1488,120,-1448,-34,67,12
10635,-1472,128,-1456,-27,63,10
10640,-1488,144,-1480,-21,59,11
10645,-1488,152,-1504,-18,54,5
10650,-1552,160,-1488,-17,51,2
10655,-1536,144,-1504,-18,46,-3
10660,-1560,128,-1560,-17,43,-2
10665,-1568,120,-1552,-21,42,-4
10670,-1568,160,-1552,-22,41,1
10675,-1552,176,-1552,-26,44,-2
10680,-1552,152,-1552,-31,50,-1
10685,-1520,176,-1544,-37,58,-6
10690,-1512,192,-1552,-47,64,-4
10695,-1512,200,-1520,-56,68,-9
10700,-1496,176,-1544,-66,66,-10
10705,-1520,200,-1520,-73,59,-16
10710,-1488,176,-1512,-79,52,-17
10715,-1488,184,-1488,-82,46,-21
10720,-1496,184,-1480,-81,41,-22
10725,-1504,176,-1504,-77,37,-26
10730,-1496,160,-1528,-74,33,-28
10735,-1528,184,-1496,-71,32,-34
10740,-1496,168,-1520,-68,33,-35
10745,-1504,184,-1504,-65,34,-42
10750,-1496,176,-1480,-65,35,-42
10755,-1488,160,-1496,-66,33,-46
10760,-1512,144,-1480,-69,29,-47
10765,-1520,160,-1464,-75,26,-52
10770,-1504,152,-1496,-80,21,-49
10775,-1528,128,-1504,-85,11,-53
10780,-1528,152,-1496,-90,3,-49
10785,-1504,112,-1472,-94,-5,-51
10790,-1536,96,-1472,-96,-13,-48
10795,-1520,88,-1504,-94,-20,-48
10800,-1544,72,-1480,-88,-23,-43
10805,-1552,64,-1472,-81,-28,-41
10810,-1576,40,-1472,-69,-30,-36
10815,-1568,56,-1448,-54,-31,-36
10820,-1600,32,-1464,-38,-30,-30
10825,-1592,16,-1496,-23,-29,-26
10830,-1608,64,-1504,-7,-24,-18
10835,-1592,24,-1536,3,-19,-13
10840,-1608,72,-1520,13,-11,-6
10845,-1616,96,-1512,20,-7,-6
10850,-1584,56,-1560,29,-2,-3
10855,-1592,96,-1560,39,-3,-3
10860,-1544,112,-1496,48,-5,2
10865,-1568,144,-1536,51,-6,2
10870,-1576,160,-1480,52,-8,5
10875,-1552,136,-1480,51,-14,4
10880,-1560,112,-1488,46,-18,5
10885,-1520,112,-1480,41,-20,2
10890,-1544,128,-1464,36,-22,7
10895,-1536,112,-1464,33,-24,6
10900,-1544,152,-1472,29,-21,10
10905,-1520,128,-1432,26,-20,10
10910,-1536,168,-1448,25,-17,14
10915,-1520,120,-1464,23,-11,13
10920,-1536,152,-1424,20,-6,13
10925,-1552,144,-1440,16,-1,12
10930,-1544,136,-1432,10,3,14
10935,-1576,144,-1440,7,7,11
10940,-1568,136,-1448,4,8,8
10945,-1536,96,-1432,4,11,6
10950,-1536,128,-1456,8,13,8
10955,-1568,104,-1448,8,14,10
10960,-1536,120,-1448,9,15,11
10965,-1568,128,-1472,10,18,8
10970,-1584,120,-1440,13,20,9
10975,-1568,112,-1472,18,23,6
10980,-1560,120,-1480,22,23,6
10985,-1552,136,-1448,24,26,4
10990,-1568,176,-1488,24,28,3
10995,-1560,160,-1464,24,28,1
11000,-1552,176,-1488,23,29,-1
11005,-1560,184,-1480,22,29,-2
11010,-1552,168,-1480,17,31,-5
11015,-1552,168,-1464,11,31,-10
11020,-1560,152,-1480,5,32,-11
11025,-1544,144,-1472,1,31,-14
11030,-1552,112,-1448,0,30,-14
11035,-1552,128,-1424,0,33,-15
11040,-1528,104,-1464,1,35,-14
11045,-1528,128,-1464,-2,38,-14
11050,-1520,104,-1464,-4,42,-12
11055,-1536,128,-1456,-7,44,-11
11060,-1528,104,-1456,-13,47,-10
11065,-1544,128,-1472,-18,45,-7
11070,-1528,136,-1448,-22,45,-6
11075,-1528,112,-1464,-27,45,-7
11080,-1544,128,-1456,-29,44,-7
11085,-1528,128,-1472,-30,41,-7
11090,-1536,136,-1456,-29,39,-11
11095,-1552,128,-1464,-27,37,-11
11100,-1560,128,-1472,-26,34,-13
11105,-1544,104,-1472,-24,31,-15
11110,-1560,112,-1472,-23,30,-15
11115,-1560,120,-1464,-20,27,-15
11120,-1552,112,-1464,-19,27,-13
11125,-1536,96,-1456,-19,28,-12
11130,-1552,112,-1432,-19,30,-12
11135,-1544,112,-1456,-18,30,-8
11140,-1552,120,-1448,-20,31,-7
11145,-1544,104,-1448,-19,33,-4
11150,-1560,112,-1448,-20,37,-3
11155,-1536,120,-1408,-21,39,-1
11160,-1568,120,-1464,-21,42,1
11165,-1568,112,-1440,-20,44,1
11170,-1544,104,-1448,-20,45,0
11175,-1568,112,-1440,-22,47,3
11180,-1568,144,-1448,-22,47,1
11185,-1576,128,-1472,-24,51,2
11190,-1568,112,-1448,-24,54,3
11195,-1568,128,-1456,-25,54,6
11200,-1560,88,-1464,-26,54,5
11205,-1560,120,-1448,-29,56,8
11210,-1528,120,-1448,-29,57,10
11215,-1528,88,-1448,-29,57,12
11220,-1560,104,-1440,-28,58,11
11225,-1552,88,-1440,-27,58,13
11230,-1560,104,-1448,-23,58,13
11235,-1568,104,-1456,-22,58,17
11240,-1560,104,-1448,-20,57,16
11245,-1560,104,-1448,-18,59,19
11250,-1552,96,-1448,-16,59,18
11255,-1552,112,-1472,-13,59,19
11260,-1544,128,-1488,-11,57,16
11265,-1552,104,-1464,-8,55,16
11270,-1544,112,-1456,-1,55,14
11275,-1568,104,-1464,2,56,18
11280,-1552,112,-1464,4,55,16
11285,-1576,112,-1448,5,57,19
11290,-1568,120,-1448,2,57,18
11295,-1544,128,-1464,2,58,21
11300,-1560,120,-1464,-1,57,22
11305,-1560,104,-1472,-3,57,25
11310,-1560,104,-1488,-5,55,22
11315,-1544,112,-1472,-9,54,25
11320,-1552,144,-1464,-8,53,23
11325,-1552,112,-1456,-8,53,24
11330,-1560,136,-1480,-6,51,22
11335,-1552,136,-1472,-6,52,23
11340,-1536,136,-1456,-5,51,20
11345,-1528,128,-1432,-6,50,22
11350,-1528,120,-1456,-7,47,17
11355,-1528,120,-1456,-8,46,19
11360,-1528,112,-1464,-7,45,15
11365,-1552,120,-1464,-7,44,16
11370,-1560,136,-1488,-6,43,13
11375,-1520,128,-1464,-4,44,15
11380,-1544,152,-1440,-5,45,12
11385,-1568,144,-1440,-5,46,13
11390,-1544,144,-1464,-6,49,9
11395,-1544,128,-1456,-8,51,10
11400,-1536,128,-1480,-10,50,6
11405,-1544,136,-1472,-11,52,7
11410,-1568,152,-1456,-11,51,4
11415,-1560,144,-1456,-14,51,6
11420,-1544,136,-1432,-15,52,4
11425,-1560,144,-1448,-17,51,6
11430,-1560,120,-1456,-19,51,5
11435,-1528,104,-1456,-20,50,5
11440,-1560,136,-1448,-21,48,4
11445,-1560,136,-1448,-20,47,5
11450,-1544,128,-1448,-17,48,4
11455,-1560,128,-1440,-17,47,6
11460,-1544,160,-1440,-17,47,3
11465,-1560,168,-1456,-16,49,4
11470,-1560,144,-1448,-15,51,3
11475,-1584,136,-1456,-15,52,2
11480,-1584,152,-1472,-15,53,-1
11485,-1544,144,-1464,-16,54,2
11490,-1544,128,-1432,-17,56,-2
11495,-1560,136,-1464,-18,55,-2
11500,-1568,120,-1456,-18,54,-4
11505,-1560,128,-1464,-16,53,-3
11510,-1584,136,-1472,-15,51,-5
11515,-1576,136,-1472,-14,48,-3
11520,-1552,152,-1472,-12,49,-6
11525,-1560,152,-1496,-10,49,-5
11530,-1576,144,-1480,-7,48,-7
11535,-1560,144,-1432,-8,49,-7
11540,-1576,152,-1464,-9,47,-10
11545,-1576,136,-1464,-8,47,-8
11550,-1576,136,-1464,-8,45,-11
11555,-1544,120,-1472,-9,45,-10
11560,-1552,128,-1472,-9,46,-10
11565,-1568,144,-1464,-10,47,-8
11570,-1560,128,-1432,-10,48,-9
11575,-1560,136,-1432,-9,48,-8
11580,-1576,128,-1448,-11,50,-9
11585,-1536,128,-1464,-12,52,-7
11590,-1552,112,-1464,-16,53,-7
11595,-1528,136,-1416,-19,53,-2
11600,-1552,112,-1440,-21,55,1
11605,-1584,96,-1456,-20,51,-4
11610,-1568,120,-1464,-20,47,-6
11615,-1552,112,-1448,-18,45,-2
11620,-1560,112,-1464,-18,42,-3
11625,-1560,144,-1456,-19,39,-3
11630,-1544,104,-1456,-20,36,-5
11635,-1552,136,-1472,-19,35,-5
11640,-1544,104,-1448,-18,35,-6
11645,-1568,112,-1432,-16,35,-5
11650,-1576,128,-1472,-15,36,-7
11655,-1552,128,-1480,-12,37,-6
11660,-1560,88,-1448,-12,38,-8
11665,-1576,112,-1456,-10,36,-6
11670,-1592,120,-1432,-8,36,-6
11675,-1552,120,-1456,-7,34,-6
11680,-1560,104,-1480,-8,33,-2
11685,-1568,104,-1424,-10,32,0
11690,-1560,88,-1456,-11,34,2
11695,-1552,152,-1448,-10,36,3
11700,-1584,128,-1440,-9,41,8
11705,-1592,144,-1456,-7,43,6
11710,-1560,152,-1464,-8,43,3
11715,-1560,160,-1448,-7,46,3
11720,-1568,152,-1432,-6,47,3
11725,-1560,152,-1432,-10,47,1
11730,-1544,112,-1416,-11,48,2
11735,-1568,120,-1440,-9,48,1
11740,-1584,120,-1440,-7,45,-4
11745,-1584,112,-1448,-8,49,-2
11750,-1576,104,-1448,-5,51,0
11755,-1568,120,-1440,-5,53,-1
11760,-1584,128,-1432,-4,54,1
11765,-1560,96,-1448,-4,55,3
11770,-1576,80,-1456,2,53,6
11775,-1576,64,-1448,5,55,3
11780,-1576,104,-1416,10,59,3
11785,-1592,128,-1448,14,59,2
11790,-1576,152,-1424,21,58,6
11795,-1568,128,-1432,18,55,7
11800,-1584,160,-1456,12,52,9
11805,-1600,144,-1456,7,49,5
11810,-1568,136,-1456,0,48,4
11815,-1576,136,-1456,-3,46,1
11820,-1600,128,-1464,-2,48,0
11825,-1568,104,-1472,-2,48,-2
11830,-1568,104,-1456,0,49,-1
11835,-1568,136,-1448,3,50,-5
11840,-1560,136,-1472,3,51,-3
11845,-1552,120,-1416,-3,51,-3
11850,-1528,128,-1440,-4,52,-1
11855,-1536,128,-1440,-9,52,-2
11860,-1552,128,-1432,-12,52,0
11865,-1544,88,-1416,-12,53,-2
11870,-1576,120,-1440,-12,54,2
11875,-1560,88,-1448,-13,56,0
11880,-1536,104,-1424,-13,57,4
11885,-1560,120,-1440,-14,56,4
11890,-1560,112,-1416,-14,56,5
11895,-1568,120,-1472,-14,58,4
11900,-1536,136,-1432,-12,58,6
11905,-1560,136,-1464,-13,58,3
11910,-1552,136,-1440,-12,57,4
11915,-1568,144,-1472,-12,56,1
11920,-1560,152,-1472,-14,57,2
11925,-1568,144,-1432,-15,55,-2
11930,-1568,160,-1456,-18,53,0
11935,-1560,136,-1456,-20,53,-2
11940,-1576,144,-1464,-24,53,-1
11945,-1560,120,-1464,-25,54,-2
11950,-1568,120,-1416,-26,54,0
11955,-1576,112,-1456,-24,55,-1
11960,-1576,96,-1448,-23,54,0
11965,-1560,120,-1432,-20,56,-3
11970,-1568,128,-1464,-15,56,-1
11975,-1584,112,-1448,-9,57,-3
11980,-1576,144,-1448,-6,59,0
11985,-1576,136,-1480,-3,58,-3
11990,-1568,136,-1456,-2,59,-1
11995,-1568,96,-1424,-2,58,-4
12000,-1576,128,-1448,-2,55,-1
12005,-1584,136,-1408,-4,54,-3
12010,-1560,128,-1432,-5,51,-1
12015,-1552,120,-1464,-4,50,-2
12020,-1560,112,-1448,-6,50,3
12025,-1552,128,-1432,-7,51,1
12030,-1568,120,-1456,-9,53,3
12035,-1568,128,-1464,-9,54,-1
12040,-1560,128,-1448,-10,57,0
12045,-1552,128,-1472,-11,56,-2
12050,-1560,88,-1424,-10,58,0
12055,-1576,120,-1432,-9,61,-3
12060,-1576,112,-1440,-8,61,-2
12065,-1552,128,-1440,-7,63,-4
12070,-1576,112,-1424,-6,64,-1
12075,-1568,120,-1416,-6,63,-3
12080,-1568,120,-1440,-6,63,1
12085,-1584,136,-1456,-6,64,-1
12090,-1552,128,-1472,-7,62,2
12095,-1576,136,-1432,-9,61,3
12100,-1536,152,-1448,-11,58,6
12105,-1552,144,-1432,-13,57,3
12110,-1568,96,-1448,-11,57,6
12115,-1584,112,-1448,-8,57,1
12120,-1576,128,-1472,-7,55,0
12125,-1568,152,-1440,-7,56,-2
12130,-1576,152,-1464,-8,53,-2
12135,-1568,120,-1432,-8,51,-5
12140,-1552,136,-1448,-11,51,-4
12145,-1560,128,-1472,-10,50,-5
12150,-1560,144,-1448,-10,50,-3
12155,-1552,120,-1456,-8,52,-4
12160,-1568,128,-1432,-6,53,-1
12165,-1568,128,-1464,-7,54,-3
12170,-1560,160,-1464,-10,55,0
12175,-1560,112,-1456,-12,54,-3
12180,-1576,152,-1432,-14,52,-2
12185,-1552,152,-1440,-16,52,-3
12190,-1568,136,-1416,-18,52,-2
12195,-1544,120,-1440,-17,53,-5
12200,-1560,128,-1448,-16,52,-5
12205,-1552,136,-1440,-16,50,-8
12210,-1568,120,-1432,-15,51,-7
12215,-1576,120,-1432,-15,50,-8
12220,-1568,88,-1464,-15,50,-7
12225,-1576,128,-1448,-14,51,-7
12230,-1560,120,-1448,-15,50,-5
12235,-1584,136,-1440,-16,51,-5
12240,-1568,136,-1464,-16,53,-4
12245,-1576,120,-1456,-17,52,-5
12250,-1576,120,-1432,-17,52,-4
12255,-1560,120,-1432,-16,51,-6
12260,-1584,96,-1440,-15,51,-5
12265,-1560,144,-1448,-15,51,-5
12270,-1592,136,-1440,-15,52,-6
12275,-1552,120,-1432,-14,52,-5
12280,-1584,136,-1440,-14,52,-7
12285,-1560,136,-1448,-12,53,-6
12290,-1576,128,-1456,-13,54,-7
12295,-1560,136,-1448,-14,57,-6
12300,-1568,144,-1440,-17,58,-4
12305,-1568,128,-1448,-19,58,-3
12310,-1552,120,-1416,-21,60,-3
12315,-1560,128,-1448,-21,63,-1
12320,-1584,144,-1456,-24,64,-1
12325,-1576,136,-1432,-23,66,0
12330,-1568,128,-1416,-25,67,-2
12335,-1552,112,-1464,-24,69,0
12340,-1560,128,-1424,-25,68,-1
12345,-1568,136,-1432,-21,70,-2
12350,-1568,144,-1448,-19,70,-3
12355,-1576,128,-1448,-17,70,-3
12360,-1568,136,-1448,-18,72,-5
12365,-1544,120,-1472,-18,71,-4
12370,-1552,136,-1440,-19,70,-5
12375,-1576,120,-1456,-19,72,-4
12380,-1552,96,-1448,-20,69,-4
12385,-1560,104,-1432,-21,67,-3
12390,-1560,120,-1456,-22,67,-3
12395,-1576,136,-1448,-21,68,-3
12400,-1560,128,-1448,-20,65,-3
12405,-1552,104,-1464,-19,65,0
12410,-1584,128,-1464,-17,64,0
12415,-1568,120,-1440,-14,61,2
12420,-1560,120,-1448,-13,60,-1
12425,-1576,112,-1456,-13,59,0
12430,-1576,144,-1440,-14,57,-2
12435,-1552,136,-1464,-14,57,-1
12440,-1568,144,-1448,-12,57,-4
12445,-1544,104,-1472,-13,57,-4
12450,-1552,128,-1448,-14,55,-6
12455,-1576,120,-1448,-14,55,-5
12460,-1552,120,-1448,-15,53,-6
12465,-1560,112,-1432,-13,52,-3
12470,-1584,136,-1448,-12,51,-5
12475,-1568,120,-1416,-10,48,-4
12480,-1568,128,-1472,-8,48,-4
12485,-1568,128,-1456,-6,46,-2
12490,-1584,120,-1448,-5,46,-5
12495,-1568,128,-1464,-6,45,-3
12500,-1560,112,-1448,-5,45,-4
12505,-1584,112,-1448,-5,45,-1
12510,-1576,120,-1424,-6,44,-3
12515,-1592,160,-1456,-7,45,-1
12520,-1568,104,-1424,-8,48,-3
12525,-1568,136,-1424,-8,48,0
12530,-1568,136,-1464,-8,50,-2
12535,-1552,152,-1432,-10,52,-1
12540,-1552,112,-1432,-11,53,-4
12545,-1528,112,-1424,-10,53,-1
12550,-1568,128,-1440,-9,54,-3
12555,-1552,104,-1408,-7,56,-1
12560,-1560,112,-1416,-6,56,-5
12565,-1568,104,-1432,-3,58,-1
12570,-1568,152,-1432,-3,60,-2
12575,-1576,152,-1432,-6,63,2
12580,-1568,136,-1400,-9,65,-1
12585,-1560,104,-1448,-10,65,2
12590,-1568,128,-1432,-13,66,-2
12595,-1568,128,-1448,-13,66,1
12600,-1568,144,-1456,-17,65,-2
12605,-1560,144,-1456,-17,64,1
12610,-1568,128,-1472,-19,64,-2
12615,-1544,144,-1448,-20,62,0
12620,-1552,120,-1432,-22,63,-3
12625,-1576,152,-1432,-22,65,0
12630,-1576,144,-1440,-22,67,-2
12635,-1568,112,-1416,-21,68,1
12640,-1560,136,-1432,-19,70,-1
12645,-1576,136,-1448,-21,71,1
12650,-1576,128,-1440,-20,73,-1
12655,-1576,128,-1440,-18,72,0
12660,-1600,160,-1464,-17,69,-2
12665,-1568,112,-1472,-16,70,-1
12670,-1600,144,-1480,-15,67,-4
12675,-1568,136,-1448,-16,66,-2
12680,-1568,120,-1448,-16,65,-5
12685,-1568,136,-1472,-17,59,-4
12690,-1592,152,-1424,-18,58,-5
12695,-1600,152,-1464,-19,57,-2
12700,-1568,136,-1480,-18,52,-6
12705,-1568,112,-1464,-18,51,-7
12710,-1568,136,-1456,-14,50,-9
12715,-1560,136,-1440,-14,48,-7
12720,-1560,112,-1440,-11,46,-9
12725,-1552,128,-1440,-9,46,-8
12730,-1552,120,-1424,-6,45,-10
12735,-1560,128,-1448,-4,45,-10
12740,-1568,136,-1416,-3,44,-13
12745,-1560,96,-1432,-3,44,-11
12750,-1568,104,-1432,-2,44,-13
12755,-1536,120,-1456,-3,45,-10
12760,-1552,120,-1424,-5,46,-10
12765,-1552,112,-1464,-5,47,-8
12770,-1552,120,-1424,-5,49,-9
12775,-1568,136,-1432,-8,48,-7
12780,-1560,120,-1448,-9,50,-8
12785,-1568,120,-1440,-10,49,-7
12790,-1568,136,-1432,-11,50,-7
12795,-1560,128,-1448,-10,50,-6
12800,-1592,112,-1432,-10,53,-9
12805,-1560,104,-1424,-9,53,-7
12810,-1576,120,-1440,-7,51,-8
12815,-1552,120,-1432,-7,50,-7
12820,-1576,120,-1448,-8,53,-6
12825,-1576,136,-1456,-9,54,-4
12830,-1568,136,-1432,-10,54,-5
12835,-1568,112,-1440,-11,55,-4
12840,-1552,112,-1440,-14,54,-6
12845,-1560,120,-1440,-16,54,-5
12850,-1560,144,-1464,-18,53,-4
12855,-1584,128,-1440,-19,53,-2
12860,-1584,120,-1448,-20,53,-2
12865,-1560,128,-1472,-20,51,-2
12870,-1560,112,-1416,-18,50,-1
12875,-1560,120,-1448,-19,52,1
12880,-1576,120,-1424,-17,52,2
12885,-1576,104,-1432,-18,52,2
12890,-1576,128,-1440,-18,54,1
12895,-1576,152,-1456,-19,55,2
12900,-1584,120,-1456,-19,55,2
12905,-1568,136,-1448,-20,56,3
12910,-1576,128,-1464,-21,57,3
12915,-1560,128,-1440,-21,57,2
12920,-1576,128,-1456,-21,56,3
12925,-1560,136,-1440,-23,57,3
12930,-1576,120,-1448,-23,58,2
12935,-1568,128,-1424,-20,58,3
12940,-1568,120,-1424,-22,59,2
12945,-1568,128,-1432,-21,63,1
12950,-1568,144,-1448,-19,63,-1
12955,-1552,128,-1472,-20,65,-2
12960,-1568,120,-1440,-17,66,-1
12965,-1576,136,-1432,-16,67,-4
12970,-1544,112,-1464,-13,66,-4
12975,-1568,136,-1464,-11,64,-5
12980,-1584,152,-1440,-11,64,-3
12985,-1584,128,-1448,-12,63,-3
12990,-1584,128,-1480,-11,63,-3
12995,-1568,144,-1424,-11,63,-4
13000,-1584,144,-1464,-11,64,-4
13005,-1576,128,-1448,-12,62,-4
13010,-1552,104,-1464,-12,63,-3
13015,-1560,136,-1456,-10,61,-5
13020,-1560,104,-1440,-12,61,-6
13025,-1576,152,-1448,-13,62,-7
13030,-1560,120,-1440,-14,60,-7
13035,-1560,112,-1432,-14,59,-9
13040,-1568,120,-1464,-14,59,-7
13045,-1584,112,-1448,-13,58,-10
13050,-1568,136,-1440,-14,56,-8
13055,-1552,112,-1432,-13,57,-10
13060,-1568,120,-1432,-13,56,-9
13065,-1568,104,-1440,-12,55,-10
13070,-1568,88,-1456,-11,54,-9
13075,-1584,112,-1456,-10,53,-9
13080,-1568,112,-1456,-8,52,-7
13085,-1544,120,-1424,-6,52,-9
13090,-1560,112,-1464,-6,52,-6
13095,-1560,120,-1480,-4,51,-7
13100,-1560,128,-1472,-3,53,-5
13105,-1560,144,-1456,-4,52,-7
13110,-1568,120,-1472,-3,51,-7
13115,-1584,136,-1472,-5,49,-8
13120,-1576,136,-1472,-8,46,-7
13125,-1576,120,-1456,-9,45,-9
13130,-1568,120,-1440,-11,43,-9
13135,-1568,128,-1440,-10,42,-10
13140,-1552,104,-1464,-11,41,-8
13145,-1584,112,-1432,-11,41,-10
13150,-1568,112,-1456,-10,39,-7
13155,-1560,112,-1432,-10,42,-8
13160,-1568,120,-1424,-8,42,-5
13165,-1568,136,-1448,-8,44,-7
13170,-1560,96,-1456,-7,45,-4
13175,-1584,112,-1456,-7,46,-6
13180,-1560,112,-1448,-6,47,-4
13185,-1576,128,-1456,-8,50,-6
13190,-1568,128,-1440,-9,51,-4
13195,-1528,96,-1464,-11,52,-6
13200,-1576,120,-1456,-12,53,-4
13205,-1584,112,-1472,-12,50,-5
13210,-1568,88,-1424,-11,51,-1
13215,-1576,112,-1432,-10,49,-4
13220,-1552,128,-1464,-7,49,-2
13225,-1608,128,-1320,-10,51,-3
13230,-1584,152,-1400,-9,53,-1
13235,-1560,232,-1456,-9,56,-3
13240,-1584,80,-1368,-10,58,-1
13245,-1560,128,-1432,-11,59,-3
13250,-1568,120,-1400,-14,61,-1
13255,-1560,152,-1416,-16,63,-3
13260,-1584,152,-1456,-16,66,-2
13265,-1552,136,-1456,-18,65,-3
13270,-1568,128,-1448,-17,64,-1
13275,-1584,128,-1448,-19,64,-3
13280,-1568,120,-1456,-21,63,0
13285,-1568,128,-1440,-23,63,-2
13290,-1544,128,-1440,-22,62,2
13295,-1560,104,-1440,-21,62,-2
13300,-1584,128,-1384,-21,63,1
13305,-1568,128,-1448,-19,62,0
13310,-1576,136,-1456,-17,61,0
13315,-1552,136,-1432,-15,60,-2
13320,-1560,96,-1424,-16,61,-1
13325,-1568,96,-1424,-15,60,-4
13330,-1560,136,-1416,-15,61,-2
13335,-1584,144,-1432,-15,62,-4
13340,-1576,120,-1432,-16,62,-3
13345,-1584,136,-1448,-15,63,-5
13350,-1568,120,-1440,-16,64,-4
13355,-1560,120,-1448,-17,65,-5
13360,-1568,120,-1440,-19,65,-5
13365,-1552,96,-1440,-21,65,-8
13370,-1544,144,-1456,-22,64,-5
13375,-1560,128,-1456,-23,64,-5
13380,-1552,136,-1456,-24,63,-6
13385,-1560,144,-1448,-25,61,-9
13390,-1584,144,-1416,-25,61,-7
13395,-1552,120,-1440,-25,61,-8
13400,-1576,112,-1400,-24,61,-7
13405,-1568,104,-1456,-24,61,-7
13410,-1552,104,-1440,-22,61,-4
13415,-1560,88,-1448,-21,61,-3
13420,-1568,112,-1440,-19,59,-1
13425,-1544,88,-1448,-16,60,-1
13430,-1552,128,-1456,-16,59,2
13435,-1560,120,-1448,-15,55,1
13440,-1552,120,-1456,-17,55,3
13445,-1560,104,-1464,-18,52,2
13450,-1576,136,-1464,-19,50,3
13455,-1552,120,-1424,-21,49,3
13460,-1576,120,-1464,-23,48,3
13465,-1560,120,-1448,-24,46,2
13470,-1560,128,-1448,-25,47,4
13475,-1568,136,-1448,-25,46,3
13480,-1584,144,-1448,-23,46,4
13485,-1552,120,-1448,-23,46,5
13490,-1568,96,-1432,-21,47,5
13495,-1576,128,-1456,-22,47,5
13500,-1584,128,-1456,-22,48,6
13505,-1560,88,-1432,-21,48,7
13510,-1584,104,-1424,-17,47,7
13515,-1576,112,-1464,-16,47,9
13520,-1584,128,-1432,-14,46,11
13525,-1568,112,-1424,-12,42,12
13530,-1592,128,-1448,-12,40,11
13535,-1592,160,-1464,-14,40,13
13540,-1584,120,-1432,-15,41,12
13545,-1560,120,-1440,-16,41,13
13550,-1584,136,-1464,-17,42,11
13555,-1576,128,-1400,-18,44,10
13560,-1568,112,-1432,-18,45,8
13565,-1568,136,-1440,-17,46,6
13570,-1560,128,-1432,-18,46,5
13575,-1560,120,-1440,-19,47,4
13580,-1584,144,-1456,-20,48,5
13585,-1544,104,-1416,-20,51,5
13590,-1552,112,-1432,-20,52,4
13595,-1544,120,-1456,-19,52,4
13600,-1560,104,-1456,-17,54,4
13605,-1592,136,-1424,-16,56,5
13610,-1592,136,-1440,-13,58,4
13615,-1568,120,-1448,-13,58,5
13620,-1592,120,-1464,-13,56,4
13625,-1592,136,-1440,-10,57,5
13630,-1584,128,-1448,-10,57,5
13635,-1584,112,-1432,-11,56,6
13640,-1552,112,-1448,-9,56,5
13645,-1576,152,-1440,-9,52,7
13650,-1584,136,-1440,-9,51,5
13655,-1568,112,-1440,-8,51,4
13660,-1576,144,-1464,-8,51,2
13665,-1576,160,-1432,-8,49,4
13670,-1568,128,-1432,-8,51,2
13675,-1568,128,-1448,-7,51,3
13680,-1568,128,-1416,-7,52,0
13685,-1568,128,-1432,-7,52,3
13690,-1568,128,-1424,-9,54,-1
13695,-1568,136,-1448,-8,56,1
13700,-1584,128,-1440,-10,56,-1
13705,-1576,128,-1384,-11,55,1
13710,-1584,112,-1456,-13,56,-2
13715,-1552,128,-1432,-15,56,2
13720,-1584,128,-1432,-16,57,0
13725,-1560,104,-1464,-17,58,4
13730,-1568,136,-1440,-17,58,1
13735,-1600,128,-1440,-18,59,2
13740,-1584,144,-1448,-17,58,1
13745,-1584,112,-1432,-19,57,4
13750,-1560,128,-1440,-20,55,1
13755,-1576,120,-1424,-20,56,2
13760,-1584,112,-1432,-18,54,0
13765,-1560,120,-1440,-17,53,2
13770,-1576,88,-1448,-17,50,0
13775,-1576,112,-1440,-16,50,3
13780,-1576,128,-1448,-16,47,1
13785,-1576,112,-1408,-14,48,5
13790,-1568,96,-1424,-13,48,4
13795,-1544,80,-1440,-12,47,8
13800,-1584,120,-1472,-11,49,6
13805,-1576,120,-1448,-10,48,8
13810,-1576,128,-1464,-8,51,6
13815,-1600,144,-1440,-8,52,9
13820,-1584,136,-1456,-8,52,5
13825,-1552,128,-1456,-7,49,8
13830,-1560,144,-1432,-7,49,5
13835,-1584,128,-1448,-9,46,7
13840,-1568,168,-1456,-9,44,3
13845,-1544,136,-1424,-9,43,4
13850,-1576,128,-1432,-8,43,0
13855,-1608,144,-1440,-8,41,0
13860,-1576,128,-1416,-6,42,-3
13865,-1584,128,-1448,-6,42,-1
13870,-1584,136,-1416,-3,41,-4
13875,-1592,136,-1448,-2,44,-2
13880,-1560,112,-1400,0,47,-3
13885,-1576,120,-1448,2,48,0
13890,-1600,96,-1432,4,51,0
13895,-1584,120,-1448,3,51,4
13900,-1544,120,-1440,2,53,2
13905,-1584,136,-1440,2,54,4
13910,-1568,152,-1424,1,54,3
13915,-1560,136,-1424,-2,55,4
13920,-1552,112,-1440,-1,53,2
13925,-1584,144,-1408,-2,53,4
13930,-1568,120,-1448,0,54,0
13935,-1576,136,-1416,-2,55,1
13940,-1568,120,-1408,-3,55,-2
13945,-1584,120,-1416,-2,54,0
13950,-1544,128,-1408,-2,56,-1
13955,-1576,128,-1424,-4,56,0
13960,-1576,136,-1440,-3,56,0
13965,-1576,120,-1440,-5,57,3
13970,-1560,152,-1448,-6,57,1
13975,-1560,144,-1432,-6,58,4
13980,-1584,144,-1432,-8,59,2
13985,-1568,120,-1440,-9,59,2
13990,-1576,144,-1448,-9,58,1
13995,-1600,136,-1456,-11,56,4
14000,-1560,128,-1456,-11,58,2
14005,-1600,144,-1432,-14,56,3
14010,-1584,144,-1448,-16,56,3
14015,-1576,136,-1456,-18,56,5
14020,-1576,128,-1424,-18,58,2
14025,-1584,128,-1424,-18,57,4
14030,-1568,136,-1424,-18,57,4
14035,-1544,120,-1416,-19,57,4
14040,-1576,128,-1448,-20,58,4
14045,-1504,200,-1440,-19,58,5
14050,-1568,136,-1424,-19,57,4
14055,-1576,144,-1448,-20,58,5
14060,-1584,128,-1448,-17,57,2
14065,-1576,136,-1448,-16,55,4
14070,-1592,136,-1448,-15,54,1
14075,-1568,112,-1464,-14,52,-1
14080,-1552,136,-1424,-13,52,-2
14085,-1560,152,-1424,-12,51,-3
14090,-1584,144,-1448,-11,50,-4
14095,-1560,120,-1448,-12,50,-4
14100,-1584,120,-1408,-10,46,-4
14105,-1584,136,-1432,-12,49,-2
14110,-1576,112,-1424,-11,49,-2
14115,-1600,128,-1440,-10,46,-2
14120,-1592,128,-1432,-12,47,-2
14125,-1576,112,-1432,-9,47,-1
14130,-1568,128,-1456,-10,46,0
14135,-1584,120,-1448,-9,48,-1
14140,-1608,136,-1408,-8,48,0
14145,-1584,144,-1408,-8,49,0
14150,-1592,152,-1440,-9,51,-2
14155,-1592,128,-1440,-8,48,-2
14160,-1592,152,-1432,-8,51,-2
14165,-1568,128,-1440,-9,51,-3
14170,-1576,136,-1440,-7,50,-3
14175,-1576,120,-1432,-6,50,-4
14180,-1584,136,-1424,-7,51,-3
14185,-1552,120,-1408,-5,52,-5
14190,-1560,128,-1448,-6,53,-3
14195,-1568,104,-1424,-6,53,-3
14200,-1560,104,-1456,-7,52,-2
14205,-1576,120,-1440,-7,53,-1
14210,-1592,120,-1432,-5,53,0
14215,-1592,104,-1400,-5,53,0
14220,-1600,144,-1432,-1,53,0
14225,-1568,128,-1416,1,53,0
14230,-1592,120,-1424,0,55,2
14235,-1576,136,-1456,-1,54,3
14240,-1584,120,-1432,-2,53,5
14245,-1576,160,-1456,0,49,4
14250,-1560,152,-1416,-2,52,3
14255,-1552,144,-1440,-2,53,2
14260,-1584,112,-1440,-2,52,2
14265,-1576,152,-1416,-2,53,-1
14270,-1560,136,-1424,-2,55,1
14275,-1560,128,-1424,-2,57,0
14280,-1576,144,-1432,-4,56,-1
14285,-1576,128,-1440,-3,54,-3
14290,-1576,120,-1400,-1,54,-1
14295,-1576,120,-1440,-5,56,-2
14300,-1560,136,-1408,-9,56,1
14305,-1568,128,-1408,-10,54,-1
14310,-1576,136,-1432,-10,56,1
14315,-1592,144,-1440,-11,55,0
14320,-1576,112,-1424,-12,54,2
14325,-1600,144,-1448,-12,54,-1
14330,-1600,136,-1440,-13,52,1
14335,-1568,144,-1432,-16,51,-2
14340,-1568,104,-1424,-14,51,0
14345,-1608,144,-1440,-16,52,-3
14350,-1568,112,-1432,-17,54,-1
14355,-1568,136,-1464,-16,55,-2
14360,-1584,112,-1424,-16,57,1
14365,-1576,96,-1416,-15,56,-2
14370,-1584,136,-1440,-15,57,1
14375,-1608,136,-1424,-14,57,-1
14380,-1608,128,-1448,-14,58,2
14385,-1576,120,-1416,-13,59,-2
14390,-1568,120,-1440,-13,58,0
14395,-1584,120,-1408,-14,58,-3
14400,-1576,120,-1456,-14,58,0
14405,-1576,136,-1432,-14,58,-2
14410,-1592,144,-1424,-13,58,2
14415,-1584,136,-1432,-12,58,-1
14420,-1568,136,-1440,-11,57,2
14425,-1568,104,-1416,-9,56,0
14430,-1584,120,-1432,-7,58,2
14435,-1576,112,-1448,-4,57,0
14440,-1568,104,-1424,-1,58,3
14445,-1584,96,-1448,-1,59,1
14450,-1568,128,-1440,0,59,4
14455,-1584,136,-1424,1,58,0
14460,-1600,152,-1440,1,58,4
14465,-1552,152,-1392,-2,55,5
14470,-1592,120,-1424,1,53,9
14475,-1600,144,-1432,9,52,2
14480,-1584,152,-1456,9,53,4
14485,-1560,152,-1432,9,54,2
14490,-1568,136,-1424,8,53,3
14495,-1576,136,-1408,7,53,1
14500,-1568,112,-1424,3,51,1
14505,-1608,144,-1440,-1,50,-3
14510,-1560,120,-1416,-3,52,0
14515,-1568,96,-1448,-2,54,-3
14520,-1592,136,-1424,-3,53,0
14525,-1576,128,-1432,-2,55,-1
14530,-1584,112,-1416,-3,55,2
14535,-1576,120,-1440,-4,58,0
14540,-1592,136,-1424,-3,59,2
14545,-1560,136,-1432,-3,59,1
14550,-1576,152,-1456,-4,57,1
14555,-1576,128,-1432,-4,57,-2
14560,-1568,120,-1424,-5,59,2
14565,-1576,120,-1416,-6,58,-2
14570,-1576,136,-1440,-7,58,0
14575,-1584,128,-1432,-9,60,-3
14580,-1584,120,-1408,-9,61,-2
14585,-1568,104,-1408,-8,63,-3
14590,-1592,104,-1424,-4,65,-1
14595,-1600,112,-1432,-1,66,-4
14600,-1576,128,-1432,1,67,-1
14605,-1568,88,-1408,0,68,-1
14610,-1568,112,-1424,0,68,3
14615,-1592,120,-1440,1,69,1
14620,-1584,128,-1448,2,69,1
14625,-1576,128,-1440,2,69,2
14630,-1576,104,-1416,4,68,5
14635,-1600,144,-1448,5,66,2
14640,-1568,104,-1448,7,63,4
14645,-1584,120,-1424,11,63,2
14650,-1576,112,-1432,14,61,6
14655,-1560,112,-1432,15,60,4
14660,-1592,104,-1440,17,61,8
14665,-1600,112,-1456,18,60,4
14670,-1600,112,-1424,18,60,5
14675,-1584,160,-1456,15,62,3
14680,-1584,128,-1432,13,63,6
14685,-1584,128,-1440,10,63,3
14690,-1568,128,-1448,7,62,0
14695,-1568,104,-1440,3,62,-2
14700,-1592,104,-1416,4,61,0
14705,-1544,112,-1424,7,61,-2
14710,-1592,120,-1424,6,59,1
14715,-1552,152,-1448,3,59,0
14720,-1568,144,-1440,0,58,1
14725,-1576,160,-1400,-3,60,-1
14730,-1576,128,-1424,-4,61,-1
14735,-1584,120,-1432,-4,61,-1
14740,-1584,128,-1432,-5,62,0
14745,-1592,128,-1416,-5,63,0
14750,-1592,128,-1432,-5,64,0
14755,-1592,136,-1464,-2,60,-1
14760,-1592,120,-1464,-3,60,0
14765,-1576,136,-1448,-4,59,2
14770,-1584,144,-1416,-3,59,1
14775,-1544,112,-1432,-5,60,1
14780,-1576,128,-1416,-6,60,0
14785,-1552,128,-1424,-4,60,1
14790,-1584,112,-1440,-4,61,0
14795,-1568,96,-1440,-3,62,1
14800,-1568,128,-1448,-2,61,0
14805,-1552,120,-1424,-3,63,3
14810,-1592,112,-1416,-1,64,4
14815,-1584,128,-1424,0,64,4
14820,-1584,152,-1432,0,64,3
14825,-1568,144,-1448,1,66,6
14830,-1568,136,-1448,-3,64,5
14835,-1584,144,-1432,-8,64,4
14840,-1576,128,-1440,-10,63,2
14845,-1584,136,-1440,-12,65,4
14850,-1584,136,-1408,-15,63,2
14855,-1552,120,-1424,-19,64,3
14860,-1576,112,-1424,-20,66,2
14865,-1568,136,-1440,-23,68,4
14870,-1576,104,-1424,-23,69,3
14875,-1584,120,-1424,-24,69,4
14880,-1560,104,-1424,-24,69,3
14885,-1560,120,-1432,-23,70,6
14890,-1576,104,-1432,-23,69,7
14895,-1584,96,-1432,-23,67,10
14900,-1616,120,-1416,-23,66,8
14905,-1544,96,-1408,-24,63,11
14910,-1568,112,-1456,-23,62,7
14915,-1592,104,-1432,-22,64,10
14920,-1576,128,-1464,-19,64,8
14925,-1584,128,-1456,-15,64,10
14930,-1600,144,-1440,-14,64,9
14935,-1608,120,-1416,-14,64,9
14940,-1568,120,-1416,-15,64,8
14945,-1568,120,-1456,-13,65,9
14950,-1568,120,-1440,-12,69,6
14955,-1568,120,-1464,-10,72,9
14960,-1576,136,-1440,-10,74,6
14965,-1560,120,-1456,-8,74,6
14970,-1560,136,-1456,-6,74,2
14975,-1568,136,-1392,-7,73,5
14980,-1576,144,-1448,-7,72,4
14985,-1568,128,-1456,-9,73,6
14990,-1568,120,-1448,-8,73,4
14995,-1576,112,-1416,-9,72,5
