timestamp,accel_x,accel_y,accel_z,gyro_x,gyro_y,gyro_z
0,136,-1992,-144,60,15,-11
5,136,-1992,-168,59,17,-12
10,112,-1992,-160,58,18,-9
15,128,-1976,-160,56,17,-11
20,136,-2024,-176,55,17,-11
25,88,-1968,-152,54,18,-10
30,144,-1992,-144,51,18,-10
35,136,-2008,-144,52,19,-10
40,128,-2024,-160,49,19,-10
45,152,-2008,-168,48,19,-10
50,144,-1992,-168,47,19,-11
55,120,-1992,-136,47,20,-9
60,128,-1992,-160,46,22,-11
65,136,-2000,-176,44,22,-8
70,96,-2000,-144,43,21,-10
75,128,-2000,-152,42,20,-8
80,128,-2024,-120,43,19,-8
85,120,-2024,-152,43,18,-9
90,112,-2040,-144,42,19,-8
95,112,-2040,-128,43,18,-7
100,96,-2008,-152,44,17,-10
105,120,-2008,-168,44,19,-10
110,120,-2024,-136,44,22,-10
115,128,-2040,-144,43,23,-13
120,112,-2008,-152,43,25,-12
125,120,-2032,-152,42,28,-11
130,120,-2000,-152,40,30,-11
135,120,-2016,-152,39,31,-11
140,128,-2032,-152,37,35,-10
145,144,-2032,-152,37,37,-8
150,136,-2056,-136,38,40,-7
155,128,-2056,-176,39,41,-7
160,112,-2032,-144,40,42,-5
165,104,-2000,-160,40,41,-5
170,112,-2048,-152,41,40,-4
175,112,-2032,-136,41,37,-3
180,96,-2032,-120,40,34,-1
185,104,-2032,-144,43,32,0
190,88,-2072,-136,46,31,4
195,88,-2024,-128,49,31,7
200,88,-2056,-104,53,31,8
205,104,-2040,-96,58,32,10
210,120,-2040,-128,63,33,11
215,72,-2008,-112,68,36,12
220,88,-2032,-104,73,38,11
225,72,-2008,-112,77,40,12
230,72,-2008,-120,80,39,9
235,96,-2024,-104,83,38,11
240,56,-1984,-96,82,35,9
245,48,-1968,-88,80,32,9
250,48,-1928,-72,76,31,8
255,48,-1952,-96,71,29,6
260,24,-1936,-96,68,30,3
265,40,-1952,-24,62,30,0
270,56,-1968,-96,57,31,-3
275,40,-1936,-88,49,33,-6
280,32,-1960,-64,40,33,-9
285,48,-1960,-64,32,35,-11
290,40,-1984,-72,25,39,-12
295,64,-2000,-24,19,42,-15
300,88,-2016,-48,14,45,-18
305,64,-1992,-72,11,46,-19
310,64,-2008,-56,9,48,-22
315,88,-2000,-24,8,49,-26
320,80,-2008,-32,6,50,-30
325,104,-2008,-48,3,50,-32
330,72,-1976,-16,0,47,-35
335,104,-2016,-64,-4,46,-38
340,88,-1984,-32,-7,45,-43
345,80,-1984,-48,-9,43,-45
350,64,-1992,-48,-12,43,-48
355,72,-2008,-56,-14,42,-50
360,72,-1984,-56,-16,43,-52
365,64,-1960,-48,-20,45,-54
370,72,-1968,-48,-25,44,-55
375,40,-1928,-56,-28,44,-57
380,56,-1968,-80,-33,44,-58
385,32,-1984,-56,-41,42,-61
390,56,-1984,-88,-51,39,-60
395,40,-1984,-56,-57,38,-62
400,56,-1984,-120,-61,35,-63
405,32,-1968,-56,-66,33,-65
410,64,-1992,-64,-69,30,-66
415,72,-2000,-88,-72,27,-68
420,56,-1992,-72,-74,24,-71
425,64,-1992,-48,-75,22,-71
430,40,-1992,-72,-74,18,-76
435,48,-2000,-72,-74,12,-75
440,72,-2008,-64,-74,7,-76
445,24,-1992,-56,-76,2,-77
450,48,-1976,-104,-77,-2,-79
455,40,-1992,-80,-77,-6,-80
460,24,-2040,-88,-77,-8,-80
465,40,-2032,-96,-76,-11,-79
470,48,-2032,-112,-74,-13,-85
475,64,-2048,-88,-70,-16,-89
480,56,-2024,-96,-68,-17,-92
485,56,-2008,-112,-65,-20,-95
490,64,-2016,-120,-60,-22,-96
495,64,-1992,-104,-59,-23,-101
500,32,-2008,-112,-58,-26,-103
505,64,-2024,-112,-59,-30,-107
510,40,-2024,-112,-59,-35,-109
515,32,-2016,-120,-61,-39,-110
520,40,-1992,-88,-61,-44,-111
525,40,-2032,-88,-59,-47,-112
530,40,-2048,-96,-54,-50,-115
535,40,-2032,-72,-49,-54,-119
540,40,-2032,-72,-44,-59,-119
545,72,-2032,-128,-39,-64,-118
550,56,-2048,-112,-34,-70,-118
555,64,-1992,-120,-32,-77,-119
560,40,-2040,-120,-30,-82,-120
565,56,-2008,-136,-30,-87,-122
570,32,-1992,-136,-31,-94,-124
575,48,-1984,-120,-34,-99,-124
580,48,-1976,-128,-38,-105,-126
585,88,-1952,-136,-44,-111,-127
590,48,-1952,-152,-50,-117,-129
595,48,-1960,-176,-57,-122,-129
600,64,-1984,-144,-62,-130,-129
605,40,-1944,-168,-69,-133,-128
610,72,-1976,-192,-75,-136,-127
615,64,-2008,-168,-81,-138,-128
620,48,-1992,-176,-85,-142,-128
625,96,-2008,-200,-88,-147,-127
630,96,-2040,-168,-87,-153,-129
635,88,-2032,-192,-88,-158,-129
640,96,-2056,-192,-84,-167,-131
645,104,-2064,-184,-78,-177,-132
650,88,-2048,-208,-69,-189,-133
655,72,-2040,-200,-54,-205,-134
660,80,-1976,-224,-37,-222,-133
665,80,-2000,-248,-17,-238,-128
670,88,-1936,-264,4,-255,-122
675,88,-1920,-288,20,-269,-114
680,96,-1888,-256,31,-279,-103
685,112,-1848,-256,39,-287,-91
690,112,-1776,-280,45,-293,-77
695,120,-1800,-288,45,-294,-59
700,128,-1736,-240,43,-293,-42
705,128,-1680,-216,38,-288,-25
710,88,-1736,-224,28,-284,-5
715,160,-1680,-136,25,-280,16
720,208,-1712,-104,26,-281,35
725,248,-1760,-96,32,-287,52
730,256,-1800,-88,40,-291,67
735,256,-1816,-40,45,-295,78
740,280,-1880,-48,49,-300,85
745,320,-1920,-32,50,-303,89
750,312,-1976,0,47,-311,90
755,312,-2008,-24,42,-319,86
760,336,-2048,40,37,-329,83
765,320,-2080,24,35,-344,81
770,312,-2104,80,30,-358,80
775,280,-2144,80,28,-374,79
780,272,-2144,112,25,-388,77
785,280,-2184,152,19,-399,76
790,280,-2168,128,10,-408,72
795,192,-2136,120,2,-414,71
800,152,-2136,120,-10,-414,67
805,160,-2128,152,-22,-415,62
810,176,-2152,128,-30,-412,50
815,144,-2112,176,-34,-409,38
820,120,-2096,160,-35,-408,24
825,120,-2072,160,-36,-411,11
830,96,-2088,152,-40,-417,-1
835,88,-2056,144,-53,-426,-12
840,88,-2032,112,-73,-437,-21
845,104,-2032,88,-99,-452,-31
850,112,-2024,64,-129,-462,-47
855,136,-2016,24,-161,-466,-64
860,160,-2032,32,-193,-464,-85
865,160,-2000,40,-220,-459,-108
870,184,-2016,8,-242,-454,-131
875,216,-2000,-8,-258,-447,-154
880,216,-2016,0,-271,-440,-176
885,240,-2000,0,-282,-435,-195
890,240,-2000,8,-290,-432,-208
895,224,-2016,8,-290,-429,-217
900,240,-2032,-16,-284,-428,-226
905,232,-1984,-16,-273,-428,-230
910,256,-1976,-8,-262,-427,-233
915,272,-1968,-40,-253,-430,-239
920,256,-1952,-16,-250,-428,-241
925,264,-1896,-56,-255,-431,-240
930,304,-1952,-112,-264,-433,-234
935,320,-1960,-64,-272,-434,-225
940,344,-1944,-104,-277,-436,-215
945,360,-1984,-96,-273,-435,-200
950,400,-1992,-104,-263,-431,-187
955,432,-1968,-80,-249,-419,-173
960,472,-1976,-96,-235,-396,-160
965,480,-1936,-80,-225,-364,-151
970,528,-1904,-136,-217,-335,-146
975,504,-1856,-112,-221,-307,-135
980,512,-1848,-176,-233,-280,-121
985,488,-1808,-208,-253,-256,-104
990,504,-1760,-240,-281,-230,-85
995,440,-1784,-240,-314,-200,-68
1000,416,-1800,-232,-341,-169,-50
1005,416,-1840,-32,-351,-139,-36
1010,344,-1896,-168,-351,-124,-12
1015,296,-1896,-120,-360,-92,3
1020,264,-1952,-120,-370,-74,20
1025,256,-1976,-40,-376,-56,37
1030,200,-2064,-40,-367,-65,49
1035,168,-2096,-8,-364,-49,69
1040,264,-2104,24,-351,-53,77
1045,120,-2136,-72,-328,-81,80
1050,96,-2176,0,-322,-87,101
1055,96,-2144,-8,-313,-97,109
1060,32,-2136,-48,-297,-119,106
1065,24,-2160,-80,-285,-153,110
1070,40,-2144,-40,-291,-157,116
1075,32,-2120,-56,-295,-176,108
1080,48,-2112,-40,-303,-196,100
1085,-24,-2096,-88,-303,-251,74
1090,16,-2088,-112,-322,-267,84
1095,0,-2096,-112,-347,-253,80
1100,0,-2096,-144,-362,-255,68
1105,0,-2088,-112,-379,-262,60
1110,8,-2096,-112,-396,-267,57
1115,32,-2128,-104,-414,-272,52
1120,232,-2112,-48,-428,-272,48
1125,104,-2176,-72,-433,-284,41
1130,144,-2248,-8,-443,-269,32
1135,216,-2296,-8,-437,-265,22
1140,240,-2352,0,-434,-263,11
1145,248,-2392,80,-425,-265,0
1150,272,-2448,112,-405,-267,-11
1155,344,-2488,176,-378,-271,-22
1160,328,-2528,192,-342,-285,-26
1165,288,-2512,176,-305,-279,-31
1170,304,-2504,224,-262,-280,-39
1175,240,-2440,208,-214,-283,-48
1180,256,-2376,248,-164,-285,-57
1185,208,-2360,264,-129,-293,-50
1190,208,-2312,272,-94,-299,-39
1195,152,-2272,296,-58,-310,-32
1200,144,-2200,312,-28,-325,-23
1205,72,-2112,376,-8,-337,-4
1210,56,-2032,336,16,-359,12
1215,40,-1952,272,31,-384,35
1220,-104,-1888,176,42,-415,52
1225,80,-1672,0,38,-444,62
1230,96,-1624,-184,-4,-449,117
1235,136,-1608,-400,-78,-449,166
1240,176,-1560,-512,-178,-440,200
1245,264,-1576,-704,-294,-427,220
1250,344,-1584,-816,-415,-413,226
1255,512,-1680,-816,-525,-399,217
1260,504,-1744,-896,-608,-396,201
1265,584,-1856,-904,-679,-373,174
1270,648,-1960,-816,-725,-349,140
1275,640,-2040,-776,-744,-318,107
1280,616,-2088,-744,-735,-274,68
1285,552,-2144,-736,-700,-213,30
1290,448,-2200,-720,-642,-140,1
1295,304,-2168,-736,-572,-71,-16
1300,176,-2096,-768,-494,-24,-23
1305,64,-2048,-776,-420,-1,-16
1310,16,-2000,-856,-360,9,3
1315,-56,-1968,-832,-314,16,32
1320,-104,-1936,-800,-281,23,51
1325,-96,-1928,-784,-255,27,63
1330,-128,-1912,-768,-235,26,69
1335,-112,-1928,-736,-222,20,69
1340,-80,-1984,-712,-222,17,61
1345,-72,-2048,-696,-236,18,49
1350,-24,-2136,-704,-267,16,25
1355,8,-2224,-744,-310,22,-4
1360,8,-2312,-784,-365,19,-37
1365,-24,-2352,-840,-412,7,-62
1370,-40,-2432,-880,-443,-18,-78
1375,-88,-2480,-848,-446,-53,-85
1380,-168,-2432,-848,-418,-91,-86
1385,-208,-2456,-776,-364,-131,-78
1390,-224,-2448,-752,-301,-170,-69
1395,-200,-2424,-744,-243,-208,-57
1400,-240,-2376,-696,-194,-243,-34
1405,-192,-2416,-656,-155,-275,-13
1410,-216,-2400,-632,-126,-301,9
1415,-184,-2384,-600,-101,-326,26
1420,-144,-2408,-528,-82,-349,43
1425,-72,-2416,-552,-69,-361,64
1430,-32,-2424,-520,-56,-365,84
1435,0,-2408,-504,-43,-359,99
1440,88,-2408,-456,-29,-345,113
1445,120,-2408,-472,-23,-329,125
1450,200,-2352,-400,-21,-316,131
1455,224,-2344,-392,-16,-301,135
1460,248,-2312,-336,-4,-280,140
1465,280,-2328,-296,16,-253,144
1470,296,-2304,-280,34,-219,147
1475,280,-2272,-224,50,-184,149
1480,256,-2208,-216,64,-152,152
1485,240,-2160,-184,76,-116,158
1490,192,-2096,-232,87,-81,163
1495,168,-2024,-184,97,-48,171
1500,136,-1984,-176,106,-15,172
1505,128,-1904,-168,114,15,171
1510,96,-1840,-128,117,40,174
1515,88,-1776,-128,122,60,171
1520,72,-1696,-136,125,84,166
1525,80,-1640,-80,123,113,156
1530,48,-1568,-80,122,143,146
1535,88,-1560,-104,123,172,144
1540,48,-1528,-40,104,198,153
1545,56,-1448,-64,81,226,165
1550,16,-1424,-48,53,245,177
1555,24,-1376,-40,27,272,197
1560,48,-1336,-32,-4,295,215
1565,0,-1264,-16,-28,309,227
1570,0,-1216,-40,-52,329,246
1575,64,-1224,-48,-77,348,267
1580,16,-1152,-40,-93,340,275
1585,-32,-1168,-56,-102,322,276
1590,-64,-1120,-96,-106,304,273
1595,-72,-1152,-104,-108,291,274
1600,-48,-1176,-128,-101,279,271
1605,-96,-1200,-160,-80,266,255
1610,-112,-1216,-216,-46,254,236
1615,-152,-1216,-192,-13,251,214
1620,-120,-1208,-248,20,262,181
1625,-120,-1232,-272,54,280,148
1630,-96,-1248,-224,90,313,106
1635,-40,-1272,-216,135,355,58
1640,-40,-1232,-184,190,404,5
1645,-40,-1232,-216,249,456,-46
1650,-80,-1176,-184,308,503,-90
1655,-208,-1160,-232,362,540,-122
1660,-144,-1064,-168,406,579,-131
1665,-160,-1040,-184,445,567,-137
1670,-256,-992,-280,470,532,-123
1675,-312,-944,-288,476,484,-95
1680,-360,-920,-336,470,430,-57
1685,-328,-1008,-360,452,384,-7
1690,-232,-1080,-472,423,371,52
1695,-88,-1240,-624,377,386,103
1700,64,-1432,-696,337,424,139
1705,280,-1688,-744,331,480,158
1710,400,-1952,-848,368,527,176
1715,376,-2080,-1056,430,549,200
1720,312,-2288,-1432,489,503,231
1725,192,-2400,-1888,521,388,280
1730,80,-2584,-2104,550,248,343
1735,136,-2792,-1952,630,138,397
1740,224,-2960,-1624,769,102,420
1745,408,-3104,-1288,954,132,406
1750,600,-3160,-1064,1125,203,352
1755,680,-3128,-1096,1225,274,269
1760,624,-3024,-1264,1221,322,172
1765,488,-2968,-1472,1130,348,74
1770,288,-2896,-1544,997,368,-8
1775,104,-2904,-1496,870,401,-72
1780,-16,-2976,-1344,759,444,-129
1785,-72,-3032,-1184,670,488,-176
1790,-112,-3120,-1032,587,526,-215
1795,-104,-3240,-992,498,556,-238
1800,-88,-3352,-984,409,567,-252
1805,-80,-3456,-968,345,563,-261
1810,-96,-3568,-944,317,541,-266
1815,-80,-3624,-904,312,501,-281
1820,-56,-3600,-920,306,452,-302
1825,-40,-3608,-896,291,406,-326
1830,-16,-3568,-792,271,370,-341
1835,-88,-3584,-728,237,348,-356
1840,24,-3520,-672,188,332,-372
1845,72,-3520,-568,147,338,-368
1850,144,-3440,-512,116,350,-355
1855,232,-3392,-480,97,364,-342
1860,264,-3312,-400,90,379,-324
1865,288,-3272,-368,81,386,-307
1870,344,-3200,-320,65,391,-299
1875,400,-3184,-232,52,394,-300
1880,384,-3120,-144,60,399,-305
1885,496,-2968,-96,75,391,-313
1890,520,-2944,8,92,384,-305
1895,592,-2816,-16,100,361,-315
1900,688,-2672,-8,113,364,-306
1905,736,-2584,16,145,382,-275
1910,696,-2432,64,170,376,-241
1915,784,-2304,144,176,384,-203
1920,664,-2160,184,177,376,-176
1925,624,-2024,168,173,373,-147
1930,648,-1872,176,173,360,-122
1935,624,-1728,232,190,363,-80
1940,576,-1592,280,221,367,-46
1945,392,-1480,280,265,354,-38
1950,288,-1312,320,296,335,-39
1955,264,-1152,384,300,287,-73
1960,224,-1032,360,331,272,-54
1965,32,-864,376,406,279,-4
1970,-184,-624,208,464,234,27
1975,-288,-448,64,494,197,66
1980,-552,-264,112,488,156,92
1985,-456,88,-152,409,39,33
1990,-320,128,-160,368,94,128
1995,-360,264,-120,385,165,254
2000,-328,280,-96,388,181,320
2005,-264,280,-32,369,182,361
2010,-96,264,-40,318,169,386
2015,8,184,8,246,148,395
2020,104,56,32,170,114,385
2025,240,-8,64,129,77,361
2030,336,-56,64,134,42,333
2035,344,-160,104,146,-1,293
2040,320,-216,48,169,-34,255
2045,448,-304,8,170,-87,200
2050,384,-336,8,239,-67,188
2055,376,-264,-88,328,-57,180
2060,392,-232,-184,389,-62,172
2065,424,-216,-248,408,-78,173
2070,464,-192,-312,407,-97,177
2075,520,-184,-400,391,-107,173
2080,608,-208,-576,350,-88,160
2085,712,-232,-840,280,-29,137
2090,784,-408,-1064,179,65,107
2095,792,-576,-1208,47,171,61
2100,752,-1000,-1248,-106,248,6
2105,584,-1560,-1232,-259,257,-55
2110,368,-2248,-1240,-394,161,-112
2115,152,-2880,-1592,-517,31,-171
2120,8,-3296,-1920,-666,-80,-222
2125,-152,-3896,-2000,-874,-101,-262
2130,-248,-4480,-1720,-944,-24,-306
2135,-296,-4848,-1192,-762,142,-357
2140,-296,-4784,-776,-298,334,-406
2145,-192,-4560,-720,318,499,-437
2150,-272,-4032,-824,887,625,-440
2155,-288,-3472,-984,1211,639,-423
2160,-248,-2928,-1128,1271,513,-399
2165,-104,-2592,-1160,1134,285,-360
2170,72,-2328,-1048,912,37,-312
2175,240,-2184,-864,695,-165,-273
2180,368,-2152,-752,504,-285,-233
2185,504,-2248,-736,287,-332,-182
2190,552,-2424,-728,20,-314,-119
2195,640,-2784,-712,-265,-267,-44
2200,688,-3120,-600,-498,-219,37
2205,704,-3448,-512,-635,-181,129
2210,656,-3736,-464,-691,-159,226
2215,600,-3936,-392,-706,-151,329
2220,424,-4128,-360,-672,-171,426
2225,296,-4168,-312,-570,-201,509
2230,240,-4112,-304,-424,-233,579
2235,168,-3984,-248,-296,-251,640
2240,112,-3824,-176,-196,-266,690
2245,16,-3592,-168,-123,-283,717
2250,-32,-3296,-72,-66,-293,722
2255,-160,-3088,0,-29,-285,728
2260,-272,-2864,-16,-22,-293,717
2265,-320,-2776,-8,-48,-299,711
2270,-312,-2680,48,-84,-299,715
2275,-280,-2576,168,-97,-291,718
2280,-256,-2560,208,-81,-275,701
2285,-208,-2480,272,-51,-251,679
2290,-152,-2400,304,-1,-227,648
2295,-88,-2240,320,47,-197,622
2300,-8,-2088,256,90,-170,591
2305,56,-1840,216,134,-145,549
2310,72,-1648,160,191,-132,489
2315,168,-1392,104,226,-118,440
2320,344,-1016,16,258,-107,386
2325,424,-896,-24,291,-106,314
2330,448,-616,-120,293,-136,225
2335,432,-448,-152,284,-159,143
2340,384,-232,-224,262,-191,71
2345,360,-152,-232,226,-228,31
2350,240,-104,-216,185,-241,8
2355,168,-160,-136,146,-217,1
2360,168,-200,-96,133,-164,14
2365,136,-280,-64,136,-90,36
2370,160,-360,-8,160,-16,63
2375,176,-432,0,200,56,89
2380,184,-504,-56,245,123,107
2385,200,-512,-104,293,189,111
2390,152,-488,-200,343,248,103
2395,112,-440,-280,397,294,82
2400,64,-312,-368,452,318,59
2405,16,-232,-440,499,327,38
2410,-16,-104,-472,536,318,25
2415,-120,8,-472,559,294,27
2420,-200,48,-448,561,264,43
2425,-248,8,-312,541,230,69
2430,-256,-24,-224,517,199,104
2435,-240,-112,-40,501,174,139
2440,-120,-240,8,503,163,174
2445,8,-320,24,515,179,198
2450,184,-480,-104,517,221,207
2455,280,-576,-192,512,291,203
2460,384,-816,-488,485,360,185
2465,424,-1128,-664,439,401,147
2470,416,-1528,-848,406,430,116
2475,312,-1816,-1144,376,454,102
2480,88,-2152,-1776,263,484,110
2485,-184,-2552,-2344,-26,508,160
2490,-384,-3176,-2264,-420,507,252
2495,-312,-3928,-1536,-687,450,360
2500,-136,-4416,-744,-610,359,459
2505,208,-4920,-168,-258,253,505
2510,416,-5080,-360,141,169,487
2515,472,-4920,-1048,413,159,423
2520,392,-4608,-1568,481,237,325
2525,224,-4392,-1568,419,358,182
2530,80,-4104,-1264,372,470,10
2535,8,-3888,-808,383,538,-180
2540,0,-3776,-504,399,617,-298
2545,16,-3760,-312,384,680,-351
2550,-64,-3928,-160,323,696,-384
2555,-144,-3888,-136,260,626,-457
2560,-208,-3840,-120,179,603,-482
2565,-208,-3848,-128,163,551,-479
2570,-8,-3896,-16,149,552,-462
2575,-168,-3632,40,143,490,-524
2580,80,-3664,144,99,476,-526
2585,240,-3592,192,53,462,-550
2590,440,-3424,248,11,449,-540
2595,480,-3416,152,4,451,-516
2600,648,-3352,320,-21,448,-484
2605,560,-3304,248,-43,411,-463
2610,632,-3200,320,-114,434,-444
2615,1096,-3056,352,-211,437,-459
2620,664,-2896,392,-265,402,-451
2625,744,-2840,408,-268,410,-367
2630,800,-2712,480,-250,435,-264
2635,1152,-2536,536,-228,430,-176
2640,672,-2328,440,-197,363,-130
2645,616,-2200,432,-158,342,-56
2650,536,-1944,448,-108,340,4
2655,352,-1776,424,-40,308,38
2660,8,-1480,416,48,320,100
2665,120,-1160,456,119,305,115
2670,64,-928,384,232,373,216
2675,-16,-608,360,348,429,313
2680,-200,-224,256,407,397,339
2685,-168,48,144,420,367,375
2690,-128,184,88,416,386,435
2695,-280,376,88,384,396,468
2700,24,456,0,315,391,458
2705,104,464,-56,268,450,478
2710,104,384,-104,210,486,468
2715,160,336,-136,127,500,427
2720,32,200,-152,53,493,379
2725,0,64,-200,12,456,340
2730,-72,-48,-240,1,392,317
2735,-136,-144,-320,2,314,308
2740,-160,-216,-336,14,235,306
2745,-176,-304,-336,42,168,304
2750,-168,-408,-312,75,117,301
2755,-128,-424,-256,124,83,297
2760,-56,-400,-216,183,64,294
2765,0,-360,-160,246,54,284
2770,72,-304,-264,291,57,259
2775,216,-240,-432,299,80,233
2780,376,-216,-624,264,128,191
2785,512,-240,-760,191,196,127
2790,688,-384,-1016,64,271,51
2795,896,-640,-1288,-123,342,-40
2800,888,-1008,-1592,-382,392,-136
2805,688,-1536,-1712,-699,421,-223
2810,520,-2040,-1680,-1010,438,-322
2815,208,-2840,-1552,-1247,427,-409
2820,-16,-3584,-1288,-1359,380,-491
2825,-392,-4208,-912,-1297,345,-535
2830,-680,-4648,-528,-1039,361,-560
2835,-808,-4744,-424,-565,389,-563
2840,-800,-4504,-520,131,351,-532
2845,-944,-3992,-888,631,246,-446
2850,-984,-3544,-1120,915,135,-322
2855,-936,-3160,-1264,966,41,-187
2860,-832,-2888,-1328,828,-102,-104
2865,-568,-2680,-1208,603,-280,-77
2870,-192,-2560,-968,400,-439,-74
2875,128,-2536,-752,250,-516,-60
2880,256,-2600,-608,96,-525,-26
2885,400,-2800,-496,-107,-475,17
2890,504,-3088,-416,-332,-394,56
2895,624,-3296,-296,-527,-315,78
2900,728,-3592,-240,-669,-259,97
2905,712,-3760,-240,-731,-227,126
2910,632,-3944,-240,-703,-203,164
2915,512,-4024,-272,-633,-187,210
2920,416,-3968,-264,-548,-172,256
2925,264,-3792,-336,-460,-145,297
2930,232,-3656,-288,-380,-124,328
2935,168,-3440,-216,-316,-84,371
2940,88,-3304,-112,-268,-47,406
2945,-24,-3112,-32,-253,-28,424
2950,-128,-3024,-24,-265,-34,427
2955,-224,-2896,56,-272,-65,422
2960,-288,-2824,88,-268,-94,443
2965,-400,-2768,128,-246,-121,444
2970,-464,-2768,208,-212,-145,432
2975,-456,-2760,256,-158,-164,414
2980,-432,-2736,296,-88,-164,405
2985,-440,-2624,360,4,-163,397
2990,-456,-2488,368,113,-176,383
2995,-416,-2304,304,220,-202,373
3000,-384,-2104,264,316,-233,359
3005,-232,-1864,272,393,-257,341
3010,-104,-1616,224,454,-270,312
3015,32,-1320,144,522,-283,247
3020,128,-936,48,587,-292,156
3025,280,-704,24,641,-289,62
3030,312,-432,-56,671,-286,-38
3035,296,-168,-88,702,-294,-157
3040,256,72,-152,728,-307,-254
3045,256,232,-128,730,-322,-304
3050,224,312,-136,702,-346,-333
3055,184,336,-184,652,-358,-339
3060,216,312,-272,575,-334,-311
3065,272,248,-288,481,-278,-265
3070,352,104,-360,380,-221,-223
3075,392,-24,-440,281,-144,-188
3080,408,-160,-464,200,-43,-171
3085,408,-288,-448,152,68,-165
3090,408,-328,-480,152,181,-169
3095,424,-384,-472,190,280,-176
3100,336,-384,-480,248,357,-185
3105,224,-384,-472,320,402,-183
3110,80,-376,-352,406,421,-168
3115,-32,-368,-240,497,412,-135
3120,-104,-424,-152,572,377,-93
3125,-168,-408,-88,617,326,-51
3130,-240,-440,-104,641,262,-3
3135,-248,-480,-136,640,197,45
3140,-256,-512,-248,606,153,92
3145,-176,-592,-488,528,144,146
3150,-176,-768,-920,394,176,194
3155,-184,-928,-1544,171,218,223
3160,-304,-1112,-2144,-145,221,245
3165,-496,-1472,-2832,-544,175,318
3170,-648,-1832,-3224,-1015,91,449
3175,-600,-2600,-3112,-1498,81,609
3180,-384,-3560,-2248,-1803,132,759
3185,-176,-4408,-1032,-1766,185,861
3190,40,-4904,-424,-1259,169,893
3195,336,-5256,-72,-612,92,869
3200,624,-5192,-200,30,50,789
3205,776,-4904,-560,527,63,642
3210,672,-4392,-1000,823,85,456
3215,488,-3952,-1200,932,94,280
3220,304,-3456,-1288,918,128,126
3225,8,-2968,-1080,840,205,-10
3230,-240,-2616,-784,727,314,-121
3235,-296,-2440,-376,586,418,-205
3240,-504,-2400,-128,422,476,-264
3245,-248,-2504,32,236,510,-285
3250,-480,-2512,-48,29,476,-276
3255,-504,-2736,-72,-164,447,-226
3260,-496,-2976,-152,-317,356,-214
3265,-424,-3232,-120,-437,271,-183
3270,-344,-3544,-128,-512,150,-210
3275,-176,-3728,-88,-529,108,-192
3280,40,-3880,16,-494,95,-189
3285,88,-3976,64,-413,65,-213
3290,168,-4080,136,-320,106,-236
3295,448,-4056,272,-225,162,-287
3300,480,-3888,304,-110,166,-382
3305,504,-3616,216,-31,165,-432
3310,616,-3520,232,11,248,-382
3315,864,-3424,360,58,314,-342
3320,760,-3240,360,122,308,-343
3325,752,-3200,352,178,355,-296
3330,824,-3128,456,225,452,-251
3335,928,-3048,472,265,513,-257
3340,864,-2984,552,328,552,-256
3345,680,-2888,480,425,631,-208
3350,568,-2688,496,492,735,-163
3355,328,-2456,536,544,780,-119
3360,144,-2240,536,619,791,-47
3365,-128,-1784,536,719,768,18
3370,-160,-1352,392,805,731,86
3375,-176,-864,416,907,780,271
3380,-208,-384,376,997,815,448
3385,-256,-16,280,1049,814,567
3390,-216,360,128,1037,799,644
3395,-64,728,0,948,760,660
3400,48,824,-56,805,750,679
3405,160,824,-88,651,750,681
3410,208,760,-160,482,699,624
3415,312,600,-208,301,622,550
3420,288,240,-312,132,529,502
3425,152,-80,-408,-8,429,471
3430,40,-280,-432,-116,326,442
3435,-104,-512,-488,-158,234,419
3440,-160,-640,-512,-160,142,402
3445,-192,-696,-520,-119,60,389
3450,-144,-728,-504,-36,2,370
3455,-96,-680,-472,80,-13,321
3460,-96,-600,-440,202,9,245
3465,16,-432,-424,328,64,145
3470,112,-248,-528,423,139,34
3475,216,8,-768,450,220,-72
3480,304,152,-1008,397,308,-157
3485,424,240,-1312,267,384,-224
3490,496,184,-1688,56,443,-284
3495,480,-56,-2088,-258,481,-332
3500,416,-328,-2432,-678,486,-354
3505,368,-896,-2816,-1181,475,-362
3510,352,-1624,-2880,-1685,493,-377
3515,352,-2512,-2272,-2049,552,-418
3520,344,-3424,-1256,-2142,605,-488
3525,224,-3968,-552,-1852,651,-571
3530,-8,-4376,8,-1095,729,-649
3535,-232,-4328,8,-344,856,-696
3540,-368,-3984,-480,305,984,-685
3545,-560,-3568,-896,708,1062,-619
3550,-760,-3232,-1056,825,1019,-509
3555,-888,-2856,-1320,723,787,-422
3560,-752,-2544,-1320,531,487,-356
3565,-520,-2256,-1136,339,223,-284
3570,-200,-2184,-880,179,24,-205
3575,-88,-2272,-552,30,-77,-95
3580,16,-2504,-392,-152,-145,-18
3585,128,-2784,-264,-401,-158,37
3590,168,-3232,-336,-684,-121,90
3595,192,-3608,-424,-942,-69,130
3600,184,-4112,-608,-1114,-20,175
3605,200,-4552,-736,-1179,8,226
3610,272,-4848,-704,-1141,18,266
3615,344,-4952,-488,-1033,25,301
3620,264,-5112,-312,-877,9,336
3625,304,-5032,-152,-723,-53,364
3630,192,-4888,-88,-599,-118,430
3635,80,-4704,-32,-526,-158,520
3640,-128,-4464,16,-481,-173,614
3645,-328,-4272,112,-452,-203,680
3650,-488,-4072,136,-414,-243,705
3655,-672,-3840,208,-381,-270,713
3660,-896,-3640,288,-383,-303,708
3665,-1016,-3432,72,-409,-362,682
3670,-1200,-3280,-8,-431,-417,655
3675,-1128,-3080,-136,-454,-448,621
3680,-1120,-2928,-280,-480,-486,574
3685,-1064,-2824,-336,-495,-528,539
3690,-944,-2736,-344,-487,-568,510
3695,-792,-2560,-288,-463,-609,469
3700,-656,-2328,-224,-416,-644,422
3705,-456,-2096,-208,-369,-677,358
3710,-208,-1856,-216,-339,-698,268
3715,-48,-1632,-200,-311,-677,140
3720,72,-1256,-112,-263,-633,-18
3725,200,-864,8,-186,-597,-190
3730,320,-480,80,-79,-589,-357
3735,528,-176,120,40,-578,-501
3740,576,16,128,151,-547,-641
3745,536,216,200,239,-500,-749
3750,776,280,240,304,-411,-812
3755,688,312,320,347,-340,-875
3760,560,208,288,361,-281,-895
3765,512,120,232,345,-201,-872
3770,432,-48,248,312,-111,-832
3775,328,-232,168,283,-29,-784
3780,256,-448,104,261,46,-725
3785,184,-520,-8,248,112,-665
3790,104,-544,-112,242,172,-613
3795,16,-552,-256,235,236,-564
3800,-88,-536,-400,220,309,-513
3805,-200,-464,-576,197,373,-457
3810,-248,-376,-720,168,424,-388
3815,-256,-408,-824,117,471,-308
3820,-224,-544,-856,45,542,-213
3825,-192,-824,-816,-47,642,-116
3830,-216,-1200,-696,-143,745,-17
3835,-160,-1496,-728,-229,793,98
3840,-8,-1856,-848,-302,768,260
3845,40,-2120,-1160,-388,688,406
3850,72,-2336,-1504,-507,620,548
3855,40,-2472,-1648,-634,581,659
3860,48,-2488,-1696,-705,565,729
3865,72,-2416,-1664,-681,527,750
3870,96,-2280,-1632,-560,477,731
3875,136,-2160,-1600,-459,429,676
3880,56,-2080,-1584,-408,381,594
3885,-16,-2000,-1552,-409,319,498
3890,-168,-1832,-1520,-441,239,393
3895,-296,-1720,-1464,-485,171,287
3900,-504,-1632,-1416,-554,132,204
3905,-592,-1552,-1424,-645,115,147
3910,-712,-1520,-1368,-750,106,112
3915,-864,-1552,-1264,-852,64,91
3920,-928,-1608,-1096,-934,17,89
3925,-944,-1680,-952,-979,-53,90
3930,-992,-1752,-824,-987,-136,86
3935,-1096,-1848,-688,-977,-227,66
3940,-752,-1840,-624,-976,-360,0
3945,-608,-1872,-464,-915,-419,-6
3950,-472,-1720,-408,-842,-495,-35
3955,-400,-1656,-440,-776,-579,-71
3960,-296,-1520,-384,-737,-618,-128
3965,-208,-1232,-440,-744,-713,-245
3970,144,-1032,-544,-809,-781,-324
3975,208,-840,-520,-849,-766,-318
3980,40,-624,-552,-892,-782,-349
3985,472,-384,-712,-970,-836,-441
3990,568,-336,-608,-1021,-750,-407
3995,512,-248,-576,-1032,-699,-416
4000,736,-192,-520,-1068,-672,-456
4005,888,-240,-456,-1119,-548,-378
4010,680,-576,-240,-1146,-454,-309
4015,832,-424,-400,-1144,-436,-350
4020,896,-576,-264,-1158,-344,-318
4025,776,-704,-216,-1157,-303,-281
4030,712,-752,-296,-1168,-332,-299
4035,664,-792,-400,-1201,-350,-271
4040,504,-680,-656,-1261,-389,-230
4045,408,-736,-832,-1397,-419,-178
4050,208,-752,-776,-1573,-434,-165
4055,40,-688,-784,-1751,-429,-194
4060,8,-736,-808,-1965,-412,-187
4065,-88,-808,-784,-2194,-433,-173
4070,-192,-1000,-736,-2390,-459,-146
4075,-200,-1136,-720,-2542,-467,-114
4080,-120,-1360,-712,-2645,-455,-100
4085,-104,-1632,-616,-2692,-449,-125
4090,-16,-1952,-568,-2641,-451,-168
4095,16,-2144,-576,-2505,-461,-231
4100,16,-2384,-720,-2322,-459,-312
4105,0,-2480,-832,-2129,-428,-405
4110,24,-2536,-856,-1925,-373,-483
4115,96,-2512,-808,-1718,-307,-535
4120,176,-2432,-712,-1528,-253,-553
4125,248,-2352,-584,-1341,-217,-549
4130,144,-1952,-480,-1151,-192,-531
4135,80,-1568,-400,-995,-209,-478
4140,56,-1200,-376,-887,-278,-405
4145,56,-960,-336,-818,-377,-327
4150,-80,-600,-368,-817,-490,-261
4155,-144,-352,-424,-907,-602,-203
4160,-168,-144,-528,-1068,-712,-156
4165,-104,88,-752,-1260,-806,-110
4170,-152,288,-1064,-1501,-867,-60
4175,-128,392,-1536,-1800,-909,-6
4180,0,304,-1984,-2168,-936,48
4185,288,112,-2320,-2582,-939,87
4190,504,-136,-2288,-2988,-862,108
4195,848,-584,-2240,-3307,-718,117
4200,992,-1000,-2128,-3505,-521,102
4205,976,-1344,-2064,-3559,-270,87
4210,888,-1648,-2024,-3461,17,85
4215,768,-1936,-1960,-3292,303,104
4220,560,-2312,-1920,-3101,552,126
4225,216,-2592,-1952,-2913,730,161
4230,40,-2696,-1984,-2729,830,219
4235,48,-2704,-1976,-2525,862,279
4240,16,-2640,-1944,-2309,861,317
4245,40,-2632,-1736,-2090,823,338
4250,24,-2512,-1576,-1866,748,341
4255,-16,-2488,-1440,-1673,631,328
4260,-104,-2520,-1296,-1527,496,299
4265,-128,-2576,-1200,-1445,343,271
4270,-96,-2664,-1168,-1414,174,257
4275,-88,-2632,-1520,-1398,2,264
4280,-24,-2584,-1752,-1393,-140,288
4285,-32,-2632,-1808,-1387,-231,318
4290,-112,-2680,-1848,-1369,-273,349
4295,-152,-2640,-1816,-1355,-307,375
4300,-72,-2624,-1792,-1362,-362,399
4305,64,-2600,-1768,-1396,-429,409
4310,104,-2696,-1704,-1445,-482,409
4315,160,-2848,-1584,-1497,-552,424
4320,200,-2976,-1504,-1529,-660,436
4325,224,-2904,-1448,-1540,-771,443
4330,184,-2800,-1280,-1581,-860,442
4335,136,-2768,-1256,-1655,-945,443
4340,-56,-2512,-1344,-1777,-1024,446
4345,-72,-2384,-1368,-1944,-1086,464
4350,-120,-2248,-1336,-2093,-1129,470
4355,-152,-2040,-1184,-2199,-1154,453
4360,-272,-1808,-1056,-2316,-1188,433
4365,-264,-1640,-688,-2472,-1242,438
4370,-328,-1496,-488,-2546,-1275,437
4375,-456,-1272,-336,-2525,-1253,431
4380,-336,-1432,0,-2468,-1196,423
4385,-264,-1160,152,-2263,-1088,388
4390,-224,-656,288,-2079,-997,344
4395,-88,-192,512,-2013,-958,325
4400,32,72,592,-2017,-960,311
4405,72,296,576,-2007,-959,269
4410,128,640,328,-1934,-939,236
4415,272,888,0,-1886,-933,231
4420,384,1184,-208,-1920,-950,231
4425,464,1272,-416,-1952,-988,224
4430,488,1312,-696,-1980,-1037,211
4435,496,1224,-744,-2031,-1074,214
4440,464,928,-776,-2040,-1088,244
4445,376,672,-792,-2013,-1087,261
4450,368,312,-776,-1967,-1077,278
4455,352,40,-760,-1882,-1060,273
4460,288,-104,-712,-1799,-1050,245
4465,160,-272,-576,-1736,-1063,200
4470,-56,-328,-456,-1711,-1107,147
4475,-232,-344,-320,-1713,-1187,104
4480,-448,-344,-184,-1716,-1276,61
4485,-488,-208,-88,-1708,-1345,33
4490,-512,-144,56,-1704,-1381,17
4495,-496,48,8,-1687,-1402,41
4500,-480,288,40,-1688,-1445,79
4505,-536,600,32,-1733,-1521,128
4510,-536,864,8,-1779,-1609,207
4515,-456,960,-32,-1821,-1694,292
4520,-424,992,-200,-1858,-1790,361
4525,-400,920,-392,-1860,-1850,423
4530,-280,736,-656,-1834,-1903,464
4535,-312,704,-936,-1774,-1976,483
4540,-384,576,-1168,-1680,-2051,487
4545,-512,504,-1376,-1589,-2132,467
4550,-664,432,-1376,-1515,-2197,401
4555,-984,456,-1456,-1436,-2242,318
4560,-1104,456,-1616,-1380,-2296,247
4565,-1192,424,-1832,-1351,-2359,190
4570,-1224,416,-1944,-1319,-2425,143
4575,-1328,480,-1888,-1268,-2508,117
4580,-1248,496,-1904,-1220,-2624,129
4585,-1136,640,-1688,-1191,-2711,162
4590,-920,840,-1472,-1162,-2797,206
4595,-648,888,-1376,-1152,-2880,253
4600,-432,992,-1080,-1168,-2953,291
4605,-256,952,-744,-1182,-3022,316
4610,-240,896,-328,-1146,-3097,327
4615,-280,968,-160,-1054,-3211,346
4620,-384,1136,-40,-937,-3357,389
4625,-600,1480,-72,-825,-3498,455
4630,-744,1856,-344,-773,-3609,527
4635,-928,2160,-504,-802,-3676,578
4640,-1016,2288,-480,-871,-3736,577
4645,-1136,2456,-440,-864,-3780,525
4650,-2312,2792,448,-787,-3873,444
4655,-1728,2912,-216,-540,-4110,469
4660,-1920,3064,96,-520,-4210,286
4665,-2184,4584,-2336,-506,-4403,261
4670,-1144,3120,-1320,-570,-4211,392
4675,-1816,2576,-176,-1000,-4470,76
4680,-2600,1872,704,-687,-4573,142
4685,-2896,2688,312,-463,-5118,371
4690,-5864,6808,-2664,-160,-5510,1013
4695,-11376,13568,-6776,231,-4855,2830
4700,-9648,15584,-5768,-632,-4077,4904
4705,-3944,14368,-3432,-2034,-3487,5832
4710,832,12096,-4568,-2457,-3384,5447
4715,-7976,8776,-3768,-3049,-4024,3499
4720,-10320,1688,-4360,-3614,-4185,1189
4725,-12976,96,-7544,-3067,-2980,-1539
4730,-12568,312,-6072,-1850,-2507,-3036
4735,-13376,4664,-5352,-62,-2988,-3342
4740,-12352,5336,-4312,1126,-3499,-3113
4745,-10112,4112,-1584,1300,-3707,-3444
4750,-8400,4600,-2288,1920,-3524,-3426
4755,-6912,3352,-552,2639,-2990,-3144
4760,-3016,632,472,2310,-2583,-3602
4765,-824,88,1184,2166,-1842,-4572
4770,112,984,2336,2489,-706,-5080
4775,1376,1680,1992,2726,-277,-5133
4780,1912,3008,1856,2580,-118,-5111
4785,1792,4280,2136,2264,277,-4932
4790,1872,5432,2376,2018,825,-4278
4795,1912,5632,2040,1590,1022,-3386
4800,1832,4224,1224,932,900,-2526
4805,1520,2936,208,471,654,-1867
4810,1408,1880,-408,395,350,-1407
4815,688,760,-992,581,165,-1223
4820,240,120,-480,813,208,-1233
4825,-344,-224,-56,1035,297,-1295
4830,-1144,-144,280,1195,408,-1326
4835,-992,-264,104,1212,382,-1303
4840,-1336,-192,184,1114,370,-1347
4845,-1448,0,184,1038,115,-1368
4850,-1464,344,112,984,-241,-1355
4855,-1832,664,88,933,-609,-1297
4860,-2216,1008,144,865,-937,-1196
4865,-2304,1320,8,865,-1212,-1063
4870,-2264,1704,-40,820,-1379,-953
4875,-2328,2048,-16,709,-1477,-860
4880,-2208,2232,-32,588,-1517,-784
4885,-2184,2392,72,434,-1556,-727
4890,-1792,2240,-128,284,-1548,-647
4895,-1432,1936,-32,173,-1420,-597
4900,-1256,1592,-112,61,-1304,-579
4905,-1168,1392,-8,-28,-1217,-543
4910,-1144,1232,-64,-75,-1139,-467
4915,-1216,1104,0,-144,-1086,-369
4920,-896,1016,-168,-210,-1125,-283
4925,-920,1096,-104,-300,-1179,-194
4930,-1032,1056,0,-385,-1258,-77
4935,-1272,1048,72,-451,-1333,19
4940,-1672,1096,128,-507,-1371,89
4945,-1952,1240,136,-541,-1380,153
4950,-2328,1264,360,-559,-1383,191
4955,-2288,1240,280,-574,-1404,202
4960,-2088,1208,280,-613,-1466,216
4965,-1848,1120,496,-635,-1463,212
4970,-1736,1072,664,-609,-1412,206
4975,-1632,920,648,-563,-1333,214
4980,-1696,952,656,-514,-1253,233
4985,-1688,920,600,-503,-1218,290
4990,-1952,816,672,-535,-1172,363
4995,-2192,760,744,-574,-1149,461
5000,-2280,696,776,-584,-1146,573
5005,-2328,608,744,-554,-1150,681
5010,-2320,432,712,-522,-1143,761
5015,-2440,376,768,-489,-1132,808
5020,-2400,472,664,-467,-1147,850
5025,-2336,496,536,-455,-1176,881
5030,-2232,504,560,-414,-1196,874
5035,-2256,696,664,-314,-1192,870
5040,-2312,856,600,-164,-1173,878
5045,-2496,1040,648,-22,-1164,874
5050,-2448,1112,584,67,-1187,869
5055,-2496,1184,688,106,-1159,861
5060,-2544,1240,744,123,-1121,843
5065,-2432,1184,808,136,-1046,859
5070,-2376,1080,840,139,-942,868
5075,-2272,1016,792,143,-871,852
5080,-2088,952,792,158,-826,820
5085,-2056,936,904,166,-789,782
5090,-1904,896,936,169,-792,753
5095,-1848,936,1024,181,-791,718
5100,-2016,960,1232,207,-772,690
5105,-1968,1024,1024,227,-784,691
5110,-1664,952,896,203,-764,713
5115,-1688,832,912,162,-668,708
5120,-1536,776,896,140,-574,648
5125,-1640,720,936,139,-495,574
5130,-1696,632,896,148,-421,479
5135,-1696,536,840,141,-349,371
5140,-1656,512,848,132,-277,259
5145,-1544,496,784,146,-184,150
5150,-1528,496,808,184,-69,12
5155,-1424,552,760,232,24,-96
5160,-1368,600,752,267,102,-180
5165,-1328,632,792,281,149,-248
5170,-1328,632,760,276,146,-302
5175,-1344,672,720,260,138,-336
5180,-1376,616,704,245,141,-360
5185,-1464,576,712,231,144,-372
5190,-1536,504,744,217,142,-377
5195,-1616,480,648,203,141,-384
5200,-1664,392,584,193,145,-393
5205,-1728,352,544,185,165,-404
5210,-1728,280,512,176,192,-411
5215,-1784,272,440,166,226,-415
5220,-1848,224,488,157,263,-415
5225,-1912,240,448,154,297,-402
5230,-1928,256,440,158,328,-387
5235,-1920,232,408,172,358,-371
5240,-1920,240,408,191,382,-362
5245,-1896,248,360,215,401,-353
5250,-1912,240,320,240,413,-344
5255,-1936,240,312,250,424,-335
5260,-2008,256,344,249,435,-326
5265,-2064,240,296,241,438,-313
5270,-2080,200,280,233,434,-298
5275,-2072,184,208,226,437,-288
5280,-2152,192,216,217,450,-288
5285,-2112,192,152,212,454,-283
5290,-2072,208,120,206,456,-277
5295,-2120,184,176,199,468,-275
5300,-2000,128,48,198,452,-269
5305,-2080,144,112,191,451,-272
5310,-2136,176,176,183,444,-271
5315,-2008,144,112,172,431,-249
5320,-1984,176,88,151,432,-234
5325,-2056,104,176,106,419,-242
5330,-2064,104,112,73,398,-234
5335,-2024,48,104,49,383,-216
5340,-2104,40,112,27,352,-211
5345,-2112,-24,88,28,324,-181
5350,-2096,-40,56,38,302,-147
5355,-2096,-24,96,28,266,-133
5360,-2200,-48,48,10,223,-130
5365,-2208,-80,64,16,215,-104
5370,-2200,-48,104,40,210,-79
5375,-2184,-24,72,58,203,-61
5380,-2160,0,64,68,194,-53
5385,-2184,16,80,80,198,-37
5390,-2144,48,96,89,206,-21
5395,-2096,56,120,89,216,-12
5400,-2072,72,120,86,223,0
5405,-2072,80,120,83,226,10
5410,-2056,64,104,79,222,18
5415,-2032,48,120,68,209,25
5420,-2032,48,96,58,189,36
5425,-2040,56,152,49,162,45
5430,-2048,24,120,41,132,55
5435,-2064,16,120,41,100,68
5440,-2088,72,112,44,70,83
5445,-2072,40,128,43,44,97
5450,-2120,64,128,42,28,108
5455,-2120,96,96,50,21,118
5460,-2144,112,128,52,16,124
5465,-2128,160,120,53,18,131
5470,-2104,152,136,55,23,136
5475,-2096,160,176,55,29,137
5480,-2064,160,136,58,36,139
5485,-2048,184,168,60,41,142
5490,-2032,192,200,61,37,147
5495,-2000,200,184,61,31,150
5500,-2016,224,200,55,23,157
5505,-2016,216,200,50,16,160
5510,-2008,208,168,43,8,162
5515,-2008,208,248,42,0,163
5520,-2000,248,232,42,-10,165
5525,-2000,224,248,44,-17,164
5530,-2024,232,248,48,-20,157
5535,-2016,248,272,49,-15,151
5540,-2000,248,232,50,-9,146
5545,-2000,264,216,51,4,137
5550,-2032,256,240,48,23,127
5555,-2008,248,232,47,41,116
5560,-2008,248,240,49,59,104
5565,-2024,264,248,57,72,93
5570,-2008,232,216,66,83,84
5575,-2000,240,200,79,93,75
5580,-2024,248,224,89,100,69
5585,-2008,256,224,96,106,61
5590,-2000,248,176,101,112,54
5595,-2008,272,176,102,118,48
5600,-2000,272,200,103,120,43
5605,-1968,272,208,106,121,37
5610,-1992,264,208,108,120,32
5615,-2016,280,160,107,119,25
5620,-2000,296,152,107,117,19
5625,-1976,272,216,106,116,10
5630,-2008,280,96,106,114,4
5635,-2016,288,152,106,113,-5
5640,-2016,272,168,104,109,-10
5645,-2016,264,144,104,106,-14
5650,-2040,248,152,104,102,-20
5655,-2056,248,152,106,99,-19
5660,-2048,232,152,107,95,-23
5665,-2056,224,152,106,93,-25
5670,-2072,232,136,107,89,-30
5675,-2064,208,120,106,87,-31
5680,-2064,232,104,106,87,-36
5685,-2064,224,120,107,86,-38
5690,-2088,208,128,107,86,-37
5695,-2056,216,120,107,87,-37
5700,-2048,216,128,104,87,-37
5705,-2048,240,96,99,86,-36
5710,-2032,200,96,93,84,-36
5715,-2024,216,136,88,82,-34
5720,-2032,216,112,81,77,-30
5725,-2024,176,160,79,71,-26
5730,-2024,168,120,76,65,-19
5735,-2016,192,144,74,58,-14
5740,-2040,200,144,72,52,-9
5745,-2048,184,128,74,46,-6
5750,-2048,208,136,74,43,-4
5755,-2048,192,104,74,39,1
5760,-2040,200,128,73,37,5
5765,-2040,216,136,71,35,7
5770,-2040,208,112,68,37,8
5775,-2040,216,120,62,39,9
5780,-2048,208,120,58,39,12
5785,-2008,184,96,54,38,12
5790,-2040,184,112,51,39,14
5795,-2024,200,144,49,35,14
5800,-2040,208,120,48,30,16
5805,-2048,216,136,48,27,17
5810,-2016,232,120,47,25,18
5815,-2008,208,144,47,25,21
5820,-2040,184,128,49,25,25
5825,-2040,184,120,51,26,24
5830,-2056,192,128,55,24,25
5835,-2048,216,168,60,22,29
5840,-2040,240,96,63,21,29
5845,-2032,240,128,66,21,28
5850,-2048,224,160,67,19,26
5855,-2040,248,120,65,17,26
5860,-2024,248,136,59,19,25
5865,-2016,232,152,53,20,25
5870,-2008,240,120,51,23,26
5875,-2016,224,168,48,27,26
5880,-2016,224,144,49,26,26
5885,-2016,232,168,50,27,28
5890,-2032,216,160,53,27,27
5895,-2024,216,144,56,26,28
5900,-2024,256,160,57,24,27
5905,-2000,232,136,60,23,28
5910,-2024,240,152,62,19,22
5915,-2040,216,136,62,17,23
5920,-2008,216,136,63,16,21
5925,-2048,248,120,65,16,20
5930,-2040,224,152,65,21,17
5935,-2040,240,144,63,26,14
5940,-2024,248,152,63,32,13
5945,-2008,224,144,60,33,13
5950,-2048,256,184,58,34,13
5955,-2048,256,136,60,32,14
5960,-2032,264,168,59,33,14
5965,-2024,264,136,58,34,13
5970,-2048,264,136,57,37,10
5975,-2024,216,144,56,39,10
5980,-2008,224,136,56,39,8
5985,-2048,240,128,58,39,6
5990,-2032,240,136,58,39,5
5995,-2032,208,128,59,39,3
6000,-2008,232,120,59,40,3
6005,-2024,232,136,59,39,4
6010,-2000,232,144,57,37,4
6015,-2008,224,176,58,35,5
6020,-2008,216,144,57,34,6
6025,-2032,256,160,56,32,2
6030,-2000,208,144,57,28,5
6035,-2032,232,136,60,22,4
6040,-2048,256,120,62,17,2
6045,-2040,256,136,65,15,2
6050,-2048,232,120,66,14,2
6055,-2032,216,152,67,14,0
6060,-2040,208,120,67,20,1
6065,-2040,240,128,66,26,1
6070,-2016,256,128,64,32,2
6075,-2024,224,152,63,42,5
6080,-2008,240,152,62,48,8
6085,-2032,224,104,62,50,7
6090,-2016,232,144,65,51,7
6095,-2032,224,144,66,49,8
6100,-2016,224,120,67,46,12
6105,-2008,224,128,68,43,14
6110,-2000,224,120,72,41,17
6115,-2024,240,160,75,41,20
6120,-2016,232,128,75,41,22
6125,-2016,240,136,74,43,22
6130,-2016,232,144,72,47,19
6135,-2040,256,112,71,51,19
6140,-2016,248,128,70,54,18
6145,-2040,232,104,70,57,18
6150,-2024,248,152,71,60,16
6155,-2024,240,112,73,65,16
6160,-2032,232,160,72,68,16
6165,-1992,248,80,71,69,18
6170,-2032,240,160,70,70,21
6175,-2024,224,120,72,73,19
6180,-2032,240,168,74,74,20
6185,-2016,240,136,77,75,20
6190,-2032,232,160,81,74,21
6195,-2024,248,144,85,72,23
6200,-2016,240,144,87,71,23
6205,-2048,248,80,88,72,23
6210,-2008,240,128,87,72,23
6215,-2040,280,96,87,75,23
6220,-2048,288,120,86,76,19
6225,-2032,264,112,85,75,19
6230,-2048,264,136,83,75,20
6235,-2024,264,120,84,74,20
6240,-2032,240,104,81,75,20
6245,-2016,232,104,81,75,18
6250,-2040,240,120,82,75,19
6255,-2024,232,88,87,74,20
6260,-2032,240,104,91,70,20
6265,-2040,264,56,94,69,18
6270,-2056,232,80,98,67,19
6275,-2032,232,96,100,65,18
6280,-2040,256,96,101,64,18
6285,-2032,264,88,100,62,17
6290,-2064,264,96,99,65,22
6295,-2048,256,88,103,68,21
6300,-2032,288,104,99,70,20
6305,-2056,256,88,95,73,18
6310,-2040,272,120,92,75,19
6315,-2024,264,104,91,79,20
6320,-2040,280,112,85,79,20
6325,-2032,264,104,82,78,17
6330,-2008,232,80,82,76,19
6335,-2008,248,88,82,72,17
6340,-2016,264,96,82,65,15
6345,-2064,264,80,82,58,14
6350,-2032,264,56,82,52,15
6355,-2048,264,88,83,50,12
6360,-2040,264,88,82,47,13
6365,-2048,264,80,79,46,12
6370,-2064,280,24,76,48,13
6375,-2040,272,80,72,51,11
6380,-2048,320,56,68,55,10
6385,-2048,280,64,64,59,9
6390,-2040,272,80,61,62,8
6395,-2048,288,88,58,61,7
6400,-2032,280,80,56,60,6
6405,-2008,264,32,54,55,7
6410,-2040,256,88,53,50,5
6415,-2040,248,56,52,46,4
6420,-2040,296,80,53,42,4
6425,-2032,264,80,51,41,4
6430,-2024,296,72,50,37,3
6435,-2016,288,56,49,35,0
6440,-2032,264,64,45,35,-1
6445,-2040,264,72,44,30,-5
6450,-2040,280,72,43,29,-7
6455,-2040,272,72,44,27,-8
6460,-2048,288,56,46,24,-9
6465,-2024,280,80,46,21,-11
6470,-2048,280,32,46,21,-12
6475,-2032,256,64,46,20,-12
6480,-2040,232,80,47,19,-12
6485,-2056,256,80,50,21,-11
6490,-2072,272,24,53,16,-10
6495,-2056,296,40,57,14,-8
6500,-2040,288,40,61,11,-7
6505,-2032,288,40,61,9,-11
6510,-2048,288,48,58,2,-12
6515,-2032,280,72,53,-3,-12
6520,-2048,272,64,49,-9,-12
6525,-2024,264,80,45,-14,-11
6530,-2016,264,88,42,-16,-9
6535,-2016,248,80,40,-16,-8
6540,-2048,280,96,37,-16,-7
6545,-2040,256,96,40,-18,-5
6550,-2040,280,48,46,-21,-4
6555,-2040,256,56,51,-22,-4
6560,-2048,288,48,56,-24,-6
6565,-2032,248,56,59,-27,-8
6570,-2024,264,104,62,-29,-7
6575,-2048,256,72,62,-30,-7
6580,-2016,256,104,60,-28,-8
6585,-2048,288,128,60,-25,-6
6590,-2032,288,96,58,-22,-7
6595,-2024,280,104,57,-17,-7
6600,-2016,248,88,56,-12,-8
6605,-2040,256,104,57,-11,-7
6610,-2024,256,88,55,-11,-10
6615,-2040,272,112,54,-11,-8
6620,-2040,256,80,53,-13,-6
6625,-2024,264,120,54,-16,-5
6630,-2064,272,72,55,-17,-7
6635,-2032,256,112,56,-19,-7
6640,-2040,248,88,58,-20,-8
6645,-2016,216,80,60,-17,-11
6650,-2024,272,112,69,-15,-18
6655,-2040,280,96,70,-14,-18
6660,-2040,256,104,69,-15,-16
6665,-2032,248,120,67,-15,-17
6670,-2040,256,120,69,-15,-17
6675,-2024,272,120,67,-15,-16
6680,-2024,272,88,64,-16,-13
6685,-2016,272,104,60,-12,-12
6690,-2008,248,112,56,-9,-11
6695,-2024,272,96,55,-7,-11
6700,-2040,264,112,55,-5,-10
6705,-2032,240,120,53,-5,-7
6710,-2032,240,88,52,-4,-6
6715,-2024,248,112,52,-3,-5
6720,-2016,224,48,50,-1,-5
6725,-2048,272,120,52,4,-4
6730,-2040,272,104,53,6,-3
6735,-2024,232,112,55,7,-1
6740,-1992,248,72,57,9,-2
6745,-2040,232,104,62,10,-3
6750,-2048,272,96,64,8,-1
6755,-2032,248,80,63,4,0
6760,-2024,272,96,61,0,5
6765,-2040,264,88,59,-1,7
6770,-2024,264,104,57,0,9
6775,-2016,280,96,53,0,8
6780,-2040,280,96,51,1,8
6785,-2032,288,128,51,0,7
6790,-2000,264,112,50,-1,7
6795,-2016,288,136,51,-3,5
6800,-2032,264,128,51,-2,3
6805,-2032,328,184,49,1,1
6810,-2016,264,136,48,2,-1
6815,-2016,264,104,49,3,0
6820,-2032,264,96,50,6,-2
6825,-2032,272,80,51,10,-4
6830,-2008,256,80,51,12,-5
6835,-2016,264,88,51,14,-5
6840,-2032,280,96,50,14,-4
6845,-2024,280,80,49,14,-6
6850,-2016,264,96,48,17,-7
6855,-2024,272,112,46,20,-6
6860,-2024,256,136,46,24,-8
6865,-2032,272,136,45,28,-8
6870,-2008,256,120,44,30,-9
6875,-2000,256,128,42,33,-10
6880,-2008,232,104,40,36,-9
6885,-2016,248,104,40,38,-9
6890,-2000,248,96,40,38,-8
6895,-2008,256,104,42,38,-8
6900,-2008,248,120,44,37,-11
6905,-2000,240,128,46,34,-13
6910,-2016,264,128,52,34,-14
6915,-2024,264,104,52,30,-14
6920,-2016,288,104,51,28,-12
6925,-2040,264,128,51,26,-8
6930,-2016,256,128,52,28,-8
6935,-2032,280,88,52,31,-8
6940,-2008,256,120,53,35,-8
6945,-2032,240,144,56,39,-7
6950,-2024,256,112,57,40,-6
6955,-2024,264,104,58,38,-5
6960,-2024,272,96,61,38,-4
6965,-2048,312,88,59,37,-5
6970,-2024,272,80,57,37,-5
6975,-2032,272,112,56,37,-4
6980,-2048,264,112,55,37,-4
6985,-2024,312,120,57,39,-2
6990,-2032,288,104,59,41,-3
6995,-2016,280,80,59,43,-4
7000,-2040,272,72,60,44,-6
7005,-2040,280,112,59,44,-6
7010,-2040,272,64,60,44,-3
7015,-2048,280,88,56,43,-5
7020,-2024,288,88,55,44,-3
7025,-2032,264,104,53,45,-4
7030,-2032,264,80,53,46,-2
7035,-2040,256,88,54,45,-2
7040,-2024,280,80,55,45,-1
7045,-2016,256,80,56,41,-3
7050,-2032,264,88,58,39,-2
7055,-2040,288,80,61,34,-3
7060,-2040,272,64,64,31,-5
7065,-2048,272,64,66,27,-6
7070,-2032,296,24,66,23,-6
7075,-2040,256,72,67,20,-6
7080,-2048,272,64,66,18,-6
7085,-2040,264,56,64,17,-7
7090,-2056,280,80,61,17,-10
7095,-2032,280,56,57,20,-12
7100,-2016,280,64,56,19,-14
7105,-2048,296,56,55,18,-14
7110,-2016,264,40,52,17,-16
7115,-2040,272,96,50,14,-16
7120,-2016,256,80,50,14,-16
7125,-2024,280,104,49,12,-16
7130,-2024,312,88,50,10,-17
7135,-2032,272,88,49,9,-17
7140,-2032,264,72,50,8,-16
7145,-2032,296,96,50,9,-17
7150,-2040,248,104,50,13,-15
7155,-2032,264,112,51,16,-17
7160,-2024,256,96,49,19,-15
7165,-2024,248,72,47,19,-14
7170,-2024,248,96,48,19,-12
7175,-2048,288,88,48,20,-11
7180,-2024,248,96,48,24,-13
7185,-2016,280,72,50,26,-15
7190,-2032,272,72,48,26,-14
7195,-2008,272,112,46,27,-12
7200,-2024,272,104,40,27,-10
7205,-2032,264,112,42,28,-8
7210,-2032,232,96,44,28,-7
7215,-2040,248,96,49,30,-6
7220,-2024,248,96,53,32,-5
7225,-2048,240,80,56,34,-4
7230,-2024,248,88,60,36,-4
7235,-2040,256,80,65,38,-5
7240,-2008,216,120,69,41,-2
7245,-2048,256,88,80,42,-6
7250,-2016,248,80,85,40,-3
7255,-2024,280,72,87,35,1
7260,-2048,296,64,87,31,0
7265,-2024,304,48,86,26,2
7270,-2032,280,56,80,21,-1
7275,-2040,320,48,73,16,-5
7280,-2040,296,56,64,11,-6
7285,-2040,280,96,56,9,-5
7290,-2040,288,48,51,7,-4
7295,-2024,272,72,48,8,-5
7300,-2040,264,72,47,11,-6
7305,-2032,264,104,47,16,-5
7310,-2040,280,48,47,19,-6
7315,-2048,280,80,47,20,-4
7320,-2040,280,88,47,20,-4
7325,-2048,280,56,47,22,-3
7330,-2040,272,80,48,24,-4
7335,-2016,256,72,52,24,-4
7340,-2040,280,72,52,23,-3
7345,-2040,280,72,55,23,-4
7350,-2024,280,96,56,24,-4
7355,-2024,280,88,59,24,-5
7360,-2024,256,112,59,22,-3
7365,-2008,272,56,62,23,-4
7370,-2016,256,96,64,22,-4
7375,-2032,280,104,64,23,-5
7380,-2032,296,56,67,25,-6
7385,-2024,256,80,67,25,-6
7390,-2016,288,96,67,26,-7
7395,-2040,272,56,67,29,-5
7400,-2016,256,88,68,33,-4
7405,-2008,272,88,68,35,-3
7410,-2024,280,112,66,39,-5
7415,-2016,256,72,66,45,-4
7420,-2040,272,88,65,49,-3
7425,-2040,272,80,65,53,-6
7430,-2040,256,72,64,56,-6
7435,-2040,264,80,65,61,-9
7440,-2072,256,64,68,64,-9
7445,-2048,264,64,71,68,-11
7450,-2040,264,48,74,72,-16
7455,-2048,232,56,79,73,-18
7460,-2048,264,72,87,70,-20
7465,-2056,280,32,88,66,-19
7470,-2048,264,72,89,61,-17
7475,-2048,288,80,90,58,-17
7480,-2040,264,64,91,61,-16
7485,-2024,296,56,91,60,-17
7490,-2032,288,48,88,59,-15
7495,-2008,272,56,83,59,-16
7500,-2040,272,72,79,61,-14
7505,-2016,272,32,71,57,-13
7510,-2032,280,64,64,57,-17
7515,-1992,240,32,60,55,-15
7520,-2024,280,48,58,53,-16
7525,-2024,272,48,58,52,-15
7530,-2016,296,32,59,46,-12
7535,-2008,248,40,61,45,-10
7540,-2024,264,72,64,42,-7
7545,-1984,272,72,63,36,-6
7550,-2016,264,72,63,33,-6
7555,-2024,272,40,64,29,-3
7560,-2040,280,64,63,24,-3
7565,-2040,280,32,62,20,-5
7570,-2040,272,48,60,15,-4
7575,-2056,280,24,60,10,-5
7580,-2040,272,56,58,7,-7
7585,-2040,264,96,56,2,-6
7590,-2048,280,48,53,-2,-6
7595,-2056,264,64,52,-7,-8
7600,-2048,304,48,50,-9,-9
7605,-2056,272,32,49,-12,-10
7610,-2032,272,48,47,-14,-11
7615,-2048,272,48,47,-14,-13
7620,-2048,272,48,45,-16,-13
7625,-2040,280,48,45,-18,-15
7630,-2040,304,56,46,-20,-15
7635,-2040,288,40,47,-22,-16
7640,-2040,272,24,46,-24,-14
7645,-2032,280,56,46,-26,-15
7650,-2040,296,80,46,-29,-15
7655,-2016,272,64,47,-30,-13
7660,-2024,248,72,46,-33,-12
7665,-2040,280,72,45,-33,-10
7670,-2032,264,72,44,-34,-11
7675,-2016,256,40,44,-36,-10
7680,-2000,264,64,45,-36,-10
7685,-2024,256,72,47,-33,-10
7690,-1992,232,104,49,-34,-9
7695,-2016,272,88,50,-31,-9
7700,-2008,240,96,53,-27,-10
7705,-2032,240,80,62,-22,-11
7710,-2024,352,72,65,-21,-9
7715,-1992,248,72,57,-19,-6
7720,-2000,280,112,54,-17,-4
7725,-2024,272,96,53,-12,-2
7730,-2016,256,112,51,-4,-1
7735,-2008,280,88,50,1,0
7740,-2032,264,136,49,6,1
7745,-1992,280,120,48,14,3
7750,-2016,288,104,48,22,5
7755,-2008,240,104,46,29,8
7760,-2032,288,120,46,36,6
7765,-2024,240,112,46,43,8
7770,-2016,264,120,48,47,7
7775,-2024,264,104,49,51,8
7780,-2040,264,112,50,55,6
7785,-2024,248,96,51,57,3
7790,-2040,240,88,53,59,5
7795,-2024,264,56,53,63,3
7800,-2024,280,72,55,64,4
7805,-2024,256,112,54,65,4
7810,-2008,256,72,54,65,5
7815,-2040,264,88,55,65,6
7820,-2024,264,80,54,65,8
7825,-2032,272,80,55,65,6
7830,-2032,288,80,54,64,7
7835,-2040,280,48,56,63,8
7840,-2024,280,72,56,64,7
7845,-2048,296,48,58,63,7
7850,-2048,288,48,61,61,7
7855,-2056,280,32,64,60,7
7860,-2016,288,32,66,57,6
7865,-2032,288,40,68,53,7
7870,-2040,304,48,69,51,7
7875,-2048,296,64,67,48,5
7880,-2048,296,32,67,44,5
7885,-2040,288,40,67,43,4
7890,-2048,280,16,66,41,2
7895,-2048,288,32,66,38,1
7900,-2024,296,56,62,34,1
7905,-2048,288,32,60,31,1
7910,-2024,296,24,57,28,1
7915,-2048,304,48,55,26,0
7920,-2048,296,40,53,26,-3
7925,-2016,248,32,52,25,-5
7930,-2024,288,56,52,24,-3
7935,-2040,312,16,53,21,-5
7940,-2056,304,64,54,17,-5
7945,-2056,304,24,56,11,-5
7950,-2040,304,64,56,7,-6
7955,-2048,296,40,57,2,-7
7960,-2040,296,16,55,-3,-7
7965,-2024,272,32,54,-7,-9
7970,-2040,280,40,53,-10,-11
7975,-2048,304,32,52,-14,-13
7980,-2056,272,40,51,-16,-15
7985,-2040,280,48,52,-18,-16
7990,-2032,272,48,55,-20,-16
7995,-2032,264,32,56,-19,-15
8000,-2040,288,48,55,-19,-16
8005,-2024,280,16,56,-20,-15
8010,-2032,280,64,54,-19,-14
8015,-2040,264,80,54,-15,-11
8020,-2032,256,96,54,-13,-11
8025,-2016,264,96,55,-8,-6
8030,-2000,264,64,58,-4,-9
8035,-2032,280,64,63,-3,-7
8040,-2016,272,64,66,-3,-7
8045,-2024,272,32,67,-4,-8
8050,-2016,288,48,64,-9,-8
8055,-2016,264,64,62,-18,-7
8060,-2056,264,72,69,-21,-11
8065,-2032,320,72,71,-28,-12
8070,-2032,304,72,65,-33,-6
8075,-2040,296,72,59,-35,-5
8080,-2048,288,80,56,-34,-1
8085,-2008,272,64,55,-29,-5
8090,-2040,296,104,51,-22,-6
8095,-2040,296,64,52,-16,-5
8100,-2048,296,72,52,-14,-6
8105,-2032,272,56,52,-11,-7
8110,-2040,272,72,53,-11,-6
8115,-2040,264,88,52,-12,-7
8120,-2040,288,128,52,-11,-7
8125,-2008,272,72,52,-11,-6
8130,-2024,280,80,52,-11,-7
8135,-2032,296,72,53,-10,-7
8140,-1992,288,72,53,-9,-7
8145,-2024,272,56,54,-8,-10
8150,-2008,248,88,52,-6,-10
8155,-2000,216,88,55,-3,-13
8160,-2048,296,64,63,-1,-15
8165,-2024,296,80,60,-2,-13
8170,-2016,296,80,52,-7,-9
8175,-2032,288,64,48,-5,-6
8180,-2024,296,72,48,-2,-6
8185,-2016,280,80,43,2,-7
8190,-2008,264,72,42,6,-8
8195,-2000,296,88,42,8,-6
8200,-2016,288,56,43,7,-7
8205,-2032,272,56,44,6,-8
8210,-2048,280,56,45,4,-5
8215,-2008,264,104,47,1,-5
8220,-2016,272,80,48,0,-7
8225,-2008,272,64,48,-1,-5
8230,-2040,216,104,53,0,-11
8235,-2032,280,56,61,-2,-9
8240,-2032,296,72,57,-6,-6
8245,-2016,296,96,52,-10,-4
8250,-2032,272,88,51,-9,-4
8255,-2032,296,64,53,-8,-6
8260,-2016,272,80,53,-4,-7
8265,-2048,264,72,55,1,-10
8270,-2032,280,96,58,6,-12
8275,-2024,288,56,57,7,-11
8280,-2024,288,88,56,8,-10
8285,-2024,280,80,55,9,-9
8290,-2040,280,72,53,11,-9
8295,-2048,296,72,53,14,-11
8300,-2032,304,72,55,15,-11
8305,-2040,272,88,56,16,-12
8310,-2032,296,72,54,17,-13
8315,-2008,272,64,53,17,-12
8320,-2024,288,96,53,15,-11
8325,-2032,272,88,53,13,-11
8330,-2016,304,80,52,12,-11
8335,-2040,256,80,52,13,-12
8340,-2008,304,120,52,14,-12
8345,-2016,280,88,51,15,-12
8350,-2024,264,112,51,15,-12
8355,-2024,272,104,51,17,-11
8360,-2040,288,80,53,18,-11
8365,-2040,272,72,54,20,-10
8370,-2032,264,56,54,20,-11
8375,-2040,296,88,54,21,-11
8380,-2024,280,56,53,19,-9
8385,-2032,264,64,54,21,-8
8390,-2024,272,72,54,21,-8
8395,-2040,296,104,54,22,-7
8400,-2048,288,72,52,22,-10
8405,-2016,248,80,53,23,-11
8410,-2048,296,88,54,21,-10
8415,-2024,288,72,54,22,-10
8420,-2016,272,72,54,21,-10
8425,-2032,296,96,54,21,-10
8430,-2032,312,96,52,21,-10
8435,-2024,288,48,49,20,-10
8440,-2032,304,64,48,19,-10
8445,-2024,264,104,48,19,-11
8450,-2024,288,88,48,18,-11
8455,-2040,256,56,47,17,-13
8460,-2024,256,72,48,18,-14
8465,-2024,296,80,50,18,-14
8470,-2048,280,72,49,16,-13
8475,-2040,272,88,49,15,-13
8480,-2032,288,72,49,15,-13
8485,-2048,280,64,50,15,-13
8490,-2048,280,88,49,15,-12
8495,-2032,296,64,48,15,-12
8500,-2040,280,80,49,15,-11
8505,-2024,280,80,48,16,-9
8510,-2040,264,40,47,14,-7
8515,-2008,272,64,45,14,-8
8520,-2024,304,72,45,13,-8
8525,-2032,288,88,46,12,-6
8530,-2048,280,56,47,11,-6
8535,-2040,304,64,47,9,-7
8540,-2024,288,64,49,8,-6
8545,-2048,296,56,48,7,-6
8550,-2040,288,72,47,6,-5
8555,-2032,288,120,47,4,-7
8560,-2016,288,64,46,4,-5
8565,-1976,304,136,45,3,-6
8570,-2016,288,64,45,3,-6
8575,-2040,256,72,45,4,-6
8580,-2024,280,72,44,3,-5
8585,-2032,288,96,46,5,-6
8590,-2016,288,96,47,4,-7
8595,-2032,296,64,46,5,-7
8600,-2032,272,88,46,5,-5
8605,-2016,272,96,49,5,-6
8610,-2024,272,72,50,5,-8
8615,-2000,288,80,51,5,-6
8620,-2024,272,112,50,6,-4
8625,-2008,280,104,52,8,-4
8630,-2024,296,96,51,10,-4
8635,-2032,272,80,51,13,-5
8640,-2016,248,104,52,14,-5
8645,-2024,256,96,53,15,-3
8650,-2032,304,104,54,18,-2
8655,-2024,272,80,57,19,-2
8660,-2000,248,88,56,22,0
8665,-2024,280,104,54,25,0
8670,-2024,296,88,52,28,0
8675,-2024,280,64,50,29,1
8680,-2040,304,112,49,30,1
8685,-2016,296,64,48,31,1
8690,-2016,280,96,48,34,1
8695,-2040,288,88,47,34,2
8700,-2048,288,80,47,38,0
8705,-2016,264,96,48,39,0
8710,-2016,272,80,50,39,-2
8715,-2032,280,72,51,41,-2
8720,-2048,288,72,53,40,-3
8725,-2016,288,72,55,41,-2
8730,-2040,312,32,55,42,-2
8735,-2024,304,88,55,44,-4
8740,-2024,264,80,52,44,-3
8745,-2032,304,40,52,44,-3
8750,-2032,296,88,50,43,-5
8755,-2024,288,72,46,44,-6
8760,-2032,280,48,46,45,-6
8765,-2032,296,80,46,44,-7
8770,-2040,256,48,49,45,-6
8775,-2040,288,56,52,42,-5
8780,-2064,368,64,55,39,-3
8785,-2048,280,72,57,37,-4
8790,-2032,288,72,59,36,-4
8795,-2032,288,56,58,34,-4
8800,-2016,296,56,60,35,-4
8805,-2024,320,56,60,36,-4
8810,-2032,296,48,60,38,-3
8815,-2024,288,48,59,38,-4
8820,-2024,296,56,55,37,-4
8825,-2024,280,48,50,32,-5
8830,-2024,280,56,47,27,-5
8835,-2000,264,56,42,22,-3
8840,-2024,256,40,40,17,-1
8845,-2040,264,80,40,13,0
8850,-2040,304,72,42,12,2
8855,-2048,296,48,41,12,1
8860,-2040,280,56,42,13,1
8865,-2056,288,40,45,12,-1
8870,-2048,296,32,48,12,-1
8875,-2032,280,72,50,9,-1
8880,-2032,304,72,51,7,-3
8885,-2040,312,64,51,5,-2
8890,-2032,304,40,52,4,-4
8895,-2032,264,48,50,4,-5
8900,-2032,280,56,48,2,-7
8905,-2032,288,64,47,3,-8
8910,-2048,280,16,47,2,-9
8915,-2032,272,48,47,1,-8
8920,-2040,272,56,47,1,-8
8925,-2032,280,64,45,2,-8
8930,-2032,296,96,46,0,-8
8935,-2016,280,88,47,1,-10
8940,-2048,296,72,47,0,-9
8945,-2016,304,104,48,1,-11
8950,-2040,288,88,49,0,-11
8955,-2048,296,56,50,0,-10
8960,-2048,272,88,48,1,-11
8965,-2032,272,64,49,0,-12
8970,-2016,296,64,47,1,-10
8975,-2048,280,72,48,1,-12
8980,-2040,296,72,49,3,-11
8985,-2040,272,64,50,2,-10
8990,-2024,296,40,50,1,-11
8995,-2032,280,72,48,1,-12
9000,-2032,296,88,47,0,-11
9005,-2040,288,96,45,1,-11
9010,-2040,296,80,45,-1,-11
9015,-2040,288,64,43,-4,-11
9020,-2016,288,56,44,-7,-11
9025,-2024,280,40,46,-9,-12
9030,-2024,272,72,47,-10,-11
9035,-2032,272,48,49,-11,-11
9040,-2024,280,56,51,-11,-13
9045,-2016,272,48,52,-11,-13
9050,-2024,280,72,53,-14,-13
9055,-2008,272,72,52,-11,-13
9060,-2032,312,104,51,-10,-13
9065,-2024,288,80,50,-9,-12
9070,-2032,304,72,51,-5,-13
9075,-2024,304,80,50,-2,-13
9080,-2016,272,72,49,0,-11
9085,-2032,280,72,48,-1,-11
9090,-2024,296,80,47,1,-9
9095,-2008,272,72,46,2,-9
9100,-2016,248,96,46,3,-7
9105,-2016,288,64,47,4,-9
9110,-2032,272,40,47,5,-8
9115,-2032,280,80,48,6,-9
9120,-2024,272,96,49,6,-8
9125,-2048,280,96,50,6,-8
9130,-2024,288,72,51,6,-9
9135,-2016,264,64,50,6,-8
9140,-2032,304,64,52,7,-10
9145,-1992,304,88,50,9,-9
9150,-2008,288,72,49,9,-9
9155,-2032,272,80,49,10,-11
9160,-2008,272,88,48,11,-10
9165,-2040,304,72,49,12,-10
9170,-2024,304,80,47,13,-10
9175,-2024,280,64,48,14,-9
9180,-2024,288,80,49,16,-9
9185,-2032,256,64,48,16,-9
9190,-2024,272,96,47,16,-9
9195,-2024,280,72,49,16,-10
9200,-2040,288,48,50,15,-9
9205,-1952,352,112,49,15,-8
9210,-2024,280,56,49,14,-11
9215,-2032,320,72,50,13,-8
9220,-2032,304,72,49,15,-8
9225,-2032,288,64,49,15,-8
9230,-2048,312,80,49,13,-7
9235,-2040,288,80,50,13,-8
9240,-2032,296,56,49,11,-8
9245,-2016,288,48,49,9,-9
9250,-2024,256,64,50,11,-9
9255,-2024,280,80,50,9,-9
9260,-2032,272,56,50,9,-8
9265,-2032,264,96,51,9,-9
9270,-2032,280,64,51,8,-9
9275,-2016,280,48,52,8,-10
9280,-2032,296,104,51,9,-10
9285,-2040,304,64,51,8,-11
9290,-2032,288,96,51,10,-10
9295,-2032,288,64,50,9,-9
9300,-2008,304,88,50,10,-9
9305,-2024,288,72,51,12,-9
9310,-2024,288,64,50,14,-9
9315,-2024,280,72,50,15,-7
9320,-2032,296,64,50,14,-11
9325,-2032,264,48,50,15,-10
9330,-2032,288,48,51,14,-11
9335,-2016,280,72,53,13,-10
9340,-2048,272,48,52,15,-10
9345,-2008,264,96,53,15,-10
9350,-2024,280,56,55,15,-11
9355,-2032,280,48,56,16,-10
9360,-2040,304,88,55,17,-8
9365,-2032,304,72,56,20,-8
9370,-2032,312,88,55,22,-7
9375,-2032,288,72,53,22,-5
9380,-2024,272,64,53,22,-4
9385,-2016,280,104,52,23,-4
9390,-2032,280,80,52,23,-3
9395,-2008,256,64,53,22,-3
9400,-2032,288,64,53,23,-2
9405,-2040,288,72,54,22,-2
9410,-2016,288,80,55,22,-2
9415,-2016,280,56,56,23,-2
9420,-2040,288,120,57,24,-2
9425,-2048,280,64,56,24,-4
9430,-2008,288,56,55,24,-3
9435,-2024,288,64,54,23,-4
9440,-2008,288,56,54,23,-8
9445,-2024,312,72,52,23,-7
9450,-2032,280,96,52,23,-9
9455,-2040,288,96,50,23,-9
9460,-2024,296,64,50,23,-10
9465,-2040,304,48,50,22,-10
9470,-2040,280,64,49,21,-6
9475,-2040,288,64,49,19,-7
9480,-2048,296,48,52,20,-8
9485,-2048,288,80,53,19,-9
9490,-2016,304,56,52,21,-11
9495,-2032,288,56,50,22,-12
9500,-2024,288,72,48,22,-12
9505,-2008,280,96,48,22,-11
9510,-2048,272,104,45,22,-10
9515,-2040,256,88,46,22,-12
9520,-2032,288,88,49,23,-12
9525,-2024,280,72,52,24,-9
9530,-2024,280,96,54,24,-7
9535,-2040,280,48,57,23,-3
9540,-2032,280,56,59,21,-3
9545,-2040,280,56,61,20,-3
9550,-2048,296,72,62,22,-2
9555,-2024,280,64,61,24,1
9560,-2032,296,72,62,26,0
9565,-2032,296,72,62,28,1
9570,-2008,304,48,62,29,0
9575,-2024,280,40,61,31,1
9580,-2032,304,32,58,28,-2
9585,-2032,256,56,55,25,-1
9590,-2024,280,64,52,19,-3
9595,-2008,272,64,50,15,-2
9600,-2000,256,72,49,11,-1
9605,-2040,248,96,53,11,-4
9610,-2032,312,64,58,9,-5
9615,-2032,312,88,55,7,-1
9620,-2040,312,72,49,7,0
9625,-2032,312,32,49,8,0
9630,-2016,288,168,52,12,-3
9635,-2008,288,80,50,16,-5
9640,-2040,280,72,50,20,-7
9645,-2024,288,56,51,20,-6
9650,-2040,288,80,50,21,-4
9655,-2040,296,72,50,22,-6
9660,-2048,296,56,48,21,-6
9665,-2024,280,88,48,22,-8
9670,-2032,304,24,49,22,-8
9675,-2040,304,96,49,20,-8
9680,-2040,304,104,48,20,-9
9685,-2024,288,80,49,20,-8
9690,-2032,280,72,50,20,-10
9695,-2024,280,80,51,20,-10
9700,-2032,312,64,52,20,-9
9705,-2040,288,64,52,20,-9
9710,-2040,296,64,52,20,-8
9715,-2008,304,40,52,20,-10
9720,-2024,288,48,50,20,-8
9725,-2016,256,56,49,20,-9
9730,-2016,280,88,48,22,-9
9735,-2040,288,88,47,24,-10
9740,-2032,304,96,46,24,-12
9745,-2024,296,80,47,25,-11
9750,-2032,304,88,46,26,-14
9755,-2032,312,64,45,27,-14
9760,-2040,288,80,44,29,-14
9765,-2032,320,88,43,29,-14
9770,-2024,280,64,43,31,-15
9775,-2040,280,88,46,32,-15
9780,-2040,280,72,48,32,-15
9785,-2032,280,64,51,32,-15
9790,-2032,296,48,54,31,-15
9795,-2024,280,48,55,31,-14
9800,-2040,304,56,55,32,-16
9805,-2008,280,80,53,30,-13
9810,-2032,296,56,51,30,-12
9815,-2032,312,80,48,31,-13
9820,-2016,296,56,46,31,-13
9825,-2024,296,80,44,32,-13
9830,-2024,304,56,45,35,-13
9835,-2016,280,64,43,38,-15
9840,-2024,272,72,43,39,-15
9845,-2024,280,88,43,43,-14
9850,-2040,272,32,44,45,-14
9855,-2048,280,40,46,49,-12
9860,-2024,272,56,48,50,-11
9865,-2032,280,72,48,53,-11
9870,-2032,304,72,49,55,-10
9875,-2032,312,72,49,56,-12
9880,-2032,280,64,49,58,-12
9885,-2024,280,56,49,59,-12
9890,-2032,280,72,50,59,-12
9895,-2024,288,48,50,61,-13
9900,-2040,288,56,50,63,-14
9905,-2016,280,56,50,66,-15
9910,-2032,288,48,50,66,-16
9915,-2040,288,32,51,65,-16
9920,-2032,288,56,50,63,-17
9925,-2040,296,24,50,62,-18
9930,-2024,296,72,51,58,-17
9935,-2040,288,48,50,53,-16
9940,-2024,256,32,51,49,-16
9945,-2016,288,48,50,44,-15
9950,-2000,272,72,50,40,-15
9955,-2032,304,16,49,37,-16
9960,-2016,288,40,50,34,-15
9965,-2040,304,32,48,30,-15
9970,-2056,312,24,44,29,-14
9975,-2032,288,32,43,28,-14
9980,-2048,304,88,41,30,-16
9985,-2048,296,64,39,30,-17
9990,-2048,304,56,38,34,-18
9995,-2040,280,32,38,39,-18
10000,-2040,312,56,38,42,-22
10005,-2032,280,80,38,47,-21
10010,-2040,320,56,35,53,-21
10015,-2048,288,56,34,58,-20
10020,-2040,304,48,31,63,-21
10025,-2040,312,8,30,70,-26
10030,-2032,296,16,27,72,-25
10035,-2048,304,40,20,75,-25
10040,-2040,296,48,13,74,-27
10045,-2072,312,-24,6,74,-30
10050,-2088,280,80,3,71,-32
10055,-2048,280,16,4,68,-30
10060,-2040,264,8,5,64,-30
10065,-2040,280,40,12,58,-29
10070,-2016,232,40,20,50,-27
10075,-2040,288,24,29,43,-25
10080,-2000,248,24,38,33,-24
10085,-2016,256,48,45,24,-22
10090,-2016,264,64,51,16,-20
10095,-2008,264,24,53,7,-19
10100,-2008,296,24,55,0,-19
10105,-2016,280,64,54,-5,-18
10110,-2016,296,56,53,-9,-17
10115,-2016,288,64,50,-11,-16
10120,-2024,296,64,48,-9,-13
10125,-1976,280,72,47,-8,-14
10130,-2024,296,32,45,-6,-14
10135,-2008,296,88,46,-5,-11
10140,-2000,296,64,45,-3,-10
10145,-2000,296,56,45,-2,-9
10150,-2016,280,64,45,-1,-8
10155,-2024,288,40,45,-3,-4
10160,-2048,272,40,46,-3,-5
10165,-2032,256,48,48,-3,-6
10170,-2016,280,64,51,-2,-4
10175,-2040,296,72,53,-4,-2
10180,-2024,272,24,56,-5,-1
10185,-2040,288,40,57,-10,-1
10190,-2048,296,32,59,-12,2
10195,-2048,264,16,59,-17,2
10200,-2048,296,40,60,-20,3
10205,-2056,304,24,60,-24,3
10210,-2048,304,24,59,-28,5
10215,-2040,304,32,58,-33,5
10220,-2032,288,24,57,-36,6
10225,-2048,296,48,54,-41,8
10230,-2040,304,32,51,-45,8
10235,-2024,320,72,50,-46,7
10240,-2040,288,48,46,-48,6
10245,-2032,288,56,46,-47,3
10250,-2024,264,48,45,-46,3
10255,-2016,264,64,46,-43,4
10260,-2032,272,48,47,-39,5
10265,-2048,264,32,49,-36,8
10270,-2016,296,40,53,-33,10
10275,-2040,256,16,55,-31,13
10280,-2040,248,48,60,-29,20
10285,-2040,272,40,63,-32,25
10290,-2024,256,16,67,-41,31
10295,-2032,280,48,73,-53,34
10300,-2040,264,32,76,-62,38
10305,-2032,280,24,76,-72,43
10310,-2024,288,64,75,-83,45
10315,-2024,320,16,76,-93,46
10320,-2048,304,40,78,-103,46
10325,-2016,312,40,80,-110,44
10330,-2032,328,64,78,-117,41
10335,-2032,296,56,76,-122,38
10340,-2048,304,56,72,-121,35
10345,-2040,296,32,68,-119,31
10350,-2064,344,40,60,-114,29
10355,-2056,304,32,55,-114,29
10360,-2056,312,56,50,-112,29
10365,-2048,280,48,42,-113,33
10370,-2016,296,72,35,-112,33
10375,-2024,280,88,32,-111,33
10380,-2040,296,72,34,-109,32
10385,-2032,280,80,36,-108,32
10390,-2000,336,128,38,-108,31
10395,-2024,296,112,43,-107,28
10400,-2024,288,120,44,-106,27
10405,-2000,296,136,48,-103,28
10410,-1992,312,128,50,-100,27
10415,-1992,280,128,53,-94,25
10420,-1992,296,144,54,-86,23
10425,-2000,288,144,55,-79,21
10430,-2000,280,152,55,-78,24
10435,-2008,304,96,61,-75,28
10440,-2016,312,112,64,-65,27
10445,-1984,320,128,63,-55,24
10450,-1992,280,144,60,-44,20
10455,-2016,304,112,61,-34,18
10460,-2000,312,120,59,-23,15
10465,-1992,304,136,59,-14,15
10470,-2016,296,112,58,-6,14
10475,-2008,296,112,57,-2,14
10480,-1992,272,112,59,4,12
10485,-2048,312,80,59,12,12
10490,-2008,320,80,60,18,10
10495,-2016,312,104,59,22,10
10500,-2016,304,80,57,25,11
10505,-2040,320,136,57,29,12
10510,-2008,304,120,55,30,11
10515,-2016,320,136,56,34,10
10520,-2016,304,120,55,38,11
10525,-2016,328,72,56,41,9
10530,-2000,296,96,56,41,10
10535,-2016,320,104,56,42,8
10540,-1992,288,112,55,43,7
10545,-2016,312,120,57,45,7
10550,-2048,312,88,58,46,7
10555,-2024,312,112,57,49,7
10560,-2032,320,72,56,52,8
10565,-2024,288,96,55,56,8
10570,-2040,320,88,55,59,10
10575,-2032,304,104,55,61,10
10580,-2016,312,104,54,62,13
10585,-2016,288,80,55,61,13
10590,-1992,288,88,56,58,13
10595,-2024,344,88,55,56,11
10600,-2040,312,80,55,51,11
10605,-2040,296,56,56,48,11
10610,-2048,336,72,56,46,11
10615,-2032,296,104,57,44,10
10620,-2040,328,80,55,45,10
10625,-2024,312,96,56,44,10
10630,-2048,328,72,55,43,11
10635,-2032,304,64,54,43,11
10640,-2040,312,80,53,41,10
10645,-2024,328,40,55,40,12
10650,-2016,320,72,55,39,11
10655,-2024,312,80,55,38,11
10660,-2032,312,64,56,37,9
10665,-2008,304,56,61,35,7
10670,-2040,312,64,62,32,5
10675,-2040,320,64,61,29,5
10680,-2016,320,64,58,25,6
10685,-2040,336,96,57,23,7
10690,-2024,296,72,55,21,7
10695,-2008,328,72,53,23,7
10700,-2016,296,80,51,24,6
10705,-2048,368,80,50,24,5
10710,-2016,312,56,50,24,4
10715,-2024,328,80,47,23,2
10720,-2024,328,64,48,20,0
10725,-2040,312,24,48,17,-1
10730,-2040,328,56,48,14,-2
10735,-2024,320,40,48,9,-2
10740,-2040,320,64,48,7,-2
10745,-2032,320,80,48,5,-5
10750,-2024,344,56,45,1,-4
10755,-2024,320,80,46,-2,-5
10760,-2040,328,48,46,-6,-6
10765,-2024,336,80,46,-10,-7
10770,-2024,328,32,47,-12,-9
10775,-2056,320,64,46,-18,-9
10780,-2032,320,56,45,-20,-7
10785,-2040,328,80,45,-21,-8
10790,-2016,336,72,44,-21,-10
10795,-2032,312,64,43,-21,-11
10800,-2008,320,80,42,-22,-14
10805,-2024,304,56,42,-21,-13
10810,-2040,312,72,42,-20,-15
10815,-2024,328,64,43,-22,-15
10820,-2032,304,88,43,-24,-17
10825,-2016,328,96,44,-25,-18
10830,-2040,344,80,44,-26,-18
10835,-2024,320,80,45,-29,-16
10840,-2032,312,80,45,-30,-16
10845,-2024,304,104,45,-31,-16
10850,-2024,328,96,44,-31,-17
10855,-2032,320,96,45,-30,-16
10860,-2016,320,88,45,-30,-18
10865,-2016,328,80,45,-29,-19
10870,-2024,336,112,45,-29,-20
10875,-1976,224,104,46,-29,-23
10880,-2024,288,104,60,-22,-35
10885,-2000,368,88,65,-19,-27
10890,-2016,368,96,55,-20,-26
10895,-2024,336,96,47,-21,-23
10900,-2040,328,104,48,-16,-24
10905,-2024,328,104,47,-10,-28
10910,-2048,360,48,45,-6,-30
10915,-2008,280,96,47,-4,-30
10920,-2016,296,96,59,-3,-30
10925,-2032,304,112,63,-10,-28
10930,-2032,328,96,64,-12,-27
10935,-2024,288,96,69,-17,-26
10940,-2064,336,120,80,-15,-28
10945,-2016,320,104,83,-21,-25
10950,-2024,320,152,80,-23,-21
10955,-2040,344,136,76,-24,-20
10960,-2008,336,96,71,-24,-20
10965,-2024,320,96,66,-22,-20
10970,-2016,320,96,62,-18,-20
10975,-2008,288,112,59,-15,-21
10980,-2000,288,144,57,-14,-22
10985,-2016,304,104,57,-11,-22
10990,-2008,296,104,57,-9,-21
10995,-2024,296,128,56,-6,-17
11000,-2000,304,136,55,-1,-14
11005,-2016,288,112,56,5,-12
11010,-1992,264,112,60,12,-11
11015,-2000,304,120,64,17,-9
11020,-2016,288,96,65,20,-7
11025,-2008,312,136,65,23,-5
11030,-2008,304,88,66,24,-5
11035,-2008,312,144,66,24,-2
11040,-2008,304,64,67,22,-3
11045,-2032,312,104,70,22,-3
11050,-2032,360,112,70,18,0
11055,-2032,328,112,62,16,3
11060,-2024,328,96,57,12,6
11065,-2024,328,96,52,11,9
11070,-2032,336,88,51,12,7
11075,-2016,320,88,50,13,7
11080,-2032,336,96,51,16,6
11085,-2048,336,80,50,15,4
11090,-2040,320,96,51,15,4
11095,-2032,320,96,53,11,3
11100,-2016,320,96,56,10,-1
11105,-2040,320,104,57,7,-1
11110,-2048,320,112,60,4,0
11115,-2024,312,96,62,4,0
11120,-2040,304,112,64,8,-5
11125,-2024,312,80,66,8,-7
11130,-2024,296,104,69,11,-9
11135,-2016,288,112,74,14,-9
11140,-2000,208,144,77,17,-13
11145,-2032,304,112,96,24,-22
11150,-2008,328,120,98,20,-17
11155,-2040,336,112,95,18,-10
11160,-2000,336,104,93,17,-4
11165,-2008,320,120,88,16,-4
11170,-1992,288,96,86,18,-3
11175,-2024,312,144,84,23,-3
11180,-2000,312,112,82,27,-4
11185,-2008,320,96,81,31,-2
11190,-2024,312,120,82,34,-3
11195,-2008,328,104,83,38,-3
11200,-2024,296,120,83,40,-3
11205,-2016,296,112,82,42,-3
11210,-2008,296,104,81,44,0
11215,-2008,320,104,81,46,2
11220,-2016,320,112,81,48,3
11225,-2000,328,112,79,48,3
11230,-2016,320,104,77,51,3
11235,-2024,328,112,76,52,1
11240,-2032,328,80,74,53,0
11245,-2016,312,96,75,55,0
11250,-1992,296,96,74,56,-2
11255,-2008,304,136,75,56,-3
11260,-2048,304,96,75,57,-5
11265,-2048,312,96,77,57,-2
11270,-2016,320,120,74,58,-4
11275,-2040,336,88,74,59,-5
11280,-2016,320,88,70,59,-5
11285,-2040,336,80,67,61,-5
11290,-2040,336,72,64,63,-6
11295,-2040,336,80,58,64,-7
11300,-2032,336,56,55,67,-7
11305,-2040,312,48,53,67,-9
11310,-2032,344,88,49,66,-9
11315,-2024,312,80,49,65,-10
11320,-2040,336,48,48,66,-10
11325,-2040,344,64,47,63,-8
11330,-2016,352,64,46,62,-11
11335,-2040,304,80,46,59,-11
11340,-2016,296,64,48,54,-10
11345,-2024,328,72,48,51,-10
11350,-2032,328,72,47,49,-9
11355,-2024,320,72,49,43,-9
11360,-2040,328,96,50,41,-9
11365,-2024,320,96,49,38,-10
11370,-2008,336,80,48,35,-11
11375,-2008,328,96,48,33,-12
11380,-2032,312,104,48,31,-11
11385,-2040,312,72,47,30,-12
11390,-2024,304,88,48,29,-10
11395,-2040,336,96,48,28,-10
11400,-2016,320,72,48,29,-10
11405,-2024,312,80,48,30,-10
11410,-2008,312,96,49,31,-11
11415,-2000,328,96,48,32,-10
11420,-2000,320,152,48,35,-8
11425,-2008,304,112,48,37,-11
11430,-2008,336,64,49,37,-10
11435,-2032,336,96,48,40,-11
11440,-2024,344,96,49,41,-13
11445,-2032,320,72,50,43,-14
11450,-2040,328,96,51,46,-17
11455,-2016,320,72,54,47,-19
11460,-2040,344,96,54,51,-20
11465,-2024,304,64,55,53,-20
11470,-2008,328,104,56,53,-21
11475,-2016,320,112,57,54,-23
11480,-2040,312,88,58,55,-22
11485,-2008,328,80,58,55,-23
11490,-2008,328,64,58,55,-24
11495,-2016,312,104,60,56,-26
11500,-2024,328,48,62,57,-26
11505,-2008,320,88,61,59,-27
11510,-2024,304,96,60,59,-26
11515,-2032,312,40,61,60,-26
11520,-2016,320,72,57,62,-26
11525,-2016,336,80,55,63,-26
11530,-2016,304,48,53,65,-25
11535,-2032,344,80,49,67,-25
11540,-2032,328,72,47,69,-27
11545,-2024,280,48,47,71,-26
11550,-2024,408,24,45,72,-25
11555,-2040,328,80,47,75,-24
11560,-2032,288,72,45,77,-22
11565,-2024,312,56,48,81,-20
11570,-2056,304,32,50,83,-18
11575,-2040,304,56,52,85,-17
11580,-2040,328,56,55,89,-18
11585,-2024,296,64,58,91,-17
11590,-2024,304,56,60,91,-18
11595,-2032,304,32,60,90,-16
11600,-2032,328,56,61,86,-14
11605,-2040,312,48,61,82,-13
11610,-2024,304,56,60,80,-13
11615,-2032,304,40,60,76,-13
11620,-2048,328,24,60,71,-13
11625,-2048,280,56,60,68,-11
11630,-2048,304,32,61,64,-11
11635,-2048,320,64,62,64,-12
11640,-2056,312,64,59,65,-12
11645,-2048,312,48,57,66,-12
11650,-2032,312,40,54,69,-12
11655,-2056,336,32,53,73,-11
11660,-2024,336,24,50,79,-11
11665,-2040,352,16,47,81,-10
11670,-2032,288,48,47,80,-8
11675,-2048,344,40,45,81,-10
11680,-2040,312,32,41,77,-12
11685,-2032,304,40,37,76,-16
11690,-2032,320,48,39,72,-17
11695,-2032,304,64,39,66,-14
11700,-2040,320,40,37,61,-12
11705,-2040,304,40,38,58,-10
11710,-2016,320,40,40,56,-10
11715,-2024,320,48,38,55,-11
11720,-2000,328,24,37,56,-14
11725,-2016,304,48,41,57,-16
11730,-2024,312,32,46,57,-17
11735,-2008,304,24,50,56,-20
11740,-2040,328,40,52,56,-20
11745,-2008,304,48,53,58,-21
11750,-2016,304,40,53,59,-23
11755,-2048,304,48,53,61,-23
11760,-2016,328,40,54,61,-24
11765,-2000,224,16,53,62,-25
11770,-2016,336,32,51,64,-27
11775,-2032,320,24,51,66,-27
11780,-2040,320,16,48,68,-27
11785,-2000,336,16,40,67,-31
11790,-2008,328,32,35,73,-32
11795,-2024,320,64,41,75,-35
11800,-2024,312,48,46,77,-34
11805,-2024,288,40,47,75,-32
11810,-2024,312,32,50,75,-31
11815,-2040,312,8,52,76,-30
11820,-2040,336,16,52,79,-30
11825,-2040,328,24,53,78,-31
11830,-2024,320,8,56,76,-31
11835,-2048,344,8,58,74,-30
11840,-2032,328,16,59,72,-32
11845,-2056,328,0,57,70,-34
11850,-2016,296,0,57,67,-37
11855,-2040,304,0,54,63,-35
11860,-2032,328,8,53,58,-36
11865,-2024,312,16,51,55,-37
11870,-2032,328,8,48,52,-36
11875,-2016,312,16,39,48,-38
11880,-2024,272,8,39,48,-39
11885,-2032,312,40,46,43,-39
11890,-2032,288,8,49,38,-38
11895,-2032,312,16,52,34,-37
11900,-2016,296,24,52,33,-37
11905,-2040,296,8,51,33,-36
11910,-2024,296,24,51,32,-35
11915,-2048,304,24,51,31,-35
11920,-2040,288,8,49,31,-36
11925,-2040,296,8,48,28,-37
11930,-2032,296,0,45,27,-35
11935,-2048,328,0,40,24,-35
11940,-2016,280,8,27,19,-34
11945,-2016,272,24,29,23,-35
11950,-2008,280,16,35,23,-34
11955,-2032,288,8,37,23,-31
11960,-2040,312,16,37,23,-30
11965,-2032,296,24,40,26,-29
11970,-2016,288,32,39,27,-27
11975,-2008,304,48,38,30,-27
11980,-2024,312,24,36,34,-27
11985,-2000,296,48,35,38,-26
11990,-2016,296,24,37,40,-26
11995,-2040,280,32,39,43,-23
12000,-2032,296,32,40,44,-22
12005,-2032,304,24,42,44,-20
12010,-2032,280,48,43,43,-18
12015,-2032,280,48,45,43,-18
12020,-2040,304,8,43,40,-16
12025,-2008,272,24,37,44,-16
12030,-2008,272,8,41,47,-16
12035,-2040,312,40,46,50,-17
12040,-2032,288,48,47,54,-17
12045,-2040,296,0,47,58,-16
12050,-2040,304,24,46,61,-16
12055,-2040,312,-8,47,63,-18
12060,-2032,288,40,49,65,-17
12065,-2040,296,16,48,67,-16
12070,-2048,288,0,50,66,-15
12075,-2016,280,24,53,65,-16
12080,-2032,288,8,56,63,-16
12085,-2032,336,8,58,62,-15
12090,-2048,296,16,61,62,-17
12095,-2040,312,8,62,61,-18
12100,-2024,288,0,62,60,-18
12105,-2040,304,8,63,58,-18
12110,-2016,280,8,62,53,-18
12115,-2040,304,-8,61,49,-18
12120,-2024,312,0,60,44,-16
12125,-2032,296,-24,60,41,-17
12130,-2032,320,8,58,39,-17
12135,-2040,288,-8,55,37,-18
12140,-2016,280,24,53,35,-19
12145,-2032,296,16,51,34,-19
12150,-2088,344,24,48,32,-18
12155,-2000,296,24,34,25,-22
12160,-2032,272,32,36,31,-21
12165,-2048,320,0,42,29,-20
12170,-2032,304,8,47,32,-19
12175,-2016,248,8,49,34,-18
12180,-2040,296,-16,49,40,-18
12185,-2032,304,0,49,44,-16
12190,-2032,256,104,50,45,-16
12195,-2040,320,-16,50,46,-15
12200,-2048,312,8,49,44,-14
12205,-2016,288,-16,50,41,-16
12210,-2032,304,0,46,36,-16
12215,-2016,288,8,44,33,-16
12220,-2024,328,8,40,30,-16
12225,-2024,312,-8,28,22,-16
12230,-2008,272,0,19,26,-20
12235,-2016,272,8,23,25,-19
12240,-2040,272,8,28,22,-19
12245,-2016,296,8,32,23,-20
12250,-2032,288,-8,36,25,-19
12255,-2040,320,0,41,27,-19
12260,-2032,280,0,47,27,-19
12265,-2040,288,8,51,28,-19
12270,-2048,296,-24,54,28,-19
12275,-2040,304,32,57,28,-19
12280,-2056,296,-32,57,28,-18
12285,-2040,312,8,55,29,-18
12290,-2040,288,0,56,29,-17
12295,-2040,304,0,56,26,-18
12300,-2040,264,24,56,24,-17
12305,-2040,296,0,56,20,-17
12310,-2040,296,-8,57,16,-17
12315,-2024,272,-8,58,12,-17
12320,-2032,312,0,58,8,-16
12325,-2016,320,0,57,5,-18
12330,-2032,296,8,56,4,-19
12335,-2040,312,-8,56,2,-20
12340,-2024,304,-24,55,2,-17
12345,-2016,280,0,54,1,-19
12350,-2032,304,-8,54,2,-17
12355,-2008,272,-16,54,-1,-15
12360,-2000,272,8,55,-1,-16
12365,-2024,272,0,56,-3,-15
12370,-2040,272,8,58,-2,-13
12375,-2048,312,0,58,-3,-12
12380,-2032,304,-40,60,-4,-13
12385,-2040,272,-16,60,-3,-13
12390,-2016,280,8,62,-5,-14
12395,-2032,288,8,64,-8,-15
12400,-2032,264,0,65,-8,-14
12405,-2048,304,-8,64,-11,-16
12410,-2040,288,-8,66,-15,-15
12415,-2048,304,0,67,-16,-15
12420,-2016,296,16,67,-18,-13
12425,-2032,296,-8,66,-18,-12
12430,-2040,312,0,64,-16,-12
12435,-2040,312,8,62,-17,-10
12440,-2032,296,16,58,-14,-10
12445,-2048,312,8,57,-11,-10
12450,-2032,312,16,55,-10,-12
12455,-2024,280,8,54,-9,-11
12460,-2000,280,8,52,-8,-10
12465,-2016,280,16,52,-6,-12
12470,-2000,280,8,53,-3,-9
12475,-2008,304,40,53,-3,-9
12480,-2032,272,24,52,-1,-8
12485,-2008,288,16,52,-1,-6
12490,-2024,304,0,52,0,-7
12495,-2000,272,8,53,1,-6
12500,-1992,296,16,52,3,-5
12505,-2016,288,16,53,4,-5
12510,-2032,288,0,53,6,-6
12515,-2024,288,24,52,9,-5
12520,-2032,296,8,51,12,-5
12525,-2016,296,16,53,13,-5
12530,-2048,312,0,53,15,-5
12535,-2024,280,16,53,17,-5
12540,-2040,288,16,54,18,-6
12545,-2032,304,8,54,18,-6
12550,-2040,280,40,52,18,-7
12555,-2016,304,0,53,19,-8
12560,-2048,304,16,53,18,-8
12565,-2056,320,16,53,17,-10
12570,-2040,304,0,52,18,-9
12575,-2048,296,8,52,17,-8
12580,-2040,288,16,52,17,-9
12585,-2032,280,32,53,16,-9
12590,-2016,304,-16,51,16,-9
12595,-2048,304,-8,52,18,-8
12600,-2024,296,-8,51,19,-10
12605,-2024,304,-16,51,18,-10
12610,-2016,288,16,53,19,-11
12615,-2008,280,0,53,18,-11
12620,-2024,296,8,54,16,-11
12625,-2024,256,0,53,17,-10
12630,-2032,280,0,55,14,-7
12635,-2056,288,0,55,12,-7
12640,-2032,304,8,55,11,-6
12645,-2032,304,0,57,10,-9
12650,-2040,320,16,56,9,-8
12655,-2024,272,24,57,9,-8
12660,-2032,296,16,57,8,-9
12665,-2040,304,8,56,7,-8
12670,-2024,280,-16,57,6,-8
12675,-2040,280,16,56,7,-7
12680,-2016,312,24,56,6,-7
12685,-2032,304,8,55,6,-7
12690,-2016,288,8,54,5,-8
12695,-2032,320,0,53,4,-8
12700,-2024,296,8,52,4,-7
12705,-2032,288,0,50,3,-5
12710,-2032,272,0,50,2,-8
12715,-2016,312,32,48,2,-8
12720,-2024,304,32,49,2,-7
12725,-2032,296,8,48,3,-7
12730,-2024,304,24,48,5,-8
12735,-2040,312,8,49,7,-10
12740,-2040,312,0,50,9,-10
12745,-2032,304,8,50,12,-12
12750,-2032,296,0,50,14,-11
12755,-2032,288,0,50,17,-12
12760,-2048,312,24,50,18,-11
12765,-2040,288,8,50,20,-13
12770,-2032,288,32,52,21,-11
12775,-2016,272,24,51,22,-9
12780,-2032,256,48,53,23,-9
12785,-2024,296,16,55,22,-8
12790,-2016,280,24,55,22,-8
12795,-2040,264,8,57,20,-8
12800,-2040,288,32,58,19,-8
12805,-2016,296,0,57,18,-9
12810,-2040,328,8,57,17,-10
12815,-2040,288,16,56,17,-12
12820,-2032,296,8,54,16,-12
12825,-2024,280,40,53,18,-12
12830,-2024,296,8,53,19,-12
12835,-2040,296,0,53,22,-11
12840,-2040,280,16,52,23,-10
12845,-2040,280,0,51,23,-9
12850,-2040,296,-16,54,23,-9
12855,-2048,288,-32,56,24,-11
12860,-2040,288,-8,59,24,-14
12865,-2032,288,0,59,23,-15
12870,-2040,312,0,59,20,-16
12875,-2024,288,-16,59,14,-15
12880,-2024,280,8,58,10,-14
12885,-2024,272,0,57,7,-15
12890,-2040,328,-8,56,6,-15
12895,-2032,280,24,55,5,-16
12900,-2016,296,8,55,4,-15
12905,-2032,272,24,53,7,-16
12910,-2016,272,16,54,9,-14
12915,-2024,312,8,52,10,-14
12920,-2016,280,32,52,11,-13
12925,-2040,280,8,53,14,-11
12930,-2032,264,8,55,18,-9
12935,-2032,288,8,57,24,-8
12940,-2040,312,0,61,30,-5
12945,-2032,280,-8,63,32,-5
12950,-2032,312,16,64,30,-5
12955,-2032,280,-8,62,26,-5
12960,-2032,296,16,59,21,-4
12965,-2024,288,-32,56,13,-4
12970,-2040,304,0,52,6,-4
12975,-2032,304,0,51,0,-3
12980,-2032,312,8,50,-5,-4
12985,-2032,312,24,51,-8,-5
12990,-2032,272,-16,52,-6,-6
12995,-2048,304,0,52,-5,-8
13000,-2048,304,-8,55,-3,-8
13005,-2048,296,0,55,0,-12
13010,-2048,288,0,55,1,-13
13015,-2048,264,0,56,2,-15
13020,-2032,304,8,57,3,-15
13025,-2032,304,16,58,2,-17
13030,-2032,296,-24,59,3,-17
13035,-2024,296,24,59,4,-16
13040,-2032,296,24,58,5,-18
13045,-2008,288,8,56,3,-20
13050,-2016,280,0,55,4,-20
13055,-2024,288,8,55,2,-21
13060,-2016,312,0,53,3,-21
13065,-2024,288,0,54,6,-20
13070,-2032,328,0,55,8,-20
13075,-2016,288,-48,58,8,-22
13080,-2040,272,8,59,11,-23
13085,-2056,304,8,61,11,-21
13090,-2032,272,-24,64,11,-21
13095,-2040,280,0,65,12,-20
13100,-2000,296,0,68,9,-20
13105,-2048,320,-24,69,8,-18
13110,-2048,296,0,70,6,-19
13115,-2032,304,-8,69,2,-19
13120,-2024,304,0,70,-2,-18
13125,-2048,320,0,69,-5,-19
13130,-2008,288,8,67,-11,-18
13135,-2032,280,-24,72,-16,-25
13140,-2024,336,0,70,-19,-23
13145,-2040,328,0,64,-25,-16
13150,-2032,304,0,59,-28,-15
13155,-2008,280,-48,56,-28,-14
13160,-2032,256,16,54,-26,-16
13165,-2024,328,-16,55,-26,-17
13170,-2040,296,16,55,-26,-16
13175,-2040,296,-8,53,-26,-13
13180,-2032,280,16,54,-26,-13
13185,-2032,296,16,55,-26,-11
13190,-2040,272,24,53,-27,-9
13195,-2040,256,24,54,-27,-10
13200,-2032,296,16,53,-25,-8
13205,-1992,264,168,52,-23,-7
13210,-2032,296,56,52,-22,-8
13215,-2024,296,32,52,-20,-8
13220,-2048,312,0,50,-17,-5
13225,-2032,296,16,49,-16,-5
13230,-2048,288,40,46,-13,-4
13235,-2016,296,56,45,-9,-5
13240,-2048,320,16,45,-4,-6
13245,-2008,296,16,44,-2,-4
13250,-2024,296,24,45,0,-5
13255,-2032,272,48,47,4,-5
13260,-2032,288,32,48,6,-4
13265,-2024,256,24,50,5,-3
13270,-2032,296,32,53,5,-4
13275,-2032,312,24,56,5,-3
13280,-2016,280,40,58,6,-3
13285,-2040,272,0,60,6,-5
13290,-2040,296,-16,61,4,-5
13295,-2032,296,24,62,2,-6
13300,-2040,296,8,64,1,-8
13305,-2024,304,32,66,0,-8
13310,-2032,280,8,70,1,-8
13315,-2032,304,40,78,0,-11
13320,-2032,320,24,78,-2,-9
13325,-2024,320,16,72,-5,-7
13330,-2032,312,16,66,-5,-6
13335,-2032,296,8,61,-5,-6
13340,-2016,296,16,59,-1,-10
13345,-2040,320,32,57,1,-13
13350,-2024,288,16,56,5,-14
13355,-2032,304,24,56,8,-15
13360,-2008,288,56,54,13,-15
13365,-2024,264,48,53,17,-15
13370,-2008,264,32,53,23,-14
13375,-2008,264,24,53,30,-17
13380,-1984,272,32,52,35,-16
13385,-2008,296,32,51,42,-16
13390,-2024,280,40,51,47,-14
13395,-2024,280,48,50,53,-13
13400,-2024,288,40,49,59,-11
13405,-2016,288,48,51,65,-9
13410,-2008,256,32,52,70,-8
13415,-2024,272,40,54,73,-5
13420,-2000,216,56,54,76,-6
13425,-2016,264,24,57,77,-6
13430,-2032,320,8,59,78,-4
13435,-2040,336,0,60,75,-4
13440,-2040,280,8,62,75,-5
13445,-2048,296,-8,65,75,-7
13450,-2048,280,8,67,74,-9
13455,-2056,312,-8,68,71,-12
13460,-2048,280,0,70,68,-12
13465,-2024,304,8,71,64,-11
13470,-2032,304,-32,68,60,-12
13475,-2048,320,0,65,58,-11
13480,-2032,296,0,63,54,-10
13485,-2024,288,0,61,51,-11
13490,-2032,264,16,59,46,-11
13495,-2024,272,8,58,42,-11
13500,-2040,296,0,57,38,-10
13505,-2032,272,0,54,36,-9
13510,-2008,264,-40,55,33,-8
13515,-2016,272,8,53,32,-8
13520,-2032,296,-16,53,32,-9
13525,-2040,272,8,53,32,-7
13530,-2040,304,8,53,32,-5
13535,-2032,256,0,53,32,-5
13540,-2024,264,-8,56,31,-3
13545,-2032,312,-8,54,30,-3
13550,-2040,288,-24,52,27,-3
13555,-2032,304,-16,51,22,-2
13560,-2048,304,0,49,18,-1
13565,-2032,280,-24,47,16,2
13570,-2040,312,0,46,13,3
13575,-2056,264,-8,44,8,2
13580,-2032,288,-8,44,6,4
13585,-2032,272,-8,44,4,4
13590,-2048,304,40,45,2,2
13595,-2032,280,0,45,1,1
13600,-2048,312,-8,46,-2,1
13605,-2032,296,0,47,-5,0
13610,-2056,296,-8,48,-6,-1
13615,-2048,312,0,48,-8,-4
13620,-2056,288,-16,48,-11,-5
13625,-2024,304,0,47,-13,-7
13630,-2032,312,-48,48,-15,-8
13635,-2040,296,8,47,-18,-8
13640,-2032,296,0,47,-20,-9
13645,-2048,304,16,46,-25,-11
13650,-2040,312,0,48,-27,-11
13655,-2032,320,32,49,-31,-9
13660,-2032,280,-8,50,-33,-11
13665,-2040,288,0,51,-34,-11
13670,-2040,304,0,52,-37,-11
13675,-2032,296,8,52,-37,-12
13680,-2016,280,16,55,-38,-10
13685,-2024,304,-16,56,-39,-10
13690,-1984,288,0,56,-37,-9
13695,-2024,304,0,56,-37,-9
13700,-2032,296,8,56,-36,-8
13705,-2024,304,16,56,-35,-8
13710,-2032,304,24,58,-34,-9
13715,-2032,288,40,60,-32,-10
13720,-2008,280,8,61,-32,-12
13725,-2024,256,-8,64,-30,-13
13730,-2008,256,32,70,-28,-18
13735,-2032,296,16,77,-29,-17
13740,-2040,320,16,77,-35,-12
13745,-2032,296,40,72,-39,-10
13750,-2024,304,32,70,-43,-8
13755,-2048,304,-8,71,-44,-11
13760,-2032,304,24,73,-44,-10
13765,-2040,264,40,76,-42,-10
13770,-2040,280,16,79,-42,-11
13775,-2016,312,24,81,-41,-12
13780,-2032,304,24,80,-42,-10
13785,-2008,288,16,79,-42,-10
13790,-2024,320,24,73,-40,-8
13795,-2008,336,8,68,-37,-7
13800,-1984,296,24,63,-34,-9
13805,-2016,312,64,59,-27,-10
13810,-2000,304,48,55,-20,-12
13815,-2008,296,48,51,-12,-11
13820,-2040,296,72,48,-6,-10
13825,-2016,288,48,44,0,-7
13830,-2016,256,24,43,7,-6
13835,-2000,288,40,42,13,-3
13840,-1992,264,32,43,21,-1
13845,-1984,224,112,43,27,-1
13850,-2032,296,56,46,34,-1
13855,-2032,296,48,48,37,0
13860,-2024,320,56,52,41,-1
13865,-2024,304,32,53,46,0
13870,-2024,288,40,56,49,-3
13875,-2040,296,56,57,52,-2
13880,-2008,272,40,60,54,-3
13885,-2032,296,24,63,57,-4
13890,-2024,288,40,64,59,-3
13895,-2048,304,24,64,65,-4
13900,-2008,272,24,65,66,-3
13905,-2016,296,48,65,69,-3
13910,-2016,312,24,65,72,-2
13915,-2024,304,8,67,74,-4
13920,-2008,296,8,70,72,-7
13925,-1984,320,8,71,76,-12
13930,-2040,312,16,72,77,-14
13935,-2032,320,8,72,73,-16
13940,-2032,312,8,70,67,-22
13945,-2032,328,24,68,66,-26
13950,-2016,320,24,67,63,-33
13955,-2008,296,0,68,61,-37
13960,-2040,304,16,67,59,-42
13965,-2000,304,8,67,59,-47
13970,-2016,296,-8,66,58,-51
13975,-2040,312,8,65,56,-55
13980,-2032,320,8,63,53,-59
13985,-2024,304,8,59,50,-61
13990,-2048,336,8,57,46,-65
13995,-2032,296,16,54,46,-69
14000,-2048,296,-40,51,45,-73
14005,-2040,288,-24,48,45,-77
14010,-2040,304,-8,43,42,-81
14015,-2040,336,-48,42,41,-81
14020,-2032,296,-16,37,41,-84
14025,-2056,296,-48,34,39,-85
14030,-2056,320,-32,31,34,-85
14035,-2056,288,-8,29,27,-85
14040,-2056,312,-40,28,23,-86
14045,-2032,288,-40,32,20,-86
14050,-2048,272,-48,33,14,-89
14055,-2064,280,-16,34,5,-91
14060,-2056,264,-40,35,-4,-91
14065,-2064,304,-48,33,-19,-88
14070,-2096,304,-24,27,-34,-88
14075,-2088,256,-8,25,-48,-86
14080,-2080,296,0,19,-65,-87
14085,-2088,288,-16,13,-75,-86
14090,-2064,272,-24,9,-80,-84
14095,-2048,224,-8,7,-81,-82
14100,-2072,272,0,5,-84,-80
14105,-2080,264,-16,8,-86,-78
14110,-2048,248,-8,11,-86,-76
14115,-2040,280,0,16,-86,-74
14120,-2072,264,0,21,-88,-72
14125,-2048,272,-24,27,-92,-72
14130,-2040,264,-8,29,-98,-72
14135,-2024,248,0,32,-105,-72
14140,-2048,272,0,34,-111,-73
14145,-2040,280,16,35,-120,-72
14150,-2040,232,16,33,-125,-74
14155,-2000,224,24,34,-130,-75
14160,-2000,232,8,35,-133,-74
14165,-2008,248,32,37,-135,-71
14170,-2024,256,40,34,-134,-67
14175,-2008,248,32,33,-131,-64
14180,-1992,224,72,34,-126,-61
14185,-1992,232,40,36,-120,-56
14190,-1992,224,56,39,-114,-50
14195,-2008,216,80,42,-107,-47
14200,-1992,248,48,43,-102,-42
14205,-1984,232,80,44,-95,-39
14210,-2008,240,32,47,-89,-36
14215,-2024,248,88,49,-83,-32
14220,-2032,232,40,49,-79,-30
14225,-2032,240,40,49,-73,-28
14230,-2032,248,72,48,-68,-27
14235,-2040,256,40,48,-66,-26
14240,-2032,256,72,46,-64,-23
14245,-2032,248,64,47,-63,-20
14250,-2032,272,40,48,-63,-19
14255,-2032,248,40,49,-62,-18
14260,-2048,240,64,49,-64,-17
14265,-2040,272,48,46,-62,-16
14270,-2048,240,88,47,-60,-17
14275,-2040,224,64,48,-56,-18
14280,-2032,256,64,48,-51,-17
14285,-2040,256,80,48,-48,-17
14290,-2024,216,64,50,-43,-18
14295,-2016,248,48,50,-38,-19
14300,-2032,272,72,49,-37,-19
14305,-2000,240,64,48,-34,-15
14310,-2032,264,72,50,-29,-16
14315,-2016,216,88,49,-27,-17
14320,-2024,248,64,50,-22,-15
14325,-2008,256,64,48,-19,-14
14330,-2040,264,56,47,-16,-12
14335,-2040,240,64,47,-13,-11
14340,-2040,272,64,46,-9,-10
14345,-2016,232,40,47,-6,-13
14350,-2032,264,80,49,-1,-14
14355,-2024,256,40,50,1,-13
14360,-2040,272,64,52,4,-14
14365,-2032,240,56,52,6,-14
14370,-2032,264,64,55,10,-12
14375,-2016,240,56,55,15,-14
14380,-2024,224,72,56,17,-12
14385,-2040,248,72,55,21,-12
14390,-2024,240,80,55,23,-10
14395,-2016,224,72,54,24,-8
14400,-2016,232,64,54,26,-7
14405,-2032,248,48,52,29,-6
14410,-2024,240,48,52,31,-4
14415,-2032,248,32,51,33,-2
14420,-2000,240,80,51,36,-1
14425,-2008,248,64,49,38,-2
14430,-1992,240,72,49,40,0
14435,-2040,240,72,49,44,-1
14440,-2016,240,80,48,47,1
14445,-2016,264,56,49,50,2
14450,-2024,256,56,49,51,3
14455,-2024,224,64,49,53,6
14460,-2032,248,40,49,55,9
14465,-2032,232,32,49,57,11
14470,-2024,232,64,50,59,11
14475,-2032,240,64,49,59,11
14480,-2032,256,56,47,60,14
14485,-2024,320,56,48,62,15
14490,-2040,256,56,49,63,16
14495,-2016,256,72,49,64,17
14500,-2032,232,40,50,64,17
14505,-2024,248,40,49,64,19
14510,-2040,264,48,49,63,18
14515,-2048,272,64,51,63,18
14520,-2048,240,80,51,63,16
14525,-2040,248,40,51,62,16
14530,-2056,256,8,51,64,14
14535,-2032,264,40,52,64,12
14540,-2040,264,72,52,65,10
14545,-2040,264,24,52,64,10
14550,-2040,272,24,51,65,9
14555,-2048,272,32,51,64,9
14560,-2040,256,16,50,61,9
14565,-2040,264,16,50,61,7
14570,-2048,264,24,51,58,9
14575,-2040,224,16,50,57,9
14580,-2040,248,32,50,54,8
14585,-2040,280,32,51,53,6
14590,-2048,256,32,51,50,6
14595,-2048,280,48,53,48,5
14600,-2024,264,32,54,45,4
14605,-2040,256,8,55,42,5
14610,-2024,264,16,56,40,5
14615,-2056,264,24,57,36,2
14620,-2040,288,48,59,33,0
14625,-2048,264,16,59,31,-1
14630,-2048,280,40,61,30,-1
14635,-2056,264,16,58,29,-1
14640,-2040,264,24,58,29,-3
14645,-2048,264,40,58,28,-3
14650,-2032,256,16,56,26,-3
14655,-2024,264,40,56,26,-3
14660,-2040,264,48,54,26,-2
14665,-2048,264,40,54,27,-2
14670,-2024,256,40,52,28,-1
14675,-2040,256,40,50,28,2
14680,-2016,240,72,48,31,2
14685,-2040,232,16,45,30,3
14690,-2040,256,48,45,29,3
14695,-2040,264,40,48,26,5
14700,-2032,248,-40,50,26,5
14705,-2024,232,24,52,25,3
14710,-2040,280,32,54,24,2
14715,-2016,256,24,54,21,3
14720,-2056,280,24,54,17,1
14725,-2040,272,24,52,14,2
14730,-2048,288,48,51,10,1
14735,-2032,256,72,48,9,1
14740,-2048,272,24,47,9,-1
14745,-2032,248,40,45,11,0
14750,-2024,272,24,46,13,-1
14755,-2024,248,16,46,15,-1
14760,-2032,240,32,45,17,-2
14765,-2016,240,24,47,18,-1
14770,-2032,264,16,50,20,-1
14775,-2024,248,0,53,19,2
14780,-2032,240,8,54,19,2
14785,-2048,264,0,59,16,3
14790,-2040,248,16,60,11,2
14795,-2040,280,48,57,4,3
14800,-2008,288,16,54,-5,2
14805,-2008,240,32,51,-8,-1
14810,-2016,272,32,51,-12,-3
14815,-2040,280,48,49,-13,-3
14820,-2024,256,48,47,-15,-4
14825,-2024,256,40,48,-17,-5
14830,-2048,280,16,48,-15,-6
14835,-2040,272,32,47,-16,-6
14840,-2048,280,32,47,-14,-5
14845,-2048,272,64,46,-13,-7
14850,-2032,280,40,47,-10,-7
14855,-2040,264,80,49,-8,-7
14860,-2008,256,64,49,-8,-7
14865,-2032,264,24,51,-6,-8
14870,-2048,272,64,53,-4,-9
14875,-2016,272,24,54,-2,-9
14880,-2016,264,56,53,0,-10
14885,-2040,264,40,52,2,-9
14890,-2024,248,40,52,5,-10
14895,-2008,248,24,51,7,-10
14900,-2024,264,48,52,8,-8
14905,-2024,256,40,51,9,-6
14910,-2016,240,96,54,10,-8
14915,-2024,264,56,53,10,-6
14920,-2048,256,64,50,11,-6
14925,-2016,256,32,51,11,-6
14930,-2032,288,72,52,12,-5
14935,-2032,248,32,52,14,-4
14940,-2032,280,40,51,12,-3
14945,-2032,280,72,51,13,-4
14950,-2024,256,24,51,12,-5
14955,-2024,256,40,51,14,-3
14960,-2040,280,16,51,13,-5
14965,-2040,280,24,51,12,-4
14970,-2040,264,24,52,11,-3
14975,-2040,256,64,53,9,-3
14980,-2032,264,40,52,6,-3
14985,-2032,296,40,50,6,-3
14990,-2048,288,24,50,4,-5
14995,-2040,280,48,47,3,-6
