timestamp,accel_x,accel_y,accel_z,gyro_x,gyro_y,gyro_z
0,-168,-1944,-688,-35,54,2
5,-152,-1960,-672,-35,54,3
10,-168,-1952,-664,-37,54,1
15,-168,-1920,-672,-41,53,1
20,-160,-1952,-688,-44,55,-1
25,-192,-1920,-680,-48,55,2
30,-136,-1928,-680,-50,55,0
35,-152,-1920,-704,-54,53,3
40,-120,-1912,-720,-58,52,2
45,-168,-1920,-704,-62,49,6
50,-120,-1952,-696,-68,47,5
55,-152,-1936,-704,-73,44,9
60,-160,-1944,-680,-74,43,6
65,-112,-1928,-712,-75,43,7
70,-152,-1952,-704,-74,41,5
75,-136,-1976,-728,-70,41,7
80,-136,-1968,-688,-68,39,3
85,-176,-1936,-696,-67,38,6
90,-160,-1952,-696,-68,37,4
95,-184,-1944,-680,-65,35,6
100,-160,-1968,-672,-67,36,6
105,-160,-1976,-656,-65,35,8
110,-152,-1944,-680,-62,33,5
115,-136,-1944,-696,-61,31,8
120,-128,-1936,-664,-62,32,8
125,-152,-1920,-688,-62,35,12
130,-136,-1928,-672,-60,40,9
135,-144,-1928,-664,-60,45,10
140,-128,-1928,-688,-61,47,7
145,-136,-1952,-680,-61,55,8
150,-144,-1952,-656,-61,58,4
155,-112,-1928,-672,-60,60,4
160,-120,-1944,-688,-58,62,2
165,-144,-1960,-688,-57,62,3
170,-168,-1952,-648,-56,58,0
175,-136,-1968,-688,-56,56,4
180,-160,-1952,-656,-57,53,2
185,-144,-1928,-720,-56,52,3
190,-144,-1936,-696,-56,53,1
195,-136,-1936,-696,-57,54,3
200,-152,-1928,-680,-61,54,3
205,-160,-1960,-712,-61,53,5
210,-136,-1968,-704,-62,53,6
215,-176,-1952,-720,-62,50,8
220,-144,-1968,-688,-60,51,6
225,-160,-1960,-704,-57,50,10
230,-152,-1968,-656,-54,51,8
235,-152,-1936,-696,-49,52,11
240,-136,-1944,-680,-46,56,9
245,-120,-1968,-712,-45,56,9
250,-128,-1944,-696,-45,57,7
255,-144,-1936,-720,-46,60,6
260,-112,-1936,-696,-47,59,4
265,-136,-1936,-672,-49,63,5
270,-144,-1928,-680,-50,64,5
275,-136,-1952,-656,-49,64,6
280,-160,-1952,-672,-48,63,6
285,-152,-1952,-680,-47,63,9
290,-144,-1936,-656,-45,63,8
295,-136,-1952,-696,-44,62,8
300,-152,-1928,-696,-44,63,7
305,-144,-1928,-704,-46,62,8
310,-128,-1944,-704,-51,64,7
315,-128,-1936,-696,-56,64,8
320,-120,-1920,-712,-60,66,7
325,-152,-1936,-704,-62,65,7
330,-144,-1960,-680,-61,65,7
335,-144,-1944,-680,-59,66,8
340,-144,-1936,-664,-54,63,6
345,-136,-1944,-680,-52,63,6
350,-112,-1960,-672,-48,64,5
355,-120,-1968,-704,-44,67,6
360,-112,-1960,-720,-41,66,6
365,-136,-1952,-688,-39,69,6
370,-120,-1960,-720,-37,72,7
375,-104,-1960,-720,-38,74,5
380,-120,-1944,-680,-37,77,6
385,-128,-1976,-664,-35,78,2
390,-128,-1936,-672,-33,80,1
395,-104,-1920,-688,-34,80,-2
400,-88,-1968,-680,-36,82,-3
405,-112,-1936,-680,-39,85,-3
410,-120,-1960,-640,-41,87,-5
415,-104,-1952,-672,-41,92,-5
420,-120,-1952,-656,-41,97,-5
425,-112,-1928,-632,-42,98,-7
430,-104,-1968,-664,-39,100,-5
435,-104,-1952,-656,-35,101,-8
440,-112,-1960,-656,-31,101,-8
445,-104,-1960,-648,-28,99,-13
450,-104,-1976,-680,-27,96,-11
455,-112,-1976,-672,-26,95,-12
460,-104,-1968,-656,-21,96,-12
465,-128,-1952,-680,-13,96,-16
470,-144,-1952,-664,-7,96,-17
475,-136,-1952,-656,-3,94,-20
480,-112,-1976,-640,-1,92,-17
485,-96,-1984,-600,4,89,-17
490,-128,-1984,-592,10,90,-13
495,-128,-1944,-600,13,92,-13
500,-136,-1944,-584,14,89,-11
505,-128,-1944,-600,12,86,-14
510,-96,-1928,-600,9,83,-12
515,-96,-1944,-608,6,78,-13
520,-96,-1968,-632,2,73,-11
525,-104,-1952,-592,1,70,-13
530,-96,-1928,-616,-2,71,-11
535,-96,-1952,-584,-2,70,-11
540,-96,-1936,-616,-8,68,-5
545,-64,-1960,-592,-11,69,-3
550,-56,-1928,-592,-15,73,4
555,-80,-1920,-608,-18,77,5
560,-96,-1896,-632,-23,77,7
565,-72,-1912,-584,-29,76,9
570,-80,-1896,-600,-36,77,16
575,-88,-1888,-608,-41,76,17
580,-88,-1912,-592,-51,80,24
585,-88,-1944,-552,-63,80,24
590,-88,-1960,-552,-69,80,29
595,-88,-1968,-568,-72,81,30
600,-96,-1952,-560,-70,81,36
605,-64,-1960,-544,-68,79,33
610,-64,-1960,-536,-67,78,36
615,-88,-1984,-560,-71,79,33
620,-80,-1960,-568,-72,79,38
625,-88,-1968,-552,-77,79,38
630,-88,-1976,-560,-79,80,41
635,-96,-1960,-568,-81,83,38
640,-88,-1944,-544,-81,85,40
645,-96,-1944,-568,-83,84,38
650,-96,-1960,-560,-86,83,42
655,-88,-1936,-592,-87,80,39
660,-96,-1928,-608,-87,79,41
665,-96,-1952,-584,-89,76,39
670,-96,-1928,-592,-89,74,43
675,-96,-1952,-576,-92,70,40
680,-96,-1936,-552,-91,66,41
685,-96,-1944,-560,-86,58,37
690,-96,-1968,-560,-85,53,39
695,-128,-1928,-544,-86,48,35
700,-96,-1968,-584,-88,46,38
705,-112,-1960,-568,-91,42,34
710,-120,-1944,-544,-90,38,34
715,-136,-1968,-584,-89,32,31
720,-120,-1960,-576,-86,26,32
725,-96,-1968,-592,-82,19,30
730,-96,-1960,-608,-77,13,31
735,-104,-1936,-576,-76,10,26
740,-112,-1936,-616,-79,5,29
745,-112,-1952,-608,-82,-1,25
750,-96,-1952,-632,-86,-6,27
755,-104,-1968,-656,-85,-11,23
760,-96,-1936,-672,-82,-18,27
765,-120,-1944,-688,-82,-25,26
770,-96,-1920,-656,-83,-32,29
775,-120,-1920,-656,-79,-37,28
780,-96,-1936,-688,-72,-40,30
785,-88,-1944,-640,-63,-42,30
790,-96,-1936,-664,-56,-41,32
795,-96,-1920,-656,-51,-41,30
800,-96,-1944,-680,-48,-41,34
805,-96,-1912,-672,-51,-42,34
810,-96,-1912,-688,-56,-44,36
815,-128,-1896,-680,-61,-44,37
820,-104,-1920,-680,-68,-45,41
825,-112,-1896,-704,-76,-46,45
830,-136,-1888,-712,-83,-47,49
835,-136,-1880,-672,-92,-49,52
840,-120,-1896,-696,-97,-53,56
845,-120,-1896,-680,-101,-55,59
850,-120,-1920,-712,-106,-60,61
855,-112,-1896,-648,-107,-64,62
860,-128,-1896,-696,-105,-68,63
865,-96,-1920,-704,-102,-73,63
870,-152,-1880,-696,-101,-74,65
875,-136,-1864,-704,-100,-74,67
880,-160,-1864,-712,-99,-73,73
885,-192,-1840,-680,-100,-71,79
890,-184,-1824,-688,-101,-71,85
895,-232,-1832,-664,-107,-71,91
900,-232,-1816,-688,-119,-69,99
905,-240,-1816,-696,-136,-68,106
910,-240,-1832,-656,-156,-65,114
915,-240,-1840,-664,-176,-63,120
920,-240,-1872,-680,-193,-63,127
925,-224,-1904,-640,-209,-61,133
930,-240,-1944,-672,-221,-59,141
935,-280,-1968,-640,-230,-58,149
940,-280,-1984,-632,-238,-56,159
945,-304,-2032,-640,-245,-55,170
950,-320,-2016,-624,-246,-52,181
955,-312,-2016,-624,-243,-50,191
960,-328,-2024,-616,-237,-52,199
965,-304,-1992,-640,-230,-56,204
970,-280,-1992,-608,-227,-58,212
975,-280,-1960,-600,-225,-58,219
980,-296,-1928,-640,-223,-58,224
985,-296,-1912,-600,-225,-54,232
990,-296,-1888,-568,-231,-50,239
995,-280,-1864,-496,-237,-44,245
1000,-264,-1816,-520,-240,-40,248
1005,-264,-1776,-464,-243,-32,249
1010,-264,-1768,-456,-249,-24,248
1015,-256,-1784,-416,-260,-10,253
1020,-248,-1816,-392,-272,9,254
1025,-248,-1840,-408,-281,29,256
1030,-208,-1888,-424,-285,49,256
1035,-192,-1904,-432,-291,69,255
1040,-168,-1936,-464,-304,84,252
1045,-176,-1936,-480,-326,98,259
1050,-136,-2000,-472,-352,105,269
1055,-192,-2016,-496,-376,109,283
1060,-184,-2048,-456,-391,110,297
1065,-216,-2048,-464,-390,111,310
1070,-272,-2064,-464,-376,111,320
1075,-280,-2080,-464,-354,112,344
1080,-304,-2048,-480,-322,110,355
1085,-328,-2032,-520,-303,109,369
1090,-376,-1984,-512,-286,106,380
1095,-432,-2008,-520,-272,100,390
1100,-440,-1992,-504,-257,93,388
1105,-472,-1984,-560,-242,85,392
1110,-520,-1968,-552,-223,70,387
1115,-496,-1960,-504,-199,57,382
1120,-472,-1936,-576,-183,48,369
1125,-488,-1936,-512,-173,43,365
1130,-464,-1920,-568,-160,36,362
1135,-496,-1888,-560,-149,23,358
1140,-504,-1872,-544,-144,11,351
1145,-464,-1896,-560,-145,-2,353
1150,-488,-1872,-552,-153,-10,362
1155,-504,-1880,-616,-169,-24,374
1160,-464,-1944,-624,-184,-31,381
1165,-480,-1976,-608,-200,-38,397
1170,-480,-2048,-576,-218,-44,394
1175,-488,-2104,-536,-225,-47,390
1180,-480,-2160,-544,-229,-53,375
1185,-464,-2200,-568,-231,-49,362
1190,-496,-2272,-560,-234,-38,349
1195,-528,-2328,-560,-251,-25,340
1200,-528,-2328,-584,-271,-16,311
1205,-544,-2360,-600,-292,1,283
1210,-504,-2376,-640,-325,12,266
1215,-504,-2408,-648,-361,21,254
1220,-488,-2384,-640,-396,32,239
1225,-480,-2400,-656,-426,41,236
1230,-504,-2376,-624,-448,52,230
1235,-496,-2384,-616,-461,65,225
1240,-520,-2360,-592,-481,74,218
1245,-488,-2328,-568,-501,87,213
1250,-496,-2304,-536,-519,105,210
1255,-504,-2248,-480,-534,122,212
1260,-464,-2208,-456,-548,129,203
1265,-464,-2200,-456,-561,138,194
1270,-416,-2200,-448,-572,145,176
1275,-424,-2208,-416,-575,152,169
1280,-400,-2200,-376,-569,155,159
1285,-392,-2248,-376,-551,160,148
1290,-392,-2248,-368,-526,159,129
1295,-352,-2280,-336,-501,158,113
1300,-400,-2288,-272,-467,155,88
1305,-384,-2344,-272,-416,142,69
1310,-424,-2320,-216,-361,135,42
1315,-464,-2288,-240,-303,125,17
1320,-496,-2200,-160,-246,113,-13
1325,-504,-2128,-168,-195,101,-44
1330,-488,-2040,-120,-145,96,-83
1335,-448,-1928,-80,-95,97,-123
1340,-416,-1800,-72,-45,103,-171
1345,-368,-1704,-96,3,118,-211
1350,-336,-1576,-104,47,132,-256
1355,-280,-1440,-136,87,150,-304
1360,-248,-1328,-136,120,181,-343
1365,-128,-1280,-96,135,216,-371
1370,-104,-1184,-144,141,259,-402
1375,-104,-1144,-72,149,306,-421
1380,-96,-1120,-104,160,355,-438
1385,-80,-1056,-168,166,397,-444
1390,-72,-960,-264,158,426,-438
1395,-48,-864,-416,135,430,-412
1400,0,-760,-528,102,418,-374
1405,-24,-648,-720,63,399,-331
1410,-80,-568,-896,10,372,-288
1415,-128,-472,-1064,-71,326,-245
1420,-264,-480,-1248,-192,282,-217
1425,-424,-488,-1320,-296,226,-190
1430,-680,-544,-1368,-394,163,-173
1435,-864,-808,-1344,-489,96,-137
1440,-1000,-984,-1336,-584,12,-84
1445,-1168,-1232,-1264,-659,-80,-24
1450,-1296,-1520,-1136,-706,-184,24
1455,-1216,-1800,-1240,-718,-307,57
1460,-1304,-2120,-1112,-709,-441,75
1465,-1200,-2280,-1144,-679,-586,87
1470,-1248,-2616,-1296,-632,-747,69
1475,-1256,-2768,-1544,-551,-949,41
1480,-1176,-2912,-1520,-458,-1120,4
1485,-1120,-2952,-1624,-340,-1296,-43
1490,-1064,-2968,-1688,-199,-1455,-107
1495,-1024,-2928,-1648,-43,-1562,-172
1500,-864,-2832,-1664,106,-1595,-237
1505,-808,-2704,-1592,217,-1571,-299
1510,-704,-2592,-1456,284,-1498,-352
1515,-560,-2488,-1344,301,-1411,-417
1520,-432,-2464,-1216,283,-1298,-470
1525,-272,-2416,-1176,224,-1196,-534
1530,-104,-2488,-1096,110,-1085,-604
1535,32,-2568,-1000,-19,-995,-665
1540,144,-2680,-936,-141,-922,-722
1545,176,-2784,-888,-224,-846,-757
1550,144,-2872,-952,-296,-766,-784
1555,96,-2952,-976,-372,-662,-800
1560,88,-3096,-1024,-454,-551,-814
1565,88,-3272,-1000,-523,-440,-814
1570,56,-3520,-1024,-554,-338,-797
1575,24,-3656,-1048,-538,-244,-766
1580,-8,-3792,-1000,-504,-150,-743
1585,-64,-3824,-960,-460,-42,-721
1590,-88,-3816,-952,-394,39,-717
1595,-96,-3744,-960,-337,101,-736
1600,-152,-3656,-936,-284,160,-771
1605,-72,-3552,-904,-243,223,-815
1610,8,-3424,-872,-213,296,-861
1615,96,-3336,-784,-199,379,-909
1620,232,-3272,-744,-207,463,-958
1625,328,-3216,-744,-236,556,-1005
1630,448,-3128,-752,-277,641,-1044
1635,552,-3080,-792,-311,727,-1069
1640,608,-2928,-864,-319,807,-1069
1645,656,-2760,-864,-300,849,-1035
1650,608,-2504,-888,-266,869,-978
1655,560,-2264,-896,-230,893,-891
1660,472,-2080,-824,-206,922,-807
1665,352,-1880,-752,-167,938,-754
1670,200,-1576,-688,-96,937,-705
1675,8,-1384,-624,-57,913,-576
1680,-168,-1176,-592,-68,842,-413
1685,-432,-984,-496,-102,760,-267
1690,-584,-840,-400,-126,694,-128
1695,-736,-688,-224,-122,658,10
1700,-800,-616,-48,-88,653,109
1705,-808,-536,40,-49,656,195
1710,-752,-488,64,-8,647,267
1715,-616,-416,144,31,631,315
1720,-432,-328,136,84,614,334
1725,-192,-272,144,151,594,321
1730,48,-200,136,218,564,293
1735,264,-136,48,278,532,254
1740,400,-88,16,328,494,214
1745,456,-32,-56,365,439,169
1750,456,-16,-40,394,373,128
1755,456,0,-32,429,281,82
1760,408,0,-80,489,209,50
1765,296,16,-104,532,160,14
1770,232,0,-104,557,129,-10
1775,136,-56,-152,573,114,-42
1780,24,-160,-152,586,114,-66
1785,-24,-272,-144,599,127,-82
1790,-96,-328,-224,612,155,-87
1795,-168,-328,-392,619,212,-99
1800,-280,-288,-752,595,296,-109
1805,-304,-232,-1240,474,377,-124
1810,-232,-184,-1744,218,472,-152
1815,-200,-288,-2136,-251,526,-195
1820,-136,-640,-2392,-696,524,-247
1825,-208,-1008,-2344,-1063,500,-300
1830,-408,-1640,-2064,-1227,460,-338
1835,-736,-2304,-1704,-1143,433,-365
1840,-912,-2752,-1368,-883,415,-358
1845,-888,-3168,-1208,-546,394,-305
1850,-784,-3488,-1224,-225,394,-231
1855,-584,-3608,-1336,17,431,-203
1860,-448,-3552,-1440,182,463,-240
1865,-504,-3328,-1656,275,460,-300
1870,-472,-3072,-1992,285,434,-267
1875,-280,-2864,-2376,171,415,-204
1880,-64,-2752,-2496,-34,403,-131
1885,136,-2800,-2312,-223,390,-35
1890,288,-2912,-2008,-270,361,97
1895,400,-2984,-1864,-186,310,213
1900,408,-2984,-1672,-90,244,321
1905,368,-3040,-1584,-68,184,436
1910,272,-3208,-1440,-138,147,562
1915,192,-3376,-1352,-255,113,671
1920,88,-3624,-1376,-366,60,754
1925,-88,-3904,-1432,-433,-29,816
1930,-288,-4128,-1504,-409,-106,820
1935,-488,-4304,-1472,-328,-169,807
1940,-576,-4432,-1424,-194,-221,796
1945,-616,-4424,-1304,-34,-252,780
1950,-640,-4168,-1096,104,-237,738
1955,-960,-4136,-928,212,-260,632
1960,-1048,-4200,-920,300,-340,597
1965,-984,-4072,-824,349,-411,602
1970,-1104,-3816,-760,376,-458,560
1975,-1096,-3608,-744,403,-513,492
1980,-1136,-3256,-736,417,-582,404
1985,-1144,-3104,-720,405,-637,339
1990,-1112,-2864,-704,423,-673,314
1995,-992,-2568,-688,441,-687,273
2000,-888,-2272,-648,420,-673,228
2005,-776,-2088,-544,387,-646,233
2010,-608,-1856,-504,376,-636,247
2015,-520,-1648,-400,362,-632,235
2020,-400,-1400,-320,346,-626,213
2025,-256,-1232,-312,341,-625,187
2030,-88,-1040,-312,335,-646,170
2035,72,-728,-344,304,-667,123
2040,304,-496,-384,243,-654,99
2045,600,-272,-328,182,-628,72
2050,752,-88,-328,132,-589,14
2055,800,64,-376,86,-546,-76
2060,792,232,-352,27,-509,-189
2065,696,352,-248,-15,-488,-304
2070,592,376,-248,-37,-478,-409
2075,472,328,-120,-23,-454,-496
2080,312,216,8,20,-420,-559
2085,120,128,88,87,-372,-613
2090,-48,24,136,170,-315,-655
2095,-216,-56,152,279,-242,-658
2100,-312,-136,152,369,-194,-625
2105,-384,-144,128,452,-145,-575
2110,-424,-160,0,526,-96,-513
2115,-408,-80,-184,565,-53,-462
2120,-320,-24,-344,558,-16,-427
2125,-216,-24,-448,543,15,-405
2130,-112,-48,-544,524,46,-397
2135,-120,-80,-560,488,72,-413
2140,-128,-136,-552,438,90,-435
2145,-136,-184,-584,378,100,-469
2150,-184,-312,-464,307,98,-476
2155,-248,-472,-424,295,76,-450
2160,-360,-616,-536,308,27,-407
2165,-728,-656,-1176,281,-106,-361
2170,-744,-872,-1448,104,-364,-287
2175,-1032,-1024,-1608,-63,-668,-198
2180,-1296,-1280,-1472,-93,-895,-44
2185,-1416,-1632,-1552,23,-919,186
2190,-1400,-2040,-1720,90,-694,440
2195,-1128,-2584,-1440,55,-312,563
2200,-632,-2944,-1000,78,-44,373
2205,-224,-3256,-920,258,-10,126
2210,56,-3488,-1208,431,-145,-9
2215,104,-3600,-1800,515,-300,-73
2220,-8,-3472,-2272,480,-413,-139
2225,-112,-3304,-2536,423,-515,-220
2230,-184,-3112,-2720,435,-583,-254
2235,-288,-3000,-2784,508,-536,-213
2240,-280,-2856,-2464,588,-393,-134
2245,-400,-2624,-2080,642,-223,-91
2250,-704,-2408,-1760,643,-92,-109
2255,-1128,-2312,-1616,569,-36,-149
2260,-1376,-2480,-1472,379,-26,-132
2265,-1336,-2744,-1336,181,-26,-91
2270,-1504,-3064,-1136,17,-19,-109
2275,-1552,-3168,-1176,-119,-64,-155
2280,-1392,-3520,-1224,-246,-125,-236
2285,-1320,-3760,-1248,-350,-163,-386
2290,-1128,-4056,-1232,-458,-172,-553
2295,-920,-4128,-1216,-549,-126,-719
2300,-648,-4224,-1112,-596,-61,-817
2305,-616,-4224,-1032,-591,-15,-875
2310,-416,-4256,-920,-518,20,-908
2315,-240,-4184,-768,-358,52,-916
2320,-88,-4136,-736,-207,71,-930
2325,120,-3960,-856,-84,62,-975
2330,312,-3720,-872,-23,51,-1032
2335,512,-3568,-864,-19,47,-1073
2340,680,-3400,-808,-36,70,-1085
2345,776,-3280,-720,-35,112,-1069
2350,832,-3184,-600,-6,180,-1043
2355,776,-3032,-480,45,266,-1016
2360,760,-2872,-296,103,344,-989
2365,640,-2640,-168,164,412,-964
2370,488,-2352,-160,243,483,-948
2375,352,-2056,-200,314,547,-922
2380,208,-1744,-184,371,601,-880
2385,112,-1552,-240,420,624,-816
2390,-16,-1232,-288,454,630,-729
2395,-48,-952,-280,464,629,-611
2400,-160,-656,-240,466,629,-481
2405,-376,-432,-184,467,613,-349
2410,-536,-144,-56,494,567,-247
2415,-608,88,-32,547,510,-177
2420,-592,264,-32,578,455,-68
2425,-560,416,-24,550,407,51
2430,-440,512,-88,480,398,159
2435,-320,504,-136,385,405,237
2440,-136,472,-208,297,409,297
2445,72,392,-280,224,401,330
2450,264,216,-408,172,376,326
2455,352,88,-472,129,335,311
2460,360,16,-624,100,279,291
2465,376,-8,-736,84,211,276
2470,352,-24,-880,80,139,260
2475,248,-24,-904,90,78,247
2480,208,0,-936,116,25,222
2485,232,-40,-936,153,0,199
2490,280,-96,-912,187,-8,168
2495,248,-96,-872,234,17,136
2500,184,-144,-792,273,62,90
2505,152,-224,-648,290,121,41
2510,72,-376,-480,307,190,-13
2515,-64,-520,-208,341,261,-60
2520,-96,-648,-32,406,320,-114
2525,-176,-656,72,484,363,-172
2530,-232,-696,-128,549,373,-236
2535,-248,-688,-824,564,333,-303
2540,-392,-816,-952,420,316,-367
2545,-504,-1040,-928,222,348,-477
2550,-496,-984,-1600,-39,392,-649
2555,-784,-784,-3048,-584,257,-772
2560,-800,-1448,-3496,-1433,112,-713
2565,-808,-2664,-1984,-2078,101,-621
2570,-920,-3968,24,-1989,61,-602
2575,-896,-4856,560,-1095,-124,-607
2580,-1128,-5048,-552,76,-355,-652
2585,-1408,-4816,-1184,670,-427,-717
2590,-1672,-4480,-1600,615,-319,-747
2595,-1960,-4184,-1944,200,-251,-657
2600,-2024,-4000,-2072,-175,-313,-475
2605,-1568,-3992,-1920,-401,-507,-293
2610,-1024,-3792,-1752,-348,-762,-185
2615,-584,-3512,-1640,-120,-977,-94
2620,-96,-3216,-1472,99,-1120,-18
2625,232,-3048,-1384,222,-1207,47
2630,736,-2920,-1224,216,-1243,119
2635,1168,-2896,-1224,96,-1223,207
2640,1368,-3048,-1248,-128,-1148,297
2645,1376,-3328,-1184,-416,-1042,435
2650,1248,-3664,-1120,-741,-982,546
2655,1064,-3992,-1096,-857,-948,638
2660,768,-4184,-1048,-835,-906,704
2665,496,-4240,-1024,-726,-861,805
2670,176,-4224,-960,-537,-816,874
2675,-160,-4144,-928,-346,-752,912
2680,-496,-4064,-776,-210,-734,907
2685,-816,-3968,-672,-105,-743,848
2690,-1120,-3912,-520,-42,-743,760
2695,-1320,-3824,-344,8,-734,649
2700,-1424,-3696,-312,60,-718,514
2705,-1456,-3584,-376,142,-719,410
2710,-1424,-3320,-448,183,-728,310
2715,-1360,-3024,-376,210,-726,254
2720,-1240,-2840,-336,265,-744,229
2725,-1096,-2640,-240,326,-788,202
2730,-912,-2320,-256,377,-853,127
2735,-672,-1944,-328,412,-919,27
2740,-368,-1472,-328,436,-966,-53
2745,-176,-1112,-328,452,-1007,-90
2750,48,-624,-328,452,-1048,-115
2755,248,-272,-352,426,-1074,-147
2760,352,96,-344,391,-1079,-170
2765,424,408,-344,355,-1073,-180
2770,480,624,-400,326,-1048,-193
2775,528,848,-416,304,-991,-203
2780,528,936,-424,303,-913,-213
2785,496,976,-408,327,-835,-211
2790,448,968,-392,364,-751,-225
2795,400,904,-392,387,-671,-253
2800,272,752,-304,381,-598,-283
2805,120,496,-216,352,-528,-301
2810,24,248,-200,312,-466,-327
2815,-8,-48,-160,251,-375,-357
2820,32,-216,-192,198,-276,-394
2825,40,-336,-304,144,-176,-430
2830,176,-400,-352,81,-90,-479
2835,192,-360,-448,18,-23,-542
2840,160,-248,-568,-18,30,-596
2845,24,-168,-672,-16,47,-626
2850,-184,-72,-696,-12,38,-649
2855,-408,-144,-664,-12,16,-629
2860,-552,-288,-528,4,-18,-561
2865,-592,-440,-384,38,-59,-445
2870,-560,-584,-168,140,-79,-342
2875,-416,-736,64,278,-73,-244
2880,-312,-800,200,435,-63,-174
2885,-392,-760,144,568,-57,-119
2890,-800,-552,-672,606,-91,-57
2895,-888,-536,-1192,349,-260,47
2900,-1032,-696,-1912,-128,-554,163
2905,-1256,-792,-2272,-521,-891,258
2910,-1672,-1080,-2416,-658,-1165,426
2915,-1464,-1640,-3008,-629,-1193,724
2920,-1160,-2376,-2432,-754,-819,1066
2925,-952,-3448,-936,-845,-336,1162
2930,-288,-4320,-120,-621,-265,1080
2935,56,-4896,-352,-263,-363,904
2940,-64,-5128,-1056,-13,-467,706
2945,-72,-5152,-1632,83,-583,538
2950,272,-5104,-2328,173,-689,411
2955,616,-4952,-2720,347,-724,328
2960,888,-4768,-2672,595,-608,317
2965,968,-4296,-2280,842,-345,280
2970,728,-3616,-1968,1052,-52,128
2975,352,-3264,-1680,1133,206,-62
2980,24,-3136,-1432,1039,436,-128
2985,-248,-3112,-1128,867,614,-129
2990,-664,-3088,-848,699,757,-130
2995,-1032,-3000,-712,535,786,-185
3000,-1176,-2904,-768,337,730,-268
3005,-1184,-2872,-824,86,655,-368
3010,-1288,-2976,-888,-200,618,-473
3015,-1400,-3112,-904,-475,616,-563
3020,-1464,-3288,-872,-698,622,-620
3025,-1504,-3448,-832,-840,621,-647
3030,-1424,-3640,-576,-886,620,-632
3035,-1296,-3832,-480,-813,628,-614
3040,-1176,-3896,-432,-708,616,-644
3045,-992,-3848,-512,-609,549,-714
3050,-680,-3744,-576,-566,447,-821
3055,-344,-3616,-584,-553,349,-919
3060,0,-3456,-544,-524,290,-977
3065,208,-3368,-448,-481,276,-973
3070,416,-3088,-376,-430,271,-939
3075,512,-2824,-312,-389,273,-895
3080,536,-2472,-312,-374,264,-848
3085,512,-2184,-256,-384,260,-764
3090,392,-1968,-200,-385,255,-675
3095,328,-1792,-168,-362,240,-578
3100,272,-1672,-112,-349,221,-472
3105,280,-1568,-72,-303,217,-374
3110,200,-1488,0,-210,235,-287
3115,192,-1296,-16,-62,249,-219
3120,96,-1080,-112,109,242,-127
3125,88,-808,-184,248,216,9
3130,88,-528,-200,376,198,154
3135,40,-208,-264,511,180,252
3140,96,64,-344,641,164,304
3145,104,280,-376,721,154,322
3150,224,464,-528,713,162,338
3155,288,488,-656,637,186,330
3160,376,464,-704,508,216,325
3165,400,320,-712,371,240,305
3170,328,160,-720,279,242,275
3175,168,104,-736,243,218,244
3180,72,72,-720,250,179,234
3185,56,120,-728,269,132,225
3190,112,152,-752,282,104,217
3195,160,216,-816,275,106,193
3200,240,232,-856,206,154,174
3205,288,176,-896,118,218,142
3210,296,88,-888,21,283,94
3215,248,-88,-768,-63,342,42
3220,264,-264,-656,-107,376,-1
3225,216,-464,-432,-110,391,-49
3230,144,-568,-272,-60,387,-89
3235,24,-720,-80,23,363,-127
3240,-72,-744,48,133,340,-150
3245,-200,-704,144,266,320,-179
3250,-352,-656,232,415,289,-203
3255,-504,-584,184,585,219,-227
3260,-592,-456,-64,687,141,-244
3265,-584,-136,-1128,676,66,-277
3270,-648,-248,-1064,366,-1,-323
3275,-704,-616,-944,-7,71,-425
3280,-808,-168,-1968,-294,231,-590
3285,-1120,464,-4288,-843,180,-633
3290,-760,-456,-4296,-1832,168,-398
3295,-392,-1864,-2256,-2480,231,-232
3300,-368,-3280,-32,-2269,106,-277
3305,-208,-4192,24,-1358,-169,-431
3310,-144,-4528,-696,-271,-393,-541
3315,-192,-5048,-1040,86,-324,-550
3320,-480,-5688,-1096,89,-76,-451
3325,-952,-5816,-1504,-26,85,-425
3330,-1512,-5408,-1976,-214,135,-412
3335,-1616,-5072,-2192,-451,23,-272
3340,-1232,-4912,-1984,-592,-257,-78
3345,-992,-4664,-1616,-437,-545,42
3350,-704,-4464,-1440,-38,-771,111
3355,-336,-4144,-1200,308,-889,101
3360,136,-3920,-912,459,-928,49
3365,528,-3696,-776,422,-906,30
3370,768,-3640,-728,239,-868,92
3375,744,-3656,-824,-24,-860,209
3380,680,-3728,-984,-261,-892,340
3385,600,-3728,-1104,-406,-925,453
3390,632,-3736,-1144,-448,-949,577
3395,600,-3728,-1080,-408,-939,707
3400,496,-3712,-968,-285,-915,838
3405,440,-3704,-920,-123,-894,904
3410,232,-3800,-656,-24,-836,952
3415,-48,-3912,-456,-10,-796,964
3420,-288,-3968,-328,-47,-762,941
3425,-712,-4040,-224,-104,-734,907
3430,-888,-3936,-232,-155,-750,872
3435,-1024,-3840,-304,-171,-762,839
3440,-1096,-3600,-384,-145,-773,769
3445,-1088,-3328,-272,-75,-778,649
3450,-1048,-3064,-192,83,-786,519
3455,-944,-2720,-248,293,-809,387
3460,-728,-2360,-248,471,-805,310
3465,-504,-2072,-320,585,-808,251
3470,-336,-1784,-352,636,-815,75
3475,-88,-1336,-408,657,-784,-86
3480,144,-912,-448,634,-750,-201
3485,336,-576,-384,573,-743,-273
3490,448,-248,-384,491,-768,-342
3495,480,104,-320,436,-786,-398
3500,464,360,-312,404,-793,-425
3505,392,528,-304,407,-791,-433
3510,288,624,-344,418,-781,-438
3515,16,800,-432,419,-747,-430
3520,-216,840,-448,393,-699,-389
3525,-392,824,-424,342,-620,-303
3530,-296,696,-400,252,-521,-216
3535,-256,616,-320,185,-397,-154
3540,-16,440,-232,139,-248,-130
3545,32,312,-440,94,-97,-159
3550,120,192,-592,45,33,-217
3555,240,-8,-600,-18,131,-295
3560,320,-264,-752,-98,194,-385
3565,240,-224,-864,-197,219,-470
3570,-72,-352,-808,-296,211,-527
3575,-208,-424,-672,-364,183,-544
3580,-392,-624,-544,-373,126,-477
3585,-448,-696,-344,-277,71,-379
3590,-448,-696,-248,-100,21,-254
3595,-400,-640,-184,118,-35,-141
3600,-288,-520,-200,315,-87,-47
3605,-160,-448,-128,458,-118,14
3610,-16,-408,8,560,-125,51
3615,104,-344,80,649,-118,63
3620,152,-264,88,714,-106,60
3625,64,-72,-280,727,-94,51
3630,-488,240,-1152,587,-142,42
3635,-352,264,-1840,72,-391,120
3640,-760,-8,-2456,-747,-706,139
3645,-1056,-544,-2384,-1122,-991,196
3650,-1016,-776,-3088,-1019,-1023,431
3655,-1152,-1064,-3616,-954,-734,732
3660,-1088,-2144,-2152,-1123,-237,908
3665,-832,-3408,-648,-1082,74,897
3670,-904,-4256,-320,-796,-18,821
3675,-1056,-5344,-200,-543,-312,787
3680,-1088,-6016,-784,-381,-579,732
3685,-816,-6064,-1672,-311,-802,585
3690,-240,-6128,-2200,-240,-915,522
3695,144,-5704,-2360,-58,-826,453
3700,216,-4720,-2408,243,-644,287
3705,256,-3840,-2184,530,-452,-1
3710,312,-3424,-1864,711,-255,-252
3715,424,-3176,-1344,779,-46,-352
3720,416,-3032,-920,747,134,-381
3725,176,-2744,-784,624,221,-430
3730,-8,-2544,-856,401,273,-485
3735,-184,-2376,-1000,93,350,-557
3740,-312,-2496,-1064,-311,428,-688
3745,-456,-2920,-912,-826,534,-820
3750,-584,-3256,-752,-1138,645,-912
3755,-704,-3616,-784,-1327,727,-937
3760,-792,-3888,-864,-1441,737,-924
3765,-864,-4144,-824,-1495,707,-882
3770,-808,-4320,-824,-1498,678,-829
3775,-808,-4384,-792,-1431,659,-798
3780,-728,-4448,-872,-1327,603,-802
3785,-544,-4288,-808,-1221,530,-853
3790,-376,-4184,-824,-1112,443,-893
3795,-168,-4016,-784,-1010,374,-888
3800,48,-3752,-792,-886,317,-864
3805,240,-3520,-760,-805,280,-829
3810,256,-3296,-672,-729,247,-813
3815,368,-2864,-728,-634,230,-846
3820,496,-2576,-680,-575,249,-784
3825,576,-2216,-560,-589,264,-609
3830,640,-1960,-456,-675,284,-458
3835,624,-1720,-288,-758,311,-364
3840,616,-1528,-256,-802,341,-303
3845,584,-1480,-104,-782,381,-197
3850,528,-1384,-48,-726,417,-45
3855,472,-1288,48,-630,442,61
3860,448,-1208,72,-556,474,191
3865,384,-1200,208,-502,509,336
3870,304,-1152,224,-441,524,443
3875,256,-1040,224,-338,508,493
3880,120,-936,88,-194,475,501
3885,80,-784,64,-38,426,512
3890,48,-696,-24,134,380,514
3895,8,-568,-24,306,352,519
3900,32,-528,-56,473,336,510
3905,64,-432,-96,626,339,499
3910,64,-352,-104,777,347,481
3915,88,-216,-136,868,356,464
3920,112,-88,-160,932,361,443
3925,104,56,-208,959,341,428
3930,40,176,-328,954,297,421
3935,8,304,-416,899,232,430
3940,-72,440,-520,811,151,430
3945,-96,568,-592,715,60,435
3950,-88,600,-656,622,-27,438
3955,-72,656,-632,537,-105,455
3960,24,664,-600,465,-183,476
3965,96,672,-600,400,-214,493
3970,192,616,-520,356,-213,498
3975,248,480,-496,323,-174,497
3980,328,344,-424,304,-110,485
3985,368,184,-392,299,-24,457
3990,408,64,-336,297,76,397
3995,432,-64,-256,280,172,318
4000,416,-240,-176,249,269,225
4005,336,-392,-88,206,346,139
4010,256,-536,-88,173,398,52
4015,160,-632,-128,158,417,-56
4020,96,-688,-200,150,390,-157
4025,-32,-720,-424,143,333,-254
4030,-128,-672,-584,111,269,-347
4035,-296,-568,-944,25,207,-421
4040,-464,-416,-1440,-145,143,-477
4045,-592,-288,-2128,-441,79,-493
4050,-704,-304,-2760,-867,30,-488
4055,-928,-504,-3192,-1345,50,-458
4060,-984,-928,-3424,-1794,154,-415
4065,-936,-1520,-3272,-2157,308,-368
4070,-744,-2120,-2888,-2372,463,-314
4075,-304,-3096,-2120,-2331,486,-284
4080,48,-4088,-1504,-2009,445,-313
4085,136,-4928,-1480,-1526,401,-337
4090,-104,-5408,-1784,-1091,376,-341
4095,-480,-5688,-1928,-822,379,-331
4100,-840,-5816,-2104,-674,370,-304
4105,-928,-5752,-2104,-635,319,-220
4110,-1056,-5592,-2112,-603,218,-99
4115,-1184,-5288,-2096,-512,64,73
4120,-1104,-4848,-2040,-310,-134,283
4125,-984,-4416,-1936,15,-361,425
4130,-728,-3944,-1728,235,-533,515
4135,-496,-3576,-1480,332,-696,624
4140,-352,-3248,-1208,297,-847,688
4145,-256,-3120,-1104,170,-985,761
4150,-192,-3088,-1112,-2,-1106,861
4155,-32,-3080,-1104,-161,-1181,953
4160,24,-3168,-1096,-301,-1208,1032
4165,168,-3336,-1024,-412,-1232,1123
4170,168,-3456,-1032,-482,-1260,1196
4175,120,-3624,-1040,-522,-1260,1297
4180,-16,-3824,-944,-515,-1216,1385
4185,-96,-3936,-896,-444,-1179,1443
4190,-208,-4000,-840,-320,-1113,1496
4195,-328,-3976,-864,-197,-1051,1551
4200,-448,-3936,-928,-115,-982,1579
4205,-648,-3800,-904,-108,-912,1582
4210,-632,-3560,-912,-124,-865,1512
4215,-792,-3168,-904,-99,-821,1362
4220,-640,-2776,-928,-43,-805,1259
4225,-608,-2400,-936,33,-714,1182
4230,-528,-2112,-840,23,-634,1113
4235,-256,-1672,-792,-16,-555,1061
4240,-64,-1280,-600,-28,-470,1020
4245,120,-1120,-392,-47,-423,987
4250,272,-1016,-312,-55,-390,919
4255,464,-848,-272,-67,-341,814
4260,568,-728,-256,-108,-276,644
4265,632,-616,-280,-153,-162,432
4270,568,-552,-304,-182,-31,239
4275,720,-496,-288,-221,70,122
4280,864,-456,-128,-267,149,28
4285,816,-416,8,-273,206,-78
4290,752,-400,64,-219,260,-171
4295,472,-344,72,-133,337,-291
4300,152,-312,48,-25,401,-394
4305,-192,-360,-16,65,425,-468
4310,-368,-432,-40,134,424,-502
4315,-584,-584,0,189,408,-488
4320,-656,-688,48,247,384,-475
4325,-752,-720,80,314,363,-471
4330,-768,-728,64,406,353,-465
4335,-800,-704,80,496,330,-436
4340,-728,-696,104,565,277,-383
4345,-696,-648,136,652,234,-332
4350,-656,-576,224,731,200,-311
4355,-616,-472,184,784,176,-323
4360,-520,-384,248,797,165,-366
4365,-424,-312,296,799,175,-403
4370,-328,-352,352,799,204,-421
4375,-272,-416,448,800,256,-405
4380,-96,-576,552,823,337,-352
4385,48,-664,552,880,436,-291
4390,176,-728,536,965,530,-234
4395,376,-704,296,1045,600,-216
4400,504,-488,-104,1046,607,-231
4405,512,-176,-720,938,547,-261
4410,512,120,-1288,689,421,-280
4415,232,432,-1976,300,270,-265
4420,-96,544,-2560,-232,96,-205
4425,-376,392,-3016,-842,-58,-96
4430,-560,168,-3432,-1393,-131,35
4435,-704,-344,-4048,-1780,-30,190
4440,-1032,-1120,-4544,-2031,251,354
4445,-1992,-2336,-4096,-2240,561,580
4450,-2600,-4064,-2928,-2209,710,875
4455,-3056,-5408,-1776,-1789,536,1086
4460,-3208,-6336,-960,-1112,194,1132
4465,-3176,-6616,-656,-366,-278,1000
4470,-2776,-6424,-896,260,-726,771
4475,-2480,-5792,-1544,631,-1018,459
4480,-2264,-4968,-1920,734,-1194,17
4485,-1840,-4216,-1656,738,-1262,-480
4490,-944,-3664,-1168,798,-1113,-889
4495,-232,-3072,-1024,1014,-750,-1188
4500,232,-2328,-1240,1232,-278,-1444
4505,576,-1664,-1448,1267,-9,-1590
4510,712,-1400,-1376,1084,130,-1686
4515,880,-1376,-1128,788,178,-1728
4520,760,-1680,-776,468,187,-1739
4525,736,-2256,384,217,219,-1749
4530,224,-2400,-1120,159,155,-1823
4535,-240,-2216,-1168,56,-146,-1999
4540,-208,-2728,136,46,-595,-2127
4545,-264,-3360,1648,210,-715,-2038
4550,-1008,-3736,1848,455,-156,-1742
4555,-2528,-3728,1496,421,359,-1397
4560,-3408,-3432,704,45,92,-1119
4565,-3120,-3024,-328,-334,-596,-853
4570,-2160,-2520,-1264,-565,-1258,-658
4575,-1144,-1928,-1384,-587,-1628,-549
4580,-96,-1824,-848,-411,-1851,-572
4585,688,-1984,-464,-84,-2028,-602
4590,1088,-2040,-280,202,-2167,-530
4595,1336,-2128,-248,352,-2210,-323
4600,1168,-2024,-656,395,-2192,-42
4605,800,-1760,-1216,348,-2155,349
4610,552,-1184,-1688,306,-2156,559
4615,296,-616,-2056,354,-2209,669
4620,152,-112,-2096,443,-2301,777
4625,88,248,-1824,488,-2394,876
4630,176,664,-1416,469,-2475,956
4635,192,1056,-1104,460,-2523,997
4640,280,1480,-832,465,-2516,992
4645,520,1840,-704,491,-2413,977
4650,616,2064,-560,475,-2214,955
4655,600,2168,-520,365,-1992,908
4660,432,2144,-648,168,-1776,824
4665,224,2120,-664,-245,-1544,767
4670,128,1840,-704,-640,-1377,755
4675,16,1408,-736,-1082,-1244,710
4680,-24,1016,-576,-1426,-1173,626
4685,-80,712,-464,-1498,-1144,555
4690,-96,464,-384,-1360,-1126,532
4695,-96,296,-368,-1123,-1098,539
4700,-96,112,-392,-898,-1045,559
4705,-120,-32,-488,-729,-969,563
4710,-152,-192,-728,-615,-869,574
4715,-264,-368,-1224,-556,-753,604
4720,-376,-504,-1736,-559,-702,664
4725,-384,-520,-2096,-597,-710,718
4730,-440,-480,-2264,-607,-782,736
4735,-424,-336,-2000,-573,-900,723
4740,-360,-120,-1496,-465,-1012,688
4745,-360,24,-1096,-308,-1058,629
4750,-400,88,-856,-185,-1030,561
4755,-480,120,-632,-108,-950,481
4760,-584,128,-552,-46,-843,436
4765,-648,144,-640,8,-718,431
4770,-824,264,-888,17,-569,458
4775,-832,416,-1280,-43,-477,507
4780,-760,488,-1632,-151,-450,576
4785,-616,456,-1872,-259,-493,637
4790,-352,448,-1704,-327,-578,683
4795,-8,264,-1400,-289,-636,708
4800,296,160,-1064,-203,-622,697
4805,496,160,-800,-146,-542,655
4810,632,152,-592,-174,-435,609
4815,680,184,-400,-267,-333,572
4820,680,80,-216,-379,-268,555
4825,712,-24,-88,-463,-247,540
4830,688,-56,-72,-519,-253,544
4835,584,-144,-72,-554,-249,558
4840,384,-208,-120,-596,-227,594
4845,224,-240,-224,-651,-188,655
4850,96,-408,-144,-702,-140,724
4855,-168,-592,16,-701,-77,775
4860,-296,-816,176,-666,-57,814
4865,-328,-1024,280,-622,-74,826
4870,-448,-1104,352,-566,-97,826
4875,-584,-1264,440,-509,-136,803
4880,-704,-1296,568,-437,-159,805
4885,-952,-1200,552,-364,-151,814
4890,-1360,-1048,448,-318,-150,799
4895,-1688,-832,272,-309,-149,771
4900,-1824,-672,80,-311,-135,757
4905,-1880,-576,80,-322,-121,754
4910,-1840,-552,152,-317,-135,753
4915,-1728,-544,216,-302,-208,729
4920,-1576,-560,272,-298,-291,693
4925,-1376,-496,24,-324,-326,680
4930,-1328,-336,-440,-438,-286,752
4935,-1064,-48,-1536,-712,-143,900
4940,-776,360,-3720,-1146,94,1110
4945,112,1136,-6664,-1997,483,1315
4950,712,1576,-9296,-3429,837,1475
4955,1616,1016,-13152,-5438,1040,1639
4960,4352,-384,-12952,-7703,1729,1777
4965,6416,-1664,-9216,-9335,2764,1456
4970,4440,-3088,-7208,-9510,3010,908
4975,344,-4184,-7368,-8153,2785,1136
4980,-3296,-6296,-6696,-6047,2520,2140
4985,-7560,-9192,-4960,-3770,1810,3171
4990,-10056,-10216,-4744,-1339,1230,3849
4995,-12392,-9976,-4584,33,1181,4445
5000,-12768,-8256,-3296,342,1345,4749
5005,-9992,-5896,-128,-41,1336,4481
5010,-8064,-3912,1496,-304,1118,3790
5015,-5464,-2520,2528,-539,1091,3031
5020,-2392,-1408,2840,-887,1390,2266
5025,112,-248,2856,-1332,1879,1537
5030,1648,408,2544,-1743,2258,1035
5035,3384,536,1680,-2128,2356,903
5040,4600,216,776,-2698,2200,1038
5045,5016,-136,384,-3677,1975,1181
5050,4792,-312,-88,-4392,1772,1399
5055,3848,-192,-528,-4800,1611,1711
5060,2584,-32,-696,-4946,1449,2023
5065,1032,344,-176,-4871,1231,2203
5070,-160,328,232,-4439,903,2403
5075,-1688,-224,384,-3718,530,2618
5080,-3056,-760,808,-3038,168,2684
5085,-4456,-1128,1200,-2524,-254,2512
5090,-5688,-1344,1264,-2144,-728,2261
5095,-6464,-1160,1064,-1950,-1417,1891
5100,-7064,-888,536,-2003,-1949,1628
5105,-7384,-304,-696,-2244,-2502,1412
5110,-7424,96,-1440,-2583,-3062,1321
5115,-6536,960,-2200,-2828,-3594,1157
5120,-5048,1736,-2104,-2934,-4054,699
5125,-3656,2056,-1856,-2920,-4393,-11
5130,-2648,2128,-1696,-2899,-4639,-768
5135,-1672,2304,-1424,-2887,-4845,-1392
5140,-952,2544,-2104,-2748,-5029,-1703
5145,-216,2792,-2680,-2567,-5146,-1617
5150,-320,3336,-2648,-2532,-5188,-1259
5155,144,4560,-1768,-2125,-4918,-514
5160,1568,4784,-1288,-1648,-4678,420
5165,2616,4496,-1360,-1286,-4545,1081
5170,2144,3928,-704,-1202,-4394,1348
5175,2472,4384,-2920,-1188,-4143,1546
5180,696,7368,-3672,-883,-2810,2065
5185,-1520,9792,-3880,-41,-829,3411
5190,-56,10184,-2096,-227,-88,5134
5195,-14776,12168,-4680,-1280,-497,6766
5200,-10672,7592,-704,-1234,-1163,6221
5205,-5976,3480,-104,2393,427,4667
5210,-3672,176,-5696,3575,1064,3323
5215,-4232,-544,-5880,1718,1802,2757
5220,-7968,560,-6552,-744,1515,3209
5225,-8384,-432,-6968,-2189,537,4521
5230,-8824,1448,-7328,-2415,139,5227
5235,-7480,3848,-6616,-2501,66,5479
5240,-4632,4328,-5488,-2698,2,5434
5245,-784,2168,-3880,-2660,91,4942
5250,-312,2536,-2888,-2354,278,3445
5255,-1280,2288,-1536,-2236,503,1666
5260,-1400,2184,-1360,-1946,684,773
5265,-944,1776,-1176,-1602,701,170
5270,-1024,2096,-1024,-1381,773,-196
5275,-608,1928,-816,-1277,923,-441
5280,-344,1480,-696,-1261,1179,-723
5285,-200,832,-656,-1170,1558,-1086
5290,-320,776,-768,-862,1911,-1412
5295,-80,624,-816,-613,2099,-1616
5300,-40,920,-896,-565,2129,-1771
5305,-192,1360,-912,-653,2072,-1916
5310,-344,1784,-936,-801,1963,-2103
5315,-944,2424,-1008,-940,1947,-2303
5320,-1504,3120,-1056,-1035,1974,-2474
5325,-2600,3600,-984,-1042,2030,-2467
5330,-3360,3784,-704,-898,2074,-2197
5335,-3120,3688,-816,-597,2094,-1720
5340,-3120,3704,-800,-330,2144,-1260
5345,-2872,3512,-1056,-231,2125,-868
5350,-2576,3408,-1248,-360,2126,-633
5355,-2096,2872,-1240,-715,2181,-502
5360,-1640,2224,-1032,-1221,2159,-442
5365,-1344,1752,-1056,-1649,2032,-410
5370,-1336,1064,-896,-2004,1870,-333
5375,-1584,536,-584,-2121,1703,-199
5380,-1496,168,-488,-2008,1465,-34
5385,-1584,-16,-440,-1712,1199,48
5390,-1648,16,-408,-1333,943,64
5395,-1664,64,-416,-989,705,108
5400,-1488,232,-560,-719,493,165
5405,-1272,392,-680,-551,333,197
5410,-1096,520,-680,-446,239,206
5415,-1016,656,-648,-379,186,204
5420,-880,704,-576,-342,143,189
5425,-768,744,-464,-301,128,173
5430,-680,784,-464,-253,128,146
5435,-504,784,-424,-201,140,99
5440,-416,784,-424,-154,159,36
5445,-200,832,-472,-138,183,-35
5450,-32,864,-480,-136,229,-114
5455,56,920,-544,-144,295,-178
5460,72,936,-560,-158,388,-229
5465,48,976,-512,-159,462,-260
5470,-16,984,-504,-124,535,-285
5475,-136,1016,-440,-47,636,-276
5480,-344,1072,-472,89,682,-259
5485,-536,1112,-496,204,700,-242
5490,-680,1152,-520,315,725,-235
5495,-880,1160,-544,419,764,-231
5500,-1016,1144,-472,497,802,-221
5505,-1144,1128,-448,548,808,-220
5510,-1128,1080,-424,571,779,-233
5515,-1136,1104,-384,558,721,-244
5520,-1296,1160,-424,521,656,-249
5525,-1368,1272,-368,457,579,-225
5530,-1360,1240,-416,367,477,-213
5535,-1392,1472,-600,222,412,-235
5540,-1720,2152,-848,318,627,-210
5545,-1360,1512,-160,450,755,-202
5550,-1208,856,176,539,575,-314
5555,-1672,976,-200,647,344,-383
5560,-1320,1248,-600,690,260,-327
5565,-1040,1520,-808,722,343,-353
5570,-992,1552,-1024,749,507,-409
5575,-696,1512,-1272,785,635,-471
5580,-2040,2440,-1944,938,835,-599
5585,-1416,1768,-1656,1365,1196,-761
5590,-1024,1192,-1736,1852,1254,-871
5595,-1296,888,-1904,2051,1130,-969
5600,-1688,928,-2080,2103,946,-1042
5605,-1952,1000,-2008,2062,791,-1032
5610,-2448,1480,-2256,1989,670,-991
5615,-2144,1280,-2224,1989,673,-849
5620,-2320,2368,-2760,2003,781,-684
5625,-2048,1688,-2376,1867,883,-525
5630,-1944,856,-2192,1899,1002,-524
5635,-1992,576,-2336,1990,1159,-576
5640,-1536,160,-2488,2095,1384,-548
5645,-2064,-32,-2472,1976,1506,-492
5650,-2376,336,-2680,1828,1521,-426
5655,-3744,1064,-2768,1486,1192,-354
5660,-3304,1144,-2592,739,395,-470
5665,-2880,1312,-2400,199,-131,-497
5670,-2288,1312,-2152,-131,-448,-462
5675,-1984,1512,-2008,-360,-664,-417
5680,-1600,1408,-1880,-554,-837,-408
5685,-1144,1312,-1720,-697,-931,-470
5690,-608,1208,-1568,-713,-916,-540
5695,-128,1088,-1528,-635,-812,-568
5700,232,856,-1496,-462,-678,-558
5705,408,640,-1592,-288,-575,-545
5710,496,544,-1632,-155,-471,-513
5715,536,136,-1480,-34,-331,-443
5720,496,-120,-1576,20,-260,-409
5725,248,-488,-1496,121,-135,-392
5730,48,-608,-1696,334,12,-388
5735,-256,-776,-1624,498,127,-381
5740,-504,-784,-1576,639,220,-393
5745,-792,-712,-1568,767,318,-408
5750,-1136,-456,-1616,865,407,-447
5755,-1256,168,-1792,803,418,-416
5760,-1264,440,-1640,622,456,-365
5765,-1160,576,-1592,512,490,-342
5770,-1264,624,-1568,474,508,-333
5775,-1200,544,-1600,480,492,-328
5780,-1128,416,-1640,514,477,-341
5785,-1168,336,-1704,534,471,-330
5790,-1192,272,-1728,529,460,-301
5795,-1288,272,-1808,517,437,-259
5800,-1296,72,-1808,504,415,-223
5805,-1440,152,-1920,526,426,-149
5810,-1200,160,-1928,441,385,-91
5815,-1112,224,-1992,343,353,-46
5820,-1080,280,-2056,247,341,-24
5825,-1120,360,-2080,170,324,1
5830,-1128,376,-2056,118,297,12
5835,-1096,400,-2040,82,268,20
5840,-1152,440,-2040,46,229,25
5845,-1192,456,-2016,24,189,31
5850,-1216,440,-2048,13,146,29
5855,-1216,456,-2040,8,105,30
5860,-1224,456,-2072,-2,56,27
5865,-1192,440,-2024,-23,12,26
5870,-1176,416,-2032,-42,-36,26
5875,-1192,416,-2024,-65,-83,35
5880,-1192,392,-2000,-87,-122,43
5885,-1200,400,-1976,-115,-152,58
5890,-1224,448,-1928,-146,-175,72
5895,-1224,400,-1904,-178,-191,94
5900,-1224,416,-1896,-209,-200,112
5905,-1216,408,-1872,-240,-205,135
5910,-1208,448,-1840,-270,-205,160
5915,-1192,440,-1752,-296,-200,179
5920,-1192,448,-1744,-308,-194,185
5925,-1184,448,-1696,-317,-180,192
5930,-1160,472,-1648,-324,-168,196
5935,-1168,488,-1640,-332,-158,201
5940,-1168,488,-1616,-339,-144,202
5945,-1184,504,-1592,-343,-131,204
5950,-1168,504,-1608,-339,-118,202
5955,-1136,488,-1592,-333,-105,205
5960,-1160,504,-1592,-330,-88,203
5965,-1144,504,-1544,-323,-70,200
5970,-1136,528,-1576,-308,-49,190
5975,-1160,520,-1592,-296,-35,182
5980,-1152,520,-1608,-285,-26,172
5985,-1152,544,-1568,-274,-23,165
5990,-1168,552,-1544,-263,-19,158
5995,-1160,560,-1576,-252,-15,152
6000,-1160,552,-1632,-238,-10,143
6005,-1152,552,-1592,-225,-7,136
6010,-1176,552,-1640,-212,0,125
6015,-1192,544,-1632,-197,10,117
6020,-1208,560,-1664,-180,25,108
6025,-1216,576,-1648,-161,43,103
6030,-1184,560,-1672,-148,62,98
6035,-1248,568,-1656,-140,79,98
6040,-1152,544,-1688,-133,97,97
6045,-1208,584,-1704,-134,107,99
6050,-1144,528,-1704,-127,116,98
6055,-1160,552,-1720,-129,115,98
6060,-1200,568,-1696,-132,110,99
6065,-1168,560,-1720,-133,106,103
6070,-1176,584,-1680,-130,102,107
6075,-1152,576,-1680,-123,102,104
6080,-1136,592,-1632,-110,93,99
6085,-1160,584,-1656,-98,92,94
6090,-1160,640,-1616,-88,100,83
6095,-1136,592,-1632,-74,112,74
6100,-1144,608,-1608,-61,119,59
6105,-1136,608,-1640,-50,121,45
6110,-1144,632,-1640,-36,127,31
6115,-1120,600,-1664,-21,127,20
6120,-1136,600,-1632,-8,129,9
6125,-1136,600,-1640,5,128,0
6130,-1128,568,-1632,15,129,-7
6135,-1152,576,-1640,23,127,-12
6140,-1192,576,-1680,27,126,-15
6145,-1192,560,-1688,30,128,-15
6150,-1192,560,-1688,32,129,-16
6155,-1168,576,-1688,32,134,-15
6160,-1168,576,-1696,32,136,-15
6165,-1168,584,-1704,32,137,-16
6170,-1168,584,-1728,31,138,-17
6175,-1160,568,-1704,31,134,-19
6180,-1144,576,-1736,29,130,-19
6185,-1144,592,-1680,27,125,-24
6190,-1136,592,-1704,27,121,-27
6195,-1144,560,-1712,34,114,-33
6200,-1176,592,-1752,44,105,-39
6205,-1160,576,-1728,51,96,-42
6210,-1160,552,-1712,56,89,-45
6215,-1136,544,-1728,54,86,-45
6220,-1184,560,-1728,54,81,-43
6225,-1184,568,-1736,55,75,-43
6230,-1176,584,-1768,56,69,-42
6235,-1176,552,-1784,57,64,-45
6240,-1176,592,-1784,54,58,-43
6245,-1184,560,-1744,46,54,-42
6250,-1184,528,-1768,36,54,-38
6255,-1152,504,-1720,25,56,-33
6260,-1144,536,-1736,12,58,-25
6265,-1168,528,-1712,0,59,-22
6270,-1144,536,-1704,-8,58,-16
6275,-1144,568,-1704,-13,56,-15
6280,-1128,528,-1672,-17,53,-10
6285,-1136,560,-1672,-19,50,-9
6290,-1128,560,-1696,-20,51,-6
6295,-1152,552,-1672,-20,49,-7
6300,-1136,536,-1688,-21,48,-6
6305,-1144,528,-1704,-21,46,-8
6310,-1136,552,-1672,-18,47,-8
6315,-1152,544,-1696,-17,46,-10
6320,-1160,544,-1696,-17,45,-9
6325,-1176,552,-1720,-18,46,-11
6330,-1160,576,-1688,-18,45,-10
6335,-1176,552,-1704,-19,44,-10
6340,-1168,552,-1712,-21,45,-7
6345,-1200,576,-1704,-26,44,-8
6350,-1152,552,-1696,-28,46,-4
6355,-1144,528,-1680,-34,51,-4
6360,-1192,536,-1704,-32,53,-2
6365,-1168,536,-1712,-33,55,-2
6370,-1184,576,-1728,-33,58,0
6375,-1176,600,-1704,-31,58,0
6380,-1168,528,-1728,-32,57,3
6385,-1152,544,-1728,-32,57,2
6390,-1168,560,-1688,-32,56,5
6395,-1144,568,-1712,-32,57,3
6400,-1160,576,-1704,-31,59,7
6405,-1168,536,-1664,-30,59,4
6410,-1160,560,-1704,-28,59,5
6415,-1160,576,-1704,-25,59,3
6420,-1176,576,-1680,-23,60,2
6425,-1160,568,-1728,-21,58,-1
6430,-1160,552,-1712,-20,56,0
6435,-1152,544,-1728,-19,56,-4
6440,-1152,576,-1704,-19,57,-1
6445,-1152,560,-1680,-20,58,-3
6450,-1160,544,-1688,-21,59,1
6455,-1160,560,-1704,-23,60,-1
6460,-1184,576,-1712,-21,60,1
6465,-1176,568,-1696,-20,61,-1
6470,-1160,560,-1712,-16,62,0
6475,-1176,576,-1704,-16,63,-3
6480,-1184,560,-1712,-17,64,0
6485,-1168,568,-1680,-18,64,-2
6490,-1152,568,-1664,-19,65,0
6495,-1152,536,-1664,-19,66,-3
6500,-1128,552,-1664,-15,66,-1
6505,-1152,576,-1640,-16,66,-5
6510,-1184,552,-1656,-14,64,-5
6515,-1152,552,-1696,-12,64,-9
6520,-1160,544,-1688,-11,62,-7
6525,-1168,552,-1672,-8,62,-10
6530,-1168,544,-1688,-8,62,-8
6535,-1176,560,-1704,-5,64,-12
6540,-1144,560,-1696,-3,67,-11
6545,-1160,568,-1712,-3,67,-14
6550,-1160,560,-1744,-4,67,-12
6555,-1160,576,-1704,-6,66,-14
6560,-1152,568,-1720,-7,65,-11
6565,-1176,560,-1688,-8,64,-12
6570,-1176,560,-1712,-12,64,-8
6575,-1184,568,-1704,-14,63,-9
6580,-1168,544,-1704,-18,60,-5
6585,-1160,560,-1712,-19,57,-5
6590,-1144,536,-1712,-21,55,-2
6595,-1152,536,-1672,-22,52,-3
6600,-1160,568,-1704,-23,52,-1
6605,-1168,560,-1720,-21,51,-4
6610,-1152,552,-1736,-18,50,-3
6615,-1144,568,-1712,-16,50,-6
6620,-1168,544,-1672,-16,50,-5
6625,-1160,552,-1672,-13,53,-6
6630,-1128,536,-1680,-12,55,-6
6635,-1144,568,-1704,-9,56,-9
6640,-1168,544,-1696,-9,55,-6
6645,-1152,560,-1736,-10,55,-7
6650,-1168,560,-1704,-11,55,-4
6655,-1144,568,-1688,-15,55,-6
6660,-1168,552,-1688,-17,56,-1
6665,-1176,552,-1696,-18,56,-3
6670,-1168,560,-1704,-17,57,-1
6675,-1160,552,-1728,-18,58,-3
6680,-1160,560,-1728,-18,56,0
6685,-1144,544,-1712,-23,53,-2
6690,-1152,552,-1712,-24,51,-1
6695,-1152,568,-1688,-26,46,-3
6700,-1152,544,-1688,-26,44,-1
6705,-1144,536,-1664,-23,45,-4
6710,-1176,544,-1688,-19,46,-4
6715,-1160,544,-1696,-15,48,-8
6720,-1152,552,-1664,-12,50,-7
6725,-1152,560,-1688,-11,54,-9
6730,-1152,528,-1648,-8,56,-7
6735,-1160,568,-1680,-8,58,-8
6740,-1144,528,-1696,-5,59,-7
6745,-1160,552,-1688,-4,60,-10
6750,-1176,568,-1736,-1,61,-9
6755,-1184,568,-1736,-2,61,-11
6760,-1176,568,-1712,-5,58,-7
6765,-1152,568,-1704,-13,56,-6
6770,-1144,528,-1672,-20,55,-1
6775,-1160,536,-1680,-27,57,0
6780,-1176,568,-1656,-29,60,4
6785,-1144,544,-1696,-30,62,1
6790,-1152,560,-1680,-30,63,3
6795,-1160,568,-1680,-28,65,1
6800,-1160,552,-1728,-26,66,2
6805,-1184,568,-1720,-23,66,-2
6810,-1176,568,-1704,-21,66,-2
6815,-1152,560,-1720,-18,65,-5
6820,-1184,576,-1720,-13,63,-6
6825,-1176,552,-1704,-12,62,-7
6830,-1184,544,-1704,-14,62,-6
6835,-1152,536,-1704,-15,61,-6
6840,-1184,568,-1696,-16,61,-2
6845,-1168,552,-1728,-17,62,-3
6850,-1168,560,-1704,-19,61,0
6855,-1160,536,-1680,-18,62,-2
6860,-1176,544,-1712,-20,60,1
6865,-1192,560,-1704,-19,62,-1
6870,-1144,576,-1712,-19,60,0
6875,-1176,568,-1688,-19,59,-1
6880,-1176,568,-1696,-17,60,-1
6885,-1160,544,-1688,-17,59,-4
6890,-1152,552,-1704,-13,59,-6
6895,-1160,568,-1680,-10,56,-8
6900,-1168,536,-1688,-10,55,-6
6905,-1160,536,-1680,-11,56,-7
6910,-1168,544,-1728,-10,57,-6
6915,-1152,544,-1720,-11,58,-7
6920,-1152,544,-1704,-11,60,-5
6925,-1152,552,-1704,-11,62,-6
6930,-1168,568,-1712,-10,63,-5
6935,-1184,576,-1688,-8,63,-6
6940,-1144,568,-1720,-10,65,-7
6945,-1168,560,-1696,-8,66,-8
6950,-1168,576,-1688,-7,67,-10
6955,-1192,576,-1688,-7,68,-11
6960,-1152,568,-1688,-7,69,-11
6965,-1184,536,-1704,-6,65,-11
6970,-1152,552,-1712,-8,64,-10
6975,-1144,560,-1696,-8,61,-9
6980,-1168,544,-1704,-8,58,-8
6985,-1160,560,-1720,-8,56,-7
6990,-1152,576,-1672,-9,56,-8
6995,-1160,568,-1720,-11,56,-6
7000,-1176,536,-1704,-12,58,-6
7005,-1168,568,-1688,-12,59,-7
7010,-1160,560,-1696,-12,59,-7
7015,-1168,568,-1672,-14,57,-5
7020,-1176,552,-1696,-14,58,-6
7025,-1152,536,-1712,-16,57,-5
7030,-1152,552,-1712,-18,57,-4
7035,-1176,568,-1704,-20,56,-3
7040,-1176,568,-1704,-23,55,-2
7045,-1168,560,-1696,-25,54,-1
7050,-1160,568,-1728,-26,52,-2
7055,-1160,560,-1712,-25,52,-1
7060,-1176,552,-1704,-24,50,-1
7065,-1160,560,-1696,-22,51,-2
7070,-1168,552,-1704,-22,53,-1
7075,-1160,552,-1696,-22,54,-2
7080,-1176,560,-1712,-20,55,-3
7085,-1144,536,-1704,-18,56,-5
7090,-1176,552,-1696,-18,56,-5
7095,-1160,560,-1720,-18,55,-4
7100,-1160,560,-1704,-20,55,-5
7105,-1184,576,-1696,-21,54,-2
7110,-1176,552,-1712,-22,54,-3
7115,-1176,560,-1696,-22,52,-4
7120,-1160,552,-1704,-19,50,-3
7125,-1176,560,-1696,-17,50,-2
7130,-1168,576,-1696,-16,53,-3
7135,-1144,544,-1712,-18,54,-2
7140,-1160,560,-1696,-15,55,-4
7145,-1160,568,-1656,-16,55,-4
7150,-1160,544,-1696,-15,57,-7
7155,-1160,544,-1656,-13,59,-6
7160,-1176,568,-1696,-12,61,-8
7165,-1152,560,-1712,-13,61,-6
7170,-1160,568,-1696,-11,63,-6
7175,-1136,552,-1672,-13,63,-5
7180,-1168,560,-1704,-14,63,-7
7185,-1184,560,-1688,-15,62,-7
7190,-1184,544,-1704,-14,60,-7
7195,-1184,544,-1720,-13,60,-6
7200,-1176,552,-1680,-12,60,-9
7205,-1168,552,-1712,-13,60,-6
7210,-1160,544,-1712,-13,56,-7
7215,-1160,576,-1704,-15,55,-4
7220,-1160,584,-1720,-17,52,-3
7225,-1168,552,-1712,-17,51,-2
7230,-1168,560,-1696,-17,50,-4
7235,-1176,552,-1680,-19,52,-3
7240,-1168,544,-1688,-17,52,-6
7245,-1144,560,-1672,-18,55,-4
7250,-1168,560,-1680,-16,58,-4
7255,-1160,552,-1680,-14,60,-3
7260,-1168,584,-1688,-12,60,-6
7265,-1152,544,-1688,-11,61,-4
7270,-1160,560,-1704,-7,60,-8
7275,-1168,552,-1688,-3,60,-8
7280,-1176,536,-1720,0,60,-10
7285,-1152,560,-1728,0,62,-9
7290,-1160,536,-1712,-3,62,-11
7295,-1160,552,-1736,-8,62,-8
7300,-1168,552,-1712,-12,63,-9
7305,-1168,568,-1704,-15,64,-5
7310,-1168,544,-1704,-19,65,-7
7315,-1168,544,-1688,-22,64,-2
7320,-1176,560,-1712,-23,62,-4
7325,-1176,560,-1712,-22,63,-1
7330,-1160,568,-1696,-22,62,-4
7335,-1152,544,-1720,-21,62,-2
7340,-1144,552,-1696,-21,62,-3
7345,-1168,576,-1696,-22,60,-1
7350,-1160,568,-1696,-21,60,-3
7355,-1160,552,-1680,-20,60,0
7360,-1168,544,-1712,-20,59,-3
7365,-1160,568,-1712,-19,60,0
7370,-1160,568,-1688,-21,61,-3
7375,-1184,576,-1720,-20,61,-1
7380,-1176,576,-1720,-20,59,-3
7385,-1152,544,-1696,-19,58,-1
7390,-1168,560,-1704,-20,56,-4
7395,-1160,584,-1720,-18,57,-2
7400,-1168,552,-1696,-15,58,-4
7405,-1192,560,-1712,-15,57,-3
7410,-1160,536,-1720,-16,57,-5
7415,-1144,552,-1712,-16,56,-2
7420,-1192,576,-1712,-15,56,-5
7425,-1184,576,-1688,-15,56,-2
7430,-1168,576,-1688,-16,56,-5
7435,-1176,560,-1704,-13,55,-3
7440,-1176,560,-1672,-12,56,-7
7445,-1168,552,-1704,-11,58,-4
7450,-1184,544,-1688,-11,58,-8
7455,-1168,568,-1712,-11,56,-5
7460,-1152,552,-1688,-11,57,-8
7465,-1168,568,-1680,-10,58,-6
7470,-1152,544,-1696,-11,59,-8
7475,-1176,552,-1704,-12,58,-7
7480,-1176,552,-1704,-12,59,-9
7485,-1176,568,-1688,-12,59,-6
7490,-1176,560,-1672,-12,60,-8
7495,-1160,552,-1680,-14,60,-5
7500,-1160,520,-1688,-12,59,-7
7505,-1136,512,-1672,-12,59,-5
7510,-1112,528,-1624,-12,58,-8
7515,-1168,552,-1688,-12,57,-6
7520,-1152,536,-1712,-12,57,-9
7525,-1104,592,-1768,-12,57,-7
7530,-1168,576,-1704,-13,57,-10
7535,-1304,568,-1712,-13,58,-6
7540,-1176,560,-1840,-13,60,-9
7545,-1152,584,-1664,-13,60,-7
7550,-1280,608,-1688,-13,63,-10
7555,-1128,520,-1704,-13,63,-8
7560,-1160,608,-1600,-14,63,-9
7565,-1200,624,-1776,-16,62,-6
7570,-1160,600,-1688,-16,61,-6
7575,-1120,568,-1656,-17,60,-4
7580,-1184,560,-1680,-18,59,-6
7585,-1144,592,-1728,-18,59,-2
7590,-1144,512,-1664,-19,59,-6
7595,-1184,584,-1704,-18,59,-3
7600,-1144,568,-1752,-20,58,-6
7605,-1216,544,-1608,-18,60,-2
7610,-1248,520,-1656,-19,59,-5
7615,-1176,552,-1704,-19,59,-2
7620,-1232,536,-1712,-19,59,-5
7625,-1176,576,-1632,-20,58,-1
7630,-1264,520,-1640,-20,59,-2
7635,-1192,584,-1720,-23,61,0
7640,-1152,560,-1688,-22,59,-2
7645,-1184,552,-1680,-21,58,0
7650,-1160,568,-1712,-19,59,-1
7655,-1184,560,-1712,-18,60,-1
7660,-1248,592,-1648,-17,60,-4
7665,-1152,584,-1672,-18,61,0
7670,-1176,592,-1720,-19,62,-2
7675,-1160,584,-1640,-19,61,-1
7680,-1112,552,-1656,-18,60,-4
7685,-1160,536,-1704,-17,60,-3
7690,-1208,592,-1720,-15,61,-5
7695,-1160,656,-1848,-13,59,-5
7700,-1152,616,-1680,-13,61,-6
7705,-1144,504,-1632,-12,63,-6
7710,-1216,552,-1720,-11,65,-7
7715,-1152,616,-1744,-9,68,-6
7720,-1144,520,-1656,-11,69,-7
7725,-1152,568,-1584,-12,71,-4
7730,-1152,584,-1648,-14,70,-5
7735,-1088,616,-1648,-14,67,-4
7740,-1200,584,-1672,-14,64,-4
7745,-1200,560,-1648,-12,64,-5
7750,-1208,624,-1752,-12,65,-4
7755,-1232,544,-1736,-11,68,-5
7760,-1216,560,-1720,-10,67,-6
7765,-1104,584,-1712,-10,63,-6
7770,-1176,592,-1632,-10,59,-7
7775,-1200,600,-1688,-11,54,-5
7780,-1112,528,-1688,-14,53,-6
7785,-1128,504,-1696,-17,53,-5
7790,-1144,584,-1664,-16,52,-6
7795,-1240,552,-1600,-18,55,-6
7800,-1184,536,-1696,-17,56,-6
7805,-1160,552,-1656,-16,58,-6
7810,-1176,552,-1664,-14,60,-5
7815,-1144,536,-1688,-12,61,-5
7820,-1136,528,-1616,-8,61,-7
7825,-1136,568,-1680,-4,62,-5
7830,-1200,552,-1656,-2,64,-8
7835,-1224,584,-1728,-2,65,-9
7840,-1208,568,-1736,-5,68,-9
7845,-1288,576,-1688,-10,66,-5
7850,-1176,544,-1656,-17,65,-5
7855,-1168,624,-1760,-23,63,-3
7860,-1160,608,-1744,-27,63,0
7865,-1216,504,-1704,-30,64,1
7870,-1152,568,-1688,-30,64,0
7875,-1248,552,-1776,-29,64,1
7880,-1176,592,-1744,-28,62,0
7885,-1176,552,-1560,-27,60,0
7890,-1216,560,-1696,-26,59,1
7895,-1184,536,-1592,-24,59,-1
7900,-1160,616,-1776,-25,60,1
7905,-1144,616,-1832,-24,60,0
7910,-1144,512,-1840,-23,62,1
7915,-1152,544,-1616,-22,63,-1
7920,-1000,608,-1720,-20,63,-1
7925,-1176,592,-1656,-20,64,-1
7930,-1208,584,-1680,-18,61,-3
7935,-1272,488,-1672,-19,61,-1
7940,-1200,560,-1696,-20,62,-1
7945,-1208,632,-1712,-21,62,-1
7950,-1192,552,-1648,-22,61,-2
7955,-1144,552,-1672,-20,63,-2
7960,-1152,568,-1672,-19,64,-2
7965,-1160,568,-1656,-16,65,-5
7970,-1168,560,-1696,-15,67,-4
7975,-1176,568,-1680,-14,68,-6
7980,-1152,592,-1832,-12,70,-6
7985,-1160,544,-1752,-12,68,-6
7990,-1128,544,-1696,-11,66,-6
7995,-1160,568,-1688,-11,64,-8
8000,-1200,648,-1720,-11,62,-7
8005,-1232,608,-1560,-10,61,-7
8010,-1224,560,-1672,-11,61,-6
8015,-1216,512,-1680,-10,62,-9
8020,-1208,512,-1576,-9,62,-8
8025,-1280,568,-1624,-7,64,-9
8030,-1184,592,-1624,-8,65,-9
8035,-1168,712,-1704,-8,64,-10
8040,-1128,480,-1680,-10,64,-9
8045,-1168,512,-1624,-10,63,-10
8050,-1152,512,-1664,-12,61,-8
8055,-1192,584,-1696,-12,61,-9
8060,-1176,544,-1656,-11,63,-5
8065,-1168,576,-1752,-11,62,-6
8070,-1096,616,-1664,-12,61,-5
8075,-1184,592,-1712,-13,59,-7
8080,-1112,616,-1664,-15,60,-7
8085,-1192,488,-1712,-14,60,-8
8090,-1184,512,-1600,-16,62,-5
8095,-1160,408,-1600,-16,62,-7
8100,-1160,584,-1736,-16,62,-5
8105,-1120,584,-1688,-17,62,-5
8110,-1168,592,-1704,-20,63,-3
8115,-1168,552,-1712,-20,61,-5
8120,-1184,560,-1712,-21,60,-1
8125,-1176,568,-1696,-22,57,-2
8130,-1176,552,-1712,-22,56,-1
8135,-1216,648,-1680,-21,55,-2
8140,-1248,512,-1656,-21,55,-1
8145,-1144,656,-1688,-23,57,-2
8150,-1160,608,-1784,-23,58,-1
8155,-1152,560,-1704,-24,58,-2
8160,-1176,536,-1688,-24,56,0
8165,-1064,664,-1848,-24,55,-2
8170,-1288,584,-1760,-23,56,0
8175,-1184,544,-1688,-25,58,-1
8180,-1136,560,-1640,-23,59,1
8185,-1160,624,-1792,-21,61,-3
8190,-1160,544,-1904,-20,60,-1
8195,-1136,512,-1632,-18,62,-3
8200,-1136,512,-1808,-18,63,-3
8205,-1184,584,-1752,-17,63,-4
8210,-1184,512,-1600,-17,62,-1
8215,-1160,584,-1608,-17,62,-4
8220,-1176,544,-1672,-17,61,-2
8225,-1192,504,-1680,-16,61,-5
8230,-1168,584,-1712,-15,63,-2
8235,-1192,608,-1704,-14,63,-6
8240,-1160,560,-1656,-15,63,-3
8245,-1184,648,-1720,-16,62,-6
8250,-1208,504,-1712,-15,62,-5
8255,-1200,568,-1712,-13,62,-7
8260,-1192,560,-1608,-13,62,-6
8265,-1200,576,-1688,-11,63,-8
8270,-1128,536,-1704,-10,66,-6
8275,-1152,536,-1712,-10,66,-8
8280,-1176,560,-1688,-10,67,-5
8285,-1152,536,-1688,-9,67,-8
8290,-1184,568,-1696,-10,66,-4
8295,-1104,568,-1680,-11,65,-7
8300,-1224,592,-1744,-11,65,-4
8305,-1208,560,-1656,-13,66,-7
8310,-1136,560,-1688,-13,65,-5
8315,-1168,496,-1688,-15,63,-8
8320,-1144,536,-1736,-14,60,-5
8325,-1216,560,-1680,-15,61,-8
8330,-1208,592,-1688,-12,61,-5
8335,-1168,552,-1712,-14,60,-7
8340,-1144,568,-1656,-14,57,-2
8345,-1136,624,-1736,-14,58,-5
8350,-1184,496,-1664,-13,56,-3
8355,-1192,496,-1688,-14,56,-5
8360,-1168,568,-1648,-17,57,-4
8365,-1120,504,-1640,-17,57,-7
8370,-1152,536,-1696,-15,56,-4
8375,-1256,600,-1736,-16,59,-6
8380,-1136,576,-1728,-13,61,-3
8385,-1144,528,-1680,-12,61,-5
8390,-1192,568,-1656,-11,61,-3
8395,-1128,584,-1640,-12,62,-5
8400,-1128,528,-1648,-10,65,-5
8405,-1184,560,-1736,-6,66,-8
8410,-1128,568,-1696,-3,66,-7
8415,-1168,552,-1672,-4,65,-9
8420,-1192,544,-1688,-6,66,-6
8425,-1176,560,-1696,-12,65,-6
8430,-1168,536,-1704,-18,66,-2
8435,-1160,560,-1704,-24,68,-2
8440,-1184,584,-1704,-28,67,2
8445,-1232,552,-1608,-31,67,-1
8450,-1192,576,-1680,-32,65,1
8455,-1192,560,-1688,-30,65,-1
8460,-1160,536,-1704,-28,63,1
8465,-1184,576,-1704,-25,60,-1
8470,-1152,544,-1688,-22,61,1
8475,-1184,560,-1688,-23,61,-2
8480,-1176,544,-1712,-24,60,0
8485,-1176,552,-1712,-24,60,-2
8490,-1168,536,-1712,-23,59,1
8495,-1168,552,-1704,-24,58,-1
8500,-1160,576,-1688,-23,58,1
8505,-1176,552,-1656,-23,57,-1
8510,-1152,544,-1688,-23,58,1
8515,-1168,576,-1720,-22,60,1
8520,-1152,552,-1664,-22,59,2
8525,-1152,552,-1680,-21,60,-1
8530,-1152,560,-1680,-18,60,0
8535,-1184,568,-1688,-16,59,-4
8540,-1232,496,-1696,-14,58,-2
8545,-1168,552,-1664,-13,58,-5
8550,-1184,576,-1712,-12,60,-5
8555,-1176,544,-1688,-11,63,-7
8560,-1176,560,-1696,-11,64,-6
8565,-1176,576,-1656,-12,64,-7
8570,-1184,552,-1688,-12,65,-7
8575,-1192,576,-1680,-11,65,-5
8580,-1176,576,-1680,-11,66,-5
8585,-1152,592,-1688,-11,67,-7
8590,-1168,576,-1696,-12,67,-6
8595,-1168,552,-1704,-12,67,-7
8600,-1136,560,-1672,-11,67,-6
8605,-1184,560,-1688,-11,66,-6
8610,-1192,424,-1624,-10,64,-6
8615,-1144,576,-1696,-8,61,-7
8620,-1176,552,-1704,-9,61,-7
8625,-1176,552,-1664,-9,62,-8
8630,-1168,576,-1696,-9,61,-6
8635,-1168,512,-1656,-11,61,-6
8640,-1160,552,-1696,-13,60,-6
8645,-1176,576,-1672,-12,58,-7
8650,-1176,560,-1712,-14,59,-5
8655,-1168,560,-1720,-13,58,-6
8660,-1168,560,-1672,-14,60,-6
8665,-1152,560,-1664,-14,59,-6
8670,-1168,552,-1712,-14,62,-4
8675,-1176,568,-1672,-15,63,-5
8680,-1176,544,-1688,-17,63,-4
8685,-1192,584,-1728,-17,63,-5
8690,-1152,544,-1696,-16,64,-4
8695,-1176,568,-1704,-18,64,-4
8700,-1184,568,-1680,-19,63,-3
8705,-1248,480,-1632,-20,64,-4
8710,-1184,568,-1672,-20,63,-3
8715,-1152,552,-1704,-20,63,-2
8720,-1160,568,-1728,-19,60,-3
8725,-1176,576,-1680,-19,60,-2
8730,-1144,536,-1728,-20,58,-3
8735,-1168,568,-1712,-22,60,-2
8740,-1192,568,-1688,-22,58,-1
8745,-1152,552,-1672,-22,57,-1
8750,-1152,560,-1680,-21,58,0
8755,-1040,608,-1624,-21,59,-1
8760,-1176,568,-1656,-20,60,-2
8765,-1160,560,-1672,-17,62,-2
8770,-1176,560,-1696,-18,61,-2
8775,-1176,568,-1680,-17,61,-2
8780,-1184,576,-1680,-16,61,-4
8785,-1168,544,-1680,-15,62,-4
8790,-1176,576,-1672,-13,64,-5
8795,-1168,544,-1720,-13,65,-5
8800,-1168,576,-1704,-13,65,-6
8805,-1168,560,-1712,-15,66,-6
8810,-1168,560,-1672,-15,65,-6
8815,-1176,544,-1688,-15,65,-4
8820,-1176,568,-1672,-16,65,-5
8825,-1192,584,-1712,-16,63,-2
8830,-1160,576,-1648,-17,63,-3
8835,-1176,568,-1704,-19,62,-2
8840,-1168,560,-1712,-18,62,-3
8845,-1176,560,-1664,-18,62,-3
8850,-1168,568,-1688,-15,61,-4
8855,-1264,544,-1680,-14,61,-2
8860,-1144,544,-1680,-14,62,-4
8865,-1168,560,-1664,-13,62,-3
8870,-1152,552,-1696,-13,63,-4
8875,-1144,544,-1696,-13,63,-3
8880,-1168,560,-1696,-13,62,-5
8885,-1176,552,-1688,-13,62,-4
8890,-1168,576,-1640,-14,61,-7
8895,-1152,552,-1672,-13,60,-4
8900,-1160,568,-1712,-12,60,-7
8905,-1184,576,-1720,-12,61,-6
8910,-1176,560,-1704,-12,61,-5
8915,-1176,552,-1672,-14,62,-3
8920,-1176,568,-1656,-17,63,-4
8925,-1160,576,-1712,-18,62,-3
8930,-1176,552,-1688,-18,60,-6
8935,-1176,536,-1672,-17,60,-3
8940,-1184,552,-1704,-17,59,-5
8945,-1160,560,-1672,-17,59,-3
8950,-1160,552,-1696,-15,61,-4
8955,-1168,568,-1672,-14,61,-4
8960,-1168,544,-1696,-15,62,-5
8965,-1192,560,-1704,-14,62,-3
8970,-1184,568,-1696,-14,63,-5
8975,-1168,544,-1688,-13,63,-5
8980,-1176,568,-1688,-15,63,-6
8985,-1152,560,-1712,-15,63,-4
8990,-1184,568,-1688,-17,63,-4
8995,-1144,552,-1688,-17,64,-1
9000,-1176,560,-1688,-18,61,-3
9005,-1152,552,-1688,-20,58,-2
9010,-1176,568,-1712,-21,57,-3
9015,-1168,560,-1680,-20,59,-1
9020,-1192,560,-1672,-20,59,-3
9025,-1176,560,-1664,-19,61,-3
9030,-1168,560,-1688,-17,62,-7
9035,-1152,544,-1680,-16,62,-5
9040,-1160,536,-1640,-16,65,-6
9045,-1160,544,-1656,-16,65,-4
9050,-1168,552,-1672,-15,66,-6
9055,-1160,560,-1672,-11,64,-5
9060,-1144,536,-1720,-6,66,-7
9065,-1168,576,-1696,-3,67,-7
9070,-1160,552,-1720,-3,69,-9
9075,-1176,552,-1736,-6,69,-6
9080,-1176,560,-1688,-10,70,-8
9085,-1168,568,-1696,-16,70,-2
9090,-1160,552,-1688,-22,70,-2
9095,-1160,560,-1680,-27,71,1
9100,-1176,552,-1736,-28,71,-2
9105,-1184,576,-1696,-28,71,2
9110,-1152,560,-1696,-25,68,-1
9115,-1184,560,-1680,-26,68,2
9120,-1184,552,-1696,-24,66,-1
9125,-1176,560,-1672,-24,66,1
9130,-1160,576,-1680,-23,64,-2
9135,-1152,552,-1720,-22,63,1
9140,-1184,592,-1704,-20,62,-1
9145,-1168,576,-1704,-20,64,1
9150,-1160,560,-1696,-21,64,-2
9155,-1168,560,-1680,-20,66,0
9160,-1176,568,-1704,-18,67,-3
9165,-1160,560,-1728,-18,69,0
9170,-1176,576,-1720,-18,66,-2
9175,-1144,552,-1736,-19,67,1
9180,-1176,568,-1704,-18,65,-3
9185,-1152,568,-1688,-17,64,0
9190,-1152,552,-1688,-15,60,-3
9195,-1184,568,-1736,-14,59,0
9200,-1160,568,-1704,-13,58,-5
9205,-1176,576,-1680,-12,58,-3
9210,-1152,552,-1688,-12,58,-5
9215,-1168,560,-1704,-12,58,-3
9220,-1168,584,-1680,-11,60,-5
9225,-1168,560,-1688,-11,60,-5
9230,-1160,560,-1688,-10,60,-10
9235,-1152,568,-1648,-9,61,-6
9240,-1144,560,-1712,-10,60,-8
9245,-1152,536,-1680,-11,61,-5
9250,-1176,544,-1704,-12,61,-8
9255,-1176,576,-1680,-13,62,-5
9260,-1168,552,-1696,-13,61,-10
9265,-1144,560,-1704,-12,62,-7
9270,-1152,560,-1688,-13,62,-9
9275,-1176,560,-1688,-13,63,-5
9280,-1160,536,-1680,-13,63,-7
9285,-1160,568,-1720,-15,65,-5
9290,-1152,544,-1680,-14,64,-6
9295,-1192,568,-1688,-15,63,-4
9300,-1160,560,-1688,-15,62,-6
9305,-1152,544,-1720,-16,60,-4
9310,-1152,568,-1728,-16,60,-7
9315,-1160,576,-1704,-17,60,-3
9320,-1160,560,-1680,-17,60,-5
9325,-1168,560,-1704,-19,61,-2
9330,-1184,592,-1704,-20,60,-2
9335,-1192,584,-1672,-21,61,0
9340,-1192,568,-1664,-20,62,-2
9345,-1200,584,-1688,-21,63,0
9350,-1168,552,-1720,-23,61,-2
9355,-1176,552,-1680,-23,60,0
9360,-1184,568,-1704,-24,61,-1
9365,-1184,568,-1680,-24,59,1
9370,-1160,568,-1680,-24,59,0
9375,-1160,552,-1672,-24,59,2
9380,-1176,576,-1680,-24,59,0
9385,-1192,576,-1688,-25,60,2
9390,-1160,560,-1704,-26,60,2
9395,-1168,568,-1672,-26,59,3
9400,-1152,568,-1704,-26,59,0
9405,-1160,584,-1712,-24,58,1
9410,-1184,576,-1704,-22,60,0
9415,-1176,576,-1688,-23,61,1
9420,-1184,576,-1696,-21,63,-2
9425,-1168,568,-1696,-20,65,-1
9430,-1192,552,-1688,-19,65,-4
9435,-1152,576,-1664,-17,65,-2
9440,-1176,584,-1672,-15,66,-5
9445,-1176,560,-1712,-13,65,-4
9450,-1184,584,-1680,-11,67,-6
9455,-1160,584,-1728,-11,66,-5
9460,-1176,560,-1672,-12,66,-6
9465,-1176,600,-1664,-12,67,-4
9470,-1152,560,-1688,-13,66,-6
9475,-1144,576,-1704,-12,65,-5
9480,-1168,568,-1688,-12,66,-6
9485,-1160,568,-1696,-12,67,-6
9490,-1168,568,-1704,-12,66,-8
9495,-1168,560,-1704,-11,68,-6
9500,-1176,560,-1720,-12,68,-8
9505,-1168,552,-1664,-13,68,-7
9510,-1184,560,-1712,-12,68,-8
9515,-1168,552,-1680,-12,68,-8
9520,-1160,568,-1672,-13,67,-8
9525,-1152,560,-1672,-12,66,-8
9530,-1184,576,-1664,-12,67,-8
9535,-1176,568,-1704,-12,66,-7
9540,-1152,568,-1704,-13,65,-9
9545,-1176,560,-1696,-14,64,-8
9550,-1168,552,-1704,-16,66,-8
9555,-1168,544,-1688,-16,66,-7
9560,-1144,536,-1696,-15,67,-6
9565,-1168,552,-1696,-17,67,-6
9570,-1152,568,-1680,-17,67,-5
9575,-1176,552,-1696,-17,65,-5
9580,-1176,576,-1688,-17,64,-4
9585,-1168,560,-1712,-17,63,-5
9590,-1176,560,-1688,-19,62,-4
9595,-1168,576,-1696,-19,62,-3
9600,-1168,560,-1712,-19,63,-3
9605,-1168,568,-1696,-22,63,-2
9610,-1168,552,-1688,-22,64,-1
9615,-1160,544,-1680,-23,67,-1
9620,-1144,576,-1696,-23,65,1
9625,-1144,552,-1712,-21,66,0
9630,-1176,560,-1712,-20,65,1
9635,-1168,560,-1744,-20,65,-2
9640,-1152,560,-1728,-20,65,-1
9645,-1168,568,-1696,-19,65,-2
9650,-1160,544,-1704,-18,65,-2
9655,-1160,544,-1680,-16,64,-3
9660,-1176,584,-1696,-15,64,-3
9665,-1160,560,-1680,-13,64,-5
9670,-1176,536,-1704,-15,64,-4
9675,-1168,552,-1688,-16,64,-3
9680,-1160,560,-1704,-15,64,-4
9685,-1168,568,-1728,-16,63,-5
9690,-1136,560,-1712,-16,63,-4
9695,-1192,592,-1688,-16,63,-4
9700,-1168,568,-1712,-16,63,-4
9705,-1160,560,-1680,-15,63,-4
9710,-1160,584,-1712,-14,63,-2
9715,-1168,576,-1688,-15,63,-3
9720,-1168,568,-1704,-14,64,-3
9725,-1152,560,-1712,-14,62,-4
9730,-1184,560,-1728,-13,60,-6
9735,-1168,552,-1696,-13,59,-7
9740,-1176,568,-1704,-11,59,-6
9745,-1168,552,-1672,-11,57,-8
9750,-1160,536,-1672,-10,60,-6
9755,-1168,576,-1688,-11,61,-6
9760,-1168,560,-1688,-12,62,-4
9765,-1176,584,-1680,-14,62,-6
9770,-1184,576,-1704,-14,62,-5
9775,-1152,568,-1688,-15,60,-5
9780,-1168,568,-1680,-15,60,-4
9785,-1160,544,-1704,-16,60,-4
9790,-1136,560,-1680,-16,61,-2
9795,-1176,592,-1688,-17,61,-4
9800,-1160,552,-1664,-16,62,-2
9805,-1152,560,-1688,-17,61,-4
9810,-1176,552,-1696,-15,62,-2
9815,-1168,576,-1648,-15,62,-6
9820,-1168,568,-1704,-15,63,-5
9825,-1168,568,-1688,-14,63,-6
9830,-1160,584,-1680,-12,62,-4
9835,-1176,552,-1712,-10,64,-5
9840,-1160,576,-1688,-9,66,-5
9845,-1152,560,-1696,-7,68,-7
9850,-1184,576,-1672,-7,70,-6
9855,-1152,568,-1696,-7,71,-6
9860,-1160,584,-1680,-7,70,-6
9865,-1152,560,-1672,-7,70,-9
9870,-1176,576,-1704,-7,69,-6
9875,-1168,552,-1680,-8,67,-8
9880,-1168,568,-1704,-9,66,-4
9885,-1168,592,-1696,-9,65,-6
9890,-1184,560,-1696,-9,65,-3
9895,-1152,552,-1680,-10,65,-5
9900,-1168,560,-1712,-11,63,-1
9905,-1144,576,-1664,-12,60,-3
9910,-1176,568,-1720,-13,58,-1
9915,-1168,576,-1704,-14,56,-3
9920,-1176,568,-1680,-14,54,-2
9925,-1192,560,-1696,-13,55,-6
9930,-1168,552,-1688,-12,56,-5
9935,-1176,560,-1720,-11,58,-7
9940,-1168,544,-1688,-12,59,-5
9945,-1184,568,-1704,-12,59,-5
9950,-1168,560,-1696,-13,60,-3
9955,-1160,544,-1680,-12,59,-6
9960,-1160,568,-1696,-15,57,-5
9965,-1152,568,-1696,-15,56,-6
9970,-1184,592,-1680,-15,56,-3
9975,-1176,560,-1696,-12,57,-6
9980,-1152,560,-1688,-12,59,-4
9985,-1128,560,-1680,-11,58,-7
9990,-1152,544,-1664,-12,57,-4
9995,-1160,536,-1664,-15,57,-6
10000,-1160,552,-1656,-16,56,-2
10005,-1152,568,-1680,-15,57,-4
10010,-1176,576,-1664,-10,58,-4
10015,-1192,584,-1696,-3,62,-6
10020,-1160,552,-1720,-1,66,-5
10025,-1200,560,-1704,2,68,-7
10030,-1184,544,-1728,-2,70,-5
10035,-1160,560,-1744,-9,69,-7
10040,-1168,560,-1696,-13,65,-2
10045,-1152,576,-1672,-20,63,-2
10050,-1160,536,-1672,-24,61,3
10055,-1168,568,-1688,-26,60,1
10060,-1184,600,-1688,-26,62,2
10065,-1168,568,-1720,-26,63,0
10070,-1160,576,-1664,-25,63,3
10075,-1176,568,-1688,-23,62,0
10080,-1168,568,-1712,-24,61,3
10085,-1160,560,-1720,-22,60,-1
10090,-1168,592,-1688,-20,58,0
10095,-1168,568,-1656,-19,57,-2
10100,-1176,568,-1680,-19,56,1
10105,-1176,560,-1704,-21,57,-2
10110,-1160,560,-1672,-20,56,0
10115,-1160,560,-1656,-20,57,-2
10120,-1168,560,-1680,-18,57,0
10125,-1160,568,-1696,-17,59,-3
10130,-1160,584,-1672,-14,60,-2
10135,-1184,560,-1696,-12,61,-4
10140,-1136,552,-1704,-11,62,-2
10145,-1152,576,-1680,-10,63,-6
10150,-1168,576,-1680,-9,63,-4
10155,-1160,560,-1704,-8,64,-8
10160,-1184,576,-1736,-7,65,-6
10165,-1168,552,-1688,-6,64,-7
10170,-1176,560,-1680,-6,65,-6
10175,-1160,568,-1680,-6,67,-7
10180,-1168,568,-1704,-5,67,-5
10185,-1152,544,-1656,-6,68,-7
10190,-1160,576,-1688,-6,67,-5
10195,-1168,552,-1688,-6,67,-6
10200,-1184,568,-1704,-6,64,-4
10205,-1184,592,-1688,-6,64,-7
10210,-1176,568,-1664,-5,63,-5
10215,-1184,576,-1720,-5,63,-7
10220,-1208,584,-1720,-3,61,-7
10225,-1176,560,-1728,-3,63,-10
10230,-1160,552,-1712,-4,62,-8
10235,-1152,560,-1712,-3,61,-9
10240,-1152,536,-1672,-4,61,-7
10245,-1176,568,-1672,-6,59,-8
10250,-1184,560,-1680,-9,60,-6
10255,-1168,560,-1680,-11,61,-7
10260,-1160,552,-1720,-13,61,-4
10265,-1152,552,-1704,-15,61,-5
10270,-1184,568,-1680,-16,61,-3
10275,-1184,568,-1712,-17,60,-3
10280,-1152,560,-1696,-19,60,-2
10285,-1192,568,-1712,-19,60,-3
10290,-1176,568,-1672,-18,60,-1
10295,-1176,560,-1736,-19,61,-3
10300,-1152,544,-1696,-20,60,0
10305,-1176,560,-1680,-22,60,-1
10310,-1176,560,-1696,-22,61,1
10315,-1176,560,-1712,-22,61,-1
10320,-1152,568,-1680,-21,61,-1
10325,-1160,560,-1728,-20,63,-2
10330,-1160,560,-1664,-21,61,0
10335,-1168,568,-1712,-22,60,-1
10340,-1168,568,-1704,-20,60,0
10345,-1160,560,-1688,-22,58,-1
10350,-1152,552,-1696,-22,57,-1
10355,-1184,592,-1704,-22,55,-1
10360,-1160,560,-1688,-22,55,-1
10365,-1200,576,-1688,-24,55,-1
10370,-1176,584,-1688,-23,54,0
10375,-1152,576,-1704,-20,55,-2
10380,-1168,560,-1680,-18,56,-2
10385,-1152,552,-1696,-18,59,-5
10390,-1176,568,-1680,-15,60,-3
10395,-1152,568,-1680,-14,60,-4
10400,-1152,560,-1688,-14,62,-3
10405,-1168,576,-1688,-14,62,-3
10410,-1168,584,-1680,-13,62,-3
10415,-1192,584,-1728,-12,63,-5
10420,-1184,552,-1696,-13,61,-4
10425,-1160,568,-1696,-11,61,-4
10430,-1176,576,-1680,-11,62,-4
10435,-1192,560,-1704,-10,62,-5
10440,-1168,592,-1696,-11,63,-5
10445,-1168,568,-1696,-11,65,-6
10450,-1168,552,-1696,-12,65,-6
10455,-1160,584,-1688,-10,64,-6
10460,-1176,568,-1680,-8,64,-6
10465,-1168,560,-1696,-8,64,-6
10470,-1152,576,-1688,-8,64,-5
10475,-1176,560,-1688,-8,62,-5
10480,-1176,576,-1696,-8,61,-6
10485,-1168,576,-1672,-8,61,-8
10490,-1168,552,-1680,-9,60,-7
10495,-1176,560,-1696,-8,61,-8
10500,-1184,568,-1688,-8,60,-7
10505,-1176,544,-1704,-8,61,-7
10510,-1160,544,-1688,-8,63,-6
10515,-1200,576,-1688,-10,64,-6
10520,-1152,552,-1688,-12,65,-5
10525,-1152,552,-1712,-11,65,-5
10530,-1192,568,-1704,-12,64,-5
10535,-1152,560,-1696,-13,62,-5
10540,-1168,560,-1672,-13,61,-3
10545,-1144,560,-1704,-14,61,-4
10550,-1168,576,-1688,-15,59,-4
10555,-1160,544,-1688,-13,60,-6
10560,-1168,560,-1696,-15,57,-5
10565,-1160,576,-1712,-15,58,-5
10570,-1184,560,-1680,-15,59,-4
10575,-1160,568,-1728,-13,58,-4
10580,-1200,560,-1680,-14,58,-5
10585,-1168,568,-1696,-15,58,-4
10590,-1160,552,-1720,-17,58,-3
10595,-1184,584,-1672,-19,58,-4
10600,-1168,584,-1704,-20,57,-3
10605,-1176,584,-1712,-20,57,-1
10610,-1184,568,-1672,-19,56,-1
10615,-1168,552,-1696,-20,57,-1
10620,-1176,576,-1688,-18,56,-2
10625,-1160,552,-1704,-19,57,-1
10630,-1176,568,-1688,-20,57,-2
10635,-1176,568,-1696,-18,58,0
10640,-1184,576,-1680,-17,58,-1
10645,-1176,568,-1696,-19,59,-1
10650,-1160,584,-1696,-17,59,-1
10655,-1168,568,-1696,-17,60,-2
10660,-1176,544,-1688,-18,61,-3
10665,-1168,568,-1720,-16,62,-2
10670,-1168,568,-1688,-15,61,-4
10675,-1160,568,-1680,-13,61,-3
10680,-1176,568,-1672,-15,61,-4
10685,-1152,560,-1696,-15,62,-4
10690,-1160,584,-1672,-13,62,-5
10695,-1176,584,-1696,-12,63,-4
10700,-1152,552,-1728,-11,64,-5
10705,-1184,576,-1680,-9,62,-6
10710,-1176,552,-1672,-9,61,-6
10715,-1168,560,-1696,-9,61,-5
10720,-1176,560,-1696,-11,61,-6
10725,-1168,576,-1688,-11,61,-4
10730,-1176,584,-1696,-12,61,-5
10735,-1160,544,-1696,-11,61,-3
10740,-1168,544,-1680,-11,62,-5
10745,-1168,568,-1704,-12,61,-4
10750,-1160,544,-1696,-12,63,-6
10755,-1152,560,-1688,-11,60,-4
10760,-1176,576,-1696,-10,61,-5
10765,-1176,568,-1704,-9,60,-3
10770,-1152,568,-1664,-10,60,-6
10775,-1176,568,-1688,-9,60,-5
10780,-1160,560,-1672,-10,60,-8
10785,-1152,576,-1672,-8,60,-7
10790,-1152,552,-1672,-7,64,-10
10795,-1160,568,-1688,-5,65,-7
10800,-1160,552,-1704,-5,66,-9
10805,-1160,544,-1656,-4,67,-7
10810,-1168,576,-1664,-4,67,-8
10815,-1152,544,-1672,-3,67,-7
10820,-1152,552,-1680,-3,66,-8
10825,-1184,544,-1720,-1,68,-7
10830,-1192,560,-1688,-1,70,-9
10835,-1176,568,-1704,1,68,-8
10840,-1168,544,-1728,-1,70,-10
10845,-1184,544,-1696,-5,69,-7
10850,-1200,568,-1720,-10,67,-7
10855,-1160,560,-1704,-16,66,-3
10860,-1144,552,-1704,-21,67,-3
10865,-1144,560,-1712,-25,66,0
10870,-1160,560,-1712,-27,67,-1
10875,-1160,560,-1680,-27,67,1
10880,-1168,584,-1696,-27,67,-2
10885,-1152,560,-1704,-28,66,0
10890,-1176,568,-1680,-27,65,-1
10895,-1144,568,-1688,-29,64,1
10900,-1136,592,-1672,-26,64,0
10905,-1168,576,-1664,-27,63,3
10910,-1176,560,-1672,-28,64,1
10915,-1168,576,-1680,-27,67,2
10920,-1168,544,-1672,-26,70,1
10925,-1184,576,-1688,-26,74,2
10930,-1152,584,-1664,-25,76,0
10935,-1160,552,-1648,-24,80,2
10940,-1184,568,-1680,-23,82,-1
10945,-1160,576,-1680,-21,85,0
10950,-1176,536,-1704,-20,88,-3
10955,-1160,576,-1704,-19,88,-2
10960,-1168,560,-1704,-20,90,-5
10965,-1176,568,-1688,-20,89,-1
10970,-1136,544,-1696,-18,90,-3
10975,-1168,560,-1672,-16,88,-4
10980,-1176,560,-1704,-13,89,-6
10985,-1160,576,-1696,-12,88,-4
10990,-1160,568,-1720,-11,86,-8
10995,-1144,568,-1712,-9,85,-5
11000,-1144,552,-1720,-7,82,-8
11005,-1168,568,-1752,-9,78,-5
11010,-1160,568,-1728,-11,75,-7
11015,-1144,536,-1712,-12,71,-4
11020,-1152,576,-1704,-13,67,-6
11025,-1176,568,-1712,-14,66,-3
11030,-1168,584,-1696,-15,66,-8
11035,-1184,552,-1712,-14,66,-5
11040,-1160,568,-1696,-13,66,-8
11045,-1144,568,-1720,-12,67,-6
11050,-1160,560,-1728,-15,68,-8
11055,-1176,576,-1712,-17,68,-4
11060,-1176,576,-1704,-19,67,-6
11065,-1160,576,-1672,-20,65,-4
11070,-1176,544,-1672,-19,64,-5
11075,-1160,560,-1688,-19,64,-2
11080,-1168,552,-1688,-18,63,-5
11085,-1168,552,-1688,-18,63,-4
11090,-1152,560,-1728,-18,63,-5
11095,-1152,560,-1696,-18,66,-3
11100,-1160,552,-1768,-22,66,-5
11105,-1168,568,-1720,-22,67,-1
11110,-1160,576,-1680,-22,65,-3
11115,-1160,560,-1688,-22,66,-1
11120,-1152,544,-1720,-23,67,-2
11125,-1160,576,-1696,-21,66,0
11130,-1160,552,-1696,-23,66,-2
11135,-1168,584,-1696,-23,63,2
11140,-1160,552,-1704,-23,63,-1
11145,-1176,568,-1696,-23,60,1
11150,-1152,560,-1704,-24,59,-1
11155,-1176,576,-1688,-24,56,2
11160,-1168,560,-1712,-24,56,-1
11165,-1152,560,-1720,-23,58,1
11170,-1168,568,-1672,-23,58,-1
11175,-1184,568,-1696,-22,60,0
11180,-1160,568,-1664,-21,60,-3
11185,-1168,584,-1704,-19,62,-1
11190,-1160,568,-1720,-17,65,-3
11195,-1176,576,-1720,-18,64,-1
11200,-1160,568,-1680,-17,65,-4
11205,-1144,568,-1712,-16,65,-1
11210,-1152,552,-1696,-16,66,-5
11215,-1176,592,-1688,-15,66,-3
11220,-1184,568,-1688,-13,67,-5
11225,-1160,584,-1704,-10,67,-5
11230,-1168,552,-1704,-10,66,-6
11235,-1168,576,-1696,-12,67,-3
11240,-1144,552,-1696,-13,67,-7
11245,-1184,560,-1680,-12,68,-4
11250,-1176,568,-1664,-13,68,-6
11255,-1168,544,-1680,-14,67,-6
11260,-1176,568,-1680,-13,68,-7
11265,-1176,576,-1696,-13,67,-6
11270,-1152,560,-1720,-12,67,-7
11275,-1176,560,-1720,-11,66,-6
11280,-1168,544,-1704,-11,66,-7
11285,-1152,552,-1672,-10,66,-5
11290,-1152,568,-1688,-10,66,-7
11295,-1160,560,-1688,-9,65,-6
11300,-1168,552,-1688,-11,64,-8
11305,-1168,552,-1704,-10,61,-6
11310,-1144,544,-1680,-14,61,-8
11315,-1168,560,-1720,-13,60,-6
11320,-1176,576,-1736,-13,61,-7
11325,-1168,544,-1720,-12,60,-6
11330,-1144,576,-1696,-11,59,-6
11335,-1168,560,-1680,-11,57,-7
11340,-1176,592,-1696,-13,56,-7
11345,-1160,544,-1688,-12,56,-6
11350,-1160,560,-1688,-11,56,-7
11355,-1168,560,-1696,-12,57,-6
11360,-1168,568,-1720,-13,56,-7
11365,-1184,576,-1680,-16,57,-3
11370,-1160,568,-1672,-19,56,-3
11375,-1176,560,-1688,-20,55,-3
11380,-1160,568,-1720,-21,55,-2
11385,-1176,560,-1672,-22,55,-2
11390,-1160,560,-1680,-22,58,-3
11395,-1168,568,-1688,-20,58,-2
11400,-1160,552,-1696,-21,60,-4
11405,-1152,568,-1680,-19,60,-2
11410,-1160,568,-1672,-18,62,-3
11415,-1160,568,-1664,-17,62,-1
11420,-1160,576,-1696,-18,60,-2
11425,-1152,576,-1712,-19,62,-2
11430,-1168,592,-1704,-17,62,-2
11435,-1160,560,-1672,-17,62,-3
11440,-1152,552,-1712,-17,63,-4
11445,-1160,568,-1688,-14,64,-5
11450,-1160,568,-1680,-12,66,-6
11455,-1152,528,-1704,-11,68,-5
11460,-1192,584,-1696,-9,70,-6
11465,-1160,576,-1688,-11,71,-5
11470,-1168,552,-1696,-11,69,-4
11475,-1160,576,-1736,-9,69,-3
11480,-1160,584,-1696,-10,66,-2
11485,-1168,600,-1704,-11,67,-4
11490,-1152,600,-1696,-12,67,-3
11495,-1184,576,-1712,-11,67,-4
11500,-1152,560,-1704,-11,68,-5
11505,-1176,568,-1704,-9,67,-6
11510,-1168,560,-1704,-7,68,-7
11515,-1168,568,-1720,-5,69,-6
11520,-1152,552,-1680,-1,70,-7
11525,-1144,584,-1688,-2,69,-7
11530,-1160,568,-1680,-1,67,-8
11535,-1144,560,-1656,-1,66,-8
11540,-1160,552,-1664,-1,64,-10
11545,-1160,576,-1680,-1,63,-9
11550,-1160,568,-1672,-1,65,-9
11555,-1160,560,-1688,0,66,-12
11560,-1160,568,-1704,1,67,-11
11565,-1144,552,-1728,1,69,-11
11570,-1160,568,-1712,1,68,-8
11575,-1152,544,-1680,-3,66,-9
11580,-1144,560,-1664,-4,66,-8
11585,-1152,552,-1664,-7,65,-7
11590,-1168,560,-1704,-6,66,-6
11595,-1152,536,-1736,-2,67,-8
11600,-1072,528,-1752,1,70,-8
11605,-1200,536,-1720,2,72,-9
11610,-1176,568,-1720,1,72,-9
11615,-1184,560,-1736,-2,70,-7
11620,-1152,544,-1704,-7,69,-6
11625,-1184,568,-1704,-12,67,-4
11630,-1160,544,-1728,-18,67,-1
11635,-1176,560,-1728,-24,65,-1
11640,-1152,568,-1720,-24,63,-1
11645,-1168,560,-1696,-26,61,-2
11650,-1152,568,-1704,-26,59,0
11655,-1184,584,-1664,-22,59,-2
11660,-1152,544,-1712,-23,58,0
11665,-1160,568,-1720,-21,58,-1
11670,-1152,560,-1720,-19,56,0
11675,-1160,544,-1720,-19,57,-1
11680,-1160,576,-1712,-21,57,0
11685,-1168,576,-1688,-22,55,-1
11690,-1152,552,-1672,-23,53,2
11695,-1168,584,-1712,-22,52,1
11700,-1144,560,-1680,-21,54,2
11705,-1152,560,-1664,-18,56,0
11710,-1160,560,-1688,-14,56,0
11715,-1160,568,-1672,-12,60,-3
11720,-1152,560,-1680,-12,61,-3
11725,-1144,560,-1664,-9,62,-4
11730,-1160,576,-1712,-7,65,-4
11735,-1160,576,-1704,-7,63,-6
11740,-1176,552,-1688,-4,63,-6
11745,-1144,560,-1712,-4,65,-8
11750,-1168,584,-1728,-4,65,-7
11755,-1152,576,-1680,-3,66,-9
11760,-1176,576,-1688,-2,68,-7
11765,-1168,576,-1696,-3,67,-9
11770,-1176,552,-1680,-2,67,-6
11775,-1176,576,-1712,-4,67,-8
11780,-1160,584,-1688,-5,64,-6
11785,-1160,544,-1712,-8,62,-7
11790,-1152,568,-1696,-8,63,-5
11795,-1168,544,-1680,-9,64,-8
11800,-1160,544,-1712,-8,62,-6
11805,-1168,568,-1688,-7,64,-8
11810,-1168,536,-1696,-5,63,-7
11815,-1144,568,-1712,-5,63,-9
11820,-1168,560,-1688,-7,62,-7
11825,-1160,552,-1712,-7,61,-8
11830,-1136,536,-1696,-7,60,-6
11835,-1160,544,-1680,-8,60,-7
11840,-1160,552,-1712,-9,60,-5
11845,-1144,560,-1696,-10,58,-7
11850,-1144,536,-1736,-11,58,-5
11855,-1160,552,-1704,-12,56,-6
11860,-1176,568,-1696,-14,56,-3
11865,-1184,568,-1704,-14,56,-6
11870,-1160,576,-1712,-14,56,-3
11875,-1152,560,-1704,-16,57,-4
11880,-1144,536,-1720,-17,57,-4
11885,-1152,552,-1664,-15,56,-6
11890,-1152,552,-1664,-16,56,-4
11895,-1152,560,-1704,-16,56,-5
11900,-1160,552,-1672,-16,58,-2
11905,-1168,552,-1696,-18,58,-3
11910,-1144,552,-1680,-20,57,-1
11915,-1184,568,-1712,-21,56,-2
11920,-1136,544,-1696,-22,56,1
11925,-1160,584,-1672,-21,55,-1
11930,-1176,584,-1696,-23,54,2
11935,-1176,560,-1688,-24,56,-1
11940,-1152,568,-1712,-24,59,3
11945,-1152,576,-1680,-23,59,-1
11950,-1168,568,-1728,-23,60,2
11955,-1160,544,-1704,-21,58,-1
11960,-1168,576,-1680,-19,59,1
11965,-1160,560,-1696,-18,59,-2
11970,-1160,552,-1736,-17,59,-1
11975,-1184,584,-1720,-15,58,-4
11980,-1160,592,-1720,-16,58,-1
11985,-1168,552,-1680,-13,58,-5
11990,-1168,560,-1704,-12,59,-2
11995,-1176,568,-1696,-10,61,-4
12000,-1144,552,-1720,-9,62,-2
12005,-1152,544,-1712,-10,62,-6
12010,-1160,560,-1696,-9,62,-4
12015,-1176,568,-1688,-9,63,-6
12020,-1152,568,-1680,-8,65,-5
12025,-1176,560,-1704,-6,66,-7
12030,-1160,544,-1680,-6,65,-5
12035,-1168,544,-1688,-6,64,-8
12040,-1152,568,-1680,-6,66,-6
12045,-1168,552,-1664,-5,67,-9
12050,-1160,568,-1696,-3,67,-6
12055,-1176,552,-1688,-3,70,-10
12060,-1168,560,-1704,-2,69,-7
12065,-1144,552,-1688,-1,73,-10
12070,-1160,544,-1728,1,71,-9
12075,-1176,584,-1696,1,70,-10
12080,-1144,528,-1696,1,71,-8
12085,-1152,568,-1704,1,72,-11
12090,-1176,568,-1688,0,74,-7
12095,-1160,520,-1680,-1,74,-10
12100,-1152,544,-1688,-2,75,-7
12105,-1184,568,-1696,-4,74,-9
12110,-1168,576,-1728,-6,74,-6
12115,-1160,568,-1760,-7,73,-8
12120,-1152,544,-1712,-10,72,-5
12125,-1160,552,-1728,-13,69,-6
12130,-1152,552,-1704,-14,67,-2
12135,-1144,568,-1696,-16,65,-4
12140,-1152,560,-1712,-20,63,1
12145,-1176,544,-1696,-21,62,-2
12150,-1152,552,-1696,-23,60,0
12155,-1176,544,-1680,-23,60,-3
12160,-1168,560,-1704,-22,60,-1
12165,-1160,544,-1720,-20,60,-4
12170,-1152,568,-1728,-20,61,-1
12175,-1152,544,-1704,-20,62,-3
12180,-1176,560,-1720,-20,63,-1
12185,-1160,536,-1664,-22,62,-2
12190,-1160,560,-1680,-25,62,1
12195,-1160,528,-1688,-27,60,0
12200,-1144,544,-1720,-27,58,3
12205,-1168,584,-1736,-27,58,1
12210,-1152,560,-1712,-26,55,3
12215,-1152,560,-1680,-26,56,1
12220,-1168,584,-1720,-24,57,3
12225,-1152,560,-1704,-22,58,1
12230,-1152,568,-1720,-21,58,1
12235,-1192,600,-1712,-21,58,1
12240,-1136,552,-1704,-22,57,1
12245,-1160,568,-1712,-21,57,-2
12250,-1176,560,-1688,-20,57,-1
12255,-1168,568,-1712,-19,57,-4
12260,-1160,592,-1696,-15,58,-5
12265,-1152,544,-1688,-14,60,-7
12270,-1152,520,-1656,-10,62,-6
12275,-1152,560,-1680,-10,61,-8
12280,-1152,560,-1664,-11,64,-6
12285,-1144,544,-1688,-12,62,-6
12290,-1160,544,-1664,-11,61,-4
12295,-1184,560,-1648,-11,62,-6
12300,-1152,536,-1680,-5,65,-4
12305,-1168,544,-1672,-1,70,-7
12310,-1176,568,-1704,0,73,-7
12315,-1160,584,-1728,1,76,-9
12320,-1152,552,-1736,1,76,-8
12325,-1168,552,-1712,-1,74,-9
12330,-1144,544,-1688,-3,74,-8
12335,-1160,576,-1712,-5,75,-8
12340,-1168,536,-1736,-9,76,-6
12345,-1176,536,-1712,-10,75,-5
12350,-1176,552,-1704,-14,74,-3
12355,-1152,560,-1704,-15,74,-5
12360,-1144,544,-1696,-15,74,-3
12365,-1168,568,-1712,-14,73,-3
12370,-1160,584,-1704,-13,74,-2
12375,-1168,560,-1712,-11,72,-4
12380,-1176,568,-1696,-10,73,-3
12385,-1160,560,-1704,-8,72,-2
12390,-1160,560,-1680,-7,70,-4
12395,-1152,552,-1704,-7,70,-3
12400,-1168,568,-1704,-7,69,-4
12405,-1152,560,-1720,-9,69,-4
12410,-1152,544,-1704,-12,68,-2
12415,-1184,568,-1704,-14,67,-2
12420,-1152,552,-1712,-18,68,0
12425,-1136,544,-1712,-17,67,-2
12430,-1152,560,-1688,-19,64,0
12435,-1160,560,-1712,-19,60,-1
12440,-1144,568,-1688,-21,59,-2
12445,-1160,568,-1704,-20,57,-2
12450,-1160,568,-1680,-21,57,-3
12455,-1160,552,-1696,-19,58,-4
12460,-1160,544,-1696,-20,59,-4
12465,-1144,536,-1704,-19,62,-4
12470,-1176,560,-1704,-18,61,-5
12475,-1184,568,-1704,-18,62,-4
12480,-1160,560,-1696,-19,63,-4
12485,-1168,576,-1688,-20,61,-4
12490,-1192,576,-1720,-19,61,-3
12495,-1160,536,-1704,-21,60,-3
12500,-1160,568,-1680,-22,61,-5
12505,-1168,560,-1704,-22,61,-3
12510,-1184,576,-1736,-22,61,-4
12515,-1160,568,-1696,-21,62,-5
12520,-1152,568,-1712,-21,62,-4
12525,-1160,560,-1712,-19,62,-4
12530,-1152,536,-1680,-17,62,-5
12535,-1184,568,-1704,-16,62,-5
12540,-1152,552,-1680,-15,62,-6
12545,-1168,560,-1672,-16,62,-4
12550,-1144,560,-1680,-18,62,-3
12555,-1168,560,-1680,-19,62,-2
12560,-1136,560,-1704,-18,62,-2
12565,-1152,552,-1704,-18,63,-4
12570,-1160,552,-1688,-18,65,-5
12575,-1144,552,-1680,-17,66,-5
12580,-1160,560,-1712,-16,68,-6
12585,-1168,560,-1672,-14,69,-6
12590,-1176,568,-1688,-13,71,-8
12595,-1136,536,-1656,-10,73,-8
12600,-1144,560,-1672,-6,73,-9
12605,-1160,576,-1712,-5,74,-8
12610,-1168,592,-1720,-5,74,-10
12615,-1168,544,-1736,-7,72,-9
12620,-1168,568,-1728,-9,71,-7
12625,-1176,568,-1736,-13,68,-6
12630,-1168,568,-1688,-14,66,-5
12635,-1168,560,-1680,-15,66,-5
12640,-1160,544,-1720,-16,65,-5
12645,-1152,560,-1720,-19,66,-3
12650,-1144,576,-1712,-19,66,-4
12655,-1176,552,-1696,-20,66,-3
12660,-1160,552,-1680,-19,66,-3
12665,-1160,544,-1688,-19,65,-3
12670,-1144,552,-1704,-18,66,-5
12675,-1152,544,-1696,-15,67,-5
12680,-1168,568,-1680,-14,69,-6
12685,-1152,568,-1696,-14,69,-5
12690,-1152,560,-1720,-13,68,-7
12695,-1168,584,-1712,-12,68,-7
12700,-1168,560,-1712,-14,68,-9
12705,-1168,568,-1704,-13,69,-6
12710,-1160,544,-1696,-15,69,-8
12715,-1144,576,-1696,-15,68,-6
12720,-1168,560,-1720,-14,69,-7
12725,-1160,560,-1704,-14,69,-7
12730,-1160,560,-1720,-14,69,-8
12735,-1160,544,-1696,-14,71,-6
12740,-1152,552,-1688,-14,71,-9
12745,-1160,576,-1704,-14,69,-6
12750,-1152,560,-1696,-14,68,-7
12755,-1144,544,-1744,-16,66,-5
12760,-1176,568,-1704,-16,64,-5
12765,-1152,552,-1688,-18,62,-3
12770,-1168,576,-1696,-19,59,-5
12775,-1176,584,-1728,-19,59,-3
12780,-1168,568,-1688,-18,59,-5
12785,-1160,568,-1720,-17,59,-2
12790,-1176,568,-1696,-16,61,-6
12795,-1160,568,-1680,-15,63,-3
12800,-1168,552,-1704,-13,63,-7
12805,-1160,552,-1704,-14,66,-5
12810,-1184,560,-1704,-13,65,-7
12815,-1152,560,-1688,-14,65,-4
12820,-1160,560,-1720,-16,64,-5
12825,-1160,568,-1672,-17,62,-4
12830,-1144,568,-1704,-17,61,-6
12835,-1160,552,-1672,-20,61,-2
12840,-1184,568,-1720,-20,61,-3
12845,-1136,552,-1712,-18,61,-1
12850,-1128,528,-1720,-18,61,-4
12855,-1144,560,-1712,-16,61,-2
12860,-1168,560,-1696,-17,60,-4
12865,-1168,560,-1704,-16,62,-2
12870,-1160,584,-1720,-15,60,-5
12875,-1144,560,-1696,-15,61,-2
12880,-1160,576,-1688,-14,62,-5
12885,-1160,568,-1744,-12,62,-4
12890,-1160,576,-1688,-14,61,-7
12895,-1160,560,-1704,-11,60,-5
12900,-1152,552,-1720,-11,60,-7
12905,-1152,536,-1712,-12,57,-4
12910,-1160,544,-1720,-14,55,-6
12915,-1176,576,-1712,-17,54,-2
12920,-1136,552,-1712,-20,51,-3
12925,-1160,560,-1720,-20,50,-1
12930,-1160,552,-1696,-21,50,-3
12935,-1160,560,-1696,-21,50,-2
12940,-1160,568,-1720,-20,50,-4
12945,-1168,552,-1728,-20,51,-3
12950,-1136,576,-1712,-18,50,-5
12955,-1160,552,-1696,-17,48,-3
12960,-1152,552,-1704,-19,44,-6
12965,-1184,656,-1752,-17,41,-4
12970,-1152,576,-1664,-17,38,-7
12975,-1160,568,-1712,-16,35,-5
12980,-1144,544,-1712,-16,34,-8
12985,-1160,560,-1704,-16,35,-8
12990,-1160,576,-1696,-15,38,-10
12995,-1168,544,-1680,-13,41,-9
13000,-1152,560,-1664,-8,44,-12
13005,-1144,552,-1688,-4,47,-10
13010,-1160,560,-1696,-2,52,-13
13015,-1152,560,-1704,-1,53,-10
13020,-1160,528,-1680,-2,54,-12
13025,-1144,544,-1664,-3,56,-8
13030,-1136,568,-1672,-4,56,-10
13035,-1144,544,-1664,-1,62,-8
13040,-1168,568,-1696,1,66,-10
13045,-1152,560,-1688,3,71,-11
13050,-1168,552,-1696,5,77,-12
13055,-1152,552,-1696,3,82,-11
13060,-1160,568,-1704,1,83,-14
13065,-1176,544,-1712,-3,87,-10
13070,-1160,544,-1720,-5,87,-11
13075,-1168,544,-1704,-8,89,-8
13080,-1160,560,-1728,-10,87,-10
13085,-1176,568,-1744,-12,83,-6
13090,-1176,552,-1728,-15,78,-5
13095,-1176,544,-1720,-20,70,-1
13100,-1152,544,-1720,-22,66,-1
13105,-1176,576,-1720,-23,61,1
13110,-1176,560,-1696,-23,59,1
13115,-1168,568,-1728,-23,55,1
13120,-1160,568,-1664,-20,54,0
13125,-1152,544,-1688,-20,54,2
13130,-1152,560,-1720,-19,53,0
13135,-1136,560,-1704,-19,53,2
13140,-1152,568,-1712,-18,56,-2
13145,-1168,568,-1664,-16,57,0
13150,-1176,568,-1704,-16,60,-3
13155,-1152,552,-1696,-14,60,-1
13160,-1160,544,-1672,-14,60,-4
13165,-1168,560,-1704,-12,59,-3
13170,-1152,560,-1680,-11,59,-5
13175,-1160,584,-1696,-10,59,-5
13180,-1168,560,-1712,-11,60,-5
13185,-1152,552,-1720,-11,61,-6
13190,-1160,560,-1712,-10,59,-6
13195,-1152,544,-1728,-12,55,-6
13200,-1136,560,-1728,-14,52,-6
13205,-1176,536,-1720,-18,50,-3
13210,-1152,560,-1720,-19,49,-6
13215,-1152,536,-1736,-20,47,-3
13220,-1160,568,-1688,-19,45,-5
13225,-1184,576,-1712,-21,45,-3
13230,-1176,552,-1688,-20,44,-5
13235,-1152,568,-1712,-19,45,-3
13240,-1152,544,-1712,-22,44,-6
13245,-1152,552,-1704,-22,43,-5
13250,-1160,560,-1672,-21,42,-6
13255,-1168,560,-1696,-19,42,-4
13260,-1168,536,-1712,-20,42,-6
13265,-1168,560,-1680,-20,41,-4
13270,-1152,552,-1704,-23,43,-5
13275,-1176,584,-1696,-24,44,-2
13280,-1152,552,-1680,-24,45,-2
13285,-1168,560,-1728,-24,46,-2
13290,-1152,536,-1712,-28,46,-3
13295,-1168,552,-1680,-29,48,-1
13300,-1184,576,-1680,-30,50,-1
13305,-1168,560,-1712,-29,53,0
13310,-1176,576,-1720,-27,57,-2
13315,-1168,552,-1672,-24,61,-1
13320,-1152,536,-1672,-23,62,-3
13325,-1184,552,-1728,-22,62,-2
13330,-1152,552,-1736,-24,61,-2
13335,-1168,544,-1704,-28,62,0
13340,-1176,544,-1704,-29,64,0
13345,-1176,536,-1680,-27,64,2
13350,-1160,560,-1696,-27,66,1
13355,-1136,560,-1680,-25,69,2
13360,-1184,568,-1696,-24,68,2
13365,-1168,592,-1688,-22,68,2
13370,-1152,536,-1688,-23,67,1
13375,-1144,560,-1688,-22,64,3
13380,-1160,568,-1704,-21,62,0
13385,-1176,584,-1680,-19,62,0
13390,-1184,560,-1680,-17,59,0
13395,-1136,544,-1664,-14,58,-1
13400,-1176,576,-1696,-13,60,-3
13405,-1184,552,-1672,-10,62,-2
13410,-1168,568,-1672,-11,64,-4
13415,-1160,560,-1704,-11,65,-2
13420,-1152,584,-1696,-12,64,-2
13425,-1184,576,-1688,-14,63,-2
13430,-1168,576,-1704,-15,61,-4
13435,-1136,544,-1728,-15,60,-4
13440,-1128,568,-1688,-16,59,-4
13445,-1176,584,-1696,-16,58,-4
13450,-1160,568,-1696,-14,58,-4
13455,-1160,568,-1704,-17,57,-4
13460,-1168,584,-1696,-15,56,-4
13465,-1152,560,-1712,-16,55,-4
13470,-1160,568,-1672,-15,56,-4
13475,-1168,584,-1712,-14,57,-6
13480,-1160,552,-1704,-12,59,-6
13485,-1152,560,-1672,-11,60,-7
13490,-1176,552,-1664,-11,59,-9
13495,-1176,584,-1696,-11,57,-8
13500,-1144,552,-1712,-10,57,-9
13505,-1160,552,-1704,-8,57,-10
13510,-1160,560,-1704,-7,57,-9
13515,-1168,552,-1704,-6,60,-11
13520,-1160,576,-1688,-7,62,-10
13525,-1192,568,-1696,-6,61,-11
13530,-1184,560,-1696,-9,63,-10
13535,-1160,568,-1688,-11,64,-9
13540,-1168,576,-1696,-10,65,-7
13545,-1168,568,-1688,-10,66,-8
13550,-1152,568,-1688,-9,68,-8
13555,-1168,552,-1736,-8,69,-8
13560,-1152,576,-1688,-6,71,-8
13565,-1152,560,-1712,-7,72,-11
13570,-1184,536,-1720,-8,72,-9
13575,-1152,576,-1680,-8,69,-10
13580,-1160,560,-1704,-8,68,-10
13585,-1160,576,-1664,-8,65,-10
13590,-1184,568,-1680,-7,64,-9
13595,-1152,536,-1680,-7,65,-9
13600,-1144,536,-1680,-6,66,-8
13605,-1160,552,-1656,-8,66,-9
13610,-1168,552,-1712,-10,66,-7
13615,-1168,552,-1720,-12,67,-8
13620,-1160,568,-1672,-13,66,-5
13625,-1168,560,-1696,-14,65,-6
13630,-1176,568,-1680,-14,66,-6
13635,-1160,560,-1720,-14,67,-7
13640,-1176,560,-1728,-13,67,-7
13645,-1160,560,-1704,-12,68,-8
13650,-1160,592,-1728,-12,67,-7
13655,-1176,584,-1728,-13,67,-7
13660,-1168,576,-1688,-13,65,-5
13665,-1136,544,-1672,-14,61,-6
13670,-1176,576,-1696,-15,62,-5
13675,-1168,552,-1680,-15,61,-5
13680,-1152,552,-1712,-14,62,-5
13685,-1160,552,-1680,-13,63,-6
13690,-1160,544,-1688,-10,62,-6
13695,-1152,560,-1688,-9,63,-7
13700,-1152,544,-1680,-8,61,-5
13705,-1144,552,-1696,-8,61,-6
13710,-1136,536,-1680,-8,63,-4
13715,-1176,568,-1672,-9,61,-6
13720,-1160,568,-1640,-10,61,-4
13725,-1176,568,-1712,-5,64,-5
13730,-1176,568,-1736,-3,66,-6
13735,-1184,552,-1744,-3,72,-7
13740,-1168,552,-1720,-2,71,-5
13745,-1168,584,-1728,-4,71,-7
13750,-1176,552,-1720,-8,72,-5
13755,-1168,544,-1736,-10,72,-6
13760,-1184,576,-1688,-11,74,-4
13765,-1160,552,-1688,-11,72,-6
13770,-1168,544,-1736,-13,72,-4
13775,-1160,584,-1736,-15,69,-5
13780,-1168,568,-1704,-16,66,-1
13785,-1160,544,-1720,-15,63,-3
13790,-1152,544,-1688,-15,60,-1
13795,-1144,552,-1680,-14,63,-4
13800,-1176,560,-1664,-14,63,-1
13805,-1152,544,-1696,-13,66,-4
13810,-1160,552,-1696,-12,67,-2
13815,-1160,560,-1672,-11,69,-5
13820,-1176,576,-1688,-9,71,-2
13825,-1144,552,-1664,-7,73,-4
13830,-1160,560,-1688,-6,74,-3
13835,-1152,576,-1656,0,76,-6
13840,-1136,552,-1712,3,77,-5
13845,-1136,552,-1680,5,78,-8
13850,-1160,560,-1712,5,78,-7
13855,-1176,568,-1712,6,78,-10
13860,-1160,568,-1712,6,79,-8
13865,-1144,560,-1720,6,77,-9
13870,-1168,576,-1704,9,77,-8
13875,-1176,544,-1720,10,76,-11
13880,-1176,544,-1712,10,77,-9
13885,-1168,568,-1704,8,77,-12
13890,-1168,560,-1696,6,74,-9
13895,-1160,544,-1720,4,72,-11
13900,-1160,576,-1720,4,69,-9
13905,-1144,544,-1736,2,68,-10
13910,-1152,536,-1688,0,65,-7
13915,-1144,544,-1688,-2,66,-8
13920,-1152,552,-1720,-4,65,-4
13925,-1152,560,-1712,-5,64,-8
13930,-1144,536,-1704,-7,64,-5
13935,-1128,544,-1704,-8,65,-7
13940,-1176,568,-1704,-8,63,-4
13945,-1152,560,-1712,-8,62,-7
13950,-1144,544,-1688,-6,60,-5
13955,-1152,560,-1696,-7,60,-7
13960,-1152,560,-1680,-7,61,-4
13965,-1160,568,-1704,-7,62,-7
13970,-1144,544,-1688,-8,62,-5
13975,-1168,560,-1688,-8,62,-8
13980,-1168,536,-1672,-8,62,-5
13985,-1152,560,-1664,-10,62,-5
13990,-1160,536,-1696,-12,64,-3
13995,-1160,560,-1696,-12,66,-5
14000,-1144,552,-1680,-13,69,-2
14005,-1144,536,-1680,-12,71,-5
14010,-1152,536,-1688,-10,72,-4
14015,-1160,544,-1688,-8,72,-7
14020,-1168,568,-1720,-5,73,-3
14025,-1160,544,-1712,-5,72,-6
14030,-1168,552,-1712,-8,70,-4
14035,-1160,544,-1696,-10,69,-6
14040,-1168,568,-1720,-12,67,-2
14045,-1160,528,-1744,-14,65,-5
14050,-1136,544,-1704,-13,64,-3
14055,-1192,560,-1680,-15,61,-5
14060,-1168,576,-1672,-14,60,-3
14065,-1160,560,-1680,-14,61,-4
14070,-1144,520,-1696,-13,62,-3
14075,-1160,552,-1728,-13,62,-7
14080,-1168,576,-1704,-12,63,-4
14085,-1176,552,-1704,-12,63,-6
14090,-1168,528,-1680,-13,64,-4
14095,-1168,552,-1696,-11,64,-5
14100,-1152,544,-1696,-10,64,-3
14105,-1128,528,-1704,-12,65,-5
14110,-1152,544,-1704,-10,65,-4
14115,-1152,536,-1704,-9,64,-6
14120,-1176,544,-1680,-10,63,-3
14125,-1144,520,-1704,-11,62,-7
14130,-1136,552,-1704,-10,61,-4
14135,-1176,544,-1720,-8,60,-7
14140,-1160,544,-1712,-7,60,-5
14145,-1160,560,-1688,-6,62,-8
14150,-1152,536,-1680,-6,61,-6
14155,-1160,552,-1704,-6,59,-7
14160,-1144,568,-1736,-6,59,-6
14165,-1160,552,-1672,-5,60,-8
14170,-1144,552,-1672,-5,60,-7
14175,-1168,552,-1720,-3,61,-9
14180,-1160,560,-1696,-3,62,-6
14185,-1160,544,-1704,-4,61,-8
14190,-1168,528,-1728,-6,59,-6
14195,-1160,552,-1712,-6,59,-7
14200,-1152,528,-1688,-6,60,-7
14205,-1136,536,-1696,-6,59,-8
14210,-1144,568,-1728,-6,60,-7
14215,-1144,552,-1688,-6,61,-9
14220,-1160,528,-1680,-6,60,-7
14225,-1184,552,-1696,-6,59,-9
14230,-1168,552,-1696,-7,59,-4
14235,-1160,544,-1688,-9,59,-8
14240,-1152,544,-1720,-8,58,-6
14245,-1168,552,-1712,-8,58,-7
14250,-1176,552,-1688,-8,58,-7
14255,-1144,544,-1728,-9,59,-7
14260,-1152,520,-1664,-8,60,-7
14265,-1160,544,-1696,-10,59,-7
14270,-1160,544,-1712,-12,58,-5
14275,-1160,552,-1696,-12,58,-6
14280,-1176,560,-1704,-12,58,-5
14285,-1152,568,-1728,-11,58,-6
14290,-1160,544,-1712,-11,58,-5
14295,-1184,568,-1696,-11,59,-5
14300,-1160,552,-1704,-11,60,-4
14305,-1144,544,-1744,-11,60,-5
14310,-1168,544,-1736,-11,61,-4
14315,-1168,544,-1688,-12,60,-5
14320,-1160,528,-1704,-13,61,-5
14325,-1160,552,-1720,-13,59,-5
14330,-1168,552,-1688,-14,58,-4
14335,-1176,568,-1704,-16,58,-4
14340,-1160,552,-1680,-16,57,-3
14345,-1176,568,-1688,-15,56,-4
14350,-1152,544,-1688,-15,55,-2
14355,-1152,552,-1680,-14,53,-3
14360,-1168,552,-1704,-16,51,-2
14365,-1176,552,-1680,-13,51,-1
14370,-1144,552,-1672,-12,50,-2
14375,-1168,552,-1704,-11,53,-5
14380,-1168,528,-1656,-10,56,-6
14385,-1160,560,-1656,-7,61,-8
14390,-1160,544,-1664,-5,64,-8
14395,-1152,536,-1688,-3,66,-10
14400,-1160,544,-1696,-3,70,-9
14405,-1152,552,-1696,-4,69,-9
14410,-1176,528,-1688,-2,67,-9
14415,-1152,544,-1688,1,65,-9
14420,-1144,536,-1720,5,65,-11
14425,-1168,536,-1720,7,65,-10
14430,-1176,552,-1736,6,63,-9
14435,-1168,544,-1736,5,64,-9
14440,-1176,536,-1736,1,61,-6
14445,-1160,544,-1720,-6,60,-4
14450,-1176,520,-1688,-11,58,-2
14455,-1176,560,-1704,-17,57,1
14460,-1152,544,-1736,-20,56,1
14465,-1168,520,-1696,-24,54,2
14470,-1168,536,-1704,-25,52,2
14475,-1168,568,-1720,-22,51,2
14480,-1168,544,-1680,-21,47,1
14485,-1168,560,-1728,-18,44,0
14490,-1160,544,-1736,-15,44,0
14495,-1160,544,-1696,-12,43,-1
14500,-1168,568,-1696,-9,43,-2
14505,-1152,536,-1704,-8,43,-2
14510,-1184,568,-1688,-7,43,-4
14515,-1160,528,-1672,-7,43,-3
14520,-1168,560,-1696,-9,44,-3
14525,-1176,528,-1712,-12,43,0
14530,-1152,552,-1712,-12,41,0
14535,-1176,552,-1728,-13,44,0
14540,-1152,552,-1648,-13,44,-3
14545,-1168,560,-1704,-11,45,-2
14550,-1152,552,-1680,-11,46,-3
14555,-1168,552,-1648,-9,49,-4
14560,-1176,560,-1648,-11,51,-4
14565,-1152,544,-1688,-10,52,-3
14570,-1184,552,-1672,-7,53,-6
14575,-1168,536,-1688,-7,55,-5
14580,-1152,544,-1704,-7,56,-7
14585,-1160,536,-1712,-6,58,-7
14590,-1176,552,-1720,-5,58,-9
14595,-1168,552,-1704,-3,56,-8
14600,-1168,552,-1696,-1,58,-10
14605,-1176,544,-1688,-3,57,-8
14610,-1168,544,-1688,-2,54,-8
14615,-1168,552,-1704,-3,53,-7
14620,-1160,560,-1688,-2,53,-6
14625,-1160,560,-1696,-3,55,-6
14630,-1184,552,-1664,-3,56,-8
14635,-1152,536,-1688,-1,59,-8
14640,-1168,536,-1704,-1,57,-9
14645,-1168,528,-1720,-3,56,-7
14650,-1176,536,-1680,-3,58,-8
14655,-1152,520,-1696,-1,61,-5
14660,-1152,544,-1656,-3,61,-6
14665,-1152,528,-1704,-4,55,-3
14670,-1152,552,-1712,-7,51,-4
14675,-1168,536,-1712,-8,50,-2
14680,-1160,520,-1712,-8,48,-4
14685,-1160,536,-1704,-9,46,1
14690,-1192,536,-1696,-10,49,0
14695,-1168,544,-1688,-11,49,1
14700,-1192,544,-1728,-13,51,-1
14705,-1168,520,-1696,-13,53,1
14710,-1184,544,-1712,-14,56,-1
14715,-1160,528,-1656,-15,57,0
14720,-1152,568,-1704,-18,56,0
14725,-1184,544,-1688,-21,56,2
14730,-1168,560,-1688,-23,56,0
14735,-1160,560,-1696,-23,56,3
14740,-1184,544,-1704,-25,54,3
14745,-1184,560,-1696,-26,53,4
14750,-1184,544,-1704,-27,53,3
14755,-1160,544,-1696,-26,50,4
14760,-1184,560,-1696,-25,52,2
14765,-1192,544,-1704,-24,52,3
14770,-1152,528,-1712,-24,52,-1
14775,-1192,552,-1696,-23,53,3
14780,-1184,544,-1680,-21,55,0
14785,-1168,544,-1696,-22,55,0
14790,-1168,576,-1696,-19,54,-3
14795,-1192,560,-1712,-19,57,-1
14800,-1160,544,-1720,-17,55,-2
14805,-1160,536,-1728,-16,57,-2
14810,-1168,544,-1672,-13,56,-5
14815,-1168,520,-1688,-12,56,-4
14820,-1192,544,-1696,-13,56,-5
14825,-1176,552,-1712,-14,57,-4
14830,-1168,536,-1696,-14,58,-7
14835,-1184,544,-1704,-12,59,-3
14840,-1160,544,-1696,-12,57,-7
14845,-1168,576,-1712,-11,57,-5
14850,-1144,576,-1696,-10,55,-7
14855,-1184,544,-1688,-10,53,-5
14860,-1168,536,-1680,-10,52,-8
14865,-1168,544,-1712,-11,54,-6
14870,-1176,536,-1688,-11,55,-8
14875,-1160,568,-1712,-11,55,-5
14880,-1160,536,-1688,-11,56,-7
14885,-1184,552,-1712,-12,57,-4
14890,-1160,544,-1688,-12,58,-7
14895,-1160,568,-1656,-12,60,-5
14900,-1176,584,-1672,-13,61,-8
14905,-1168,552,-1704,-12,60,-6
14910,-1168,544,-1656,-12,62,-8
14915,-1168,536,-1696,-11,63,-6
14920,-1160,576,-1680,-12,62,-8
14925,-1152,528,-1688,-11,63,-7
14930,-1168,552,-1688,-12,62,-10
14935,-1168,568,-1712,-12,62,-7
14940,-1176,544,-1704,-12,60,-11
14945,-1168,544,-1704,-10,58,-9
14950,-1168,552,-1720,-9,57,-10
14955,-1168,536,-1736,-10,55,-8
14960,-1184,544,-1704,-14,51,-10
14965,-1168,536,-1664,-12,47,-7
14970,-1176,536,-1688,-16,44,-7
14975,-1192,552,-1728,-20,42,-3
14980,-1176,552,-1712,-23,39,-5
14985,-1160,536,-1712,-25,37,-1
14990,-1168,528,-1728,-24,34,-3
14995,-1152,568,-1688,-24,29,1
