timestamp,accel_x,accel_y,accel_z,gyro_x,gyro_y,gyro_z
0,64,-1992,-232,53,39,-23
5,88,-1976,-208,57,38,-21
10,56,-1976,-216,59,37,-23
15,80,-1944,-208,58,39,-22
20,80,-1944,-208,59,39,-22
25,128,-1976,-248,59,38,-20
30,96,-1960,-192,60,38,-18
35,96,-1944,-224,60,37,-15
40,104,-1968,-184,60,37,-15
45,80,-1952,-224,61,36,-11
50,104,-1984,-200,61,33,-11
55,104,-1976,-240,61,31,-9
60,80,-1968,-208,60,29,-7
65,88,-1992,-184,59,27,-5
70,96,-1992,-200,57,27,-4
75,72,-1992,-240,57,27,-1
80,8,-1992,-192,57,24,-1
85,80,-1976,-232,55,24,-2
90,72,-1976,-176,53,22,0
95,104,-1968,-200,52,22,0
100,88,-1960,-224,52,20,-1
105,112,-1976,-216,52,18,-1
110,88,-1968,-216,51,16,-1
115,112,-1984,-192,52,12,-1
120,48,-1952,-216,51,12,-1
125,88,-1976,-192,53,11,1
130,72,-1928,-200,53,11,1
135,120,-1960,-216,51,12,2
140,104,-1944,-216,48,16,2
145,80,-1960,-208,43,17,2
150,112,-1936,-192,39,19,1
155,120,-1952,-264,35,21,1
160,104,-1920,-232,33,24,2
165,120,-1944,-192,29,24,4
170,96,-1952,-184,26,25,4
175,104,-1960,-232,22,27,5
180,112,-1976,-184,20,27,5
185,104,-1960,-208,19,26,3
190,72,-2008,-184,18,24,1
195,120,-2008,-160,18,23,-1
200,104,-2000,-144,17,22,1
205,80,-1984,-176,17,22,0
210,112,-2016,-184,18,22,0
215,56,-1992,-152,17,22,-2
220,104,-2016,-192,15,23,-3
225,88,-1976,-200,15,25,-6
230,80,-1968,-144,15,30,-7
235,96,-1976,-216,16,34,-9
240,80,-1976,-184,17,37,-7
245,96,-1952,-160,14,43,-7
250,80,-1944,-192,12,47,-7
255,96,-1944,-160,9,49,-6
260,104,-1944,-168,4,51,-5
265,96,-1920,-160,0,51,-5
270,104,-1920,-200,-5,53,-3
275,120,-1944,-192,-11,52,-2
280,112,-1928,-192,-18,52,-3
285,128,-1928,-184,-25,51,-3
290,136,-1912,-168,-30,50,-3
295,120,-1904,-160,-36,51,-1
300,144,-1920,-128,-39,51,-2
305,120,-1912,-160,-41,50,0
310,128,-1896,-136,-42,48,-2
315,136,-1920,-160,-45,45,-1
320,112,-1936,-136,-46,43,2
325,120,-1944,-152,-48,40,5
330,96,-1944,-152,-48,37,9
335,152,-1944,-112,-46,35,11
340,120,-1952,-144,-42,34,14
345,176,-1928,-104,-38,36,17
350,96,-1960,-96,-33,40,24
355,112,-1976,-136,-32,43,30
360,144,-1976,-128,-32,48,34
365,104,-2000,-144,-36,53,37
370,120,-1976,-112,-41,58,43
375,152,-1976,-128,-46,60,45
380,144,-1952,-112,-52,63,46
385,152,-1936,-88,-58,62,45
390,184,-1888,-88,-64,62,43
395,224,-1912,-88,-71,63,40
400,200,-1872,-136,-74,69,35
405,208,-1888,-72,-76,77,29
410,168,-1888,-104,-79,87,26
415,184,-1896,-112,-86,93,26
420,136,-1888,-64,-95,102,26
425,96,-1944,-104,-106,103,32
430,48,-1960,-168,-116,100,51
435,-168,-2000,-168,-143,100,75
440,-16,-2080,-184,-191,85,102
445,16,-1992,-152,-241,64,101
450,40,-1976,-160,-272,33,91
455,16,-1992,-168,-273,-12,80
460,72,-1976,-160,-248,-39,75
465,88,-1984,-160,-218,-64,72
470,88,-1976,-168,-193,-87,69
475,56,-2000,-216,-152,-115,71
480,64,-2032,-200,-120,-144,79
485,24,-2008,-168,-111,-160,86
490,40,-2104,-152,-128,-150,102
495,32,-2128,-120,-171,-118,135
500,112,-2096,-96,-227,-75,173
505,128,-1992,-128,-290,-56,170
510,176,-1760,-136,-321,-92,126
515,152,-1816,-208,-303,-128,111
520,128,-1800,-224,-281,-149,104
525,48,-1760,-232,-263,-167,93
530,232,-1728,-208,-260,-188,77
535,208,-1752,-152,-229,-176,65
540,128,-1760,-144,-211,-165,60
545,192,-1760,-96,-225,-160,56
550,112,-1808,-168,-231,-148,52
555,144,-1840,-200,-240,-149,49
560,128,-1936,-152,-248,-138,54
565,168,-1936,-144,-254,-130,61
570,192,-1960,-176,-258,-128,68
575,288,-1992,-152,-260,-127,74
580,88,-1960,-168,-249,-115,68
585,200,-2048,-160,-246,-107,86
590,208,-1992,-184,-256,-109,91
595,416,-1928,-112,-265,-95,92
600,184,-1968,-120,-277,-40,87
605,328,-1944,-152,-289,-42,98
610,384,-1896,-104,-293,4,83
615,208,-1928,-112,-296,54,65
620,232,-1872,-208,-308,61,64
625,128,-1864,-192,-309,55,63
630,-200,-1864,-288,-297,20,66
635,16,-2008,-320,-259,-73,90
640,136,-1936,-408,-179,-145,110
645,312,-1880,-256,-135,-145,115
650,384,-1856,-176,-157,-49,97
655,376,-1896,-128,-219,57,66
660,352,-1896,-200,-282,99,49
665,416,-1896,-248,-318,110,28
670,464,-1888,-200,-326,95,2
675,408,-1880,-312,-336,70,-19
680,328,-1816,-352,-360,16,-45
685,216,-1768,-416,-399,-58,-71
690,96,-1672,-544,-442,-139,-96
695,-32,-1576,-600,-482,-212,-124
700,-224,-1488,-720,-509,-272,-147
705,-408,-1392,-768,-518,-332,-172
710,-584,-1264,-848,-507,-403,-199
715,-776,-1128,-880,-479,-487,-231
720,-840,-1088,-912,-436,-569,-263
725,-832,-944,-864,-377,-644,-307
730,-888,-936,-792,-306,-719,-365
735,-792,-808,-720,-234,-798,-431
740,-648,-736,-624,-181,-878,-503
745,-512,-680,-568,-154,-956,-581
750,-304,-648,-480,-167,-1029,-667
755,-152,-640,-400,-218,-1082,-757
760,-48,-712,-376,-302,-1113,-848
765,72,-824,-296,-410,-1125,-933
770,128,-912,-216,-524,-1113,-979
775,272,-1088,-168,-626,-1083,-1015
780,272,-1400,-128,-687,-1036,-1072
785,256,-1576,-104,-714,-984,-1170
790,272,-1664,-80,-740,-904,-1206
795,256,-1808,40,-749,-804,-1165
800,224,-1968,192,-699,-705,-1099
805,216,-2032,152,-580,-608,-1024
810,176,-2280,128,-484,-504,-940
815,336,-2456,184,-458,-389,-829
820,488,-2608,240,-406,-237,-704
825,568,-2792,296,-307,-86,-573
830,680,-2880,344,-211,24,-451
835,864,-2944,472,-165,85,-339
840,992,-3088,536,-123,99,-209
845,1112,-3000,496,-76,78,-102
850,1088,-3072,512,-103,71,-28
855,1088,-3088,504,-176,79,32
860,1064,-3224,424,-251,97,80
865,1008,-3256,344,-308,129,128
870,904,-3200,88,-345,179,175
875,704,-3256,-88,-396,264,221
880,568,-3288,-288,-447,342,269
885,488,-3320,-328,-484,427,304
890,392,-3376,-368,-497,518,331
895,304,-3416,-408,-477,598,369
900,256,-3440,-336,-436,658,416
905,280,-3504,-288,-396,706,459
910,336,-3552,-248,-361,752,493
915,360,-3576,-232,-344,794,528
920,352,-3544,-160,-335,836,552
925,320,-3504,-160,-322,867,576
930,200,-3432,-144,-320,881,595
935,152,-3360,-128,-318,873,622
940,152,-3128,-192,-281,868,675
945,8,-3120,-144,-231,872,785
950,-72,-2920,-168,-160,846,827
955,-128,-2768,-184,-68,812,842
960,-176,-2592,-208,11,795,928
965,-176,-2520,-184,81,765,1003
970,-328,-2328,-208,145,720,1014
975,-312,-2224,-168,207,661,1044
980,-352,-2064,-232,269,581,1019
985,-264,-1880,-280,306,505,1000
990,-344,-1744,-256,266,435,1002
995,-344,-1616,-288,205,355,971
1000,-368,-1616,-248,129,290,952
1005,-368,-1648,-248,84,231,937
1010,-448,-1616,-208,87,179,890
1015,-512,-1744,-216,132,122,871
1020,-544,-1720,-264,213,65,894
1025,-616,-1944,-168,228,33,886
1030,-672,-2008,-80,227,2,772
1035,-624,-2136,40,228,-19,613
1040,-688,-2072,16,227,-14,477
1045,-664,-2152,56,202,-2,393
1050,-696,-2168,72,171,-10,289
1055,-664,-2080,64,121,-27,176
1060,-544,-2016,0,51,-57,125
1065,-424,-1856,-40,-16,-92,107
1070,-248,-1672,-96,-61,-125,109
1075,-168,-1472,-72,-70,-160,133
1080,-120,-1272,-152,-52,-200,160
1085,-8,-1096,-128,-30,-239,191
1090,64,-912,-152,-16,-277,221
1095,128,-688,-136,0,-312,254
1100,208,-624,-104,20,-345,283
1105,296,-488,-80,49,-364,300
1110,368,-392,-80,89,-369,310
1115,472,-392,-64,133,-360,317
1120,584,-408,24,167,-328,321
1125,720,-432,48,190,-264,309
1130,808,-520,56,210,-172,284
1135,920,-560,8,228,-59,247
1140,960,-616,-120,236,43,201
1145,848,-608,-272,222,120,143
1150,720,-560,-496,161,157,91
1155,648,-600,-824,49,160,61
1160,432,-632,-1064,-96,144,50
1165,208,-720,-1336,-261,120,57
1170,-72,-776,-1560,-444,101,92
1175,-240,-896,-1608,-633,103,145
1180,-512,-1032,-1640,-802,132,205
1185,-664,-1136,-1624,-922,178,271
1190,-768,-1320,-1552,-1013,236,340
1195,-816,-1448,-1424,-1069,274,382
1200,-848,-1672,-1168,-1086,271,413
1205,-824,-1824,-1096,-1038,217,438
1210,-728,-2056,-936,-986,131,480
1215,-576,-2360,-792,-951,29,503
1220,-448,-2576,-736,-933,-68,507
1225,-248,-2792,-712,-925,-151,495
1230,-88,-3072,-632,-930,-211,485
1235,24,-3264,-728,-919,-247,466
1240,88,-3320,-904,-910,-265,433
1245,176,-3440,-960,-933,-269,392
1250,184,-3456,-1096,-920,-250,326
1255,216,-3296,-1088,-890,-211,246
1260,168,-3096,-1040,-827,-153,165
1265,136,-3072,-768,-700,-79,73
1270,-16,-3000,-640,-500,-15,-27
1275,-96,-3008,-496,-261,40,-98
1280,-288,-3128,-376,-39,71,-144
1285,-912,-3176,-336,144,77,-192
1290,-576,-3360,-352,217,7,-297
1295,-568,-3768,-312,276,-2,-331
1300,-624,-4136,-384,438,46,-294
1305,-608,-4312,-504,556,42,-320
1310,-784,-4496,-496,558,67,-463
1315,-752,-4528,-560,624,178,-395
1320,-488,-4560,-632,598,218,-295
1325,-512,-4496,-656,427,172,-438
1330,-144,-4480,-320,278,186,-571
1335,200,-4312,-64,269,294,-552
1340,352,-4200,160,253,365,-642
1345,464,-4048,256,278,382,-721
1350,680,-3752,304,389,397,-698
1355,680,-3560,376,492,386,-691
1360,888,-3264,272,574,326,-767
1365,1000,-2992,176,679,364,-714
1370,984,-2736,104,710,426,-688
1375,896,-2424,40,668,483,-751
1380,864,-2248,-40,593,546,-801
1385,816,-2168,-64,539,643,-767
1390,912,-2032,-152,532,741,-730
1395,944,-1752,-144,522,844,-803
1400,800,-1488,-64,473,986,-905
1405,696,-1472,-56,415,1106,-935
1410,584,-1384,-88,398,1173,-923
1415,472,-1304,-128,396,1181,-924
1420,208,-1232,-208,410,1149,-939
1425,48,-1072,-240,415,1104,-965
1430,-48,-896,-232,438,1062,-969
1435,-168,-800,-232,464,1023,-971
1440,-344,-560,-312,496,985,-952
1445,-488,-328,-328,516,945,-897
1450,-544,-88,-408,531,904,-810
1455,-656,168,-480,507,868,-742
1460,-704,368,-520,437,840,-663
1465,-712,528,-616,343,820,-578
1470,-824,768,-664,222,822,-508
1475,-880,848,-664,102,857,-357
1480,-800,744,-632,16,900,-199
1485,-680,536,-608,-32,947,-64
1490,-552,264,-520,-59,978,29
1495,-416,-24,-416,-55,976,81
1500,-232,-320,-288,-16,937,104
1505,-80,-488,-264,44,854,87
1510,-64,-760,-168,120,742,27
1515,-8,-832,-120,223,584,19
1520,56,-920,-72,316,396,16
1525,104,-856,-104,379,214,-7
1530,232,-872,-312,399,77,-50
1535,304,-720,-736,345,29,-108
1540,424,-520,-1184,185,80,-171
1545,632,-376,-1592,-85,209,-227
1550,960,-296,-1736,-423,381,-279
1555,1208,-312,-1720,-745,525,-337
1560,1480,-432,-1712,-980,576,-402
1565,1520,-824,-1712,-1113,508,-475
1570,1368,-1368,-1736,-1161,332,-576
1575,1224,-1984,-1744,-1150,130,-689
1580,1256,-2528,-1824,-1074,28,-793
1585,1152,-3400,-1880,-948,107,-899
1590,712,-3872,-1816,-780,332,-1013
1595,48,-4224,-1664,-604,607,-1077
1600,-384,-4440,-1528,-432,835,-1026
1605,-912,-4568,-1512,-226,972,-929
1610,-1264,-4560,-1552,-10,1019,-833
1615,-1392,-4272,-1688,175,954,-740
1620,-1336,-3728,-1640,273,754,-613
1625,-1192,-3288,-1520,315,412,-412
1630,-816,-2880,-1344,338,-5,-165
1635,-336,-2680,-1104,366,-360,108
1640,56,-2584,-880,404,-618,286
1645,392,-2624,-824,474,-785,348
1650,672,-2752,-648,543,-840,354
1655,984,-2984,-544,620,-813,361
1660,1280,-3176,-480,706,-739,363
1665,1456,-3416,-416,776,-648,374
1670,1496,-3616,-384,816,-587,421
1675,1504,-3856,-392,823,-574,449
1680,1432,-4088,-504,824,-583,473
1685,1200,-4280,-584,814,-587,505
1690,1032,-4448,-584,786,-581,527
1695,816,-4368,-600,781,-573,551
1700,656,-4400,-608,751,-550,619
1705,456,-4424,-480,696,-508,679
1710,176,-4328,-312,634,-451,674
1715,-24,-4152,-152,588,-392,655
1720,-120,-3888,-64,550,-336,604
1725,-440,-3552,48,515,-274,547
1730,-640,-3296,80,537,-244,602
1735,-792,-3032,112,610,-251,703
1740,-848,-2728,48,687,-251,805
1745,-824,-2552,48,745,-263,905
1750,-768,-2184,0,811,-290,984
1755,-616,-1944,-64,853,-318,1048
1760,-488,-1792,-64,856,-338,1119
1765,-272,-1680,-56,827,-355,1201
1770,-120,-1664,-40,788,-384,1245
1775,80,-1504,-16,734,-421,1232
1780,320,-1448,-16,661,-480,1203
1785,592,-1248,48,602,-558,1130
1790,792,-1064,48,549,-635,1012
1795,976,-760,32,512,-696,847
1800,1040,-448,16,486,-749,716
1805,1000,-48,-40,440,-797,588
1810,856,312,-96,353,-860,474
1815,680,608,-136,267,-972,383
1820,464,824,-200,178,-1094,304
1825,192,680,-184,118,-1208,241
1830,-168,816,-272,182,-1279,113
1835,-592,680,-320,234,-1303,32
1840,-632,440,-248,309,-1300,55
1845,-744,128,-184,396,-1244,53
1850,-776,16,-304,501,-1131,76
1855,-816,-216,-424,533,-986,108
1860,-640,-344,-536,534,-848,154
1865,-520,-304,-576,487,-738,173
1870,-280,-264,-640,374,-678,166
1875,-40,-296,-680,233,-665,132
1880,160,-320,-744,100,-682,79
1885,288,-312,-752,-22,-721,35
1890,392,-264,-800,-136,-780,0
1895,456,-152,-864,-235,-852,-32
1900,520,-72,-840,-297,-920,-60
1905,544,16,-848,-319,-965,-87
1910,560,56,-776,-296,-971,-112
1915,576,56,-680,-230,-930,-127
1920,640,80,-568,-133,-852,-134
1925,656,64,-512,-25,-750,-131
1930,584,24,-544,72,-640,-123
1935,504,0,-520,130,-556,-114
1940,448,-72,-640,130,-513,-96
1945,256,-168,-872,61,-506,-65
1950,64,-344,-1120,-79,-515,-14
1955,-72,-560,-1408,-276,-513,45
1960,-216,-752,-1704,-518,-454,85
1965,-392,-1080,-1992,-782,-340,121
1970,-448,-1544,-2128,-1018,-187,182
1975,-368,-2264,-2144,-1150,1,279
1980,-376,-2608,-2136,-1129,208,369
1985,-248,-3496,-2096,-951,380,444
1990,-336,-4056,-1976,-644,433,496
1995,-264,-4472,-1616,-431,312,616
2000,-144,-4656,-1224,-341,66,736
2005,48,-5008,-736,-407,-213,832
2010,208,-5360,-168,-443,-430,811
2015,128,-5160,-264,-401,-566,690
2020,72,-5000,-552,-478,-603,602
2025,-8,-4624,-800,-673,-517,546
2030,-96,-4312,-848,-887,-329,466
2035,-240,-3800,-776,-1012,-132,370
2040,-304,-3816,-688,-915,59,237
2045,-536,-3720,-632,-577,252,22
2050,-728,-3744,-512,-169,376,-138
2055,-880,-3816,-432,202,435,-253
2060,-904,-4024,-440,506,444,-338
2065,-816,-4152,-424,730,446,-413
2070,-808,-4320,-312,859,477,-471
2075,-688,-4464,-192,901,521,-507
2080,-544,-4560,-120,879,554,-540
2085,-344,-4632,-16,841,554,-579
2090,-104,-4488,-80,795,521,-614
2095,232,-4448,0,667,437,-687
2100,376,-4232,16,577,411,-730
2105,584,-4056,120,518,364,-826
2110,720,-3664,-32,567,365,-820
2115,912,-3360,24,581,398,-770
2120,800,-2992,208,569,465,-803
2125,736,-2752,320,565,474,-972
2130,784,-2536,280,660,490,-1015
2135,720,-2224,232,821,526,-952
2140,504,-1976,168,927,545,-894
2145,328,-1728,88,994,537,-856
2150,184,-1592,80,1043,512,-854
2155,-80,-1232,-24,1073,442,-939
2160,-296,-872,-200,1092,355,-993
2165,-408,-456,-296,1109,302,-968
2170,-448,-120,-336,1103,285,-892
2175,-536,56,-424,1087,290,-816
2180,-568,368,-400,1066,306,-755
2185,-568,680,-496,1056,320,-697
2190,-456,904,-584,1007,330,-617
2195,-376,992,-576,918,364,-548
2200,-352,1120,-504,815,423,-524
2205,-264,1176,-504,698,480,-461
2210,-104,1128,-512,553,544,-358
2215,-24,1040,-560,403,611,-237
2220,152,856,-512,236,658,-85
2225,344,496,-448,67,713,21
2230,440,136,-416,-74,768,96
2235,480,-216,-408,-195,806,157
2240,504,-512,-408,-258,816,202
2245,568,-648,-456,-291,789,222
2250,544,-832,-448,-305,743,210
2255,616,-912,-488,-294,701,189
2260,648,-960,-496,-287,678,135
2265,624,-896,-464,-287,665,60
2270,592,-864,-456,-286,662,-30
2275,488,-696,-464,-287,677,-128
2280,432,-512,-424,-293,708,-214
2285,328,-360,-344,-290,749,-292
2290,248,-240,-352,-270,801,-361
2295,96,-64,-216,-225,861,-418
2300,48,32,-296,-133,923,-467
2305,16,152,-488,-26,995,-503
2310,176,200,-680,27,1079,-506
2315,256,360,-1120,21,1183,-480
2320,432,336,-1544,-188,1290,-446
2325,704,312,-1880,-597,1377,-414
2330,952,-160,-1848,-1145,1439,-384
2335,792,-1016,-1328,-1624,1443,-385
2340,672,-1688,-1128,-1790,1327,-378
2345,544,-2768,-1024,-1731,1106,-406
2350,656,-4000,-1048,-1593,844,-544
2355,784,-5328,-1008,-1472,628,-816
2360,448,-5976,-800,-1271,610,-1190
2365,-96,-6248,-768,-1044,777,-1475
2370,-736,-6464,-840,-855,1034,-1542
2375,-1248,-6360,-1416,-676,1326,-1462
2380,-1304,-5680,-1936,-500,1550,-1275
2385,-1440,-4864,-1976,-273,1569,-1003
2390,-1352,-3848,-1784,18,1225,-654
2395,-872,-3256,-1400,317,682,-271
2400,-368,-2984,-920,544,129,73
2405,168,-2848,-656,649,-339,286
2410,496,-2824,-528,623,-638,396
2415,936,-2888,-344,487,-777,455
2420,1280,-3176,-232,310,-798,444
2425,1600,-3584,-120,197,-750,431
2430,1832,-3880,-96,184,-642,446
2435,1824,-4064,-56,238,-495,453
2440,1728,-4256,-64,328,-364,455
2445,1544,-4408,-40,426,-291,480
2450,1312,-4432,-16,534,-284,549
2455,1008,-4584,56,652,-327,689
2460,896,-4600,-8,803,-394,913
2465,584,-4672,-24,1002,-434,1115
2470,72,-4592,-8,1196,-432,1140
2475,-104,-4160,-64,1321,-406,1216
2480,-416,-3992,-104,1335,-370,1397
2485,-584,-3616,16,1244,-372,1445
2490,-888,-3416,248,1071,-364,1407
2495,-1096,-2824,168,984,-381,1289
2500,-1120,-2496,272,837,-346,1238
2505,-1032,-2272,288,714,-303,1241
2510,-968,-1912,240,670,-252,1188
2515,-896,-1768,288,648,-234,1145
2520,-680,-1608,160,675,-290,1094
2525,-424,-1544,80,725,-365,1041
2530,-184,-1440,-32,781,-423,982
2535,32,-1304,-56,821,-461,924
2540,312,-1160,-136,847,-493,892
2545,496,-888,-192,858,-523,873
2550,744,-568,-344,844,-559,849
2555,912,-480,-464,776,-585,830
2560,1096,-160,-440,738,-587,797
2565,1248,120,-368,714,-602,738
2570,1192,392,-408,702,-618,661
2575,1200,496,-456,687,-644,556
2580,984,672,-520,661,-675,419
2585,784,760,-688,616,-682,276
2590,384,728,-736,539,-667,115
2595,40,680,-768,447,-653,-23
2600,-72,504,-696,352,-637,-122
2605,-176,184,-632,261,-599,-187
2610,-184,32,-512,176,-528,-227
2615,-232,-56,-456,112,-443,-243
2620,-280,-152,-464,67,-366,-237
2625,-336,-160,-488,39,-305,-215
2630,-376,-144,-472,16,-254,-166
2635,-504,-96,-472,-19,-244,-94
2640,-544,-104,-424,-72,-268,-11
2645,-568,-136,-424,-134,-320,77
2650,-592,-168,-424,-217,-387,160
2655,-544,-64,-400,-300,-462,190
2660,-328,-72,-312,-354,-482,305
2665,-168,-120,-280,-346,-475,405
2670,-40,-128,-304,-326,-474,455
2675,152,-80,-480,-334,-497,471
2680,272,-88,-688,-392,-555,470
2685,312,-184,-912,-486,-658,463
2690,256,-368,-1080,-594,-787,454
2695,48,-536,-1168,-705,-922,452
2700,56,-856,-1408,-820,-1067,400
2705,-112,-1296,-1480,-922,-1120,426
2710,-240,-1952,-1688,-925,-1069,551
2715,-384,-2584,-1896,-866,-928,670
2720,-376,-3240,-1784,-800,-729,856
2725,-304,-4120,-1528,-668,-500,1022
2730,-232,-4840,-984,-540,-335,1190
2735,32,-5184,-520,-446,-264,1370
2740,488,-5584,-216,-418,-255,1567
2745,784,-5864,-128,-349,-298,1537
2750,960,-5408,-712,-224,-407,1244
2755,1088,-4664,-1368,-278,-528,932
2760,1016,-4152,-1520,-484,-485,712
2765,648,-3664,-1296,-593,-287,506
2770,216,-3240,-688,-584,-69,262
2775,-24,-2960,-136,-397,188,3
2780,-224,-2984,248,-124,449,-216
2785,-536,-3088,384,158,650,-360
2790,-728,-3280,416,406,767,-436
2795,-1016,-3568,256,611,792,-458
2800,-1240,-3792,112,759,765,-434
2805,-1424,-4080,-56,845,722,-394
2810,-1392,-4400,-160,877,683,-345
2815,-1288,-4528,-152,856,649,-304
2820,-1008,-4656,-88,765,598,-265
2825,-712,-4856,-64,709,576,-221
2830,-584,-4664,80,691,534,-275
2835,-320,-4608,216,593,425,-438
2840,-104,-4288,152,611,420,-502
2845,176,-3824,104,551,365,-583
2850,288,-3248,136,419,369,-737
2855,368,-2696,184,298,457,-835
2860,616,-2616,232,65,465,-987
2865,672,-2472,208,30,511,-1108
2870,552,-2288,200,181,538,-1150
2875,344,-2064,224,332,501,-1211
2880,360,-1848,264,436,461,-1253
2885,80,-1624,192,500,383,-1334
2890,-104,-1568,408,515,253,-1441
2895,-144,-1560,448,643,174,-1327
2900,-80,-1544,280,755,69,-1211
2905,-200,-1192,8,883,53,-1062
2910,-200,-976,-96,900,91,-844
2915,-288,-704,-200,783,126,-652
2920,-440,-368,-424,657,161,-497
2925,-696,72,-544,539,178,-360
2930,-584,192,-616,358,133,-276
2935,-608,496,-720,288,140,-141
2940,-608,768,-816,291,144,-30
2945,-552,920,-904,307,128,42
2950,-328,944,-928,335,115,106
2955,-48,840,-912,364,132,154
2960,152,648,-816,363,183,173
2965,368,280,-680,328,248,158
2970,528,-72,-464,264,297,114
2975,704,-296,-352,205,326,55
2980,792,-424,-256,142,335,-20
2985,896,-512,-264,69,332,-101
2990,880,-568,-248,16,334,-162
2995,768,-552,-256,-11,329,-224
3000,688,-504,-312,-8,323,-289
3005,560,-456,-336,-1,318,-349
3010,400,-336,-360,-5,320,-399
3015,224,-248,-368,-21,323,-445
3020,-16,-96,-352,-50,326,-473
3025,-248,8,-288,-85,323,-485
3030,-480,176,-304,-114,311,-489
3035,-640,272,-320,-151,293,-458
3040,-608,368,-520,-209,291,-416
3045,-408,352,-896,-301,335,-394
3050,-144,296,-1536,-522,457,-412
3055,160,216,-1960,-829,655,-463
3060,520,144,-2120,-1260,881,-526
3065,856,-248,-2032,-1717,1061,-569
3070,864,-992,-1656,-2053,1125,-599
3075,880,-1672,-1440,-2100,1006,-648
3080,1288,-2688,-1632,-1887,776,-740
3085,1848,-3888,-1864,-1638,609,-923
3090,1968,-4872,-1808,-1487,561,-1194
3095,1640,-5864,-1528,-1470,595,-1439
3100,1120,-6320,-1296,-1507,761,-1540
3105,200,-6528,-1304,-1489,1103,-1511
3110,-608,-6400,-1456,-1425,1503,-1428
3115,-1008,-5800,-1632,-1304,1790,-1318
3120,-1160,-4784,-1536,-1125,1838,-1157
3125,-1304,-4088,-1424,-888,1600,-832
3130,-1088,-3544,-1000,-653,1190,-381
3135,-704,-3248,-496,-408,775,69
3140,-448,-3136,-40,-177,415,388
3145,48,-3064,24,31,106,552
3150,328,-3192,152,142,-81,690
3155,712,-3488,200,106,-207,712
3160,1008,-3728,160,16,-251,724
3165,1328,-4024,48,-103,-224,728
3170,1272,-4328,40,-213,-143,699
3175,1224,-4728,-56,-226,-81,698
3180,1192,-4976,-216,-131,-41,693
3185,976,-5096,-272,-7,20,655
3190,776,-5208,-200,145,105,682
3195,672,-5056,-224,341,187,748
3200,312,-4760,-224,491,281,813
3205,-80,-4632,-8,560,361,890
3210,-336,-4104,40,601,354,979
3215,-784,-3696,96,564,297,1081
3220,-896,-3576,224,421,205,1160
3225,-1304,-3192,192,324,115,1196
3230,-1600,-2760,184,241,12,1229
3235,-1672,-2328,152,159,-124,1245
3240,-1568,-2288,264,115,-230,1324
3245,-1416,-2208,232,185,-301,1367
3250,-1192,-2048,8,357,-320,1342
3255,-584,-1928,-8,544,-297,1301
3260,-152,-1760,-64,698,-243,1120
3265,64,-1536,-72,831,-221,899
3270,400,-1256,-96,925,-267,734
3275,624,-984,-120,944,-369,592
3280,688,-720,-152,892,-509,467
3285,872,-400,-208,803,-678,388
3290,736,-168,-136,689,-808,289
3295,424,168,-144,585,-928,203
3300,216,352,-224,481,-1032,187
3305,192,504,-272,389,-1088,162
3310,-8,600,-320,306,-1054,51
3315,-16,576,-328,224,-970,-27
3320,-80,584,-384,151,-857,-74
3325,-16,440,-408,72,-746,-102
3330,56,224,-376,4,-650,-137
3335,200,144,-360,-46,-574,-192
3340,192,-240,-160,-115,-524,-258
3345,232,-480,-200,-123,-507,-330
3350,272,-512,-256,-82,-488,-377
3355,240,-536,-256,-70,-467,-400
3360,144,-448,-288,-68,-455,-400
3365,72,-368,-336,-77,-461,-384
3370,-32,-264,-392,-99,-492,-363
3375,-136,-128,-440,-119,-539,-338
3380,-288,-8,-576,-131,-604,-295
3385,-408,48,-640,-130,-688,-239
3390,-536,136,-784,-127,-780,-163
3395,-704,176,-944,-128,-886,-103
3400,-824,152,-1120,-149,-991,-53
3405,-864,88,-1320,-185,-1103,-1
3410,-992,8,-1408,-242,-1177,52
3415,-992,-216,-1584,-323,-1223,119
3420,-984,-520,-1736,-434,-1234,196
3425,-904,-912,-1816,-524,-1208,283
3430,-712,-1400,-1872,-590,-1146,378
3435,-536,-1744,-1888,-618,-1061,468
3440,-216,-2264,-1856,-605,-982,543
3445,216,-2784,-1808,-547,-912,613
3450,640,-3136,-1800,-465,-838,645
3455,1192,-3656,-1632,-418,-765,706
3460,1520,-3952,-1504,-314,-714,761
3465,1896,-4080,-1424,-183,-679,788
3470,2112,-4072,-1392,-105,-660,770
3475,2048,-3792,-1296,-94,-646,709
3480,1912,-3648,-1168,-173,-653,622
3485,1600,-3472,-1112,-208,-622,502
3490,1144,-3216,-1112,-183,-511,368
3495,552,-2984,-1088,-164,-357,265
3500,0,-2856,-1056,-170,-210,179
3505,-296,-2784,-1032,-185,-75,85
3510,-592,-2664,-776,-181,47,-7
3515,-880,-2712,-584,-229,74,-137
3520,-1336,-2608,-432,-196,87,-246
3525,-1616,-2792,-320,-62,79,-206
3530,-1784,-2904,-264,76,20,-183
3535,-1944,-2976,-240,192,-62,-168
3540,-2000,-2920,-232,244,-165,-161
3545,-1896,-3048,-56,160,-289,-146
3550,-1848,-3224,80,-5,-438,-139
3555,-1664,-3544,192,-163,-592,-161
3560,-1416,-3832,248,-245,-713,-224
3565,-1128,-3856,152,-295,-797,-300
3570,-696,-3776,200,-363,-841,-378
3575,-312,-3840,40,-443,-864,-466
3580,-208,-3776,136,-477,-821,-663
3585,-8,-3520,32,-399,-798,-720
3590,232,-3296,-8,-323,-796,-666
3595,248,-3088,72,-251,-806,-642
3600,224,-2904,72,-227,-868,-782
3605,176,-2512,0,-114,-884,-861
3610,16,-2416,120,54,-893,-796
3615,400,-2152,72,152,-920,-856
3620,216,-1856,88,283,-883,-872
3625,80,-1712,80,370,-863,-807
3630,144,-1416,144,380,-846,-749
3635,16,-1160,144,380,-794,-722
3640,-8,-1008,144,380,-746,-718
3645,-96,-768,80,379,-717,-683
3650,-112,-472,32,329,-717,-659
3655,-160,-328,72,228,-738,-670
3660,-8,-304,72,188,-756,-733
3665,24,-240,80,231,-714,-679
3670,136,-80,48,262,-696,-592
3675,160,40,-8,233,-699,-546
3680,192,248,144,119,-703,-528
3685,352,248,160,-59,-755,-509
3690,424,224,64,-163,-742,-471
3695,520,304,-48,-184,-650,-417
3700,496,408,-48,-259,-564,-388
3705,600,312,-96,-334,-492,-353
3710,648,360,-200,-357,-444,-344
3715,512,248,-160,-394,-405,-356
3720,544,152,-192,-409,-371,-350
3725,472,48,-296,-364,-328,-311
3730,400,-16,-368,-311,-272,-271
3735,256,-80,-512,-264,-207,-209
3740,80,-112,-576,-238,-131,-159
3745,8,-112,-656,-248,-53,-79
3750,-88,-96,-744,-298,37,2
3755,-96,-216,-856,-345,121,101
3760,0,-48,-920,-375,199,208
3765,256,-152,-800,-451,288,277
3770,424,-296,-656,-504,386,334
3775,624,-384,-632,-542,450,377
3780,960,-776,-552,-632,469,413
3785,976,-1208,-640,-721,473,407
3790,1088,-1424,-672,-829,459,399
3795,992,-1904,-808,-965,419,375
3800,472,-2304,-1000,-1106,363,310
3805,-192,-2856,-1464,-1235,212,254
3810,-792,-3056,-2288,-1322,-38,208
3815,-984,-3360,-2832,-1448,-240,177
3820,-1488,-3144,-3256,-1422,-243,135
3825,-1344,-3360,-3216,-1394,-83,150
3830,-1176,-3416,-3064,-1333,153,147
3835,-792,-3392,-2968,-1288,340,142
3840,-528,-3408,-2896,-1327,429,139
3845,-144,-3280,-2896,-1429,424,159
3850,224,-3312,-2752,-1531,348,162
3855,472,-3240,-2552,-1539,254,151
3860,584,-3160,-2304,-1463,198,137
3865,568,-3048,-2168,-1357,190,144
3870,504,-2888,-1984,-1262,229,162
3875,448,-2920,-1784,-1185,316,184
3880,288,-2888,-1624,-1099,448,185
3885,160,-2912,-1424,-1040,590,156
3890,32,-2896,-1304,-975,683,126
3895,-112,-2864,-1144,-945,722,79
3900,-208,-2808,-1104,-976,732,22
3905,-304,-2704,-1080,-1051,731,-18
3910,-368,-2616,-1064,-1147,734,-31
3915,-472,-2536,-1040,-1224,757,-14
3920,-416,-2440,-888,-1259,783,20
3925,-360,-2256,-664,-1260,832,45
3930,-288,-2024,-600,-1251,879,87
3935,-192,-1856,-576,-1269,899,128
3940,-80,-1592,-552,-1319,916,184
3945,0,-1368,-544,-1369,943,259
3950,168,-1112,-552,-1374,982,317
3955,384,-928,-576,-1337,1028,349
3960,504,-784,-592,-1267,1070,364
3965,568,-616,-584,-1175,1082,368
3970,624,-432,-584,-1057,1051,368
3975,680,-264,-592,-948,1006,359
3980,648,-128,-576,-863,982,344
3985,600,0,-536,-787,991,346
3990,328,48,-448,-721,1035,340
3995,96,40,-472,-659,1089,351
4000,-32,40,-480,-600,1175,374
4005,-152,112,-616,-558,1317,402
4010,-144,8,-720,-529,1501,475
4015,-168,-176,-832,-515,1633,551
4020,-336,-304,-904,-523,1650,594
4025,-248,-464,-744,-514,1533,693
4030,-280,-664,-584,-545,1379,796
4035,-176,-984,-280,-588,1215,917
4040,-248,-1240,-240,-596,1039,1098
4045,-32,-1592,-256,-631,824,1217
4050,-8,-1736,-288,-709,624,1269
4055,-184,-1816,-264,-869,480,1239
4060,-280,-1824,-368,-1045,361,1265
4065,-312,-1784,-568,-1174,266,1406
4070,-232,-1496,-688,-1302,166,1460
4075,-256,-1216,-688,-1421,97,1362
4080,-320,-1000,-528,-1436,79,1220
4085,-400,-944,-192,-1360,112,1013
4090,-304,-760,96,-1116,173,819
4095,-192,-792,328,-806,250,604
4100,72,-552,120,-500,336,406
4105,64,-184,-240,-303,417,203
4110,232,144,-640,-204,450,37
4115,408,672,-1088,-169,472,-108
4120,568,1120,-1656,-254,581,-220
4125,696,1504,-2184,-522,763,-319
4130,624,1584,-2536,-992,979,-380
4135,520,1400,-2848,-1516,1131,-363
4140,352,1200,-3064,-1967,1203,-317
4145,208,696,-2904,-2322,1197,-217
4150,48,184,-2544,-2475,1134,-38
4155,-376,-528,-1928,-2347,1050,177
4160,-640,-1048,-1336,-2082,938,433
4165,-768,-1488,-1088,-1853,786,717
4170,-664,-1752,-1112,-1752,605,1007
4175,-448,-1912,-1432,-1793,445,1280
4180,-40,-1952,-1848,-1996,354,1496
4185,280,-1960,-2152,-2278,344,1606
4190,416,-1968,-2376,-2533,386,1542
4195,488,-1840,-2504,-2708,419,1354
4200,640,-1736,-2624,-2773,382,1080
4205,736,-1496,-2648,-2754,350,726
4210,648,-1488,-2320,-2696,414,338
4215,856,-1480,-2008,-2518,525,2
4220,680,-1528,-1648,-2188,691,-327
4225,560,-1672,-1368,-1863,841,-586
4230,472,-1440,-1320,-1536,942,-793
4235,272,-1384,-1184,-1334,999,-965
4240,-16,-1208,-1184,-1257,982,-1086
4245,-232,-1256,-1088,-1344,912,-1147
4250,-336,-1272,-1144,-1592,811,-1160
4255,-488,-1464,-1120,-1997,715,-1150
4260,-640,-1648,-1144,-2478,652,-1108
4265,-808,-1864,-1184,-2963,622,-1047
4270,-888,-2064,-1240,-3386,609,-995
4275,-1016,-2344,-1336,-3666,583,-975
4280,-1032,-2664,-1312,-3791,535,-992
4285,-1000,-2912,-1200,-3775,475,-1045
4290,-888,-3104,-1048,-3644,420,-1127
4295,-688,-3336,-776,-3421,361,-1230
4300,-600,-3504,-600,-3158,275,-1336
4305,-512,-3584,-496,-2926,163,-1409
4310,-344,-3640,-352,-2746,35,-1452
4315,-80,-3472,-368,-2587,-110,-1457
4320,48,-3272,-232,-2468,-260,-1482
4325,48,-3104,-160,-2360,-410,-1488
4330,-32,-2824,48,-2256,-503,-1479
4335,104,-2536,376,-2172,-471,-1448
4340,-80,-2232,696,-2107,-337,-1453
4345,-144,-1992,1168,-2042,-176,-1434
4350,-136,-1544,1496,-1937,-31,-1424
4355,-32,-1056,1584,-1810,71,-1421
4360,-296,-656,1576,-1723,108,-1419
4365,-344,-560,1616,-1704,50,-1334
4370,-592,-472,1600,-1680,-70,-1195
4375,-680,-512,1576,-1643,-214,-971
4380,-696,-640,1560,-1560,-358,-722
4385,-616,-928,1400,-1395,-461,-479
4390,-528,-1040,1464,-1214,-479,-305
4395,-544,-1416,1440,-1049,-503,-202
4400,-528,-1584,1320,-872,-532,-85
4405,-504,-1800,1272,-718,-520,-14
4410,-400,-1960,1160,-610,-484,40
4415,-336,-2072,1232,-493,-460,37
4420,-144,-2160,1320,-320,-493,1
4425,24,-1808,1192,-84,-572,-42
4430,216,-1416,784,162,-686,-110
4435,328,-1048,352,382,-843,-185
4440,448,-504,-176,517,-1045,-283
4445,416,-96,-816,636,-1252,-416
4450,320,176,-1088,814,-1381,-536
4455,120,488,-1168,1129,-1450,-601
4460,16,688,-1304,1603,-1509,-623
4465,-256,800,-1920,2218,-1564,-593
4470,-704,960,-2904,2875,-1614,-539
4475,-1640,1080,-3816,3512,-1561,-482
4480,-2416,1408,-4560,4205,-1455,-402
4485,-3112,1808,-5168,4885,-1374,-233
4490,-4104,3088,-6312,5424,-1401,75
4495,-232,7920,-22200,4620,-1852,566
4500,-2392,7344,-5432,-3306,-3399,178
4505,-3624,16312,-7568,-7029,-2805,92
4510,4920,20344,-1608,-4640,94,1005
4515,-3480,16392,1656,-166,-1842,209
4520,5368,9048,-4040,1038,-1891,329
4525,4832,1760,-17592,672,-1451,169
4530,1800,8472,-6744,-1322,-55,-311
4535,1136,-1016,-13488,-2968,69,-17
4540,-1624,-1120,-21160,-4733,-220,-10
4545,-240,4944,-17224,-6405,161,56
4550,320,3064,-13448,-5912,637,75
4555,712,2648,-10320,-4737,647,118
4560,552,2992,-7264,-3839,390,165
4565,-40,2712,-5448,-3141,9,210
4570,296,2704,-3800,-2698,-117,277
4575,880,160,-2880,-2167,-119,351
4580,576,-3160,-2136,-1423,17,35
4585,872,-1232,-1944,-699,132,-39
4590,1088,-184,-1584,-528,427,-90
4595,1104,-1232,-1736,-270,749,-298
4600,1736,-2024,-1856,-5,942,-323
4605,704,-2912,-1784,488,1131,-385
4610,1152,-3704,-1568,968,1293,-270
4615,-152,-1464,-2072,1359,1421,-168
4620,-560,-1704,-1352,1456,1473,-103
4625,-1304,-536,-1264,1197,1374,53
4630,-1000,1456,-1232,851,1243,88
4635,-1416,1960,-1648,582,1104,18
4640,-1216,2928,-1904,334,955,-77
4645,-880,944,-1720,43,898,-221
4650,-376,1224,-1792,-397,663,-387
4655,-696,896,-1176,-681,504,-541
4660,-480,720,-1360,-804,369,-550
4665,-240,504,-1704,-753,326,-540
4670,-360,480,-1936,-704,233,-491
4675,-592,216,-1584,-750,172,-368
4680,-376,768,-1760,-681,129,-198
4685,-440,584,-1752,-576,88,-71
4690,-1000,1040,-1512,-488,97,53
4695,-168,1392,-1680,-526,45,198
4700,208,776,-1408,-681,-10,325
4705,-120,1808,-1464,-803,-68,347
4710,-288,1256,-1104,-869,-115,386
4715,304,680,-1264,-769,-165,412
4720,32,1160,-1472,-575,-141,352
4725,632,720,-1712,-402,-200,400
4730,88,1120,-1856,-175,-181,303
4735,240,1184,-1968,-76,-230,315
4740,-88,144,-1736,-11,-248,304
4745,0,1064,-1688,93,-266,237
4750,160,936,-1784,100,-276,276
4755,88,512,-1560,207,-244,211
4760,72,1016,-1944,361,-239,205
4765,-96,1400,-2136,377,-222,182
4770,-152,1096,-2024,319,-200,155
4775,-208,2120,-2368,260,-220,207
4780,192,1000,-1800,84,-232,255
4785,104,1432,-2024,124,-198,223
4790,-16,888,-1920,114,-192,214
4795,-136,1264,-1960,112,-212,247
4800,40,1576,-2168,71,-246,286
4805,56,512,-1872,-18,-281,289
4810,184,816,-2128,114,-294,230
4815,32,984,-2144,138,-312,194
4820,56,952,-2024,70,-347,219
4825,224,1544,-2184,51,-371,215
4830,168,584,-2032,24,-368,220
4835,56,1432,-2192,112,-284,157
4840,104,1264,-2104,72,-218,131
4845,80,1616,-2104,29,-200,135
4850,360,768,-1968,-7,-196,165
4855,312,1280,-2344,88,-144,129
4860,184,984,-2088,34,-89,136
4865,-80,1728,-1856,8,-65,146
4870,16,728,-1616,11,-80,199
4875,144,1040,-2056,175,-55,200
4880,0,1200,-2248,250,-43,184
4885,120,1456,-2256,187,-73,202
4890,-56,1344,-2112,83,-100,203
4895,400,840,-2216,90,-115,246
4900,-224,536,-2064,140,-91,185
4905,-112,944,-2216,191,-110,196
4910,-40,960,-2056,141,-108,162
4915,192,1096,-2112,89,-90,159
4920,200,1480,-2096,27,-63,161
4925,48,1184,-1992,-73,-33,137
4930,64,984,-1920,-99,-7,108
4935,200,992,-2024,-64,8,99
4940,136,824,-2008,-26,27,65
4945,56,832,-1968,-15,34,37
4950,24,520,-1896,-26,31,9
4955,144,384,-1912,-25,27,-6
4960,24,416,-1872,-31,27,-5
4965,56,416,-1824,-38,26,-3
4970,48,408,-1824,-37,26,-1
4975,-32,296,-1840,-10,27,-3
4980,-32,256,-1912,17,27,-4
4985,-32,248,-1976,41,29,-3
4990,0,256,-1984,60,33,-1
4995,40,328,-1992,82,35,2
5000,88,408,-2000,100,33,5
5005,72,424,-2048,111,23,7
5010,72,368,-2008,128,11,4
5015,24,368,-2016,138,-4,-2
5020,0,352,-1976,150,-23,-8
5025,24,328,-1992,167,-42,-17
5030,-24,376,-2000,184,-57,-19
5035,-16,328,-1960,203,-67,-20
5040,-40,336,-2008,224,-74,-21
5045,-112,256,-1936,247,-78,-20
5050,-88,96,-1968,273,-80,-19
5055,-112,16,-1944,300,-81,-20
5060,-104,24,-1976,323,-81,-24
5065,-48,56,-1968,337,-79,-26
5070,-32,64,-1968,341,-75,-30
5075,-24,40,-1960,342,-72,-30
5080,-32,104,-2032,335,-70,-31
5085,-40,128,-2040,318,-67,-31
5090,-32,168,-2064,298,-63,-35
5095,-32,240,-2056,278,-58,-37
5100,-8,192,-2064,260,-53,-39
5105,-24,264,-2080,254,-54,-38
5110,-16,288,-2064,223,-46,-40
5115,-112,128,-2024,202,-42,-40
5120,40,264,-2136,198,-43,-34
5125,-32,248,-2112,207,-55,-37
5130,-48,200,-2168,171,-43,-34
5135,-64,240,-2072,139,-37,-37
5140,-48,272,-2128,137,-32,-37
5145,-40,152,-2144,128,-25,-33
5150,-24,128,-2136,115,-19,-30
5155,-40,200,-2128,121,-29,-31
5160,-48,176,-2120,108,-10,-30
5165,-48,152,-2112,91,10,-23
5170,-88,224,-2120,80,19,-22
5175,-48,216,-2112,62,21,-21
5180,-32,128,-2104,59,29,-20
5185,-32,160,-2128,53,33,-18
5190,-32,120,-2088,47,36,-16
5195,-40,128,-2096,44,38,-13
5200,-48,144,-2080,38,40,-12
5205,-24,168,-2088,33,38,-10
5210,-24,192,-2072,30,35,-10
5215,-24,184,-2096,28,28,-11
5220,-24,192,-2064,26,22,-11
5225,-16,208,-2088,24,15,-8
5230,-32,208,-2080,23,10,-10
5235,-48,232,-2048,20,4,-9
5240,-24,216,-2080,17,1,-8
5245,-32,232,-2040,12,-2,-7
5250,-32,248,-2048,8,-4,-7
5255,-16,224,-2024,5,-5,-7
5260,-32,240,-2008,3,-5,-6
5265,-32,224,-2040,1,-7,-8
5270,-56,216,-2032,4,-7,-9
5275,-56,224,-2064,4,-8,-8
5280,-40,264,-2048,3,-9,-9
5285,-40,240,-2080,3,-6,-9
5290,-32,232,-2056,5,-2,-10
5295,-24,216,-2056,6,2,-10
5300,-32,232,-2048,9,7,-11
5305,-16,224,-2040,11,14,-11
5310,-32,232,-2072,13,18,-13
5315,0,224,-2072,13,23,-11
5320,-40,232,-2000,12,26,-12
5325,-16,232,-2040,12,28,-12
5330,-24,240,-2016,13,30,-12
5335,-16,240,-1992,13,31,-10
5340,-24,240,-2024,16,31,-11
5345,-24,240,-2032,18,30,-10
5350,-32,248,-2048,23,25,-10
5355,-32,256,-2048,30,20,-11
5360,-16,272,-2008,34,16,-11
5365,-24,232,-2048,38,8,-12
5370,-24,256,-2056,41,4,-11
5375,-24,272,-2048,43,-1,-12
5380,-8,272,-2024,43,-3,-13
5385,-32,264,-2056,45,-3,-12
5390,-24,248,-2056,46,-5,-12
5395,-32,280,-2040,47,-4,-14
5400,-32,264,-2032,49,-5,-14
5405,-24,240,-2040,52,-8,-13
5410,-24,232,-2056,55,-8,-14
5415,-24,240,-2064,57,-10,-12
5420,-40,248,-2088,59,-9,-13
5425,-32,256,-2072,61,-10,-13
5430,-24,232,-2040,62,-13,-14
5435,-56,272,-2024,63,-14,-13
5440,-32,264,-2040,67,-16,-15
5445,-32,232,-2024,70,-17,-15
5450,-40,256,-2048,74,-17,-16
5455,-48,256,-2032,76,-15,-15
5460,-32,240,-2064,76,-13,-16
5465,-40,240,-2032,77,-13,-16
5470,-32,200,-2072,76,-12,-13
5475,-32,200,-2048,74,-9,-16
5480,-32,200,-2056,73,-9,-14
5485,-24,208,-2040,69,-10,-12
5490,-32,184,-2000,68,-8,-14
5495,-32,232,-2048,69,-10,-13
5500,-32,216,-2032,72,-11,-13
5505,0,232,-2080,87,-19,-18
5510,-24,184,-2096,94,-25,-19
5515,-64,200,-2088,85,-21,-17
5520,-72,232,-2096,77,-13,-17
5525,-48,216,-2032,73,-9,-17
5530,-24,216,-2048,69,-5,-16
5535,-48,216,-2064,66,-2,-14
5540,-40,192,-2008,63,-2,-15
5545,-48,232,-2040,63,-3,-14
5550,-56,200,-1992,62,-5,-15
5555,40,256,-2088,77,-25,-21
5560,-96,168,-2048,75,-26,-21
5565,-48,192,-2024,61,-10,-15
5570,-32,184,-2064,57,-7,-16
5575,-40,216,-2040,55,-7,-15
5580,-40,184,-2056,49,-7,-17
5585,-80,232,-2032,46,-5,-16
5590,-32,248,-2048,45,-4,-14
5595,-96,200,-2104,44,-4,-13
5600,-32,216,-2088,44,-3,-12
5605,-64,232,-2024,47,7,-11
5610,-32,216,-2072,48,9,-11
5615,-32,200,-2072,45,6,-12
5620,-32,224,-2048,45,4,-11
5625,-32,216,-2024,45,3,-11
5630,-40,200,-2056,44,5,-10
5635,-40,224,-2064,44,5,-11
5640,-32,248,-2080,44,7,-9
5645,-24,264,-2048,43,8,-11
5650,-32,240,-2096,42,8,-9
5655,-32,224,-2024,41,11,-8
5660,-32,224,-2048,43,11,-9
5665,-40,256,-2072,43,10,-9
5670,-32,216,-2048,43,10,-9
5675,-32,240,-2080,44,9,-10
5680,-24,232,-2072,44,9,-8
5685,-48,224,-2072,45,9,-9
5690,-24,224,-2048,44,11,-10
5695,-24,264,-2024,44,11,-10
5700,-48,224,-2008,44,12,-9
5705,-32,232,-2056,44,14,-9
5710,-48,232,-2056,43,14,-10
5715,-32,216,-2064,44,14,-9
5720,-40,240,-2056,44,14,-9
5725,-32,256,-2048,42,14,-9
5730,-32,216,-2040,44,16,-10
5735,-32,240,-2040,45,16,-10
5740,-24,200,-2072,46,16,-8
5745,-24,224,-2048,46,16,-10
5750,-32,264,-2040,46,15,-9
5755,-48,248,-1976,46,17,-10
5760,-40,256,-2064,48,16,-9
5765,-32,232,-2104,48,17,-10
5770,-32,232,-2056,49,18,-10
5775,-32,224,-2080,51,18,-9
5780,-48,240,-2032,52,18,-10
5785,-48,216,-2064,53,18,-8
5790,-40,248,-2048,54,18,-9
5795,-32,232,-2048,57,17,-9
5800,-32,200,-2056,56,16,-9
5805,-32,224,-2024,55,16,-10
5810,-32,200,-2080,54,15,-11
5815,-32,232,-2048,53,15,-11
5820,-48,240,-2064,51,14,-11
5825,-40,232,-2064,50,15,-12
5830,-32,216,-2040,49,14,-11
5835,-32,224,-2056,48,13,-9
5840,-32,240,-2088,47,11,-10
5845,-80,240,-2032,46,9,-10
5850,-16,232,-2080,45,8,-11
5855,-48,192,-2024,45,6,-12
5860,-48,224,-2080,46,4,-11
5865,-32,216,-2056,47,4,-13
5870,-32,232,-2072,47,5,-14
5875,-32,224,-2040,48,7,-14
5880,-32,248,-2024,47,10,-14
5885,-40,232,-2064,45,12,-13
5890,-64,232,-2056,46,17,-11
5895,-40,232,-2096,45,18,-11
5900,-40,200,-2088,43,20,-11
5905,-24,176,-2040,41,21,-11
5910,-40,208,-2040,38,22,-10
5915,-72,232,-2064,33,23,-9
5920,-32,248,-2064,32,26,-10
5925,-32,256,-2088,31,26,-10
5930,-32,232,-2032,32,26,-10
5935,-32,240,-2056,33,25,-9
5940,-32,248,-2056,35,24,-9
5945,-32,232,-2048,40,21,-10
5950,-64,248,-2072,40,22,-10
5955,-48,256,-2072,43,23,-10
5960,-32,256,-2024,44,23,-10
5965,-32,240,-2056,47,24,-9
5970,-16,208,-1960,49,26,-9
5975,-32,216,-2064,50,26,-9
5980,-32,224,-2064,52,26,-7
5985,-32,224,-2064,54,24,-6
5990,0,224,-2072,53,22,-7
5995,-24,216,-2048,51,20,-7
6000,-24,200,-2048,49,18,-8
6005,-48,232,-2008,47,19,-9
6010,-40,208,-2048,46,21,-8
6015,-48,232,-2040,49,21,-8
6020,-16,216,-2040,51,21,-8
6025,-16,240,-2088,55,18,-10
6030,-24,240,-2064,55,16,-10
6035,-32,224,-2080,53,16,-8
6040,-48,232,-2048,51,17,-10
6045,-24,224,-2056,49,17,-10
6050,-24,232,-2032,49,17,-9
6055,-24,240,-2072,49,17,-8
6060,-24,216,-2064,48,17,-10
6065,-64,240,-2056,46,17,-8
6070,0,288,-2088,51,15,-9
6075,-72,192,-2056,63,-3,-13
6080,-48,232,-2048,53,2,-11
6085,-64,248,-2048,48,9,-9
6090,-48,224,-2072,49,10,-10
6095,-24,216,-2072,47,13,-10
6100,-32,216,-2064,47,14,-10
6105,-32,240,-2056,49,15,-10
6110,-32,224,-2024,49,14,-9
6115,-32,208,-2064,49,14,-8
6120,-32,208,-2064,50,11,-6
6125,-32,240,-2000,49,9,-8
6130,-80,216,-2064,50,9,-9
6135,-32,232,-2048,49,8,-8
6140,-40,224,-2088,49,8,-9
6145,-32,224,-2056,50,9,-10
6150,-48,232,-2056,50,9,-11
6155,-32,216,-2080,50,9,-8
6160,-32,216,-2040,49,9,-9
6165,-32,184,-2072,50,9,-8
6170,-32,224,-2040,50,10,-10
6175,-32,240,-2064,50,10,-9
6180,-24,200,-2016,50,9,-10
6185,-48,248,-2072,49,10,-11
6190,-32,208,-2040,49,12,-11
6195,-32,232,-2072,46,12,-9
6200,-32,256,-2088,45,13,-10
6205,-32,232,-2040,45,13,-10
6210,-24,240,-2056,45,13,-10
6215,-24,232,-2080,45,13,-9
6220,-24,216,-2088,47,12,-8
6225,-32,232,-2088,48,14,-9
6230,-48,232,-2072,48,14,-9
6235,-16,232,-2096,43,12,-10
6240,-56,248,-2056,42,13,-10
6245,-40,248,-2072,42,14,-10
6250,-24,248,-2032,41,12,-9
6255,-16,240,-2040,41,11,-9
6260,-56,240,-2048,40,11,-11
6265,-32,224,-2048,41,12,-11
6270,-24,248,-2032,41,13,-11
6275,-32,192,-2032,41,13,-13
6280,-56,240,-2032,43,12,-12
6285,-56,224,-2048,42,11,-11
6290,-32,176,-2064,43,10,-11
6295,-32,232,-2032,43,10,-12
6300,-64,256,-2032,46,10,-12
6305,-32,216,-2072,46,9,-13
6310,-32,232,-2056,48,10,-12
6315,-40,232,-2040,48,10,-11
6320,-48,264,-2056,49,10,-10
6325,-24,232,-2048,48,10,-11
6330,-24,216,-2056,49,11,-11
6335,-24,240,-2048,50,9,-12
6340,-32,240,-2080,48,10,-12
6345,-40,248,-2040,48,9,-12
6350,-32,240,-2056,47,8,-12
6355,-48,240,-2048,47,8,-11
6360,-32,232,-2056,47,7,-11
6365,-32,216,-2040,48,8,-11
6370,-56,232,-2032,47,9,-11
6375,-32,232,-2048,46,9,-9
6380,-24,224,-2040,47,8,-11
6385,-56,240,-2064,47,8,-9
6390,-24,232,-2016,47,8,-10
6395,-48,240,-2032,47,8,-9
6400,-24,224,-2048,46,6,-10
6405,-32,208,-2080,47,6,-9
6410,-32,232,-2048,46,6,-12
6415,-32,240,-2072,47,8,-11
6420,-32,240,-2064,47,7,-10
6425,-32,256,-2040,47,6,-12
6430,-48,248,-2040,44,5,-12
6435,-40,248,-2024,42,3,-13
6440,-40,232,-2080,40,1,-12
6445,-24,232,-2040,40,1,-11
6450,-88,200,-2048,41,0,-12
6455,-56,240,-2072,40,0,-11
6460,-40,224,-2032,43,1,-14
6465,-48,272,-2048,43,0,-12
6470,-40,240,-2064,44,3,-12
6475,-32,240,-2056,45,5,-13
6480,-40,200,-2056,45,6,-12
6485,-48,216,-2056,46,6,-13
6490,-32,232,-2040,46,6,-13
6495,-40,264,-2096,48,6,-11
6500,-32,224,-2064,48,4,-12
6505,-32,224,-2032,48,3,-12
6510,-32,256,-2040,46,3,-13
6515,-56,232,-2080,45,3,-12
6520,-40,240,-2048,43,3,-13
6525,-56,224,-2024,41,3,-13
6530,-40,240,-2048,40,6,-12
6535,-40,264,-2024,40,7,-12
6540,-48,232,-2056,43,9,-14
6545,-32,208,-2080,47,6,-14
6550,-48,248,-2104,47,7,-14
6555,-32,256,-2080,46,9,-13
6560,-32,240,-2064,45,10,-12
6565,-32,240,-2064,44,13,-12
6570,-32,224,-2088,42,11,-12
6575,-32,232,-2064,44,12,-12
6580,-24,232,-2048,44,12,-10
6585,-32,200,-2072,44,10,-10
6590,-32,232,-2056,43,10,-11
6595,-16,208,-2016,43,11,-10
6600,-24,248,-2064,46,11,-9
6605,-40,248,-2048,45,12,-9
6610,-24,200,-2056,46,12,-9
6615,-40,240,-2048,45,12,-11
6620,-32,240,-2096,46,12,-10
6625,-32,232,-2048,45,12,-11
6630,-48,248,-2056,42,13,-8
6635,-32,264,-2040,40,14,-9
6640,-48,224,-2080,41,15,-10
6645,-24,232,-2056,41,17,-10
6650,-48,248,-2056,41,19,-10
6655,-32,224,-2064,41,22,-9
6660,-40,224,-2048,42,23,-7
6665,-32,248,-2016,41,24,-7
6670,-32,208,-2080,42,23,-8
6675,-40,248,-2080,43,23,-8
6680,-32,264,-2064,44,24,-8
6685,-24,248,-2056,44,26,-9
6690,-32,240,-2048,46,26,-7
6695,-16,224,-2080,45,27,-6
6700,-32,224,-2080,47,27,-7
6705,-8,232,-2024,47,28,-7
6710,-32,224,-2040,46,28,-6
6715,-40,224,-2024,47,28,-6
6720,-32,240,-2064,46,28,-7
6725,-40,224,-2072,46,28,-7
6730,-32,240,-2032,45,27,-7
6735,-24,240,-2032,45,27,-7
6740,-32,240,-2072,47,28,-7
6745,-32,256,-2088,47,29,-8
6750,-48,232,-2080,46,29,-7
6755,-48,240,-2032,44,28,-8
6760,-24,256,-2040,43,28,-9
6765,-32,232,-2024,42,29,-8
6770,-32,264,-2032,41,28,-8
6775,-64,240,-2040,41,29,-8
6780,-24,232,-2064,42,28,-8
6785,-32,224,-2048,42,27,-7
6790,-32,232,-2056,42,27,-9
6795,-40,256,-2056,42,27,-9
6800,-16,232,-2072,42,27,-7
6805,-16,240,-2088,42,28,-9
6810,-32,280,-2064,41,27,-10
6815,-48,232,-2048,42,26,-9
6820,-32,208,-2088,42,25,-10
6825,-32,216,-2056,43,24,-10
6830,-32,240,-2064,44,21,-9
6835,-32,248,-2080,44,23,-10
6840,-32,240,-2048,44,21,-11
6845,-32,240,-2040,43,22,-12
6850,-24,248,-2040,42,21,-11
6855,-64,248,-2080,43,22,-11
6860,-24,232,-2040,44,22,-10
6865,-48,240,-2040,43,21,-10
6870,-32,232,-2080,43,20,-10
6875,-32,200,-2032,42,20,-9
6880,-24,240,-2064,44,19,-10
6885,-32,256,-2064,45,18,-10
6890,-32,240,-2048,45,16,-11
6895,-32,232,-2072,45,16,-9
6900,-32,256,-2032,46,14,-10
6905,-72,272,-2064,47,14,-11
6910,-24,224,-2056,46,13,-11
6915,-32,248,-2032,47,12,-10
6920,-24,224,-2048,48,10,-10
6925,-40,240,-2040,48,9,-10
6930,-24,232,-2032,47,7,-11
6935,-48,264,-2056,47,7,-9
6940,-48,248,-2040,47,6,-10
6945,-24,240,-2040,47,6,-9
6950,-16,232,-2032,45,7,-9
6955,-32,232,-2080,44,7,-10
6960,-16,216,-2032,45,8,-10
6965,-16,240,-2032,45,8,-9
6970,-24,264,-2032,45,7,-9
6975,-48,240,-2048,46,8,-9
6980,-16,208,-2048,46,10,-8
6985,-32,240,-2088,49,11,-9
6990,-32,240,-2024,51,11,-9
6995,-32,248,-2064,51,12,-10
7000,-48,216,-2072,51,13,-9
7005,-32,240,-2072,51,14,-10
7010,-24,248,-2072,51,14,-10
7015,-32,232,-2080,50,14,-9
7020,-32,224,-2040,49,15,-9
7025,-24,216,-2048,47,15,-9
7030,-32,232,-2048,45,15,-8
7035,-72,288,-2056,43,16,-8
7040,-24,232,-2024,43,18,-9
7045,-32,240,-2040,43,18,-9
7050,-40,256,-2064,47,19,-9
7055,-40,216,-2056,50,19,-10
7060,-48,248,-2072,53,17,-9
7065,-32,224,-2072,53,17,-9
7070,-24,264,-2048,50,16,-9
7075,-40,232,-2008,49,16,-9
7080,-32,248,-2048,49,16,-10
7085,-32,224,-2064,49,16,-10
7090,8,232,-2104,48,15,-9
7095,-32,240,-2048,49,17,-8
7100,-32,256,-2056,48,16,-7
7105,-32,240,-2048,48,17,-9
7110,-48,256,-2064,48,18,-9
7115,-40,240,-2056,49,19,-9
7120,-32,240,-2024,49,18,-8
7125,-16,248,-2040,50,15,-8
7130,-24,232,-2056,51,15,-9
7135,-32,264,-2024,51,15,-10
7140,-48,240,-2072,49,14,-9
7145,-24,240,-2072,48,13,-9
7150,-32,248,-2064,50,13,-9
7155,-32,248,-2056,49,14,-8
7160,-24,224,-2048,49,14,-7
7165,-24,256,-2080,49,14,-9
7170,-24,224,-2056,49,14,-9
7175,-24,248,-2024,47,15,-10
7180,-40,248,-2056,49,14,-9
7185,-24,240,-2088,47,14,-10
7190,-32,240,-2040,48,15,-9
7195,-24,216,-2056,48,15,-10
7200,-40,256,-2032,49,15,-10
7205,-32,240,-2032,48,15,-10
7210,-32,248,-2032,50,15,-9
7215,-32,240,-2064,51,16,-8
7220,-32,232,-2072,50,16,-10
7225,-32,248,-2056,48,16,-10
7230,-40,240,-2040,47,17,-11
7235,-32,216,-2032,49,17,-10
7240,-32,248,-2048,50,17,-10
7245,-32,288,-2040,52,15,-11
7250,24,240,-1952,51,14,-9
7255,-48,256,-2040,51,14,-9
7260,-24,224,-2072,51,13,-9
7265,-48,256,-2072,51,14,-9
7270,-32,224,-2040,50,15,-10
7275,-32,224,-2040,50,15,-11
7280,-8,232,-2024,51,14,-11
7285,-48,248,-2032,51,15,-11
7290,-32,264,-2056,50,16,-9
7295,-8,240,-2056,51,15,-10
7300,-24,216,-2008,50,14,-9
7305,-24,224,-2056,50,15,-9
7310,-48,232,-2040,50,14,-10
7315,-24,232,-2048,51,14,-10
7320,-32,232,-2080,51,12,-9
7325,-32,232,-2064,51,12,-10
7330,-32,256,-2056,52,10,-9
7335,-24,248,-2072,52,10,-10
7340,-32,256,-2040,53,12,-8
7345,-32,272,-2040,53,13,-10
7350,-40,232,-2064,53,12,-8
7355,-16,216,-2024,54,14,-9
7360,-32,232,-2072,53,14,-9
7365,-32,256,-2064,53,15,-8
7370,-32,264,-2032,54,15,-8
7375,-24,232,-2056,52,15,-7
7380,-16,224,-2056,53,16,-8
7385,-32,248,-2048,53,16,-9
7390,-24,216,-2040,54,16,-6
7395,-48,256,-2024,54,16,-6
7400,-24,256,-2064,54,16,-8
7405,-32,224,-2032,53,14,-9
7410,-56,280,-2056,54,14,-8
7415,0,224,-2048,53,13,-9
7420,-24,232,-2056,54,15,-9
7425,-32,224,-2064,54,15,-9
7430,-32,224,-2064,53,14,-8
7435,-32,232,-2056,52,14,-9
7440,-32,232,-2056,49,14,-10
7445,-16,224,-2048,50,15,-11
7450,-24,264,-2040,49,15,-10
7455,-16,232,-2032,49,15,-9
7460,-24,240,-2080,50,16,-8
7465,-24,224,-2064,50,16,-10
7470,-16,240,-2064,52,15,-10
7475,-32,248,-2040,53,14,-10
7480,-32,240,-2064,56,14,-10
7485,-32,248,-2056,57,15,-10
7490,-32,232,-2088,58,15,-10
7495,-24,232,-2072,62,15,-12
7500,-40,240,-2032,62,15,-9
7505,-40,256,-2048,61,15,-10
7510,-24,240,-2072,59,16,-10
7515,-32,240,-2064,60,14,-9
7520,-32,224,-2048,61,14,-9
7525,-32,240,-2056,61,14,-11
7530,-24,224,-2048,58,12,-12
7535,-16,216,-2064,54,11,-11
7540,-56,240,-2024,50,11,-13
7545,-32,224,-2040,50,11,-11
7550,-32,192,-2040,50,11,-11
7555,-24,192,-2048,53,12,-11
7560,-32,248,-2072,56,9,-11
7565,-40,224,-2072,59,7,-11
7570,-32,240,-2064,57,7,-12
7575,-32,248,-2040,53,6,-12
7580,-32,240,-2072,52,7,-12
7585,-32,216,-2048,53,8,-12
7590,-24,216,-2064,52,8,-11
7595,-24,248,-2056,51,8,-10
7600,-24,248,-2064,50,8,-11
7605,-32,248,-2088,49,8,-12
7610,-16,232,-2080,49,9,-11
7615,-40,256,-2056,49,10,-12
7620,-8,184,-2040,51,8,-11
7625,-16,224,-2048,52,6,-11
7630,-32,240,-2064,53,6,-10
7635,-32,240,-2048,53,7,-11
7640,-24,208,-2048,53,6,-13
7645,-24,232,-2056,52,6,-10
7650,-8,248,-2064,51,5,-12
7655,-16,240,-2056,50,5,-12
7660,-24,232,-2072,50,5,-11
7665,-32,256,-2056,51,5,-12
7670,-16,240,-2064,50,4,-13
7675,-40,224,-2040,48,3,-12
7680,-24,240,-2032,49,5,-11
7685,-32,224,-2040,47,4,-10
7690,-32,240,-2040,50,5,-11
7695,-40,264,-2056,50,5,-12
7700,-40,224,-2072,51,5,-10
7705,-32,240,-2048,50,5,-13
7710,-32,256,-2072,50,6,-11
7715,-32,216,-2032,51,5,-10
7720,-32,248,-2064,51,4,-10
7725,-24,240,-2080,51,5,-12
7730,-32,216,-2040,52,6,-10
7735,-40,224,-2072,51,5,-11
7740,-32,240,-2048,52,6,-10
7745,-32,232,-2040,51,6,-10
7750,-24,224,-2048,52,5,-11
7755,-32,248,-2040,52,6,-10
7760,-24,256,-2072,53,5,-10
7765,-32,224,-2056,55,6,-10
7770,-40,240,-2040,53,7,-9
7775,-40,216,-2080,54,7,-11
7780,0,216,-2032,53,9,-9
7785,-32,232,-2056,53,8,-10
7790,-32,232,-2048,52,10,-11
7795,-32,232,-2040,52,9,-12
7800,-24,232,-2048,53,8,-9
7805,-32,248,-2056,52,8,-10
7810,-24,248,-2048,52,9,-10
7815,-24,224,-2064,51,9,-11
7820,-16,224,-2056,52,9,-11
7825,-32,216,-2064,51,9,-11
7830,-8,248,-2048,51,8,-10
7835,-32,248,-2048,51,8,-12
7840,-32,240,-2048,51,9,-10
7845,-32,224,-2032,51,11,-11
7850,-32,240,-2048,51,11,-11
7855,-16,232,-2064,52,10,-11
7860,-24,232,-2080,51,11,-10
7865,-40,224,-2032,52,11,-11
7870,-32,248,-2016,51,11,-11
7875,-24,248,-2064,54,10,-9
7880,-16,208,-2064,53,9,-10
7885,-32,216,-2064,52,9,-11
7890,-40,208,-2096,51,9,-11
7895,-32,272,-2056,50,8,-12
7900,-32,224,-2064,51,9,-11
7905,-48,240,-2088,51,11,-11
7910,-32,232,-2032,51,14,-10
7915,-48,256,-2024,52,14,-9
7920,-64,256,-2064,53,12,-10
7925,-40,232,-2072,53,12,-11
7930,-48,248,-2056,53,10,-9
7935,-32,224,-2064,54,8,-12
7940,-32,224,-2008,54,6,-11
7945,-32,232,-2024,54,4,-10
7950,-40,248,-2056,53,2,-11
7955,-32,240,-2056,52,2,-11
7960,-24,216,-2024,50,2,-11
7965,-32,248,-2016,49,2,-10
7970,-16,240,-2064,51,2,-11
7975,-24,232,-2048,52,6,-9
7980,-8,224,-2016,56,17,-8
7985,-32,240,-2048,54,10,-10
7990,-16,216,-2064,54,2,-13
7995,-72,264,-2080,53,0,-11
8000,-40,232,-2072,53,0,-12
8005,-32,240,-2064,55,1,-12
8010,-32,240,-2032,53,4,-12
8015,-32,224,-2048,54,3,-12
8020,-32,224,-2072,55,3,-12
8025,-40,240,-2064,56,4,-11
8030,-24,200,-2032,55,4,-10
8035,-32,216,-2040,53,5,-10
8040,-32,224,-2056,51,4,-14
8045,-24,256,-2040,50,6,-13
8050,-32,240,-2016,48,6,-12
8055,-32,232,-2064,48,8,-11
8060,-32,240,-2056,52,7,-11
8065,-24,232,-2064,57,7,-12
8070,-32,224,-2096,59,7,-12
8075,-16,224,-2056,58,7,-13
8080,-32,216,-2056,55,7,-15
8085,-32,232,-2032,55,7,-11
8090,-32,256,-2048,53,7,-12
8095,0,224,-2064,53,7,-11
8100,-32,240,-2056,53,7,-13
8105,-32,216,-2064,52,8,-12
8110,-56,240,-2048,52,8,-12
8115,-48,232,-2056,53,6,-11
8120,-32,224,-2040,54,6,-10
8125,-32,224,-2048,55,7,-11
8130,-32,224,-2072,54,7,-11
8135,-40,248,-2048,54,8,-11
8140,-72,264,-2024,55,8,-11
8145,-8,208,-2016,54,7,-11
8150,-16,232,-2056,54,8,-12
8155,-32,248,-2080,53,6,-12
8160,-48,240,-2056,54,6,-10
8165,-40,232,-2056,52,5,-12
8170,-24,240,-2048,52,4,-10
8175,-32,256,-2040,52,6,-11
8180,-48,248,-2112,53,7,-9
8185,-8,280,-2024,62,14,-8
8190,-24,216,-2040,75,-3,-12
8195,-56,216,-2080,64,-4,-13
8200,-72,240,-2072,60,-11,-13
8205,-48,240,-2048,61,-10,-12
8210,0,192,-2104,55,-4,-13
8215,-32,232,-2048,54,0,-12
8220,-40,224,-2056,54,3,-11
8225,-24,232,-2056,54,5,-9
8230,-48,232,-2064,54,5,-9
8235,-32,224,-2048,52,5,-11
8240,-32,240,-2040,52,4,-11
8245,-32,224,-2080,50,3,-11
8250,-64,248,-2016,50,2,-11
8255,-24,248,-2072,51,2,-11
8260,-56,304,-2080,50,1,-10
8265,-32,256,-2024,49,1,-10
8270,-32,216,-2072,50,1,-9
8275,-48,224,-2024,50,1,-11
8280,-32,224,-2056,50,2,-12
8285,-72,240,-2024,48,3,-11
8290,-24,240,-2088,49,2,-11
8295,-32,192,-2048,50,3,-11
8300,-32,232,-2056,50,2,-10
8305,-40,240,-2072,49,3,-11
8310,-40,240,-2024,49,3,-11
8315,-32,224,-2048,49,5,-10
8320,-48,224,-2072,49,5,-12
8325,-40,240,-2056,49,5,-11
8330,-40,240,-2032,50,5,-10
8335,-40,232,-2056,49,5,-10
8340,-32,232,-2064,49,4,-10
8345,-24,216,-2056,49,5,-12
8350,-24,232,-2064,48,5,-11
8355,-48,240,-2064,47,5,-13
8360,-40,248,-2056,50,5,-11
8365,-24,208,-2072,49,5,-10
8370,-56,216,-1976,49,5,-10
8375,-32,216,-2048,49,4,-11
8380,8,336,-2088,61,-5,-13
8385,-16,200,-2048,74,-24,-18
8390,-48,208,-2048,59,-11,-16
8395,-32,216,-2072,52,1,-13
8400,-64,240,-2088,53,2,-12
8405,-24,208,-2064,50,4,-12
8410,-40,240,-2040,47,4,-10
8415,-56,248,-2040,48,8,-10
8420,-80,256,-2064,50,10,-11
8425,-48,240,-2064,50,10,-11
8430,-32,232,-2040,50,10,-10
8435,-32,248,-2056,49,10,-11
8440,-32,232,-2040,50,8,-10
8445,-32,224,-2064,50,9,-10
8450,-32,232,-2056,51,7,-11
8455,-40,240,-2072,49,5,-12
8460,-48,232,-2040,49,4,-12
8465,-40,224,-2056,49,2,-12
8470,-24,232,-2080,47,1,-9
8475,-24,240,-2080,48,0,-10
8480,-32,256,-2032,49,-2,-11
8485,-32,248,-2040,48,-3,-11
8490,-32,248,-2064,49,-2,-11
8495,-56,248,-2064,50,-4,-10
8500,-24,192,-2048,49,-1,-9
8505,-32,240,-2048,47,-1,-10
8510,-56,248,-2056,47,-1,-11
8515,-88,232,-2048,47,-2,-10
8520,-64,216,-2056,49,-2,-11
8525,-56,248,-2032,50,-4,-11
8530,-56,312,-2040,48,-4,-11
8535,-32,216,-2032,48,-6,-9
8540,-32,240,-2048,48,-5,-9
8545,-64,256,-2040,47,-5,-11
8550,-32,216,-2032,46,-2,-10
8555,-48,232,-2056,45,-1,-10
8560,-64,256,-2032,44,0,-11
8565,-40,208,-2040,47,2,-11
8570,-48,224,-2064,51,3,-11
8575,-32,224,-2088,55,3,-11
8580,-32,224,-2024,55,2,-12
8585,-32,232,-2064,54,5,-10
8590,-8,296,-2072,61,-4,-12
8595,-32,184,-2056,69,-12,-14
8600,-40,200,-2088,55,-5,-11
8605,-72,248,-2040,50,0,-11
8610,-64,240,-2016,52,1,-10
8615,-48,224,-2040,49,0,-11
8620,-72,256,-2040,48,2,-13
8625,-56,240,-2064,48,3,-11
8630,-32,200,-2104,50,5,-11
8635,-56,224,-2096,51,5,-10
8640,-32,240,-2080,52,4,-11
8645,-32,224,-2064,51,4,-12
8650,-48,240,-2040,52,5,-11
8655,-40,232,-2024,53,5,-10
8660,-48,248,-2064,52,3,-10
8665,-32,224,-2048,50,4,-11
8670,-48,240,-2064,51,4,-10
8675,-40,232,-2040,51,4,-10
8680,-48,208,-2072,50,4,-11
8685,-40,248,-2080,50,5,-11
8690,-64,224,-2040,49,4,-11
8695,-32,232,-2048,50,3,-11
8700,-40,216,-2064,49,3,-11
8705,-48,224,-2048,49,4,-11
8710,-32,224,-2024,49,5,-10
8715,-48,264,-2040,50,5,-12
8720,-32,256,-2056,51,5,-11
8725,-32,232,-2064,51,8,-12
8730,-40,248,-2096,49,7,-11
8735,-40,208,-2048,50,8,-11
8740,-64,240,-2048,50,8,-12
8745,-56,216,-2024,49,9,-10
8750,-32,232,-2096,50,10,-10
8755,-40,248,-2056,51,10,-12
8760,-32,240,-2064,51,10,-10
8765,-40,208,-2064,49,10,-12
8770,-24,192,-2048,51,10,-11
8775,-32,216,-2064,49,11,-10
8780,-32,216,-2040,48,11,-9
8785,-32,248,-2056,48,10,-10
8790,-48,216,-2032,49,11,-10
8795,-136,232,-2056,49,11,-10
8800,-64,240,-2056,49,11,-10
8805,-40,248,-2056,49,10,-11
8810,-32,232,-2032,50,11,-12
8815,-32,232,-2056,48,10,-12
8820,-48,232,-2040,47,10,-11
8825,-40,216,-2056,50,8,-11
8830,-32,240,-2072,49,10,-10
8835,-72,248,-2056,50,10,-12
8840,-72,200,-2064,50,10,-12
8845,-48,240,-2064,50,12,-11
8850,-40,216,-2048,50,12,-11
8855,-48,240,-2072,51,13,-11
8860,-40,224,-2064,49,14,-10
8865,-64,240,-2080,49,13,-9
8870,-32,216,-2024,48,14,-10
8875,-56,224,-2064,48,14,-11
8880,-40,224,-2056,46,16,-11
8885,-64,232,-2056,46,17,-10
8890,-56,240,-2032,46,17,-9
8895,-48,200,-2056,44,20,-9
8900,-56,200,-2088,45,20,-10
8905,-40,248,-2048,45,20,-10
8910,-32,256,-2072,45,20,-9
8915,-32,240,-2072,46,21,-8
8920,-32,248,-2056,48,20,-9
8925,-40,216,-2048,48,21,-10
8930,-40,248,-2040,49,22,-9
8935,-64,232,-2064,49,24,-8
8940,-80,256,-2064,50,26,-8
8945,-40,208,-2048,50,25,-8
8950,-32,216,-2056,50,25,-8
8955,-88,232,-2064,52,25,-8
8960,-32,208,-2048,51,25,-7
8965,-40,216,-2056,50,25,-8
8970,-48,208,-2064,49,26,-9
8975,-40,224,-2056,50,26,-10
8980,-40,232,-2064,50,27,-9
8985,-56,256,-2064,49,28,-7
8990,-32,208,-2032,51,27,-7
8995,-32,216,-2048,51,27,-7
9000,-40,224,-2064,52,29,-9
9005,-48,232,-2048,52,29,-8
9010,-24,216,-2024,52,30,-9
9015,-48,240,-2056,51,29,-10
9020,-32,224,-2040,51,28,-8
9025,-32,232,-2040,51,29,-8
9030,-32,224,-2024,52,28,-8
9035,-56,232,-2064,52,27,-7
9040,-72,256,-2072,50,27,-8
9045,-32,224,-2056,49,25,-8
9050,-32,224,-2040,48,24,-8
9055,-40,240,-2064,47,25,-8
9060,-40,216,-2048,46,25,-8
9065,-24,216,-2048,46,26,-9
9070,-64,216,-2072,48,26,-8
9075,-32,224,-2072,51,25,-9
9080,-32,216,-2064,53,25,-10
9085,-64,224,-2072,52,24,-10
9090,-48,240,-2040,48,25,-10
9095,-32,232,-2032,46,23,-9
9100,-24,192,-2048,44,24,-9
9105,-56,232,-2056,46,21,-9
9110,-48,248,-2032,45,21,-10
9115,-56,232,-2064,46,20,-9
9120,-56,232,-2040,44,22,-10
9125,-24,248,-2064,46,22,-9
9130,-24,216,-2056,46,22,-9
9135,-32,248,-2056,46,24,-8
9140,-40,248,-2048,47,22,-8
9145,-64,232,-2040,47,23,-8
9150,-48,248,-2064,48,23,-9
9155,-32,256,-2040,47,24,-9
9160,-32,232,-2056,46,22,-9
9165,-48,240,-2088,47,22,-7
9170,-32,256,-2056,47,22,-9
9175,-32,208,-2080,46,22,-9
9180,-40,224,-2056,46,21,-10
9185,-48,224,-2056,44,20,-9
9190,-48,224,-2056,44,20,-9
9195,-32,216,-2040,45,20,-9
9200,-24,232,-2040,44,18,-8
9205,-32,240,-2032,44,19,-10
9210,-56,216,-2072,45,18,-8
9215,-40,224,-2024,46,17,-9
9220,-80,224,-2048,46,18,-9
9225,-32,240,-2080,46,17,-10
9230,-24,216,-2056,47,19,-10
9235,-32,224,-2056,48,18,-9
9240,-32,256,-2056,47,17,-10
9245,-48,232,-2024,47,18,-11
9250,-32,232,-2072,48,18,-11
9255,-56,256,-2064,48,16,-10
9260,-48,224,-2064,49,15,-10
9265,-32,240,-2040,50,14,-9
9270,-56,256,-2040,49,14,-7
9275,-32,200,-2016,48,15,-8
9280,-24,232,-2032,48,15,-9
9285,-32,240,-2032,48,14,-12
9290,-48,232,-2056,48,14,-10
9295,-32,208,-2056,48,12,-10
9300,-32,224,-2024,49,14,-12
9305,-32,240,-2096,48,11,-11
9310,-56,208,-2064,48,13,-11
9315,-56,240,-2040,47,12,-12
9320,-88,232,-2024,47,12,-11
9325,-24,248,-2072,48,12,-11
9330,-48,200,-2048,47,12,-11
9335,-32,232,-2064,49,12,-11
9340,-48,240,-2056,49,12,-10
9345,-32,224,-2056,49,13,-11
9350,-40,224,-2072,49,14,-10
9355,-24,224,-2056,48,15,-9
9360,-32,208,-2048,48,16,-9
9365,-16,224,-2064,47,17,-10
9370,-48,240,-2064,49,18,-9
9375,-32,200,-2040,48,18,-9
9380,-48,192,-2000,48,18,-9
9385,-32,216,-2032,49,17,-10
9390,-32,224,-2048,49,17,-9
9395,-48,224,-2064,49,17,-10
9400,-32,240,-2056,50,17,-9
9405,-32,224,-2048,49,16,-9
9410,-32,224,-2056,49,17,-10
9415,-32,272,-2072,49,17,-9
9420,-16,240,-2032,49,16,-8
9425,-56,216,-2064,49,16,-9
9430,-32,232,-2048,47,17,-9
9435,-56,232,-2048,48,16,-8
9440,-48,216,-2064,49,17,-10
9445,-32,224,-2048,48,18,-8
9450,-48,240,-2048,49,18,-9
9455,-40,224,-2040,50,18,-8
9460,-40,224,-2072,48,19,-7
9465,-48,240,-2080,47,18,-8
9470,-32,240,-2072,46,19,-6
9475,-16,224,-2032,45,19,-8
9480,-56,224,-2056,47,20,-8
9485,-48,232,-2016,46,18,-9
9490,-8,216,-2000,48,17,-9
9495,-40,248,-2032,50,16,-8
9500,-24,232,-2064,51,16,-8
9505,-40,232,-2064,51,16,-8
9510,-32,232,-2072,52,16,-10
9515,-32,232,-2048,53,17,-8
9520,-32,256,-2048,50,18,-9
9525,-40,240,-2072,48,18,-9
9530,-24,224,-2048,48,17,-10
9535,-24,200,-2048,49,17,-9
9540,-48,208,-2056,50,16,-9
9545,-32,224,-2064,48,14,-9
9550,-32,216,-2048,45,15,-11
9555,-32,240,-2040,43,15,-9
9560,-32,232,-2024,43,18,-10
9565,-32,224,-2048,42,17,-10
9570,-32,248,-2008,45,18,-10
9575,-32,208,-2048,50,17,-10
9580,-40,224,-2056,52,16,-8
9585,-48,240,-2072,50,16,-10
9590,-48,240,-2088,47,19,-9
9595,-48,288,-2048,48,18,-10
9600,-24,224,-2032,47,17,-9
9605,-24,216,-2072,48,18,-8
9610,-32,240,-2056,48,17,-10
9615,-32,240,-2064,48,17,-10
9620,-40,216,-2032,47,15,-9
9625,-32,224,-2048,47,17,-9
9630,-64,240,-2040,49,17,-10
9635,-32,240,-2080,49,15,-9
9640,-32,232,-2056,50,14,-8
9645,-24,224,-2024,52,15,-8
9650,-64,272,-2064,52,14,-11
9655,-32,248,-2040,53,12,-10
9660,-24,216,-2064,53,11,-9
9665,-48,240,-2080,54,9,-9
9670,-32,216,-2056,53,9,-10
9675,-32,256,-2072,53,9,-10
9680,-40,232,-2056,53,10,-10
9685,-32,192,-2048,54,9,-9
9690,-48,256,-2056,53,10,-9
9695,-16,224,-2048,54,11,-8
9700,-40,216,-2064,54,10,-9
9705,-24,216,-2056,54,9,-9
9710,-40,208,-2048,56,9,-10
9715,-32,224,-2080,55,10,-9
9720,-40,232,-2064,53,12,-11
9725,-32,216,-2040,54,12,-10
9730,-32,232,-2064,55,12,-9
9735,-24,216,-2040,54,12,-11
9740,-16,240,-2032,53,12,-11
9745,-32,240,-2088,53,13,-11
9750,-32,224,-2056,52,13,-9
9755,-8,304,-2072,52,12,-10
9760,-40,216,-2040,51,12,-11
9765,-24,240,-2072,50,10,-11
9770,-40,232,-2056,51,10,-10
9775,-16,216,-2040,52,9,-12
9780,-40,232,-2048,52,10,-10
9785,-32,240,-2064,52,11,-10
9790,-32,232,-2064,51,11,-9
9795,-32,216,-2080,49,12,-11
9800,-48,200,-2024,50,12,-13
9805,-32,208,-2072,50,10,-11
9810,-32,216,-2040,50,12,-10
9815,-56,224,-2064,49,11,-11
9820,-24,240,-2048,48,13,-10
9825,-32,232,-2056,49,12,-11
9830,-32,216,-2048,49,12,-10
9835,-40,224,-2064,50,12,-10
9840,-32,240,-2104,49,11,-10
9845,-64,224,-2072,50,11,-10
9850,-40,232,-2048,49,10,-10
9855,-32,232,-2080,50,10,-10
9860,-48,224,-2088,50,9,-10
9865,-32,216,-2040,50,10,-11
9870,-24,224,-2024,50,10,-11
9875,-40,200,-2056,50,9,-10
9880,-32,256,-2072,51,10,-12
9885,-32,240,-2064,50,11,-10
9890,-32,232,-2048,51,10,-10
9895,-32,216,-2048,50,10,-11
9900,-32,248,-2040,50,11,-10
9905,-40,240,-2064,50,11,-12
9910,-32,224,-2040,49,12,-9
9915,-40,240,-2048,50,11,-10
9920,-48,232,-2040,51,11,-10
9925,-32,208,-2040,51,10,-10
9930,-32,216,-2056,52,10,-12
9935,-32,240,-2072,53,9,-10
9940,-32,232,-2048,52,9,-11
9945,-32,224,-2064,52,10,-11
9950,-48,248,-2032,52,10,-11
9955,-16,216,-2056,52,9,-9
9960,-16,208,-2040,50,10,-10
9965,-48,216,-2056,50,10,-10
9970,-64,232,-2080,50,10,-11
9975,-32,224,-2064,50,10,-11
9980,-48,232,-2040,49,11,-10
9985,-40,208,-2064,50,9,-9
9990,-32,224,-2056,51,9,-9
9995,-32,240,-2088,52,8,-10
10000,-24,240,-2080,54,8,-10
10005,-32,240,-2048,52,9,-9
10010,-32,208,-2032,53,9,-10
10015,-40,232,-2040,53,9,-10
10020,-48,224,-2056,53,11,-13
10025,-32,224,-2048,51,11,-11
10030,-32,232,-2080,51,14,-10
10035,-40,224,-2064,51,12,-10
10040,-40,216,-2072,53,12,-10
10045,-32,232,-2064,53,11,-10
10050,-40,224,-2056,53,11,-10
10055,-32,256,-2040,51,11,-11
10060,-32,224,-2016,49,11,-12
10065,-48,256,-2040,47,13,-11
10070,-40,232,-2048,48,12,-10
10075,-88,240,-2056,51,11,-11
10080,-48,232,-2048,56,10,-10
10085,-48,232,-2072,56,9,-9
10090,-32,240,-2080,56,10,-10
10095,-32,240,-2072,53,9,-12
10100,-48,248,-2048,52,9,-10
10105,-24,224,-2072,52,9,-10
10110,-24,208,-2032,53,9,-9
10115,-64,248,-2064,53,8,-11
10120,-32,208,-2056,53,8,-11
10125,-40,208,-2024,53,8,-11
10130,-72,280,-2112,53,11,-10
10135,-32,240,-2048,55,11,-10
10140,-32,216,-2088,55,10,-11
10145,-24,240,-2088,56,10,-12
10150,-24,232,-2080,56,9,-11
10155,-32,232,-2064,55,8,-10
10160,-32,232,-2064,54,9,-10
10165,-56,208,-2048,54,8,-12
10170,-24,224,-2064,53,8,-11
10175,-24,240,-2048,54,8,-10
10180,-16,192,-1992,53,8,-11
10185,-32,248,-2064,52,7,-11
10190,-24,224,-2048,51,8,-10
10195,-48,240,-2032,51,8,-11
10200,-32,224,-2048,52,6,-10
10205,-32,224,-2072,54,8,-11
10210,-32,208,-2064,52,7,-10
10215,-32,216,-2064,52,8,-10
10220,-32,224,-2064,53,9,-10
10225,-40,232,-2064,52,8,-10
10230,-56,256,-2072,53,10,-11
10235,-80,256,-2080,52,11,-10
10240,-40,240,-2088,53,15,-9
10245,-24,224,-2016,53,25,-8
10250,-32,240,-2088,55,17,-11
10255,-32,224,-2040,52,12,-10
10260,-32,264,-2056,51,9,-11
10265,-8,200,-2080,52,9,-11
10270,-104,200,-2080,56,19,-9
10275,0,208,-2040,60,28,-5
10280,-40,232,-2072,56,15,-7
10285,-32,216,-2080,54,11,-10
10290,-80,192,-2040,52,7,-11
10295,-32,240,-2032,51,7,-12
10300,-48,264,-2072,51,8,-10
10305,-32,224,-2056,51,8,-12
10310,-24,200,-2072,50,9,-12
10315,-24,240,-2032,51,9,-10
10320,-48,208,-2072,52,8,-10
10325,-16,216,-2064,52,9,-10
10330,-40,248,-2064,51,10,-9
10335,-24,240,-2032,50,9,-10
10340,-56,264,-2104,49,10,-10
10345,-32,224,-2056,51,11,-10
10350,-40,240,-2104,51,13,-11
10355,-32,248,-2024,50,12,-10
10360,-32,216,-2080,51,12,-10
10365,-16,216,-2040,52,12,-11
10370,-32,240,-2048,51,12,-10
10375,-24,224,-2048,51,12,-10
10380,-32,216,-2024,52,11,-9
10385,-40,208,-2040,52,9,-11
10390,-16,216,-2032,52,9,-10
10395,-24,184,-2048,51,9,-10
10400,-32,216,-2064,50,9,-11
10405,-32,240,-2048,51,9,-12
10410,-24,192,-2040,50,8,-11
10415,-32,216,-2032,51,10,-10
10420,-40,216,-2080,49,9,-10
10425,-40,240,-2040,50,10,-10
10430,-40,248,-2080,49,9,-9
10435,-32,232,-2072,49,10,-10
10440,-24,208,-2040,50,10,-11
10445,-48,216,-2040,51,11,-11
10450,-64,208,-2088,52,9,-11
10455,-32,216,-2048,53,11,-10
10460,-32,224,-2064,52,11,-9
10465,-24,240,-2064,54,10,-8
10470,-40,232,-2056,52,10,-10
10475,-48,240,-2024,50,11,-9
10480,-40,248,-2032,50,10,-9
10485,-48,224,-2040,50,10,-9
10490,-32,192,-2048,49,10,-11
10495,-48,248,-2088,49,11,-10
10500,-64,216,-2024,50,10,-10
10505,-48,240,-2040,51,10,-11
10510,-48,224,-2056,52,11,-10
10515,-48,240,-2056,50,11,-10
10520,-32,256,-2048,49,11,-9
10525,-40,232,-2080,50,12,-10
10530,-32,240,-2040,50,13,-10
10535,-24,216,-2040,50,14,-10
10540,-32,216,-2016,50,12,-10
10545,-24,240,-2056,51,12,-11
10550,-40,224,-2048,51,12,-9
10555,-56,168,-2064,50,11,-11
10560,-24,240,-2072,48,13,-9
10565,-32,232,-2040,47,11,-11
10570,-40,216,-2056,46,13,-9
10575,-32,200,-2056,45,15,-10
10580,-32,216,-2064,47,16,-11
10585,-40,216,-2064,51,16,-11
10590,-24,208,-2080,55,15,-11
10595,-48,240,-2072,54,13,-10
10600,-40,216,-2064,52,11,-11
10605,-24,216,-2056,51,11,-10
10610,-32,192,-1992,51,9,-10
10615,-40,232,-2064,50,9,-11
10620,-32,240,-2056,49,7,-10
10625,-32,224,-2048,49,9,-11
10630,-32,192,-2064,48,9,-11
10635,-48,232,-2048,48,8,-10
10640,-48,216,-2088,50,8,-9
10645,-24,216,-2064,49,8,-11
10650,-48,216,-2064,50,9,-11
10655,-32,240,-2064,51,9,-12
10660,-40,192,-2088,51,10,-12
10665,-32,208,-2072,50,11,-12
10670,-48,224,-2064,48,10,-10
10675,-32,248,-2056,51,11,-12
10680,-24,232,-2024,51,10,-11
10685,-72,256,-2048,50,10,-10
10690,-40,240,-2048,49,10,-11
10695,-40,240,-2056,50,10,-9
10700,-24,192,-2024,51,10,-11
10705,-32,224,-2056,50,9,-9
10710,-32,200,-2032,50,7,-9
10715,-72,224,-2112,50,8,-10
10720,-40,208,-2040,50,9,-11
10725,-40,248,-2072,50,10,-11
10730,-32,224,-2056,51,10,-10
10735,-32,224,-2064,51,10,-11
10740,-32,232,-2048,51,10,-10
10745,-32,240,-2048,50,11,-10
10750,-32,232,-2056,50,9,-10
10755,-40,240,-2048,51,11,-11
10760,-8,200,-2016,50,11,-11
10765,-32,240,-2056,49,11,-10
10770,-72,192,-2056,48,11,-9
10775,-32,200,-2032,50,12,-8
10780,-32,216,-2040,50,12,-9
10785,-40,200,-2056,50,11,-9
10790,-40,208,-2080,50,12,-10
10795,-48,224,-2040,48,12,-10
10800,-40,208,-2048,48,11,-10
10805,-48,208,-2048,49,11,-11
10810,-32,208,-2040,49,10,-11
10815,-32,216,-2072,50,11,-11
10820,-32,192,-2032,50,10,-11
10825,-32,224,-2080,50,10,-10
10830,-64,232,-2040,49,10,-11
10835,-40,232,-2072,50,11,-10
10840,-32,240,-2032,48,11,-10
10845,-40,224,-2040,48,11,-11
10850,-32,216,-2040,49,11,-11
10855,-40,240,-2040,49,10,-10
10860,-24,232,-2056,51,8,-11
10865,-32,216,-2064,51,9,-12
10870,-16,208,-2032,51,7,-10
10875,-32,208,-2072,50,8,-10
10880,-56,232,-2048,51,7,-13
10885,-32,200,-2048,51,8,-11
10890,-32,216,-2040,49,9,-11
10895,-32,248,-2080,49,9,-11
10900,-32,232,-2064,49,11,-11
10905,-48,216,-2072,50,12,-10
10910,-24,240,-2024,50,12,-10
10915,-32,256,-2072,49,11,-9
10920,-24,240,-2064,50,10,-9
10925,-32,232,-1992,51,10,-10
10930,-16,224,-2024,49,12,-10
10935,-48,232,-2040,50,12,-9
10940,-32,224,-2032,50,11,-11
10945,-24,208,-2072,49,12,-10
10950,-40,232,-2056,50,11,-11
10955,-48,240,-2048,50,12,-11
10960,-8,200,-2064,50,13,-10
10965,-40,216,-2040,51,13,-9
10970,-72,248,-2040,50,12,-10
10975,-72,232,-2056,50,11,-9
10980,-16,200,-2000,50,12,-8
10985,-48,216,-2040,50,12,-10
10990,-32,232,-2056,49,12,-11
10995,-40,208,-2040,49,12,-10
11000,-40,232,-2056,49,12,-10
11005,-48,232,-2080,48,11,-10
11010,-56,240,-2048,49,13,-10
11015,-24,232,-2064,48,13,-9
11020,-32,224,-2040,49,12,-9
11025,-40,240,-2032,49,12,-10
11030,-72,232,-2056,50,13,-9
11035,-48,248,-2024,48,15,-10
11040,-56,248,-2064,48,15,-9
11045,-32,232,-2072,48,17,-11
11050,-32,216,-2040,47,15,-11
11055,-32,224,-2040,49,15,-11
11060,-32,200,-2048,49,15,-9
11065,-32,232,-2056,49,15,-10
11070,-32,216,-2040,48,14,-10
11075,-48,232,-2032,47,15,-10
11080,-32,248,-2032,46,15,-9
11085,-24,176,-2016,44,16,-9
11090,-40,200,-2080,44,17,-10
11095,-32,216,-2032,45,19,-11
11100,-40,224,-2080,46,19,-11
11105,-32,232,-2056,50,18,-9
11110,-32,240,-2048,49,18,-11
11115,-32,248,-2056,48,19,-10
11120,-32,232,-2024,46,18,-10
11125,-32,240,-2072,45,18,-9
11130,-40,200,-2040,44,17,-10
11135,-64,216,-2064,45,18,-11
11140,-32,216,-1992,45,18,-10
11145,-24,224,-2056,44,18,-10
11150,-32,216,-2072,44,19,-10
11155,-32,224,-2056,44,19,-10
11160,-40,224,-2064,46,20,-10
11165,-24,232,-2048,47,20,-7
11170,-40,232,-2096,46,18,-10
11175,-24,216,-2040,45,19,-10
11180,-32,232,-2024,44,18,-10
11185,-56,248,-2048,43,17,-9
11190,-32,240,-2048,43,17,-8
11195,-64,240,-2072,41,17,-9
11200,-40,216,-2048,42,17,-9
11205,-32,216,-2056,42,17,-9
11210,-32,216,-2056,42,16,-8
11215,-48,232,-2056,44,17,-8
11220,-48,248,-2056,44,16,-7
11225,-32,240,-2056,43,15,-6
11230,-40,192,-2064,44,16,-7
11235,-40,216,-2040,44,16,-8
11240,-32,232,-2040,45,16,-9
11245,-48,224,-2040,43,16,-8
11250,-48,200,-2048,43,16,-10
11255,-32,224,-2064,45,16,-8
11260,-48,240,-2032,44,17,-8
11265,-48,232,-2064,44,16,-10
11270,-24,216,-2056,44,17,-10
11275,-32,256,-2056,43,18,-11
11280,-32,200,-2048,41,19,-10
11285,-56,240,-2032,41,18,-9
11290,-48,224,-2064,44,18,-10
11295,-72,256,-2032,45,17,-10
11300,-56,208,-2032,45,16,-10
11305,-32,224,-2056,45,18,-10
11310,-40,248,-2056,44,18,-9
11315,-32,224,-2056,45,19,-9
11320,-32,224,-2040,45,20,-9
11325,-24,248,-2048,45,19,-8
11330,-32,216,-2040,45,18,-10
11335,-24,224,-2064,44,19,-10
11340,-48,240,-2072,43,18,-10
11345,-48,240,-2072,45,19,-10
11350,-32,216,-2024,45,18,-9
11355,-32,216,-2000,44,17,-8
11360,-48,224,-2048,45,15,-9
11365,-32,240,-2048,44,15,-9
11370,-48,256,-2056,46,16,-9
11375,-32,224,-2064,46,15,-9
11380,-32,232,-2064,46,15,-9
11385,-24,224,-2064,45,13,-10
11390,-48,224,-2064,45,14,-8
11395,-32,224,-2056,45,14,-9
11400,-40,216,-2048,45,14,-9
11405,-32,256,-2096,44,15,-9
11410,-88,208,-2048,43,14,-9
11415,-40,240,-2088,43,16,-10
11420,-40,248,-2048,44,15,-10
11425,-56,224,-2040,45,15,-11
11430,-32,240,-2064,46,16,-10
11435,-32,232,-2064,47,15,-9
11440,-48,256,-2072,45,16,-9
11445,-56,232,-2016,45,15,-8
11450,-48,248,-2064,46,15,-11
11455,-48,248,-2080,46,14,-8
11460,-32,192,-2032,46,15,-10
11465,-32,232,-2056,46,14,-8
11470,-32,248,-2072,47,16,-10
11475,-32,232,-2072,47,15,-9
11480,-24,232,-2048,47,15,-10
11485,-24,248,-2048,48,15,-9
11490,-40,240,-2040,48,15,-9
11495,-32,208,-2032,48,15,-10
11500,-32,232,-2024,48,15,-10
11505,-24,224,-2064,48,15,-10
11510,-48,264,-2080,48,14,-11
11515,-40,248,-2072,47,16,-11
11520,-24,248,-2064,45,15,-12
11525,-24,232,-2048,44,16,-9
11530,-32,200,-2056,45,15,-11
11535,-8,216,-2056,46,16,-10
11540,-56,256,-2096,47,16,-9
11545,-32,232,-2064,48,16,-9
11550,-32,256,-2016,50,16,-10
11555,-32,232,-2048,52,15,-11
11560,-24,208,-2016,52,14,-12
11565,-32,224,-2104,50,15,-12
11570,-64,256,-2008,48,15,-10
11575,-32,208,-2040,47,16,-8
11580,-32,232,-2056,48,17,-9
11585,-32,240,-2072,49,15,-9
11590,-24,232,-2048,49,17,-8
11595,-32,224,-2064,48,17,-9
11600,-48,240,-2040,45,16,-8
11605,-48,248,-2032,44,16,-9
11610,-48,232,-2032,41,18,-10
11615,-32,256,-2064,41,19,-10
11620,-64,240,-2000,46,19,-11
11625,-40,240,-2056,51,17,-10
11630,-56,240,-2080,52,16,-10
11635,-32,248,-2056,52,16,-10
11640,-32,216,-2064,49,16,-10
11645,-24,232,-2064,46,16,-12
11650,-32,208,-2064,48,17,-12
11655,-48,216,-2064,48,16,-10
11660,-32,208,-2080,48,15,-9
11665,-48,248,-2064,49,15,-8
11670,-40,232,-2072,49,16,-8
11675,-24,232,-2040,48,16,-8
11680,-40,240,-2080,48,17,-9
11685,-32,240,-2064,50,16,-8
11690,-40,240,-2056,51,16,-9
11695,-32,232,-2056,52,16,-8
11700,-56,248,-2024,52,16,-9
11705,-32,216,-2048,50,16,-9
11710,-40,256,-2056,50,16,-9
11715,-24,232,-2040,48,16,-10
11720,-24,224,-2024,49,15,-9
11725,-24,224,-2048,48,15,-9
11730,-24,232,-2024,49,15,-7
11735,-32,208,-2064,49,14,-9
11740,-24,224,-2040,49,14,-10
11745,-32,240,-2072,49,15,-8
11750,-32,232,-2072,49,15,-10
11755,-24,232,-2064,50,16,-9
11760,-32,232,-2048,50,14,-10
11765,-56,248,-2064,51,15,-9
11770,-40,200,-2056,52,15,-9
11775,-24,248,-2048,51,13,-9
11780,-8,240,-2048,53,15,-8
11785,-80,232,-1992,51,14,-9
11790,-48,232,-2056,52,15,-9
11795,-32,248,-2080,53,13,-11
11800,-32,232,-2064,53,14,-10
11805,-32,232,-2088,54,13,-12
11810,-32,232,-2056,54,12,-11
11815,-32,216,-2056,54,12,-12
11820,-32,224,-2064,54,12,-12
11825,-40,256,-2056,55,10,-10
11830,-32,240,-2088,56,10,-10
11835,-40,232,-2048,57,10,-9
11840,-40,224,-2032,58,10,-10
11845,-32,224,-2056,56,10,-11
11850,-40,224,-2016,53,11,-11
11855,-32,240,-2064,53,10,-11
11860,-32,224,-2048,53,11,-11
11865,-16,224,-2048,53,10,-11
11870,-32,216,-2056,52,9,-12
11875,-32,240,-2040,52,8,-11
11880,-48,240,-2056,52,9,-11
11885,-40,232,-2072,51,9,-11
11890,-40,264,-2056,51,9,-12
11895,-24,216,-2080,51,9,-12
11900,-32,232,-2064,51,8,-11
11905,-32,248,-2048,50,7,-10
11910,-32,224,-2080,51,7,-12
11915,-40,256,-2064,51,8,-13
11920,-24,248,-2072,50,8,-13
11925,-32,216,-2080,51,6,-11
11930,-32,232,-2104,51,8,-10
11935,-48,232,-2040,50,9,-11
11940,-56,256,-2040,51,8,-11
11945,-32,256,-2064,51,9,-11
11950,-48,248,-2072,51,9,-11
11955,-32,248,-2072,51,8,-11
11960,-32,232,-2016,51,7,-12
11965,-32,248,-2056,52,8,-11
11970,-32,224,-2040,52,9,-10
11975,-32,224,-2064,52,7,-13
11980,-48,224,-2048,52,7,-12
11985,-32,208,-2048,53,7,-11
11990,-32,208,-2064,55,7,-10
11995,0,248,-2096,53,7,-11
12000,-24,200,-2040,53,7,-11
12005,-32,240,-2072,52,7,-11
12010,-48,248,-2088,51,8,-10
12015,-32,232,-2072,51,9,-11
12020,-32,216,-2056,51,10,-11
12025,-40,232,-2056,52,10,-11
12030,-40,208,-2056,52,9,-11
12035,-48,240,-2040,51,10,-10
12040,-32,248,-2032,51,9,-11
12045,-40,216,-2072,50,9,-10
12050,40,248,-2064,51,8,-10
12055,-24,216,-2040,52,9,-10
12060,-32,240,-2064,52,8,-11
12065,-24,256,-2056,54,9,-11
12070,-32,240,-2056,53,8,-11
12075,-40,232,-2056,53,7,-11
12080,-32,216,-2064,54,8,-11
12085,-48,232,-2064,55,10,-11
12090,-48,200,-2032,53,10,-11
12095,-32,232,-2072,52,11,-11
12100,-40,272,-2072,51,10,-11
12105,-40,216,-2064,51,9,-11
12110,-24,224,-2048,51,9,-12
12115,-32,224,-2056,51,8,-11
12120,-24,216,-2048,49,8,-11
12125,-40,240,-2040,48,8,-11
12130,-32,216,-2056,47,10,-10
12135,-24,208,-2056,47,10,-10
12140,-64,248,-2056,48,11,-12
12145,-32,248,-2080,52,11,-11
12150,-64,232,-2072,52,11,-13
12155,-32,224,-2072,49,11,-11
12160,-48,224,-2040,44,13,-11
12165,-32,240,-2032,41,15,-12
12170,-56,240,-2056,39,17,-11
12175,-32,232,-2048,36,18,-10
12180,-32,248,-2040,35,23,-10
12185,-32,232,-2064,34,26,-12
12190,-40,200,-2048,34,27,-12
12195,-40,232,-2072,36,31,-10
12200,-40,224,-2048,40,32,-10
12205,-16,216,-2056,43,30,-9
12210,-8,200,-2040,45,29,-9
12215,-32,248,-2048,45,28,-10
12220,-40,232,-2048,46,26,-11
12225,-24,216,-2080,47,24,-11
12230,-40,224,-2080,46,22,-9
12235,-40,232,-2056,46,22,-10
12240,-24,232,-2048,46,22,-11
12245,-48,240,-2056,46,21,-11
12250,-24,232,-2056,48,21,-9
12255,-32,200,-2064,48,22,-9
12260,-48,192,-2096,48,21,-9
12265,-48,240,-2024,48,21,-10
12270,-24,224,-2056,48,19,-9
12275,-32,224,-2064,47,18,-11
12280,-32,216,-2040,48,17,-11
12285,-24,208,-2048,48,16,-10
12290,-32,240,-2088,49,16,-8
12295,-32,240,-2016,50,16,-9
12300,-64,240,-2056,50,15,-11
12305,-48,240,-2080,50,14,-11
12310,-48,240,-2064,51,13,-9
12315,-56,200,-2088,51,11,-10
12320,-32,224,-2040,50,12,-11
12325,-32,192,-2048,49,12,-10
12330,-32,240,-2072,49,12,-10
12335,-32,232,-2040,47,13,-10
12340,-32,240,-2064,47,11,-10
12345,-32,232,-2056,47,11,-9
12350,-40,240,-2048,49,11,-10
12355,-32,240,-2032,50,11,-10
12360,-32,232,-2080,50,11,-10
12365,-24,232,-2056,51,12,-11
12370,-48,208,-2072,52,11,-10
12375,-32,240,-2056,52,11,-10
12380,-32,216,-2048,51,11,-10
12385,-24,216,-2072,51,12,-10
12390,-24,224,-2048,50,12,-12
12395,-32,232,-2040,49,12,-9
12400,-40,232,-2064,49,13,-10
12405,-32,200,-2040,49,13,-12
12410,0,216,-2024,47,11,-10
12415,-24,232,-2064,48,11,-12
12420,-56,176,-2080,48,10,-11
12425,-24,240,-2056,48,10,-13
12430,-24,224,-2064,48,9,-11
12435,-32,224,-2048,49,10,-12
12440,-48,240,-2088,50,10,-12
12445,-48,224,-2040,49,9,-12
12450,-24,248,-2048,50,8,-11
12455,-24,232,-2056,49,8,-11
12460,-32,272,-2048,48,8,-9
12465,-32,224,-2064,49,8,-11
12470,-48,232,-2056,47,9,-11
12475,-32,264,-2024,47,10,-12
12480,-48,232,-2064,47,11,-11
12485,-24,216,-2040,47,11,-11
12490,-48,232,-2088,48,13,-11
12495,-40,216,-2056,48,12,-11
12500,-40,232,-2064,49,12,-11
12505,-32,232,-2048,49,12,-11
12510,-32,248,-2072,51,12,-10
12515,-48,232,-2056,51,12,-10
12520,-48,232,-2048,50,14,-10
12525,-32,240,-2096,50,15,-10
12530,-16,256,-2056,52,15,-10
12535,-48,224,-2040,52,15,-11
12540,-32,224,-2000,50,17,-12
12545,-16,224,-2064,51,16,-12
12550,-32,224,-2056,51,16,-10
12555,-32,232,-2040,51,15,-9
12560,-8,232,-2064,50,13,-9
12565,-32,232,-2056,50,14,-10
12570,-16,240,-2040,49,15,-10
12575,-56,224,-2024,47,13,-10
12580,-8,216,-2096,46,13,-9
12585,-32,248,-2056,47,14,-10
12590,-56,240,-2048,49,13,-9
12595,-32,240,-2048,50,13,-10
12600,-48,232,-2040,52,12,-10
12605,-32,248,-2056,50,12,-11
12610,-40,224,-2048,50,11,-10
12615,-48,232,-2064,52,12,-11
12620,-32,240,-2016,53,14,-11
12625,-32,240,-2080,51,14,-11
12630,-8,240,-2048,51,14,-11
12635,-56,208,-2040,52,14,-10
12640,-32,216,-2080,53,13,-10
12645,-24,248,-2056,52,14,-9
12650,-40,224,-2024,50,15,-10
12655,-24,216,-2064,49,14,-10
12660,-32,256,-2024,48,14,-10
12665,-24,232,-2024,46,16,-9
12670,-32,208,-2048,49,19,-10
12675,-24,208,-2032,53,16,-11
12680,-32,200,-2064,55,15,-10
12685,-24,224,-2072,55,15,-11
12690,-16,216,-2040,54,16,-10
12695,-16,232,-2056,52,17,-12
12700,-32,240,-2080,53,16,-11
12705,-32,224,-2056,53,15,-10
12710,-32,216,-2064,52,16,-11
12715,-32,224,-2064,50,15,-10
12720,-48,248,-2072,50,15,-10
12725,-32,256,-2048,51,14,-11
12730,-40,216,-2048,53,15,-12
12735,-24,232,-2056,52,15,-11
12740,-24,240,-2048,52,13,-9
12745,-32,232,-2072,53,13,-11
12750,-24,216,-2064,53,13,-12
12755,-32,248,-2064,52,11,-12
12760,-32,232,-2048,53,12,-10
12765,-40,224,-2056,52,12,-10
12770,-32,240,-2056,52,14,-10
12775,-32,208,-2024,55,14,-10
12780,-32,232,-2048,51,11,-10
12785,-40,240,-2016,50,11,-10
12790,-40,232,-2048,50,11,-10
12795,-8,200,-2016,49,10,-11
12800,-32,216,-2072,50,9,-10
12805,-40,232,-2032,50,10,-10
12810,-32,232,-2040,50,10,-12
12815,-24,224,-2048,48,11,-12
12820,-32,216,-2056,50,10,-13
12825,-32,248,-2064,49,10,-10
12830,-56,240,-2072,50,10,-11
12835,-32,224,-2032,49,10,-9
12840,-40,240,-2088,49,10,-11
12845,-64,232,-2048,49,10,-11
12850,-32,224,-2032,49,10,-11
12855,-8,192,-2048,50,12,-9
12860,-32,240,-2080,49,12,-9
12865,-32,216,-2024,49,10,-9
12870,-8,232,-2048,50,12,-10
12875,-32,216,-2072,50,11,-10
12880,-32,248,-2040,49,11,-9
12885,-48,248,-2072,51,10,-11
12890,-8,224,-2048,50,8,-9
12895,-24,224,-2032,49,9,-10
12900,-48,264,-2056,49,9,-12
12905,-40,264,-2056,49,9,-12
12910,-32,232,-2064,50,7,-10
12915,-32,240,-2056,48,9,-10
12920,-32,224,-2056,49,9,-10
12925,-32,232,-2048,50,10,-9
12930,-32,224,-2040,49,9,-9
12935,-24,240,-2016,49,8,-10
12940,-32,248,-2064,49,8,-9
12945,-24,216,-2048,48,8,-9
12950,-40,248,-2048,49,8,-10
12955,-16,272,-2056,49,9,-11
12960,-32,224,-2072,50,10,-10
12965,-24,232,-2064,50,11,-9
12970,-32,216,-2064,51,11,-11
12975,-48,224,-2048,52,10,-11
12980,-24,216,-2064,52,10,-11
12985,-40,208,-2080,52,12,-10
12990,-32,240,-2088,51,9,-12
12995,-32,240,-2080,50,11,-12
13000,-32,232,-2032,50,11,-12
13005,-40,224,-2040,50,10,-11
13010,-32,176,-2096,51,9,-11
13015,-24,232,-2048,49,11,-11
13020,-32,224,-2064,48,11,-11
13025,-32,232,-2072,48,11,-11
13030,-24,224,-2056,49,11,-12
13035,-40,224,-2056,50,11,-12
13040,-56,216,-2032,49,12,-12
13045,-64,248,-2072,49,11,-10
13050,-24,208,-2056,48,12,-10
13055,-24,216,-2056,49,11,-11
13060,-24,192,-2024,49,11,-12
13065,-32,208,-2064,50,12,-10
13070,-32,216,-2080,50,11,-11
13075,-32,240,-2048,49,12,-9
13080,-24,192,-2080,49,13,-9
13085,-32,224,-2040,49,14,-8
13090,-24,232,-2048,50,13,-9
13095,-24,216,-2032,50,13,-9
13100,-32,256,-2080,50,12,-10
13105,-32,240,-2056,50,12,-10
13110,-32,232,-2072,49,11,-12
13115,-56,168,-2024,49,12,-12
13120,-32,256,-2064,49,12,-11
13125,-24,208,-2048,48,12,-11
13130,-32,232,-2056,48,11,-10
13135,-32,240,-2056,47,11,-9
13140,-24,216,-2048,48,12,-9
13145,-32,208,-2040,50,12,-7
13150,-40,240,-2072,50,12,-9
13155,-56,248,-2080,50,12,-10
13160,-32,232,-2032,48,13,-9
13165,-72,240,-2064,48,14,-11
13170,-16,224,-2056,49,13,-10
13175,-48,200,-2056,48,12,-10
13180,-32,232,-2040,49,13,-10
13185,-48,216,-2048,49,14,-11
13190,-24,232,-2064,50,12,-10
13195,-32,248,-2048,50,12,-11
13200,-32,216,-2016,49,12,-9
13205,-40,224,-2072,47,11,-9
13210,-24,240,-2048,46,12,-10
13215,-32,248,-2056,45,13,-11
13220,-56,232,-2048,46,13,-10
13225,-32,224,-2064,47,15,-11
13230,-48,224,-2080,52,14,-12
13235,-32,216,-2072,55,14,-12
13240,-24,248,-2096,53,15,-13
13245,-32,256,-2056,51,16,-11
13250,-32,232,-2040,52,13,-11
13255,-32,248,-2024,51,14,-12
13260,-24,200,-2048,49,12,-11
13265,-24,240,-2072,49,12,-10
13270,-40,232,-2000,47,10,-10
13275,-16,200,-2072,47,11,-10
13280,-32,224,-2064,48,12,-10
13285,-32,248,-2040,49,11,-10
13290,-32,240,-2048,50,11,-9
13295,-56,248,-2064,51,11,-9
13300,-24,224,-2080,50,10,-10
13305,-32,256,-2032,52,11,-11
13310,-24,224,-2040,52,12,-9
13315,-32,240,-2048,50,12,-10
13320,-32,232,-2056,49,13,-10
13325,-40,272,-2072,49,13,-10
13330,-32,224,-2040,49,12,-12
13335,-32,232,-2040,48,12,-11
13340,-40,224,-2088,49,12,-11
13345,-32,216,-2064,48,11,-11
13350,-24,232,-2072,48,11,-10
13355,-24,224,-2048,48,11,-11
13360,-40,200,-2040,46,12,-11
13365,-32,240,-2088,48,11,-10
13370,-40,232,-2072,48,12,-9
13375,-24,224,-2048,48,11,-9
13380,-32,224,-2072,48,12,-9
13385,0,240,-2040,46,10,-10
13390,-32,232,-2056,47,10,-10
13395,-24,232,-2064,45,8,-9
13400,-24,200,-2032,43,8,-10
13405,-32,224,-2072,45,8,-10
13410,-32,216,-2048,42,8,-9
13415,-40,264,-2048,41,7,-8
13420,-48,256,-2080,41,8,-8
13425,-40,232,-2096,41,7,-8
13430,-48,224,-2040,40,9,-8
13435,-32,232,-2064,42,8,-8
13440,-32,240,-2016,42,9,-9
13445,-8,216,-2056,39,10,-10
13450,-32,240,-2056,39,10,-10
13455,-32,240,-2080,38,10,-10
13460,-32,240,-2056,40,11,-11
13465,-24,240,-2056,39,10,-10
13470,-32,208,-2040,39,12,-10
13475,-24,232,-2072,39,12,-10
13480,-32,224,-2072,38,13,-9
13485,-32,256,-2080,38,12,-9
13490,8,240,-2032,39,12,-9
13495,-56,232,-2048,38,13,-10
13500,-32,224,-2040,37,13,-9
13505,-32,224,-2040,39,12,-9
13510,-56,248,-2064,41,14,-9
13515,-16,224,-2048,41,14,-8
13520,-24,232,-2040,41,14,-7
13525,-32,248,-2056,42,15,-8
13530,-24,216,-2072,42,15,-8
13535,-32,232,-2032,41,14,-8
13540,-40,168,-2040,42,16,-8
13545,-24,240,-2080,43,16,-9
13550,-32,240,-2056,43,17,-10
13555,-24,216,-2048,42,18,-10
13560,-32,216,-2056,43,19,-10
13565,-40,240,-2024,42,18,-8
13570,-32,240,-2056,43,17,-8
13575,-56,232,-2048,42,17,-9
13580,-32,256,-2080,42,17,-10
13585,-16,216,-2056,43,17,-10
13590,-32,232,-2048,43,17,-9
13595,-32,224,-2032,43,18,-10
13600,-48,216,-2072,43,17,-9
13605,-16,240,-2040,43,16,-11
13610,-32,224,-2048,41,17,-11
13615,-32,232,-2056,43,17,-9
13620,-32,240,-2048,43,17,-8
13625,-32,248,-2056,43,17,-8
13630,-16,224,-2048,41,16,-8
13635,-40,240,-2080,41,17,-9
13640,-32,240,-2072,41,19,-9
13645,-32,248,-2056,42,19,-7
13650,-40,176,-2016,41,18,-7
13655,-32,232,-2080,42,18,-8
13660,-32,232,-2056,42,19,-9
13665,-32,240,-2048,42,18,-10
13670,-48,248,-2048,42,19,-10
13675,-16,232,-2072,44,19,-9
13680,-24,224,-2072,44,19,-8
13685,-56,232,-2024,44,19,-7
13690,-8,224,-2056,43,19,-10
13695,-32,240,-2032,43,19,-10
13700,-24,272,-2040,41,19,-9
13705,-40,240,-2048,42,20,-8
13710,-48,232,-2048,42,20,-11
13715,-24,256,-2040,42,19,-8
13720,-16,248,-2048,44,19,-9
13725,-32,240,-2040,46,19,-9
13730,-32,248,-2080,48,18,-9
13735,-64,256,-2040,50,17,-10
13740,-24,264,-2040,49,17,-9
13745,-32,224,-2072,48,18,-9
13750,-16,264,-2040,48,17,-9
13755,-8,248,-2072,48,15,-9
13760,-40,248,-2040,49,13,-10
13765,-32,232,-2032,50,12,-9
13770,-24,216,-2056,50,12,-11
13775,-32,248,-2088,49,13,-11
13780,-48,256,-2048,46,13,-10
13785,-32,240,-2040,43,11,-10
13790,-32,216,-2024,40,11,-10
13795,-64,248,-2016,39,13,-11
13800,-32,248,-2064,40,13,-10
13805,-32,240,-2056,43,13,-10
13810,-48,264,-2088,49,13,-11
13815,-40,248,-2064,46,14,-11
13820,-24,248,-2056,43,14,-11
13825,-32,216,-2048,43,14,-10
13830,-24,232,-2040,42,15,-9
13835,-32,224,-2040,42,14,-9
13840,-48,224,-2056,42,15,-9
13845,-32,240,-2072,41,14,-10
13850,-32,256,-2064,42,15,-11
13855,-24,216,-2024,43,15,-9
13860,-16,240,-2120,43,15,-9
13865,-32,232,-2032,44,16,-9
13870,-32,232,-2072,45,14,-8
13875,-32,248,-2080,45,16,-9
13880,-40,248,-2048,44,16,-9
13885,-16,224,-2064,44,16,-9
13890,-32,240,-2048,43,15,-8
13895,-56,248,-2064,43,17,-9
13900,-24,232,-2072,44,16,-9
13905,-32,248,-2040,44,17,-8
13910,-24,232,-2024,44,17,-10
13915,-32,208,-2016,45,15,-9
13920,-32,264,-2032,45,15,-9
13925,-24,216,-2080,45,15,-10
13930,-24,224,-2040,45,14,-10
13935,-32,248,-2048,46,15,-8
13940,-24,224,-2064,47,15,-10
13945,-24,240,-2064,48,15,-10
13950,-40,256,-2024,48,16,-8
13955,-32,216,-2040,47,15,-8
13960,-24,256,-2080,46,16,-8
13965,0,248,-2008,46,16,-9
13970,-64,240,-2048,47,16,-10
13975,-24,224,-2048,47,17,-9
13980,-48,240,-2048,48,17,-9
13985,-40,240,-2040,46,16,-10
13990,-40,240,-2056,46,17,-9
13995,-16,208,-2056,47,16,-8
14000,-32,232,-2064,47,15,-10
14005,-24,256,-2032,47,15,-9
14010,-40,256,-2016,48,16,-9
14015,-48,248,-2056,48,15,-10
14020,-48,248,-2080,48,15,-9
14025,-40,248,-2072,47,15,-10
14030,-32,248,-2056,46,16,-11
14035,-32,264,-2040,46,17,-9
14040,-32,248,-2064,45,18,-9
14045,-32,240,-2032,44,18,-10
14050,-24,264,-2032,46,18,-9
14055,-40,240,-2048,45,17,-9
14060,-32,224,-2072,44,15,-10
14065,-8,256,-2072,44,15,-11
14070,-32,264,-2048,45,14,-10
14075,-48,240,-2032,46,15,-10
14080,-32,240,-2064,46,14,-10
14085,-32,216,-2064,46,14,-10
14090,-32,232,-2056,47,14,-9
14095,-32,232,-2064,46,13,-10
14100,-48,264,-2072,46,13,-11
14105,-24,240,-2064,46,13,-10
14110,-32,224,-2008,47,14,-10
14115,-56,232,-2072,49,15,-11
14120,-32,256,-2048,48,16,-10
14125,-16,256,-2040,47,16,-9
14130,-64,192,-2040,48,17,-8
14135,-32,240,-2048,49,17,-8
14140,-40,248,-2032,47,17,-10
14145,-32,240,-2040,48,17,-9
14150,-24,248,-2088,47,16,-10
14155,-32,256,-2048,48,16,-10
14160,-40,256,-2064,46,15,-9
14165,-32,248,-2040,47,14,-10
14170,-24,248,-2080,48,14,-8
14175,-16,240,-2056,49,14,-8
14180,0,200,-2080,50,13,-8
14185,-32,248,-2064,49,12,-8
14190,-32,248,-2056,48,14,-10
14195,-24,232,-2064,49,15,-9
14200,-32,232,-2048,49,14,-11
14205,-32,240,-2032,50,14,-10
14210,-32,240,-2088,51,15,-9
14215,-40,256,-2072,51,16,-9
14220,-32,216,-2032,53,15,-10
14225,-64,264,-2064,53,16,-9
14230,-32,232,-2040,54,16,-10
14235,-16,224,-2048,55,14,-8
14240,-40,232,-2072,55,15,-8
14245,-32,240,-2056,55,15,-10
14250,-24,248,-2072,53,14,-9
14255,-32,248,-2040,56,13,-8
14260,-24,216,-2048,56,13,-10
14265,-24,240,-2056,55,13,-8
14270,-48,248,-2088,54,12,-9
14275,-32,240,-2064,54,11,-10
14280,-8,240,-2040,54,12,-12
14285,-48,240,-2048,52,11,-10
14290,-24,280,-2064,52,11,-11
14295,-32,256,-2040,51,10,-11
14300,-56,256,-2056,51,10,-12
14305,-32,248,-2056,51,9,-10
14310,-32,248,-2048,54,9,-12
14315,-24,248,-2048,58,9,-9
14320,-8,224,-2080,56,10,-12
14325,-32,224,-2064,53,10,-10
14330,-24,248,-2024,52,11,-10
14335,-48,232,-2072,50,13,-11
14340,-40,248,-2088,52,14,-11
14345,-40,240,-2048,52,13,-9
14350,-24,224,-2040,53,13,-11
14355,-32,256,-2032,52,13,-10
14360,-32,248,-2056,50,11,-11
14365,-40,240,-2024,48,12,-9
14370,-40,224,-2024,48,12,-10
14375,-8,248,-2016,48,10,-12
14380,-40,240,-2024,48,12,-10
14385,-40,256,-2064,52,11,-11
14390,-48,240,-2064,55,10,-11
14395,-16,224,-2040,57,10,-12
14400,-40,240,-2072,56,12,-11
14405,-16,232,-2080,54,12,-10
14410,-40,248,-2048,53,13,-11
14415,-40,240,-2048,53,13,-12
14420,-16,240,-2096,54,12,-10
14425,-32,240,-2040,52,12,-9
14430,-40,240,-2048,51,10,-10
14435,-32,224,-2096,52,11,-11
14440,-40,240,-2048,51,10,-10
14445,-32,248,-2056,52,10,-11
14450,-32,256,-2080,53,9,-12
14455,-32,240,-2032,53,9,-10
14460,-32,264,-2064,53,9,-10
14465,-48,264,-2032,53,8,-11
14470,-32,224,-2040,53,7,-12
14475,-24,240,-2064,53,7,-10
14480,-24,224,-2040,52,7,-10
14485,-32,216,-2032,52,9,-10
14490,-32,224,-2032,52,11,-10
14495,-24,232,-2056,51,10,-10
14500,-64,232,-2064,52,9,-9
14505,-48,248,-2064,52,9,-9
14510,-16,224,-2072,51,10,-10
14515,-32,256,-2056,50,10,-10
14520,-24,216,-2048,51,9,-11
14525,-16,208,-2064,51,9,-11
14530,-32,256,-2056,51,9,-10
14535,-32,256,-2048,52,10,-10
14540,-32,200,-2088,52,10,-10
14545,-32,200,-2032,52,11,-10
14550,-16,216,-2040,52,11,-9
14555,-24,224,-2072,52,12,-11
14560,-40,240,-2040,52,11,-12
14565,-32,224,-2056,51,11,-12
14570,-24,240,-2064,52,12,-13
14575,-32,224,-2032,51,11,-11
14580,-32,224,-2064,50,10,-11
14585,-32,224,-2048,50,9,-10
14590,-32,240,-2048,50,9,-10
14595,-8,248,-2056,50,8,-13
14600,-16,248,-2072,50,7,-13
14605,-24,216,-2032,50,7,-12
14610,-24,232,-2000,51,7,-12
14615,-32,232,-2056,53,9,-12
14620,-32,224,-2072,53,8,-11
14625,-32,216,-2056,51,9,-11
14630,-32,232,-2032,50,10,-10
14635,-48,240,-2048,49,8,-12
14640,-24,208,-2056,50,10,-10
14645,-32,216,-2056,49,10,-11
14650,-8,232,-2064,49,10,-11
14655,-32,240,-2064,49,11,-11
14660,-48,200,-2016,49,11,-10
14665,-32,240,-2016,49,12,-11
14670,-32,232,-2088,50,11,-10
14675,-32,240,-2032,51,12,-11
14680,-40,248,-2032,51,11,-12
14685,-32,256,-2064,52,11,-10
14690,-32,232,-2080,52,11,-10
14695,-24,240,-2064,53,11,-10
14700,-32,232,-2056,51,12,-11
14705,-32,232,-2056,51,12,-13
14710,-40,256,-2040,51,11,-12
14715,-24,256,-2064,50,12,-12
14720,-32,240,-2048,50,11,-11
14725,-24,248,-2064,50,10,-10
14730,-32,216,-2080,49,12,-11
14735,-32,256,-2064,49,13,-10
14740,-32,216,-2064,50,13,-9
14745,-32,240,-2056,50,12,-12
14750,-32,232,-2064,51,11,-10
14755,-24,240,-2056,52,10,-12
14760,-16,240,-2048,51,10,-11
14765,-8,232,-2016,52,11,-11
14770,-72,288,-2072,52,11,-11
14775,-32,224,-2032,52,11,-10
14780,-40,216,-2064,52,11,-11
14785,-32,248,-2016,52,9,-9
14790,-16,232,-2072,51,10,-11
14795,-16,248,-2056,51,12,-10
14800,-32,232,-2040,51,12,-10
14805,-24,240,-2072,51,12,-12
14810,-32,224,-2056,52,12,-11
14815,-24,224,-2080,53,12,-11
14820,-24,232,-2080,52,12,-10
14825,-24,240,-2056,52,12,-12
14830,-32,264,-2056,53,12,-11
14835,-24,240,-2056,53,11,-9
14840,-24,224,-2056,52,11,-8
14845,-16,232,-2040,52,10,-10
14850,-40,248,-2048,52,9,-10
14855,-24,256,-2016,51,9,-12
14860,-40,248,-2040,52,9,-10
14865,-48,232,-2024,50,9,-10
14870,-40,224,-2056,50,10,-10
14875,-32,232,-2040,50,10,-11
14880,-24,224,-2088,51,10,-12
14885,-24,216,-2040,52,9,-11
14890,-24,224,-2048,53,10,-11
14895,-24,208,-2056,53,9,-11
14900,-24,216,-2088,53,8,-10
14905,-32,232,-2048,54,9,-12
14910,-48,240,-2080,52,9,-12
14915,-16,216,-2072,52,10,-11
14920,-32,216,-2056,51,9,-11
14925,-24,224,-2024,52,10,-12
14930,-32,256,-2056,53,9,-10
14935,-32,224,-2048,53,9,-10
14940,-48,256,-2064,53,8,-12
14945,-32,240,-2056,52,7,-13
14950,-24,232,-2048,50,8,-12
14955,-40,224,-2056,49,8,-10
14960,-64,216,-2048,48,10,-11
14965,-40,248,-2048,50,9,-11
14970,-8,216,-2064,53,9,-11
14975,-40,240,-2040,57,9,-12
14980,-24,224,-2080,56,8,-12
14985,-24,232,-2080,55,9,-12
14990,-32,264,-2024,54,8,-11
14995,-32,224,-2072,54,8,-11
