timestamp,accel_x,accel_y,accel_z,gyro_x,gyro_y,gyro_z
0,120,-2144,240,-27,75,-15
5,104,-2104,216,-29,73,-15
10,96,-2112,248,-28,71,-20
15,96,-2120,248,-26,70,-18
20,96,-2120,248,-25,66,-23
25,88,-2120,232,-27,64,-23
30,96,-2128,256,-27,63,-28
35,72,-2120,232,-28,62,-29
40,80,-2120,264,-26,57,-37
45,88,-2136,264,-24,54,-40
50,72,-2152,280,-25,50,-47
55,80,-2168,280,-24,46,-49
60,32,-2160,304,-25,40,-56
65,72,-2160,296,-24,34,-58
70,56,-2136,312,-24,29,-61
75,72,-2128,304,-24,20,-61
80,56,-2104,328,-25,9,-62
85,16,-2128,344,-26,-4,-59
90,24,-2120,320,-28,-22,-63
95,-8,-2136,352,-31,-41,-63
100,-24,-2096,408,-30,-54,-66
105,-32,-2056,384,-27,-64,-63
110,-64,-2024,392,-20,-71,-64
115,24,-2000,368,-14,-78,-61
120,16,-1936,496,-10,-84,-65
125,-24,-1960,464,-15,-86,-66
130,-32,-1960,408,-29,-86,-74
135,16,-1984,256,-47,-84,-83
140,24,-1912,360,-70,-86,-101
145,104,-1960,256,-97,-91,-113
150,64,-1992,312,-120,-103,-131
155,72,-1896,272,-137,-116,-145
160,48,-1888,360,-145,-133,-167
165,-40,-1880,376,-144,-154,-183
170,-80,-1896,240,-141,-170,-204
175,-88,-1840,280,-140,-182,-221
180,-112,-1816,288,-141,-188,-245
185,-152,-1800,400,-138,-194,-263
190,-88,-1808,432,-134,-175,-293
195,-176,-2016,424,-132,-148,-311
200,-64,-1920,552,-122,-118,-335
205,-32,-1936,600,-110,-68,-353
210,16,-1992,680,-99,-7,-375
215,120,-2048,672,-86,68,-389
220,208,-2088,688,-69,143,-407
225,280,-2104,664,-53,228,-416
230,376,-2168,616,-44,320,-424
235,432,-2176,656,-34,414,-422
240,512,-2168,576,-24,525,-417
245,536,-2088,528,-10,611,-403
250,480,-2024,528,-6,688,-392
255,408,-1968,448,-4,758,-380
260,368,-1936,424,-6,814,-374
265,264,-1880,304,-19,860,-364
270,152,-1832,176,-44,895,-362
275,88,-1800,160,-83,923,-351
280,40,-1856,136,-129,951,-341
285,56,-1952,40,-184,984,-309
290,176,-2056,-112,-263,1030,-258
295,248,-2112,-232,-387,1063,-192
300,264,-2136,-288,-481,1078,-118
305,360,-2056,-336,-549,1086,-39
310,480,-1984,-272,-586,1090,36
315,568,-1904,-256,-600,1099,114
320,560,-1808,-240,-596,1112,175
325,576,-1696,-144,-578,1137,227
330,544,-1608,-32,-554,1176,260
335,520,-1560,48,-532,1211,286
340,416,-1560,232,-522,1254,301
345,328,-1520,328,-514,1266,306
350,136,-1688,400,-507,1241,319
355,312,-1792,432,-473,1163,367
360,80,-1688,424,-532,1122,321
365,-120,-1976,504,-698,1098,299
370,-104,-1952,488,-810,1017,261
375,-128,-2184,440,-889,965,184
380,-232,-2576,640,-1050,967,247
385,-456,-2576,488,-1120,868,203
390,-480,-2464,440,-1101,691,127
395,-360,-2568,400,-1070,621,74
400,-544,-2704,416,-1105,560,56
405,-488,-2752,448,-1126,487,29
410,-472,-2720,464,-1073,411,-18
415,-456,-2632,416,-990,347,-49
420,-368,-2536,416,-906,274,-79
425,-296,-2360,368,-822,211,-110
430,-176,-2248,344,-739,176,-138
435,-96,-2112,312,-644,145,-170
440,32,-2008,328,-581,121,-199
445,88,-2000,320,-557,100,-211
450,152,-1952,320,-549,103,-219
455,216,-1952,288,-554,103,-217
460,248,-1920,224,-568,90,-222
465,304,-1944,264,-593,81,-222
470,352,-2000,224,-623,65,-224
475,352,-2008,200,-662,47,-222
480,400,-2064,184,-702,31,-223
485,360,-2064,192,-746,10,-221
490,328,-2032,200,-800,-14,-226
495,320,-2032,208,-848,-33,-225
500,312,-2032,104,-894,-53,-231
505,248,-2008,184,-936,-65,-234
510,232,-2016,152,-956,-87,-239
515,264,-2008,168,-958,-99,-241
520,232,-1960,184,-966,-91,-247
525,184,-1976,176,-969,-91,-237
530,168,-1976,176,-967,-95,-225
535,168,-2008,216,-961,-101,-211
540,120,-2024,208,-957,-104,-211
545,104,-2056,200,-951,-102,-206
550,72,-2096,208,-945,-92,-209
555,56,-2176,264,-939,-93,-207
560,64,-2184,192,-925,-93,-215
565,48,-2240,216,-903,-90,-214
570,56,-2272,176,-875,-90,-221
575,88,-2304,176,-840,-93,-221
580,112,-2336,200,-797,-93,-229
585,104,-2328,192,-757,-95,-232
590,120,-2344,200,-707,-105,-235
595,152,-2368,144,-671,-119,-236
600,144,-2400,96,-637,-126,-245
605,136,-2400,104,-603,-134,-251
610,160,-2392,112,-566,-146,-260
615,184,-2368,120,-530,-159,-267
620,168,-2368,104,-507,-171,-280
625,200,-2360,120,-480,-185,-289
630,216,-2368,120,-453,-198,-301
635,248,-2368,160,-431,-208,-315
640,304,-2376,168,-412,-212,-336
645,336,-2376,216,-401,-212,-354
650,392,-2368,216,-395,-214,-381
655,392,-2368,208,-390,-211,-407
660,416,-2312,200,-389,-208,-441
665,432,-2336,160,-396,-205,-470
670,440,-2288,136,-402,-190,-505
675,424,-2288,152,-401,-180,-532
680,408,-2232,104,-402,-163,-566
685,400,-2184,40,-398,-147,-584
690,408,-2168,24,-401,-133,-604
695,392,-2144,16,-401,-111,-609
700,392,-2128,112,-388,-80,-607
705,392,-2152,192,-359,-51,-600
710,464,-2200,240,-324,-23,-593
715,512,-2216,272,-295,5,-577
720,616,-2272,296,-276,27,-555
725,712,-2312,280,-268,50,-523
730,784,-2304,256,-267,71,-478
735,840,-2296,224,-275,105,-428
740,896,-2248,200,-296,138,-382
745,928,-2232,104,-333,171,-327
750,952,-2264,24,-378,204,-279
755,952,-2272,-24,-419,234,-229
760,936,-2304,-104,-459,255,-191
765,920,-2288,-136,-501,263,-158
770,848,-2320,-80,-537,267,-132
775,760,-2272,-80,-556,266,-102
780,672,-2256,-32,-550,254,-68
785,616,-2216,24,-501,246,-36
790,552,-2160,0,-438,242,-14
795,504,-1992,-16,-371,239,14
800,456,-1832,-80,-314,236,35
805,472,-1672,-152,-280,233,61
810,480,-1576,-224,-271,227,79
815,496,-1400,-328,-281,220,95
820,464,-1240,-488,-309,219,97
825,448,-1136,-648,-353,224,98
830,336,-1024,-792,-416,240,84
835,88,-1024,-832,-476,257,78
840,-40,-1040,-824,-528,268,72
845,-64,-1104,-768,-565,278,72
850,-16,-1160,-656,-584,294,75
855,96,-1400,-488,-588,320,86
860,184,-1680,-328,-573,358,80
865,304,-1904,-280,-547,407,73
870,312,-2080,-256,-512,468,65
875,336,-2240,-192,-467,528,70
880,264,-2272,-256,-379,598,83
885,264,-2336,-256,-313,640,94
890,288,-2400,-200,-250,670,117
895,320,-2472,-184,-206,686,153
900,328,-2536,-248,-187,695,187
905,304,-2456,-320,-199,688,229
910,312,-2488,-288,-225,655,312
915,304,-2640,-256,-241,581,404
920,312,-2544,-384,-184,518,483
925,168,-2440,-176,-185,493,482
930,120,-2376,-72,-266,477,479
935,192,-2432,-56,-324,465,544
940,160,-2696,-16,-378,462,612
945,168,-2816,-48,-417,419,637
950,240,-2960,-120,-463,374,665
955,256,-3088,-120,-516,336,707
960,248,-3208,-152,-554,291,732
965,192,-3344,-152,-575,244,755
970,224,-3392,-232,-570,185,739
975,168,-3416,-200,-551,168,740
980,104,-3496,-144,-525,194,761
985,-72,-3448,40,-487,222,790
990,-184,-3472,144,-444,187,786
995,-256,-3432,184,-414,111,792
1000,-336,-3400,272,-402,41,825
1005,-408,-3408,272,-413,-37,870
1010,-512,-3376,280,-437,-129,913
1015,-488,-3376,200,-468,-210,969
1020,-608,-3328,128,-503,-250,1021
1025,-608,-3192,96,-538,-303,1041
1030,-464,-2960,0,-543,-354,1035
1035,-408,-2696,-144,-571,-366,1087
1040,-384,-2808,-208,-620,-378,1156
1045,-248,-3144,-376,-529,-410,1236
1050,-328,-3064,-688,-263,-418,1227
1055,-96,-2720,-704,-116,-430,1111
1060,-304,-2608,-440,-148,-389,999
1065,-192,-2720,-408,-176,-375,972
1070,-456,-2936,-272,-151,-310,921
1075,-528,-3064,-152,-46,-258,852
1080,-384,-3128,32,40,-206,760
1085,-288,-3248,-200,200,-136,618
1090,-48,-3016,-224,308,-46,424
1095,136,-2936,-200,302,-7,299
1100,88,-2688,-208,310,3,165
1105,40,-2376,-320,349,-25,48
1110,32,-2064,-416,358,-122,-45
1115,-88,-2264,-848,353,-221,-110
1120,232,-1320,-368,315,-275,-161
1125,80,-1064,-576,472,-277,-216
1130,128,-696,-728,516,-237,-202
1135,16,-240,-872,570,-170,-221
1140,16,-144,-888,631,-118,-217
1145,32,48,-720,552,-109,-191
1150,-64,184,-824,526,-84,-191
1155,-40,144,-640,468,-62,-159
1160,-72,144,-576,394,-44,-131
1165,-72,112,-480,325,-10,-87
1170,-64,40,-360,261,22,-46
1175,-72,-32,-248,210,53,-3
1180,-16,-160,-144,174,60,26
1185,88,-248,-56,141,66,55
1190,168,-400,56,121,71,70
1195,56,-624,-48,113,75,79
1200,-560,-736,-80,88,16,92
1205,408,-792,-376,49,-135,120
1210,192,-976,-784,-1,-247,82
1215,-576,-1264,-1288,-146,-290,72
1220,-520,-1568,-1584,-469,-295,92
1225,-184,-1832,-1800,-694,-238,58
1230,128,-2184,-1952,-859,-143,-10
1235,352,-2760,-1680,-967,-50,-7
1240,248,-3224,-1520,-990,-15,11
1245,-72,-3600,-1312,-931,-28,22
1250,-328,-3944,-1048,-771,-63,59
1255,-568,-4112,-864,-517,-103,125
1260,-336,-4400,-832,-228,-124,185
1265,-64,-4496,-1016,45,-86,129
1270,304,-4304,-1208,288,-3,-18
1275,536,-3984,-1144,398,103,-178
1280,664,-3752,-896,449,174,-365
1285,744,-3632,-736,505,225,-536
1290,736,-3432,-576,546,255,-689
1295,576,-3272,-480,518,267,-825
1300,344,-3288,-400,441,264,-926
1305,8,-3304,-400,388,245,-983
1310,-168,-3392,-360,361,202,-1022
1315,-280,-3536,-360,330,144,-1053
1320,-320,-3640,-296,264,118,-1101
1325,-320,-3808,-304,182,78,-1191
1330,-320,-3888,-272,167,119,-1270
1335,-280,-3776,-280,204,163,-1316
1340,-216,-3848,-216,234,165,-1367
1345,-96,-3784,-224,379,188,-1339
1350,-16,-3520,-248,545,203,-1295
1355,128,-3360,-136,583,195,-1266
1360,264,-3240,-32,578,222,-1232
1365,456,-3168,144,574,250,-1187
1370,712,-2968,168,642,252,-1118
1375,984,-2712,160,680,270,-1053
1380,1184,-2432,232,658,316,-1008
1385,1376,-2208,336,617,385,-963
1390,1352,-2048,440,580,481,-924
1395,1384,-1904,512,548,551,-917
1400,1320,-1712,408,540,598,-947
1405,1176,-1520,224,561,656,-939
1410,896,-1392,40,581,747,-889
1415,488,-1200,-152,602,759,-880
1420,216,-1024,-472,608,725,-884
1425,-48,-784,-656,577,696,-860
1430,-248,-624,-776,524,703,-825
1435,-576,-408,-704,488,758,-741
1440,-816,-336,-520,508,830,-627
1445,-976,-248,-336,591,907,-468
1450,-936,-200,-264,709,973,-296
1455,-768,-136,-232,787,1028,-153
1460,-368,-88,-176,828,1076,-53
1465,-96,-8,-88,850,1087,6
1470,128,32,-120,855,1064,42
1475,184,64,-152,842,1023,72
1480,184,64,-248,823,950,87
1485,256,16,-384,790,848,111
1490,208,-48,-456,727,752,137
1495,176,-152,-504,649,647,171
1500,112,-208,-496,585,533,201
1505,88,-272,-456,547,435,245
1510,-24,-408,-368,537,336,280
1515,-40,-520,-360,576,260,313
1520,848,-888,-1080,583,219,335
1525,384,-848,-704,399,297,329
1530,-600,-1048,-992,178,383,347
1535,-56,-1304,-1344,-85,361,325
1540,336,-1480,-1496,-412,200,166
1545,488,-1816,-1248,-663,34,45
1550,-8,-2408,-376,-737,2,20
1555,-328,-4000,1128,-622,22,66
1560,-344,-4216,728,-89,-49,-15
1565,-344,-4152,232,393,-219,-255
1570,96,-3904,-480,668,-350,-457
1575,704,-3704,-1032,750,-439,-546
1580,1160,-3576,-1392,696,-524,-590
1585,1448,-3496,-1424,561,-529,-624
1590,1080,-3472,-1224,401,-457,-622
1595,504,-3560,-1120,297,-448,-533
1600,128,-3440,-1232,274,-564,-369
1605,16,-3232,-1288,274,-726,-114
1610,-216,-3120,-1080,172,-755,72
1615,-440,-3096,-888,82,-732,269
1620,-616,-3136,-736,61,-767,434
1625,-576,-3224,-840,33,-808,591
1630,-528,-3408,-856,-46,-825,715
1635,-600,-3624,-824,-143,-842,799
1640,-504,-3832,-624,-234,-863,853
1645,-280,-4080,-496,-323,-894,890
1650,-80,-4256,-296,-407,-919,906
1655,360,-4520,-200,-457,-945,925
1660,672,-4568,-312,-459,-905,947
1665,712,-4856,-112,-476,-826,969
1670,832,-4928,16,-463,-826,885
1675,936,-4880,-8,-412,-806,819
1680,792,-4712,144,-342,-738,787
1685,688,-4440,184,-230,-710,730
1690,640,-4168,256,-92,-707,654
1695,544,-3768,336,50,-684,612
1700,352,-3400,392,172,-666,580
1705,112,-2984,392,246,-665,539
1710,-88,-2688,368,260,-681,506
1715,-304,-2328,360,251,-691,488
1720,-536,-1984,360,259,-692,492
1725,-584,-1840,384,314,-701,580
1730,-704,-1808,232,489,-732,682
1735,-656,-1544,48,770,-750,733
1740,-552,-1248,-8,953,-721,693
1745,-440,-1016,112,982,-656,620
1750,-168,-808,120,958,-629,574
1755,-168,-584,-24,912,-657,543
1760,-112,-328,64,861,-718,508
1765,-224,-296,-16,779,-776,502
1770,-72,-176,-56,696,-864,449
1775,208,-144,-32,616,-939,350
1780,192,-168,-112,550,-947,262
1785,-104,-320,-352,557,-945,152
1790,-304,-376,-208,540,-922,55
1795,656,0,-112,504,-873,-12
1800,152,-168,-272,544,-738,-78
1805,-152,-232,-480,553,-707,-115
1810,-208,-296,-648,447,-624,-112
1815,-32,-320,-768,351,-549,-101
1820,-120,-352,-960,285,-454,-74
1825,-8,-344,-1016,274,-408,-49
1830,-8,-400,-968,301,-333,-20
1835,-16,-320,-848,354,-237,36
1840,-16,-192,-960,427,-200,79
1845,8,-152,-872,482,-211,114
1850,56,-96,-792,513,-259,154
1855,152,-128,-664,514,-316,183
1860,336,-144,-528,488,-368,212
1865,608,-128,-368,448,-400,239
1870,744,-128,-264,415,-399,269
1875,400,-352,-208,390,-362,318
1880,-304,-688,88,330,-382,394
1885,176,-984,56,214,-426,506
1890,664,-1296,-688,27,-362,592
1895,368,-1520,-1304,-303,-293,653
1900,160,-1688,-1432,-649,-321,690
1905,240,-1832,-1408,-823,-244,688
1910,240,-2144,-1240,-876,-93,699
1915,88,-2584,-1032,-877,-8,731
1920,-184,-2992,-856,-797,63,769
1925,-432,-3320,-800,-676,142,799
1930,-416,-3648,-856,-587,172,812
1935,-360,-4040,-864,-539,153,812
1940,-240,-4320,-816,-478,126,792
1945,-32,-4560,-808,-386,131,724
1950,336,-4952,-728,-294,202,612
1955,696,-4744,-664,-126,311,474
1960,1024,-4456,-656,86,418,359
1965,1160,-4032,-680,273,483,195
1970,1256,-3432,-728,380,539,21
1975,1200,-3032,-648,343,592,-140
1980,1016,-2864,-536,198,625,-299
1985,728,-2872,-464,6,619,-427
1990,376,-3088,-344,-196,580,-533
1995,-24,-3360,-168,-370,517,-644
2000,-384,-3696,64,-487,457,-736
2005,-568,-3960,216,-493,392,-795
2010,-768,-4096,280,-458,319,-859
2015,-928,-4128,376,-440,231,-954
2020,-1008,-4184,376,-406,134,-1055
2025,-1088,-4056,264,-347,74,-1136
2030,-1016,-3848,224,-299,14,-1201
2035,-904,-3760,88,-259,-73,-1259
2040,-936,-3576,112,-148,-111,-1252
2045,-840,-3304,144,-56,-177,-1240
2050,-592,-3120,256,-41,-251,-1247
2055,-424,-3072,408,-43,-296,-1233
2060,-80,-3024,544,0,-312,-1206
2065,224,-2920,720,87,-298,-1159
2070,440,-2696,864,188,-286,-1134
2075,672,-2520,1048,273,-263,-1141
2080,792,-2432,1160,357,-234,-1156
2085,872,-2296,1096,481,-222,-1161
2090,896,-2200,1040,577,-185,-1177
2095,672,-1952,920,655,-85,-1146
2100,488,-1704,688,676,-18,-1109
2105,304,-1440,416,632,45,-1073
2110,160,-1096,192,567,102,-1036
2115,16,-632,-40,494,157,-992
2120,-64,-456,-8,419,234,-929
2125,40,-248,-200,439,294,-749
2130,144,24,-296,519,309,-580
2135,144,296,-344,557,328,-497
2140,136,400,-456,529,379,-416
2145,168,264,-432,419,435,-287
2150,336,184,-464,331,418,-224
2155,384,56,-568,223,406,-195
2160,408,-176,-544,80,393,-161
2165,416,-288,-584,-41,378,-135
2170,424,-424,-536,-113,363,-118
2175,400,-496,-512,-127,341,-98
2180,376,-560,-448,-82,300,-66
2185,280,-592,-408,9,241,-20
2190,176,-656,-264,130,173,47
2195,112,-760,-280,290,95,108
2200,560,-1128,-824,404,50,165
2205,976,-1200,-880,347,95,173
2210,-160,-1256,-920,165,187,156
2215,32,-1752,-1624,-18,249,138
2220,496,-1688,-2152,-400,256,30
2225,160,-1608,-2280,-775,221,-71
2230,-8,-1912,-1848,-966,251,-46
2235,136,-2856,-792,-1009,281,-13
2240,-80,-3552,288,-881,164,-108
2245,0,-3872,1168,-354,41,-287
2250,536,-4624,1016,197,26,-454
2255,352,-4384,552,488,-9,-539
2260,576,-4128,-112,656,-32,-605
2265,736,-3832,-624,653,-73,-662
2270,720,-3640,-1008,496,-167,-655
2275,472,-3616,-976,280,-301,-556
2280,-128,-3632,-752,201,-449,-409
2285,-600,-3592,-712,322,-624,-236
2290,-704,-3184,-880,503,-777,-42
2295,-896,-2816,-840,498,-778,76
2300,-1000,-2704,-544,354,-759,208
2305,-968,-2744,-360,165,-780,351
2310,-920,-2872,-336,-23,-829,485
2315,-832,-3160,-264,-166,-909,567
2320,-720,-3352,-352,-278,-987,621
2325,-584,-3536,-336,-384,-1035,682
2330,-400,-3624,-272,-476,-1081,730
2335,-200,-3768,-184,-566,-1118,770
2340,8,-4048,-16,-659,-1168,796
2345,256,-4280,104,-685,-1204,821
2350,400,-4512,176,-654,-1210,856
2355,552,-4720,256,-580,-1208,873
2360,648,-4576,256,-477,-1202,872
2365,728,-4472,328,-364,-1175,856
2370,808,-4256,424,-290,-1141,839
2375,720,-4056,496,-241,-1103,816
2380,616,-3704,528,-175,-1118,757
2385,472,-3424,504,-102,-1122,723
2390,304,-3120,472,-13,-1136,693
2395,160,-2728,376,69,-1130,667
2400,40,-2344,296,157,-1093,679
2405,-144,-2048,448,279,-1062,748
2410,-224,-1808,208,499,-1114,824
2415,-176,-1328,-136,722,-1139,811
2420,-120,-904,-200,776,-1095,753
2425,-160,-608,24,680,-1023,696
2430,-128,-576,96,566,-1003,695
2435,-248,-560,-184,592,-1008,669
2440,-80,-224,-216,631,-981,558
2445,-152,-120,-152,570,-932,492
2450,48,-64,0,528,-904,486
2455,-16,-256,-120,521,-897,459
2460,-48,-208,-168,517,-904,378
2465,-56,-256,-144,478,-876,326
2470,-192,-280,-40,499,-875,241
2475,184,-288,-168,525,-900,150
2480,-208,-384,-336,517,-762,125
2485,-416,-368,-536,537,-677,116
2490,-392,-392,-760,504,-627,115
2495,-232,-424,-856,457,-570,101
2500,-32,-488,-984,399,-502,84
2505,80,-560,-1040,349,-421,64
2510,136,-576,-992,318,-350,41
2515,184,-600,-952,311,-296,18
2520,256,-600,-760,329,-268,3
2525,288,-528,-832,358,-255,-2
2530,224,-552,-800,390,-259,4
2535,368,-440,-688,444,-281,9
2540,424,-376,-552,487,-293,14
2545,640,-328,-408,538,-296,10
2550,752,-344,-272,584,-275,4
2555,-120,-856,-320,611,-238,10
2560,-648,-1136,200,551,-318,90
2565,72,-1336,-192,449,-356,218
2570,-176,-1640,-576,252,-223,317
2575,-624,-1720,-1472,-126,-185,425
2580,-592,-1992,-2040,-680,-218,506
2585,-352,-2432,-2064,-1066,-170,550
2590,88,-3136,-1640,-1276,-120,605
2595,-16,-3736,-1008,-1223,-74,708
2600,-320,-4144,-464,-975,12,858
2605,-440,-4344,-344,-682,86,952
2610,-200,-4640,-392,-467,138,977
2615,192,-5032,-408,-349,174,915
2620,640,-5424,-568,-267,167,828
2625,1112,-5640,-672,-201,167,744
2630,1472,-5272,-648,-70,220,655
2635,1640,-4432,-776,155,327,516
2640,1544,-3800,-840,334,456,355
2645,1400,-3136,-1000,371,571,159
2650,1120,-2640,-984,304,674,-19
2655,912,-2432,-968,154,745,-180
2660,608,-2448,-864,-41,813,-303
2665,128,-2640,-584,-275,856,-406
2670,-248,-2832,-312,-470,824,-510
2675,-544,-3224,-136,-630,747,-612
2680,-736,-3520,-56,-732,667,-678
2685,-984,-3736,16,-772,557,-736
2690,-976,-4032,-8,-807,447,-772
2695,-1120,-4128,144,-802,373,-819
2700,-1056,-4160,168,-756,277,-866
2705,-968,-4016,104,-658,211,-920
2710,-888,-3816,192,-547,167,-988
2715,-784,-3720,144,-415,105,-1024
2720,-608,-3456,88,-238,47,-1006
2725,-376,-3232,128,-79,-3,-997
2730,-200,-2984,248,19,-17,-983
2735,-32,-2728,296,89,-51,-996
2740,216,-2544,440,162,-48,-999
2745,312,-2352,608,273,-15,-995
2750,400,-2216,736,375,23,-1012
2755,512,-2088,824,467,74,-1030
2760,472,-2048,904,502,145,-1042
2765,448,-1944,792,546,202,-1007
2770,368,-1696,528,580,244,-973
2775,288,-1392,232,533,269,-955
2780,296,-1072,48,441,295,-919
2785,288,-672,-24,363,333,-858
2790,192,-432,-80,306,374,-766
2795,56,-168,-88,258,402,-667
2800,24,32,8,268,425,-524
2805,-16,144,-32,333,427,-379
2810,0,120,8,353,456,-269
2815,208,32,32,336,493,-184
2820,288,-64,32,306,518,-82
2825,456,-128,-16,228,496,-25
2830,512,-240,-128,140,469,19
2835,632,-448,-168,54,436,57
2840,640,-568,-264,5,386,88
2845,680,-600,-344,-1,318,104
2850,632,-568,-400,24,253,123
2855,576,-584,-400,78,193,146
2860,456,-504,-424,152,140,175
2865,328,-448,-400,236,97,201
2870,200,-408,-392,334,68,222
2875,40,-336,-392,415,57,233
2880,-104,-312,-320,474,60,245
2885,-272,-272,-240,505,58,243
2890,-544,-248,-104,507,44,239
2895,-720,-296,88,496,20,240
2900,-872,-240,280,493,-26,240
2905,-872,-256,328,517,-93,252
2910,56,-664,-728,520,-162,263
2915,968,-1120,-168,303,-79,181
2920,-32,-1200,-664,-99,165,123
2925,-80,-1160,-2296,-582,426,112
2930,848,-1656,-3056,-1633,111,-104
2935,1080,-2128,-3488,-2449,-570,-279
2940,792,-2888,-2408,-2500,-617,-199
2945,1088,-3976,-360,-2006,-316,-172
2950,1424,-5168,968,-1316,-58,-239
2955,1168,-5920,1408,-737,33,-407
2960,648,-6080,616,-112,63,-570
2965,800,-5952,-288,486,195,-489
2970,832,-5632,-568,840,251,-448
2975,224,-4584,-568,906,324,-422
2980,-384,-3752,-512,860,337,-236
2985,-840,-3216,-512,705,196,35
2990,-1360,-2920,-408,493,24,271
2995,-1600,-2640,-128,293,-115,412
3000,-1544,-2352,-128,129,-251,522
3005,-1288,-2488,-88,-69,-362,623
3010,-1000,-2704,80,-285,-427,701
3015,-640,-2984,280,-444,-479,748
3020,-288,-3320,432,-495,-528,828
3025,-8,-3672,544,-528,-582,915
3030,296,-3944,464,-571,-629,983
3035,440,-4240,504,-645,-606,1025
3040,480,-4384,584,-697,-573,1044
3045,496,-4384,664,-672,-553,1040
3050,560,-4288,648,-557,-541,1054
3055,584,-4048,536,-414,-533,1066
3060,608,-3760,512,-324,-475,1085
3065,408,-3656,536,-310,-405,1072
3070,304,-3400,656,-296,-372,1037
3075,128,-3504,608,-230,-353,1105
3080,88,-3416,424,-151,-401,1087
3085,-184,-3440,448,-92,-410,953
3090,-336,-3120,536,0,-433,797
3095,-392,-2736,640,77,-459,710
3100,-552,-2776,744,126,-464,698
3105,-640,-2584,608,205,-543,605
3110,-632,-2264,384,324,-640,455
3115,-808,-1960,448,388,-663,353
3120,-952,-1760,512,429,-691,309
3125,-976,-1456,248,470,-766,253
3130,-616,-1176,112,502,-802,229
3135,-888,-1104,-8,528,-749,232
3140,-528,-1152,-368,627,-766,192
3145,-456,-632,-592,746,-666,46
3150,-440,-368,-688,743,-560,-39
3155,-112,-248,-816,708,-559,-62
3160,80,-192,-440,600,-570,-82
3165,-136,-176,-792,584,-653,-144
3170,-56,-336,-560,497,-678,-137
3175,-160,-416,-592,416,-640,-113
3180,-208,-400,-624,349,-622,-86
3185,-88,-336,-712,284,-621,-76
3190,40,-344,-712,244,-614,-64
3195,120,-320,-760,237,-598,-55
3200,224,-288,-776,254,-579,-41
3205,376,-264,-808,273,-553,-36
3210,480,-248,-816,293,-533,-34
3215,608,-184,-784,315,-510,-46
3220,696,-128,-704,341,-484,-55
3225,864,-128,-584,370,-450,-77
3230,904,-88,-480,396,-405,-98
3235,624,-240,-472,404,-354,-110
3240,-656,-616,-272,347,-403,-59
3245,-8,-816,-576,209,-528,89
3250,-552,-1256,-1088,-12,-519,259
3255,-344,-1344,-2128,-431,-443,392
3260,-224,-1600,-2688,-854,-403,436
3265,-376,-1928,-2664,-1168,-334,441
3270,-88,-2496,-1928,-1306,-290,455
3275,-80,-3088,-936,-1199,-237,522
3280,-288,-3552,-264,-900,-163,660
3285,-384,-3856,-104,-593,-120,750
3290,-72,-4144,-248,-420,-89,793
3295,168,-4160,-568,-342,-77,781
3300,392,-4096,-864,-284,-51,778
3305,1688,-4088,-1032,-342,11,734
3310,1056,-3744,-1272,-331,159,516
3315,1792,-3912,-816,-362,404,464
3320,1424,-3520,-800,-340,687,360
3325,640,-3104,-1024,-376,810,284
3330,-40,-2976,-1392,-428,764,130
3335,296,-3000,-1464,-498,693,-121
3340,208,-2968,-1248,-644,651,-414
3345,344,-3072,-896,-801,620,-536
3350,128,-3400,-720,-921,714,-584
3355,-176,-3808,-496,-986,784,-670
3360,-504,-4160,-384,-944,751,-728
3365,-472,-4272,-432,-824,630,-799
3370,-416,-4584,-224,-789,514,-909
3375,-320,-4688,-40,-694,420,-989
3380,-288,-4672,24,-560,346,-1051
3385,-88,-4616,136,-481,246,-1132
3390,32,-4600,240,-429,201,-1202
3395,-72,-4488,440,-368,220,-1232
3400,-128,-4360,472,-302,178,-1274
3405,-208,-4240,472,-261,127,-1344
3410,-280,-4136,456,-198,81,-1396
3415,-416,-3936,480,-83,21,-1407
3420,-384,-3624,376,66,-81,-1399
3425,-192,-3072,152,154,-138,-1458
3430,24,-2608,192,93,-63,-1569
3435,128,-2384,312,-15,76,-1595
3440,264,-2232,432,-92,169,-1564
3445,424,-2136,488,-153,228,-1530
3450,512,-2080,408,-220,257,-1490
3455,648,-2064,480,-309,296,-1437
3460,736,-2048,472,-388,336,-1372
3465,976,-2016,400,-438,363,-1317
3470,1056,-1888,336,-469,429,-1269
3475,1120,-1696,232,-489,507,-1231
3480,1216,-1608,96,-514,571,-1176
3485,1120,-1520,88,-539,635,-1126
3490,816,-1304,80,-542,711,-1058
3495,504,-1232,24,-490,792,-992
3500,296,-1176,-144,-437,843,-889
3505,104,-1048,-312,-403,875,-771
3510,120,-952,-472,-416,910,-623
3515,192,-880,-504,-461,965,-453
3520,208,-848,-360,-514,1041,-276
3525,272,-792,-104,-515,1117,-110
3530,296,-808,200,-431,1160,54
3535,200,-904,432,-272,1166,182
3540,160,-968,640,-53,1128,311
3545,136,-928,720,251,1061,390
3550,144,-784,728,491,965,451
3555,200,-632,736,676,843,489
3560,264,-560,744,799,706,511
3565,152,-336,768,861,570,507
3570,72,-152,712,877,446,514
3575,-72,8,632,841,345,513
3580,-376,208,480,759,256,490
3585,-632,264,488,627,196,449
3590,-912,168,448,461,114,414
3595,-1008,160,296,334,31,351
3600,-1168,144,120,231,-66,314
3605,-1136,160,-200,138,-141,328
3610,-968,208,-728,40,-200,365
3615,-688,184,-1088,-91,-237,361
3620,-264,-16,-1456,-254,-246,366
3625,240,-304,-1664,-462,-231,373
3630,528,-632,-1736,-732,-222,352
3635,824,-1112,-1736,-1006,-261,248
3640,888,-1696,-1552,-1236,-334,146
3645,848,-2448,-1304,-1299,-425,32
3650,768,-3152,-1000,-1224,-474,-64
3655,560,-3680,-744,-997,-481,-181
3660,408,-3640,-488,-639,-487,-283
3665,408,-3568,-464,-246,-479,-311
3670,432,-3552,-360,70,-475,-253
3675,288,-3568,-104,287,-494,-155
3680,-96,-3312,152,439,-534,-19
3685,-384,-2904,128,578,-637,164
3690,-560,-2416,-120,565,-733,354
3695,-648,-2072,-360,434,-809,536
3700,-752,-1840,-360,247,-868,691
3705,-800,-1672,-424,98,-900,849
3710,-760,-1728,-336,-36,-938,1004
3715,-880,-1784,-208,-153,-975,1133
3720,-648,-1952,-112,-264,-1136,1243
3725,-440,-2216,-112,-401,-1325,1310
3730,-328,-2448,256,-495,-1393,1436
3735,-184,-2544,384,-568,-1579,1475
3740,-80,-2720,560,-660,-1763,1476
3745,-48,-2864,936,-682,-1928,1509
3750,16,-2888,1040,-572,-2179,1505
3755,64,-2528,920,-428,-2451,1457
3760,8,-2448,808,-376,-2653,1396
3765,-88,-2224,744,-420,-2732,1225
3770,-256,-2264,832,-501,-2783,1020
3775,-376,-2008,752,-526,-2842,795
3780,-520,-1792,648,-507,-2804,588
3785,-776,-1784,512,-465,-2699,484
3790,-1216,-2096,392,-362,-2622,411
3795,-1368,-1984,208,-211,-2670,301
3800,-1384,-2552,280,-138,-2748,273
3805,-1624,-2408,32,31,-2795,204
3810,-1416,-2264,-216,128,-2827,158
3815,-1128,-2192,-416,136,-2868,152
3820,-840,-1992,-792,159,-2917,143
3825,-752,-1632,-1184,215,-2977,116
3830,-752,-1312,-1656,272,-3097,111
3835,-720,-968,-1768,255,-3241,83
3840,-656,-888,-1768,197,-3379,58
3845,-672,-800,-1848,93,-3501,50
3850,-632,-656,-1888,-67,-3611,34
3855,-544,-520,-1944,-241,-3692,9
3860,-408,-496,-2040,-396,-3715,-2
3865,-248,-432,-2120,-530,-3675,-32
3870,-24,-464,-2192,-640,-3592,-48
3875,120,-568,-2200,-727,-3480,-78
3880,384,-680,-2056,-778,-3403,-107
3885,712,-776,-1856,-786,-3331,-142
3890,880,-896,-1640,-762,-3215,-144
3895,1216,-1064,-1368,-720,-3047,-111
3900,1624,-1152,-1248,-652,-2852,-57
3905,2184,-1200,-1176,-577,-2662,1
3910,2648,-1016,-1352,-539,-2477,43
3915,2904,-928,-1560,-609,-2322,97
3920,2576,-872,-1720,-728,-2225,105
3925,2136,-800,-1784,-808,-2147,79
3930,1520,-768,-1448,-840,-2100,65
3935,960,-824,-832,-860,-2089,5
3940,544,-784,-448,-839,-2136,-89
3945,-56,-712,-232,-821,-2201,-223
3950,-544,-632,-240,-835,-2289,-393
3955,-976,-704,-104,-866,-2362,-586
3960,-1288,-792,-16,-867,-2427,-787
3965,-1776,-992,184,-846,-2499,-965
3970,-2240,-1184,392,-814,-2643,-1112
3975,-2600,-1528,560,-742,-2830,-1182
3980,-2736,-1688,616,-685,-3062,-1221
3985,-2616,-1592,416,-648,-3320,-1253
3990,-2344,-1272,208,-654,-3564,-1271
3995,-1680,-960,0,-691,-3784,-1272
4000,-1144,-784,-184,-771,-3959,-1273
4005,-456,-816,-256,-859,-4087,-1307
4010,304,-1072,-240,-904,-4206,-1348
4015,864,-1392,-104,-902,-4287,-1395
4020,1256,-1656,-160,-821,-4336,-1398
4025,1448,-1856,-224,-677,-4350,-1375
4030,1832,-1936,-424,-529,-4362,-1354
4035,1968,-1944,-472,-436,-4300,-1353
4040,2152,-2008,-392,-369,-4217,-1372
4045,2400,-1928,-488,-306,-4139,-1396
4050,2440,-1816,-472,-238,-4013,-1382
4055,2344,-1640,-392,-169,-3917,-1349
4060,2040,-1352,-264,-92,-3882,-1317
4065,1560,-1040,-160,-22,-3866,-1283
4070,1272,-784,-72,29,-3849,-1219
4075,784,-152,-240,96,-3821,-1130
4080,408,-416,-40,16,-3821,-986
4085,56,-1032,16,-30,-3791,-790
4090,-248,-992,-120,-88,-3747,-525
4095,-304,-760,-504,-136,-3789,-263
4100,-232,-560,-840,-214,-3823,30
4105,-296,-112,-1896,-344,-3759,356
4110,-592,144,-2688,-585,-3585,802
4115,-1040,240,-4408,-1060,-3202,1263
4120,-1224,-72,-5928,-1695,-2935,1816
4125,-1272,-1080,-6328,-2255,-2733,2416
4130,-1608,-2560,-6232,-2434,-2661,2977
4135,-1232,-4368,-5456,-2110,-2794,3391
4140,392,-6000,-4408,-1546,-2833,3538
4145,1208,-8720,-2264,-1133,-2821,3446
4150,288,-8608,-1016,-331,-2894,3275
4155,-1840,-7752,-496,494,-3039,3066
4160,-3296,-5664,-176,1429,-2981,3054
4165,-3880,-3536,-24,2376,-2859,3211
4170,-4232,-1376,248,2751,-2687,3422
4175,-4224,512,440,2821,-2534,3682
4180,-3944,1352,592,2608,-2437,3944
4185,-3568,1880,848,2180,-2409,4142
4190,-2808,1864,808,1614,-2386,4289
4195,-1848,1272,688,962,-2291,4423
4200,-1192,192,552,357,-2168,4604
4205,-712,-816,432,-81,-2058,4811
4210,-456,-1296,480,-456,-1937,4922
4215,-328,-1632,704,-780,-1829,4885
4220,-112,-1928,1096,-1089,-1707,4757
4225,56,-2576,1584,-1223,-1595,4589
4230,160,-2912,1024,-1086,-1534,4441
4235,-64,-2728,576,-741,-1503,4293
4240,-328,-2368,448,-331,-1536,4116
4245,-344,-1984,672,-45,-1619,3894
4250,-616,-1672,1128,72,-1682,3693
4255,-1176,-1392,1432,127,-1773,3577
4260,-1736,-1104,1304,299,-1927,3645
4265,-2168,-760,1008,446,-2044,3783
4270,-2928,168,832,557,-2119,3944
4275,-3352,496,864,792,-2162,4242
4280,-2800,-320,1320,1068,-2194,4585
4285,-3336,-1648,1352,1232,-2286,4744
4290,-3408,-1848,1344,1176,-2311,4697
4295,-2984,-1952,1104,1185,-2348,4668
4300,-1936,-1928,736,1323,-2391,4666
4305,-2904,-1168,344,1439,-2406,4629
4310,-3408,-544,392,1581,-2337,4730
4315,-4112,-184,704,1662,-2259,4880
4320,-5232,96,704,1652,-2214,4996
4325,-6592,448,736,1602,-2168,5123
4330,-7808,688,528,1626,-2203,5338
4335,-8936,712,536,1788,-2331,5566
4340,-9128,536,232,2048,-2545,5791
4345,-8616,8,256,2247,-2595,5968
4350,-8240,-208,-200,2369,-2701,6083
4355,-6896,40,-1304,2513,-2666,6237
4360,-5880,728,232,2413,-2506,6269
4365,-5888,560,1000,2425,-2365,6163
4370,-6144,-1608,1144,2499,-2162,5849
4375,-6488,-2688,1232,2394,-2094,5028
4380,-6432,-2240,1672,2131,-2042,4292
4385,-6440,-560,1280,1875,-2196,3772
4390,-5296,752,416,1683,-2533,3472
4395,-4880,1472,72,1556,-2807,3260
4400,-5080,1544,72,1394,-2938,3042
4405,-5696,1512,208,1421,-2895,2873
4410,-6216,1624,-240,1528,-2937,2761
4415,-5624,1000,-552,1331,-2984,2653
4420,-4744,536,-680,1069,-2980,2552
4425,-4032,496,-1184,1055,-2974,2522
4430,-3448,416,-1128,1097,-2986,2519
4435,-2800,120,-1184,1100,-2957,2494
4440,-2168,328,-1400,1157,-2941,2460
4445,-1704,688,-1336,1133,-2922,2336
4450,-1336,1064,-744,1051,-2810,2147
4455,-792,1632,-528,1031,-2707,1913
4460,-160,1968,-320,931,-2587,1649
4465,48,2656,64,786,-2434,1379
4470,352,3392,616,567,-2245,1131
4475,400,3480,856,239,-2036,908
4480,88,3184,808,-32,-1907,700
4485,224,2448,264,-186,-1889,532
4490,344,1816,-8,-239,-1871,382
4495,224,1328,128,-173,-1664,270
4500,352,1008,384,107,-1367,292
4505,400,1048,504,416,-1132,377
4510,240,1296,536,653,-1032,485
4515,200,1600,744,695,-1096,521
4520,-144,1784,1008,623,-1223,483
4525,-200,1840,952,563,-1309,454
4530,-344,1680,1024,557,-1319,476
4535,-440,1472,920,625,-1355,500
4540,-296,1376,808,668,-1425,463
4545,-176,1328,808,640,-1515,361
4550,-320,1384,768,652,-1532,268
4555,-640,1368,608,676,-1517,218
4560,-480,1232,488,561,-1491,171
4565,-784,1032,368,358,-1379,63
4570,-600,800,440,251,-1238,56
4575,-856,600,384,311,-1166,121
4580,-992,832,688,324,-1249,82
4585,-1016,1096,800,314,-1456,41
4590,-912,1160,784,285,-1648,57
4595,-928,1032,880,154,-1778,70
4600,-960,968,936,53,-1917,63
4605,-1056,888,816,17,-2065,48
4610,-1440,872,896,-18,-2193,20
4615,-1584,672,1016,-13,-2326,22
4620,-1832,664,1072,5,-2484,-30
4625,-1776,672,1096,22,-2655,-40
4630,-1728,608,1056,-8,-2821,-50
4635,-1320,616,704,-35,-2994,-31
4640,-1328,784,376,-79,-3109,-24
4645,-1280,912,496,-107,-3127,-8
4650,-1048,928,536,-132,-3153,14
4655,-648,1072,424,-210,-3227,30
4660,-304,1056,376,-290,-3302,50
4665,112,1048,432,-346,-3345,49
4670,400,1072,704,-372,-3317,17
4675,592,1176,1072,-375,-3185,-35
4680,656,1400,1336,-380,-2987,-94
4685,1016,1520,1312,-446,-2774,-155
4690,1280,1648,1040,-558,-2622,-211
4695,1440,1672,896,-638,-2461,-229
4700,1768,1512,800,-663,-2303,-195
4705,1952,1368,912,-636,-2122,-178
4710,1848,1360,1128,-589,-1913,-177
4715,1544,1456,1248,-525,-1726,-179
4720,1144,1640,1272,-492,-1586,-188
4725,864,1832,1256,-501,-1501,-201
4730,552,2088,1296,-544,-1451,-211
4735,512,1864,1016,-580,-1397,-191
4740,512,1872,1080,-694,-1375,-211
4745,408,1736,1056,-751,-1304,-216
4750,208,1584,1064,-792,-1191,-180
4755,24,1576,1264,-874,-1108,-122
4760,400,1248,968,-929,-1069,-36
4765,496,1272,1296,-1086,-1058,-35
4770,432,1160,1456,-1123,-1026,-76
4775,360,1448,2216,-1075,-992,-99
4780,264,728,1848,-903,-1002,-75
4785,48,664,2016,-880,-1054,-122
4790,24,808,2224,-885,-1055,-179
4795,-72,904,2320,-893,-1002,-186
4800,-160,984,2144,-938,-920,-186
4805,-120,1048,1896,-1024,-849,-192
4810,16,872,1680,-1103,-759,-181
4815,-88,488,1488,-1069,-673,-163
4820,152,392,1408,-976,-652,-132
4825,184,424,1432,-812,-646,-159
4830,216,656,1448,-594,-610,-169
4835,240,904,1616,-484,-558,-168
4840,224,1104,1808,-455,-554,-180
4845,160,1280,2000,-468,-560,-167
4850,112,1304,2112,-484,-558,-121
4855,-112,1248,2216,-480,-532,-40
4860,-56,1176,2088,-464,-536,54
4865,176,1208,2072,-454,-544,120
4870,384,1032,1792,-414,-511,162
4875,400,1096,1840,-385,-431,176
4880,336,1160,1832,-351,-339,135
4885,80,1232,1872,-312,-269,125
4890,128,1160,1904,-313,-189,119
4895,32,960,2048,-375,-107,104
4900,-96,728,2120,-415,-28,99
4905,-144,600,2104,-405,24,85
4910,-200,568,1992,-367,82,64
4915,-88,656,1840,-302,144,37
4920,-88,744,1800,-248,224,-1
4925,-8,784,1816,-219,306,-15
4930,120,752,1912,-223,356,-32
4935,0,664,2048,-232,383,-45
4940,40,600,2192,-230,393,-58
4945,144,552,2152,-187,383,-67
4950,408,592,2096,-128,403,-66
4955,280,608,2240,-70,503,-54
4960,320,624,2304,15,603,-36
4965,208,824,2256,106,647,-28
4970,584,1032,2184,168,665,-18
4975,320,1104,2104,154,693,-25
4980,216,1032,2088,87,732,-39
4985,552,928,1912,37,751,-56
4990,912,864,1728,33,793,-96
4995,912,760,1568,49,921,-162
5000,512,656,1568,74,1088,-227
5005,536,648,1640,111,1192,-265
5010,400,600,1688,153,1252,-306
5015,96,544,1848,207,1312,-349
5020,168,624,1968,299,1346,-390
5025,16,640,2040,352,1369,-442
5030,-8,704,2152,380,1398,-482
5035,160,872,2136,347,1420,-537
5040,-80,936,2064,266,1417,-589
5045,-64,1032,1848,192,1397,-605
5050,-400,1064,1784,135,1393,-624
5055,-608,1080,1624,114,1361,-610
5060,-592,992,1560,63,1317,-571
5065,-528,712,1528,-26,1314,-552
5070,-360,424,1424,-144,1328,-574
5075,-360,112,1384,-214,1366,-607
5080,-424,-160,1488,-222,1406,-632
5085,-360,-416,1608,-152,1419,-639
5090,-312,-624,1640,-22,1419,-651
5095,-424,-688,1664,129,1420,-687
5100,-584,-696,1624,263,1440,-729
5105,-848,-568,1600,379,1471,-762
5110,-1120,-432,1568,476,1493,-771
5115,-1248,-192,1616,560,1483,-763
5120,-1408,0,1744,600,1456,-746
5125,-1456,112,1744,610,1406,-723
5130,-1592,176,1688,587,1350,-706
5135,-1640,208,1584,554,1294,-689
5140,-1728,280,1528,501,1220,-678
5145,-1792,392,1504,436,1135,-661
5150,-1736,480,1512,364,1047,-654
5155,-1808,496,1552,262,981,-636
5160,-1864,416,1488,160,924,-623
5165,-1808,248,1384,41,860,-616
5170,-1752,128,1352,-66,820,-612
5175,-1640,0,1352,-147,777,-597
5180,-1568,-16,1336,-190,721,-564
5185,-1440,-72,1384,-211,677,-514
5190,-1296,-112,1376,-224,656,-475
5195,-1168,-144,1416,-221,669,-438
5200,-1064,-144,1360,-195,698,-408
5205,-888,-96,1136,-130,725,-367
5210,-816,0,1040,-45,761,-337
5215,-800,40,1120,-47,817,-334
5220,-736,80,1104,-51,849,-332
5225,-696,136,1152,-72,882,-325
5230,-832,224,1240,-98,918,-329
5235,-1032,280,1344,-108,957,-323
5240,-1240,368,1416,-107,982,-321
5245,-1368,376,1440,-138,980,-317
5250,-1480,384,1384,-196,964,-324
5255,-1536,352,1400,-257,940,-345
5260,-1568,320,1376,-307,898,-356
5265,-1560,280,1400,-320,859,-350
5270,-1600,184,1344,-301,816,-339
5275,-1552,344,1464,-279,776,-309
5280,-1592,352,1472,-214,737,-314
5285,-1608,368,1464,-188,694,-308
5290,-1600,432,1464,-180,638,-302
5295,-1600,544,1456,-194,572,-295
5300,-1496,600,1472,-228,513,-297
5305,-1424,640,1472,-277,446,-303
5310,-1328,656,1456,-324,392,-317
5315,-1144,688,1456,-346,343,-330
5320,-1120,680,1520,-350,321,-351
5325,-1088,656,1456,-332,309,-370
5330,-1200,640,1392,-303,303,-396
5335,-976,648,1336,-289,306,-421
5340,-904,592,1416,-312,327,-449
5345,-832,440,1328,-320,331,-473
5350,-880,264,1392,-292,351,-497
5355,-960,-128,1216,-232,412,-485
5360,-616,312,1272,-151,433,-471
5365,-752,136,1344,-45,496,-514
5370,-752,96,1368,25,546,-518
5375,-632,128,1360,87,570,-495
5380,-992,160,1552,66,606,-462
5385,-832,304,1504,124,587,-452
5390,-976,312,1536,145,581,-492
5395,-1064,56,1176,134,538,-490
5400,-816,576,1616,68,504,-478
5405,-1352,376,1656,119,552,-502
5410,-1280,136,1264,129,496,-508
5415,-1464,312,1704,26,482,-484
5420,-1664,256,1168,75,430,-495
5425,-1432,200,1352,59,357,-533
5430,-1488,40,1856,-18,387,-554
5435,-1560,-104,1872,-26,412,-551
5440,-1432,-96,1808,-16,402,-555
5445,-1632,-208,1768,17,400,-571
5450,-1592,-312,1768,49,423,-553
5455,-1488,-368,1664,105,437,-540
5460,-1352,-432,1600,156,450,-545
5465,-1200,-384,1576,212,481,-536
5470,-1200,-312,1520,317,477,-561
5475,-1136,-280,1552,369,473,-566
5480,-1232,-288,1624,396,465,-581
5485,-1408,-224,1664,436,450,-584
5490,-1408,-160,1600,504,454,-585
5495,-1368,-112,1520,575,474,-591
5500,-1344,0,1384,647,482,-604
5505,-1416,192,1080,667,460,-598
5510,-1504,320,904,622,394,-590
5515,-1784,392,888,543,294,-579
5520,-1840,456,552,496,171,-577
5525,-2056,496,856,318,114,-564
5530,-2200,432,944,204,54,-548
5535,-2280,408,880,126,-22,-526
5540,-2400,440,880,64,-90,-508
5545,-2392,424,824,-8,-185,-479
5550,-2376,352,792,-61,-271,-458
5555,-2248,352,824,-100,-363,-434
5560,-2120,264,904,-128,-440,-411
5565,-2016,152,960,-164,-509,-392
5570,-1904,96,968,-192,-567,-373
5575,-1832,24,1016,-222,-591,-332
5580,-1752,-120,1008,-258,-593,-292
5585,-1648,-168,1072,-295,-582,-251
5590,-1480,-208,1128,-293,-541,-203
5595,-1328,-192,1216,-247,-489,-157
5600,-1312,-216,1416,-208,-432,-118
5605,-1488,-224,1552,-169,-380,-68
5610,-1504,-160,1584,-130,-341,-18
5615,-1536,-136,1560,-115,-324,36
5620,-1464,-120,1536,-110,-321,82
5625,-1392,-152,1496,-99,-320,115
5630,-1288,-248,1488,-69,-303,134
5635,-1280,-280,1536,-16,-277,157
5640,-1304,-160,1560,41,-237,170
5645,-1280,-144,1576,48,-210,192
5650,-1280,-184,1584,41,-183,211
5655,-1280,-192,1552,47,-167,235
5660,-1296,-192,1536,53,-159,253
5665,-1280,-176,1536,41,-157,274
5670,-1304,-160,1560,29,-151,286
5675,-1312,-104,1536,18,-137,297
5680,-1272,-32,1576,9,-122,299
5685,-1208,32,1552,3,-108,299
5690,-1128,80,1552,3,-107,288
5695,-1064,48,1592,1,-104,281
5700,-1024,88,1528,-1,-107,260
5705,-952,88,1496,-8,-118,240
5710,-952,96,1464,-22,-128,209
5715,-952,104,1448,-29,-141,187
5720,-928,128,1448,-31,-154,160
5725,-888,152,1472,-30,-169,138
5730,-856,192,1480,-32,-181,119
5735,-864,208,1416,-29,-197,112
5740,-984,200,1528,-26,-208,105
5745,-1000,240,1616,-17,-221,97
5750,-872,248,1648,-15,-227,85
5755,-904,176,1688,-16,-227,82
5760,-968,168,1760,-8,-228,72
5765,-1040,184,1768,2,-229,67
5770,-1176,208,1776,2,-230,56
5775,-1240,256,1840,5,-231,57
5780,-1280,264,1848,21,-232,63
5785,-1304,256,1864,61,-232,79
5790,-1360,288,1792,105,-234,97
5795,-1368,320,1728,143,-244,123
5800,-1400,360,1648,157,-263,146
5805,-1352,416,1616,152,-294,176
5810,-1288,424,1544,131,-325,199
5815,-1336,424,1496,106,-351,226
5820,-1240,400,1432,82,-375,244
5825,-1200,360,1488,63,-399,258
5830,-1264,320,1496,44,-426,263
5835,-1128,328,1496,30,-439,273
5840,-1072,312,1480,32,-452,268
5845,-1184,288,1496,53,-452,262
5850,-1080,312,1496,80,-452,253
5855,-1088,344,1456,103,-452,243
5860,-1160,360,1448,110,-452,228
5865,-1072,328,1464,110,-465,216
5870,-1288,-120,1152,99,-478,203
5875,-968,504,1624,44,-451,235
5880,-1152,312,1448,148,-493,193
5885,-1248,224,1552,139,-514,189
5890,-1224,168,1544,147,-517,188
5895,-1152,128,1544,169,-512,188
5900,-1208,112,1464,186,-510,185
5905,-1160,104,1472,188,-512,188
5910,-1136,144,1504,183,-525,185
5915,-1184,184,1512,174,-535,195
5920,-1128,120,1520,165,-548,204
5925,-968,280,1824,82,-543,248
5930,-1200,224,1512,184,-555,215
5935,-1104,200,1680,208,-579,207
5940,-1184,168,1688,210,-598,198
5945,-1128,168,1728,216,-619,201
5950,-1088,216,1768,218,-639,189
5955,-1160,200,1720,222,-660,185
5960,-1160,224,1632,230,-665,183
5965,-944,216,1584,236,-662,180
5970,-1008,160,1560,209,-640,198
5975,-1048,360,1416,191,-601,208
5980,-960,328,1408,254,-629,172
5985,-952,280,1416,219,-644,166
5990,-920,248,1400,195,-652,157
5995,-856,272,1368,178,-649,156
6000,-824,232,1360,158,-645,148
6005,-792,232,1352,143,-646,144
6010,-816,144,1360,126,-646,137
6015,-752,104,1328,115,-645,140
6020,-768,-152,1472,42,-632,162
6025,-600,232,1280,56,-596,160
6030,-592,8,1240,117,-569,129
6035,-632,-16,1224,147,-502,120
6040,-576,32,1168,185,-433,103
6045,-552,72,1160,197,-387,88
6050,-448,152,1152,184,-355,65
6055,-552,200,1128,154,-310,56
6060,-576,312,1096,119,-264,46
6065,-504,368,1160,76,-230,33
6070,-400,472,952,24,-234,11
6075,-576,440,1240,-27,-172,-5
6080,-744,448,1248,-70,-106,-16
6085,-1048,360,1264,-111,-60,-19
6090,-1128,328,1296,-158,-31,-19
6095,-1216,296,1336,-196,-10,-18
6100,-1232,296,1384,-224,3,-18
6105,-1256,312,1504,-246,16,-13
6110,-1216,352,1616,-262,27,-11
6115,-1176,304,1784,-272,41,-3
6120,-1176,296,1856,-270,51,5
6125,-1128,304,1936,-251,62,15
6130,-1120,288,1992,-220,80,27
6135,-1080,256,1960,-173,96,40
6140,-1032,288,1928,-129,104,51
6145,-968,256,1904,-93,97,60
6150,-936,264,1896,-66,80,63
6155,-880,264,1848,-50,61,69
6160,-880,248,1848,-36,45,68
6165,-824,208,1848,-17,36,68
6170,-808,184,1864,6,47,59
6175,-800,176,1776,38,72,53
6180,-808,208,1736,67,100,45
6185,-816,272,1608,74,116,38
6190,-752,320,1536,60,112,27
6195,-752,360,1496,21,92,23
6200,-752,376,1424,-28,70,10
6205,-760,360,1472,-75,62,3
6210,-792,336,1472,-105,62,-11
6215,-768,320,1488,-132,62,-21
6220,-776,352,1496,-146,60,-36
6225,-760,320,1520,-159,58,-39
6230,-776,296,1528,-166,58,-48
6235,-736,328,1536,-170,58,-53
6240,-736,352,1536,-180,59,-57
6245,-704,368,1544,-191,60,-60
6250,-720,376,1592,-201,65,-63
6255,-672,360,1600,-212,76,-60
6260,-656,360,1648,-218,86,-61
6265,-672,368,1672,-225,97,-64
6270,-672,392,1672,-237,104,-68
6275,-656,360,1672,-251,112,-70
6280,-680,368,1752,-260,121,-79
6285,-720,360,1808,-264,129,-81
6290,-640,352,1864,-265,129,-84
6295,-632,312,1928,-262,140,-87
6300,-624,280,2016,-263,166,-94
6305,-624,256,2000,-255,185,-94
6310,-632,240,2008,-226,192,-94
6315,-656,160,2040,-187,196,-90
6320,-640,120,2016,-135,198,-82
6325,-624,72,1968,-79,205,-76
6330,-640,48,1848,-16,224,-75
6335,-632,88,1800,42,247,-76
6340,-648,136,1696,81,265,-81
6345,-648,160,1632,97,276,-83
6350,-672,160,1584,89,275,-87
6355,-720,184,1568,67,264,-88
6360,-752,192,1600,51,257,-90
6365,-792,224,1592,40,248,-90
6370,-848,256,1560,26,241,-94
6375,-872,248,1536,14,237,-94
6380,-888,272,1528,1,231,-99
6385,-920,288,1536,-8,226,-98
6390,-920,264,1528,-19,219,-98
6395,-952,296,1560,-26,209,-95
6400,-952,288,1568,-34,194,-92
6405,-896,304,1600,-43,175,-88
6410,-968,312,1656,-50,164,-88
6415,-936,320,1656,-67,158,-80
6420,-968,304,1672,-86,155,-76
6425,-952,272,1680,-105,158,-71
6430,-976,240,1728,-124,165,-67
6435,-968,240,1736,-139,161,-57
6440,-1016,224,1712,-144,153,-52
6445,-864,200,1712,-138,126,-41
6450,-984,208,1864,-120,111,-51
6455,-832,104,2152,-107,109,-51
6460,-928,280,1808,-123,140,-42
6465,-960,232,1696,-150,149,-38
6470,-1048,184,1640,-176,148,-39
6475,-912,216,1656,-199,141,-39
6480,-952,192,1680,-211,153,-44
6485,-984,184,1696,-219,165,-43
6490,-968,184,1632,-218,170,-47
6495,-960,184,1624,-215,166,-44
6500,-944,112,1616,-209,153,-41
6505,-928,16,1672,-194,134,-36
6510,-928,-24,1664,-168,119,-30
6515,-944,-40,1672,-131,110,-24
6520,-928,-48,1648,-79,106,-21
6525,-936,8,1616,-29,106,-19
6530,-944,40,1584,6,105,-23
6535,-984,128,1568,25,100,-23
6540,-992,152,1568,30,93,-29
6545,-1024,168,1536,27,83,-32
6550,-1056,176,1552,20,75,-32
6555,-1040,184,1608,9,65,-33
6560,-1104,312,1608,-2,55,-33
6565,-1128,144,1616,-11,44,-31
6570,-1120,160,1584,-14,32,-31
6575,-1128,208,1672,-15,23,-27
6580,-1024,232,1656,-9,11,-24
6585,-1080,240,1736,-1,-1,-18
6590,-1112,224,1688,7,-8,-13
6595,-1120,120,1704,14,-10,-7
6600,-1040,152,1608,22,-13,-1
6605,-1008,136,1616,32,-15,6
6610,-1064,216,1688,40,-21,14
6615,-1080,104,1632,53,-22,21
6620,-1024,152,1672,65,-23,30
6625,-944,160,1584,76,-20,39
6630,-960,216,1776,87,-15,45
6635,-824,320,1712,95,-10,49
6640,-928,200,1576,97,-1,54
6645,-912,256,1560,91,8,54
6650,-888,272,1544,78,12,55
6655,-872,304,1544,57,13,52
6660,-864,320,1472,31,11,51
6665,-864,288,1568,6,7,45
6670,-840,288,1552,-18,8,39
6675,-848,312,1560,-38,9,33
6680,-824,256,1608,-56,13,28
6685,-744,248,1648,-69,18,21
6690,-840,248,1624,-78,21,18
6695,-816,224,1600,-80,24,14
6700,-816,208,1608,-81,23,12
6705,-800,208,1616,-85,23,10
6710,-776,184,1624,-88,20,7
6715,-776,160,1656,-89,17,6
6720,-792,144,1656,-90,17,2
6725,-792,176,1672,-87,19,0
6730,-784,168,1664,-81,23,-4
6735,-816,168,1656,-72,31,-9
6740,-792,176,1648,-64,39,-10
6745,-816,168,1672,-56,45,-13
6750,-792,152,1680,-51,51,-12
6755,-840,176,1640,-46,54,-15
6760,-816,168,1664,-43,53,-15
6765,-848,144,1672,-43,55,-19
6770,-832,152,1648,-41,56,-21
6775,-840,168,1664,-43,57,-24
6780,-872,184,1680,-41,63,-24
6785,-848,168,1672,-42,67,-27
6790,-888,176,1680,-42,69,-26
6795,-880,144,1712,-42,73,-26
6800,-888,184,1696,-40,77,-26
6805,-920,168,1656,-34,79,-27
6810,-904,176,1632,-29,80,-23
6815,-904,168,1664,-22,80,-23
6820,-912,184,1664,-16,80,-20
6825,-912,152,1648,-8,80,-18
6830,-888,160,1632,1,80,-14
6835,-936,136,1616,6,81,-12
6840,-888,168,1616,10,85,-10
6845,-912,160,1600,9,87,-10
6850,-928,200,1616,6,88,-10
6855,-928,192,1632,1,87,-13
6860,-928,192,1624,-10,83,-11
6865,-936,176,1640,-18,81,-12
6870,-960,200,1648,-22,80,-11
6875,-944,208,1656,-22,81,-12
6880,-928,168,1648,-15,81,-9
6885,-920,184,1584,-9,83,-11
6890,-912,168,1624,-6,80,-9
6895,-904,200,1616,-7,76,-10
6900,-928,192,1616,-9,70,-9
6905,-928,192,1608,-10,65,-9
6910,-904,184,1584,-10,63,-7
6915,-920,208,1616,-12,60,-7
6920,-936,216,1632,-14,58,-6
6925,-928,200,1616,-13,56,-7
6930,-920,184,1632,-14,54,-6
6935,-936,184,1616,-12,54,-6
6940,-920,176,1640,-11,54,-3
6945,-912,168,1616,-10,54,-4
6950,-928,176,1640,-7,56,-1
6955,-920,176,1656,-8,57,-1
6960,-920,184,1616,-5,55,-1
6965,-904,168,1616,-5,55,0
6970,-928,192,1648,-6,54,2
6975,-920,192,1640,-8,50,1
6980,-920,184,1624,-9,48,2
6985,-936,176,1624,-10,45,2
6990,-904,168,1648,-11,43,4
6995,-928,192,1640,-12,42,1
7000,-944,168,1624,-12,40,1
7005,-936,184,1632,-14,41,1
7010,-920,200,1624,-14,41,2
7015,-904,168,1632,-16,41,0
7020,-912,160,1656,-17,40,1
7025,-920,152,1680,-10,42,0
7030,-896,128,1712,-1,47,4
7035,-896,128,1696,12,50,5
7040,-888,128,1680,31,54,8
7045,-872,128,1688,50,59,12
7050,-888,152,1664,65,63,16
7055,-864,160,1600,78,65,18
7060,-888,208,1616,87,69,20
7065,-864,216,1600,90,69,20
7070,-880,224,1576,87,70,22
7075,-880,240,1600,76,65,17
7080,-896,216,1592,62,59,17
7085,-880,264,1584,41,55,10
7090,-896,272,1616,20,52,9
7095,-896,232,1640,2,51,2
7100,-896,224,1648,-12,53,1
7105,-928,224,1648,-22,56,-4
7110,-904,232,1608,-29,59,-5
7115,-904,216,1624,-34,61,-8
7120,-888,216,1632,-37,58,-6
7125,-920,216,1656,-42,55,-7
7130,-880,200,1656,-48,52,-4
7135,-912,200,1640,-53,49,-6
7140,-864,176,1640,-57,48,-4
7145,-888,192,1632,-61,47,-8
7150,-864,160,1640,-65,46,-5
7155,-896,184,1600,-66,46,-10
7160,-888,176,1648,-65,47,-7
7165,-888,152,1656,-62,50,-8
7170,-872,160,1648,-57,54,-7
7175,-888,160,1632,-50,57,-8
7180,-896,208,1632,-47,61,-7
7185,-888,160,1632,-40,62,-10
7190,-904,176,1608,-38,64,-8
7195,-912,200,1632,-34,65,-8
7200,-896,160,1656,-32,64,-8
7205,-920,184,1592,-32,64,-9
7210,-760,128,1648,-30,62,-9
7215,-888,168,1624,-27,61,-11
7220,-912,192,1632,-27,62,-9
7225,-912,184,1664,-26,62,-11
7230,-936,216,1608,-25,62,-10
7235,-904,192,1656,-22,61,-12
7240,-904,176,1648,-20,63,-9
7245,-904,168,1616,-20,63,-9
7250,-920,200,1664,-17,63,-7
7255,-912,176,1648,-15,64,-10
7260,-928,184,1640,-13,65,-6
7265,-904,184,1664,-9,65,-8
7270,-928,200,1632,-6,69,-6
7275,-880,192,1672,-5,69,-5
7280,-888,168,1648,-2,71,-2
7285,-920,192,1656,3,71,-1
7290,-904,176,1648,9,71,2
7295,-896,152,1688,14,70,2
7300,-888,136,1648,24,69,8
7305,-896,128,1680,42,69,9
7310,-888,64,1664,64,69,15
7315,-880,48,1672,94,71,21
7320,-888,56,1600,128,78,30
7325,-880,64,1592,157,86,31
7330,-920,72,1608,178,96,35
7335,-888,96,1576,188,100,32
7340,-912,144,1560,185,102,37
7345,-896,176,1584,172,103,36
7350,-920,216,1616,155,102,39
7355,-928,248,1592,138,101,36
7360,-952,304,1552,123,97,35
7365,-976,304,1560,105,95,27
7370,-968,320,1576,85,90,24
7375,-984,336,1560,65,81,15
7380,-968,296,1576,49,77,13
7385,-968,296,1568,37,74,5
7390,-992,320,1600,25,72,3
7395,-976,312,1632,12,69,-3
7400,-944,304,1656,-7,66,-3
7405,-952,288,1616,-23,59,-7
7410,-944,280,1600,-38,52,-3
7415,-960,288,1640,-52,49,-5
7420,-928,296,1656,-63,47,-4
7425,-928,272,1616,-72,43,-5
7430,-928,264,1640,-77,39,-2
7435,-872,240,1624,-83,34,-4
7440,-880,232,1632,-86,33,-1
7445,-904,224,1656,-82,33,-3
7450,-864,168,1680,-71,35,0
7455,-856,160,1712,-56,38,0
7460,-808,64,1752,-29,39,7
7465,-808,8,1688,8,40,12
7470,-848,8,1720,55,47,19
7475,-840,24,1640,105,62,20
7480,-848,56,1600,148,86,22
7485,-888,88,1552,169,102,19
7490,-864,128,1528,173,109,20
7495,-872,192,1536,165,105,15
7500,-904,240,1528,150,101,19
7505,-888,232,1544,137,95,17
7510,-936,304,1584,125,89,17
7515,-944,280,1608,110,84,12
7520,-976,336,1624,94,76,11
7525,-960,304,1608,78,70,5
7530,-960,336,1616,63,65,5
7535,-952,312,1616,49,59,1
7540,-952,296,1632,31,56,2
7545,-944,280,1648,22,53,-2
7550,-952,280,1640,16,53,3
7555,-936,280,1688,9,50,1
7560,-936,272,1680,3,47,6
7565,-904,264,1672,-7,43,5
7570,-928,296,1640,-16,39,9
7575,-912,312,1664,-25,36,7
7580,-888,280,1640,-33,33,11
7585,-888,280,1648,-43,31,10
7590,-880,280,1648,-50,34,10
7595,-880,256,1632,-56,37,7
7600,-888,272,1616,-59,40,9
7605,-848,248,1688,-68,42,2
7610,-864,208,1688,-71,43,-1
7615,-848,168,1720,-66,45,-2
7620,-848,120,1720,-50,49,2
7625,-840,72,1664,-17,55,0
7630,-832,32,1632,29,71,5
7635,-856,40,1608,85,94,3
7640,-864,80,1600,128,117,7
7645,-864,120,1560,157,133,5
7650,-888,176,1520,168,137,8
7655,-912,216,1568,164,130,5
7660,-928,240,1584,152,117,8
7665,-912,240,1624,138,104,4
7670,-936,312,1616,124,94,5
7675,-968,312,1600,115,88,1
7680,-984,320,1640,103,80,5
7685,-928,328,1592,87,73,2
7690,-968,344,1624,68,64,3
7695,-960,328,1568,52,55,1
7700,-936,320,1616,35,49,2
7705,-968,336,1632,17,42,1
7710,-936,328,1632,-4,37,5
7715,-928,320,1648,-25,29,3
7720,-936,304,1600,-40,24,8
7725,-928,296,1600,-52,25,7
7730,-920,304,1600,-61,25,9
7735,-888,312,1632,-71,27,6
7740,-888,312,1648,-82,27,6
7745,-880,288,1632,-92,28,3
7750,-904,264,1632,-101,27,3
7755,-872,296,1632,-112,28,-1
7760,-872,240,1664,-126,32,0
7765,-872,216,1680,-138,35,-6
7770,-880,192,1704,-143,41,-7
7775,-880,200,1728,-139,46,-9
7780,-872,184,1720,-124,48,-7
7785,-856,112,1704,-93,51,-8
7790,-848,80,1672,-49,51,-5
7795,-872,48,1640,6,61,-5
7800,-880,48,1560,61,79,-1
7805,-888,104,1552,104,94,-2
7810,-904,128,1552,129,103,2
7815,-888,136,1536,140,107,2
7820,-920,200,1600,142,104,9
7825,-920,232,1608,140,97,10
7830,-944,296,1568,136,88,14
7835,-896,304,1568,125,81,11
7840,-944,336,1600,105,75,12
7845,-960,344,1608,81,72,8
7850,-952,352,1616,57,68,7
7855,-960,320,1632,37,73,2
7860,-976,352,1624,20,77,3
7865,-984,360,1600,3,77,0
7870,-968,376,1608,-29,64,2
7875,-936,352,1616,-56,51,1
7880,-928,336,1640,-75,41,2
7885,-928,312,1624,-85,37,0
7890,-912,312,1616,-87,36,1
7895,-920,272,1624,-87,36,-1
7900,-896,296,1592,-85,38,1
7905,-864,264,1576,-81,43,-1
7910,-904,288,1600,-79,47,0
7915,-864,296,1576,-81,47,-1
7920,-888,296,1632,-92,45,-1
7925,-864,272,1640,-106,42,-5
7930,-856,240,1664,-121,42,-6
7935,-872,232,1632,-130,43,-11
7940,-888,240,1680,-135,44,-15
7945,-840,232,1696,-140,48,-21
7950,-880,208,1704,-142,57,-24
7955,-872,184,1704,-134,59,-28
7960,-880,136,1696,-115,62,-27
7965,-872,88,1672,-73,61,-24
7970,-912,48,1632,-28,59,-16
7975,-896,8,1568,27,61,-12
7980,-912,64,1576,82,72,-6
7985,-904,112,1552,119,88,-4
7990,-912,152,1576,136,98,1
7995,-928,176,1568,137,99,2
8000,-936,232,1592,132,92,8
8005,-944,248,1624,124,78,12
8010,-984,288,1584,116,64,15
8015,-976,304,1624,107,53,16
8020,-960,336,1592,94,48,16
8025,-984,344,1640,81,54,12
8030,-992,352,1608,62,57,11
8035,-1008,336,1608,41,63,9
8040,-1000,352,1616,22,66,10
8045,-968,344,1616,4,64,10
8050,-968,344,1600,-21,54,9
8055,-944,336,1608,-51,43,8
8060,-920,320,1600,-72,36,6
8065,-896,336,1576,-87,33,5
8070,-904,328,1608,-98,33,4
8075,-888,280,1640,-100,35,3
8080,-864,272,1648,-97,40,3
8085,-872,264,1592,-92,43,1
8090,-864,280,1592,-91,45,0
8095,-848,272,1576,-93,47,-3
8100,-848,280,1584,-100,47,-6
8105,-856,264,1584,-111,49,-7
8110,-856,248,1640,-122,47,-11
8115,-864,248,1624,-130,49,-14
8120,-880,200,1608,-136,50,-18
8125,-872,192,1664,-133,53,-23
8130,-888,184,1640,-126,56,-25
8135,-872,184,1656,-116,61,-28
8140,-872,176,1648,-109,63,-28
8145,-904,200,1664,-98,66,-29
8150,-920,208,1648,-88,63,-30
8155,-936,232,1648,-81,57,-30
8160,-928,200,1632,-75,54,-27
8165,-912,152,1640,-66,49,-25
8170,-928,136,1656,-51,45,-22
8175,-912,104,1648,-31,42,-18
8180,-928,88,1640,-1,43,-12
8185,-904,64,1608,34,51,-7
8190,-904,112,1584,71,69,0
8195,-904,144,1576,103,86,5
8200,-896,184,1592,115,95,11
8205,-928,216,1584,116,93,16
8210,-920,216,1568,111,89,20
8215,-952,264,1608,108,84,23
8220,-936,280,1648,107,79,26
8225,-944,312,1680,99,76,25
8230,-960,344,1656,85,77,23
8235,-952,336,1664,66,79,19
8240,-944,344,1656,48,81,13
8245,-928,328,1656,28,83,10
8250,-928,296,1712,8,80,6
8255,-944,320,1640,-7,78,4
8260,-936,304,1648,-21,73,2
8265,-904,296,1600,-34,71,0
8270,-920,296,1592,-46,67,-1
8275,-896,304,1584,-59,63,-4
8280,-888,296,1544,-73,60,-6
8285,-880,256,1576,-81,59,-8
8290,-888,248,1584,-85,58,-8
8295,-872,264,1584,-86,56,-8
8300,-872,240,1576,-88,53,-9
8305,-888,248,1584,-89,51,-9
8310,-864,240,1584,-92,49,-11
8315,-864,224,1640,-97,46,-12
8320,-896,232,1640,-100,45,-14
8325,-880,232,1648,-102,47,-18
8330,-880,168,1664,-103,50,-19
8335,-872,184,1624,-101,53,-23
8340,-912,160,1656,-92,55,-23
8345,-920,168,1656,-83,56,-25
8350,-944,192,1640,-72,55,-25
8355,-928,192,1648,-60,54,-24
8360,-944,176,1664,-54,51,-22
8365,-936,192,1640,-49,48,-21
8370,-952,216,1632,-43,43,-19
8375,-936,184,1632,-37,41,-17
8380,-936,208,1600,-34,39,-15
8385,-944,224,1616,-34,34,-14
8390,-936,224,1616,-35,33,-11
8395,-920,216,1632,-32,32,-9
8400,-920,200,1616,-31,36,-8
8405,-920,192,1640,-28,39,-5
8410,-904,216,1624,-25,42,-4
8415,-912,200,1632,-23,47,-3
8420,-912,208,1616,-23,54,-1
8425,-928,224,1648,-20,57,0
8430,-920,232,1656,-20,63,1
8435,-928,248,1648,-18,65,2
8440,-920,224,1648,-16,68,2
8445,-904,224,1648,-12,71,4
8450,-920,224,1648,-7,72,4
8455,-920,200,1656,0,73,6
8460,-912,192,1680,12,72,6
8465,-888,152,1632,27,75,7
8470,-880,168,1608,45,81,10
8475,-888,184,1576,64,87,14
8480,-872,184,1584,82,91,16
8485,-888,216,1568,89,90,18
8490,-880,216,1568,92,88,19
8495,-928,248,1576,90,83,20
8500,-936,288,1576,87,79,18
8505,-920,232,1616,75,72,19
8510,-928,264,1624,59,69,14
8515,-920,272,1648,44,67,11
8520,-960,280,1656,30,67,6
8525,-960,296,1672,12,67,5
8530,-968,288,1640,2,64,3
8535,-944,272,1680,-8,58,4
8540,-936,264,1624,-16,50,3
8545,-928,272,1584,-26,45,4
8550,-960,304,1584,-37,41,1
8555,-912,256,1584,-46,39,0
8560,-904,272,1584,-55,37,0
8565,-880,256,1592,-61,38,-1
8570,-888,272,1632,-68,38,-5
8575,-888,232,1656,-71,37,-4
8580,-888,248,1640,-75,39,-8
8585,-920,256,1640,-78,39,-7
8590,-904,232,1672,-80,41,-11
8595,-888,192,1664,-83,44,-11
8600,-880,200,1664,-84,46,-13
8605,-880,184,1664,-82,49,-12
8610,-912,208,1664,-79,52,-14
8615,-888,208,1632,-75,55,-13
8620,-872,168,1632,-67,57,-15
8625,-872,200,1648,-60,60,-14
8630,-888,192,1656,-51,62,-14
8635,-896,208,1616,-43,62,-14
8640,-896,216,1608,-38,63,-16
8645,-888,216,1632,-32,62,-14
8650,-896,232,1600,-28,63,-14
8655,-904,232,1640,-25,61,-12
8660,-912,224,1616,-24,58,-13
8665,-904,240,1608,-25,58,-10
8670,-888,224,1632,-27,57,-13
8675,-928,208,1616,-27,55,-10
8680,-936,216,1656,-27,52,-9
8685,-928,208,1640,-25,53,-7
8690,-912,224,1632,-22,52,-6
8695,-928,240,1648,-20,52,-6
8700,-904,232,1640,-19,54,-5
8705,-896,208,1616,-18,53,-2
8710,-928,224,1608,-19,49,-2
8715,-920,232,1624,-21,46,-1
8720,-920,248,1632,-22,44,-2
8725,-920,240,1632,-24,42,2
8730,-936,240,1592,-28,41,1
8735,-904,224,1600,-32,39,4
8740,-920,232,1576,-35,39,4
8745,-920,192,1576,-38,38,7
8750,-920,208,1608,-43,39,9
8755,-936,224,1584,-46,41,11
8760,-920,208,1600,-50,41,12
8765,-928,224,1592,-54,38,15
8770,-896,208,1616,-57,39,14
8775,-920,208,1600,-61,40,16
8780,-896,216,1616,-70,40,15
8785,-928,240,1608,-80,43,16
8790,-912,192,1608,-92,45,13
8795,-936,208,1608,-98,50,12
8800,-936,184,1648,-105,53,8
8805,-952,192,1600,-107,56,7
8810,-944,192,1600,-107,58,2
8815,-952,184,1616,-101,62,4
8820,-936,192,1576,-89,65,0
8825,-936,184,1616,-71,69,2
8830,-936,168,1680,-49,70,4
8835,-920,184,1656,-24,64,9
8840,-912,200,1640,-6,58,10
8845,-936,200,1672,0,51,15
8850,-896,208,1664,4,48,12
8855,-904,216,1656,6,50,14
8860,-880,208,1624,1,53,9
8865,-912,240,1640,-5,55,9
8870,-928,248,1632,-12,55,6
8875,-880,232,1648,-21,53,6
8880,-912,240,1624,-26,49,3
8885,-888,224,1608,-27,48,4
8890,-904,192,1632,-25,47,1
8895,-896,216,1616,-18,50,3
8900,-912,208,1616,-13,51,0
8905,-888,216,1648,-5,53,4
8910,-872,200,1616,0,52,2
8915,-872,200,1616,1,53,5
8920,-872,208,1608,6,55,3
8925,-880,192,1624,9,57,4
8930,-880,216,1616,10,58,2
8935,-880,216,1640,13,58,3
8940,-856,208,1648,17,60,3
8945,-936,136,1672,21,61,5
8950,-848,152,1656,30,60,6
8955,-896,144,1680,44,61,4
8960,-880,120,1656,68,70,8
8965,-888,128,1656,87,80,10
8970,-896,152,1640,106,90,11
8975,-880,168,1592,124,99,16
8980,-888,192,1600,137,104,16
8985,-912,224,1608,143,102,20
8990,-912,256,1624,140,97,17
8995,-944,288,1608,132,92,18
9000,-896,256,1608,125,89,13
9005,-952,256,1624,115,88,12
9010,-912,304,1608,98,85,7
9015,-920,312,1656,75,83,6
9020,-968,312,1640,55,83,0
9025,-896,312,1632,39,85,-2
9030,-904,296,1640,27,86,-4
9035,-920,272,1624,16,87,-3
9040,-912,296,1632,7,87,-7
9045,-928,264,1632,0,86,-5
9050,-928,280,1584,-7,84,-9
9055,-904,288,1592,-12,82,-7
9060,-896,256,1640,-20,81,-12
9065,-896,288,1576,-32,79,-11
9070,-896,248,1608,-44,75,-14
9075,-896,248,1624,-55,71,-13
9080,-920,248,1656,-66,71,-14
9085,-888,240,1648,-74,69,-12
9090,-880,184,1656,-74,70,-14
9095,-920,200,1608,-76,67,-12
9100,-896,208,1608,-76,62,-15
9105,-888,192,1608,-77,61,-12
9110,-880,184,1624,-78,58,-15
9115,-880,192,1608,-76,59,-13
9120,-904,184,1640,-73,59,-16
9125,-920,192,1608,-72,57,-15
9130,-904,200,1624,-70,57,-17
9135,-936,216,1648,-71,54,-14
9140,-936,200,1656,-70,51,-15
9145,-920,208,1656,-67,48,-14
9150,-936,224,1640,-61,46,-15
9155,-920,208,1584,-56,45,-13
9160,-928,208,1632,-52,45,-12
9165,-920,208,1640,-49,46,-10
9170,-936,232,1632,-45,48,-13
9175,-936,224,1584,-40,51,-11
9180,-920,232,1624,-39,54,-11
9185,-912,216,1640,-37,56,-9
9190,-936,240,1632,-35,56,-10
9195,-928,216,1592,-33,59,-7
9200,-904,208,1624,-32,60,-10
9205,-920,224,1640,-29,62,-7
9210,-920,224,1640,-27,63,-9
9215,-928,224,1624,-26,63,-7
9220,-936,232,1616,-25,67,-10
9225,-888,208,1640,-28,66,-8
9230,-936,224,1656,-27,68,-10
9235,-920,224,1600,-29,68,-7
9240,-912,232,1640,-31,69,-9
9245,-896,224,1608,-30,69,-6
9250,-888,208,1584,-29,70,-7
9255,-904,224,1592,-31,69,-7
9260,-912,200,1624,-32,66,-8
9265,-888,216,1624,-35,66,-7
9270,-904,216,1608,-37,65,-11
9275,-928,224,1632,-39,64,-9
9280,-920,232,1640,-39,61,-12
9285,-912,224,1632,-39,62,-10
9290,-928,216,1616,-40,62,-14
9295,-904,216,1624,-42,59,-13
9300,-912,216,1624,-41,59,-15
9305,-904,216,1600,-42,60,-12
9310,-920,200,1640,-41,60,-13
9315,-920,224,1616,-40,60,-10
9320,-904,184,1632,-42,57,-12
9325,-912,200,1616,-45,58,-10
9330,-912,200,1648,-45,58,-10
9335,-928,208,1632,-44,58,-9
9340,-936,208,1632,-41,60,-11
9345,-928,192,1656,-38,60,-6
9350,-912,200,1632,-36,60,-8
9355,-888,216,1624,-34,61,-2
9360,-920,208,1632,-32,62,-3
9365,-912,192,1624,-31,61,-1
9370,-896,200,1624,-29,63,-2
9375,-920,184,1616,-25,61,-1
9380,-912,208,1608,-22,60,-2
9385,-920,192,1624,-20,60,0
9390,-896,176,1608,-20,60,-1
9395,-920,232,1600,-19,58,1
9400,-912,216,1608,-17,56,-1
9405,-912,200,1624,-16,55,2
9410,-904,216,1608,-16,54,0
9415,-920,208,1592,-16,55,2
9420,-904,208,1648,-16,55,0
9425,-896,208,1608,-16,54,2
9430,-912,216,1616,-16,54,0
9435,-920,216,1600,-16,54,0
9440,-904,200,1624,-16,53,-2
9445,-920,224,1640,-15,53,-1
9450,-920,200,1592,-13,53,-3
9455,-904,208,1632,-11,53,-2
9460,-896,200,1616,-7,53,-5
9465,-912,200,1656,-4,54,-3
9470,-896,184,1608,-3,55,-4
9475,-896,200,1616,-1,57,-1
9480,-904,200,1592,0,58,-3
9485,-896,208,1624,1,60,-2
9490,-896,200,1616,1,62,-3
9495,-928,184,1592,-1,61,-2
9500,-912,192,1608,-2,62,-2
9505,-904,200,1640,-1,62,0
9510,-928,192,1600,0,63,-1
9515,-888,200,1632,2,60,-1
9520,-920,200,1608,2,61,-2
9525,-912,200,1624,3,61,1
9530,-920,208,1648,2,60,-1
9535,-912,216,1648,2,61,-1
9540,-896,184,1656,-2,60,-2
9545,-888,192,1632,-2,61,0
9550,-920,216,1648,0,63,-1
9555,-944,232,1608,3,63,2
9560,-896,224,1632,5,66,0
9565,-904,216,1624,6,66,2
9570,-936,216,1640,10,68,1
9575,-904,208,1624,14,71,4
9580,-912,184,1608,19,73,3
9585,-888,160,1608,27,75,10
9590,-896,120,1632,37,76,10
9595,-936,128,1664,55,79,16
9600,-904,112,1672,74,81,19
9605,-920,104,1656,93,88,22
9610,-920,104,1712,111,98,25
9615,-928,112,1664,124,106,28
9620,-920,128,1624,135,115,29
9625,-920,168,1608,143,123,32
9630,-936,216,1608,151,131,29
9635,-960,240,1592,155,134,30
9640,-968,296,1592,157,133,28
9645,-960,320,1568,149,126,31
9650,-968,320,1568,132,115,29
9655,-968,344,1584,107,103,26
9660,-952,344,1592,80,89,19
9665,-960,336,1584,56,81,16
9670,-968,320,1632,37,78,11
9675,-944,344,1624,21,76,6
9680,-928,336,1608,9,76,1
9685,-912,312,1632,-1,79,-2
9690,-928,312,1608,-9,79,-6
9695,-936,320,1608,-16,76,-6
9700,-920,280,1608,-25,73,-7
9705,-912,272,1600,-33,68,-6
9710,-904,288,1624,-41,66,-9
9715,-904,264,1592,-49,62,-8
9720,-912,240,1592,-54,57,-10
9725,-904,240,1624,-60,53,-9
9730,-912,224,1632,-64,49,-12
9735,-912,208,1632,-64,47,-14
9740,-920,192,1632,-60,44,-14
9745,-896,192,1592,-58,46,-16
9750,-912,192,1648,-54,44,-17
9755,-920,168,1600,-47,44,-18
9760,-896,168,1632,-42,44,-18
9765,-912,144,1648,-32,44,-15
9770,-920,120,1656,-19,46,-15
9775,-912,112,1664,-3,48,-7
9780,-936,128,1632,20,53,-4
9785,-912,168,1632,38,61,-1
9790,-920,168,1592,53,68,0
9795,-912,216,1600,62,74,4
9800,-904,240,1568,62,78,5
9805,-920,256,1584,55,75,6
9810,-912,288,1584,46,69,5
9815,-928,280,1560,31,63,6
9820,-904,304,1592,14,56,5
9825,-936,288,1640,-5,53,4
9830,-928,288,1616,-17,52,3
9835,-928,280,1608,-26,56,1
9840,-912,264,1632,-34,59,-1
9845,-968,296,1656,-43,60,-1
9850,-952,272,1648,-53,61,-3
9855,-968,256,1648,-62,61,-3
9860,-968,272,1672,-69,61,-5
9865,-976,272,1632,-73,64,-4
9870,-968,272,1632,-74,69,-4
9875,-952,264,1640,-69,73,-3
9880,-952,272,1584,-63,78,-3
9885,-928,296,1568,-60,82,-2
9890,-920,328,1536,-59,87,-2
9895,-904,320,1512,-67,89,-4
9900,-888,344,1520,-82,88,-6
9905,-912,352,1544,-104,89,-7
9910,-880,360,1552,-130,88,-12
9915,-872,352,1528,-153,87,-17
9920,-864,312,1560,-174,87,-20
9925,-872,288,1560,-184,93,-22
9930,-888,248,1592,-189,102,-24
9935,-832,176,1576,-190,110,-26
9940,-832,168,1584,-191,122,-28
9945,-856,112,1600,-193,133,-31
9950,-928,120,1624,-198,151,-36
9955,-896,72,1720,-204,172,-28
9960,-888,80,1768,-183,157,-26
9965,-896,88,1736,-161,151,-27
9970,-928,96,1744,-159,148,-27
9975,-904,112,1696,-161,140,-29
9980,-904,136,1680,-158,134,-31
9985,-936,152,1656,-147,129,-30
9990,-944,152,1648,-138,125,-30
9995,-952,184,1624,-130,120,-29
10000,-912,176,1624,-119,114,-29
10005,-920,184,1600,-110,109,-31
10010,-944,192,1624,-105,105,-28
10015,-960,208,1592,-104,105,-28
10020,-960,216,1600,-105,101,-28
10025,-976,216,1608,-104,96,-30
10030,-968,216,1592,-105,92,-29
10035,-968,248,1608,-109,89,-29
10040,-968,232,1624,-113,88,-30
10045,-952,200,1608,-116,86,-32
10050,-968,224,1624,-120,88,-33
10055,-1000,200,1632,-121,91,-36
10060,-992,208,1600,-119,90,-35
10065,-968,168,1632,-123,96,-37
10070,-960,160,1640,-118,101,-36
10075,-944,176,1592,-116,108,-36
10080,-968,200,1624,-124,118,-32
10085,-984,152,1632,-125,121,-31
10090,-992,176,1632,-117,116,-30
10095,-984,168,1616,-113,115,-28
10100,-952,152,1616,-108,112,-26
10105,-952,136,1600,-98,106,-27
10110,-976,168,1624,-91,101,-24
10115,-968,168,1608,-87,97,-22
10120,-968,112,1624,-81,93,-21
10125,-960,128,1592,-72,86,-21
10130,-976,152,1584,-67,79,-20
10135,-960,152,1600,-63,73,-17
10140,-968,136,1576,-60,71,-15
10145,-968,144,1608,-57,65,-16
10150,-968,112,1584,-50,63,-13
10155,-944,136,1576,-45,60,-14
10160,-960,128,1576,-41,59,-13
10165,-944,120,1600,-42,57,-14
10170,-992,144,1592,-46,56,-14
10175,-976,136,1592,-49,56,-14
10180,-976,112,1632,-51,59,-12
10185,-952,104,1632,-51,62,-10
10190,-968,144,1616,-51,64,-11
10195,-984,128,1608,-48,66,-11
10200,-984,144,1616,-43,69,-7
10205,-976,120,1592,-37,68,-8
10210,-960,136,1584,-36,67,-7
10215,-960,136,1616,-38,65,-8
10220,-976,128,1600,-38,64,-5
10225,-960,144,1608,-37,62,-5
10230,-976,128,1600,-36,61,-2
10235,-960,136,1624,-36,59,-1
10240,-976,120,1632,-35,58,0
10245,-944,120,1616,-32,58,-1
10250,-976,144,1632,-29,57,0
10255,-984,144,1592,-27,57,0
10260,-976,128,1600,-24,57,1
10265,-952,136,1632,-19,57,1
10270,-944,152,1608,-19,57,2
10275,-1000,160,1576,-17,56,2
10280,-936,168,1584,-18,47,1
10285,-944,136,1624,-17,44,-1
10290,-968,144,1600,-13,48,1
10295,-1000,168,1616,-10,49,-1
10300,-976,152,1616,-6,50,1
10305,-1024,136,1576,-8,49,2
10310,-952,120,1664,-7,34,6
10315,-960,136,1640,-8,38,3
10320,-960,120,1600,-2,46,5
10325,-944,128,1576,4,46,7
10330,-976,120,1616,6,45,10
10335,-912,120,1592,5,39,7
10340,-960,160,1624,2,41,8
10345,-968,144,1640,2,41,6
10350,-960,136,1624,0,42,6
10355,-960,176,1600,-3,42,3
10360,-944,160,1640,-7,43,3
10365,-944,160,1624,-12,41,1
10370,-968,160,1624,-14,41,1
10375,-944,144,1648,-16,42,-1
10380,-976,160,1624,-19,42,-2
10385,-968,184,1624,-19,44,-4
10390,-944,152,1632,-22,44,-3
10395,-944,168,1632,-22,47,-6
10400,-960,160,1648,-21,49,-3
10405,-968,120,1608,-21,52,-5
10410,-936,160,1632,-19,55,-3
10415,-928,128,1600,-17,57,-6
10420,-928,144,1592,-18,58,-4
10425,-944,128,1616,-14,61,-5
10430,-960,128,1624,-12,63,-3
10435,-952,160,1600,-10,62,-5
10440,-984,160,1616,-8,63,-2
10445,-976,160,1616,-9,61,-5
10450,-952,168,1584,-10,60,-3
10455,-944,152,1624,-11,60,-3
10460,-928,152,1608,-12,58,-2
10465,-944,152,1600,-12,57,-3
10470,-952,152,1608,-12,57,0
10475,-936,152,1648,-11,56,-1
10480,-944,168,1608,-9,58,1
10485,-944,144,1600,-6,57,0
10490,-904,128,1592,-2,58,2
10495,-952,160,1624,2,60,0
10500,-952,176,1584,7,61,4
10505,-936,136,1608,14,60,3
10510,-960,152,1600,21,62,7
10515,-944,152,1600,27,64,7
10520,-904,136,1576,31,58,13
10525,-920,144,1616,34,61,9
10530,-944,128,1600,41,65,11
10535,-936,144,1648,47,65,8
10540,-928,144,1600,49,64,9
10545,-944,136,1616,50,61,5
10550,-960,176,1616,53,57,6
10555,-960,160,1552,52,54,3
10560,-936,144,1624,48,44,3
10565,-928,128,1632,47,42,-3
10570,-944,144,1640,53,44,0
10575,-976,144,1600,58,44,-2
10580,-960,128,1592,62,41,-1
10585,-952,152,1608,62,38,-6
10590,-960,160,1616,66,39,-4
10595,-936,144,1584,71,41,-2
10600,-936,168,1584,77,44,2
10605,-648,-136,1432,83,46,1
10610,-1080,288,1688,64,34,-40
10615,-968,224,1608,80,25,-14
10620,-936,176,1640,65,39,-1
10625,-944,168,1600,58,43,-1
10630,-952,184,1624,54,46,5
10635,-936,176,1608,52,48,4
10640,-1024,176,1576,46,48,6
10645,-1216,144,1456,37,36,6
10650,-928,184,1576,13,5,18
10655,-952,200,1616,-8,21,20
10660,-960,168,1632,-25,49,35
10665,-1000,168,1640,-26,49,30
10670,-1016,232,1624,-41,57,39
10675,-856,240,1640,-77,56,53
10680,-920,224,1664,-94,30,36
10685,-944,200,1648,-100,23,20
10690,-936,168,1672,-116,33,17
10695,-960,192,1664,-113,30,5
10700,-936,184,1696,-119,34,6
10705,-960,152,1688,-111,41,1
10710,-968,168,1672,-98,49,1
10715,-936,160,1632,-88,53,-3
10720,-960,160,1656,-77,57,-2
10725,-944,176,1616,-67,63,-6
10730,-936,136,1632,-58,67,-4
10735,-952,176,1608,-48,71,-7
10740,-936,160,1608,-39,74,-4
10745,-960,184,1624,-35,77,-5
10750,-952,152,1632,-27,80,-2
10755,-952,184,1576,-24,83,-5
10760,-952,176,1576,-21,82,-1
10765,-936,168,1576,-19,81,-5
10770,-944,160,1592,-18,77,0
10775,-952,152,1584,-18,73,-3
10780,-928,160,1584,-16,72,0
10785,-928,128,1608,-16,71,-1
10790,-944,136,1592,-15,69,2
10795,-936,160,1608,-12,68,-1
10800,-952,168,1592,-6,68,2
10805,-968,40,1568,-2,66,0
10810,-936,144,1592,4,66,2
10815,-928,136,1624,10,67,1
10820,-952,136,1616,16,67,3
10825,-952,152,1600,22,68,0
10830,-936,176,1608,29,68,3
10835,-984,144,1608,33,68,1
10840,-904,152,1584,40,47,-5
10845,-936,144,1584,30,62,-2
10850,-960,176,1584,30,64,1
10855,-944,136,1624,25,64,1
10860,-936,160,1608,17,64,4
10865,-968,168,1608,6,62,0
10870,-968,168,1608,-7,59,2
10875,-992,184,1616,-20,56,-2
10880,-984,168,1640,-34,53,0
10885,-960,176,1656,-46,49,-6
10890,-984,176,1656,-62,45,-4
10895,-960,168,1656,-72,45,-8
10900,-960,152,1640,-79,42,-6
10905,-976,160,1656,-83,42,-8
10910,-960,176,1680,-81,46,-7
10915,-968,192,1656,-78,49,-8
10920,-952,168,1632,-73,52,-6
10925,-968,160,1600,-65,54,-9
10930,-968,176,1616,-55,58,-4
10935,-968,160,1600,-44,63,-4
10940,-936,152,1568,-32,65,-1
10945,-936,152,1608,-23,66,-3
10950,-928,160,1568,-13,68,1
10955,-944,168,1600,-5,69,-1
10960,-928,152,1592,2,70,4
10965,-928,160,1600,5,70,1
10970,-928,152,1592,9,70,3
10975,-936,136,1600,11,70,1
10980,-936,168,1592,9,69,3
10985,-936,152,1600,7,66,0
10990,-976,176,1616,1,64,3
10995,-928,160,1672,-1,62,1
11000,-944,136,1608,-3,58,4
11005,-944,168,1600,-6,57,1
11010,-952,160,1624,-9,56,3
11015,-952,168,1616,-11,55,1
11020,-944,160,1608,-13,55,4
11025,-952,160,1616,-17,55,2
11030,-944,160,1624,-21,55,3
11035,-944,136,1600,-26,52,1
11040,-960,168,1632,-31,52,0
11045,-952,168,1632,-39,51,-4
11050,-944,192,1672,-47,51,-3
11055,-968,200,1672,-56,49,-6
11060,-968,200,1616,-63,48,-5
11065,-984,192,1664,-69,50,-9
11070,-944,160,1632,-74,51,-7
11075,-968,208,1600,-75,55,-10
11080,-960,160,1616,-74,57,-8
11085,-936,144,1640,-72,64,-10
11090,-944,168,1608,-64,67,-8
11095,-936,136,1624,-55,71,-9
11100,-960,160,1600,-47,73,-6
11105,-960,128,1632,-37,74,-7
11110,-952,128,1600,-28,74,-4
11115,-936,160,1608,-18,74,-5
11120,-960,136,1584,-10,73,-2
11125,-952,144,1584,-3,71,-3
11130,-944,136,1608,2,71,0
11135,-952,128,1624,4,68,-1
11140,-936,168,1584,4,66,1
11145,-936,168,1592,4,64,-1
11150,-960,168,1616,1,61,0
11155,-936,160,1576,-2,59,-2
11160,-936,144,1584,-5,59,2
11165,-952,160,1616,-8,56,1
11170,-936,144,1608,-12,54,0
11175,-944,152,1624,-13,55,-2
11180,-936,152,1592,-15,55,0
11185,-912,152,1632,-14,57,-2
11190,-936,160,1640,-14,57,0
11195,-944,168,1624,-12,59,-2
11200,-936,120,1616,-11,59,0
11205,-952,136,1608,-9,62,-1
11210,-952,136,1624,-6,62,0
11215,-952,152,1592,-3,62,-2
11220,-936,136,1624,-1,62,-1
11225,-944,160,1592,-2,60,-3
11230,-936,144,1600,-5,61,-3
11235,-952,160,1624,-10,62,-5
11240,-944,144,1640,-15,60,-3
11245,-952,128,1632,-20,60,-4
11250,-968,160,1640,-22,62,0
11255,-968,152,1616,-22,63,-3
11260,-952,176,1592,-21,65,-1
11265,-968,176,1608,-22,64,-2
11270,-960,160,1608,-25,63,-1
11275,-960,168,1640,-27,60,-3
11280,-952,160,1616,-29,58,-1
11285,-960,160,1624,-30,54,-3
11290,-968,168,1632,-28,54,-1
11295,-928,144,1584,-25,57,-1
11300,-944,144,1632,-21,58,0
11305,-968,168,1648,-18,59,-1
11310,-944,160,1608,-15,60,0
11315,-936,176,1608,-10,60,0
11320,-968,152,1608,-8,62,1
11325,-936,160,1584,-5,63,0
11330,-952,152,1640,-3,63,1
11335,-968,152,1608,-4,64,-1
11340,-952,168,1624,-8,64,-1
11345,-952,168,1608,-12,62,-2
11350,-968,168,1608,-16,60,-2
11355,-952,168,1632,-23,59,-4
11360,-952,184,1608,-28,58,-5
11365,-960,160,1624,-32,56,-4
11370,-944,152,1624,-35,56,-4
11375,-968,136,1648,-37,56,-5
11380,-960,144,1648,-38,58,-5
11385,-960,144,1656,-39,60,-6
11390,-952,152,1640,-37,62,-4
11395,-952,144,1608,-35,64,-7
11400,-936,152,1608,-32,64,-4
11405,-960,136,1584,-30,66,-5
11410,-960,152,1576,-30,66,-4
11415,-968,160,1600,-26,65,-5
11420,-952,128,1608,-24,66,-2
11425,-944,128,1616,-20,66,-3
11430,-944,136,1576,-16,64,-1
11435,-912,136,1592,-13,64,-3
11440,-960,128,1576,-10,64,-1
11445,-928,152,1616,-7,63,-1
11450,-936,128,1600,-4,62,1
11455,-944,112,1616,-3,63,0
11460,-944,152,1624,-2,62,2
11465,-960,176,1584,-1,59,1
11470,-952,152,1616,-2,57,2
11475,-952,144,1592,-3,57,0
11480,-936,136,1648,-6,56,1
11485,-968,152,1616,-8,54,-1
11490,-968,152,1616,-10,55,-1
11495,-952,136,1608,-10,54,-1
11500,-944,128,1616,-9,55,-1
11505,-952,144,1616,-7,57,-1
11510,-968,152,1624,-7,58,-2
11515,-952,144,1592,-5,58,-1
11520,-960,160,1624,-4,60,0
11525,-936,152,1584,-2,60,-2
11530,-952,168,1600,-2,60,0
11535,-952,152,1592,-3,61,0
11540,-968,184,1616,-4,60,1
11545,-968,144,1600,-3,59,2
11550,-952,152,1616,-2,57,1
11555,-944,152,1592,0,56,2
11560,-952,168,1600,2,56,2
11565,-976,160,1592,4,56,2
11570,-960,152,1608,7,59,2
11575,-960,160,1592,10,58,1
11580,-960,160,1616,11,58,2
11585,-968,168,1608,12,60,1
11590,-952,152,1600,15,61,1
11595,-976,144,1592,20,61,2
11600,-960,152,1600,23,63,0
11605,-944,136,1576,30,66,3
11610,-952,160,1600,36,64,4
11615,-944,144,1600,46,64,6
11620,-944,160,1568,52,65,8
11625,-912,120,1576,59,64,8
11630,-952,128,1600,64,63,9
11635,-952,144,1616,65,62,11
11640,-936,152,1624,66,58,10
11645,-952,160,1624,65,65,12
11650,-944,144,1600,65,65,11
11655,-944,176,1600,62,64,12
11660,-944,160,1584,57,61,14
11665,-936,152,1624,48,60,15
11670,-928,144,1616,36,56,10
11675,-952,176,1608,23,55,11
11680,-936,176,1592,11,52,7
11685,-936,160,1608,-4,51,8
11690,-960,208,1648,-17,51,5
11695,-960,176,1632,-28,49,5
11700,-944,176,1608,-39,49,3
11705,-952,176,1616,-45,48,1
11710,-920,168,1608,-52,51,0
11715,-952,176,1632,-56,52,-1
11720,-944,176,1608,-57,56,-2
11725,-944,144,1624,-56,60,-1
11730,-944,176,1616,-51,65,-3
11735,-952,160,1592,-48,69,0
11740,-936,144,1616,-45,73,-1
11745,-944,160,1640,-39,75,-1
11750,-952,160,1656,-34,74,-1
11755,-944,152,1640,-29,74,-1
11760,-960,168,1600,-25,76,0
11765,-928,168,1640,-25,75,-1
11770,-944,184,1608,-25,74,-3
11775,-976,184,1608,-28,74,-3
11780,-960,176,1624,-33,73,-5
11785,-952,168,1616,-39,71,-4
11790,-944,168,1616,-41,71,-4
11795,-968,144,1608,-38,72,-4
11800,-952,176,1608,-35,73,-4
11805,-960,144,1592,-37,73,-4
11810,-952,176,1592,-37,73,-5
11815,-960,168,1608,-39,73,-4
11820,-952,168,1576,-39,73,-6
11825,-976,176,1592,-38,74,-5
11830,-968,184,1624,-36,73,-6
11835,-968,184,1616,-36,74,-6
11840,-960,152,1624,-34,71,-8
11845,-976,176,1608,-33,69,-6
11850,-968,168,1600,-32,69,-7
11855,-968,152,1608,-29,69,-6
11860,-976,144,1576,-26,68,-7
11865,-952,136,1600,-24,69,-6
11870,-968,160,1584,-20,69,-7
11875,-976,168,1576,-17,72,-5
11880,-960,144,1584,-14,71,-5
11885,-968,152,1600,-12,69,-2
11890,-944,152,1600,-9,69,-4
11895,-968,152,1616,-6,67,0
11900,-936,160,1600,-4,66,-1
11905,-952,120,1616,-1,64,2
11910,-960,152,1600,3,62,0
11915,-952,168,1584,5,60,2
11920,-976,152,1616,6,59,0
11925,-968,136,1592,8,59,2
11930,-968,136,1584,8,58,2
11935,-944,128,1608,7,56,3
11940,-960,144,1608,5,54,1
11945,-968,176,1592,3,54,5
11950,-976,144,1640,1,53,3
11955,-984,192,1616,-4,49,4
11960,-968,136,1632,-7,49,2
11965,-992,176,1600,-10,47,4
11970,-960,160,1608,-14,48,2
11975,-968,152,1616,-16,43,2
11980,-936,152,1624,-16,43,2
11985,-968,144,1616,-16,44,5
11990,-968,160,1608,-16,45,3
11995,-968,168,1616,-14,46,3
12000,-976,168,1640,-13,47,2
12005,-952,152,1600,-11,47,6
12010,-936,144,1640,-9,46,3
12015,-960,192,1616,-8,46,4
12020,-944,160,1600,-7,47,1
12025,-944,136,1616,-8,48,3
12030,-960,176,1616,-10,48,0
12035,-944,176,1560,-11,48,2
12040,-952,152,1656,-13,49,-1
12045,-944,184,1592,-16,47,-1
12050,-952,168,1640,-21,47,-1
12055,-952,168,1600,-23,48,2
12060,-928,176,1624,-29,48,-1
12065,-960,176,1624,-33,47,0
12070,-944,144,1624,-38,48,-2
12075,-944,168,1600,-42,49,-1
12080,-968,136,1624,-45,50,-3
12085,-936,152,1632,-46,53,-1
12090,-952,144,1648,-46,55,-4
12095,-944,176,1600,-45,60,-1
12100,-936,192,1608,-52,61,-3
12105,-928,192,1576,-65,62,-2
12110,-960,200,1656,-90,61,-2
12115,-936,112,1672,-106,51,3
12120,-976,8,1744,-94,42,2
12125,-960,-136,1808,-41,37,12
12130,-992,-160,1824,58,30,22
12135,-1040,-160,1888,170,16,42
12140,-1064,-72,1912,266,-10,46
12145,-1072,24,1960,330,-30,45
12150,-1008,112,1928,360,-19,27
12155,-1000,272,1808,374,63,7
12160,-952,344,1840,366,196,-7
12165,-1024,352,1792,359,325,-7
12170,-1048,192,1752,364,405,7
12175,-1008,200,1456,394,376,23
12180,-960,176,1264,401,268,29
12185,-936,240,1072,376,145,35
12190,-904,256,1088,304,58,39
12195,-888,272,1160,254,36,36
12200,-912,296,1304,205,47,27
12205,-960,336,1416,145,66,21
12210,-1008,360,1512,83,72,11
12215,-1040,352,1544,29,72,7
12220,-1032,320,1600,-8,68,2
12225,-1048,312,1624,-30,58,3
12230,-1040,272,1624,-43,47,1
12235,-1032,280,1608,-53,32,5
12240,-1008,288,1608,-61,22,1
12245,-976,272,1584,-70,10,2
12250,-976,272,1568,-80,2,-3
12255,-936,240,1536,-86,-4,-1
12260,-920,232,1520,-88,-11,-6
12265,-912,240,1520,-94,-16,-5
12270,-896,216,1520,-104,-21,-6
12275,-936,232,1512,-113,-25,-6
12280,-880,216,1544,-120,-25,-10
12285,-912,192,1568,-129,-26,-8
12290,-888,168,1568,-133,-26,-11
12295,-904,160,1616,-136,-24,-7
12300,-912,168,1632,-138,-24,-9
12305,-896,144,1656,-140,-21,-5
12310,-888,144,1712,-139,-22,-7
12315,-928,160,1672,-134,-24,-1
12320,-904,120,1696,-125,-24,-3
12325,-912,128,1696,-115,-23,1
12330,-904,168,1688,-102,-19,-2
12335,-888,152,1688,-93,-15,1
12340,-888,160,1680,-88,-6,-4
12345,-872,176,1672,-84,2,-1
12350,-880,168,1688,-81,11,-2
12355,-872,144,1704,-72,17,2
12360,-880,112,1776,-59,20,3
12365,-912,32,1792,-37,24,9
12370,-872,-24,1784,-2,33,12
12375,-904,-40,1768,57,64,13
12380,-912,-16,1696,120,103,7
12385,-912,32,1624,195,154,8
12390,-944,96,1544,260,196,3
12395,-952,216,1472,297,217,6
12400,-968,264,1408,297,216,7
12405,-960,296,1376,270,196,14
12410,-976,328,1408,233,167,16
12415,-1000,312,1408,192,141,20
12420,-1008,336,1488,157,116,16
12425,-1024,344,1536,120,107,14
12430,-1040,352,1568,91,104,7
12435,-1040,344,1576,67,100,4
12440,-1048,352,1560,41,97,-1
12445,-1064,352,1584,17,90,-1
12450,-1056,336,1624,-6,79,-5
12455,-1032,296,1632,-26,67,-3
12460,-1024,288,1624,-43,58,-6
12465,-1032,304,1616,-57,50,-2
12470,-1000,264,1616,-71,41,-5
12475,-984,256,1568,-74,36,-2
12480,-992,264,1560,-78,32,-4
12485,-952,256,1592,-86,28,-1
12490,-952,248,1536,-96,26,-2
12495,-952,240,1576,-105,22,-2
12500,-944,240,1552,-114,22,-4
12505,-936,272,1592,-124,19,-1
12510,-944,248,1616,-139,18,-4
12515,-944,232,1608,-161,14,-7
12520,-912,224,1664,-183,14,-12
12525,-952,216,1688,-205,12,-14
12530,-936,176,1672,-219,13,-20
12535,-928,136,1688,-223,14,-19
12540,-936,104,1704,-213,18,-22
12545,-928,96,1696,-189,23,-20
12550,-920,96,1680,-157,28,-21
12555,-904,80,1680,-126,33,-18
12560,-920,104,1648,-101,37,-16
12565,-928,136,1664,-74,41,-13
12570,-848,72,1584,-56,40,-11
12575,-856,200,1504,-46,41,-8
12580,-976,128,1640,-39,41,-10
12585,-944,112,1504,-36,41,-9
12590,-952,152,1536,-35,44,-10
12595,-880,272,1632,-35,43,-10
12600,-928,144,1576,-34,47,-12
12605,-912,208,1672,-30,52,-9
12610,-928,128,1560,-25,58,-10
12615,-896,264,1576,-17,63,-7
12620,-1000,184,1592,-13,68,-8
12625,-936,160,1664,-8,74,-5
12630,-1016,72,1592,-5,77,-5
12635,-912,256,1664,-2,80,-3
12640,-968,120,1672,8,84,-1
12645,-944,104,1632,21,84,3
12650,-952,152,1656,38,90,2
12655,-920,152,1568,59,100,3
12660,-952,176,1576,85,108,1
12665,-952,168,1584,100,116,3
12670,-960,192,1568,106,118,3
12675,-952,232,1552,102,114,7
12680,-976,232,1496,92,106,7
12685,-1008,200,1544,76,96,11
12690,-1000,256,1576,57,83,10
12695,-968,280,1584,38,70,10
12700,-920,256,1576,23,61,6
12705,-1024,216,1608,9,50,5
12710,-1024,256,1528,0,49,1
12715,-936,192,1536,-8,47,1
12720,-1040,160,1568,-14,48,-2
12725,-960,160,1560,-21,47,-2
12730,-1000,208,1624,-30,44,-4
12735,-1000,232,1624,-40,42,-3
12740,-984,192,1624,-49,36,-4
12745,-960,160,1640,-59,30,-2
12750,-896,224,1688,-69,26,-5
12755,-944,168,1656,-79,24,-5
12760,-888,240,1704,-81,26,-7
12765,-896,168,1664,-78,29,-5
12770,-928,168,1688,-71,35,-7
12775,-920,168,1640,-61,41,-5
12780,-920,144,1608,-51,46,-6
12785,-912,160,1616,-42,50,-5
12790,-936,184,1576,-35,54,-6
12795,-936,176,1632,-29,58,-3
12800,-952,176,1592,-26,60,-5
12805,-928,184,1584,-25,61,-3
12810,-944,152,1592,-26,59,-4
12815,-960,184,1632,-28,57,-4
12820,-944,184,1624,-30,54,-5
12825,-912,240,1688,-29,55,-3
12830,-952,224,1616,-27,53,-4
12835,-992,168,1576,-24,52,-2
12840,-968,192,1632,-21,54,-2
12845,-896,240,1656,-17,53,-1
12850,-968,240,1592,-17,53,-3
12855,-928,248,1616,-17,53,-3
12860,-944,176,1600,-18,55,-3
12865,-960,224,1600,-19,55,-2
12870,-968,192,1608,-19,55,-4
12875,-1008,216,1616,-21,58,-3
12880,-928,176,1544,-20,59,-5
12885,-928,256,1552,-19,59,-6
12890,-944,152,1608,-18,62,-5
12895,-944,200,1608,-16,64,-5
12900,-960,216,1608,-15,65,-6
12905,-952,224,1568,-15,68,-5
12910,-920,184,1680,-15,69,-6
12915,-912,208,1568,-15,69,-4
12920,-880,184,1584,-16,68,-5
12925,-920,280,1640,-17,67,-5
12930,-960,200,1608,-20,65,-8
12935,-856,192,1632,-19,66,-5
12940,-888,136,1624,-19,67,-6
12945,-936,152,1584,-20,66,-6
12950,-968,232,1552,-18,65,-5
12955,-936,168,1624,-15,66,-5
12960,-968,184,1600,-13,64,-5
12965,-1000,96,1560,-12,63,-4
12970,-968,184,1592,-14,62,-5
12975,-936,176,1568,-17,60,-4
12980,-1000,208,1672,-20,57,-4
12985,-984,144,1600,-23,53,-4
12990,-976,160,1600,-24,54,-4
12995,-952,144,1624,-21,57,-4
13000,-952,160,1592,-15,59,-4
13005,-944,168,1608,-8,61,-3
13010,-928,168,1584,-2,63,-2
13015,-952,168,1584,-1,62,-1
13020,-968,200,1560,-2,60,0
13025,-944,176,1640,-4,57,0
13030,-968,192,1600,-4,57,0
13035,-960,192,1616,-4,57,0
13040,-960,224,1576,-3,55,1
13045,-1032,96,1712,-2,57,1
13050,-1000,192,1528,-3,56,2
13055,-984,240,1616,-4,56,2
13060,-944,272,1696,-6,56,3
13065,-952,208,1600,-6,55,4
13070,-928,240,1584,-6,56,2
13075,-896,208,1672,-5,58,1
13080,-944,224,1632,-5,58,1
13085,-912,240,1640,-5,58,1
13090,-984,192,1656,-5,59,0
13095,-912,192,1568,-3,59,-1
13100,-928,232,1608,-5,57,-1
13105,-936,248,1632,-5,56,-1
13110,-968,232,1664,-8,57,-2
13115,-968,200,1648,-10,55,-2
13120,-952,200,1528,-10,56,-1
13125,-960,200,1632,-13,55,-2
13130,-936,192,1624,-15,56,-2
13135,-976,176,1608,-16,57,-3
13140,-936,208,1616,-17,58,-3
13145,-960,184,1584,-18,58,-4
13150,-952,192,1648,-19,57,-3
13155,-976,200,1592,-20,60,-4
13160,-960,208,1592,-20,58,-4
13165,-952,176,1616,-18,59,-5
13170,-952,168,1616,-16,58,-4
13175,-960,192,1632,-17,57,-5
13180,-944,200,1568,-15,51,-2
13185,-952,200,1592,-17,53,-3
13190,-936,192,1624,-15,55,-1
13195,-952,176,1624,-15,54,-2
13200,-960,184,1608,-16,54,-2
13205,-968,208,1624,-17,54,-3
13210,-944,216,1600,-17,55,0
13215,-944,160,1576,-17,56,-2
13220,-960,192,1608,-15,55,-1
13225,-960,184,1600,-14,54,-2
13230,-952,208,1584,-15,52,-2
13235,-944,192,1608,-17,52,-2
13240,-968,184,1632,-20,53,-1
13245,-936,152,1584,-22,52,-3
13250,-960,184,1624,-23,52,-1
13255,-944,176,1616,-24,52,-2
13260,-952,184,1608,-25,53,-1
13265,-960,184,1584,-24,52,-2
13270,-920,184,1616,-22,52,-1
13275,-960,192,1608,-21,55,-3
13280,-952,192,1592,-18,56,-2
13285,-944,192,1608,-17,56,-3
13290,-928,184,1592,-16,56,-2
13295,-888,232,1600,-15,56,-3
13300,-976,176,1616,-13,57,-2
13305,-960,200,1624,-15,55,-3
13310,-960,200,1624,-17,52,-1
13315,-960,200,1600,-18,51,-3
13320,-928,152,1600,-18,51,0
13325,-968,144,1600,-19,50,-2
13330,-1000,200,1560,-20,50,-1
13335,-944,128,1688,-20,50,-2
13340,-944,96,1600,-19,52,-1
13345,-936,176,1568,-20,54,0
13350,-1000,152,1624,-20,53,1
13355,-1008,152,1592,-19,53,-2
13360,-904,216,1664,-17,56,0
13365,-952,232,1600,-15,57,-1
13370,-992,128,1576,-15,58,0
13375,-904,232,1608,-16,59,-1
13380,-1016,152,1608,-16,59,0
13385,-976,224,1600,-17,57,-2
13390,-984,192,1552,-18,58,-1
13395,-984,160,1632,-18,58,-4
13400,-976,192,1624,-20,59,-2
13405,-920,184,1640,-19,57,-2
13410,-912,168,1648,-20,59,0
13415,-960,184,1608,-21,59,-2
13420,-944,176,1632,-21,58,-1
13425,-936,184,1600,-19,58,-3
13430,-928,176,1576,-18,58,-2
13435,-960,144,1584,-16,59,-3
13440,-920,208,1640,-17,58,-1
13445,-928,184,1592,-15,59,-3
13450,-960,176,1600,-13,60,0
13455,-984,136,1536,-13,60,-2
13460,-952,160,1528,-13,60,0
13465,-1016,152,1576,-12,60,-2
13470,-952,208,1616,-10,60,0
13475,-920,224,1608,-10,61,-1
13480,-912,192,1616,-11,62,0
13485,-960,160,1616,-12,59,-1
13490,-928,208,1568,-12,62,0
13495,-896,152,1656,-13,60,-2
13500,-952,232,1600,-13,61,0
13505,-976,248,1704,-13,61,-2
13510,-936,232,1576,-15,61,0
13515,-944,160,1624,-14,61,-3
13520,-944,168,1600,-15,60,1
13525,-952,208,1632,-13,60,-2
13530,-920,184,1592,-15,60,0
13535,-960,184,1616,-13,61,-2
13540,-968,168,1608,-16,57,2
13545,-976,208,1576,-16,57,-2
13550,-944,208,1616,-18,57,0
13555,-936,200,1600,-17,57,-2
13560,-952,192,1664,-15,57,1
13565,-888,120,1680,-13,58,-2
13570,-976,96,1560,-11,58,0
13575,-936,136,1624,-11,58,-1
13580,-928,144,1632,-8,59,1
13585,-952,176,1608,-5,59,-1
13590,-912,216,1704,-4,61,1
13595,-968,184,1616,-1,59,-2
13600,-896,232,1616,-5,58,2
13605,-1072,176,1664,-9,58,-2
13610,-944,192,1568,-9,50,-3
13615,-904,160,1624,-17,52,-3
13620,-944,200,1608,-21,52,-2
13625,-944,152,1584,-21,52,-4
13630,-968,160,1544,-19,54,-1
13635,-1016,192,1632,-12,58,-3
13640,-984,144,1640,-8,60,0
13645,-1000,208,1640,-9,58,-4
13650,-952,192,1600,-13,56,0
13655,-960,184,1624,-12,56,-2
13660,-968,168,1616,-11,55,0
13665,-952,176,1592,-8,55,-2
13670,-968,184,1600,-9,56,2
13675,-952,208,1584,-6,56,-1
13680,-928,192,1608,-6,54,1
13685,-968,216,1608,-7,55,-1
13690,-944,168,1568,-6,55,1
13695,-944,208,1584,-6,54,-1
13700,-944,200,1624,-7,52,1
13705,-960,184,1616,-7,52,-2
13710,-944,200,1584,-9,53,1
13715,-944,200,1624,-7,55,-1
13720,-960,200,1608,-9,54,1
13725,-960,216,1616,-9,54,-1
13730,-960,184,1608,-11,52,0
13735,-968,192,1592,-12,54,-1
13740,-936,184,1632,-15,53,0
13745,-968,200,1624,-14,51,-2
13750,-960,208,1632,-14,51,1
13755,-960,200,1616,-16,52,-2
13760,-960,184,1600,-15,53,0
13765,-952,200,1616,-16,53,-1
13770,-936,176,1624,-16,54,2
13775,-952,184,1608,-15,55,0
13780,-928,192,1616,-17,57,2
13785,-936,192,1632,-18,56,0
13790,-920,168,1592,-16,57,3
13795,-944,176,1584,-17,57,1
13800,-928,168,1584,-20,57,2
13805,-944,208,1624,-18,55,0
13810,-944,208,1624,-21,56,2
13815,-936,192,1600,-25,56,1
13820,-928,160,1608,-27,55,3
13825,-960,208,1624,-30,56,1
13830,-936,176,1616,-30,56,2
13835,-960,200,1600,-31,57,0
13840,-944,184,1600,-30,57,2
13845,-952,192,1600,-26,57,0
13850,-952,184,1600,-22,57,4
13855,-968,208,1608,-16,57,3
13860,-976,176,1608,-10,60,5
13865,-976,168,1616,-1,59,4
13870,-944,192,1600,2,57,7
13875,-952,200,1584,3,59,7
13880,-936,192,1600,-1,57,10
13885,-936,200,1592,-6,55,8
13890,-960,176,1616,-14,55,11
13895,-920,176,1616,-23,54,8
13900,-944,200,1648,-33,51,10
13905,-936,200,1648,-42,48,6
13910,-920,192,1624,-51,45,5
13915,-944,168,1672,-61,47,3
13920,-952,184,1656,-66,45,3
13925,-928,184,1640,-70,45,-1
13930,-936,144,1624,-72,44,1
13935,-960,184,1616,-70,44,-2
13940,-952,208,1680,-66,45,0
13945,-936,192,1624,-61,49,-4
13950,-936,184,1584,-56,52,0
13955,-944,184,1624,-51,53,-2
13960,-968,176,1600,-47,53,0
13965,-960,192,1592,-42,56,-1
13970,-952,192,1624,-43,56,1
13975,-944,192,1632,-43,55,0
13980,-944,184,1616,-43,57,1
13985,-952,184,1640,-41,54,-1
13990,-960,208,1624,-43,54,3
13995,-944,176,1640,-43,54,-1
14000,-952,184,1624,-45,51,1
14005,-952,168,1656,-45,52,0
14010,-960,192,1624,-46,52,2
14015,-936,176,1616,-47,51,-1
14020,-968,200,1592,-48,51,0
14025,-960,184,1640,-50,50,-2
14030,-968,200,1648,-51,48,0
14035,-920,136,1624,-53,49,-3
14040,-920,168,1608,-55,50,-2
14045,-960,184,1616,-56,49,-4
14050,-944,152,1608,-57,48,-3
14055,-944,160,1616,-55,49,-5
14060,-928,176,1624,-57,50,-3
14065,-928,184,1600,-55,51,-7
14070,-936,168,1616,-53,52,-4
14075,-936,152,1616,-53,53,-7
14080,-928,152,1624,-50,54,-7
14085,-936,136,1576,-48,56,-10
14090,-928,176,1592,-48,59,-8
14095,-912,120,1632,-45,59,-11
14100,-952,176,1616,-44,59,-10
14105,-960,176,1624,-42,61,-10
14110,-960,160,1600,-41,61,-9
14115,-928,112,1592,-40,62,-9
14120,-952,184,1576,-40,62,-7
14125,-920,160,1632,-40,59,-8
14130,-944,176,1632,-40,59,-7
14135,-952,176,1592,-42,58,-8
14140,-936,136,1624,-41,58,-8
14145,-960,144,1624,-43,60,-8
14150,-936,152,1640,-45,59,-6
14155,-960,176,1600,-45,60,-7
14160,-984,160,1616,-45,59,-5
14165,-936,176,1600,-46,60,-6
14170,-952,144,1600,-46,58,-2
14175,-928,160,1624,-44,59,-4
14180,-936,152,1624,-43,60,-3
14185,-936,160,1600,-40,61,-4
14190,-936,160,1600,-38,64,-3
14195,-936,176,1608,-34,65,-5
14200,-920,128,1624,-31,68,-5
14205,-912,144,1592,-30,70,-6
14210,-960,176,1624,-31,70,-4
14215,-928,176,1592,-33,68,-6
14220,-960,152,1640,-35,69,-5
14225,-936,152,1624,-38,68,-7
14230,-952,160,1632,-39,69,-5
14235,-952,160,1632,-38,68,-6
14240,-952,168,1584,-35,72,-5
14245,-944,160,1624,-34,72,-6
14250,-920,152,1592,-35,72,-6
14255,-944,176,1616,-36,71,-6
14260,-952,168,1616,-36,71,-4
14265,-944,160,1608,-37,70,-6
14270,-944,168,1616,-36,71,-6
14275,-944,184,1624,-36,73,-8
14280,-952,176,1608,-37,75,-6
14285,-960,200,1608,-40,73,-6
14290,-936,176,1624,-42,71,-5
14295,-944,160,1592,-46,71,-4
14300,-944,176,1640,-46,70,-4
14305,-960,152,1608,-44,70,-6
14310,-928,152,1624,-40,71,-4
14315,-936,144,1608,-38,71,-5
14320,-960,160,1600,-33,73,-3
14325,-960,152,1600,-31,75,-4
14330,-952,168,1624,-28,74,-5
14335,-968,144,1592,-27,75,-4
14340,-944,152,1640,-24,75,-4
14345,-944,168,1600,-25,75,-4
14350,-960,128,1624,-26,75,-3
14355,-936,160,1640,-27,73,-5
14360,-944,144,1608,-30,73,-2
14365,-960,144,1624,-32,73,-4
14370,-960,144,1624,-32,72,-4
14375,-952,144,1632,-34,73,-4
14380,-936,144,1624,-35,72,-6
14385,-944,136,1640,-35,73,-5
14390,-936,136,1584,-34,74,-5
14395,-960,136,1648,-34,74,-5
14400,-944,160,1624,-33,74,-4
14405,-960,136,1632,-34,71,-5
14410,-960,144,1608,-32,72,-4
14415,-960,128,1600,-30,72,-5
14420,-976,128,1616,-30,70,-5
14425,-952,144,1592,-28,68,-3
14430,-936,136,1616,-26,68,-3
14435,-936,152,1656,-24,66,-3
14440,-976,152,1600,-24,63,-2
14445,-960,152,1576,-23,62,-2
14450,-944,144,1592,-22,60,-1
14455,-960,136,1600,-22,57,-3
14460,-952,152,1608,-22,57,-3
14465,-976,160,1608,-23,55,-3
14470,-960,144,1576,-24,55,-4
14475,-952,144,1624,-24,55,-2
14480,-960,152,1616,-24,54,-4
14485,-976,152,1600,-22,55,-5
14490,-960,128,1616,-21,56,-5
14495,-952,136,1584,-19,54,-5
14500,-952,144,1632,-19,55,-4
14505,-936,168,1592,-19,57,-5
14510,-968,160,1616,-19,56,-4
14515,-936,152,1640,-17,56,-1
14520,-968,144,1616,-16,56,-1
14525,-944,128,1624,-15,57,-1
14530,-928,120,1616,-14,58,-2
14535,-944,144,1608,-12,58,-1
14540,-952,144,1608,-13,58,0
14545,-944,160,1608,-11,57,0
14550,-960,144,1608,-10,59,0
14555,-960,128,1608,-9,58,0
14560,-960,144,1600,-9,57,-1
14565,-936,144,1608,-9,59,1
14570,-968,144,1616,-7,60,1
14575,-928,144,1624,-8,60,0
14580,-944,152,1568,-6,62,1
14585,-936,160,1600,-5,61,1
14590,-952,168,1600,-4,62,2
14595,-944,184,1600,-2,64,3
14600,-952,160,1616,-1,64,2
14605,-912,136,1584,1,67,4
14610,-928,128,1608,4,67,3
14615,-920,152,1600,6,66,4
14620,-936,152,1616,8,67,3
14625,-920,152,1624,9,66,4
14630,-944,168,1608,10,65,5
14635,-944,144,1616,10,66,6
14640,-936,144,1608,10,66,6
14645,-952,152,1608,10,66,5
14650,-936,152,1584,9,67,6
14655,-952,160,1624,5,68,7
14660,-944,152,1624,5,70,5
14665,-960,160,1592,4,71,5
14670,-968,160,1592,3,71,3
14675,-960,152,1616,0,71,3
14680,-976,160,1584,1,71,0
14685,-984,160,1616,1,68,-1
14690,-968,160,1624,-2,73,0
14695,-968,144,1608,-3,73,0
14700,-960,160,1632,-4,75,-3
14705,-952,176,1624,-6,77,-1
14710,-928,160,1608,-10,79,-2
14715,-952,152,1608,-14,81,0
14720,-960,152,1656,-17,84,0
14725,-968,152,1592,-17,83,-1
14730,-944,144,1608,-17,80,-4
14735,-960,160,1640,-19,80,-3
14740,-944,144,1624,-17,81,-4
14745,-968,160,1600,-16,78,-2
14750,-944,168,1576,-14,78,-4
14755,-936,144,1624,-10,75,-3
14760,-976,160,1600,-9,73,-4
14765,-952,152,1600,-5,73,-1
14770,-960,152,1624,-5,72,-3
14775,-944,152,1648,-4,70,-2
14780,-960,152,1616,-1,68,-3
14785,-952,144,1616,-1,65,-2
14790,-968,136,1608,-1,65,-4
14795,-976,144,1624,-3,63,-3
14800,-968,128,1616,-8,62,-4
14805,-976,128,1616,-11,60,-4
14810,-984,152,1600,-13,59,-5
14815,-984,160,1616,-11,60,-3
14820,-992,160,1592,-9,60,-3
14825,-968,152,1592,-5,62,0
14830,-968,160,1600,-4,62,0
14835,-976,152,1568,-2,62,3
14840,-960,152,1608,0,61,-1
14845,-960,128,1608,0,63,1
14850,-960,152,1592,2,62,0
14855,-976,136,1600,5,60,3
14860,-968,144,1624,7,61,2
14865,-944,144,1616,6,60,4
14870,-960,144,1592,4,59,3
14875,-968,168,1616,3,54,3
14880,-944,144,1560,1,54,1
14885,-944,168,1592,-2,51,3
14890,-960,168,1592,-3,51,0
14895,-952,152,1592,-5,51,2
14900,-952,160,1616,-3,51,0
14905,-976,144,1640,-3,53,1
14910,-936,168,1608,-2,52,-1
14915,-960,184,1632,-1,54,0
14920,-920,160,1600,-1,54,-1
14925,-960,152,1608,0,53,2
14930,-968,152,1592,0,54,1
14935,-960,160,1608,2,54,0
14940,-976,184,1640,3,52,-2
14945,-944,176,1632,2,52,1
14950,-960,160,1624,1,53,-1
14955,-928,160,1632,1,55,2
14960,-944,176,1648,2,55,-2
14965,-968,160,1608,2,58,1
14970,-960,184,1608,1,58,-1
14975,-960,168,1608,0,58,1
14980,-960,176,1632,-1,58,-1
14985,-960,152,1632,0,58,1
14990,-968,144,1624,-2,60,-1
14995,-960,128,1600,-3,60,2
