timestamp,accel_x,accel_y,accel_z,gyro_x,gyro_y,gyro_z
0,24,-1976,80,46,32,-10
5,48,-1984,96,43,32,-9
10,112,-2008,56,41,31,-8
15,96,-1976,72,41,31,-9
20,72,-1976,88,42,31,-12
25,104,-1976,112,44,31,-14
30,80,-1952,72,47,30,-16
35,64,-1968,88,46,30,-16
40,64,-1976,80,43,30,-16
45,72,-1976,72,40,29,-16
50,80,-1984,104,39,29,-15
55,80,-1992,72,40,29,-15
60,112,-1992,120,42,31,-15
65,144,-2008,120,48,31,-17
70,120,-2000,112,54,33,-20
75,120,-1928,176,63,32,-19
80,112,-2008,136,70,29,-18
85,120,-2008,128,72,26,-19
90,104,-2000,104,67,27,-21
95,96,-2000,96,61,34,-24
100,104,-2000,72,55,44,-31
105,120,-2008,72,47,56,-40
110,136,-2040,56,42,63,-50
115,144,-1984,64,38,68,-58
120,176,-2008,72,33,76,-66
125,200,-1992,64,24,89,-76
130,240,-1984,104,13,104,-87
135,232,-1960,48,2,120,-102
140,296,-1976,56,-7,134,-112
145,296,-1944,80,-12,148,-122
150,304,-1936,48,-19,160,-134
155,328,-1968,56,-28,173,-146
160,360,-1968,72,-42,187,-157
165,384,-2016,64,-52,200,-166
170,424,-2024,80,-58,214,-172
175,384,-2016,80,-61,224,-175
180,432,-2048,104,-54,234,-175
185,416,-2008,152,-37,244,-168
190,416,-1976,144,-14,255,-158
195,416,-1976,184,12,264,-148
200,416,-1952,184,42,266,-136
205,368,-1936,224,67,260,-125
210,360,-1936,216,92,251,-109
215,288,-1936,312,117,235,-94
220,280,-1936,248,134,219,-79
225,232,-1880,256,141,209,-63
230,232,-1896,272,134,202,-48
235,168,-1888,224,115,194,-36
240,192,-1856,224,92,186,-24
245,200,-1848,240,69,179,-16
250,152,-1856,264,49,173,-12
255,184,-1832,272,32,164,-21
260,56,-1800,280,13,145,-44
265,248,-1816,248,-37,102,-104
270,320,-1872,256,-70,121,-79
275,272,-1872,280,-56,139,-31
280,272,-1872,248,-38,139,-11
285,288,-1872,272,-37,128,-2
290,312,-1904,216,-42,123,5
295,344,-1912,232,-53,120,16
300,360,-1928,296,-66,120,24
305,368,-1952,248,-75,122,31
310,400,-1952,240,-81,127,35
315,416,-1976,200,-84,132,37
320,488,-1968,208,-88,139,38
325,512,-2008,184,-92,150,41
330,512,-1976,160,-96,166,39
335,568,-1992,168,-99,183,38
340,592,-1968,160,-97,199,38
345,584,-1960,160,-95,216,37
350,576,-1952,128,-97,228,41
355,576,-1928,136,-103,238,41
360,576,-1928,104,-113,249,44
365,560,-1912,120,-125,257,46
370,528,-1936,104,-134,266,50
375,536,-1960,88,-143,274,49
380,520,-1952,96,-151,284,51
385,472,-1952,120,-157,292,51
390,448,-1976,152,-164,301,51
395,448,-2000,112,-173,304,53
400,440,-2024,112,-181,306,55
405,392,-1984,144,-186,303,58
410,328,-1984,176,-186,299,61
415,352,-2000,144,-181,293,70
420,304,-1984,152,-175,287,77
425,272,-1984,160,-167,282,81
430,248,-1976,176,-164,275,85
435,240,-1968,176,-161,269,87
440,232,-1968,112,-159,258,90
445,232,-1952,96,-159,247,94
450,208,-1928,112,-161,238,98
455,232,-1888,64,-166,227,100
460,232,-1872,48,-174,217,100
465,208,-1840,8,-188,209,98
470,224,-1832,8,-207,203,95
475,232,-1864,16,-230,196,91
480,192,-1824,0,-249,187,74
485,264,-1792,-16,-274,171,59
490,232,-1824,40,-295,174,66
495,200,-1784,32,-302,171,64
500,160,-1784,48,-310,166,60
505,160,-1792,8,-323,161,57
510,104,-1792,16,-337,157,54
515,56,-1776,0,-353,149,53
520,48,-1776,0,-374,134,52
525,0,-1816,8,-396,119,58
530,-32,-1848,-16,-418,100,66
535,-104,-1880,-24,-438,81,75
540,-136,-1912,-56,-457,65,85
545,-248,-1968,-80,-476,50,98
550,-272,-1992,-88,-492,36,111
555,-344,-2000,-104,-501,23,125
560,-368,-2024,-80,-500,15,136
565,-368,-2048,-24,-489,11,146
570,-400,-2056,-16,-468,9,157
575,-432,-2072,40,-444,12,165
580,-432,-2072,40,-419,12,175
585,-416,-2064,8,-397,7,181
590,-392,-2096,0,-384,-5,186
595,-384,-2048,16,-380,-19,189
600,-352,-2032,0,-379,-34,192
605,-368,-2032,40,-381,-46,196
610,-368,-2008,16,-375,-52,201
615,-328,-1992,80,-367,-51,203
620,-320,-1976,120,-355,-43,195
625,-272,-1968,136,-334,-33,185
630,-240,-1976,184,-324,-20,170
635,-240,-1984,152,-330,-3,165
640,-192,-2040,152,-351,15,176
645,-200,-2040,160,-385,29,191
650,-208,-2072,104,-416,38,212
655,-152,-2112,136,-447,48,231
660,-160,-2120,80,-475,57,253
665,-120,-2200,40,-499,59,269
670,-120,-2208,32,-509,60,279
675,-120,-2192,32,-508,55,287
680,-120,-2144,8,-493,48,291
685,-144,-2112,16,-463,44,308
690,-128,-2064,32,-430,39,325
695,-144,-2024,48,-400,39,333
700,-120,-1960,72,-374,40,342
705,-104,-1896,88,-363,44,340
710,-80,-1848,72,-359,51,334
715,-88,-1784,48,-358,60,323
720,-80,-1688,32,-356,69,314
725,-104,-1696,32,-360,74,303
730,-120,-1688,16,-370,78,298
735,-112,-1696,0,-383,81,296
740,-128,-1696,8,-398,84,295
745,-120,-1712,0,-413,89,291
750,-176,-1696,32,-422,97,282
755,-152,-1696,8,-425,109,267
760,-160,-1720,-8,-436,119,247
765,-104,-1776,32,-454,134,231
770,-40,-1792,-8,-472,151,220
775,0,-1824,64,-488,166,217
780,-8,-1848,0,-507,181,207
785,-32,-1880,8,-517,195,207
790,-16,-1872,0,-524,201,208
795,-40,-1912,24,-532,202,198
800,-48,-1928,24,-527,203,186
805,-16,-1976,40,-512,202,188
810,0,-1976,16,-493,196,182
815,-80,-1920,24,-479,200,173
820,-56,-1960,24,-468,204,171
825,-64,-1944,64,-453,205,169
830,-80,-1968,80,-431,207,178
835,-24,-1888,72,-408,215,215
840,-40,-1856,48,-401,215,215
845,-112,-1848,88,-393,223,201
850,-40,-1840,72,-383,231,181
855,8,-1864,32,-370,248,171
860,24,-1848,32,-363,264,164
865,64,-1912,0,-353,285,155
870,104,-1912,-8,-354,307,142
875,120,-1968,-8,-350,335,121
880,120,-2008,-56,-336,362,105
885,168,-2024,-32,-314,386,90
890,136,-2032,-48,-295,412,79
895,144,-2016,-16,-274,434,74
900,144,-2032,8,-249,450,74
905,96,-2032,24,-222,450,65
910,120,-1984,64,-179,445,69
915,72,-1904,80,-136,435,63
920,168,-1888,160,-93,431,53
925,88,-1816,144,-64,431,37
930,96,-1784,176,-49,430,36
935,40,-1800,192,-42,424,43
940,56,-1808,168,-24,411,56
945,0,-1792,136,-21,398,77
950,16,-1808,152,-39,393,113
955,8,-1896,160,-70,391,152
960,-8,-1936,168,-116,391,166
965,-16,-1992,152,-164,397,171
970,-48,-2056,160,-202,407,173
975,-104,-2104,168,-231,424,181
980,-144,-2088,176,-249,432,195
985,-168,-2072,160,-251,437,214
990,-208,-2072,144,-247,437,224
995,-200,-2048,168,-239,435,231
1000,-296,-2048,176,-231,427,232
1005,-304,-2056,160,-228,419,241
1010,-320,-2056,128,-238,410,249
1015,-368,-2112,136,-260,394,245
1020,-360,-2128,56,-281,377,231
1025,-400,-2192,48,-302,366,205
1030,-384,-2256,32,-300,368,189
1035,-352,-2296,40,-288,377,169
1040,-336,-2328,-48,-267,401,154
1045,-304,-2352,-72,-252,418,136
1050,-256,-2344,-72,-252,443,116
1055,-240,-2336,-128,-256,467,105
1060,-288,-2296,-168,-273,473,87
1065,-272,-2336,-264,-299,470,69
1070,-312,-2328,-328,-338,471,52
1075,-296,-2336,-328,-381,475,33
1080,-248,-2408,-248,-406,490,18
1085,-160,-2496,-120,-407,516,9
1090,-48,-2592,-32,-393,543,-14
1095,40,-2688,72,-360,579,-33
1100,80,-2720,184,-315,617,-55
1105,48,-2776,232,-261,647,-72
1110,-8,-2784,208,-211,650,-74
1115,-104,-2688,128,-178,614,-81
1120,-192,-2664,16,-157,540,-74
1125,-384,-2528,-112,-148,445,-44
1130,-608,-2432,-232,-158,343,4
1135,-800,-2304,-336,-189,246,49
1140,-1032,-2216,-352,-238,161,89
1145,-1176,-2136,-376,-290,80,130
1150,-1344,-2040,-376,-331,1,165
1155,-1392,-1952,-272,-364,-65,194
1160,-1352,-1920,-304,-391,-128,213
1165,-1256,-1824,-304,-410,-182,219
1170,-1160,-1768,-272,-423,-217,211
1175,-976,-1688,-272,-442,-234,187
1180,-832,-1576,-288,-457,-235,153
1185,-600,-1520,-264,-455,-227,114
1190,-440,-1392,-264,-434,-218,74
1195,-312,-1312,-288,-402,-217,45
1200,-64,-1224,-304,-362,-224,26
1205,120,-1248,-400,-316,-238,15
1210,272,-1280,-432,-271,-251,11
1215,360,-1344,-512,-243,-260,12
1220,360,-1392,-552,-238,-254,13
1225,384,-1472,-640,-263,-228,18
1230,328,-1592,-560,-304,-193,24
1235,232,-1760,-536,-342,-170,38
1240,152,-1848,-464,-354,-167,50
1245,32,-2000,-360,-334,-188,69
1250,-64,-2160,-320,-290,-232,94
1255,-168,-2248,-344,-241,-290,126
1260,-280,-2432,-456,-208,-348,152
1265,-352,-2496,-512,-206,-402,176
1270,-392,-2616,-608,-243,-447,192
1275,-352,-2752,-672,-303,-477,198
1280,-304,-2904,-704,-366,-491,184
1285,-184,-3088,-664,-412,-486,143
1290,-120,-3224,-568,-421,-474,83
1295,40,-3400,-552,-394,-458,14
1300,144,-3528,-512,-350,-429,-68
1305,320,-3584,-520,-306,-397,-150
1310,536,-3696,-504,-271,-357,-234
1315,584,-3672,-496,-236,-302,-319
1320,744,-3840,-536,-198,-246,-396
1325,824,-3840,-544,-157,-175,-454
1330,888,-3896,-520,-111,-92,-509
1335,912,-3904,-480,-57,1,-567
1340,928,-3832,-432,19,99,-609
1345,912,-3840,-424,117,184,-644
1350,904,-3728,-400,230,261,-666
1355,888,-3552,-488,343,338,-664
1360,776,-3416,-608,425,421,-642
1365,720,-3176,-592,479,504,-616
1370,520,-3032,-640,477,561,-610
1375,408,-2848,-648,431,611,-591
1380,400,-2664,-656,356,666,-553
1385,272,-2536,-656,233,710,-536
1390,272,-2352,-560,78,753,-487
1395,192,-2216,-456,-105,790,-455
1400,240,-2104,-344,-294,815,-419
1405,224,-2072,-248,-460,856,-370
1410,176,-2152,-136,-586,862,-323
1415,360,-2168,-128,-643,871,-248
1420,368,-2240,-144,-598,912,-134
1425,408,-2320,-200,-463,912,-14
1430,416,-2288,-256,-285,887,85
1435,424,-2216,-264,-58,869,148
1440,192,-2072,-200,124,853,162
1445,384,-1840,-240,273,813,88
1450,416,-1616,-200,475,855,145
1455,376,-1296,-256,684,851,219
1460,336,-1048,-296,847,807,269
1465,280,-696,-320,945,760,309
1470,64,-256,-384,1005,729,338
1475,-8,40,-392,1020,711,379
1480,-184,416,-432,1007,706,417
1485,-288,632,-440,977,713,447
1490,-296,792,-472,937,725,466
1495,-384,936,-392,881,738,464
1500,-448,960,-328,825,742,478
1505,-504,920,-256,774,728,505
1510,-504,816,-216,705,688,539
1515,-424,592,-192,606,615,571
1520,-368,352,-16,496,519,581
1525,-352,144,-32,412,425,574
1530,-344,16,-16,366,344,568
1535,-352,-56,-24,356,278,573
1540,-336,-80,-144,367,227,579
1545,-320,-136,-208,389,201,581
1550,-296,-160,-328,410,200,578
1555,-248,-136,-344,429,217,567
1560,-176,-120,-376,449,239,555
1565,-120,-88,-360,476,261,538
1570,8,-32,-280,512,287,516
1575,112,32,-192,567,323,477
1580,296,16,-88,645,371,421
1585,440,8,8,734,432,350
1590,600,-24,-16,802,505,274
1595,712,-152,-168,819,596,202
1600,848,-200,-424,765,716,120
1605,1024,-264,-696,636,883,17
1610,1240,-424,-1040,404,1062,-108
1615,1496,-712,-1504,67,1210,-253
1620,1664,-1144,-1768,-339,1313,-397
1625,1664,-1832,-1880,-737,1299,-515
1630,1560,-2360,-2024,-1048,1139,-600
1635,1464,-3112,-2008,-1253,925,-641
1640,1248,-3776,-1856,-1358,731,-639
1645,992,-4368,-1512,-1356,636,-612
1650,648,-4680,-1264,-1248,702,-552
1655,416,-4760,-1152,-1054,877,-456
1660,144,-4728,-1080,-815,1045,-317
1665,-104,-4672,-1312,-536,1141,-160
1670,-360,-4744,-1544,-281,1184,-17
1675,-616,-4936,-1544,-68,1164,124
1680,-632,-5032,-1488,124,1041,301
1685,-520,-5048,-1376,310,848,501
1690,-448,-4968,-1384,471,647,676
1695,-320,-4824,-1240,597,490,818
1700,-288,-4704,-1096,699,353,908
1705,-240,-4488,-944,785,222,933
1710,-200,-4296,-800,867,145,901
1715,-24,-4152,-640,927,117,843
1720,144,-4000,-536,947,115,754
1725,240,-3896,-464,900,105,675
1730,368,-3808,-448,781,82,639
1735,504,-3672,-520,626,62,670
1740,560,-3600,-608,449,38,736
1745,536,-3528,-624,267,15,802
1750,536,-3480,-568,98,-20,856
1755,416,-3552,-536,17,-64,912
1760,272,-3496,-480,8,-101,957
1765,96,-3472,-464,14,-120,979
1770,-56,-3432,-464,7,-130,956
1775,-128,-3328,-432,7,-108,952
1780,-336,-3288,-352,-10,-68,937
1785,-480,-3168,-288,-3,-27,929
1790,-600,-3048,-224,4,-6,885
1795,-664,-3000,-160,45,22,813
1800,-632,-2848,-112,150,39,767
1805,-776,-2680,-56,267,53,716
1810,-904,-2536,24,394,17,625
1815,-912,-2304,88,550,-76,515
1820,-864,-1992,96,719,-201,395
1825,-840,-1688,72,880,-331,293
1830,-728,-1264,56,989,-426,235
1835,-568,-880,112,1024,-477,219
1840,-632,-568,184,1021,-494,234
1845,-608,-336,160,1004,-523,228
1850,-592,-96,120,1001,-546,218
1855,-424,192,152,984,-538,212
1860,-392,520,136,930,-521,202
1865,-328,576,176,846,-526,194
1870,-176,712,136,780,-543,158
1875,56,720,184,708,-520,149
1880,128,688,272,659,-478,122
1885,320,680,216,632,-428,76
1890,496,536,304,593,-367,44
1895,528,432,176,580,-322,2
1900,544,304,96,574,-308,-31
1905,528,208,-40,540,-290,-29
1910,552,24,-168,457,-241,-14
1915,576,-96,-232,346,-175,-2
1920,560,-136,-248,247,-108,13
1925,584,-128,-352,182,-48,35
1930,624,-72,-392,171,11,56
1935,608,32,-472,216,65,83
1940,488,128,-584,291,114,115
1945,416,184,-696,366,135,163
1950,200,232,-808,415,109,196
1955,64,344,-936,455,32,211
1960,8,376,-792,498,-73,205
1965,-168,440,-752,529,-171,176
1970,-168,344,-664,539,-241,158
1975,-120,272,-528,511,-276,139
1980,-56,112,-352,474,-281,126
1985,16,0,-184,447,-256,109
1990,200,-168,16,439,-206,93
1995,320,-280,152,456,-131,95
2000,440,-472,224,495,-38,110
2005,512,-552,192,542,67,142
2010,600,-656,8,550,165,196
2015,624,-728,-72,495,229,251
2020,624,-800,-600,392,216,335
2025,272,-1008,-1520,204,89,486
2030,-368,-1264,-3616,-190,-194,751
2035,-712,-1912,-5576,-1044,-601,1119
2040,-768,-2664,-5464,-2269,-825,1506
2045,-856,-3712,-3744,-3243,-710,1801
2050,-944,-4632,-1528,-3265,-425,2023
2055,-1152,-5320,48,-2688,-130,2200
2060,-1288,-5816,384,-1840,70,2279
2065,-904,-6032,104,-1072,154,2226
2070,-192,-6360,-384,-527,123,1926
2075,552,-6304,-1016,-146,-23,1468
2080,1136,-5880,-1560,159,-161,991
2085,1064,-5416,-1680,400,-172,533
2090,1024,-5152,-1656,587,-21,146
2095,712,-4952,-1568,701,270,-202
2100,528,-4864,-1368,726,635,-492
2105,256,-4936,-920,688,1071,-663
2110,-16,-4944,-584,615,1440,-772
2115,-248,-4824,-432,510,1694,-855
2120,-496,-4656,-304,405,1811,-915
2125,-672,-4376,-360,322,1798,-930
2130,-824,-4176,-352,241,1713,-901
2135,-1080,-3896,-424,154,1569,-894
2140,-736,-3784,-400,11,1428,-947
2145,-1040,-3792,-152,-19,1433,-791
2150,-768,-3528,-224,-32,1308,-791
2155,-728,-3560,-48,-56,1306,-709
2160,-440,-3456,-104,-53,1268,-671
2165,-384,-3456,-32,-97,1289,-667
2170,56,-3456,-40,-139,1333,-677
2175,256,-3504,-72,-163,1413,-670
2180,592,-3584,-88,-165,1478,-671
2185,760,-3656,-32,-125,1559,-633
2190,1112,-3552,-32,-28,1637,-562
2195,1088,-3624,40,176,1739,-325
2200,856,-3400,-48,391,1686,-215
2205,992,-3064,-32,523,1629,-201
2210,920,-3000,16,684,1661,-12
2215,872,-2760,0,896,1645,131
2220,720,-2376,24,1064,1615,182
2225,624,-2072,-40,1158,1625,203
2230,448,-1648,-24,1212,1656,206
2235,336,-1216,-72,1191,1637,70
2240,272,-840,-56,1146,1654,-100
2245,272,-464,-72,1238,1785,-110
2250,224,24,-128,1393,1921,-51
2255,8,560,-192,1506,1989,-20
2260,-72,1024,-376,1516,1941,-133
2265,-128,1488,-432,1404,1833,-316
2270,-264,1704,-472,1303,1826,-336
2275,-448,1920,-576,1214,1860,-214
2280,-480,1928,-680,1012,1839,-96
2285,-504,1848,-640,690,1783,-61
2290,-512,1560,-560,308,1698,-58
2295,-584,1080,-352,-66,1574,-54
2300,-512,584,-160,-367,1382,-15
2305,-424,120,-24,-565,1142,11
2310,-360,-88,24,-657,916,-2
2315,-328,-288,-32,-669,738,-37
2320,-344,-288,-184,-650,601,-56
2325,-320,-256,-456,-627,519,-61
2330,-336,-192,-776,-623,494,-51
2335,-360,-200,-1008,-640,508,-31
2340,-328,-192,-1120,-656,516,3
2345,-336,-168,-1128,-626,488,52
2350,-376,-232,-952,-515,426,102
2355,-384,-216,-832,-308,349,142
2360,-320,-112,-584,-34,294,172
2365,-208,48,-408,243,291,195
2370,16,200,-168,472,335,211
2375,208,272,32,634,418,207
2380,304,296,192,721,507,185
2385,440,192,296,747,570,140
2390,544,112,304,721,618,86
2395,744,-64,152,651,686,35
2400,840,-264,-232,537,822,-33
2405,912,-432,-656,377,1041,-123
2410,1064,-600,-1480,154,1335,-235
2415,1424,-936,-2432,-187,1688,-394
2420,1744,-1448,-3424,-713,1982,-633
2425,2136,-2288,-3552,-1390,2017,-942
2430,2216,-3064,-3040,-1976,1743,-1269
2435,1832,-4192,-1976,-2216,1347,-1520
2440,1048,-5104,-976,-2069,1040,-1605
2445,176,-5760,-376,-1708,904,-1488
2450,-520,-5928,-336,-1281,954,-1224
2455,-968,-6112,-608,-893,1115,-943
2460,-1264,-6368,-960,-627,1261,-738
2465,-1496,-6352,-1304,-421,1300,-593
2470,-1632,-6160,-1384,-181,1238,-405
2475,-1584,-6032,-1184,137,1067,-128
2480,-1576,-5840,-992,533,758,168
2485,-1448,-5488,-904,956,344,432
2490,-1216,-5064,-904,1270,-70,632
2495,-984,-4768,-768,1407,-378,737
2500,-736,-4536,-544,1437,-569,772
2505,-448,-4192,-320,1404,-703,752
2510,-16,-3824,-208,1295,-803,717
2515,304,-3536,-176,1109,-835,676
2520,608,-3320,-192,853,-798,638
2525,808,-3232,-208,574,-715,604
2530,1016,-3168,-120,349,-633,598
2535,1040,-3136,-80,207,-572,614
2540,920,-3144,-96,135,-543,648
2545,888,-3128,-184,113,-546,699
2550,776,-3096,-216,96,-547,740
2555,616,-3160,-224,38,-533,794
2560,536,-3176,-104,-54,-506,832
2565,128,-3336,32,-104,-467,913
2570,8,-3608,56,-87,-418,1018
2575,-40,-3664,112,-21,-356,1061
2580,-136,-3616,88,75,-268,1033
2585,-296,-3480,64,185,-149,934
2590,-296,-3304,-48,318,-22,801
2595,-224,-3024,-64,455,109,602
2600,-224,-2720,-200,611,263,372
2605,-144,-2200,-136,766,389,201
2610,-232,-1720,-32,895,458,54
2615,-176,-1256,88,989,436,-93
2620,-112,-728,184,1067,362,-230
2625,-72,-480,288,1146,277,-341
2630,-72,0,264,1194,198,-416
2635,-80,280,328,1208,131,-443
2640,-64,504,208,1237,42,-475
2645,-48,672,240,1236,-30,-509
2650,-176,640,192,1230,-87,-535
2655,-168,776,32,1230,-159,-540
2660,-56,840,-24,1184,-241,-537
2665,16,816,-152,1060,-321,-530
2670,56,712,-160,885,-391,-491
2675,40,576,-232,704,-457,-444
2680,-40,376,-216,521,-513,-367
2685,-48,200,-208,369,-537,-274
2690,-16,104,-216,231,-519,-190
2695,24,-8,-224,108,-453,-132
2700,16,-112,-208,13,-365,-94
2705,80,-176,-248,-58,-273,-56
2710,192,-208,-392,-113,-187,-18
2715,216,-144,-536,-165,-107,7
2720,304,-72,-672,-221,-38,22
2725,376,8,-832,-266,14,30
2730,384,80,-888,-290,42,21
2735,352,152,-896,-295,42,-8
2740,224,200,-880,-281,19,-48
2745,112,256,-880,-248,-29,-85
2750,24,288,-824,-211,-94,-119
2755,-32,304,-688,-185,-149,-145
2760,-40,312,-680,-170,-185,-152
2765,-120,272,-536,-158,-174,-135
2770,-160,240,-432,-139,-141,-94
2775,-152,136,-336,-120,-96,-64
2780,-144,48,-232,-92,-30,-36
2785,-104,-8,-96,-53,59,10
2790,-96,-184,8,-11,164,56
2795,8,-272,8,38,262,112
2800,0,-376,-128,63,323,186
2805,48,-520,-344,36,323,269
2810,56,-544,-656,-43,271,359
2815,-72,-552,-1192,-195,171,453
2820,-344,-632,-1672,-459,-13,593
2825,-600,-824,-2424,-818,-305,778
2830,-824,-1072,-3400,-1294,-688,976
2835,-992,-1864,-3560,-1905,-1014,1233
2840,-1000,-2624,-3000,-2391,-1203,1534
2845,-1104,-3672,-1560,-2519,-1236,1819
2850,-1504,-4640,-552,-2311,-1130,2081
2855,-1776,-5416,-504,-1953,-910,2350
2860,-1400,-5944,-856,-1685,-730,2541
2865,-1208,-6208,-1088,-1552,-787,2452
2870,-976,-6384,-1408,-1445,-1008,2151
2875,-440,-6392,-1416,-1290,-1155,1732
2880,128,-6320,-1408,-1039,-1143,1156
2885,360,-6216,-1200,-742,-1018,455
2890,328,-6152,-1048,-445,-795,-233
2895,360,-6128,-800,-216,-417,-789
2900,560,-6104,-744,-74,61,-1213
2905,584,-5944,-496,-39,515,-1566
2910,672,-5776,-336,-11,805,-1802
2915,656,-5528,-288,77,926,-1892
2920,768,-5288,-256,176,950,-1836
2925,688,-5048,-264,248,950,-1662
2930,544,-4856,-160,257,918,-1419
2935,296,-4624,-80,216,867,-1181
2940,120,-4448,0,145,847,-969
2945,-96,-4280,120,88,873,-773
2950,-176,-4112,144,68,927,-619
2955,-128,-3872,112,77,999,-517
2960,-72,-3840,8,123,1106,-433
2965,128,-3712,8,149,1196,-451
2970,304,-3720,8,191,1330,-479
2975,688,-3632,-48,260,1427,-574
2980,648,-3544,80,341,1505,-683
2985,976,-3408,24,431,1494,-747
2990,1128,-3224,136,576,1519,-673
2995,1112,-3080,144,809,1528,-504
3000,832,-2832,88,999,1472,-415
3005,576,-2576,136,1080,1405,-363
3010,336,-2376,96,1097,1363,-316
3015,24,-2104,104,1098,1340,-276
3020,-336,-1648,128,1104,1313,-274
3025,-312,-1264,144,1084,1223,-386
3030,-472,-752,128,1238,1310,-375
3035,-648,-280,160,1517,1420,-231
3040,-616,312,56,1804,1456,-111
3045,-736,856,-96,2024,1441,-96
3050,-616,1272,-224,2169,1400,-67
3055,-432,1648,-384,2244,1389,-13
3060,-288,1776,-608,2193,1407,31
3065,-56,1936,-736,1971,1440,34
3070,112,1944,-808,1589,1483,13
3075,224,1848,-944,1061,1511,-4
3080,408,1384,-608,454,1506,39
3085,424,992,-520,-108,1431,155
3090,552,512,-328,-571,1231,237
3095,528,112,-256,-896,995,249
3100,472,-112,-232,-1084,806,247
3105,360,-248,-288,-1171,666,236
3110,304,-320,-360,-1191,553,226
3115,184,-432,-496,-1173,459,217
3120,96,-456,-608,-1126,397,219
3125,-96,-472,-656,-1054,369,255
3130,-168,-480,-608,-933,359,311
3135,-312,-456,-552,-763,365,364
3140,-368,-392,-592,-527,392,380
3145,-400,-296,-512,-254,448,360
3150,-408,-168,-512,17,506,303
3155,-320,-96,-472,251,548,208
3160,-216,0,-328,437,550,77
3165,-40,48,-144,578,529,-52
3170,128,168,-104,667,496,-162
3175,208,232,-16,650,475,-241
3180,248,304,8,559,464,-308
3185,280,360,0,408,466,-361
3190,288,344,0,225,472,-412
3195,224,256,8,38,468,-451
3200,128,224,-272,-135,464,-476
3205,48,160,-552,-310,490,-482
3210,8,72,-1072,-488,570,-458
3215,144,16,-1896,-670,698,-426
3220,424,-192,-2904,-894,884,-421
3225,736,-552,-4160,-1263,1061,-491
3230,976,-1048,-4752,-1809,1040,-615
3235,1400,-1928,-4520,-2352,726,-760
3240,1704,-2944,-3280,-2630,314,-926
3245,2128,-3976,-1856,-2511,131,-1060
3250,2216,-4936,-456,-2103,261,-1149
3255,2056,-5504,32,-1600,531,-1204
3260,1320,-5952,152,-1254,833,-1205
3265,312,-6064,24,-1077,1160,-1083
3270,-336,-6408,-112,-979,1500,-833
3275,-968,-6488,-224,-876,1727,-566
3280,-1040,-6344,-304,-660,1734,-252
3285,-1088,-6064,-656,-307,1544,137
3290,-1088,-6016,-848,59,1260,553
3295,-1120,-5992,-696,364,922,889
3300,-1192,-5912,-360,628,548,1120
3305,-1104,-5624,64,899,162,1273
3310,-928,-5336,320,1156,-203,1337
3315,-512,-4968,424,1380,-418,1367
3320,-384,-4520,352,1506,-462,1318
3325,-160,-4112,208,1432,-444,1225
3330,24,-3680,160,1156,-432,1121
3335,304,-3352,160,807,-449,1028
3340,488,-3096,80,513,-488,923
3345,560,-2784,-48,333,-517,798
3350,528,-2576,-160,236,-518,699
3355,256,-2552,-144,185,-520,645
3360,96,-2648,-32,196,-537,635
3365,8,-2696,64,242,-522,653
3370,-360,-2904,232,228,-500,667
3375,-600,-3016,456,178,-502,683
3380,-768,-3360,624,138,-530,716
3385,-992,-3632,528,140,-584,726
3390,-976,-3880,128,166,-586,700
3395,-944,-3896,-104,218,-505,670
3400,-848,-3824,-136,299,-417,651
3405,-568,-3560,-24,408,-387,623
3410,-200,-3064,176,539,-408,556
3415,40,-2472,144,704,-497,439
3420,192,-1824,-24,875,-592,279
3425,352,-1344,-104,1038,-643,135
3430,480,-704,-168,1196,-671,23
3435,520,-112,-248,1345,-724,-79
3440,528,360,-328,1460,-798,-154
3445,520,792,-424,1516,-852,-218
3450,448,1024,-568,1505,-888,-286
3455,368,1168,-704,1415,-900,-316
3460,296,1312,-760,1255,-856,-330
3465,208,1376,-696,1040,-777,-344
3470,96,1248,-616,793,-654,-340
3475,72,1016,-480,546,-470,-328
3480,128,712,-320,328,-254,-315
3485,232,496,-176,172,-34,-313
3490,328,256,-152,58,181,-297
3495,288,144,-168,-35,349,-264
3500,416,-24,-192,-103,448,-219
3505,440,-144,-272,-125,491,-156
3510,392,-184,-488,-108,488,-74
3515,216,-208,-608,-76,436,28
3520,64,-192,-760,-48,327,144
3525,-96,-192,-776,-26,185,245
3530,-352,-128,-600,7,15,308
3535,-448,-40,-488,53,-174,339
3540,-552,72,-352,117,-351,345
3545,-536,160,-216,186,-475,354
3550,-528,184,-56,258,-532,383
3555,-496,168,32,315,-523,416
3560,-424,112,24,347,-452,427
3565,-328,8,-48,327,-332,419
3570,-184,-64,-272,232,-179,412
3575,0,-216,-800,59,-33,398
3580,112,-392,-1512,-185,69,375
3585,0,-624,-2432,-489,76,361
3590,-256,-904,-3704,-890,-76,389
3595,-336,-1320,-4392,-1467,-388,501
3600,-376,-2128,-4200,-2090,-769,660
3605,-184,-3200,-2840,-2439,-1068,870
3610,-224,-4224,-1168,-2357,-1181,1129
3615,-672,-4888,-192,-1936,-1201,1405
3620,-1472,-5232,24,-1436,-1067,1706
3625,-2080,-5736,64,-1073,-759,2028
3630,-1912,-6392,-40,-906,-480,2200
3635,-912,-6984,-176,-900,-437,2008
3640,-96,-7224,-360,-917,-517,1412
3645,760,-7200,-560,-821,-485,632
3650,1104,-6824,-872,-568,-293,-135
3655,1272,-6424,-1000,-251,-16,-805
3660,1472,-6216,-912,9,290,-1360
3665,1544,-6072,-656,199,660,-1788
3670,1440,-5880,-240,399,1043,-2051
3675,1104,-5576,144,649,1322,-2131
3680,776,-5176,312,897,1458,-2068
3685,488,-4632,304,1053,1506,-1930
3690,200,-4240,264,1087,1525,-1787
3695,-128,-3712,168,1000,1531,-1628
3700,-408,-3224,136,815,1513,-1450
3705,-552,-2784,128,612,1462,-1220
3710,-808,-2472,176,456,1366,-1030
3715,-864,-2368,280,370,1271,-834
3720,-608,-2328,376,356,1223,-684
3725,-312,-2456,264,400,1240,-607
3730,40,-2504,40,473,1248,-596
3735,360,-2552,-168,485,1125,-616
3740,376,-2760,-96,442,982,-608
3745,200,-2896,-24,517,858,-478
3750,184,-2776,48,643,788,-299
3755,104,-2632,120,866,827,-24
3760,-64,-2336,16,1189,834,138
3765,-112,-1944,-112,1423,801,174
3770,-112,-1336,-256,1565,782,115
3775,-176,-704,-240,1634,786,21
3780,-152,-32,-376,1656,773,-32
3785,-80,352,-400,1607,716,-87
3790,8,824,-440,1517,635,-124
3795,24,1160,-424,1414,558,-120
3800,32,1448,-376,1311,474,-123
3805,72,1544,-448,1201,403,-127
3810,120,1560,-456,1069,368,-129
3815,176,1472,-512,911,377,-131
3820,128,1320,-512,730,413,-118
3825,120,1088,-480,561,448,-92
3830,88,896,-424,414,458,-67
3835,136,760,-432,307,430,-60
3840,136,560,-328,234,396,-60
3845,152,424,-320,202,369,-71
3850,176,336,-344,194,361,-62
3855,120,224,-416,198,372,-46
3860,112,120,-480,198,387,-38
3865,104,0,-552,186,401,-46
3870,168,-136,-600,142,409,-82
3875,160,-256,-728,93,416,-133
3880,96,-360,-848,31,409,-202
3885,48,-464,-936,-44,393,-277
3890,8,-640,-1024,-132,365,-348
3895,-24,-784,-1040,-227,324,-411
3900,-40,-1008,-1032,-312,269,-454
3905,-88,-1232,-1064,-381,200,-480
3910,-160,-1400,-1112,-427,110,-490
3915,-176,-1584,-1328,-464,12,-485
3920,-192,-1776,-1616,-524,-76,-479
3925,-64,-2032,-2048,-638,-124,-493
3930,-8,-2280,-2568,-835,-130,-529
3935,40,-2576,-2816,-1097,-82,-571
3940,312,-3000,-2584,-1324,47,-630
3945,568,-3464,-1648,-1374,237,-714
3950,760,-3856,-816,-1184,395,-827
3955,792,-4048,-424,-817,494,-951
3960,448,-4088,-152,-457,553,-1028
3965,216,-4072,24,-211,570,-964
3970,192,-4024,-56,-67,552,-785
3975,128,-3904,-328,-6,546,-553
3980,112,-3888,-560,-64,577,-290
3985,-56,-3784,-688,-218,581,-25
3990,-96,-3864,-616,-389,469,228
3995,-144,-3848,-552,-484,285,441
4000,-248,-3840,-496,-491,116,620
4005,-344,-3800,-488,-456,-15,770
4010,-392,-3784,-536,-448,-115,884
4015,-248,-3808,-456,-486,-193,974
4020,-8,-3696,-360,-541,-275,1000
4025,176,-3520,-272,-587,-326,963
4030,232,-3448,-144,-616,-327,913
4035,432,-3368,-200,-633,-288,890
4040,296,-3320,-208,-667,-241,836
4045,200,-3344,-168,-685,-193,770
4050,72,-3376,-192,-684,-161,722
4055,48,-3400,-160,-664,-132,717
4060,-192,-3512,-200,-648,-96,732
4065,-368,-3664,-408,-609,-66,784
4070,-360,-3712,-504,-539,-40,814
4075,-336,-3624,-496,-442,-35,780
4080,-224,-3464,-432,-313,-34,722
4085,-40,-3264,-464,-164,-23,666
4090,104,-2888,-400,-42,8,600
4095,216,-2504,-328,53,2,499
4100,312,-2136,-272,115,-66,393
4105,528,-1672,-304,133,-150,283
4110,400,-1072,-312,81,-200,176
4115,320,-632,-144,-1,-197,103
4120,152,-200,-176,-51,-192,30
4125,80,136,-272,-95,-162,-50
4130,8,504,-360,-172,-42,-113
4135,-48,800,-352,-288,137,-167
4140,-56,960,-280,-396,290,-220
4145,-232,1048,-160,-503,413,-245
4150,-280,1048,-32,-601,468,-252
4155,-344,1024,16,-707,474,-241
4160,-320,880,120,-821,431,-216
4165,-368,760,80,-923,333,-171
4170,-400,544,-56,-1015,183,-96
4175,-384,368,-176,-1118,-6,-12
4180,-344,128,-320,-1214,-186,73
4185,-288,-112,-392,-1283,-336,168
4190,-296,-288,-464,-1314,-462,267
4195,-232,-448,-568,-1321,-557,359
4200,-184,-400,-656,-1309,-622,421
4205,-160,-464,-632,-1276,-659,454
4210,-192,-432,-720,-1212,-677,469
4215,-216,-288,-720,-1148,-682,477
4220,-176,-112,-752,-1111,-687,480
4225,-144,0,-784,-1114,-682,481
4230,-88,128,-704,-1158,-665,482
4235,-72,200,-648,-1218,-634,494
4240,0,248,-576,-1287,-584,508
4245,72,208,-456,-1362,-535,513
4250,96,192,-456,-1440,-487,514
4255,136,80,-408,-1516,-445,517
4260,248,-88,-352,-1593,-417,521
4265,456,-336,-280,-1660,-408,510
4270,528,-408,-288,-1705,-418,468
4275,552,-544,-456,-1717,-433,400
4280,536,-608,-672,-1699,-466,326
4285,560,-616,-1032,-1647,-507,226
4290,576,-528,-1480,-1609,-520,83
4295,296,-368,-1944,-1605,-513,-78
4300,-32,-520,-2232,-1676,-510,-179
4305,-240,-880,-2360,-1815,-493,-195
4310,-408,-1360,-2176,-1989,-377,-140
4315,-632,-1936,-1808,-2136,-231,-55
4320,-760,-2416,-1544,-2242,-161,30
4325,-856,-2976,-1296,-2323,-198,109
4330,-872,-3632,-1088,-2391,-312,186
4335,-680,-4416,-480,-2425,-481,258
4340,920,-4984,-144,-2277,-735,247
4345,992,-4784,-288,-1941,-1025,-117
4350,-312,-4056,-296,-1720,-1214,-395
4355,-1448,-3856,8,-1720,-1269,-373
4360,-1384,-3832,104,-1766,-1201,-220
4365,-792,-3616,-112,-1889,-1053,-147
4370,24,-3432,-776,-2123,-930,-146
4375,632,-3224,-1312,-2455,-874,-165
4380,1272,-2992,-1640,-2763,-1010,-157
4385,1928,-2504,-1904,-2926,-1253,-230
4390,2240,-2080,-2040,-2920,-1445,-432
4395,2264,-1944,-2008,-2752,-1470,-612
4400,2024,-1848,-1976,-2491,-1323,-663
4405,1640,-1944,-1744,-2229,-1069,-629
4410,1312,-2080,-1536,-2007,-813,-602
4415,1000,-2192,-1360,-1832,-570,-606
4420,656,-2312,-1280,-1751,-370,-623
4425,344,-2304,-1160,-1765,-241,-647
4430,8,-2160,-1048,-1834,-214,-693
4435,-152,-2056,-992,-1962,-285,-751
4440,-240,-1976,-912,-2154,-388,-802
4445,-312,-1904,-672,-2387,-454,-815
4450,-344,-1872,-432,-2619,-455,-806
4455,-376,-1896,-128,-2825,-406,-798
4460,-512,-1848,56,-2967,-342,-788
4465,-616,-1784,264,-3050,-281,-741
4470,-696,-1600,480,-3085,-223,-634
4475,-744,-1536,784,-3052,-134,-481
4480,-680,-1352,1072,-2956,-16,-319
4485,-624,-1192,1320,-2815,123,-189
4490,-608,-1088,1456,-2644,261,-93
4495,-536,-1040,1544,-2447,357,-31
4500,-440,-912,1552,-2187,445,-11
4505,-360,-592,1528,-1889,516,-18
4510,-64,-424,1528,-1578,566,-12
4515,128,-272,1432,-1269,618,-38
4520,480,8,1408,-936,676,-114
4525,1016,328,1248,-589,772,-200
4530,1400,608,1008,-248,944,-275
4535,1704,904,800,7,1109,-408
4540,1712,1160,464,184,1299,-441
4545,1840,1384,-16,177,1412,-393
4550,1896,1568,-352,27,1497,-295
4555,1904,1648,-480,-191,1559,-200
4560,1696,1656,-408,-418,1613,-215
4565,1400,1624,-288,-602,1683,-328
4570,824,1576,-264,-730,1736,-465
4575,312,1552,-408,-827,1743,-550
4580,-8,1512,-520,-903,1738,-560
4585,-288,1448,-520,-956,1783,-506
4590,-432,1368,-408,-981,1886,-408
4595,-536,1160,-232,-983,1986,-322
4600,-504,832,-152,-958,2053,-254
4605,-344,432,-472,-901,2108,-224
4610,-128,152,-696,-832,2160,-259
4615,120,-144,-968,-818,2183,-327
4620,440,-272,-920,-881,2118,-406
4625,472,-296,-688,-941,1976,-502
4630,480,-88,-568,-919,1778,-579
4635,448,-32,-680,-779,1573,-609
4640,464,160,-1088,-624,1385,-631
4645,256,344,-1536,-579,1241,-637
4650,-80,480,-1624,-653,1107,-633
4655,-608,568,-1496,-770,930,-604
4660,-976,584,-1424,-860,682,-532
4665,-1360,512,-1168,-952,386,-488
4670,-1688,352,-880,-1102,52,-522
4675,-1968,48,-720,-1320,-319,-593
4680,-2136,-312,-864,-1556,-674,-644
4685,-2176,-496,-1200,-1721,-972,-653
4690,-2288,-544,-2016,-1826,-1257,-598
4695,-2184,-464,-2456,-1953,-1570,-462
4700,-2080,-384,-2440,-2107,-1905,-289
4705,-1856,-312,-2248,-2181,-2241,-134
4710,-1648,-256,-2176,-2139,-2546,-15
4715,-1440,-192,-2288,-2022,-2800,54
4720,-1416,-112,-2384,-1926,-3065,76
4725,-1456,-304,-2360,-1894,-3437,80
4730,-1632,-360,-2584,-1815,-3932,74
4735,-1848,-424,-2976,-1628,-4452,93
4740,-2000,-448,-3560,-1420,-4948,131
4745,-2016,-336,-4160,-1251,-5418,162
4750,-1784,-248,-4416,-1122,-5871,138
4755,-1696,-224,-4672,-925,-6271,53
4760,-13016,12848,-31040,-594,-5517,104
4765,-1888,32528,-15312,-3503,8015,5185
4770,16136,16456,7904,-1370,-2184,2535
4775,8384,1576,6480,-888,-5852,-494
4780,1976,-2560,-688,1642,-6864,-1647
4785,-2520,-13016,-5296,-216,-8283,-528
4790,-3544,-8456,-6960,-2600,-9458,1531
4795,-5152,-6704,-9816,-3138,-10014,3131
4800,-1848,-3744,-10400,-2721,-9222,3795
4805,-1440,-4816,-10040,-3070,-7467,2944
4810,-5984,2880,-9776,-2365,-5686,2424
4815,-3464,5200,-10112,-2309,-4195,2620
4820,-6248,7832,-10104,-1866,-3095,2275
4825,-7528,7520,-11312,-2066,-2512,2782
4830,-8056,6008,-11232,-2178,-2701,3020
4835,-6680,6960,-10608,-2692,-2999,3350
4840,-3664,5088,-7960,-3473,-3090,3323
4845,-5360,2208,-5568,-3985,-3433,3281
4850,-3752,-384,-4912,-3895,-3626,3350
4855,-3312,-4464,-3368,-3448,-3422,3019
4860,-4224,-4360,-2240,-2479,-2865,2201
4865,-2896,-3632,-672,-2449,-2642,2115
4870,-2312,2256,-3072,-2198,-2512,1519
4875,2400,1688,-2616,-2311,-2094,1470
4880,128,4200,-3592,-3272,-2407,444
4885,-1144,-424,-2816,-3331,-2800,-268
4890,-1904,-1944,-2200,-3199,-2960,-255
4895,64,-4816,-1128,-3698,-2812,97
4900,1024,-7928,-1104,-3440,-3080,-666
4905,-752,-8488,-1344,-2109,-3413,-2127
4910,-2176,-3528,-1872,-709,-3734,-2899
4915,-2352,8,-2608,608,-3483,-2522
4920,-3168,4440,-3392,1840,-2688,-1965
4925,-2592,5928,-3560,2388,-1963,-1283
4930,-1832,6792,-3288,2535,-1445,-1055
4935,-1488,7296,-2320,2474,-1020,-1297
4940,-200,7040,-1296,2295,-721,-1452
4945,704,6664,-368,1894,-619,-1594
4950,744,6560,40,1358,-507,-1738
4955,720,6072,472,833,-316,-1676
4960,896,5072,944,380,-160,-1555
4965,584,4112,1248,65,-87,-1536
4970,432,3520,1400,-250,-121,-1537
4975,304,2760,1384,-667,-205,-1404
4980,48,1680,1344,-1208,-258,-1192
4985,-328,760,1440,-1782,-265,-1004
4990,-528,168,1376,-2275,-314,-820
4995,-648,-504,1144,-2643,-425,-637
5000,-1088,-864,1208,-2804,-535,-473
5005,-1472,-1056,1120,-2646,-720,-236
5010,-1552,-1400,704,-2244,-1008,-26
5015,-1336,-1600,320,-1731,-1317,-2
5020,-1344,-1512,136,-1216,-1558,-90
5025,-1640,-1312,64,-673,-1724,-83
5030,-1464,-944,0,-169,-1805,5
5035,-1288,-360,-72,177,-1793,19
5040,-1016,240,-64,324,-1707,-16
5045,-752,840,16,284,-1560,-39
5050,-1024,1200,232,175,-1400,-23
5055,-1008,1496,296,18,-1312,73
5060,-936,1624,368,-187,-1294,192
5065,-768,1512,392,-396,-1342,282
5070,-672,1328,312,-599,-1410,300
5075,-784,1136,312,-769,-1415,280
5080,-872,1088,288,-833,-1437,322
5085,-1016,1088,192,-802,-1523,393
5090,-1168,1192,152,-701,-1624,453
5095,-1208,1176,88,-571,-1742,499
5100,-1264,1168,0,-469,-1847,483
5105,-1328,1304,-32,-439,-1954,432
5110,-1416,1336,-64,-469,-2050,387
5115,-1592,1376,24,-538,-2118,330
5120,-1608,1424,64,-605,-2143,266
5125,-1536,1512,192,-650,-2116,171
5130,-1704,1704,344,-677,-2039,73
5135,-2016,1888,432,-699,-1933,75
5140,-2104,1968,392,-729,-1844,119
5145,-2048,2040,320,-759,-1780,139
5150,-1920,2144,144,-805,-1755,128
5155,-1952,2248,32,-879,-1743,100
5160,-2208,2312,-80,-928,-1719,97
5165,-2400,2328,-112,-927,-1693,108
5170,-2576,2296,-152,-894,-1678,106
5175,-2760,2280,-32,-853,-1692,95
5180,-2848,2296,8,-826,-1749,95
5185,-2864,2344,32,-834,-1834,83
5190,-2880,2408,96,-880,-1921,58
5195,-2800,2440,96,-960,-2007,20
5200,-2784,2456,32,-1081,-2080,-36
5205,-2760,2376,40,-1243,-2121,-103
5210,-2784,2312,56,-1416,-2128,-168
5215,-2720,2112,160,-1543,-2113,-207
5220,-2768,1936,264,-1592,-2083,-250
5225,-2712,1760,320,-1569,-2032,-301
5230,-2536,1576,280,-1492,-1949,-356
5235,-2320,1368,296,-1380,-1813,-430
5240,-2288,1320,408,-1247,-1626,-511
5245,-2040,1144,376,-1074,-1443,-514
5250,-1736,960,408,-889,-1259,-520
5255,-1648,760,544,-738,-1081,-525
5260,-1456,584,728,-630,-905,-497
5265,-1376,464,744,-519,-811,-467
5270,-1392,320,912,-415,-770,-429
5275,-1408,232,976,-319,-793,-388
5280,-1512,208,1008,-235,-850,-353
5285,-1656,248,1048,-157,-916,-323
5290,-1656,200,1032,-104,-998,-298
5295,-1792,232,1016,-58,-1080,-285
5300,-1808,336,1024,-12,-1156,-278
5305,-1760,408,960,25,-1212,-288
5310,-1856,496,920,41,-1235,-306
5315,-1808,552,912,49,-1231,-331
5320,-1760,528,888,52,-1215,-382
5325,-1688,544,832,52,-1188,-442
5330,-1720,584,880,52,-1153,-513
5335,-1696,624,712,75,-1115,-555
5340,-1688,672,576,117,-1075,-588
5345,-1632,648,536,149,-1024,-607
5350,-1496,496,560,163,-949,-610
5355,-1384,272,504,174,-825,-620
5360,-1472,160,440,208,-654,-632
5365,-1544,184,456,239,-470,-603
5370,-1536,120,472,231,-294,-520
5375,-1456,0,600,207,-113,-426
5380,-1456,-48,776,218,86,-355
5385,-1496,-96,840,263,277,-311
5390,-1528,-128,952,314,436,-293
5395,-1584,-72,952,365,533,-311
5400,-1696,40,1000,404,557,-341
5405,-1648,120,912,416,527,-358
5410,-1696,160,920,405,472,-380
5415,-1664,160,880,392,433,-397
5420,-1704,240,896,380,396,-434
5425,-1704,264,824,352,354,-470
5430,-1728,312,752,308,328,-495
5435,-1744,352,728,256,329,-510
5440,-1744,384,648,204,373,-522
5445,-1880,488,672,144,450,-531
5450,-1872,528,728,83,539,-531
5455,-1952,536,704,35,638,-529
5460,-1936,544,712,-3,733,-531
5465,-1984,520,664,-53,823,-517
5470,-1984,472,656,-100,904,-495
5475,-1904,448,576,-138,981,-474
5480,-1952,376,568,-180,1056,-447
5485,-1968,328,504,-202,1126,-405
5490,-1904,248,392,-209,1192,-367
5495,-1896,136,312,-218,1256,-340
5500,-1896,32,248,-200,1303,-325
5505,-1832,-8,288,-164,1330,-320
5510,-1752,-120,272,-121,1340,-325
5515,-1816,-136,256,-64,1332,-328
5520,-1712,-232,304,4,1303,-322
5525,-1728,-216,328,82,1260,-317
5530,-1736,-168,328,158,1209,-319
5535,-1736,-96,320,224,1154,-320
5540,-1720,-32,272,282,1101,-313
5545,-1816,32,272,321,1058,-309
5550,-1872,88,240,359,1016,-300
5555,-1896,144,152,395,976,-290
5560,-1936,144,152,427,948,-281
5565,-1992,184,88,446,930,-271
5570,-1928,176,64,453,915,-262
5575,-1992,216,136,448,915,-255
5580,-2008,152,136,449,914,-243
5585,-2024,152,96,457,929,-235
5590,-2000,144,56,461,958,-218
5595,-2024,232,88,454,996,-204
5600,-2048,232,80,438,1044,-178
5605,-2056,264,40,422,1087,-145
5610,-2088,272,8,405,1122,-116
5615,-2088,304,-88,383,1148,-84
5620,-2072,328,-144,357,1170,-59
5625,-2048,336,-176,331,1196,-30
5630,-2016,320,-216,315,1218,9
5635,-2008,384,-216,302,1226,47
5640,-1960,360,-288,298,1224,79
5645,-1888,328,-280,300,1218,94
5650,-1856,296,-328,302,1209,87
5655,-1936,272,-312,295,1195,68
5660,-1992,232,-336,286,1167,58
5665,-2040,184,-312,279,1121,43
5670,-2184,184,-304,273,1070,28
5675,-2264,192,-336,270,1014,21
5680,-2328,192,-360,269,963,16
5685,-2384,264,-376,260,933,2
5690,-2408,280,-352,250,901,-6
5695,-2360,280,-400,232,872,-17
5700,-2352,296,-384,205,860,-39
5705,-2352,312,-448,174,866,-63
5710,-2320,376,-496,139,880,-79
5715,-2232,384,-512,99,896,-88
5720,-2208,464,-584,58,929,-83
5725,-2144,448,-640,21,968,-76
5730,-2136,480,-680,-11,1003,-72
5735,-2096,456,-736,-35,1025,-71
5740,-2064,528,-720,-51,1034,-71
5745,-2048,456,-752,-57,1024,-68
5750,-2040,440,-744,-60,1006,-67
5755,-2032,400,-728,-52,988,-63
5760,-2040,344,-704,-26,963,-60
5765,-2040,312,-712,5,932,-60
5770,-2032,320,-696,35,895,-59
5775,-2024,248,-648,60,854,-53
5780,-1984,208,-680,77,814,-55
5785,-1992,192,-664,90,768,-55
5790,-1968,152,-624,101,717,-49
5795,-1952,152,-552,116,663,-44
5800,-1960,184,-560,122,614,-31
5805,-1944,168,-552,128,556,-16
5810,-1952,200,-600,131,501,-2
5815,-1968,248,-648,128,451,16
5820,-1944,256,-680,119,403,34
5825,-1936,288,-704,111,355,51
5830,-1952,320,-760,105,314,65
5835,-1968,312,-712,100,278,71
5840,-1968,328,-720,97,249,78
5845,-1984,320,-728,93,220,81
5850,-1984,320,-768,89,194,83
5855,-1976,288,-696,85,171,82
5860,-1960,272,-680,81,148,81
5865,-1952,248,-640,79,121,80
5870,-1936,248,-656,79,87,78
5875,-1952,256,-624,81,53,78
5880,-1960,256,-664,83,16,77
5885,-1968,272,-664,84,-22,76
5890,-1968,264,-624,82,-56,74
5895,-1992,296,-616,81,-86,73
5900,-1992,288,-568,80,-113,70
5905,-2024,304,-640,79,-137,65
5910,-2048,336,-656,77,-160,60
5915,-2048,344,-648,71,-181,54
5920,-2072,344,-648,67,-196,48
5925,-2064,360,-648,62,-212,41
5930,-2080,344,-672,53,-226,36
5935,-2096,344,-680,41,-241,34
5940,-2080,352,-632,28,-255,33
5945,-2048,304,-608,15,-272,35
5950,-2096,352,-584,3,-293,34
5955,-2112,336,-616,-8,-314,37
5960,-2056,304,-560,-19,-333,39
5965,-2072,360,-576,-28,-351,41
5970,-2064,320,-536,-34,-368,41
5975,-2080,352,-568,-36,-380,40
5980,-2072,360,-544,-37,-389,36
5985,-2096,368,-552,-38,-396,32
5990,-2096,344,-536,-37,-401,27
5995,-2096,336,-512,-34,-404,21
6000,-2080,352,-528,-29,-408,15
6005,-2080,344,-536,-21,-408,5
6010,-2048,384,-504,-15,-410,0
6015,-2072,376,-488,-8,-409,-7
6020,-2064,368,-496,-2,-404,-13
6025,-2048,344,-488,3,-403,-19
6030,-2048,352,-464,8,-401,-23
6035,-2032,344,-456,10,-398,-23
6040,-2016,328,-440,10,-394,-24
6045,-2016,360,-488,11,-392,-22
6050,-2016,352,-432,9,-390,-17
6055,-1976,328,-400,7,-388,-11
6060,-2008,320,-368,7,-390,-5
6065,-1960,328,-416,8,-392,0
6070,-1952,312,-360,8,-393,3
6075,-1944,320,-368,9,-397,4
6080,-1928,320,-344,9,-399,7
6085,-1952,328,-328,10,-402,8
6090,-1920,312,-336,13,-404,11
6095,-1896,288,-312,14,-404,10
6100,-1888,296,-264,16,-406,8
6105,-1872,296,-240,23,-408,8
6110,-1864,304,-216,28,-407,8
6115,-1848,288,-288,32,-406,5
6120,-1864,264,-200,38,-406,8
6125,-1896,288,-216,42,-401,9
6130,-1896,304,-208,46,-392,12
6135,-1888,280,-136,52,-380,13
6140,-1872,288,-200,52,-362,13
6145,-1928,304,-152,49,-338,11
6150,-1968,328,-144,48,-321,11
6155,-1960,328,-152,49,-302,9
6160,-1960,328,-152,50,-283,6
6165,-1952,328,-144,48,-264,3
6170,-1984,288,-160,41,-245,0
6175,-1952,296,-176,35,-227,1
6180,-1976,288,-136,26,-204,0
6185,-2000,304,-144,18,-178,3
6190,-1992,312,-160,14,-150,8
6195,-2016,280,-112,8,-118,8
6200,-2008,328,-128,2,-83,10
6205,-2024,336,-88,-5,-44,13
6210,-2000,320,-136,-11,-7,15
6215,-1984,344,-96,-16,27,14
6220,-2000,320,-176,-25,62,11
6225,-2000,304,-152,-33,98,12
6230,-2024,336,-120,-44,136,9
6235,-1992,328,-168,-47,173,9
6240,-2008,328,-144,-52,210,4
6245,-2008,344,-192,-55,240,-1
6250,-1976,328,-176,-60,270,-7
6255,-2000,312,-192,-54,291,-8
6260,-2016,312,-208,-46,304,-14
6265,-1976,280,-232,-40,312,-16
6270,-1976,288,-256,-35,318,-20
6275,-1976,288,-240,-32,321,-21
6280,-1944,280,-240,-33,318,-22
6285,-1968,280,-272,-30,313,-21
6290,-1968,320,-288,-26,305,-20
6295,-1976,312,-296,-17,298,-20
6300,-1976,320,-328,-8,297,-23
6305,-1968,344,-336,3,293,-27
6310,-1968,360,-328,12,296,-32
6315,-1960,344,-304,20,299,-38
6320,-1968,368,-392,27,306,-40
6325,-1944,328,-288,33,310,-43
6330,-1992,320,-328,41,313,-47
6335,-1944,328,-360,47,315,-49
6340,-1952,320,-408,55,317,-52
6345,-1992,352,-416,59,318,-55
6350,-1936,360,-400,60,320,-58
6355,-1952,360,-384,59,318,-61
6360,-1984,376,-432,51,316,-66
6365,-1952,352,-448,45,314,-70
6370,-1960,368,-392,37,311,-72
6375,-2008,392,-432,25,307,-73
6380,-1976,392,-424,13,302,-73
6385,-1952,448,-424,-1,298,-72
6390,-2024,392,-472,-14,289,-72
6395,-2024,424,-456,-43,268,-79
6400,-1984,392,-448,-77,249,-89
6405,-1976,408,-440,-89,246,-86
6410,-1992,384,-488,-93,234,-81
6415,-1952,344,-472,-101,219,-81
6420,-1992,328,-504,-100,213,-77
6425,-1992,328,-496,-94,203,-71
6430,-1976,304,-496,-85,190,-67
6435,-2024,368,-480,-78,171,-64
6440,-2032,312,-504,-73,152,-64
6445,-2032,312,-504,-68,130,-64
6450,-2024,296,-496,-68,113,-64
6455,-2048,328,-488,-65,93,-65
6460,-2040,312,-488,-63,72,-64
6465,-2048,304,-496,-59,50,-60
6470,-2056,320,-512,-58,28,-57
6475,-2040,328,-512,-56,3,-52
6480,-2024,320,-504,-55,-18,-47
6485,-2040,288,-472,-51,-31,-47
6490,-2048,256,-512,-40,-42,-48
6495,-2032,296,-512,-26,-53,-48
6500,-2024,304,-496,-12,-65,-47
6505,-2024,272,-496,1,-79,-46
6510,-2040,320,-472,12,-93,-42
6515,-2008,296,-504,23,-105,-40
6520,-2000,304,-480,33,-113,-38
6525,-2032,304,-456,44,-122,-36
6530,-2040,352,-416,56,-133,-28
6535,-1944,288,-408,53,-151,-21
6540,-1944,280,-432,49,-150,-27
6545,-1976,264,-392,55,-152,-28
6550,-1976,288,-408,67,-152,-28
6555,-1968,280,-360,70,-156,-28
6560,-1968,304,-352,66,-160,-22
6565,-1960,312,-384,59,-166,-16
6570,-1960,296,-360,53,-167,-7
6575,-1952,304,-368,43,-165,-6
6580,-1960,312,-352,41,-165,-3
6585,-1984,312,-344,38,-161,-2
6590,-1960,288,-368,32,-159,-1
6595,-1952,240,-368,29,-155,3
6600,-1992,288,-344,20,-150,1
6605,-2016,280,-368,14,-147,4
6610,-2024,296,-352,9,-141,6
6615,-2008,296,-344,0,-133,6
6620,-1984,272,-360,-9,-125,6
6625,-2024,288,-352,-12,-115,8
6630,-2000,296,-360,-18,-104,3
6635,-2008,336,-368,-25,-94,1
6640,-2016,312,-336,-31,-83,1
6645,-2016,320,-368,-29,-73,1
6650,-2016,296,-376,-31,-63,-5
6655,-2016,312,-320,-36,-57,-8
6660,-2016,320,-328,-41,-51,-11
6665,-2016,320,-344,-44,-47,-14
6670,-2024,336,-344,-50,-46,-14
6675,-2008,336,-336,-54,-45,-13
6680,-2032,320,-344,-55,-45,-16
6685,-2016,344,-328,-53,-44,-20
6690,-2032,352,-312,-51,-40,-24
6695,-2016,336,-344,-53,-38,-28
6700,-2040,352,-328,-57,-34,-30
6705,-1976,312,-352,-60,-26,-34
6710,-2032,328,-328,-63,-20,-35
6715,-2032,328,-336,-66,-9,-38
6720,-2032,360,-384,-70,3,-41
6725,-2048,360,-320,-76,15,-42
6730,-2040,368,-352,-79,25,-41
6735,-2112,448,-336,-90,32,-41
6740,-1960,368,-360,-114,26,-27
6745,-2024,312,-360,-128,41,-43
6750,-2000,272,-360,-117,53,-52
6755,-2016,208,-320,-102,62,-56
6760,-2016,256,-328,-85,68,-62
6765,-2016,280,-328,-71,66,-64
6770,-2008,248,-312,-57,58,-65
6775,-2016,264,-328,-47,48,-63
6780,-2000,280,-328,-40,40,-59
6785,-1992,280,-368,-37,35,-57
6790,-2040,312,-360,-30,32,-53
6795,-2000,296,-344,-24,30,-51
6800,-1976,272,-352,-18,31,-50
6805,-2016,312,-312,-12,33,-52
6810,-2032,312,-352,-6,35,-49
6815,-1992,328,-376,-4,30,-45
6820,-1960,336,-392,-18,22,-32
6825,-1968,344,-392,-31,14,-24
6830,-1928,232,-344,-44,8,-32
6835,-1976,176,-368,-26,17,-45
6840,-2000,224,-344,7,16,-54
6845,-1984,216,-344,34,10,-55
6850,-1984,240,-328,49,-1,-53
6855,-2000,256,-328,55,-11,-48
6860,-2032,296,-328,59,-16,-42
6865,-1992,272,-336,63,-19,-40
6870,-1968,264,-336,66,-15,-34
6875,-2000,288,-352,71,-14,-27
6880,-1984,280,-320,75,-13,-20
6885,-2008,304,-344,75,-13,-14
6890,-2008,312,-352,74,-12,-11
6895,-1992,280,-384,72,-12,-9
6900,-2000,296,-352,69,-11,-9
6905,-2008,296,-344,66,-11,-7
6910,-1976,288,-296,61,-10,-5
6915,-2008,296,-280,57,-12,-2
6920,-2000,296,-344,56,-12,1
6925,-1984,296,-296,54,-13,5
6930,-2008,280,-312,51,-9,11
6935,-1992,280,-320,51,-5,11
6940,-2008,280,-312,52,0,15
6945,-2008,312,-344,51,8,18
6950,-1984,296,-328,53,15,19
6955,-2000,272,-328,55,19,19
6960,-2024,320,-376,56,23,21
6965,-2016,312,-328,58,26,20
6970,-2032,264,-312,61,26,18
6975,-2008,312,-352,64,27,15
6980,-2008,320,-336,67,26,12
6985,-2032,328,-328,72,28,10
6990,-2024,320,-352,76,29,7
6995,-2008,320,-336,79,30,2
7000,-2016,320,-352,83,33,0
7005,-2040,352,-368,84,35,-3
7010,-2016,304,-376,88,37,-6
7015,-2032,336,-352,87,39,-9
7020,-2016,288,-400,88,41,-12
7025,-2024,320,-360,85,42,-13
7030,-1992,304,-384,84,42,-14
7035,-2000,336,-376,84,40,-14
7040,-2008,304,-368,84,39,-15
7045,-2032,352,-392,81,37,-16
7050,-2032,328,-360,80,32,-16
7055,-2024,320,-376,77,29,-16
7060,-2032,352,-392,75,26,-17
7065,-2024,320,-384,75,23,-16
7070,-2016,304,-360,73,19,-18
7075,-2000,328,-400,75,17,-19
7080,-1992,296,-360,78,14,-20
7085,-2016,296,-384,80,9,-22
7090,-2008,304,-384,83,3,-21
7095,-2000,296,-360,82,-3,-20
7100,-2000,304,-384,83,-8,-20
7105,-2024,288,-384,84,-12,-19
7110,-2032,272,-376,84,-16,-17
7115,-2016,320,-384,84,-21,-19
7120,-1992,312,-368,85,-24,-20
7125,-2008,312,-392,85,-28,-18
7130,-2000,312,-376,86,-35,-19
7135,-2016,296,-416,88,-40,-19
7140,-2008,312,-384,87,-46,-19
7145,-2016,320,-376,86,-53,-17
7150,-1992,296,-368,83,-59,-17
7155,-2016,280,-344,81,-65,-14
7160,-2024,312,-352,78,-71,-12
7165,-1992,288,-312,76,-76,-11
7170,-1984,272,-376,73,-79,-10
7175,-2024,312,-368,68,-82,-8
7180,-2016,288,-392,65,-86,-8
7185,-2008,288,-344,64,-87,-7
7190,-2000,312,-352,62,-87,-6
7195,-2016,288,-352,64,-88,-7
7200,-2024,312,-304,65,-89,-7
7205,-2016,304,-304,68,-88,-8
7210,-2016,312,-328,69,-87,-9
7215,-2000,304,-344,70,-85,-10
7220,-2016,288,-352,70,-81,-10
7225,-2032,280,-336,69,-80,-10
7230,-2024,312,-352,68,-74,-10
7235,-1984,272,-320,67,-72,-7
7240,-2000,304,-312,67,-68,-8
7245,-1992,280,-296,66,-64,-5
7250,-2000,312,-304,63,-60,-3
7255,-1952,296,-312,58,-58,0
7260,-2032,328,-312,53,-55,1
7265,-2016,304,-288,49,-53,3
7270,-2008,320,-288,48,-50,3
7275,-2024,304,-296,52,-48,-2
7280,-2016,328,-304,58,-43,-4
7285,-2008,304,-312,63,-39,-8
7290,-1992,304,-240,67,-35,-10
7295,-2008,288,-272,72,-31,-11
7300,-1960,272,-296,74,-27,-12
7305,-2008,304,-288,76,-24,-11
7310,-1992,272,-296,78,-19,-9
7315,-2016,328,-288,80,-15,-8
7320,-1992,288,-296,82,-13,-7
7325,-1976,264,-296,81,-10,-7
7330,-1992,320,-312,79,-7,-8
7335,-1992,296,-320,77,-4,-7
7340,-2016,304,-336,73,-3,-9
7345,-1992,312,-272,68,-3,-8
7350,-2000,304,-312,63,-2,-7
7355,-1984,328,-288,60,-2,-5
7360,-1968,288,-304,55,-1,-3
7365,-2000,320,-312,53,2,-2
7370,-1992,360,-296,50,5,-2
7375,-2008,328,-328,49,10,-2
7380,-2008,320,-296,48,12,-3
7385,-1984,296,-296,49,17,-6
7390,-2000,288,-336,51,20,-6
7395,-1976,272,-360,53,23,-9
7400,-2032,304,-320,55,23,-11
7405,-2000,280,-304,56,21,-11
7410,-2024,296,-320,56,20,-12
7415,-2000,272,-304,58,17,-12
7420,-2024,288,-312,58,14,-10
7425,-2008,296,-352,59,12,-9
7430,-2032,296,-320,61,12,-9
7435,-2040,296,-296,63,11,-8
7440,-2024,312,-344,65,11,-9
7445,-2008,320,-328,65,11,-10
7450,-2008,312,-336,66,12,-9
7455,-2032,328,-336,67,13,-8
7460,-2024,312,-328,67,16,-9
7465,-2008,312,-320,67,16,-10
7470,-2016,328,-304,66,19,-12
7475,-2008,312,-304,64,22,-13
7480,-2000,304,-320,63,24,-13
7485,-1984,296,-312,61,27,-14
7490,-1984,296,-328,62,27,-14
7495,-1992,312,-312,63,25,-15
7500,-1984,312,-304,64,24,-14
7505,-2016,336,-352,64,20,-15
7510,-2024,304,-336,63,15,-17
7515,-2008,288,-304,64,10,-15
7520,-2040,312,-320,64,6,-14
7525,-2032,312,-344,63,3,-12
7530,-2032,328,-304,63,1,-12
7535,-2008,296,-360,60,-1,-11
7540,-2008,312,-320,60,-1,-10
7545,-1992,280,-368,62,-2,-9
7550,-2032,312,-368,65,-5,-8
7555,-2040,352,-368,68,-5,-9
7560,-2000,304,-320,70,-5,-9
7565,-2008,312,-328,74,-8,-12
7570,-2016,320,-360,76,-10,-11
7575,-2000,296,-312,77,-13,-11
7580,-2000,312,-320,78,-14,-13
7585,-2000,288,-304,77,-16,-12
7590,-2008,304,-312,77,-20,-13
7595,-2024,272,-304,77,-21,-14
7600,-1992,304,-328,75,-20,-13
7605,-2032,312,-312,74,-19,-12
7610,-2008,336,-336,73,-20,-11
7615,-1992,304,-320,72,-17,-11
7620,-2024,320,-304,70,-16,-11
7625,-2016,320,-320,70,-14,-11
7630,-1984,296,-312,72,-14,-10
7635,-2048,320,-312,71,-14,-11
7640,-2024,288,-320,74,-15,-11
7645,-2024,312,-328,75,-16,-11
7650,-2024,320,-336,78,-16,-12
7655,-2032,320,-352,80,-20,-13
7660,-2000,320,-280,82,-24,-13
7665,-1992,328,-360,85,-26,-13
7670,-2008,304,-328,87,-30,-11
7675,-2008,264,-304,88,-33,-12
7680,-2008,296,-296,90,-33,-13
7685,-2024,296,-320,90,-35,-12
7690,-2008,296,-296,90,-36,-12
7695,-2024,312,-256,89,-38,-10
7700,-2032,312,-336,90,-37,-11
7705,-2032,296,-288,90,-37,-10
7710,-2008,352,-336,89,-35,-10
7715,-2032,272,-304,88,-35,-8
7720,-1984,312,-328,86,-34,-8
7725,-2000,312,-304,85,-32,-9
7730,-2000,304,-320,84,-31,-10
7735,-2008,312,-296,85,-31,-10
7740,-2016,320,-320,84,-28,-11
7745,-2040,312,-296,83,-27,-11
7750,-2000,304,-288,82,-26,-10
7755,-2000,280,-296,82,-24,-12
7760,-2000,264,-304,81,-23,-12
7765,-2016,288,-288,81,-21,-12
7770,-2000,328,-288,81,-18,-11
7775,-2040,304,-312,80,-17,-10
7780,-2016,312,-304,79,-16,-10
7785,-2024,304,-288,78,-15,-9
7790,-2008,312,-312,76,-16,-7
7795,-2000,304,-288,74,-16,-6
7800,-2008,320,-296,70,-17,-6
7805,-1944,288,-256,65,-17,-4
7810,-2000,288,-304,60,-18,-4
7815,-2008,304,-304,55,-17,-4
7820,-2000,312,-288,52,-17,-4
7825,-2016,248,-296,51,-13,-4
7830,-2000,280,-280,50,-10,-4
7835,-1992,328,-288,51,-8,-3
7840,-1992,280,-288,51,-4,-3
7845,-1992,288,-288,50,0,-2
7850,-2024,320,-312,50,2,-3
7855,-2032,288,-272,49,3,-5
7860,-2024,304,-336,48,3,-8
7865,-2016,296,-320,48,3,-12
7870,-2048,296,-264,48,3,-11
7875,-2016,272,-256,47,3,-12
7880,-2032,304,-312,44,2,-9
7885,-2024,296,-280,45,1,-7
7890,-2032,280,-272,47,-1,-2
7895,-2008,288,-272,51,-2,1
7900,-2040,320,-336,56,-1,4
7905,-2024,312,-312,58,1,4
7910,-2016,288,-304,60,4,4
7915,-2016,320,-304,66,9,-1
7920,-2032,328,-296,70,9,-6
7925,-1992,272,-304,73,7,-7
7930,-2016,296,-312,77,1,-9
7935,-2024,312,-328,79,-5,-11
7940,-2008,296,-280,82,-10,-11
7945,-2000,304,-304,85,-17,-9
7950,-2016,280,-304,86,-23,-8
7955,-2032,320,-280,85,-30,-7
7960,-2000,312,-280,83,-36,-4
7965,-2048,328,-280,81,-40,-3
7970,-2000,304,-272,80,-42,-1
7975,-1992,312,-288,79,-42,1
7980,-2000,312,-312,76,-43,-2
7985,-2032,344,-304,74,-42,-3
7990,-1992,320,-288,72,-41,-4
7995,-1984,312,-288,72,-37,-6
8000,-2016,296,-288,72,-34,-8
8005,-2032,312,-296,71,-32,-10
8010,-2024,312,-264,72,-31,-11
8015,-2024,296,-280,75,-32,-13
8020,-2040,304,-264,76,-34,-14
8025,-2032,304,-320,75,-35,-13
8030,-2024,304,-288,75,-36,-11
8035,-2032,248,-272,72,-37,-9
8040,-2048,288,-280,72,-37,-6
8045,-2024,296,-280,70,-35,-7
8050,-2040,312,-280,69,-34,-4
8055,-2016,320,-280,69,-30,-5
8060,-2000,288,-288,70,-26,-7
8065,-2024,320,-312,73,-21,-8
8070,-2008,296,-280,74,-17,-8
8075,-2016,312,-280,75,-12,-10
8080,-2024,312,-280,77,-8,-13
8085,-2024,328,-288,78,-4,-14
8090,-2000,360,-344,78,-2,-15
8095,-2008,312,-280,78,0,-15
8100,-2000,320,-264,77,1,-17
8105,-2000,288,-272,74,-1,-16
8110,-2008,312,-288,73,-3,-16
8115,-2000,304,-256,72,-4,-14
8120,-1992,328,-264,70,-5,-14
8125,-2000,312,-256,67,-8,-14
8130,-2016,296,-264,64,-8,-13
8135,-2016,280,-264,62,-8,-13
8140,-2008,288,-296,61,-9,-13
8145,-2016,288,-264,62,-6,-15
8150,-2016,304,-288,62,-6,-13
8155,-2008,264,-272,64,-7,-11
8160,-2000,272,-288,65,-7,-11
8165,-2008,280,-296,66,-9,-9
8170,-2016,280,-288,69,-11,-8
8175,-2008,296,-296,71,-14,-8
8180,-2000,296,-272,68,-17,-7
8185,-2024,328,-272,66,-20,-6
8190,-2008,312,-320,64,-24,-5
8195,-2000,296,-304,60,-25,-1
8200,-2024,296,-296,59,-25,-1
8205,-2016,320,-280,59,-24,0
8210,-2032,312,-264,58,-24,1
8215,-2024,328,-280,60,-24,2
8220,-2016,304,-272,59,-21,1
8225,-2008,312,-288,59,-19,-2
8230,-2008,320,-280,61,-20,-4
8235,-2000,312,-248,62,-20,-7
8240,-2008,296,-256,67,-22,-8
8245,-2016,296,-256,70,-22,-10
8250,-1968,336,-224,71,-24,-13
8255,-2032,304,-312,70,-27,-9
8260,-2040,304,-256,69,-32,-6
8265,-2032,312,-272,68,-35,-5
8270,-2032,304,-304,69,-35,-4
8275,-2040,320,-272,68,-35,-5
8280,-2032,304,-296,67,-35,-6
8285,-2016,320,-304,68,-32,-5
8290,-2024,320,-256,66,-32,-3
8295,-2000,312,-272,66,-31,-3
8300,-2016,328,-264,66,-30,-6
8305,-2040,296,-224,67,-27,-7
8310,-2016,304,-248,69,-25,-8
8315,-2032,296,-224,72,-23,-10
8320,-2008,320,-256,74,-19,-12
8325,-2040,304,-264,72,-16,-11
8330,-2016,280,-280,72,-12,-9
8335,-2016,304,-264,76,-9,-6
8340,-2008,264,-256,82,-8,-5
8345,-1992,264,-232,90,-10,-1
8350,-2008,320,-256,101,-12,1
8355,-2000,336,-280,109,-15,4
8360,-1984,304,-232,115,-16,4
8365,-2016,328,-240,118,-14,3
8370,-2024,328,-240,116,-13,-1
8375,-2040,320,-256,110,-9,-2
8380,-2016,320,-256,102,-3,-7
8385,-2048,320,-232,89,6,-10
8390,-2040,312,-216,77,14,-16
8395,-2032,336,-248,66,23,-16
8400,-2032,320,-272,54,33,-18
8405,-2040,312,-240,45,41,-19
8410,-2040,280,-256,37,47,-19
8415,-2024,320,-272,33,54,-19
8420,-2040,320,-256,31,56,-19
8425,-2008,288,-256,30,55,-17
8430,-2024,296,-272,29,54,-17
8435,-2016,312,-272,30,51,-14
8440,-2024,320,-272,30,46,-11
8445,-2016,288,-264,33,40,-10
8450,-2016,320,-288,40,34,-6
8455,-2016,288,-264,47,28,-6
8460,-2024,304,-240,58,21,-7
8465,-2008,264,-280,67,16,-6
8470,-2032,288,-296,74,13,-7
8475,-2008,296,-288,80,9,-9
8480,-2000,288,-288,84,5,-10
8485,-2024,312,-296,87,-1,-11
8490,-2016,304,-272,86,-6,-10
8495,-1992,312,-344,85,-11,-9
8500,-2016,328,-248,83,-17,-8
8505,-2000,304,-304,81,-26,-7
8510,-2016,296,-232,81,-32,-6
8515,-1984,264,-224,77,-37,-5
8520,-1992,296,-248,75,-44,-3
8525,-2008,296,-256,72,-47,-2
8530,-2016,304,-288,68,-48,-1
8535,-2000,304,-256,66,-47,1
8540,-2040,312,-256,63,-46,0
8545,-2008,288,-224,62,-45,0
8550,-2016,320,-232,61,-41,2
8555,-2016,312,-248,62,-37,3
8560,-2040,336,-264,63,-33,1
8565,-2016,296,-232,64,-27,-2
8570,-2032,320,-272,64,-22,-4
8575,-2016,320,-272,67,-17,-6
8580,-2032,312,-224,69,-13,-8
8585,-2024,304,-248,71,-10,-8
8590,-2040,304,-256,73,-7,-11
8595,-2016,304,-232,73,-6,-12
8600,-2032,296,-248,72,-5,-12
8605,-2032,280,-240,70,-3,-10
8610,-2032,288,-256,70,-3,-9
8615,-2040,304,-248,68,-3,-6
8620,-2024,264,-248,65,-1,-4
8625,-2048,304,-256,61,1,-3
8630,-2024,288,-264,61,1,-2
8635,-2024,320,-272,58,4,-2
8640,-2016,320,-256,57,5,-3
8645,-2032,328,-248,57,7,-4
8650,-2000,312,-240,55,8,-7
8655,-2024,304,-272,55,7,-6
8660,-2016,312,-248,56,9,-7
8665,-2000,312,-264,54,8,-7
8670,-2008,296,-256,53,10,-8
8675,-2032,272,-224,55,10,-8
8680,-2000,296,-240,53,12,-9
8685,-2008,312,-272,52,12,-9
8690,-2024,312,-272,52,12,-10
8695,-2008,296,-224,51,12,-11
8700,-2024,280,-272,51,11,-11
8705,-2016,304,-272,51,10,-10
8710,-2016,312,-232,51,11,-9
8715,-2032,304,-256,52,10,-9
8720,-2016,272,-288,52,9,-10
8725,-2024,288,-256,51,8,-8
8730,-2032,296,-272,49,5,-8
8735,-2016,304,-272,48,4,-8
8740,-2040,304,-256,49,1,-7
8745,-2032,296,-248,46,1,-5
8750,-2016,328,-272,45,0,-6
8755,-2016,328,-256,44,-1,-6
8760,-2016,304,-272,43,0,-7
8765,-2016,304,-264,44,-1,-8
8770,-2024,288,-280,46,-1,-6
8775,-2008,312,-248,46,-2,-6
8780,-2032,320,-288,47,-3,-8
8785,-2048,336,-288,47,-2,-7
8790,-2032,304,-272,49,-2,-9
8795,-2016,304,-248,51,0,-9
8800,-2040,312,-256,52,1,-8
8805,-2032,328,-256,53,0,-9
8810,-2040,304,-240,54,-2,-10
8815,-2032,328,-272,55,-4,-9
8820,-2000,304,-288,57,-6,-11
8825,-1984,312,-232,59,-8,-12
8830,-2040,280,-208,62,-9,-12
8835,-2032,256,-248,58,-13,-11
8840,-2024,320,-264,53,-14,-9
8845,-2008,288,-232,52,-15,-8
8850,-2016,320,-256,54,-17,-6
8855,-2016,304,-240,53,-17,-9
8860,-2032,328,-240,52,-15,-10
8865,-2008,296,-248,52,-12,-12
8870,-2000,296,-248,53,-8,-13
8875,-2024,344,-264,54,-5,-16
8880,-2040,312,-256,55,-3,-19
8885,-2008,304,-216,57,-1,-19
8890,-2016,328,-216,58,2,-21
8895,-2032,312,-232,60,4,-22
8900,-2016,272,-232,62,5,-22
8905,-2016,320,-248,63,7,-20
8910,-2032,296,-216,63,9,-21
8915,-2008,288,-224,63,11,-20
8920,-2024,304,-248,65,12,-17
8925,-2040,320,-264,65,12,-19
8930,-2032,288,-248,64,12,-19
8935,-2016,288,-232,65,13,-20
8940,-2008,272,-248,64,11,-18
8945,-1992,272,-216,64,9,-18
8950,-2016,296,-216,63,7,-17
8955,-2016,304,-256,62,5,-15
8960,-2008,304,-232,61,4,-13
8965,-1984,280,-224,58,4,-11
8970,-2008,296,-216,56,4,-11
8975,-2032,272,-256,55,5,-8
8980,-2016,296,-256,54,9,-8
8985,-2024,320,-224,55,10,-10
8990,-2000,296,-240,54,11,-10
8995,-1992,312,-272,52,13,-10
9000,-2016,328,-240,52,14,-8
9005,-2016,288,-232,50,18,-9
9010,-2016,288,-224,47,20,-9
9015,-2032,304,-264,46,24,-11
9020,-2040,312,-240,45,28,-12
9025,-2024,304,-264,44,32,-13
9030,-2008,272,-232,43,34,-11
9035,-2024,288,-232,42,34,-11
9040,-2000,280,-264,42,34,-8
9045,-2040,296,-232,42,34,-7
9050,-2048,264,-288,42,32,-4
9055,-2040,296,-248,42,31,0
9060,-2056,296,-248,41,31,1
9065,-2032,296,-264,44,33,0
9070,-2040,304,-280,45,32,-1
9075,-2048,304,-264,46,30,-4
9080,-2024,280,-264,51,26,-4
9085,-2032,296,-280,56,18,-7
9090,-2040,320,-320,58,13,-4
9095,-2040,304,-304,59,6,-3
9100,-1984,312,-296,59,0,-2
9105,-2040,272,-280,59,-7,-2
9110,-2024,336,-240,58,-10,-1
9115,-2016,304,-208,57,-13,0
9120,-2008,320,-248,55,-13,2
9125,-2000,328,-248,52,-11,1
9130,-2008,320,-240,48,-8,-1
9135,-2024,312,-256,45,-4,-1
9140,-2008,328,-216,42,1,-2
9145,-2000,304,-248,40,5,-1
9150,-2024,328,-240,40,10,-3
9155,-2040,312,-224,38,14,-5
9160,-2008,336,-272,37,15,-6
9165,-2032,320,-240,37,18,-5
9170,-2008,328,-208,37,21,-4
9175,-2032,304,-256,38,22,-5
9180,-2024,328,-256,38,23,-5
9185,-2024,312,-224,38,24,-5
9190,-2008,296,-224,37,26,-5
9195,-2016,312,-248,40,26,-4
9200,-2008,304,-216,40,27,-7
9205,-2024,272,-216,42,28,-7
9210,-2024,264,-264,44,27,-5
9215,-2024,320,-256,44,29,-7
9220,-2008,296,-224,44,29,-7
9225,-2024,296,-248,46,29,-7
9230,-2024,296,-272,47,27,-8
9235,-2000,328,-280,47,27,-7
9240,-2000,304,-248,48,25,-7
9245,-2016,312,-256,48,24,-8
9250,-2016,312,-280,45,22,-10
9255,-2040,352,-256,46,20,-8
9260,-2016,296,-248,45,17,-9
9265,-2072,280,-208,44,16,-9
9270,-2032,304,-240,44,16,-8
9275,-2032,296,-272,43,17,-9
9280,-2016,312,-248,43,16,-9
9285,-2024,312,-248,42,16,-10
9290,-2016,312,-264,41,16,-11
9295,-2024,304,-240,40,16,-10
9300,-1992,296,-248,39,15,-11
9305,-2000,288,-248,37,15,-11
9310,-2000,304,-232,34,15,-14
9315,-1976,272,-264,31,13,-13
9320,-2008,288,-256,29,14,-14
9325,-2016,312,-224,27,14,-15
9330,-2032,304,-224,25,15,-14
9335,-2016,304,-248,25,16,-15
9340,-2032,312,-248,25,18,-15
9345,-2024,296,-248,27,18,-14
9350,-1992,272,-224,29,18,-13
9355,-2024,312,-232,27,18,-12
9360,-2032,320,-240,26,20,-11
9365,-1992,312,-232,24,22,-11
9370,-2032,304,-184,21,22,-10
9375,-2008,296,-240,17,25,-11
9380,-2008,328,-248,15,27,-11
9385,-2024,304,-232,11,31,-10
9390,-2048,328,-256,8,39,-13
9395,-2040,336,-232,5,44,-15
9400,-2032,304,-232,4,50,-20
9405,-2032,328,-240,3,55,-22
9410,-2048,296,-256,5,59,-24
9415,-2016,280,-256,7,62,-26
9420,-2024,312,-280,10,63,-26
9425,-2064,288,-296,13,61,-26
9430,-2032,288,-264,16,57,-27
9435,-2000,312,-248,18,55,-24
9440,-2016,328,-280,22,50,-22
9445,-2008,312,-232,23,45,-21
9450,-2024,312,-256,25,40,-20
9455,-1984,320,-256,25,34,-22
9460,-2024,304,-208,25,30,-18
9465,-2024,304,-280,26,27,-20
9470,-2000,312,-256,25,24,-22
9475,-1968,296,-288,24,24,-22
9480,-2000,280,-264,24,22,-20
9485,-2016,280,-264,26,24,-21
9490,-1992,304,-248,26,25,-21
9495,-2016,304,-280,27,27,-22
9500,-2032,296,-256,29,28,-20
9505,-2032,328,-288,29,30,-20
9510,-2008,288,-272,30,31,-18
9515,-2000,312,-256,30,33,-16
9520,-1992,288,-248,31,34,-15
9525,-1992,272,-296,33,33,-14
9530,-2016,288,-296,35,32,-11
9535,-1992,312,-264,37,29,-10
9540,-2008,312,-224,39,25,-10
9545,-2008,304,-264,41,21,-10
9550,-2000,304,-240,40,17,-8
9555,-1992,296,-264,40,13,-7
9560,-2000,304,-240,39,11,-7
9565,-2016,288,-248,37,8,-7
9570,-2016,336,-208,36,7,-7
9575,-2016,320,-264,32,9,-9
9580,-2024,296,-256,30,12,-9
9585,-2024,296,-192,27,16,-12
9590,-2040,296,-232,26,20,-13
9595,-2040,296,-240,25,27,-16
9600,-2032,296,-240,25,34,-18
9605,-2048,304,-264,27,42,-19
9610,-2040,296,-240,28,50,-21
9615,-2048,320,-304,29,55,-20
9620,-2016,288,-256,32,59,-21
9625,-2024,304,-280,34,62,-20
9630,-2024,312,-272,37,64,-17
9635,-2040,280,-240,39,66,-16
9640,-2016,304,-240,41,64,-15
9645,-2040,296,-272,41,61,-12
9650,-1992,296,-248,40,55,-12
9655,-1984,320,-272,39,52,-11
9660,-2016,296,-272,37,46,-10
9665,-2008,320,-272,36,39,-11
9670,-2016,312,-256,34,32,-9
9675,-2016,304,-328,35,27,-11
9680,-2016,304,-264,38,24,-13
9685,-2032,312,-272,40,23,-14
9690,-1984,328,-288,40,21,-16
9695,-2000,272,-272,42,20,-16
9700,-2000,280,-264,44,20,-18
9705,-1984,272,-248,42,22,-18
9710,-2000,280,-264,41,28,-17
9715,-2032,296,-240,39,33,-15
9720,-2016,288,-240,38,41,-14
9725,-2016,304,-256,37,49,-13
9730,-2008,304,-288,38,56,-13
9735,-2024,328,-264,38,60,-12
9740,-1992,296,-304,39,64,-12
9745,-1960,272,-312,39,63,-11
9750,-2000,296,-288,37,60,-9
9755,-2008,312,-288,36,55,-6
9760,-2000,312,-288,32,48,-3
9765,-1992,304,-280,27,45,1
9770,-2016,320,-272,22,40,2
9775,-2032,328,-224,16,36,5
9780,-2008,312,-248,13,37,9
9785,-2032,288,-240,11,37,8
9790,-2000,280,-304,10,38,8
9795,-2048,296,-256,10,41,6
9800,-2024,304,-280,13,42,3
9805,-2016,304,-288,17,46,1
9810,-2040,288,-304,19,49,-1
9815,-2032,336,-272,22,51,-3
9820,-2040,328,-280,26,52,-5
9825,-2016,304,-304,30,52,-9
9830,-2016,304,-288,34,51,-10
9835,-2000,312,-264,36,50,-11
9840,-2008,312,-288,40,49,-10
9845,-1968,288,-264,43,47,-11
9850,-2056,312,-304,44,45,-12
9855,-2000,320,-280,45,45,-13
9860,-2024,312,-280,45,46,-11
9865,-2000,312,-296,46,44,-13
9870,-2000,304,-288,47,42,-11
9875,-2024,312,-272,48,43,-10
9880,-1992,312,-320,47,39,-10
9885,-2016,312,-328,49,38,-9
9890,-2008,328,-288,50,37,-8
9895,-2032,312,-296,51,34,-9
9900,-2000,304,-280,52,31,-10
9905,-2024,256,-320,53,28,-10
9910,-1992,312,-272,55,24,-10
9915,-2000,328,-304,54,20,-9
9920,-2008,320,-320,51,17,-8
9925,-1992,304,-280,52,13,-9
9930,-2024,320,-280,53,10,-8
9935,-2008,272,-296,52,7,-5
9940,-2040,320,-296,48,6,-3
9945,-2024,304,-312,46,5,-2
9950,-2024,320,-272,44,5,-3
9955,-2032,312,-288,42,7,-3
9960,-2024,296,-288,40,9,-5
9965,-2024,320,-288,39,10,-7
9970,-2024,320,-272,38,13,-8
9975,-2016,296,-280,38,16,-9
9980,-2040,312,-272,37,19,-8
9985,-2032,288,-280,36,21,-7
9990,-2008,296,-272,37,23,-6
9995,-2032,288,-288,38,27,-6
10000,-2032,352,-256,37,29,-6
10005,-2024,312,-312,37,30,-5
10010,-2024,304,-280,37,31,-6
10015,-2024,304,-272,37,33,-6
10020,-2008,320,-272,37,32,-6
10025,-1992,312,-256,35,32,-5
10030,-2000,352,-264,33,33,-4
10035,-2024,312,-312,32,33,-5
10040,-2016,336,-312,31,31,-6
10045,-2024,336,-248,31,30,-5
10050,-2040,320,-288,30,28,-3
10055,-1992,296,-288,28,27,-2
10060,-1968,336,-264,27,27,-2
10065,-1992,304,-304,23,29,-4
10070,-2016,312,-312,22,30,-8
10075,-2032,312,-264,21,35,-10
10080,-2000,296,-264,18,39,-12
10085,-2024,312,-312,19,41,-15
10090,-2024,312,-264,17,44,-17
10095,-2040,328,-312,19,45,-18
10100,-1984,296,-264,22,49,-17
10105,-2008,304,-280,26,49,-18
10110,-1992,280,-296,27,51,-17
10115,-2000,376,-232,30,51,-17
10120,-2008,320,-280,33,51,-16
10125,-2008,304,-256,34,52,-16
10130,-2024,320,-288,35,52,-17
10135,-1992,320,-312,38,53,-17
10140,-2016,312,-288,40,52,-17
10145,-2000,296,-296,42,50,-17
10150,-2016,296,-320,44,48,-17
10155,-2000,312,-280,48,46,-17
10160,-1992,296,-280,49,44,-17
10165,-2008,312,-288,50,42,-17
10170,-2016,320,-296,50,41,-16
10175,-2008,312,-304,52,41,-16
10180,-2008,288,-280,52,41,-13
10185,-2008,312,-288,49,40,-14
10190,-2000,312,-304,48,41,-11
10195,-2016,304,-280,44,41,-11
10200,-1992,328,-288,41,41,-12
10205,-2008,328,-328,38,44,-10
10210,-2032,344,-288,35,46,-12
10215,-2024,336,-312,31,47,-11
10220,-2016,328,-256,27,51,-12
10225,-1952,304,-328,23,54,-13
10230,-2024,296,-304,24,56,-14
10235,-2024,304,-304,24,58,-13
10240,-2032,304,-272,24,61,-13
10245,-2032,296,-304,25,62,-12
10250,-2024,296,-304,26,63,-12
10255,-2040,304,-296,29,65,-10
10260,-2000,312,-280,29,64,-9
10265,-1984,288,-296,33,61,-9
10270,-2000,280,-352,34,57,-7
10275,-2024,312,-296,36,53,-7
10280,-2016,328,-264,39,50,-8
10285,-2016,328,-312,39,47,-7
10290,-2008,312,-296,40,44,-6
10295,-2000,344,-304,41,43,-6
10300,-2024,328,-296,41,41,-7
10305,-2008,328,-320,41,42,-8
10310,-2024,328,-296,40,42,-9
10315,-2008,296,-320,39,44,-9
10320,-2008,288,-296,39,46,-9
10325,-2000,288,-304,37,51,-10
10330,-1992,280,-336,35,56,-11
10335,-2032,288,-304,33,57,-13
10340,-2016,320,-280,31,57,-14
10345,-2016,304,-328,29,57,-12
10350,-2000,320,-288,25,58,-13
10355,-2024,344,-296,20,59,-11
10360,-2000,328,-320,17,58,-11
10365,-2008,320,-328,18,57,-12
10370,-2008,336,-264,21,58,-10
10375,-2016,312,-336,24,57,-9
10380,-2024,296,-304,27,57,-10
10385,-2016,312,-256,30,55,-10
10390,-2016,328,-336,32,52,-10
10395,-2032,328,-336,35,51,-11
10400,-2024,296,-344,36,47,-12
10405,-2024,304,-328,38,43,-14
10410,-1984,280,-320,43,40,-17
10415,-2016,320,-280,47,37,-17
10420,-2040,320,-320,50,33,-17
10425,-1992,296,-280,52,30,-16
10430,-2000,312,-344,52,27,-13
10435,-2024,336,-328,51,26,-9
10440,-1992,320,-288,47,26,-5
10445,-2008,312,-304,40,25,-1
10450,-2008,296,-296,35,31,1
10455,-2008,304,-312,36,39,0
10460,-1984,312,-336,35,46,0
10465,-2008,312,-328,33,49,0
10470,-2016,312,-296,32,54,0
10475,-2008,296,-344,30,55,-1
10480,-2008,320,-304,30,55,0
10485,-1992,304,-320,29,55,0
10490,-2000,320,-328,27,53,-3
10495,-2016,328,-304,26,50,-5
10500,-2024,320,-304,27,49,-7
10505,-2000,336,-304,28,46,-7
10510,-2008,344,-320,29,44,-7
10515,-1992,320,-328,32,44,-8
10520,-2000,312,-320,37,42,-7
10525,-2032,328,-360,42,42,-6
10530,-2008,304,-368,45,42,-6
10535,-2008,304,-328,49,42,-7
10540,-2040,336,-336,51,43,-7
10545,-2040,320,-264,53,44,-9
10550,-2024,336,-344,53,44,-8
10555,-2032,344,-320,52,43,-9
10560,-2032,328,-320,50,41,-9
10565,-2032,336,-320,48,41,-10
10570,-2000,336,-304,43,36,-10
10575,-2096,352,-312,39,38,-13
10580,-1992,296,-360,52,42,-11
10585,-2016,344,-320,49,44,-20
10590,-2000,320,-320,40,45,-22
10595,-1992,312,-344,36,45,-23
10600,-2008,320,-320,34,44,-23
10605,-2016,312,-336,38,47,-26
10610,-2008,296,-384,40,49,-28
10615,-2000,312,-352,44,49,-29
10620,-2000,296,-328,48,47,-27
10625,-1984,320,-368,47,44,-28
10630,-1968,312,-328,49,43,-27
10635,-2024,336,-384,48,38,-29
10640,-2024,288,-336,48,34,-27
10645,-1992,312,-352,44,28,-25
10650,-1928,320,-376,43,26,-24
10655,-1976,288,-336,45,26,-22
10660,-2032,328,-296,45,24,-22
10665,-2000,304,-360,44,23,-18
10670,-2008,296,-328,42,22,-16
10675,-2008,320,-312,41,21,-16
10680,-2040,304,-304,41,21,-13
10685,-2000,280,-368,49,18,-5
10690,-1992,344,-384,50,18,-10
10695,-2024,328,-376,41,15,-9
10700,-2000,312,-384,36,12,-5
10705,-1976,296,-384,35,11,-2
10710,-1992,288,-360,31,8,0
10715,-2016,264,-336,31,12,3
10720,-2016,320,-328,28,13,4
10725,-2008,312,-288,24,14,9
10730,-1984,296,-288,20,16,10
10735,-1992,336,-336,14,19,11
10740,-2000,312,-272,7,22,11
10745,-2016,344,-304,-1,23,13
10750,-2000,336,-296,-3,24,11
10755,-2000,384,-336,-4,27,7
10760,-2000,328,-328,-11,23,7
10765,-2000,320,-296,-11,34,0
10770,-2016,312,-328,-5,42,-4
10775,-2024,336,-352,0,47,-6
10780,-2032,320,-336,5,51,-10
10785,-2040,336,-336,9,56,-13
10790,-2016,328,-360,15,59,-16
10795,-2008,320,-344,21,59,-19
10800,-2008,312,-360,28,59,-21
10805,-2024,336,-336,29,55,-20
10810,-2000,296,-360,33,53,-17
10815,-1992,312,-336,33,48,-17
10820,-1976,296,-320,38,49,-17
10825,-2000,296,-336,47,44,-17
10830,-1984,288,-312,54,40,-17
10835,-2000,304,-336,57,36,-17
10840,-1992,304,-336,61,33,-14
10845,-1960,304,-320,63,32,-18
10850,-1992,304,-352,64,31,-19
10855,-1984,328,-376,65,30,-18
10860,-2008,320,-304,65,30,-18
10865,-2008,280,-336,66,29,-17
10870,-2024,320,-344,67,28,-17
10875,-2008,312,-344,68,29,-17
10880,-2000,320,-336,68,29,-15
10885,-2008,344,-320,67,30,-13
10890,-2016,312,-336,64,30,-12
10895,-2008,304,-336,64,33,-12
10900,-2008,304,-296,62,35,-12
10905,-2008,296,-368,60,35,-12
10910,-2024,320,-312,60,35,-11
10915,-2008,368,-360,60,35,-9
10920,-2000,304,-336,58,33,-9
10925,-2016,320,-352,58,32,-8
10930,-2016,320,-352,57,31,-11
10935,-2000,312,-344,57,28,-11
10940,-2016,328,-368,57,27,-10
10945,-2008,320,-368,58,24,-11
10950,-2000,320,-360,56,22,-12
10955,-2000,328,-368,58,21,-11
10960,-2024,312,-344,58,18,-9
10965,-2008,288,-344,57,15,-9
10970,-2032,344,-384,55,14,-8
10975,-2000,312,-392,55,13,-7
10980,-2008,312,-368,52,10,-6
10985,-2024,304,-352,52,8,-6
10990,-2016,312,-336,51,7,-5
10995,-2016,304,-368,49,6,-5
11000,-2024,312,-336,50,6,-6
11005,-2032,352,-344,50,6,-6
11010,-1992,312,-368,50,5,-6
11015,-2008,280,-336,50,5,-7
11020,-1984,336,-344,52,6,-8
11025,-1952,320,-392,52,7,-8
11030,-2008,336,-360,52,8,-8
11035,-2008,328,-336,52,7,-10
11040,-2016,320,-368,50,7,-12
11045,-1984,328,-352,52,6,-14
11050,-1992,328,-344,52,7,-14
11055,-2032,320,-376,56,6,-14
11060,-2024,320,-336,57,5,-16
11065,-2032,344,-360,58,3,-15
11070,-2032,336,-368,62,0,-17
11075,-2024,288,-432,66,-5,-18
11080,-1992,304,-360,71,-7,-24
11085,-2016,312,-392,76,-11,-26
11090,-2008,304,-360,81,-14,-28
11095,-2000,312,-320,84,-18,-26
11100,-1992,296,-344,85,-24,-23
11105,-1968,288,-304,83,-26,-18
11110,-1968,256,-312,80,-28,-14
11115,-1984,312,-296,74,-28,-9
11120,-1968,288,-304,70,-26,-3
11125,-1960,264,-312,65,-23,0
11130,-2016,272,-352,62,-16,3
11135,-2000,312,-312,57,-9,4
11140,-1992,328,-344,55,0,4
11145,-2000,328,-344,52,3,3
11150,-1992,320,-336,50,8,0
11155,-2008,328,-344,49,10,-2
11160,-2016,344,-336,49,10,-3
11165,-2008,320,-328,48,11,-2
11170,-2008,312,-296,46,11,-4
11175,-2008,312,-328,45,11,-3
11180,-2016,328,-368,47,10,-3
11185,-2024,312,-368,48,9,-1
11190,-2000,296,-344,51,7,-3
11195,-2000,328,-368,52,5,-2
11200,-1992,320,-352,56,3,-2
11205,-2016,328,-344,56,0,-2
11210,-1992,304,-336,60,-2,-3
11215,-2024,328,-360,63,-6,-4
11220,-2032,320,-320,64,-8,-5
11225,-2008,344,-360,64,-9,-6
11230,-2024,296,-376,67,-9,-8
11235,-2016,408,-312,68,-10,-8
11240,-2000,328,-352,70,-10,-11
11245,-2000,336,-336,71,-7,-11
11250,-2016,296,-344,71,-6,-12
11255,-2024,320,-320,71,-1,-15
11260,-2008,336,-352,69,1,-16
11265,-2008,336,-328,69,3,-15
11270,-2024,336,-360,68,5,-17
11275,-2000,312,-328,67,7,-21
11280,-2032,304,-304,66,7,-20
11285,-2016,336,-344,67,8,-19
11290,-1928,320,-400,65,7,-20
11295,-2008,320,-336,65,6,-19
11300,-1992,312,-376,65,5,-20
11305,-1992,304,-320,65,3,-18
11310,-2008,336,-320,64,2,-19
11315,-2000,304,-336,62,0,-19
11320,-2008,296,-336,63,-3,-20
11325,-2024,312,-320,64,-5,-19
11330,-2016,328,-344,67,-8,-16
11335,-2024,352,-312,68,-9,-16
11340,-2008,296,-376,69,-10,-14
11345,-2016,312,-352,68,-12,-14
11350,-2008,304,-352,68,-12,-13
11355,-2000,304,-328,68,-14,-12
11360,-1992,304,-328,68,-13,-11
11365,-1984,312,-344,69,-12,-11
11370,-1992,304,-360,71,-11,-11
11375,-1992,312,-328,70,-11,-12
11380,-2016,328,-344,70,-12,-9
11385,-1992,296,-352,68,-13,-10
11390,-2040,344,-392,67,-15,-9
11395,-1992,304,-344,66,-15,-8
11400,-1992,320,-336,62,-16,-8
11405,-2016,320,-320,61,-16,-6
11410,-2024,320,-344,59,-19,-9
11415,-2008,328,-320,58,-19,-10
11420,-2000,288,-328,57,-20,-10
11425,-2016,312,-336,56,-21,-10
11430,-2008,296,-296,56,-20,-11
11435,-2016,304,-320,55,-21,-10
11440,-2016,296,-304,56,-22,-8
11445,-2008,312,-280,55,-20,-8
11450,-2008,312,-328,57,-20,-11
11455,-2000,320,-336,58,-20,-12
11460,-2016,312,-328,60,-17,-11
11465,-2016,336,-328,61,-14,-11
11470,-2024,336,-352,62,-11,-11
11475,-2024,312,-344,64,-9,-14
11480,-2008,320,-312,65,-8,-13
11485,-2008,304,-360,66,-7,-13
11490,-2016,312,-312,67,-7,-13
11495,-2000,288,-328,67,-7,-11
11500,-2032,288,-312,67,-7,-12
11505,-2024,280,-280,68,-6,-12
11510,-2000,296,-304,67,-5,-12
11515,-2016,320,-320,68,-4,-13
11520,-2008,296,-320,67,-2,-13
11525,-2016,288,-344,67,-2,-14
11530,-1976,312,-296,67,-2,-15
11535,-1992,320,-304,67,0,-15
11540,-2016,304,-304,68,-1,-15
11545,-1984,304,-312,67,1,-16
11550,-2024,304,-344,66,1,-17
11555,-2016,336,-296,65,1,-16
11560,-2000,312,-312,66,1,-15
11565,-1984,320,-312,66,1,-14
11570,-1992,320,-312,64,2,-14
11575,-1992,320,-312,64,4,-14
11580,-2008,320,-280,63,7,-14
11585,-2008,328,-312,62,9,-16
11590,-2008,320,-320,60,11,-16
11595,-1992,288,-344,58,13,-15
11600,-2024,320,-288,57,15,-17
11605,-1992,344,-264,57,16,-18
11610,-2016,280,-312,58,19,-19
11615,-2040,320,-328,58,19,-21
11620,-2024,312,-336,58,20,-21
11625,-2040,328,-368,59,20,-21
11630,-2032,312,-336,59,21,-21
11635,-2040,328,-352,58,21,-22
11640,-2008,304,-344,60,20,-22
11645,-2032,288,-352,62,18,-19
11650,-2040,296,-312,62,16,-19
11655,-2024,304,-376,65,13,-19
11660,-2016,296,-320,65,10,-18
11665,-2024,288,-344,68,6,-15
11670,-2008,312,-336,69,1,-17
11675,-2016,312,-336,70,-2,-17
11680,-2016,320,-368,70,-6,-16
11685,-2032,320,-320,70,-10,-15
11690,-2032,320,-320,72,-14,-16
11695,-1992,296,-336,72,-18,-15
11700,-1984,296,-320,71,-21,-16
11705,-2000,320,-344,70,-23,-16
11710,-1992,256,-320,71,-25,-14
11715,-2040,336,-336,72,-27,-14
11720,-2008,312,-336,73,-29,-12
11725,-1992,280,-328,71,-29,-12
11730,-2024,336,-296,70,-30,-11
11735,-2016,328,-312,69,-29,-11
11740,-1992,304,-312,69,-30,-11
11745,-2008,312,-328,68,-29,-11
11750,-2032,312,-248,68,-26,-13
11755,-2032,312,-296,68,-27,-13
11760,-2016,312,-320,69,-26,-14
11765,-1992,256,-296,70,-24,-13
11770,-1992,256,-216,71,-24,-11
11775,-2016,296,-312,71,-24,-9
11780,-2008,288,-296,72,-24,-4
11785,-2008,280,-320,70,-22,-1
11790,-2024,296,-288,68,-17,0
11795,-2000,312,-328,70,-13,1
11800,-2016,312,-320,69,-10,-1
11805,-2024,344,-320,68,-4,0
11810,-2016,328,-352,68,-3,-2
11815,-2024,304,-328,69,-6,-2
11820,-2024,304,-312,69,-9,-3
11825,-2008,320,-352,69,-12,-2
11830,-1992,312,-312,69,-18,-3
11835,-2032,344,-328,68,-22,-4
11840,-2016,328,-304,68,-28,-5
11845,-2008,320,-320,67,-32,-7
11850,-2032,312,-304,68,-37,-7
11855,-2000,296,-320,67,-40,-5
11860,-2040,352,-288,67,-42,-8
11865,-2024,328,-272,70,-42,-9
11870,-2048,328,-280,73,-43,-10
11875,-2040,304,-344,78,-41,-11
11880,-2032,328,-312,83,-39,-13
11885,-2032,312,-288,86,-35,-16
11890,-2032,320,-320,92,-32,-16
11895,-2024,312,-296,96,-28,-16
11900,-2016,312,-320,98,-25,-16
11905,-1992,296,-336,101,-25,-18
11910,-1992,272,-328,102,-25,-18
11915,-1992,312,-344,102,-24,-17
11920,-2000,288,-256,102,-24,-15
11925,-2008,328,-296,101,-25,-15
11930,-1952,296,-256,99,-26,-15
11935,-2000,304,-304,97,-29,-15
11940,-2000,336,-280,94,-31,-13
11945,-2000,304,-288,93,-34,-11
11950,-2024,296,-328,90,-36,-12
11955,-1992,296,-296,88,-38,-10
11960,-2008,304,-320,87,-40,-10
11965,-2008,328,-232,84,-40,-8
11970,-2008,312,-280,84,-39,-8
11975,-2008,280,-312,83,-38,-11
11980,-2024,304,-312,79,-37,-12
11985,-2032,320,-296,77,-36,-12
11990,-2024,312,-288,76,-33,-15
11995,-2016,296,-312,75,-30,-14
12000,-2000,296,-288,74,-28,-14
12005,-2008,312,-296,73,-27,-15
12010,-1984,296,-312,72,-27,-14
12015,-2008,296,-280,71,-26,-15
12020,-2040,296,-304,69,-24,-13
12025,-2032,296,-304,70,-23,-14
12030,-2024,288,-296,72,-22,-14
12035,-2032,320,-352,73,-22,-13
12040,-2024,304,-288,72,-22,-13
12045,-2016,312,-288,73,-25,-13
12050,-2008,296,-320,75,-26,-12
12055,-2008,288,-304,77,-28,-12
12060,-2000,280,-296,78,-30,-11
12065,-2008,288,-304,77,-33,-10
12070,-1984,296,-288,77,-34,-8
12075,-1992,304,-296,75,-35,-6
12080,-2000,312,-288,73,-35,-6
12085,-2008,288,-296,73,-36,-7
12090,-1984,304,-312,71,-36,-7
12095,-2016,304,-272,68,-36,-8
12100,-2008,320,-272,68,-35,-7
12105,-2000,296,-264,66,-34,-8
12110,-2032,296,-272,65,-33,-8
12115,-1984,296,-264,65,-32,-7
12120,-2008,296,-272,66,-32,-9
12125,-1984,288,-296,65,-31,-10
12130,-1984,296,-280,65,-30,-10
12135,-2024,320,-280,65,-26,-9
12140,-2016,312,-264,67,-25,-11
12145,-1968,304,-160,68,-22,-12
12150,-2000,280,-264,69,-21,-14
12155,-1992,328,-288,71,-19,-13
12160,-2000,304,-280,71,-16,-13
12165,-2008,304,-280,72,-16,-11
12170,-2008,296,-272,71,-14,-12
12175,-2016,312,-272,72,-12,-12
12180,-2032,312,-240,72,-11,-10
12185,-2016,312,-280,72,-10,-12
12190,-2008,304,-240,71,-9,-11
12195,-1992,296,-272,70,-7,-8
12200,-2008,296,-272,70,-6,-9
12205,-2016,312,-288,69,-6,-9
12210,-1992,288,-288,68,-4,-10
12215,-2008,312,-248,67,-4,-8
12220,-2000,296,-232,68,-2,-9
12225,-2016,304,-272,68,-2,-10
12230,-1992,288,-256,68,-2,-10
12235,-2024,320,-312,68,-2,-11
12240,-2024,312,-240,70,-2,-11
12245,-2024,296,-272,71,-2,-11
12250,-2016,312,-328,73,-2,-11
12255,-2032,304,-280,76,-1,-12
12260,-2000,328,-272,79,0,-13
12265,-2024,304,-264,81,0,-12
12270,-2008,296,-280,82,0,-14
12275,-2040,312,-304,84,-2,-16
12280,-2016,304,-304,85,-3,-17
12285,-2024,296,-288,87,-4,-16
12290,-2040,304,-280,88,-4,-19
12295,-2032,288,-288,90,-5,-20
12300,-2032,296,-280,91,-9,-18
12305,-2032,360,-264,91,-13,-18
12310,-2016,288,-296,90,-12,-16
12315,-2016,280,-288,91,-16,-15
12320,-2024,280,-280,90,-20,-16
12325,-2016,296,-288,88,-25,-16
12330,-1992,304,-280,87,-27,-15
12335,-2024,320,-272,85,-27,-13
12340,-2016,304,-272,84,-28,-14
12345,-2032,288,-256,82,-30,-13
12350,-2024,296,-312,81,-31,-12
12355,-2016,328,-192,81,-34,-12
12360,-2024,304,-280,77,-34,-11
12365,-2008,296,-264,76,-32,-10
12370,-2008,304,-272,75,-32,-10
12375,-2016,272,-240,73,-32,-11
12380,-2024,296,-280,72,-32,-11
12385,-2008,304,-288,73,-32,-10
12390,-2024,296,-240,73,-31,-10
12395,-2016,304,-288,73,-28,-9
12400,-2008,312,-240,73,-27,-11
12405,-2032,304,-280,71,-27,-11
12410,-2008,304,-296,71,-27,-10
12415,-2008,312,-240,70,-27,-9
12420,-2008,296,-240,70,-28,-10
12425,-2024,304,-248,70,-25,-9
12430,-2008,280,-248,70,-22,-7
12435,-2032,320,-248,68,-20,-8
12440,-2000,296,-256,68,-18,-7
12445,-2000,288,-248,66,-17,-6
12450,-2000,288,-240,67,-14,-6
12455,-2040,312,-256,67,-13,-7
12460,-2008,288,-264,65,-11,-6
12465,-1968,336,-312,65,-10,-5
12470,-2032,296,-264,63,-6,-6
12475,-2024,320,-240,62,-3,-7
12480,-2000,296,-264,62,-3,-7
12485,-2008,312,-264,62,-4,-8
12490,-2000,304,-248,61,-4,-7
12495,-2016,304,-248,61,-5,-7
12500,-2016,304,-248,62,-7,-7
12505,-2000,304,-240,64,-6,-9
12510,-2008,280,-256,64,-7,-11
12515,-1984,360,-248,65,-7,-12
12520,-2016,312,-272,65,-6,-11
12525,-2024,304,-264,66,-7,-13
12530,-2024,312,-264,67,-5,-13
12535,-2024,296,-264,67,-5,-12
12540,-2008,304,-256,67,-4,-12
12545,-2016,296,-256,67,-4,-12
12550,-2024,312,-224,68,-3,-10
12555,-2032,288,-264,68,-1,-10
12560,-1992,296,-272,67,1,-8
12565,-2032,288,-272,65,2,-10
12570,-2032,304,-256,62,4,-8
12575,-2024,304,-248,61,6,-9
12580,-2024,296,-248,60,6,-10
12585,-2008,304,-248,58,7,-11
12590,-2008,288,-256,56,9,-11
12595,-2016,320,-256,54,11,-11
12600,-2000,304,-240,53,10,-10
12605,-2008,336,-224,53,12,-9
12610,-2000,304,-280,51,13,-7
12615,-2024,304,-216,48,13,-6
12620,-2024,288,-224,47,15,-6
12625,-2056,320,-280,48,17,-7
12630,-2024,312,-264,47,19,-6
12635,-2008,296,-248,49,21,-8
12640,-2024,280,-272,50,23,-9
12645,-2024,272,-232,51,22,-10
12650,-2024,312,-272,52,23,-10
12655,-2032,272,-240,52,22,-8
12660,-2016,280,-256,52,21,-6
12665,-2008,256,-272,55,20,-4
12670,-2016,304,-248,57,19,-2
12675,-2040,288,-256,59,20,0
12680,-2040,312,-264,60,20,0
12685,-2040,304,-272,63,20,-1
12690,-2000,288,-272,64,19,-2
12695,-2000,264,-288,66,19,-2
12700,-2008,312,-272,69,16,-3
12705,-2032,280,-280,71,14,-3
12710,-2016,280,-264,75,11,-5
12715,-2040,312,-264,76,5,-1
12720,-2000,288,-288,76,1,-1
12725,-2040,328,-280,78,-3,1
12730,-2008,296,-272,78,-8,1
12735,-2000,336,-256,76,-11,2
12740,-1984,296,-272,76,-16,4
12745,-2008,304,-248,73,-20,3
12750,-1992,320,-232,69,-24,4
12755,-2024,280,-248,68,-27,2
12760,-2008,312,-248,67,-29,0
12765,-2032,336,-288,65,-30,-1
12770,-2000,328,-264,65,-30,-2
12775,-2040,328,-280,63,-27,-3
12780,-2016,304,-264,65,-24,-5
12785,-2008,336,-264,67,-22,-8
12790,-2000,312,-248,68,-19,-10
12795,-2000,296,-256,70,-17,-10
12800,-2032,320,-232,74,-13,-12
12805,-2032,328,-232,74,-10,-13
12810,-2024,304,-232,72,-8,-13
12815,-2024,320,-240,71,-7,-13
12820,-2008,264,-248,72,-4,-14
12825,-2048,304,-232,72,0,-14
12830,-2024,288,-232,72,1,-13
12835,-2024,304,-288,74,2,-16
12840,-2016,288,-248,74,3,-16
12845,-2032,296,-272,74,4,-15
12850,-2024,312,-264,75,4,-16
12855,-2032,328,-272,74,4,-15
12860,-2032,296,-240,73,2,-14
12865,-2016,272,-264,73,0,-14
12870,-2008,304,-272,75,-4,-14
12875,-2008,312,-272,76,-7,-13
12880,-2032,304,-256,77,-10,-13
12885,-2008,352,-248,78,-15,-12
12890,-2016,328,-224,80,-18,-12
12895,-2016,312,-280,79,-23,-11
12900,-2024,312,-256,78,-25,-10
12905,-2016,320,-248,76,-29,-12
12910,-2048,280,-264,75,-30,-12
12915,-2032,312,-240,79,-32,-12
12920,-2040,304,-272,80,-32,-13
12925,-2008,296,-248,80,-32,-12
12930,-2008,304,-256,80,-32,-11
12935,-2032,288,-288,82,-32,-12
12940,-2000,256,-256,83,-32,-9
12945,-2040,272,-248,83,-31,-9
12950,-2032,288,-248,86,-29,-8
12955,-2016,320,-256,86,-29,-7
12960,-2016,312,-240,86,-32,-5
12965,-2016,344,-240,89,-33,-4
12970,-2040,328,-248,87,-36,-4
12975,-2024,272,-248,82,-39,-2
12980,-2000,280,-232,80,-37,-3
12985,-2016,296,-216,79,-38,-2
12990,-2040,320,-224,79,-37,-4
12995,-2016,312,-264,78,-38,-4
13000,-2016,304,-264,76,-38,-5
13005,-2024,296,-248,74,-38,-4
13010,-2032,320,-224,72,-39,-6
13015,-2024,320,-216,72,-38,-6
13020,-2024,280,-224,75,-36,-9
13025,-2016,288,-208,77,-33,-10
13030,-2000,312,-216,76,-33,-7
13035,-2008,320,-224,77,-33,-8
13040,-2024,296,-248,77,-32,-13
13045,-2024,312,-200,77,-30,-12
13050,-2032,288,-216,80,-29,-13
13055,-2016,312,-208,82,-24,-11
13060,-2032,320,-200,81,-22,-10
13065,-2040,296,-216,80,-18,-11
13070,-2032,296,-224,78,-15,-10
13075,-2024,304,-192,76,-11,-8
13080,-2016,280,-200,77,-9,-8
13085,-2016,296,-216,79,-5,-9
13090,-1992,320,-232,76,1,-7
13095,-2000,288,-232,71,5,-6
13100,-2032,336,-216,69,8,-8
13105,-2048,312,-264,66,10,-9
13110,-1992,304,-208,66,12,-8
13115,-2016,280,-208,65,10,-7
13120,-2000,328,-224,65,10,-6
13125,-2032,320,-224,65,8,-6
13130,-2024,312,-232,67,7,-5
13135,-2016,304,-160,69,7,-6
13140,-1992,304,-200,71,6,-6
13145,-2032,304,-256,73,6,-6
13150,-2000,304,-216,72,7,-8
13155,-1976,312,-168,69,9,-8
13160,-2008,296,-224,69,10,-9
13165,-2024,296,-224,70,10,-9
13170,-2024,328,-208,70,10,-8
13175,-2008,304,-216,70,9,-11
13180,-2000,280,-216,70,11,-9
13185,-2032,312,-240,69,12,-8
13190,-2024,336,-248,69,12,-8
13195,-2016,304,-224,69,12,-8
13200,-2024,312,-192,67,10,-7
13205,-2048,312,-248,65,10,-9
13210,-2008,344,-240,64,9,-9
13215,-2008,288,-256,64,7,-9
13220,-2016,288,-256,63,5,-9
13225,-2040,312,-240,64,3,-10
13230,-2024,296,-240,63,3,-9
13235,-2040,296,-224,63,1,-10
13240,-2024,288,-216,62,0,-9
13245,-2016,304,-248,62,-1,-10
13250,-2000,304,-232,62,-1,-10
13255,-2040,296,-280,62,-1,-10
13260,-2024,344,-256,60,-3,-11
13265,-2048,312,-256,58,-2,-12
13270,-2016,312,-248,60,0,-11
13275,-2024,296,-224,60,2,-8
13280,-2024,312,-248,58,1,-9
13285,-2032,312,-232,57,2,-10
13290,-2016,312,-200,56,2,-9
13295,-2024,280,-232,56,2,-9
13300,-2016,272,-232,56,3,-9
13305,-2032,288,-216,55,2,-9
13310,-2008,304,-224,53,3,-9
13315,-2032,320,-176,52,2,-8
13320,-2016,320,-224,52,2,-8
13325,-2016,312,-200,50,4,-8
13330,-2032,296,-192,49,4,-9
13335,-2032,304,-216,50,4,-8
13340,-2008,280,-208,51,5,-9
13345,-2048,312,-264,50,7,-8
13350,-2008,312,-240,51,8,-8
13355,-2000,312,-256,51,7,-8
13360,-2008,296,-232,51,6,-10
13365,-2016,304,-200,52,6,-10
13370,-2080,304,-240,52,6,-10
13375,-2000,288,-224,52,7,-10
13380,-2040,320,-256,52,8,-10
13385,-2024,288,-232,51,9,-9
13390,-2024,304,-232,51,10,-6
13395,-2048,312,-232,50,12,-8
13400,-2032,336,-232,48,14,-8
13405,-2016,304,-224,48,17,-9
13410,-2016,272,-224,48,19,-10
13415,-2016,272,-200,48,22,-10
13420,-2024,304,-216,47,25,-10
13425,-2008,280,-216,47,26,-11
13430,-2008,304,-208,49,26,-10
13435,-2008,288,-224,48,27,-9
13440,-2000,288,-240,48,26,-8
13445,-2000,288,-224,48,24,-7
13450,-2016,320,-200,49,24,-6
13455,-2016,336,-232,48,25,-6
13460,-2000,304,-208,45,25,-6
13465,-2008,296,-216,43,26,-7
13470,-2024,288,-184,44,28,-8
13475,-2000,304,-224,44,29,-8
13480,-2024,296,-224,43,32,-10
13485,-2024,296,-208,43,33,-9
13490,-2016,288,-232,42,35,-9
13495,-2024,312,-240,42,36,-7
13500,-2024,296,-224,43,36,-8
13505,-2032,280,-264,42,36,-7
13510,-2040,320,-248,42,36,-3
13515,-2024,304,-256,44,35,-2
13520,-2040,312,-240,47,35,-3
13525,-2024,272,-216,52,35,-4
13530,-2024,304,-296,62,32,-3
13535,-2008,320,-264,59,29,-4
13540,-2032,312,-248,58,26,-5
13545,-2040,296,-264,62,20,-7
13550,-2024,280,-264,65,11,-6
13555,-2016,296,-232,66,5,-5
13560,-2016,288,-256,65,1,-5
13565,-1992,288,-216,66,-4,-2
13570,-2016,312,-208,65,-8,0
13575,-2000,304,-224,62,-9,1
13580,-2008,320,-192,59,-9,-1
13585,-2008,376,-208,56,-6,-1
13590,-2000,320,-224,52,-3,-2
13595,-2032,312,-200,50,1,-2
13600,-2024,328,-224,47,7,-2
13605,-2008,312,-216,43,11,-3
13610,-2024,304,-224,42,15,-5
13615,-2032,320,-216,40,19,-5
13620,-2024,304,-272,40,22,-4
13625,-2024,328,-240,40,26,-6
13630,-2040,328,-288,42,27,-7
13635,-2032,296,-264,43,25,-10
13640,-2016,304,-240,47,22,-12
13645,-2016,280,-224,48,24,-11
13650,-2024,304,-232,51,24,-11
13655,-2016,296,-264,53,23,-11
13660,-2016,304,-224,54,21,-13
13665,-2008,296,-232,55,19,-13
13670,-2024,296,-248,58,17,-15
13675,-2024,280,-232,59,16,-14
13680,-2024,312,-256,59,13,-12
13685,-2000,312,-240,60,12,-13
13690,-2032,312,-248,61,11,-14
13695,-2032,312,-248,61,9,-15
13700,-2024,320,-248,61,6,-14
13705,-2008,296,-240,61,4,-13
13710,-2040,296,-240,61,3,-14
13715,-2032,264,-208,62,2,-13
13720,-2016,296,-208,61,3,-11
13725,-2016,296,-240,63,3,-14
13730,-2048,320,-248,62,2,-13
13735,-2016,320,-224,61,1,-13
13740,-2032,320,-248,63,2,-13
13745,-1984,272,-248,63,3,-15
13750,-1984,248,-208,61,3,-15
13755,-2032,344,-280,61,3,-15
13760,-2032,312,-232,60,3,-14
13765,-2024,304,-216,59,2,-13
13770,-2024,304,-240,59,0,-14
13775,-2008,304,-224,60,0,-11
13780,-2016,288,-224,59,2,-9
13785,-2008,288,-224,58,1,-10
13790,-2040,304,-232,57,-1,-10
13795,-2000,328,-264,56,-2,-10
13800,-2056,280,-288,55,-2,-10
13805,-2024,320,-240,55,-3,-10
13810,-2016,264,-200,54,-4,-8
13815,-2008,312,-224,54,-5,-8
13820,-2024,312,-256,52,-4,-8
13825,-2024,280,-272,53,-3,-8
13830,-1984,272,-232,52,-3,-7
13835,-2016,336,-224,51,-2,-8
13840,-2032,288,-208,51,1,-9
13845,-2040,312,-232,52,1,-8
13850,-2032,256,-240,52,2,-8
13855,-2040,320,-240,51,3,-6
13860,-2048,232,-216,51,3,-9
13865,-2080,288,-272,52,4,-10
13870,-2040,336,-232,52,4,-9
13875,-1960,312,-280,52,5,-9
13880,-2016,280,-248,51,7,-10
13885,-1984,288,-224,53,9,-9
13890,-2032,320,-256,53,7,-11
13895,-2000,312,-264,53,7,-12
13900,-1968,248,-312,53,8,-10
13905,-2040,320,-256,51,10,-11
13910,-2008,264,-248,51,9,-9
13915,-2056,320,-104,52,13,-9
13920,-2024,200,-248,52,16,-9
13925,-2048,312,-200,49,18,-11
13930,-2000,336,-80,47,21,-12
13935,-2016,272,-192,48,23,-11
13940,-2000,288,-216,48,25,-13
13945,-1992,296,-192,47,26,-14
13950,-1992,296,-216,48,28,-14
13955,-2040,320,-232,49,28,-14
13960,-2032,328,-224,50,30,-14
13965,-2024,296,-248,50,29,-13
13970,-2008,320,-216,50,29,-15
13975,-1976,312,-224,49,27,-14
13980,-2016,264,-248,52,27,-13
13985,-2000,280,-232,53,25,-14
13990,-2032,280,-272,52,24,-13
13995,-2040,312,-272,53,23,-11
14000,-1976,296,-248,54,23,-11
14005,-2016,304,-240,54,22,-9
14010,-2032,312,-200,54,19,-8
14015,-2016,296,-224,54,18,-9
14020,-2032,328,-240,53,18,-10
14025,-1984,352,-232,52,16,-11
14030,-2032,320,-240,51,15,-10
14035,-2056,264,-248,51,13,-10
14040,-2016,312,-216,51,13,-12
14045,-2040,296,-272,51,13,-11
14050,-2008,280,-208,51,14,-10
14055,-1992,296,-232,50,12,-11
14060,-2032,272,-240,51,13,-12
14065,-2000,264,-232,52,11,-9
14070,-2040,304,-224,52,11,-10
14075,-2040,312,-256,52,11,-10
14080,-2016,296,-248,52,10,-10
14085,-2040,320,-216,51,10,-11
14090,-2016,320,-240,51,9,-11
14095,-2008,312,-224,52,8,-11
14100,-2008,296,-248,51,8,-9
14105,-2016,288,-232,51,7,-8
14110,-2032,304,-232,49,8,-10
14115,-2032,312,-296,51,7,-9
14120,-2040,296,-264,51,6,-9
14125,-2032,320,-248,50,5,-7
14130,-2032,296,-248,50,6,-9
14135,-2032,304,-224,51,4,-9
14140,-2032,304,-232,52,5,-11
14145,-2008,328,-224,52,5,-11
14150,-2056,304,-208,54,6,-11
14155,-2032,296,-168,52,6,-10
14160,-2008,312,-240,53,7,-11
14165,-2016,304,-232,53,6,-10
14170,-2000,328,-216,54,7,-11
14175,-2040,312,-208,53,8,-12
14180,-2040,312,-224,53,7,-11
14185,-2024,304,-224,51,9,-12
14190,-2016,296,-232,50,10,-12
14195,-2000,304,-224,48,10,-12
14200,-2032,304,-208,47,12,-12
14205,-2000,304,-256,48,14,-12
14210,-2016,312,-208,47,17,-11
14215,-2024,296,-216,48,18,-14
14220,-1992,328,-216,49,20,-12
14225,-2032,272,-296,49,21,-13
14230,-2040,280,-192,48,23,-11
14235,-2016,280,-216,49,23,-8
14240,-2016,320,-224,48,21,-9
14245,-2000,312,-232,46,20,-6
14250,-2024,280,-200,44,22,-6
14255,-1984,288,-216,42,24,-4
14260,-2024,360,-232,40,26,-3
14265,-2024,304,-208,40,27,-5
14270,-1992,320,-256,38,31,-6
14275,-2032,280,-216,37,34,-6
14280,-2008,304,-256,37,36,-10
14285,-2024,296,-224,37,38,-10
14290,-2032,304,-224,38,38,-9
14295,-2032,304,-224,39,37,-8
14300,-2008,296,-248,39,37,-7
14305,-2008,304,-240,40,35,-5
14310,-2024,288,-264,42,35,-4
14315,-2016,304,-256,42,34,-4
14320,-2016,304,-224,45,34,-4
14325,-2032,328,-224,46,34,-3
14330,-2040,272,-176,49,32,-5
14335,-2032,312,-248,51,33,-8
14340,-2032,296,-264,54,27,-7
14345,-2024,312,-248,57,22,-8
14350,-2024,312,-264,60,15,-5
14355,-2000,320,-224,62,10,-4
14360,-1984,312,-240,63,5,-4
14365,-2008,304,-192,62,-1,-2
14370,-2000,304,-200,62,-3,0
14375,-1992,304,-224,59,-8,-1
14380,-2024,320,-224,57,-8,-1
14385,-1976,368,-256,55,-8,-1
14390,-2016,320,-224,54,-4,-2
14395,-2016,320,-224,51,-1,-3
14400,-2016,296,-216,50,4,-5
14405,-2032,304,-192,51,7,-5
14410,-2032,328,-248,50,11,-6
14415,-2032,312,-240,50,14,-8
14420,-2040,296,-240,50,17,-9
14425,-2040,328,-272,50,19,-10
14430,-2016,304,-248,50,20,-13
14435,-2024,312,-216,52,20,-14
14440,-2040,320,-264,54,21,-15
14445,-2032,312,-216,54,21,-15
14450,-2016,288,-240,56,22,-16
14455,-2016,320,-216,58,22,-15
14460,-2016,320,-224,59,22,-15
14465,-2016,320,-232,58,21,-17
14470,-2024,280,-248,58,19,-15
14475,-2032,304,-280,57,18,-15
14480,-2024,304,-272,57,15,-14
14485,-2024,312,-232,56,15,-14
14490,-2040,312,-288,57,13,-15
14495,-2000,312,-216,56,11,-15
14500,-2016,304,-232,56,10,-14
14505,-2016,296,-256,57,9,-14
14510,-2008,328,-248,57,8,-15
14515,-2024,312,-232,58,7,-16
14520,-2016,304,-248,58,6,-15
14525,-1992,312,-224,60,5,-14
14530,-2016,296,-216,59,6,-14
14535,-2024,296,-264,59,3,-14
14540,-2024,304,-216,57,4,-14
14545,-2032,400,-264,57,4,-11
14550,-2016,288,-232,55,4,-10
14555,-2008,304,-248,53,3,-11
14560,-2032,296,-256,52,4,-11
14565,-2016,320,-216,50,3,-11
14570,-2024,296,-240,49,3,-9
14575,-2024,304,-216,48,3,-10
14580,-2008,328,-216,47,2,-8
14585,-2032,320,-224,46,2,-9
14590,-2016,304,-224,47,3,-8
14595,-2024,344,-184,46,5,-10
14600,-2024,328,-216,46,7,-11
14605,-2024,312,-216,45,7,-11
14610,-2000,296,-232,45,7,-10
14615,-2040,320,-192,44,10,-11
14620,-2008,296,-232,43,11,-12
14625,-2016,296,-216,43,13,-10
14630,-2016,312,-232,42,13,-11
14635,-2040,328,-256,42,12,-11
14640,-2016,288,-224,41,13,-11
14645,-2032,312,-248,42,15,-12
14650,-2016,312,-200,41,16,-14
14655,-2016,280,-232,40,18,-13
14660,-2048,328,-224,39,19,-13
14665,-2032,296,-232,42,21,-12
14670,-2024,288,-232,43,23,-12
14675,-2040,296,-232,44,26,-13
14680,-2040,312,-232,44,26,-13
14685,-2040,320,-224,44,29,-13
14690,-2024,312,-248,44,31,-13
14695,-2032,336,-240,43,33,-13
14700,-2000,304,-232,43,34,-12
14705,-2032,304,-256,42,34,-14
14710,-2000,328,-240,41,34,-13
14715,-2008,288,-256,40,33,-13
14720,-2016,304,-200,41,34,-12
14725,-2008,312,-224,42,33,-11
14730,-2008,304,-216,39,30,-10
14735,-2032,320,-208,38,30,-9
14740,-2016,320,-216,36,29,-10
14745,-2016,304,-224,34,28,-11
14750,-2008,280,-248,35,28,-10
14755,-1984,264,-256,34,29,-9
14760,-2032,304,-216,32,29,-8
14765,-2016,304,-224,33,30,-8
14770,-2000,288,-232,33,30,-6
14775,-2008,304,-240,31,32,-7
14780,-2016,288,-232,32,32,-5
14785,-2016,296,-240,31,31,-6
14790,-2008,320,-248,30,34,-5
14795,-2032,296,-248,30,35,-6
14800,-2008,304,-216,29,35,-6
14805,-2000,296,-272,28,38,-5
14810,-2024,288,-208,29,38,-5
14815,-2024,320,-232,29,40,-4
14820,-2024,304,-232,29,39,-5
14825,-2016,328,-232,27,39,-3
14830,-2008,304,-240,27,39,-4
14835,-2016,296,-240,28,39,-2
14840,-2008,320,-248,26,37,-2
14845,-2016,304,-256,25,36,-3
14850,-2032,296,-272,24,34,-2
14855,-2008,312,-240,25,32,-4
14860,-2016,312,-232,24,32,-4
14865,-1992,264,-264,25,29,-4
14870,-2008,296,-264,23,28,-6
14875,-2016,312,-256,25,27,-7
14880,-2032,320,-256,26,27,-8
14885,-2032,320,-264,30,25,-9
14890,-2016,312,-232,33,24,-11
14895,-2016,296,-240,35,23,-12
14900,-2008,320,-264,37,21,-14
14905,-2040,304,-248,38,18,-14
14910,-2000,296,-224,38,17,-14
14915,-2024,312,-168,38,15,-15
14920,-2024,312,-232,38,15,-15
14925,-2016,320,-216,36,12,-16
14930,-2008,312,-232,35,14,-16
14935,-1992,320,-240,35,17,-18
14940,-2016,288,-224,33,20,-18
14945,-2032,312,-232,32,22,-18
14950,-2040,352,-256,30,24,-19
14955,-2040,344,-224,30,28,-19
14960,-2000,304,-256,30,31,-17
14965,-2016,272,-232,29,35,-16
14970,-2008,280,-264,28,38,-16
14975,-2024,304,-248,27,41,-15
14980,-2008,296,-248,27,42,-13
14985,-2008,296,-232,26,41,-11
14990,-2000,320,-248,24,39,-6
14995,-2024,328,-248,22,36,-3
