timestamp,accel_x,accel_y,accel_z,gyro_x,gyro_y,gyro_z
0,-160,-1672,-1112,60,-24,-43
5,-176,-1680,-1104,63,-22,-43
10,-168,-1696,-1096,66,-20,-43
15,-168,-1656,-1120,70,-20,-44
20,-152,-1656,-1096,71,-19,-46
25,-208,-1616,-1120,72,-20,-45
30,-160,-1656,-1144,71,-19,-46
35,-152,-1656,-1104,71,-19,-44
40,-168,-1656,-1112,72,-20,-43
45,-160,-1680,-1112,72,-18,-41
50,-168,-1640,-1136,73,-18,-40
55,-136,-1656,-1112,73,-17,-38
60,-176,-1656,-1104,71,-15,-37
65,-128,-1680,-1104,69,-12,-36
70,-136,-1632,-1072,67,-8,-33
75,-120,-1656,-1128,68,-3,-32
80,-144,-1624,-1112,68,-1,-31
85,-152,-1672,-1072,67,1,-28
90,-152,-1640,-1104,66,3,-28
95,-136,-1648,-1104,66,5,-27
100,-120,-1672,-1088,65,7,-26
105,-152,-1616,-1088,64,7,-24
110,-96,-1640,-1144,65,6,-26
115,-112,-1640,-1088,65,7,-25
120,-160,-1656,-1088,65,6,-27
125,-120,-1624,-1104,64,5,-25
130,-144,-1608,-1008,65,4,-27
135,-112,-1632,-1096,65,3,-30
140,-144,-1640,-1080,65,0,-29
145,-128,-1640,-1128,65,0,-29
150,-120,-1632,-1120,65,0,-30
155,-152,-1616,-1112,64,1,-31
160,-120,-1632,-1112,61,4,-29
165,-168,-1616,-1112,60,7,-31
170,-128,-1608,-1152,57,10,-31
175,-136,-1608,-1128,57,14,-30
180,-136,-1624,-1120,56,19,-29
185,-176,-1648,-1112,55,23,-26
190,-104,-1592,-1104,54,25,-23
195,-104,-1600,-1112,55,29,-18
200,-72,-1592,-1104,52,32,-16
205,-56,-1584,-1112,48,31,-14
210,-48,-1608,-1096,42,32,-12
215,-56,-1584,-1104,33,30,-10
220,-40,-1624,-1104,22,27,-6
225,-72,-1640,-1120,8,25,-4
230,-80,-1624,-1104,-7,21,-2
235,-56,-1640,-1080,-20,19,0
240,-64,-1704,-1072,-33,14,4
245,-72,-1696,-1096,-45,9,7
250,-128,-1688,-1080,-55,2,9
255,-120,-1712,-1096,-66,-4,13
260,-128,-1720,-1080,-75,-8,16
265,-152,-1736,-1072,-83,-11,18
270,-152,-1720,-1088,-90,-12,19
275,-176,-1720,-1072,-96,-12,22
280,-152,-1720,-1136,-96,-12,23
285,-136,-1752,-1080,-94,-10,25
290,-152,-1768,-1080,-90,-8,26
295,-136,-1712,-1136,-83,-7,26
300,-112,-1752,-1104,-75,-2,27
305,-96,-1720,-1112,-64,4,28
310,-88,-1704,-1088,-51,9,28
315,-64,-1704,-1096,-37,14,28
320,-64,-1696,-1128,-23,19,28
325,-32,-1688,-1096,-10,24,27
330,-40,-1664,-1088,1,30,28
335,-32,-1672,-1080,10,37,31
340,-24,-1680,-1104,17,46,32
345,-16,-1648,-1104,23,58,38
350,0,-1672,-1112,27,68,42
355,-8,-1648,-1120,31,79,46
360,0,-1648,-1112,32,92,55
365,-24,-1616,-1064,33,102,63
370,-8,-1616,-1104,34,111,73
375,-8,-1624,-1104,32,119,84
380,-32,-1600,-1144,27,126,94
385,-32,-1600,-1152,22,133,105
390,-32,-1616,-1144,11,140,116
395,-32,-1592,-1152,1,147,127
400,-48,-1576,-1136,-13,151,136
405,-64,-1536,-1144,-27,156,146
410,-80,-1616,-1160,-42,163,153
415,-88,-1592,-1160,-59,170,159
420,-72,-1584,-1128,-77,178,166
425,-80,-1600,-1152,-92,184,169
430,-104,-1616,-1160,-102,189,170
435,-96,-1608,-1168,-108,192,169
440,-56,-1640,-1160,-109,194,165
445,-104,-1608,-1208,-105,194,161
450,-136,-1624,-1216,-105,195,157
455,-136,-1616,-1208,-102,195,154
460,-144,-1584,-1176,-101,199,150
465,-152,-1592,-1184,-103,202,147
470,-144,-1544,-1160,-106,206,145
475,-152,-1536,-1152,-108,216,139
480,-168,-1528,-1096,-110,222,133
485,-184,-1504,-1096,-108,233,128
490,-160,-1504,-1104,-104,248,124
495,-152,-1496,-1056,-99,264,121
500,-184,-1472,-1064,-94,282,118
505,-192,-1472,-1072,-93,301,113
510,-168,-1472,-1080,-95,317,113
515,-200,-1528,-1056,-101,334,110
520,-168,-1480,-1016,-108,347,109
525,-136,-1480,-1008,-119,360,109
530,-128,-1488,-1032,-136,370,115
535,-112,-1496,-1048,-161,376,118
540,-96,-1520,-1112,-195,377,121
545,-104,-1496,-1136,-235,372,121
550,-96,-1520,-1160,-280,362,121
555,-96,-1528,-1208,-328,348,119
560,-104,-1536,-1232,-382,328,117
565,-104,-1584,-1272,-438,303,115
570,-184,-1576,-1280,-487,277,112
575,-216,-1600,-1304,-522,249,106
580,-288,-1624,-1280,-540,216,98
585,-320,-1688,-1272,-544,179,93
590,-424,-1704,-1304,-539,137,88
595,-496,-1712,-1280,-525,96,80
600,-536,-1776,-1232,-503,56,76
605,-576,-1816,-1208,-465,19,72
610,-584,-1848,-1136,-419,-12,70
615,-592,-1840,-1096,-363,-36,66
620,-600,-1840,-1104,-308,-52,64
625,-552,-1896,-1104,-260,-68,57
630,-544,-1904,-1112,-218,-85,50
635,-528,-1928,-1104,-185,-98,44
640,-472,-1928,-1072,-166,-110,38
645,-472,-1920,-1072,-151,-121,32
650,-416,-1952,-1064,-136,-132,23
655,-400,-1920,-1024,-124,-142,15
660,-344,-1912,-1040,-114,-152,6
665,-304,-1920,-1016,-107,-161,2
670,-304,-1864,-1048,-109,-164,-3
675,-264,-1896,-1048,-116,-165,-5
680,-208,-1840,-1072,-123,-164,-8
685,-168,-1824,-1072,-126,-158,-8
690,-112,-1800,-1088,-121,-153,-1
695,-96,-1768,-1080,-108,-147,4
700,-56,-1744,-1104,-93,-140,9
705,-48,-1752,-1160,-75,-134,16
710,-40,-1752,-1144,-57,-127,22
715,-80,-1744,-1160,-39,-120,31
720,-136,-1728,-1168,-19,-117,43
725,-136,-1728,-1120,2,-116,55
730,-200,-1680,-1136,25,-119,66
735,-184,-1704,-1128,44,-125,80
740,-232,-1704,-1136,56,-132,89
745,-232,-1688,-1152,60,-143,98
750,-224,-1664,-1136,58,-155,105
755,-240,-1648,-1160,50,-167,111
760,-248,-1632,-1128,43,-176,112
765,-288,-1600,-1136,38,-183,111
770,-280,-1576,-1120,39,-187,106
775,-304,-1536,-1120,44,-188,100
780,-296,-1528,-1088,51,-186,92
785,-344,-1504,-1112,60,-184,83
790,-320,-1456,-1088,69,-182,70
795,-336,-1432,-1088,74,-176,61
800,-344,-1392,-1088,75,-174,52
805,-368,-1392,-1080,74,-170,45
810,-360,-1376,-1072,68,-167,37
815,-376,-1400,-1032,55,-162,32
820,-416,-1392,-1024,37,-156,26
825,-344,-1416,-1024,14,-149,23
830,-352,-1424,-1048,-11,-142,19
835,-392,-1464,-1032,-39,-133,15
840,-360,-1480,-1056,-70,-122,10
845,-360,-1520,-1032,-100,-113,3
850,-360,-1528,-1056,-134,-105,-4
855,-328,-1536,-1016,-166,-98,-12
860,-320,-1544,-1008,-196,-93,-16
865,-296,-1576,-1016,-222,-90,-25
870,-296,-1560,-1024,-248,-87,-34
875,-296,-1568,-1072,-270,-88,-44
880,-272,-1544,-1040,-289,-86,-54
885,-248,-1608,-1024,-305,-87,-64
890,-224,-1600,-1064,-320,-83,-77
895,-216,-1584,-1016,-332,-78,-86
900,-208,-1592,-1048,-339,-72,-97
905,-168,-1584,-1080,-342,-65,-108
910,-128,-1600,-1072,-343,-55,-117
915,-152,-1576,-1064,-345,-40,-125
920,-144,-1656,-1104,-348,-21,-129
925,-144,-1568,-1096,-355,0,-137
930,-128,-1584,-1064,-357,29,-129
935,-112,-1608,-1072,-361,56,-125
940,-104,-1600,-1096,-366,86,-118
945,-96,-1632,-1112,-374,115,-112
950,-88,-1616,-1120,-386,143,-104
955,-40,-1648,-1152,-401,172,-98
960,-32,-1664,-1136,-424,200,-89
965,-8,-1672,-1128,-450,228,-77
970,-8,-1696,-1144,-474,250,-70
975,16,-1704,-1128,-494,269,-59
980,0,-1712,-1176,-513,283,-48
985,16,-1752,-1176,-524,299,-30
990,32,-1752,-1176,-530,309,-15
995,-16,-1784,-1192,-532,315,1
1000,-32,-1760,-1184,-533,314,17
1005,-24,-1824,-1160,-518,307,32
1010,-72,-1792,-1176,-496,296,48
1015,-152,-1816,-1184,-467,279,60
1020,-184,-1808,-1152,-435,255,76
1025,-224,-1800,-1192,-401,231,90
1030,-272,-1848,-1216,-367,208,102
1035,-304,-1848,-1176,-332,183,116
1040,-392,-1856,-1136,-296,159,125
1045,-424,-1880,-1096,-265,136,134
1050,-464,-1912,-1120,-235,115,140
1055,-504,-1904,-1104,-213,97,141
1060,-528,-1976,-1064,-205,82,139
1065,-496,-1968,-1072,-213,71,135
1070,-544,-1952,-1000,-220,57,132
1075,-560,-1920,-1008,-221,33,125
1080,-560,-1952,-1040,-221,-1,116
1085,-592,-1904,-1104,-227,-42,106
1090,-624,-1848,-1136,-240,-94,95
1095,-600,-1816,-1216,-265,-141,81
1100,-616,-1784,-1304,-311,-189,59
1105,-624,-1736,-1368,-367,-235,47
1110,-592,-1792,-1424,-420,-281,37
1115,-568,-1720,-1512,-481,-326,21
1120,-592,-1728,-1552,-548,-362,2
1125,-560,-1784,-1544,-618,-397,-27
1130,-520,-1816,-1496,-679,-429,-50
1135,-480,-1864,-1496,-714,-467,-69
1140,-448,-1904,-1472,-728,-511,-98
1145,-456,-1944,-1424,-722,-556,-127
1150,-448,-1976,-1424,-707,-600,-159
1155,-440,-1976,-1448,-686,-637,-197
1160,-440,-1928,-1432,-654,-666,-243
1165,-464,-1960,-1496,-601,-680,-291
1170,-464,-1880,-1472,-524,-672,-340
1175,-520,-1824,-1560,-429,-642,-383
1180,-552,-1776,-1632,-334,-590,-420
1185,-544,-1704,-1688,-239,-527,-437
1190,-544,-1640,-1792,-146,-449,-446
1195,-544,-1592,-1832,-59,-370,-447
1200,-512,-1496,-1936,18,-302,-448
1205,-480,-1400,-1992,89,-247,-444
1210,-488,-1312,-2008,151,-201,-437
1215,-488,-1248,-2024,210,-160,-423
1220,-464,-1200,-2016,273,-123,-406
1225,-440,-1160,-1952,341,-88,-386
1230,-384,-1128,-1864,416,-59,-363
1235,-344,-1104,-1880,488,-32,-333
1240,-312,-1072,-1848,555,-8,-301
1245,-256,-1048,-1808,609,12,-266
1250,-176,-1024,-1792,639,19,-232
1255,-152,-1016,-1768,652,13,-208
1260,-56,-1008,-1728,654,-10,-184
1265,-8,-1024,-1720,647,-45,-164
1270,56,-1024,-1720,633,-87,-146
1275,64,-992,-1656,608,-128,-130
1280,112,-1056,-1712,574,-157,-117
1285,64,-1080,-1736,529,-174,-108
1290,80,-1072,-1728,476,-177,-97
1295,48,-1096,-1736,414,-166,-91
1300,80,-1152,-1712,355,-149,-88
1305,32,-1192,-1720,302,-128,-88
1310,8,-1200,-1664,258,-104,-92
1315,-24,-1256,-1664,226,-85,-99
1320,-64,-1296,-1648,208,-69,-108
1325,-104,-1376,-1664,198,-58,-116
1330,-216,-1416,-1592,204,-51,-124
1335,-224,-1480,-1616,219,-47,-134
1340,-280,-1512,-1648,239,-42,-145
1345,-352,-1528,-1648,263,-37,-161
1350,-416,-1560,-1632,287,-31,-173
1355,-472,-1568,-1656,314,-25,-192
1360,-528,-1560,-1608,346,-19,-212
1365,-528,-1560,-1648,383,-10,-235
1370,-512,-1544,-1608,427,5,-259
1375,-520,-1528,-1568,472,23,-286
1380,-456,-1544,-1504,520,46,-314
1385,-408,-1528,-1520,559,71,-342
1390,-392,-1520,-1488,597,92,-370
1395,-328,-1504,-1456,630,109,-397
1400,-296,-1440,-1408,657,121,-419
1405,-256,-1416,-1432,676,133,-437
1410,-184,-1368,-1376,689,140,-450
1415,-152,-1312,-1344,700,144,-459
1420,-96,-1240,-1312,708,147,-465
1425,-32,-1208,-1304,712,146,-466
1430,-8,-1168,-1264,711,142,-466
1435,40,-1136,-1248,706,133,-464
1440,56,-1088,-1240,700,125,-458
1445,72,-1048,-1152,694,114,-451
1450,80,-1040,-1144,685,102,-440
1455,80,-1016,-1112,670,94,-427
1460,96,-992,-1120,647,86,-415
1465,72,-1016,-1096,618,78,-406
1470,72,-976,-1072,588,70,-391
1475,24,-1000,-1072,553,66,-380
1480,24,-1016,-1032,519,59,-363
1485,8,-1040,-1024,476,52,-345
1490,-24,-1040,-944,429,45,-326
1495,0,-1056,-1032,378,30,-313
1500,-32,-1088,-984,317,14,-303
1505,-56,-1088,-1024,249,-4,-293
1510,-72,-1120,-1008,178,-21,-281
1515,-96,-1144,-1040,88,-39,-269
1520,-120,-1160,-1032,15,-55,-255
1525,-112,-1168,-1000,-55,-70,-242
1530,-104,-1176,-1016,-117,-85,-229
1535,-144,-1184,-1056,-174,-95,-215
1540,-128,-1184,-992,-221,-101,-199
1545,-56,-1200,-976,-252,-105,-180
1550,-56,-1248,-968,-268,-111,-161
1555,-16,-1248,-936,-276,-119,-142
1560,-32,-1272,-904,-274,-130,-134
1565,-16,-1272,-912,-263,-147,-126
1570,-8,-1312,-920,-248,-163,-116
1575,0,-1328,-896,-233,-181,-107
1580,8,-1336,-888,-219,-199,-101
1585,0,-1360,-904,-202,-216,-94
1590,32,-1400,-936,-186,-233,-88
1595,24,-1376,-936,-173,-251,-83
1600,-16,-1376,-944,-165,-268,-81
1605,-16,-1360,-984,-163,-282,-77
1610,0,-1344,-984,-165,-297,-71
1615,-24,-1360,-1024,-168,-312,-67
1620,-40,-1336,-1032,-176,-324,-60
1625,-48,-1392,-1032,-190,-337,-52
1630,-40,-1424,-1080,-209,-346,-42
1635,-112,-1432,-1048,-233,-354,-35
1640,-72,-1488,-1040,-261,-359,-24
1645,-72,-1480,-1064,-300,-359,-11
1650,-128,-1544,-1096,-336,-353,-7
1655,-160,-1600,-1160,-375,-345,-2
1660,-128,-1648,-1160,-415,-338,2
1665,-112,-1704,-1144,-452,-333,3
1670,-136,-1760,-1168,-484,-327,2
1675,-120,-1864,-1144,-507,-316,-1
1680,-88,-1936,-1168,-520,-300,-4
1685,-48,-1992,-1200,-529,-273,-1
1690,-64,-2048,-1192,-526,-235,-11
1695,-8,-2112,-1224,-512,-183,-16
1700,64,-2168,-1240,-489,-118,-19
1705,128,-2224,-1296,-453,-46,-25
1710,224,-2264,-1232,-401,30,-33
1715,240,-2320,-1280,-334,101,-42
1720,328,-2360,-1232,-251,163,-49
1725,304,-2408,-1184,-145,216,-66
1730,320,-2504,-1136,-21,256,-74
1735,312,-2576,-1104,116,289,-80
1740,280,-2632,-1040,264,301,-84
1745,256,-2720,-984,414,308,-81
1750,56,-2824,-984,555,283,-140
1755,304,-2656,-1072,650,273,-185
1760,232,-2576,-1152,742,309,-112
1765,152,-2504,-1304,810,313,-79
1770,96,-2328,-1520,849,321,-58
1775,24,-2152,-1736,815,350,-38
1780,-32,-2056,-1936,705,387,-19
1785,-128,-2008,-2064,538,419,4
1790,-288,-2040,-2056,378,433,18
1795,-416,-2080,-2008,275,418,27
1800,-416,-2144,-1872,256,372,42
1805,-328,-2112,-1712,329,316,56
1810,-208,-2080,-1648,471,266,56
1815,32,-2016,-1712,645,237,55
1820,184,-1880,-1872,792,232,60
1825,328,-1712,-2040,871,234,66
1830,344,-1544,-2112,887,219,64
1835,280,-1408,-2112,860,197,53
1840,176,-1264,-2144,813,158,29
1845,16,-1160,-2136,762,99,-6
1850,-136,-1072,-2064,717,33,-39
1855,-232,-968,-2000,701,-38,-69
1860,-344,-848,-1928,710,-98,-98
1865,-504,-712,-1880,737,-125,-113
1870,-528,-568,-1816,773,-106,-116
1875,-568,-504,-1744,805,-49,-113
1880,-552,-536,-1720,810,35,-111
1885,-528,-576,-1656,773,128,-115
1890,-496,-752,-1624,694,215,-138
1895,-480,-896,-1608,585,283,-172
1900,-440,-1072,-1560,449,326,-208
1905,-400,-1176,-1552,303,342,-237
1910,-416,-1272,-1584,172,343,-257
1915,-400,-1376,-1584,56,346,-269
1920,-400,-1464,-1624,-39,357,-268
1925,-408,-1512,-1624,-122,371,-256
1930,-408,-1592,-1664,-192,397,-231
1935,-352,-1696,-1664,-241,426,-191
1940,-280,-1752,-1680,-264,458,-145
1945,-160,-1816,-1704,-267,480,-95
1950,-64,-1824,-1792,-253,483,-47
1955,-16,-1856,-1832,-225,465,4
1960,72,-1872,-1848,-190,432,53
1965,88,-1864,-1904,-149,380,101
1970,144,-1904,-1888,-112,310,144
1975,96,-1872,-1848,-75,239,182
1980,72,-1872,-1752,-43,171,213
1985,72,-1856,-1664,-16,116,237
1990,-8,-1744,-1576,7,72,257
1995,-24,-1664,-1520,33,42,262
2000,-56,-1616,-1456,67,26,258
2005,-128,-1520,-1400,103,21,249
2010,-168,-1448,-1352,142,30,238
2015,-216,-1352,-1248,187,44,228
2020,-288,-1280,-1208,237,64,215
2025,-312,-1224,-1168,288,81,205
2030,-384,-1168,-1096,337,98,190
2035,-440,-1072,-1024,401,111,178
2040,-488,-1048,-1008,451,118,165
2045,-528,-1048,-984,499,121,157
2050,-488,-1008,-992,535,118,151
2055,-472,-976,-952,562,113,142
2060,-464,-1016,-984,571,102,139
2065,-480,-960,-976,563,92,137
2070,-504,-904,-984,538,82,140
2075,-376,-960,-904,502,69,150
2080,-264,-1000,-1024,451,61,170
2085,-376,-1064,-952,388,52,184
2090,-280,-984,-976,327,40,188
2095,-240,-1080,-928,261,26,185
2100,-168,-1160,-912,181,12,186
2105,-224,-1088,-936,93,0,183
2110,-152,-1208,-992,2,-14,173
2115,-168,-1200,-888,-92,-23,165
2120,-136,-1176,-872,-180,-30,156
2125,-72,-1248,-920,-257,-27,143
2130,-80,-1224,-824,-315,-18,127
2135,-56,-1232,-776,-359,-3,109
2140,-64,-1264,-824,-383,17,89
2145,-80,-1224,-784,-385,41,68
2150,-88,-1216,-752,-366,69,50
2155,-88,-1256,-680,-333,96,33
2160,-80,-1232,-696,-285,115,16
2165,-144,-1224,-640,-219,132,1
2170,-160,-1200,-624,-145,140,-10
2175,-200,-1240,-584,-75,150,-13
2180,-208,-1240,-640,-20,167,-13
2185,-232,-1248,-640,26,186,-8
2190,-224,-1224,-632,74,208,2
2195,-184,-1248,-632,124,232,11
2200,-152,-1264,-624,169,260,19
2205,-136,-1232,-768,201,291,27
2210,-80,-1248,-832,210,321,34
2215,-32,-1232,-888,200,348,38
2220,8,-1240,-984,174,369,39
2225,64,-1344,-1064,128,384,39
2230,120,-1368,-1128,66,395,38
2235,136,-1416,-1176,-6,406,33
2240,160,-1528,-1256,-83,413,31
2245,112,-1576,-1288,-161,417,22
2250,80,-1672,-1272,-235,418,9
2255,64,-1760,-1288,-299,411,-3
2260,-8,-1832,-1272,-351,394,-13
2265,-24,-1928,-1256,-390,370,-21
2270,-120,-1912,-1280,-419,342,-25
2275,-160,-1992,-1272,-443,316,-28
2280,-224,-2072,-1304,-460,288,-26
2285,-240,-2112,-1328,-475,253,-20
2290,-272,-2152,-1328,-486,208,-15
2295,-344,-2192,-1304,-491,151,-11
2300,-432,-2256,-1296,-482,75,-10
2305,-528,-2224,-1312,-458,-23,-8
2310,-560,-2232,-1272,-423,-135,-8
2315,-616,-2232,-1176,-372,-248,-8
2320,-672,-2248,-1112,-300,-354,-2
2325,-712,-2280,-1000,-206,-442,9
2330,-728,-2320,-912,-103,-511,19
2335,-672,-2312,-784,5,-557,27
2340,-664,-2336,-672,120,-581,27
2345,-624,-2344,-600,237,-588,18
2350,-544,-2336,-552,350,-576,7
2355,-528,-2312,-552,452,-552,-12
2360,-488,-2264,-680,531,-524,-26
2365,-456,-2176,-896,567,-499,-29
2370,-360,-2112,-1120,544,-491,-21
2375,-328,-2072,-1408,456,-507,-5
2380,-264,-2048,-1608,304,-555,1
2385,-136,-2024,-1816,100,-630,12
2390,0,-2048,-2024,-129,-712,25
2395,48,-2112,-2024,-369,-796,39
2400,24,-2144,-1896,-584,-870,43
2405,-88,-2128,-1736,-716,-937,41
2410,-312,-2104,-1616,-747,-984,26
2415,-496,-2056,-1568,-688,-1006,-11
2420,-768,-1968,-1648,-592,-996,-63
2425,-872,-1864,-1720,-494,-952,-108
2430,-912,-1768,-1912,-401,-871,-139
2435,-856,-1616,-2056,-312,-768,-161
2440,-848,-1512,-2232,-228,-665,-182
2445,-832,-1344,-2328,-155,-576,-202
2450,-712,-1312,-2368,-94,-492,-216
2455,-536,-1272,-2256,-36,-404,-217
2460,-368,-1200,-2160,31,-311,-204
2465,-296,-1208,-1984,108,-238,-174
2470,-184,-1120,-1944,199,-196,-137
2475,-56,-1040,-1944,291,-188,-92
2480,56,-904,-1936,369,-204,-44
2485,136,-824,-1928,429,-243,3
2490,200,-784,-1896,466,-282,50
2495,272,-824,-1864,492,-323,100
2500,248,-872,-1816,505,-358,159
2505,288,-992,-1776,495,-382,220
2510,336,-1048,-1768,460,-392,270
2515,312,-1128,-1728,410,-397,306
2520,336,-1152,-1752,356,-400,323
2525,240,-1312,-1736,307,-405,318
2530,208,-1472,-1728,269,-412,296
2535,144,-1552,-1712,239,-416,254
2540,32,-1680,-1712,217,-419,201
2545,-48,-1736,-1744,209,-422,141
2550,-216,-1816,-1712,220,-415,85
2555,-344,-1856,-1736,244,-391,28
2560,-456,-1864,-1752,266,-345,-30
2565,-544,-1840,-1760,286,-277,-100
2570,-576,-1840,-1728,296,-200,-178
2575,-648,-1752,-1744,295,-119,-266
2580,-648,-1736,-1648,292,-45,-356
2585,-608,-1688,-1576,293,15,-441
2590,-552,-1664,-1496,304,61,-521
2595,-512,-1632,-1440,317,90,-568
2600,-456,-1600,-1376,323,107,-593
2605,-400,-1536,-1304,324,109,-606
2610,-320,-1480,-1240,320,104,-615
2615,-296,-1416,-1184,319,90,-624
2620,-224,-1368,-1144,330,66,-626
2625,-248,-1248,-1120,356,35,-618
2630,-136,-1192,-1136,386,2,-607
2635,-144,-1048,-1072,417,-29,-590
2640,-120,-992,-1016,460,-63,-571
2645,-72,-952,-1008,509,-94,-550
2650,-32,-904,-952,560,-120,-532
2655,-24,-888,-912,609,-140,-509
2660,40,-880,-872,650,-156,-488
2665,48,-872,-920,674,-165,-474
2670,48,-888,-856,673,-168,-460
2675,88,-928,-928,649,-166,-453
2680,88,-960,-872,599,-160,-452
2685,80,-952,-880,533,-158,-455
2690,112,-952,-832,459,-158,-461
2695,128,-992,-848,376,-156,-467
2700,104,-992,-832,293,-153,-469
2705,88,-1024,-816,205,-151,-465
2710,80,-1008,-832,116,-153,-453
2715,32,-1032,-816,35,-162,-440
2720,0,-1032,-792,-38,-177,-423
2725,8,-1064,-784,-96,-194,-405
2730,-8,-1056,-744,-142,-210,-384
2735,8,-1192,-768,-181,-224,-360
2740,-32,-1200,-776,-211,-240,-337
2745,-32,-1224,-792,-240,-256,-312
2750,-40,-1256,-720,-264,-267,-288
2755,-16,-1304,-768,-282,-275,-264
2760,32,-1320,-744,-290,-288,-246
2765,48,-1392,-696,-291,-305,-233
2770,112,-1416,-680,-288,-332,-224
2775,72,-1400,-712,-282,-366,-219
2780,80,-1416,-712,-270,-409,-216
2785,48,-1392,-744,-256,-452,-215
2790,72,-1416,-696,-235,-492,-213
2795,32,-1400,-768,-212,-523,-207
2800,24,-1408,-744,-181,-546,-200
2805,-32,-1416,-784,-149,-564,-191
2810,-8,-1368,-840,-126,-578,-182
2815,-56,-1344,-896,-114,-592,-172
2820,-88,-1336,-944,-120,-596,-160
2825,-112,-1352,-976,-147,-595,-145
2830,-160,-1400,-984,-191,-584,-126
2835,-120,-1456,-976,-245,-569,-108
2840,-152,-1512,-992,-299,-548,-86
2845,-184,-1544,-944,-351,-525,-65
2850,-208,-1656,-968,-397,-502,-41
2855,-192,-1736,-1000,-437,-484,-22
2860,-208,-1792,-1024,-475,-479,-12
2865,-248,-1872,-1080,-506,-481,-5
2870,-312,-1920,-1072,-535,-487,-8
2875,-272,-1952,-1120,-555,-490,-12
2880,-216,-2048,-1104,-573,-474,-13
2885,-192,-2072,-1184,-574,-437,-17
2890,-112,-2088,-1216,-554,-376,-26
2895,-24,-2176,-1192,-524,-292,-40
2900,32,-2232,-1248,-483,-194,-68
2905,104,-2296,-1240,-433,-92,-99
2910,192,-2360,-1264,-378,10,-134
2915,280,-2440,-1232,-314,101,-167
2920,360,-2528,-1152,-235,189,-192
2925,392,-2592,-1168,-132,245,-207
2930,432,-2696,-1080,-9,285,-212
2935,400,-2760,-976,123,312,-208
2940,336,-2824,-920,291,327,-197
2945,312,-2864,-848,439,335,-177
2950,272,-2872,-768,591,328,-153
2955,208,-2880,-688,746,315,-126
2960,160,-2880,-616,893,296,-99
2965,104,-2816,-680,1022,280,-76
2970,96,-2728,-816,1114,274,-64
2975,48,-2504,-1072,1136,283,-63
2980,56,-2216,-1376,1068,308,-66
2985,8,-1976,-1720,901,337,-69
2990,-72,-1880,-2056,638,352,-66
2995,-248,-1896,-2184,331,337,-48
3000,-488,-2016,-2136,70,284,-14
3005,-448,-2176,-1944,-34,205,36
3010,-208,-2256,-1792,41,137,80
3015,88,-2280,-1752,200,117,111
3020,272,-2184,-1848,341,152,129
3025,488,-2040,-2008,409,215,134
3030,560,-1776,-2200,385,276,129
3035,456,-1536,-2336,285,312,113
3040,248,-1304,-2448,156,320,104
3045,112,-1168,-2440,34,316,109
3050,-48,-1008,-2384,-48,314,122
3055,-184,-1008,-2248,-85,328,135
3060,-280,-976,-2120,-81,365,139
3065,-288,-928,-1968,-37,425,139
3070,-304,-912,-1864,37,511,134
3075,-280,-896,-1768,115,603,117
3080,-232,-880,-1704,170,682,89
3085,-232,-936,-1728,186,735,57
3090,-232,-1008,-1672,157,771,26
3095,-312,-1136,-1672,94,799,-2
3100,-368,-1240,-1592,15,819,-32
3105,-448,-1344,-1520,-61,819,-61
3110,-496,-1448,-1448,-131,805,-87
3115,-536,-1496,-1368,-186,788,-95
3120,-608,-1536,-1312,-224,776,-87
3125,-600,-1592,-1288,-243,773,-59
3130,-584,-1680,-1312,-249,780,-22
3135,-504,-1736,-1352,-250,787,21
3140,-376,-1800,-1376,-242,784,68
3145,-256,-1832,-1464,-229,768,119
3150,-128,-1848,-1568,-216,736,171
3155,-32,-1832,-1640,-205,690,224
3160,0,-1784,-1696,-195,630,276
3165,56,-1832,-1712,-191,560,330
3170,0,-1856,-1704,-186,479,375
3175,48,-1872,-1672,-153,391,415
3180,56,-1856,-1624,-106,302,444
3185,48,-1840,-1560,-54,228,463
3190,48,-1760,-1536,-3,176,478
3195,16,-1720,-1424,33,142,488
3200,0,-1656,-1336,62,126,486
3205,-48,-1544,-1248,86,129,477
3210,-72,-1424,-1176,110,147,461
3215,-160,-1360,-1120,141,175,442
3220,-200,-1192,-1088,179,209,418
3225,-280,-1080,-1072,221,248,392
3230,-296,-1024,-976,261,290,370
3235,-344,-928,-944,297,330,354
3240,-400,-856,-896,337,365,346
3245,-408,-824,-816,376,392,343
3250,-424,-816,-840,414,412,339
3255,-456,-784,-760,451,419,333
3260,-408,-776,-792,480,412,324
3265,-424,-824,-736,497,394,316
3270,-416,-824,-768,501,368,312
3275,-464,-872,-752,486,334,304
3280,-440,-856,-784,451,298,300
3285,-440,-888,-824,400,257,302
3290,-408,-960,-832,335,216,307
3295,-376,-1016,-832,256,176,315
3300,-360,-1048,-848,172,137,324
3305,-336,-1104,-840,76,105,334
3310,-328,-1176,-872,-23,75,341
3315,-248,-1288,-880,-121,51,345
3320,-280,-1248,-920,-219,32,343
3325,-272,-1272,-896,-310,22,336
3330,-216,-1240,-912,-385,15,324
3335,-168,-1280,-864,-438,10,309
3340,-144,-1296,-824,-467,7,288
3345,-136,-1264,-832,-469,3,257
3350,-136,-1296,-776,-448,2,224
3355,-120,-1296,-776,-409,5,188
3360,-144,-1280,-752,-361,13,151
3365,-168,-1352,-704,-305,28,115
3370,-200,-1392,-656,-229,45,83
3375,-176,-1376,-640,-160,72,57
3380,-224,-1360,-600,-86,106,37
3385,-232,-1384,-560,3,143,24
3390,-224,-1392,-624,93,183,20
3395,-208,-1416,-584,153,234,14
3400,-168,-1424,-640,197,285,13
3405,-152,-1440,-608,231,329,15
3410,-112,-1448,-656,252,367,19
3415,-56,-1472,-760,263,393,31
3420,-32,-1488,-856,254,401,45
3425,-32,-1488,-960,222,393,62
3430,-16,-1544,-1040,166,369,80
3435,32,-1576,-1128,95,331,102
3440,40,-1656,-1192,17,287,122
3445,32,-1680,-1208,-58,241,143
3450,-8,-1744,-1224,-121,201,165
3455,-32,-1808,-1160,-172,172,188
3460,-96,-1896,-1184,-210,149,208
3465,-168,-1976,-1160,-241,125,222
3470,-256,-2032,-1128,-272,86,222
3475,-320,-2104,-1136,-301,28,210
3480,-400,-2152,-1144,-329,-40,186
3485,-528,-2248,-1112,-347,-111,161
3490,-632,-2320,-1056,-353,-182,140
3495,-696,-2360,-1080,-349,-250,123
3500,-776,-2416,-1000,-327,-316,112
3505,-824,-2496,-928,-274,-376,105
3510,-856,-2544,-832,-192,-426,103
3515,-832,-2560,-752,-89,-466,98
3520,-840,-2600,-672,30,-495,88
3525,-816,-2624,-584,160,-519,70
3530,-784,-2576,-616,293,-540,48
3535,-792,-2496,-720,401,-559,19
3540,-800,-2376,-864,465,-576,-8
3545,-824,-2256,-1104,477,-596,-27
3550,-808,-2120,-1312,430,-638,-34
3555,-664,-2040,-1656,329,-707,-32
3560,-512,-1920,-1976,170,-798,-34
3565,-352,-1840,-2224,-37,-882,-41
3570,-280,-1808,-2416,-281,-943,-66
3575,-424,-1776,-2408,-531,-983,-93
3580,-512,-1816,-2304,-732,-1021,-100
3585,-592,-1872,-2152,-849,-1050,-97
3590,-680,-1832,-2192,-888,-1050,-89
3595,-816,-1808,-2360,-888,-1016,-85
3600,-928,-1672,-2584,-878,-961,-83
3605,-824,-1600,-2752,-877,-878,-87
3610,-592,-1544,-2808,-881,-767,-90
3615,-464,-1512,-2744,-867,-636,-96
3620,-256,-1448,-2648,-805,-500,-88
3625,-40,-1456,-2440,-687,-373,-72
3630,160,-1384,-2256,-519,-269,-54
3635,280,-1320,-2152,-299,-187,-43
3640,416,-1160,-2064,-36,-123,-32
3645,408,-1024,-2024,249,-70,-10
3650,392,-920,-2064,515,-28,18
3655,368,-1016,-2080,731,12,52
3660,360,-1040,-2072,880,53,103
3665,328,-1080,-2000,962,97,172
3670,280,-1192,-1872,993,134,247
3675,240,-1248,-1808,998,154,320
3680,160,-1352,-1736,978,156,378
3685,104,-1392,-1704,927,144,407
3690,24,-1488,-1632,854,116,406
3695,-104,-1592,-1560,781,74,379
3700,-240,-1664,-1552,723,17,335
3705,-424,-1640,-1624,684,-43,282
3710,-568,-1688,-1672,654,-92,226
3715,-664,-1680,-1784,621,-114,166
3720,-776,-1720,-1848,576,-96,97
3725,-776,-1712,-1776,514,-47,7
3730,-792,-1736,-1696,454,19,-105
3735,-792,-1760,-1592,416,82,-243
3740,-672,-1776,-1432,411,127,-346
3745,-592,-1704,-1408,433,155,-443
3750,-552,-1680,-1392,455,172,-519
3755,-480,-1672,-1336,469,188,-571
3760,-480,-1600,-1344,467,198,-601
3765,-448,-1544,-1336,456,206,-601
3770,-360,-1448,-1240,429,209,-593
3775,-264,-1352,-1208,400,206,-584
3780,-200,-1288,-1160,375,194,-570
3785,-160,-1208,-1120,362,170,-560
3790,-64,-1184,-1032,370,133,-545
3795,-24,-1080,-952,398,82,-514
3800,24,-976,-920,421,22,-491
3805,64,-960,-896,440,-33,-480
3810,80,-904,-840,458,-83,-474
3815,80,-912,-792,469,-124,-468
3820,48,-792,-792,476,-160,-465
3825,64,-768,-760,484,-191,-463
3830,96,-776,-712,488,-218,-465
3835,64,-784,-736,488,-242,-472
3840,80,-784,-696,479,-262,-484
3845,80,-776,-712,465,-276,-498
3850,80,-832,-720,447,-287,-510
3855,64,-832,-712,418,-290,-518
3860,88,-896,-688,370,-290,-530
3865,56,-952,-752,304,-295,-541
3870,-8,-976,-768,219,-304,-548
3875,8,-1008,-784,119,-314,-548
3880,-24,-1040,-784,15,-323,-539
3885,-24,-1080,-728,-89,-332,-524
3890,-32,-1096,-712,-185,-342,-510
3895,-48,-1128,-656,-266,-351,-489
3900,-48,-1152,-656,-326,-364,-469
3905,-40,-1184,-624,-364,-382,-453
3910,-64,-1192,-576,-380,-403,-436
3915,-56,-1264,-552,-370,-428,-421
3920,-40,-1280,-552,-352,-450,-407
3925,-64,-1240,-544,-330,-467,-398
3930,-16,-1288,-552,-305,-480,-390
3935,16,-1296,-552,-273,-506,-383
3940,40,-1312,-552,-234,-542,-379
3945,8,-1320,-560,-190,-591,-377
3950,24,-1320,-608,-148,-645,-380
3955,48,-1328,-656,-113,-700,-387
3960,24,-1304,-712,-88,-755,-391
3965,8,-1312,-792,-77,-801,-390
3970,0,-1320,-816,-81,-830,-382
3975,-24,-1328,-864,-98,-838,-372
3980,-104,-1320,-912,-124,-821,-357
3985,-104,-1368,-952,-159,-792,-343
3990,-104,-1424,-952,-200,-751,-324
3995,-152,-1480,-992,-248,-704,-305
4000,-192,-1568,-992,-300,-657,-282
4005,-280,-1664,-1032,-360,-617,-258
4010,-376,-1784,-1024,-423,-583,-232
4015,-392,-1888,-992,-483,-556,-207
4020,-408,-2032,-1032,-535,-532,-182
4025,-328,-2120,-1040,-575,-507,-160
4030,-256,-2184,-1048,-601,-468,-143
4035,-152,-2288,-1032,-610,-420,-133
4040,-16,-2328,-1056,-604,-358,-123
4045,128,-2408,-1064,-577,-285,-118
4050,304,-2488,-1064,-528,-204,-128
4055,440,-2544,-960,-455,-121,-140
4060,576,-2640,-984,-353,-37,-153
4065,632,-2712,-928,-226,45,-160
4070,672,-2808,-896,-71,122,-159
4075,656,-2880,-824,96,188,-148
4080,616,-2976,-776,271,241,-131
4085,576,-3032,-752,447,287,-108
4090,496,-3080,-664,620,323,-83
4095,472,-3072,-728,780,355,-65
4100,424,-2992,-832,910,391,-55
4105,376,-2768,-1096,1003,429,-48
4110,328,-2576,-1336,1028,477,-50
4115,224,-2312,-1760,955,528,-55
4120,-40,-2080,-2184,771,563,-50
4125,-360,-2040,-2448,525,561,-22
4130,-512,-2088,-2536,286,509,35
4135,-376,-2168,-2480,128,455,102
4140,-88,-2192,-2328,46,432,158
4145,104,-2200,-2280,13,445,192
4150,152,-2200,-2152,21,464,202
4155,200,-2072,-2224,56,452,195
4160,208,-1976,-2288,80,415,168
4165,112,-1816,-2360,62,369,139
4170,-48,-1736,-2320,23,325,111
4175,-256,-1616,-2208,-7,286,84
4180,-360,-1544,-2120,-2,263,62
4185,-488,-1448,-1976,60,257,44
4190,-576,-1328,-1856,166,273,36
4195,-704,-1192,-1728,310,309,30
4200,-672,-1080,-1664,463,345,17
4205,-680,-1016,-1648,600,364,0
4210,-648,-1016,-1736,686,363,-31
4215,-592,-1032,-1832,699,362,-68
4220,-576,-1112,-1816,643,366,-111
4225,-528,-1216,-1744,533,368,-162
4230,-512,-1296,-1640,401,365,-211
4235,-496,-1392,-1552,274,360,-253
4240,-488,-1440,-1456,167,357,-279
4245,-448,-1512,-1360,99,362,-290
4250,-440,-1584,-1376,67,372,-286
4255,-368,-1632,-1328,65,392,-261
4260,-256,-1720,-1400,86,420,-222
4265,-136,-1792,-1472,115,450,-172
4270,-8,-1912,-1568,138,473,-112
4275,96,-1944,-1656,160,484,-56
4280,216,-2048,-1712,178,472,2
4285,280,-2064,-1760,188,441,65
4290,336,-2104,-1744,184,393,129
4295,312,-2088,-1736,171,329,188
4300,296,-2088,-1728,138,257,245
4305,208,-2040,-1672,91,186,286
4310,144,-1960,-1584,29,127,311
4315,80,-1832,-1488,-29,85,322
4320,0,-1704,-1416,-74,66,320
4325,-16,-1624,-1288,-110,75,306
4330,-120,-1480,-1192,-125,109,288
4335,-168,-1320,-1128,-115,155,270
4340,-232,-1256,-1040,-81,207,257
4345,-248,-1120,-928,-32,262,248
4350,-296,-1032,-864,25,312,242
4355,-304,-1008,-800,85,353,236
4360,-352,-864,-712,148,383,232
4365,-368,-832,-672,210,400,230
4370,-376,-768,-608,265,405,234
4375,-376,-712,-640,311,397,240
4380,-352,-712,-608,347,385,245
4385,-328,-704,-600,371,369,254
4390,-344,-704,-608,385,351,262
4395,-328,-696,-592,391,336,275
4400,-296,-720,-616,388,325,292
4405,-328,-760,-616,374,318,312
4410,-240,-840,-704,344,308,337
4415,-232,-864,-624,300,302,365
4420,-224,-920,-592,242,295,386
4425,-208,-920,-640,180,288,399
4430,-136,-976,-680,109,280,406
4435,-120,-1024,-696,36,279,405
4440,-112,-1016,-688,-40,280,396
4445,-88,-1040,-688,-111,285,384
4450,-88,-1080,-712,-183,290,372
4455,-32,-1072,-720,-253,293,350
4460,-80,-1040,-680,-309,295,327
4465,-104,-1024,-648,-334,299,305
4470,-88,-1056,-640,-335,306,287
4475,-128,-1040,-624,-314,314,271
4480,-152,-1048,-584,-277,323,262
4485,-184,-1048,-584,-230,329,259
4490,-192,-1048,-576,-180,338,261
4495,-192,-1072,-584,-132,349,268
4500,-208,-1056,-568,-91,358,275
4505,-224,-1064,-600,-62,371,283
4510,-184,-1120,-616,-39,387,294
4515,-144,-1136,-624,-29,406,298
4520,-128,-1144,-656,-24,427,300
4525,-40,-1216,-728,-28,452,295
4530,-24,-1264,-792,-40,482,293
4535,48,-1344,-856,-57,512,290
4540,16,-1416,-936,-88,543,291
4545,56,-1496,-1032,-130,577,291
4550,80,-1592,-1088,-184,611,298
4555,96,-1784,-1112,-245,638,303
4560,88,-1880,-1192,-300,657,308
4565,40,-1960,-1208,-345,663,309
4570,0,-2104,-1160,-378,647,304
4575,-72,-2240,-1168,-401,610,288
4580,-176,-2288,-1176,-413,554,262
4585,-312,-2320,-1192,-418,481,234
4590,-440,-2384,-1176,-417,399,202
4595,-616,-2392,-1144,-408,314,175
4600,-784,-2464,-1120,-389,226,151
4605,-936,-2520,-1096,-363,134,136
4610,-1032,-2528,-1088,-332,35,124
4615,-1048,-2608,-1016,-293,-68,117
4620,-1056,-2696,-944,-249,-168,108
4625,-960,-2688,-832,-195,-260,97
4630,-896,-2696,-744,-128,-346,76
4635,-800,-2704,-736,-52,-420,44
4640,-680,-2696,-688,29,-484,1
4645,-560,-2696,-624,104,-535,-46
4650,-488,-2680,-592,182,-575,-99
4655,-448,-2648,-584,249,-597,-138
4660,-384,-2648,-616,302,-610,-171
4665,-408,-2520,-912,318,-623,-192
4670,-376,-2376,-1128,273,-639,-195
4675,-296,-2256,-1456,175,-650,-178
4680,-152,-2176,-1656,31,-661,-142
4685,-16,-2152,-2000,-154,-681,-99
4690,64,-2144,-2320,-373,-695,-58
4695,-8,-2112,-2488,-607,-704,-28
4700,-56,-2112,-2408,-792,-734,-15
4705,-88,-2096,-2296,-876,-790,-34
4710,-272,-2016,-2128,-829,-843,-89
4715,-600,-1872,-2128,-704,-867,-134
4720,-816,-1704,-2320,-582,-851,-148
4725,-928,-1504,-2504,-524,-804,-141
4730,-928,-1368,-2584,-519,-747,-126
4735,-920,-1152,-2632,-524,-695,-122
4740,-824,-984,-2616,-517,-635,-118
4745,-752,-944,-2496,-483,-571,-103
4750,-576,-936,-2360,-427,-516,-61
4755,-312,-920,-2176,-361,-482,-14
4760,-104,-952,-2040,-286,-461,38
4765,72,-912,-1992,-212,-453,100
4770,208,-904,-2008,-150,-441,169
4775,304,-880,-2008,-97,-429,235
4780,304,-848,-2048,-52,-411,294
4785,312,-848,-2024,-15,-384,347
4790,272,-936,-2056,5,-349,395
4795,384,-1024,-2000,9,-310,445
4800,432,-1128,-1880,8,-265,481
4805,488,-1320,-1800,17,-227,506
4810,472,-1488,-1720,40,-194,506
4815,472,-1640,-1624,67,-166,484
4820,368,-1784,-1592,102,-141,438
4825,296,-1864,-1536,147,-116,368
4830,32,-1936,-1584,199,-93,282
4835,-256,-1992,-1760,269,-66,183
4840,-472,-2016,-1976,344,-16,114
4845,-552,-2008,-2056,386,86,40
4850,-584,-2088,-2000,382,252,-57
4855,-568,-2088,-1880,371,376,-169
4860,-592,-2064,-1752,376,460,-282
4865,-592,-2056,-1664,401,498,-370
4870,-544,-2024,-1608,442,502,-438
4875,-544,-1904,-1600,461,488,-482
4880,-536,-1768,-1560,454,471,-500
4885,-496,-1616,-1464,431,453,-499
4890,-440,-1496,-1376,406,429,-489
4895,-384,-1320,-1320,375,401,-483
4900,-336,-1240,-1256,341,375,-476
4905,-288,-1096,-1152,311,344,-470
4910,-216,-1000,-1072,291,305,-467
4915,-168,-920,-1016,286,259,-461
4920,-152,-888,-968,295,203,-445
4925,-136,-776,-912,307,141,-423
4930,-80,-712,-864,320,86,-404
4935,-56,-672,-880,324,46,-396
4940,-48,-664,-824,318,19,-392
4945,-32,-632,-824,309,-3,-392
4950,16,-688,-800,305,-22,-395
4955,0,-704,-768,295,-42,-391
4960,24,-744,-752,282,-57,-396
4965,88,-776,-784,257,-66,-413
4970,96,-816,-800,211,-64,-434
4975,120,-808,-824,154,-55,-457
4980,144,-840,-816,84,-42,-478
4985,144,-904,-808,1,-29,-500
4990,176,-968,-840,-92,-16,-515
4995,128,-1016,-848,-197,-11,-524
5000,96,-1088,-848,-316,-12,-525
5005,32,-1160,-896,-439,-19,-516
5010,-8,-1160,-888,-560,-37,-502
5015,-32,-1224,-904,-673,-60,-481
5020,-112,-1272,-896,-780,-87,-454
5025,-176,-1304,-888,-874,-116,-426
5030,-232,-1328,-896,-946,-146,-402
5035,-240,-1328,-888,-1001,-177,-374
5040,-280,-1336,-896,-1026,-208,-346
5045,-248,-1384,-856,-1024,-240,-323
5050,-296,-1400,-808,-998,-276,-300
5055,-256,-1384,-864,-955,-309,-272
5060,-224,-1376,-824,-899,-342,-248
5065,-160,-1368,-800,-832,-376,-230
5070,-80,-1296,-816,-751,-410,-221
5075,-24,-1264,-864,-662,-444,-226
5080,56,-1192,-872,-570,-474,-233
5085,112,-1168,-848,-484,-502,-248
5090,192,-1152,-888,-405,-524,-266
5095,232,-1120,-912,-340,-539,-288
5100,264,-1088,-1032,-302,-551,-317
5105,224,-1104,-1040,-298,-558,-348
5110,168,-1112,-1104,-323,-551,-371
5115,64,-1176,-1096,-376,-533,-388
5120,16,-1280,-1088,-449,-503,-401
5125,-64,-1368,-1104,-536,-466,-414
5130,-184,-1432,-1096,-632,-433,-425
5135,-288,-1544,-1104,-724,-404,-432
5140,-400,-1632,-1080,-810,-383,-439
5145,-480,-1744,-1088,-883,-368,-440
5150,-512,-1840,-1104,-940,-363,-446
5155,-512,-1976,-1096,-978,-372,-451
5160,-552,-2056,-1136,-997,-388,-467
5165,-560,-2192,-1152,-992,-418,-495
5170,-464,-2216,-1264,-962,-480,-581
5175,-352,-2184,-1272,-935,-522,-606
5180,-264,-2272,-1272,-861,-545,-547
5185,-192,-2344,-1304,-748,-569,-519
5190,-64,-2448,-1336,-598,-579,-511
5195,-24,-2544,-1336,-423,-568,-506
5200,24,-2656,-1368,-225,-541,-515
5205,128,-2712,-1368,-24,-498,-531
5210,112,-2792,-1344,159,-451,-558
5215,368,-2736,-1480,285,-415,-598
5220,400,-2656,-1584,403,-319,-546
5225,448,-2624,-1648,531,-214,-503
5230,480,-2552,-1840,645,-135,-467
5235,536,-2472,-1976,717,-54,-435
5240,544,-2344,-2120,724,23,-405
5245,520,-2280,-2232,659,93,-372
5250,496,-2224,-2304,554,153,-336
5255,480,-2192,-2368,419,202,-291
5260,344,-2184,-2376,280,239,-238
5265,192,-2200,-2304,159,265,-178
5270,72,-2216,-2232,92,274,-109
5275,80,-2256,-2176,74,281,-34
5280,96,-2296,-2072,91,296,44
5285,120,-2288,-2080,123,339,109
5290,280,-2304,-2032,151,403,166
5295,416,-2224,-2032,158,482,205
5300,552,-2040,-2104,137,557,232
5305,600,-1848,-2136,97,620,248
5310,608,-1648,-2200,55,653,267
5315,536,-1480,-2232,27,649,291
5320,464,-1376,-2176,24,611,313
5325,416,-1296,-2128,49,556,326
5330,160,-1184,-2040,101,485,329
5335,-24,-1120,-2000,174,398,334
5340,-216,-992,-2000,264,301,343
5345,-328,-912,-1952,357,209,357
5350,-488,-816,-1904,444,133,366
5355,-608,-768,-1880,517,80,376
5360,-736,-672,-1896,567,54,377
5365,-856,-608,-1872,590,45,373
5370,-872,-624,-1856,590,44,359
5375,-872,-696,-1776,567,55,340
5380,-912,-792,-1632,547,78,318
5385,-816,-896,-1512,542,115,290
5390,-736,-984,-1480,560,160,252
5395,-632,-1024,-1448,563,213,196
5400,-512,-1112,-1440,539,263,138
5405,-392,-1160,-1464,487,306,89
5410,-288,-1216,-1440,413,344,50
5415,-232,-1224,-1472,325,372,26
5420,-128,-1280,-1552,219,387,8
5425,-72,-1328,-1536,94,392,-4
5430,-64,-1352,-1656,-35,387,3
5435,0,-1424,-1752,-160,373,17
5440,0,-1416,-1800,-274,351,37
5445,0,-1488,-1832,-371,326,65
5450,-8,-1528,-1944,-438,301,101
5455,-8,-1544,-1920,-472,278,138
5460,-16,-1608,-1928,-476,252,175
5465,-32,-1576,-1872,-447,218,209
5470,-32,-1592,-1792,-384,180,235
5475,-24,-1552,-1744,-298,141,251
5480,16,-1584,-1712,-201,107,254
5485,-16,-1552,-1696,-114,79,248
5490,-8,-1496,-1640,-41,60,228
5495,-32,-1544,-1608,15,48,197
5500,-112,-1512,-1528,58,37,159
5505,-136,-1496,-1400,98,33,121
5510,-136,-1440,-1328,144,29,88
5515,-184,-1416,-1272,198,22,58
5520,-232,-1352,-1224,271,16,31
5525,-248,-1280,-1128,355,13,7
5530,-304,-1224,-1120,446,15,-11
5535,-280,-1224,-1056,539,22,-28
5540,-320,-1184,-1056,613,32,-34
5545,-320,-1184,-1024,671,44,-27
5550,-360,-1136,-1016,706,58,-14
5555,-344,-1072,-1040,725,70,-1
5560,-336,-1024,-1072,702,71,21
5565,-296,-992,-1064,641,69,56
5570,-280,-920,-1048,563,64,94
5575,-208,-920,-1056,468,58,141
5580,-184,-920,-1056,374,51,178
5585,-144,-888,-1072,291,39,194
5590,-104,-920,-1040,210,25,197
5595,-104,-920,-1088,136,10,194
5600,-120,-896,-1096,59,-3,193
5605,-96,-888,-1088,-17,-14,194
5610,-104,-824,-1080,-91,-22,196
5615,-72,-856,-1072,-188,-25,203
5620,-104,-904,-992,-246,-23,204
5625,-96,-864,-976,-276,-17,193
5630,-136,-864,-936,-298,-14,188
5635,-120,-896,-904,-310,-8,181
5640,-112,-896,-840,-314,0,176
5645,-112,-880,-776,-308,8,166
5650,-136,-896,-768,-295,25,155
5655,-104,-920,-688,-284,43,143
5660,-104,-904,-656,-272,69,132
5665,-128,-896,-656,-256,95,115
5670,-88,-888,-624,-234,124,95
5675,-104,-928,-624,-214,152,80
5680,-96,-912,-600,-187,183,57
5685,-88,-928,-600,-164,214,38
5690,-104,-920,-576,-142,242,19
5695,-96,-904,-560,-118,268,7
5700,-128,-904,-520,-85,293,1
5705,-152,-920,-576,-48,315,2
5710,-160,-912,-504,-9,334,11
5715,-176,-920,-552,28,353,28
5720,-184,-880,-576,59,371,48
5725,-208,-920,-624,75,389,74
5730,-192,-888,-720,75,407,108
5735,-152,-928,-776,53,421,141
5740,-96,-936,-896,12,433,173
5745,-88,-920,-960,-44,438,204
5750,-16,-936,-1032,-117,435,231
5755,-8,-944,-1160,-202,426,255
5760,40,-1008,-1240,-295,414,277
5765,104,-1048,-1224,-397,404,296
5770,128,-1096,-1296,-496,393,314
5775,176,-1208,-1312,-589,377,329
5780,176,-1336,-1312,-674,357,341
5785,200,-1392,-1352,-752,329,340
5790,168,-1672,-1296,-835,297,361
5795,112,-1736,-1328,-863,254,336
5800,24,-1864,-1344,-884,197,302
5805,-72,-2032,-1280,-904,134,286
5810,-240,-2216,-1248,-908,61,280
5815,-392,-2320,-1216,-888,-19,282
5820,-536,-2392,-1224,-835,-105,294
5825,-704,-2480,-1240,-752,-195,308
5830,-832,-2536,-1216,-645,-279,329
5835,-968,-2600,-1216,-526,-351,342
5840,-1024,-2616,-1176,-400,-407,355
5845,-1088,-2616,-1168,-273,-448,356
5850,-1088,-2608,-1080,-140,-473,348
5855,-1096,-2560,-1056,9,-488,331
5860,-1040,-2496,-1032,162,-487,304
5865,-976,-2472,-1032,299,-471,269
5870,-808,-2432,-1096,414,-450,230
5875,-632,-2400,-1192,500,-432,184
5880,-408,-2312,-1400,544,-428,134
5885,-192,-2184,-1640,545,-444,78
5890,-88,-1960,-1880,490,-475,2
5895,-24,-1712,-2120,392,-508,-65
5900,-32,-1464,-2416,273,-533,-137
5905,-112,-1272,-2536,144,-548,-223
5910,-232,-1144,-2680,32,-547,-308
5915,-384,-1104,-2728,-37,-538,-373
5920,-624,-1144,-2896,-91,-519,-410
5925,-696,-1336,-2976,-185,-490,-389
5930,-704,-1432,-3112,-343,-471,-362
5935,-720,-1464,-3184,-543,-481,-344
5940,-824,-1384,-3392,-750,-519,-339
5945,-960,-1280,-3536,-962,-582,-326
5950,-984,-1232,-3552,-1155,-653,-313
5955,-944,-1176,-3456,-1284,-724,-302
5960,-936,-1112,-3328,-1337,-762,-271
5965,-856,-1048,-3080,-1305,-774,-217
5970,-752,-1080,-2872,-1166,-764,-140
5975,-440,-1064,-2672,-972,-739,-70
5980,-216,-1016,-2424,-749,-707,-12
5985,-32,-960,-2304,-507,-674,32
5990,136,-952,-2200,-277,-654,74
5995,272,-960,-2112,-65,-639,105
6000,400,-936,-2048,123,-614,133
6005,480,-920,-1952,283,-569,157
6010,552,-880,-1960,407,-503,169
6015,608,-896,-1840,500,-419,169
6020,616,-848,-1768,582,-335,162
6025,664,-888,-1736,649,-252,155
6030,632,-976,-1752,693,-171,147
6035,624,-1040,-1720,721,-93,135
6040,544,-1096,-1688,740,-26,115
6045,464,-1216,-1648,754,26,92
6050,344,-1304,-1616,768,57,63
6055,192,-1384,-1584,782,78,29
6060,16,-1368,-1624,793,87,-4
6065,-144,-1360,-1656,789,104,-22
6070,-272,-1304,-1744,760,142,-27
6075,-312,-1312,-1768,697,208,-38
6080,-344,-1296,-1688,617,291,-61
6085,-368,-1344,-1624,546,372,-96
6090,-408,-1304,-1536,497,438,-133
6095,-384,-1336,-1456,479,480,-162
6100,-416,-1336,-1408,480,500,-184
6105,-408,-1344,-1376,478,498,-195
6110,-408,-1296,-1328,466,486,-195
6115,-352,-1288,-1304,443,467,-188
6120,-312,-1240,-1272,413,450,-172
6125,-264,-1192,-1200,388,429,-153
6130,-232,-1136,-1168,372,407,-133
6135,-176,-1136,-1104,363,390,-114
6140,-160,-1096,-1080,358,371,-95
6145,-112,-1064,-1016,360,353,-83
6150,-64,-1056,-968,371,339,-73
6155,-48,-1024,-968,390,327,-67
6160,16,-1032,-864,413,321,-66
6165,64,-1040,-856,443,318,-69
6170,112,-1056,-832,479,317,-76
6175,184,-1048,-808,525,318,-86
6180,208,-1088,-816,570,318,-93
6185,264,-1080,-776,613,317,-106
6190,280,-1072,-808,647,318,-121
6195,312,-1104,-760,671,324,-142
6200,344,-1112,-768,681,333,-163
6205,336,-1152,-768,680,345,-192
6210,312,-1192,-768,668,363,-214
6215,264,-1248,-736,644,389,-239
6220,208,-1280,-760,611,409,-262
6225,144,-1328,-712,569,423,-285
6230,8,-1416,-664,527,422,-303
6235,-104,-1440,-672,500,405,-315
6240,-152,-1504,-608,486,376,-320
6245,-272,-1560,-568,488,338,-322
6250,-368,-1568,-496,505,298,-314
6255,-416,-1584,-424,544,262,-298
6260,-456,-1616,-360,610,233,-273
6265,-424,-1632,-312,699,210,-243
6270,-400,-1592,-264,807,200,-205
6275,-264,-1576,-272,921,202,-171
6280,-168,-1520,-240,1031,220,-141
6285,-80,-1408,-240,1136,255,-108
6290,-16,-1296,-320,1233,301,-84
6295,56,-1192,-320,1323,347,-64
6300,144,-1112,-400,1403,401,-45
6305,128,-968,-512,1465,439,-26
6310,160,-840,-616,1515,466,-1
6315,184,-744,-680,1548,486,26
6320,240,-640,-760,1551,502,50
6325,336,-568,-888,1535,515,72
6330,344,-520,-896,1503,529,92
6335,424,-528,-872,1460,536,108
6340,456,-544,-928,1415,547,122
6345,552,-608,-800,1368,571,129
6350,552,-664,-760,1322,617,127
6355,544,-768,-704,1279,674,113
6360,536,-888,-608,1243,736,97
6365,512,-936,-608,1218,806,82
6370,456,-1032,-544,1198,883,67
6375,376,-1120,-576,1179,966,49
6380,248,-1160,-664,1152,1042,28
6385,88,-1216,-768,1110,1107,10
6390,-32,-1240,-792,1059,1156,5
6395,-200,-1216,-840,1010,1194,14
6400,-320,-1264,-896,967,1220,39
6405,-424,-1176,-872,931,1237,84
6410,-512,-1208,-840,884,1260,121
6415,-552,-1232,-800,845,1280,169
6420,-576,-1224,-648,811,1299,220
6425,-568,-1176,-576,792,1312,271
6430,-560,-1120,-480,786,1315,316
6435,-512,-1072,-480,783,1312,344
6440,-456,-1008,-472,788,1311,371
6445,-344,-968,-512,800,1313,405
6450,-224,-896,-544,809,1328,439
6455,-80,-856,-552,811,1359,470
6460,24,-760,-648,810,1411,500
6465,256,-808,-640,795,1488,516
6470,360,-720,-624,782,1591,525
6475,512,-696,-696,770,1702,529
6480,656,-696,-736,757,1811,535
6485,776,-688,-816,710,1914,528
6490,800,-824,-744,624,2008,485
6495,896,-880,-736,593,2051,493
6500,968,-896,-888,572,2060,522
6505,928,-920,-872,526,2074,519
6510,856,-848,-936,465,2107,489
6515,760,-928,-968,430,2154,472
6520,648,-960,-976,421,2214,488
6525,520,-896,-1072,414,2284,504
6530,464,-904,-1096,393,2359,509
6535,360,-856,-1192,367,2424,520
6540,160,-832,-1240,302,2492,522
6545,40,-848,-1256,219,2566,525
6550,-56,-832,-1232,136,2633,529
6555,-192,-920,-1144,56,2688,525
6560,-272,-904,-1088,27,2714,538
6565,-328,-848,-1056,4,2725,550
6570,-344,-768,-1032,-27,2720,538
6575,-344,-720,-928,-62,2697,527
6580,-456,-616,-880,-113,2670,527
6585,-456,-600,-736,-191,2623,519
6590,-408,-632,-584,-230,2544,508
6595,-368,-616,-584,-228,2437,500
6600,-392,-608,-520,-255,2331,480
6605,-440,-576,-456,-314,2238,484
6610,-440,-664,-296,-393,2167,540
6615,-536,-936,-192,-422,2107,663
6620,-496,-928,-328,-374,2011,677
6625,-472,-848,-488,-339,1955,642
6630,-488,-864,-544,-354,1937,624
6635,-472,-832,-712,-382,1930,608
6640,-464,-816,-928,-426,1915,582
6645,-448,-800,-936,-492,1895,542
6650,-416,-824,-936,-561,1862,494
6655,-360,-840,-968,-609,1826,456
6660,-248,-728,-1128,-648,1804,420
6665,-200,-576,-1288,-737,1802,371
6670,-176,-488,-1504,-835,1796,325
6675,-288,-448,-1992,-973,1772,296
6680,-400,-424,-2776,-1192,1711,289
6685,-744,-408,-3624,-1574,1610,297
6690,-1240,-472,-4328,-2107,1427,323
6695,-1520,-704,-4680,-2737,1166,372
6700,-2016,-1216,-5200,-3414,870,423
6705,-2552,-2008,-5816,-4104,567,477
6710,-3176,-2768,-6528,-4767,339,549
6715,-3688,-3352,-7024,-5406,242,665
6720,-4144,-3872,-7256,-6005,187,811
6725,-3928,-4336,-7632,-6401,-27,892
6730,-2872,-4352,-7696,-6665,-306,752
6735,-1600,-4024,-7432,-6876,-497,447
6740,-360,-4448,-7240,-7003,-434,89
6745,600,-5256,-6840,-7054,34,-469
6750,1232,-4064,-5664,-6867,945,-1033
6755,2264,-968,-3536,-6490,1950,-1103
6760,3368,-448,-2272,-5794,2789,-1040
6765,4800,-488,-1432,-4896,3289,-941
6770,5768,-392,-800,-3991,3586,-903
6775,6488,96,-360,-3193,3683,-896
6780,6880,496,-440,-2655,3577,-876
6785,6520,576,-784,-2464,3397,-780
6790,5328,408,-704,-2605,3219,-562
6795,3728,-296,-936,-2801,3039,-164
6800,2560,-1008,-1296,-3016,2876,250
6805,1808,-1552,-1616,-3398,2803,628
6810,1168,-1912,-1688,-3916,2821,914
6815,744,-2000,-1752,-4379,2861,1078
6820,272,-2104,-1768,-4740,2884,1111
6825,-80,-2088,-1744,-5020,2880,1029
6830,-368,-2144,-1648,-5206,2868,890
6835,-544,-2056,-1448,-5276,2856,689
6840,-560,-2064,-1376,-5204,2843,422
6845,-536,-1920,-1304,-4976,2836,102
6850,-536,-1936,-1208,-4599,2833,-233
6855,-440,-1880,-1120,-4127,2832,-585
6860,-312,-1840,-1112,-3611,2827,-949
6865,-160,-1808,-1104,-3102,2807,-1277
6870,-72,-1840,-1112,-2639,2763,-1553
6875,-16,-1792,-1064,-2211,2695,-1771
6880,8,-1752,-960,-1836,2623,-1935
6885,104,-1720,-928,-1498,2554,-2043
6890,128,-1656,-776,-1193,2492,-2097
6895,320,-1640,-616,-914,2449,-2101
6900,408,-1568,-480,-642,2417,-2069
6905,496,-1488,-392,-377,2388,-2011
6910,624,-1400,-352,-128,2367,-1929
6915,776,-1280,-280,99,2370,-1829
6920,968,-1184,-344,302,2391,-1735
6925,1112,-1160,-400,472,2411,-1652
6930,1328,-1064,-464,599,2419,-1590
6935,1424,-1016,-456,664,2428,-1554
6940,1600,-928,-536,697,2419,-1538
6945,1664,-824,-552,704,2387,-1525
6950,1736,-720,-536,698,2348,-1514
6955,1808,-672,-536,707,2303,-1510
6960,1840,-632,-568,749,2273,-1496
6965,2080,-720,-616,845,2271,-1465
6970,2224,-800,-912,998,2307,-1397
6975,2144,-728,-1128,1149,2342,-1304
6980,1960,-584,-1192,1331,2463,-1299
6985,1904,-432,-1160,1630,2655,-1374
6990,1984,-520,-1272,2032,2902,-1465
6995,1856,-472,-1472,2504,3218,-1546
7000,1880,-360,-1616,2791,3530,-1623
7005,1568,-640,-1744,2824,3726,-1696
7010,2288,-336,-1976,2779,3774,-1749
7015,2200,-8,-1992,2448,3855,-1928
7020,2888,456,-2176,1891,3683,-1995
7025,1064,1312,-2200,1184,3338,-2145
7030,376,632,-2296,456,2654,-1969
7035,5696,3264,-1080,-368,2487,-2166
7040,5624,3944,-1600,-996,2530,-2759
7045,6248,3960,-720,-1960,2849,-2726
7050,5072,3872,-1552,-2350,2743,-3084
7055,5448,4368,-1680,-2713,2428,-3289
7060,2112,1568,-680,-2903,2118,-2922
7065,1920,-80,-912,-2548,1855,-2419
7070,4128,856,-1496,-2330,2001,-2413
7075,4728,1520,-1224,-2354,2336,-2726
7080,5840,2040,-1392,-2267,2503,-2859
7085,6736,2544,-2376,-2031,2542,-2818
7090,6552,2264,-2872,-2022,2580,-2729
7095,6088,2432,-2440,-2179,2683,-2613
7100,5984,3064,-2088,-2427,2767,-2469
7105,5192,2432,-1184,-2675,2709,-2229
7110,4744,1584,-656,-2464,2331,-1868
7115,4208,1184,-480,-1808,1826,-1551
7120,3584,1232,-512,-1019,1335,-1366
7125,3080,1304,-448,-306,833,-1278
7130,2600,1304,-296,308,342,-1175
7135,1952,1320,-40,787,-88,-1047
7140,1728,1024,352,1098,-498,-885
7145,1544,928,392,1422,-852,-723
7150,1816,800,520,1658,-1129,-555
7155,1888,640,552,1879,-1313,-307
7160,1616,872,392,1964,-1508,-176
7165,1384,616,360,1820,-1785,-226
7170,1024,712,344,1813,-1948,-296
7175,416,824,264,1749,-2106,-347
7180,-104,640,304,1514,-2287,-314
7185,-360,312,320,1245,-2466,-238
7190,-584,272,312,1036,-2576,-242
7195,-584,256,376,765,-2635,-301
7200,-376,320,352,526,-2646,-327
7205,-224,464,232,277,-2611,-393
7210,-160,552,208,-21,-2561,-487
7215,32,440,200,-283,-2488,-584
7220,32,504,16,-366,-2362,-754
7225,216,648,-104,-329,-2229,-898
7230,376,680,-280,-209,-2109,-998
7235,592,888,-480,-34,-1971,-1080
7240,992,1072,-616,86,-1833,-1100
7245,1552,1320,-600,119,-1721,-1071
7250,2096,1464,-688,180,-1675,-1044
7255,2176,1480,-728,260,-1674,-1069
7260,2216,1504,-696,288,-1661,-1099
7265,2384,1464,-608,269,-1629,-1104
7270,2544,1512,-560,196,-1572,-1084
7275,2712,1568,-560,100,-1498,-1057
7280,2640,1568,-432,-46,-1370,-1015
7285,2592,1504,-392,-212,-1241,-926
7290,2328,1544,-440,-407,-1127,-818
7295,2048,1680,-520,-628,-1015,-717
7300,1592,1432,-504,-824,-948,-647
7305,1480,1456,-688,-877,-934,-591
7310,1392,1392,-808,-796,-821,-525
7315,1456,1240,-776,-709,-684,-452
7320,1472,1328,-800,-637,-562,-389
7325,1496,1432,-760,-584,-463,-334
7330,1536,1448,-656,-562,-387,-286
7335,1664,1496,-624,-580,-334,-244
7340,1672,1432,-568,-632,-307,-245
7345,1680,1504,-536,-684,-301,-286
7350,1720,1304,-480,-750,-300,-365
7355,1824,1360,-576,-704,-291,-398
7360,1712,1232,-688,-564,-309,-456
7365,1712,1232,-928,-410,-368,-496
7370,1784,1368,-1080,-253,-385,-474
7375,1728,1536,-1344,-83,-479,-563
7380,1544,1536,-1352,26,-548,-599
7385,1488,1528,-1312,60,-590,-603
7390,1456,1608,-1216,67,-611,-599
7395,1680,1536,-1152,97,-611,-589
7400,1688,1592,-1064,165,-610,-582
7405,1728,1560,-1104,243,-642,-569
7410,1744,1592,-1064,331,-687,-570
7415,1672,1648,-1072,437,-760,-583
7420,1536,1592,-1024,601,-825,-596
7425,1368,1480,-1032,819,-863,-603
7430,1320,1376,-1104,1071,-863,-594
7435,1280,1240,-1128,1320,-826,-570
7440,1352,1152,-1312,1536,-760,-526
7445,1192,944,-1344,1697,-675,-470
7450,1136,808,-1416,1774,-602,-426
7455,1136,760,-1480,1781,-548,-396
7460,1064,800,-1512,1721,-520,-386
7465,1064,848,-1576,1598,-517,-386
7470,1128,936,-1552,1428,-534,-395
7475,1152,1024,-1616,1243,-557,-405
7480,1224,1040,-1456,1081,-574,-410
7485,1264,1064,-1416,959,-592,-419
7490,1248,1016,-1368,890,-613,-436
7495,1208,1064,-1336,869,-635,-451
7500,1248,1072,-1312,868,-648,-461
7505,1160,1112,-1312,885,-656,-475
7510,1088,1000,-1336,915,-654,-471
7515,1088,1000,-1352,940,-643,-467
7520,1008,920,-1392,965,-629,-458
7525,1032,952,-1472,968,-609,-443
7530,976,952,-1504,956,-593,-437
7535,936,768,-1560,952,-580,-436
7540,976,856,-1496,893,-534,-397
7545,1040,984,-1488,839,-508,-375
7550,1032,1008,-1424,799,-491,-377
7555,936,784,-1496,755,-451,-360
7560,912,880,-1504,670,-396,-331
7565,904,920,-1520,609,-395,-307
7570,856,888,-1600,557,-399,-293
7575,816,888,-1568,502,-393,-268
7580,840,920,-1608,443,-386,-247
7585,784,944,-1656,374,-389,-234
7590,792,992,-1688,305,-381,-214
7595,816,1008,-1776,234,-370,-184
7600,848,1008,-1808,160,-344,-155
7605,864,1024,-1792,92,-312,-124
7610,856,1064,-1848,35,-274,-99
7615,896,1056,-1864,-13,-232,-79
7620,880,1112,-1816,-56,-190,-59
7625,928,1112,-1792,-91,-145,-36
7630,904,1144,-1776,-119,-102,-11
7635,928,1112,-1752,-137,-61,15
7640,952,1160,-1704,-155,-22,37
7645,928,1192,-1688,-170,14,63
7650,984,1064,-1696,-178,49,85
7655,960,1048,-1656,-198,76,103
7660,976,1024,-1656,-217,101,117
7665,1000,976,-1624,-235,126,131
7670,1016,1016,-1584,-251,148,141
7675,1072,992,-1560,-258,172,153
7680,1072,992,-1520,-261,195,158
7685,1088,1016,-1536,-262,211,159
7690,1192,1072,-1480,-261,222,158
7695,1128,1000,-1440,-250,232,158
7700,1136,1024,-1496,-246,233,145
7705,1128,1040,-1464,-246,225,134
7710,1160,1008,-1464,-244,218,119
7715,1168,1016,-1440,-238,205,103
7720,1176,1000,-1456,-240,192,89
7725,1200,1096,-1456,-242,178,74
7730,1168,1016,-1464,-239,169,59
7735,1168,1024,-1536,-253,157,43
7740,1168,1048,-1544,-271,145,26
7745,1168,1016,-1520,-291,137,13
7750,1088,1064,-1584,-309,132,1
7755,1128,1064,-1552,-329,130,-10
7760,1136,1064,-1528,-349,132,-21
7765,1128,1064,-1480,-369,129,-30
7770,1120,1096,-1464,-386,127,-39
7775,1136,1064,-1464,-397,125,-45
7780,1136,1088,-1416,-396,124,-47
7785,1120,1080,-1368,-382,121,-53
7790,1120,1080,-1376,-360,117,-59
7795,1112,1080,-1352,-333,111,-64
7800,1160,1072,-1368,-295,105,-71
7805,1104,1088,-1352,-261,97,-81
7810,1128,1072,-1320,-233,84,-87
7815,1128,1088,-1344,-204,68,-92
7820,1128,1064,-1336,-179,50,-98
7825,1112,1064,-1304,-159,31,-104
7830,1104,1040,-1328,-138,14,-113
7835,1112,1040,-1344,-116,4,-121
7840,1064,1032,-1336,-96,-15,-128
7845,1096,1024,-1304,-79,-34,-133
7850,1064,1032,-1336,-63,-51,-138
7855,1072,1072,-1320,-48,-68,-142
7860,1080,1016,-1360,-39,-82,-149
7865,1080,1040,-1312,-31,-96,-151
7870,1064,1040,-1320,-24,-114,-154
7875,1064,1032,-1336,-15,-129,-152
7880,1016,1056,-1352,-6,-143,-155
7885,1024,1080,-1336,3,-159,-156
7890,1056,1080,-1352,12,-171,-155
7895,1040,1064,-1384,24,-183,-154
7900,1032,1096,-1368,35,-194,-154
7905,1024,1072,-1392,39,-206,-154
7910,1000,1088,-1352,48,-216,-154
7915,1000,1096,-1360,58,-223,-152
7920,992,1096,-1376,67,-230,-151
7925,1008,1120,-1360,76,-236,-154
7930,1016,1080,-1368,83,-244,-155
7935,1024,1088,-1408,90,-250,-153
7940,1016,1112,-1408,94,-255,-155
7945,1024,1112,-1384,102,-262,-157
7950,1016,1112,-1408,109,-267,-161
7955,1032,1128,-1408,112,-269,-162
7960,1008,1112,-1448,115,-274,-167
7965,984,1136,-1456,117,-275,-165
7970,992,1112,-1480,116,-275,-163
7975,992,1120,-1472,114,-274,-163
7980,976,1144,-1488,111,-269,-161
7985,984,1168,-1520,112,-260,-155
7990,976,1128,-1552,120,-246,-141
7995,976,1160,-1552,116,-233,-138
8000,944,1192,-1512,112,-219,-132
8005,936,1176,-1544,111,-202,-123
8010,952,1176,-1544,112,-182,-113
8015,960,1208,-1576,111,-160,-101
8020,968,1192,-1552,106,-143,-92
8025,984,1184,-1584,100,-124,-83
8030,976,1192,-1560,92,-106,-75
8035,1000,1128,-1584,89,-89,-64
8040,976,1176,-1592,82,-73,-61
8045,992,1136,-1544,62,-68,-63
8050,992,1160,-1568,50,-58,-63
8055,992,1160,-1576,39,-49,-59
8060,976,1160,-1560,31,-38,-55
8065,976,1144,-1552,23,-29,-51
8070,976,1144,-1520,18,-18,-46
8075,984,1128,-1576,16,-7,-43
8080,960,1128,-1520,13,1,-39
8085,968,1144,-1512,7,11,-36
8090,968,1104,-1472,2,21,-31
8095,968,1120,-1520,-5,28,-27
8100,944,1104,-1520,-9,36,-23
8105,968,1128,-1496,-13,44,-16
8110,960,1096,-1456,-14,51,-10
8115,944,1096,-1440,-18,61,-6
8120,960,1096,-1440,-20,70,-1
8125,936,1112,-1464,-20,79,4
8130,928,1104,-1472,-21,85,8
8135,952,1120,-1464,-19,92,11
8140,944,1128,-1448,-17,96,15
8145,968,1104,-1448,-14,99,17
8150,952,1136,-1432,-14,103,19
8155,960,1144,-1472,-13,105,21
8160,968,1128,-1464,-11,106,26
8165,968,1112,-1432,-7,107,29
8170,968,1128,-1456,-4,107,33
8175,960,1136,-1456,-2,105,36
8180,984,1144,-1424,0,103,37
8185,976,1128,-1392,6,101,40
8190,968,1144,-1392,12,95,41
8195,984,1120,-1472,17,91,43
8200,968,1120,-1416,21,85,42
8205,992,1144,-1432,26,78,39
8210,1000,1112,-1432,31,72,38
8215,992,1120,-1440,36,66,38
8220,1008,1128,-1416,42,60,34
8225,984,1160,-1440,47,54,31
8230,1000,1152,-1432,51,50,31
8235,1008,1112,-1400,54,44,28
8240,992,1136,-1432,57,39,24
8245,1024,1128,-1432,59,35,21
8250,1032,1112,-1432,61,30,17
8255,1000,1120,-1440,65,24,14
8260,1008,1136,-1440,68,20,12
8265,1008,1104,-1448,74,16,12
8270,1000,1120,-1464,78,16,10
8275,1000,1136,-1440,80,13,8
8280,1016,1120,-1408,83,11,4
8285,1016,1104,-1432,84,9,4
8290,1000,1144,-1496,84,7,-1
8295,1024,1128,-1440,86,4,-5
8300,1008,1120,-1448,87,3,-7
8305,1008,1104,-1456,88,2,-7
8310,1000,1120,-1480,88,2,-11
8315,1008,1128,-1456,86,0,-12
8320,1024,1112,-1456,83,-1,-15
8325,1008,1128,-1440,76,-4,-18
8330,992,1128,-1480,74,-5,-19
8335,1000,1120,-1464,71,-7,-21
8340,992,1096,-1464,71,-9,-22
8345,1000,1088,-1456,70,-10,-23
8350,960,1112,-1480,70,-12,-25
8355,984,1120,-1464,70,-13,-27
8360,1000,1112,-1472,69,-14,-27
8365,984,1104,-1472,68,-14,-28
8370,992,1080,-1480,66,-12,-28
8375,968,1128,-1448,63,-12,-29
8380,1000,1112,-1464,62,-12,-30
8385,992,1096,-1432,58,-13,-31
8390,992,1136,-1488,54,-13,-32
8395,1000,1088,-1416,50,-16,-30
8400,984,1128,-1424,46,-17,-32
8405,992,1104,-1456,47,-20,-33
8410,984,1128,-1464,47,-22,-33
8415,984,1128,-1456,47,-24,-33
8420,976,1120,-1456,47,-26,-35
8425,968,1128,-1464,48,-27,-35
8430,976,1120,-1440,49,-27,-35
8435,968,1144,-1448,50,-28,-33
8440,960,1128,-1432,51,-27,-31
8445,1000,1120,-1496,51,-28,-30
8450,992,1128,-1488,50,-28,-30
8455,992,1128,-1464,48,-27,-30
8460,976,1128,-1488,48,-27,-31
8465,976,1144,-1472,46,-27,-30
8470,992,1128,-1456,43,-28,-32
8475,992,1128,-1456,41,-28,-29
8480,992,1120,-1488,38,-28,-31
8485,992,1136,-1512,35,-27,-32
8490,984,1128,-1480,34,-28,-35
8495,992,1128,-1480,28,-29,-34
8500,992,1136,-1480,25,-26,-35
8505,976,1136,-1456,23,-28,-35
8510,984,1168,-1496,21,-29,-40
8515,1016,1096,-1456,17,-32,-41
8520,984,1112,-1456,15,-31,-43
8525,992,1128,-1456,11,-33,-46
8530,992,1120,-1464,6,-34,-49
8535,992,1120,-1488,1,-36,-49
8540,976,1136,-1456,-2,-37,-51
8545,984,1120,-1488,-5,-38,-52
8550,960,1152,-1448,-6,-40,-55
8555,992,1120,-1464,-8,-41,-58
8560,984,1120,-1488,-8,-41,-56
8565,968,1128,-1456,-8,-41,-58
8570,976,1136,-1488,-9,-43,-60
8575,984,1112,-1488,-10,-46,-61
8580,992,1136,-1464,-9,-47,-62
8585,984,1144,-1480,-9,-48,-63
8590,968,1128,-1464,-7,-48,-64
8595,984,1136,-1440,-8,-49,-64
8600,984,1128,-1480,-7,-48,-65
8605,984,1128,-1440,-5,-48,-64
8610,992,1136,-1456,-4,-49,-63
8615,960,1160,-1480,0,-50,-64
8620,1000,1136,-1448,4,-51,-62
8625,976,1168,-1464,9,-51,-61
8630,976,1152,-1464,13,-51,-61
8635,968,1120,-1432,15,-50,-61
8640,952,1144,-1448,19,-52,-61
8645,952,1136,-1456,22,-52,-59
8650,960,1144,-1456,26,-52,-58
8655,952,1128,-1472,28,-53,-57
8660,952,1128,-1448,31,-53,-56
8665,944,1144,-1464,32,-54,-53
8670,944,1144,-1448,36,-55,-55
8675,968,1120,-1456,39,-55,-54
8680,952,1144,-1440,39,-56,-54
8685,936,1160,-1440,39,-58,-55
8690,936,1160,-1488,40,-58,-56
8695,944,1160,-1480,40,-59,-54
8700,960,1168,-1456,40,-60,-55
8705,960,1144,-1464,41,-61,-56
8710,952,1160,-1464,41,-60,-54
8715,936,1192,-1480,41,-59,-55
8720,904,1176,-1480,40,-57,-54
8725,936,1176,-1448,39,-56,-52
8730,944,1192,-1464,38,-54,-51
8735,936,1152,-1520,39,-49,-49
8740,928,1160,-1512,38,-46,-46
8745,936,1176,-1464,38,-44,-45
8750,944,1152,-1480,37,-41,-42
8755,968,1152,-1480,39,-37,-39
8760,928,1176,-1480,37,-35,-37
8765,936,1176,-1496,37,-33,-36
8770,944,1192,-1488,39,-29,-33
8775,944,1152,-1472,43,-24,-29
8780,936,1176,-1512,45,-17,-24
8785,912,1216,-1488,45,-12,-24
8790,928,1176,-1472,45,-9,-21
8795,944,1176,-1472,46,-4,-19
8800,920,1192,-1488,45,1,-18
8805,920,1200,-1504,45,4,-17
8810,952,1160,-1488,44,7,-14
8815,952,1152,-1480,44,9,-13
8820,928,1168,-1456,44,12,-11
8825,944,1136,-1448,43,15,-11
8830,928,1200,-1488,43,16,-11
8835,928,1144,-1488,40,16,-13
8840,976,1168,-1496,40,17,-12
8845,952,1168,-1464,40,16,-11
8850,944,1168,-1504,41,16,-11
8855,936,1168,-1496,43,15,-11
8860,928,1168,-1472,45,14,-10
8865,944,1184,-1488,48,14,-8
8870,952,1184,-1504,50,14,-7
8875,936,1152,-1480,53,15,-5
8880,952,1176,-1512,54,17,-3
8885,904,1144,-1488,54,18,0
8890,968,1176,-1496,55,20,1
8895,944,1184,-1448,56,22,0
8900,936,1152,-1480,56,24,1
8905,952,1168,-1480,55,26,1
8910,952,1184,-1448,56,26,3
8915,928,1160,-1488,55,26,3
8920,952,1176,-1512,54,27,3
8925,936,1168,-1472,54,28,3
8930,944,1128,-1464,55,26,1
8935,928,1160,-1448,56,25,2
8940,944,1136,-1440,55,24,1
8945,944,1152,-1448,54,24,0
8950,928,1192,-1472,54,24,2
8955,928,1168,-1480,53,23,2
8960,944,1160,-1456,55,23,0
8965,944,1144,-1472,55,22,1
8970,944,1168,-1464,57,21,1
8975,936,1176,-1472,57,21,-1
8980,952,1144,-1480,57,19,1
8985,936,1168,-1456,58,18,0
8990,952,1152,-1464,59,18,2
8995,928,1168,-1488,57,17,0
9000,944,1128,-1464,58,17,-1
9005,960,1096,-1424,56,16,-4
9010,944,1144,-1464,56,14,-3
9015,920,1152,-1472,57,14,-4
9020,952,1136,-1480,53,13,-5
9025,944,1184,-1472,51,13,-5
9030,968,1152,-1472,49,13,-5
9035,936,1152,-1512,48,13,-7
9040,968,1152,-1496,46,13,-7
9045,928,1160,-1480,46,12,-8
9050,936,1152,-1520,47,11,-8
9055,944,1168,-1448,46,11,-9
9060,928,1144,-1480,43,12,-10
9065,960,1136,-1480,43,12,-11
9070,952,1128,-1456,42,12,-10
9075,936,1168,-1472,39,13,-10
9080,976,1120,-1480,37,13,-12
9085,952,1160,-1464,35,12,-12
9090,920,1168,-1456,35,13,-11
9095,968,1120,-1512,36,12,-13
9100,952,1144,-1464,35,11,-12
9105,944,1176,-1464,36,10,-12
9110,920,1184,-1496,36,10,-13
9115,952,1160,-1496,37,10,-11
9120,944,1160,-1448,38,11,-12
9125,928,1152,-1480,38,10,-12
9130,952,1136,-1440,41,11,-13
9135,952,1176,-1448,40,11,-13
9140,944,1144,-1448,42,9,-11
9145,960,1168,-1488,42,10,-11
9150,952,1136,-1448,42,10,-12
9155,952,1176,-1472,43,10,-12
9160,896,1168,-1440,45,10,-13
9165,888,1144,-1480,45,10,-12
9170,928,1152,-1472,45,11,-11
9175,960,1152,-1472,45,12,-11
9180,944,1168,-1504,44,11,-8
9185,944,1152,-1488,44,11,-9
9190,944,1168,-1480,44,13,-8
9195,936,1152,-1456,43,13,-9
9200,944,1152,-1464,45,13,-8
9205,952,1200,-1496,45,14,-7
9210,952,1184,-1448,46,14,-6
9215,928,1168,-1496,46,14,-6
9220,960,1152,-1464,47,16,-4
9225,960,1152,-1456,48,17,-4
9230,960,1152,-1440,48,16,-3
9235,968,1160,-1480,49,17,-3
9240,944,1160,-1464,50,18,-3
9245,952,1168,-1472,50,19,-2
9250,936,1136,-1496,50,20,-1
9255,928,1176,-1472,50,18,-1
9260,960,1168,-1472,52,19,-4
9265,936,1152,-1488,51,19,-3
9270,976,1136,-1488,51,19,-1
9275,936,1096,-1472,52,19,-2
9280,944,1160,-1480,51,20,0
9285,952,1160,-1488,52,20,0
9290,936,1168,-1448,51,21,-1
9295,952,1152,-1472,52,21,0
9300,936,1152,-1448,52,22,-1
9305,936,1168,-1440,53,23,1
9310,936,1152,-1496,52,22,0
9315,944,1176,-1472,53,22,-1
9320,928,1152,-1472,54,23,-1
9325,920,1176,-1536,53,24,1
9330,936,1176,-1480,51,24,-1
9335,952,1144,-1480,51,26,-1
9340,968,1144,-1464,52,26,2
9345,960,1144,-1480,50,27,1
9350,968,1144,-1464,51,26,2
9355,960,1168,-1464,51,26,2
9360,960,1160,-1472,50,27,1
9365,952,1144,-1472,50,27,0
9370,960,1160,-1456,52,26,2
9375,968,1128,-1464,51,26,1
9380,928,1144,-1464,50,26,0
9385,912,1176,-1472,49,25,1
9390,952,1160,-1472,49,25,0
9395,944,1160,-1480,49,23,0
9400,960,1136,-1432,49,24,2
9405,944,1144,-1488,49,25,-1
9410,944,1152,-1472,51,24,0
9415,944,1168,-1472,50,22,-2
9420,968,1160,-1448,48,22,-1
9425,952,1144,-1456,49,21,0
9430,952,1152,-1464,48,21,-1
9435,960,1160,-1488,48,21,-1
9440,960,1112,-1432,50,20,0
9445,952,1168,-1472,51,20,2
9450,960,1168,-1496,51,22,2
9455,928,1144,-1448,53,23,2
9460,944,1152,-1440,53,24,2
9465,952,1152,-1456,52,24,2
9470,960,1144,-1488,51,24,2
9475,936,1152,-1480,51,25,2
9480,968,1160,-1464,50,24,1
9485,952,1144,-1448,49,25,1
9490,944,1152,-1440,49,24,0
9495,944,1160,-1448,49,22,-2
9500,944,1120,-1472,45,21,-2
9505,952,1152,-1472,44,19,-4
9510,936,1160,-1448,45,17,-4
9515,944,1160,-1488,46,15,-5
9520,936,1160,-1432,48,14,-5
9525,976,1152,-1472,49,13,-6
9530,928,1160,-1472,49,12,-6
9535,944,1152,-1512,49,11,-7
9540,944,1160,-1504,50,11,-4
9545,944,1144,-1464,49,11,-5
9550,960,1160,-1448,49,13,-5
9555,944,1160,-1464,46,13,-4
9560,944,1144,-1472,45,14,-3
9565,968,1168,-1472,43,14,-4
9570,952,1152,-1504,43,14,-7
9575,944,1176,-1504,43,15,-5
9580,944,1152,-1472,42,14,-5
9585,984,1168,-1496,43,14,-6
9590,984,1184,-1472,41,15,-6
9595,960,1144,-1472,41,15,-8
9600,912,1128,-1464,40,14,-8
9605,960,1144,-1472,37,15,-8
9610,952,1144,-1472,38,15,-9
9615,960,1160,-1472,38,15,-7
9620,976,1168,-1504,38,17,-8
9625,952,1176,-1480,40,17,-8
9630,952,1152,-1464,39,15,-7
9635,968,1160,-1464,40,17,-8
9640,944,1144,-1488,41,17,-7
9645,944,1152,-1496,42,17,-7
9650,960,1152,-1488,44,17,-8
9655,928,1176,-1488,44,16,-9
9660,968,1160,-1432,45,16,-10
9665,960,1160,-1472,45,16,-8
9670,944,1160,-1448,44,15,-10
9675,960,1144,-1464,44,14,-8
9680,952,1136,-1448,44,14,-8
9685,952,1144,-1480,46,14,-9
9690,952,1160,-1456,46,14,-9
9695,936,1144,-1496,44,14,-11
9700,944,1160,-1488,44,13,-10
9705,952,1136,-1464,45,13,-9
9710,944,1104,-1408,46,15,-8
9715,952,1160,-1472,45,13,-7
9720,920,1176,-1440,45,13,-8
9725,952,1144,-1464,47,13,-9
9730,952,1144,-1480,49,13,-6
9735,960,1144,-1472,49,14,-5
9740,968,1152,-1464,51,14,-5
9745,936,1160,-1488,50,16,-6
9750,944,1152,-1472,51,17,-3
9755,952,1136,-1488,53,19,-2
9760,968,1136,-1480,56,20,-2
9765,944,1168,-1456,52,20,-2
9770,944,1144,-1408,50,20,-2
9775,976,1152,-1448,50,19,-4
9780,936,1144,-1456,50,19,-4
9785,944,1152,-1456,49,19,-3
9790,936,1168,-1472,49,19,-3
9795,968,1144,-1472,51,19,-4
9800,944,1176,-1440,50,20,-5
9805,952,1120,-1480,49,20,-4
9810,952,1152,-1424,48,19,-3
9815,952,1144,-1464,48,20,-2
9820,928,1176,-1448,48,19,-2
9825,960,1160,-1480,48,19,-2
9830,960,1152,-1424,48,20,-3
9835,936,1152,-1456,49,20,-3
9840,960,1152,-1448,49,19,-2
9845,960,1176,-1480,48,18,-3
9850,952,1160,-1488,48,19,-4
9855,968,1136,-1472,46,18,-4
9860,960,1160,-1448,46,18,-5
9865,952,1152,-1456,46,19,-4
9870,968,1176,-1472,47,19,-3
9875,984,1128,-1456,45,20,-3
9880,960,1160,-1480,45,20,-4
9885,960,1136,-1440,46,20,-3
9890,976,1168,-1456,44,19,-3
9895,968,1136,-1472,45,19,-5
9900,960,1160,-1448,45,19,-4
9905,944,1168,-1456,45,18,-4
9910,960,1128,-1480,46,18,-6
9915,944,1144,-1456,46,17,-4
9920,968,1136,-1448,46,17,-6
9925,960,1160,-1472,45,16,-6
9930,944,1192,-1456,46,15,-6
9935,968,1144,-1432,46,14,-7
9940,976,1168,-1472,47,13,-7
9945,968,1152,-1456,47,12,-7
9950,968,1160,-1472,48,12,-7
9955,968,1152,-1488,49,12,-7
9960,968,1152,-1480,48,12,-8
9965,968,1144,-1416,48,10,-10
9970,952,1160,-1456,48,11,-9
9975,968,1136,-1504,47,11,-9
9980,976,1144,-1488,48,11,-9
9985,960,1152,-1512,47,11,-10
9990,968,1160,-1472,47,11,-9
9995,960,1152,-1480,45,11,-8
10000,968,1168,-1472,46,12,-7
10005,976,1136,-1464,46,13,-7
10010,968,1152,-1464,46,11,-8
10015,968,1160,-1472,45,10,-9
10020,968,1168,-1448,45,9,-9
10025,944,1152,-1480,45,10,-9
10030,936,1152,-1456,44,11,-11
10035,960,1200,-1456,43,10,-10
10040,944,1128,-1512,43,11,-9
10045,968,1168,-1456,43,12,-9
10050,984,1128,-1440,42,10,-9
10055,968,1144,-1440,43,10,-7
10060,936,1160,-1456,44,11,-7
10065,968,1144,-1480,45,10,-7
10070,952,1136,-1448,43,10,-8
10075,984,1144,-1440,44,10,-8
10080,952,1160,-1464,44,11,-8
10085,960,1152,-1456,44,10,-9
10090,944,1184,-1488,44,11,-9
10095,984,1152,-1488,43,13,-7
10100,944,1176,-1440,44,13,-7
10105,960,1168,-1472,46,15,-7
10110,976,1168,-1488,46,15,-6
10115,960,1144,-1464,43,15,-6
10120,960,1152,-1472,41,16,-7
10125,952,1232,-1448,42,15,-7
10130,952,1152,-1464,48,16,-4
10135,968,1152,-1472,42,16,-4
10140,944,1136,-1480,41,15,-5
10145,944,1184,-1496,44,15,-6
10150,960,1144,-1456,47,15,-7
10155,968,1160,-1464,49,17,-5
10160,944,1168,-1440,49,17,-5
10165,968,1160,-1464,49,19,-3
10170,960,1168,-1448,50,18,-2
10175,968,1128,-1472,51,20,-1
10180,968,1144,-1440,51,22,-1
10185,944,1160,-1480,51,22,-1
10190,960,1152,-1472,51,22,0
10195,952,1160,-1456,49,21,-3
10200,984,1104,-1464,47,20,-5
10205,952,1168,-1448,49,20,-4
10210,952,1152,-1464,49,18,-5
10215,976,1144,-1448,52,17,-5
10220,976,1136,-1464,53,15,-4
10225,968,1152,-1448,54,13,-4
10230,968,1144,-1496,55,12,-6
10235,952,1136,-1456,58,11,-6
10240,976,1192,-1464,60,11,-7
10245,984,1160,-1480,61,13,-6
10250,960,1160,-1472,63,15,-6
10255,904,1144,-1368,66,17,-6
10260,952,1160,-1480,66,19,-4
10265,952,1160,-1480,68,21,-2
10270,960,1160,-1472,69,24,1
10275,936,1152,-1448,72,26,2
10280,968,1104,-1496,79,29,3
10285,976,1160,-1456,72,29,4
10290,952,1152,-1480,70,29,3
10295,976,1120,-1472,70,30,3
10300,960,1184,-1504,70,29,4
10305,984,1160,-1480,69,31,6
10310,952,1160,-1472,67,32,4
10315,968,1176,-1440,63,33,3
10320,968,1136,-1496,61,32,4
10325,968,1144,-1456,58,34,5
10330,976,1160,-1456,55,33,5
10335,984,1152,-1480,52,34,2
10340,968,1184,-1448,48,34,3
10345,992,1144,-1472,46,34,1
10350,976,1128,-1432,45,34,1
10355,984,1152,-1480,43,31,1
10360,960,1144,-1464,41,31,1
10365,992,1120,-1480,40,30,-2
10370,968,1152,-1464,38,29,-2
10375,952,1160,-1464,37,26,-3
10380,968,1152,-1432,38,23,-6
10385,960,1152,-1424,39,22,-5
10390,968,1136,-1440,40,21,-5
10395,984,1152,-1456,39,19,-8
10400,976,1136,-1464,38,17,-10
10405,968,1152,-1464,38,16,-10
10410,976,1112,-1448,39,13,-9
10415,984,1144,-1416,40,11,-10
10420,968,1128,-1464,42,8,-14
10425,984,1136,-1464,42,6,-15
10430,952,1160,-1456,45,6,-15
10435,992,1144,-1456,46,5,-15
10440,976,1168,-1432,45,6,-15
10445,960,1144,-1464,46,6,-14
10450,968,1160,-1416,47,6,-13
10455,968,1136,-1480,47,6,-15
10460,984,1144,-1448,47,5,-16
10465,976,1160,-1472,47,5,-16
10470,976,1152,-1488,47,3,-17
10475,960,1128,-1496,48,1,-15
10480,1024,1112,-1504,46,1,-17
10485,960,1128,-1432,46,1,-17
10490,984,1184,-1472,48,0,-18
10495,984,1152,-1504,48,2,-17
10500,952,1144,-1480,46,2,-18
10505,968,1120,-1456,45,3,-18
10510,944,1152,-1464,44,3,-16
10515,968,1152,-1480,45,3,-17
10520,960,1168,-1456,43,3,-16
10525,984,1152,-1472,42,3,-18
10530,984,1136,-1440,42,3,-18
10535,968,1152,-1456,41,2,-18
10540,952,1168,-1464,42,4,-19
10545,992,1144,-1480,43,5,-18
10550,968,1152,-1456,43,4,-18
10555,952,1168,-1448,44,4,-16
10560,960,1168,-1504,43,5,-16
10565,976,1136,-1472,43,4,-15
10570,976,1144,-1472,43,4,-17
10575,936,1144,-1456,44,5,-18
10580,936,1104,-1488,45,4,-18
10585,976,1128,-1488,44,4,-16
10590,968,1136,-1456,45,4,-16
10595,968,1160,-1440,45,6,-17
10600,976,1160,-1480,45,5,-16
10605,960,1160,-1464,44,6,-18
10610,968,1128,-1432,45,6,-17
10615,960,1144,-1440,46,5,-17
10620,976,1152,-1456,47,5,-17
10625,936,1152,-1464,47,4,-16
10630,952,1200,-1480,47,4,-17
10635,960,1152,-1488,47,4,-15
10640,968,1152,-1440,48,3,-16
10645,944,1184,-1456,48,4,-15
10650,960,1152,-1456,49,3,-15
10655,976,1160,-1456,49,2,-16
10660,960,1152,-1456,51,1,-16
10665,960,1160,-1464,50,4,-17
10670,976,1144,-1448,49,3,-17
10675,968,1144,-1464,49,3,-16
10680,968,1136,-1440,48,3,-16
10685,976,1144,-1464,48,5,-14
10690,984,1104,-1480,47,5,-15
10695,960,1168,-1472,47,4,-15
10700,952,1168,-1448,47,4,-16
10705,976,1168,-1464,46,5,-15
10710,984,1136,-1472,48,5,-17
10715,944,1160,-1456,46,5,-15
10720,960,1176,-1464,46,4,-16
10725,976,1152,-1456,47,4,-17
10730,968,1152,-1448,47,3,-17
10735,976,1144,-1440,47,3,-18
10740,952,1160,-1472,46,3,-16
10745,912,1088,-1440,46,5,-17
10750,952,1128,-1464,46,4,-18
10755,968,1136,-1456,46,4,-16
10760,952,1152,-1472,45,5,-15
10765,952,1168,-1448,46,4,-17
10770,952,1136,-1472,46,4,-18
10775,976,1168,-1464,46,5,-17
10780,984,1152,-1464,46,2,-17
10785,936,1120,-1520,46,3,-18
10790,928,1176,-1480,46,2,-16
10795,952,1128,-1424,46,3,-17
10800,936,1160,-1456,46,1,-19
10805,952,1144,-1440,46,2,-19
10810,984,1160,-1440,46,2,-20
10815,976,1160,-1496,46,2,-20
10820,952,1160,-1464,45,1,-22
10825,968,1160,-1472,46,-1,-19
10830,960,1160,-1448,45,-2,-21
10835,960,1152,-1464,46,-2,-21
10840,968,1176,-1456,47,-3,-22
10845,960,1128,-1448,45,-4,-22
10850,960,1168,-1464,44,-5,-24
10855,960,1096,-1408,45,-6,-24
10860,952,1152,-1464,45,-7,-24
10865,944,1144,-1448,43,-7,-25
10870,968,1152,-1464,43,-6,-25
10875,984,1144,-1456,46,-6,-23
10880,960,1160,-1488,49,-4,-23
10885,936,1184,-1464,51,-3,-22
10890,960,1160,-1440,53,-3,-22
10895,928,1168,-1472,52,-1,-22
10900,944,1160,-1456,51,-1,-19
10905,944,1168,-1480,50,-1,-20
10910,928,1136,-1512,50,1,-21
10915,944,1160,-1464,50,0,-20
10920,952,1128,-1448,48,0,-22
10925,960,1160,-1464,46,2,-23
10930,968,1144,-1480,45,0,-24
10935,968,1144,-1480,41,-2,-24
10940,944,1176,-1440,41,-5,-24
10945,944,1152,-1456,43,-6,-23
10950,944,1136,-1480,44,-9,-26
10955,968,1112,-1472,45,-11,-26
10960,936,1200,-1440,45,-11,-26
10965,920,1160,-1496,46,-13,-27
10970,952,1160,-1496,46,-12,-28
10975,968,1144,-1480,46,-11,-27
10980,960,1184,-1456,45,-9,-26
10985,976,1160,-1480,45,-8,-25
10990,960,1176,-1464,45,-8,-24
10995,944,1176,-1488,44,-7,-25
11000,928,1152,-1480,44,-7,-24
11005,952,1160,-1456,43,-7,-25
11010,936,1160,-1472,43,-7,-27
11015,952,1160,-1448,42,-6,-27
11020,952,1160,-1480,44,-6,-26
11025,960,1168,-1480,44,-7,-25
11030,960,1160,-1464,44,-7,-27
11035,936,1168,-1464,45,-8,-26
11040,952,1168,-1472,45,-8,-26
11045,952,1176,-1480,45,-8,-26
11050,944,1184,-1480,45,-8,-27
11055,952,1176,-1464,44,-7,-27
11060,968,1144,-1480,45,-6,-27
11065,944,1152,-1488,44,-6,-28
11070,928,1144,-1440,45,-6,-26
11075,960,1168,-1472,44,-6,-26
11080,952,1136,-1456,43,-5,-28
11085,968,1168,-1432,44,-6,-28
11090,960,1160,-1464,44,-6,-28
11095,944,1192,-1488,45,-6,-28
11100,920,1168,-1480,45,-6,-27
11105,952,1152,-1464,46,-7,-27
11110,976,1144,-1448,47,-6,-28
11115,928,1144,-1480,49,-7,-27
11120,928,1152,-1480,50,-8,-26
11125,912,1136,-1464,50,-9,-27
11130,936,1168,-1456,49,-10,-29
11135,936,1168,-1472,49,-9,-28
11140,944,1168,-1456,51,-9,-26
11145,960,1168,-1496,52,-9,-24
11150,968,1160,-1464,53,-9,-24
11155,952,1144,-1464,53,-10,-26
11160,944,1144,-1448,53,-9,-25
11165,952,1168,-1472,53,-7,-24
11170,952,1152,-1488,54,-6,-24
11175,944,1192,-1512,53,-5,-24
11180,912,1168,-1504,49,-5,-23
11185,952,1136,-1488,47,-5,-23
11190,952,1152,-1464,47,-5,-23
11195,952,1160,-1496,47,-4,-23
11200,960,1136,-1480,46,-8,-25
11205,936,1144,-1480,46,-8,-26
11210,928,1168,-1480,45,-7,-24
11215,928,1152,-1512,46,-7,-24
11220,944,1168,-1488,46,-7,-24
11225,944,1152,-1456,46,-8,-25
11230,936,1184,-1496,46,-7,-24
11235,960,1144,-1464,46,-8,-26
11240,928,1184,-1480,45,-8,-25
11245,944,1152,-1472,47,-8,-24
11250,936,1176,-1480,46,-10,-22
11255,912,1168,-1456,45,-9,-22
11260,944,1168,-1472,46,-11,-22
11265,936,1192,-1480,47,-12,-23
11270,912,1192,-1464,49,-11,-23
11275,952,1184,-1464,50,-12,-25
11280,936,1176,-1440,51,-12,-24
11285,936,1160,-1472,51,-13,-23
11290,896,1176,-1472,51,-12,-25
11295,936,1168,-1448,51,-12,-24
11300,928,1160,-1480,52,-11,-26
11305,944,1176,-1448,51,-12,-26
11310,928,1160,-1464,51,-12,-26
11315,952,1168,-1488,53,-12,-27
11320,920,1168,-1464,51,-12,-26
11325,936,1168,-1464,51,-11,-26
11330,936,1192,-1472,50,-10,-25
11335,952,1120,-1456,52,-10,-27
11340,960,1152,-1424,50,-10,-26
11345,888,1184,-1480,51,-9,-24
11350,936,1168,-1464,49,-10,-23
11355,920,1160,-1472,50,-9,-25
11360,920,1160,-1448,51,-11,-26
11365,928,1176,-1464,52,-10,-24
11370,936,1160,-1496,52,-9,-23
11375,928,1176,-1504,51,-9,-22
11380,920,1168,-1480,51,-8,-22
11385,936,1152,-1480,50,-7,-22
11390,944,1152,-1472,49,-5,-22
11395,936,1160,-1464,48,-5,-21
11400,936,1160,-1376,48,-3,-19
11405,920,1152,-1496,47,-2,-19
11410,936,1192,-1488,46,-3,-19
11415,912,1168,-1464,46,-2,-18
11420,928,1192,-1480,46,-1,-17
11425,920,1168,-1472,46,1,-17
11430,920,1184,-1480,48,2,-17
11435,952,1192,-1504,48,2,-17
11440,928,1136,-1464,47,3,-15
11445,904,1168,-1456,47,3,-15
11450,928,1144,-1528,48,6,-14
11455,920,1160,-1464,48,7,-13
11460,928,1168,-1488,48,9,-11
11465,920,1184,-1488,49,10,-11
11470,904,1160,-1488,50,12,-10
11475,928,1184,-1472,49,12,-9
11480,920,1168,-1472,50,13,-8
11485,936,1160,-1456,51,14,-7
11490,920,1208,-1488,50,17,-7
11495,928,1168,-1440,51,16,-6
11500,960,1168,-1480,51,15,-6
11505,912,1168,-1432,51,17,-5
11510,944,1152,-1464,49,17,-6
11515,912,1160,-1464,50,17,-5
11520,928,1160,-1472,52,17,-5
11525,936,1144,-1480,51,17,-6
11530,920,1184,-1480,50,17,-5
11535,928,1160,-1440,51,17,-5
11540,936,1152,-1488,53,17,-3
11545,944,1168,-1496,54,19,-2
11550,936,1192,-1504,53,21,-2
11555,920,1184,-1496,52,20,-3
11560,928,1168,-1520,52,21,-2
11565,936,1176,-1456,53,22,0
11570,904,1176,-1472,53,23,1
11575,920,1168,-1504,55,25,1
11580,936,1160,-1480,54,26,3
11585,936,1168,-1480,54,27,4
11590,936,1152,-1480,54,27,3
11595,928,1176,-1488,54,28,3
11600,904,1160,-1432,53,27,3
11605,944,1152,-1480,53,30,5
11610,912,1192,-1496,54,31,4
11615,904,1152,-1464,53,30,5
11620,936,1152,-1472,53,30,5
11625,928,1160,-1472,52,30,5
11630,936,1160,-1440,49,30,3
11635,912,1152,-1488,49,28,2
11640,920,1152,-1464,47,29,2
11645,952,1136,-1472,46,28,1
11650,944,1136,-1464,46,26,0
11655,912,1192,-1464,47,23,-1
11660,952,1184,-1472,48,21,-3
11665,952,1160,-1440,49,19,-3
11670,904,1120,-1496,50,18,-4
11675,920,1176,-1480,50,18,-3
11680,920,1200,-1504,50,17,-2
11685,944,1144,-1496,50,18,-2
11690,944,1168,-1472,49,19,-2
11695,920,1184,-1456,50,20,-1
11700,944,1160,-1464,49,22,0
11705,936,1152,-1448,48,24,-2
11710,960,1184,-1456,47,24,-2
11715,936,1184,-1504,47,25,-2
11720,944,1192,-1480,46,24,-2
11725,928,1128,-1456,47,24,-1
11730,936,1168,-1472,46,24,-1
11735,944,1184,-1488,45,25,-4
11740,936,1168,-1504,45,24,-3
11745,944,1160,-1488,43,23,-3
11750,936,1160,-1480,45,24,-3
11755,928,1168,-1480,47,24,-3
11760,928,1184,-1480,47,25,-2
11765,936,1160,-1448,48,25,-2
11770,944,1192,-1464,47,24,0
11775,912,1152,-1424,48,25,-1
11780,960,1160,-1480,48,26,-2
11785,952,1152,-1464,46,25,-2
11790,928,1168,-1472,46,26,-2
11795,936,1160,-1464,45,26,-1
11800,936,1152,-1496,45,26,0
11805,928,1160,-1464,47,26,0
11810,936,1160,-1464,49,27,0
11815,944,1152,-1448,49,26,-2
11820,936,1176,-1432,50,26,0
11825,920,1184,-1448,50,24,0
11830,944,1152,-1464,50,26,1
11835,896,1168,-1480,48,24,1
11840,936,1152,-1480,47,24,1
11845,944,1160,-1480,48,24,1
11850,920,1152,-1472,50,24,1
11855,920,1160,-1480,53,25,1
11860,944,1152,-1456,52,25,2
11865,944,1152,-1456,51,26,2
11870,936,1152,-1480,50,27,1
11875,944,1168,-1456,51,28,1
11880,960,1160,-1480,49,29,2
11885,920,1168,-1528,48,28,5
11890,968,1192,-1440,47,28,4
11895,936,1160,-1472,46,28,3
11900,944,1184,-1472,47,28,4
11905,936,1168,-1472,47,29,3
11910,944,1160,-1496,48,28,3
11915,952,1168,-1496,49,28,3
11920,952,1160,-1472,48,28,4
11925,944,1160,-1472,47,28,3
11930,920,1184,-1456,48,29,3
11935,952,1168,-1432,48,29,2
11940,936,1144,-1432,47,28,3
11945,960,1152,-1480,47,29,2
11950,960,1152,-1472,46,27,1
11955,968,1160,-1480,47,29,1
11960,952,1160,-1464,47,27,1
11965,944,1184,-1448,48,27,1
11970,960,1152,-1480,48,27,0
11975,936,1176,-1456,48,26,0
11980,960,1152,-1488,48,27,0
11985,936,1152,-1448,48,26,2
11990,928,1160,-1464,48,26,1
11995,960,1144,-1464,49,24,0
12000,912,1144,-1464,47,24,-1
12005,944,1168,-1472,47,23,0
12010,952,1160,-1440,48,24,1
12015,960,1160,-1488,48,23,-1
12020,936,1160,-1480,50,23,-3
12025,968,1136,-1472,49,21,-2
12030,944,1192,-1472,49,21,-3
12035,936,1168,-1456,49,21,-4
12040,952,1160,-1472,49,19,-3
12045,952,1160,-1472,50,19,-3
12050,952,1152,-1472,51,19,-3
12055,984,1144,-1480,51,19,-4
12060,936,1152,-1472,51,18,-5
12065,936,1152,-1480,51,18,-4
12070,952,1152,-1440,51,16,-5
12075,952,1144,-1472,52,18,-6
12080,952,1160,-1472,52,18,-4
12085,960,1184,-1448,51,17,-6
12090,952,1176,-1488,49,17,-7
12095,912,1152,-1448,49,18,-5
12100,960,1152,-1480,48,18,-7
12105,912,1160,-1504,49,19,-5
12110,952,1144,-1472,49,19,-4
12115,952,1160,-1472,48,19,-3
12120,944,1176,-1480,46,20,-4
12125,952,1168,-1472,46,22,-5
12130,944,1152,-1440,47,19,-3
12135,944,1144,-1472,46,20,-2
12140,928,1136,-1480,44,19,-4
12145,944,1168,-1456,46,20,-3
12150,936,1160,-1480,44,22,-2
12155,952,1152,-1472,44,21,-2
12160,952,1152,-1464,45,21,-3
12165,976,1136,-1456,44,24,-1
12170,952,1176,-1488,46,23,-2
12175,968,1144,-1456,46,23,-1
12180,952,1168,-1448,46,24,-1
12185,952,1144,-1464,45,24,-2
12190,928,1160,-1480,46,24,0
12195,952,1160,-1464,47,24,0
12200,928,1152,-1448,46,23,-2
12205,960,1152,-1456,45,24,-2
12210,944,1176,-1488,47,24,-1
12215,928,1208,-1424,47,23,0
12220,968,1160,-1456,47,22,-2
12225,960,1160,-1480,47,23,-2
12230,944,1160,-1448,46,23,-3
12235,960,1160,-1464,45,22,-3
12240,968,1152,-1488,46,22,-2
12245,936,1168,-1456,48,23,-3
12250,952,1120,-1480,47,22,-4
12255,960,1152,-1448,48,21,-2
12260,944,1168,-1464,47,19,-3
12265,944,1168,-1488,47,20,-5
12270,912,1128,-1480,46,18,-3
12275,952,1160,-1504,47,19,-4
12280,960,1168,-1440,48,19,-5
12285,944,1160,-1472,50,19,-1
12290,944,1152,-1488,53,19,0
12295,968,1144,-1464,52,21,-2
12300,944,1160,-1424,53,21,0
12305,944,1176,-1464,54,23,0
12310,936,1144,-1440,53,25,3
12315,944,1136,-1488,52,26,2
12320,976,1144,-1456,51,27,2
12325,944,1144,-1456,50,27,3
12330,952,1160,-1448,49,28,3
12335,960,1136,-1480,47,29,2
12340,968,1160,-1472,47,28,3
12345,944,1136,-1464,47,27,1
12350,952,1168,-1448,48,26,0
12355,960,1128,-1464,49,27,0
12360,976,1152,-1456,50,26,0
12365,960,1160,-1464,53,25,2
12370,944,1176,-1488,53,24,3
12375,920,1168,-1464,53,25,2
12380,992,1160,-1504,53,28,2
12385,944,1152,-1472,53,31,7
12390,968,1168,-1496,53,35,9
12395,968,1176,-1504,51,37,10
12400,968,1136,-1448,49,37,8
12405,984,1160,-1472,46,39,8
12410,960,1176,-1488,45,39,9
12415,976,1152,-1480,45,39,8
12420,960,1160,-1488,45,39,7
12425,992,1168,-1480,44,41,7
12430,968,1136,-1432,44,40,8
12435,928,1160,-1400,45,40,8
12440,968,1168,-1464,45,40,8
12445,976,1184,-1496,43,42,9
12450,968,1168,-1496,43,42,9
12455,968,1168,-1480,44,41,8
12460,968,1168,-1496,44,43,8
12465,968,1160,-1432,41,44,9
12470,968,1128,-1464,41,44,9
12475,976,1136,-1440,39,43,10
12480,960,1136,-1464,37,43,8
12485,960,1160,-1448,36,42,9
12490,976,1104,-1432,35,42,8
12495,968,1144,-1440,34,42,9
12500,960,1160,-1440,34,42,7
12505,960,1152,-1464,36,40,6
12510,984,1144,-1448,37,38,4
12515,936,1184,-1464,38,36,6
12520,984,1168,-1424,40,34,3
12525,952,1160,-1440,42,32,3
12530,968,1168,-1432,43,30,1
12535,960,1144,-1448,42,29,0
12540,968,1152,-1464,43,27,1
12545,944,1120,-1488,43,25,-2
12550,968,1136,-1456,45,23,-3
12555,984,1136,-1456,46,22,-2
12560,968,1144,-1456,44,20,-3
12565,968,1152,-1464,45,19,-4
12570,984,1144,-1440,48,17,-5
12575,960,1152,-1464,50,17,-5
12580,976,1160,-1472,50,18,-4
12585,960,1168,-1464,51,17,-3
12590,968,1144,-1480,51,16,-2
12595,984,1152,-1408,51,17,-5
12600,960,1208,-1472,51,17,-3
12605,1000,1144,-1456,51,17,-5
12610,976,1136,-1448,49,17,-4
12615,952,1136,-1456,47,16,-5
12620,968,1160,-1464,48,16,-4
12625,992,1144,-1456,50,18,-4
12630,968,1168,-1448,50,17,-5
12635,936,1152,-1464,52,17,-4
12640,984,1136,-1456,53,18,-5
12645,960,1144,-1440,53,18,-4
12650,936,1160,-1496,51,17,-4
12655,960,1168,-1472,51,17,-5
12660,944,1176,-1464,51,19,-4
12665,936,1168,-1496,49,18,-5
12670,968,1160,-1480,49,19,-5
12675,984,1144,-1472,49,17,-4
12680,984,1144,-1440,48,19,-5
12685,968,1152,-1448,48,18,-6
12690,960,1152,-1480,48,18,-6
12695,976,1160,-1456,48,17,-6
12700,960,1184,-1488,48,18,-6
12705,984,1136,-1512,48,17,-6
12710,960,1160,-1448,48,17,-5
12715,960,1152,-1456,49,17,-5
12720,968,1152,-1456,49,18,-7
12725,976,1144,-1480,49,17,-5
12730,960,1184,-1432,49,16,-8
12735,952,1160,-1472,51,17,-8
12740,984,1176,-1424,50,17,-6
12745,960,1144,-1472,48,15,-7
12750,976,1160,-1432,49,14,-7
12755,976,1136,-1472,50,14,-6
12760,928,1136,-1408,50,13,-7
12765,976,1136,-1432,50,13,-7
12770,976,1160,-1448,49,12,-7
12775,952,1168,-1464,49,11,-9
12780,984,1120,-1448,49,11,-10
12785,968,1168,-1448,50,10,-10
12790,944,1176,-1448,49,11,-11
12795,984,1152,-1440,50,11,-10
12800,952,1152,-1440,51,10,-9
12805,968,1144,-1480,50,10,-10
12810,960,1184,-1496,49,10,-10
12815,976,1152,-1456,49,11,-12
12820,976,1136,-1456,50,11,-9
12825,992,1160,-1464,50,10,-9
12830,968,1160,-1440,49,10,-10
12835,976,1144,-1480,49,10,-11
12840,984,1160,-1456,49,11,-10
12845,976,1144,-1464,49,10,-9
12850,1000,1160,-1464,48,11,-9
12855,952,1152,-1488,47,12,-10
12860,976,1160,-1456,47,11,-11
12865,968,1160,-1440,47,12,-10
12870,944,1168,-1520,46,11,-11
12875,1000,1160,-1432,47,12,-11
12880,992,1096,-1432,47,11,-10
12885,1008,1216,-1480,48,12,-10
12890,1008,1192,-1456,48,13,-11
12895,984,1160,-1504,48,12,-12
12900,976,1168,-1432,48,13,-12
12905,944,1224,-1472,48,11,-10
12910,992,1136,-1448,48,11,-13
12915,976,1144,-1440,47,11,-11
12920,960,1136,-1440,47,11,-12
12925,944,1152,-1496,47,11,-11
12930,928,1128,-1456,46,10,-11
12935,968,1160,-1472,47,10,-12
12940,976,1184,-1440,47,9,-13
12945,928,1144,-1480,46,9,-14
12950,976,1168,-1504,46,9,-13
12955,920,1160,-1464,47,9,-12
12960,992,1192,-1456,46,8,-12
12965,968,1192,-1472,47,8,-15
12970,936,1184,-1496,48,8,-13
12975,968,1176,-1464,48,6,-12
12980,912,1136,-1472,46,8,-13
12985,936,1160,-1448,47,7,-12
12990,984,1128,-1384,45,8,-15
12995,992,1144,-1480,45,7,-15
13000,936,1152,-1464,44,6,-15
13005,944,1160,-1440,44,4,-15
13010,944,1152,-1424,47,6,-13
13015,976,1136,-1440,49,7,-15
13020,984,1144,-1432,49,6,-16
13025,968,1144,-1456,48,6,-16
13030,944,1168,-1456,48,7,-14
13035,976,1136,-1408,46,7,-15
13040,968,1160,-1472,47,8,-13
13045,976,1144,-1440,49,7,-15
13050,968,1168,-1480,49,6,-16
13055,960,1144,-1440,47,6,-15
13060,968,1120,-1472,46,6,-15
13065,968,1160,-1488,45,6,-16
13070,968,1136,-1408,45,5,-18
13075,968,1128,-1440,44,4,-18
13080,920,1184,-1464,47,1,-18
13085,968,1160,-1456,47,0,-18
13090,952,1136,-1472,47,-1,-19
13095,960,1184,-1448,46,1,-19
13100,984,1160,-1448,48,0,-18
13105,952,1152,-1432,47,-1,-17
13110,936,1160,-1448,47,0,-16
13115,976,1144,-1456,47,1,-16
13120,936,1176,-1472,47,2,-15
13125,984,1168,-1480,45,3,-16
13130,960,1136,-1488,44,2,-16
13135,984,1184,-1480,45,3,-15
13140,952,1168,-1472,45,4,-17
13145,968,1168,-1440,45,4,-16
13150,976,1168,-1456,43,4,-16
13155,984,1152,-1432,43,4,-14
13160,960,1184,-1464,44,3,-16
13165,968,1160,-1432,43,3,-17
13170,984,1144,-1464,43,3,-18
13175,1000,1152,-1432,44,2,-20
13180,976,1184,-1504,44,2,-20
13185,984,1144,-1464,43,3,-20
13190,976,1136,-1464,44,3,-18
13195,1024,1104,-1480,43,2,-19
13200,976,1168,-1456,44,1,-20
13205,960,1168,-1464,46,1,-21
13210,968,1152,-1472,46,2,-20
13215,984,1152,-1472,46,0,-20
13220,952,1160,-1472,45,1,-22
13225,944,1176,-1472,45,-1,-21
13230,976,1152,-1440,46,-1,-21
13235,936,1144,-1456,48,0,-21
13240,976,1144,-1464,48,0,-21
13245,952,1152,-1432,49,0,-21
13250,984,1144,-1400,50,1,-22
13255,976,1144,-1432,48,0,-22
13260,944,1152,-1440,49,0,-21
13265,976,1144,-1456,48,0,-21
13270,976,1136,-1448,48,0,-19
13275,936,1152,-1448,49,1,-19
13280,960,1152,-1456,49,-2,-20
13285,944,1152,-1448,48,-1,-22
13290,960,1128,-1432,48,-1,-22
13295,960,1152,-1448,49,-1,-21
13300,968,1152,-1480,51,1,-18
13305,960,1128,-1456,50,1,-17
13310,944,1176,-1464,49,1,-18
13315,976,1136,-1440,50,1,-20
13320,952,1168,-1456,51,1,-18
13325,952,1168,-1472,51,3,-17
13330,952,1184,-1464,50,4,-15
13335,976,1144,-1472,49,6,-14
13340,968,1144,-1456,49,4,-15
13345,952,1152,-1472,49,4,-16
13350,976,1144,-1480,50,5,-17
13355,968,1128,-1432,51,4,-16
13360,944,1152,-1432,51,4,-16
13365,968,1168,-1496,51,4,-16
13370,952,1160,-1472,50,4,-17
13375,976,1136,-1416,51,4,-16
13380,952,1152,-1464,49,5,-17
13385,952,1152,-1488,47,5,-18
13390,968,1152,-1472,47,5,-16
13395,952,1176,-1464,44,5,-16
13400,976,1160,-1424,44,4,-17
13405,992,1136,-1464,44,3,-17
13410,968,1136,-1464,43,5,-18
13415,992,1144,-1496,44,4,-18
13420,968,1160,-1480,45,4,-17
13425,968,1152,-1456,46,4,-19
13430,960,1168,-1496,46,3,-17
13435,960,1152,-1472,46,3,-18
13440,968,1136,-1464,46,3,-18
13445,968,1144,-1464,47,2,-19
13450,976,1120,-1496,47,1,-20
13455,976,1168,-1448,47,0,-19
13460,976,1192,-1464,46,-2,-21
13465,952,1160,-1472,48,-2,-21
13470,944,1152,-1448,48,-3,-22
13475,968,1144,-1472,50,-3,-24
13480,968,1160,-1480,50,-6,-24
13485,952,1168,-1440,50,-8,-24
13490,984,1160,-1424,51,-8,-25
13495,944,1160,-1472,52,-10,-26
13500,984,1152,-1448,50,-9,-26
13505,984,1144,-1464,49,-10,-27
13510,952,1152,-1520,50,-12,-29
13515,928,1168,-1456,50,-12,-27
13520,952,1168,-1448,51,-12,-28
13525,920,1160,-1480,51,-11,-29
13530,960,1192,-1464,53,-11,-29
13535,968,1168,-1464,51,-11,-28
13540,960,1144,-1448,49,-9,-29
13545,960,1168,-1496,49,-10,-28
13550,968,1144,-1440,46,-10,-30
13555,952,1192,-1464,46,-9,-29
13560,936,1160,-1464,46,-9,-30
13565,968,1128,-1472,45,-9,-30
13570,944,1160,-1488,44,-8,-28
13575,952,1152,-1472,44,-10,-30
13580,976,1144,-1464,44,-11,-31
13585,952,1168,-1432,41,-10,-31
13590,960,1152,-1472,43,-10,-31
13595,944,1176,-1440,42,-11,-31
13600,952,1152,-1448,42,-10,-29
13605,944,1168,-1472,41,-10,-29
13610,960,1136,-1440,43,-9,-28
13615,936,1160,-1480,43,-9,-28
13620,944,1152,-1432,44,-10,-29
13625,936,1160,-1480,45,-10,-29
13630,912,1176,-1504,45,-10,-30
13635,936,1184,-1456,46,-10,-30
13640,936,1176,-1472,48,-8,-30
13645,944,1160,-1440,46,-9,-29
13650,912,1168,-1456,47,-10,-28
13655,920,1176,-1472,47,-10,-29
13660,944,1144,-1488,49,-10,-28
13665,920,1176,-1432,48,-8,-27
13670,968,1160,-1464,48,-9,-29
13675,928,1192,-1480,47,-9,-27
13680,928,1184,-1464,47,-9,-28
13685,936,1160,-1424,47,-8,-27
13690,944,1200,-1464,47,-10,-29
13695,952,1184,-1456,44,-10,-30
13700,920,1176,-1448,45,-11,-28
13705,952,1176,-1472,46,-10,-30
13710,936,1184,-1488,47,-10,-28
13715,944,1160,-1472,46,-10,-28
13720,936,1192,-1464,45,-10,-27
13725,952,1176,-1448,46,-11,-28
13730,944,1192,-1496,45,-9,-27
13735,936,1160,-1496,46,-9,-26
13740,912,1240,-1544,49,-8,-23
13745,968,1168,-1448,52,-9,-22
13750,928,1192,-1488,55,-7,-23
13755,936,1160,-1464,57,-6,-23
13760,952,1168,-1464,58,-5,-22
13765,944,1160,-1448,58,-4,-19
13770,920,1168,-1472,58,-2,-20
13775,920,1152,-1448,59,0,-19
13780,952,1152,-1464,59,-1,-19
13785,944,1136,-1496,57,-1,-19
13790,928,1144,-1448,56,-2,-20
13795,928,1104,-1464,54,-2,-21
13800,936,1160,-1456,53,-2,-21
13805,952,1152,-1472,53,-3,-25
13810,944,1152,-1440,52,-3,-23
13815,944,1160,-1480,50,-6,-25
13820,936,1136,-1448,52,-9,-28
13825,928,1176,-1472,52,-11,-28
13830,968,1152,-1472,52,-14,-27
13835,944,1176,-1472,52,-14,-26
13840,936,1168,-1464,52,-14,-23
13845,896,1168,-1464,51,-14,-22
13850,928,1144,-1464,52,-13,-23
13855,952,1176,-1464,52,-13,-23
13860,928,1176,-1536,52,-11,-24
13865,928,1176,-1488,51,-9,-25
13870,952,1152,-1488,48,-8,-23
13875,936,1168,-1472,46,-9,-23
13880,944,1168,-1456,46,-9,-26
13885,944,1144,-1488,48,-11,-26
13890,912,1176,-1464,49,-11,-26
13895,928,1144,-1472,51,-12,-26
13900,920,1152,-1424,50,-14,-29
13905,944,1168,-1448,50,-15,-31
13910,928,1208,-1456,51,-18,-31
13915,944,1160,-1472,50,-18,-32
13920,928,1160,-1488,50,-18,-32
13925,920,1176,-1464,49,-17,-32
13930,936,1160,-1448,48,-15,-33
13935,928,1176,-1464,48,-15,-33
13940,944,1192,-1480,48,-13,-32
13945,880,1184,-1496,46,-14,-31
13950,928,1160,-1472,46,-13,-31
13955,936,1200,-1480,46,-11,-27
13960,936,1120,-1376,46,-10,-25
13965,920,1176,-1496,45,-10,-26
13970,928,1160,-1464,45,-8,-24
13975,912,1176,-1480,46,-6,-24
13980,936,1176,-1480,47,-6,-22
13985,912,1176,-1504,44,-5,-22
13990,904,1168,-1448,43,-5,-22
13995,912,1152,-1472,42,-5,-19
14000,912,1192,-1472,43,-4,-19
14005,904,1160,-1496,43,-3,-18
14010,944,1176,-1496,45,-2,-16
14015,896,1144,-1432,46,-1,-15
14020,928,1176,-1432,50,-1,-15
14025,928,1176,-1464,57,-2,-13
14030,912,1144,-1424,67,-7,-12
14035,936,1152,-1384,81,-14,-17
14040,936,1160,-1440,100,-25,-20
14045,944,1176,-1424,121,-36,-23
14050,952,1152,-1376,145,-48,-27
14055,944,1128,-1392,171,-60,-32
14060,904,1184,-1440,196,-70,-34
14065,952,1176,-1472,218,-75,-36
14070,896,1128,-1472,231,-78,-36
14075,936,1160,-1496,236,-79,-36
14080,920,1184,-1504,239,-78,-36
14085,888,1176,-1544,238,-72,-33
14090,912,1184,-1552,231,-67,-31
14095,888,1168,-1568,220,-58,-24
14100,904,1176,-1560,202,-48,-18
14105,912,1160,-1576,183,-37,-13
14110,904,1168,-1592,165,-25,-8
14115,872,1168,-1592,150,-12,-2
14120,920,1176,-1568,134,-1,3
14125,912,1144,-1504,118,10,7
14130,928,1168,-1552,103,18,8
14135,912,1168,-1552,91,25,10
14140,904,1192,-1552,83,30,8
14145,920,1176,-1576,72,34,9
14150,920,1168,-1552,61,41,13
14155,904,1152,-1536,52,44,13
14160,896,1152,-1504,46,48,14
14165,920,1144,-1520,42,51,13
14170,920,1176,-1528,39,53,14
14175,928,1160,-1472,37,52,14
14180,944,1152,-1496,34,54,12
14185,904,1160,-1496,32,52,12
14190,928,1136,-1496,30,52,12
14195,928,1136,-1488,27,51,8
14200,936,1152,-1504,28,50,6
14205,928,1160,-1504,26,49,7
14210,912,1160,-1480,24,48,5
14215,920,1152,-1464,22,47,3
14220,896,1144,-1480,24,45,1
14225,944,1144,-1488,24,42,0
14230,912,1160,-1504,24,40,-1
14235,912,1136,-1456,25,38,-3
14240,952,1152,-1480,26,37,-2
14245,920,1152,-1480,27,35,-3
14250,944,1128,-1496,28,33,-4
14255,936,1136,-1472,26,32,-5
14260,904,1152,-1448,26,30,-5
14265,912,1144,-1488,25,29,-5
14270,912,1144,-1504,27,29,-6
14275,896,1136,-1504,24,28,-6
14280,920,1160,-1464,21,27,-6
14285,936,1144,-1536,20,25,-6
14290,920,1152,-1488,21,25,-8
14295,928,1136,-1488,21,26,-6
14300,936,1152,-1488,21,24,-6
14305,936,1144,-1496,21,23,-6
14310,944,1152,-1480,22,23,-7
14315,920,1152,-1512,22,22,-8
14320,912,1144,-1496,22,22,-8
14325,920,1160,-1464,23,21,-8
14330,920,1160,-1480,23,21,-8
14335,928,1136,-1480,25,22,-6
14340,920,1184,-1512,24,21,-7
14345,928,1160,-1496,24,22,-7
14350,936,1144,-1472,23,22,-6
14355,920,1128,-1472,22,21,-6
14360,928,1144,-1496,21,23,-7
14365,920,1152,-1520,20,20,-4
14370,912,1168,-1472,21,22,-5
14375,928,1152,-1472,21,22,-6
14380,920,1160,-1472,20,21,-6
14385,912,1152,-1472,18,20,-7
14390,912,1168,-1496,17,20,-7
14395,936,1152,-1536,15,19,-7
14400,936,1160,-1504,15,19,-8
14405,912,1152,-1496,16,19,-8
14410,944,1144,-1488,15,20,-7
14415,912,1168,-1488,12,21,-9
14420,920,1168,-1480,8,22,-9
14425,936,1152,-1496,5,22,-10
14430,904,1176,-1456,1,22,-10
14435,944,1144,-1472,2,21,-10
14440,936,1152,-1496,3,20,-12
14445,912,1184,-1488,6,19,-10
14450,944,1088,-1496,11,19,-11
14455,928,1176,-1472,12,17,-12
14460,928,1168,-1480,16,18,-14
14465,928,1152,-1480,16,17,-13
14470,936,1152,-1480,19,17,-13
14475,928,1168,-1440,22,15,-14
14480,928,1168,-1472,25,14,-14
14485,920,1144,-1472,30,12,-14
14490,936,1136,-1472,34,9,-17
14495,952,1136,-1448,38,8,-15
14500,936,1152,-1488,40,5,-16
14505,920,1128,-1440,42,5,-19
14510,920,1160,-1504,43,3,-19
14515,912,1168,-1488,46,4,-19
14520,912,1144,-1440,49,2,-19
14525,944,1168,-1456,49,2,-17
14530,936,1176,-1480,52,1,-19
14535,928,1176,-1496,53,1,-16
14540,912,1160,-1512,54,2,-14
14545,928,1176,-1464,55,4,-14
14550,936,1144,-1488,54,5,-12
14555,928,1160,-1480,54,7,-10
14560,848,1200,-1512,52,11,-9
14565,928,1160,-1504,51,13,-8
14570,904,1176,-1488,51,14,-7
14575,928,1144,-1504,49,17,-6
14580,920,1160,-1488,47,17,-5
14585,920,1200,-1504,46,18,-6
14590,928,1184,-1488,43,18,-4
14595,928,1192,-1496,41,21,-3
14600,920,1160,-1488,40,21,-3
14605,928,1152,-1504,35,22,0
14610,952,1176,-1512,31,21,-3
14615,944,1152,-1400,29,23,-1
14620,928,1176,-1520,28,23,-3
14625,928,1168,-1480,27,25,-1
14630,928,1176,-1472,26,25,-1
14635,928,1176,-1472,25,24,-1
14640,920,1176,-1456,25,24,-2
14645,912,1184,-1512,26,24,0
14650,936,1160,-1480,28,25,-2
14655,944,1184,-1464,29,25,-1
14660,952,1160,-1456,31,22,-2
14665,928,1160,-1456,34,23,-2
14670,960,1160,-1472,37,23,-2
14675,952,1168,-1504,38,22,-2
14680,920,1160,-1456,40,23,0
14685,920,1160,-1472,44,23,1
14690,944,1160,-1504,44,22,1
14695,936,1152,-1448,47,23,-2
14700,912,1152,-1464,46,22,-1
14705,928,1152,-1448,47,22,-1
14710,920,1168,-1472,48,23,-2
14715,928,1168,-1488,49,23,0
14720,912,1160,-1472,49,23,0
14725,928,1160,-1480,49,23,3
14730,928,1128,-1464,50,23,2
14735,912,1168,-1488,50,23,1
14740,936,1160,-1472,52,25,1
14745,928,1192,-1472,51,24,1
14750,912,1160,-1456,51,25,4
14755,920,1176,-1456,48,29,2
14760,920,1160,-1472,47,29,3
14765,912,1176,-1440,45,29,2
14770,928,1168,-1488,45,30,3
14775,944,1168,-1520,44,30,5
14780,928,1144,-1472,44,31,4
14785,944,1144,-1504,43,31,4
14790,944,1160,-1464,42,31,2
14795,904,1192,-1456,41,30,3
14800,952,1152,-1488,39,31,4
14805,936,1192,-1472,40,29,3
14810,920,1176,-1480,40,30,3
14815,960,1192,-1456,40,31,5
14820,960,1184,-1456,39,31,3
14825,936,1152,-1528,39,31,2
14830,904,1160,-1464,37,32,2
14835,928,1168,-1512,37,32,3
14840,944,1152,-1488,37,31,2
14845,952,1160,-1472,37,31,1
14850,936,1168,-1480,36,31,0
14855,960,1160,-1456,34,34,0
14860,952,1152,-1464,34,34,3
14865,960,1136,-1456,35,34,3
14870,936,1168,-1448,35,33,-2
14875,960,1168,-1456,32,34,-1
14880,928,1176,-1464,31,35,0
14885,1000,1128,-1384,30,36,-1
14890,952,1160,-1496,30,35,-3
14895,944,1168,-1488,29,33,-4
14900,936,1168,-1448,29,32,-6
14905,960,1152,-1456,30,32,-7
14910,944,1176,-1472,31,29,-7
14915,936,1176,-1456,33,28,-9
14920,944,1152,-1488,35,26,-9
14925,952,1176,-1472,36,26,-10
14930,944,1176,-1456,38,25,-11
14935,960,1168,-1440,37,25,-10
14940,952,1160,-1520,40,25,-9
14945,920,1176,-1448,43,24,-10
14950,936,1168,-1472,43,23,-9
14955,920,1176,-1464,45,20,-9
14960,936,1168,-1448,47,20,-9
14965,952,1152,-1432,49,18,-8
14970,936,1144,-1472,50,17,-8
14975,944,1160,-1448,52,16,-9
14980,936,1168,-1400,53,16,-8
14985,936,1160,-1456,56,16,-9
14990,960,1128,-1456,56,14,-8
14995,904,1144,-1512,56,15,-6
