timestamp,accel_x,accel_y,accel_z,gyro_x,gyro_y,gyro_z
0,-24,-2008,-80,35,12,-17
5,-32,-2032,-80,34,10,-16
10,-24,-2040,-96,33,11,-15
15,-40,-2000,-56,35,11,-16
20,80,-1896,-128,38,10,-17
25,-32,-2032,-72,36,10,-15
30,-24,-2008,-96,37,9,-16
35,-32,-2032,-72,38,8,-17
40,-32,-2008,-72,38,9,-17
45,-32,-2008,-64,38,8,-18
50,-16,-2008,-96,38,9,-18
55,-24,-2000,-72,37,7,-18
60,-32,-1976,-64,37,7,-18
65,-48,-2016,-48,36,7,-19
70,-40,-2008,-64,36,8,-18
75,-24,-2008,-96,35,8,-18
80,-24,-2024,-72,34,9,-19
85,-32,-2008,-80,36,9,-18
90,-24,-2024,-32,35,11,-19
95,-48,-2040,-48,34,13,-20
100,-32,-2016,-80,31,16,-19
105,-32,-2040,-56,30,18,-20
110,-32,-2016,-64,31,18,-22
115,-8,-2040,-48,32,18,-22
120,-16,-2032,-56,34,21,-22
125,-24,-2016,-56,36,26,-26
130,-24,-2032,-24,36,29,-27
135,-32,-2024,-72,36,31,-30
140,-32,-2000,-48,36,34,-30
145,-48,-2016,-16,34,35,-33
150,-40,-2024,-32,31,35,-33
155,-32,-2024,-72,30,35,-36
160,-24,-2008,-48,26,35,-39
165,-48,-2032,-32,21,32,-40
170,-56,-2008,-96,14,29,-41
175,-56,-1984,-96,7,25,-44
180,-72,-2024,-88,3,21,-44
185,-72,-2000,-64,-5,15,-45
190,-80,-2024,-80,-10,9,-48
195,-88,-2016,-64,-18,5,-48
200,-96,-2024,-48,-24,4,-47
205,-96,-1992,-64,-27,2,-48
210,-120,-2024,-40,-33,1,-48
215,-120,-2000,-24,-38,0,-47
220,-88,-1984,-40,-41,-2,-45
225,-104,-1992,-64,-43,-3,-43
230,-48,-2008,-88,-45,-2,-45
235,-40,-2016,-88,-48,-2,-48
240,-40,-2000,-80,-51,-3,-53
245,-32,-2016,-88,-53,-5,-59
250,-40,-1944,-88,-55,-5,-62
255,-24,-1984,-72,-61,-3,-67
260,-16,-1968,-88,-70,3,-70
265,0,-1976,-88,-82,9,-73
270,-8,-1976,-80,-93,16,-75
275,-16,-1968,-64,-104,24,-74
280,-24,-1984,-104,-114,29,-74
285,-24,-1976,-48,-122,35,-74
290,16,-1984,-88,-129,39,-72
295,-8,-2000,-72,-134,40,-73
300,8,-2024,-56,-140,43,-73
305,-16,-2000,-72,-147,47,-74
310,48,-2008,-64,-150,53,-77
315,24,-1992,-48,-150,57,-81
320,24,-2000,-48,-150,64,-82
325,0,-2000,-16,-152,69,-84
330,8,-1992,-40,-156,69,-87
335,8,-2000,-48,-159,70,-88
340,8,-1984,-40,-160,67,-89
345,-16,-2000,-32,-161,66,-89
350,-16,-2016,-16,-163,62,-87
355,-16,-2008,-8,-165,60,-87
360,-24,-2000,-56,-169,58,-84
365,-24,-1992,-16,-171,58,-83
370,-24,-2000,-40,-172,59,-82
375,-16,-1960,-8,-173,58,-84
380,-16,-2008,-8,-176,56,-93
385,0,-2024,-24,-179,50,-101
390,-8,-2008,-16,-177,46,-102
395,24,-2008,24,-173,42,-102
400,24,-2008,-16,-170,39,-98
405,24,-2024,-8,-166,34,-100
410,-8,-2000,-32,-165,29,-100
415,16,-1976,-16,-166,23,-100
420,24,-1992,-40,-165,18,-99
425,0,-1976,-24,-164,13,-97
430,-8,-2008,-72,-163,9,-96
435,24,-1968,16,-163,4,-94
440,40,-2024,-40,-162,-1,-90
445,24,-1992,0,-161,-7,-91
450,0,-2016,-32,-163,-15,-86
455,-8,-2000,-24,-163,-25,-84
460,-16,-2016,-32,-160,-35,-85
465,0,-2032,-48,-153,-42,-80
470,-8,-2024,-32,-148,-48,-79
475,-24,-2016,-32,-142,-56,-77
480,-16,-2024,-8,-139,-62,-75
485,-40,-1984,-40,-135,-66,-73
490,-8,-2024,-8,-132,-70,-71
495,-32,-2008,-64,-127,-78,-69
500,-32,-2008,-32,-122,-84,-64
505,-48,-2008,-48,-117,-91,-62
510,-56,-1992,-64,-115,-97,-60
515,-104,-1992,-32,-111,-104,-57
520,-56,-1976,-32,-105,-110,-56
525,-56,-1976,-48,-101,-114,-53
530,-64,-1952,-40,-98,-120,-50
535,-96,-1944,-64,-97,-123,-44
540,-88,-1984,-32,-94,-131,-47
545,-40,-1984,-16,-94,-135,-47
550,-40,-1984,-40,-96,-138,-44
555,-48,-1976,0,-98,-142,-46
560,-32,-1960,-72,-99,-146,-46
565,-56,-1984,-24,-100,-155,-49
570,-24,-1976,0,-103,-159,-48
575,-40,-1960,-48,-104,-165,-47
580,-24,-1992,-40,-106,-165,-45
585,-32,-1960,-72,-104,-169,-49
590,-24,-2000,-56,-101,-173,-54
595,-32,-1968,-32,-103,-178,-53
600,-16,-1960,-40,-104,-180,-53
605,-24,-2000,-88,-105,-181,-49
610,-24,-1984,-16,-105,-184,-53
615,-32,-1984,-56,-105,-188,-53
620,-32,-1976,-48,-105,-191,-51
625,-16,-1952,-48,-107,-194,-48
630,-32,-1936,-32,-105,-195,-41
635,-32,-1992,-40,-101,-197,-35
640,-40,-1960,-40,-98,-200,-36
645,-32,-1976,-8,-100,-201,-35
650,-24,-1968,8,-101,-204,-34
655,-16,-1992,0,-102,-203,-35
660,-8,-2008,32,-98,-203,-41
665,32,-2000,-16,-96,-201,-46
670,8,-2008,-16,-100,-199,-50
675,16,-1984,8,-98,-201,-60
680,48,-1984,-32,-94,-205,-71
685,72,-1984,-32,-97,-209,-78
690,32,-1976,-16,-107,-206,-71
695,8,-1992,-32,-116,-207,-69
700,40,-2016,-56,-116,-211,-72
705,40,-1968,-48,-115,-213,-74
710,128,-2000,-80,-117,-215,-69
715,-16,-1984,-96,-116,-222,-67
720,0,-1992,-72,-116,-228,-64
725,-8,-2048,-64,-113,-237,-60
730,-16,-2000,-96,-111,-245,-62
735,32,-2008,-72,-110,-252,-58
740,-24,-1992,-120,-109,-259,-55
745,-24,-2000,-104,-113,-266,-51
750,-32,-2000,-88,-117,-275,-47
755,-48,-2008,-96,-115,-287,-46
760,-32,-2000,-88,-111,-299,-43
765,-16,-2016,-96,-106,-313,-43
770,-16,-2000,-136,-101,-326,-49
775,-16,-2032,-96,-99,-339,-54
780,32,-2016,-144,-100,-353,-61
785,0,-2000,-144,-107,-361,-60
790,24,-2032,-176,-117,-365,-51
795,48,-2032,-128,-124,-372,-49
800,16,-2056,-120,-129,-375,-50
805,24,-2048,-168,-136,-380,-47
810,32,-2088,-136,-141,-384,-43
815,0,-2088,-104,-141,-393,-48
820,-8,-2120,-120,-135,-403,-59
825,-16,-2144,-112,-126,-417,-75
830,-32,-2120,-104,-122,-429,-87
835,-24,-2120,-96,-120,-438,-96
840,-40,-2120,-112,-115,-445,-99
845,-16,-2160,-136,-107,-453,-102
850,-32,-2168,-88,-103,-465,-105
855,-24,-2200,-72,-107,-477,-101
860,-40,-2216,-128,-112,-489,-99
865,-32,-2248,-80,-106,-502,-100
870,-48,-2232,-40,-78,-512,-102
875,-32,-2200,-56,-36,-527,-105
880,-16,-2192,16,0,-534,-105
885,-24,-2200,24,36,-544,-99
890,-8,-2200,8,73,-564,-110
895,-8,-2192,64,89,-570,-113
900,0,-2192,88,103,-579,-107
905,16,-2200,112,123,-590,-113
910,16,-2192,128,142,-596,-113
915,24,-2184,128,158,-601,-106
920,56,-2176,112,170,-598,-102
925,56,-2160,104,177,-593,-111
930,96,-2144,8,171,-579,-114
935,112,-2160,-112,147,-564,-123
940,136,-2128,-200,99,-546,-127
945,144,-2176,-312,33,-528,-134
950,152,-2256,-376,-35,-509,-150
955,160,-2312,-416,-98,-488,-173
960,168,-2432,-416,-151,-468,-201
965,192,-2560,-360,-180,-445,-240
970,240,-2624,-344,-190,-413,-277
975,272,-2640,-352,-179,-376,-311
980,344,-2632,-344,-158,-340,-343
985,400,-2624,-344,-126,-295,-369
990,432,-2552,-344,-87,-242,-383
995,440,-2504,-328,-46,-181,-375
1000,432,-2384,-296,-1,-130,-360
1005,360,-2352,-248,49,-96,-331
1010,320,-2208,-240,100,-78,-302
1015,240,-2112,-240,143,-71,-256
1020,176,-2032,-216,174,-79,-197
1025,112,-1896,-208,192,-99,-141
1030,56,-1832,-208,201,-124,-78
1035,16,-1736,-232,202,-156,-18
1040,-8,-1624,-296,194,-194,43
1045,-8,-1592,-360,184,-230,109
1050,-8,-1568,-376,163,-265,165
1055,8,-1560,-440,132,-304,207
1060,-8,-1552,-456,94,-343,239
1065,0,-1568,-520,51,-381,264
1070,-32,-1600,-488,4,-415,278
1075,-40,-1624,-560,-47,-449,291
1080,-96,-1648,-560,-95,-482,289
1085,-104,-1720,-536,-134,-514,279
1090,-192,-1752,-544,-164,-549,252
1095,-248,-1760,-544,-187,-590,210
1100,-312,-1824,-536,-207,-632,168
1105,-384,-1856,-536,-226,-678,120
1110,-432,-1864,-488,-233,-713,68
1115,-456,-1888,-432,-243,-732,15
1120,-448,-1888,-424,-250,-738,-34
1125,-408,-1872,-408,-225,-708,-76
1130,-392,-1808,-400,-188,-667,-108
1135,-352,-1808,-392,-147,-626,-138
1140,-232,-1752,-400,-118,-598,-162
1145,-280,-1736,-432,-105,-583,-182
1150,-248,-1736,-368,-108,-576,-195
1155,-128,-1776,-400,-125,-576,-200
1160,-72,-1840,-416,-154,-575,-201
1165,0,-1904,-440,-187,-578,-194
1170,40,-1944,-440,-216,-583,-181
1175,64,-2048,-432,-239,-586,-167
1180,144,-2136,-464,-242,-583,-153
1185,152,-2224,-448,-222,-574,-134
1190,160,-2248,-456,-182,-562,-108
1195,152,-2304,-472,-125,-553,-76
1200,176,-2328,-464,-48,-541,-32
1205,160,-2336,-448,25,-528,8
1210,128,-2272,-480,84,-524,47
1215,56,-2280,-432,138,-529,80
1220,56,-2248,-384,205,-529,120
1225,8,-2200,-312,284,-528,157
1230,0,-2088,-336,368,-520,194
1235,-64,-2040,-304,426,-517,210
1240,-96,-1936,-336,461,-520,225
1245,-128,-1832,-352,476,-523,235
1250,-136,-1768,-376,475,-527,245
1255,-176,-1720,-320,464,-529,253
1260,-200,-1664,-328,458,-531,264
1265,-200,-1656,-296,455,-531,271
1270,-248,-1600,-240,450,-529,279
1275,-256,-1584,-240,444,-528,285
1280,-280,-1568,-216,440,-530,289
1285,-280,-1568,-224,440,-538,290
1290,-256,-1576,-184,421,-539,290
1295,-240,-1608,-208,399,-533,292
1300,-240,-1656,-152,369,-523,298
1305,-216,-1656,-200,349,-510,309
1310,-200,-1624,-248,327,-501,320
1315,-168,-1608,-160,283,-489,321
1320,-192,-1664,-240,225,-469,300
1325,-208,-1648,-192,168,-452,277
1330,-224,-1680,-200,118,-433,260
1335,-248,-1680,-160,89,-413,252
1340,-224,-1664,-200,74,-388,248
1345,-200,-1712,-176,58,-365,236
1350,-192,-1744,-168,49,-342,222
1355,-120,-1728,-96,40,-320,205
1360,-224,-1784,-176,22,-296,183
1365,-224,-1808,-128,-3,-274,170
1370,-224,-1824,-144,-23,-247,156
1375,-192,-1776,-120,-38,-216,147
1380,-152,-1840,-104,-54,-182,150
1385,-216,-1888,-56,-49,-150,140
1390,-272,-1840,-80,-29,-127,122
1395,-248,-1880,-32,-12,-103,114
1400,-272,-1904,8,7,-78,106
1405,-312,-1880,-24,31,-56,100
1410,-328,-1928,16,53,-37,94
1415,-320,-1960,56,80,-22,80
1420,-368,-1952,56,107,-6,76
1425,-336,-2000,64,130,12,71
1430,-336,-2000,64,153,36,71
1435,-352,-2072,64,181,62,65
1440,-328,-2080,32,219,84,52
1445,-344,-2072,8,247,103,51
1450,-368,-2088,-32,262,113,52
1455,-384,-2080,-104,290,119,49
1460,-368,-2096,-136,309,123,55
1465,-408,-2096,-176,325,127,59
1470,-440,-2128,-216,335,138,60
1475,-416,-2088,-200,354,145,46
1480,-416,-2072,-240,352,159,43
1485,-376,-2088,-264,336,173,42
1490,-352,-2144,-208,316,191,35
1495,-312,-2208,-112,296,219,25
1500,-248,-2272,-56,287,261,10
1505,-296,-2312,72,295,305,-7
1510,-344,-2320,176,305,332,-11
1515,-376,-2400,312,321,327,3
1520,-360,-2432,432,347,304,27
1525,-552,-2464,352,379,279,62
1530,-640,-2472,336,407,268,101
1535,-744,-2472,384,430,268,131
1540,-736,-2496,408,450,278,159
1545,-704,-2472,480,475,292,176
1550,-696,-2424,496,509,308,179
1555,-568,-2392,568,548,318,178
1560,-520,-2344,568,599,325,162
1565,-432,-2232,568,650,329,132
1570,-424,-2256,448,681,338,112
1575,-360,-2048,352,675,350,102
1580,-264,-1920,136,607,370,108
1585,-176,-2000,-96,475,410,118
1590,-136,-1960,-368,311,460,123
1595,-48,-1952,-472,111,517,153
1600,32,-2040,-536,-81,574,205
1605,-96,-2400,-424,-213,599,246
1610,-216,-2568,-336,-196,573,278
1615,-416,-2616,-424,-111,505,287
1620,-592,-2416,-544,-13,420,273
1625,-840,-2224,-728,24,337,277
1630,-1048,-2056,-968,-2,260,295
1635,-1040,-1888,-1192,-116,211,343
1640,-1056,-2032,-1224,-291,203,403
1645,-928,-2104,-1208,-397,203,425
1650,-728,-2104,-1192,-415,208,448
1655,-456,-1912,-1192,-386,212,443
1660,-224,-1808,-1096,-345,216,426
1665,80,-1768,-1048,-293,225,385
1670,152,-1760,-1000,-255,246,331
1675,288,-1840,-912,-213,281,263
1680,472,-1784,-832,-137,297,221
1685,672,-1912,-656,-60,294,193
1690,736,-1904,-568,35,279,147
1695,760,-1984,-440,124,268,98
1700,760,-1976,-376,203,276,58
1705,640,-1920,-288,247,310,10
1710,488,-1912,-256,268,349,-58
1715,344,-1872,-352,272,371,-128
1720,128,-1832,-384,248,362,-184
1725,-88,-1824,-400,201,327,-220
1730,-328,-1824,-440,150,275,-244
1735,-440,-1928,-312,96,212,-251
1740,-576,-1952,-416,46,145,-248
1745,-680,-1992,-328,10,87,-242
1750,-744,-2016,-336,-3,14,-277
1755,-776,-2016,-392,-11,-45,-313
1760,-768,-2024,-408,-10,-71,-290
1765,-816,-2056,-400,2,-108,-273
1770,-784,-2016,-400,16,-161,-296
1775,-712,-2000,-424,17,-205,-323
1780,-608,-1992,-360,26,-242,-347
1785,-536,-1904,-416,46,-281,-376
1790,-448,-1832,-408,71,-319,-402
1795,-360,-1728,-432,106,-356,-423
1800,-232,-1656,-440,126,-389,-435
1805,-184,-1576,-448,109,-415,-440
1810,-112,-1528,-424,79,-430,-436
1815,-56,-1512,-352,52,-436,-440
1820,-8,-1520,-336,39,-438,-451
1825,72,-1504,-288,29,-426,-437
1830,152,-1560,-232,21,-413,-412
1835,152,-1624,-184,27,-403,-399
1840,216,-1680,-192,30,-391,-391
1845,264,-1760,-136,29,-381,-382
1850,280,-1824,-160,24,-369,-366
1855,296,-1808,-144,23,-354,-342
1860,248,-1800,-200,28,-337,-321
1865,232,-1912,-208,28,-313,-287
1870,200,-1992,-240,19,-290,-256
1875,184,-1992,-216,21,-277,-235
1880,160,-1976,-176,41,-262,-218
1885,168,-1960,-176,74,-247,-205
1890,144,-1936,-152,113,-234,-184
1895,104,-1928,-168,160,-227,-172
1900,88,-1920,-176,195,-222,-166
1905,88,-1912,-232,207,-214,-147
1910,64,-1864,-200,205,-206,-131
1915,32,-1848,-256,196,-195,-122
1920,24,-1792,-264,185,-182,-115
1925,24,-1760,-248,166,-167,-114
1930,-24,-1728,-240,151,-148,-107
1935,-32,-1688,-224,140,-131,-95
1940,-32,-1624,-248,131,-114,-77
1945,-40,-1632,-176,113,-102,-71
1950,-40,-1576,-312,93,-92,-54
1955,-56,-1592,-200,74,-88,-44
1960,-48,-1624,-144,43,-94,-44
1965,-32,-1648,-160,18,-107,-32
1970,-24,-1680,-112,1,-121,-17
1975,-32,-1696,-112,-20,-140,-11
1980,-56,-1768,-96,-37,-164,-9
1985,-56,-1768,-88,-47,-187,-5
1990,-56,-1840,-8,-48,-210,-6
1995,-64,-1872,-48,-49,-227,2
2000,-112,-1944,56,-55,-241,-4
2005,-96,-2048,64,-57,-255,-5
2010,-160,-2080,104,-44,-272,0
2015,-160,-2192,152,-13,-296,4
2020,-160,-2216,200,32,-319,18
2025,-168,-2288,232,82,-341,24
2030,-184,-2336,192,130,-362,25
2035,-104,-2368,136,170,-375,18
2040,-56,-2352,64,197,-366,-5
2045,-32,-2368,8,209,-348,-32
2050,-24,-2376,-8,211,-340,-54
2055,16,-2352,-24,210,-344,-67
2060,72,-2368,-72,210,-356,-79
2065,32,-2312,-40,202,-373,-97
2070,-32,-2304,8,194,-393,-110
2075,-152,-2256,64,189,-418,-117
2080,-192,-2248,128,195,-447,-117
2085,-160,-2288,176,207,-470,-112
2090,-120,-2312,240,235,-472,-106
2095,-56,-2312,312,261,-461,-109
2100,72,-2400,376,289,-452,-121
2105,208,-2432,472,323,-452,-145
2110,328,-2512,512,359,-468,-172
2115,360,-2528,512,393,-492,-214
2120,424,-2536,480,420,-513,-265
2125,408,-2520,384,432,-521,-308
2130,360,-2512,248,420,-519,-337
2135,256,-2472,32,365,-505,-359
2140,48,-2472,-152,263,-478,-373
2145,-96,-2528,-320,127,-443,-385
2150,-368,-2552,-416,-15,-395,-386
2155,-496,-2632,-448,-131,-351,-390
2160,-504,-2624,-512,-203,-317,-406
2165,-352,-2624,-640,-223,-304,-433
2170,-104,-2608,-768,-216,-291,-471
2175,176,-2504,-912,-193,-258,-529
2180,504,-2424,-976,-190,-199,-586
2185,616,-2312,-984,-200,-110,-614
2190,656,-2224,-1000,-213,-30,-615
2195,608,-2040,-968,-225,26,-595
2200,520,-1944,-976,-213,48,-572
2205,336,-1776,-928,-179,49,-548
2210,104,-1576,-848,-128,36,-506
2215,-72,-1520,-816,-75,0,-445
2220,-232,-1376,-848,-23,-44,-382
2225,-360,-1320,-896,-6,-76,-337
2230,-464,-1280,-816,-30,-74,-319
2235,-672,-1328,-648,-72,-52,-296
2240,-768,-1448,-472,-108,-41,-262
2245,-896,-1520,-336,-120,-57,-223
2250,-896,-1608,-192,-120,-98,-181
2255,-744,-1672,-144,-121,-139,-132
2260,-680,-1744,-136,-125,-166,-83
2265,-528,-1864,-176,-136,-172,-45
2270,-440,-2000,-216,-156,-165,-20
2275,-264,-2088,-304,-176,-152,-3
2280,-128,-2144,-392,-201,-139,12
2285,-24,-2192,-424,-205,-120,35
2290,16,-2272,-440,-179,-98,63
2295,64,-2336,-416,-122,-81,100
2300,64,-2352,-344,-54,-70,131
2305,96,-2376,-320,9,-65,167
2310,120,-2384,-304,67,-57,209
2315,112,-2408,-248,131,-43,264
2320,48,-2312,-328,214,-28,289
2325,64,-2248,-360,288,-2,323
2330,32,-2072,-448,348,33,357
2335,-8,-2080,-448,384,70,402
2340,128,-1864,-512,435,101,478
2345,40,-1608,-456,434,125,485
2350,88,-1528,-400,426,148,497
2355,128,-1488,-432,429,163,497
2360,104,-1376,-320,423,176,480
2365,88,-1336,-328,408,193,475
2370,32,-1328,-256,379,208,474
2375,16,-1360,-296,353,218,462
2380,-24,-1320,-256,314,232,448
2385,-104,-1328,-256,250,255,418
2390,-160,-1368,-248,178,282,400
2395,-216,-1480,-224,119,303,395
2400,-248,-1560,-240,85,310,368
2405,-288,-1568,-208,53,316,343
2410,-328,-1648,-176,13,321,324
2415,-336,-1720,-168,-26,323,298
2420,-352,-1800,-80,-55,322,275
2425,-384,-1872,-48,-67,320,259
2430,-416,-1912,-64,-69,314,249
2435,-440,-1912,-32,-64,301,252
2440,-472,-1944,-112,-52,282,250
2445,-504,-1912,-40,-39,254,229
2450,-480,-1944,-56,-20,225,203
2455,-440,-1920,-64,8,200,179
2460,-464,-1904,-16,44,175,159
2465,-432,-1912,-56,82,148,137
2470,-432,-1872,0,119,119,114
2475,-416,-1848,0,150,92,95
2480,-424,-1776,-24,173,62,76
2485,-416,-1728,16,192,32,56
2490,-416,-1672,40,202,0,25
2495,-392,-1608,8,206,-26,0
2500,-392,-1568,24,202,-41,-19
2505,-384,-1520,16,193,-47,-34
2510,-368,-1552,32,175,-44,-46
2515,-376,-1544,8,152,-40,-62
2520,-344,-1592,40,116,-31,-76
2525,-344,-1656,64,91,-15,-90
2530,-320,-1720,80,74,0,-102
2535,-264,-1800,112,68,19,-112
2540,-256,-1888,152,70,38,-120
2545,-264,-1960,176,76,53,-123
2550,-272,-2024,160,80,64,-117
2555,-288,-2088,104,92,67,-108
2560,-320,-2104,48,120,71,-104
2565,-336,-2152,-16,152,78,-101
2570,-344,-2176,-32,186,90,-101
2575,-328,-2184,-88,207,105,-104
2580,-328,-2176,-88,223,118,-111
2585,-240,-2208,-32,237,131,-121
2590,-208,-2224,-64,250,145,-137
2595,-200,-2248,-72,253,147,-154
2600,-184,-2272,24,240,152,-166
2605,-272,-2360,136,223,171,-172
2610,-312,-2440,272,220,197,-164
2615,-440,-2528,392,230,211,-142
2620,-552,-2568,456,241,188,-101
2625,-704,-2592,520,247,146,-37
2630,-864,-2584,576,255,118,48
2635,-968,-2584,632,278,112,125
2640,-976,-2576,712,321,123,195
2645,-984,-2576,744,383,150,252
2650,-1016,-2584,784,459,162,283
2655,-928,-2568,792,537,153,284
2660,-848,-2536,736,603,134,276
2665,-776,-2512,592,633,107,261
2670,-632,-2456,368,607,75,238
2675,-424,-2464,80,518,54,217
2680,-208,-2488,-144,385,56,202
2685,-40,-2616,-336,253,75,202
2690,-8,-2656,-400,157,97,221
2695,-32,-2720,-392,107,107,254
2700,-192,-2704,-424,101,91,286
2705,-320,-2616,-448,127,51,311
2710,-560,-2464,-560,168,-4,319
2715,-688,-2304,-808,205,-66,319
2720,-808,-2088,-1120,189,-118,344
2725,-872,-2024,-1408,101,-145,386
2730,-752,-1920,-1592,-2,-163,415
2735,-592,-1840,-1544,-105,-187,459
2740,-464,-1848,-1336,-166,-217,505
2745,-344,-1856,-1056,-115,-260,511
2750,-208,-1752,-928,13,-309,491
2755,-32,-1616,-936,133,-353,463
2760,88,-1584,-904,178,-391,439
2765,200,-1648,-824,138,-419,403
2770,296,-1704,-776,52,-426,355
2775,368,-1840,-576,-46,-415,313
2780,456,-1968,-448,-85,-393,249
2785,488,-2048,-296,-53,-363,187
2790,544,-1968,-240,17,-320,114
2795,544,-1952,-208,88,-269,33
2800,536,-1936,-224,139,-232,-62
2805,512,-1920,-248,169,-216,-164
2810,440,-1904,-296,186,-211,-272
2815,376,-1816,-360,191,-212,-373
2820,264,-1832,-448,178,-225,-465
2825,136,-1824,-552,142,-248,-550
2830,88,-1800,-568,83,-258,-607
2835,0,-1848,-512,21,-244,-616
2840,-112,-1824,-456,-8,-224,-612
2845,-168,-1864,-424,-12,-206,-595
2850,-224,-1888,-360,-22,-197,-581
2855,-272,-1872,-408,-34,-211,-560
2860,-352,-1840,-360,-52,-238,-538
2865,-440,-1784,-360,-65,-277,-506
2870,-488,-1760,-344,-77,-312,-473
2875,-520,-1648,-296,-76,-350,-447
2880,-520,-1576,-304,-71,-389,-414
2885,-464,-1536,-256,-77,-431,-372
2890,-320,-1560,-232,-84,-464,-333
2895,-272,-1504,-184,-80,-492,-304
2900,-152,-1488,-176,-78,-509,-276
2905,-88,-1512,-168,-81,-513,-246
2910,-16,-1568,-120,-92,-515,-213
2915,40,-1616,-120,-106,-512,-195
2920,88,-1704,-72,-126,-504,-184
2925,144,-1744,-56,-146,-495,-176
2930,208,-1848,-24,-165,-480,-175
2935,240,-1896,24,-171,-463,-177
2940,288,-1928,80,-178,-447,-180
2945,296,-1960,80,-179,-427,-183
2950,320,-2040,64,-176,-405,-181
2955,344,-2088,64,-159,-375,-181
2960,328,-2128,56,-135,-339,-188
2965,336,-2120,16,-101,-304,-186
2970,288,-2096,24,-74,-268,-188
2975,256,-2056,-16,-49,-238,-187
2980,264,-2040,-16,-31,-210,-180
2985,184,-2032,-88,-10,-183,-170
2990,144,-2000,-40,0,-153,-163
2995,96,-1960,16,13,-123,-157
3000,72,-1896,-8,49,-96,-148
3005,32,-1856,-16,86,-69,-135
3010,0,-1808,-16,103,-47,-116
3015,-16,-1712,0,97,-29,-97
3020,-8,-1696,16,86,-13,-80
3025,0,-1632,24,69,2,-66
3030,-8,-1584,64,49,17,-48
3035,32,-1576,48,27,28,-32
3040,32,-1560,72,-2,33,-15
3045,48,-1576,96,-32,31,5
3050,8,-1608,112,-57,19,16
3055,16,-1664,144,-75,0,23
3060,-16,-1728,168,-83,-24,29
3065,-32,-1800,224,-85,-54,31
3070,-48,-1864,264,-82,-88,32
3075,-80,-1968,272,-70,-125,33
3080,-88,-2064,296,-46,-164,30
3085,-96,-2112,264,-9,-193,24
3090,-136,-2152,216,29,-215,22
3095,-128,-2208,144,62,-238,22
3100,-136,-2232,112,91,-265,21
3105,-144,-2280,96,116,-293,16
3110,-168,-2288,8,130,-320,17
3115,-224,-2256,-88,135,-340,21
3120,-272,-2208,-152,127,-355,26
3125,-328,-2128,-144,110,-360,36
3130,-408,-2152,-88,90,-375,51
3135,-376,-2208,48,83,-413,63
3140,-320,-2232,104,97,-445,56
3145,-216,-2256,176,119,-456,37
3150,-80,-2248,272,138,-455,-1
3155,96,-2336,392,148,-457,-53
3160,240,-2408,528,153,-472,-120
3165,352,-2456,584,158,-497,-191
3170,416,-2544,648,164,-529,-256
3175,464,-2592,648,176,-558,-309
3180,448,-2608,592,191,-577,-347
3185,400,-2664,616,207,-583,-370
3190,312,-2648,624,224,-571,-385
3195,304,-2640,544,243,-549,-379
3200,344,-2544,400,252,-508,-349
3205,256,-2408,184,221,-458,-313
3210,152,-2280,16,96,-421,-277
3215,-64,-2240,-216,-73,-415,-236
3220,-200,-2312,-376,-243,-424,-211
3225,-336,-2432,-360,-347,-422,-214
3230,-344,-2592,-296,-360,-412,-237
3235,-248,-2648,-360,-302,-399,-278
3240,112,-2688,-504,-209,-370,-317
3245,528,-2616,-744,-140,-305,-350
3250,928,-2480,-1008,-136,-180,-369
3255,1064,-2336,-1160,-198,-14,-382
3260,1104,-2264,-1256,-306,138,-390
3265,1000,-2224,-1280,-393,252,-380
3270,872,-2296,-1160,-431,331,-376
3275,728,-2224,-1032,-388,391,-363
3280,496,-2104,-904,-292,440,-347
3285,232,-2016,-888,-200,453,-315
3290,-80,-1888,-832,-149,411,-270
3295,-320,-1752,-776,-150,324,-227
3300,-536,-1640,-720,-199,228,-201
3305,-776,-1632,-584,-252,160,-188
3310,-928,-1616,-440,-270,121,-176
3315,-1040,-1552,-288,-243,81,-160
3320,-1040,-1552,-160,-173,37,-127
3325,-1048,-1496,-72,-79,-9,-74
3330,-1008,-1480,-48,3,-49,-5
3335,-952,-1472,-72,53,-83,58
3340,-808,-1520,-168,58,-87,107
3345,-576,-1592,-280,28,-53,137
3350,-304,-1624,-376,-31,7,153
3355,-192,-1640,-464,-100,78,162
3360,-40,-1720,-472,-161,130,162
3365,16,-1864,-448,-186,152,149
3370,64,-1984,-408,-193,148,118
3375,48,-2136,-296,-197,123,84
3380,56,-2208,-192,-177,98,45
3385,40,-2296,-184,-111,81,34
3390,112,-2304,-232,-25,81,59
3395,72,-2296,-256,44,92,117
3400,88,-2280,-336,79,101,204
3405,56,-2144,-368,91,104,285
3410,16,-2072,-432,98,109,371
3415,56,-1952,-416,100,118,453
3420,32,-1832,-440,97,126,500
3425,48,-1776,-424,94,131,528
3430,96,-1744,-392,92,137,551
3435,88,-1704,-336,114,137,564
3440,48,-1704,-272,145,138,557
3445,-16,-1680,-216,174,145,515
3450,-40,-1680,-200,190,161,458
3455,-96,-1616,-200,204,185,411
3460,-176,-1600,-248,215,205,371
3465,-256,-1560,-192,224,221,339
3470,-256,-1552,-184,215,231,313
3475,-256,-1544,-152,192,239,290
3480,-296,-1576,-120,162,241,277
3485,-344,-1640,-64,131,231,262
3490,-360,-1680,-64,104,214,248
3495,-416,-1712,0,71,196,237
3500,-448,-1736,-40,42,179,230
3505,-440,-1792,-16,23,166,224
3510,-448,-1848,-8,16,155,229
3515,-472,-1856,-8,24,145,229
3520,-424,-1872,-24,40,134,225
3525,-408,-1848,-40,58,118,222
3530,-408,-1832,0,76,98,227
3535,-392,-1840,-48,104,71,224
3540,-344,-1808,-8,131,51,214
3545,-336,-1808,-24,154,32,203
3550,-320,-1816,16,178,17,188
3555,-280,-1832,8,193,2,167
3560,-288,-1760,64,201,-14,145
3565,-264,-1720,32,208,-25,123
3570,-240,-1704,40,211,-28,100
3575,-264,-1632,64,212,-22,77
3580,-208,-1664,72,215,-6,58
3585,-232,-1592,64,220,15,37
3590,-216,-1608,120,216,40,21
3595,-200,-1632,128,215,67,7
3600,-184,-1704,176,215,95,-5
3605,-152,-1768,200,219,118,-15
3610,-144,-1816,216,219,141,-24
3615,-144,-1872,232,215,164,-31
3620,-176,-1896,232,212,176,-36
3625,-264,-1912,184,214,178,-37
3630,-320,-1952,112,220,158,-36
3635,-352,-1936,24,219,127,-33
3640,-408,-1944,-64,203,101,-28
3645,-384,-1968,-152,173,93,-26
3650,-368,-2048,-192,136,110,-32
3655,-312,-2112,-232,96,146,-44
3660,-248,-2152,-224,60,187,-62
3665,-192,-2200,-184,28,225,-79
3670,-112,-2280,-56,7,265,-98
3675,-120,-2424,128,11,312,-117
3680,-192,-2504,232,40,351,-118
3685,-272,-2568,320,82,358,-108
3690,-424,-2568,416,120,341,-82
3695,-536,-2576,472,157,331,-31
3700,-616,-2584,480,197,342,37
3705,-656,-2544,544,241,368,114
3710,-680,-2560,552,293,404,185
3715,-720,-2552,632,353,431,237
3720,-664,-2528,632,416,434,259
3725,-632,-2448,632,470,420,269
3730,-536,-2304,632,491,410,276
3735,-432,-2344,384,458,406,283
3740,-304,-2328,184,362,404,284
3745,-176,-2368,-80,199,398,263
3750,-56,-2432,-320,-1,401,244
3755,-32,-2544,-496,-182,398,251
3760,-32,-2592,-560,-320,384,285
3765,-144,-2712,-624,-399,358,317
3770,-360,-2752,-584,-415,324,340
3775,-632,-2712,-616,-375,265,349
3780,-800,-2584,-712,-295,186,347
3785,-1032,-2392,-888,-221,104,340
3790,-1160,-2168,-1048,-167,19,324
3795,-1200,-2048,-1200,-151,-58,319
3800,-1112,-1904,-1312,-165,-129,323
3805,-992,-1792,-1320,-188,-185,338
3810,-768,-1760,-1280,-199,-223,349
3815,-592,-1688,-1152,-170,-241,350
3820,-360,-1544,-1112,-113,-262,340
3825,-144,-1592,-936,-93,-278,351
3830,32,-1616,-792,-94,-303,338
3835,248,-1688,-584,-104,-319,319
3840,328,-1800,-336,-111,-315,284
3845,456,-1848,-184,-91,-295,221
3850,472,-1920,-24,-66,-265,164
3855,480,-1920,48,-56,-228,105
3860,480,-2000,64,-55,-195,42
3865,432,-2008,16,-53,-187,-30
3870,400,-2056,-64,-60,-189,-113
3875,264,-2072,-136,-80,-197,-193
3880,208,-2096,-200,-92,-194,-272
3885,112,-2128,-272,-100,-181,-342
3890,-32,-2152,-320,-104,-162,-398
3895,-112,-2176,-336,-99,-145,-443
3900,-184,-2208,-392,-92,-139,-475
3905,-256,-2240,-424,-88,-147,-496
3910,-304,-2184,-400,-76,-158,-509
3915,-280,-2224,-328,-48,-166,-519
3920,-304,-2152,-264,9,-175,-529
3925,-280,-2088,-248,82,-189,-535
3930,-304,-2008,-256,150,-205,-538
3935,-344,-1912,-184,201,-224,-535
3940,-360,-1760,-256,231,-254,-529
3945,-368,-1640,-240,243,-290,-513
3950,-368,-1488,-280,244,-330,-493
3955,-336,-1408,-256,240,-376,-465
3960,-272,-1304,-264,230,-419,-440
3965,-232,-1264,-264,206,-452,-418
3970,-208,-1208,-264,171,-477,-394
3975,-136,-1216,-272,123,-497,-363
3980,-80,-1224,-232,81,-511,-335
3985,-40,-1264,-216,39,-522,-309
3990,-48,-1256,-192,-9,-531,-284
3995,8,-1320,-176,-55,-536,-266
4000,8,-1384,-168,-94,-537,-251
4005,32,-1504,-128,-139,-540,-230
4010,40,-1576,-120,-191,-544,-203
4015,40,-1672,-144,-241,-552,-182
4020,56,-1744,-104,-280,-561,-155
4025,88,-1824,-128,-308,-567,-127
4030,96,-1928,-136,-316,-569,-105
4035,80,-2072,-144,-310,-565,-88
4040,72,-2128,-128,-301,-555,-80
4045,128,-2176,-112,-272,-543,-81
4050,152,-2192,-112,-215,-526,-84
4055,160,-2200,-88,-133,-506,-85
4060,160,-2168,-88,-41,-486,-84
4065,136,-2120,-88,39,-468,-80
4070,112,-2088,-96,102,-451,-70
4075,120,-1992,-104,146,-437,-55
4080,88,-1888,-72,179,-423,-35
4085,80,-1816,-88,209,-404,-13
4090,96,-1760,-104,227,-382,9
4095,64,-1656,-40,235,-356,30
4100,56,-1632,-32,231,-328,48
4105,88,-1608,-8,222,-304,66
4110,80,-1600,64,206,-288,86
4115,80,-1584,64,186,-279,103
4120,72,-1632,80,166,-280,117
4125,64,-1704,136,149,-287,129
4130,32,-1768,184,139,-299,138
4135,-24,-1840,200,134,-319,146
4140,-48,-1904,200,132,-349,153
4145,-72,-1952,224,137,-378,156
4150,-136,-2024,248,150,-407,162
4155,-192,-2080,192,171,-429,169
4160,-160,-2136,208,197,-444,167
4165,-192,-2208,168,227,-449,164
4170,-176,-2248,144,256,-445,155
4175,-176,-2232,96,283,-441,148
4180,-152,-2272,16,310,-438,137
4185,-144,-2280,-64,309,-436,119
4190,-96,-2264,-88,286,-439,102
4195,-184,-2288,-104,253,-452,83
4200,-120,-2320,0,229,-476,64
4205,-64,-2320,56,225,-490,45
4210,32,-2328,72,234,-478,16
4215,224,-2360,136,239,-447,-23
4220,392,-2400,264,235,-420,-79
4225,464,-2432,400,219,-411,-143
4230,496,-2488,520,206,-429,-209
4235,488,-2536,616,207,-464,-273
4240,464,-2584,648,219,-507,-326
4245,440,-2584,648,232,-537,-365
4250,336,-2600,568,228,-546,-390
4255,328,-2592,360,193,-537,-398
4260,280,-2560,104,121,-507,-392
4265,184,-2520,-168,1,-455,-365
4270,32,-2456,-472,-162,-391,-327
4275,-88,-2424,-656,-342,-324,-274
4280,-200,-2496,-728,-486,-265,-212
4285,-240,-2552,-824,-548,-227,-159
4290,-104,-2608,-880,-531,-199,-131
4295,72,-2680,-880,-473,-165,-134
4300,360,-2592,-1000,-400,-107,-164
4305,600,-2624,-1096,-347,-17,-208
4310,840,-2512,-1224,-324,94,-271
4315,872,-2288,-1392,-333,197,-337
4320,816,-2112,-1464,-361,282,-371
4325,520,-1960,-1448,-389,326,-380
4330,304,-1880,-1376,-388,316,-376
4335,64,-1744,-1264,-346,263,-375
4340,-72,-1632,-1064,-275,229,-394
4345,-216,-1544,-888,-211,260,-412
4350,-432,-1488,-744,-174,321,-421
4355,-552,-1448,-616,-168,369,-414
4360,-752,-1528,-448,-187,382,-409
4365,-928,-1624,-288,-214,362,-391
4370,-1008,-1744,-160,-242,322,-373
4375,-1064,-1808,-72,-259,287,-348
4380,-1080,-1936,56,-266,256,-309
4385,-1056,-2088,72,-265,218,-256
4390,-1048,-2152,96,-253,171,-183
4395,-1008,-2264,32,-234,109,-85
4400,-944,-2320,16,-192,43,36
4405,-808,-2352,-80,-140,-22,153
4410,-568,-2472,-208,-75,-75,277
4415,-416,-2416,-320,-18,-113,371
4420,-168,-2312,-392,17,-145,434
4425,64,-2408,-480,50,-159,492
4430,232,-2192,-624,113,-132,571
4435,224,-2072,-640,116,-97,605
4440,256,-2048,-592,84,-70,619
4445,192,-2040,-456,46,-58,615
4450,216,-2056,-424,22,-59,593
4455,176,-2032,-344,16,-64,551
4460,128,-1968,-320,44,-58,510
4465,56,-1840,-256,91,-41,499
4470,-16,-1680,-336,136,-14,500
4475,-88,-1568,-296,151,9,498
4480,-160,-1448,-280,147,25,498
4485,-232,-1368,-312,129,41,508
4490,-256,-1320,-280,92,61,530
4495,-240,-1312,-216,40,83,556
4500,-272,-1400,-224,-7,98,593
4505,-224,-1312,-224,-49,102,630
4510,-352,-1344,-160,-119,98,616
4515,-400,-1368,-160,-187,90,587
4520,-448,-1456,-160,-243,87,566
4525,-488,-1552,-168,-269,93,576
4530,-512,-1552,-152,-275,106,596
4535,-512,-1664,-128,-272,115,603
4540,-456,-1648,-128,-257,125,612
4545,-432,-1704,-72,-262,128,602
4550,-368,-1792,-144,-279,124,582
4555,-320,-1872,-152,-301,124,568
4560,-248,-1976,-144,-309,125,561
4565,-288,-2040,-152,-290,118,553
4570,-288,-2088,-96,-254,127,526
4575,-328,-2072,-88,-215,133,490
4580,-320,-2072,-80,-185,136,480
4585,-352,-2008,-40,-160,135,467
4590,-384,-1944,-64,-124,136,445
4595,-312,-1880,-24,-79,139,422
4600,-312,-1824,-64,-52,147,376
4605,-272,-1808,-72,-37,164,321
4610,-232,-1776,-80,-28,191,273
4615,-240,-1720,-88,-25,220,233
4620,-184,-1728,-48,-29,242,192
4625,-144,-1752,-56,-28,258,155
4630,-128,-1696,-88,-23,275,120
4635,-128,-1704,-88,-18,293,97
4640,-136,-1672,-56,-18,304,82
4645,-112,-1720,-88,-24,316,77
4650,-128,-1704,-112,-47,338,70
4655,-104,-1760,-104,-78,357,61
4660,-112,-1808,-64,-96,396,59
4665,-96,-1824,-96,-99,430,61
4670,-96,-1888,-48,-95,444,61
4675,-120,-1944,0,-82,444,66
4680,-160,-2032,0,-63,438,71
4685,-192,-2080,32,-35,429,80
4690,-240,-2096,64,1,428,102
4695,-312,-2152,96,37,434,129
4700,-376,-2168,176,74,441,149
4705,-424,-2240,184,112,447,158
4710,-432,-2272,248,146,465,168
4715,-424,-2296,256,184,480,183
4720,-456,-2352,256,223,498,188
4725,-400,-2376,232,259,518,176
4730,-384,-2456,272,305,547,161
4735,-384,-2472,224,357,578,131
4740,-368,-2504,248,414,612,89
4745,-384,-2496,240,478,651,53
4750,-384,-2528,304,549,682,20
4755,-448,-2488,136,613,701,-9
4760,-344,-2536,248,663,713,-38
4765,-400,-2376,120,691,717,-59
4770,-416,-2272,0,707,708,-77
4775,-464,-2160,-160,695,684,-96
4780,-528,-2080,-360,636,661,-112
4785,-584,-2048,-504,525,633,-120
4790,-760,-1992,-696,372,590,-111
4795,-936,-2032,-864,190,492,-82
4800,-1088,-2064,-1040,-9,382,-30
4805,-1256,-2112,-1184,-218,271,41
4810,-1528,-2304,-1288,-465,164,129
4815,-1776,-2568,-1144,-646,51,237
4820,-2056,-2816,-1056,-771,-83,356
4825,-2056,-2992,-816,-824,-237,484
4830,-1960,-3072,-712,-798,-391,601
4835,-1664,-3080,-608,-707,-512,671
4840,-1256,-3080,-488,-570,-571,682
4845,-920,-2904,-432,-393,-555,612
4850,-672,-2632,-480,-190,-472,473
4855,-496,-2440,-600,-8,-380,284
4860,-256,-2200,-712,118,-292,97
4865,8,-2032,-752,201,-203,-58
4870,264,-1880,-824,264,-120,-175
4875,456,-1736,-880,315,-27,-263
4880,520,-1672,-944,356,90,-339
4885,672,-1584,-968,382,225,-406
4890,768,-1560,-984,395,363,-452
4895,784,-1520,-928,390,496,-478
4900,792,-1536,-920,369,604,-480
4905,640,-1536,-824,334,668,-466
4910,464,-1496,-784,289,691,-426
4915,184,-1456,-744,224,674,-366
4920,-96,-1408,-720,126,623,-293
4925,-272,-1416,-776,-16,561,-214
4930,-408,-1488,-808,-191,509,-157
4935,-552,-1608,-776,-361,466,-128
4940,-640,-1728,-752,-494,422,-114
4945,-720,-1848,-712,-564,366,-98
4950,-784,-1976,-712,-585,301,-84
4955,-808,-2144,-680,-576,241,-73
4960,-816,-2336,-664,-553,187,-69
4965,-760,-2544,-608,-511,140,-75
4970,-736,-2664,-624,-445,90,-98
4975,-720,-2728,-568,-357,29,-139
4980,-696,-2768,-520,-256,-45,-198
4985,-656,-2720,-520,-137,-124,-270
4990,-640,-2648,-496,-17,-186,-344
4995,-632,-2536,-480,82,-217,-413
5000,-592,-2432,-448,156,-222,-472
5005,-576,-2296,-384,221,-209,-528
5010,-536,-2160,-376,261,-192,-572
5015,-432,-2080,-336,277,-179,-610
5020,-392,-2008,-304,288,-176,-644
5025,-344,-1888,-312,300,-182,-669
5030,-280,-1832,-320,310,-199,-687
5035,-224,-1800,-328,307,-220,-703
5040,-216,-1752,-288,295,-242,-709
5045,-224,-1760,-248,280,-274,-703
5050,-168,-1816,-208,277,-312,-691
5055,-184,-1824,-192,294,-355,-690
5060,-128,-1808,-208,303,-399,-684
5065,-88,-1736,-224,301,-428,-678
5070,-32,-1696,-232,287,-448,-670
5075,-32,-1640,-264,266,-452,-659
5080,-24,-1584,-248,242,-453,-661
5085,-32,-1560,-304,221,-447,-657
5090,16,-1512,-288,202,-438,-659
5095,16,-1464,-264,191,-430,-664
5100,40,-1472,-216,199,-422,-655
5105,32,-1424,-240,212,-418,-651
5110,32,-1456,-232,220,-413,-645
5115,16,-1448,-224,216,-407,-645
5120,40,-1480,-184,207,-387,-631
5125,72,-1456,-176,202,-362,-610
5130,64,-1456,-160,203,-328,-592
5135,80,-1432,-128,210,-292,-566
5140,96,-1448,-120,213,-257,-540
5145,144,-1472,-80,218,-224,-511
5150,152,-1472,-48,222,-197,-477
5155,192,-1488,-40,220,-182,-445
5160,192,-1456,-16,209,-175,-422
5165,216,-1440,-48,196,-175,-402
5170,216,-1432,-48,201,-173,-368
5175,184,-1408,-40,212,-172,-328
5180,176,-1384,-48,218,-174,-289
5185,168,-1408,-80,213,-177,-247
5190,136,-1344,-96,196,-181,-211
5195,72,-1424,-88,179,-188,-188
5200,24,-1432,-64,169,-191,-144
5205,48,-1456,-32,159,-190,-94
5210,-8,-1488,-40,151,-189,-47
5215,0,-1520,24,153,-183,-3
5220,-16,-1544,40,163,-177,43
5225,-8,-1568,56,180,-169,89
5230,24,-1552,88,206,-159,136
5235,8,-1552,112,251,-147,180
5240,-8,-1552,112,305,-136,218
5245,-40,-1528,72,345,-130,249
5250,0,-1568,64,340,-124,275
5255,16,-1520,72,304,-120,301
5260,40,-1536,120,290,-117,321
5265,32,-1544,176,321,-116,333
5270,32,-1552,152,378,-120,337
5275,40,-1544,120,431,-130,330
5280,48,-1560,64,458,-147,320
5285,56,-1552,48,458,-168,305
5290,96,-1568,-16,440,-187,286
5295,88,-1584,-80,414,-207,263
5300,48,-1648,-144,385,-233,235
5305,48,-1680,-176,365,-266,208
5310,80,-1752,-176,349,-305,168
5315,32,-1784,-248,331,-339,125
5320,8,-1816,-224,309,-373,96
5325,-32,-1848,-232,273,-409,68
5330,-168,-1880,-224,219,-442,34
5335,-368,-1928,-120,173,-479,7
5340,-440,-1976,64,126,-521,23
5345,-480,-2056,192,83,-566,49
5350,-368,-2128,272,67,-598,65
5355,-328,-2224,360,54,-603,57
5360,-184,-2368,424,35,-588,35
5365,-32,-2496,480,28,-563,15
5370,144,-2632,552,35,-543,-8
5375,304,-2784,568,63,-544,-41
5380,440,-2864,552,111,-562,-82
5385,584,-2880,544,154,-583,-120
5390,688,-2880,480,180,-602,-154
5395,768,-2872,440,179,-608,-192
5400,816,-2880,352,160,-601,-229
5405,808,-2880,248,145,-577,-252
5410,720,-2824,168,144,-543,-262
5415,600,-2776,88,148,-502,-269
5420,504,-2696,56,143,-448,-276
5425,392,-2656,-48,117,-383,-292
5430,224,-2608,-120,82,-314,-306
5435,96,-2552,-224,64,-254,-310
5440,64,-2456,-400,73,-230,-307
5445,104,-2440,-568,72,-211,-324
5450,208,-2312,-720,57,-174,-350
5455,344,-2296,-872,22,-110,-380
5460,360,-2312,-1024,-24,-28,-392
5465,360,-2264,-1176,-59,48,-354
5470,240,-2192,-1264,-123,95,-318
5475,136,-2072,-1312,-209,125,-273
5480,-16,-2200,-1288,-295,136,-271
5485,-136,-2080,-1376,-314,142,-218
5490,-352,-2088,-1272,-319,141,-165
5495,-544,-2016,-1288,-322,123,-187
5500,-568,-2144,-1128,-330,100,-186
5505,-552,-2128,-1064,-312,83,-164
5510,-632,-2184,-944,-314,82,-211
5515,-752,-2256,-752,-314,75,-257
5520,-800,-2352,-624,-273,90,-296
5525,-760,-2280,-528,-168,89,-301
5530,-752,-2144,-456,-63,61,-289
5535,-704,-2096,-400,12,22,-250
5540,-712,-2032,-416,79,-24,-207
5545,-720,-2040,-424,142,-66,-156
5550,-696,-1976,-496,195,-106,-96
5555,-584,-1944,-600,235,-147,-22
5560,-496,-1952,-704,256,-178,66
5565,-384,-1912,-720,261,-196,146
5570,-296,-1920,-712,254,-199,216
5575,-184,-2040,-624,219,-187,283
5580,-136,-2160,-512,162,-169,323
5585,-40,-2176,-392,115,-147,342
5590,0,-2208,-304,103,-109,389
5595,56,-2240,-264,132,-80,426
5600,152,-2176,-272,190,-55,426
5605,264,-2136,-368,240,-25,415
5610,376,-2024,-432,264,23,414
5615,432,-1976,-456,279,88,432
5620,472,-1880,-480,287,165,468
5625,464,-1816,-480,291,241,511
5630,432,-1704,-496,277,312,507
5635,376,-1680,-424,247,377,504
5640,248,-1632,-376,229,429,476
5645,184,-1608,-352,234,476,444
5650,160,-1536,-360,254,528,453
5655,72,-1520,-376,267,580,492
5660,-24,-1472,-344,248,643,488
5665,-104,-1488,-264,219,703,468
5670,-184,-1504,-240,204,755,440
5675,-208,-1424,-216,201,797,414
5680,-208,-1400,-168,183,829,400
5685,-264,-1424,-160,148,854,418
5690,-336,-1464,-144,107,856,425
5695,-344,-1528,-136,69,844,409
5700,-344,-1544,-128,27,839,408
5705,-352,-1624,-56,-23,833,429
5710,-400,-1648,-80,-67,822,441
5715,-448,-1696,-96,-95,809,436
5720,-488,-1760,-72,-114,797,424
5725,-504,-1760,-104,-116,779,400
5730,-512,-1784,-128,-115,758,381
5735,-496,-1816,-80,-108,734,350
5740,-504,-1808,-72,-88,712,322
5745,-528,-1864,-40,-65,696,291
5750,-536,-1816,-16,-36,681,258
5755,-544,-1784,-40,-11,665,227
5760,-528,-1784,-56,7,648,200
5765,-512,-1784,-56,12,634,173
5770,-472,-1776,-104,15,619,137
5775,-432,-1760,-72,9,604,106
5780,-424,-1688,-72,-2,590,78
5785,-408,-1688,-56,-2,578,51
5790,-352,-1704,32,12,560,24
5795,-360,-1672,56,36,545,-4
5800,-336,-1728,96,70,530,-33
5805,-344,-1704,112,102,520,-62
5810,-336,-1704,168,123,516,-84
5815,-312,-1800,224,139,519,-103
5820,-304,-1856,288,155,528,-124
5825,-264,-1912,336,171,539,-142
5830,-232,-1944,400,189,555,-157
5835,-120,-2032,408,204,577,-173
5840,-56,-2096,464,224,609,-187
5845,-16,-2152,488,252,647,-203
5850,0,-2208,520,297,677,-217
5855,8,-2208,448,359,694,-223
5860,-8,-2256,400,422,699,-219
5865,-56,-2232,312,473,702,-209
5870,-168,-2184,168,504,704,-178
5875,-224,-2136,96,518,692,-160
5880,-224,-2128,16,518,689,-144
5885,-208,-2080,-40,509,708,-125
5890,-184,-2072,-64,492,747,-102
5895,-184,-2064,-48,478,802,-83
5900,-168,-2056,-64,471,853,-67
5905,-160,-2080,-128,465,894,-57
5910,-120,-2112,-168,449,926,-50
5915,-24,-2224,-224,412,960,-44
5920,0,-2352,-256,350,1014,-44
5925,-8,-2432,-184,285,1085,-41
5930,-104,-2656,-16,238,1140,-21
5935,-208,-2784,48,235,1147,31
5940,-232,-2944,24,272,1122,108
5945,-344,-2984,-88,313,1098,197
5950,-408,-2992,-248,334,1068,283
5955,-384,-2992,-424,352,1014,333
5960,-288,-2904,-680,367,957,362
5965,-248,-2728,-848,381,914,383
5970,-224,-2568,-952,404,881,392
5975,-256,-2336,-1064,437,864,376
5980,-256,-2072,-1088,485,864,344
5985,-248,-1776,-1048,538,886,326
5990,-320,-1576,-968,573,919,328
5995,-360,-1392,-944,603,956,326
6000,-416,-1160,-864,606,1006,329
6005,-376,-960,-856,601,1046,321
6010,-296,-968,-744,573,1074,296
6015,-184,-944,-720,532,1096,244
6020,-112,-960,-672,465,1114,191
6025,32,-1080,-632,384,1119,141
6030,64,-1224,-480,277,1107,94
6035,88,-1400,-400,156,1083,52
6040,64,-1560,-240,51,1034,15
6045,-8,-1632,-208,-34,963,-16
6050,-128,-1792,-152,-124,870,-59
6055,-336,-1968,-112,-217,767,-100
6060,-464,-2128,-120,-302,667,-144
6065,-520,-2216,-136,-359,567,-190
6070,-568,-2384,-120,-379,506,-222
6075,-608,-2616,-136,-367,449,-250
6080,-624,-2800,-136,-328,392,-276
6085,-600,-2928,-216,-279,337,-301
6090,-544,-3000,-280,-223,280,-326
6095,-440,-3088,-304,-163,222,-348
6100,-328,-3088,-256,-90,158,-372
6105,-264,-3056,-208,6,85,-397
6110,-192,-2904,-224,130,6,-428
6115,-160,-2768,-256,244,-61,-452
6120,-144,-2544,-224,328,-119,-478
6125,-184,-2296,-280,367,-160,-495
6130,-200,-2096,-264,385,-195,-504
6135,-160,-1952,-312,381,-220,-507
6140,-216,-1840,-344,350,-237,-510
6145,-176,-1720,-352,297,-249,-510
6150,-216,-1712,-320,233,-260,-507
6155,-192,-1760,-280,189,-280,-515
6160,-184,-1704,-288,165,-290,-523
6165,-88,-1768,-192,139,-292,-521
6170,-64,-1776,-232,111,-300,-515
6175,-32,-1840,-200,87,-313,-509
6180,-16,-1904,-136,68,-325,-513
6185,-24,-1864,-192,55,-344,-517
6190,-32,-1912,-136,39,-362,-516
6195,-32,-1944,-152,23,-375,-506
6200,-32,-2016,-104,9,-389,-489
6205,-80,-2064,-88,1,-406,-479
6210,-96,-2048,-112,-4,-426,-476
6215,-88,-2080,-136,-7,-448,-471
6220,-48,-2112,-128,-16,-466,-463
6225,-40,-2144,-136,-31,-483,-451
6230,-24,-2136,-104,-39,-506,-447
6235,-40,-2128,-88,-34,-528,-452
6240,-24,-2112,-64,-19,-546,-460
6245,16,-2096,-32,2,-566,-478
6250,40,-2000,-8,31,-579,-487
6255,72,-1944,-40,59,-587,-493
6260,80,-1904,-8,82,-593,-498
6265,120,-1840,-40,92,-600,-511
6270,176,-1736,-48,90,-600,-512
6275,208,-1616,-40,85,-600,-510
6280,240,-1528,-24,82,-594,-504
6285,304,-1512,-32,81,-588,-488
6290,296,-1480,-32,59,-586,-477
6295,288,-1464,16,17,-582,-471
6300,304,-1480,32,-14,-574,-456
6305,248,-1528,24,-24,-563,-439
6310,256,-1568,24,-36,-553,-418
6315,200,-1616,40,-60,-541,-402
6320,184,-1640,104,-88,-527,-388
6325,176,-1632,144,-97,-510,-368
6330,168,-1672,152,-84,-498,-345
6335,160,-1696,192,-66,-487,-323
6340,168,-1712,232,-46,-479,-304
6345,192,-1776,200,-25,-473,-290
6350,192,-1768,256,-8,-455,-269
6355,176,-1792,248,4,-435,-240
6360,152,-1808,232,18,-421,-225
6365,144,-1824,272,37,-411,-216
6370,136,-1760,344,58,-402,-207
6375,176,-1768,296,88,-386,-196
6380,104,-1712,344,130,-375,-178
6385,144,-1728,312,162,-368,-167
6390,168,-1680,328,195,-368,-162
6395,144,-1600,312,228,-369,-156
6400,152,-1576,352,253,-369,-140
6405,160,-1552,368,272,-374,-128
6410,112,-1512,360,294,-381,-117
6415,88,-1480,400,305,-391,-111
6420,-8,-1472,424,316,-411,-110
6425,-16,-1464,480,330,-440,-109
6430,-32,-1512,488,341,-473,-107
6435,0,-1512,440,346,-514,-111
6440,-24,-1616,496,347,-557,-122
6445,-96,-1632,504,345,-603,-127
6450,-160,-1704,552,341,-668,-129
6455,-288,-1800,504,334,-746,-122
6460,-304,-1912,536,325,-839,-107
6465,-376,-1960,488,311,-937,-85
6470,-472,-1944,512,304,-1037,-50
6475,-560,-2000,472,303,-1133,5
6480,-536,-1984,408,313,-1246,52
6485,-584,-1984,376,332,-1360,95
6490,-584,-1928,272,362,-1469,139
6495,-584,-1896,176,398,-1570,179
6500,-568,-1832,56,419,-1667,214
6505,-504,-1832,-144,410,-1749,235
6510,-424,-1832,-344,370,-1810,229
6515,-272,-1896,-576,293,-1848,199
6520,-88,-1960,-736,176,-1863,141
6525,40,-2088,-960,27,-1857,62
6530,200,-2288,-1072,-153,-1842,-36
6535,312,-2608,-1104,-325,-1844,-146
6540,232,-2896,-1048,-453,-1863,-261
6545,112,-3072,-1000,-532,-1886,-384
6550,-128,-3160,-864,-550,-1901,-490
6555,-320,-3248,-768,-502,-1911,-562
6560,-568,-3256,-680,-390,-1941,-621
6565,-592,-3200,-576,-222,-2007,-645
6570,-808,-3024,-512,-4,-2068,-631
6575,-656,-2752,-528,231,-2104,-589
6580,-592,-2488,-536,429,-2133,-539
6585,-600,-2240,-520,561,-2145,-458
6590,-608,-2120,-544,625,-2159,-372
6595,-712,-2048,-504,647,-2193,-315
6600,-760,-1936,-456,650,-2249,-288
6605,-752,-1832,-464,643,-2335,-274
6610,-688,-1704,-496,615,-2438,-269
6615,-624,-1664,-520,561,-2542,-258
6620,-536,-1528,-568,483,-2638,-245
6625,-416,-1416,-560,399,-2721,-232
6630,-304,-1400,-584,326,-2794,-219
6635,-256,-1352,-592,259,-2859,-197
6640,-200,-1416,-608,204,-2925,-161
6645,-120,-1536,-600,159,-2995,-124
6650,-16,-1608,-592,122,-3059,-111
6655,-16,-1688,-640,82,-3111,-83
6660,0,-1784,-624,35,-3150,-51
6665,-24,-1848,-584,-22,-3189,-39
6670,-48,-1960,-496,-87,-3229,-9
6675,-80,-2040,-440,-133,-3243,12
6680,-88,-2152,-408,-161,-3239,10
6685,-24,-2200,-408,-177,-3224,-19
6690,-56,-2128,-408,-195,-3188,-69
6695,-120,-2192,-360,-215,-3148,-72
6700,-104,-2200,-368,-224,-3133,-55
6705,-168,-2208,-360,-214,-3133,-36
6710,-160,-2192,-288,-192,-3141,-15
6715,-168,-2176,-296,-161,-3142,-13
6720,-248,-2096,-312,-115,-3141,-15
6725,-272,-2104,-296,-54,-3123,60
6730,-280,-2080,-280,2,-3125,91
6735,-216,-1968,-344,46,-3149,124
6740,-272,-1856,-320,33,-3182,87
6745,-256,-1800,-296,27,-3190,71
6750,-240,-1768,-320,39,-3174,88
6755,-264,-1696,-280,55,-3148,112
6760,-176,-1672,-264,64,-3126,109
6765,-120,-1672,-216,79,-3095,105
6770,16,-1640,-256,99,-3064,96
6775,104,-1640,-200,108,-3036,64
6780,224,-1648,-216,108,-2998,43
6785,376,-1648,-216,107,-2937,48
6790,352,-1640,-248,118,-2851,97
6795,296,-1592,-208,106,-2770,99
6800,304,-1608,-184,96,-2666,112
6805,232,-1672,-128,88,-2571,101
6810,320,-1688,-120,85,-2485,73
6815,312,-1712,-64,106,-2369,98
6820,288,-1704,-72,109,-2287,72
6825,296,-1744,-72,105,-2218,36
6830,328,-1728,-96,105,-2150,11
6835,392,-1712,-48,129,-2050,32
6840,352,-1712,-24,173,-1935,102
6845,344,-1680,-32,212,-1851,131
6850,272,-1656,-8,237,-1791,124
6855,328,-1632,-104,261,-1748,101
6860,280,-1616,-184,296,-1697,112
6865,144,-1616,-208,326,-1651,163
6870,56,-1592,-240,341,-1656,184
6875,96,-1600,-256,342,-1675,194
6880,120,-1568,-264,341,-1672,227
6885,88,-1536,-272,326,-1661,267
6890,72,-1528,-280,290,-1635,305
6895,48,-1536,-264,246,-1606,339
6900,48,-1552,-256,208,-1575,371
6905,-16,-1552,-232,171,-1535,402
6910,24,-1568,-216,136,-1501,420
6915,24,-1568,-200,109,-1457,432
6920,24,-1528,-176,84,-1413,445
6925,24,-1544,-152,65,-1373,456
6930,24,-1528,-136,52,-1342,468
6935,96,-1520,-216,47,-1325,466
6940,120,-1504,-216,48,-1316,458
6945,160,-1488,-256,53,-1307,439
6950,208,-1472,-376,53,-1301,391
6955,296,-1392,-440,40,-1299,349
6960,304,-1408,-592,13,-1309,322
6965,240,-1368,-664,-41,-1350,325
6970,176,-1368,-752,-119,-1414,334
6975,104,-1376,-832,-232,-1469,338
6980,-8,-1400,-848,-317,-1516,332
6985,-32,-1392,-864,-388,-1548,330
6990,-40,-1408,-808,-443,-1565,319
6995,-56,-1448,-816,-490,-1571,299
7000,-80,-1472,-776,-531,-1581,276
7005,-144,-1472,-768,-580,-1608,258
7010,-152,-1456,-760,-641,-1654,253
7015,-152,-1464,-744,-700,-1709,263
7020,-144,-1432,-736,-750,-1765,270
7025,-112,-1440,-736,-797,-1810,290
7030,-56,-1400,-736,-838,-1850,303
7035,-16,-1376,-688,-876,-1888,322
7040,80,-1360,-712,-904,-1926,333
7045,104,-1376,-728,-931,-1960,341
7050,176,-1376,-688,-953,-1987,354
7055,232,-1296,-704,-971,-1999,370
7060,296,-1336,-696,-984,-2009,383
7065,312,-1360,-696,-992,-2028,401
7070,296,-1360,-744,-990,-2046,421
7075,312,-1368,-720,-1001,-2050,436
7080,280,-1400,-752,-1018,-2053,448
7085,216,-1376,-816,-1039,-2057,462
7090,192,-1376,-792,-1055,-2055,469
7095,128,-1344,-784,-1062,-2037,470
7100,56,-1296,-808,-1040,-2026,468
7105,64,-1312,-760,-999,-2010,471
7110,72,-1328,-696,-972,-1978,463
7115,40,-1312,-648,-945,-1934,461
7120,56,-1336,-608,-893,-1894,456
7125,112,-1392,-576,-842,-1864,453
7130,136,-1384,-560,-818,-1842,453
7135,112,-1376,-552,-813,-1820,469
7140,112,-1312,-584,-806,-1805,484
7145,152,-1320,-608,-787,-1803,481
7150,240,-1312,-624,-753,-1801,462
7155,320,-1320,-600,-709,-1787,444
7160,312,-1312,-576,-660,-1767,413
7165,400,-1296,-536,-616,-1766,372
7170,432,-1384,-440,-570,-1764,321
7175,376,-1360,-408,-504,-1766,273
7180,304,-1336,-352,-420,-1774,227
7185,168,-1256,-336,-341,-1764,201
7190,32,-1136,-368,-278,-1765,193
7195,-32,-984,-392,-237,-1751,208
7200,-40,-816,-464,-217,-1720,235
7205,-8,-672,-472,-228,-1649,285
7210,-8,-640,-440,-252,-1546,354
7215,40,-632,-456,-279,-1454,423
7220,56,-640,-464,-301,-1375,491
7225,8,-688,-448,-322,-1311,577
7230,-32,-704,-480,-327,-1248,675
7235,-72,-728,-552,-312,-1193,783
7240,-88,-720,-728,-287,-1134,892
7245,-48,-784,-824,-249,-1066,997
7250,-152,-880,-880,-192,-990,1097
7255,-192,-968,-952,-129,-927,1191
7260,-264,-1024,-1000,-76,-878,1305
7265,-344,-1128,-1088,-39,-847,1413
7270,-480,-1160,-1152,-22,-816,1517
7275,-672,-1216,-1256,-6,-762,1622
7280,-816,-1296,-1352,6,-695,1731
7285,-912,-1360,-1440,42,-614,1837
7290,-1040,-1432,-1496,95,-527,1917
7295,-1104,-1576,-1488,171,-451,1967
7300,-1160,-1704,-1448,266,-391,1985
7305,-1224,-1792,-1344,387,-343,1975
7310,-1256,-1992,-1240,532,-296,1931
7315,-1416,-2160,-1120,691,-242,1870
7320,-1520,-2328,-1000,867,-178,1776
7325,-1640,-2512,-936,1066,-122,1640
7330,-1768,-2584,-792,1284,-76,1498
7335,-1856,-2592,-656,1506,-49,1363
7340,-1960,-2632,-488,1695,-41,1239
7345,-2088,-2640,-304,1849,-62,1140
7350,-2208,-2408,-264,1960,-129,1052
7355,-2232,-2184,-200,2041,-216,1032
7360,-2344,-1896,-200,2065,-309,1023
7365,-2288,-1728,-56,2000,-392,1030
7370,-2240,-1768,168,1892,-478,1071
7375,-2128,-1792,296,1776,-568,1114
7380,-1992,-1744,440,1664,-641,1152
7385,-1952,-1688,448,1574,-708,1198
7390,-1664,-1600,464,1522,-732,1253
7395,-1536,-1456,520,1520,-743,1325
7400,-1272,-1360,528,1549,-775,1433
7405,-1144,-1224,600,1596,-819,1588
7410,-1080,-1104,624,1664,-905,1768
7415,-1192,-944,680,1720,-1049,1923
7420,-1144,-864,872,1740,-1242,2092
7425,-1208,-872,992,1748,-1485,2275
7430,-1320,-920,1288,1768,-1740,2443
7435,-1592,-1080,1464,1784,-1970,2606
7440,-1744,-1216,1488,1794,-2124,2757
7445,-1952,-1496,1568,1791,-2188,2916
7450,-2328,-1968,1744,1752,-2171,3042
7455,-2512,-2504,1880,1715,-2078,3147
7460,-2688,-3104,1984,1684,-1940,3207
7465,-3072,-3656,2000,1655,-1781,3211
7470,-3088,-3952,2152,1622,-1679,3130
7475,-3480,-4176,2112,1595,-1625,3073
7480,-4104,-4288,2056,1604,-1587,3085
7485,-5360,-4112,2024,1631,-1593,3189
7490,-6424,-3808,2048,1649,-1637,3477
7495,-6808,-3768,2048,1637,-1680,3831
7500,-7592,-3520,2280,1590,-1604,4098
7505,-7584,-3480,2384,1607,-1451,4256
7510,-6632,-3504,2496,1717,-1186,4246
7515,-5672,-3224,2208,1848,-844,4069
7520,-4448,-3168,2008,1948,-480,3906
7525,-3304,-2864,2008,1974,-81,3756
7530,-2016,-2736,2000,1995,201,3735
7535,-944,-2624,2056,1984,262,3691
7540,-536,-2384,2064,1958,145,3594
7545,-584,-2112,1832,1970,-109,3508
7550,-448,-1976,1728,2050,-435,3469
7555,-40,-1808,1648,2167,-688,3485
7560,288,-1792,1496,2258,-757,3542
7565,136,-1816,1280,2288,-683,3496
7570,128,-2040,912,2288,-609,3362
7575,-120,-2088,560,2323,-619,3116
7580,-560,-1848,464,2402,-712,2792
7585,-1352,-1408,504,2577,-820,2538
7590,-1448,-1104,432,2759,-886,2412
7595,-1376,-832,240,2856,-844,2244
7600,-1512,-480,240,2829,-616,1978
7605,-1432,-272,328,2716,-283,1701
7610,-1632,8,512,2587,8,1438
7615,-1728,184,440,2546,209,1279
7620,-1504,544,216,2549,378,1227
7625,-1256,856,240,2509,536,1241
7630,-1024,888,408,2453,665,1276
7635,-1192,1136,528,2406,733,1285
7640,-1256,1232,512,2330,728,1345
7645,-1360,1304,368,2219,681,1438
7650,-1416,1472,216,2107,659,1536
7655,-1632,1624,472,1977,658,1594
7660,-1864,1776,560,1833,599,1643
7665,-2160,1864,640,1700,495,1710
7670,-2384,1848,752,1555,352,1743
7675,-2376,1776,768,1434,258,1734
7680,-2320,1608,808,1365,230,1725
7685,-2192,1544,656,1313,195,1709
7690,-2080,1504,560,1261,175,1675
7695,-2024,1624,592,1207,157,1669
7700,-2088,1752,592,1162,106,1682
7705,-2024,1824,664,1122,45,1669
7710,-2168,1984,784,1068,20,1600
7715,-2200,2096,960,980,32,1492
7720,-2256,2232,1056,833,53,1358
7725,-2352,2304,1024,656,64,1193
7730,-2504,2192,1008,485,81,989
7735,-2472,2120,1000,344,132,791
7740,-2504,2024,968,270,235,594
7745,-2632,1824,928,272,347,396
7750,-2488,1592,888,333,438,191
7755,-2456,1496,952,405,514,-12
7760,-2200,1280,912,483,531,-179
7765,-2000,1072,776,582,515,-316
7770,-1928,808,856,657,491,-438
7775,-1624,512,856,711,415,-451
7780,-1536,456,856,718,272,-446
7785,-1440,408,832,695,119,-453
7790,-1272,328,680,676,-7,-450
7795,-1072,320,616,678,-102,-403
7800,-984,344,504,685,-165,-321
7805,-1016,392,520,683,-227,-239
7810,-1000,480,512,675,-273,-159
7815,-1016,608,536,655,-298,-85
7820,-920,832,576,622,-311,-15
7825,-968,1040,568,579,-327,36
7830,-1008,1192,552,533,-343,66
7835,-1024,1360,512,488,-367,88
7840,-1080,1424,536,444,-383,96
7845,-1192,1488,528,412,-385,101
7850,-1232,1504,512,401,-401,111
7855,-1224,1504,424,396,-420,107
7860,-1280,1488,368,387,-422,99
7865,-1304,1464,392,372,-432,89
7870,-1424,1432,432,363,-427,84
7875,-1504,1424,416,351,-425,85
7880,-1488,1416,440,333,-422,89
7885,-1648,1392,536,317,-411,103
7890,-1968,1384,608,296,-384,112
7895,-2080,1296,616,252,-376,108
7900,-2088,1272,648,193,-365,90
7905,-2048,1248,712,124,-352,51
7910,-2016,1200,736,86,-351,3
7915,-1944,1176,808,72,-353,-33
7920,-1864,1104,792,68,-347,-72
7925,-1904,1080,824,58,-320,-121
7930,-1856,1056,912,40,-270,-176
7935,-1816,1016,960,25,-213,-229
7940,-1824,976,968,21,-145,-284
7945,-1856,920,1016,24,-83,-331
7950,-1864,840,1016,32,-23,-370
7955,-1832,816,984,44,31,-403
7960,-1832,744,1000,54,86,-428
7965,-1800,696,1008,53,137,-453
7970,-1776,648,1000,46,185,-465
7975,-1784,592,1056,36,231,-470
7980,-1728,528,1072,37,270,-471
7985,-1640,480,1088,53,308,-479
7990,-1568,432,1064,72,350,-488
7995,-1560,416,1064,88,401,-486
8000,-1576,360,1104,104,446,-475
8005,-1640,328,1128,132,476,-462
8010,-1696,312,1136,166,482,-452
8015,-1720,312,1096,198,476,-436
8020,-1736,328,1072,225,464,-411
8025,-1768,336,1032,255,458,-384
8030,-1688,344,984,275,462,-353
8035,-1680,352,1024,292,474,-322
8040,-1656,368,984,295,495,-295
8045,-1624,384,952,287,531,-270
8050,-1664,400,888,269,577,-253
8055,-1672,392,928,249,621,-247
8060,-1720,432,880,227,650,-233
8065,-1800,424,896,216,695,-216
8070,-1848,368,896,216,744,-196
8075,-1880,352,912,217,796,-189
8080,-1896,288,856,216,844,-185
8085,-1824,224,808,214,895,-195
8090,-1776,192,864,216,993,-208
8095,-1672,144,840,210,1080,-218
8100,-1680,144,880,209,1164,-231
8105,-1584,80,864,228,1240,-245
8110,-1616,120,896,261,1312,-255
8115,-1632,120,912,304,1380,-242
8120,-1704,160,880,327,1422,-226
8125,-1672,168,864,318,1444,-207
8130,-1696,192,832,278,1463,-194
8135,-1688,216,800,223,1495,-178
8140,-1744,152,704,160,1532,-162
8145,-1776,120,664,89,1564,-152
8150,-1784,88,568,14,1598,-148
8155,-1768,48,552,-66,1631,-149
8160,-1752,8,496,-141,1660,-158
8165,-1720,-8,472,-206,1684,-178
8170,-1680,-32,448,-255,1710,-202
8175,-1712,-8,528,-262,1732,-216
8180,-1688,-24,464,-223,1745,-207
8185,-1736,-32,504,-160,1748,-194
8190,-1720,-40,448,-88,1746,-178
8195,-1792,-32,416,-10,1742,-152
8200,-1872,-32,392,73,1741,-123
8205,-1936,-24,360,143,1739,-105
8210,-2000,-24,304,217,1745,-83
8215,-2048,-24,224,251,1760,-66
8220,-2080,-8,136,273,1776,-43
8225,-2192,32,56,291,1807,-9
8230,-2224,64,8,286,1852,33
8235,-2232,136,-32,253,1907,77
8240,-2456,184,56,232,1955,136
8245,-2552,64,-64,248,1996,208
8250,-2448,152,-256,211,2016,238
8255,-2480,256,-368,154,2061,244
8260,-2360,248,-552,126,2152,272
8265,-2336,208,-704,98,2259,270
8270,-2192,240,-848,92,2336,252
8275,-2120,312,-904,99,2364,234
8280,-2112,304,-944,122,2327,229
8285,-2040,320,-896,163,2248,222
8290,-2040,320,-792,228,2122,215
8295,-2144,336,-680,301,1936,198
8300,-2176,376,-760,359,1731,187
8305,-2240,360,-624,392,1515,181
8310,-2416,368,-600,400,1315,184
8315,-2504,368,-712,401,1151,189
8320,-2584,376,-816,407,1045,198
8325,-2600,368,-864,427,988,194
8330,-2640,328,-960,460,968,178
8335,-2640,296,-1008,500,964,152
8340,-2568,312,-1128,543,967,119
8345,-2632,328,-1136,594,983,80
8350,-2584,400,-1136,658,969,44
8355,-2608,480,-1144,721,937,12
8360,-2592,536,-1080,770,889,-9
8365,-2552,608,-992,802,825,-22
8370,-2432,616,-952,813,744,-37
8375,-2328,648,-920,797,657,-49
8380,-2184,648,-856,760,564,-55
8385,-2088,656,-832,705,470,-57
8390,-2000,608,-744,639,375,-64
8395,-1848,600,-680,580,284,-75
8400,-1784,544,-608,524,203,-84
8405,-1696,536,-592,470,139,-93
8410,-1688,528,-560,423,88,-98
8415,-1672,536,-536,391,60,-98
8420,-1696,528,-496,354,25,-89
8425,-1672,520,-504,304,-21,-80
8430,-1624,504,-480,243,-59,-65
8435,-1672,456,-512,196,-60,-59
8440,-1712,496,-400,171,-29,-48
8445,-1704,496,-408,137,-28,-32
8450,-1800,488,-408,86,-45,-17
8455,-1704,424,-480,44,-42,-10
8460,-1728,472,-432,31,11,-12
8465,-1720,432,-448,-9,22,0
8470,-1744,400,-464,-50,34,15
8475,-1784,424,-400,-92,47,23
8480,-1768,392,-432,-150,42,31
8485,-1848,384,-384,-208,34,39
8490,-1832,368,-376,-260,20,39
8495,-1880,384,-384,-305,-12,34
8500,-1856,352,-368,-346,-52,26
8505,-1872,368,-400,-381,-99,18
8510,-1872,392,-384,-422,-149,6
8515,-1880,392,-376,-452,-201,-2
8520,-1904,400,-424,-477,-250,-3
8525,-1936,424,-424,-502,-299,-2
8530,-1928,416,-416,-526,-351,5
8535,-1992,440,-456,-548,-403,14
8540,-2032,432,-432,-563,-445,25
8545,-2056,432,-488,-567,-479,37
8550,-2080,448,-464,-561,-502,47
8555,-2104,424,-480,-548,-520,57
8560,-2136,424,-496,-525,-524,62
8565,-2152,424,-496,-495,-522,60
8570,-2200,408,-488,-459,-517,53
8575,-2232,384,-488,-415,-508,44
8580,-2272,408,-472,-369,-494,31
8585,-2240,368,-448,-323,-480,14
8590,-2272,384,-456,-283,-460,1
8595,-2280,368,-440,-245,-443,-12
8600,-2288,376,-416,-213,-427,-27
8605,-2232,360,-424,-185,-416,-39
8610,-2224,344,-368,-166,-407,-52
8615,-2200,328,-352,-147,-401,-64
8620,-2176,360,-360,-130,-402,-75
8625,-2144,360,-360,-114,-407,-87
8630,-2136,336,-344,-99,-409,-97
8635,-2136,344,-296,-86,-412,-104
8640,-2088,328,-304,-70,-413,-111
8645,-2064,336,-304,-54,-417,-116
8650,-2032,328,-256,-39,-419,-118
8655,-2008,336,-248,-25,-418,-118
8660,-2040,312,-256,-15,-416,-117
8665,-1992,288,-232,-10,-414,-115
8670,-2008,328,-216,-5,-412,-115
8675,-1984,352,-232,-3,-413,-110
8680,-1960,320,-248,-5,-407,-105
8685,-1960,336,-208,-10,-400,-99
8690,-1936,320,-224,-16,-394,-92
8695,-1944,328,-200,-20,-388,-84
8700,-1936,320,-216,-26,-384,-77
8705,-1944,344,-208,-30,-377,-72
8710,-1944,320,-192,-36,-371,-63
8715,-1952,312,-168,-37,-364,-53
8720,-1928,304,-104,-36,-357,-45
8725,-1960,320,-160,-34,-349,-35
8730,-1968,320,-184,-36,-343,-25
8735,-1976,320,-160,-34,-337,-15
8740,-1968,280,-112,-37,-329,-1
8745,-1976,336,-144,-40,-323,10
8750,-1992,320,-136,-43,-314,22
8755,-1984,344,-120,-48,-306,33
8760,-2016,320,-136,-50,-297,42
8765,-2000,328,-120,-53,-289,52
8770,-2032,336,-144,-53,-283,61
8775,-2032,328,-136,-53,-275,69
8780,-2016,320,-120,-49,-263,75
8785,-2016,328,-112,-44,-251,81
8790,-2016,352,-88,-37,-240,89
8795,-2024,344,-96,-25,-228,95
8800,-2024,344,-96,-14,-218,99
8805,-2032,344,-72,-3,-206,101
8810,-2016,328,-96,8,-193,102
8815,-2048,376,-88,24,-180,102
8820,-2064,384,-72,39,-166,104
8825,-2040,384,-72,52,-153,101
8830,-2024,384,-104,62,-139,98
8835,-2032,392,-40,71,-124,96
8840,-2048,408,-80,79,-109,92
8845,-2032,408,-72,87,-95,89
8850,-2032,424,-112,94,-82,84
8855,-2024,424,-64,99,-69,80
8860,-2024,440,-88,104,-55,77
8865,-2024,448,-80,107,-43,71
8870,-2016,440,-104,111,-29,64
8875,-2040,456,-72,113,-15,58
8880,-2008,464,-40,116,-2,53
8885,-2008,440,-88,116,12,48
8890,-2000,448,-88,116,26,42
8895,-2000,448,-56,114,39,39
8900,-2008,456,-80,110,52,34
8905,-1992,448,-72,104,63,31
8910,-1976,464,-72,100,73,26
8915,-1984,472,-88,95,84,21
8920,-2000,456,-80,89,91,18
8925,-1992,456,-96,84,99,15
8930,-1984,464,-88,81,109,9
8935,-2000,456,-128,76,116,5
8940,-1992,440,-120,73,123,-2
8945,-1992,448,-104,70,127,-5
8950,-2016,472,-88,67,133,-11
8955,-2000,440,-96,65,138,-15
8960,-1992,448,-104,62,144,-22
8965,-2000,432,-104,59,149,-24
8970,-1976,432,-128,55,154,-28
8975,-1992,448,-104,54,160,-31
8980,-1984,432,-120,53,165,-32
8985,-1992,424,-144,51,170,-33
8990,-2008,456,-112,48,175,-36
8995,-1992,424,-112,43,177,-38
9000,-2016,432,-144,39,180,-40
9005,-2032,400,-168,33,180,-40
9010,-2040,408,-152,30,183,-40
9015,-2000,448,-176,29,184,-40
9020,-2008,392,-176,28,186,-41
9025,-2032,440,-176,28,187,-40
9030,-2024,408,-192,29,186,-38
9035,-2040,432,-176,28,185,-36
9040,-2040,432,-184,25,181,-33
9045,-2040,424,-208,21,177,-30
9050,-2056,416,-184,17,172,-31
9055,-2048,440,-200,10,168,-27
9060,-2056,416,-208,5,161,-25
9065,-2032,392,-200,1,155,-27
9070,-2048,432,-208,-3,151,-26
9075,-2056,400,-216,-3,146,-24
9080,-2064,408,-232,-2,141,-24
9085,-2064,424,-216,1,137,-24
9090,-2048,464,-416,3,131,-24
9095,-2064,376,-192,7,127,-23
9100,-2048,360,-168,12,121,-27
9105,-2008,392,-152,18,115,-29
9110,-2112,352,-112,25,108,-31
9115,-1936,384,-368,29,104,-32
9120,-2152,456,-320,30,99,-32
9125,-2176,296,-200,32,94,-35
9130,-2040,344,-424,30,89,-34
9135,-2032,312,-240,29,85,-36
9140,-2112,376,-296,24,80,-35
9145,-2064,440,-200,20,75,-35
9150,-2064,592,-240,15,72,-36
9155,-2080,312,-240,9,70,-36
9160,-2008,432,-232,1,67,-33
9165,-2056,408,-216,-6,64,-32
9170,-2040,408,-200,-14,63,-31
9175,-1976,440,-208,-20,63,-30
9180,-2024,392,-200,-22,64,-29
9185,-2024,400,-208,-23,64,-27
9190,-2048,400,-216,-20,65,-24
9195,-2008,400,-232,-18,64,-20
9200,-2024,376,-192,-19,63,-20
9205,-2048,384,-200,-17,62,-19
9210,-2024,400,-216,-16,59,-15
9215,-2016,392,-232,-15,57,-14
9220,-2016,376,-208,-14,55,-13
9225,-2056,416,-192,-15,53,-11
9230,-2000,376,-240,-16,51,-9
9235,-2024,400,-192,-19,50,-7
9240,-2032,400,-200,-21,49,-7
9245,-2024,424,-224,-24,48,-6
9250,-2040,384,-216,-25,49,-4
9255,-2024,392,-224,-27,50,-6
9260,-2032,432,-176,-26,52,-5
9265,-2000,392,-208,-25,55,-6
9270,-2032,392,-256,-23,56,-7
9275,-2040,400,-224,-22,56,-9
9280,-2032,392,-240,-19,57,-9
9285,-2032,400,-208,-17,59,-10
9290,-2048,384,-208,-11,61,-9
9295,-2008,376,-224,-6,62,-10
9300,-2072,400,-216,0,63,-10
9305,-2040,384,-216,7,64,-10
9310,-2008,376,-240,13,66,-8
9315,-2032,408,-248,19,65,-9
9320,-2048,392,-216,25,64,-7
9325,-2048,392,-240,31,63,-9
9330,-2000,392,-208,35,63,-9
9335,-2024,384,-232,38,62,-6
9340,-2032,400,-240,38,61,-5
9345,-2032,424,-248,39,59,-5
9350,-2056,416,-224,38,56,-7
9355,-2024,408,-240,39,54,-6
9360,-2016,392,-224,39,52,-4
9365,-2040,440,-224,40,50,-3
9370,-1984,416,-328,39,48,-4
9375,-2016,424,-240,38,47,-3
9380,-2008,400,-248,37,43,-3
9385,-2048,408,-272,35,40,-4
9390,-2016,400,-256,33,37,-3
9395,-2000,384,-240,31,35,-3
9400,-2024,400,-232,30,32,-4
9405,-2008,400,-232,32,29,-3
9410,-2024,408,-240,34,24,-4
9415,-2056,424,-240,43,18,-5
9420,-2000,400,-232,50,16,-5
9425,-2032,376,-248,57,11,-7
9430,-2048,416,-224,64,10,-6
9435,-2040,408,-224,67,8,-7
9440,-2056,432,-248,68,7,-6
9445,-2016,400,-272,67,4,-7
9450,-2056,424,-240,63,1,-8
9455,-2008,400,-232,59,-2,-9
9460,-2032,408,-272,54,-5,-10
9465,-2032,408,-256,49,-8,-10
9470,-2032,440,-248,44,-12,-11
9475,-2024,424,-248,39,-15,-12
9480,-2008,424,-232,35,-21,-14
9485,-2024,400,-240,31,-25,-13
9490,-2024,400,-224,30,-28,-12
9495,-2040,416,-232,29,-31,-15
9500,-2048,416,-240,29,-31,-17
9505,-2048,400,-224,31,-32,-16
9510,-2048,400,-232,31,-32,-16
9515,-2048,408,-232,31,-32,-15
9520,-2032,408,-224,31,-32,-18
9525,-2032,408,-192,29,-32,-17
9530,-2024,416,-200,26,-32,-18
9535,-2032,400,-232,23,-31,-19
9540,-2024,400,-240,21,-33,-18
9545,-2008,416,-208,20,-32,-19
9550,-2016,408,-200,18,-33,-19
9555,-2024,400,-232,18,-30,-20
9560,-2032,416,-224,18,-29,-19
9565,-2016,400,-216,19,-27,-22
9570,-2024,400,-216,18,-24,-20
9575,-2032,408,-224,19,-22,-22
9580,-2048,424,-232,22,-21,-22
9585,-2024,392,-216,23,-20,-20
9590,-2032,392,-192,25,-17,-19
9595,-2024,408,-184,24,-15,-19
9600,-2024,400,-200,23,-12,-19
9605,-2032,424,-184,20,-11,-18
9610,-2016,408,-176,18,-8,-17
9615,-2024,392,-232,15,-7,-16
9620,-2016,400,-184,13,-6,-15
9625,-2000,424,-160,10,-3,-14
9630,-1992,384,-240,7,0,-14
9635,-2024,408,-216,5,2,-15
9640,-2016,408,-176,4,5,-15
9645,-2040,400,-208,1,11,-14
9650,-2024,408,-184,3,15,-15
9655,-2016,400,-216,4,16,-16
9660,-2016,400,-176,7,19,-15
9665,-2032,400,-240,9,21,-16
9670,-2032,400,-200,9,24,-14
9675,-2024,416,-184,10,28,-15
9680,-2024,392,-192,9,29,-15
9685,-2000,392,-192,8,32,-15
9690,-2016,392,-216,6,35,-13
9695,-2008,392,-192,3,39,-14
9700,-2032,400,-216,1,42,-13
9705,-2024,416,-168,-2,44,-12
9710,-2008,400,-208,-2,44,-13
9715,-2032,416,-192,-3,44,-13
9720,-2000,400,-232,-5,46,-12
9725,-2040,408,-184,-9,52,-13
9730,-2016,416,-192,-15,56,-11
9735,-1992,400,-208,-18,58,-11
9740,-2008,408,-192,-22,57,-10
9745,-2024,424,-216,-26,58,-11
9750,-2024,432,-224,-29,57,-9
9755,-2040,424,-192,-32,57,-11
9760,-2008,432,-208,-35,57,-10
9765,-2024,416,-192,-37,58,-10
9770,-2040,424,-208,-41,60,-10
9775,-2032,400,-200,-45,56,-10
9780,-2024,400,-232,-44,55,-9
9785,-2024,408,-240,-42,52,-11
9790,-2040,408,-240,-42,56,-11
9795,-1984,480,-200,-41,55,-10
9800,-2024,432,-232,-39,53,-11
9805,-2040,424,-240,-32,51,-11
9810,-2032,416,-216,-29,50,-14
9815,-2024,400,-216,-25,47,-17
9820,-2024,392,-240,-23,47,-17
9825,-2008,408,-216,-19,44,-17
9830,-2040,424,-232,-16,42,-17
9835,-2048,416,-208,-16,42,-15
9840,-2008,368,-216,-16,39,-16
9845,-2016,392,-224,-18,39,-14
9850,-2024,408,-216,-20,42,-13
9855,-2016,416,-216,-21,39,-13
9860,-2032,408,-184,-18,34,-12
9865,-2032,416,-200,-16,34,-12
9870,-2048,408,-208,-16,34,-12
9875,-2016,384,-240,-9,33,-14
9880,-2032,408,-248,-4,29,-14
9885,-2032,440,-240,2,27,-15
9890,-2016,392,-232,2,29,-15
9895,-2024,408,-248,1,28,-14
9900,-2016,392,-232,2,24,-13
9905,-2040,408,-240,0,21,-12
9910,-2032,432,-248,-3,19,-11
9915,-2032,424,-208,-8,16,-11
9920,-2032,440,-240,-10,13,-10
9925,-2040,440,-256,-14,13,-10
9930,-2024,424,-232,-17,13,-10
9935,-2032,440,-256,-22,11,-13
9940,-2000,424,-240,-25,11,-10
9945,-2048,424,-224,-26,13,-11
9950,-2008,392,-208,-25,13,-11
9955,-2040,416,-224,-23,13,-13
9960,-2016,424,-248,-19,14,-14
9965,-2016,400,-208,-15,14,-15
9970,-2024,416,-216,-10,14,-16
9975,-2048,424,-232,-4,16,-16
9980,-2048,416,-216,1,15,-15
9985,-2008,392,-208,6,15,-16
9990,-2000,392,-232,11,16,-17
9995,-2032,432,-216,15,17,-17
10000,-2040,424,-192,19,16,-18
10005,-2016,400,-232,21,17,-19
10010,-2000,352,-272,22,18,-18
10015,-2040,408,-192,22,19,-22
10020,-2056,400,-232,20,19,-22
10025,-2032,416,-216,19,19,-20
10030,-2056,440,-208,18,19,-20
10035,-2032,408,-224,18,19,-22
10040,-2008,384,-224,17,20,-20
10045,-2024,400,-240,17,22,-21
10050,-2016,400,-224,19,18,-19
10055,-2016,392,-240,20,19,-20
10060,-2032,384,-248,22,19,-18
10065,-2032,392,-208,26,17,-16
10070,-2008,408,-232,28,18,-15
10075,-2024,392,-208,30,15,-13
10080,-2024,424,-208,34,15,-11
10085,-2024,416,-216,36,14,-10
10090,-2032,392,-240,38,16,-9
10095,-2032,408,-216,38,13,-9
10100,-2056,408,-232,37,12,-6
10105,-2040,400,-216,38,10,-6
10110,-2016,408,-208,36,10,-6
10115,-2024,384,-216,35,12,-6
10120,-2024,400,-224,35,12,-6
10125,-2016,392,-240,35,15,-5
10130,-1992,392,-240,38,14,-5
10135,-2040,424,-208,40,13,-5
10140,-1992,400,-240,42,15,-4
10145,-2024,432,-200,41,13,-4
10150,-2008,392,-208,43,12,-5
10155,-2032,416,-208,43,12,-3
10160,-2032,408,-224,41,11,-3
10165,-2008,408,-224,41,10,-3
10170,-2056,400,-208,40,10,-1
10175,-2032,416,-208,42,11,-1
10180,-2032,424,-216,43,11,-1
10185,-2040,416,-232,41,12,-1
10190,-2032,432,-224,42,11,-1
10195,-2032,440,-232,43,12,-2
10200,-2024,400,-232,45,11,-2
10205,-2032,416,-240,45,12,-1
10210,-2008,424,-224,47,12,-3
10215,-2024,400,-224,49,13,-2
10220,-2032,400,-240,51,12,-1
10225,-2024,400,-208,52,14,-1
10230,-2032,408,-208,53,11,-2
10235,-2040,408,-216,55,10,-2
10240,-2024,424,-216,56,10,-1
10245,-2016,424,-256,57,9,-3
10250,-2016,408,-224,57,11,-2
10255,-2016,408,-216,56,10,-2
10260,-2032,416,-208,58,11,-2
10265,-2008,408,-216,57,10,-2
10270,-2008,408,-232,59,10,-1
10275,-2016,400,-208,58,10,-2
10280,-2016,416,-216,59,10,-1
10285,-2032,408,-200,60,10,-2
10290,-2032,424,-216,59,9,-1
10295,-2024,432,-224,60,11,-3
10300,-2016,416,-216,59,10,-2
10305,-2024,432,-176,62,10,-3
10310,-2016,392,-240,61,8,-2
10315,-2008,392,-224,61,9,-3
10320,-2008,408,-224,62,8,-2
10325,-2016,416,-248,62,7,-2
10330,-2024,432,-208,63,5,-1
10335,-2016,424,-224,62,6,-1
10340,-2024,416,-256,61,7,-1
10345,-2032,408,-208,60,6,-1
10350,-2040,448,-224,59,5,0
10355,-2000,416,-216,59,3,0
10360,-2024,416,-200,61,1,0
10365,-2032,424,-240,60,4,-1
10370,-2024,440,-240,59,5,-3
10375,-2024,408,-216,59,2,-2
10380,-2016,400,-224,56,2,-1
10385,-2040,408,-208,53,2,0
10390,-2016,440,-248,52,1,-1
10395,-2040,424,-232,52,1,-1
10400,-2000,424,-216,51,0,-1
10405,-2040,392,-216,50,2,0
10410,-2040,408,-208,52,1,-1
10415,-2016,408,-224,54,0,-1
10420,-2008,376,-168,57,2,0
10425,-2072,312,-112,60,4,2
10430,-2080,288,-184,65,3,1
10435,-2000,424,-152,68,1,0
10440,-2000,368,-80,71,0,0
10445,-2008,360,-256,75,0,0
10450,-2016,320,-160,78,-1,-2
10455,-2040,456,-208,79,-1,0
10460,-1912,416,-312,78,-2,0
10465,-2000,408,-256,80,-4,0
10470,-2064,272,-336,81,-7,-1
10475,-2000,464,-152,80,-8,-1
10480,-2096,432,-192,79,-6,-1
10485,-2008,472,-296,79,-5,-2
10490,-2040,384,-280,78,-5,-3
10495,-2008,512,-224,77,-5,-3
10500,-2008,488,-152,75,-4,-4
10505,-2056,416,-288,74,-4,-4
10510,-1992,384,-280,74,-5,-5
10515,-2016,304,-144,73,-4,-4
10520,-1904,600,-288,72,1,-3
10525,-2080,408,-48,70,2,-5
10530,-2136,360,-296,67,3,-4
10535,-2008,424,-240,66,3,-4
10540,-2072,424,-136,65,6,-4
10545,-1960,376,-224,64,7,-3
10550,-2104,416,-280,62,9,-3
10555,-1984,304,-104,63,8,-2
10560,-2056,424,-112,63,9,-4
10565,-2000,440,-184,64,9,-4
10570,-2032,424,-176,66,10,-5
10575,-2016,440,-176,66,11,-5
10580,-2040,392,-224,67,11,-4
10585,-1968,536,-336,68,11,-3
10590,-2040,416,-200,70,11,-6
10595,-2016,408,-208,71,11,-6
10600,-2000,416,-232,70,11,-5
10605,-2032,392,-216,71,10,-7
10610,-2040,440,-208,70,10,-8
10615,-2040,440,-200,70,12,-8
10620,-2016,408,-200,68,11,-8
10625,-2016,424,-208,68,11,-7
10630,-2040,408,-304,67,11,-7
10635,-2008,400,-208,68,10,-6
10640,-2024,392,-160,68,12,-6
10645,-2008,416,-208,69,13,-8
10650,-2032,424,-240,74,17,-7
10655,-2048,360,-288,79,17,-5
10660,-2000,408,-216,86,16,-5
10665,-2024,400,-224,93,16,-5
10670,-2016,400,-224,98,13,-5
10675,-2024,416,-256,102,11,-4
10680,-2024,400,-240,102,8,-1
10685,-2040,416,-232,103,5,-2
10690,-2016,432,-224,101,3,-1
10695,-2008,408,-224,101,0,0
10700,-2024,424,-232,102,-3,-1
10705,-2048,424,-216,102,-4,0
10710,-2000,392,-240,102,-5,2
10715,-2024,424,-232,102,-2,3
10720,-2032,424,-232,101,-1,2
10725,-2040,424,-208,103,-1,1
10730,-2032,416,-192,105,-1,1
10735,-2040,448,-192,108,1,-2
10740,-2032,424,-208,109,0,-3
10745,-2016,392,-184,109,3,-2
10750,-2032,424,-224,110,6,-5
10755,-2048,432,-216,109,8,-6
10760,-2016,424,-200,108,8,-7
10765,-2024,408,-216,105,7,-8
10770,-2024,424,-256,102,7,-7
10775,-2040,424,-232,99,7,-6
10780,-2016,416,-208,95,9,-7
10785,-2032,416,-232,91,9,-9
10790,-2032,432,-216,87,10,-8
10795,-2008,392,-216,83,10,-7
10800,-2032,416,-216,83,9,-9
10805,-2016,416,-216,79,10,-10
10810,-2024,424,-232,76,11,-12
10815,-2008,424,-200,74,11,-9
10820,-2024,432,-208,71,9,-10
10825,-2016,416,-200,68,10,-12
10830,-2024,424,-232,67,12,-10
10835,-2016,400,-192,65,14,-11
10840,-2040,456,-216,63,13,-11
10845,-2016,424,-200,63,13,-10
10850,-2000,408,-208,64,13,-10
10855,-2016,424,-216,63,13,-10
10860,-2024,440,-216,63,12,-9
10865,-2024,432,-200,62,12,-10
10870,-2024,416,-224,62,12,-9
10875,-2024,432,-240,61,13,-10
10880,-2032,384,-216,60,12,-10
10885,-2048,440,-232,59,10,-9
10890,-2016,400,-240,59,9,-10
10895,-2032,400,-224,58,9,-9
10900,-2032,416,-232,56,8,-8
10905,-2032,432,-224,55,9,-9
10910,-2008,392,-216,53,9,-9
10915,-2016,392,-216,52,8,-9
10920,-2024,416,-192,52,10,-9
10925,-2024,408,-240,53,9,-8
10930,-2008,416,-208,54,10,-8
10935,-2008,440,-208,55,11,-6
10940,-2024,408,-184,56,11,-6
10945,-2024,440,-224,56,11,-7
10950,-2032,424,-240,59,12,-7
10955,-2032,424,-224,60,13,-8
10960,-2024,424,-208,61,12,-8
10965,-2024,424,-208,61,11,-6
10970,-2048,424,-224,60,11,-4
10975,-2008,416,-208,59,11,-6
10980,-2040,432,-216,59,10,-8
10985,-2024,432,-216,59,10,-8
10990,-2024,424,-232,58,11,-7
10995,-2008,424,-248,58,10,-7
11000,-2016,432,-208,57,13,-6
11005,-2024,416,-232,57,13,-7
11010,-2016,424,-224,58,14,-6
11015,-2016,416,-248,59,13,-8
11020,-2024,424,-224,59,13,-7
11025,-2048,424,-120,58,14,-9
11030,-2024,440,-232,59,15,-9
11035,-2024,400,-216,62,16,-11
11040,-2032,400,-208,62,15,-9
11045,-2016,408,-216,63,15,-9
11050,-2016,440,-208,64,15,-9
11055,-2024,408,-192,66,16,-10
11060,-2008,416,-240,65,17,-10
11065,-2024,424,-224,67,15,-11
11070,-2016,424,-200,66,15,-10
11075,-2008,336,-256,67,16,-10
11080,-2016,384,-232,66,16,-8
11085,-2032,424,-184,65,17,-12
11090,-2024,408,-240,65,17,-11
11095,-2008,424,-232,65,17,-13
11100,-2032,400,-240,63,18,-15
11105,-2024,408,-216,59,18,-15
11110,-2024,424,-216,58,18,-14
11115,-2024,408,-208,58,18,-13
11120,-2040,400,-224,57,19,-11
11125,-2008,392,-224,56,17,-12
11130,-2024,440,-240,56,17,-11
11135,-2040,440,-224,56,16,-11
11140,-2024,416,-224,55,17,-13
11145,-2032,424,-240,54,16,-13
11150,-2016,424,-240,55,15,-12
11155,-2008,408,-224,55,15,-10
11160,-2048,456,-200,55,15,-10
11165,-2024,432,-240,53,14,-11
11170,-2032,408,-256,52,14,-11
11175,-2032,408,-208,51,13,-11
11180,-2056,416,-248,49,13,-11
11185,-2016,424,-216,50,12,-11
11190,-2024,400,-240,50,13,-10
11195,-2040,424,-216,49,13,-9
11200,-2024,408,-240,50,12,-8
11205,-2040,424,-208,50,12,-13
11210,-2024,400,-216,51,14,-10
11215,-2048,424,-232,50,14,-11
11220,-2024,392,-176,51,14,-11
11225,-2048,424,-208,51,14,-9
11230,-2016,408,-200,53,13,-9
11235,-2040,432,-200,52,14,-11
11240,-2000,416,-240,52,14,-11
11245,-2024,424,-224,53,14,-11
11250,-2024,392,-224,56,14,-10
11255,-2024,440,-232,57,13,-9
11260,-2040,408,-256,59,14,-11
11265,-2040,432,-248,60,12,-10
11270,-2040,424,-216,61,13,-10
11275,-2032,400,-216,63,13,-11
11280,-2032,432,-224,65,11,-11
11285,-2032,424,-224,66,11,-12
11290,-2032,416,-208,66,11,-12
11295,-2032,424,-248,66,12,-11
11300,-2024,416,-224,66,11,-14
11305,-2024,416,-232,65,11,-13
11310,-2040,408,-208,65,11,-12
11315,-2008,408,-256,63,12,-10
11320,-2048,432,-216,63,11,-11
11325,-2032,408,-232,60,11,-11
11330,-2000,416,-200,59,11,-13
11335,-2024,400,-216,57,11,-13
11340,-2032,416,-208,57,12,-13
11345,-2024,408,-224,57,11,-10
11350,-2032,408,-232,57,13,-10
11355,-2008,400,-208,58,12,-9
11360,-2016,392,-216,59,13,-9
11365,-2024,408,-224,59,16,-11
11370,-2040,400,-224,60,16,-11
11375,-2024,400,-224,62,18,-12
11380,-2008,416,-248,63,16,-12
11385,-2032,416,-232,62,16,-12
11390,-2040,408,-216,63,15,-11
11395,-2024,400,-232,61,15,-12
11400,-2024,408,-192,60,16,-11
11405,-2032,424,-224,57,15,-10
11410,-2032,416,-216,55,13,-10
11415,-2032,416,-192,55,13,-11
11420,-2040,424,-240,56,15,-11
11425,-2016,400,-216,55,14,-10
11430,-2032,416,-232,56,15,-8
11435,-2024,424,-224,56,13,-8
11440,-2016,416,-224,57,13,-10
11445,-2016,384,-224,58,13,-10
11450,-2024,408,-240,59,14,-10
11455,-2024,432,-224,57,13,-10
11460,-2000,432,-248,58,11,-11
11465,-2040,432,-248,59,12,-11
11470,-2024,424,-216,58,11,-12
11475,-2032,400,-216,55,9,-14
11480,-2040,416,-232,55,9,-11
11485,-2040,408,-224,52,8,-12
11490,-2032,400,-224,50,8,-11
11495,-2024,400,-192,50,9,-12
11500,-2008,408,-216,48,11,-12
11505,-2008,416,-208,50,12,-10
11510,-2024,432,-200,50,14,-9
11515,-2016,376,-224,53,14,-6
11520,-2016,400,-232,57,12,-6
11525,-2008,432,-216,62,13,-6
11530,-2024,400,-232,68,12,-5
11535,-2024,408,-232,69,12,-2
11540,-2048,424,-248,68,10,-3
11545,-2000,424,-232,67,9,-3
11550,-2008,424,-232,66,6,-3
11555,-2040,408,-232,65,5,-2
11560,-2024,400,-216,63,6,1
11565,-2016,432,-224,62,5,0
11570,-2040,424,-224,63,3,1
11575,-2040,424,-248,61,4,0
11580,-2048,432,-232,61,5,-1
11585,-2048,400,-224,63,5,-4
11590,-2032,416,-216,64,6,-3
11595,-2032,432,-224,63,8,-4
11600,-2040,432,-224,64,11,-6
11605,-2016,440,-208,65,13,-7
11610,-2032,424,-216,65,13,-6
11615,-1944,440,-224,64,14,-6
11620,-2016,416,-208,62,14,-7
11625,-2032,424,-232,61,14,-7
11630,-2032,440,-208,58,14,-6
11635,-2000,408,-240,57,12,-8
11640,-2008,432,-216,56,13,-9
11645,-2008,424,-208,54,12,-10
11650,-2032,416,-208,53,12,-9
11655,-2024,408,-248,51,12,-8
11660,-2008,408,-216,50,12,-9
11665,-2016,424,-200,49,12,-10
11670,-2016,424,-208,45,12,-10
11675,-2048,416,-232,44,13,-10
11680,-2024,424,-208,43,15,-11
11685,-2016,432,-232,41,13,-10
11690,-2024,416,-216,39,14,-12
11695,-2032,440,-224,38,15,-12
11700,-2024,408,-208,37,15,-10
11705,-2032,408,-232,34,13,-12
11710,-2024,432,-224,31,13,-10
11715,-2040,432,-208,28,13,-10
11720,-2040,440,-232,26,13,-10
11725,-2016,416,-192,25,13,-11
11730,-2024,408,-224,21,15,-8
11735,-2016,424,-224,19,14,-9
11740,-2024,440,-200,16,12,-8
11745,-2008,416,-208,13,12,-9
11750,-2008,424,-224,9,12,-10
11755,-2032,432,-224,5,11,-11
11760,-2000,408,-208,1,10,-9
11765,-2024,440,-232,-1,10,-9
11770,-2024,400,-232,-5,9,-9
11775,-2016,400,-216,-9,10,-10
11780,-2016,408,-216,-11,12,-11
11785,-2048,440,-200,-11,14,-12
11790,-2032,416,-200,-12,12,-12
11795,-2024,400,-216,-11,13,-12
11800,-2024,408,-224,-9,15,-13
11805,-2016,368,-184,-8,16,-15
11810,-2016,392,-232,-7,17,-15
11815,-2008,424,-208,-6,17,-15
11820,-2024,392,-208,-6,18,-14
11825,-2024,424,-216,-6,19,-13
11830,-2032,416,-200,-7,19,-14
11835,-2024,400,-216,-7,19,-14
11840,-2040,440,-200,-8,20,-14
11845,-2024,424,-200,-10,23,-14
11850,-2032,408,-208,-11,23,-13
11855,-2016,400,-208,-14,23,-14
11860,-2016,448,-216,-16,23,-13
11865,-2000,432,-232,-17,25,-12
11870,-2024,416,-240,-17,25,-11
11875,-2024,424,-216,-16,25,-14
11880,-2024,432,-216,-18,26,-15
11885,-2048,432,-232,-19,26,-16
11890,-2024,424,-200,-19,28,-16
11895,-2016,440,-224,-19,29,-15
11900,-2032,432,-248,-19,27,-15
11905,-2040,408,-216,-18,28,-14
11910,-2000,416,-184,-18,28,-13
11915,-2024,416,-224,-16,28,-14
11920,-2040,448,-216,-15,27,-15
11925,-2032,440,-232,-16,26,-16
11930,-2040,424,-224,-16,27,-16
11935,-2024,408,-232,-15,27,-15
11940,-2016,416,-248,-18,29,-14
11945,-2032,424,-256,-17,29,-16
11950,-2032,424,-208,-19,29,-16
11955,-2016,432,-232,-20,29,-16
11960,-2032,400,-200,-21,28,-15
11965,-2016,432,-208,-18,26,-17
11970,-2040,416,-208,-17,25,-17
11975,-2040,424,-216,-17,26,-18
11980,-2000,408,-216,-16,26,-16
11985,-2024,416,-224,-15,24,-17
11990,-2016,416,-200,-12,24,-17
11995,-2032,432,-264,-13,25,-16
12000,-2032,424,-216,-13,25,-16
12005,-2024,416,-224,-13,23,-16
12010,-2024,416,-248,-12,24,-17
12015,-2048,424,-224,-11,24,-16
12020,-2032,416,-232,-8,21,-18
12025,-2032,400,-224,-6,21,-17
12030,-2040,400,-224,-5,20,-16
12035,-2016,416,-232,-4,19,-18
12040,-2016,448,-208,-4,19,-18
12045,-2016,408,-208,-2,17,-18
12050,-2040,440,-216,-3,19,-16
12055,-2024,408,-240,-3,20,-15
12060,-2032,424,-224,-5,18,-16
12065,-2032,432,-232,-5,19,-17
12070,-2032,408,-200,-5,20,-17
12075,-2032,432,-224,-5,19,-18
12080,-2024,416,-216,-4,18,-16
12085,-2032,432,-208,-3,18,-17
12090,-2016,416,-200,-3,17,-17
12095,-2016,416,-224,-1,18,-16
12100,-2024,408,-216,1,18,-16
12105,-2008,400,-216,3,18,-16
12110,-2032,424,-216,3,20,-17
12115,-2032,424,-216,4,21,-16
12120,-2024,408,-232,6,20,-16
12125,-2032,440,-200,6,21,-17
12130,-2032,424,-232,5,21,-18
12135,-2016,408,-224,3,20,-17
12140,-2040,440,-200,0,22,-16
12145,-2040,440,-224,-2,22,-15
12150,-2024,432,-208,-6,21,-16
12155,-2040,416,-224,-10,23,-17
12160,-2032,424,-232,-14,20,-17
12165,-2024,408,-216,-15,18,-17
12170,-2032,416,-200,-14,16,-19
12175,-2048,432,-232,-15,17,-19
12180,-2016,424,-184,-13,20,-18
12185,-2024,416,-208,-12,21,-16
12190,-2024,424,-216,-10,20,-16
12195,-2024,416,-208,-8,25,-17
12200,-2032,416,-208,-9,28,-16
12205,-2032,416,-248,-7,23,-17
12210,-2024,416,-176,-4,21,-20
12215,-2016,408,-200,-3,21,-20
12220,-2016,424,-240,-4,22,-20
12225,-1992,400,-216,-6,25,-19
12230,-2016,432,-256,-7,23,-21
12235,-2000,400,-248,-9,22,-19
12240,-2008,424,-240,-9,22,-19
12245,-2032,408,-216,-13,25,-19
12250,-2016,432,-216,-17,28,-18
12255,-2000,424,-224,-20,29,-17
12260,-2040,424,-208,-21,28,-17
12265,-2008,416,-200,-23,27,-18
12270,-2016,448,-192,-25,25,-17
12275,-2032,448,-232,-26,25,-17
12280,-2024,416,-176,-28,25,-17
12285,-2024,424,-184,-31,24,-15
12290,-2032,424,-232,-34,23,-14
12295,-2016,432,-232,-38,25,-14
12300,-2040,416,-224,-44,28,-12
12305,-2016,416,-192,-48,30,-13
12310,-2024,432,-216,-51,28,-11
12315,-1992,408,-224,-51,25,-12
12320,-2016,408,-216,-52,27,-12
12325,-2008,424,-208,-51,31,-12
12330,-2016,416,-224,-49,29,-13
12335,-2032,416,-224,-46,24,-15
12340,-2024,400,-256,-42,25,-16
12345,-2024,424,-224,-38,21,-16
12350,-2024,432,-232,-34,20,-15
12355,-2016,408,-232,-31,21,-18
12360,-2032,416,-208,-28,18,-16
12365,-2024,400,-232,-27,18,-16
12370,-2008,416,-216,-24,19,-17
12375,-2000,416,-208,-23,20,-15
12380,-1992,416,-208,-24,17,-12
12385,-2024,432,-216,-25,17,-11
12390,-2016,416,-240,-24,19,-13
12395,-2016,424,-192,-26,19,-11
12400,-2016,408,-216,-25,18,-10
12405,-2024,432,-216,-24,18,-9
12410,-2040,408,-192,-21,23,-8
12415,-2056,416,-208,-17,24,-10
12420,-2032,424,-232,-12,22,-10
12425,-2032,432,-208,-10,22,-9
12430,-2024,416,-232,-6,23,-10
12435,-2032,408,-216,-4,24,-11
12440,-2040,456,-224,-5,23,-9
12445,-2024,448,-216,-7,22,-7
12450,-2016,456,-232,-10,22,-7
12455,-2048,448,-216,-13,20,-6
12460,-2016,432,-216,-16,19,-8
12465,-2016,440,-224,-19,19,-7
12470,-2032,448,-208,-23,20,-10
12475,-2048,456,-200,-23,20,-9
12480,-2008,408,-200,-23,20,-10
12485,-2016,440,-224,-22,20,-10
12490,-2016,424,-224,-20,23,-10
12495,-2008,432,-216,-17,27,-12
12500,-2016,432,-232,-15,26,-12
12505,-2040,432,-216,-15,27,-14
12510,-2032,424,-208,-15,27,-15
12515,-2040,416,-216,-15,29,-14
12520,-2032,424,-232,-14,28,-15
12525,-2024,424,-216,-14,27,-15
12530,-2032,432,-216,-12,26,-17
12535,-2032,432,-184,-12,28,-16
12540,-2024,432,-216,-12,27,-17
12545,-2024,440,-240,-13,25,-17
12550,-2016,432,-224,-15,25,-19
12555,-2008,416,-192,-16,27,-18
12560,-2024,424,-208,-18,27,-19
12565,-2032,400,-232,-17,26,-19
12570,-2016,440,-256,-16,28,-18
12575,-2016,416,-192,-15,25,-19
12580,-2032,448,-208,-15,24,-17
12585,-2016,392,-208,-13,24,-18
12590,-2048,400,-232,-13,24,-17
12595,-2032,424,-232,-13,24,-14
12600,-2048,400,-216,-10,25,-14
12605,-2024,416,-232,-8,25,-12
12610,-2048,432,-200,-4,24,-12
12615,-2024,424,-232,0,22,-13
12620,-2032,432,-256,5,22,-11
12625,-2016,416,-232,9,22,-11
12630,-2048,440,-216,14,19,-12
12635,-2016,392,-240,16,18,-12
12640,-2024,432,-208,18,16,-11
12645,-2048,432,-184,21,15,-11
12650,-2040,424,-232,23,14,-10
12655,-2040,424,-248,26,14,-10
12660,-2024,440,-240,27,13,-11
12665,-2040,432,-208,32,13,-10
12670,-2024,424,-232,36,14,-9
12675,-2024,416,-184,40,13,-8
12680,-2024,432,-248,42,14,-8
12685,-2016,392,-216,47,13,-7
12690,-2032,432,-216,47,13,-8
12695,-2024,432,-232,48,12,-7
12700,-2016,416,-232,47,11,-6
12705,-2024,432,-208,48,10,-6
12710,-2016,416,-232,48,9,-7
12715,-2008,432,-224,47,8,-6
12720,-2008,416,-208,45,8,-4
12725,-2024,432,-208,47,9,-5
12730,-1984,384,-144,48,8,-4
12735,-2024,384,-208,48,9,-3
12740,-2040,432,-200,49,10,-3
12745,-2048,440,-200,53,11,-4
12750,-2032,432,-208,54,12,-4
12755,-2024,424,-208,56,12,-4
12760,-2008,448,-240,57,12,-4
12765,-2072,432,-200,58,12,-4
12770,-2016,432,-232,60,13,-3
12775,-2008,432,-200,60,14,-5
12780,-2016,424,-216,61,14,-4
12785,-2040,424,-240,62,13,-5
12790,-2024,408,-200,62,15,-6
12795,-2016,424,-240,62,14,-5
12800,-2032,424,-216,63,14,-5
12805,-2040,448,-192,65,15,-5
12810,-2032,432,-200,64,15,-4
12815,-1992,416,-224,65,15,-4
12820,-2024,456,-192,66,15,-6
12825,-2024,448,-216,65,15,-5
12830,-2016,424,-232,66,13,-4
12835,-2024,416,-216,66,12,-4
12840,-2000,432,-216,64,12,-6
12845,-2024,448,-216,63,10,-5
12850,-2024,456,-232,64,9,-4
12855,-2024,416,-240,63,10,-4
12860,-2024,408,-192,63,10,-5
12865,-2024,416,-192,63,10,-4
12870,-2040,440,-216,63,11,-3
12875,-2024,432,-232,64,11,-5
12880,-2024,440,-240,67,10,-6
12885,-2040,432,-248,67,10,-5
12890,-2008,416,-200,68,10,-6
12895,-2000,416,-200,68,9,-7
12900,-2048,448,-240,69,9,-7
12905,-2016,448,-256,69,10,-4
12910,-2024,400,-224,69,12,-3
12915,-2024,424,-232,68,10,-1
12920,-2016,424,-240,68,10,-3
12925,-2016,408,-216,69,10,-2
12930,-2016,416,-216,70,10,-2
12935,-2008,424,-232,70,10,-2
12940,-2024,408,-232,70,10,-4
12945,-2008,424,-232,71,9,-3
12950,-2024,432,-216,72,8,-3
12955,-2040,440,-224,73,6,-1
12960,-2040,432,-216,75,7,-1
12965,-1976,432,-224,75,6,-3
12970,-2032,424,-216,76,6,-2
12975,-2016,424,-232,77,4,-1
12980,-2032,416,-232,76,4,0
12985,-2024,408,-232,75,4,-1
12990,-2024,432,-224,76,3,-2
12995,-2040,408,-200,77,2,-3
13000,-2008,416,-224,80,1,-4
13005,-2032,416,-208,83,0,-6
13010,-2024,432,-208,82,1,-7
13015,-2048,424,-152,83,5,-6
13020,-2016,432,-200,82,6,-4
13025,-2008,432,-232,83,6,-3
13030,-2024,440,-208,83,7,-2
13035,-2040,464,-208,87,5,-5
13040,-2016,424,-184,90,4,-7
13045,-2024,416,-240,92,5,-7
13050,-2048,424,-208,94,3,-8
13055,-2040,448,-216,96,3,-8
13060,-2008,432,-216,96,4,-7
13065,-2032,448,-224,95,7,-7
13070,-2008,400,-184,94,8,-8
13075,-2000,432,-184,93,8,-8
13080,-2024,448,-232,93,6,-8
13085,-2040,424,-192,92,7,-8
13090,-2040,456,-232,92,5,-8
13095,-2032,416,-224,94,5,-10
13100,-2024,424,-200,92,4,-9
13105,-2016,432,-192,92,3,-10
13110,-2040,456,-200,93,5,-8
13115,-2016,432,-216,91,7,-8
13120,-2008,424,-224,90,8,-7
13125,-2016,408,-176,89,7,-6
13130,-2032,440,-216,87,10,-5
13135,-2024,424,-224,85,9,-4
13140,-2008,408,-224,85,8,-4
13145,-2024,440,-216,84,8,-6
13150,-2016,440,-232,83,8,-7
13155,-2056,472,-184,84,5,-7
13160,-2024,400,-216,86,6,-6
13165,-2032,424,-224,89,6,-7
13170,-2024,424,-248,91,5,-7
13175,-2024,440,-216,93,7,-7
13180,-2040,432,-200,93,6,-8
13185,-2040,416,-216,95,5,-7
13190,-2016,416,-224,95,6,-7
13195,-2024,416,-208,93,6,-7
13200,-2056,432,-216,91,4,-7
13205,-2016,432,-216,89,2,-8
13210,-2032,416,-216,86,2,-6
13215,-2016,432,-232,82,3,-7
13220,-2032,440,-224,77,3,-5
13225,-2040,424,-216,71,4,-5
13230,-2032,424,-208,68,5,-3
13235,-2016,408,-176,66,6,-4
13240,-2016,408,-200,63,9,-4
13245,-2008,416,-200,63,10,-3
13250,-2016,400,-224,66,11,-4
13255,-2016,416,-200,69,14,-4
13260,-2040,408,-248,72,14,-4
13265,-2024,432,-240,77,14,-2
13270,-2024,448,-248,80,15,-2
13275,-2008,408,-240,83,14,-1
13280,-2048,440,-248,85,14,-3
13285,-2008,424,-232,86,12,-1
13290,-2024,424,-192,82,9,-2
13295,-2016,424,-224,82,9,-1
13300,-2024,440,-232,82,8,-2
13305,-2016,424,-224,83,6,-2
13310,-2040,432,-224,82,7,-2
13315,-2048,448,-200,81,9,-4
13320,-2072,432,-216,81,9,-3
13325,-2032,448,-224,82,9,-4
13330,-2032,440,-224,85,10,-5
13335,-2016,408,-240,88,11,-6
13340,-2040,432,-200,91,11,-7
13345,-2048,432,-232,93,12,-10
13350,-2000,416,-176,95,12,-9
13355,-2016,416,-192,96,11,-10
13360,-2024,424,-216,97,10,-10
13365,-2016,432,-216,99,10,-13
13370,-2000,440,-192,98,11,-11
13375,-2016,440,-232,96,10,-11
13380,-2040,400,-216,95,9,-13
13385,-2000,448,-216,94,8,-11
13390,-2016,408,-224,94,7,-12
13395,-2008,448,-208,93,7,-13
13400,-2008,416,-224,91,7,-13
13405,-2024,432,-224,91,5,-15
13410,-2032,432,-240,90,7,-15
13415,-2056,432,-208,89,7,-14
13420,-2008,408,-240,90,8,-14
13425,-2040,408,-216,91,8,-13
13430,-2008,408,-200,93,8,-11
13435,-2048,400,-248,93,9,-15
13440,-2024,448,-216,94,7,-14
13445,-2016,432,-224,97,6,-10
13450,-2008,408,-224,99,4,-10
13455,-2040,440,-240,101,4,-9
13460,-2040,432,-208,102,2,-8
13465,-2008,424,-280,104,1,-8
13470,-2032,448,-240,106,1,-6
13475,-2016,432,-240,107,0,-4
13480,-2048,424,-240,107,-2,-5
13485,-2024,424,-216,105,-2,-4
13490,-2016,416,-184,104,-5,-3
13495,-2032,440,-224,101,-7,-3
13500,-2040,424,-216,101,-8,-3
13505,-2000,408,-192,101,-7,-3
13510,-2048,456,-224,101,-6,-3
13515,-2016,424,-216,98,-4,-1
13520,-2032,432,-224,98,-2,-2
13525,-2024,416,-224,99,0,-2
13530,-2040,408,-232,100,-1,-2
13535,-2024,392,-224,102,0,-4
13540,-2032,416,-232,105,1,-3
13545,-2016,400,-208,109,2,-3
13550,-2016,440,-200,109,4,-3
13555,-1992,400,-232,111,4,-3
13560,-2032,432,-208,114,3,-2
13565,-2008,416,-208,115,5,-3
13570,-2040,424,-200,116,3,-4
13575,-2008,424,-200,117,2,-4
13580,-2008,432,-200,119,1,-5
13585,-2008,440,-240,119,3,-5
13590,-2000,424,-232,118,4,-4
13595,-2024,440,-216,119,5,-5
13600,-2024,432,-224,121,4,-5
13605,-2024,400,-208,122,5,-7
13610,-2016,408,-232,123,8,-9
13615,-2048,448,-248,124,8,-11
13620,-2008,408,-160,126,9,-11
13625,-2016,416,-216,128,10,-12
13630,-2040,448,-216,130,10,-12
13635,-2016,432,-224,132,11,-11
13640,-2008,416,-208,134,9,-11
13645,-2016,424,-232,137,10,-12
13650,-2016,424,-224,137,11,-12
13655,-2008,416,-232,137,9,-11
13660,-2024,440,-256,138,9,-9
13665,-2048,440,-240,139,8,-8
13670,-2032,432,-208,137,7,-9
13675,-2024,416,-208,135,5,-7
13680,-2016,424,-232,133,4,-9
13685,-2032,432,-200,131,5,-9
13690,-2016,432,-208,129,4,-8
13695,-2032,424,-224,125,2,-10
13700,-2032,408,-216,121,4,-9
13705,-2008,432,-224,116,5,-7
13710,-2008,424,-208,114,5,-9
13715,-2024,432,-208,112,5,-9
13720,-2024,448,-232,112,4,-9
13725,-2016,416,-192,111,5,-8
13730,-2016,440,-208,111,3,-9
13735,-2024,424,-216,110,4,-8
13740,-2040,424,-216,112,5,-9
13745,-1968,464,-248,111,5,-7
13750,-2032,408,-232,110,4,-7
13755,-2032,408,-224,110,5,-7
13760,-2024,416,-176,109,6,-6
13765,-2016,432,-232,110,6,-5
13770,-2024,432,-224,108,6,-6
13775,-2024,432,-208,108,4,-7
13780,-2032,424,-208,106,5,-8
13785,-2024,448,-232,104,5,-6
13790,-2008,440,-224,102,4,-8
13795,-2016,392,-224,99,3,-9
13800,-2024,424,-224,96,5,-10
13805,-2008,408,-216,95,5,-11
13810,-2040,432,-200,95,6,-11
13815,-2032,432,-208,93,7,-11
13820,-2000,440,-240,92,8,-11
13825,-2024,408,-208,93,7,-10
13830,-2048,432,-216,93,8,-11
13835,-2008,384,-208,94,10,-11
13840,-2008,440,-200,95,10,-12
13845,-2040,408,-232,94,10,-11
13850,-2008,408,-224,94,10,-11
13855,-2024,448,-232,95,10,-11
13860,-2000,416,-216,93,11,-11
13865,-2032,416,-184,92,11,-12
13870,-2040,416,-224,93,11,-12
13875,-2000,408,-200,92,11,-13
13880,-2008,400,-248,91,13,-12
13885,-2032,416,-224,90,12,-12
13890,-2024,400,-224,89,12,-13
13895,-2032,416,-248,89,12,-12
13900,-2008,392,-216,90,12,-13
13905,-1992,424,-224,89,12,-13
13910,-2024,424,-200,90,11,-13
13915,-2016,432,-232,90,11,-12
13920,-2000,416,-208,87,11,-11
13925,-2048,432,-232,85,10,-12
13930,-2016,448,-216,84,10,-10
13935,-2024,432,-216,83,10,-10
13940,-2000,416,-200,83,11,-10
13945,-2032,408,-224,82,12,-10
13950,-2048,424,-232,83,10,-9
13955,-2040,432,-232,82,12,-11
13960,-1992,408,-232,81,12,-9
13965,-2024,416,-240,82,13,-10
13970,-2016,400,-232,80,14,-10
13975,-2024,400,-240,82,13,-9
13980,-2016,416,-208,82,13,-9
13985,-2032,424,-232,82,14,-8
13990,-2008,424,-208,81,14,-8
13995,-2040,424,-216,80,13,-10
14000,-2024,432,-224,78,13,-10
14005,-2040,408,-240,75,12,-11
14010,-2032,416,-216,72,13,-11
14015,-2032,440,-216,70,12,-11
14020,-2016,424,-216,68,13,-9
14025,-2024,416,-240,67,12,-9
14030,-2040,432,-232,65,11,-9
14035,-2032,432,-224,64,11,-6
14040,-2024,416,-208,64,12,-8
14045,-2008,400,-256,64,13,-9
14050,-2016,424,-224,65,13,-9
14055,-2032,424,-248,67,14,-11
14060,-2032,424,-256,69,12,-12
14065,-2032,400,-200,70,12,-11
14070,-2016,432,-248,71,11,-10
14075,-2024,416,-272,75,10,-10
14080,-2032,416,-224,77,12,-11
14085,-2032,424,-208,76,10,-11
14090,-2032,432,-192,76,10,-13
14095,-2024,432,-240,75,8,-13
14100,-2056,432,-224,73,8,-16
14105,-2024,408,-224,70,6,-13
14110,-2032,408,-208,68,8,-13
14115,-2024,424,-216,66,8,-13
14120,-2040,416,-200,63,8,-10
14125,-2024,392,-208,62,9,-10
14130,-2024,408,-208,59,10,-11
14135,-2016,416,-216,59,11,-10
14140,-2016,400,-224,61,12,-12
14145,-2000,392,-224,66,14,-10
14150,-1992,400,-216,73,13,-9
14155,-2040,384,-232,79,13,-7
14160,-2040,416,-256,86,12,-6
14165,-2056,416,-256,90,12,-7
14170,-2008,368,-176,94,11,-6
14175,-2040,424,-240,96,9,-4
14180,-2024,416,-248,98,7,-6
14185,-2040,448,-232,97,3,-3
14190,-2024,432,-240,98,0,-3
14195,-2040,432,-248,98,-3,-4
14200,-2016,448,-232,96,-3,-3
14205,-2040,432,-232,93,-2,-6
14210,-2040,440,-200,89,0,-6
14215,-2024,392,-208,87,2,-5
14220,-2016,440,-192,85,3,-7
14225,-2040,416,-208,84,6,-7
14230,-2040,416,-232,81,11,-7
14235,-2024,424,-208,81,13,-9
14240,-2032,392,-224,81,14,-9
14245,-2024,424,-232,79,14,-9
14250,-2000,416,-216,76,15,-11
14255,-2008,432,-176,76,16,-9
14260,-2024,424,-200,72,16,-10
14265,-2008,416,-208,69,16,-10
14270,-2032,424,-224,65,15,-10
14275,-2008,416,-232,61,15,-10
14280,-2040,448,-208,58,15,-13
14285,-2024,424,-216,54,14,-12
14290,-2024,408,-224,53,14,-10
14295,-2016,424,-216,50,14,-10
14300,-2016,416,-216,48,15,-10
14305,-2016,416,-216,47,16,-12
14310,-2016,408,-224,47,16,-11
14315,-2016,408,-208,48,16,-11
14320,-2024,400,-216,50,17,-11
14325,-2016,408,-216,51,17,-12
14330,-2024,432,-224,52,17,-10
14335,-2024,384,-248,53,17,-10
14340,-2032,416,-256,53,15,-10
14345,-2008,408,-208,55,15,-10
14350,-2024,408,-256,57,15,-11
14355,-2040,408,-224,57,12,-12
14360,-2024,408,-216,57,13,-10
14365,-2024,400,-224,56,11,-8
14370,-2008,408,-216,56,10,-8
14375,-2048,408,-232,55,8,-10
14380,-2024,432,-256,53,9,-8
14385,-1976,360,-320,53,8,-8
14390,-2040,408,-232,53,7,-7
14395,-2040,408,-248,53,6,-7
14400,-2024,416,-224,52,6,-8
14405,-2024,408,-216,52,7,-10
14410,-2040,416,-200,54,8,-10
14415,-2032,416,-184,55,10,-9
14420,-2024,400,-208,57,10,-9
14425,-2024,416,-200,59,10,-10
14430,-2032,424,-256,60,10,-8
14435,-1992,400,-192,62,8,-9
14440,-2024,424,-224,60,9,-10
14445,-2024,392,-256,59,11,-9
14450,-2024,416,-216,60,10,-8
14455,-2008,400,-240,60,10,-8
14460,-2024,440,-224,60,9,-8
14465,-2016,424,-208,59,10,-8
14470,-2024,416,-248,58,10,-9
14475,-2032,392,-200,57,10,-8
14480,-2008,440,-216,57,11,-8
14485,-2040,400,-232,56,10,-8
14490,-2016,408,-200,54,12,-8
14495,-2024,432,-232,53,13,-7
14500,-2000,408,-224,53,14,-6
14505,-2024,424,-240,51,13,-8
14510,-2000,416,-208,50,14,-9
14515,-2016,416,-248,50,15,-8
14520,-2032,424,-224,51,15,-9
14525,-2008,416,-224,49,15,-10
14530,-2040,408,-232,51,16,-10
14535,-2024,432,-232,51,17,-10
14540,-2048,416,-224,52,16,-9
14545,-2016,392,-208,51,18,-10
14550,-2032,440,-248,52,18,-11
14555,-2040,448,-208,52,18,-10
14560,-2040,408,-216,52,17,-10
14565,-2040,432,-216,52,17,-11
14570,-2040,416,-240,51,18,-13
14575,-2008,432,-232,52,19,-12
14580,-2040,424,-248,51,18,-12
14585,-2024,416,-216,50,19,-12
14590,-2016,408,-256,51,19,-11
14595,-2056,400,-184,49,16,-10
14600,-2008,416,-232,48,17,-11
14605,-2008,400,-256,48,16,-11
14610,-1992,392,-216,48,16,-11
14615,-2008,424,-240,48,16,-11
14620,-2032,416,-232,48,14,-12
14625,-2040,432,-240,49,15,-10
14630,-2016,424,-248,50,14,-11
14635,-2024,424,-224,51,13,-11
14640,-2040,424,-240,51,13,-10
14645,-2024,408,-232,52,13,-12
14650,-2048,408,-216,51,14,-13
14655,-2024,416,-248,52,13,-11
14660,-2024,408,-224,53,13,-12
14665,-2040,408,-232,53,13,-11
14670,-2040,424,-248,52,12,-12
14675,-2016,408,-176,54,13,-12
14680,-2040,448,-192,55,11,-11
14685,-2016,408,-232,52,12,-11
14690,-2024,408,-240,52,12,-11
14695,-2024,424,-240,52,12,-11
14700,-2032,392,-184,52,11,-10
14705,-2000,424,-208,51,11,-11
14710,-2040,416,-240,52,12,-11
14715,-2048,408,-248,54,13,-10
14720,-2016,424,-256,54,12,-11
14725,-2040,400,-240,54,12,-9
14730,-2040,448,-232,55,12,-11
14735,-2008,408,-224,55,13,-9
14740,-2024,392,-240,55,12,-10
14745,-2024,424,-192,56,13,-10
14750,-2024,440,-216,55,13,-11
14755,-2016,440,-208,56,13,-10
14760,-2008,384,-224,57,13,-11
14765,-2024,432,-216,55,12,-9
14770,-2040,432,-224,55,13,-10
14775,-2040,432,-208,54,11,-9
14780,-2016,408,-232,53,11,-9
14785,-2016,416,-216,51,12,-9
14790,-2016,408,-232,52,13,-9
14795,-2040,432,-208,52,13,-9
14800,-2040,408,-216,52,14,-10
14805,-2016,416,-232,53,15,-9
14810,-2032,296,-136,52,14,-10
14815,-2024,384,-224,53,15,-10
14820,-2032,448,-264,53,16,-9
14825,-2024,424,-232,53,16,-8
14830,-2016,408,-224,52,16,-9
14835,-2024,432,-200,53,16,-11
14840,-2032,400,-248,54,17,-11
14845,-2024,384,-216,56,15,-11
14850,-2016,384,-232,57,16,-11
14855,-2024,424,-216,58,16,-11
14860,-2040,448,-232,59,17,-10
14865,-2008,432,-232,60,17,-13
14870,-2032,424,-216,61,16,-11
14875,-2008,400,-272,62,17,-11
14880,-2040,416,-232,61,16,-11
14885,-2000,440,-216,62,17,-11
14890,-2024,432,-216,62,17,-12
14895,-2024,416,-256,63,16,-11
14900,-2040,416,-224,62,16,-14
14905,-2024,432,-216,63,16,-13
14910,-2032,408,-224,62,17,-13
14915,-2024,440,-224,60,18,-15
14920,-2056,424,-256,60,18,-14
14925,-2040,408,-232,59,18,-13
14930,-2032,400,-224,59,18,-13
14935,-2056,416,-240,57,18,-13
14940,-2040,432,-224,58,18,-13
14945,-2024,424,-200,56,19,-11
14950,-2032,440,-240,55,19,-9
14955,-2032,392,-216,56,19,-10
14960,-2040,440,-240,55,19,-8
14965,-2016,424,-232,54,17,-9
14970,-2024,424,-240,52,17,-9
14975,-2016,424,-240,52,16,-8
14980,-2048,408,-240,52,15,-7
14985,-2024,424,-232,51,15,-7
14990,-2024,408,-200,52,14,-9
14995,-2040,408,-256,52,15,-8
