timestamp,accel_x,accel_y,accel_z,gyro_x,gyro_y,gyro_z
0,264,-1944,-216,-162,-208,-26
5,272,-1968,-256,-158,-182,-30
10,280,-1968,-232,-150,-153,-42
15,248,-1976,-216,-138,-131,-51
20,248,-2008,-152,-123,-114,-60
25,232,-1904,-192,-107,-99,-66
30,208,-1984,-200,-89,-85,-73
35,80,-2056,-256,-73,-74,-81
40,120,-2032,-136,-59,-66,-85
45,96,-2040,-160,-50,-57,-87
50,64,-2032,-184,-45,-49,-88
55,24,-2016,-152,-47,-42,-85
60,-8,-1976,-176,-56,-32,-81
65,-56,-1936,-152,-71,-21,-71
70,-80,-1912,-144,-91,-13,-59
75,-104,-1840,-120,-109,-5,-49
80,-112,-1792,-136,-129,3,-35
85,-104,-1776,-80,-145,10,-22
90,-160,-1672,-48,-158,17,-8
95,-176,-1640,-64,-171,23,9
100,-200,-1576,-64,-178,29,22
105,-200,-1552,-16,-183,32,38
110,-216,-1536,8,-187,31,54
115,-240,-1520,-16,-189,28,67
120,-240,-1544,-16,-190,19,80
125,-224,-1568,0,-194,10,90
130,-248,-1584,-32,-197,0,98
135,-208,-1640,-24,-202,-5,106
140,-208,-1720,-40,-202,-8,111
145,-160,-1792,-16,-200,-6,116
150,-128,-1872,-16,-194,0,118
155,-80,-1976,16,-184,12,118
160,-48,-2072,-16,-169,27,117
165,-16,-2128,0,-150,46,114
170,32,-2184,-8,-129,65,108
175,56,-2272,0,-106,90,99
180,104,-2360,-8,-88,114,87
185,152,-2408,-8,-74,135,75
190,176,-2496,-48,-66,160,60
195,176,-2504,-48,-64,185,46
200,200,-2560,-104,-69,211,28
205,240,-2552,-120,-76,240,13
210,216,-2520,-128,-87,273,-3
215,216,-2456,-136,-96,311,-20
220,216,-2360,-168,-103,351,-34
225,224,-2288,-144,-103,390,-52
230,168,-2176,-176,-100,434,-63
235,152,-2080,-136,-94,465,-78
240,152,-2040,-184,-83,492,-90
245,136,-1936,-176,-70,514,-105
250,112,-1872,-184,-55,532,-119
255,120,-1816,-176,-39,546,-131
260,104,-1776,-200,-22,556,-144
265,88,-1760,-184,-6,567,-156
270,72,-1712,-144,7,574,-167
275,80,-1712,-192,16,579,-177
280,72,-1696,-192,21,581,-187
285,88,-1680,-160,20,585,-194
290,88,-1728,-192,12,591,-198
295,96,-1728,-176,4,593,-201
300,88,-1752,-200,-7,596,-201
305,64,-1784,-176,-19,598,-200
310,48,-1800,-200,-29,600,-196
315,40,-1816,-168,-39,599,-192
320,48,-1864,-192,-45,598,-187
325,8,-1856,-168,-49,593,-182
330,8,-1928,-160,-46,587,-176
335,8,-1968,-168,-41,578,-171
340,16,-1992,-152,-33,571,-166
345,24,-2072,-144,-22,563,-163
350,48,-2104,-160,-11,554,-159
355,40,-2112,-96,-2,545,-156
360,48,-2176,-96,10,536,-152
365,88,-2208,-56,18,526,-146
370,104,-2216,-64,26,517,-138
375,136,-2200,-40,30,508,-129
380,136,-2216,-64,32,501,-120
385,184,-2224,-72,32,497,-106
390,152,-2208,-8,33,492,-86
395,144,-2208,-24,30,489,-68
400,128,-2176,32,29,487,-45
405,112,-2136,56,27,485,-20
410,56,-2120,88,25,482,8
415,8,-2088,88,19,476,33
420,-56,-2104,96,9,468,57
425,-88,-2080,144,0,460,80
430,-144,-2080,168,-15,444,98
435,-200,-2080,168,-31,427,111
440,-232,-2072,176,-49,410,123
445,-248,-2080,176,-79,382,126
450,-288,-2080,184,-100,360,128
455,-296,-2064,168,-118,342,124
460,-312,-2080,128,-129,323,121
465,-312,-2112,96,-139,304,112
470,-304,-2120,88,-141,284,104
475,-280,-2112,72,-137,267,90
480,-240,-2152,16,-132,247,75
485,-192,-2136,8,-124,224,52
490,-176,-2152,-24,-116,203,30
495,-112,-2160,-64,-106,177,-1
500,-80,-2200,-56,-94,145,-24
505,-48,-2216,-56,-87,118,-50
510,-24,-2192,-80,-81,88,-74
515,24,-2224,-72,-77,60,-97
520,48,-2192,-96,-74,27,-114
525,80,-2216,-64,-73,-4,-131
530,96,-2184,-48,-75,-35,-142
535,96,-2176,-8,-78,-65,-154
540,96,-2144,-8,-80,-92,-160
545,56,-2112,24,-83,-111,-169
550,72,-2112,32,-88,-130,-174
555,32,-2088,64,-92,-147,-178
560,32,-2040,72,-96,-158,-178
565,48,-2016,56,-99,-166,-181
570,40,-1968,72,-100,-169,-179
575,40,-1944,96,-98,-170,-179
580,40,-1912,80,-97,-169,-177
585,48,-1880,112,-93,-165,-175
590,64,-1864,88,-86,-161,-173
595,72,-1856,64,-83,-160,-173
600,136,-1840,96,-81,-156,-168
605,152,-1840,80,-80,-160,-167
610,152,-1816,64,-81,-162,-163
615,160,-1808,72,-85,-166,-162
620,184,-1792,64,-89,-170,-159
625,200,-1784,72,-92,-176,-160
630,192,-1768,80,-97,-181,-156
635,240,-1736,80,-100,-185,-156
640,240,-1752,112,-103,-192,-153
645,224,-1736,128,-104,-194,-154
650,248,-1760,120,-103,-198,-151
655,240,-1752,104,-101,-202,-148
660,232,-1784,112,-99,-205,-142
665,208,-1784,120,-96,-210,-138
670,200,-1792,128,-93,-217,-128
675,192,-1816,120,-91,-228,-122
680,168,-1848,136,-85,-237,-110
685,160,-1880,176,-75,-250,-101
690,120,-1896,160,-65,-267,-87
695,104,-1920,192,-52,-285,-74
700,96,-1912,184,-39,-302,-59
705,80,-1928,192,-28,-324,-42
710,40,-1920,208,-21,-342,-20
715,16,-1928,216,-18,-368,-4
720,40,-1944,224,-20,-389,18
725,16,-1936,224,-25,-411,36
730,-8,-1912,264,-32,-434,59
735,-16,-1880,272,-42,-454,78
740,-16,-1864,288,-56,-473,99
745,-8,-1848,272,-71,-492,118
750,0,-1832,304,-88,-508,139
755,32,-1816,304,-106,-521,154
760,40,-1800,328,-120,-531,171
765,88,-1800,344,-131,-536,183
770,136,-1816,376,-137,-537,194
775,192,-1784,408,-136,-533,197
780,232,-1840,416,-128,-522,200
785,288,-1856,432,-120,-503,194
790,360,-1896,384,-110,-481,190
795,392,-1920,408,-98,-453,179
800,416,-1976,392,-87,-420,170
805,440,-2040,360,-77,-383,152
810,480,-2112,304,-68,-344,136
815,488,-2224,280,-60,-301,107
820,504,-2296,248,-54,-244,81
825,528,-2392,184,-52,-190,48
830,552,-2480,88,-53,-134,12
835,560,-2584,56,-53,-75,-31
840,552,-2704,32,-52,-18,-72
845,528,-2832,0,-40,34,-116
850,512,-2952,-48,-18,81,-155
855,480,-3072,-112,11,128,-194
860,480,-3112,-136,43,168,-226
865,448,-3192,-200,75,201,-257
870,392,-3232,-248,103,231,-287
875,376,-3264,-320,116,256,-313
880,312,-3248,-352,117,269,-329
885,264,-3208,-392,108,273,-345
890,224,-3136,-416,93,272,-348
895,168,-3088,-440,74,272,-349
900,120,-2968,-496,54,270,-335
905,48,-2856,-464,33,273,-321
910,16,-2720,-464,16,269,-297
915,-32,-2632,-448,9,259,-275
920,-72,-2536,-448,12,242,-245
925,-96,-2480,-432,29,214,-213
930,-96,-2392,-448,59,186,-179
935,-120,-2376,-432,91,156,-149
940,-136,-2296,-424,121,128,-114
945,-128,-2272,-464,148,101,-90
950,-120,-2184,-456,171,77,-65
955,-96,-2152,-464,192,54,-46
960,-88,-2088,-480,213,29,-29
965,-72,-2016,-480,226,7,-22
970,-48,-1936,-488,233,-13,-20
975,-40,-1856,-504,229,-33,-25
980,-16,-1808,-528,216,-59,-32
985,-40,-1704,-552,198,-82,-47
990,-8,-1624,-528,173,-112,-59
995,-16,-1560,-512,142,-139,-73
1000,-8,-1480,-552,106,-172,-78
1005,-16,-1456,-544,74,-209,-85
1010,-64,-1416,-568,45,-252,-85
1015,-96,-1384,-544,21,-303,-82
1020,-104,-1392,-576,5,-358,-67
1025,-160,-1352,-552,-5,-411,-53
1030,-184,-1368,-544,-14,-475,-25
1035,-224,-1400,-520,-17,-526,-3
1040,-248,-1384,-504,-11,-571,23
1045,-248,-1400,-504,-2,-607,45
1050,-256,-1472,-496,13,-636,72
1055,-256,-1520,-472,32,-656,88
1060,-224,-1616,-464,49,-666,109
1065,-200,-1688,-448,70,-668,122
1070,-152,-1776,-432,90,-663,140
1075,-96,-1824,-416,108,-654,154
1080,-56,-1928,-416,118,-639,171
1085,16,-2008,-392,117,-608,180
1090,72,-2032,-392,106,-573,190
1095,136,-2088,-360,94,-530,192
1100,216,-2136,-368,81,-482,196
1105,272,-2192,-368,68,-430,195
1110,336,-2200,-392,54,-377,197
1115,416,-2280,-376,43,-324,193
1120,456,-2280,-400,31,-271,190
1125,544,-2304,-400,15,-218,185
1130,544,-2288,-424,-2,-173,180
1135,560,-2256,-392,-18,-125,165
1140,544,-2208,-432,-38,-94,153
1145,568,-2184,-392,-56,-67,135
1150,544,-2112,-384,-72,-45,117
1155,496,-2072,-368,-87,-23,92
1160,464,-2032,-368,-100,-3,75
1165,440,-1976,-360,-108,18,52
1170,392,-1912,-336,-111,43,39
1175,352,-1872,-336,-105,68,24
1180,264,-1872,-280,-87,95,17
1185,224,-1848,-256,-63,123,10
1190,160,-1832,-240,-33,156,12
1195,136,-1832,-192,8,183,14
1200,120,-1840,-184,43,211,22
1205,72,-1848,-152,72,235,30
1210,64,-1872,-128,95,258,43
1215,32,-1888,-144,111,280,51
1220,8,-1920,-64,118,301,65
1225,-8,-1936,-120,116,319,76
1230,16,-1952,-56,107,335,89
1235,0,-1968,-40,93,346,100
1240,16,-1944,-16,70,356,114
1245,-8,-1960,-40,39,367,123
1250,16,-1952,-32,6,372,135
1255,32,-1960,0,-28,379,139
1260,32,-1912,8,-62,385,149
1265,48,-1936,56,-96,390,154
1270,80,-1912,48,-129,397,159
1275,96,-1912,24,-156,403,162
1280,96,-1904,72,-177,411,166
1285,104,-1896,56,-195,420,164
1290,120,-1864,48,-206,430,164
1295,144,-1872,56,-211,447,159
1300,144,-1856,64,-214,461,155
1305,160,-1840,96,-210,478,144
1310,176,-1808,88,-201,494,137
1315,168,-1792,80,-188,508,127
1320,168,-1776,88,-172,520,117
1325,152,-1768,88,-156,530,101
1330,152,-1760,136,-137,538,89
1335,152,-1776,152,-120,547,73
1340,136,-1760,184,-101,554,59
1345,112,-1784,176,-85,560,40
1350,112,-1768,144,-64,569,29
1355,48,-1752,184,-48,574,17
1360,72,-1800,184,-33,576,7
1365,0,-1808,168,-23,579,-5
1370,-8,-1808,168,-14,578,-10
1375,-40,-1840,168,-5,575,-16
1380,-48,-1856,176,-1,570,-19
1385,-80,-1864,256,4,561,-23
1390,-96,-1848,200,11,549,-20
1395,-112,-1872,200,20,534,-17
1400,-144,-1864,168,29,516,-6
1405,-176,-1856,120,32,506,3
1410,-192,-1856,88,29,497,17
1415,-216,-1840,80,20,485,30
1420,-208,-1808,48,2,472,42
1425,-208,-1808,24,-18,457,50
1430,-184,-1816,-24,-41,439,60
1435,-200,-1848,-64,-61,415,66
1440,-192,-1880,-32,-78,386,78
1445,-184,-1912,-32,-93,359,85
1450,-192,-1944,-64,-100,329,96
1455,-144,-2024,-80,-104,301,104
1460,-152,-2064,-112,-109,276,112
1465,-136,-2088,-112,-113,252,118
1470,-160,-2176,-88,-117,232,125
1475,-152,-2248,-64,-122,214,126
1480,-128,-2304,-32,-125,208,129
1485,-112,-2392,32,-125,209,122
1490,-128,-2512,88,-113,216,114
1495,-64,-2608,144,-94,226,101
1500,-56,-2712,240,-68,236,87
1505,8,-2816,296,-35,251,63
1510,64,-2952,336,11,258,41
1515,112,-3016,352,51,255,13
1520,248,-3080,312,95,247,-16
1525,344,-3144,304,132,239,-50
1530,496,-3152,200,169,218,-77
1535,576,-3152,112,183,212,-114
1540,656,-3120,32,188,214,-144
1545,744,-3040,-96,175,216,-165
1550,736,-2952,-208,143,236,-170
1555,672,-2824,-312,108,269,-160
1560,600,-2656,-416,76,317,-134
1565,440,-2496,-568,28,362,-103
1570,280,-2344,-656,-11,409,-69
1575,152,-2288,-672,-29,453,-34
1580,-8,-2200,-696,-26,494,3
1585,-96,-2128,-704,-3,532,40
1590,-208,-2136,-736,29,574,75
1595,-288,-2136,-728,58,620,108
1600,-336,-2144,-696,78,663,136
1605,-384,-2120,-680,93,698,161
1610,-384,-2080,-632,102,722,186
1615,-360,-2040,-608,116,739,204
1620,-256,-2024,-560,138,752,215
1625,-112,-1992,-552,171,764,217
1630,-64,-1936,-560,208,774,213
1635,112,-1912,-568,239,785,204
1640,232,-1832,-600,251,802,194
1645,376,-1752,-616,240,825,185
1650,496,-1720,-632,207,852,179
1655,616,-1624,-608,164,878,174
1660,688,-1600,-640,116,904,172
1665,736,-1568,-640,69,934,166
1670,776,-1576,-616,28,954,155
1675,800,-1584,-600,7,972,142
1680,752,-1616,-592,-4,988,126
1685,744,-1736,-576,-1,1002,108
1690,680,-1824,-536,10,1017,86
1695,576,-1896,-488,31,1027,62
1700,496,-1960,-440,60,1032,40
1705,416,-2024,-376,94,1029,19
1710,312,-2080,-320,131,1017,-2
1715,168,-2144,-272,168,995,-28
1720,16,-2184,-208,209,954,-46
1725,-104,-2256,-232,237,907,-61
1730,-232,-2296,-232,253,855,-71
1735,-368,-2328,-296,252,803,-78
1740,-472,-2328,-264,238,751,-77
1745,-552,-2336,-304,208,704,-70
1750,-584,-2352,-352,170,668,-58
1755,-616,-2312,-320,123,636,-45
1760,-640,-2240,-392,83,606,-27
1765,-616,-2200,-352,53,576,-9
1770,-584,-2128,-344,34,538,13
1775,-512,-2056,-328,27,505,29
1780,-416,-2000,-328,31,473,36
1785,-360,-1944,-336,43,440,42
1790,-232,-1856,-336,56,407,44
1795,-136,-1792,-312,71,377,41
1800,-64,-1720,-280,82,346,36
1805,16,-1664,-272,93,315,25
1810,104,-1656,-224,101,284,12
1815,112,-1600,-152,107,253,-4
1820,144,-1600,-176,113,222,-24
1825,152,-1584,-168,117,182,-39
1830,152,-1600,-136,119,145,-58
1835,184,-1624,-112,124,110,-77
1840,168,-1632,-56,130,72,-95
1845,112,-1624,-88,137,37,-112
1850,64,-1672,-40,145,2,-127
1855,24,-1656,8,152,-31,-138
1860,32,-1720,-16,162,-67,-153
1865,-24,-1736,64,173,-100,-164
1870,-32,-1784,64,183,-134,-173
1875,-80,-1800,64,190,-172,-177
1880,-96,-1824,80,197,-204,-179
1885,-112,-1800,80,192,-235,-175
1890,-160,-1808,88,177,-264,-170
1895,-120,-1808,64,157,-293,-161
1900,-152,-1784,64,130,-319,-153
1905,-96,-1800,64,100,-345,-142
1910,-128,-1768,96,72,-369,-133
1915,-96,-1768,80,45,-395,-121
1920,-80,-1728,88,22,-422,-112
1925,-56,-1712,112,5,-447,-99
1930,-24,-1704,104,-7,-479,-95
1935,-24,-1688,104,-13,-506,-85
1940,8,-1664,152,-15,-530,-79
1945,-8,-1640,152,-16,-553,-71
1950,16,-1608,160,-17,-575,-67
1955,24,-1576,168,-16,-598,-60
1960,8,-1568,144,-10,-623,-53
1965,-24,-1560,200,1,-651,-42
1970,-72,-1512,184,19,-686,-34
1975,-96,-1528,216,48,-727,-22
1980,-192,-1544,296,84,-787,-14
1985,-224,-1560,328,137,-843,-2
1990,-336,-1584,336,184,-899,5
1995,-392,-1640,312,227,-953,19
2000,-408,-1704,320,265,-1003,31
2005,-432,-1744,312,291,-1046,48
2010,-392,-1824,312,312,-1083,62
2015,-384,-1840,240,331,-1107,78
2020,-360,-1872,232,332,-1132,91
2025,-256,-1952,208,316,-1153,103
2030,-168,-2016,232,301,-1169,108
2035,-88,-2048,216,299,-1168,114
2040,64,-2088,232,308,-1152,111
2045,240,-2136,248,328,-1125,105
2050,360,-2160,272,350,-1084,88
2055,424,-2176,288,372,-1033,67
2060,560,-2208,296,383,-970,36
2065,680,-2184,304,381,-898,-4
2070,824,-2200,344,362,-822,-47
2075,904,-2200,368,328,-745,-92
2080,976,-2200,384,280,-671,-141
2085,992,-2224,424,226,-588,-193
2090,992,-2208,416,162,-534,-236
2095,968,-2256,432,123,-491,-270
2100,904,-2320,448,101,-462,-302
2105,832,-2368,424,101,-438,-330
2110,720,-2440,392,117,-414,-362
2115,656,-2496,408,146,-387,-387
2120,568,-2592,344,178,-355,-410
2125,472,-2664,312,214,-323,-424
2130,432,-2752,336,255,-292,-436
2135,336,-2808,384,300,-264,-441
2140,264,-2896,304,363,-238,-446
2145,208,-2944,272,413,-213,-440
2150,160,-2976,240,455,-186,-438
2155,72,-2992,184,486,-155,-431
2160,24,-2984,120,496,-130,-428
2165,-16,-2984,96,486,-111,-415
2170,-80,-2888,72,463,-95,-402
2175,-96,-2840,56,427,-84,-373
2180,-120,-2680,8,386,-70,-342
2185,-144,-2576,-8,343,-56,-302
2190,-200,-2480,-32,301,-51,-260
2195,-248,-2392,-112,255,-65,-222
2200,-240,-2312,-128,223,-94,-194
2205,-288,-2232,-216,191,-140,-164
2210,-296,-2160,-288,157,-197,-137
2215,-336,-2104,-336,122,-262,-112
2220,-352,-2080,-424,88,-331,-94
2225,-368,-2056,-456,56,-406,-74
2230,-432,-2016,-448,34,-490,-61
2235,-432,-1968,-520,21,-586,-47
2240,-448,-1904,-536,19,-689,-39
2245,-440,-1864,-560,19,-812,-32
2250,-488,-1808,-560,18,-910,-31
2255,-504,-1760,-560,17,-1005,-25
2260,-560,-1696,-560,14,-1092,-23
2265,-592,-1648,-592,8,-1169,-13
2270,-608,-1576,-624,-2,-1234,-7
2275,-584,-1560,-592,-12,-1284,5
2280,-544,-1576,-568,-19,-1320,9
2285,-464,-1584,-544,-16,-1338,20
2290,-368,-1624,-480,-4,-1339,25
2295,-232,-1736,-472,15,-1314,37
2300,-88,-1832,-432,43,-1277,46
2305,56,-1960,-408,63,-1229,59
2310,192,-2072,-376,73,-1175,66
2315,304,-2160,-304,73,-1120,82
2320,392,-2232,-216,68,-1064,93
2325,496,-2328,-192,60,-1010,109
2330,624,-2416,-136,50,-956,118
2335,696,-2464,-72,42,-905,132
2340,768,-2512,-40,31,-857,141
2345,824,-2584,-40,20,-810,159
2350,808,-2568,-32,5,-757,167
2355,832,-2576,-32,-6,-711,182
2360,792,-2552,-56,-11,-665,192
2365,736,-2520,-56,-19,-622,210
2370,656,-2440,-96,-24,-585,219
2375,576,-2344,-136,-33,-550,232
2380,472,-2264,-168,-47,-517,232
2385,368,-2136,-168,-69,-484,229
2390,288,-2056,-176,-87,-452,219
2395,192,-1952,-168,-106,-418,205
2400,120,-1888,-152,-125,-375,186
2405,64,-1776,-160,-134,-342,171
2410,-8,-1688,-112,-140,-308,153
2415,0,-1648,-104,-140,-281,137
2420,-8,-1616,-56,-134,-255,121
2425,-64,-1568,-16,-124,-231,111
2430,-48,-1560,32,-111,-209,101
2435,-48,-1520,16,-96,-187,98
2440,-24,-1544,64,-78,-166,92
2445,-8,-1520,64,-65,-148,96
2450,32,-1552,104,-55,-122,97
2455,48,-1552,96,-47,-107,102
2460,72,-1568,128,-42,-99,107
2465,72,-1576,144,-41,-95,117
2470,88,-1592,120,-38,-95,125
2475,104,-1640,128,-35,-95,140
2480,88,-1648,168,-36,-96,154
2485,104,-1720,136,-39,-97,172
2490,104,-1744,128,-45,-95,187
2495,96,-1792,112,-54,-90,206
2500,64,-1840,120,-68,-80,224
2505,88,-1872,88,-93,-64,240
2510,80,-1936,120,-116,-50,250
2515,96,-1952,128,-141,-35,259
2520,64,-1952,112,-165,-15,260
2525,88,-1984,112,-188,5,262
2530,128,-1984,152,-211,30,252
2535,128,-2000,152,-229,55,242
2540,152,-1984,152,-243,85,221
2545,160,-1992,184,-253,119,200
2550,168,-1920,176,-265,151,169
2555,200,-1904,184,-269,195,135
2560,184,-1864,192,-270,234,100
2565,248,-1864,240,-263,275,66
2570,256,-1840,232,-251,320,30
2575,248,-1808,224,-234,361,0
2580,272,-1784,216,-209,396,-37
2585,248,-1736,232,-175,422,-62
2590,224,-1752,248,-132,441,-94
2595,256,-1768,264,-75,459,-120
2600,304,-1792,256,-10,485,-141
2605,280,-1752,216,44,524,-157
2610,264,-1744,224,86,548,-171
2615,248,-1752,208,102,565,-179
2620,216,-1720,152,97,580,-189
2625,224,-1720,160,73,603,-196
2630,200,-1720,176,39,631,-211
2635,192,-1688,144,1,656,-222
2640,128,-1680,200,-39,672,-234
2645,88,-1688,256,-68,675,-241
2650,16,-1672,288,-89,670,-244
2655,-72,-1648,304,-92,657,-232
2660,-96,-1680,376,-78,628,-206
2665,-200,-1760,464,-48,596,-165
2670,-232,-1800,472,-7,556,-113
2675,-304,-1880,528,49,512,-46
2680,-360,-2008,560,114,468,26
2685,-408,-2088,544,180,428,104
2690,-464,-2232,528,222,403,187
2695,-480,-2296,544,271,371,254
2700,-472,-2336,528,300,348,307
2705,-464,-2352,520,310,341,355
2710,-432,-2360,552,303,351,392
2715,-368,-2352,560,288,378,408
2720,-248,-2304,592,275,415,410
2725,-168,-2280,624,270,460,403
2730,-64,-2296,680,278,507,385
2735,48,-2288,696,299,552,363
2740,144,-2320,688,327,590,333
2745,160,-2360,720,356,621,304
2750,232,-2432,640,381,639,273
2755,288,-2528,552,397,645,248
2760,312,-2592,432,397,635,217
2765,272,-2664,360,372,607,200
2770,208,-2736,304,329,572,189
2775,128,-2768,224,277,528,189
2780,0,-2768,168,222,477,204
2785,-112,-2752,152,168,420,235
2790,-224,-2720,96,122,363,278
2795,-328,-2672,56,85,303,328
2800,-440,-2616,0,62,248,377
2805,-464,-2576,-40,58,205,425
2810,-496,-2568,-120,68,176,470
2815,-472,-2576,-176,85,162,525
2820,-416,-2584,-256,111,162,567
2825,-368,-2608,-288,130,173,601
2830,-240,-2640,-344,141,188,626
2835,-112,-2632,-416,143,207,640
2840,-32,-2616,-440,133,228,639
2845,80,-2568,-408,121,246,629
2850,192,-2472,-408,111,268,610
2855,296,-2376,-424,112,288,585
2860,368,-2320,-416,119,311,552
2865,472,-2224,-408,129,339,508
2870,584,-2112,-472,138,371,460
2875,688,-2008,-504,137,403,404
2880,792,-1912,-552,122,441,343
2885,880,-1752,-608,92,479,281
2890,912,-1616,-640,48,523,223
2895,912,-1488,-712,-11,570,171
2900,920,-1416,-680,-79,619,130
2905,888,-1296,-680,-144,667,95
2910,776,-1208,-696,-203,714,70
2915,664,-1160,-656,-250,761,49
2920,584,-1176,-616,-278,809,34
2925,424,-1224,-576,-283,844,19
2930,280,-1336,-488,-272,872,4
2935,120,-1424,-448,-254,893,-9
2940,8,-1520,-416,-233,911,-18
2945,-104,-1616,-336,-215,920,-23
2950,-232,-1752,-280,-197,919,-27
2955,-328,-1848,-264,-180,910,-32
2960,-448,-1992,-192,-165,888,-35
2965,-512,-2080,-176,-150,853,-38
2970,-576,-2160,-152,-136,796,-43
2975,-624,-2240,-112,-115,735,-45
2980,-632,-2288,-152,-97,664,-45
2985,-648,-2376,-104,-72,583,-47
2990,-656,-2432,-144,-47,501,-50
2995,-672,-2496,-136,-17,409,-54
3000,-648,-2552,-128,9,314,-59
3005,-640,-2584,-144,31,219,-67
3010,-592,-2592,-160,47,127,-79
3015,-552,-2584,-144,59,38,-92
3020,-448,-2544,-168,64,-61,-110
3025,-392,-2496,-152,66,-134,-124
3030,-280,-2448,-120,65,-197,-136
3035,-192,-2384,-128,60,-251,-149
3040,-96,-2264,-104,57,-294,-159
3045,-48,-2192,-56,50,-330,-168
3050,24,-2080,-56,43,-358,-176
3055,88,-2048,-56,36,-380,-183
3060,136,-1944,-8,27,-395,-189
3065,160,-1856,8,17,-407,-199
3070,216,-1776,16,6,-411,-209
3075,256,-1728,56,-14,-409,-220
3080,240,-1640,40,-34,-401,-225
3085,240,-1600,80,-52,-388,-235
3090,240,-1592,48,-72,-370,-244
3095,216,-1560,72,-90,-349,-254
3100,176,-1536,80,-101,-325,-261
3105,184,-1536,112,-105,-301,-269
3110,136,-1544,144,-104,-276,-277
3115,96,-1568,192,-100,-253,-284
3120,64,-1584,216,-90,-233,-287
3125,32,-1632,248,-79,-216,-295
3130,0,-1672,288,-63,-208,-294
3135,-16,-1688,256,-51,-205,-295
3140,-32,-1776,256,-43,-209,-293
3145,-64,-1808,264,-38,-220,-292
3150,-80,-1848,280,-35,-236,-283
3155,-80,-1944,280,-35,-257,-279
3160,-88,-2000,296,-39,-281,-272
3165,-96,-2000,280,-45,-308,-264
3170,-88,-2056,288,-54,-336,-256
3175,-96,-2088,304,-65,-370,-243
3180,-88,-2096,288,-82,-400,-228
3185,-72,-2104,312,-91,-428,-217
3190,-80,-2144,312,-99,-450,-202
3195,-64,-2144,272,-104,-471,-190
3200,-24,-2136,256,-107,-492,-174
3205,-48,-2096,240,-113,-509,-163
3210,-32,-2104,248,-120,-528,-149
3215,-32,-2072,232,-129,-545,-136
3220,8,-2024,256,-138,-559,-119
3225,16,-1976,232,-144,-572,-100
3230,48,-1936,224,-148,-582,-79
3235,56,-1848,272,-147,-589,-64
3240,64,-1784,272,-144,-591,-45
3245,96,-1744,288,-134,-593,-31
3250,80,-1728,312,-119,-590,-15
3255,64,-1664,296,-97,-590,-3
3260,96,-1656,328,-71,-589,9
3265,64,-1648,344,-37,-586,16
3270,64,-1632,344,-2,-580,23
3275,40,-1616,320,31,-574,27
3280,32,-1608,328,63,-564,31
3285,16,-1648,296,92,-554,31
3290,24,-1688,296,112,-543,35
3295,-8,-1696,320,129,-533,35
3300,-24,-1736,296,136,-522,40
3305,-48,-1768,288,137,-516,43
3310,-88,-1760,352,131,-509,51
3315,-56,-1792,296,123,-505,58
3320,-80,-1832,376,116,-501,68
3325,-72,-1848,368,112,-500,74
3330,-56,-1888,376,114,-500,83
3335,-40,-1880,440,112,-503,85
3340,24,-1912,448,113,-505,89
3345,56,-1928,496,117,-508,84
3350,112,-1936,520,125,-507,78
3355,128,-1960,552,137,-509,66
3360,152,-1976,624,151,-505,51
3365,192,-1992,616,166,-501,33
3370,192,-1992,624,179,-498,18
3375,216,-2000,664,186,-493,-1
3380,232,-2000,672,190,-482,-17
3385,280,-2032,664,189,-466,-34
3390,256,-2040,672,186,-447,-46
3395,248,-2048,712,187,-428,-62
3400,192,-2080,712,190,-406,-70
3405,176,-2112,688,197,-380,-81
3410,152,-2160,624,208,-350,-83
3415,128,-2272,592,221,-317,-91
3420,136,-2400,528,238,-278,-92
3425,152,-2488,456,254,-232,-97
3430,224,-2584,352,268,-180,-100
3435,248,-2664,272,272,-110,-116
3440,336,-2744,192,267,-47,-133
3445,384,-2816,168,258,16,-160
3450,456,-2872,128,246,78,-190
3455,512,-2936,120,232,139,-230
3460,544,-2968,104,222,190,-266
3465,560,-2992,96,224,227,-307
3470,576,-3024,64,233,247,-341
3475,544,-3032,0,248,253,-372
3480,560,-3032,-72,260,247,-393
3485,528,-3008,-152,265,231,-407
3490,480,-2984,-328,253,211,-411
3495,448,-2896,-424,234,194,-409
3500,360,-2808,-504,213,181,-397
3505,264,-2712,-536,192,167,-384
3510,152,-2592,-600,171,135,-361
3515,56,-2448,-664,150,86,-344
3520,-24,-2312,-632,120,26,-323
3525,-128,-2096,-696,79,-45,-301
3530,-256,-1880,-688,20,-113,-270
3535,-392,-1664,-712,-51,-175,-234
3540,-496,-1504,-688,-141,-250,-196
3545,-568,-1360,-680,-200,-314,-159
3550,-656,-1200,-624,-241,-368,-116
3555,-664,-1136,-608,-259,-415,-75
3560,-656,-1088,-584,-256,-453,-33
3565,-616,-1120,-544,-239,-483,1
3570,-552,-1168,-480,-213,-512,32
3575,-472,-1264,-416,-188,-541,52
3580,-336,-1376,-360,-159,-571,69
3585,-248,-1472,-296,-134,-589,78
3590,-128,-1568,-208,-112,-601,83
3595,-96,-1656,-144,-87,-612,79
3600,8,-1736,-104,-62,-619,76
3605,120,-1872,-88,-37,-623,70
3610,232,-1968,-40,-14,-617,74
3615,360,-2080,-24,4,-606,76
3620,472,-2216,8,12,-588,85
3625,592,-2352,-40,13,-562,92
3630,680,-2456,-56,3,-524,107
3635,744,-2544,-40,-16,-468,118
3640,800,-2624,-56,-44,-405,135
3645,784,-2688,-112,-90,-323,142
3650,776,-2704,-96,-132,-247,147
3655,728,-2680,-96,-173,-174,147
3660,648,-2616,-128,-209,-110,151
3665,576,-2560,-136,-242,-58,148
3670,512,-2472,-192,-270,-15,147
3675,456,-2376,-168,-292,24,142
3680,376,-2280,-184,-313,59,138
3685,336,-2128,-176,-330,92,130
3690,264,-2040,-192,-343,123,127
3695,208,-1888,-112,-349,158,117
3700,152,-1800,-112,-349,185,112
3705,128,-1720,-64,-339,209,103
3710,128,-1656,8,-324,234,101
3715,112,-1592,24,-304,258,99
3720,80,-1536,48,-280,282,102
3725,88,-1512,88,-253,305,100
3730,72,-1472,104,-226,325,104
3735,104,-1488,128,-200,341,104
3740,112,-1488,128,-176,357,110
3745,88,-1512,160,-153,372,114
3750,104,-1512,176,-132,381,117
3755,104,-1560,160,-112,382,118
3760,104,-1592,184,-96,378,125
3765,96,-1648,176,-83,372,126
3770,120,-1736,168,-73,364,131
3775,104,-1792,136,-68,353,133
3780,56,-1864,112,-71,341,141
3785,72,-1952,120,-81,333,147
3790,64,-2000,104,-99,327,157
3795,48,-2024,88,-126,324,168
3800,64,-2072,104,-153,328,185
3805,64,-2088,48,-194,335,196
3810,64,-2080,64,-228,347,210
3815,72,-2056,64,-265,359,219
3820,56,-2056,80,-299,370,225
3825,64,-2016,96,-327,382,223
3830,64,-2000,128,-343,393,218
3835,80,-1936,136,-352,408,206
3840,80,-1920,184,-351,424,193
3845,56,-1848,200,-342,443,173
3850,56,-1816,240,-324,464,156
3855,56,-1808,272,-295,482,140
3860,40,-1768,272,-272,497,125
3865,48,-1736,288,-247,512,110
3870,48,-1704,328,-221,525,97
3875,56,-1728,360,-196,533,83
3880,32,-1728,360,-168,539,72
3885,32,-1712,336,-143,543,59
3890,16,-1720,336,-117,545,52
3895,-16,-1728,336,-93,543,42
3900,-8,-1760,328,-73,537,35
3905,-32,-1784,328,-54,528,30
3910,-48,-1800,272,-40,520,26
3915,-72,-1824,272,-27,511,23
3920,-64,-1856,288,-18,503,22
3925,-80,-1920,288,-10,496,19
3930,-88,-1936,288,-4,488,21
3935,-104,-1928,312,-1,484,23
3940,-136,-1952,304,-1,482,28
3945,-128,-1936,296,-5,483,33
3950,-104,-1944,280,-18,485,41
3955,-96,-1968,280,-30,494,49
3960,-72,-1936,352,-49,505,56
3965,-32,-1920,336,-65,520,59
3970,-8,-1928,360,-78,534,60
3975,24,-1928,376,-90,554,58
3980,80,-1944,392,-97,572,55
3985,96,-1928,416,-96,596,46
3990,128,-1936,408,-90,617,37
3995,184,-1944,440,-82,641,27
4000,192,-1928,440,-67,670,20
4005,176,-1936,424,-45,702,11
4010,184,-1952,448,-18,735,5
4015,136,-1928,432,6,759,5
4020,120,-1896,408,25,778,8
4025,56,-1904,424,36,791,16
4030,-16,-1904,400,41,800,30
4035,-72,-1928,360,37,803,46
4040,-168,-1944,336,33,796,67
4045,-240,-1976,264,25,781,89
4050,-320,-2064,232,18,759,115
4055,-408,-2128,216,15,729,142
4060,-480,-2200,184,18,683,182
4065,-560,-2320,152,32,633,222
4070,-632,-2464,176,57,579,267
4075,-672,-2624,192,96,524,318
4080,-704,-2808,224,142,468,370
4085,-720,-2976,232,193,414,420
4090,-664,-3104,232,243,357,466
4095,-616,-3184,216,272,294,503
4100,-544,-3192,184,267,220,534
4105,-440,-3160,176,231,142,557
4110,-312,-3088,176,177,57,576
4115,-96,-2960,168,110,10,579
4120,24,-2784,112,58,-4,557
4125,144,-2552,120,4,7,522
4130,248,-2480,-48,-50,29,476
4135,344,-2400,-72,-108,47,425
4140,424,-2280,-176,-171,57,376
4145,528,-2152,-256,-238,73,327
4150,576,-2104,-304,-294,104,284
4155,608,-2072,-320,-327,154,253
4160,640,-2080,-296,-324,226,228
4165,624,-2088,-304,-279,330,214
4170,616,-2128,-320,-220,429,207
4175,568,-2184,-328,-148,538,209
4180,512,-2272,-376,-79,645,214
4185,504,-2376,-256,-18,741,220
4190,456,-2352,-512,31,829,217
4195,432,-2408,-512,67,904,213
4200,464,-2408,-528,86,967,205
4205,496,-2376,-632,87,1015,193
4210,512,-2344,-720,74,1055,172
4215,576,-2312,-744,40,1087,156
4220,600,-2280,-800,-4,1107,133
4225,608,-2216,-840,-53,1119,114
4230,592,-2120,-784,-97,1128,93
4235,560,-2080,-760,-128,1134,77
4240,464,-2040,-712,-143,1139,58
4245,408,-2040,-640,-140,1145,46
4250,344,-2000,-560,-121,1150,30
4255,264,-2040,-504,-91,1152,20
4260,152,-2040,-432,-51,1149,8
4265,24,-2080,-328,-4,1131,-4
4270,-64,-2104,-256,50,1102,-17
4275,-160,-2136,-208,92,1064,-28
4280,-208,-2176,-152,127,1011,-44
4285,-280,-2232,-32,153,948,-59
4290,-312,-2232,-32,167,878,-76
4295,-328,-2272,-64,175,809,-90
4300,-360,-2264,-40,179,745,-104
4305,-376,-2264,0,181,686,-112
4310,-360,-2304,-80,184,631,-124
4315,-384,-2272,-112,186,571,-138
4320,-344,-2272,-144,186,528,-150
4325,-312,-2264,-152,181,491,-157
4330,-296,-2224,-176,176,460,-167
4335,-264,-2192,-224,167,434,-171
4340,-192,-2176,-216,158,412,-179
4345,-176,-2120,-176,151,391,-181
4350,-120,-2072,-152,145,372,-183
4355,-80,-2032,-168,138,353,-182
4360,-48,-1944,-152,135,335,-180
4365,0,-1896,-120,129,312,-173
4370,16,-1872,-104,122,281,-168
4375,40,-1808,-80,121,259,-157
4380,40,-1760,-64,121,236,-151
4385,24,-1720,-64,120,218,-140
4390,0,-1656,-64,121,198,-132
4395,-16,-1640,-40,124,175,-122
4400,-64,-1592,0,129,152,-116
4405,-80,-1584,16,135,127,-107
4410,-104,-1576,56,143,100,-100
4415,-152,-1568,16,148,70,-85
4420,-176,-1552,48,143,36,-86
4425,-240,-1536,72,134,5,-93
4430,-288,-1544,120,128,-27,-105
4435,-320,-1544,64,128,-60,-105
4440,-328,-1536,72,129,-93,-107
4445,-312,-1568,112,127,-130,-106
4450,-328,-1552,80,122,-167,-110
4455,-304,-1584,104,115,-208,-114
4460,-288,-1584,112,106,-249,-125
4465,-256,-1616,80,95,-292,-135
4470,-200,-1656,96,77,-343,-150
4475,-184,-1664,104,59,-384,-164
4480,-144,-1696,64,33,-421,-184
4485,-112,-1712,56,6,-452,-197
4490,-88,-1736,80,-25,-477,-212
4495,-48,-1760,72,-57,-495,-220
4500,-16,-1776,80,-85,-508,-228
4505,-16,-1784,72,-110,-515,-227
4510,24,-1792,88,-131,-518,-225
4515,56,-1824,104,-143,-519,-217
4520,80,-1824,128,-147,-516,-206
4525,88,-1880,144,-146,-515,-190
4530,112,-1872,152,-138,-510,-178
4535,96,-1848,160,-126,-509,-160
4540,136,-1880,200,-112,-502,-145
4545,152,-1912,200,-96,-496,-124
4550,160,-1912,200,-80,-489,-107
4555,144,-1920,208,-65,-481,-87
4560,168,-1920,232,-53,-472,-72
4565,168,-1936,232,-42,-463,-54
4570,144,-1896,256,-37,-452,-39
4575,120,-1912,248,-32,-437,-23
4580,112,-1904,272,-28,-423,-14
4585,104,-1912,280,-27,-409,-4
4590,88,-1904,288,-24,-396,0
4595,64,-1896,296,-23,-383,8
4600,40,-1880,328,-20,-373,10
4605,8,-1888,312,-15,-363,16
4610,24,-1904,328,-9,-357,17
4615,8,-1888,352,-3,-352,23
4620,0,-1856,376,4,-350,26
4625,16,-1856,400,17,-348,33
4630,16,-1824,424,28,-350,38
4635,8,-1824,400,40,-353,48
4640,-8,-1808,424,51,-360,51
4645,-8,-1792,448,59,-365,58
4650,-8,-1784,440,65,-371,60
4655,-32,-1720,456,67,-376,68
4660,-40,-1752,480,68,-382,69
4665,-56,-1712,472,69,-385,72
4670,-72,-1696,528,70,-386,70
4675,-72,-1728,504,70,-386,70
4680,-80,-1712,512,76,-383,63
4685,-64,-1744,528,83,-379,62
4690,-24,-1760,528,91,-370,56
4695,-8,-1800,520,99,-360,55
4700,64,-1840,536,105,-355,47
4705,88,-1856,560,111,-351,43
4710,128,-1880,576,116,-349,32
4715,152,-1880,576,118,-350,24
4720,176,-1904,576,120,-355,9
4725,232,-1928,592,115,-364,-7
4730,256,-1936,592,103,-369,-26
4735,280,-1968,600,89,-372,-41
4740,304,-1952,568,69,-370,-61
4745,344,-1992,560,46,-363,-76
4750,352,-2000,528,24,-349,-98
4755,376,-2072,504,5,-327,-119
4760,360,-2096,464,-8,-298,-150
4765,376,-2208,440,-15,-260,-180
4770,400,-2296,360,-17,-218,-215
4775,408,-2424,328,-11,-173,-255
4780,416,-2520,272,8,-119,-290
4785,464,-2648,216,29,-74,-319
4790,488,-2696,160,55,-28,-350
4795,552,-2864,88,76,18,-378
4800,568,-2984,64,96,64,-405
4805,632,-3096,56,114,108,-429
4810,624,-3160,48,130,152,-455
4815,616,-3216,40,144,191,-473
4820,576,-3256,16,156,224,-486
4825,504,-3248,40,167,250,-482
4830,440,-3192,40,178,270,-470
4835,336,-3120,40,189,277,-445
4840,192,-3040,24,200,274,-416
4845,0,-2928,-16,213,267,-375
4850,-192,-2776,-64,226,253,-329
4855,-320,-2680,-120,227,236,-274
4860,-496,-2600,-168,222,215,-217
4865,-576,-2528,-176,209,186,-155
4870,-680,-2464,-256,189,151,-94
4875,-736,-2384,-360,163,104,-33
4880,-744,-2312,-416,134,30,22
4885,-744,-2240,-424,105,-50,56
4890,-688,-2176,-456,86,-145,76
4895,-640,-2096,-496,71,-250,89
4900,-592,-2032,-536,58,-359,89
4905,-552,-1960,-528,44,-468,83
4910,-488,-1848,-560,28,-575,67
4915,-456,-1752,-616,7,-677,48
4920,-424,-1632,-616,-18,-771,23
4925,-360,-1560,-616,-44,-853,1
4930,-304,-1504,-616,-70,-919,-26
4935,-240,-1448,-608,-100,-974,-45
4940,-152,-1392,-600,-124,-991,-65
4945,-120,-1416,-568,-140,-996,-79
4950,-32,-1440,-520,-147,-987,-92
4955,64,-1512,-480,-145,-967,-100
4960,168,-1560,-448,-141,-932,-105
4965,256,-1648,-392,-133,-894,-105
4970,320,-1712,-360,-131,-851,-106
4975,384,-1800,-280,-125,-801,-102
4980,432,-1848,-224,-119,-747,-97
4985,472,-1880,-184,-110,-680,-90
4990,528,-1960,-120,-101,-621,-83
4995,560,-2048,-104,-89,-562,-71
5000,608,-2096,-56,-76,-504,-58
5005,608,-2152,-24,-66,-443,-44
5010,608,-2208,16,-56,-382,-34
5015,632,-2248,-8,-45,-317,-23
5020,616,-2280,-8,-33,-248,-15
5025,608,-2320,-8,-23,-179,-5
5030,544,-2352,-40,-16,-112,2
5035,512,-2368,-64,-10,-35,11
5040,464,-2376,-88,-10,23,17
5045,408,-2344,-104,-12,72,21
5050,368,-2328,-112,-17,113,26
5055,328,-2288,-152,-23,144,31
5060,264,-2232,-160,-30,169,30
5065,216,-2184,-184,-33,187,32
5070,208,-2112,-152,-33,201,31
5075,168,-2048,-120,-29,216,28
5080,136,-1992,-128,-23,233,25
5085,136,-1928,-88,-13,250,22
5090,144,-1880,-128,5,273,17
5095,128,-1856,-56,25,296,16
5100,136,-1832,-32,54,318,19
5105,136,-1800,-72,90,339,22
5110,152,-1768,32,131,362,28
5115,152,-1760,24,175,381,37
5120,176,-1752,56,224,397,49
5125,224,-1752,64,271,412,63
5130,248,-1752,96,317,430,77
5135,240,-1752,128,362,450,96
5140,240,-1776,184,407,470,117
5145,232,-1768,200,435,480,135
5150,240,-1792,248,457,490,155
5155,200,-1800,272,468,496,177
5160,176,-1808,312,468,501,200
5165,144,-1840,336,458,509,224
5170,128,-1832,352,435,514,246
5175,120,-1816,400,406,519,270
5180,88,-1792,368,365,521,288
5185,48,-1800,384,321,521,304
5190,24,-1792,384,273,517,317
5195,-24,-1792,384,218,510,320
5200,-48,-1776,384,174,501,319
5205,-80,-1776,376,135,491,313
5210,-96,-1800,376,98,478,305
5215,-96,-1808,384,68,464,292
5220,-112,-1784,376,43,450,280
5225,-144,-1784,360,23,434,267
5230,-144,-1792,312,8,419,253
5235,-176,-1768,312,-5,404,237
5240,-160,-1792,360,-17,391,217
5245,-168,-1760,320,-32,372,199
5250,-168,-1736,336,-47,362,181
5255,-152,-1768,344,-61,352,161
5260,-168,-1760,352,-75,343,143
5265,-96,-1752,360,-94,338,123
5270,-80,-1752,328,-119,336,106
5275,-80,-1728,376,-144,335,89
5280,-64,-1752,376,-175,337,75
5285,-32,-1760,336,-205,339,61
5290,0,-1752,368,-237,344,47
5295,24,-1800,392,-274,350,38
5300,24,-1792,360,-302,357,32
5305,32,-1792,392,-327,362,25
5310,0,-1808,456,-363,374,20
5315,32,-1832,432,-374,383,25
5320,24,-1832,448,-365,377,34
5325,16,-1824,448,-355,370,42
5330,-24,-1816,456,-345,367,49
5335,-8,-1856,456,-333,367,58
5340,-8,-1864,464,-320,365,66
5345,-48,-1856,472,-307,362,74
5350,-56,-1840,488,-293,358,83
5355,-64,-1872,488,-275,354,88
5360,-64,-1880,488,-251,350,95
5365,-80,-1912,480,-225,344,98
5370,-88,-1936,480,-195,337,104
5375,-80,-1936,480,-165,332,108
5380,-96,-1952,480,-134,328,112
5385,-96,-1968,464,-108,324,115
5390,-88,-1968,472,-81,319,118
5395,-96,-1968,456,-58,316,120
5400,-96,-1952,464,-37,316,123
5405,-96,-1928,432,-19,320,123
5410,-96,-1880,432,-7,329,126
5415,-72,-1888,440,3,342,124
5420,-80,-1848,440,9,357,124
5425,-72,-1832,464,16,373,121
5430,-56,-1800,448,21,390,119
5435,-48,-1760,448,25,409,114
5440,-40,-1776,472,30,427,111
5445,-32,-1768,464,39,449,101
5450,-40,-1768,456,51,469,98
5455,-40,-1784,456,63,485,93
5460,-48,-1808,504,78,503,92
5465,-56,-1848,496,96,516,92
5470,-48,-1880,496,115,530,97
5475,-56,-1976,480,138,545,104
5480,-72,-2024,488,161,559,122
5485,-48,-2104,512,192,576,142
5490,-64,-2240,504,237,594,167
5495,-80,-2352,464,294,611,201
5500,-56,-2544,464,379,624,238
5505,-96,-2736,408,453,625,273
5510,-96,-2960,376,523,613,317
5515,-136,-3168,296,580,592,363
5520,-144,-3320,232,617,568,411
5525,-232,-3480,240,621,515,460
5530,-296,-3600,120,596,461,521
5535,-312,-3624,48,549,401,581
5540,-312,-3624,-16,484,334,633
5545,-296,-3520,-72,413,270,673
5550,-248,-3408,-128,333,209,681
5555,-208,-3256,-200,274,180,655
5560,-168,-3168,-248,222,175,613
5565,-104,-2992,-336,178,190,554
5570,-80,-2816,-368,139,222,496
5575,24,-2624,-408,113,266,433
5580,120,-2464,-464,100,325,374
5585,240,-2304,-504,104,399,317
5590,312,-2160,-512,114,481,267
5595,408,-2072,-528,126,568,218
5600,432,-1984,-560,130,670,169
5605,504,-1872,-560,117,753,131
5610,568,-1776,-568,93,829,103
5615,592,-1648,-616,61,897,77
5620,600,-1568,-568,25,955,60
5625,584,-1480,-512,-5,1000,41
5630,568,-1400,-544,-32,1032,29
5635,536,-1360,-512,-63,1058,13
5640,448,-1360,-528,-87,1073,0
5645,344,-1360,-488,-111,1083,-17
5650,192,-1432,-416,-129,1084,-32
5655,56,-1496,-408,-144,1080,-49
5660,-72,-1592,-328,-149,1069,-58
5665,-184,-1688,-272,-150,1047,-70
5670,-304,-1776,-240,-150,1021,-79
5675,-384,-1848,-192,-152,984,-87
5680,-480,-1936,-152,-152,940,-90
5685,-560,-1984,-112,-149,891,-97
5690,-600,-2056,-56,-140,835,-98
5695,-616,-2128,-56,-126,780,-103
5700,-632,-2192,-24,-105,726,-104
5705,-616,-2208,-8,-72,661,-109
5710,-608,-2272,40,-41,608,-106
5715,-608,-2256,56,-11,551,-109
5720,-584,-2320,56,15,489,-109
5725,-568,-2320,80,38,421,-112
5730,-528,-2320,64,51,352,-112
5735,-488,-2304,64,61,284,-115
5740,-432,-2264,64,65,218,-114
5745,-376,-2224,64,65,155,-120
5750,-336,-2216,48,57,96,-122
5755,-264,-2176,64,48,29,-129
5760,-240,-2104,56,42,-25,-133
5765,-200,-2064,72,38,-74,-142
5770,-176,-2000,64,38,-123,-146
5775,-152,-1952,72,41,-166,-156
5780,-144,-1896,72,47,-205,-165
5785,-144,-1880,104,57,-236,-181
5790,-144,-1840,80,73,-262,-193
5795,-200,-1800,80,90,-284,-208
5800,-176,-1776,112,112,-296,-220
5805,-192,-1744,104,135,-301,-228
5810,-200,-1728,104,157,-296,-232
5815,-200,-1696,80,178,-283,-237
5820,-200,-1688,88,192,-265,-237
5825,-200,-1672,128,205,-244,-241
5830,-168,-1680,104,212,-220,-239
5835,-144,-1672,136,214,-194,-247
5840,-104,-1664,144,215,-170,-249
5845,-88,-1664,168,216,-144,-260
5850,-80,-1696,192,215,-122,-270
5855,-56,-1736,232,214,-100,-289
5860,-16,-1784,240,213,-88,-304
5865,8,-1816,312,212,-80,-321
5870,24,-1808,304,209,-76,-337
5875,40,-1840,344,206,-75,-353
5880,72,-1864,352,200,-77,-365
5885,88,-1872,376,190,-78,-376
5890,96,-1896,424,181,-77,-382
5895,96,-1896,400,168,-71,-387
5900,56,-1888,392,150,-66,-389
5905,80,-1920,432,131,-58,-392
5910,64,-1904,440,104,-39,-390
5915,56,-1912,408,81,-21,-390
5920,56,-1896,408,60,-3,-385
5925,40,-1880,400,39,20,-380
5930,56,-1856,384,19,38,-371
5935,32,-1824,424,1,55,-364
5940,16,-1808,392,-12,69,-351
5945,32,-1792,400,-21,84,-343
5950,0,-1792,440,-28,99,-330
5955,-24,-1768,408,-30,113,-318
5960,0,-1752,408,-35,131,-304
5965,-32,-1768,440,-37,146,-293
5970,-72,-1736,376,-39,163,-281
5975,-64,-1752,400,-40,178,-270
5980,-96,-1760,440,-43,192,-257
5985,-96,-1736,440,-45,207,-246
5990,-96,-1720,424,-47,220,-234
5995,-112,-1760,440,-48,232,-228
6000,-152,-1736,416,-47,242,-217
6005,-120,-1744,432,-48,248,-209
6010,-160,-1776,432,-51,250,-198
6015,-144,-1816,376,-54,246,-192
6020,-128,-1784,472,-59,235,-185
6025,-128,-1776,456,-65,222,-179
6030,-104,-1792,488,-72,201,-171
6035,-96,-1800,480,-77,178,-166
6040,-96,-1792,552,-82,151,-161
6045,-64,-1824,528,-85,118,-156
6050,-40,-1808,568,-85,82,-149
6055,-16,-1784,568,-79,42,-143
6060,8,-1808,552,-69,-10,-134
6065,8,-1816,584,-52,-55,-126
6070,16,-1832,616,-33,-101,-113
6075,0,-1808,584,-15,-150,-101
6080,-32,-1816,584,1,-199,-85
6085,-32,-1816,600,12,-248,-70
6090,-56,-1808,576,15,-294,-50
6095,-88,-1800,584,13,-339,-29
6100,-88,-1792,584,6,-381,-6
6105,-112,-1792,608,-9,-419,16
6110,-152,-1736,576,-27,-459,43
6115,-144,-1744,600,-53,-500,63
6120,-168,-1720,568,-74,-530,81
6125,-168,-1680,568,-94,-557,98
6130,-208,-1712,576,-116,-579,113
6135,-192,-1672,568,-132,-600,124
6140,-208,-1696,608,-143,-622,136
6145,-192,-1688,648,-148,-638,148
6150,-184,-1664,664,-150,-652,160
6155,-144,-1696,688,-145,-658,168
6160,-96,-1712,768,-134,-658,174
6165,-64,-1736,816,-118,-653,179
6170,-40,-1744,872,-94,-642,179
6175,8,-1744,872,-71,-630,177
6180,56,-1752,952,-49,-613,172
6185,96,-1760,960,-30,-596,164
6190,168,-1800,928,-15,-576,148
6195,304,-1832,928,-6,-553,127
6200,368,-1880,864,4,-525,102
6205,472,-1960,824,15,-491,69
6210,560,-2056,760,24,-444,28
6215,672,-2128,688,34,-374,-30
6220,760,-2240,600,41,-295,-89
6225,864,-2424,528,41,-202,-161
6230,976,-2592,424,41,-95,-242
6235,1040,-2744,392,44,24,-329
6240,1160,-2960,312,54,141,-422
6245,1208,-3120,248,70,255,-520
6250,1216,-3272,200,94,358,-617
6255,1232,-3464,104,124,444,-705
6260,1200,-3616,16,144,517,-786
6265,1120,-3688,-128,143,575,-861
6270,1008,-3720,-192,108,636,-904
6275,896,-3672,-312,50,674,-921
6280,744,-3608,-392,-14,714,-911
6285,536,-3496,-424,-82,756,-880
6290,416,-3408,-472,-145,800,-840
6295,240,-3232,-496,-194,843,-794
6300,64,-3080,-480,-218,880,-739
6305,-88,-2920,-536,-219,901,-676
6310,-168,-2752,-488,-202,912,-599
6315,-288,-2560,-528,-174,913,-501
6320,-384,-2384,-552,-132,894,-418
6325,-448,-2200,-568,-101,858,-338
6330,-528,-2072,-560,-81,807,-267
6335,-544,-1872,-608,-72,746,-205
6340,-552,-1696,-624,-75,677,-158
6345,-536,-1568,-640,-85,609,-122
6350,-488,-1400,-608,-93,543,-99
6355,-384,-1296,-592,-101,484,-83
6360,-312,-1232,-576,-98,436,-73
6365,-208,-1232,-528,-89,400,-66
6370,-96,-1216,-488,-82,371,-68
6375,-24,-1232,-440,-83,356,-68
6380,88,-1288,-352,-86,352,-74
6385,208,-1368,-344,-91,362,-79
6390,304,-1464,-256,-100,383,-88
6395,384,-1528,-232,-107,418,-94
6400,456,-1600,-184,-116,461,-100
6405,520,-1696,-160,-123,510,-102
6410,592,-1768,-120,-128,565,-105
6415,688,-1864,-96,-135,627,-107
6420,744,-1952,-88,-137,710,-107
6425,800,-2000,-88,-134,784,-103
6430,856,-2088,-120,-132,858,-100
6435,880,-2144,-88,-130,935,-91
6440,888,-2200,-80,-126,1015,-84
6445,896,-2216,-104,-120,1093,-70
6450,816,-2280,-144,-115,1175,-58
6455,792,-2296,-152,-110,1252,-40
6460,720,-2296,-184,-113,1322,-20
6465,624,-2296,-184,-120,1386,4
6470,560,-2264,-192,-132,1456,29
6475,464,-2224,-216,-152,1510,54
6480,392,-2184,-208,-171,1562,72
6485,312,-2120,-208,-186,1612,91
6490,232,-2080,-168,-194,1659,104
6495,176,-2032,-184,-195,1703,117
6500,120,-2016,-168,-181,1744,123
6505,40,-1960,-112,-157,1779,128
6510,-16,-1928,-64,-129,1807,126
6515,-72,-1912,-64,-91,1825,124
6520,-112,-1920,-24,-43,1834,119
6525,-144,-1872,40,19,1831,119
6530,-224,-1880,80,73,1814,116
6535,-264,-1880,104,131,1785,118
6540,-296,-1872,200,193,1752,118
6545,-328,-1872,264,258,1717,121
6550,-360,-1880,272,321,1678,117
6555,-384,-1936,336,381,1637,117
6560,-344,-1936,352,434,1594,109
6565,-320,-1976,352,479,1552,103
6570,-320,-2008,344,509,1515,92
6575,-312,-2064,320,532,1475,89
6580,-272,-2096,312,542,1453,81
6585,-264,-2136,296,539,1441,79
6590,-216,-2192,304,527,1439,75
6595,-216,-2192,264,509,1445,78
6600,-184,-2216,296,488,1462,78
6605,-176,-2256,256,466,1482,86
6610,-168,-2248,312,443,1505,91
6615,-128,-2256,280,426,1530,100
6620,-128,-2200,328,411,1554,104
6625,-120,-2176,312,399,1580,112
6630,-96,-2128,344,394,1599,111
6635,-112,-2072,328,394,1611,108
6640,-96,-2040,368,398,1619,98
6645,-88,-2032,392,405,1622,87
6650,-88,-1968,392,416,1624,72
6655,-88,-1936,368,430,1619,57
6660,-104,-1856,400,445,1611,33
6665,-88,-1864,360,459,1601,8
6670,-96,-1800,392,471,1588,-25
6675,-80,-1752,328,476,1572,-66
6680,-56,-1712,384,478,1559,-110
6685,-56,-1672,368,471,1545,-152
6690,-48,-1616,384,455,1532,-201
6695,-24,-1568,392,430,1518,-250
6700,-16,-1528,424,402,1509,-303
6705,-16,-1456,424,366,1495,-354
6710,-24,-1400,424,323,1485,-401
6715,-32,-1400,456,281,1475,-436
6720,-48,-1384,456,246,1470,-466
6725,-88,-1368,416,218,1465,-486
6730,-96,-1376,440,190,1463,-497
6735,-160,-1368,472,175,1464,-492
6740,-184,-1408,488,170,1468,-486
6745,-232,-1440,448,172,1471,-471
6750,-248,-1480,448,176,1476,-458
6755,-280,-1536,456,187,1480,-439
6760,-304,-1576,480,195,1485,-426
6765,-328,-1640,464,202,1487,-408
6770,-352,-1688,488,205,1485,-394
6775,-384,-1744,432,205,1480,-371
6780,-344,-1776,448,200,1465,-354
6785,-392,-1808,496,195,1451,-333
6790,-360,-1832,472,190,1433,-319
6795,-352,-1896,464,185,1413,-302
6800,-360,-1920,456,178,1391,-293
6805,-360,-1952,408,168,1364,-283
6810,-320,-1976,424,156,1343,-281
6815,-280,-2024,376,146,1324,-278
6820,-304,-2032,392,136,1307,-281
6825,-280,-2072,424,125,1294,-283
6830,-288,-2064,392,110,1277,-287
6835,-280,-2072,392,94,1266,-284
6840,-280,-2056,360,75,1254,-280
6845,-280,-2064,312,57,1241,-268
6850,-312,-2056,248,36,1224,-255
6855,-312,-2080,232,12,1210,-228
6860,-352,-2064,208,-10,1194,-200
6865,-376,-2080,192,-33,1181,-162
6870,-408,-2080,184,-53,1170,-123
6875,-424,-2072,160,-69,1164,-77
6880,-400,-2080,168,-85,1161,-30
6885,-392,-2056,120,-97,1159,6
6890,-368,-2008,120,-106,1157,30
6895,-328,-2016,128,-112,1152,49
6900,-280,-1976,152,-117,1150,54
6905,-216,-1936,152,-120,1150,55
6910,-112,-1896,168,-122,1155,45
6915,-40,-1880,160,-122,1164,32
6920,56,-1808,184,-124,1179,10
6925,136,-1768,184,-128,1205,-12
6930,272,-1752,144,-137,1242,-47
6935,352,-1656,120,-154,1273,-75
6940,432,-1576,136,-175,1309,-107
6945,440,-1592,208,-201,1343,-138
6950,592,-1536,8,-227,1380,-170
6955,696,-1600,56,-254,1415,-197
6960,664,-1488,-48,-280,1450,-226
6965,768,-1472,72,-300,1481,-244
6970,680,-1344,-120,-311,1509,-262
6975,592,-1456,24,-316,1536,-267
6980,496,-1392,-176,-313,1563,-267
6985,544,-1328,-112,-299,1582,-260
6990,376,-1448,8,-286,1597,-248
6995,336,-1336,-8,-271,1606,-233
7000,224,-1384,72,-255,1610,-219
7005,80,-1328,184,-235,1607,-202
7010,-88,-1344,264,-211,1594,-186
7015,-216,-1376,312,-180,1573,-163
7020,-280,-1400,416,-144,1544,-143
7025,-408,-1488,408,-108,1514,-122
7030,-608,-1552,440,-69,1475,-99
7035,-632,-1608,376,-16,1442,-81
7040,-760,-1664,440,30,1410,-64
7045,-808,-1768,464,77,1379,-44
7050,-856,-1824,488,127,1345,-26
7055,-896,-1904,568,174,1308,-5
7060,-944,-1968,520,215,1266,8
7065,-968,-1984,488,254,1213,16
7070,-904,-2088,504,278,1159,13
7075,-992,-2056,488,288,1101,8
7080,-744,-2144,528,279,1038,-11
7085,-704,-2104,648,249,959,-27
7090,-624,-2072,640,217,894,-47
7095,-616,-2016,600,174,839,-66
7100,-496,-2016,632,129,796,-86
7105,-376,-1912,592,83,769,-103
7110,-448,-1888,496,40,763,-123
7115,-304,-1944,432,0,768,-140
7120,-272,-1760,480,-38,783,-157
7125,-224,-1696,568,-72,804,-168
7130,-160,-1544,440,-103,832,-179
7135,-144,-1576,400,-131,870,-185
7140,-80,-1496,296,-147,904,-194
7145,-80,-1432,416,-157,936,-206
7150,8,-1368,504,-161,962,-224
7155,-40,-1344,464,-153,985,-241
7160,-16,-1312,488,-139,1003,-263
7165,-24,-1312,520,-118,1015,-285
7170,-56,-1344,512,-90,1020,-311
7175,-88,-1376,528,-59,1019,-337
7180,-168,-1376,472,-29,1019,-372
7185,-208,-1448,488,-6,1016,-401
7190,-280,-1496,432,4,1018,-429
7195,-392,-1544,352,6,1022,-458
7200,-440,-1504,288,2,1030,-485
7205,-456,-1520,184,-7,1043,-507
7210,-552,-1568,304,-20,1069,-522
7215,-568,-1584,144,-30,1096,-527
7220,-656,-1560,72,-38,1130,-523
7225,-688,-1552,72,-43,1162,-508
7230,-712,-1584,-56,-49,1192,-486
7235,-760,-1568,-80,-52,1226,-447
7240,-784,-1560,-112,-47,1249,-406
7245,-744,-1608,-120,-36,1268,-368
7250,-752,-1632,-40,-19,1280,-332
7255,-736,-1704,56,7,1288,-305
7260,-768,-1760,160,35,1290,-289
7265,-752,-1856,216,61,1275,-289
7270,-816,-1856,288,87,1244,-298
7275,-824,-1832,288,118,1192,-319
7280,-872,-1784,280,130,1132,-346
7285,-848,-1736,288,122,1062,-396
7290,-888,-1648,272,93,1012,-444
7295,-904,-1592,240,54,965,-498
7300,-872,-1520,208,19,924,-561
7305,-840,-1400,200,10,899,-634
7310,-840,-1280,144,12,883,-701
7315,-728,-1208,96,-11,859,-749
7320,-608,-1168,128,-32,859,-781
7325,-472,-1056,8,-50,883,-806
7330,-376,-1120,168,-63,931,-832
7335,-312,-1056,200,-73,992,-874
7340,-232,-1032,232,-90,1053,-907
7345,-184,-896,216,-107,1082,-941
7350,-184,-880,200,-138,1083,-970
7355,-112,-704,144,-150,1079,-995
7360,-88,-640,168,-198,1054,-1036
7365,-40,-616,152,-246,1019,-1075
7370,-40,-632,136,-287,993,-1117
7375,24,-640,104,-320,977,-1156
7380,88,-672,64,-335,966,-1191
7385,96,-688,-80,-341,964,-1231
7390,104,-704,-120,-349,977,-1259
7395,56,-672,-184,-363,998,-1286
7400,32,-680,-216,-380,1020,-1299
7405,-32,-664,-272,-394,1048,-1307
7410,-80,-616,-312,-402,1078,-1301
7415,-72,-600,-296,-399,1119,-1294
7420,-136,-584,-352,-387,1173,-1287
7425,-112,-552,-248,-366,1229,-1287
7430,-144,-536,-232,-339,1281,-1286
7435,-192,-520,-216,-316,1322,-1291
7440,-192,-544,-216,-306,1365,-1303
7445,-160,-552,-192,-319,1391,-1321
7450,-216,-576,-200,-346,1409,-1348
7455,-200,-696,-248,-376,1405,-1384
7460,-104,-656,-304,-352,1395,-1425
7465,-112,-648,-320,-363,1390,-1444
7470,-136,-680,-320,-401,1400,-1501
7475,-48,-752,-344,-425,1403,-1521
7480,48,-864,-416,-428,1397,-1538
7485,112,-888,-448,-425,1412,-1560
7490,120,-992,-480,-430,1446,-1610
7495,192,-1016,-416,-465,1466,-1690
7500,256,-960,-488,-512,1499,-1779
7505,368,-936,-488,-574,1563,-1865
7510,464,-920,-416,-640,1661,-1948
7515,648,-920,-496,-713,1771,-2035
7520,792,-920,-408,-790,1901,-2116
7525,928,-984,-392,-856,2056,-2203
7530,1224,-1072,-328,-904,2252,-2292
7535,1520,-1272,-240,-927,2488,-2388
7540,1776,-1584,-152,-910,2757,-2480
7545,2040,-1928,-32,-860,3039,-2567
7550,2344,-2288,88,-795,3235,-2669
7555,2576,-2704,200,-690,3382,-2822
7560,2784,-3088,264,-528,3491,-3036
7565,3056,-3664,376,-300,3556,-3313
7570,3416,-4344,552,-17,3561,-3667
7575,3912,-5280,928,308,3488,-4123
7580,4408,-6192,1448,662,3254,-4688
7585,4832,-7216,2000,963,2798,-5389
7590,6152,-8472,2016,1185,2118,-6405
7595,7144,-9512,1656,1122,1202,-7390
7600,7728,-10088,912,587,534,-8159
7605,8544,-10960,456,-381,249,-8422
7610,8104,-11536,152,-1465,407,-7925
7615,6352,-11336,200,-2438,767,-6709
7620,5216,-10792,472,-2975,1029,-5008
7625,3672,-9904,448,-2821,1256,-3609
7630,1728,-8128,152,-1985,1641,-2959
7635,200,-6384,40,-894,2188,-2922
7640,-1304,-4144,472,755,2797,-3392
7645,-312,11512,-2432,3869,2598,-4479
7650,-4008,1176,40,6531,918,-7018
7655,848,-1408,280,6999,266,-5240
7660,944,-1752,2272,4976,147,-4277
7665,768,-136,2624,3291,1,-3804
7670,368,800,3104,1762,-106,-3363
7675,-344,416,3880,204,-211,-2870
7680,-536,456,3936,-1139,-365,-2300
7685,-720,728,3472,-2322,-460,-1770
7690,-1016,1392,2176,-3464,-426,-1452
7695,-936,168,2816,-4450,-193,-1262
7700,-320,616,2232,-4912,-53,-1239
7705,624,1648,1384,-4839,38,-1431
7710,1904,1680,656,-4252,59,-1686
7715,2344,1304,280,-3250,64,-2063
7720,2640,656,-96,-2058,92,-2467
7725,2560,80,-216,-923,145,-2792
7730,2472,-432,24,15,160,-2960
7735,2304,-680,296,737,92,-3029
7740,1880,-840,488,1244,-73,-3022
7745,1632,-840,856,1532,-364,-2999
7750,1872,-904,736,1724,-738,-2995
7755,1824,-912,824,1730,-891,-3082
7760,1712,-1000,960,1673,-924,-3184
7765,1424,-1152,1032,1605,-901,-3223
7770,1192,-1312,888,1507,-888,-3167
7775,1152,-1448,736,1365,-878,-3055
7780,952,-1608,632,1171,-842,-2881
7785,912,-1752,528,961,-813,-2717
7790,1048,-1960,424,746,-757,-2594
7795,832,-2152,352,572,-630,-2524
7800,528,-2336,96,527,-482,-2439
7805,528,-2336,-272,561,-413,-2377
7810,576,-2056,-496,521,-287,-2380
7815,320,-1896,-528,331,-43,-2414
7820,-160,-1568,-536,148,157,-2422
7825,-192,-1200,-664,16,220,-2381
7830,-136,-864,-736,-115,191,-2348
7835,264,-664,-632,-255,167,-2389
7840,696,-472,-368,-231,299,-2585
7845,632,-32,-272,3,477,-2855
7850,352,768,-136,328,567,-3088
7855,680,904,-104,677,529,-3251
7860,552,1216,-128,960,540,-3405
7865,552,1840,-120,1161,530,-3491
7870,568,2208,-80,1258,344,-3491
7875,920,2184,80,1269,35,-3409
7880,1544,2992,-40,1237,-206,-3306
7885,2432,3072,376,1046,-143,-3150
7890,2864,3240,976,879,10,-2952
7895,3904,3352,1728,731,158,-2672
7900,4080,3976,1976,788,249,-2423
7905,4824,3920,2112,1117,169,-2138
7910,5384,4080,1976,1552,-24,-1897
7915,5832,4168,1792,1942,-219,-1523
7920,6608,4088,1400,2167,-450,-982
7925,7008,3960,816,2234,-658,-385
7930,7016,3640,392,2240,-854,277
7935,6720,2752,-528,2169,-1088,830
7940,6208,1944,-1256,2108,-1222,1195
7945,5296,1312,-1736,2051,-1263,1323
7950,4400,976,-1960,1991,-1166,1270
7955,3472,672,-1976,1792,-1049,1216
7960,2872,344,-1736,1577,-916,1138
7965,1912,552,-1440,1396,-768,1043
7970,1536,512,-1112,1111,-657,1081
7975,1424,304,-632,844,-465,1129
7980,1384,232,-280,684,-154,1081
7985,816,448,-128,630,248,956
7990,920,280,-32,470,531,930
7995,448,296,120,289,728,897
8000,320,136,184,60,832,924
8005,104,40,344,-122,954,903
8010,8,-24,480,-151,1066,883
8015,32,104,496,-68,1170,872
8020,144,296,448,19,1258,884
8025,320,448,384,94,1356,883
8030,552,712,272,171,1454,882
8035,880,912,312,248,1527,870
8040,1112,1088,208,334,1589,855
8045,1296,1240,208,407,1627,841
8050,1440,1312,216,460,1631,813
8055,1704,1384,264,497,1599,775
8060,1960,1432,296,526,1555,729
8065,2080,1424,344,537,1503,656
8070,2160,1488,352,540,1430,572
8075,2232,1480,328,522,1326,490
8080,2320,1504,248,473,1216,432
8085,2352,1576,184,396,1118,383
8090,2312,1600,208,307,1032,339
8095,2256,1592,264,220,956,305
8100,2168,1552,272,162,885,287
8105,2120,1504,312,139,804,257
8110,2024,1408,376,147,745,238
8115,1928,1312,392,165,701,214
8120,1824,1280,416,170,674,178
8125,1800,1144,520,161,665,152
8130,1856,984,512,146,707,174
8135,1800,824,544,103,793,221
8140,1800,680,568,35,904,265
8145,1784,584,640,-39,1023,296
8150,1736,480,664,-104,1132,334
8155,1864,288,736,-149,1232,402
8160,1840,72,848,-121,1329,415
8165,1872,-32,936,-35,1340,405
8170,2000,-88,864,91,1311,393
8175,1952,80,888,225,1277,365
8180,2040,80,784,326,1233,365
8185,2024,-8,672,429,1173,355
8190,2216,136,648,540,1109,323
8195,2304,32,576,654,1061,289
8200,2424,96,528,739,1017,256
8205,2512,144,488,802,985,203
8210,2568,240,424,835,963,165
8215,2600,264,416,826,958,138
8220,2568,352,392,786,962,119
8225,2432,392,424,717,960,107
8230,2320,408,496,630,944,116
8235,2192,440,592,544,928,127
8240,2104,424,664,440,912,128
8245,1992,448,776,333,904,116
8250,1848,408,952,234,906,103
8255,1768,408,1048,158,917,95
8260,1672,328,1144,108,926,89
8265,1600,312,1256,90,913,87
8270,1624,248,1376,108,882,126
8275,1664,144,1352,169,858,168
8280,1568,144,1320,250,826,176
8285,1496,112,1288,322,779,195
8290,1512,104,1216,389,727,227
8295,1456,112,1160,470,673,263
8300,1416,192,1144,552,624,292
8305,1448,240,944,621,575,338
8310,1568,240,824,685,532,417
8315,1688,256,696,754,523,463
8320,1760,368,512,779,536,483
8325,1856,368,456,746,558,496
8330,1888,384,336,675,586,497
8335,1920,376,360,582,625,498
8340,1944,304,384,482,669,494
8345,1984,208,400,397,712,478
8350,2000,160,376,331,751,454
8355,2040,104,432,266,782,418
8360,2024,72,440,204,813,358
8365,2016,40,520,147,857,305
8370,2056,24,528,109,894,253
8375,2040,8,616,82,934,208
8380,2064,-16,704,69,977,159
8385,2040,-80,720,72,1011,116
8390,1984,-104,736,85,1040,81
8395,1992,-176,792,102,1059,52
8400,1952,-216,808,121,1075,21
8405,1888,-232,824,132,1084,2
8410,1888,-280,880,136,1093,-15
8415,1784,-288,912,151,1101,-25
8420,1776,-296,960,164,1106,-31
8425,1728,-296,1016,164,1103,-23
8430,1632,-280,1056,157,1097,-23
8435,1616,-304,1056,151,1092,-21
8440,1560,-248,1104,143,1083,-18
8445,1528,-264,1136,127,1062,-14
8450,1528,-240,1192,112,1031,-7
8455,1504,-216,1256,97,992,-3
8460,1504,-192,1304,83,948,-2
8465,1488,-128,1328,68,892,-5
8470,1504,-144,1336,56,847,-19
8475,1480,-88,1368,47,811,-35
8480,1448,-64,1352,32,773,-55
8485,1416,-24,1368,16,738,-73
8490,1432,-24,1376,3,708,-94
8495,1416,-8,1392,-8,679,-112
8500,1448,-8,1352,-14,656,-131
8505,1408,16,1304,-21,632,-148
8510,1384,0,1280,-25,600,-164
8515,1384,48,1264,-24,565,-181
8520,1416,56,1248,-19,537,-194
8525,1392,96,1232,-12,510,-198
8530,1424,88,1216,-6,489,-205
8535,1440,96,1192,0,470,-203
8540,1456,120,1216,4,453,-199
8545,1480,104,1176,11,433,-186
8550,1488,120,1136,18,416,-176
8555,1536,96,1128,17,405,-163
8560,1520,112,1152,15,400,-151
8565,1544,96,1160,9,391,-137
8570,1528,144,1168,-4,382,-129
8575,1552,128,1184,-21,373,-117
8580,1512,136,1208,-37,365,-113
8585,1528,128,1232,-55,359,-106
8590,1528,112,1264,-72,355,-103
8595,1512,120,1280,-82,351,-99
8600,1488,128,1304,-95,344,-99
8605,1504,120,1320,-107,337,-98
8610,1480,144,1368,-111,331,-103
8615,1456,160,1312,-115,319,-107
8620,1456,184,1328,-117,306,-114
8625,1440,184,1376,-114,294,-118
8630,1448,200,1352,-107,282,-125
8635,1424,240,1328,-97,271,-129
8640,1432,232,1320,-85,258,-136
8645,1424,264,1320,-73,245,-139
8650,1392,272,1296,-61,228,-145
8655,1392,272,1288,-48,213,-145
8660,1384,288,1312,-36,200,-147
8665,1376,312,1320,-27,189,-143
8670,1384,328,1320,-19,180,-142
8675,1400,320,1328,-9,177,-136
8680,1360,312,1336,-1,176,-133
8685,1360,312,1328,9,176,-127
8690,1376,304,1336,18,172,-122
8695,1352,312,1384,24,168,-108
8700,1360,312,1328,32,165,-102
8705,1368,280,1352,41,161,-91
8710,1368,288,1392,50,157,-80
8715,1368,264,1336,60,154,-67
8720,1360,280,1336,65,149,-57
8725,1344,280,1352,71,144,-40
8730,1360,240,1376,76,138,-29
8735,1312,240,1440,78,130,-16
8740,1360,256,1440,81,123,-17
8745,1384,296,1408,87,113,-1
8750,1384,280,1448,88,96,10
8755,1360,304,1408,90,77,19
8760,1360,280,1416,92,58,30
8765,1376,280,1432,95,39,46
8770,1360,288,1376,97,21,57
8775,1384,296,1408,99,9,71
8780,1384,336,1392,97,-1,79
8785,1392,328,1360,94,-13,89
8790,1392,336,1376,89,-20,93
8795,1416,344,1320,84,-29,99
8800,1432,296,1336,80,-37,102
8805,1432,328,1328,75,-43,108
8810,1448,328,1320,72,-48,108
8815,1440,296,1312,71,-52,114
8820,1464,312,1328,70,-56,115
8825,1480,296,1296,70,-59,118
8830,1496,296,1280,71,-60,116
8835,1504,296,1296,71,-62,119
8840,1512,248,1280,72,-63,118
8845,1512,256,1288,69,-68,119
8850,1528,240,1272,72,-74,115
8855,1544,240,1256,72,-79,115
8860,1568,216,1256,74,-86,108
8865,1584,208,1256,75,-92,106
8870,1560,192,1240,74,-99,99
8875,1608,192,1224,70,-105,96
8880,1600,216,1224,69,-111,90
8885,1592,184,1216,64,-119,88
8890,1640,200,1248,61,-126,81
8895,1648,216,1216,57,-133,80
8900,1664,176,1208,54,-141,74
8905,1640,168,1200,51,-145,72
8910,1664,176,1200,48,-151,66
8915,1648,192,1136,48,-155,65
8920,1656,152,1176,45,-160,60
8925,1656,152,1168,46,-167,57
8930,1648,152,1144,45,-170,49
8935,1648,120,1152,46,-173,48
8940,1656,128,1112,45,-177,41
8945,1656,144,1128,47,-179,40
8950,1664,136,1136,45,-180,35
8955,1664,144,1112,45,-178,34
8960,1680,136,1104,43,-175,28
8965,1648,144,1120,37,-170,25
8970,1640,136,1096,32,-163,19
8975,1656,104,1088,25,-157,18
8980,1640,120,1112,19,-152,11
8985,1648,152,1128,16,-147,12
8990,1624,144,1136,10,-141,6
8995,1672,128,1136,6,-137,6
9000,1640,120,1168,0,-130,2
9005,1648,136,1152,-4,-124,4
9010,1664,136,1184,-4,-117,2
9015,1680,136,1152,-6,-112,5
9020,1696,128,1152,-6,-107,0
9025,1672,152,1112,-5,-102,0
9030,1688,152,1128,-6,-97,-5
9035,1688,160,1128,-9,-92,-6
9040,1696,144,1112,-11,-90,-11
9045,1704,152,1120,-14,-85,-13
9050,1696,160,1088,-17,-83,-20
9055,1736,184,1096,-21,-78,-22
9060,1712,168,1080,-24,-72,-28
9065,1712,208,1072,-28,-65,-29
9070,1704,216,1088,-33,-55,-34
9075,1704,216,1088,-39,-43,-37
9080,1696,192,1096,-45,-32,-41
9085,1704,216,1072,-48,-20,-43
9090,1704,224,1064,-49,-13,-45
9095,1680,200,1080,-51,-4,-44
9100,1704,216,1096,-53,6,-48
9105,1656,200,1096,-52,12,-47
9110,1688,208,1128,-52,19,-48
9115,1704,216,1096,-53,24,-46
9120,1664,240,1104,-53,31,-48
9125,1672,232,1128,-53,39,-44
9130,1688,240,1096,-53,43,-43
9135,1680,240,1112,-52,50,-42
9140,1664,248,1096,-53,55,-42
9145,1672,248,1088,-53,61,-39
9150,1656,232,1128,-52,67,-38
9155,1680,264,1096,-50,71,-34
9160,1664,224,1120,-48,75,-34
9165,1680,224,1096,-44,80,-27
9170,1664,248,1104,-40,84,-29
9175,1648,256,1128,-36,90,-24
9180,1648,272,1104,-34,98,-22
9185,1640,248,1152,-33,104,-20
9190,1632,232,1128,-34,111,-18
9195,1624,272,1112,-38,120,-15
9200,1632,240,1160,-45,129,-14
9205,1616,224,1136,-51,138,-11
9210,1616,232,1144,-55,145,-11
9215,1632,232,1136,-58,150,-6
9220,1632,224,1120,-60,154,-7
9225,1632,232,1136,-57,155,-7
9230,1648,208,1168,-54,158,-8
9235,1688,240,1128,-51,162,-8
9240,1696,208,1160,-47,162,-8
9245,1712,208,1176,-41,161,-7
9250,1712,216,1168,-38,162,-8
9255,1760,200,1112,-35,162,-8
9260,1736,216,1160,-33,163,-11
9265,1744,184,1192,-33,159,-11
9270,1720,184,1176,-33,154,-13
9275,1712,160,1168,-34,149,-15
9280,1696,160,1136,-33,145,-16
9285,1680,176,1152,-33,144,-17
9290,1672,160,1184,-33,142,-18
9295,1656,184,1152,-33,144,-19
9300,1624,200,1160,-36,146,-19
9305,1632,184,1160,-36,150,-18
9310,1584,200,1144,-36,153,-18
9315,1600,224,1168,-36,157,-17
9320,1592,200,1152,-32,160,-16
9325,1592,224,1176,-27,161,-12
9330,1568,184,1176,-25,164,-8
9335,1600,200,1176,-20,168,-7
9340,1584,200,1152,-13,169,-4
9345,1592,208,1152,-8,170,-5
9350,1576,208,1168,-5,171,-1
9355,1528,216,1208,0,169,0
9360,1552,200,1192,3,168,0
9365,1560,192,1208,7,168,1
9370,1568,216,1240,9,165,1
9375,1552,216,1208,12,164,2
9380,1552,216,1248,11,159,4
9385,1552,232,1224,11,154,7
9390,1536,208,1240,12,148,9
9395,1536,216,1240,11,144,9
9400,1552,216,1240,9,138,13
9405,1576,192,1232,7,132,13
9410,1536,240,1192,3,125,15
9415,1560,192,1264,2,118,16
9420,1560,232,1208,1,110,17
9425,1576,224,1232,-1,104,17
9430,1560,200,1208,-4,97,18
9435,1568,216,1248,-8,90,19
9440,1584,216,1192,-11,85,20
9445,1576,216,1232,-12,80,18
9450,1568,200,1224,-18,75,17
9455,1568,224,1224,-23,70,14
9460,1560,192,1232,-30,69,13
9465,1560,192,1232,-34,66,11
9470,1560,192,1192,-40,64,11
9475,1568,208,1200,-47,60,7
9480,1568,192,1184,-50,57,3
9485,1568,184,1200,-52,55,0
9490,1584,168,1200,-50,53,-2
9495,1552,192,1216,-50,50,-6
9500,1536,184,1184,-48,48,-7
9505,1552,192,1200,-45,46,-12
9510,1552,200,1200,-40,47,-11
9515,1552,168,1192,-39,48,-14
9520,1544,192,1192,-36,48,-14
9525,1568,192,1224,-31,50,-16
9530,1552,216,1176,-27,52,-15
9535,1552,216,1192,-21,53,-16
9540,1552,192,1208,-16,51,-12
9545,1544,192,1224,-13,52,-15
9550,1568,184,1208,-9,50,-11
9555,1576,184,1208,-10,48,-13
9560,1584,176,1224,-7,46,-13
9565,1600,176,1184,-7,46,-14
9570,1584,192,1184,-5,43,-11
9575,1584,184,1184,-5,41,-11
9580,1592,200,1208,-5,39,-10
9585,1608,208,1176,-7,37,-11
9590,1592,200,1184,-8,35,-8
9595,1608,216,1192,-8,36,-10
9600,1592,208,1208,-10,35,-7
9605,1592,216,1192,-11,33,-7
9610,1600,208,1184,-14,34,-4
9615,1584,224,1176,-16,36,-4
9620,1608,232,1200,-16,37,-1
9625,1600,200,1168,-19,38,0
9630,1592,208,1168,-20,39,1
9635,1600,216,1184,-20,39,1
9640,1568,232,1168,-21,40,4
9645,1600,200,1184,-20,40,3
9650,1576,208,1200,-18,38,7
9655,1592,216,1176,-17,37,4
9660,1584,224,1168,-16,35,9
9665,1608,216,1208,-16,33,5
9670,1576,224,1200,-17,31,8
9675,1608,208,1176,-20,29,7
9680,1592,224,1192,-21,29,10
9685,1576,216,1208,-22,28,7
9690,1592,200,1216,-24,25,9
9695,1624,192,1200,-22,23,8
9700,1616,208,1176,-20,21,9
9705,1616,216,1168,-19,16,7
9710,1664,200,1176,-21,15,9
9715,1664,200,1168,-20,15,8
9720,1656,168,1152,-19,14,9
9725,1640,160,1160,-18,15,7
9730,1672,176,1144,-19,17,7
9735,1656,184,1152,-21,21,4
9740,1640,200,1128,-22,24,4
9745,1664,216,1144,-26,31,-1
9750,1656,208,1144,-30,40,-3
9755,1664,232,1152,-32,49,-8
9760,1648,192,1152,-31,54,-7
9765,1664,208,1128,-29,58,-10
9770,1640,216,1176,-27,62,-8
9775,1632,184,1120,-22,65,-12
9780,1664,200,1168,-19,68,-11
9785,1648,168,1136,-14,71,-14
9790,1616,208,1136,-9,76,-10
9795,1624,200,1152,-2,82,-11
9800,1624,208,1160,1,85,-7
9805,1624,216,1152,3,89,-9
9810,1632,184,1136,3,92,-5
9815,1616,192,1152,3,95,-8
9820,1616,176,1160,1,95,-4
9825,1616,176,1160,0,95,-8
9830,1600,176,1136,1,96,-6
9835,1584,184,1136,0,98,-11
9840,1600,184,1160,-2,100,-10
9845,1584,208,1176,-2,103,-15
9850,1584,192,1176,-4,105,-14
9855,1592,208,1200,-5,104,-20
9860,1600,216,1192,-5,106,-17
9865,1600,192,1200,-4,104,-19
9870,1592,224,1192,-4,104,-17
9875,1592,192,1208,-2,104,-19
9880,1600,216,1192,2,105,-14
9885,1608,208,1184,4,105,-15
9890,1584,240,1224,8,106,-11
9895,1592,208,1192,8,107,-10
9900,1600,224,1208,9,109,-6
9905,1576,200,1200,9,109,-6
9910,1600,216,1216,8,110,-4
9915,1600,192,1232,7,108,-6
9920,1592,200,1224,6,107,-5
9925,1616,192,1224,3,104,-8
9930,1584,208,1184,-1,104,-8
9935,1584,184,1208,-4,101,-9
9940,1592,208,1176,-6,98,-9
9945,1592,208,1192,-8,95,-12
9950,1600,200,1184,-9,92,-11
9955,1584,192,1184,-13,87,-13
9960,1584,208,1184,-13,87,-10
9965,1616,200,1200,-13,86,-13
9970,1584,192,1184,-14,86,-10
9975,1568,216,1184,-12,87,-11
9980,1568,216,1192,-12,87,-9
9985,1552,224,1200,-9,87,-10
9990,1584,224,1200,-9,91,-8
9995,1552,240,1200,-7,94,-8
10000,1584,224,1184,-6,97,-6
10005,1592,208,1184,-6,97,-7
10010,1568,216,1200,-5,98,-5
10015,1552,216,1208,-5,101,-7
10020,1568,216,1200,-5,103,-6
10025,1584,208,1184,-7,104,-7
10030,1568,192,1200,-8,106,-3
10035,1576,192,1200,-9,105,-5
10040,1584,192,1232,-8,105,-1
10045,1560,192,1176,-6,102,-3
10050,1592,208,1184,-4,99,-2
10055,1576,216,1192,-2,98,-4
10060,1592,248,1192,-2,99,-3
10065,1600,200,1224,-4,99,-4
10070,1568,224,1208,-4,101,-3
10075,1576,208,1216,-4,101,-4
10080,1576,216,1208,-2,101,-2
10085,1584,216,1176,-2,99,-5
10090,1576,232,1232,-1,95,-2
10095,1576,224,1192,-1,94,-3
10100,1568,232,1192,-2,90,-3
10105,1584,200,1208,-5,86,-4
10110,1584,192,1216,-6,82,-3
10115,1592,216,1192,-8,79,-3
10120,1576,200,1232,-11,73,-3
10125,1568,200,1256,-15,68,-4
10130,1584,224,1240,-16,64,0
10135,1584,216,1216,-18,60,-1
10140,1536,224,1224,-18,56,0
10145,1560,200,1208,-20,55,-1
10150,1584,208,1224,-22,54,-1
10155,1584,200,1224,-24,56,-2
10160,1576,208,1224,-22,56,-2
10165,1568,208,1224,-23,56,-3
10170,1584,200,1224,-23,57,-4
10175,1600,192,1200,-23,54,-6
10180,1576,200,1216,-21,56,-5
10185,1616,192,1200,-22,55,-7
10190,1600,200,1160,-21,56,-6
10195,1584,216,1184,-21,56,-8
10200,1608,184,1192,-19,57,-8
10205,1584,192,1168,-20,56,-8
10210,1600,192,1208,-19,56,-8
10215,1616,168,1216,-19,58,-8
10220,1592,184,1184,-19,59,-10
10225,1576,160,1216,-17,58,-11
10230,1600,192,1208,-14,57,-11
10235,1592,192,1192,-14,56,-13
10240,1592,184,1200,-13,56,-13
10245,1584,208,1208,-12,55,-14
10250,1576,208,1208,-11,52,-14
10255,1576,192,1200,-9,53,-15
10260,1584,192,1176,-8,54,-14
10265,1568,200,1184,-8,55,-14
10270,1592,200,1192,-5,55,-15
10275,1576,200,1208,-2,56,-14
10280,1584,208,1184,-2,57,-14
10285,1592,208,1208,-3,59,-16
10290,1560,216,1216,-1,61,-14
10295,1592,208,1224,2,63,-15
10300,1592,200,1192,3,65,-15
10305,1552,240,1184,4,69,-12
10310,1600,216,1192,6,71,-14
10315,1584,216,1184,8,73,-13
10320,1576,224,1208,10,73,-13
10325,1576,216,1208,9,76,-12
10330,1568,232,1216,10,78,-12
10335,1576,240,1192,10,79,-10
10340,1592,192,1208,10,78,-10
10345,1576,224,1208,10,78,-9
10350,1584,200,1192,9,75,-8
10355,1576,216,1208,9,74,-7
10360,1576,232,1200,7,71,-9
10365,1600,216,1232,6,71,-9
10370,1584,224,1208,4,69,-10
10375,1592,208,1216,2,67,-8
10380,1584,240,1208,1,63,-8
10385,1576,208,1224,0,63,-8
10390,1608,216,1232,2,62,-7
10395,1568,232,1208,3,58,-6
10400,1600,216,1200,2,55,-6
10405,1608,224,1216,1,55,-4
10410,1560,208,1208,0,53,-3
10415,1576,216,1208,1,52,-1
10420,1576,232,1216,1,50,0
10425,1592,216,1200,2,49,2
10430,1568,224,1216,0,48,0
10435,1584,216,1216,0,49,2
10440,1584,224,1192,-3,48,0
10445,1568,224,1232,-8,49,2
10450,1584,224,1232,-10,49,0
10455,1576,232,1200,-13,49,2
10460,1584,192,1200,-13,49,0
10465,1592,344,1144,-11,46,2
10470,1600,184,1208,-9,44,2
10475,1584,224,1176,-7,43,3
10480,1584,224,1192,-5,43,3
10485,1608,232,1184,-1,44,4
10490,1616,248,1216,3,45,2
10495,1560,264,1184,3,47,4
10500,1608,216,1208,3,50,1
10505,1584,240,1200,1,54,4
10510,1584,208,1208,-4,56,1
10515,1592,216,1208,-6,57,1
10520,1576,224,1192,-6,57,1
10525,1568,208,1168,-3,57,2
10530,1560,208,1200,0,58,-1
10535,1552,208,1208,5,60,-1
10540,1592,208,1160,9,62,-4
10545,1600,232,1176,10,63,-4
10550,1600,232,1144,10,64,-7
10555,1568,224,1184,8,66,-6
10560,1592,224,1176,7,67,-9
10565,1584,240,1192,6,68,-7
10570,1592,224,1176,4,67,-8
10575,1600,224,1192,3,68,-8
10580,1600,208,1200,0,67,-9
10585,1600,208,1192,-3,68,-5
10590,1624,224,1192,-4,69,-6
10595,1600,232,1208,-5,67,-2
10600,1576,216,1208,-7,66,-4
10605,1600,240,1224,-7,66,-1
10610,1592,224,1184,-9,66,-3
10615,1584,232,1200,-10,67,-1
10620,1616,224,1216,-10,70,-3
10625,1600,216,1208,-11,73,-1
10630,1600,216,1200,-12,74,-3
10635,1592,240,1216,-13,75,-1
10640,1576,232,1208,-13,78,-4
10645,1608,216,1232,-15,78,-2
10650,1608,240,1208,-16,79,-4
10655,1568,208,1200,-19,79,0
10660,1576,216,1192,-20,78,-3
10665,1584,224,1184,-22,76,-1
10670,1592,208,1232,-21,78,-2
10675,1608,216,1168,-20,74,-2
10680,1592,224,1168,-20,73,-5
10685,1584,232,1176,-19,74,-3
10690,1592,216,1200,-17,73,-5
10695,1592,208,1184,-16,73,-4
10700,1584,224,1192,-14,74,-7
10705,1576,232,1192,-13,73,-6
10710,1576,224,1192,-11,73,-8
10715,1584,232,1232,-12,77,-6
10720,1584,248,1232,-14,77,-9
10725,1552,224,1224,-15,79,-6
10730,1584,200,1168,-16,82,-7
10735,1560,208,1200,-15,83,-3
10740,1592,216,1192,-12,81,-6
10745,1592,216,1184,-11,81,-3
10750,1592,240,1200,-9,77,-6
10755,1592,216,1216,-9,76,-4
10760,1584,240,1232,-8,77,-7
10765,1576,232,1240,-9,77,-4
10770,1576,216,1192,-10,78,-5
10775,1568,216,1216,-12,78,-3
10780,1576,208,1216,-11,77,-6
10785,1592,200,1208,-13,78,-3
10790,1568,224,1216,-15,78,-4
10795,1584,208,1224,-16,77,-1
10800,1576,200,1208,-19,77,-4
10805,1560,216,1208,-19,78,-1
10810,1560,232,1184,-20,77,-5
10815,1568,240,1184,-20,77,-2
10820,1560,224,1208,-19,77,-4
10825,1552,240,1200,-20,78,-2
10830,1584,216,1200,-21,78,-3
10835,1536,208,1200,-20,77,0
10840,1568,240,1200,-20,78,-3
10845,1576,216,1208,-20,77,-2
10850,1568,224,1216,-18,78,-3
10855,1568,200,1224,-19,79,0
10860,1568,232,1208,-20,80,-3
10865,1552,216,1200,-20,82,-1
10870,1584,208,1208,-20,81,-4
10875,1592,216,1208,-19,79,-2
10880,1568,240,1184,-18,80,-5
10885,1600,232,1192,-18,79,-3
10890,1576,224,1200,-17,78,-7
10895,1576,208,1168,-16,77,-4
10900,1568,232,1176,-16,75,-7
10905,1560,200,1200,-16,75,-6
10910,1576,216,1200,-15,72,-8
10915,1584,200,1200,-14,70,-7
10920,1592,184,1248,-14,67,-10
10925,1560,192,1216,-13,66,-9
10930,1584,200,1232,-12,64,-11
10935,1568,240,1200,-12,65,-9
10940,1576,200,1240,-12,64,-9
10945,1560,216,1216,-11,63,-7
10950,1584,208,1216,-10,62,-10
10955,1576,176,1224,-10,62,-8
10960,1568,216,1192,-9,61,-9
10965,1584,192,1232,-7,60,-6
10970,1592,208,1192,-5,59,-7
10975,1576,224,1216,-3,59,-5
10980,1568,224,1216,-2,59,-5
10985,1576,208,1224,-2,58,-3
10990,1568,208,1216,-1,59,-3
10995,1552,216,1216,-1,57,0
11000,1560,240,1208,-1,57,-2
11005,1560,208,1240,-1,58,-1
11010,1584,216,1208,-1,58,-3
11015,1560,216,1216,-2,58,0
11020,1576,216,1248,-3,57,-2
11025,1552,232,1200,-5,57,1
11030,1576,192,1224,-5,58,0
11035,1584,216,1216,-4,55,0
11040,1568,224,1192,-6,54,-1
11045,1560,208,1240,-5,52,1
11050,1552,224,1208,-7,50,0
11055,1568,248,1200,-7,49,2
11060,1584,232,1208,-11,48,0
11065,1592,208,1232,-11,46,2
11070,1584,232,1216,-12,45,-1
11075,1576,232,1224,-11,45,0
11080,1584,240,1192,-13,44,-2
11085,1576,208,1224,-13,45,-1
11090,1560,232,1200,-14,43,-3
11095,1576,192,1192,-15,45,-1
11100,1600,224,1200,-16,45,-2
11105,1592,216,1240,-17,46,-2
11110,1560,248,1216,-16,48,-3
11115,1608,232,1216,-16,49,-3
11120,1616,232,1208,-15,49,-2
11125,1592,224,1216,-16,49,-1
11130,1600,224,1216,-16,49,-1
11135,1592,224,1192,-16,48,0
11140,1584,232,1176,-17,49,-1
11145,1600,232,1216,-19,50,0
11150,1584,224,1224,-20,48,-1
11155,1584,232,1208,-23,49,1
11160,1584,224,1168,-23,48,-1
11165,1584,240,1200,-24,48,1
11170,1584,208,1208,-27,48,0
11175,1576,224,1200,-28,50,-1
11180,1584,216,1200,-28,50,-1
11185,1576,208,1184,-29,48,-2
11190,1592,232,1200,-29,48,-4
11195,1584,200,1224,-28,49,-4
11200,1584,216,1192,-28,51,-4
11205,1616,216,1176,-27,52,-4
11210,1592,232,1192,-26,52,-5
11215,1600,232,1200,-26,53,-5
11220,1608,208,1208,-26,54,-4
11225,1592,216,1200,-25,54,-4
11230,1592,200,1216,-26,54,-3
11235,1576,224,1192,-26,58,-2
11240,1584,224,1200,-26,58,-2
11245,1592,216,1216,-25,60,-2
11250,1592,208,1208,-24,63,-2
11255,1592,200,1176,-26,65,-1
11260,1584,216,1168,-26,66,-3
11265,1600,192,1192,-27,66,-3
11270,1600,200,1192,-27,68,-3
11275,1592,200,1200,-27,68,-5
11280,1592,216,1232,-26,68,-2
11285,1576,200,1208,-26,66,-4
11290,1600,208,1184,-26,69,-5
11295,1600,208,1192,-26,68,-5
11300,1592,200,1216,-26,67,-6
11305,1584,232,1200,-25,68,-6
11310,1616,200,1216,-27,68,-6
11315,1592,224,1208,-28,68,-7
11320,1592,208,1136,-29,68,-6
11325,1592,216,1200,-30,69,-7
11330,1592,216,1208,-27,69,-7
11335,1600,200,1208,-26,67,-6
11340,1600,224,1192,-26,66,-6
11345,1568,216,1192,-25,65,-8
11350,1560,232,1216,-24,65,-8
11355,1584,216,1208,-26,66,-8
11360,1560,232,1232,-29,67,-9
11365,1560,248,1216,-33,68,-10
11370,1584,200,1200,-37,69,-9
11375,1592,192,1232,-39,70,-11
11380,1576,208,1216,-41,69,-10
11385,1592,200,1224,-39,67,-10
11390,1576,208,1208,-37,64,-7
11395,1568,192,1216,-34,60,-10
11400,1576,192,1216,-30,60,-9
11405,1584,200,1208,-27,58,-10
11410,1576,216,1200,-24,59,-9
11415,1568,224,1224,-20,62,-10
11420,1568,232,1200,-14,61,-9
11425,1584,216,1208,-13,65,-11
11430,1560,224,1232,-17,67,-9
11435,1568,200,1232,-20,70,-10
11440,1552,216,1256,-23,70,-9
11445,1560,192,1224,-25,67,-10
11450,1536,200,1184,-23,65,-7
11455,1552,184,1208,-23,63,-7
11460,1560,208,1216,-24,66,-6
11465,1560,208,1208,-22,65,-7
11470,1576,224,1224,-22,64,-5
11475,1568,200,1208,-21,62,-7
11480,1568,232,1224,-21,60,-6
11485,1576,216,1184,-20,56,-7
11490,1560,240,1232,-18,54,-4
11495,1600,216,1232,-18,53,-6
11500,1592,208,1216,-15,51,-5
11505,1600,224,1208,-16,48,-5
11510,1584,216,1224,-16,48,-2
11515,1560,224,1208,-15,45,-5
11520,1584,200,1176,-15,43,-1
11525,1576,216,1192,-15,40,-3
11530,1568,200,1216,-17,41,4
11535,1568,256,1208,-16,42,1
11540,1592,240,1216,-15,43,0
11545,1584,232,1216,-14,42,-4
11550,1584,224,1224,-13,42,-1
11555,1544,248,1192,-13,45,-1
11560,1584,208,1200,-12,46,2
11565,1568,216,1192,-11,49,-1
11570,1576,232,1216,-10,50,3
11575,1576,208,1200,-10,50,1
11580,1584,208,1208,-10,50,5
11585,1568,224,1192,-9,52,3
11590,1568,216,1200,-10,52,6
11595,1584,184,1200,-10,53,5
11600,1592,200,1184,-8,53,7
11605,1584,184,1208,-7,53,7
11610,1568,216,1208,-6,52,7
11615,1584,216,1208,-3,52,5
11620,1592,216,1176,-4,52,7
11625,1592,208,1168,-3,50,6
11630,1584,232,1176,-2,50,7
11635,1552,200,1200,-2,50,6
11640,1592,216,1192,-3,50,10
11645,1600,232,1192,-5,50,4
11650,1592,216,1192,-5,53,3
11655,1584,224,1224,-7,55,0
11660,1576,224,1208,-11,55,3
11665,1600,208,1208,-13,55,-1
11670,1584,208,1160,-13,55,3
11675,1568,224,1184,-11,56,0
11680,1600,200,1192,-10,56,2
11685,1584,216,1200,-9,56,-2
11690,1592,240,1200,-9,54,-2
11695,1584,216,1176,-10,56,-6
11700,1592,208,1224,-11,56,-4
11705,1584,216,1200,-11,60,-6
11710,1584,216,1176,-13,60,-6
11715,1584,216,1184,-12,62,-8
11720,1608,200,1192,-12,62,-6
11725,1576,184,1200,-13,64,-8
11730,1616,200,1184,-13,65,-8
11735,1584,216,1200,-13,64,-12
11740,1576,200,1192,-12,66,-11
11745,1576,200,1240,-11,65,-12
11750,1576,192,1208,-10,64,-9
11755,1592,192,1168,-9,64,-13
11760,1592,192,1200,-8,63,-10
11765,1592,184,1208,-5,63,-12
11770,1592,208,1176,-4,64,-10
11775,1600,224,1168,-5,63,-13
11780,1608,216,1184,-5,63,-11
11785,1592,208,1192,-5,64,-12
11790,1584,216,1192,-8,66,-8
11795,1584,240,1184,-9,66,-10
11800,1608,208,1208,-11,67,-7
11805,1608,224,1224,-12,67,-10
11810,1576,208,1176,-10,67,-7
11815,1584,216,1184,-11,66,-8
11820,1576,216,1192,-11,67,-5
11825,1592,224,1208,-11,67,-7
11830,1600,208,1200,-10,68,-5
11835,1600,216,1192,-8,70,-7
11840,1600,208,1192,-7,70,-4
11845,1592,208,1200,-7,69,-4
11850,1600,224,1200,-6,70,-2
11855,1584,216,1192,-4,73,-6
11860,1592,224,1192,-4,74,-2
11865,1576,224,1192,-3,74,-4
11870,1592,216,1192,-5,75,-2
11875,1568,208,1192,-4,75,-5
11880,1576,224,1200,-4,77,-3
11885,1592,208,1168,-5,78,-4
11890,1592,216,1200,-5,77,-3
11895,1584,216,1232,-2,77,-4
11900,1576,232,1216,-3,77,-2
11905,1600,232,1208,-3,76,-3
11910,1576,224,1208,-3,76,-1
11915,1576,224,1224,-2,75,-4
11920,1560,216,1224,-2,75,-1
11925,1584,232,1224,-3,77,-1
11930,1576,192,1216,-1,77,0
11935,1584,232,1216,-1,76,-3
11940,1576,216,1240,-1,74,-1
11945,1592,216,1200,0,75,-3
11950,1584,216,1208,1,74,-1
11955,1592,192,1192,0,74,-2
11960,1600,224,1200,-2,75,1
11965,1592,248,1200,-1,74,-2
11970,1576,216,1208,-2,75,-1
11975,1552,224,1192,-1,75,-3
11980,1592,216,1240,-3,74,-2
11985,1592,208,1192,-3,75,-4
11990,1568,216,1176,-4,73,0
11995,1568,216,1200,-3,74,-4
12000,1568,184,1208,-3,74,-2
12005,1576,232,1216,-2,72,-3
12010,1560,232,1192,-3,73,-1
12015,1560,216,1232,-4,70,-5
12020,1568,216,1184,-3,70,-4
12025,1592,208,1240,-1,71,-4
12030,1592,208,1200,-2,71,-3
12035,1608,192,1216,-3,71,-4
12040,1568,232,1192,-2,71,-3
12045,1600,352,1032,-3,71,-5
12050,1584,192,1192,-4,72,-4
12055,1584,224,1200,-4,70,-3
12060,1592,200,1192,-4,69,-3
12065,1568,200,1208,-4,68,-4
12070,1560,200,1200,-4,67,-3
12075,1576,224,1200,-4,67,-5
12080,1568,208,1216,-5,67,-5
12085,1560,224,1200,-4,66,-5
12090,1584,208,1232,-5,65,-5
12095,1592,256,1088,-5,65,-6
12100,1616,200,1208,-4,64,-7
12105,1584,240,1232,-4,63,-8
12110,1600,256,1240,-4,65,-6
12115,1568,224,1224,-4,65,-7
12120,1584,240,1200,-2,66,-5
12125,1560,232,1200,-2,67,-4
12130,1576,240,1192,-3,67,-3
12135,1576,216,1216,-3,68,-4
12140,1584,232,1184,-3,70,-2
12145,1568,224,1240,-5,68,-1
12150,1576,208,1224,-4,67,0
12155,1576,248,1192,-3,66,-1
12160,1568,240,1224,-4,65,-1
12165,1584,216,1200,-4,66,-1
12170,1576,224,1208,-6,65,1
12175,1576,224,1184,-8,66,1
12180,1584,248,1232,-12,68,-2
12185,1576,256,1224,-15,70,0
12190,1544,240,1232,-16,72,-1
12195,1592,232,1200,-17,72,0
12200,1576,216,1216,-19,72,2
12205,1584,240,1224,-18,71,1
12210,1600,208,1208,-18,70,2
12215,1576,232,1224,-16,69,1
12220,1592,216,1192,-15,73,1
12225,1608,224,1216,-13,74,1
12230,1584,232,1200,-12,76,1
12235,1592,232,1216,-9,78,0
12240,1584,224,1216,-8,79,-1
12245,1600,224,1192,-10,79,-2
12250,1576,240,1224,-11,81,-3
12255,1584,200,1264,-13,81,-4
12260,1568,208,1224,-15,79,-5
12265,1568,208,1224,-15,80,-6
12270,1576,192,1208,-14,81,-5
12275,1568,216,1248,-12,80,-4
12280,1568,200,1224,-8,82,-5
12285,1592,200,1232,-5,80,-5
12290,1568,216,1168,-5,78,-5
12295,1568,208,1240,-2,79,-5
12300,1560,208,1232,0,77,-3
12305,1600,200,1200,1,76,-5
12310,1576,232,1176,0,74,-4
12315,1568,240,1200,1,72,-3
12320,1560,224,1224,3,72,-4
12325,1560,232,1200,4,69,-3
12330,1568,208,1240,3,70,-4
12335,1568,224,1208,4,68,-4
12340,1592,224,1208,5,68,-3
12345,1568,240,1192,5,69,-3
12350,1576,216,1216,7,70,-4
12355,1576,232,1208,7,69,-4
12360,1584,232,1224,8,71,-3
12365,1576,240,1224,9,72,-3
12370,1576,216,1216,8,73,-3
12375,1584,208,1192,7,72,-1
12380,1576,224,1208,7,75,-3
12385,1576,240,1216,5,75,1
12390,1584,224,1200,5,75,0
12395,1576,224,1208,4,75,3
12400,1560,216,1224,2,73,0
12405,1568,224,1224,0,72,3
12410,1568,216,1192,0,70,3
12415,1568,240,1224,-1,69,3
12420,1568,208,1224,0,69,4
12425,1552,240,1224,-2,69,5
12430,1560,248,1208,-4,69,3
12435,1576,248,1208,-5,67,5
12440,1576,232,1200,-7,68,4
12445,1560,248,1224,-8,68,7
12450,1584,208,1224,-8,67,5
12455,1600,248,1208,-9,67,5
12460,1584,224,1232,-10,69,3
12465,1576,240,1224,-12,70,3
12470,1600,216,1216,-15,71,0
12475,1592,208,1192,-19,76,2
12480,1576,208,1216,-18,76,0
12485,1584,208,1184,-19,77,2
12490,1600,216,1208,-20,77,0
12495,1608,232,1184,-18,76,1
12500,1584,224,1208,-15,73,-2
12505,1584,232,1224,-12,74,-2
12510,1576,232,1200,-11,75,-3
12515,1552,224,1224,-8,77,-2
12520,1584,224,1224,-9,77,-4
12525,1592,224,1224,-8,78,-4
12530,1576,224,1232,-6,80,-5
12535,1560,216,1248,-3,81,-4
12540,1584,216,1216,-1,82,-7
12545,1560,224,1208,1,83,-5
12550,1568,216,1184,1,85,-6
12555,1568,216,1224,2,84,-4
12560,1568,224,1232,1,83,-6
12565,1544,224,1240,0,80,-6
12570,1568,224,1224,0,79,-6
12575,1568,216,1216,-1,76,-5
12580,1552,216,1224,0,74,-7
12585,1568,208,1224,0,71,-4
12590,1568,192,1240,0,69,-7
12595,1560,216,1168,0,66,-3
12600,1584,216,1216,1,63,-5
12605,1544,248,1200,1,65,-2
12610,1568,224,1216,3,66,-3
12615,1560,232,1224,4,65,-1
12620,1584,248,1192,6,67,-2
12625,1568,248,1224,7,68,0
12630,1560,232,1224,9,68,-1
12635,1576,240,1208,10,70,2
12640,1560,224,1216,10,69,0
12645,1568,248,1200,9,70,2
12650,1552,248,1208,9,69,-1
12655,1560,232,1216,6,67,1
12660,1552,240,1176,3,69,-2
12665,1576,216,1224,2,68,-1
12670,1528,224,1224,2,70,-5
12675,1600,208,1232,3,73,-9
12680,1568,248,1216,1,73,-8
12685,1536,248,1232,-4,69,-4
12690,1584,216,1240,-9,69,-5
12695,1592,232,1232,-11,69,-4
12700,1568,208,1248,-12,69,-8
12705,1552,224,1192,-12,70,-4
12710,1560,240,1240,-11,69,-7
12715,1552,208,1216,-9,68,-4
12720,1552,224,1240,-8,65,-7
12725,1552,240,1216,-4,62,-4
12730,1544,248,1264,-1,63,-5
12735,1560,216,1224,3,63,-3
12740,1560,224,1224,5,63,-4
12745,1560,232,1256,8,62,0
12750,1568,240,1232,12,61,-1
12755,1576,232,1200,15,59,1
12760,1544,256,1232,17,57,0
12765,1560,256,1224,16,53,0
12770,1552,240,1208,19,47,-1
12775,1544,232,1216,20,51,2
12780,1568,216,1224,18,51,-2
12785,1576,240,1176,17,51,1
12790,1584,232,1200,16,52,-1
12795,1560,264,1208,13,53,0
12800,1560,248,1208,8,53,-3
12805,1552,224,1224,6,54,0
12810,1560,248,1192,4,58,-3
12815,1568,256,1208,0,61,-2
12820,1576,248,1216,0,63,-5
12825,1592,240,1200,-2,66,-2
12830,1576,232,1216,-3,70,-5
12835,1552,232,1192,-4,71,-4
12840,1560,232,1200,-4,73,-7
12845,1584,224,1208,-5,73,-3
12850,1576,200,1224,-5,72,-5
12855,1560,232,1216,-4,72,-3
12860,1576,224,1176,-2,71,-4
12865,1576,240,1200,-2,71,-2
12870,1552,232,1192,-1,71,-6
12875,1560,224,1232,-2,70,-5
12880,1576,240,1184,-1,69,-8
12885,1568,224,1208,0,69,-5
12890,1592,232,1208,-2,69,-7
12895,1568,240,1232,-1,68,-5
12900,1568,224,1200,0,68,-9
12905,1600,216,1200,-1,68,-5
12910,1568,232,1216,0,67,-8
12915,1544,224,1216,0,68,-6
12920,1584,224,1216,1,68,-8
12925,1560,232,1216,0,68,-7
12930,1576,208,1184,0,69,-9
12935,1552,224,1200,0,70,-6
12940,1592,232,1224,-1,70,-7
12945,1560,240,1208,0,71,-4
12950,1552,216,1224,1,70,-7
12955,1568,224,1160,1,69,-5
12960,1528,248,1208,2,68,-7
12965,1560,224,1200,4,68,-4
12970,1576,232,1208,6,68,-6
12975,1568,232,1216,6,69,-3
12980,1576,232,1232,7,69,-4
12985,1584,232,1200,7,68,-2
12990,1600,240,1200,7,69,-4
12995,1568,248,1232,8,69,-3
13000,1560,248,1248,8,69,-4
13005,1560,240,1184,8,69,-4
13010,1568,240,1216,7,69,-6
13015,1552,256,1208,9,69,-5
13020,1568,232,1216,6,71,-7
13025,1584,248,1224,6,71,-3
13030,1584,224,1208,7,72,-6
13035,1568,248,1208,6,73,-5
13040,1552,240,1232,7,70,-6
13045,1560,240,1240,6,70,-6
13050,1576,240,1200,8,70,-5
13055,1552,232,1232,9,67,-3
13060,1576,256,1176,9,66,-4
13065,1552,232,1216,11,65,-2
13070,1568,240,1200,9,64,-3
13075,1552,280,1208,8,62,-2
13080,1544,256,1216,7,61,-6
13085,1568,240,1240,5,60,-5
13090,1544,264,1240,2,60,-6
13095,1568,224,1248,-1,60,-7
13100,1592,232,1232,-5,61,-8
13105,1552,240,1232,-7,63,-6
13110,1568,232,1248,-9,61,-7
13115,1560,216,1240,-10,60,-6
13120,1544,248,1232,-15,62,-9
13125,1576,256,1248,-13,62,-7
13130,1560,264,1200,-16,59,-6
13135,1552,280,1240,-20,60,-4
13140,1552,248,1248,-25,61,-5
13145,1568,264,1256,-31,64,-5
13150,1576,232,1272,-37,65,-6
13155,1544,208,1240,-42,66,-5
13160,1544,240,1248,-45,66,-5
13165,1544,232,1256,-46,64,-4
13170,1536,224,1224,-47,61,-3
13175,1536,216,1224,-43,59,-2
13180,1544,200,1200,-39,58,-2
13185,1552,224,1256,-37,57,-1
13190,1560,232,1232,-36,56,-2
13195,1520,256,1224,-33,56,-4
13200,1560,224,1216,-33,54,-4
13205,1568,248,1200,-33,52,-4
13210,1568,224,1208,-34,50,-4
13215,1576,216,1192,-34,49,-5
13220,1560,224,1184,-35,48,-6
13225,1568,232,1232,-37,49,-5
13230,1552,248,1184,-37,47,-6
13235,1600,240,1216,-38,48,-5
13240,1568,256,1232,-40,48,-5
13245,1576,248,1200,-40,48,-6
13250,1584,248,1192,-40,50,-6
13255,1560,240,1208,-40,51,-7
13260,1560,264,1208,-40,53,-6
13265,1576,264,1200,-38,55,-6
13270,1560,248,1216,-39,56,-6
13275,1584,248,1216,-37,56,-6
13280,1568,232,1224,-37,56,-5
13285,1552,240,1200,-36,52,-5
13290,1576,240,1240,-36,49,-4
13295,1560,240,1232,-36,44,-1
13300,1592,216,1232,-33,36,0
13305,1576,224,1256,-30,27,1
13310,1592,200,1256,-27,15,2
13315,1576,192,1232,-24,4,4
13320,1592,208,1232,-21,-10,6
13325,1600,216,1224,-17,-25,7
13330,1608,224,1224,-16,-38,9
13335,1632,176,1224,-17,-50,9
13340,1600,200,1216,-19,-60,13
13345,1584,216,1256,-20,-69,13
13350,1608,208,1208,-21,-75,14
13355,1576,216,1176,-21,-77,12
13360,1576,224,1208,-23,-79,14
13365,1584,232,1168,-26,-78,14
13370,1568,240,1192,-31,-71,15
13375,1576,224,1120,-36,-63,15
13380,1576,232,1144,-36,-50,17
13385,1552,224,1176,-36,-41,18
13390,1592,248,1184,-32,-28,19
13395,1576,248,1160,-27,-14,19
13400,1576,216,1144,-22,-5,20
13405,1576,240,1168,-17,3,17
13410,1576,240,1192,-12,7,17
13415,1592,280,1176,-8,13,13
13420,1584,248,1200,-4,20,11
13425,1576,224,1176,-5,23,7
13430,1576,232,1168,-5,27,6
13435,1584,240,1176,-8,30,4
13440,1576,240,1176,-11,34,4
13445,1568,224,1216,-16,38,2
13450,1584,216,1200,-21,41,2
13455,1568,232,1192,-26,47,-1
13460,1592,232,1192,-32,52,-1
13465,1568,216,1192,-39,58,-4
13470,1544,232,1216,-44,64,-4
13475,1568,256,1192,-48,70,-6
13480,1560,224,1200,-52,77,-7
13485,1560,232,1184,-56,81,-9
13490,1584,224,1208,-56,84,-7
13495,1592,224,1200,-53,86,-9
13500,1576,232,1192,-51,84,-8
13505,1592,216,1200,-48,83,-10
13510,1584,224,1176,-45,82,-8
13515,1592,232,1168,-42,78,-9
13520,1560,248,1208,-39,75,-7
13525,1592,240,1200,-37,72,-9
13530,1576,232,1200,-35,67,-7
13535,1584,240,1192,-36,65,-7
13540,1608,232,1208,-36,62,-5
13545,1584,232,1192,-38,58,-6
13550,1608,216,1232,-41,57,-3
13555,1584,216,1208,-43,56,-2
13560,1584,216,1208,-46,56,-1
13565,1608,208,1200,-48,55,-3
13570,1608,224,1192,-50,54,0
13575,1600,208,1184,-50,54,-1
13580,1584,208,1232,-50,53,1
13585,1576,224,1200,-49,54,1
13590,1576,232,1192,-49,52,2
13595,1576,224,1232,-45,48,-1
13600,1592,216,1216,-43,48,3
13605,1592,208,1192,-41,44,1
13610,1576,216,1216,-39,39,5
13615,1600,200,1208,-37,34,2
13620,1608,192,1184,-36,29,5
13625,1608,208,1216,-36,22,4
13630,1616,208,1208,-35,18,8
13635,1608,208,1192,-32,13,7
13640,1608,216,1200,-30,5,8
13645,1624,208,1176,-30,-3,5
13650,1624,216,1176,-26,-10,10
13655,1616,200,1200,-25,-12,5
13660,1616,208,1216,-25,-15,7
13665,1600,216,1160,-29,-16,4
13670,1616,224,1200,-30,-16,6
13675,1600,208,1176,-32,-15,4
13680,1608,232,1200,-32,-15,7
13685,1568,216,1144,-31,-13,5
13690,1592,200,1184,-30,-10,7
13695,1568,208,1168,-30,-6,7
13700,1568,232,1192,-27,-4,8
13705,1584,216,1152,-25,0,6
13710,1600,208,1200,-23,3,8
13715,1584,232,1168,-20,4,5
13720,1608,208,1200,-15,6,9
13725,1592,216,1168,-13,8,7
13730,1584,216,1184,-12,11,7
13735,1584,216,1192,-11,12,5
13740,1568,240,1168,-10,16,7
13745,1592,208,1192,-11,18,5
13750,1600,232,1184,-14,22,6
13755,1616,216,1160,-16,26,4
13760,1592,216,1184,-19,31,5
13765,1592,208,1152,-22,34,2
13770,1600,216,1168,-25,38,4
13775,1576,248,1144,-29,42,0
13780,1600,224,1176,-31,44,2
13785,1592,224,1168,-33,47,1
13790,1600,224,1144,-39,51,3
13795,1592,232,1176,-41,54,-1
13800,1592,224,1168,-41,58,1
13805,1592,224,1176,-42,61,-1
13810,1592,232,1160,-43,62,2
13815,1608,224,1120,-43,66,-1
13820,1600,216,1168,-45,69,0
13825,1608,216,1176,-47,72,-1
13830,1624,232,1168,-47,74,1
13835,1632,232,1184,-48,72,-2
13840,1600,232,1184,-46,73,0
13845,1632,208,1176,-45,71,-1
13850,1608,216,1200,-44,69,2
13855,1616,200,1184,-43,68,3
13860,1600,232,1192,-41,65,5
13865,1616,216,1192,-40,62,4
13870,1600,216,1168,-39,60,6
13875,1608,192,1184,-41,59,6
13880,1616,200,1152,-39,58,9
13885,1608,200,1176,-36,57,7
13890,1616,216,1208,-35,55,9
13895,1600,216,1184,-35,53,6
13900,1624,176,1184,-34,52,9
13905,1592,200,1192,-32,52,7
13910,1592,216,1192,-31,53,8
13915,1624,200,1192,-29,52,6
13920,1592,232,1208,-29,52,5
13925,1600,208,1192,-27,53,3
13930,1608,200,1176,-23,51,5
13935,1632,208,1176,-18,48,3
13940,1616,208,1176,-13,46,5
13945,1616,320,1232,-8,42,4
13950,1576,136,1168,-1,38,6
13955,1536,248,1128,2,36,3
13960,1608,264,1232,7,36,6
13965,1616,264,1120,8,35,2
13970,1608,208,1184,10,34,3
13975,1616,192,1184,10,34,2
13980,1616,200,1200,7,34,3
13985,1600,192,1200,2,37,1
13990,1624,208,1232,-4,39,3
13995,1584,208,1184,-12,41,0
14000,1608,184,1192,-18,43,1
14005,1600,208,1224,-22,45,0
14010,1576,192,1208,-24,44,1
14015,1576,184,1192,-20,44,-2
14020,1592,168,1160,-18,45,1
14025,1592,184,1168,-14,44,1
14030,1600,200,1160,-10,44,2
14035,1608,184,1152,-5,46,1
14040,1616,208,1168,0,48,3
14045,1632,208,1120,3,49,4
14050,1608,240,1136,7,52,2
14055,1616,224,1160,7,55,0
14060,1608,224,1144,6,56,-1
14065,1640,208,1136,3,59,-2
14070,1624,224,1160,0,61,-2
14075,1608,224,1144,-1,64,-3
14080,1608,240,1168,-3,65,-1
14085,1624,216,1120,-6,65,-4
14090,1648,200,1128,-8,67,-3
14095,1632,224,1144,-10,68,-4
14100,1608,248,1176,-10,67,-5
14105,1632,224,1192,-12,68,-5
14110,1624,216,1128,-13,69,-6
14115,1616,224,1160,-13,70,-6
14120,1608,224,1184,-14,72,-4
14125,1632,224,1200,-13,72,-6
14130,1616,200,1176,-14,73,-5
14135,1616,208,1176,-14,73,-5
14140,1640,216,1160,-16,73,-4
14145,1608,200,1192,-17,75,-4
14150,1624,184,1184,-18,75,-3
14155,1616,208,1184,-18,75,-5
14160,1608,184,1184,-18,73,-4
14165,1624,216,1176,-18,73,-4
14170,1640,200,1152,-18,72,-4
14175,1592,208,1152,-16,72,-4
14180,1624,208,1152,-14,72,-3
14185,1624,184,1176,-14,72,-3
14190,1600,208,1184,-13,72,-3
14195,1616,216,1152,-11,73,-4
14200,1624,200,1152,-11,73,-3
14205,1576,224,1168,-11,72,-3
14210,1600,208,1184,-13,73,-4
14215,1632,208,1136,-15,76,-5
14220,1624,200,1176,-16,75,-3
14225,1608,192,1152,-15,75,-4
14230,1608,184,1176,-14,76,-4
14235,1600,200,1168,-12,76,-4
14240,1600,208,1168,-10,77,-3
14245,1608,216,1168,-7,76,-4
14250,1592,224,1168,-4,76,-4
14255,1600,224,1168,-3,76,-6
14260,1624,208,1200,-4,78,-6
14265,1616,200,1176,-4,79,-6
14270,1632,200,1168,-5,81,-7
14275,1600,232,1208,-8,82,-7
14280,1616,208,1160,-8,80,-5
14285,1616,200,1184,-11,80,-7
14290,1584,208,1192,-11,79,-6
14295,1576,224,1208,-11,79,-6
14300,1600,216,1184,-13,78,-6
14305,1592,232,1144,-14,76,-6
14310,1584,216,1136,-14,75,-6
14315,1616,200,1200,-12,73,-5
14320,1584,240,1168,-12,71,-6
14325,1624,216,1192,-10,69,-6
14330,1592,232,1208,-9,68,-6
14335,1608,192,1184,-8,67,-5
14340,1592,240,1184,-9,66,-4
14345,1584,216,1152,-9,66,-5
14350,1608,208,1168,-10,67,-4
14355,1632,192,1160,-10,67,-6
14360,1584,200,1192,-11,69,-5
14365,1608,208,1208,-11,68,-4
14370,1600,240,1176,-11,67,-5
14375,1592,200,1152,-10,67,-3
14380,1616,216,1168,-8,65,-3
14385,1600,216,1160,-8,65,-2
14390,1592,200,1192,-7,65,-1
14395,1616,224,1160,-7,64,0
14400,1600,208,1152,-7,64,-2
14405,1584,224,1192,-7,65,0
14410,1576,232,1168,-6,66,-3
14415,1600,216,1168,-8,65,0
14420,1584,208,1176,-9,66,-2
14425,1600,216,1168,-11,69,-3
14430,1600,216,1152,-12,68,-4
14435,1584,224,1192,-9,69,-3
14440,1600,216,1184,-9,69,-4
14445,1576,216,1224,-8,70,-2
14450,1592,208,1184,-7,71,-3
14455,1600,216,1192,-8,70,-2
14460,1608,224,1144,-6,70,-5
14465,1608,208,1176,-6,71,-3
14470,1608,208,1168,-5,71,-5
14475,1592,208,1176,-3,72,-3
14480,1616,208,1184,-3,72,-5
14485,1600,200,1152,-3,71,-2
14490,1608,224,1200,-1,71,-5
14495,1648,216,1192,-2,71,-2
14500,1616,192,1184,-2,71,-4
14505,1616,208,1192,-3,69,-2
14510,1600,216,1184,-5,69,-5
14515,1632,216,1184,-8,68,-1
14520,1616,208,1184,-10,69,-3
14525,1592,208,1152,-12,70,-1
14530,1608,232,1176,-14,69,-4
14535,1600,232,1192,-14,70,-2
14540,1608,192,1168,-16,68,-2
14545,1624,208,1184,-14,68,-1
14550,1608,200,1168,-15,67,-3
14555,1592,200,1192,-13,67,-1
14560,1592,216,1176,-12,68,-3
14565,1600,184,1192,-12,68,0
14570,1616,200,1176,-10,67,-2
14575,1600,216,1144,-8,64,-1
14580,1608,216,1184,-7,65,-3
14585,1592,224,1184,-6,65,-1
14590,1608,216,1184,-4,65,-3
14595,1624,216,1152,-4,64,-1
14600,1608,200,1176,-4,65,-4
14605,1592,216,1160,-4,64,-2
14610,1616,184,1176,-4,64,-3
14615,1608,208,1192,-6,65,-1
14620,1584,216,1184,-5,63,-4
14625,1600,200,1176,-4,64,-2
14630,1616,216,1176,-5,66,-5
14635,1616,192,1176,-5,66,-3
14640,1616,208,1208,-6,67,-6
14645,1600,240,1168,-7,67,-4
14650,1608,200,1200,-10,68,-5
14655,1584,224,1184,-11,70,-3
14660,1608,200,1176,-12,73,-7
14665,1592,216,1176,-13,73,-4
14670,1568,216,1176,-13,73,-7
14675,1592,216,1184,-11,72,-5
14680,1616,200,1176,-11,71,-7
14685,1624,192,1184,-9,71,-6
14690,1600,216,1144,-8,73,-8
14695,1576,216,1168,-5,73,-5
14700,1616,200,1176,0,75,-8
14705,1592,224,1192,1,74,-6
14710,1608,216,1192,4,75,-9
14715,1616,216,1184,5,76,-7
14720,1608,208,1168,3,78,-9
14725,1592,216,1168,-1,79,-5
14730,1608,224,1176,-4,80,-8
14735,1592,232,1192,-6,81,-5
14740,1576,200,1192,-9,81,-7
14745,1624,216,1176,-9,80,-6
14750,1608,208,1136,-10,79,-8
14755,1600,216,1152,-7,78,-6
14760,1592,208,1176,-4,79,-9
14765,1608,216,1184,0,77,-7
14770,1584,232,1168,4,75,-10
14775,1600,224,1192,10,74,-9
14780,1592,240,1152,16,70,-12
14785,1608,248,1152,21,67,-8
14790,1616,216,1152,25,65,-9
14795,1600,232,1176,28,63,-6
14800,1608,232,1160,31,63,-7
14805,1584,232,1144,33,63,-4
14810,1600,232,1152,30,64,-4
14815,1600,216,1184,28,67,-2
14820,1608,240,1176,25,69,-4
14825,1616,200,1184,21,73,0
14830,1616,224,1184,16,77,-2
14835,1600,256,1184,13,82,-1
14840,1584,224,1200,7,85,-4
14845,1584,208,1200,1,90,-1
14850,1600,216,1192,-2,93,-4
14855,1600,216,1200,-4,97,-1
14860,1592,224,1184,-7,96,-4
14865,1592,216,1208,-8,96,-1
14870,1576,216,1200,-8,94,-3
14875,1584,216,1216,-9,94,-2
14880,1584,208,1208,-8,91,-3
14885,1576,208,1232,-8,89,-1
14890,1560,208,1216,-7,88,-4
14895,1576,184,1240,-4,83,-2
14900,1576,216,1192,-3,80,-4
14905,1584,224,1184,-1,79,-2
14910,1592,224,1192,2,78,-4
14915,1600,208,1176,4,77,-3
14920,1576,240,1200,8,74,-6
14925,1584,240,1208,8,74,-4
14930,1584,232,1208,7,75,-6
14935,1584,232,1184,8,76,-6
14940,1600,256,1192,7,76,-9
14945,1584,216,1208,6,79,-7
14950,1592,232,1192,6,79,-9
14955,1600,216,1216,6,78,-7
14960,1584,216,1208,6,80,-8
14965,1584,240,1184,6,80,-5
14970,1600,224,1176,7,80,-6
14975,1568,232,1152,7,80,-6
14980,1576,280,1192,7,80,-7
14985,1632,240,1224,6,82,-5
14990,1576,264,1176,6,84,-8
