timestamp,accel_x,accel_y,accel_z,gyro_x,gyro_y,gyro_z
0,-112,-2040,-112,5,-68,-16
5,-104,-2016,-112,4,-65,-16
10,-112,-2016,-120,1,-61,-17
15,-104,-2032,-104,-4,-56,-17
20,-96,-2024,-112,-7,-51,-19
25,-96,-2024,-168,-12,-43,-19
30,-96,-2024,-128,-16,-38,-22
35,-96,-2024,-128,-21,-33,-19
40,-96,-2048,-104,-27,-26,-22
45,-88,-2016,-152,-34,-16,-21
50,-96,-2016,-152,-40,-10,-23
55,-96,-2016,-112,-44,-6,-19
60,-88,-2032,-152,-48,2,-20
65,-96,-2024,-136,-49,7,-17
70,-96,-2040,-128,-50,10,-19
75,-88,-2056,-120,-51,13,-15
80,-96,-2048,-112,-52,16,-15
85,-96,-2008,-128,-56,18,-10
90,-88,-2048,-112,-61,23,-12
95,-112,-2016,-136,-65,29,-10
100,-120,-2016,-136,-70,35,-13
105,-96,-2016,-112,-71,42,-12
110,-96,-2040,-128,-71,48,-15
115,-120,-2032,-136,-70,56,-11
120,-96,-2040,-168,-69,58,-12
125,-112,-2040,-136,-68,61,-9
130,-96,-2064,-152,-71,65,-11
135,-88,-2040,-160,-73,71,-8
140,-96,-2032,-136,-76,79,-11
145,-72,-2048,-168,-79,87,-9
150,-80,-2024,-128,-80,95,-10
155,-80,-2032,-160,-80,104,-9
160,-72,-2056,-160,-77,114,-10
165,-72,-2032,-128,-76,121,-9
170,-80,-2024,-128,-71,131,-12
175,-80,-2024,-128,-68,140,-12
180,-88,-2024,-136,-65,149,-16
185,-72,-2032,-136,-66,159,-16
190,-72,-2048,-120,-69,166,-19
195,-80,-2016,-136,-73,174,-19
200,-80,-2040,-120,-77,180,-20
205,-80,-2024,-120,-81,187,-20
210,-64,-2072,-128,-81,197,-20
215,-56,-2072,-120,-80,202,-19
220,-56,-2056,-96,-79,209,-19
225,-72,-2080,-96,-74,215,-19
230,-72,-2072,-120,-70,221,-20
235,-72,-2072,-128,-70,229,-19
240,-48,-2064,-120,-68,236,-21
245,-64,-2056,-104,-69,246,-20
250,-48,-2056,-104,-69,258,-23
255,-40,-2040,-128,-67,269,-21
260,-48,-2048,-120,-66,280,-22
265,-32,-2048,-120,-60,293,-20
270,-56,-2056,-88,-53,306,-21
275,-48,-2048,-80,-48,318,-19
280,-48,-2064,-80,-41,328,-18
285,-64,-2064,-128,-34,339,-16
290,-64,-2072,-96,-24,349,-17
295,-80,-2064,-96,-18,355,-16
300,-80,-2072,-96,-14,360,-15
305,-80,-2072,-88,-12,366,-14
310,-80,-2048,-104,-10,371,-13
315,-96,-2024,-96,-9,375,-12
320,-80,-2064,-96,-6,380,-12
325,-96,-2048,-96,-2,386,-13
330,-96,-2040,-96,2,393,-13
335,-72,-2064,-112,5,403,-14
340,-72,-2064,-120,10,410,-17
345,-72,-2064,-112,15,417,-16
350,-80,-2064,-136,20,424,-18
355,-56,-2064,-96,22,431,-19
360,-72,-2064,-80,21,438,-21
365,-64,-2056,-136,21,448,-22
370,-72,-2064,-96,19,452,-22
375,-80,-2032,-64,21,455,-17
380,-96,-2056,-64,20,454,-11
385,-96,-2048,-72,18,457,-7
390,-104,-2032,-64,14,454,0
395,-96,-2016,-136,9,452,3
400,-96,-2032,-72,3,451,10
405,-120,-1984,-120,-5,449,16
410,-168,-1976,-112,-16,446,19
415,-176,-1992,-136,-26,446,18
420,-168,-1944,-144,-42,444,17
425,-200,-1896,-160,-60,443,14
430,-216,-1880,-152,-84,441,11
435,-208,-1864,-176,-114,435,5
440,-216,-1808,-176,-144,422,0
445,-216,-1760,-208,-184,407,-5
450,-240,-1728,-208,-216,394,-8
455,-280,-1696,-240,-246,378,-15
460,-296,-1672,-200,-273,360,-20
465,-296,-1680,-216,-293,342,-27
470,-312,-1672,-184,-304,323,-33
475,-320,-1688,-176,-307,305,-41
480,-320,-1736,-152,-302,290,-46
485,-240,-1800,-104,-288,276,-53
490,-184,-1936,-64,-269,268,-60
495,-96,-2040,0,-241,260,-72
500,-96,-2144,56,-212,251,-85
505,-80,-2264,88,-178,244,-99
510,-56,-2368,88,-146,241,-104
515,-72,-2408,64,-120,244,-109
520,-72,-2456,48,-106,255,-106
525,-64,-2456,32,-105,270,-104
530,-96,-2392,0,-117,290,-96
535,-72,-2344,-48,-138,312,-89
540,-64,-2240,-56,-159,330,-77
545,-48,-2176,-72,-179,351,-64
550,-48,-2120,-72,-187,368,-52
555,-32,-2064,-48,-192,381,-44
560,-24,-2008,8,-195,390,-35
565,-8,-1944,48,-188,399,-29
570,24,-1960,64,-175,407,-19
575,24,-1952,96,-159,418,-14
580,32,-1968,128,-142,429,-1
585,40,-2000,144,-125,442,7
590,48,-2024,168,-111,455,21
595,80,-2064,96,-101,471,32
600,40,-2072,112,-99,486,44
605,48,-2096,96,-103,502,49
610,24,-2128,104,-111,520,58
615,-8,-2152,72,-127,535,66
620,-48,-2152,16,-145,550,81
625,-72,-2192,0,-159,564,93
630,-72,-2160,0,-168,580,111
635,-88,-2152,0,-176,591,124
640,-128,-2152,-56,-182,599,135
645,-152,-2112,0,-190,601,143
650,-200,-2072,-24,-189,592,154
655,-232,-2072,-56,-176,579,162
660,-224,-2056,0,-158,562,174
665,-264,-2048,8,-136,543,181
670,-280,-2040,-8,-113,520,192
675,-312,-1984,0,-93,495,200
680,-344,-1976,-8,-75,468,213
685,-352,-1976,32,-60,439,222
690,-360,-1944,16,-45,406,234
695,-376,-1888,8,-34,375,237
700,-368,-1856,48,-26,336,242
705,-392,-1848,64,-21,303,240
710,-424,-1816,72,-16,266,244
715,-368,-1824,96,-7,218,259
720,-344,-1824,88,5,185,259
725,-368,-1832,88,4,162,237
730,-376,-1848,88,-2,138,221
735,-384,-1856,88,-2,113,207
740,-344,-1864,152,-1,88,200
745,-336,-1904,128,-2,67,186
750,-352,-1864,120,-7,44,176
755,-336,-1888,136,-12,25,162
760,-360,-1880,104,-17,8,153
765,-336,-1856,128,-22,-8,140
770,-352,-1856,120,-28,-21,132
775,-344,-1824,136,-36,-30,121
780,-296,-1832,136,-44,-33,112
785,-344,-1832,136,-49,-32,97
790,-304,-1832,136,-50,-28,84
795,-296,-1848,176,-52,-19,68
800,-280,-1848,152,-53,-10,53
805,-272,-1840,136,-57,-3,38
810,-272,-1864,168,-60,4,30
815,-232,-1912,160,-64,9,18
820,-232,-1920,104,-69,16,10
825,-216,-1960,120,-75,20,-4
830,-240,-1976,104,-80,28,-14
835,-232,-2016,80,-85,36,-28
840,-240,-2064,112,-86,47,-38
845,-248,-2080,88,-84,56,-52
850,-240,-2104,88,-82,67,-67
855,-232,-2136,80,-73,79,-84
860,-256,-2152,80,-66,87,-97
865,-264,-2184,64,-59,94,-112
870,-296,-2168,104,-52,100,-120
875,-328,-2200,128,-40,100,-131
880,-360,-2216,160,-22,92,-135
885,-376,-2184,192,-6,89,-141
890,-488,-2208,232,12,81,-139
895,-456,-2256,248,46,54,-121
900,-432,-2168,216,86,31,-138
905,-472,-2200,288,87,22,-135
910,-448,-2168,304,94,-1,-127
915,-464,-2160,328,96,-15,-123
920,-496,-2184,360,102,-33,-114
925,-464,-2184,432,119,-69,-109
930,-368,-2152,384,146,-115,-104
935,-296,-2136,408,151,-133,-103
940,-224,-2128,424,136,-125,-101
945,-144,-2160,440,97,-110,-103
950,-152,-2184,536,53,-93,-107
955,-120,-2224,528,18,-75,-114
960,-96,-2288,560,-4,-66,-117
965,-88,-2320,528,-14,-51,-124
970,-56,-2328,448,-32,-25,-124
975,-96,-2408,360,-46,3,-114
980,-264,-2576,256,-55,18,-73
985,-400,-2784,96,-73,15,-20
990,-496,-3040,-16,-95,0,27
995,-560,-3208,-272,-113,-18,59
1000,-592,-3304,-448,-153,-26,79
1005,-552,-3304,-544,-213,-21,93
1010,-432,-3232,-568,-299,-24,105
1015,-288,-3104,-464,-335,-62,96
1020,-872,-2848,-272,-298,-142,68
1025,-96,-2728,-440,-172,-295,75
1030,-120,-2512,-528,-57,-370,31
1035,-176,-2312,-536,-5,-401,-13
1040,-192,-2144,-568,23,-392,-36
1045,-200,-2072,-616,47,-328,-51
1050,-160,-2008,-600,76,-223,-66
1055,-96,-1944,-624,107,-100,-76
1060,-32,-1896,-640,134,51,-77
1065,32,-1840,-632,143,166,-76
1070,56,-1792,-720,143,271,-78
1075,104,-1760,-752,132,366,-76
1080,128,-1736,-792,117,450,-71
1085,184,-1720,-848,97,517,-65
1090,176,-1712,-864,76,566,-61
1095,192,-1744,-840,55,592,-59
1100,152,-1832,-792,38,595,-65
1105,96,-1896,-784,31,576,-68
1110,16,-1952,-672,23,529,-72
1115,-56,-2000,-624,16,471,-78
1120,-96,-2032,-560,14,400,-86
1125,-176,-2056,-464,11,324,-91
1130,-256,-2008,-416,8,247,-97
1135,-320,-1968,-328,14,167,-100
1140,-368,-1912,-312,30,83,-109
1145,-368,-1816,-304,48,9,-114
1150,-384,-1752,-312,53,-54,-121
1155,-400,-1688,-296,53,-107,-127
1160,-408,-1624,-272,50,-159,-140
1165,-400,-1592,-248,38,-196,-149
1170,-408,-1592,-296,21,-231,-154
1175,-368,-1584,-272,3,-263,-156
1180,-360,-1584,-224,-17,-295,-160
1185,-328,-1592,-240,-36,-327,-161
1190,32,-1672,-232,-66,-347,-173
1195,-240,-1552,-264,-85,-314,-230
1200,-368,-1568,-272,-113,-328,-247
1205,-320,-1560,-368,-147,-377,-208
1210,-280,-1568,-336,-186,-406,-163
1215,-216,-1608,-328,-213,-421,-129
1220,-168,-1592,-392,-229,-432,-104
1225,-120,-1648,-352,-239,-431,-87
1230,-104,-1672,-376,-237,-424,-84
1235,-96,-1720,-360,-225,-424,-82
1240,-96,-1720,-392,-220,-434,-90
1245,-96,-1768,-400,-229,-454,-92
1250,-88,-1816,-360,-242,-479,-101
1255,-80,-1856,-408,-251,-501,-101
1260,-72,-1872,-320,-255,-511,-113
1265,-24,-1872,-336,-257,-522,-123
1270,56,-1864,-320,-239,-497,-172
1275,152,-1904,-344,-217,-465,-232
1280,-96,-1896,-352,-222,-460,-277
1285,-80,-1944,-304,-237,-489,-250
1290,-48,-1936,-264,-237,-509,-219
1295,48,-1952,-280,-221,-515,-202
1300,88,-1984,-264,-212,-504,-208
1305,64,-1984,-248,-209,-488,-215
1310,64,-1976,-248,-211,-476,-226
1315,48,-2000,-224,-209,-464,-231
1320,0,-1984,-224,-210,-451,-239
1325,0,-1968,-184,-207,-437,-238
1330,-40,-1960,-200,-205,-422,-239
1335,-56,-1944,-224,-206,-409,-234
1340,-48,-1912,-216,-210,-398,-232
1345,-56,-1896,-232,-216,-391,-223
1350,-64,-1872,-216,-221,-386,-218
1355,-8,-1872,-232,-229,-388,-208
1360,-24,-1856,-232,-236,-390,-203
1365,32,-1872,-240,-241,-393,-193
1370,24,-1848,-208,-250,-390,-198
1375,-8,-1840,-160,-253,-394,-194
1380,0,-1872,-136,-249,-407,-188
1385,176,-1904,-160,-243,-415,-177
1390,-64,-1880,-104,-225,-386,-208
1395,8,-1944,-168,-216,-396,-186
1400,-128,-1928,-80,-219,-407,-168
1405,-80,-1984,-120,-208,-447,-107
1410,-48,-2016,-96,-187,-465,-65
1415,-32,-2040,-96,-156,-462,-26
1420,-48,-2080,-104,-119,-454,-10
1425,0,-2128,-72,-87,-450,11
1430,-56,-2168,-88,-53,-447,23
1435,-32,-2192,-120,-21,-438,39
1440,16,-2256,-120,3,-420,47
1445,176,-2240,-88,11,-385,41
1450,-72,-2248,-56,12,-334,12
1455,-48,-2280,-24,24,-329,33
1460,8,-2248,-32,37,-333,51
1465,96,-2256,8,43,-326,61
1470,136,-2208,40,44,-319,54
1475,168,-2176,56,45,-310,44
1480,240,-2152,104,54,-307,28
1485,256,-2104,144,65,-314,7
1490,232,-2072,208,77,-326,-20
1495,192,-2080,248,99,-345,-31
1500,168,-2064,272,125,-376,-28
1505,152,-2080,288,141,-418,-16
1510,128,-2128,312,154,-455,-12
1515,80,-2208,328,157,-489,-11
1520,40,-2304,344,155,-524,-16
1525,8,-2392,360,155,-543,-16
1530,-8,-2432,360,153,-558,-18
1535,-8,-2472,376,152,-567,-15
1540,-24,-2448,376,158,-579,-16
1545,-16,-2432,424,171,-592,-13
1550,-32,-2384,416,196,-604,-14
1555,-64,-2312,456,233,-616,-11
1560,-48,-2256,488,279,-626,-7
1565,-88,-2184,496,327,-639,2
1570,-128,-2136,424,375,-658,7
1575,-104,-2152,376,381,-695,6
1580,-88,-2200,192,374,-749,-26
1585,-40,-2416,72,395,-782,-52
1590,-88,-2728,-72,443,-808,-58
1595,-64,-3096,-464,480,-829,-46
1600,0,-3400,-720,449,-822,-44
1605,64,-3480,-1016,332,-767,-60
1610,136,-3456,-1112,147,-663,-101
1615,176,-3184,-1144,-26,-529,-177
1620,168,-2872,-1064,-125,-367,-248
1625,72,-2456,-1024,-117,-258,-301
1630,-32,-2120,-992,-80,-173,-331
1635,-152,-1832,-1032,-49,-106,-345
1640,-352,-1592,-1120,-31,-59,-353
1645,-616,-1384,-1056,-15,-41,-358
1650,-784,-1288,-992,20,-66,-353
1655,-944,-1224,-960,91,-132,-336
1660,-1024,-1280,-920,177,-221,-303
1665,-1000,-1464,-784,257,-321,-267
1670,-912,-1664,-704,337,-448,-240
1675,-808,-1848,-592,374,-547,-225
1680,-680,-2016,-480,372,-630,-223
1685,-600,-2072,-488,329,-689,-223
1690,-456,-2136,-400,254,-712,-217
1695,-280,-2176,-352,159,-707,-206
1700,-144,-2136,-280,58,-685,-189
1705,-32,-2080,-232,-40,-654,-161
1710,88,-2016,-200,-123,-623,-129
1715,168,-1912,-200,-191,-589,-96
1720,256,-1872,-256,-232,-540,-52
1725,304,-1832,-272,-253,-484,-15
1730,392,-1776,-296,-255,-419,20
1735,432,-1760,-344,-245,-350,49
1740,472,-1744,-424,-216,-279,78
1745,488,-1712,-448,-192,-204,97
1750,448,-1736,-472,-174,-124,110
1755,408,-1712,-488,-158,-47,125
1760,344,-1704,-456,-151,28,143
1765,272,-1688,-456,-144,97,159
1770,200,-1672,-472,-134,171,180
1775,144,-1664,-456,-133,229,194
1780,96,-1640,-464,-137,283,205
1785,56,-1600,-456,-138,334,214
1790,-160,-1560,-328,-134,373,224
1795,24,-1568,-536,-109,379,261
1800,56,-1576,-472,-101,423,262
1805,32,-1568,-440,-119,476,231
1810,24,-1608,-464,-141,506,217
1815,48,-1616,-448,-160,528,209
1820,-40,-1672,-416,-174,561,196
1825,16,-1704,-432,-177,578,192
1830,40,-1760,-424,-179,602,192
1835,-48,-1840,-416,-182,631,185
1840,-288,-1848,-288,-174,642,200
1845,0,-1976,-464,-133,623,250
1850,-32,-1960,-432,-139,669,241
1855,-160,-2000,-408,-159,711,220
1860,-112,-2016,-424,-151,715,227
1865,-88,-2040,-432,-132,725,220
1870,-136,-2072,-384,-125,755,193
1875,-224,-2064,-368,-110,773,177
1880,-224,-2080,-328,-89,780,171
1885,-296,-2088,-288,-63,787,162
1890,-368,-2080,-248,-35,793,162
1895,-368,-2112,-192,-13,788,165
1900,-504,-2096,8,14,769,178
1905,-264,-2096,-216,71,730,212
1910,-264,-2112,-152,91,738,186
1915,-296,-2120,-96,66,752,126
1920,-304,-2120,-72,42,752,77
1925,-296,-2088,-8,36,742,51
1930,-280,-2080,8,41,735,37
1935,-248,-2032,0,45,733,21
1940,-256,-1984,40,45,736,4
1945,-248,-1928,72,46,741,-13
1950,-264,-1856,80,48,746,-25
1955,-240,-1816,96,52,749,-40
1960,-232,-1800,88,58,753,-50
1965,-216,-1736,88,61,755,-64
1970,-216,-1744,88,68,756,-75
1975,-216,-1736,96,74,752,-88
1980,-216,-1768,104,80,744,-97
1985,-232,-1800,56,88,731,-109
1990,-216,-1832,64,94,716,-116
1995,-216,-1840,80,97,696,-128
2000,-240,-1872,24,96,673,-136
2005,-240,-1896,0,93,648,-147
2010,-272,-1944,-32,94,618,-152
2015,-288,-1968,-32,98,584,-159
2020,-328,-1992,-56,100,549,-157
2025,-424,-2024,-80,105,504,-155
2030,-496,-2040,-8,119,466,-144
2035,-608,-2080,-24,135,428,-129
2040,-672,-2104,8,152,384,-100
2045,-704,-2192,24,173,337,-72
2050,-680,-2288,64,197,288,-36
2055,-672,-2344,152,225,242,-1
2060,-632,-2360,232,257,199,31
2065,-560,-2344,296,290,159,56
2070,-496,-2264,400,319,119,91
2075,-384,-2224,472,333,69,106
2080,-312,-2144,568,344,26,119
2085,-208,-2120,656,366,-18,123
2090,-200,-2080,760,397,-52,131
2095,-64,-2056,872,466,-98,142
2100,32,-2008,880,536,-112,142
2105,80,-1984,936,557,-86,131
2110,120,-1968,936,551,-64,132
2115,304,-2016,760,490,-43,126
2120,560,-2256,856,422,-26,122
2125,352,-2592,704,481,30,138
2130,32,-2896,272,617,91,197
2135,-8,-3256,-344,634,177,283
2140,-96,-3480,-816,535,312,344
2145,-368,-3552,-1488,333,435,346
2150,-592,-3512,-1768,17,475,354
2155,-696,-3464,-1632,-284,430,384
2160,-664,-3232,-1400,-425,291,431
2165,-648,-2928,-1232,-404,100,471
2170,-600,-2512,-1176,-291,-94,514
2175,-448,-2208,-1240,-158,-267,561
2180,-288,-1984,-1296,-1,-342,600
2185,-48,-1752,-1312,109,-349,612
2190,216,-1664,-1256,208,-298,606
2195,440,-1784,-1080,318,-201,574
2200,576,-1920,-952,442,-76,536
2205,688,-2120,-840,550,64,497
2210,768,-2232,-744,615,208,476
2215,840,-2408,-616,608,339,448
2220,776,-2520,-472,577,452,415
2225,688,-2520,-400,550,523,375
2230,568,-2424,-400,468,538,342
2235,416,-2304,-360,372,537,299
2240,288,-2160,-392,272,523,249
2245,88,-1992,-392,162,511,175
2250,-88,-1896,-384,42,504,94
2255,-280,-1792,-360,-72,497,-4
2260,-432,-1680,-328,-165,476,-87
2265,-456,-1592,-328,-246,448,-164
2270,-648,-1520,-384,-319,419,-237
2275,-664,-1512,-408,-379,419,-303
2280,-792,-1440,-344,-426,430,-350
2285,-848,-1448,-344,-432,396,-363
2290,-912,-1384,-328,-403,328,-354
2295,-888,-1392,-296,-339,250,-334
2300,-752,-1400,-344,-266,183,-298
2305,-664,-1352,-312,-211,132,-262
2310,-520,-1384,-312,-176,88,-208
2315,-504,-1368,-264,-147,75,-195
2320,-472,-1384,-192,-135,32,-182
2325,-232,-1464,-248,-142,-68,-135
2330,-144,-1472,-232,-167,-125,-125
2335,-88,-1512,-200,-190,-160,-145
2340,-40,-1552,-208,-219,-196,-148
2345,64,-1568,-192,-247,-227,-131
2350,184,-1600,-248,-273,-227,-131
2355,48,-1568,-184,-306,-210,-159
2360,56,-1592,-192,-335,-245,-127
2365,168,-1672,-216,-338,-295,-85
2370,200,-1704,-240,-331,-326,-74
2375,216,-1712,-224,-324,-314,-96
2380,128,-1720,-216,-325,-293,-109
2385,96,-1768,-184,-327,-288,-106
2390,136,-1816,-176,-322,-297,-99
2395,128,-1856,-136,-304,-303,-104
2400,152,-1872,-168,-280,-307,-106
2405,144,-1912,-176,-247,-298,-123
2410,152,-1944,-168,-199,-272,-149
2415,80,-1904,-152,-161,-253,-164
2420,144,-1936,-136,-154,-261,-142
2425,160,-1952,-112,-149,-259,-126
2430,184,-2016,-96,-118,-237,-125
2435,160,-2024,-104,-86,-200,-132
2440,168,-2016,-72,-61,-169,-125
2445,144,-2048,-8,-44,-147,-112
2450,120,-2032,-16,-30,-126,-90
2455,128,-2064,40,-28,-118,-63
2460,88,-2072,40,-32,-115,-29
2465,88,-2096,88,-36,-121,11
2470,88,-2136,72,-28,-124,43
2475,72,-2144,88,-11,-127,73
2480,80,-2128,120,9,-134,91
2485,88,-2144,160,26,-149,102
2490,104,-2136,216,39,-168,111
2495,96,-2120,184,47,-186,116
2500,80,-2080,192,58,-201,117
2505,56,-2032,192,67,-214,118
2510,56,-1976,136,68,-229,124
2515,80,-1960,112,65,-238,131
2520,64,-1912,96,58,-241,137
2525,64,-1936,64,49,-240,142
2530,80,-2000,72,39,-235,147
2535,112,-2048,88,33,-232,148
2540,72,-2112,72,32,-227,143
2545,80,-2192,56,34,-219,135
2550,56,-2272,64,44,-213,121
2555,40,-2328,72,56,-209,102
2560,48,-2392,64,70,-206,82
2565,32,-2440,40,85,-202,59
2570,40,-2488,72,98,-198,33
2575,64,-2512,96,113,-190,7
2580,64,-2504,192,134,-183,-16
2585,64,-2496,256,156,-169,-39
2590,96,-2504,360,181,-147,-63
2595,120,-2464,392,211,-123,-92
2600,136,-2368,472,242,-97,-126
2605,184,-2264,544,269,-81,-148
2610,160,-2200,608,302,-72,-172
2615,152,-2072,688,332,-73,-190
2620,120,-2000,728,350,-84,-199
2625,56,-1952,720,355,-117,-190
2630,-104,-2024,736,335,-167,-176
2635,-232,-2136,728,323,-276,-170
2640,-176,-2360,544,363,-415,-186
2645,-248,-2712,312,457,-484,-206
2650,-312,-3104,-80,564,-506,-216
2655,-208,-3440,-632,603,-510,-232
2660,-48,-3544,-1088,507,-470,-277
2665,104,-3440,-1416,279,-363,-350
2670,192,-3296,-1392,25,-181,-445
2675,344,-2968,-1096,-146,50,-558
2680,440,-2600,-816,-213,195,-639
2685,464,-2288,-672,-173,298,-693
2690,376,-2040,-688,-92,368,-726
2695,160,-1768,-832,-27,406,-738
2700,-176,-1536,-888,2,408,-730
2705,-432,-1448,-928,3,361,-684
2710,-664,-1360,-856,26,290,-625
2715,-952,-1368,-760,65,186,-546
2720,-1152,-1544,-688,132,62,-467
2725,-1240,-1832,-520,212,-62,-391
2730,-1264,-2064,-480,287,-213,-362
2735,-1240,-2224,-448,297,-324,-343
2740,-1144,-2360,-416,256,-410,-328
2745,-968,-2416,-368,187,-467,-307
2750,-792,-2400,-320,114,-503,-286
2755,-552,-2320,-288,46,-524,-256
2760,-344,-2208,-248,-15,-532,-227
2765,-96,-2096,-296,-66,-532,-182
2770,96,-1976,-256,-113,-514,-135
2775,232,-1864,-288,-155,-478,-75
2780,352,-1784,-280,-195,-415,-28
2785,408,-1776,-328,-210,-346,15
2790,480,-1776,-320,-202,-270,58
2795,536,-1816,-320,-175,-187,100
2800,568,-1840,-400,-142,-101,128
2805,632,-1840,-440,-124,-11,147
2810,672,-1832,-448,-129,82,149
2815,648,-1752,-496,-149,174,148
2820,632,-1736,-424,-174,262,136
2825,568,-1712,-432,-188,345,126
2830,480,-1672,-416,-201,423,116
2835,416,-1632,-376,-202,485,115
2840,328,-1584,-400,-193,556,105
2845,208,-1544,-384,-179,629,107
2850,144,-1512,-360,-152,693,118
2855,16,-1512,-336,-117,754,141
2860,-40,-1528,-344,-84,801,153
2865,-96,-1544,-328,-73,820,173
2870,-592,-1480,-520,-75,812,194
2875,-48,-1800,-208,-53,690,318
2880,24,-1752,-328,-43,713,252
2885,-112,-1792,-216,-51,771,155
2890,-264,-1744,-272,-72,798,119
2895,-176,-1912,-8,-107,755,184
2900,-392,-1792,-120,-110,705,242
2905,-96,-1984,-184,-74,685,252
2910,-48,-2016,-224,-36,721,198
2915,-128,-2008,-224,-22,767,136
2920,-320,-1984,-160,-27,793,89
2925,-344,-1984,-168,-24,779,98
2930,-472,-1984,8,-17,770,107
2935,-344,-2008,-120,12,741,139
2940,-384,-2008,-64,27,732,133
2945,-456,-1992,0,25,721,115
2950,-504,-1968,64,23,701,96
2955,-536,-1976,80,25,670,88
2960,-568,-1976,128,38,633,78
2965,-560,-1992,152,58,591,76
2970,-536,-2016,176,79,549,68
2975,-528,-1984,176,92,499,57
2980,-488,-2024,216,99,457,41
2985,-448,-1984,168,101,414,31
2990,-392,-1944,192,92,369,16
2995,-360,-1912,168,80,329,10
3000,-320,-1848,128,65,295,-4
3005,-328,-1816,136,38,268,-18
3010,-280,-1728,104,10,246,-39
3015,-288,-1736,104,-18,231,-56
3020,-272,-1712,128,-40,218,-73
3025,-256,-1688,120,-51,205,-92
3030,-240,-1720,96,-51,194,-110
3035,-184,-1792,120,-47,180,-121
3040,-184,-1856,104,-37,165,-135
3045,-144,-1928,88,-28,144,-146
3050,-144,-1928,104,-20,121,-158
3055,-144,-1952,72,-10,95,-164
3060,-160,-1976,88,-3,72,-168
3065,-168,-1992,64,5,48,-165
3070,-184,-1984,80,15,25,-162
3075,-224,-1984,72,26,-2,-147
3080,-240,-2008,48,38,-24,-133
3085,-288,-2048,40,51,-43,-110
3090,-288,-2088,64,66,-53,-85
3095,-240,-2136,104,89,-52,-57
3100,-224,-2192,160,122,-38,-33
3105,-144,-2248,256,161,-14,-9
3110,-56,-2312,360,201,17,10
3115,24,-2200,360,242,46,27
3120,112,-2224,528,278,71,41
3125,208,-2080,592,317,85,56
3130,248,-2016,624,363,92,63
3135,288,-1896,720,400,104,69
3140,312,-1840,792,448,110,83
3145,112,-1744,872,497,130,103
3150,432,-1760,800,542,153,136
3155,352,-1752,608,531,194,136
3160,848,-1928,576,475,204,139
3165,752,-2128,560,463,302,116
3170,344,-2576,344,482,412,129
3175,56,-3120,96,498,463,179
3180,-256,-3616,-240,511,538,244
3185,-608,-4000,-752,483,638,326
3190,-760,-4208,-1328,350,746,410
3195,-768,-4224,-1712,122,848,494
3200,-736,-3992,-1648,-119,903,560
3205,-720,-3656,-1480,-280,827,597
3210,-720,-3000,-1256,-319,603,604
3215,-656,-2384,-1080,-280,319,613
3220,-520,-1912,-984,-197,59,631
3225,-224,-1592,-960,-78,-159,648
3230,120,-1448,-1040,70,-241,629
3235,408,-1488,-992,173,-233,578
3240,544,-1640,-952,263,-153,506
3245,656,-1896,-912,348,-16,438
3250,688,-2136,-840,408,162,382
3255,712,-2384,-736,420,365,338
3260,688,-2528,-648,384,563,305
3265,640,-2552,-560,313,729,269
3270,496,-2520,-488,218,851,230
3275,336,-2432,-432,120,945,172
3280,176,-2344,-384,11,987,118
3285,-16,-2168,-352,-68,994,66
3290,-208,-2000,-288,-143,963,9
3295,-376,-1824,-272,-213,892,-45
3300,-528,-1688,-240,-272,792,-89
3305,-656,-1592,-272,-316,669,-124
3310,-720,-1552,-272,-342,539,-152
3315,-872,-1504,-296,-359,411,-180
3320,-960,-1496,-360,-369,285,-193
3325,-1048,-1480,-400,-379,125,-195
3330,-1096,-1480,-424,-408,-6,-189
3335,-1048,-1472,-376,-421,-116,-178
3340,-1088,-1504,-408,-424,-205,-162
3345,-1048,-1488,-360,-433,-292,-137
3350,-952,-1496,-360,-431,-367,-118
3355,-840,-1496,-328,-431,-428,-103
3360,-648,-1504,-312,-423,-481,-93
3365,-528,-1496,-312,-411,-522,-91
3370,-416,-1456,-320,-403,-552,-88
3375,-208,-1480,-272,-399,-579,-81
3380,-40,-1496,-280,-403,-581,-70
3385,264,-1552,-312,-406,-562,-78
3390,24,-1552,-256,-400,-486,-140
3395,136,-1632,-232,-395,-461,-142
3400,224,-1664,-208,-387,-439,-130
3405,424,-1688,-248,-386,-401,-125
3410,200,-1656,-168,-405,-371,-129
3415,184,-1704,-224,-417,-390,-90
3420,232,-1800,-256,-416,-412,-50
3425,224,-1888,-272,-408,-407,-56
3430,200,-1936,-288,-404,-388,-81
3435,152,-1976,-272,-397,-371,-114
3440,152,-1984,-320,-390,-360,-141
3445,96,-1976,-256,-391,-353,-159
3450,112,-1976,-288,-385,-349,-168
3455,176,-2032,-192,-386,-339,-183
3460,296,-2048,-208,-375,-325,-201
3465,96,-2040,-136,-357,-289,-259
3470,72,-2040,-120,-347,-299,-239
3475,96,-2008,-104,-336,-308,-207
3480,120,-2008,-64,-305,-310,-164
3485,208,-1976,-32,-263,-294,-134
3490,224,-1984,-16,-218,-270,-111
3495,232,-2000,-16,-169,-250,-93
3500,232,-1976,0,-127,-230,-72
3505,232,-1992,-24,-90,-211,-54
3510,216,-2008,0,-66,-190,-33
3515,184,-2024,0,-48,-172,-11
3520,160,-2064,24,-38,-157,16
3525,144,-2056,16,-30,-147,36
3530,144,-2072,24,-31,-143,53
3535,112,-2040,32,-34,-139,65
3540,104,-2008,24,-38,-139,87
3545,88,-1976,56,-35,-135,108
3550,104,-1952,64,-32,-128,128
3555,136,-1936,40,-29,-119,145
3560,144,-1896,72,-24,-107,161
3565,128,-1880,88,-12,-95,170
3570,184,-1920,88,5,-80,177
3575,128,-1936,104,28,-58,162
3580,136,-2008,128,49,-48,165
3585,112,-2088,152,74,-44,165
3590,120,-2120,176,96,-46,159
3595,120,-2168,136,108,-50,140
3600,96,-2200,112,112,-55,122
3605,88,-2216,104,112,-59,96
3610,72,-2176,72,109,-64,71
3615,56,-2144,64,101,-65,40
3620,104,-2144,56,98,-61,12
3625,80,-2128,64,94,-49,-15
3630,80,-2112,56,91,-34,-36
3635,80,-2168,88,87,-16,-59
3640,72,-2192,88,86,3,-74
3645,72,-2200,120,87,26,-90
3650,72,-2224,192,96,50,-98
3655,88,-2248,296,112,74,-108
3660,112,-2248,336,132,100,-114
3665,128,-2272,408,156,118,-125
3670,120,-2232,464,183,134,-132
3675,128,-2208,544,218,141,-142
3680,152,-2224,584,243,138,-148
3685,128,-2152,600,265,128,-157
3690,136,-2136,656,283,104,-159
3695,80,-2152,632,286,63,-162
3700,-40,-2272,520,262,-28,-176
3705,-32,-2392,424,235,-131,-215
3710,-64,-2688,384,247,-178,-250
3715,-56,-3032,104,299,-213,-270
3720,16,-3312,-264,310,-265,-284
3725,80,-3464,-664,184,-277,-308
3730,184,-3480,-936,-8,-226,-331
3735,240,-3336,-976,-213,-111,-366
3740,264,-3088,-960,-336,42,-411
3745,272,-2832,-760,-346,208,-460
3750,280,-2592,-648,-273,362,-489
3755,272,-2312,-680,-176,500,-510
3760,216,-2072,-688,-96,637,-516
3765,96,-1880,-728,-45,763,-511
3770,-8,-1760,-808,-13,877,-484
3775,-208,-1608,-824,14,919,-468
3780,-440,-1528,-872,30,908,-454
3785,-696,-1440,-840,40,828,-434
3790,-880,-1376,-832,57,683,-383
3795,-1232,-1352,-800,71,506,-333
3800,-1296,-1440,-760,83,286,-239
3805,-1272,-1544,-760,97,70,-158
3810,-1192,-1720,-648,111,-119,-103
3815,-1064,-1960,-552,124,-276,-76
3820,-920,-2120,-480,136,-416,-58
3825,-688,-2200,-448,118,-491,-67
3830,-464,-2264,-384,72,-527,-80
3835,-272,-2208,-328,9,-521,-93
3840,-64,-2144,-288,-54,-481,-90
3845,80,-2056,-232,-111,-409,-73
3850,184,-1952,-232,-164,-318,-45
3855,264,-1848,-200,-208,-216,-27
3860,312,-1816,-240,-227,-103,-15
3865,384,-1824,-264,-227,11,-8
3870,448,-1848,-312,-216,146,11
3875,496,-1920,-320,-199,254,29
3880,560,-1936,-384,-192,359,46
3885,560,-1968,-360,-199,457,54
3890,584,-1992,-432,-207,541,63
3895,560,-1992,-456,-210,620,68
3900,520,-1944,-456,-208,689,78
3905,448,-1904,-504,-203,741,88
3910,424,-1864,-456,-201,789,94
3915,344,-1776,-480,-183,838,97
3920,216,-1672,-400,-165,886,109
3925,160,-1664,-352,-152,911,129
3930,96,-1608,-360,-129,926,145
3935,40,-1584,-328,-106,936,152
3940,-40,-1608,-280,-85,937,165
3945,-80,-1640,-296,-61,940,177
3950,-264,-1632,-216,-34,947,183
3955,-256,-1704,-176,-5,924,213
3960,8,-1752,-288,17,897,244
3965,48,-1816,-280,-3,927,207
3970,-184,-1808,-64,-22,963,197
3975,-88,-1808,-240,-18,934,217
3980,-112,-1816,-232,-47,907,217
3985,-168,-1864,-208,-68,898,212
3990,-200,-1880,-240,-78,894,215
3995,-264,-1888,-200,-85,893,214
4000,-344,-1912,-176,-77,893,223
4005,-408,-1912,-176,-64,896,231
4010,-456,-1896,-136,-46,884,248
4015,-512,-1960,-120,-25,858,266
4020,-544,-1968,-80,16,810,284
4025,-568,-1952,-72,52,757,288
4030,-608,-1976,-56,69,702,285
4035,-608,-1976,-64,73,643,273
4040,-624,-1976,-56,77,584,260
4045,-616,-2000,-8,80,525,243
4050,-592,-1976,48,79,468,226
4055,-560,-1976,64,76,420,198
4060,-552,-1984,88,76,374,168
4065,-504,-2016,152,80,334,131
4070,-456,-1992,160,99,293,102
4075,-432,-1976,152,120,266,69
4080,-392,-1960,208,136,244,39
4085,-336,-1920,264,149,229,11
4090,-456,-1888,288,161,219,-13
4095,-296,-1880,208,216,167,0
4100,-256,-1776,232,275,147,6
4105,-224,-1736,136,264,162,-20
4110,-184,-1712,128,208,174,-58
4115,-232,-1704,136,140,173,-109
4120,-272,-1752,128,80,150,-136
4125,-280,-1840,160,63,122,-154
4130,-264,-1880,128,55,93,-167
4135,-264,-1960,104,50,63,-178
4140,-248,-2000,64,50,34,-187
4145,-264,-2056,64,55,5,-197
4150,-264,-2080,48,62,-23,-204
4155,-256,-2088,48,71,-48,-207
4160,-264,-2112,24,81,-70,-208
4165,-280,-2144,56,95,-91,-201
4170,-320,-2144,64,118,-102,-190
4175,-344,-2184,80,138,-107,-170
4180,-400,-2200,128,159,-114,-143
4185,-392,-2248,192,185,-116,-108
4190,-344,-2296,248,218,-116,-72
4195,-328,-2304,304,255,-112,-35
4200,-264,-2304,408,302,-106,-2
4205,-184,-2296,440,348,-107,28
4210,-104,-2248,488,386,-113,50
4215,-40,-2176,584,412,-128,76
4220,40,-2200,656,435,-142,90
4225,120,-2128,728,469,-155,88
4230,184,-2056,752,490,-159,90
4235,0,-2056,880,487,-155,109
4240,512,-2120,656,537,-197,153
4245,632,-2376,568,597,-159,175
4250,296,-2768,400,631,-69,191
4255,64,-3168,192,621,9,252
4260,56,-3592,-152,574,75,339
4265,-64,-3848,-424,535,194,414
4270,-280,-3872,-920,488,288,485
4275,-320,-3872,-1232,352,394,536
4280,-448,-3656,-1096,151,462,522
4285,-496,-3352,-784,21,391,506
4290,-536,-2952,-624,-11,205,497
4295,-536,-2536,-576,24,-4,506
4300,-472,-2072,-664,82,-150,515
4305,-400,-1736,-776,131,-210,527
4310,-160,-1440,-864,161,-186,517
4315,120,-1232,-936,200,-64,474
4320,360,-1208,-872,225,87,406
4325,504,-1296,-848,261,245,338
4330,640,-1560,-832,305,400,276
4335,696,-1736,-824,332,551,231
4340,688,-1848,-760,320,701,194
4345,680,-2048,-680,281,837,174
4350,616,-2136,-600,230,945,161
4355,504,-2232,-512,166,1018,154
4360,360,-2224,-456,93,1057,133
4365,152,-2216,-416,17,1064,110
4370,-16,-2136,-400,-36,1038,80
4375,-160,-2048,-352,-85,986,56
4380,-264,-1960,-336,-145,910,20
4385,-376,-1848,-344,-214,815,-18
4390,-432,-1736,-376,-283,714,-57
4395,-512,-1696,-344,-347,623,-91
4400,-608,-1688,-312,-399,548,-130
4405,-744,-1664,-304,-418,486,-167
4410,-712,-1648,-328,-410,416,-209
4415,-720,-1632,-384,-412,377,-250
4420,-968,-1640,-264,-452,383,-274
4425,-1088,-1640,-144,-472,307,-249
4430,-808,-1680,-136,-431,174,-217
4435,-672,-1552,-192,-371,71,-228
4440,-720,-1536,-184,-342,31,-257
4445,-568,-1584,-152,-368,-4,-273
4450,-536,-1568,-120,-372,-40,-290
4455,-368,-1568,-120,-355,-100,-266
4460,-248,-1584,-104,-330,-141,-248
4465,-144,-1616,-64,-319,-177,-237
4470,-96,-1592,-64,-316,-215,-212
4475,8,-1624,-72,-314,-247,-170
4480,152,-1696,-80,-316,-260,-140
4485,192,-1744,-88,-318,-252,-125
4490,184,-1752,-80,-318,-238,-119
4495,224,-1808,-104,-317,-227,-108
4500,248,-1848,-112,-318,-217,-110
4505,376,-1856,-160,-331,-197,-129
4510,184,-1840,-104,-346,-142,-201
4515,72,-1832,-80,-389,-132,-239
4520,32,-1864,-64,-416,-175,-236
4525,40,-1864,-56,-416,-236,-216
4530,80,-1888,-72,-395,-275,-219
4535,-24,-1864,0,-370,-300,-223
4540,48,-1880,-8,-345,-344,-202
4545,72,-1888,-40,-322,-380,-175
4550,160,-1872,-8,-303,-400,-158
4555,176,-1848,24,-288,-404,-148
4560,224,-1816,24,-278,-400,-141
4565,232,-1824,32,-263,-388,-129
4570,224,-1848,32,-242,-378,-122
4575,256,-1896,48,-216,-363,-113
4580,240,-1896,56,-183,-344,-108
4585,232,-1952,56,-154,-322,-90
4590,256,-1960,56,-132,-299,-74
4595,208,-2040,48,-112,-270,-53
4600,168,-2048,56,-97,-254,-28
4605,168,-2072,32,-86,-243,5
4610,176,-2096,8,-78,-233,37
4615,176,-2128,0,-69,-215,58
4620,96,-2136,16,-63,-198,71
4625,104,-2128,-16,-61,-187,97
4630,64,-2096,40,-57,-179,112
4635,80,-2072,56,-50,-169,129
4640,80,-2016,56,-40,-164,139
4645,80,-2016,64,-30,-164,150
4650,40,-1952,48,-17,-167,154
4655,48,-1928,48,2,-173,165
4660,16,-1936,48,21,-178,166
4665,32,-1968,40,37,-178,168
4670,40,-2000,48,43,-170,159
4675,56,-2064,56,40,-163,151
4680,56,-2096,48,32,-156,135
4685,32,-2096,32,25,-151,119
4690,64,-2152,32,12,-150,96
4695,8,-2192,56,2,-148,78
4700,8,-2224,40,-1,-145,56
4705,-16,-2280,48,0,-139,38
4710,-16,-2320,72,9,-136,9
4715,-48,-2384,144,34,-134,-9
4720,-40,-2400,168,66,-135,-34
4725,-72,-2368,224,103,-136,-54
4730,-56,-2360,272,137,-137,-81
4735,-56,-2280,352,172,-133,-104
4740,-24,-2184,416,203,-128,-125
4745,-48,-2080,456,235,-125,-138
4750,-56,-2008,512,261,-123,-148
4755,-64,-1928,568,286,-122,-153
4760,-96,-1888,576,306,-122,-155
4765,-176,-1944,616,306,-145,-158
4770,-96,-2056,488,292,-195,-193
4775,-72,-2288,504,285,-223,-244
4780,-152,-2688,520,334,-241,-281
4785,-160,-3096,248,413,-280,-286
4790,-72,-3408,-48,430,-317,-288
4795,32,-3568,-320,358,-327,-310
4800,248,-3616,-704,194,-305,-358
4805,368,-3408,-904,-3,-246,-440
4810,472,-3128,-1008,-163,-143,-547
4815,528,-2824,-992,-243,-18,-609
4820,496,-2552,-976,-245,137,-642
4825,424,-2336,-1008,-229,296,-632
4830,248,-2096,-1040,-229,434,-592
4835,64,-1928,-1008,-250,530,-529
4840,-192,-1680,-944,-273,579,-463
4845,-496,-1464,-904,-272,584,-396
4850,-816,-1344,-792,-226,543,-334
4855,-1032,-1352,-784,-114,448,-262
4860,-1152,-1472,-768,29,298,-185
4865,-1120,-1648,-768,177,153,-129
4870,-1128,-1840,-744,244,-3,-93
4875,-1040,-2072,-672,258,-166,-62
4880,-904,-2296,-608,237,-316,-39
4885,-704,-2432,-504,199,-443,-23
4890,-504,-2488,-432,146,-538,-14
4895,-272,-2480,-336,77,-587,-1
4900,-64,-2416,-272,-1,-590,18
4905,144,-2240,-208,-77,-549,44
4910,256,-2144,-176,-140,-456,71
4915,336,-2016,-184,-185,-355,89
4920,416,-1888,-152,-187,-243,100
4925,448,-1848,-200,-158,-127,109
4930,464,-1824,-296,-111,-13,119
4935,496,-1848,-344,-61,95,130
4940,504,-1856,-416,-16,193,138
4945,512,-1880,-448,14,285,141
4950,488,-1856,-472,19,378,138
4955,432,-1856,-544,9,468,137
4960,376,-1856,-560,-23,569,136
4965,312,-1856,-544,-58,644,132
4970,232,-1792,-568,-94,710,124
4975,152,-1744,-520,-129,765,113
4980,88,-1680,-520,-157,805,105
4985,80,-1656,-488,-173,833,98
4990,8,-1584,-448,-180,850,92
4995,-72,-1552,-416,-180,854,91
5000,-96,-1544,-336,-182,842,94
5005,-144,-1560,-264,-166,814,92
5010,-176,-1608,-264,-143,769,95
5015,-200,-1640,-248,-128,735,99
5020,-192,-1728,-272,-115,710,99
5025,-200,-1768,-248,-106,699,97
5030,-264,-1792,-248,-105,691,95
5035,-248,-1824,-240,-103,679,106
5040,-496,-1880,-176,-100,667,122
5045,-136,-1928,-288,-52,629,183
5050,-96,-1912,-304,-45,660,166
5055,-184,-1960,-224,-70,708,101
5060,-240,-1968,-264,-84,731,77
5065,-320,-1984,-200,-80,729,78
5070,-392,-1952,-176,-65,719,88
5075,-408,-1992,-168,-44,709,97
5080,-480,-1984,-72,-21,699,104
5085,-488,-2008,-72,5,678,112
5090,-480,-2016,-56,31,643,117
5095,-520,-2016,-40,55,599,113
5100,-528,-2000,16,71,547,110
5105,-608,-1976,88,91,484,129
5110,-384,-2016,-32,133,409,150
5115,-384,-2000,64,127,383,120
5120,-368,-1984,72,121,354,91
5125,-328,-1936,72,120,326,65
5130,-312,-1896,112,114,303,42
5135,-312,-1880,120,111,283,24
5140,-256,-1856,96,114,268,11
5145,-224,-1800,128,105,264,-13
5150,-208,-1784,176,88,255,-42
5155,-224,-1728,192,72,242,-75
5160,-256,-1736,192,58,222,-94
5165,-216,-1712,184,48,204,-114
5170,-232,-1712,184,41,188,-129
5175,-216,-1704,168,38,169,-145
5180,-232,-1736,144,45,150,-155
5185,-216,-1792,152,51,131,-169
5190,-216,-1808,136,56,112,-178
5195,-192,-1864,136,63,92,-187
5200,-160,-1888,136,71,72,-190
5205,-144,-1952,112,86,55,-198
5210,-96,-1960,88,105,48,-202
5215,-120,-1960,80,122,40,-208
5220,-88,-1984,64,134,35,-215
5225,-96,-1992,16,144,27,-218
5230,-136,-1968,-16,147,20,-210
5235,-136,-1976,-8,147,15,-199
5240,-184,-2008,32,152,13,-177
5245,-176,-2064,72,164,17,-155
5250,-160,-2112,120,179,28,-131
5255,-96,-2144,160,201,51,-108
5260,-80,-2168,216,226,76,-91
5265,-48,-2160,328,242,95,-75
5270,32,-2152,408,261,111,-52
5275,56,-2112,512,280,124,-30
5280,88,-2080,600,299,141,-6
5285,40,-2000,656,323,158,18
5290,96,-2024,712,355,178,54
5295,16,-1952,728,378,213,77
5300,128,-2008,648,379,227,110
5305,320,-2208,608,393,231,184
5310,200,-2560,560,470,273,240
5315,72,-3032,416,526,299,270
5320,-72,-3384,256,567,315,311
5325,-232,-3616,88,589,345,364
5330,-448,-3840,-240,576,386,440
5335,-560,-3984,-744,483,453,494
5340,-528,-3928,-1008,296,525,534
5345,-416,-3696,-1032,95,551,539
5350,-328,-3304,-968,-47,483,512
5355,-272,-2872,-912,-113,298,476
5360,-264,-2392,-840,-95,122,453
5365,-240,-2032,-824,-44,-24,441
5370,-96,-1672,-848,11,-106,450
5375,80,-1448,-896,55,-122,445
5380,248,-1296,-936,94,-73,428
5385,416,-1288,-888,145,29,394
5390,520,-1416,-880,200,179,356
5395,600,-1552,-856,246,354,317
5400,648,-1672,-824,274,538,279
5405,640,-1832,-696,282,745,248
5410,616,-2016,-664,272,892,231
5415,488,-2192,-560,246,1015,220
5420,376,-2328,-528,206,1112,219
5425,192,-2392,-456,159,1174,211
5430,16,-2376,-480,108,1197,206
5435,-88,-2328,-440,48,1183,193
5440,-168,-2224,-440,-15,1139,175
5445,-296,-2096,-432,-73,1059,148
5450,-376,-1936,-400,-139,945,100
5455,-472,-1824,-408,-218,783,52
5460,-560,-1776,-360,-269,640,13
5465,-632,-1768,-312,-301,499,-25
5470,-728,-1752,-264,-319,366,-53
5475,-784,-1736,-248,-325,244,-75
5480,-880,-1752,-240,-326,142,-85
5485,-968,-1760,-192,-322,57,-96
5490,-968,-1728,-184,-317,-18,-102
5495,-920,-1760,-184,-317,-71,-111
5500,-912,-1752,-128,-319,-108,-125
5505,-896,-1728,-120,-306,-130,-131
5510,-736,-1712,-144,-295,-160,-121
5515,-560,-1688,-168,-292,-193,-118
5520,-424,-1616,-144,-285,-226,-132
5525,-408,-1568,-152,-280,-232,-144
5530,-336,-1632,-80,-302,-252,-134
5535,-232,-1640,-16,-321,-304,-129
5540,-96,-1664,-32,-328,-335,-109
5545,32,-1728,-24,-332,-334,-99
5550,80,-1784,16,-330,-320,-91
5555,160,-1808,-24,-333,-325,-77
5560,168,-1840,-40,-334,-331,-59
5565,240,-1880,-64,-340,-338,-45
5570,280,-1816,-72,-356,-350,-42
5575,256,-1816,-96,-378,-369,-60
5580,248,-1824,-96,-396,-391,-70
5585,200,-1800,-184,-401,-407,-79
5590,192,-1832,-72,-396,-414,-86
5595,192,-1856,-104,-381,-409,-106
5600,184,-1888,-80,-345,-382,-157
5605,96,-1888,-72,-305,-363,-201
5610,48,-1888,-80,-272,-356,-203
5615,48,-1872,-104,-250,-346,-197
5620,96,-1904,-120,-238,-331,-184
5625,88,-1888,-64,-227,-308,-178
5630,128,-1864,-96,-214,-281,-165
5635,168,-1880,-80,-196,-260,-151
5640,176,-1864,-96,-176,-238,-134
5645,192,-1832,-112,-156,-217,-115
5650,152,-1800,-80,-142,-201,-92
5655,144,-1792,-72,-134,-187,-69
5660,144,-1800,-48,-127,-173,-45
5665,112,-1784,-56,-119,-160,-23
5670,96,-1832,-40,-105,-145,4
5675,96,-1856,-32,-85,-134,27
5680,88,-1880,-32,-63,-130,54
5685,56,-1920,-40,-39,-127,73
5690,48,-1928,-56,-17,-131,89
5695,80,-1944,-16,-3,-137,105
5700,80,-1952,-40,7,-141,118
5705,88,-1976,-32,12,-140,125
5710,72,-1976,-48,14,-138,134
5715,56,-1984,-48,16,-137,139
5720,88,-1984,-56,25,-131,148
5725,72,-2024,-32,38,-119,153
5730,80,-2056,-56,53,-104,159
5735,112,-2088,-8,67,-88,160
5740,96,-2136,32,77,-75,158
5745,112,-2160,32,86,-67,146
5750,96,-2176,56,100,-64,128
5755,88,-2192,64,111,-60,103
5760,64,-2184,72,121,-58,81
5765,40,-2224,56,134,-51,57
5770,-8,-2232,96,151,-43,34
5775,-32,-2288,104,165,-33,14
5780,-48,-2328,112,176,-20,-1
5785,-48,-2376,120,181,-11,-19
5790,-88,-2392,144,179,2,-34
5795,-40,-2424,192,175,16,-50
5800,-56,-2392,248,176,29,-63
5805,-8,-2320,344,184,44,-83
5810,-16,-2280,384,199,53,-98
5815,0,-2232,440,219,59,-113
5820,16,-2168,480,246,60,-124
5825,24,-2120,552,277,58,-135
5830,40,-2104,552,310,49,-141
5835,40,-2080,600,341,34,-143
5840,40,-2088,656,366,15,-143
5845,16,-2104,664,389,-16,-141
5850,-32,-2224,704,400,-62,-136
5855,-80,-2352,656,400,-149,-141
5860,-72,-2528,576,434,-251,-161
5865,-120,-2816,504,514,-313,-185
5870,-128,-3128,208,610,-344,-200
5875,-96,-3416,-152,645,-356,-223
5880,24,-3520,-520,580,-330,-276
5885,136,-3368,-808,412,-237,-351
5890,296,-3072,-792,207,-85,-426
5895,424,-2784,-696,57,115,-503
5900,600,-2464,-496,8,259,-556
5905,648,-2176,-496,46,377,-591
5910,584,-1928,-560,95,471,-607
5915,472,-1776,-688,119,545,-597
5920,248,-1616,-744,117,580,-574
5925,80,-1536,-800,95,552,-548
5930,-112,-1400,-776,76,508,-522
5935,-320,-1336,-704,77,453,-492
5940,-536,-1312,-648,95,379,-455
5945,-776,-1328,-560,127,249,-399
5950,-904,-1456,-536,167,109,-333
5955,-976,-1592,-560,188,-25,-271
5960,-968,-1792,-528,185,-130,-223
5965,-952,-1952,-488,169,-200,-182
5970,-864,-2088,-480,145,-239,-144
5975,-704,-2176,-448,109,-246,-119
5980,-504,-2280,-424,70,-237,-103
5985,-288,-2288,-368,36,-217,-82
5990,-112,-2272,-360,8,-197,-56
5995,48,-2200,-344,-26,-169,-27
6000,192,-2136,-296,-52,-132,-13
6005,288,-2080,-304,-65,-78,-2
6010,352,-2040,-312,-63,0,5
6015,416,-2040,-280,-51,88,17
6020,456,-2024,-288,-23,183,25
6025,528,-2024,-304,13,283,32
6030,576,-2048,-256,45,377,32
6035,544,-2048,-256,69,468,26
6040,520,-2032,-296,86,552,21
6045,480,-2040,-280,91,646,20
6050,432,-2064,-256,86,718,19
6055,336,-2032,-232,73,770,23
6060,216,-2024,-216,58,805,26
6065,112,-1984,-160,53,827,33
6070,-8,-1936,-128,58,841,36
6075,-104,-1928,-136,67,833,38
6080,-160,-1880,-112,80,815,47
6085,-224,-1896,-48,85,804,79
6090,-224,-1888,-104,83,788,122
6095,-208,-1872,-48,68,761,153
6100,-200,-1832,-48,50,736,150
6105,-168,-1808,-24,42,716,126
6110,-224,-1768,-24,29,702,111
6115,-80,-1720,304,39,633,177
6120,72,-1784,-160,81,582,246
6125,16,-1856,-8,67,650,186
6130,-32,-1840,-40,40,715,116
6135,-72,-1856,-24,16,748,81
6140,-112,-1816,-24,2,752,78
6145,-728,-1776,48,-9,733,115
6150,-40,-2008,0,14,676,195
6155,-64,-1848,-112,34,704,184
6160,-168,-1912,-48,22,741,142
6165,-232,-1872,-88,0,738,137
6170,-408,-1816,0,-16,700,151
6175,-232,-1872,-104,-8,650,190
6180,-320,-1816,-64,-24,646,166
6185,-304,-1792,-56,-36,642,142
6190,-328,-1784,-8,-47,632,112
6195,-336,-1768,-24,-58,622,86
6200,-344,-1800,24,-70,616,58
6205,-328,-1784,56,-79,597,44
6210,-336,-1792,16,-91,578,30
6215,-304,-1808,64,-96,556,19
6220,-272,-1816,72,-97,535,5
6225,-240,-1864,48,-94,514,-4
6230,-248,-1896,80,-87,491,-19
6235,-200,-1888,88,-80,470,-29
6240,-216,-1952,104,-74,445,-49
6245,-200,-1960,80,-66,426,-59
6250,-200,-1992,88,-55,408,-75
6255,-208,-2016,96,-44,392,-85
6260,-200,-2040,96,-29,375,-100
6265,-192,-2064,160,-14,361,-109
6270,-176,-2056,160,2,346,-121
6275,-176,-2056,112,20,334,-124
6280,-168,-2064,128,45,322,-131
6285,-192,-2056,144,67,309,-128
6290,-200,-2056,184,90,289,-126
6295,-184,-2080,192,104,270,-116
6300,-216,-2056,200,114,254,-109
6305,-184,-2056,224,122,240,-95
6310,-176,-2040,208,126,229,-90
6315,-144,-2024,264,127,225,-84
6320,-160,-1992,256,129,223,-84
6325,-112,-2024,288,131,221,-81
6330,-112,-2024,296,137,221,-86
6335,-112,-2024,296,142,223,-85
6340,-88,-2064,344,146,223,-84
6345,-80,-2056,376,148,225,-76
6350,-80,-2072,352,152,227,-67
6355,-72,-2080,368,157,232,-50
6360,-56,-2096,400,164,242,-36
6365,-64,-2104,456,176,259,-19
6370,-16,-2104,456,193,282,-10
6375,24,-2072,504,211,308,2
6380,80,-2080,544,231,337,5
6385,104,-2048,552,256,365,8
6390,96,-2048,600,286,392,3
6395,104,-2064,584,307,402,4
6400,176,-2160,576,331,406,6
6405,152,-2288,528,363,422,17
6410,72,-2544,488,390,432,29
6415,-40,-2792,376,404,428,48
6420,-160,-3072,280,426,417,78
6425,-248,-3248,96,467,426,137
6430,-400,-3496,-208,516,464,208
6435,-472,-3624,-496,521,532,295
6440,-520,-3616,-688,442,589,350
6445,-552,-3504,-712,351,604,401
6450,-640,-3192,-608,285,554,438
6455,-624,-2856,-568,253,441,464
6460,-584,-2472,-560,240,301,469
6465,-504,-2160,-576,234,171,457
6470,-312,-1800,-640,228,76,414
6475,-64,-1528,-672,219,26,360
6480,152,-1288,-696,199,23,298
6485,400,-1192,-728,172,75,229
6490,560,-1168,-760,129,155,168
6495,688,-1248,-768,83,265,113
6500,752,-1328,-736,25,398,62
6505,776,-1480,-664,-38,545,25
6510,712,-1632,-560,-97,692,-6
6515,600,-1800,-488,-144,827,-22
6520,432,-1944,-424,-173,940,-37
6525,240,-2064,-320,-191,1016,-44
6530,24,-2128,-272,-198,1052,-56
6535,-128,-2152,-208,-193,1045,-65
6540,-280,-2152,-192,-182,998,-83
6545,-416,-2096,-216,-167,915,-92
6550,-488,-2064,-248,-150,804,-101
6555,-560,-2032,-296,-134,678,-104
6560,-600,-2024,-368,-122,544,-110
6565,-648,-2016,-400,-119,411,-113
6570,-712,-2008,-384,-125,278,-120
6575,-720,-1984,-392,-138,155,-120
6580,-736,-1976,-432,-149,44,-126
6585,-736,-1952,-360,-163,-76,-125
6590,-736,-1920,-384,-177,-167,-124
6595,-720,-1872,-392,-196,-247,-119
6600,-632,-1840,-360,-217,-314,-115
6605,-592,-1784,-368,-246,-365,-104
6610,-488,-1760,-304,-273,-398,-96
6615,-376,-1752,-296,-292,-411,-91
6620,-240,-1752,-288,-298,-406,-93
6625,-96,-1736,-256,-295,-387,-101
6630,-8,-1720,-216,-294,-353,-106
6635,104,-1768,-192,-301,-325,-97
6640,184,-1776,-128,-312,-297,-95
6645,280,-1792,-128,-336,-263,-88
6650,344,-1808,-64,-363,-226,-84
6655,352,-1856,-40,-382,-202,-80
6660,376,-1880,48,-398,-184,-79
6665,384,-1904,40,-408,-184,-69
6670,376,-1968,24,-418,-189,-61
6675,376,-2008,0,-432,-195,-58
6680,320,-2056,40,-449,-207,-67
6685,272,-2072,48,-464,-217,-79
6690,232,-2088,0,-470,-227,-104
6695,480,-2224,8,-469,-228,-134
6700,112,-2088,48,-440,-200,-198
6705,64,-2048,-64,-426,-239,-185
6710,96,-2056,-64,-425,-270,-167
6715,112,-2024,-120,-411,-279,-155
6720,112,-1984,-144,-388,-274,-151
6725,144,-1984,-112,-356,-266,-148
6730,152,-1976,-128,-319,-256,-142
6735,128,-1960,-104,-289,-248,-134
6740,112,-1992,-112,-266,-236,-126
6745,104,-2016,-136,-248,-225,-113
6750,72,-2048,-64,-234,-217,-103
6755,56,-2072,-56,-221,-211,-89
6760,32,-2080,-56,-208,-211,-77
6765,24,-2056,-56,-193,-216,-65
6770,8,-2064,-72,-174,-226,-54
6775,8,-2072,-40,-158,-238,-40
6780,8,-2032,-48,-135,-256,-31
6785,-8,-2008,0,-118,-269,-21
6790,8,-1968,-32,-104,-281,-15
6795,48,-1952,-8,-92,-290,-11
6800,96,-1928,-8,-83,-290,-15
6805,-16,-1848,-32,-68,-281,-32
6810,-8,-1816,8,-60,-285,-35
6815,0,-1776,24,-65,-295,-21
6820,24,-1808,64,-65,-307,3
6825,40,-1808,8,-68,-311,20
6830,56,-1808,48,-80,-316,34
6835,152,-1808,104,-95,-321,45
6840,8,-1832,32,-113,-329,52
6845,112,-1864,88,-133,-335,56
6850,104,-1912,104,-154,-343,63
6855,136,-1896,96,-170,-344,64
6860,168,-1952,48,-186,-338,65
6865,200,-1960,32,-198,-326,64
6870,248,-1992,16,-209,-306,60
6875,264,-2000,-40,-214,-280,54
6880,280,-2032,-96,-215,-253,46
6885,320,-2080,-144,-212,-229,34
6890,336,-2128,-192,-208,-203,21
6895,352,-2176,-216,-206,-173,8
6900,384,-2200,-320,-214,-136,-7
6905,408,-2232,-336,-242,-96,-23
6910,400,-2232,-336,-283,-61,-38
6915,376,-2272,-328,-323,-27,-53
6920,368,-2336,-280,-348,3,-60
6925,304,-2424,-224,-353,33,-64
6930,216,-2464,-200,-330,40,-68
6935,120,-2456,-144,-299,35,-75
6940,-8,-2488,-96,-271,18,-84
6945,-88,-2440,-160,-250,-9,-97
6950,-160,-2360,-152,-237,-41,-106
6955,-152,-2312,-192,-231,-73,-115
6960,-192,-2224,-208,-232,-106,-116
6965,-160,-2120,-208,-239,-131,-112
6970,-112,-2040,-192,-250,-151,-96
6975,-72,-1976,-192,-255,-159,-76
6980,-16,-1920,-144,-249,-152,-59
6985,48,-1936,-120,-238,-139,-49
6990,64,-1968,-56,-220,-123,-53
6995,56,-2008,-80,-203,-109,-70
7000,16,-2048,-96,-194,-98,-100
7005,-56,-2080,-96,-194,-91,-143
7010,-112,-2104,-120,-207,-97,-185
7015,-208,-2152,-168,-235,-114,-231
7020,-288,-2192,-176,-276,-146,-270
7025,-408,-2168,-216,-336,-204,-296
7030,-440,-2240,-224,-384,-269,-305
7035,-520,-2232,-240,-426,-350,-312
7040,-592,-2216,-320,-456,-452,-316
7045,-624,-2200,-320,-472,-561,-323
7050,-664,-2128,-384,-479,-664,-323
7055,-624,-2088,-440,-478,-752,-323
7060,-560,-2032,-440,-474,-817,-316
7065,-456,-1928,-456,-460,-862,-309
7070,-328,-1928,-448,-433,-884,-287
7075,-200,-1864,-496,-390,-878,-265
7080,-88,-1848,-488,-345,-858,-237
7085,0,-1848,-488,-297,-829,-205
7090,64,-1840,-520,-255,-793,-169
7095,72,-1792,-528,-229,-751,-140
7100,72,-1800,-536,-218,-710,-110
7105,48,-1760,-536,-215,-672,-83
7110,-16,-1808,-536,-219,-637,-52
7115,-56,-1776,-560,-226,-611,-26
7120,-80,-1792,-544,-235,-591,8
7125,-80,-1816,-536,-245,-582,31
7130,-88,-1872,-528,-252,-578,53
7135,-104,-1864,-512,-257,-581,69
7140,-96,-1880,-504,-262,-587,83
7145,-96,-1904,-536,-268,-594,87
7150,-88,-1952,-528,-276,-598,91
7155,-104,-1920,-536,-289,-600,83
7160,-104,-1984,-512,-300,-601,77
7165,-152,-2000,-488,-311,-598,62
7170,-168,-1984,-496,-324,-589,47
7175,-176,-2016,-488,-336,-583,29
7180,-200,-2016,-464,-343,-574,20
7185,-192,-2032,-432,-348,-563,12
7190,-184,-2064,-448,-347,-550,11
7195,-168,-2080,-424,-340,-533,7
7200,-152,-2112,-432,-329,-511,13
7205,-120,-2128,-424,-316,-487,16
7210,-104,-2152,-408,-302,-463,28
7215,-96,-2184,-416,-289,-444,37
7220,-88,-2168,-464,-274,-430,49
7225,-64,-2160,-448,-265,-422,55
7230,-80,-2144,-480,-255,-423,62
7235,-96,-2104,-520,-246,-433,67
7240,-104,-2080,-528,-244,-445,76
7245,-136,-2056,-520,-246,-458,79
7250,-152,-2016,-544,-251,-475,87
7255,-152,-1992,-488,-260,-496,90
7260,-208,-1960,-472,-268,-520,99
7265,-240,-1912,-448,-272,-552,106
7270,-232,-1944,-432,-273,-591,115
7275,-232,-1912,-392,-267,-624,119
7280,-208,-1936,-392,-262,-653,123
7285,-216,-1936,-368,-252,-681,122
7290,-208,-1920,-392,-241,-702,126
7295,-208,-1952,-368,-229,-718,126
7300,-216,-1968,-408,-221,-731,129
7305,-200,-1976,-392,-214,-739,128
7310,-176,-1960,-368,-211,-745,129
7315,-168,-1960,-408,-210,-747,124
7320,-144,-1944,-400,-212,-745,123
7325,-136,-1904,-392,-211,-740,115
7330,-112,-1928,-408,-207,-734,107
7335,-96,-1936,-392,-202,-724,95
7340,-64,-1904,-408,-197,-709,85
7345,-16,-1848,-464,-196,-690,70
7350,-88,-1872,-360,-195,-684,56
7355,-96,-1888,-424,-179,-687,46
7360,-96,-1904,-424,-180,-684,57
7365,-32,-1928,-368,-201,-676,64
7370,56,-1896,-312,-220,-663,53
7375,56,-1880,-256,-226,-642,22
7380,144,-1904,-248,-213,-613,-7
7385,192,-1920,-192,-187,-570,-32
7390,-128,-2104,-112,-153,-527,-21
7395,496,-2144,-304,-51,-509,60
7400,544,-2160,-320,-55,-408,61
7405,544,-2312,-256,-97,-323,52
7410,504,-2368,-304,-114,-299,69
7415,512,-2384,-336,-105,-310,96
7420,520,-2336,-416,-99,-326,122
7425,536,-2264,-432,-114,-334,133
7430,520,-2216,-456,-145,-329,143
7435,496,-2128,-432,-179,-308,145
7440,480,-2104,-392,-199,-268,149
7445,440,-2080,-440,-200,-211,144
7450,424,-2080,-424,-181,-141,136
7455,424,-2072,-440,-133,-60,120
7460,416,-2080,-472,-63,28,111
7465,408,-2080,-488,22,130,102
7470,392,-2120,-528,119,207,105
7475,312,-2120,-528,187,267,104
7480,248,-2080,-536,243,311,109
7485,176,-2072,-552,286,344,107
7490,80,-1976,-584,316,363,105
7495,-8,-1888,-544,335,373,98
7500,-96,-1808,-576,340,376,95
7505,-144,-1720,-536,328,374,88
7510,-200,-1664,-512,308,364,89
7515,-200,-1608,-488,278,343,85
7520,-248,-1568,-456,253,323,83
7525,-216,-1568,-464,225,303,76
7530,-184,-1568,-424,204,280,70
7535,-160,-1592,-456,191,266,55
7540,-112,-1600,-432,178,256,39
7545,-88,-1640,-440,159,253,18
7550,-72,-1656,-424,134,254,1
7555,-64,-1704,-400,101,257,-14
7560,-56,-1800,-408,81,265,-28
7565,8,-1808,-400,74,275,-35
7570,-8,-1856,-368,83,279,-31
7575,24,-1840,-416,99,275,-29
7580,24,-1872,-384,121,262,-19
7585,8,-1864,-424,149,250,-18
7590,40,-1896,-408,182,238,-15
7595,56,-1888,-416,223,223,-15
7600,64,-1888,-440,257,213,-14
7605,96,-1872,-464,289,200,-12
7610,120,-1880,-448,315,188,-7
7615,144,-1864,-448,337,173,-4
7620,208,-1856,-440,351,167,6
7625,264,-1872,-440,361,160,12
7630,312,-1904,-392,367,153,21
7635,312,-1864,-400,376,142,29
7640,344,-1856,-408,382,132,39
7645,368,-1848,-368,380,124,46
7650,392,-1832,-344,375,118,52
7655,432,-1816,-352,371,110,58
7660,456,-1808,-352,361,112,67
7665,472,-1760,-376,344,122,71
7670,488,-1768,-400,329,132,82
7675,488,-1744,-448,315,143,93
7680,536,-1696,-512,293,156,108
7685,584,-1680,-592,268,175,122
7690,592,-1672,-616,239,202,131
7695,584,-1656,-608,212,230,137
7700,584,-1656,-560,186,268,141
7705,608,-1688,-528,178,303,145
7710,608,-1672,-536,192,336,150
7715,584,-1680,-512,209,363,161
7720,592,-1656,-544,219,385,170
7725,528,-1568,-552,224,403,184
7730,528,-1544,-584,215,416,212
7735,512,-1504,-520,189,429,233
7740,448,-1456,-552,165,425,250
7745,416,-1416,-560,139,410,265
7750,384,-1376,-512,103,391,281
7755,344,-1320,-480,69,361,294
7760,312,-1224,-504,30,321,310
7765,288,-1232,-488,-25,289,327
7770,240,-1224,-448,-64,261,336
7775,176,-1272,-488,-106,245,353
7780,136,-1312,-520,-137,235,373
7785,56,-1304,-536,-148,230,391
7790,32,-1240,-536,-145,222,419
7795,0,-1104,-592,-153,225,457
7800,-40,-1008,-576,-170,229,487
7805,-24,-912,-544,-189,231,505
7810,-48,-784,-488,-207,217,517
7815,-96,-648,-488,-216,178,523
7820,-72,-504,-544,-228,123,535
7825,-64,-480,-528,-262,61,540
7830,-72,-472,-488,-292,-25,533
7835,-80,-440,-480,-323,-113,520
7840,-96,-432,-448,-356,-191,509
7845,-112,-408,-336,-387,-251,502
7850,-104,-464,-336,-416,-302,494
7855,-144,-464,-376,-439,-334,488
7860,-120,-496,-384,-459,-339,496
7865,-104,-448,-416,-474,-344,504
7870,-128,-400,-416,-497,-358,501
7875,-96,-360,-400,-526,-365,506
7880,-64,-288,-376,-546,-369,498
7885,-48,-232,-408,-571,-368,482
7890,-96,-136,-432,-599,-376,461
7895,-104,-120,-400,-622,-394,454
7900,-112,-88,-376,-640,-428,450
7905,-128,-64,-344,-680,-463,436
7910,-200,-96,-296,-720,-484,427
7915,-264,-80,-272,-728,-492,431
7920,-320,-72,-280,-735,-503,441
7925,-360,-136,-248,-737,-509,454
7930,-440,-160,-216,-735,-519,467
7935,-504,-240,-184,-713,-549,500
7940,-504,-272,-216,-649,-591,556
7945,-504,-336,-280,-591,-631,617
7950,-400,-328,-440,-558,-655,671
7955,-392,-360,-536,-551,-658,724
7960,-464,-368,-544,-589,-651,746
7965,-608,-344,-552,-621,-658,780
7970,-632,-312,-440,-616,-667,843
7975,-664,-328,-424,-616,-668,897
7980,-816,-352,-288,-670,-655,921
7985,-968,-368,-168,-720,-679,972
7990,-976,-408,-256,-705,-742,1053
7995,-1024,-448,-480,-665,-813,1155
8000,-1104,-464,-608,-676,-880,1233
8005,-1184,-584,-632,-737,-985,1323
8010,-1184,-704,-720,-784,-1097,1400
8015,-1224,-856,-824,-834,-1218,1478
8020,-1216,-1000,-944,-908,-1360,1537
8025,-1320,-984,-1040,-1002,-1514,1580
8030,-1488,-792,-1120,-1160,-1694,1643
8035,-1344,-1056,-1160,-1368,-1940,1682
8040,-1328,-1536,-1168,-1516,-2147,1690
8045,-1392,-1768,-1136,-1538,-2294,1731
8050,-1408,-1824,-1128,-1495,-2442,1792
8055,-1424,-1888,-1256,-1461,-2641,1889
8060,-1408,-1976,-1312,-1442,-2795,1955
8065,-1400,-2128,-1488,-1420,-2899,1989
8070,-1608,-2128,-1456,-1478,-2933,1986
8075,-1616,-2280,-1360,-1606,-3009,2006
8080,-1696,-2552,-1144,-1688,-3162,2016
8085,-1752,-2752,-1080,-1654,-3312,2027
8090,-1952,-2936,-1080,-1561,-3433,2014
8095,-2072,-3088,-1096,-1477,-3552,1999
8100,-2240,-3136,-1144,-1394,-3690,1960
8105,-2504,-3064,-1280,-1304,-3809,1932
8110,-2696,-2992,-1224,-1266,-3896,1935
8115,-3000,-2928,-1176,-1243,-3992,1962
8120,-3360,-2912,-1248,-1262,-4081,2000
8125,-3840,-3192,-1128,-1358,-4234,2087
8130,-4200,-3640,-1184,-1360,-4503,2233
8135,-4824,-4376,-1288,-1054,-4813,2442
8140,-5608,-4968,-1504,-413,-5090,2720
8145,-6256,-5936,-1648,230,-5357,3026
8150,-7144,-6640,-2328,804,-5581,3424
8155,-8080,-7872,-2400,1316,-5841,3849
8160,-8480,-9752,-1744,1796,-6064,4393
8165,-7488,-11944,-432,2710,-6109,4941
8170,-6304,-12592,232,4314,-5866,5150
8175,-4112,-11000,288,6204,-5524,4898
8180,-2184,-8280,-768,7473,-5257,4201
8185,16,-5552,-1096,7568,-4849,3227
8190,1304,-2432,-608,6574,-4203,2175
8195,1888,-264,496,5006,-3359,1401
8200,1712,880,1408,3304,-2450,900
8205,1152,840,1608,1608,-1737,833
8210,696,568,1256,1007,-1615,1019
8215,64,160,672,1073,-1877,1295
8220,-464,0,-56,1515,-2191,1592
8225,-960,8,-432,2022,-2299,1906
8230,-1376,104,-296,2385,-2177,2147
8235,-1544,-56,248,2539,-1954,2309
8240,-1520,-352,800,2548,-1805,2368
8245,-1392,-624,1136,2533,-1725,2405
8250,-1144,-960,1216,2554,-1705,2435
8255,-912,-1256,1080,2579,-1770,2428
8260,-792,-1408,936,2588,-1878,2369
8265,-688,-1352,920,2599,-1978,2292
8270,-856,-1048,960,2622,-2035,2211
8275,-816,-560,848,2665,-2049,2194
8280,-928,-112,872,2710,-1970,2253
8285,-1008,128,816,2756,-1845,2406
8290,-1304,240,760,2713,-1747,2554
8295,-1816,232,952,2562,-1761,2606
8300,-1912,80,944,2471,-1873,2715
8305,-1816,-24,856,2495,-1954,2776
8310,-1440,-168,656,2507,-1983,2787
8315,-976,-344,936,2497,-1935,2774
8320,-792,-528,1176,2466,-1934,2743
8325,-792,-632,1296,2443,-2042,2725
8330,-1176,-808,1512,2478,-2215,2694
8335,-1440,-936,2032,2541,-2458,2638
8340,-1696,-520,2112,2620,-2715,2539
8345,-2120,-152,2400,2661,-2819,2396
8350,-2136,432,2808,2703,-2751,2105
8355,-2264,1216,3216,2631,-2604,1853
8360,-2368,1624,3528,2513,-2416,1639
8365,-2712,2288,4120,2494,-2234,1405
8370,-2944,3120,4288,2438,-2096,1134
8375,-3296,3976,4256,2204,-1896,796
8380,-3552,4784,4120,1770,-1579,452
8385,-3424,4864,3592,1258,-1196,177
8390,-3520,4480,2704,799,-691,31
8395,-3192,3440,1536,503,-100,60
8400,-3080,2736,1112,298,334,184
8405,-2584,1880,1256,-124,326,272
8410,-2192,920,1920,-874,10,277
8415,-1944,-208,2384,-1656,-446,260
8420,-1824,-1296,2440,-2232,-1063,136
8425,-1648,-2160,2000,-2456,-1764,-85
8430,-1424,-2816,1400,-2199,-2399,-290
8435,-1232,-3008,720,-1506,-2864,-406
8440,-1032,-3080,8,-632,-3095,-447
8445,-864,-2504,-472,143,-3139,-527
8450,-840,-1688,-616,595,-3029,-624
8455,-832,-936,-536,654,-2853,-740
8460,-864,-224,-352,677,-2606,-849
8465,-872,480,-176,810,-2304,-906
8470,-960,1184,120,1020,-1989,-871
8475,-1104,1632,320,1211,-1746,-734
8480,-584,1856,456,1235,-1612,-540
8485,-288,1992,640,1091,-1521,-444
8490,-272,2088,1000,814,-1455,-484
8495,-392,2304,1216,491,-1431,-572
8500,-200,2200,1392,74,-1463,-615
8505,16,1992,1552,-219,-1469,-664
8510,144,1752,1736,-375,-1427,-737
8515,248,1280,1824,-350,-1363,-781
8520,152,1120,1736,-204,-1294,-891
8525,16,1104,1496,-95,-1271,-985
8530,-168,1160,1376,-108,-1281,-1007
8535,-232,1224,1352,-240,-1297,-948
8540,-192,1288,1336,-414,-1329,-840
8545,-136,1344,1440,-567,-1381,-721
8550,-64,1344,1360,-676,-1435,-628
8555,56,1288,1296,-738,-1475,-539
8560,304,1168,1256,-786,-1491,-458
8565,448,1024,1256,-812,-1483,-390
8570,536,936,1216,-809,-1461,-330
8575,608,968,1176,-796,-1417,-271
8580,624,1016,1160,-798,-1337,-218
8585,656,1120,1144,-817,-1222,-173
8590,688,1192,1152,-849,-1074,-138
8595,800,1280,1152,-891,-880,-98
8600,864,1384,1168,-978,-719,-63
8605,904,1448,1240,-1068,-570,-28
8610,944,1464,1288,-1148,-431,4
8615,1064,1464,1336,-1221,-282,29
8620,1112,1432,1432,-1263,-139,29
8625,1152,1320,1464,-1267,-1,27
8630,1128,1160,1504,-1245,110,25
8635,984,952,1432,-1207,187,27
8640,792,728,1424,-1182,232,39
8645,536,488,1432,-1174,223,37
8650,152,256,1568,-1183,160,18
8655,-24,0,1744,-1194,42,-11
8660,-208,-152,1936,-1203,-80,-47
8665,-264,-248,2120,-1214,-192,-74
8670,-384,-296,2392,-1232,-300,-87
8675,-440,-344,2704,-1246,-414,-75
8680,-472,-384,2960,-1230,-524,-45
8685,-536,-304,3168,-1173,-589,-11
8690,-536,-96,3400,-1097,-584,53
8695,-504,0,3616,-969,-514,120
8700,-288,112,3672,-844,-409,175
8705,-32,144,3768,-758,-236,192
8710,200,144,3800,-690,-23,130
8715,384,64,3800,-621,207,41
8720,480,-40,3720,-546,405,-15
8725,656,-264,3688,-470,534,-18
8730,744,-432,3584,-375,629,-39
8735,712,-584,3544,-271,725,-74
8740,704,-720,3440,-152,844,-75
8745,752,-880,3320,40,1019,-70
8750,760,-888,3064,229,1188,-79
8755,664,-888,2808,377,1402,-78
8760,568,-880,2584,492,1624,-77
8765,464,-848,2360,618,1801,-104
8770,320,-640,2176,763,1927,-143
8775,264,-488,1968,903,2010,-171
8780,152,-312,1736,1011,2038,-202
8785,48,-136,1544,1094,2018,-219
8790,-96,8,1344,1154,1948,-220
8795,-256,176,1136,1226,1846,-212
8800,-304,264,992,1261,1721,-218
8805,-360,344,824,1262,1603,-234
8810,-424,400,736,1223,1513,-246
8815,-432,400,632,1151,1431,-260
8820,-376,376,584,1027,1373,-268
8825,-296,416,544,819,1389,-238
8830,-248,232,728,574,1468,-175
8835,-224,72,864,410,1531,-135
8840,-312,-56,936,321,1573,-123
8845,-488,-136,1032,232,1571,-134
8850,-432,-96,992,153,1550,-113
8855,-584,-88,1128,42,1556,-97
8860,-648,-80,1128,-119,1603,-62
8865,-856,-160,1352,-268,1634,-22
8870,-1080,-272,1568,-313,1578,-29
8875,-1032,-232,1512,-274,1412,-83
8880,-1216,-368,1656,-249,1270,-146
8885,-1296,-384,1584,-247,1167,-236
8890,-1464,-624,1736,-185,1077,-296
8895,-1584,-704,1728,-69,984,-347
8900,-1616,-744,1640,27,897,-421
8905,-1592,-736,1600,77,873,-453
8910,-1496,-736,1512,84,920,-444
8915,-1712,-920,1768,50,1046,-399
8920,-1760,-904,1712,97,1106,-382
8925,-1736,-872,1608,187,1098,-406
8930,-1736,-832,1568,249,1075,-428
8935,-1656,-704,1504,269,1074,-451
8940,-1680,-608,1480,247,1086,-468
8945,-1712,-536,1464,209,1078,-478
8950,-1768,-440,1400,177,1055,-483
8955,-1832,-368,1336,160,1030,-488
8960,-1856,-312,1320,145,1008,-491
8965,-1872,-304,1232,138,987,-502
8970,-1880,-288,1208,135,963,-505
8975,-1952,-296,1192,128,925,-503
8980,-1920,-272,1088,109,840,-485
8985,-1952,-232,1104,85,758,-473
8990,-1880,-200,1080,54,666,-463
8995,-1896,-216,1088,27,609,-448
9000,-1896,-240,1104,-1,572,-431
9005,-1824,-184,1032,-21,524,-430
9010,-1864,-200,1160,-38,520,-410
9015,-1752,-80,1048,-61,476,-409
9020,-1784,-120,1128,-88,468,-376
9025,-1712,-56,1088,-116,437,-350
9030,-1712,-72,1128,-144,424,-314
9035,-1704,-80,1136,-171,415,-290
9040,-1704,-56,1128,-215,379,-278
9045,-1712,-64,1152,-259,342,-261
9050,-1768,-64,1192,-281,300,-224
9055,-1776,-96,1216,-263,246,-188
9060,-1760,-136,1224,-225,181,-149
9065,-1800,-88,1216,-190,109,-124
9070,-1816,-24,1224,-176,44,-95
9075,-1808,-32,1232,-180,-9,-65
9080,-1792,-16,1264,-187,-71,-38
9085,-1808,8,1240,-197,-148,-11
9090,-1744,16,1248,-211,-207,18
9095,-1688,0,1240,-217,-270,48
9100,-1672,-32,1280,-198,-339,120
9105,-1704,-8,1232,-189,-412,116
9110,-1680,16,1248,-202,-435,89
9115,-1640,16,1296,-216,-456,96
9120,-1624,32,1304,-238,-487,106
9125,-1568,16,1336,-260,-524,112
9130,-1560,32,1368,-276,-563,122
9135,-1544,24,1416,-290,-604,126
9140,-1512,24,1392,-308,-634,132
9145,-1464,0,1456,-322,-663,132
9150,-1424,0,1456,-337,-691,134
9155,-1376,0,1472,-352,-710,133
9160,-1328,-24,1496,-364,-725,138
9165,-1280,-32,1520,-372,-735,134
9170,-1264,-32,1544,-378,-743,138
9175,-1208,-64,1560,-377,-755,138
9180,-1168,-64,1584,-368,-764,137
9185,-1144,-48,1592,-354,-765,129
9190,-1120,-56,1648,-340,-763,127
9195,-1112,-96,1624,-328,-762,120
9200,-1048,-104,1664,-319,-758,117
9205,-1048,-120,1664,-312,-755,111
9210,-1016,-144,1688,-303,-755,111
9215,-984,-200,1696,-298,-754,106
9220,-952,-160,1736,-290,-750,105
9225,-912,-200,1760,-277,-739,99
9230,-888,-208,1776,-258,-729,99
9235,-856,-152,1744,-234,-711,95
9240,-864,-168,1760,-219,-690,97
9245,-848,-168,1752,-206,-669,95
9250,-824,-176,1736,-192,-649,98
9255,-800,-176,1744,-176,-626,96
9260,-800,-184,1728,-166,-603,97
9265,-744,-184,1744,-159,-584,93
9270,-736,-176,1736,-156,-565,92
9275,-736,-176,1760,-160,-544,88
9280,-728,-192,1768,-169,-523,87
9285,-680,-224,1784,-176,-505,81
9290,-664,-232,1728,-183,-491,79
9295,-648,-232,1736,-188,-476,74
9300,-656,-256,1768,-191,-461,69
9305,-624,-272,1704,-194,-442,61
9310,-608,-272,1728,-191,-419,57
9315,-608,-288,1736,-182,-396,50
9320,-600,-304,1744,-175,-373,46
9325,-600,-320,1760,-166,-352,37
9330,-616,-352,1752,-156,-330,32
9335,-616,-344,1776,-145,-311,25
9340,-608,-360,1800,-136,-295,22
9345,-616,-368,1776,-125,-278,15
9350,-592,-400,1784,-118,-261,10
9355,-608,-384,1760,-107,-243,-2
9360,-616,-368,1784,-96,-220,-10
9365,-640,-360,1792,-84,-196,-21
9370,-632,-376,1792,-76,-170,-28
9375,-632,-368,1792,-68,-142,-36
9380,-632,-360,1744,-55,-108,-39
9385,-640,-336,1752,-43,-78,-45
9390,-664,-296,1768,-33,-51,-47
9395,-672,-344,1776,-25,-26,-50
9400,-672,-336,1760,-20,-3,-52
9405,-664,-320,1744,-17,21,-53
9410,-704,-320,1728,-14,44,-49
9415,-712,-304,1728,-10,63,-50
9420,-752,-272,1736,-7,82,-49
9425,-760,-280,1752,-7,98,-49
9430,-776,-288,1736,-9,113,-45
9435,-792,-296,1728,-9,124,-45
9440,-800,-280,1712,-9,133,-41
9445,-856,-280,1680,-11,140,-40
9450,-848,-280,1720,-13,144,-36
9455,-880,-256,1696,-16,147,-33
9460,-904,-248,1712,-18,149,-27
9465,-888,-248,1688,-20,150,-26
9470,-912,-240,1680,-24,153,-23
9475,-896,-256,1704,-24,158,-21
9480,-936,-256,1680,-23,161,-14
9485,-952,-264,1672,-22,164,-12
9490,-960,-232,1688,-24,165,-7
9495,-976,-264,1648,-25,167,-5
9500,-1000,-240,1648,-25,168,-1
9505,-992,-248,1640,-25,171,0
9510,-968,-272,1648,-26,170,3
9515,-968,-264,1656,-24,169,2
9520,-976,-240,1664,-22,167,4
9525,-976,-264,1672,-20,166,2
9530,-968,-272,1680,-13,165,2
9535,-984,-248,1680,-8,163,0
9540,-968,-256,1640,-3,161,-1
9545,-984,-264,1656,1,159,-3
9550,-968,-272,1640,4,160,-3
9555,-960,-280,1664,6,159,-5
9560,-960,-248,1648,5,160,-5
9565,-968,-256,1664,4,160,-6
9570,-936,-256,1656,3,160,-6
9575,-952,-288,1672,5,158,-8
9580,-944,-288,1688,6,156,-9
9585,-960,-240,1672,6,153,-12
9590,-920,-256,1672,5,152,-14
9595,-936,-256,1672,6,151,-17
9600,-936,-240,1664,5,148,-21
9605,-912,-264,1672,1,145,-24
9610,-920,-248,1648,-1,141,-27
9615,-904,-264,1624,-3,138,-31
9620,-904,-264,1664,-5,136,-36
9625,-888,-272,1672,-5,139,-38
9630,-912,-248,1656,-5,143,-40
9635,-904,-248,1672,-5,144,-41
9640,-888,-264,1704,-9,145,-44
9645,-880,-256,1680,-9,149,-44
9650,-880,-272,1696,-12,153,-43
9655,-904,-264,1704,-16,155,-42
9660,-904,-272,1696,-17,155,-42
9665,-904,-272,1704,-14,156,-41
9670,-896,-248,1704,-11,157,-39
9675,-920,-248,1712,-4,159,-38
9680,-920,-272,1696,3,160,-37
9685,-912,-264,1696,9,162,-37
9690,-920,-256,1696,13,165,-36
9695,-904,-272,1680,16,170,-33
9700,-920,-240,1672,21,172,-30
9705,-920,-264,1680,25,174,-27
9710,-928,-272,1672,23,173,-25
9715,-952,-248,1656,19,173,-22
9720,-952,-248,1656,15,171,-20
9725,-968,-232,1648,13,172,-18
9730,-936,-248,1672,13,171,-17
9735,-960,-248,1688,12,171,-15
9740,-968,-240,1624,9,169,-13
9745,-984,-240,1640,6,164,-9
9750,-1000,-224,1656,2,159,-8
9755,-1000,-224,1632,1,155,-3
9760,-1016,-216,1624,0,152,-4
9765,-1000,-256,1640,-2,148,-3
9770,-1000,-240,1616,-4,142,-1
9775,-992,-216,1632,-5,136,0
9780,-1024,-240,1608,-7,131,2
9785,-1024,-224,1632,-10,126,3
9790,-1040,-224,1648,-13,118,4
9795,-1040,-248,1616,-12,112,6
9800,-1032,-240,1592,-15,106,6
9805,-1056,-232,1616,-16,98,8
9810,-1072,-224,1616,-19,89,8
9815,-1064,-232,1600,-21,78,10
9820,-1048,-248,1640,-22,68,8
9825,-1064,-216,1640,-23,62,8
9830,-1040,-248,1608,-22,55,8
9835,-1072,-216,1624,-22,48,8
9840,-1064,-224,1616,-22,41,7
9845,-1072,-248,1616,-24,37,7
9850,-1056,-256,1616,-25,33,6
9855,-1048,-272,1584,-24,27,8
9860,-1032,-264,1640,-21,22,7
9865,-1040,-280,1608,-19,18,8
9870,-1032,-264,1632,-16,16,7
9875,-1016,-256,1608,-16,13,7
9880,-1008,-248,1632,-18,9,5
9885,-1032,-240,1608,-23,4,6
9890,-1024,-264,1640,-27,0,5
9895,-1032,-248,1640,-29,-4,8
9900,-1024,-256,1648,-31,-8,6
9905,-1008,-256,1640,-30,-12,9
9910,-1008,-272,1632,-30,-14,8
9915,-984,-256,1624,-28,-18,9
9920,-992,-224,1648,-28,-18,7
9925,-976,-288,1632,-29,-16,8
9930,-952,-272,1616,-30,-17,8
9935,-952,-248,1648,-31,-17,9
9940,-936,-288,1664,-32,-18,9
9945,-952,-280,1632,-30,-18,11
9950,-912,-280,1664,-25,-17,10
9955,-936,-272,1664,-22,-18,13
9960,-936,-264,1648,-24,-19,9
9965,-944,-264,1648,-31,-18,9
9970,-944,-256,1672,-34,-17,7
9975,-952,-248,1648,-31,-16,8
9980,-952,-264,1664,-26,-13,6
9985,-936,-248,1632,-22,-12,6
9990,-928,-256,1656,-23,-12,3
9995,-928,-232,1680,-24,-10,5
10000,-896,-272,1680,-25,-6,3
10005,-928,-248,1664,-22,-3,5
10010,-928,-256,1680,-20,1,3
10015,-904,-272,1696,-19,4,3
10020,-920,-280,1664,-20,7,3
10025,-920,-256,1688,-23,10,7
10030,-896,-256,1696,-26,14,6
10035,-920,-256,1672,-28,17,10
10040,-928,-248,1688,-31,17,10
10045,-896,-264,1656,-37,17,14
10050,-904,-248,1672,-43,18,12
10055,-920,-256,1640,-50,18,15
10060,-928,-240,1696,-51,16,11
10065,-920,-256,1664,-53,14,14
10070,-920,-232,1656,-56,12,10
10075,-912,-256,1704,-54,14,8
10080,-888,-240,1696,-52,18,3
10085,-912,-280,1656,-49,22,3
10090,-912,-256,1672,-46,28,-2
10095,-904,-280,1704,-44,33,0
10100,-912,-248,1656,-42,40,-4
10105,-920,-264,1680,-40,45,-2
10110,-912,-280,1688,-35,51,-6
10115,-912,-272,1696,-32,54,-4
10120,-880,-280,1696,-29,58,-7
10125,-912,-256,1712,-25,61,-6
10130,-912,-264,1680,-24,64,-7
10135,-920,-264,1672,-21,65,-6
10140,-920,-280,1696,-20,65,-9
10145,-928,-272,1672,-21,67,-6
10150,-920,-264,1664,-19,68,-7
10155,-920,-296,1656,-19,69,-6
10160,-928,-264,1672,-19,70,-9
10165,-928,-248,1672,-19,73,-5
10170,-928,-256,1696,-18,74,-7
10175,-920,-248,1680,-17,76,-4
10180,-928,-264,1728,-20,78,-6
10185,-928,-248,1680,-20,80,-3
10190,-928,-248,1680,-19,80,-5
10195,-928,-264,1680,-20,79,-2
10200,-920,-280,1680,-18,81,-5
10205,-944,-256,1664,-18,82,-2
10210,-920,-280,1664,-18,80,-6
10215,-936,-288,1664,-17,82,-3
10220,-936,-296,1688,-14,81,-6
10225,-944,-264,1664,-12,80,-5
10230,-920,-288,1656,-9,82,-7
10235,-936,-272,1648,-8,85,-6
10240,-952,-272,1672,-8,89,-8
10245,-936,-272,1656,-7,90,-7
10250,-944,-272,1680,-10,89,-7
10255,-944,-240,1624,-13,88,-4
10260,-928,-280,1664,-13,88,-5
10265,-952,-280,1680,-10,85,-3
10270,-960,-272,1648,-9,86,-5
10275,-952,-280,1648,-8,84,-2
10280,-936,-256,1656,-8,85,-5
10285,-944,-272,1640,-4,85,-3
10290,-952,-256,1656,-3,85,-5
10295,-952,-280,1680,-2,84,-4
10300,-960,-288,1680,-3,84,-6
10305,-960,-288,1656,0,82,-3
10310,-968,-272,1664,-2,82,-4
10315,-976,-256,1648,-4,82,-2
10320,-952,-240,1640,-6,83,-2
10325,-944,-256,1656,-7,84,-1
10330,-952,-264,1648,-7,84,-2
10335,-968,-248,1656,-7,83,3
10340,-968,-256,1664,-8,83,1
10345,-944,-272,1672,-7,82,2
10350,-952,-288,1640,-8,81,1
10355,-944,-272,1624,-10,78,4
10360,-960,-248,1664,-9,79,2
10365,-952,-272,1648,-8,78,3
10370,-952,-264,1640,-8,76,3
10375,-944,-272,1632,-9,77,2
10380,-960,-272,1648,-8,75,0
10385,-952,-272,1656,-7,75,1
10390,-968,-240,1648,-9,74,0
10395,-952,-256,1632,-8,73,1
10400,-968,-264,1640,-7,72,0
10405,-952,-272,1656,-10,71,1
10410,-944,-248,1648,-11,70,-1
10415,-960,-248,1672,-10,69,2
10420,-960,-256,1656,-11,66,-1
10425,-968,-256,1632,-11,65,0
10430,-968,-248,1648,-11,61,-2
10435,-952,-272,1664,-13,59,0
10440,-960,-272,1632,-14,58,-1
10445,-968,-264,1640,-14,56,-2
10450,-936,-264,1656,-12,56,-4
10455,-1024,-320,1656,-14,55,-2
10460,-896,-280,1584,-15,54,-4
10465,-856,-304,1664,-15,53,-3
10470,-976,-296,1592,-13,54,-5
10475,-936,-312,1656,-10,54,-3
10480,-928,-280,1664,-7,55,-4
10485,-944,-296,1680,-4,54,-4
10490,-952,-288,1656,-1,56,-5
10495,-944,-256,1672,-2,56,-5
10500,-944,-272,1656,-4,58,-6
10505,-968,-240,1664,-8,59,-3
10510,-952,-256,1672,-11,60,-3
10515,-968,-248,1648,-13,59,-2
10520,-944,-264,1672,-14,59,-2
10525,-960,-272,1656,-13,59,-1
10530,-936,-272,1680,-11,59,-1
10535,-936,-264,1672,-9,59,0
10540,-952,-248,1640,-6,60,1
10545,-960,-264,1672,-6,60,1
10550,-928,-272,1664,-7,60,0
10555,-960,-248,1640,-10,59,0
10560,-976,-272,1648,-13,56,0
10565,-952,-280,1640,-13,54,1
10570,-936,-264,1640,-9,54,-1
10575,-928,-288,1656,-5,52,-1
10580,-928,-272,1648,-8,53,-3
10585,-960,-248,1632,-14,54,-6
10590,-928,-264,1664,-19,55,-6
10595,-952,-272,1664,-19,54,-5
10600,-944,-248,1648,-13,54,-6
10605,-976,-272,1672,-12,53,-6
10610,-952,-256,1632,-12,54,-7
10615,-968,-256,1640,-12,55,-7
10620,-936,-288,1664,-10,57,-8
10625,-952,-280,1624,-7,58,-9
10630,-976,-264,1656,-3,60,-8
10635,-920,-272,1632,-3,62,-10
10640,-944,-288,1672,-2,64,-8
10645,-912,-272,1656,-5,65,-7
10650,-952,-264,1632,-5,68,-6
10655,-928,-264,1640,-8,68,-4
10660,-944,-248,1648,-13,69,-3
10665,-936,-280,1648,-17,68,-2
10670,-944,-240,1656,-21,68,0
10675,-952,-248,1640,-26,68,-1
10680,-936,-280,1672,-29,65,-1
10685,-928,-280,1648,-30,63,-2
10690,-928,-272,1672,-29,61,-2
10695,-928,-248,1664,-26,61,-2
10700,-928,-240,1656,-25,62,-2
10705,-944,-272,1648,-24,63,-3
10710,-944,-248,1648,-25,66,-3
10715,-952,-256,1640,-23,65,-5
10720,-936,-232,1680,-22,66,-5
10725,-936,-248,1672,-22,68,-5
10730,-928,-248,1696,-22,67,-5
10735,-944,-264,1664,-21,67,-6
10740,-936,-256,1656,-21,67,-5
10745,-928,-264,1648,-19,67,-7
10750,-936,-256,1656,-20,67,-6
10755,-976,-224,1664,-20,66,-7
10760,-960,-240,1632,-19,66,-6
10765,-928,-248,1656,-21,65,-6
10770,-944,-280,1664,-20,65,-5
10775,-968,-256,1664,-22,65,-6
10780,-944,-272,1696,-23,63,-5
10785,-928,-264,1664,-22,64,-7
10790,-944,-248,1640,-19,64,-4
10795,-936,-248,1648,-19,63,-5
10800,-952,-272,1672,-19,63,-5
10805,-960,-256,1664,-19,62,-5
10810,-984,-272,1656,-19,62,-3
10815,-960,-264,1648,-21,63,-4
10820,-936,-280,1672,-22,61,-2
10825,-968,-248,1656,-24,61,-3
10830,-944,-256,1672,-22,60,0
10835,-952,-280,1648,-21,60,-2
10840,-952,-280,1656,-20,60,0
10845,-944,-264,1664,-18,60,0
10850,-944,-264,1672,-16,58,0
10855,-952,-280,1648,-16,59,-4
10860,-944,-272,1656,-15,62,-1
10865,-944,-240,1656,-16,61,-3
10870,-960,-264,1680,-22,59,-1
10875,-944,-272,1648,-24,58,-1
10880,-952,-248,1672,-21,57,2
10885,-952,-248,1704,-18,57,-1
10890,-944,-248,1632,-15,57,0
10895,-952,-280,1640,-14,57,-2
10900,-944,-280,1696,-12,56,-2
10905,-944,-288,1656,-8,58,-4
10910,-952,-264,1648,-9,58,-2
10915,-952,-272,1664,-8,58,-3
10920,-952,-264,1664,-7,59,0
10925,-968,-240,1672,-8,59,-3
10930,-976,-264,1656,-10,58,0
10935,-944,-240,1672,-13,58,-2
10940,-920,-296,1672,-14,57,-1
10945,-960,-248,1656,-15,57,-2
10950,-960,-264,1672,-15,57,-1
10955,-944,-280,1648,-18,56,-4
10960,-936,-264,1648,-19,57,-2
10965,-968,-256,1656,-18,57,-5
10970,-936,-272,1680,-18,57,-3
10975,-944,-264,1640,-16,57,-7
10980,-936,-280,1664,-16,58,-4
10985,-952,-272,1664,-16,59,-6
10990,-936,-280,1688,-14,61,-3
10995,-960,-256,1672,-12,61,-5
11000,-936,-280,1656,-12,62,-1
11005,-928,-288,1672,-11,62,-4
11010,-960,-256,1672,-10,62,0
11015,-952,-256,1672,-10,63,-2
11020,-952,-256,1648,-10,62,0
11025,-928,-256,1648,-13,63,-1
11030,-952,-256,1648,-13,61,1
11035,-952,-272,1656,-13,62,-2
11040,-936,-264,1672,-11,61,-1
11045,-936,-264,1656,-12,62,-2
11050,-952,-256,1680,-13,61,0
11055,-952,-280,1632,-15,59,-2
11060,-944,-264,1672,-17,58,1
11065,-984,-248,1648,-18,58,-2
11070,-928,-248,1632,-17,59,2
11075,-952,-272,1640,-15,60,0
11080,-928,-256,1680,-16,60,1
11085,-960,-256,1664,-14,62,-1
11090,-960,-272,1680,-13,62,3
11095,-952,-264,1680,-11,63,-1
11100,-952,-264,1672,-12,63,1
11105,-960,-256,1680,-10,63,-1
11110,-936,-288,1648,-10,60,0
11115,-952,-264,1648,-8,60,-2
11120,-952,-280,1656,-5,60,1
11125,-944,-288,1640,-2,60,-2
11130,-936,-280,1656,-1,60,-2
11135,-944,-264,1664,-2,62,-5
11140,-936,-288,1648,-6,62,-3
11145,-976,-240,1656,-10,62,-5
11150,-936,-264,1688,-14,63,-1
11155,-952,-256,1656,-15,62,-3
11160,-960,-256,1680,-17,61,0
11165,-936,-264,1672,-14,60,-2
11170,-944,-280,1656,-12,62,1
11175,-936,-296,1648,-8,63,-1
11180,-944,-264,1656,-6,63,2
11185,-928,-272,1656,-7,63,-1
11190,-936,-272,1680,-6,64,3
11195,-944,-264,1648,-7,63,1
11200,-960,-264,1664,-8,62,3
11205,-944,-280,1672,-6,61,1
11210,-952,-272,1656,1,62,3
11215,-960,-272,1664,4,61,-1
11220,-944,-256,1632,2,61,-1
11225,-952,-248,1632,-8,64,-6
11230,-952,-280,1648,-13,66,-3
11235,-960,-240,1632,-10,66,-4
11240,-952,-264,1640,-7,63,-3
11245,-952,-240,1664,-9,64,-5
11250,-944,-272,1680,-12,63,-4
11255,-944,-256,1656,-11,62,-4
11260,-960,-272,1640,-10,63,-4
11265,-944,-256,1640,-7,64,-7
11270,-944,-256,1648,-4,65,-5
11275,-960,-264,1664,-3,66,-7
11280,-952,-272,1672,-5,67,-6
11285,-952,-248,1648,-7,70,-5
11290,-936,-264,1664,-8,72,-1
11295,-936,-272,1680,-8,75,-1
11300,-944,-248,1664,-11,72,2
11305,-952,-264,1688,-16,70,1
11310,-936,-280,1648,-21,68,5
11315,-960,-264,1640,-24,65,3
11320,-936,-272,1648,-27,62,5
11325,-952,-264,1656,-30,60,2
11330,-936,-264,1680,-32,58,5
11335,-944,-264,1664,-32,56,3
11340,-944,-264,1664,-29,55,4
11345,-944,-272,1672,-28,55,3
11350,-928,-288,1664,-25,55,5
11355,-920,-272,1672,-24,56,2
11360,-960,-280,1664,-26,57,4
11365,-920,-248,1640,-23,59,3
11370,-944,-248,1640,-20,61,3
11375,-920,-288,1672,-19,61,1
11380,-936,-264,1672,-19,62,4
11385,-944,-264,1648,-19,61,2
11390,-936,-280,1672,-18,61,2
11395,-952,-240,1656,-19,59,0
11400,-952,-256,1656,-21,59,1
11405,-944,-248,1664,-20,57,-1
11410,-952,-264,1656,-21,57,-1
11415,-968,-232,1664,-20,55,-2
11420,-976,-256,1656,-21,53,-2
11425,-944,-264,1664,-21,53,-2
11430,-936,-224,1648,-21,54,-1
11435,-944,-248,1688,-21,54,-2
11440,-936,-264,1656,-21,55,-2
11445,-960,-256,1648,-21,54,-2
11450,-968,-272,1640,-21,55,-2
11455,-936,-288,1672,-20,55,-2
11460,-944,-280,1656,-20,56,-2
11465,-960,-256,1632,-20,54,-1
11470,-944,-248,1672,-20,55,1
11475,-960,-272,1664,-18,55,-1
11480,-936,-264,1680,-18,56,0
11485,-936,-264,1696,-17,56,-1
11490,-952,-240,1648,-16,57,-1
11495,-944,-264,1640,-15,57,-1
11500,-944,-304,1640,-14,58,-2
11505,-944,-280,1648,-18,58,-1
11510,-960,-232,1680,-24,56,0
11515,-960,-264,1656,-25,55,0
11520,-936,-280,1648,-21,53,2
11525,-968,-264,1624,-18,52,1
11530,-960,-280,1624,-14,53,-1
11535,-936,-272,1648,-13,53,-3
11540,-952,-280,1640,-13,56,-2
11545,-952,-256,1656,-12,56,-3
11550,-968,-248,1664,-11,57,-5
11555,-944,-256,1648,-9,57,-4
11560,-960,-280,1624,-10,56,-2
11565,-976,-248,1632,-10,56,-4
11570,-952,-272,1648,-12,56,-3
11575,-936,-272,1656,-14,56,-4
11580,-960,-264,1664,-15,56,-4
11585,-936,-296,1656,-16,56,-3
11590,-944,-288,1672,-18,57,-4
11595,-960,-272,1656,-18,58,-5
11600,-952,-264,1688,-18,60,-6
11605,-944,-256,1680,-19,59,-3
11610,-952,-264,1672,-16,61,-4
11615,-944,-264,1664,-13,62,-4
11620,-952,-272,1664,-12,64,-4
11625,-936,-264,1640,-12,64,-3
11630,-952,-280,1656,-12,63,-3
11635,-952,-264,1672,-10,66,-3
11640,-936,-272,1680,-10,66,-3
11645,-952,-256,1648,-9,65,-2
11650,-952,-264,1656,-11,65,-2
11655,-936,-264,1696,-11,64,0
11660,-952,-272,1632,-10,64,-1
11665,-936,-256,1648,-10,64,-1
11670,-928,-264,1648,-10,63,-1
11675,-960,-256,1648,-10,63,-1
11680,-960,-272,1640,-10,63,-1
11685,-960,-272,1672,-12,61,0
11690,-952,-264,1664,-13,62,-3
11695,-928,-272,1648,-13,62,-2
11700,-936,-272,1672,-13,60,-3
11705,-952,-256,1624,-16,61,-2
11710,-952,-264,1656,-15,60,-2
11715,-952,-240,1632,-17,59,-1
11720,-928,-256,1696,-15,58,-3
11725,-952,-272,1656,-17,58,-2
11730,-952,-264,1672,-18,59,-3
11735,-968,-272,1664,-15,59,-2
11740,-960,-264,1680,-13,59,-5
11745,-960,-280,1648,-14,60,-3
11750,-968,-264,1632,-13,58,-5
11755,-952,-256,1656,-12,59,-2
11760,-960,-288,1672,-11,59,-4
11765,-952,-280,1680,-9,59,-3
11770,-960,-264,1664,-7,58,-3
11775,-960,-288,1648,-4,59,-2
11780,-952,-280,1656,-2,61,-4
11785,-968,-256,1680,-1,60,-3
11790,-936,-256,1680,-2,62,-5
11795,-936,-288,1680,-5,64,-3
11800,-960,-248,1656,-10,65,-4
11805,-952,-232,1688,-14,64,-2
11810,-928,-264,1680,-16,65,-2
11815,-952,-264,1672,-16,64,1
11820,-936,-248,1648,-16,63,-1
11825,-944,-264,1672,-14,64,1
11830,-960,-264,1656,-11,62,-1
11835,-976,-272,1640,-7,62,1
11840,-952,-272,1656,-5,62,-1
11845,-936,-264,1648,-5,61,1
11850,-944,-256,1624,-7,61,-1
11855,-944,-264,1616,-9,58,2
11860,-960,-264,1680,-11,56,0
11865,-944,-272,1656,-7,55,1
11870,-944,-256,1640,-3,58,-1
11875,-960,-264,1672,-3,59,-1
11880,-960,-216,1656,-9,61,-5
11885,-976,-248,1680,-15,62,-5
11890,-960,-248,1688,-14,63,-7
11895,-976,-256,1648,-9,63,-5
11900,-968,-256,1648,-7,61,-6
11905,-960,-272,1648,-11,61,-5
11910,-952,-256,1656,-12,59,-7
11915,-928,-280,1672,-11,59,-5
11920,-960,-256,1640,-9,60,-8
11925,-936,-280,1664,-6,61,-7
11930,-944,-272,1656,-4,61,-12
11935,-936,-280,1648,-7,63,-8
11940,-936,-248,1680,-9,64,-9
11945,-936,-272,1656,-10,66,-5
11950,-952,-272,1680,-12,69,-5
11955,-944,-272,1680,-15,69,-2
11960,-952,-280,1672,-19,68,-1
11965,-928,-248,1664,-24,66,2
11970,-944,-264,1672,-26,63,1
11975,-952,-280,1664,-29,61,3
11980,-960,-280,1664,-31,59,1
11985,-936,-288,1656,-29,56,2
11990,-936,-264,1688,-29,56,1
11995,-960,-248,1664,-27,57,2
12000,-952,-256,1640,-24,56,-1
12005,-952,-272,1672,-23,58,0
12010,-960,-224,1648,-24,59,-2
12015,-936,-256,1656,-23,58,0
12020,-952,-248,1664,-22,59,-2
12025,-952,-256,1680,-22,60,0
12030,-944,-264,1696,-20,61,-3
12035,-936,-248,1648,-20,61,0
12040,-960,-264,1680,-18,61,-2
12045,-944,-240,1664,-18,60,-1
12050,-936,-256,1656,-18,60,-4
12055,-944,-248,1680,-19,60,-1
12060,-944,-264,1664,-21,61,-4
12065,-928,-264,1672,-21,60,-2
12070,-960,-256,1688,-23,59,-5
12075,-952,-272,1656,-22,57,-4
12080,-944,-256,1680,-22,57,-6
12085,-968,-272,1656,-20,57,-3
12090,-944,-272,1672,-19,58,-5
12095,-952,-264,1664,-18,61,-3
12100,-944,-264,1664,-18,60,-4
12105,-952,-240,1664,-19,60,-1
12110,-968,-256,1648,-21,60,-4
12115,-936,-264,1656,-19,60,1
12120,-952,-272,1632,-19,60,-1
12125,-952,-296,1648,-20,58,2
12130,-968,-288,1664,-20,58,-1
12135,-952,-248,1632,-19,58,3
12140,-960,-272,1656,-16,55,0
12145,-944,-280,1672,-16,56,1
12150,-944,-256,1664,-16,56,-1
12155,-936,-272,1640,-16,58,0
12160,-944,-272,1672,-17,60,-3
12165,-968,-264,1656,-23,59,0
12170,-960,-264,1656,-26,56,-1
12175,-944,-272,1664,-25,54,3
12180,-936,-272,1656,-21,53,1
12185,-944,-272,1632,-15,53,0
12190,-936,-280,1672,-12,54,-3
12195,-944,-264,1672,-10,56,-1
12200,-936,-272,1664,-11,57,-3
12205,-944,-296,1680,-10,59,-1
12210,-952,-280,1688,-8,60,-3
12215,-952,-264,1640,-7,59,-1
12220,-952,-264,1648,-7,59,-3
12225,-952,-256,1624,-8,58,-1
12230,-944,-264,1672,-11,58,-3
12235,-952,-272,1672,-12,58,-2
12240,-944,-272,1656,-15,58,-3
12245,-960,-264,1648,-17,58,-2
12250,-952,-272,1648,-16,59,-5
12255,-968,-256,1672,-16,59,-2
12260,-864,-296,1800,-16,60,-3
12265,-944,-280,1672,-14,59,-2
12270,-960,-264,1648,-14,59,-4
12275,-928,-264,1624,-13,60,-2
12280,-952,-248,1688,-12,62,-4
12285,-952,-248,1664,-12,61,-3
12290,-936,-280,1688,-12,65,-4
12295,-944,-296,1656,-11,64,-1
12300,-944,-272,1672,-10,65,-4
12305,-960,-240,1656,-10,64,-2
12310,-960,-264,1664,-9,62,-3
12315,-952,-272,1656,-10,62,-2
12320,-952,-280,1664,-10,63,-2
12325,-960,-256,1672,-11,61,-1
12330,-952,-264,1656,-11,63,-1
12335,-952,-264,1632,-9,63,0
12340,-960,-240,1656,-10,62,-2
12345,-960,-272,1672,-11,62,-2
12350,-944,-224,1648,-12,62,-4
12355,-936,-256,1656,-12,61,-3
12360,-960,-264,1640,-11,60,-3
12365,-952,-272,1680,-12,60,-2
12370,-952,-256,1656,-13,60,-3
12375,-960,-264,1680,-13,61,-2
12380,-928,-280,1680,-14,59,-4
12385,-968,-264,1680,-14,58,-2
12390,-960,-248,1680,-14,61,-4
12395,-936,-280,1640,-14,60,-2
12400,-920,-264,1648,-13,58,-4
12405,-936,-272,1656,-14,60,-4
12410,-944,-288,1680,-13,59,-4
12415,-944,-256,1680,-11,61,-2
12420,-960,-264,1640,-10,61,-2
12425,-968,-280,1664,-10,60,-2
12430,-944,-272,1648,-10,59,-3
12435,-960,-280,1672,-8,59,-3
12440,-944,-264,1656,-6,58,-3
12445,-968,-264,1648,-4,58,-1
12450,-952,-264,1664,-4,58,-3
12455,-968,-272,1680,-1,59,-2
12460,-944,-264,1656,-4,60,-3
12465,-944,-256,1656,-7,62,-3
12470,-984,-264,1640,-12,62,-4
12475,-928,-256,1680,-15,63,-2
12480,-968,-256,1664,-18,64,-1
12485,-944,-264,1672,-16,63,1
12490,-960,-264,1664,-15,62,1
12495,-936,-272,1680,-12,62,1
12500,-928,-280,1648,-10,62,1
12505,-952,-272,1664,-6,62,1
12510,-960,-256,1664,-5,63,1
12515,-944,-264,1640,-3,61,1
12520,-936,-264,1672,-5,60,1
12525,-952,-264,1640,-8,59,1
12530,-968,-264,1696,-9,58,1
12535,-944,-288,1656,-1,59,1
12540,-928,-288,1640,3,60,0
12545,-960,-248,1672,1,62,-3
12550,-960,-248,1680,-9,63,-6
12555,-952,-256,1656,-13,64,-5
12560,-960,-248,1664,-11,66,-6
12565,-952,-232,1648,-8,66,-5
12570,-984,-224,1648,-7,65,-5
12575,-960,-248,1648,-11,63,-5
12580,-976,-272,1640,-10,61,-5
12585,-944,-272,1656,-8,61,-5
12590,-960,-264,1624,-6,61,-8
12595,-968,-272,1664,-4,62,-7
12600,-952,-264,1672,-4,61,-7
12605,-952,-240,1664,-6,63,-9
12610,-952,-272,1680,-9,65,-6
12615,-944,-264,1688,-12,66,-6
12620,-912,-288,1640,-12,67,-4
12625,-928,-264,1648,-14,68,-2
12630,-960,-280,1672,-18,67,-1
12635,-952,-280,1648,-23,64,1
12640,-944,-272,1680,-26,63,2
12645,-936,-264,1656,-27,61,2
12650,-960,-288,1656,-28,59,1
12655,-952,-264,1672,-27,58,1
12660,-928,-280,1624,-27,57,1
12665,-936,-280,1672,-25,57,-1
12670,-936,-280,1672,-23,58,0
12675,-944,-264,1656,-22,58,-3
12680,-952,-272,1624,-21,58,-2
12685,-968,-248,1688,-20,60,-3
12690,-944,-256,1672,-22,60,-2
12695,-936,-280,1680,-21,60,-2
12700,-944,-240,1648,-20,59,-3
12705,-936,-280,1648,-19,60,-3
12710,-928,-264,1648,-18,61,-1
12715,-960,-280,1656,-17,60,-3
12720,-952,-272,1632,-17,60,-1
12725,-960,-256,1696,-19,60,-3
12730,-952,-280,1664,-19,59,-1
12735,-944,-256,1648,-22,60,-4
12740,-952,-264,1672,-22,60,-3
12745,-952,-280,1664,-23,58,-3
12750,-952,-272,1664,-22,58,-2
12755,-944,-264,1656,-20,58,-4
12760,-944,-264,1672,-19,57,0
12765,-952,-248,1672,-19,58,-3
12770,-944,-272,1640,-18,58,0
12775,-928,-280,1656,-16,59,-2
12780,-968,-248,1672,-17,60,-1
12785,-944,-264,1656,-18,59,-2
12790,-968,-264,1672,-18,58,1
12795,-928,-272,1664,-19,57,-1
12800,-944,-256,1640,-18,56,2
12805,-936,-280,1680,-19,58,0
12810,-944,-248,1680,-17,58,3
12815,-960,-256,1640,-14,58,-1
12820,-944,-264,1640,-14,59,0
12825,-952,-264,1688,-13,60,-3
12830,-944,-272,1680,-15,60,-1
12835,-960,-224,1656,-20,59,-3
12840,-944,-272,1696,-24,58,0
12845,-936,-272,1664,-21,56,0
12850,-944,-272,1672,-17,55,2
12855,-944,-264,1672,-13,56,-2
12860,-944,-248,1648,-11,57,-1
12865,-952,-272,1640,-10,56,-4
12870,-928,-280,1648,-11,56,-2
12875,-928,-272,1656,-10,56,-3
12880,-936,-264,1640,-10,58,-2
12885,-960,-264,1640,-10,59,-3
12890,-960,-256,1680,-9,59,-2
12895,-952,-264,1656,-9,60,-3
12900,-952,-256,1656,-13,60,0
12905,-968,-248,1656,-14,57,-2
12910,-936,-272,1656,-16,58,1
12915,-952,-256,1648,-16,58,-3
12920,-960,-264,1640,-16,60,-1
12925,-944,-264,1672,-16,61,-3
12930,-936,-280,1696,-15,61,-1
12935,-944,-272,1656,-13,62,-3
12940,-944,-288,1672,-12,62,-1
12945,-928,-256,1656,-11,64,-3
12950,-960,-288,1656,-11,64,0
12955,-936,-264,1648,-11,65,-3
12960,-936,-272,1664,-11,64,-1
12965,-952,-272,1656,-9,64,-2
12970,-968,-256,1656,-10,64,0
12975,-936,-248,1632,-11,62,-2
12980,-944,-264,1640,-10,63,0
12985,-936,-272,1640,-10,64,-3
12990,-952,-264,1656,-10,63,0
12995,-944,-256,1672,-10,63,-1
13000,-944,-256,1640,-11,62,0
13005,-944,-264,1648,-9,60,-2
13010,-968,-240,1656,-8,61,-1
13015,-936,-248,1632,-10,61,-4
13020,-944,-256,1672,-9,61,-2
13025,-960,-248,1648,-8,61,-6
13030,-944,-280,1656,-10,61,-2
13035,-960,-256,1672,-10,59,-4
13040,-960,-256,1624,-10,60,0
13045,-952,-248,1664,-13,61,-4
13050,-952,-264,1672,-12,59,-2
13055,-952,-272,1632,-13,59,-4
13060,-936,-296,1656,-13,59,-3
13065,-944,-256,1680,-12,59,-4
13070,-952,-264,1648,-13,60,-3
13075,-936,-264,1664,-13,60,-6
13080,-936,-272,1664,-13,60,-3
13085,-944,-272,1664,-11,60,-5
13090,-960,-264,1648,-10,60,-3
13095,-952,-248,1640,-10,57,-5
13100,-944,-264,1648,-8,58,-1
13105,-936,-264,1640,-6,57,-3
13110,-944,-280,1672,-6,57,0
13115,-968,-272,1656,-3,57,-2
13120,-944,-280,1648,-1,57,0
13125,-952,-288,1656,1,58,-4
13130,-968,-264,1688,0,60,-2
13135,-960,-248,1648,-5,61,-4
13140,-936,-256,1648,-8,62,-3
13145,-952,-248,1680,-13,64,-4
13150,-944,-272,1656,-14,64,-1
13155,-960,-264,1640,-16,63,-2
13160,-944,-272,1664,-18,62,0
13165,-928,-272,1664,-14,61,-2
13170,-928,-272,1632,-10,61,1
13175,-960,-264,1648,-6,60,-1
13180,-936,-248,1672,-4,61,1
13185,-944,-280,1656,-3,60,-2
13190,-960,-256,1672,-5,59,-1
13195,-976,-256,1672,-6,57,-1
13200,-928,-272,1656,-9,56,0
13205,-944,-272,1664,-8,56,-2
13210,-936,-272,1656,-3,55,0
13215,-936,-248,1656,-1,57,-4
13220,-952,-240,1664,-6,60,-4
13225,-952,-248,1672,-13,62,-7
13230,-944,-232,1696,-13,64,-5
13235,-992,-232,1680,-9,65,-7
13240,-960,-232,1648,-8,65,-6
13245,-944,-248,1624,-8,64,-8
13250,-928,-264,1656,-11,63,-6
13255,-968,-256,1656,-11,61,-9
13260,-952,-256,1640,-9,60,-5
13265,-960,-280,1648,-6,61,-10
13270,-952,-256,1640,-2,61,-7
13275,-968,-264,1672,-4,61,-10
13280,-952,-248,1640,-7,62,-8
13285,-952,-256,1640,-9,65,-7
13290,-928,-280,1656,-11,66,-4
13295,-936,-280,1688,-11,68,-4
13300,-936,-256,1640,-13,67,0
13305,-944,-272,1624,-19,66,-1
13310,-944,-248,1664,-23,63,1
13315,-944,-240,1664,-26,62,0
13320,-928,-272,1648,-29,61,2
13325,-952,-264,1664,-30,59,-1
13330,-960,-280,1648,-28,57,1
13335,-944,-272,1632,-26,56,-2
13340,-936,-256,1648,-23,57,0
13345,-936,-264,1624,-23,57,-1
13350,-936,-256,1648,-23,57,1
13355,-952,-248,1656,-21,59,-3
13360,-928,-280,1680,-23,59,-1
13365,-936,-224,1696,-21,59,-3
13370,-968,-256,1664,-20,60,-1
13375,-952,-240,1648,-19,60,-2
13380,-960,-256,1632,-20,62,-2
13385,-936,-272,1672,-20,61,-4
13390,-952,-248,1664,-20,61,-2
13395,-976,-264,1648,-18,61,-5
13400,-960,-248,1664,-19,61,-1
13405,-936,-256,1672,-19,61,-3
13410,-944,-264,1624,-23,59,-3
13415,-952,-248,1672,-23,58,-4
13420,-952,-264,1656,-22,57,-3
13425,-936,-264,1656,-22,57,-5
13430,-928,-256,1672,-21,58,-4
13435,-944,-264,1648,-20,56,-5
13440,-952,-248,1656,-20,56,-3
13445,-944,-256,1656,-20,59,-3
13450,-936,-272,1648,-19,58,0
13455,-944,-264,1656,-19,58,-2
13460,-952,-280,1648,-18,59,0
13465,-944,-256,1640,-19,59,0
13470,-936,-280,1656,-18,57,0
13475,-960,-272,1656,-19,58,0
13480,-936,-264,1656,-18,56,2
13485,-952,-248,1688,-19,56,2
13490,-960,-264,1640,-18,55,1
13495,-960,-264,1656,-18,56,-1
13500,-952,-256,1632,-17,59,0
13505,-944,-272,1664,-20,60,-1
13510,-960,-264,1664,-26,59,1
13515,-952,-288,1656,-29,56,0
13520,-952,-280,1656,-26,54,3
13525,-952,-264,1656,-21,52,1
13530,-960,-264,1672,-14,53,-1
13535,-952,-264,1648,-12,54,-2
13540,-928,-288,1664,-12,56,-2
13545,-952,-296,1656,-10,56,-4
13550,-936,-280,1624,-9,58,-3
13555,-928,-280,1672,-7,58,-3
13560,-960,-272,1616,-6,59,-4
13565,-960,-264,1648,-7,59,-4
13570,-928,-272,1648,-9,60,-2
13575,-944,-248,1664,-12,59,-2
13580,-960,-248,1656,-15,59,-3
13585,-944,-264,1656,-16,59,-3
13590,-936,-312,1656,-18,60,-3
13595,-944,-272,1640,-16,60,-4
13600,-944,-264,1688,-17,59,-2
13605,-960,-264,1680,-14,61,-3
13610,-936,-264,1680,-13,62,-3
13615,-952,-256,1664,-14,64,-2
13620,-944,-288,1680,-11,63,-1
13625,-928,-272,1664,-11,63,-1
13630,-944,-280,1648,-10,65,-1
13635,-952,-248,1688,-11,66,-1
13640,-944,-248,1656,-12,65,-1
13645,-968,-248,1664,-13,65,-2
13650,-936,-272,1688,-12,64,0
13655,-944,-272,1664,-13,63,-1
13660,-944,-264,1656,-13,63,-1
13665,-936,-256,1600,-12,61,0
13670,-928,-264,1624,-11,61,-1
13675,-952,-256,1632,-11,60,-1
13680,-944,-248,1632,-10,61,-2
13685,-960,-256,1640,-10,60,-1
13690,-944,-256,1632,-11,60,-2
13695,-952,-280,1664,-13,60,-4
13700,-952,-264,1648,-12,59,-2
13705,-944,-288,1640,-13,59,-3
13710,-960,-264,1648,-13,58,-5
13715,-928,-264,1656,-13,59,-4
13720,-960,-256,1664,-13,58,-4
13725,-936,-288,1648,-14,57,-2
13730,-952,-264,1640,-14,57,-3
13735,-944,-272,1680,-13,57,-4
13740,-992,-264,1656,-13,58,-3
13745,-944,-272,1688,-14,58,-3
13750,-960,-272,1656,-14,58,-3
13755,-960,-280,1656,-13,58,-3
13760,-960,-272,1640,-12,58,-5
13765,-952,-272,1640,-11,59,-2
13770,-936,-256,1664,-12,59,-3
13775,-936,-264,1648,-10,61,-3
13780,-936,-248,1672,-9,61,-4
13785,-952,-264,1672,-8,60,-3
13790,-960,-248,1672,-7,60,-3
13795,-960,-272,1648,-7,59,-1
13800,-968,-264,1640,-6,59,-2
13805,-944,-280,1688,-5,59,-2
13810,-944,-264,1656,-4,58,-4
13815,-960,-256,1664,-3,58,-3
13820,-952,-272,1656,-4,58,-4
13825,-960,-240,1632,-5,61,-3
13830,-952,-248,1672,-9,62,-5
13835,-944,-256,1656,-13,63,-2
13840,-968,-240,1664,-17,64,-3
13845,-936,-256,1680,-18,63,0
13850,-952,-280,1648,-16,62,-3
13855,-952,-280,1648,-15,60,-1
13860,-936,-256,1648,-11,62,-2
13865,-944,-272,1648,-6,62,-1
13870,-944,-272,1648,-6,62,-2
13875,-944,-240,1640,-3,62,-1
13880,-960,-272,1656,-3,62,-1
13885,-944,-272,1672,-6,58,0
13890,-920,-280,1656,-9,58,-3
13895,-944,-272,1640,-10,57,-1
13900,-960,-264,1672,-6,57,-5
13905,-944,-264,1672,-2,60,-2
13910,-952,-264,1672,-4,61,-6
13915,-952,-256,1656,-11,62,-6
13920,-936,-272,1648,-15,65,-7
13925,-976,-248,1664,-11,65,-5
13930,-952,-264,1664,-8,66,-8
13935,-968,-248,1648,-9,65,-7
13940,-952,-264,1672,-12,65,-9
13945,-952,-272,1640,-13,63,-6
13950,-936,-264,1632,-12,62,-8
13955,-944,-272,1664,-10,61,-6
13960,-960,-256,1656,-7,60,-8
13965,-944,-256,1672,-6,61,-8
13970,-952,-280,1656,-8,63,-10
13975,-928,-240,1648,-10,61,-7
13980,-928,-256,1680,-11,63,-6
13985,-944,-272,1640,-12,65,-3
13990,-952,-272,1624,-12,66,-3
13995,-944,-256,1624,-16,65,0
14000,-928,-256,1592,-22,64,0
14005,-968,-296,1712,-26,62,2
14010,-960,-248,1768,-29,61,0
14015,-936,-192,1640,-31,57,3
14020,-952,-288,1608,-31,58,-1
14025,-944,-264,1648,-29,57,1
14030,-944,-264,1648,-26,59,-3
14035,-952,-248,1664,-25,60,-1
14040,-944,-264,1672,-22,60,-3
14045,-960,-256,1672,-22,59,0
14050,-944,-256,1656,-20,60,-4
14055,-936,-264,1664,-21,60,-1
14060,-952,-272,1648,-21,61,-4
14065,-936,-272,1672,-21,60,-2
14070,-944,-280,1632,-20,61,-3
14075,-928,-272,1648,-21,62,-2
14080,-952,-264,1656,-20,61,-4
14085,-928,-264,1656,-20,61,-1
14090,-944,-264,1640,-20,60,-4
14095,-952,-280,1632,-23,61,-2
14100,-952,-256,1672,-24,59,-2
14105,-936,-272,1672,-25,58,0
14110,-960,-280,1680,-26,58,-4
14115,-952,-272,1696,-24,58,-2
14120,-952,-272,1656,-22,57,-5
14125,-944,-264,1656,-20,59,-2
14130,-960,-264,1656,-18,58,-5
14135,-952,-264,1648,-18,59,-1
14140,-960,-248,1664,-18,59,-3
14145,-952,-264,1656,-19,60,0
14150,-928,-288,1664,-20,61,-2
14155,-960,-256,1672,-19,61,0
14160,-936,-272,1648,-19,61,-2
14165,-952,-272,1664,-20,60,1
14170,-952,-272,1624,-18,61,-1
14175,-968,-272,1664,-16,58,0
14180,-944,-264,1632,-16,58,-2
14185,-968,-264,1640,-16,57,0
14190,-968,-272,1632,-15,59,-4
14195,-968,-248,1656,-15,61,-1
14200,-976,-264,1640,-19,60,-3
14205,-952,-248,1688,-24,59,0
14210,-952,-272,1656,-25,57,-1
14215,-920,-296,1640,-20,54,2
14220,-936,-272,1680,-16,54,0
14225,-952,-264,1656,-14,53,1
14230,-960,-280,1616,-13,55,-3
14235,-944,-272,1640,-13,57,0
14240,-936,-272,1656,-13,57,-4
14245,-952,-280,1672,-12,57,-2
14250,-936,-264,1640,-12,58,-4
14255,-960,-264,1664,-10,57,-1
14260,-936,-256,1664,-11,60,-5
14265,-944,-256,1640,-13,59,-2
14270,-928,-280,1664,-14,59,-4
14275,-952,-272,1664,-15,58,-1
14280,-952,-280,1672,-14,57,-4
14285,-952,-280,1664,-14,59,-2
14290,-944,-288,1648,-15,60,-5
14295,-944,-256,1656,-16,61,-2
14300,-928,-288,1696,-16,60,-4
14305,-936,-272,1680,-16,62,-1
14310,-944,-272,1640,-13,62,-2
14315,-928,-280,1648,-13,62,0
14320,-936,-272,1680,-14,64,-3
14325,-952,-264,1640,-15,64,-1
14330,-944,-280,1656,-14,65,-3
14335,-944,-272,1672,-14,64,0
14340,-960,-248,1664,-13,63,-2
14345,-952,-264,1656,-14,64,0
14350,-960,-272,1664,-14,63,-2
14355,-944,-264,1648,-14,64,1
14360,-952,-288,1648,-15,63,-1
14365,-952,-264,1648,-14,63,3
14370,-968,-232,1656,-14,64,0
14375,-936,-280,1640,-14,64,2
14380,-936,-280,1672,-14,64,-1
14385,-968,-232,1664,-15,65,1
14390,-936,-264,1648,-16,66,-1
14395,-976,-256,1640,-14,64,0
14400,-952,-240,1648,-17,63,0
14405,-936,-280,1688,-16,62,3
14410,-936,-264,1688,-17,62,0
14415,-936,-280,1656,-18,63,2
14420,-936,-280,1680,-15,64,0
14425,-960,-288,1672,-14,64,0
14430,-944,-272,1664,-14,66,-2
14435,-960,-280,1664,-11,65,-1
14440,-944,-272,1688,-11,65,-2
14445,-952,-296,1656,-8,66,-2
14450,-944,-280,1656,-6,68,-4
14455,-960,-264,1648,-6,68,-1
14460,-944,-264,1632,-4,66,-4
14465,-960,-272,1656,-5,66,-2
14470,-928,-264,1672,-4,65,-2
14475,-936,-280,1680,-2,64,-2
14480,-968,-272,1640,-2,65,-3
14485,-952,-248,1688,0,64,-1
14490,-968,-256,1632,1,65,-2
14495,-968,-264,1672,1,64,-2
14500,-968,-272,1656,2,63,-3
14505,-952,-248,1632,0,62,-1
14510,-952,-280,1648,1,61,-3
14515,-960,-264,1640,2,60,-1
14520,-960,-256,1664,5,61,-4
14525,-928,-288,1664,7,62,-4
14530,-960,-248,1680,7,65,-6
14535,-952,-272,1656,6,68,-5
14540,-960,-264,1664,5,68,-6
14545,-960,-248,1640,2,71,-4
14550,-944,-264,1664,-2,73,-5
14555,-960,-264,1672,-3,72,-1
14560,-976,-256,1656,-2,71,-2
14565,-952,-264,1632,0,71,-1
14570,-976,-256,1672,4,71,-1
14575,-960,-288,1648,8,72,-1
14580,-928,-272,1640,12,72,-2
14585,-936,-280,1640,13,71,-1
14590,-944,-280,1656,13,69,-2
14595,-944,-256,1672,9,66,0
14600,-928,-256,1664,6,62,0
14605,-936,-256,1656,3,61,-1
14610,-944,-288,1664,6,62,-3
14615,-952,-272,1640,9,64,-3
14620,-952,-232,1648,11,66,-6
14625,-976,-256,1672,9,69,-9
14630,-984,-256,1664,10,70,-8
14635,-976,-256,1624,15,75,-6
14640,-960,-232,1648,18,73,-8
14645,-976,-248,1640,19,74,-7
14650,-944,-264,1680,16,73,-8
14655,-952,-264,1640,14,71,-7
14660,-968,-240,1640,15,67,-7
14665,-952,-264,1640,16,67,-8
14670,-976,-272,1664,18,66,-7
14675,-952,-264,1648,17,66,-8
14680,-928,-288,1672,14,66,-8
14685,-952,-264,1688,11,66,-7
14690,-944,-264,1632,11,67,-5
14695,-944,-256,1672,10,69,-2
14700,-960,-256,1656,5,68,-1
14705,-944,-264,1648,0,67,0
14710,-960,-248,1656,-5,64,2
14715,-944,-256,1632,-11,61,2
14720,-960,-248,1656,-15,58,2
14725,-976,-240,1648,-16,56,0
14730,-960,-240,1624,-17,56,-1
14735,-952,-248,1632,-17,56,-3
14740,-976,-248,1616,-17,56,-2
14745,-984,-232,1648,-14,55,-3
14750,-952,-232,1672,-12,58,-2
14755,-960,-272,1656,-13,59,-3
14760,-968,-224,1624,-12,60,-2
14765,-968,-240,1640,-11,61,-1
14770,-960,-256,1656,-10,61,-1
14775,-952,-240,1648,-9,62,-2
14780,-960,-248,1616,-9,63,-1
14785,-952,-240,1632,-9,62,-3
14790,-952,-240,1648,-11,60,-2
14795,-960,-248,1648,-13,59,-3
14800,-944,-256,1672,-14,58,-3
14805,-936,-256,1664,-15,57,-4
14810,-968,-240,1640,-18,58,-4
14815,-960,-256,1648,-20,54,-5
14820,-960,-240,1640,-21,53,-3
14825,-952,-248,1664,-20,52,-6
14830,-960,-224,1680,-20,52,-3
14835,-960,-272,1664,-20,52,-3
14840,-952,-264,1656,-19,51,-2
14845,-960,-264,1648,-18,52,-2
14850,-952,-248,1656,-18,54,-2
14855,-960,-264,1656,-17,54,-3
14860,-968,-240,1664,-18,54,1
14865,-952,-272,1672,-18,54,-1
14870,-936,-248,1648,-18,54,1
14875,-960,-256,1696,-17,54,0
14880,-960,-256,1656,-16,54,1
14885,-968,-264,1624,-16,55,0
14890,-960,-272,1648,-16,55,1
14895,-936,-256,1664,-17,55,0
14900,-952,-256,1648,-18,56,-1
14905,-960,-264,1648,-18,57,-2
14910,-960,-256,1664,-23,58,2
14915,-936,-256,1632,-28,56,0
14920,-944,-248,1664,-29,52,5
14925,-952,-248,1640,-27,51,3
14930,-968,-248,1632,-20,51,2
14935,-944,-272,1656,-17,52,1
14940,-936,-272,1656,-15,53,1
14945,-960,-256,1672,-13,57,-3
14950,-944,-264,1672,-11,58,0
14955,-976,-232,1656,-10,59,-1
14960,-952,-256,1672,-9,60,0
14965,-960,-256,1640,-8,59,-1
14970,-952,-256,1656,-9,58,2
14975,-952,-264,1640,-14,58,2
14980,-960,-256,1640,-17,54,2
14985,-944,-256,1680,-18,54,-1
14990,-952,-256,1680,-20,54,2
14995,-968,-256,1688,-21,55,-1
