timestamp,accel_x,accel_y,accel_z,gyro_x,gyro_y,gyro_z
0,48,-1840,-496,-318,28,86
5,96,-1888,-520,-376,11,71
10,112,-1976,-520,-427,2,53
15,144,-2048,-504,-468,-8,30
20,184,-2096,-504,-499,-21,5
25,192,-2112,-400,-503,-39,-18
30,232,-2224,-464,-484,-63,-44
35,232,-2248,-432,-443,-90,-66
40,216,-2304,-416,-382,-119,-89
45,256,-2304,-400,-308,-145,-106
50,248,-2288,-384,-226,-168,-121
55,256,-2304,-376,-142,-193,-130
60,264,-2264,-376,-58,-215,-139
65,224,-2232,-368,16,-232,-141
70,224,-2200,-360,78,-248,-139
75,176,-2112,-384,135,-262,-129
80,176,-2104,-392,167,-274,-117
85,152,-2072,-400,189,-286,-100
90,104,-2032,-416,202,-300,-83
95,104,-2032,-408,211,-310,-60
100,72,-1984,-384,213,-319,-39
105,88,-1976,-440,209,-326,-13
110,80,-1944,-464,195,-333,12
115,128,-1960,-488,174,-342,40
120,88,-1936,-488,145,-351,61
125,112,-1888,-496,113,-361,87
130,160,-1896,-512,84,-371,109
135,168,-1872,-504,60,-376,127
140,224,-1856,-480,50,-378,134
145,288,-1856,-472,43,-376,142
150,328,-1848,-456,41,-373,138
155,344,-1864,-456,34,-367,138
160,376,-1832,-488,23,-361,129
165,400,-1848,-456,4,-353,123
170,440,-1856,-480,-21,-341,112
175,456,-1880,-504,-50,-327,103
180,496,-1912,-528,-82,-308,90
185,552,-1960,-552,-115,-283,80
190,592,-1992,-552,-149,-249,61
195,600,-2072,-560,-188,-219,50
200,512,-2088,-512,-213,-195,35
205,504,-2128,-472,-232,-172,23
210,528,-2216,-448,-230,-170,18
215,496,-2248,-416,-214,-175,14
220,416,-2280,-416,-185,-171,5
225,424,-2312,-320,-138,-165,7
230,448,-2328,-336,-72,-164,10
235,544,-2336,-264,5,-162,18
240,544,-2256,-368,83,-149,17
245,576,-2208,-360,154,-122,9
250,448,-2104,-376,219,-74,-12
255,336,-2072,-384,242,-33,-33
260,264,-2016,-328,236,-21,-50
265,224,-1952,-312,207,-35,-61
270,216,-1904,-296,169,-67,-73
275,248,-1912,-304,132,-93,-77
280,232,-1896,-288,108,-107,-81
285,232,-1920,-304,99,-109,-77
290,248,-1928,-232,105,-108,-72
295,256,-1928,-264,116,-96,-60
300,240,-1896,-224,127,-80,-52
305,256,-1928,-232,131,-57,-36
310,224,-1912,-232,121,-39,-26
315,224,-1936,-224,99,-31,-12
320,208,-1960,-256,69,-33,-4
325,184,-1992,-256,38,-45,5
330,192,-2032,-304,10,-63,10
335,136,-2056,-320,-9,-84,15
340,176,-2080,-336,-16,-107,22
345,184,-2096,-440,-15,-127,31
350,200,-2088,-440,-4,-141,38
355,224,-2080,-456,9,-143,47
360,240,-2088,-440,25,-138,53
365,248,-2064,-440,42,-120,59
370,272,-2064,-424,52,-108,60
375,232,-2032,-368,57,-101,61
380,256,-2048,-368,58,-97,62
385,272,-2008,-344,52,-98,62
390,280,-1992,-336,40,-101,61
395,296,-1984,-328,27,-107,61
400,288,-2008,-328,15,-113,61
405,328,-2000,-312,0,-113,59
410,360,-2032,-312,-12,-111,55
415,360,-2040,-320,-24,-105,50
420,360,-2008,-312,-34,-96,43
425,368,-1992,-312,-45,-86,37
430,368,-2016,-296,-50,-79,29
435,368,-2024,-328,-52,-69,19
440,368,-2008,-336,-48,-59,11
445,376,-2024,-344,-40,-48,2
450,392,-2016,-320,-32,-35,-4
455,344,-2000,-296,-22,-21,-11
460,376,-2008,-304,-13,-5,-15
465,360,-2008,-272,-4,11,-19
470,376,-2008,-320,4,29,-20
475,360,-2016,-288,11,45,-21
480,376,-2000,-256,15,63,-17
485,328,-1968,-288,16,76,-16
490,344,-1976,-280,12,90,-11
495,328,-1976,-296,5,99,-10
500,320,-2000,-344,-1,108,-4
505,320,-2008,-296,-8,118,-2
510,352,-2000,-344,-15,127,1
515,320,-2008,-336,-21,135,-1
520,320,-2016,-304,-26,143,-3
525,296,-2040,-280,-31,153,-5
530,256,-2040,-280,-31,159,-6
535,256,-2048,-304,-29,161,-11
540,248,-2048,-280,-24,159,-11
545,232,-2072,-288,-19,154,-16
550,200,-2040,-280,-14,148,-15
555,208,-2064,-272,-8,141,-18
560,152,-2040,-280,-4,131,-17
565,192,-2024,-240,3,123,-18
570,192,-2032,-320,9,114,-16
575,216,-2040,-288,17,105,-18
580,208,-2032,-272,27,100,-18
585,208,-2024,-280,35,92,-22
590,152,-2016,-312,42,85,-25
595,200,-2016,-272,47,75,-30
600,200,-2008,-264,49,65,-31
605,160,-1976,-264,51,56,-36
610,200,-1976,-272,51,47,-38
615,184,-1968,-264,50,42,-45
620,192,-1952,-240,48,42,-46
625,200,-1952,-224,45,40,-50
630,224,-1952,-224,43,39,-49
635,200,-1944,-200,41,34,-53
640,208,-1936,-184,37,27,-49
645,208,-1936,-224,33,19,-49
650,192,-1920,-192,25,8,-43
655,208,-1944,-192,14,0,-44
660,216,-1952,-200,3,-8,-42
665,208,-1984,-160,-11,-20,-45
670,224,-1984,-224,-25,-31,-44
675,208,-1992,-224,-41,-43,-49
680,200,-1984,-248,-56,-55,-48
685,200,-1992,-232,-67,-68,-52
690,216,-2008,-216,-77,-82,-53
695,216,-2016,-248,-82,-94,-60
700,216,-2016,-280,-87,-105,-61
705,192,-2016,-272,-93,-115,-68
710,200,-2024,-272,-96,-125,-69
715,192,-2024,-304,-98,-134,-72
720,216,-2056,-272,-99,-142,-74
725,184,-2032,-288,-95,-153,-77
730,168,-2048,-272,-88,-165,-76
735,176,-2040,-280,-77,-176,-79
740,192,-2072,-312,-65,-185,-78
745,192,-2072,-288,-52,-193,-80
750,208,-2080,-288,-36,-198,-80
755,216,-2064,-296,-19,-201,-83
760,208,-2080,-312,-2,-204,-81
765,224,-2056,-288,16,-207,-83
770,248,-2072,-264,38,-207,-82
775,272,-2072,-304,59,-207,-85
780,288,-2072,-296,84,-209,-85
785,320,-2080,-328,110,-211,-89
790,312,-2088,-312,134,-212,-91
795,312,-2072,-336,159,-217,-97
800,328,-2064,-336,182,-225,-98
805,344,-2048,-384,202,-231,-105
810,360,-2056,-368,219,-233,-104
815,368,-2048,-392,235,-231,-108
820,368,-2024,-368,250,-219,-110
825,392,-2016,-336,267,-193,-109
830,408,-1968,-392,279,-164,-108
835,448,-1960,-408,288,-130,-108
840,472,-1944,-400,292,-92,-106
845,480,-1872,-448,289,-47,-106
850,504,-1864,-416,276,0,-102
855,536,-1832,-448,255,46,-98
860,560,-1768,-448,229,89,-92
865,576,-1736,-520,198,130,-83
870,608,-1712,-456,162,167,-73
875,608,-1672,-504,121,200,-59
880,608,-1656,-472,79,233,-39
885,584,-1640,-456,30,253,-15
890,560,-1672,-472,-8,268,11
895,544,-1664,-376,-38,276,45
900,512,-1680,-320,-63,277,79
905,512,-1704,-272,-79,273,117
910,464,-1760,-208,-88,260,156
915,448,-1792,-184,-90,241,194
920,432,-1832,-120,-87,223,231
925,384,-1872,-96,-78,204,262
930,328,-1872,-104,-70,184,290
935,304,-1880,-128,-66,160,319
940,272,-1904,-120,-75,138,332
945,216,-1952,-216,-93,118,343
950,184,-1976,-216,-124,98,349
955,152,-2000,-256,-162,78,351
960,136,-2040,-256,-204,61,348
965,112,-2056,-296,-248,47,342
970,112,-2088,-264,-288,35,327
975,128,-2128,-272,-316,25,312
980,120,-2144,-232,-327,16,287
985,160,-2184,-160,-323,8,256
990,184,-2224,-120,-306,-3,212
995,240,-2264,-40,-271,-16,178
1000,240,-2264,0,-236,-25,141
1005,264,-2296,40,-201,-36,109
1010,280,-2280,64,-171,-48,77
1015,312,-2304,16,-151,-60,49
1020,296,-2288,0,-137,-69,20
1025,296,-2256,-48,-134,-73,0
1030,320,-2232,-72,-139,-74,-23
1035,328,-2224,-96,-147,-72,-43
1040,344,-2192,-136,-155,-66,-66
1045,360,-2192,-152,-162,-58,-83
1050,376,-2152,-152,-163,-47,-110
1055,384,-2152,-184,-158,-40,-128
1060,384,-2120,-192,-153,-30,-150
1065,400,-2112,-216,-153,-20,-169
1070,416,-2104,-272,-159,-11,-190
1075,400,-2088,-240,-171,-1,-206
1080,416,-2080,-224,-187,8,-226
1085,416,-2080,-240,-198,12,-240
1090,408,-2080,-224,-202,14,-256
1095,400,-2056,-192,-196,15,-263
1100,416,-2072,-152,-178,17,-273
1105,360,-2096,-192,-154,18,-277
1110,400,-2048,-208,-120,22,-283
1115,408,-2032,-168,-94,27,-283
1120,408,-2032,-192,-71,35,-290
1125,408,-2072,-200,-51,47,-295
1130,424,-2008,-192,-38,58,-306
1135,432,-2008,-176,-23,62,-304
1140,416,-2024,-184,-11,65,-302
1145,416,-1992,-168,-2,64,-301
1150,400,-1992,-160,7,60,-304
1155,416,-1976,-152,16,51,-300
1160,424,-1968,-136,27,43,-299
1165,424,-1960,-128,43,35,-291
1170,424,-1952,-120,56,33,-285
1175,400,-1944,-144,69,35,-274
1180,416,-1904,-120,81,36,-266
1185,408,-1904,-96,93,37,-251
1190,384,-1904,-112,105,41,-240
1195,392,-1896,-80,116,44,-228
1200,384,-1888,-56,127,49,-217
1205,384,-1912,-32,138,52,-202
1210,352,-1896,-48,152,55,-189
1215,336,-1968,-64,166,53,-173
1220,376,-1952,24,185,49,-156
1225,360,-1968,24,219,46,-138
1230,312,-1960,56,254,44,-122
1235,376,-2000,56,293,42,-104
1240,336,-1992,72,338,39,-88
1245,304,-2008,80,381,31,-67
1250,288,-2016,64,422,22,-50
1255,304,-2008,72,455,9,-35
1260,320,-1992,64,482,-9,-20
1265,296,-1960,64,502,-26,-1
1270,328,-1952,88,512,-42,13
1275,280,-1872,88,517,-59,32
1280,312,-1880,120,515,-76,45
1285,320,-1808,128,509,-87,55
1290,312,-1784,112,501,-87,60
1295,328,-1776,144,489,-81,62
1300,368,-1784,176,467,-61,54
1305,352,-1752,168,443,-49,50
1310,344,-1736,160,407,-46,49
1315,328,-1760,168,358,-48,45
1320,304,-1736,152,302,-60,38
1325,304,-1776,152,239,-74,36
1330,280,-1784,152,178,-86,32
1335,312,-1784,160,111,-102,31
1340,288,-1776,160,65,-121,41
1345,336,-1760,184,21,-134,45
1350,328,-1792,176,-17,-141,45
1355,360,-1784,216,-52,-143,34
1360,368,-1768,272,-81,-146,25
1365,424,-1792,256,-106,-154,23
1370,456,-1776,272,-133,-159,21
1375,472,-1824,264,-169,-158,12
1380,520,-1848,240,-213,-154,1
1385,560,-1888,208,-265,-150,-14
1390,632,-1952,216,-323,-147,-35
1395,656,-1992,184,-394,-145,-57
1400,688,-2056,104,-456,-140,-76
1405,720,-2112,72,-516,-132,-98
1410,776,-2176,40,-573,-123,-121
1415,768,-2256,-56,-624,-111,-152
1420,800,-2336,-152,-675,-91,-182
1425,808,-2392,-248,-720,-66,-214
1430,824,-2456,-368,-757,-29,-245
1435,824,-2528,-424,-784,17,-278
1440,840,-2576,-456,-796,76,-310
1445,880,-2632,-456,-796,144,-353
1450,864,-2680,-472,-772,233,-386
1455,888,-2712,-440,-728,309,-421
1460,912,-2736,-424,-663,373,-443
1465,912,-2752,-384,-580,432,-464
1470,952,-2720,-376,-492,484,-482
1475,960,-2720,-336,-406,524,-499
1480,928,-2680,-328,-330,549,-509
1485,880,-2632,-280,-264,571,-515
1490,776,-2584,-232,-202,582,-510
1495,704,-2552,-192,-139,576,-508
1500,616,-2448,-168,-82,548,-491
1505,520,-2344,-168,-33,484,-455
1510,456,-2232,-208,9,415,-408
1515,432,-2152,-256,23,349,-357
1520,352,-2048,-336,9,291,-294
1525,296,-1968,-384,-33,242,-227
1530,288,-1936,-488,-99,208,-150
1535,232,-1976,-472,-181,177,-76
1540,224,-1920,-520,-265,148,2
1545,192,-1960,-576,-335,119,79
1550,168,-1984,-584,-380,86,153
1555,168,-2016,-672,-392,48,217
1560,192,-2040,-696,-369,10,294
1565,256,-2040,-744,-309,-33,353
1570,272,-2016,-768,-241,-53,411
1575,312,-2008,-864,-174,-60,456
1580,344,-1992,-904,-112,-55,498
1585,400,-1960,-952,-65,-43,522
1590,416,-1936,-1008,-34,-33,538
1595,456,-1888,-1024,-17,-32,535
1600,464,-1816,-1040,-7,-38,521
1605,424,-1720,-1032,-1,-48,491
1610,424,-1688,-1008,8,-56,454
1615,408,-1648,-1008,14,-60,393
1620,400,-1616,-984,10,-58,336
1625,352,-1584,-1000,-5,-55,280
1630,352,-1584,-984,-37,-45,231
1635,376,-1584,-960,-84,-22,185
1640,384,-1632,-960,-141,8,151
1645,344,-1680,-888,-192,45,120
1650,328,-1744,-816,-235,82,100
1655,320,-1768,-776,-265,115,83
1660,304,-1872,-736,-282,130,83
1665,288,-1952,-624,-278,131,89
1670,248,-2032,-624,-258,114,106
1675,240,-2088,-536,-223,86,128
1680,176,-2136,-528,-168,59,155
1685,168,-2200,-480,-113,31,189
1690,168,-2240,-480,-53,4,229
1695,160,-2240,-464,8,-21,268
1700,136,-2264,-472,69,-43,309
1705,152,-2248,-496,132,-58,346
1710,168,-2200,-504,192,-65,385
1715,160,-2192,-480,247,-65,425
1720,200,-2176,-568,287,-61,467
1725,208,-2160,-616,314,-53,500
1730,264,-2120,-608,324,-41,542
1735,280,-2096,-600,326,-32,568
1740,296,-2080,-560,322,-24,588
1745,296,-2040,-544,319,-18,602
1750,344,-2008,-496,319,-16,609
1755,360,-1960,-472,321,-21,608
1760,344,-1904,-464,321,-29,602
1765,384,-1888,-448,318,-40,591
1770,400,-1816,-448,305,-46,571
1775,408,-1800,-440,285,-48,549
1780,416,-1752,-432,256,-49,521
1785,400,-1720,-424,221,-43,483
1790,392,-1680,-416,172,-33,454
1795,360,-1648,-432,127,-20,430
1800,320,-1664,-400,80,-8,405
1805,304,-1632,-400,37,6,388
1810,248,-1672,-368,2,21,373
1815,200,-1712,-352,-24,39,364
1820,200,-1760,-320,-40,59,357
1825,176,-1768,-272,-44,81,358
1830,136,-1816,-264,-41,100,360
1835,144,-1864,-232,-30,121,363
1840,128,-1888,-232,-15,138,365
1845,120,-1896,-208,7,158,370
1850,96,-1920,-176,26,172,369
1855,56,-1904,-192,42,183,371
1860,72,-1888,-128,56,190,368
1865,24,-1888,-224,64,193,364
1870,24,-1864,-184,66,191,356
1875,8,-1856,-192,63,183,351
1880,40,-1816,-200,57,170,339
1885,80,-1800,-232,48,160,332
1890,120,-1808,-200,36,152,321
1895,144,-1776,-208,30,149,317
1900,152,-1768,-184,28,160,304
1905,184,-1768,-168,30,179,293
1910,184,-1744,-104,33,199,276
1915,224,-1720,-96,34,221,262
1920,240,-1696,-136,31,241,242
1925,224,-1688,-96,23,261,224
1930,240,-1688,-88,10,275,202
1935,216,-1688,-88,-9,285,184
1940,208,-1680,-96,-34,292,157
1945,200,-1672,-120,-60,302,132
1950,184,-1672,-88,-85,313,102
1955,176,-1680,-104,-107,330,75
1960,176,-1696,-104,-126,359,47
1965,160,-1736,-128,-132,389,24
1970,160,-1768,-128,-130,423,-3
1975,168,-1800,-88,-118,460,-23
1980,176,-1856,-80,-97,500,-46
1985,160,-1880,-72,-69,542,-63
1990,176,-1952,-96,-36,584,-84
1995,160,-1968,-80,-2,617,-98
2000,144,-2008,-56,31,642,-118
2005,120,-2024,-40,59,654,-129
2010,160,-2040,-88,78,651,-145
2015,152,-2016,-96,93,639,-148
2020,168,-1992,-48,101,628,-148
2025,184,-2032,-48,107,623,-141
2030,192,-2016,0,114,626,-134
2035,160,-2024,40,125,637,-119
2040,152,-2064,72,138,645,-106
2045,120,-2024,120,151,642,-82
2050,88,-2064,160,161,619,-52
2055,16,-2048,144,160,586,-32
2060,-16,-2024,184,147,537,-12
2065,-80,-2032,136,123,479,25
2070,-104,-2040,120,84,407,65
2075,-176,-2048,112,30,355,104
2080,-224,-2088,112,-13,314,141
2085,-256,-2096,176,-45,284,177
2090,-232,-2112,152,-61,267,207
2095,-240,-2112,208,-58,259,239
2100,-224,-2112,248,-37,257,265
2105,-200,-2080,232,-6,260,290
2110,-152,-2056,288,26,268,309
2115,-88,-2000,304,55,279,334
2120,-64,-1936,352,73,294,350
2125,-56,-1856,352,84,310,358
2130,-24,-1824,384,74,321,361
2135,-56,-1808,376,47,317,352
2140,-80,-1752,296,-5,297,333
2145,-40,-1744,152,-91,264,317
2150,-32,-1784,-16,-214,225,299
2155,-24,-1816,-208,-370,176,287
2160,-80,-1896,-408,-548,126,281
2165,-96,-2024,-504,-733,80,284
2170,-152,-2160,-568,-902,41,292
2175,-176,-2368,-608,-1023,7,306
2180,-200,-2488,-568,-1081,-29,328
2185,-232,-2656,-488,-1067,-57,349
2190,-200,-2800,-416,-1002,-92,377
2195,-136,-2928,-432,-911,-132,409
2200,-96,-2992,-472,-815,-170,448
2205,-96,-3008,-552,-732,-193,482
2210,-64,-3048,-664,-676,-192,514
2215,-56,-3056,-768,-648,-167,538
2220,16,-3080,-872,-637,-126,559
2225,64,-3112,-920,-626,-84,566
2230,112,-3176,-968,-596,-49,568
2235,168,-3200,-968,-525,-25,562
2240,192,-3184,-936,-375,-13,549
2245,224,-3144,-960,-201,-8,527
2250,216,-3064,-984,-1,-6,499
2255,216,-2920,-1024,194,-2,462
2260,232,-2744,-1112,372,2,428
2265,240,-2600,-1144,515,12,392
2270,208,-2448,-1200,613,30,367
2275,240,-2272,-1200,665,62,345
2280,176,-2136,-1192,674,106,322
2285,160,-2032,-1160,646,156,290
2290,128,-1920,-1120,598,206,251
2295,64,-1784,-1096,533,256,218
2300,64,-1656,-1040,480,292,191
2305,80,-1592,-1064,435,325,162
2310,120,-1496,-992,394,354,139
2315,152,-1360,-920,353,388,119
2320,184,-1272,-864,314,425,106
2325,256,-1208,-800,278,466,87
2330,312,-1176,-744,245,506,63
2335,328,-1176,-728,208,539,28
2340,320,-1232,-728,162,564,0
2345,280,-1248,-704,112,579,-35
2350,256,-1344,-704,52,581,-69
2355,216,-1448,-696,-22,572,-102
2360,168,-1568,-704,-80,559,-131
2365,184,-1704,-688,-127,547,-168
2370,184,-1856,-616,-162,540,-199
2375,168,-1936,-584,-179,536,-236
2380,160,-2048,-536,-174,538,-266
2385,120,-2072,-528,-140,541,-295
2390,104,-2128,-520,-76,541,-314
2395,72,-2136,-560,-2,540,-332
2400,32,-2136,-592,66,532,-341
2405,8,-2112,-560,122,518,-355
2410,-24,-2144,-600,169,499,-362
2415,-64,-2144,-640,186,474,-378
2420,-88,-2120,-616,184,449,-395
2425,-96,-2112,-640,165,434,-415
2430,-160,-2096,-552,139,424,-424
2435,-208,-2088,-480,125,405,-429
2440,-248,-2104,-424,120,373,-425
2445,-288,-2088,-416,119,335,-417
2450,-288,-2072,-368,121,299,-401
2455,-280,-2072,-368,123,262,-389
2460,-280,-2072,-352,120,232,-370
2465,-280,-2040,-336,115,203,-360
2470,-256,-1984,-352,113,182,-347
2475,-272,-1952,-352,114,160,-341
2480,-232,-1904,-360,117,135,-335
2485,-200,-1880,-376,121,105,-336
2490,-168,-1840,-376,125,73,-337
2495,-120,-1832,-376,137,35,-344
2500,-88,-1792,-376,156,-10,-354
2505,-48,-1792,-336,178,-54,-372
2510,0,-1800,-312,206,-102,-385
2515,48,-1744,-320,231,-151,-398
2520,128,-1712,-336,254,-206,-414
2525,136,-1688,-312,274,-251,-428
2530,160,-1696,-296,278,-293,-436
2535,176,-1680,-328,273,-331,-444
2540,232,-1704,-304,260,-367,-453
2545,208,-1704,-304,244,-402,-458
2550,248,-1720,-296,231,-429,-459
2555,272,-1760,-288,222,-453,-461
2560,288,-1752,-272,223,-466,-461
2565,296,-1776,-296,229,-475,-457
2570,312,-1808,-240,242,-473,-455
2575,296,-1816,-256,268,-469,-451
2580,328,-1832,-224,304,-468,-437
2585,328,-1832,-200,340,-473,-415
2590,296,-1840,-208,375,-478,-393
2595,296,-1832,-152,405,-482,-369
2600,312,-1824,-112,435,-489,-342
2605,280,-1816,-88,459,-498,-312
2610,304,-1784,-48,482,-505,-281
2615,296,-1816,-56,500,-508,-244
2620,312,-1768,-24,512,-504,-220
2625,336,-1744,24,516,-504,-193
2630,336,-1720,16,509,-514,-144
2635,328,-1704,40,482,-518,-113
2640,304,-1680,64,446,-524,-93
2645,344,-1688,96,407,-532,-71
2650,288,-1672,112,370,-548,-59
2655,280,-1696,160,336,-569,-48
2660,288,-1712,192,311,-597,-42
2665,184,-1696,256,295,-628,-39
2670,152,-1712,248,290,-662,-42
2675,104,-1752,264,287,-699,-44
2680,72,-1776,272,288,-727,-62
2685,24,-1768,272,292,-764,-72
2690,0,-1784,216,293,-820,-55
2695,-64,-1800,160,284,-851,-40
2700,-112,-1792,104,266,-860,-39
2705,-120,-1776,72,237,-857,-45
2710,-176,-1760,56,197,-863,-37
2715,-168,-1744,16,149,-872,-14
2720,-152,-1760,-64,89,-870,0
2725,-104,-1768,-80,17,-854,8
2730,-64,-1752,-80,-56,-834,12
2735,48,-1800,-64,-128,-807,20
2740,184,-1808,-48,-196,-779,21
2745,320,-1872,8,-270,-745,16
2750,392,-1888,64,-322,-719,-2
2755,464,-1952,128,-357,-697,-18
2760,504,-2040,144,-378,-682,-41
2765,600,-2048,240,-388,-671,-62
2770,632,-2080,256,-390,-658,-87
2775,688,-2112,296,-383,-639,-109
2780,696,-2088,336,-371,-610,-136
2785,736,-2080,360,-353,-565,-175
2790,744,-2064,392,-336,-522,-204
2795,784,-2064,416,-316,-486,-196
2800,760,-2032,432,-297,-434,-206
2805,720,-1992,400,-285,-385,-229
2810,720,-1936,416,-282,-347,-245
2815,720,-1904,368,-297,-317,-241
2820,736,-1888,312,-331,-288,-243
2825,760,-1896,248,-385,-257,-250
2830,808,-1936,168,-462,-220,-278
2835,856,-1928,48,-561,-184,-302
2840,864,-2024,-120,-685,-144,-329
2845,912,-2096,-264,-824,-101,-355
2850,928,-2224,-408,-968,-42,-398
2855,952,-2344,-536,-1140,42,-426
2860,1024,-2488,-688,-1270,129,-453
2865,1152,-2600,-776,-1378,239,-468
2870,1216,-2688,-872,-1455,375,-482
2875,1320,-2792,-896,-1494,542,-495
2880,1416,-2864,-952,-1492,721,-520
2885,1472,-2928,-1024,-1455,889,-537
2890,1504,-3016,-1112,-1393,1029,-554
2895,1488,-3064,-1128,-1311,1137,-569
2900,1352,-3096,-1208,-1207,1209,-594
2905,1136,-3104,-1176,-1079,1257,-612
2910,960,-3096,-1144,-924,1269,-622
2915,800,-3024,-1080,-709,1245,-596
2920,656,-2984,-1024,-515,1196,-545
2925,544,-2936,-1056,-322,1135,-491
2930,416,-2872,-1104,-150,1072,-434
2935,304,-2816,-1152,-2,1016,-366
2940,136,-2744,-1208,121,967,-309
2945,48,-2656,-1208,219,921,-242
2950,-64,-2592,-1272,305,868,-177
2955,-176,-2480,-1264,387,805,-100
2960,-336,-2368,-1312,463,724,-32
2965,-480,-2224,-1288,528,602,51
2970,-584,-2080,-1304,610,481,119
2975,-664,-1928,-1288,681,349,184
2980,-672,-1784,-1224,752,224,238
2985,-680,-1608,-1176,809,119,285
2990,-680,-1496,-1200,844,38,328
2995,-616,-1360,-1192,838,-22,359
3000,-592,-1232,-1088,789,-64,375
3005,-504,-1184,-1104,699,-98,380
3010,-424,-1136,-1016,574,-120,377
3015,-336,-1160,-976,431,-141,366
3020,-224,-1192,-896,294,-160,343
3025,-96,-1264,-848,149,-181,314
3030,-40,-1352,-800,53,-193,283
3035,64,-1424,-744,-33,-190,251
3040,160,-1528,-736,-97,-185,229
3045,240,-1656,-664,-137,-179,208
3050,368,-1712,-720,-159,-170,193
3055,424,-1864,-672,-169,-159,180
3060,472,-1960,-664,-171,-144,179
3065,504,-2064,-648,-155,-121,192
3070,568,-2112,-648,-120,-95,220
3075,640,-2128,-672,-74,-61,255
3080,672,-2168,-688,-1,-17,283
3085,712,-2200,-688,64,21,306
3090,696,-2184,-688,136,60,329
3095,728,-2144,-632,210,96,343
3100,712,-2112,-656,291,136,356
3105,664,-2072,-608,375,179,363
3110,616,-2032,-616,456,220,368
3115,592,-2024,-560,525,255,371
3120,536,-1984,-528,580,279,376
3125,504,-1944,-520,616,293,373
3130,448,-1912,-536,633,304,377
3135,424,-1872,-544,635,322,375
3140,408,-1848,-568,620,343,376
3145,416,-1832,-536,598,366,372
3150,368,-1800,-520,568,392,374
3155,368,-1792,-544,537,420,371
3160,336,-1760,-512,503,446,374
3165,328,-1792,-504,472,473,375
3170,312,-1792,-472,445,496,384
3175,280,-1776,-408,428,519,390
3180,304,-1784,-360,421,535,402
3185,272,-1816,-336,423,551,414
3190,232,-1792,-248,432,568,427
3195,216,-1800,-224,439,582,432
3200,184,-1776,-176,440,602,439
3205,192,-1808,-208,432,622,442
3210,152,-1784,-160,414,642,442
3215,104,-1752,-176,384,657,438
3220,56,-1784,-136,346,664,441
3225,48,-1840,-136,301,667,435
3230,0,-1824,-160,259,668,428
3235,-8,-1856,-200,218,664,415
3240,-32,-1888,-168,181,659,402
3245,-88,-1880,-192,148,654,392
3250,-72,-1920,-168,129,650,383
3255,-104,-1936,-176,118,648,371
3260,-128,-1960,-128,111,644,361
3265,-112,-2016,-160,104,636,351
3270,-96,-2064,-104,99,625,342
3275,-96,-2072,-72,95,617,324
3280,-72,-2088,-88,94,607,308
3285,-80,-2096,-72,100,601,285
3290,-48,-2104,-80,112,592,263
3295,-8,-2096,-64,134,586,234
3300,8,-2080,-40,160,574,195
3305,16,-2024,-16,198,565,162
3310,32,-1976,-48,232,559,131
3315,48,-1968,-32,263,550,97
3320,48,-1896,-16,282,541,67
3325,64,-1816,-32,292,532,37
3330,64,-1728,-88,289,522,12
3335,80,-1656,-24,272,513,-9
3340,56,-1584,0,241,505,-16
3345,40,-1536,0,200,508,-37
3350,56,-1504,32,156,512,-57
3355,88,-1472,16,107,520,-69
3360,88,-1456,64,44,533,-69
3365,112,-1464,88,-9,548,-64
3370,136,-1448,88,-68,565,-51
3375,144,-1488,48,-127,573,-27
3380,160,-1536,96,-189,588,-27
3385,144,-1552,120,-254,603,-41
3390,192,-1544,88,-316,607,-49
3395,200,-1560,64,-379,603,-49
3400,232,-1560,40,-440,598,-50
3405,264,-1584,64,-502,597,-51
3410,272,-1560,16,-564,602,-54
3415,272,-1568,0,-636,605,-59
3420,288,-1584,-8,-693,606,-67
3425,272,-1608,-24,-745,604,-72
3430,232,-1656,-24,-788,603,-81
3435,264,-1720,8,-819,605,-86
3440,264,-1800,24,-844,614,-93
3445,216,-1880,16,-861,627,-95
3450,176,-1976,24,-871,642,-100
3455,104,-2064,64,-867,654,-104
3460,80,-2096,72,-850,655,-110
3465,72,-2176,104,-822,641,-105
3470,32,-2192,136,-773,622,-94
3475,8,-2248,120,-729,602,-73
3480,-16,-2256,136,-685,589,-61
3485,-40,-2264,160,-639,581,-41
3490,-64,-2272,200,-596,568,-13
3495,-88,-2280,192,-561,554,18
3500,-120,-2240,200,-541,541,37
3505,-224,-2240,160,-532,523,58
3510,-240,-2216,136,-538,493,81
3515,-280,-2176,16,-555,447,105
3520,-288,-2184,-88,-586,382,137
3525,-304,-2168,-248,-642,327,176
3530,-352,-2224,-432,-701,277,207
3535,-400,-2248,-560,-765,231,242
3540,-448,-2328,-672,-825,184,274
3545,-520,-2440,-720,-867,129,319
3550,-520,-2568,-712,-885,60,366
3555,-536,-2672,-624,-868,-24,423
3560,-544,-2760,-576,-814,-125,488
3565,-560,-2872,-512,-728,-234,568
3570,-448,-2984,-384,-625,-336,652
3575,-432,-3032,-272,-511,-443,750
3580,-328,-3056,-296,-375,-504,820
3585,-216,-3008,-320,-282,-547,877
3590,-96,-2960,-448,-213,-576,908
3595,24,-2872,-576,-167,-587,928
3600,120,-2856,-696,-133,-576,922
3605,192,-2760,-912,-107,-554,903
3610,240,-2712,-1048,-93,-512,852
3615,272,-2640,-1200,-78,-461,786
3620,288,-2624,-1336,-56,-411,700
3625,256,-2576,-1400,-28,-358,602
3630,304,-2528,-1440,11,-303,474
3635,272,-2408,-1488,66,-272,359
3640,272,-2320,-1504,114,-242,257
3645,256,-2224,-1480,163,-197,176
3650,280,-2144,-1448,211,-136,108
3655,296,-2064,-1408,262,-63,52
3660,336,-1968,-1360,308,19,1
3665,344,-1880,-1336,340,108,-39
3670,392,-1752,-1240,357,202,-76
3675,408,-1632,-1160,365,290,-105
3680,424,-1568,-1096,368,370,-135
3685,456,-1520,-976,369,445,-158
3690,480,-1432,-912,357,491,-178
3695,512,-1352,-784,340,522,-185
3700,512,-1312,-792,313,547,-188
3705,496,-1320,-760,266,565,-185
3710,464,-1368,-784,200,576,-183
3715,424,-1424,-760,119,581,-174
3720,344,-1496,-792,36,577,-165
3725,296,-1600,-784,-42,562,-148
3730,248,-1736,-784,-108,539,-132
3735,240,-1880,-744,-150,512,-118
3740,208,-1992,-696,-164,484,-110
3745,168,-2136,-664,-150,471,-102
3750,152,-2224,-632,-110,464,-96
3755,88,-2288,-608,-51,462,-93
3760,24,-2376,-552,28,462,-91
3765,-32,-2376,-512,118,457,-93
3770,-80,-2400,-544,219,446,-95
3775,-88,-2368,-520,318,430,-105
3780,-128,-2312,-528,407,410,-116
3785,-184,-2216,-544,484,385,-128
3790,-224,-2136,-536,547,354,-136
3795,-256,-2096,-568,591,310,-148
3800,-288,-2064,-632,611,273,-161
3805,-296,-2032,-624,600,243,-183
3810,-240,-2016,-632,564,219,-214
3815,-240,-1984,-664,514,202,-248
3820,-256,-1952,-648,457,186,-276
3825,-248,-1936,-648,403,168,-301
3830,-264,-1936,-624,361,153,-317
3835,-256,-1928,-576,334,145,-332
3840,-240,-1936,-560,321,137,-338
3845,-224,-1928,-568,320,130,-346
3850,-208,-1904,-528,324,120,-352
3855,-200,-1920,-512,333,105,-362
3860,-136,-1904,-472,342,88,-368
3865,-104,-1856,-448,356,65,-375
3870,-56,-1808,-392,376,42,-375
3875,0,-1800,-368,397,20,-383
3880,64,-1752,-312,418,-4,-386
3885,136,-1760,-296,434,-28,-396
3890,200,-1728,-224,443,-48,-404
3895,256,-1720,-232,439,-66,-418
3900,312,-1728,-264,422,-85,-429
3905,352,-1688,-272,389,-107,-446
3910,400,-1688,-248,333,-134,-458
3915,416,-1672,-288,282,-164,-472
3920,424,-1736,-296,221,-194,-482
3925,432,-1720,-304,163,-223,-498
3930,440,-1760,-288,108,-248,-510
3935,424,-1768,-272,62,-270,-524
3940,408,-1808,-280,28,-288,-531
3945,368,-1848,-232,5,-300,-541
3950,352,-1888,-176,-4,-311,-544
3955,280,-1912,-112,4,-320,-549
3960,248,-1936,-104,23,-328,-547
3965,192,-1936,-88,58,-337,-548
3970,160,-1944,-80,92,-345,-538
3975,120,-1984,-48,126,-351,-528
3980,112,-1936,-64,158,-359,-512
3985,80,-1944,-112,187,-370,-490
3990,80,-1944,-88,208,-376,-459
3995,64,-1928,-64,220,-378,-435
4000,64,-1920,-88,228,-377,-402
4005,80,-1928,-64,234,-374,-373
4010,88,-1904,-64,241,-368,-341
4015,120,-1888,-32,246,-362,-306
4020,160,-1880,-8,259,-353,-276
4025,160,-1880,32,272,-350,-249
4030,184,-1848,56,292,-347,-218
4035,232,-1824,88,313,-348,-193
4040,264,-1816,72,331,-350,-166
4045,288,-1800,120,347,-355,-146
4050,336,-1776,120,357,-361,-126
4055,336,-1768,128,362,-367,-110
4060,360,-1744,120,361,-370,-93
4065,360,-1696,136,357,-373,-78
4070,360,-1712,152,355,-375,-58
4075,360,-1672,104,349,-381,-45
4080,336,-1656,128,344,-390,-34
4085,328,-1632,104,332,-408,-28
4090,256,-1608,88,317,-432,-27
4095,216,-1616,104,297,-460,-29
4100,112,-1632,64,269,-483,-49
4105,136,-1592,144,248,-509,-82
4110,112,-1576,160,230,-564,-74
4115,96,-1632,160,217,-620,-58
4120,24,-1664,168,207,-662,-60
4125,0,-1680,192,199,-697,-74
4130,-16,-1736,176,192,-743,-77
4135,-24,-1792,112,186,-787,-74
4140,-40,-1784,128,176,-829,-64
4145,-40,-1816,120,163,-871,-51
4150,-64,-1808,96,146,-911,-34
4155,-56,-1776,120,127,-944,-14
4160,-80,-1728,120,112,-965,10
4165,-56,-1744,96,100,-977,34
4170,-64,-1712,128,83,-981,58
4175,-40,-1736,136,51,-976,88
4180,24,-1776,136,1,-969,120
4185,72,-1760,128,-80,-950,142
4190,192,-1776,96,-159,-926,154
4195,360,-1792,40,-242,-892,160
4200,496,-1760,-112,-333,-847,155
4205,632,-1792,-256,-441,-790,140
4210,816,-1824,-432,-570,-725,109
4215,968,-1880,-568,-721,-657,68
4220,1144,-2016,-736,-892,-584,14
4225,1304,-2168,-856,-1075,-507,-55
4230,1416,-2376,-944,-1257,-424,-135
4235,1480,-2608,-936,-1418,-330,-248
4240,1504,-2856,-840,-1548,-205,-354
4245,1448,-3112,-712,-1581,-95,-462
4250,1344,-3240,-616,-1533,15,-572
4255,1160,-3424,-416,-1399,118,-664
4260,984,-3480,-232,-1188,202,-734
4265,896,-3472,-176,-920,266,-777
4270,792,-3440,-240,-647,315,-811
4275,704,-3360,-384,-409,361,-828
4280,640,-3304,-520,-234,414,-831
4285,536,-3176,-656,-118,464,-810
4290,504,-3112,-792,-51,511,-778
4295,488,-3024,-920,-9,555,-745
4300,512,-2952,-960,16,567,-708
4305,368,-2776,-1008,43,539,-676
4310,320,-2624,-968,82,494,-590
4315,336,-2520,-960,134,444,-462
4320,312,-2368,-928,188,393,-353
4325,288,-2216,-880,231,340,-253
4330,240,-2096,-856,256,282,-162
4335,224,-1992,-784,256,219,-70
4340,184,-1880,-760,241,157,10
4345,152,-1792,-744,208,104,98
4350,96,-1744,-696,155,48,154
4355,64,-1664,-744,99,3,207
4360,24,-1632,-744,36,-50,248
4365,0,-1584,-728,-28,-104,285
4370,-8,-1560,-768,-89,-158,314
4375,-32,-1560,-760,-146,-201,335
4380,-64,-1552,-784,-192,-239,334
4385,-96,-1552,-784,-222,-266,331
4390,-80,-1560,-784,-234,-287,315
4395,-96,-1568,-792,-236,-302,292
4400,-112,-1568,-816,-230,-310,248
4405,-96,-1600,-848,-229,-318,218
4410,-120,-1608,-888,-242,-318,185
4415,-120,-1688,-944,-271,-312,157
4420,-96,-1752,-952,-297,-303,126
4425,-96,-1808,-936,-327,-292,102
4430,-48,-1904,-936,-358,-282,77
4435,0,-1968,-928,-380,-273,62
4440,48,-2024,-872,-386,-264,47
4445,88,-2080,-864,-372,-254,44
4450,152,-2120,-792,-339,-246,42
4455,216,-2128,-736,-292,-239,53
4460,264,-2168,-736,-213,-230,64
4465,288,-2176,-696,-133,-225,79
4470,328,-2168,-640,-46,-221,98
4475,328,-2136,-576,47,-222,122
4480,376,-2120,-568,139,-225,150
4485,416,-2104,-512,223,-228,188
4490,432,-2096,-520,295,-230,226
4495,448,-2088,-472,353,-228,263
4500,496,-2048,-456,401,-227,297
4505,488,-2016,-464,437,-228,327
4510,504,-2016,-448,467,-230,362
4515,488,-1960,-416,491,-229,389
4520,472,-1920,-432,502,-224,410
4525,488,-1896,-400,509,-213,427
4530,440,-1856,-424,508,-197,436
4535,432,-1816,-408,507,-174,441
4540,440,-1800,-384,501,-145,440
4545,416,-1768,-376,493,-115,438
4550,384,-1736,-416,478,-77,431
4555,360,-1720,-368,459,-36,423
4560,304,-1704,-352,434,3,412
4565,312,-1688,-344,408,37,393
4570,280,-1704,-384,374,75,378
4575,216,-1728,-376,339,105,362
4580,184,-1736,-336,301,131,351
4585,128,-1752,-320,265,156,340
4590,96,-1776,-328,236,180,333
4595,88,-1808,-328,210,200,326
4600,40,-1840,-336,186,217,322
4605,8,-1848,-296,165,230,322
4610,0,-1880,-320,150,242,321
4615,0,-1896,-312,137,253,321
4620,-32,-1928,-320,128,262,328
4625,-48,-1952,-328,124,274,327
4630,-32,-1952,-288,126,281,329
4635,-16,-1984,-304,131,288,328
4640,-16,-1976,-248,141,291,333
4645,0,-1992,-264,155,294,335
4650,16,-2008,-272,168,296,335
4655,32,-1984,-256,185,298,329
4660,72,-1976,-256,203,299,328
4665,96,-1952,-232,223,302,324
4670,136,-1960,-216,237,307,322
4675,152,-1920,-208,251,316,309
4680,144,-1872,-200,265,323,297
4685,152,-1880,-184,276,326,279
4690,152,-1824,-192,283,326,267
4695,168,-1832,-184,288,325,247
4700,152,-1800,-184,292,322,228
4705,128,-1776,-152,291,317,207
4710,128,-1752,-128,285,310,195
4715,128,-1720,-128,269,302,184
4720,104,-1704,-144,252,301,168
4725,88,-1696,-120,232,305,148
4730,88,-1672,-96,209,313,131
4735,88,-1712,-88,179,328,115
4740,80,-1712,-80,156,341,105
4745,56,-1688,-56,131,355,92
4750,24,-1728,-48,108,366,88
4755,32,-1752,-40,90,381,73
4760,24,-1728,-40,73,396,51
4765,56,-1760,-48,58,404,27
4770,32,-1752,-16,43,408,11
4775,48,-1784,24,28,408,-11
4780,-48,-1784,-56,11,404,-28
4785,48,-1800,-8,-7,397,-53
4790,40,-1800,24,-23,382,-67
4795,56,-1832,24,-34,368,-86
4800,48,-1888,0,-39,356,-99
4805,48,-1928,64,-35,350,-113
4810,48,-1928,56,-23,350,-123
4815,40,-1960,80,-6,359,-136
4820,72,-1968,112,20,368,-146
4825,40,-1968,136,49,379,-160
4830,56,-1992,136,75,387,-169
4835,72,-2024,112,98,395,-180
4840,32,-2008,72,114,402,-189
4845,80,-2008,72,120,410,-194
4850,80,-2008,0,120,413,-195
4855,104,-1984,0,113,419,-199
4860,112,-1952,-56,101,427,-197
4865,120,-1904,-64,81,434,-195
4870,120,-1848,-88,57,434,-188
4875,112,-1816,-88,25,429,-177
4880,152,-1792,-40,-14,418,-157
4885,128,-1776,-40,-58,402,-132
4890,160,-1776,-24,-106,386,-99
4895,144,-1768,48,-158,375,-58
4900,136,-1760,80,-223,369,-20
4905,128,-1792,160,-269,366,16
4910,88,-1856,160,-308,364,59
4915,40,-1912,168,-345,367,83
4920,-8,-1952,136,-380,365,100
4925,-24,-2008,72,-421,353,120
4930,-88,-2056,-56,-475,331,150
4935,-112,-2096,-168,-547,304,179
4940,-136,-2152,-368,-642,274,212
4945,-208,-2200,-520,-754,244,245
4950,-232,-2312,-704,-879,214,292
4955,-288,-2440,-808,-1030,175,337
4960,-312,-2584,-848,-1136,139,386
4965,-384,-2768,-808,-1207,86,442
4970,-408,-2912,-760,-1229,22,499
4975,-456,-3032,-696,-1194,-57,562
4980,-512,-3176,-568,-1089,-147,621
4985,-552,-3296,-400,-920,-240,674
4990,-544,-3328,-256,-693,-330,716
4995,-440,-3296,-176,-431,-409,747
5000,-320,-3208,-160,-173,-469,766
5005,-152,-3112,-168,54,-496,779
5010,-88,-2968,-192,262,-487,789
5015,-88,-2856,-256,379,-455,807
5020,-96,-2728,-304,450,-414,796
5025,-136,-2568,-424,484,-383,766
5030,-48,-2448,-472,488,-355,724
5035,56,-2328,-584,467,-334,661
5040,192,-2200,-648,429,-309,583
5045,320,-2096,-728,378,-265,498
5050,408,-2008,-776,312,-196,404
5055,464,-1976,-784,231,-111,316
5060,544,-1904,-800,144,-23,202
5065,480,-1840,-816,34,64,101
5070,440,-1808,-800,-61,122,4
5075,392,-1824,-784,-155,166,-65
5080,328,-1840,-752,-240,194,-120
5085,312,-1888,-704,-310,213,-158
5090,328,-1920,-728,-363,221,-185
5095,320,-1960,-720,-398,233,-201
5100,296,-1968,-720,-417,252,-212
5105,256,-1960,-704,-423,280,-211
5110,224,-1928,-792,-420,314,-207
5115,152,-1920,-808,-410,352,-190
5120,80,-1880,-808,-398,388,-170
5125,16,-1840,-880,-381,406,-149
5130,-40,-1784,-944,-361,411,-127
5135,-72,-1744,-944,-338,401,-94
5140,-64,-1696,-960,-316,388,-65
5145,-64,-1696,-952,-294,370,-26
5150,-80,-1632,-944,-269,354,6
5155,-72,-1616,-976,-246,344,43
5160,-80,-1624,-952,-233,341,70
5165,-88,-1648,-912,-231,347,98
5170,-64,-1688,-856,-234,357,111
5175,-56,-1752,-808,-243,370,121
5180,-40,-1792,-744,-250,379,117
5185,-32,-1864,-696,-244,384,107
5190,-40,-1952,-600,-226,383,83
5195,-48,-2008,-560,-197,373,57
5200,-48,-2064,-496,-151,353,21
5205,-48,-2096,-464,-82,325,-14
5210,-48,-2088,-488,-4,293,-50
5215,-40,-2128,-472,73,263,-80
5220,-40,-2144,-448,146,237,-112
5225,-80,-2136,-480,215,214,-132
5230,-96,-2120,-464,273,191,-155
5235,-120,-2088,-488,330,168,-165
5240,-160,-2080,-528,361,145,-174
5245,-192,-2064,-536,377,119,-177
5250,-216,-2056,-552,380,90,-182
5255,-224,-2048,-592,373,58,-186
5260,-256,-2016,-608,355,26,-192
5265,-272,-2016,-552,333,-7,-191
5270,-248,-1992,-552,310,-42,-194
5275,-272,-1984,-512,291,-77,-190
5280,-256,-1960,-480,276,-110,-190
5285,-240,-1912,-472,263,-145,-184
5290,-176,-1944,-464,248,-169,-181
5295,-152,-1912,-432,235,-191,-178
5300,-104,-1928,-424,225,-208,-175
5305,-96,-1936,-424,215,-228,-170
5310,-72,-1936,-424,207,-247,-168
5315,-24,-1936,-384,200,-268,-170
5320,8,-1944,-336,201,-295,-174
5325,56,-1960,-328,206,-321,-179
5330,64,-1976,-352,213,-351,-189
5335,96,-1968,-320,219,-381,-200
5340,128,-1984,-336,225,-414,-217
5345,152,-2000,-368,232,-436,-232
5350,192,-2024,-368,236,-454,-252
5355,200,-2032,-360,244,-469,-276
5360,208,-2040,-376,248,-476,-299
5365,232,-2056,-376,252,-480,-322
5370,216,-2064,-336,254,-481,-345
5375,192,-2056,-336,253,-477,-367
5380,216,-2072,-360,249,-474,-389
5385,216,-2072,-368,244,-467,-409
5390,184,-2056,-376,237,-454,-427
5395,160,-2056,-368,229,-432,-447
5400,192,-2040,-352,220,-408,-457
5405,160,-2032,-312,215,-381,-465
5410,184,-2000,-296,212,-357,-472
5415,192,-1992,-296,214,-332,-474
5420,176,-1944,-280,218,-308,-473
5425,216,-1944,-248,223,-280,-472
5430,216,-1888,-224,229,-254,-468
5435,216,-1888,-264,230,-230,-465
5440,240,-1872,-264,227,-207,-457
5445,248,-1872,-248,217,-190,-451
5450,264,-1904,-248,203,-176,-441
5455,256,-1888,-256,178,-162,-434
5460,280,-1872,-248,157,-153,-422
5465,280,-1880,-184,141,-146,-413
5470,280,-1872,-224,127,-139,-400
5475,256,-1872,-224,118,-137,-391
5480,256,-1872,-208,109,-135,-376
5485,248,-1896,-192,104,-135,-364
5490,224,-1864,-208,97,-132,-345
5495,232,-1872,-232,96,-126,-330
5500,256,-1856,-216,93,-121,-311
5505,240,-1872,-224,93,-108,-296
5510,240,-1848,-240,95,-96,-278
5515,264,-1848,-280,95,-83,-267
5520,264,-1848,-208,93,-69,-253
5525,272,-1864,-240,90,-56,-244
5530,280,-1832,-184,87,-49,-230
5535,256,-1888,-144,85,-44,-222
5540,256,-1872,-144,83,-39,-213
5545,256,-1856,-104,84,-32,-214
5550,256,-1872,-104,90,-30,-203
5555,248,-1864,-64,96,-26,-191
5560,224,-1888,-64,104,-21,-175
5565,192,-1872,-88,117,-13,-164
5570,200,-1856,-40,125,-11,-150
5575,200,-1864,32,137,-7,-138
5580,184,-1880,-24,150,-9,-123
5585,112,-1848,24,159,-7,-123
5590,176,-1824,64,166,-13,-118
5595,168,-1824,24,176,-37,-89
5600,144,-1816,24,180,-58,-64
5605,104,-1808,32,180,-78,-49
5610,104,-1792,0,179,-96,-31
5615,104,-1776,-8,179,-115,-19
5620,112,-1792,24,172,-135,-15
5625,88,-1800,24,160,-152,-20
5630,40,-1776,64,140,-169,-27
5635,32,-1792,24,117,-188,-36
5640,8,-1776,64,97,-209,-40
5645,-24,-1752,88,78,-234,-44
5650,-48,-1744,72,61,-262,-40
5655,-88,-1720,120,47,-291,-38
5660,-88,-1720,104,33,-323,-28
5665,-96,-1688,168,21,-349,-18
5670,-96,-1696,136,6,-372,-1
5675,-96,-1680,128,-13,-391,12
5680,-96,-1672,128,-34,-406,28
5685,-88,-1624,160,-54,-419,44
5690,-96,-1648,160,-74,-445,76
5695,-80,-1632,176,-95,-470,108
5700,-80,-1648,200,-114,-491,131
5705,-56,-1632,200,-129,-512,153
5710,-16,-1656,208,-147,-540,175
5715,16,-1648,176,-169,-570,188
5720,88,-1672,80,-205,-600,196
5725,144,-1656,24,-258,-627,199
5730,224,-1688,-112,-353,-649,198
5735,336,-1728,-296,-460,-656,194
5740,448,-1776,-464,-594,-645,179
5745,544,-1848,-624,-753,-611,153
5750,688,-1928,-792,-923,-543,117
5755,864,-2040,-992,-1091,-446,65
5760,984,-2184,-1128,-1250,-321,-4
5765,1112,-2320,-1200,-1387,-179,-86
5770,1240,-2504,-1248,-1500,-29,-182
5775,1328,-2664,-1216,-1577,118,-293
5780,1384,-2840,-1176,-1610,256,-433
5785,1400,-2960,-1144,-1580,400,-544
5790,1376,-3080,-1008,-1491,499,-645
5795,1288,-3112,-944,-1347,571,-725
5800,1160,-3120,-896,-1154,622,-778
5805,1000,-3096,-880,-934,654,-804
5810,888,-3032,-856,-698,672,-808
5815,728,-2920,-840,-459,683,-787
5820,592,-2768,-848,-229,686,-758
5825,488,-2664,-856,-22,678,-705
5830,376,-2520,-848,140,664,-647
5835,248,-2336,-904,246,633,-573
5840,128,-2184,-888,287,573,-506
5845,-16,-2032,-864,263,510,-451
5850,-104,-1936,-752,199,433,-393
5855,-200,-1872,-712,115,336,-315
5860,-256,-1816,-576,26,239,-235
5865,-312,-1760,-520,-44,148,-153
5870,-320,-1712,-472,-98,67,-78
5875,-280,-1728,-448,-137,7,5
5880,-288,-1656,-448,-161,-33,81
5885,-248,-1632,-424,-176,-54,160
5890,-176,-1640,-456,-187,-61,241
5895,-144,-1616,-488,-206,-57,292
5900,-96,-1584,-536,-235,-59,315
5905,-48,-1600,-568,-277,-69,330
5910,-16,-1616,-600,-338,-90,327
5915,64,-1640,-584,-411,-119,320
5920,120,-1672,-664,-493,-151,297
5925,192,-1736,-640,-579,-184,268
5930,248,-1792,-712,-662,-218,226
5935,304,-1840,-688,-734,-247,187
5940,344,-1896,-752,-788,-271,138
5945,360,-1960,-768,-818,-297,88
5950,376,-1968,-792,-824,-315,43
5955,408,-2000,-832,-803,-326,5
5960,384,-1992,-824,-765,-330,-30
5965,376,-2000,-832,-715,-327,-58
5970,368,-2024,-872,-661,-317,-83
5975,336,-2024,-872,-605,-303,-101
5980,304,-2024,-856,-547,-289,-117
5985,288,-1960,-872,-498,-279,-123
5990,256,-1968,-840,-455,-274,-126
5995,248,-1944,-856,-421,-276,-119
6000,208,-1928,-816,-392,-280,-109
6005,200,-1920,-824,-377,-290,-92
6010,168,-1880,-792,-366,-295,-77
6015,184,-1888,-776,-357,-301,-56
6020,200,-1872,-784,-349,-301,-37
6025,200,-1880,-728,-336,-297,-12
6030,248,-1888,-696,-319,-291,11
6035,296,-1912,-728,-302,-285,36
6040,344,-1904,-680,-283,-275,57
6045,392,-1872,-664,-264,-258,79
6050,408,-1888,-664,-244,-238,100
6055,432,-1840,-656,-224,-213,114
6060,440,-1816,-680,-212,-193,125
6065,464,-1800,-696,-209,-175,130
6070,512,-1784,-688,-215,-165,131
6075,472,-1728,-680,-230,-158,132
6080,480,-1712,-720,-252,-153,129
6085,472,-1704,-736,-281,-148,125
6090,472,-1696,-744,-314,-143,120
6095,480,-1672,-728,-347,-132,116
6100,456,-1688,-712,-380,-120,112
6105,424,-1696,-680,-408,-104,106
6110,408,-1736,-664,-433,-83,104
6115,408,-1744,-656,-450,-63,100
6120,384,-1752,-632,-459,-46,101
6125,384,-1768,-616,-468,-29,102
6130,376,-1768,-624,-474,-13,104
6135,376,-1808,-632,-474,6,108
6140,344,-1784,-584,-473,24,116
6145,328,-1800,-656,-466,35,125
6150,304,-1792,-640,-461,42,137
6155,280,-1792,-624,-454,44,147
6160,256,-1768,-680,-450,35,161
6165,224,-1752,-712,-447,23,167
6170,240,-1760,-736,-450,9,177
6175,216,-1696,-776,-459,0,183
6180,224,-1704,-792,-473,-6,190
6185,224,-1720,-808,-492,-5,188
6190,224,-1704,-856,-516,-2,188
6195,216,-1744,-824,-544,6,182
6200,216,-1776,-840,-570,13,177
6205,224,-1784,-824,-594,22,167
6210,224,-1808,-832,-617,31,161
6215,216,-1824,-808,-638,45,152
6220,240,-1864,-856,-659,58,151
6225,264,-1888,-856,-676,69,148
6230,232,-1864,-880,-689,79,152
6235,240,-1872,-872,-704,86,159
6240,256,-1888,-912,-728,91,172
6245,280,-1912,-960,-756,97,180
6250,296,-1936,-952,-786,103,195
6255,328,-1944,-928,-811,110,206
6260,328,-1952,-960,-819,116,219
6265,360,-1984,-896,-802,120,221
6270,360,-1992,-848,-756,125,227
6275,352,-2016,-808,-666,128,227
6280,368,-2008,-784,-564,136,231
6285,368,-2000,-768,-454,142,231
6290,344,-1984,-712,-341,147,234
6295,360,-1920,-752,-230,150,231
6300,352,-1840,-776,-129,155,232
6305,336,-1784,-832,-45,170,229
6310,280,-1736,-896,15,194,227
6315,280,-1704,-928,52,224,223
6320,208,-1632,-968,63,257,220
6325,160,-1592,-968,53,292,209
6330,80,-1536,-1008,18,315,206
6335,32,-1456,-1048,-26,335,206
6340,16,-1464,-1104,-79,352,211
6345,-8,-1424,-1080,-135,373,213
6350,0,-1448,-1072,-190,404,220
6355,-32,-1432,-1176,-241,447,218
6360,-56,-1512,-1112,-284,493,215
6365,-96,-1488,-1104,-318,532,209
6370,-112,-1552,-1088,-342,554,213
6375,-120,-1592,-1048,-355,561,210
6380,-96,-1584,-984,-363,546,212
6385,-72,-1624,-960,-368,518,214
6390,-16,-1680,-936,-377,485,213
6395,16,-1688,-936,-392,454,201
6400,88,-1744,-960,-413,430,192
6405,152,-1760,-960,-432,427,185
6410,232,-1768,-1016,-453,449,180
6415,280,-1792,-1088,-473,496,175
6420,328,-1824,-1128,-488,564,178
6425,328,-1832,-1144,-498,644,182
6430,336,-1840,-1184,-504,724,191
6435,344,-1824,-1200,-499,814,203
6440,320,-1816,-1224,-490,881,217
6445,296,-1784,-1248,-477,937,236
6450,304,-1792,-1248,-461,986,260
6455,304,-1776,-1248,-442,1026,284
6460,296,-1768,-1224,-424,1056,307
6465,296,-1736,-1200,-406,1079,328
6470,240,-1712,-1168,-392,1094,351
6475,240,-1720,-1176,-381,1107,375
6480,216,-1720,-1128,-375,1117,399
6485,176,-1688,-1120,-376,1127,427
6490,168,-1688,-1096,-385,1137,450
6495,128,-1664,-1112,-399,1144,471
6500,136,-1656,-1112,-423,1153,483
6505,96,-1616,-1112,-458,1166,496
6510,88,-1576,-1112,-503,1180,510
6515,-40,-1584,-1152,-564,1197,522
6520,104,-1512,-1256,-641,1221,525
6525,72,-1416,-1296,-738,1249,525
6530,88,-1368,-1312,-855,1281,524
6535,48,-1288,-1368,-993,1318,524
6540,24,-1184,-1400,-1153,1356,512
6545,24,-1120,-1440,-1364,1398,497
6550,-8,-1104,-1432,-1546,1427,476
6555,-56,-1104,-1376,-1722,1446,460
6560,-80,-1128,-1328,-1871,1459,436
6565,-136,-1168,-1208,-1970,1461,411
6570,-200,-1280,-1056,-2004,1451,388
6575,-272,-1432,-984,-1965,1434,372
6580,-328,-1560,-928,-1873,1421,361
6585,-328,-1656,-928,-1742,1416,348
6590,-304,-1752,-976,-1589,1420,334
6595,-296,-1816,-992,-1443,1432,334
6600,-264,-1872,-1064,-1281,1452,345
6605,-240,-1880,-1136,-1170,1466,362
6610,-232,-1888,-1232,-1083,1475,372
6615,-288,-1896,-1312,-1017,1474,379
6620,-312,-1880,-1384,-975,1452,374
6625,-368,-1856,-1472,-959,1409,369
6630,-344,-1864,-1552,-966,1353,354
6635,-328,-1808,-1568,-982,1290,345
6640,-312,-1816,-1624,-994,1230,334
6645,-272,-1768,-1600,-990,1175,327
6650,-240,-1744,-1632,-963,1115,311
6655,-160,-1728,-1608,-901,1069,301
6660,-96,-1680,-1584,-826,1026,292
6665,-56,-1624,-1584,-741,994,288
6670,0,-1536,-1616,-651,974,286
6675,32,-1488,-1640,-569,965,289
6680,80,-1424,-1592,-502,962,288
6685,104,-1368,-1600,-458,964,290
6690,112,-1296,-1616,-433,973,287
6695,160,-1264,-1600,-433,988,290
6700,144,-1264,-1656,-453,1013,289
6705,176,-1256,-1632,-489,1047,299
6710,232,-1296,-1624,-541,1078,311
6715,232,-1336,-1640,-584,1107,331
6720,248,-1360,-1592,-620,1135,349
6725,296,-1416,-1584,-646,1163,372
6730,328,-1416,-1600,-659,1188,400
6735,384,-1480,-1600,-664,1217,434
6740,480,-1448,-1568,-658,1251,460
6745,432,-1432,-1584,-643,1291,492
6750,464,-1392,-1528,-620,1327,519
6755,488,-1352,-1496,-594,1360,552
6760,512,-1328,-1488,-563,1394,582
6765,544,-1304,-1488,-528,1420,609
6770,592,-1304,-1424,-499,1448,632
6775,616,-1264,-1448,-470,1483,659
6780,648,-1280,-1432,-442,1526,682
6785,680,-1288,-1448,-414,1580,703
6790,688,-1272,-1448,-386,1640,716
6795,680,-1272,-1464,-356,1705,731
6800,696,-1272,-1440,-321,1769,741
6805,712,-1256,-1464,-286,1830,754
6810,696,-1232,-1424,-249,1886,763
6815,688,-1240,-1400,-208,1944,770
6820,640,-1208,-1416,-182,1984,773
6825,664,-1192,-1392,-165,2019,777
6830,656,-1152,-1416,-152,2050,779
6835,664,-1080,-1496,-138,2082,782
6840,688,-1080,-1408,-124,2117,782
6845,616,-1080,-1448,-105,2159,786
6850,616,-1048,-1472,-84,2204,790
6855,608,-1032,-1472,-71,2253,791
6860,600,-1032,-1448,-63,2297,786
6865,576,-1016,-1416,-59,2341,783
6870,560,-1000,-1432,-52,2390,780
6875,520,-992,-1368,-43,2425,778
6880,504,-1000,-1368,-31,2451,775
6885,456,-976,-1280,-14,2469,773
6890,432,-984,-1280,4,2480,769
6895,408,-960,-1256,26,2476,762
6900,328,-992,-1224,44,2461,753
6905,248,-984,-1192,55,2433,739
6910,216,-1000,-1216,57,2395,723
6915,152,-1024,-1200,50,2349,705
6920,104,-1016,-1208,42,2295,686
6925,96,-1032,-1176,34,2255,673
6930,48,-1040,-1216,28,2224,664
6935,80,-1048,-1216,27,2204,653
6940,88,-1064,-1240,29,2189,642
6945,120,-1080,-1264,31,2185,625
6950,192,-1088,-1080,41,2188,607
6955,184,-1208,-1160,57,2195,586
6960,312,-1176,-1176,80,2204,563
6965,376,-1232,-1240,110,2215,541
6970,424,-1264,-1184,143,2231,526
6975,528,-1216,-1112,182,2251,511
6980,480,-1272,-1168,231,2256,500
6985,696,-1312,-1160,266,2245,476
6990,696,-1280,-1112,301,2224,449
6995,840,-1272,-1192,329,2197,414
7000,864,-1232,-1216,345,2167,380
7005,904,-1248,-1208,350,2143,340
7010,928,-1224,-1200,346,2125,306
7015,928,-1192,-1184,346,2110,278
7020,936,-1128,-1136,350,2101,255
7025,904,-1120,-1120,361,2098,228
7030,960,-968,-1080,379,2101,197
7035,920,-984,-968,408,2112,159
7040,824,-976,-936,432,2125,128
7045,800,-960,-936,454,2132,95
7050,712,-840,-1024,474,2130,69
7055,656,-840,-912,487,2116,43
7060,592,-784,-1008,499,2096,25
7065,528,-656,-1064,509,2080,9
7070,464,-696,-1040,517,2074,-1
7075,504,-536,-1056,522,2084,-10
7080,480,-480,-976,526,2111,-13
7085,496,-448,-936,526,2153,-21
7090,504,-352,-872,518,2184,-20
7095,536,-312,-808,504,2209,-21
7100,584,-288,-760,485,2228,-18
7105,664,-336,-752,463,2246,-23
7110,688,-312,-664,443,2258,-31
7115,728,-344,-664,426,2268,-52
7120,704,-408,-616,409,2267,-80
7125,616,-432,-624,386,2248,-115
7130,656,-480,-560,361,2216,-146
7135,568,-512,-632,341,2176,-185
7140,536,-552,-696,338,2136,-208
7145,544,-720,-736,362,2113,-230
7150,640,-808,-904,405,2098,-245
7155,464,-848,-712,472,2095,-261
7160,432,-912,-728,562,2104,-269
7165,376,-936,-688,664,2120,-268
7170,416,-984,-712,785,2143,-255
7175,440,-976,-744,908,2169,-239
7180,544,-1048,-768,1021,2204,-217
7185,608,-1072,-720,1112,2246,-200
7190,728,-1016,-696,1186,2302,-183
7195,664,-1104,-392,1267,2347,-176
7200,944,-1208,-512,1314,2384,-174
7205,1136,-1248,-208,1353,2414,-188
7210,1336,-1320,-240,1389,2434,-223
7215,1544,-1520,-96,1412,2446,-278
7220,1640,-1528,-288,1424,2457,-352
7225,1744,-1672,-136,1426,2477,-436
7230,1944,-1896,-144,1416,2514,-516
7235,2152,-2112,-112,1385,2549,-630
7240,2408,-2352,-72,1340,2562,-791
7245,2584,-2512,-24,1281,2538,-1036
7250,2888,-2688,128,1218,2529,-1237
7255,3504,-3032,336,1203,2603,-1393
7260,3984,-3280,264,1256,2800,-1472
7265,4560,-3712,576,1362,3091,-1498
7270,5224,-3952,472,1485,3371,-1542
7275,5664,-4576,680,1525,3543,-1581
7280,6168,-4880,504,1441,3624,-1586
7285,6632,-5224,512,1215,3633,-1535
7290,6824,-5672,240,760,3571,-1420
7295,6928,-6104,-144,29,3408,-1238
7300,6584,-6344,-464,-833,3129,-947
7305,5704,-6280,-672,-1569,2928,-579
7310,4896,-6112,-664,-1542,2843,-85
7315,4328,-5864,-696,-868,2895,396
7320,3704,-5528,-832,252,2997,732
7325,2984,-5104,-832,1502,3156,902
7330,2464,-4712,-832,2566,3416,858
7335,1584,-3968,-448,3256,3685,626
7340,976,-3112,-40,3574,3815,300
7345,152,-2296,304,3595,3749,-37
7350,-544,-1448,552,3412,3542,-342
7355,-1104,-640,872,3029,3200,-492
7360,-1512,112,1272,2610,2867,-582
7365,-1672,712,1648,2120,2493,-631
7370,-1648,1216,1840,1588,2100,-668
7375,-1496,1640,2168,1055,1755,-710
7380,-1152,1888,2352,587,1518,-764
7385,-920,2008,2464,223,1420,-805
7390,-720,1936,2464,-14,1468,-799
7395,-456,1552,2400,-98,1620,-717
7400,40,952,2216,-27,1812,-575
7405,408,264,1952,187,1980,-386
7410,840,-176,1720,569,2110,-270
7415,1240,-1000,1640,915,2177,-205
7420,1704,-1776,1512,1285,2238,-219
7425,1928,-2080,1064,1649,2329,-277
7430,1816,-2248,872,1930,2472,-335
7435,1560,-2304,664,2125,2633,-320
7440,1376,-2192,600,2257,2771,-216
7445,1160,-1992,496,2320,2855,-32
7450,1024,-1824,472,2309,2880,172
7455,920,-1632,568,2237,2832,357
7460,928,-1568,656,2149,2711,519
7465,832,-1576,648,2039,2536,593
7470,704,-1600,736,1936,2406,658
7475,672,-1640,784,1856,2300,760
7480,568,-1584,872,1847,2243,877
7485,544,-1552,1000,1911,2230,1000
7490,568,-1448,1032,2009,2238,1089
7495,608,-1248,1176,2108,2249,1138
7500,712,-984,1264,2179,2258,1135
7505,768,-704,1312,2211,2271,1104
7510,808,-440,1384,2218,2293,1052
7515,808,-288,1472,2218,2327,990
7520,816,-128,1536,2237,2368,928
7525,744,-40,1640,2286,2369,865
7530,720,-32,1696,2364,2338,799
7535,632,-32,1736,2444,2298,739
7540,552,-72,1712,2526,2254,686
7545,520,-152,1816,2599,2199,640
7550,456,-256,1840,2656,2137,590
7555,408,-344,1872,2685,2070,541
7560,416,-480,1896,2684,2005,472
7565,256,-512,1968,2660,1949,383
7570,136,-496,1896,2637,1910,296
7575,-56,-480,1808,2602,1896,261
7580,-128,-512,1696,2553,1893,251
7585,-240,-496,1632,2470,1878,252
7590,-288,-472,1592,2359,1858,262
7595,-296,-520,1576,2240,1839,287
7600,-352,-584,1616,2140,1820,318
7605,-392,-624,1640,2066,1797,349
7610,-416,-704,1648,2015,1774,384
7615,-496,-728,1728,1976,1748,416
7620,-600,-768,1840,1962,1705,444
7625,-688,-784,1872,1974,1650,494
7630,-720,-776,1904,2016,1568,537
7635,-688,-768,2024,2046,1499,568
7640,-728,-720,2072,2068,1423,586
7645,-736,-616,2048,2068,1337,597
7650,-736,-512,1968,2075,1262,592
7655,-728,-424,1928,2077,1205,582
7660,-744,-240,1808,2056,1151,564
7665,-704,-104,1688,2004,1102,532
7670,-608,56,1600,1927,1057,476
7675,-584,224,1616,1829,1006,409
7680,-512,400,1744,1723,959,343
7685,-480,592,1952,1592,891,317
7690,-432,728,2064,1489,823,322
7695,-432,832,2120,1396,765,320
7700,-456,928,2176,1316,722,303
7705,-520,992,2232,1251,684,269
7710,-648,1072,2192,1196,642,223
7715,-800,1144,2128,1132,590,193
7720,-920,1144,2032,1051,529,197
7725,-960,1128,2056,953,453,211
7730,-976,1120,2112,855,366,218
7735,-1000,1128,2144,775,284,193
7740,-1032,1160,2120,685,191,163
7745,-1016,1184,2032,603,122,127
7750,-1040,1104,1976,492,66,84
7755,-1088,1080,1952,336,12,29
7760,-1120,1000,2080,157,-45,-24
7765,-1080,880,2192,-3,-94,-79
7770,-1008,728,2072,-112,-130,-128
7775,-952,624,1920,-188,-150,-184
7780,-888,496,1712,-251,-147,-233
7785,-816,408,1608,-323,-131,-275
7790,-776,392,1528,-389,-115,-310
7795,-696,376,1512,-455,-112,-339
7800,-656,400,1424,-482,-131,-363
7805,-624,440,1360,-475,-164,-392
7810,-584,448,1320,-436,-201,-407
7815,-520,448,1272,-381,-245,-415
7820,-440,472,1240,-318,-303,-405
7825,-312,520,1320,-263,-368,-394
7830,-240,584,1368,-228,-439,-372
7835,-200,648,1424,-221,-508,-352
7840,-176,696,1496,-239,-559,-331
7845,-192,712,1592,-273,-585,-314
7850,-152,640,1736,-327,-576,-293
7855,-144,568,1776,-371,-554,-275
7860,-152,488,1896,-403,-532,-265
7865,-184,360,2024,-419,-519,-265
7870,-232,240,2104,-417,-519,-269
7875,-216,128,2192,-392,-527,-282
7880,-208,48,2256,-343,-531,-286
7885,-184,8,2264,-277,-526,-291
7890,-136,-24,2280,-203,-513,-286
7895,-96,-32,2288,-120,-496,-280
7900,-80,-16,2256,-39,-473,-265
7905,-96,48,2168,50,-452,-245
7910,-96,120,2112,110,-430,-219
7915,-136,192,2056,153,-411,-195
7920,-192,256,2024,176,-400,-177
7925,-224,352,2024,182,-398,-164
7930,-216,416,1952,170,-408,-146
7935,-216,472,2008,143,-423,-136
7940,-176,496,2024,104,-443,-124
7945,-128,520,2040,53,-462,-115
7950,-96,552,2016,-7,-475,-102
7955,-48,608,2024,-72,-473,-89
7960,24,608,2040,-164,-461,-78
7965,64,576,2040,-244,-437,-66
7970,144,552,2072,-325,-404,-54
7975,200,504,2104,-400,-368,-48
7980,248,472,2112,-474,-332,-44
7985,336,456,2144,-537,-294,-44
7990,408,360,2120,-589,-259,-47
7995,440,296,2112,-632,-228,-60
8000,448,200,2080,-674,-202,-81
8005,424,144,2064,-716,-183,-110
8010,408,24,1960,-756,-174,-144
8015,400,-48,1936,-802,-176,-171
8020,384,-120,1936,-835,-184,-190
8025,336,-192,1856,-863,-196,-200
8030,312,-328,1864,-884,-210,-205
8035,352,-368,1872,-890,-221,-206
8040,328,-520,1824,-879,-231,-206
8045,288,-568,1792,-850,-237,-205
8050,296,-664,1776,-807,-239,-201
8055,296,-752,1768,-746,-238,-195
8060,304,-776,1800,-673,-232,-189
8065,344,-832,1824,-575,-223,-178
8070,360,-832,1816,-485,-215,-170
8075,328,-784,1840,-391,-209,-159
8080,368,-792,1824,-293,-202,-147
8085,352,-744,1824,-200,-199,-137
8090,360,-712,1832,-115,-198,-129
8095,352,-624,1832,-47,-199,-119
8100,344,-584,1864,3,-204,-110
8105,336,-504,1856,40,-212,-99
8110,304,-440,1848,57,-221,-89
8115,304,-392,1824,56,-227,-67
8120,280,-336,1840,40,-231,-50
8125,288,-264,1824,19,-234,-27
8130,280,-216,1800,-5,-234,-9
8135,320,-200,1808,-31,-230,9
8140,360,-192,1784,-63,-220,20
8145,304,-192,1768,-98,-201,25
8150,384,-160,1808,-128,-175,34
8155,456,-208,1840,-162,-146,42
8160,432,-200,1848,-195,-116,38
8165,480,-288,1848,-222,-90,38
8170,496,-312,1856,-244,-64,31
8175,472,-360,1880,-264,-33,27
8180,504,-400,1864,-270,-10,19
8185,512,-448,1856,-269,9,20
8190,496,-472,1872,-259,24,16
8195,504,-480,1880,-243,39,16
8200,488,-496,1848,-220,52,10
8205,464,-464,1816,-195,64,9
8210,456,-464,1824,-166,74,5
8215,448,-456,1816,-138,82,7
8220,432,-424,1792,-109,88,3
8225,464,-448,1792,-84,97,5
8230,424,-392,1824,-55,102,3
8235,424,-384,1800,-34,106,2
8240,416,-384,1824,-13,111,-2
8245,416,-384,1856,8,117,-4
8250,408,-344,1880,31,122,-13
8255,400,-360,1872,56,131,-14
8260,408,-296,1880,82,139,-21
8265,408,-288,1904,112,149,-24
8270,392,-264,1856,141,161,-30
8275,400,-232,1912,169,174,-31
8280,368,-200,1880,193,189,-40
8285,344,-168,1920,216,198,-43
8290,304,-128,1912,228,203,-49
8295,280,-136,1888,232,204,-48
8300,272,-104,1888,233,199,-52
8305,240,-64,1912,227,191,-51
8310,208,-72,1880,216,181,-53
8315,184,-64,1896,202,169,-50
8320,136,-32,1888,186,156,-48
8325,120,-40,1936,169,142,-42
8330,96,-16,1936,152,133,-39
8335,96,-24,1952,134,125,-30
8340,48,-8,1920,115,121,-24
8345,72,-8,1952,104,119,-17
8350,64,-16,1960,89,121,-13
8355,48,-16,1968,78,124,-7
8360,64,-24,1952,68,126,-6
8365,48,0,1912,59,129,-3
8370,64,0,1944,54,131,-3
8375,104,-16,1960,44,132,-2
8380,80,8,1944,37,134,-4
8385,112,-24,1928,28,134,-3
8390,136,-16,1968,19,135,-4
8395,112,-24,1936,6,137,-7
8400,136,-8,1944,-5,142,-9
8405,120,-32,1920,-17,147,-12
8410,104,-48,1944,-29,151,-14
8415,120,-56,1936,-37,154,-15
8420,80,-48,1936,-43,156,-15
8425,80,-96,1920,-48,158,-15
8430,64,-104,1920,-49,160,-15
8435,56,-96,1936,-47,161,-13
8440,48,-120,1960,-45,158,-10
8445,32,-104,1920,-40,156,-9
8450,16,-112,1912,-35,154,-6
8455,16,-128,1904,-31,152,-4
8460,56,-112,1896,-28,149,-2
8465,32,-96,1912,-25,146,-2
8470,88,-136,1912,-24,144,0
8475,56,-112,1896,-27,139,-1
8480,72,-104,1928,-31,133,-2
8485,64,-120,1920,-35,128,-6
8490,72,-104,1928,-42,120,-8
8495,88,-112,1920,-49,113,-16
8500,80,-120,1936,-59,102,-19
8505,104,-128,1936,-68,96,-23
8510,112,-136,1944,-77,92,-25
8515,128,-144,1936,-86,87,-30
8520,128,-144,1936,-93,84,-29
8525,144,-152,1920,-97,83,-35
8530,128,-160,1928,-99,84,-35
8535,144,-200,1896,-100,85,-39
8540,128,-192,1928,-100,87,-38
8545,144,-224,1888,-96,88,-40
8550,136,-216,1912,-91,89,-38
8555,144,-224,1912,-83,89,-40
8560,168,-248,1920,-75,89,-36
8565,144,-280,1904,-67,86,-38
8570,152,-240,1936,-57,82,-32
8575,152,-248,1896,-49,79,-34
8580,168,-256,1896,-43,73,-28
8585,160,-248,1888,-38,67,-27
8590,136,-248,1888,-35,60,-19
8595,136,-240,1904,-34,54,-17
8600,128,-248,1888,-35,44,-8
8605,152,-216,1872,-35,36,-4
8610,144,-200,1896,-39,27,3
8615,160,-200,1864,-43,20,6
8620,160,-192,1896,-51,16,10
8625,168,-192,1888,-57,14,10
8630,168,-192,1920,-67,11,13
8635,184,-208,1888,-76,11,12
8640,216,-208,1920,-83,13,14
8645,208,-256,1888,-87,16,13
8650,208,-240,1928,-86,18,15
8655,216,-256,1896,-82,21,13
8660,184,-240,1912,-78,21,16
8665,192,-248,1912,-70,23,16
8670,208,-272,1920,-60,26,17
8675,208,-248,1888,-50,29,16
8680,208,-264,1920,-40,30,16
8685,216,-240,1896,-27,33,14
8690,200,-232,1864,-15,36,14
8695,240,-240,1904,-1,38,13
8700,208,-216,1904,11,39,13
8705,208,-208,1880,22,41,12
8710,208,-208,1920,31,43,13
8715,184,-200,1896,38,44,10
8720,216,-200,1896,44,45,11
8725,240,-192,1896,46,46,11
8730,216,-176,1896,45,48,11
8735,216,-176,1912,45,48,10
8740,216,-168,1888,42,47,12
8745,216,-144,1872,39,46,12
8750,208,-152,1912,34,45,15
8755,216,-152,1920,30,44,15
8760,224,-152,1904,25,45,17
8765,240,-152,1928,19,46,17
8770,224,-144,1912,17,45,17
8775,224,-152,1960,12,45,19
8780,232,-144,1920,9,44,18
8785,216,-160,1944,6,43,19
8790,216,-144,1936,1,43,19
8795,200,-120,1936,-2,42,19
8800,184,-96,1864,-5,42,17
8805,208,-128,1888,-6,43,17
8810,192,-128,1904,-10,43,17
8815,216,-144,1936,-11,44,18
8820,192,-136,1896,-15,44,16
8825,176,-136,1928,-17,46,17
8830,192,-136,1904,-18,47,16
8835,168,-160,1888,-22,51,17
8840,200,-144,1888,-23,54,14
8845,184,-144,1912,-24,56,15
8850,184,-160,1888,-25,58,14
8855,200,-176,1904,-25,61,15
8860,192,-152,1912,-26,63,13
8865,200,-184,1896,-26,68,12
8870,192,-160,1896,-24,71,11
8875,200,-176,1904,-22,73,11
8880,184,-168,1904,-18,76,8
8885,176,-176,1944,-15,75,10
8890,168,-176,1912,-15,74,7
8895,176,-176,1920,-14,72,7
8900,160,-168,1904,-15,69,4
8905,176,-160,1896,-15,69,4
8910,168,-168,1920,-18,69,0
8915,168,-152,1880,-21,68,1
8920,176,-184,1912,-22,68,-2
8925,168,-168,1888,-24,68,0
8930,184,-192,1904,-24,68,-5
8935,160,-184,1896,-24,69,-4
8940,184,-176,1864,-24,70,-6
8945,192,-192,1912,-25,71,-4
8950,184,-192,1880,-25,72,-6
8955,192,-200,1896,-24,74,-3
8960,184,-176,1896,-23,75,-5
8965,184,-216,1888,-21,76,-3
8970,200,-200,1920,-19,78,-6
8975,176,-184,1936,-16,78,-3
8980,168,-184,1896,-15,78,-5
8985,192,-176,1904,-16,78,-4
8990,184,-176,1920,-18,77,-6
8995,184,-176,1896,-23,76,-5
9000,200,-184,1920,-27,75,-7
9005,144,-192,1904,-32,76,-5
9010,176,-200,1888,-33,75,-7
9015,168,-160,1904,-35,76,-3
9020,168,-184,1912,-35,77,-4
9025,176,-208,1904,-34,76,0
9030,168,-184,1896,-30,76,-2
9035,176,-184,1896,-26,77,1
9040,192,-176,1896,-20,76,0
9045,184,-200,1896,-16,78,1
9050,200,-184,1896,-12,78,0
9055,200,-192,1888,-9,77,1
9060,200,-176,1896,-8,78,0
9065,200,-176,1896,-7,76,2
9070,184,-176,1904,-7,76,1
9075,208,-168,1928,-8,77,2
9080,208,-184,1912,-8,78,-1
9085,208,-192,1920,-10,78,1
9090,208,-192,1896,-12,78,-1
9095,192,-176,1920,-16,79,-2
9100,176,-168,1888,-23,77,-2
9105,176,-168,1928,-31,78,-3
9110,168,-176,1912,-39,78,-3
9115,168,-168,1928,-44,77,-1
9120,184,-192,1912,-46,76,0
9125,144,-184,1832,-48,74,2
9130,144,-184,1904,-49,71,2
9135,160,-184,1880,-49,69,3
9140,176,-192,1920,-47,68,4
9145,152,-184,1904,-45,66,6
9150,184,-200,1904,-39,65,7
9155,160,-176,1872,-30,67,6
9160,152,-192,1904,-19,67,6
9165,160,-184,1904,-9,66,6
9170,144,-168,1880,0,68,6
9175,200,-168,1912,10,69,5
9180,184,-152,1896,15,68,6
9185,200,-184,1896,19,68,5
9190,200,-160,1912,22,69,3
9195,176,-168,1944,20,70,2
9200,192,-152,1928,17,70,1
9205,184,-176,1920,12,70,-1
9210,176,-152,1928,8,70,-1
9215,176,-152,1952,2,68,-3
9220,200,-152,1904,-3,69,-5
9225,192,-176,1920,-9,69,-6
9230,176,-152,1872,-14,69,-5
9235,200,-168,1904,-18,70,-5
9240,168,-152,1880,-21,71,-3
9245,160,-168,1904,-22,73,-3
9250,152,-152,1872,-26,72,-3
9255,176,-184,1904,-29,70,-2
9260,160,-176,1912,-29,71,1
9265,152,-168,1896,-30,67,1
9270,136,-160,1904,-30,65,4
9275,152,-184,1920,-29,64,2
9280,176,-192,1912,-31,61,5
9285,168,-192,1920,-29,61,3
9290,152,-192,1920,-29,58,5
9295,144,-192,1904,-27,55,1
9300,160,-192,1904,-25,55,1
9305,160,-168,1904,-23,51,1
9310,176,-160,1904,-21,51,4
9315,184,-184,1920,-18,52,2
9320,184,-208,1872,-15,53,4
9325,192,-192,1928,-17,55,3
9330,168,-152,1904,-16,57,5
9335,176,-200,1912,-17,59,0
9340,160,-176,1928,-18,61,1
9345,184,-184,1936,-20,62,-2
9350,168,-184,1904,-22,62,-1
9355,168,-184,1928,-23,62,-4
9360,184,-192,1920,-24,60,-2
9365,160,-184,1904,-26,59,-5
9370,160,-184,1904,-25,58,-3
9375,176,-200,1904,-24,58,-6
9380,168,-192,1928,-25,59,-3
9385,176,-208,1928,-25,60,-6
9390,160,-184,1880,-25,61,-1
9395,160,-144,1912,-23,62,-3
9400,192,-176,1904,-21,64,0
9405,176,-192,1872,-23,67,-3
9410,192,-200,1904,-20,67,-1
9415,168,-192,1912,-16,66,-4
9420,152,-184,1928,-14,67,-3
9425,160,-184,1928,-9,65,-5
9430,184,-192,1896,-7,64,-4
9435,176,-184,1888,-4,62,-7
9440,168,-176,1912,-1,64,-5
9445,208,-200,1904,2,66,-7
9450,208,-168,1896,2,68,-6
9455,248,-152,1912,3,72,-8
9460,168,-168,1912,3,77,-6
9465,208,-192,1912,2,80,-8
9470,216,-192,1920,1,85,-8
9475,216,-176,1904,1,90,-10
9480,200,-184,1920,-1,94,-9
9485,176,-176,1896,-2,95,-9
9490,192,-184,1888,-1,95,-9
9495,176,-176,1872,-2,96,-9
9500,176,-200,1880,-3,93,-9
9505,160,-184,1904,-2,89,-8
9510,168,-176,1888,-2,83,-5
9515,152,-144,1896,-3,76,-3
9520,144,-168,1912,-6,68,2
9525,152,-160,1896,-8,60,5
9530,152,-168,1896,-12,51,8
9535,120,-144,1936,-19,46,12
9540,104,-152,1872,-25,43,13
9545,120,-160,1928,-30,40,16
9550,144,-192,1920,-36,37,18
9555,120,-208,1912,-38,34,19
9560,152,-184,1920,-37,30,20
9565,128,-200,1912,-35,28,20
9570,160,-200,1920,-32,25,19
9575,136,-184,1936,-28,21,18
9580,152,-184,1912,-24,23,16
9585,160,-184,1904,-23,24,15
9590,176,-176,1936,-25,26,10
9595,176,-192,1936,-30,27,11
9600,160,-168,1928,-41,28,6
9605,160,-144,1912,-53,30,6
9610,168,-192,1896,-62,30,3
9615,152,-192,1904,-67,31,3
9620,168,-200,1912,-70,32,2
9625,168,-208,1904,-70,34,2
9630,200,-216,1912,-66,36,-1
9635,184,-200,1912,-61,41,0
9640,200,-224,1928,-50,48,-5
9645,224,-224,1912,-39,56,-4
9650,200,-232,1880,-26,65,-6
9655,208,-208,1888,-16,72,-3
9660,232,-208,1888,-3,79,-5
9665,224,-184,1872,8,81,-4
9670,224,-184,1864,17,83,-7
9675,208,-168,1912,22,82,-5
9680,208,-184,1896,25,81,-9
9685,192,-176,1912,27,79,-6
9690,216,-192,1896,27,78,-9
9695,208,-160,1928,26,77,-8
9700,216,-176,1936,24,75,-11
9705,200,-152,1896,21,75,-9
9710,216,-160,1896,18,73,-12
9715,224,-184,1920,13,74,-9
9720,256,-184,1944,7,75,-13
9725,240,-160,1928,1,76,-10
9730,216,-176,1880,-2,77,-11
9735,208,-176,1904,-5,78,-10
9740,232,-192,1912,-8,78,-12
9745,200,-184,1872,-10,77,-11
9750,192,-192,1888,-8,75,-14
9755,168,-184,1920,-9,72,-13
9760,184,-192,1896,-9,68,-15
9765,176,-184,1912,-12,64,-13
9770,168,-184,1928,-12,62,-16
9775,136,-184,1888,-12,59,-11
9780,152,-224,1896,-13,58,-12
9785,136,-176,1880,-13,56,-7
9790,128,-176,1880,-12,54,-7
9795,136,-192,1904,-13,54,-4
9800,128,-192,1936,-11,56,-3
9805,144,-200,1912,-11,59,0
9810,152,-200,1928,-11,59,1
9815,128,-168,1912,-10,59,3
9820,136,-168,1904,-9,59,2
9825,136,-184,1904,-10,59,3
9830,136,-176,1928,-10,58,2
9835,160,-176,1896,-10,55,3
9840,144,-168,1896,-10,53,2
9845,152,-176,1928,-11,51,3
9850,144,-160,1928,-14,50,2
9855,152,-160,1928,-16,49,3
9860,144,-176,1928,-18,48,1
9865,168,-176,1904,-23,50,2
9870,192,-200,1936,-25,51,-2
9875,176,-192,1880,-25,55,-2
9880,200,-200,1880,-25,59,-5
9885,168,-168,1848,-22,65,-5
9890,184,-248,1864,-21,69,-8
9895,208,-200,1920,-17,72,-8
9900,224,-216,1880,-13,77,-10
9905,208,-176,1896,-12,81,-11
9910,192,-184,1896,-7,84,-10
9915,208,-184,1888,-5,86,-11
9920,216,-208,1912,0,88,-10
9925,216,-184,1872,3,88,-12
9930,224,-168,1880,7,91,-10
9935,200,-160,1912,9,90,-11
9940,224,-192,1920,14,90,-9
9945,240,-176,1912,18,90,-9
9950,248,-208,1896,19,91,-9
9955,200,-176,1896,22,94,-9
9960,200,-168,1912,20,97,-7
9965,208,-176,1904,18,101,-9
9970,200,-184,1896,16,100,-7
9975,224,-200,1912,11,99,-9
9980,192,-176,1904,7,97,-7
9985,160,-168,1880,3,91,-9
9990,152,-176,1904,-1,84,-6
9995,152,-184,1928,-5,76,-9
10000,128,-168,1944,-8,65,-4
10005,128,-184,1896,-13,55,-4
10010,120,-152,1928,-15,45,-1
10015,120,-176,1920,-17,37,1
10020,120,-144,1888,-19,30,5
10025,112,-176,1952,-20,27,7
10030,128,-184,1888,-22,28,12
10035,120,-176,1896,-24,28,13
10040,128,-184,1896,-26,29,18
10045,112,-184,1912,-28,27,18
10050,136,-192,1904,-32,26,21
10055,144,-176,1912,-33,27,20
10060,152,-192,1920,-33,26,21
10065,144,-184,1912,-35,24,18
10070,136,-168,1920,-35,23,17
10075,160,-176,1936,-34,23,13
10080,152,-176,1920,-34,25,12
10085,168,-168,1896,-33,27,7
10090,200,-200,1912,-32,29,6
10095,176,-168,1936,-32,32,3
10100,168,-176,1904,-29,36,1
10105,144,-192,1872,-27,42,-4
10110,192,-184,1896,-27,45,-2
10115,200,-200,1904,-26,51,-5
10120,184,-168,1904,-25,54,-5
10125,192,-176,1928,-22,60,-7
10130,184,-184,1880,-20,63,-8
10135,192,-176,1896,-17,67,-10
10140,216,-216,1880,-14,70,-9
10145,232,-192,1880,-11,72,-12
10150,224,-184,1904,-9,74,-12
10155,216,-184,1864,-5,76,-14
10160,248,-168,1888,0,78,-15
10165,240,-184,1896,4,80,-19
10170,248,-176,1888,9,84,-19
10175,256,-168,1904,15,86,-23
10180,272,-200,1880,19,93,-25
10185,272,-200,1904,23,98,-29
10190,232,-192,1904,26,101,-32
10195,232,-160,1896,31,101,-32
10200,224,-168,1888,33,99,-31
10205,184,-160,1912,34,95,-33
10210,224,-176,1920,32,90,-29
10215,200,-96,1848,30,85,-28
10220,160,-160,1888,25,77,-24
10225,152,-144,1904,19,70,-22
10230,136,-152,1864,12,63,-15
10235,152,-152,1912,4,58,-12
10240,144,-192,1912,-6,55,-8
10245,128,-168,1888,-13,53,-3
10250,112,-160,1920,-18,50,0
10255,112,-184,1928,-24,48,2
10260,136,-184,1936,-29,43,2
10265,120,-200,1928,-33,40,4
10270,128,-184,1920,-34,36,4
10275,152,-208,1920,-35,34,4
10280,160,-200,1920,-36,33,3
10285,144,-192,1928,-36,33,3
10290,160,-192,1896,-36,33,1
10295,136,-168,1904,-33,33,0
10300,152,-192,1920,-30,36,-3
10305,160,-184,1904,-28,37,-2
10310,152,-160,1912,-23,41,-4
10315,160,-176,1904,-19,45,-4
10320,152,-176,1904,-16,47,-5
10325,160,-184,1880,-13,51,-6
10330,184,-176,1904,-10,52,-7
10335,152,-168,1896,-7,56,-7
10340,176,-144,1896,-6,59,-8
10345,176,-168,1896,-5,63,-5
10350,192,-176,1856,-5,65,-8
10355,192,-176,1888,-5,68,-6
10360,208,-184,1904,-4,71,-9
10365,224,-192,1904,-5,75,-9
10370,184,-160,1888,-7,77,-10
10375,200,-144,1920,-11,80,-9
10380,200,-176,1920,-17,83,-11
10385,200,-184,1936,-30,85,-11
10390,240,-176,1912,-39,87,-11
10395,224,-200,1896,-45,90,-8
10400,216,-176,1920,-46,94,-11
10405,192,-200,1888,-47,96,-8
10410,208,-176,1896,-43,95,-11
10415,208,-184,1912,-39,94,-8
10420,208,-200,1896,-34,91,-11
10425,192,-176,1888,-30,87,-8
10430,176,-168,1912,-22,83,-9
10435,192,-192,1872,-14,79,-6
10440,176,-176,1904,-5,76,-8
10445,208,-168,1880,3,72,-4
10450,192,-168,1896,8,66,-5
10455,184,-168,1864,11,63,-1
10460,168,-160,1896,10,61,-2
10465,184,-152,1896,10,56,0
10470,176,-136,1912,8,57,-2
10475,176,-176,1928,9,57,0
10480,168,-160,1896,10,57,-4
10485,176,-168,1944,10,57,-1
10490,192,-176,1920,10,57,-6
10495,176,-200,1896,12,58,-4
10500,192,-176,1896,12,57,-8
10505,176,-160,1904,11,58,-7
10510,176,-168,1936,6,59,-9
10515,168,-168,1912,3,62,-7
10520,176,-160,1888,-2,62,-9
10525,152,-160,1888,-9,63,-7
10530,168,-192,1912,-15,61,-8
10535,168,-192,1856,-20,62,-6
10540,184,-208,1984,-23,62,-8
10545,176,-184,1904,-26,61,-6
10550,152,-176,1904,-28,60,-7
10555,152,-184,1920,-28,59,-6
10560,152,-176,1928,-29,58,-7
10565,160,-168,1928,-27,58,-6
10570,144,-176,1928,-23,58,-7
10575,192,-168,1920,-21,57,-7
10580,168,-200,1904,-18,57,-8
10585,192,-184,1928,-15,57,-7
10590,184,-200,1928,-13,55,-9
10595,160,-200,1904,-9,58,-7
10600,192,-192,1920,-7,60,-8
10605,184,-168,1904,-4,60,-6
10610,168,-176,1896,-4,62,-7
10615,160,-184,1904,-3,63,-6
10620,176,-152,1888,-2,64,-7
10625,200,-192,1896,-1,65,-6
10630,192,-184,1920,-3,66,-6
10635,192,-176,1912,-2,67,-6
10640,168,-160,1880,-1,67,-6
10645,208,-184,1928,-2,70,-8
10650,208,-200,1928,-4,69,-8
10655,208,-176,1896,-5,69,-10
10660,184,-168,1880,-7,66,-10
10665,152,-160,1912,-9,64,-9
10670,176,-160,1960,-11,62,-10
10675,168,-184,1912,-15,61,-9
10680,160,-144,1904,-17,58,-8
10685,176,-144,1912,-20,56,-7
10690,176,-184,1912,-22,53,-7
10695,136,-152,1920,-23,51,-7
10700,168,-168,1888,-23,49,-6
10705,144,-144,1904,-25,46,-4
10710,168,-184,1888,-27,46,-3
10715,160,-160,1912,-25,42,-1
10720,160,-168,1888,-25,41,1
10725,168,-192,1912,-23,40,0
10730,184,-160,1904,-21,38,1
10735,160,-168,1904,-19,39,-1
10740,160,-176,1928,-15,37,0
10745,168,-152,1960,-12,36,-4
10750,176,-176,1888,-9,34,-5
10755,176,-192,1888,-8,34,-8
10760,200,-168,1896,-7,36,-7
10765,192,-184,1904,-7,39,-10
10770,176,-168,1904,-6,44,-8
10775,208,-168,1896,-6,47,-10
10780,176,-152,1912,-8,50,-9
10785,160,-168,1912,-10,52,-11
10790,176,-176,1904,-12,54,-8
10795,176,-144,1864,-13,56,-9
10800,192,-168,1896,-15,57,-7
10805,168,-160,1888,-16,59,-7
10810,184,-160,1904,-18,61,-4
10815,192,-144,1888,-19,62,-7
10820,176,-152,1912,-22,64,-4
10825,200,-176,1896,-22,65,-5
10830,208,-184,1912,-22,66,-3
10835,176,-160,1912,-21,66,-5
10840,200,-192,1904,-19,68,-2
10845,200,-176,1912,-16,68,-6
10850,200,-192,1912,-11,68,-3
10855,208,-176,1896,-7,67,-6
10860,192,-168,1912,-3,68,-3
10865,208,-184,1888,1,68,-6
10870,256,-224,1912,4,68,-3
10875,200,-168,1920,6,70,-7
10880,216,-184,1936,8,71,-4
10885,200,-176,1872,9,73,-6
10890,184,-176,1888,8,76,-5
10895,208,-176,1920,7,78,-6
10900,200,-144,1888,5,82,-5
10905,208,-176,1896,6,85,-7
10910,208,-160,1896,5,86,-5
10915,200,-168,1912,4,85,-8
10920,208,-160,1896,3,84,-6
10925,184,-168,1888,3,83,-9
10930,176,-152,1912,2,81,-8
10935,184,-168,1904,0,78,-9
10940,168,-168,1904,-1,74,-9
10945,168,-168,1912,-4,67,-9
10950,128,-136,1928,-7,59,-9
10955,168,-192,1904,-8,52,-10
10960,144,-176,1896,-9,45,-7
10965,152,-168,1936,-11,37,-7
10970,136,-168,1920,-13,28,-4
10975,136,-152,1920,-12,23,-4
10980,144,-144,1928,-14,19,-1
10985,152,-152,1896,-16,16,-1
10990,144,-168,1880,-17,15,2
10995,144,-160,1864,-17,16,4
11000,144,-160,1880,-19,16,5
11005,152,-152,1880,-20,16,6
11010,192,-184,1928,-20,19,9
11015,184,-184,1904,-20,21,7
11020,160,-168,1904,-19,21,7
11025,184,-168,1936,-22,22,5
11030,168,-160,1912,-22,24,3
11035,184,-152,1896,-23,26,2
11040,192,-152,1904,-23,29,0
11045,192,-160,1904,-25,32,0
11050,184,-160,1936,-28,37,-2
11055,200,-168,1896,-28,39,-3
11060,200,-168,1904,-29,43,-5
11065,208,-168,1936,-28,45,-5
11070,216,-176,1888,-26,49,-6
11075,208,-208,1920,-26,51,-4
11080,200,-184,1912,-23,54,-6
11085,248,-168,1912,-21,55,-6
11090,208,-176,1904,-17,58,-8
11095,232,-192,1888,-15,61,-6
11100,224,-160,1912,-10,66,-7
11105,240,-176,1872,-5,70,-2
11110,240,-184,1896,0,75,-1
11115,232,-168,1896,5,80,4
11120,248,-176,1880,9,84,4
11125,232,-168,1872,12,88,7
11130,224,-160,1888,15,92,6
11135,232,-176,1896,17,94,8
11140,240,-176,1888,16,98,5
11145,248,-176,1888,13,101,5
11150,240,-168,1904,11,100,1
11155,232,-176,1872,6,101,3
11160,200,-184,1912,4,100,-2
11165,208,-168,1920,2,98,0
11170,208,-176,1920,1,96,-3
11175,168,-160,1936,1,91,-2
11180,176,-160,1920,2,88,-5
11185,184,-176,1912,5,80,-4
11190,160,-160,1896,8,73,-6
11195,152,-192,1888,12,64,-4
11200,136,-168,1904,15,55,-7
11205,136,-176,1912,14,45,-3
11210,136,-152,1912,10,36,-5
11215,144,-144,1904,1,30,-2
11220,128,-136,1920,-12,26,-4
11225,168,-152,1928,-29,26,1
11230,128,-152,1928,-45,26,0
11235,160,-152,1936,-56,29,3
11240,144,-168,1904,-61,33,1
11245,184,-200,1896,-64,37,4
11250,152,-192,1904,-62,38,1
11255,168,-168,1880,-59,40,4
11260,192,-192,1888,-52,43,1
11265,168,-168,1856,-43,44,2
11270,184,-176,1888,-35,42,-1
11275,200,-184,1896,-25,41,1
11280,176,-168,1896,-16,44,-1
11285,192,-168,1912,-8,45,0
11290,176,-144,1888,0,46,-3
11295,176,-144,1888,6,48,-2
11300,192,-144,1904,10,49,-5
11305,192,-152,1896,13,51,-6
11310,192,-152,1904,15,53,-9
11315,192,-152,1904,17,55,-10
11320,208,-160,1920,17,55,-12
11325,200,-144,1896,15,55,-12
11330,216,-144,1920,11,53,-13
11335,208,-144,1920,7,52,-12
11340,216,-160,1912,0,53,-12
11345,208,-176,1912,-7,53,-11
11350,200,-136,1904,-14,55,-13
11355,208,-128,1912,-24,58,-11
11360,232,-152,1904,-32,60,-13
11365,232,-160,1904,-33,63,-11
11370,224,-168,1912,-35,64,-12
11375,216,-176,1912,-35,67,-11
11380,232,-168,1952,-32,68,-11
11385,248,-184,1952,-26,71,-12
11390,256,-184,1952,-19,74,-11
11395,224,-184,1952,-13,77,-11
11400,256,-216,1936,-6,80,-10
11405,240,-184,1912,0,79,-10
11410,240,-192,1904,1,79,-8
11415,248,-192,1920,1,76,-7
11420,200,-152,1872,-1,74,-6
11425,216,-168,1856,-4,71,-8
11430,192,-152,1896,-7,67,-4
11435,176,-160,1896,-11,65,-5
11440,184,-152,1880,-13,62,-2
11445,168,-152,1880,-15,61,-6
11450,176,-144,1864,-14,61,-2
11455,160,-144,1904,-15,60,-2
11460,160,-152,1872,-12,60,0
11465,168,-160,1928,-10,60,1
11470,176,-144,1912,-6,60,2
11475,160,-160,1904,-4,59,1
11480,192,-168,1928,-2,58,4
11485,184,-176,1904,1,59,2
11490,176,-168,1904,1,57,2
11495,184,-152,1888,0,56,-1
11500,160,-168,1896,-5,56,0
11505,208,-160,1896,-11,54,-4
11510,200,-160,1920,-17,54,-2
11515,184,-152,1896,-25,53,-7
11520,232,-112,1872,-31,55,-5
11525,184,-144,1920,-38,56,-8
11530,192,-168,1880,-43,59,-7
11535,168,-176,1872,-48,62,-9
11540,200,-168,1888,-48,66,-6
11545,208,-176,1912,-46,70,-9
11550,216,-184,1872,-43,73,-5
11555,192,-192,1896,-37,76,-8
11560,208,-200,1920,-28,79,-4
11565,216,-224,1912,-23,80,-8
11570,176,-176,1920,-15,81,-5
11575,192,-152,1896,-8,80,-8
11580,192,-168,1912,1,79,-7
11585,208,-168,1928,6,77,-9
11590,176,-176,1912,10,77,-6
11595,200,-176,1880,12,77,-9
11600,192,-152,1904,12,77,-5
11605,184,-144,1896,8,76,-8
11610,216,-160,1920,5,76,-7
11615,192,-128,1904,-1,74,-8
11620,184,-152,1920,-8,74,-6
11625,208,-192,1912,-13,74,-9
11630,200,-160,1904,-19,74,-5
11635,176,-144,1920,-23,75,-9
11640,168,-152,1920,-28,73,-7
11645,192,-176,1896,-32,73,-9
11650,192,-176,1896,-33,71,-7
11655,168,-160,1904,-33,70,-7
11660,176,-192,1928,-33,69,-6
11665,144,-144,1888,-33,67,-8
11670,144,-152,1904,-31,64,-4
11675,136,-144,1928,-30,61,-4
11680,144,-152,1896,-29,60,-1
11685,152,-144,1896,-27,56,-2
11690,168,-144,1952,-27,55,-1
11695,168,-152,1896,-26,54,0
11700,168,-176,1936,-27,53,1
11705,168,-152,1904,-26,54,0
11710,184,-168,1896,-28,55,0
11715,168,-152,1936,-29,56,-1
11720,184,-160,1912,-29,58,-2
11725,192,-184,1904,-30,59,-5
11730,192,-168,1912,-31,59,-5
11735,184,-176,1872,-30,59,-8
11740,192,-152,1904,-29,58,-8
11745,208,-200,1872,-30,58,-10
11750,200,-152,1896,-30,60,-10
11755,176,-160,1880,-29,61,-10
11760,208,-200,1896,-25,64,-10
11765,224,-192,1928,-24,67,-9
11770,208,-160,1888,-23,71,-8
11775,192,-176,1920,-20,72,-8
11780,232,-168,1896,-19,75,-7
11785,200,-168,1912,-17,77,-7
11790,208,-184,1904,-15,78,-6
11795,192,-160,1904,-15,77,-7
11800,168,-160,1912,-14,76,-8
11805,200,-152,1896,-16,76,-5
11810,184,-168,1896,-18,72,-8
11815,184,-176,1896,-18,68,-6
11820,184,-152,1904,-22,66,-5
11825,192,-160,1872,-23,63,-4
11830,192,-168,1912,-26,61,-5
11835,184,-176,1920,-27,60,-2
11840,152,-176,1928,-29,56,0
11845,192,-168,1936,-31,55,3
11850,240,-152,1832,-32,55,2
11855,192,-176,1896,-32,54,5
11860,176,-184,1896,-32,55,6
11865,168,-160,1904,-33,55,8
11870,176,-184,1928,-33,54,5
11875,200,-184,1912,-31,55,8
11880,216,-160,1904,-31,53,6
11885,176,-176,1896,-29,55,8
11890,208,-192,1912,-27,55,5
11895,200,-176,1920,-25,56,8
11900,192,-160,1912,-24,57,6
11905,192,-192,1896,-25,56,8
11910,200,-184,1904,-23,58,5
11915,184,-168,1920,-20,57,6
11920,192,-176,1896,-20,56,2
11925,216,-184,1888,-18,55,4
11930,200,-152,1912,-17,55,0
11935,192,-160,1928,-18,54,1
11940,192,-168,1888,-17,56,-2
11945,200,-168,1896,-17,57,0
11950,200,-176,1896,-17,57,-3
11955,224,-160,1904,-17,59,-1
11960,224,-176,1904,-17,61,-3
11965,208,-176,1888,-17,64,-2
11970,216,-200,1920,-19,68,-5
11975,208,-184,1904,-18,70,-3
11980,216,-176,1912,-19,72,-6
11985,192,-160,1896,-19,74,-4
11990,192,-152,1904,-19,72,-7
11995,192,-168,1912,-18,72,-5
12000,192,-176,1904,-17,69,-7
12005,200,-160,1896,-18,66,-4
12010,192,-168,1912,-19,65,-4
12015,184,-152,1896,-21,63,-2
12020,200,-160,1888,-23,60,-2
12025,160,-160,1928,-25,60,0
12030,176,-168,1904,-28,59,0
12035,160,-176,1920,-31,57,2
12040,192,-168,1912,-35,57,0
12045,192,-176,1928,-37,54,1
12050,184,-144,1904,-37,52,1
12055,176,-168,1912,-36,51,2
12060,192,-176,1896,-34,52,0
12065,232,-176,1864,-32,54,1
12070,200,-184,1880,-28,57,-1
12075,192,-168,1936,-29,62,0
12080,216,-192,1904,-30,65,-1
12085,208,-192,1920,-33,71,-1
12090,208,-200,1888,-41,75,-2
12095,192,-192,1944,-48,80,-3
12100,208,-200,1920,-52,82,-3
12105,216,-200,1928,-53,87,-6
12110,216,-232,1896,-47,90,-7
12115,208,-208,1888,-40,94,-8
12120,208,-216,1888,-32,95,-10
12125,208,-184,1904,-23,97,-10
12130,208,-216,1880,-15,95,-11
12135,200,-184,1888,-6,91,-12
12140,192,-176,1896,0,82,-10
12145,200,-168,1904,7,70,-9
12150,200,-168,1896,11,59,-5
12155,168,-144,1920,13,48,-4
12160,168,-168,1896,16,39,-1
12165,160,-128,1920,18,31,2
12170,176,-144,1888,16,27,4
12175,184,-144,1912,15,24,5
12180,176,-144,1904,13,22,7
12185,176,-176,1912,13,23,5
12190,168,-176,1928,15,26,7
12195,160,-176,1904,14,28,5
12200,184,-144,1904,14,28,8
12205,176,-144,1880,10,31,7
12210,176,-160,1896,3,33,9
12215,160,-168,1944,-4,34,6
12220,168,-160,1888,-13,36,7
12225,184,-160,1888,-21,36,7
12230,184,-168,1896,-30,37,8
12235,168,-160,1880,-37,39,6
12240,176,-152,1920,-45,41,8
12245,168,-168,1880,-49,43,5
12250,184,-176,1888,-52,44,8
12255,160,-168,1880,-52,45,4
12260,192,-176,1896,-52,47,6
12265,200,-176,1896,-50,47,1
12270,192,-192,1896,-48,47,2
12275,216,-184,1928,-46,47,-1
12280,184,-192,1912,-44,50,0
12285,208,-192,1920,-39,51,-5
12290,200,-208,1888,-33,51,-2
12295,232,-200,1912,-28,54,-6
12300,224,-184,1880,-23,57,-4
12305,224,-184,1880,-20,59,-8
12310,224,-192,1872,-16,61,-5
12315,216,-184,1880,-14,65,-8
12320,232,-200,1888,-11,68,-6
12325,192,-184,1880,-10,70,-9
12330,216,-176,1856,-8,72,-8
12335,216,-184,1896,-8,73,-11
12340,208,-208,1936,-10,72,-8
12345,200,-176,1888,-8,71,-10
12350,192,-176,1880,-7,70,-9
12355,208,-192,1896,-6,66,-10
12360,208,-192,1896,-6,64,-8
12365,200,-200,1928,-3,64,-11
12370,184,-192,1896,-3,64,-8
12375,224,-176,1920,-4,65,-9
12380,216,-168,1904,-5,64,-5
12385,192,-200,1904,-6,66,-6
12390,192,-200,1904,-8,69,-5
12395,184,-192,1880,-9,70,-7
12400,208,-168,1880,-10,71,-4
12405,200,-160,1904,-11,73,-6
12410,224,-208,1888,-12,73,-5
12415,192,-192,1896,-12,74,-6
12420,184,-200,1864,-12,73,-6
12425,176,-184,1888,-9,71,-9
12430,168,-200,1920,-6,71,-9
12435,192,-200,1896,-5,70,-10
12440,192,-208,1880,-3,70,-9
12445,176,-192,1984,-2,71,-10
12450,208,-200,1896,-1,70,-9
12455,208,-176,1896,-1,68,-9
12460,200,-152,1936,-2,68,-10
12465,184,-160,1920,-3,67,-10
12470,192,-160,1920,-4,64,-9
12475,208,-176,1888,-6,63,-10
12480,200,-176,1928,-8,60,-11
12485,168,-152,1912,-10,60,-12
12490,200,-144,1920,-11,58,-9
12495,200,-152,1928,-13,59,-8
12500,192,-176,1912,-14,60,-6
12505,208,-152,1904,-16,62,-6
12510,184,-168,1888,-17,62,-5
12515,184,-152,1888,-17,63,-4
12520,200,-176,1912,-18,63,-5
12525,192,-184,1904,-17,62,-4
12530,192,-176,1864,-18,61,-4
12535,184,-152,1880,-19,60,-3
12540,192,-160,1880,-18,61,-4
12545,200,-160,1904,-18,59,-2
12550,216,-168,1896,-18,59,-2
12555,200,-168,1872,-17,59,-2
12560,200,-168,1896,-18,58,-2
12565,208,-160,1912,-19,59,-2
12570,208,-176,1928,-21,58,-4
12575,184,-152,1912,-23,59,-1
12580,208,-160,1920,-27,59,-4
12585,224,-184,1888,-29,59,-3
12590,200,-184,1896,-31,59,-5
12595,224,-184,1896,-34,58,-4
12600,208,-176,1920,-32,60,-6
12605,176,-160,1912,-32,59,-4
12610,208,-168,1920,-31,59,-6
12615,200,-176,1904,-28,62,-4
12620,208,-184,1928,-24,63,-7
12625,208,-208,1888,-21,64,-5
12630,192,-176,1904,-19,66,-7
12635,192,-192,1912,-14,67,-5
12640,208,-192,1912,-11,66,-7
12645,200,-184,1888,-9,64,-4
12650,232,-184,1904,-8,64,-5
12655,216,-168,1920,-7,64,-4
12660,200,-176,1888,-9,62,-6
12665,208,-152,1872,-10,62,-2
12670,208,-176,1928,-13,62,-3
12675,192,-176,1896,-16,62,-1
12680,224,-192,1896,-20,62,-4
12685,208,-184,1904,-22,64,-1
12690,192,-176,1928,-25,65,-5
12695,192,-176,1928,-23,66,-2
12700,192,-184,1912,-23,65,-4
12705,200,-192,1952,-21,64,-2
12710,192,-192,1896,-19,65,-5
12715,200,-192,1872,-17,65,-2
12720,192,-192,1904,-16,64,-5
12725,200,-184,1928,-14,64,-3
12730,192,-184,1880,-14,65,-3
12735,200,-208,1944,-12,64,-2
12740,176,-168,1928,-11,63,-3
12745,176,-168,1920,-10,62,1
12750,176,-176,1880,-11,63,-1
12755,184,-184,1904,-12,61,3
12760,168,-160,1904,-14,60,2
12765,200,-168,1888,-15,60,4
12770,176,-160,1872,-19,58,3
12775,168,-176,1888,-21,59,6
12780,200,-168,1912,-26,59,4
12785,184,-152,1864,-30,59,4
12790,208,-168,1880,-33,60,1
12795,200,-160,1912,-35,62,1
12800,200,-152,1888,-37,63,-1
12805,200,-184,1920,-37,63,-2
12810,216,-192,1880,-37,64,-4
12815,200,-184,1904,-36,63,-5
12820,216,-168,1888,-33,63,-8
12825,200,-176,1904,-30,62,-9
12830,184,-208,1872,-28,61,-12
12835,232,-192,1920,-24,60,-11
12840,224,-176,1888,-21,59,-12
12845,192,-168,1920,-18,57,-11
12850,216,-184,1912,-16,58,-10
12855,208,-176,1896,-12,59,-10
12860,224,-176,1888,-10,60,-8
12865,216,-160,1888,-7,63,-7
12870,224,-192,1904,-9,67,-6
12875,216,-176,1896,-13,70,-5
12880,200,-168,1904,-19,73,-4
12885,208,-176,1944,-25,75,-3
12890,208,-184,1920,-34,78,-3
12895,232,-216,1888,-41,81,-3
12900,192,-192,1896,-45,83,-1
12905,216,-216,1912,-44,84,-3
12910,208,-200,1896,-38,84,-4
12915,224,-232,1888,-33,86,-6
12920,200,-208,1896,-27,85,-5
12925,208,-208,1920,-22,85,-6
12930,224,-200,1888,-20,83,-5
12935,168,-208,1904,-14,79,-7
12940,200,-144,1928,-9,76,-6
12945,184,-192,1896,-2,72,-8
12950,200,-184,1880,3,68,-6
12955,208,-176,1880,6,66,-6
12960,176,-176,1896,6,63,-6
12965,168,-168,1888,5,61,-8
12970,184,-168,1904,1,59,-4
12975,208,-168,1928,-1,59,-6
12980,184,-160,1936,-4,56,-3
12985,192,-168,1936,-5,56,-5
12990,192,-184,1928,-5,56,-3
12995,184,-168,1896,-6,57,-3
13000,184,-176,1912,-6,57,0
13005,208,-192,1904,-7,60,-1
13010,192,-160,1896,-9,61,2
13015,200,-192,1896,-10,64,-1
13020,200,-168,1888,-13,68,2
13025,216,-176,1872,-15,71,0
13030,208,-176,1896,-18,74,0
13035,200,-168,1904,-22,75,-2
13040,216,-184,1888,-22,76,-3
13045,200,-184,1896,-23,75,-6
13050,216,-192,1904,-22,73,-7
13055,208,-168,1896,-21,68,-10
13060,216,-200,1896,-18,64,-7
13065,200,-176,1904,-16,63,-9
13070,200,-184,1904,-14,59,-7
13075,184,-184,1912,-11,56,-9
13080,184,-184,1904,-12,56,-7
13085,208,-176,1904,-12,55,-8
13090,192,-160,1896,-9,55,-5
13095,176,-176,1904,-9,55,-5
13100,200,-192,1888,-7,57,-2
13105,184,-176,1936,-4,58,-3
13110,208,-200,1888,-4,59,1
13115,192,-168,1912,-3,60,-1
13120,184,-160,1872,-2,60,1
13125,224,-200,1888,-3,58,-1
13130,216,-160,1904,-4,58,-1
13135,216,-200,1896,-5,58,-4
13140,200,-168,1920,-9,58,-3
13145,192,-184,1912,-12,60,-6
13150,200,-152,1904,-12,61,-5
13155,184,-168,1912,-12,59,-8
13160,216,-168,1912,-14,59,-10
13165,200,-168,1920,-16,61,-9
13170,200,-200,1872,-15,60,-10
13175,216,-192,1912,-16,62,-10
13180,192,-176,1880,-16,65,-10
13185,200,-192,1912,-16,68,-8
13190,216,-192,1904,-16,72,-7
13195,224,-184,1888,-15,73,-6
13200,192,-160,1912,-13,76,-4
13205,192,-192,1920,-11,76,-3
13210,184,-184,1896,-12,75,-3
13215,200,-184,1896,-10,74,-2
13220,200,-168,1888,-7,71,-3
13225,208,-160,1912,-6,69,-2
13230,192,-160,1880,-5,67,-2
13235,184,-160,1912,-4,66,-1
13240,200,-200,1912,-5,68,-3
13245,216,-192,1912,-7,69,-4
13250,192,-144,1880,-9,70,-5
13255,192,-192,1912,-12,71,-6
13260,192,-160,1912,-13,73,-7
13265,200,-168,1896,-14,73,-7
13270,200,-160,1928,-16,74,-6
13275,184,-184,1920,-18,75,-5
13280,200,-192,1920,-20,75,-7
13285,176,-176,1928,-19,76,-4
13290,192,-176,1904,-20,78,-4
13295,200,-168,1928,-19,77,-1
13300,200,-160,1920,-19,76,-2
13305,184,-168,1912,-20,77,0
13310,192,-160,1896,-21,76,-2
13315,192,-176,1960,-20,73,0
13320,184,-168,1936,-21,72,-2
13325,184,-152,1928,-21,68,-1
13330,208,-176,1888,-24,66,-4
13335,192,-176,1888,-23,62,-2
13340,200,-168,1912,-23,61,-4
13345,176,-168,1896,-22,61,-2
13350,184,-160,1912,-21,59,-6
13355,216,-176,1880,-20,61,-3
13360,200,-192,1888,-18,62,-5
13365,216,-176,1880,-16,62,-4
13370,192,-176,1912,-14,66,-6
13375,200,-168,1864,-12,69,-6
13380,200,-176,1912,-10,69,-7
13385,216,-192,1920,-7,70,-7
13390,208,-192,1920,-5,70,-9
13395,184,-192,1880,-6,70,-7
13400,200,-184,1904,-6,70,-8
13405,192,-160,1864,-5,68,-6
13410,184,-192,1864,-4,66,-8
13415,168,-184,1880,-4,64,-5
13420,176,-184,1920,-6,63,-6
13425,152,-168,1832,-7,61,-2
13430,176,-160,1840,-9,59,-5
13435,192,-160,1880,-10,61,-2
13440,176,-184,1888,-10,60,-4
13445,200,-168,1904,-11,60,0
13450,216,-176,1904,-11,58,-4
13455,200,-176,1912,-9,58,-2
13460,208,-168,1904,-8,61,-3
13465,224,-168,1904,-5,61,-1
13470,208,-192,1904,-4,67,-4
13475,192,-200,1888,1,70,-1
13480,216,-184,1896,2,73,-4
13485,192,-208,1912,3,75,-2
13490,208,-192,1912,3,77,-2
13495,208,-184,1912,5,77,1
13500,184,-176,1944,3,75,-1
13505,192,-168,1920,-1,68,0
13510,168,-192,1960,-5,64,-1
13515,176,-168,1928,-10,58,-1
13520,176,-168,1872,-15,53,-2
13525,192,-176,1904,-19,49,-1
13530,176,-160,1896,-24,47,-4
13535,184,-184,1896,-28,49,-3
13540,208,-176,1872,-33,49,-5
13545,192,-152,1904,-37,54,-4
13550,192,-192,1880,-39,56,-5
13555,200,-168,1912,-41,61,-6
13560,192,-176,1896,-42,65,-8
13565,192,-176,1888,-40,66,-8
13570,216,-184,1880,-38,66,-9
13575,192,-200,1896,-34,66,-9
13580,200,-192,1920,-30,65,-8
13585,192,-232,1928,-25,64,-9
13590,176,-208,1896,-19,65,-10
13595,192,-184,1912,-14,64,-8
13600,200,-208,1896,-6,65,-7
13605,192,-168,1880,0,67,-7
13610,216,-176,1912,6,68,-6
13615,200,-152,1880,10,70,-7
13620,216,-192,1880,12,73,-6
13625,200,-176,1904,12,75,-6
13630,200,-136,1888,10,75,-4
13635,208,-192,1936,7,74,-5
13640,208,-152,1904,3,74,-6
13645,184,-168,1920,-2,72,-6
13650,192,-168,1904,-7,69,-5
13655,176,-160,1896,-13,64,-7
13660,176,-160,1904,-17,62,-3
13665,208,-160,1888,-23,60,-5
13670,200,-184,1920,-26,58,-1
13675,184,-192,1888,-27,58,-3
13680,208,-176,1896,-28,57,-2
13685,184,-168,1904,-27,60,-3
13690,208,-208,1896,-26,60,-1
13695,216,-216,1896,-22,61,-3
13700,200,-192,1904,-19,64,-4
13705,208,-192,1896,-14,67,-7
13710,208,-176,1880,-9,68,-4
13715,192,-184,1912,-8,69,-7
13720,192,-168,1912,-13,67,-6
13725,184,-168,1936,-17,68,-7
13730,200,-192,1936,-26,69,-5
13735,208,-192,1928,-33,69,-6
13740,176,-192,1888,-37,70,-3
13745,192,-192,1880,-39,72,-6
13750,192,-224,1880,-36,75,-3
13755,192,-200,1872,-32,77,-5
13760,168,-192,1880,-28,80,-3
13765,192,-208,1896,-21,82,-5
13770,176,-192,1888,-14,82,-3
13775,176,-168,1888,-8,78,-4
13780,200,-168,1864,0,75,-2
13785,192,-152,1864,7,73,-5
13790,192,-184,1880,13,71,-1
13795,176,-152,1872,17,70,-3
13800,184,-152,1896,22,69,-1
13805,184,-184,1912,22,69,-3
13810,200,-104,1920,20,69,-1
13815,184,-144,1896,20,69,-4
13820,200,-160,1920,14,69,-3
13825,208,-168,1904,11,66,-6
13830,176,-152,1944,9,64,-5
13835,192,-168,1920,5,61,-7
13840,200,-176,1920,1,59,-4
13845,200,-168,1936,-3,57,-5
13850,184,-184,1928,-10,57,-3
13855,200,-144,1880,-17,58,-4
13860,208,-168,1888,-24,59,-1
13865,184,-184,1896,-30,61,-2
13870,192,-176,1904,-34,64,0
13875,192,-192,1888,-37,65,1
13880,184,-184,1920,-37,64,2
13885,200,-184,1888,-35,62,1
13890,192,-192,1888,-32,60,1
13895,184,-168,1904,-29,61,-1
13900,200,-208,1888,-24,61,-1
13905,192,-208,1920,-21,60,-3
13910,176,-176,1928,-18,58,-3
13915,184,-168,1848,-15,58,-4
13920,168,-152,1896,-12,59,-2
13925,216,-184,1912,-9,60,-2
13930,200,-176,1880,-5,62,-3
13935,208,-200,1912,-2,63,-5
13940,200,-176,1896,0,66,-5
13945,192,-168,1888,1,67,-5
13950,192,-176,1904,0,68,-7
13955,200,-168,1872,0,70,-6
13960,192,-176,1880,-1,70,-7
13965,200,-168,1912,-1,71,-7
13970,192,-152,1904,-4,70,-8
13975,192,-176,1904,-6,70,-9
13980,200,-168,1888,-8,69,-10
13985,192,-192,1904,-12,67,-7
13990,192,-160,1888,-14,66,-8
13995,208,-160,1904,-14,66,-7
14000,200,-176,1896,-16,66,-8
14005,176,-184,1928,-17,66,-7
14010,200,-176,1912,-17,65,-7
14015,208,-200,1928,-17,63,-5
14020,192,-184,1920,-17,62,-7
14025,216,-192,1936,-14,62,-4
14030,184,-184,1904,-13,63,-6
14035,208,-200,1904,-10,63,-5
14040,192,-176,1880,-9,66,-7
14045,208,-168,1864,-7,67,-5
14050,200,-200,1872,-8,67,-6
14055,192,-168,1864,-6,66,-5
14060,200,-176,1896,-8,64,-6
14065,192,-168,1896,-7,61,-5
14070,184,-176,1888,-7,56,-9
14075,176,-192,1920,-6,50,-7
14080,176,-168,1904,-2,45,-9
14085,184,-160,1936,0,39,-7
14090,176,-176,1936,1,33,-9
14095,184,-152,1936,2,30,-7
14100,192,-160,1936,0,27,-8
14105,200,-184,1928,1,24,-5
14110,208,-184,1928,2,25,-6
14115,184,-184,1920,0,26,-4
14120,192,-192,1912,-2,28,-6
14125,192,-168,1936,-4,27,-2
14130,184,-152,1912,-9,28,-5
14135,152,-168,1912,-15,29,-2
14140,176,-160,1888,-18,29,-4
14145,216,-176,1896,-23,32,-2
14150,192,-184,1912,-29,34,-5
14155,168,-168,1848,-31,38,-3
14160,184,-168,1896,-34,42,-6
14165,176,-176,1904,-32,45,-4
14170,184,-168,1912,-31,47,-5
14175,184,-192,1904,-30,51,-2
14180,200,-168,1904,-26,52,-5
14185,176,-184,1904,-22,55,-2
14190,192,-184,1912,-18,54,-4
14195,192,-192,1904,-15,55,-3
14200,208,-184,1944,-10,55,-4
14205,176,-176,1896,-6,56,-2
14210,208,-184,1936,-5,57,-4
14215,208,-176,1920,-1,57,-2
14220,200,-168,1904,1,58,-5
14225,200,-152,1920,1,58,-3
14230,200,-168,1920,1,57,-5
14235,240,-184,1912,1,58,-4
14240,232,-184,1888,-2,60,-5
14245,184,-200,1848,-3,60,-5
14250,224,-160,1904,-5,60,-7
14255,208,-168,1888,-8,63,-7
14260,232,-168,1888,-10,64,-8
14265,232,-168,1904,-11,64,-7
14270,224,-176,1904,-10,65,-9
14275,224,-184,1920,-13,66,-8
14280,224,-168,1888,-14,65,-7
14285,216,-168,1880,-15,64,-8
14290,192,-160,1896,-15,62,-8
14295,200,-168,1888,-16,62,-7
14300,200,-192,1888,-14,61,-7
14305,200,-168,1896,-13,62,-4
14310,216,-160,1872,-13,61,-4
14315,192,-160,1880,-13,59,-4
14320,184,-160,1928,-12,58,-2
14325,208,-184,1872,-13,58,-1
14330,200,-160,1888,-13,55,-1
14335,176,-160,1904,-14,55,-1
14340,168,-168,1904,-15,54,1
14345,200,-176,1896,-16,54,0
14350,208,-192,1888,-17,54,0
14355,216,-176,1928,-17,54,-1
14360,224,-176,1912,-13,57,1
14365,224,-160,1896,-11,57,-2
14370,216,-192,1920,-8,59,-1
14375,200,-176,1912,-6,61,-3
14380,224,-160,1904,-4,63,-2
14385,200,-176,1896,-1,66,-3
14390,192,-160,1840,-1,66,-3
14395,192,-176,1888,-1,68,-5
14400,184,-128,1896,0,69,-4
14405,224,-176,1888,-1,70,-6
14410,208,-152,1880,-3,69,-4
14415,224,-144,1912,-4,67,-6
14420,232,-176,1896,-6,63,-3
14425,232,-168,1928,-6,59,-5
14430,224,-168,1896,-8,51,-3
14435,216,-176,1920,-8,45,-6
14440,224,-176,1936,-9,41,-3
14445,224,-176,1920,-10,39,-6
14450,216,-184,1912,-9,39,-3
14455,216,-168,1904,-9,43,-6
14460,208,-176,1920,-7,47,-5
14465,224,-176,1944,-7,53,-7
14470,232,-160,1904,-8,63,-4
14475,192,-160,1928,-8,68,-5
14480,200,-168,1904,-10,73,-3
14485,232,-184,1880,-13,76,-5
14490,208,-192,1896,-17,77,-4
14495,200,-184,1912,-20,78,-7
14500,192,-176,1904,-24,78,-4
14505,208,-176,1904,-28,79,-7
14510,216,-208,1888,-31,79,-5
14515,216,-184,1872,-31,80,-6
14520,192,-184,1888,-29,79,-2
14525,168,-176,1928,-26,78,-4
14530,184,-184,1912,-20,76,-2
14535,200,-192,1888,-15,74,-3
14540,192,-168,1920,-11,71,-1
14545,200,-184,1896,-7,70,-2
14550,200,-192,1896,-6,70,1
14555,208,-168,1920,-5,68,-1
14560,192,-168,1896,-4,68,-1
14565,192,-176,1920,-6,67,-4
14570,200,-128,1936,-8,65,-2
14575,216,-208,1888,-11,65,-6
14580,184,-136,1936,-16,65,-4
14585,184,-152,1904,-17,65,-7
14590,200,-168,1920,-21,64,-6
14595,192,-176,1904,-25,63,-9
14600,208,-168,1880,-28,62,-9
14605,192,-144,1904,-30,61,-8
14610,192,-184,1888,-32,61,-7
14615,208,-176,1904,-34,60,-9
14620,216,-176,1888,-34,59,-8
14625,208,-200,1920,-34,57,-6
14630,224,-168,1944,-31,58,-5
14635,192,-176,1928,-28,58,-4
14640,200,-168,1896,-24,60,-4
14645,216,-176,1888,-20,59,-3
14650,200,-168,1944,-16,60,-5
14655,192,-152,1928,-12,59,-4
14660,208,-184,1920,-9,60,-4
14665,192,-184,1912,-7,60,-5
14670,208,-152,1904,-8,60,-7
14675,216,-152,1920,-11,62,-8
14680,192,-152,1944,-20,64,-7
14685,192,-184,1928,-35,67,-6
14690,168,-136,1944,-49,70,-7
14695,192,-184,1896,-61,72,-6
14700,200,-200,1928,-67,71,-7
14705,168,-192,1944,-66,70,-6
14710,184,-200,1928,-63,68,-6
14715,176,-168,1888,-58,66,-4
14720,200,-208,1888,-51,62,-5
14725,192,-208,1888,-40,60,-2
14730,208,-200,1904,-30,55,-2
14735,184,-184,1896,-19,50,2
14740,200,-176,1888,-7,48,0
14745,184,-200,1872,5,47,3
14750,200,-176,1888,14,46,2
14755,200,-184,1872,21,44,3
14760,192,-144,1872,23,45,0
14765,208,-160,1888,25,47,3
14770,224,-168,1880,23,48,0
14775,184,-152,1896,22,51,1
14780,208,-160,1904,18,53,-3
14785,200,-168,1928,14,55,-3
14790,248,-120,1912,10,56,-7
14795,200,-160,1888,5,56,-6
14800,200,-152,1904,2,56,-9
14805,208,-176,1912,-2,58,-7
14810,208,-168,1912,-5,58,-10
14815,192,-144,1912,-9,58,-8
14820,208,-184,1896,-12,59,-7
14825,184,-160,1904,-15,58,-4
14830,184,-168,1896,-20,58,-6
14835,192,-184,1912,-21,56,-3
14840,200,-160,1888,-22,55,-4
14845,208,-160,1888,-21,54,-1
14850,208,-168,1912,-22,54,-3
14855,208,-176,1904,-21,53,0
14860,216,-184,1904,-20,54,-2
14865,192,-176,1912,-16,55,-1
14870,224,-176,1904,-14,57,-3
14875,208,-176,1912,-11,58,-1
14880,240,-200,1920,-9,61,-4
14885,232,-200,1904,-8,62,-3
14890,208,-160,1896,-7,64,-5
14895,200,-176,1864,-7,65,-3
14900,216,-168,1840,-5,68,-7
14905,208,-184,1904,-5,69,-5
14910,200,-168,1896,-3,71,-7
14915,216,-160,1904,1,74,-5
14920,216,-160,1920,1,77,-7
14925,216,-168,1928,2,78,-6
14930,240,-184,1896,2,80,-7
14935,208,-160,1888,3,82,-6
14940,232,-152,1928,4,87,-8
14945,208,-144,1896,3,90,-5
14950,216,-160,1896,0,92,-6
14955,216,-176,1904,-2,94,-6
14960,224,-160,1936,-4,95,-6
14965,224,-168,1912,-5,93,-6
14970,216,-176,1920,-7,92,-8
14975,248,-168,1904,-7,89,-5
14980,208,-168,1888,-9,87,-5
14985,208,-160,1912,-10,85,-5
14990,224,-160,1888,-11,83,-5
