timestamp,accel_x,accel_y,accel_z,gyro_x,gyro_y,gyro_z
0,-88,-1984,64,-55,14,-11
5,-96,-1984,40,-48,12,-12
10,-112,-1976,96,-43,12,-13
15,-112,-1984,48,-42,11,-13
20,-88,-2000,56,-41,10,-12
25,-104,-1992,64,-41,8,-11
30,-96,-2016,64,-40,8,-11
35,-72,-2008,56,-42,9,-11
40,-72,-2008,16,-44,8,-11
45,-64,-2000,80,-48,10,-11
50,-88,-2024,64,-49,11,-12
55,-72,-2032,64,-52,11,-11
60,-88,-2016,72,-53,13,-11
65,-104,-2000,80,-55,15,-9
70,-104,-2016,80,-55,14,-9
75,-104,-1992,88,-57,14,-9
80,-128,-2008,96,-59,13,-6
85,-80,-1992,80,-63,13,-5
90,-88,-1992,80,-68,15,-3
95,-96,-1992,80,-72,12,0
100,-96,-1992,80,-79,12,1
105,-80,-1984,80,-86,12,3
110,-72,-1984,72,-92,13,4
115,-88,-2000,72,-97,12,5
120,-96,-1984,80,-97,12,5
125,-80,-2000,64,-98,13,7
130,-112,-1968,96,-100,16,7
135,-88,-2000,72,-96,14,8
140,-88,-1992,72,-94,15,8
145,-112,-2000,64,-90,16,9
150,-88,-1992,64,-86,17,9
155,-96,-2016,64,-84,18,7
160,-112,-2016,72,-83,19,7
165,-128,-1992,72,-83,20,7
170,-112,-2008,48,-83,20,6
175,-112,-2008,64,-83,20,5
180,-96,-1992,72,-84,20,4
185,-96,-2024,80,-83,21,1
190,-104,-2024,64,-84,21,1
195,-112,-2000,72,-84,23,1
200,-120,-2000,72,-81,22,1
205,-112,-2000,104,-77,22,3
210,-120,-2032,64,-74,24,2
215,-112,-2016,64,-71,24,1
220,-128,-2016,72,-69,26,-3
225,-120,-2016,96,-69,28,-3
230,-120,-1984,72,-69,31,-3
235,-128,-1992,72,-72,33,-4
240,-112,-1992,88,-78,34,-3
245,-128,-1992,88,-82,38,-3
250,-120,-1992,120,-84,41,-4
255,-120,-1992,104,-86,42,-2
260,-120,-1976,112,-86,43,0
265,-128,-2008,112,-86,44,1
270,-128,-2008,144,-87,45,4
275,-120,-2008,104,-85,48,5
280,-128,-2032,112,-86,51,5
285,-160,-2024,112,-90,56,7
290,-128,-2048,120,-95,60,7
295,-144,-2056,112,-97,65,9
300,-144,-2064,120,-97,69,11
305,-128,-2072,88,-96,75,12
310,-128,-2080,96,-91,81,12
315,-128,-2072,112,-86,87,13
320,-128,-2088,80,-76,91,15
325,-112,-2056,72,-67,95,17
330,-112,-2016,72,-57,97,19
335,-112,-2000,80,-54,101,21
340,-96,-1984,72,-54,104,26
345,-112,-1952,104,-55,110,29
350,-88,-1928,160,-59,114,34
355,-120,-1904,96,-66,118,39
360,-120,-1888,88,-74,122,46
365,-128,-1880,96,-83,125,50
370,-136,-1872,104,-94,127,54
375,-152,-1872,88,-101,126,60
380,-152,-1872,72,-106,123,66
385,-136,-1896,72,-110,121,70
390,-168,-1880,96,-112,117,74
395,-192,-1904,80,-111,115,76
400,-168,-1888,96,-108,112,79
405,-160,-1896,72,-105,111,79
410,-176,-1904,96,-98,114,79
415,-160,-1880,104,-98,119,75
420,-136,-1904,112,-105,130,69
425,-136,-1920,144,-110,143,64
430,-128,-1928,104,-114,155,59
435,-128,-1976,136,-116,169,52
440,-144,-1952,120,-119,178,44
445,-120,-1968,112,-125,181,40
450,-168,-1960,120,-131,181,34
455,-152,-1976,128,-141,173,30
460,-152,-1952,104,-150,162,24
465,-152,-1984,152,-159,150,21
470,-176,-1960,152,-169,142,20
475,-168,-1984,144,-185,138,17
480,-184,-1992,208,-198,137,12
485,-200,-1992,216,-203,137,11
490,-208,-2000,216,-206,141,11
495,-224,-2016,208,-199,147,11
500,-232,-2032,184,-193,151,15
505,-248,-2048,168,-179,152,18
510,-216,-2088,88,-159,147,20
515,-224,-2080,72,-135,138,23
520,-224,-2104,32,-106,123,23
525,-216,-2128,-16,-76,110,23
530,-208,-2160,16,-42,96,19
535,-208,-2128,-48,-7,87,14
540,-224,-2128,-72,20,86,8
545,-232,-2088,-96,39,94,-1
550,-192,-2120,-104,55,103,-11
555,-192,-2096,-64,77,107,-22
560,-192,-2080,-64,103,101,-35
565,-184,-2120,-168,127,91,-45
570,-192,-2040,-64,154,77,-56
575,-168,-2048,-24,191,63,-66
580,-168,-2040,-8,235,51,-76
585,-112,-1976,-16,282,43,-84
590,-112,-1912,-40,296,49,-100
595,-96,-1976,8,302,62,-112
600,-56,-1928,24,314,78,-128
605,-48,-1888,8,334,98,-144
610,8,-1904,16,349,125,-157
615,-16,-1952,24,370,148,-176
620,-8,-1888,0,397,173,-194
625,72,-1848,0,421,201,-211
630,176,-1824,16,436,233,-232
635,272,-1832,72,454,272,-262
640,336,-1824,88,483,317,-298
645,312,-1768,112,508,367,-324
650,336,-1744,120,517,414,-343
655,368,-1712,160,511,457,-353
660,360,-1640,168,485,493,-363
665,360,-1608,208,455,529,-370
670,384,-1624,296,428,563,-368
675,376,-1672,432,422,597,-357
680,336,-1664,408,412,622,-342
685,328,-1656,496,400,639,-324
690,248,-1680,552,379,650,-311
695,200,-1752,608,361,655,-292
700,152,-1776,640,353,660,-269
705,104,-1864,688,337,670,-251
710,80,-1920,664,311,693,-236
715,16,-2016,584,289,726,-224
720,-48,-2104,456,254,756,-215
725,-176,-2200,392,187,765,-203
730,-80,-2408,304,122,756,-188
735,-168,-2488,288,74,742,-199
740,-216,-2552,264,58,728,-210
745,-240,-2552,288,82,709,-227
750,-184,-2544,296,144,692,-258
755,-120,-2464,312,232,688,-303
760,-80,-2416,344,328,695,-350
765,-128,-2264,400,418,704,-392
770,-112,-2168,472,479,707,-413
775,-40,-2080,496,509,695,-430
780,-56,-2000,560,518,672,-448
785,-32,-1856,520,508,642,-455
790,-64,-1792,512,476,612,-445
795,-48,-1792,472,427,580,-432
800,-72,-1752,424,376,563,-407
805,16,-1720,384,326,551,-383
810,16,-1680,344,288,546,-373
815,0,-1624,328,250,542,-361
820,48,-1592,296,214,536,-351
825,80,-1544,296,175,532,-350
830,128,-1560,360,135,531,-352
835,128,-1504,336,90,535,-353
840,120,-1544,392,31,544,-354
845,192,-1616,416,-31,559,-354
850,152,-1624,408,-86,583,-362
855,240,-1704,456,-140,611,-371
860,184,-1752,496,-178,634,-382
865,200,-1784,504,-204,652,-394
870,232,-1856,528,-220,666,-407
875,232,-1896,504,-225,669,-417
880,232,-1928,488,-224,668,-423
885,240,-1952,528,-215,657,-428
890,216,-1960,480,-211,644,-432
895,232,-1976,440,-208,625,-436
900,192,-1984,440,-207,605,-440
905,144,-2000,360,-206,590,-440
910,184,-2072,320,-204,581,-439
915,184,-2096,264,-197,582,-435
920,176,-2168,184,-187,587,-427
925,184,-2184,184,-169,596,-414
930,200,-2152,136,-145,606,-400
935,160,-2112,112,-117,615,-390
940,152,-2032,136,-88,620,-378
945,144,-1968,136,-65,615,-366
950,168,-1928,104,-44,605,-357
955,176,-1856,104,-27,588,-348
960,200,-1792,104,-16,568,-341
965,232,-1704,120,-16,551,-334
970,216,-1648,176,-29,537,-324
975,240,-1624,184,-51,520,-315
980,192,-1600,176,-83,502,-305
985,184,-1584,200,-122,484,-287
990,160,-1632,224,-166,466,-268
995,64,-1592,240,-209,451,-250
1000,112,-1648,264,-255,432,-228
1005,104,-1648,296,-292,411,-209
1010,48,-1656,336,-322,390,-191
1015,16,-1664,368,-346,374,-175
1020,16,-1744,376,-369,355,-160
1025,-16,-1696,392,-388,335,-151
1030,-40,-1704,456,-403,315,-142
1035,-96,-1736,480,-420,297,-130
1040,-80,-1752,496,-433,271,-120
1045,-80,-1728,520,-437,245,-110
1050,-96,-1736,536,-435,220,-100
1055,-64,-1720,584,-434,198,-88
1060,-32,-1704,576,-435,174,-81
1065,-32,-1728,616,-444,152,-77
1070,-72,-1704,616,-454,131,-76
1075,-80,-1696,608,-471,109,-69
1080,-96,-1680,600,-497,80,-62
1085,-120,-1728,664,-525,49,-55
1090,-80,-1792,640,-547,14,-46
1095,-136,-1800,624,-555,-16,-36
1100,-136,-1856,648,-556,-49,-21
1105,-128,-1848,624,-557,-85,-6
1110,-144,-1848,656,-554,-118,10
1115,-120,-1872,672,-553,-151,22
1120,-96,-1904,672,-547,-179,29
1125,-112,-1904,664,-537,-206,33
1130,-88,-1952,664,-525,-236,41
1135,-112,-1960,680,-513,-271,52
1140,-64,-1984,696,-498,-310,62
1145,-72,-2000,680,-482,-345,74
1150,-32,-2040,624,-466,-375,83
1155,-24,-2048,592,-448,-396,88
1160,8,-2048,632,-429,-415,89
1165,8,-2088,568,-414,-430,86
1170,16,-2080,520,-404,-438,83
1175,72,-2104,472,-402,-440,75
1180,104,-2128,456,-407,-438,65
1185,168,-2200,392,-419,-427,52
1190,176,-2240,376,-431,-409,35
1195,224,-2288,360,-447,-391,10
1200,240,-2360,336,-461,-370,-22
1205,288,-2432,344,-479,-354,-57
1210,328,-2520,472,-499,-344,-94
1215,256,-2552,464,-506,-339,-127
1220,272,-2584,528,-503,-349,-151
1225,280,-2640,608,-483,-366,-165
1230,184,-2648,632,-441,-394,-176
1235,152,-2664,648,-374,-426,-174
1240,72,-2704,632,-272,-456,-157
1245,24,-2664,600,-155,-484,-129
1250,16,-2600,544,-28,-502,-92
1255,96,-2528,440,95,-504,-46
1260,120,-2416,312,199,-484,7
1265,192,-2344,104,273,-451,54
1270,248,-2208,-16,292,-400,105
1275,256,-2096,-128,255,-350,150
1280,272,-2016,-240,168,-312,185
1285,240,-2040,-272,57,-295,218
1290,192,-2008,-288,-56,-299,253
1295,232,-2064,-336,-153,-320,289
1300,256,-2080,-344,-225,-343,316
1305,192,-2104,-384,-282,-367,338
1310,112,-2144,-408,-331,-400,363
1315,48,-2192,-416,-370,-439,391
1320,32,-2176,-424,-394,-485,415
1325,-32,-2200,-392,-407,-530,437
1330,-120,-2192,-392,-404,-570,449
1335,-144,-2232,-392,-382,-602,453
1340,-248,-2208,-376,-342,-623,449
1345,-288,-2224,-384,-292,-632,443
1350,-320,-2248,-336,-239,-638,429
1355,-360,-2240,-320,-186,-642,408
1360,-352,-2296,-336,-139,-640,396
1365,-400,-2224,-296,-93,-637,383
1370,-400,-2224,-312,-55,-625,376
1375,-400,-2224,-296,-28,-600,368
1380,-392,-2232,-272,-5,-568,361
1385,-304,-2240,-248,6,-525,356
1390,-208,-2200,-216,10,-481,345
1395,-200,-2144,-184,12,-429,331
1400,-192,-2136,-160,8,-373,323
1405,-184,-2104,-112,-3,-319,320
1410,-176,-2104,-80,-23,-274,322
1415,-272,-2048,-104,-54,-244,335
1420,-176,-2024,-128,-100,-230,360
1425,-128,-2008,-104,-149,-229,379
1430,-104,-1976,-104,-197,-228,398
1435,-104,-1928,-96,-233,-229,422
1440,-120,-1952,-120,-256,-234,451
1445,-88,-1928,-152,-268,-243,488
1450,-80,-1912,-144,-278,-253,530
1455,-88,-1880,-208,-281,-263,574
1460,-128,-1872,-216,-283,-270,621
1465,-40,-1856,-240,-277,-279,665
1470,-8,-1800,-312,-267,-293,701
1475,-8,-1728,-312,-264,-298,726
1480,64,-1704,-296,-270,-296,744
1485,24,-1648,-280,-268,-297,731
1490,16,-1648,-248,-257,-296,728
1495,72,-1632,-256,-235,-288,723
1500,16,-1600,-224,-213,-274,712
1505,56,-1592,-208,-209,-265,698
1510,-24,-1560,-216,-211,-255,672
1515,-24,-1536,-160,-215,-239,642
1520,-32,-1544,-128,-212,-222,617
1525,8,-1584,-136,-214,-199,589
1530,-48,-1552,-128,-215,-168,554
1535,-88,-1576,-152,-216,-131,521
1540,-120,-1576,-136,-210,-88,488
1545,-128,-1648,-152,-202,-50,454
1550,-160,-1624,-96,-197,-8,421
1555,-136,-1664,-112,-191,35,397
1560,-184,-1664,-32,-188,83,370
1565,-208,-1696,-56,-189,130,348
1570,-216,-1704,-48,-190,174,323
1575,-272,-1720,-8,-193,219,301
1580,-264,-1720,48,-198,265,281
1585,-264,-1784,40,-207,306,261
1590,-288,-1768,64,-214,340,242
1595,-304,-1800,72,-221,364,224
1600,-256,-1808,80,-221,386,208
1605,-272,-1832,144,-216,404,193
1610,-264,-1840,160,-202,418,178
1615,-280,-1840,208,-180,429,161
1620,-256,-1864,208,-152,435,142
1625,-280,-1848,224,-119,440,123
1630,-288,-1816,240,-84,440,102
1635,-288,-1808,264,-50,443,80
1640,-296,-1776,256,-16,445,57
1645,-320,-1768,264,17,446,38
1650,-336,-1776,296,45,449,19
1655,-296,-1784,312,71,451,1
1660,-320,-1784,320,91,456,-19
1665,-296,-1816,328,103,466,-40
1670,-304,-1840,328,114,483,-63
1675,-264,-1864,336,121,505,-86
1680,-264,-1920,416,127,526,-114
1685,-232,-1968,432,136,546,-142
1690,-208,-2000,472,148,562,-168
1695,-176,-2064,472,165,573,-196
1700,-200,-2088,472,184,574,-220
1705,-192,-2104,488,206,562,-241
1710,-216,-2144,496,231,538,-255
1715,-280,-2152,488,258,500,-264
1720,-320,-2168,488,288,450,-266
1725,-360,-2160,464,319,394,-261
1730,-408,-2176,456,349,336,-248
1735,-488,-2184,504,379,286,-228
1740,-520,-2160,512,410,241,-193
1745,-600,-2168,520,433,208,-154
1750,-632,-2160,536,459,188,-114
1755,-704,-2184,568,486,176,-72
1760,-768,-2112,608,511,169,-25
1765,-768,-2152,624,532,163,25
1770,-784,-2112,632,552,163,65
1775,-776,-2080,704,569,165,105
1780,-728,-2080,712,587,162,135
1785,-720,-2040,736,611,161,160
1790,-680,-2040,688,636,160,177
1795,-624,-2048,608,658,149,186
1800,-544,-2128,528,680,131,190
1805,-456,-2184,400,682,115,192
1810,-384,-2240,232,658,108,190
1815,-328,-2344,72,620,113,182
1820,-320,-2432,-32,570,134,167
1825,-328,-2504,-168,515,143,148
1830,-440,-2608,-240,460,143,134
1835,-456,-2720,-248,402,131,136
1840,-480,-2832,-288,342,117,141
1845,-512,-2936,-256,286,99,149
1850,-600,-2920,-184,257,73,170
1855,-600,-2912,-136,274,40,208
1860,-568,-2880,-112,323,7,259
1865,-576,-2816,-96,394,-21,309
1870,-528,-2768,-96,478,-37,360
1875,-440,-2688,-152,567,-38,399
1880,-360,-2616,-192,657,-26,420
1885,-304,-2496,-280,734,-5,422
1890,-152,-2384,-392,800,18,408
1895,-32,-2232,-448,823,47,373
1900,112,-2096,-488,816,92,317
1905,168,-1976,-512,787,144,249
1910,208,-1816,-496,755,199,186
1915,264,-1720,-512,718,253,134
1920,296,-1632,-448,674,304,92
1925,320,-1552,-464,633,352,54
1930,360,-1488,-432,579,396,16
1935,376,-1512,-432,506,440,-20
1940,336,-1560,-360,419,485,-60
1945,320,-1600,-296,327,525,-104
1950,304,-1640,-320,228,550,-140
1955,248,-1760,-224,119,559,-177
1960,176,-1832,-168,18,537,-214
1965,104,-1944,-152,-72,491,-242
1970,40,-2024,-32,-144,427,-263
1975,-72,-2080,-24,-202,350,-286
1980,-120,-2128,0,-248,263,-305
1985,-208,-2200,-32,-290,178,-327
1990,-288,-2256,32,-329,101,-351
1995,-368,-2296,32,-354,31,-378
2000,-464,-2312,40,-357,-28,-400
2005,-496,-2344,32,-339,-74,-417
2010,-552,-2328,40,-303,-110,-428
2015,-584,-2320,40,-249,-137,-435
2020,-616,-2280,88,-184,-155,-433
2025,-616,-2224,40,-109,-167,-422
2030,-624,-2152,56,-28,-169,-409
2035,-600,-2120,24,56,-164,-393
2040,-624,-2008,0,128,-152,-379
2045,-544,-1976,0,176,-141,-359
2050,-552,-1896,-48,205,-134,-349
2055,-496,-1784,-80,209,-133,-329
2060,-480,-1656,-72,192,-140,-317
2065,-416,-1600,-72,159,-148,-296
2070,-336,-1488,-64,120,-163,-279
2075,-280,-1432,-56,75,-182,-266
2080,-216,-1376,-96,23,-206,-256
2085,-168,-1304,-56,-30,-232,-247
2090,-128,-1280,-56,-85,-259,-237
2095,-112,-1272,-48,-133,-287,-226
2100,-32,-1304,16,-172,-311,-215
2105,-32,-1312,16,-199,-335,-207
2110,24,-1328,40,-215,-354,-199
2115,56,-1344,64,-226,-369,-195
2120,72,-1368,56,-242,-389,-198
2125,72,-1424,32,-260,-405,-197
2130,88,-1464,56,-275,-415,-196
2135,104,-1488,64,-288,-420,-195
2140,120,-1552,72,-300,-425,-192
2145,136,-1608,72,-308,-429,-188
2150,152,-1632,88,-321,-431,-186
2155,176,-1680,120,-335,-434,-186
2160,152,-1736,128,-348,-438,-185
2165,144,-1752,224,-355,-444,-179
2170,136,-1768,192,-361,-454,-175
2175,136,-1824,256,-371,-468,-168
2180,112,-1856,296,-373,-481,-158
2185,48,-1856,344,-370,-498,-147
2190,64,-1888,432,-354,-512,-127
2195,16,-1880,456,-325,-527,-106
2200,-24,-1896,504,-291,-545,-78
2205,-64,-1896,528,-248,-565,-47
2210,-112,-1880,552,-206,-584,-13
2215,-120,-1864,584,-167,-607,26
2220,-136,-1848,592,-122,-629,70
2225,-144,-1848,584,-78,-653,115
2230,-200,-1800,560,-36,-674,157
2235,-256,-1776,560,-1,-697,200
2240,-272,-1776,520,25,-716,245
2245,-296,-1720,496,44,-735,288
2250,-288,-1712,472,51,-751,329
2255,-304,-1728,448,56,-761,366
2260,-328,-1728,424,55,-764,401
2265,-336,-1720,392,57,-762,430
2270,-288,-1720,360,57,-751,452
2275,-248,-1752,312,54,-727,466
2280,-232,-1768,280,45,-690,463
2285,-192,-1800,248,31,-642,450
2290,-136,-1832,224,10,-587,424
2295,-80,-1888,224,-12,-532,388
2300,-8,-1920,288,-35,-479,343
2305,40,-1976,336,-59,-433,288
2310,128,-2048,416,-80,-397,224
2315,208,-2096,520,-95,-367,152
2320,296,-2208,608,-99,-348,79
2325,344,-2224,712,-92,-337,3
2330,400,-2248,792,-77,-329,-72
2335,432,-2240,856,-60,-322,-142
2340,496,-2208,912,-42,-310,-205
2345,456,-2160,952,-20,-302,-259
2350,456,-2168,984,8,-298,-296
2355,464,-2088,992,44,-299,-321
2360,424,-2000,976,80,-307,-337
2365,432,-1992,976,97,-320,-350
2370,304,-1984,952,110,-330,-354
2375,320,-2040,888,134,-340,-339
2380,200,-2064,768,151,-349,-330
2385,40,-2104,656,133,-363,-329
2390,-96,-2184,512,67,-378,-346
2395,-120,-2296,312,-50,-394,-359
2400,-128,-2456,232,-192,-392,-363
2405,-152,-2696,112,-310,-364,-348
2410,-232,-2960,64,-391,-313,-341
2415,-200,-3144,64,-419,-253,-340
2420,-112,-3256,40,-395,-187,-347
2425,-32,-3304,-16,-331,-117,-368
2430,8,-3272,-72,-243,-53,-392
2435,48,-3240,-152,-158,-10,-423
2440,112,-3160,-280,-89,7,-440
2445,120,-3048,-448,-50,-4,-446
2450,104,-2984,-512,-27,-38,-434
2455,152,-2928,-600,7,-88,-399
2460,88,-2784,-648,60,-151,-359
2465,32,-2680,-672,129,-227,-319
2470,-32,-2520,-632,201,-310,-284
2475,-64,-2344,-664,268,-391,-249
2480,-144,-2144,-600,323,-458,-211
2485,-160,-1984,-600,361,-513,-172
2490,-224,-1752,-520,383,-555,-132
2495,-208,-1640,-504,390,-577,-94
2500,-296,-1544,-504,373,-582,-57
2505,-352,-1472,-488,335,-573,-24
2510,-400,-1416,-464,279,-555,8
2515,-464,-1416,-360,211,-531,40
2520,-472,-1400,-320,129,-504,73
2525,-480,-1456,-224,49,-480,109
2530,-512,-1488,-168,-16,-454,146
2535,-480,-1568,-120,-73,-429,180
2540,-456,-1632,-64,-124,-399,214
2545,-416,-1720,-72,-174,-359,247
2550,-384,-1808,-16,-211,-308,280
2555,-328,-1872,-40,-232,-247,306
2560,-312,-1920,-24,-235,-182,332
2565,-248,-1968,-24,-241,-118,359
2570,-176,-2000,-56,-254,-60,381
2575,-112,-2024,-16,-265,-5,406
2580,-64,-2144,-16,-275,48,429
2585,8,-2184,-8,-270,91,449
2590,32,-2176,8,-258,126,464
2595,96,-2208,32,-239,153,475
2600,160,-2224,24,-209,173,483
2605,208,-2240,0,-173,188,475
2610,232,-2192,-24,-135,196,469
2615,216,-2136,0,-93,197,456
2620,232,-2072,-64,-54,193,442
2625,264,-1992,-24,-20,188,426
2630,232,-1904,-32,11,185,407
2635,232,-1800,-72,22,181,390
2640,216,-1752,-48,20,177,374
2645,168,-1624,-64,9,175,353
2650,120,-1560,-40,-6,173,332
2655,72,-1504,-32,-30,174,315
2660,0,-1488,-8,-59,179,302
2665,-16,-1472,16,-84,187,286
2670,-104,-1432,-16,-106,197,266
2675,-120,-1456,48,-128,212,253
2680,-192,-1432,72,-142,229,240
2685,-232,-1424,64,-149,248,226
2690,-280,-1472,120,-149,268,211
2695,-360,-1448,64,-143,294,197
2700,-392,-1472,128,-144,324,186
2705,-400,-1520,128,-151,351,176
2710,-456,-1528,144,-155,378,160
2715,-480,-1592,224,-158,405,148
2720,-528,-1608,248,-161,428,132
2725,-528,-1656,312,-160,452,124
2730,-512,-1720,320,-159,469,119
2735,-536,-1760,336,-152,479,113
2740,-536,-1776,376,-139,483,111
2745,-536,-1800,408,-122,483,112
2750,-528,-1840,448,-100,479,118
2755,-472,-1896,472,-77,472,125
2760,-448,-1872,496,-46,462,134
2765,-416,-1824,480,-9,449,138
2770,-360,-1864,488,27,438,141
2775,-248,-1848,504,60,428,138
2780,-200,-1856,456,90,416,121
2785,-128,-1808,448,114,410,94
2790,-96,-1768,432,124,402,69
2795,-24,-1752,384,124,393,37
2800,-24,-1712,368,113,391,-2
2805,-16,-1640,400,96,393,-49
2810,0,-1616,368,79,399,-95
2815,-16,-1600,392,63,407,-143
2820,-56,-1608,424,47,413,-187
2825,-96,-1584,416,31,414,-228
2830,-128,-1616,472,16,404,-263
2835,-248,-1656,448,4,381,-287
2840,-248,-1656,408,-11,353,-299
2845,-280,-1720,424,-28,322,-302
2850,-328,-1776,368,-51,300,-298
2855,-360,-1840,384,-80,283,-284
2860,-408,-1904,408,-113,271,-260
2865,-464,-1952,424,-147,268,-230
2870,-480,-1992,472,-167,272,-190
2875,-488,-2048,536,-172,280,-147
2880,-520,-2080,568,-167,291,-101
2885,-496,-2128,576,-141,305,-55
2890,-472,-2144,648,-109,316,-7
2895,-432,-2208,664,-69,322,39
2900,-400,-2208,680,-22,318,84
2905,-328,-2232,736,24,308,120
2910,-248,-2216,736,72,295,147
2915,-176,-2216,784,121,289,162
2920,-144,-2192,792,172,288,165
2925,-88,-2144,800,216,293,160
2930,-64,-2096,792,256,304,148
2935,8,-2056,872,280,318,130
2940,8,-1992,808,304,338,98
2945,64,-1896,840,321,361,69
2950,-104,-2144,280,321,386,43
2955,336,-2296,-960,-300,269,109
2960,-800,-1664,736,-1299,572,-136
2965,-320,-1240,1000,-1374,575,17
2970,256,-1872,2064,-1170,154,159
2975,160,-2616,1288,-525,26,82
2980,-88,-2568,464,-31,289,-38
2985,-272,-2640,152,88,593,-128
2990,-440,-2808,368,20,811,-150
2995,-416,-3120,456,38,843,-137
3000,-504,-3280,224,187,749,-135
3005,-760,-3352,-56,358,615,-122
3010,-952,-3296,-440,458,462,-69
3015,-968,-3144,-728,456,313,15
3020,-888,-3008,-816,390,209,103
3025,-856,-2856,-832,325,157,181
3030,-768,-2704,-808,293,141,243
3035,-696,-2568,-808,299,150,281
3040,-608,-2472,-840,325,183,304
3045,-544,-2304,-816,354,232,308
3050,-400,-2136,-784,377,278,304
3055,-384,-1976,-832,391,314,300
3060,-232,-1904,-800,389,346,304
3065,-128,-1752,-784,376,374,310
3070,-32,-1688,-664,353,402,300
3075,104,-1632,-624,326,430,284
3080,176,-1568,-520,291,463,263
3085,256,-1544,-464,245,497,230
3090,288,-1592,-312,185,526,188
3095,360,-1648,-216,118,542,136
3100,328,-1696,-96,56,536,77
3105,264,-1688,-32,8,518,24
3110,248,-1784,88,-38,488,-20
3115,208,-1848,136,-75,442,-65
3120,120,-1936,144,-105,383,-113
3125,64,-2008,160,-131,314,-161
3130,-32,-2072,80,-154,242,-208
3135,-120,-2080,40,-191,174,-255
3140,-160,-2160,40,-240,112,-299
3145,-208,-2216,-8,-290,61,-343
3150,-312,-2200,-24,-341,19,-384
3155,-456,-2120,-104,-403,-17,-415
3160,-608,-2184,-72,-481,-50,-428
3165,-600,-2136,-88,-555,-82,-439
3170,-624,-2184,-56,-602,-110,-447
3175,-632,-2168,-24,-608,-129,-448
3180,-664,-2192,-16,-574,-138,-441
3185,-664,-2152,48,-504,-144,-425
3190,-656,-2072,72,-418,-152,-396
3195,-648,-2040,96,-327,-169,-365
3200,-552,-1944,72,-246,-188,-339
3205,-520,-1872,80,-179,-197,-317
3210,-464,-1752,112,-121,-196,-290
3215,-368,-1696,72,-67,-189,-263
3220,-408,-1536,16,-22,-181,-242
3225,-280,-1552,0,-18,-186,-212
3230,-248,-1512,24,-23,-190,-202
3235,-136,-1480,56,-17,-198,-197
3240,-72,-1448,48,-1,-211,-201
3245,-32,-1432,72,7,-229,-206
3250,56,-1432,72,8,-252,-210
3255,96,-1440,64,-3,-282,-215
3260,160,-1392,64,-24,-319,-216
3265,168,-1344,80,-43,-355,-216
3270,216,-1456,112,-66,-398,-209
3275,240,-1464,112,-95,-435,-200
3280,232,-1480,120,-124,-471,-191
3285,200,-1520,72,-157,-505,-181
3290,208,-1552,112,-194,-535,-169
3295,224,-1576,112,-234,-564,-159
3300,192,-1632,128,-269,-589,-150
3305,176,-1664,120,-305,-610,-140
3310,136,-1688,136,-335,-628,-131
3315,112,-1752,136,-364,-642,-120
3320,48,-1760,176,-386,-654,-109
3325,32,-1792,192,-399,-667,-96
3330,8,-1784,184,-413,-676,-83
3335,8,-1800,248,-419,-672,-66
3340,-72,-1784,256,-413,-666,-52
3345,-56,-1808,304,-397,-655,-29
3350,-104,-1808,320,-371,-645,-3
3355,-120,-1760,360,-331,-634,27
3360,-88,-1784,408,-280,-622,60
3365,-112,-1736,432,-221,-614,94
3370,-128,-1736,448,-160,-611,130
3375,-168,-1744,384,-101,-611,166
3380,-136,-1728,480,-43,-614,202
3385,-160,-1736,488,9,-617,235
3390,-128,-1736,464,54,-618,266
3395,-128,-1720,440,88,-616,294
3400,-96,-1744,384,102,-607,320
3405,-96,-1728,320,100,-592,338
3410,-48,-1752,344,74,-570,348
3415,-8,-1784,304,39,-535,352
3420,0,-1816,264,8,-490,345
3425,48,-1808,160,-37,-443,330
3430,72,-1848,104,-107,-397,306
3435,96,-1888,120,-196,-356,273
3440,96,-1992,184,-268,-318,235
3445,120,-2088,264,-312,-284,190
3450,112,-2184,376,-328,-257,140
3455,168,-2296,456,-308,-241,81
3460,168,-2384,592,-256,-232,15
3465,208,-2424,744,-174,-226,-48
3470,208,-2464,832,-72,-221,-106
3475,208,-2424,936,44,-219,-168
3480,256,-2416,944,157,-225,-229
3485,272,-2336,944,238,-218,-275
3490,200,-2280,912,280,-201,-310
3495,200,-2232,968,314,-187,-339
3500,112,-2152,952,354,-187,-359
3505,24,-2064,912,399,-201,-363
3510,48,-1992,904,432,-219,-343
3515,96,-1928,808,440,-236,-314
3520,56,-1880,688,417,-245,-292
3525,-32,-1912,616,356,-242,-286
3530,-88,-1960,536,266,-233,-293
3535,-152,-2016,432,157,-223,-311
3540,-184,-2152,304,29,-213,-323
3545,-248,-2328,192,-119,-208,-329
3550,-264,-2504,96,-267,-203,-319
3555,-264,-2752,8,-398,-199,-309
3560,-264,-2936,-32,-482,-191,-296
3565,-144,-3104,-80,-494,-171,-282
3570,-80,-3192,-144,-434,-140,-278
3575,-8,-3256,-208,-321,-102,-281
3580,96,-3208,-296,-186,-64,-284
3585,152,-3128,-392,-69,-31,-290
3590,240,-2960,-552,-6,-8,-300
3595,280,-2936,-584,11,-2,-310
3600,312,-2824,-616,7,-13,-316
3605,296,-2720,-584,12,-47,-313
3610,256,-2592,-584,43,-100,-298
3615,184,-2480,-592,96,-171,-281
3620,128,-2312,-536,160,-250,-259
3625,16,-2144,-528,232,-329,-239
3630,-8,-2000,-512,300,-396,-220
3635,-72,-1784,-528,353,-447,-197
3640,-128,-1648,-512,374,-481,-173
3645,-208,-1528,-520,368,-491,-148
3650,-264,-1456,-504,333,-482,-123
3655,-376,-1424,-464,276,-460,-102
3660,-392,-1424,-408,203,-433,-84
3665,-432,-1448,-368,121,-407,-71
3670,-424,-1488,-280,41,-378,-62
3675,-448,-1560,-264,-32,-346,-53
3680,-416,-1616,-192,-94,-314,-40
3685,-424,-1720,-112,-149,-281,-21
3690,-384,-1816,-80,-197,-241,0
3695,-320,-1912,-40,-236,-195,24
3700,-280,-1992,0,-268,-143,54
3705,-272,-2048,-40,-296,-79,89
3710,-184,-2128,-64,-317,-11,130
3715,-168,-2208,-64,-332,60,172
3720,-112,-2288,-16,-336,131,216
3725,-40,-2376,-32,-326,195,261
3730,0,-2440,8,-300,254,300
3735,32,-2464,32,-263,304,332
3740,104,-2488,40,-223,335,358
3745,176,-2472,56,-179,349,375
3750,224,-2432,72,-134,351,381
3755,248,-2360,24,-93,345,378
3760,264,-2288,64,-60,330,369
3765,272,-2184,48,-30,310,357
3770,264,-2096,-40,-7,298,346
3775,248,-2016,-72,6,288,333
3780,224,-1912,-96,11,285,322
3785,192,-1808,-80,5,289,312
3790,168,-1744,-120,-9,297,302
3795,112,-1656,-136,-30,312,292
3800,96,-1592,-136,-59,329,281
3805,136,-1504,-80,-93,349,273
3810,24,-1480,-104,-129,370,264
3815,-24,-1448,-80,-164,390,254
3820,-48,-1400,-72,-195,413,246
3825,-72,-1384,-80,-220,436,240
3830,-104,-1384,-32,-242,462,232
3835,-128,-1360,-88,-257,494,224
3840,-152,-1368,-40,-268,527,220
3845,-200,-1368,-40,-276,559,214
3850,-240,-1408,-32,-281,592,209
3855,-224,-1432,-24,-288,624,203
3860,-248,-1464,-40,-296,658,196
3865,-256,-1512,24,-301,690,190
3870,-288,-1552,48,-301,722,181
3875,-264,-1592,64,-299,755,172
3880,-264,-1656,96,-292,789,162
3885,-296,-1672,144,-282,821,151
3890,-304,-1712,200,-271,847,142
3895,-248,-1752,240,-253,870,132
3900,-232,-1776,264,-230,887,116
3905,-200,-1784,296,-205,905,94
3910,-184,-1808,328,-172,920,69
3915,-168,-1776,400,-135,933,41
3920,-72,-1816,360,-96,942,6
3925,-32,-1792,344,-61,952,-34
3930,16,-1800,376,-27,963,-80
3935,72,-1816,344,4,971,-126
3940,88,-1800,336,28,977,-173
3945,72,-1808,360,47,978,-217
3950,96,-1808,336,62,975,-261
3955,48,-1816,328,71,962,-299
3960,-8,-1784,336,76,939,-331
3965,-32,-1792,312,82,909,-361
3970,-96,-1808,280,84,876,-383
3975,-120,-1848,248,86,844,-397
3980,-144,-1856,240,81,813,-403
3985,-224,-1856,192,64,780,-400
3990,-272,-1904,184,42,744,-389
3995,-328,-1928,136,18,707,-372
4000,-368,-1960,152,-5,673,-350
4005,-440,-1944,216,-23,641,-322
4010,-472,-1984,272,-27,614,-290
4015,-544,-1976,336,-17,587,-256
4020,-600,-2024,408,-6,562,-218
4025,-616,-2040,488,21,533,-175
4030,-632,-2072,520,57,501,-130
4035,-632,-2112,584,103,467,-86
4040,-640,-2152,600,158,432,-42
4045,-656,-2144,600,203,400,0
4050,-640,-2160,664,242,370,43
4055,-640,-2152,632,275,342,80
4060,-584,-2104,648,301,324,112
4065,-544,-2072,640,321,319,135
4070,-440,-2048,600,335,320,149
4075,-360,-2040,584,342,330,149
4080,-328,-2032,536,333,352,140
4085,-216,-2072,496,310,377,132
4090,-168,-2112,384,274,405,126
4095,-48,-2216,272,223,434,125
4100,-40,-2312,160,149,462,115
4105,-32,-2440,80,61,484,107
4110,-72,-2552,64,-26,499,95
4115,-120,-2720,40,-98,515,88
4120,-152,-2880,64,-149,529,84
4125,-208,-3032,152,-179,535,90
4130,-272,-3056,232,-183,519,104
4135,-328,-3144,240,-144,477,126
4140,-368,-3112,264,-62,416,167
4145,-392,-3048,256,43,355,219
4150,-416,-2984,208,162,302,271
4155,-376,-2944,136,282,260,311
4160,-360,-2808,-16,396,230,338
4165,-328,-2728,-184,488,205,359
4170,-320,-2584,-296,553,194,368
4175,-280,-2456,-416,597,192,364
4180,-256,-2336,-544,618,210,351
4185,-216,-2160,-624,612,250,328
4190,-128,-2032,-672,572,309,296
4195,-112,-1920,-680,507,376,261
4200,-32,-1800,-696,440,447,230
4205,96,-1704,-632,389,520,207
4210,152,-1600,-576,358,598,182
4215,224,-1504,-552,342,675,158
4220,280,-1440,-504,329,749,130
4225,328,-1400,-480,301,812,95
4230,360,-1344,-432,252,861,59
4235,384,-1392,-312,187,895,22
4240,384,-1456,-256,120,910,-14
4245,376,-1520,-200,51,910,-43
4250,312,-1648,-144,-15,883,-69
4255,264,-1784,-80,-74,824,-90
4260,192,-1896,-72,-119,748,-106
4265,136,-1992,-56,-158,661,-126
4270,48,-2072,16,-198,572,-145
4275,-40,-2184,16,-236,487,-165
4280,-120,-2264,80,-261,406,-191
4285,-240,-2344,80,-277,332,-214
4290,-368,-2376,120,-276,256,-238
4295,-472,-2456,104,-255,188,-261
4300,-536,-2512,144,-215,132,-283
4305,-608,-2472,144,-157,82,-297
4310,-648,-2448,104,-84,40,-304
4315,-656,-2408,128,-3,8,-306
4320,-664,-2344,80,83,-19,-307
4325,-648,-2296,80,165,-37,-301
4330,-648,-2168,16,230,-45,-297
4335,-624,-2104,0,267,-46,-296
4340,-576,-1976,-64,268,-41,-294
4345,-512,-1904,-96,248,-32,-293
4350,-488,-1760,-120,212,-19,-293
4355,-440,-1664,-160,170,-10,-291
4360,-336,-1608,-128,122,-13,-290
4365,-328,-1512,-112,74,-18,-293
4370,-264,-1480,-112,35,-31,-291
4375,-200,-1408,-64,-2,-50,-288
4380,-136,-1352,-48,-36,-77,-287
4385,-104,-1376,-40,-65,-104,-283
4390,-80,-1336,-16,-88,-130,-279
4395,-24,-1336,40,-109,-160,-272
4400,-8,-1360,48,-121,-192,-266
4405,8,-1368,72,-127,-227,-259
4410,24,-1416,88,-133,-260,-251
4415,40,-1448,104,-136,-292,-240
4420,24,-1472,128,-137,-326,-227
4425,24,-1488,160,-139,-357,-212
4430,40,-1568,136,-140,-385,-197
4435,40,-1656,200,-136,-411,-182
4440,56,-1680,232,-133,-433,-168
4445,48,-1672,216,-130,-449,-155
4450,0,-1736,224,-133,-464,-144
4455,32,-1736,240,-140,-479,-134
4460,56,-1776,280,-152,-490,-123
4465,24,-1816,280,-162,-501,-114
4470,40,-1856,288,-173,-511,-106
4475,16,-1832,360,-182,-520,-94
4480,48,-1872,376,-187,-528,-83
4485,48,-1872,408,-187,-535,-69
4490,24,-1872,416,-178,-541,-54
4495,48,-1848,456,-162,-547,-37
4500,8,-1808,480,-139,-555,-17
4505,32,-1784,600,-113,-565,9
4510,8,-1760,560,-84,-574,40
4515,0,-1720,600,-53,-583,73
4520,-48,-1720,592,-18,-590,111
4525,-64,-1720,568,13,-595,153
4530,-80,-1688,544,43,-598,196
4535,-88,-1672,472,59,-594,241
4540,-96,-1672,472,62,-585,287
4545,-104,-1608,440,52,-573,328
4550,-112,-1608,376,31,-557,371
4555,-128,-1624,400,7,-546,413
4560,-104,-1624,352,-17,-538,449
4565,-112,-1680,400,-31,-531,477
4570,-88,-1720,376,-41,-523,493
4575,-64,-1760,336,-47,-509,499
4580,-40,-1792,320,-57,-482,494
4585,-16,-1864,328,-65,-441,475
4590,-32,-1872,304,-74,-388,443
4595,16,-1896,312,-88,-327,399
4600,48,-1936,384,-105,-263,344
4605,80,-2032,432,-121,-203,276
4610,144,-2088,520,-132,-154,199
4615,200,-2120,632,-129,-118,113
4620,272,-2192,656,-116,-92,22
4625,352,-2208,720,-94,-72,-67
4630,360,-2240,760,-65,-58,-154
4635,368,-2216,848,-40,-58,-231
4640,392,-2248,880,-11,-62,-298
4645,368,-2224,952,30,-68,-352
4650,352,-2240,880,88,-84,-386
4655,328,-2256,808,155,-106,-411
4660,288,-2280,672,204,-129,-434
4665,152,-2328,576,215,-137,-470
4670,0,-2384,432,175,-128,-518
4675,-200,-2448,432,87,-120,-567
4680,-264,-2536,384,-32,-125,-601
4685,-224,-2704,296,-153,-127,-608
4690,-216,-2864,280,-244,-116,-596
4695,-256,-3016,256,-298,-88,-587
4700,-304,-3144,232,-318,-60,-576
4705,-224,-3240,200,-298,-35,-554
4710,-216,-3280,168,-233,-16,-528
4715,-184,-3280,128,-135,-6,-506
4720,-136,-3144,64,-19,-18,-478
4725,-56,-3088,-16,92,-51,-436
4730,-16,-2984,-120,179,-80,-391
4735,-16,-2832,-264,239,-105,-343
4740,-16,-2656,-336,284,-132,-299
4745,-24,-2520,-392,315,-175,-253
4750,-96,-2336,-440,339,-248,-218
4755,-192,-2128,-448,357,-343,-183
4760,-240,-1976,-488,367,-452,-135
4765,-232,-1792,-520,372,-562,-93
4770,-272,-1600,-560,363,-648,-55
4775,-256,-1512,-536,337,-695,-21
4780,-224,-1400,-576,303,-698,7
4785,-288,-1304,-560,256,-675,26
4790,-304,-1272,-560,185,-638,41
4795,-336,-1296,-472,96,-600,50
4800,-320,-1360,-448,3,-562,52
4805,-336,-1440,-376,-93,-526,51
4810,-328,-1528,-264,-181,-492,45
4815,-304,-1600,-136,-258,-462,41
4820,-312,-1736,-88,-318,-433,38
4825,-264,-1848,-56,-360,-401,37
4830,-216,-1976,-40,-387,-361,37
4835,-208,-2040,0,-403,-315,43
4840,-176,-2128,24,-410,-261,51
4845,-128,-2216,0,-411,-201,65
4850,-80,-2280,8,-410,-140,83
4855,-16,-2304,40,-407,-78,108
4860,48,-2360,64,-398,-19,138
4865,88,-2384,96,-374,39,170
4870,144,-2400,152,-342,89,201
4875,160,-2416,160,-301,126,234
4880,184,-2440,200,-254,152,267
4885,168,-2416,184,-201,167,298
4890,200,-2368,176,-149,170,326
4895,200,-2304,176,-98,168,351
4900,208,-2208,120,-50,159,376
4905,168,-2128,96,-13,147,396
4910,192,-2024,64,6,132,414
4915,168,-1936,0,10,121,428
4920,120,-1816,-40,1,114,440
4925,104,-1720,-72,-15,111,451
4930,88,-1640,-64,-38,105,458
4935,48,-1528,-64,-69,108,460
4940,32,-1488,-104,-106,110,455
4945,-40,-1416,-128,-147,117,447
4950,-40,-1376,-136,-186,129,438
4955,-88,-1352,-120,-222,140,427
4960,-128,-1320,-112,-252,155,408
4965,-168,-1288,-72,-276,173,387
4970,-184,-1304,-56,-293,196,362
4975,-208,-1360,-40,-307,222,333
4980,-264,-1344,-16,-317,252,303
4985,-296,-1392,24,-325,275,275
4990,-296,-1456,80,-327,295,246
4995,-288,-1504,96,-310,318,218
5000,-320,-1488,80,-300,351,188
5005,-344,-1504,136,-310,380,162
5010,-328,-1592,128,-323,401,139
5015,-344,-1640,184,-328,420,113
5020,-344,-1688,208,-324,445,95
5025,-336,-1720,240,-315,473,83
5030,-296,-1760,264,-311,497,77
5035,-312,-1792,328,-302,515,71
5040,-304,-1840,360,-289,528,66
5045,-272,-1848,360,-271,538,55
5050,-256,-1888,392,-254,543,44
5055,-248,-1880,408,-235,547,28
5060,-200,-1872,416,-212,550,10
5065,-192,-1872,432,-187,551,-11
5070,-128,-1888,464,-161,548,-34
5075,-128,-1888,440,-136,542,-64
5080,-120,-1832,440,-115,538,-99
5085,-120,-1800,456,-94,536,-137
5090,-112,-1776,456,-72,538,-177
5095,-96,-1800,432,-49,541,-217
5100,-88,-1800,392,-29,544,-254
5105,-88,-1800,328,-13,541,-288
5110,-120,-1776,328,-3,531,-319
5115,-128,-1776,328,4,513,-344
5120,-144,-1800,280,2,484,-361
5125,-168,-1856,208,-10,446,-372
5130,-224,-1832,160,-26,405,-374
5135,-264,-1864,184,-48,362,-370
5140,-320,-1904,184,-66,322,-357
5145,-352,-1944,216,-77,288,-340
5150,-392,-1968,232,-81,260,-318
5155,-464,-2000,280,-77,239,-297
5160,-512,-2008,320,-67,223,-268
5165,-496,-2072,408,-53,210,-239
5170,-536,-2096,448,-28,196,-208
5175,-568,-2120,520,8,178,-177
5180,-584,-2160,560,52,157,-147
5185,-560,-2200,632,105,132,-116
5190,-544,-2176,648,162,106,-85
5195,-528,-2208,672,217,83,-55
5200,-536,-2200,688,267,62,-27
5205,-488,-2152,688,310,47,-2
5210,-424,-2128,688,341,38,16
5215,-392,-2088,696,362,35,31
5220,-328,-2032,688,375,41,38
5225,-272,-2000,696,383,56,35
5230,-208,-1976,656,388,82,29
5235,-168,-1960,632,385,117,18
5240,-128,-1976,592,377,162,0
5245,-88,-2000,528,355,208,-15
5250,-32,-2032,448,315,257,-27
5255,24,-2088,336,257,311,-37
5260,32,-2176,232,185,361,-47
5265,32,-2320,160,103,409,-59
5270,-40,-2440,80,14,445,-72
5275,-120,-2560,0,-73,463,-81
5280,-184,-2744,-40,-150,461,-80
5285,-272,-2840,-104,-202,432,-63
5290,-384,-2896,-128,-230,374,-29
5295,-496,-2944,-184,-231,303,22
5300,-568,-2976,-192,-202,235,83
5305,-616,-3008,-232,-152,185,149
5310,-616,-2984,-208,-90,153,214
5315,-656,-2944,-232,-23,133,275
5320,-672,-2872,-296,49,113,336
5325,-688,-2744,-352,129,95,386
5330,-640,-2648,-448,217,85,432
5335,-584,-2488,-496,299,88,455
5340,-448,-2352,-560,373,105,466
5345,-296,-2168,-600,432,138,470
5350,-128,-2032,-648,469,184,462
5355,-40,-1880,-664,495,240,447
5360,104,-1728,-648,511,302,428
5365,224,-1568,-672,510,361,396
5370,264,-1464,-688,486,425,359
5375,360,-1408,-632,440,466,322
5380,400,-1368,-584,369,493,278
5385,432,-1352,-480,278,503,235
5390,432,-1400,-392,180,501,194
5395,368,-1472,-288,84,486,154
5400,304,-1560,-192,1,459,121
5405,240,-1664,-96,-87,420,91
5410,168,-1760,-80,-159,369,58
5415,112,-1888,-24,-231,315,23
5420,32,-1968,8,-292,263,-17
5425,-64,-2048,24,-347,211,-59
5430,-136,-2136,72,-391,158,-101
5435,-248,-2216,88,-425,99,-141
5440,-312,-2296,88,-444,36,-179
5445,-408,-2352,88,-448,-29,-214
5450,-504,-2400,120,-431,-90,-240
5455,-584,-2440,112,-396,-141,-262
5460,-632,-2432,128,-341,-187,-276
5465,-640,-2488,144,-263,-226,-284
5470,-624,-2456,152,-168,-253,-287
5475,-592,-2368,168,-70,-269,-279
5480,-584,-2288,144,15,-271,-268
5485,-560,-2184,160,78,-268,-255
5490,-544,-2120,120,130,-262,-235
5495,-496,-2032,128,160,-255,-218
5500,-432,-1944,104,173,-252,-202
5505,-416,-1840,80,171,-251,-187
5510,-360,-1776,64,152,-257,-171
5515,-336,-1696,48,126,-271,-156
5520,-288,-1664,24,89,-295,-139
5525,-264,-1608,-8,47,-328,-123
5530,-192,-1600,-48,0,-367,-105
5535,-144,-1552,-40,-45,-407,-86
5540,-120,-1552,-56,-84,-447,-70
5545,-72,-1560,-80,-113,-479,-54
5550,-16,-1528,-40,-132,-508,-39
5555,40,-1520,16,-142,-532,-29
5560,112,-1544,56,-141,-552,-24
5565,144,-1536,64,-129,-564,-23
5570,168,-1544,104,-106,-567,-27
5575,144,-1576,144,-80,-568,-33
5580,96,-1592,192,-62,-573,-37
5585,56,-1616,200,-49,-580,-40
5590,32,-1712,208,-45,-593,-38
5595,24,-1736,240,-47,-608,-38
5600,-24,-1768,216,-53,-629,-37
5605,-40,-1792,264,-62,-657,-34
5610,-96,-1824,256,-78,-691,-31
5615,-104,-1816,232,-91,-726,-26
5620,-128,-1856,248,-98,-762,-18
5625,-128,-1832,256,-107,-793,-5
5630,-144,-1816,272,-108,-821,8
5635,-216,-1784,280,-108,-838,28
5640,-224,-1744,304,-103,-849,54
5645,-248,-1720,336,-97,-851,83
5650,-288,-1680,336,-93,-851,119
5655,-352,-1664,352,-96,-847,155
5660,-408,-1672,304,-104,-841,190
5665,-416,-1664,296,-113,-829,224
5670,-464,-1656,344,-128,-811,253
5675,-440,-1632,352,-146,-792,282
5680,-408,-1640,336,-160,-777,308
5685,-368,-1616,344,-168,-766,338
5690,-328,-1632,376,-167,-759,364
5695,-184,-1680,424,-148,-755,383
5700,-136,-1688,376,-118,-746,393
5705,-120,-1672,376,-87,-724,390
5710,-56,-1672,248,-63,-694,370
5715,-16,-1664,144,-53,-653,338
5720,80,-1632,80,-70,-608,298
5725,104,-1640,40,-111,-562,249
5730,120,-1664,48,-176,-528,196
5735,128,-1752,32,-246,-505,143
5740,120,-1840,88,-313,-502,88
5745,104,-1952,208,-366,-513,37
5750,96,-2008,256,-393,-534,-5
5755,80,-2088,344,-396,-556,-42
5760,80,-2152,440,-375,-572,-71
5765,56,-2200,472,-339,-578,-94
5770,32,-2224,560,-301,-575,-110
5775,40,-2256,624,-263,-567,-122
5780,0,-2264,720,-209,-551,-123
5785,-16,-2248,696,-144,-534,-113
5790,0,-2192,704,-85,-527,-99
5795,-32,-2176,680,-31,-526,-80
5800,-24,-2176,672,10,-533,-60
5805,-96,-2136,608,32,-541,-48
5810,-160,-2152,568,26,-547,-40
5815,-256,-2184,464,-7,-544,-40
5820,-328,-2224,408,-73,-532,-47
5825,-368,-2272,304,-168,-509,-61
5830,-392,-2376,264,-283,-473,-84
5835,-392,-2504,224,-399,-426,-117
5840,-424,-2640,176,-497,-371,-164
5845,-392,-2824,160,-561,-311,-222
5850,-400,-2928,128,-588,-253,-283
5855,-352,-3032,128,-591,-207,-351
5860,-272,-3072,144,-575,-174,-424
5865,-176,-3088,128,-539,-148,-495
5870,-128,-3072,208,-476,-135,-568
5875,24,-2984,200,-387,-136,-631
5880,120,-2888,176,-283,-139,-679
5885,256,-2800,104,-188,-138,-717
5890,328,-2728,88,-111,-134,-742
5895,320,-2648,104,-30,-132,-743
5900,320,-2552,56,78,-139,-715
5905,280,-2408,24,188,-161,-668
5910,216,-2224,-48,283,-201,-605
5915,184,-2064,-64,346,-253,-528
5920,80,-1928,-112,381,-299,-434
5925,32,-1784,-128,406,-346,-321
5930,-24,-1608,-192,421,-383,-209
5935,-64,-1448,-280,421,-421,-98
5940,-128,-1344,-264,405,-461,-1
5945,-176,-1240,-344,376,-502,80
5950,-200,-1184,-336,327,-535,147
5955,-240,-1104,-360,264,-562,192
5960,-296,-1064,-360,188,-573,225
5965,-288,-1104,-312,111,-570,250
5970,-288,-1184,-312,29,-554,261
5975,-272,-1248,-232,-51,-521,266
5980,-208,-1336,-160,-122,-470,262
5985,-240,-1376,-160,-180,-403,246
5990,-184,-1544,-112,-252,-326,229
5995,-152,-1672,-40,-315,-245,203
6000,-152,-1784,-32,-356,-163,177
6005,-152,-1944,-24,-391,-80,148
6010,-128,-2048,-72,-408,-1,122
6015,-128,-2176,-40,-413,74,92
6020,-112,-2296,-48,-410,149,64
6025,-96,-2368,-40,-390,215,34
6030,-72,-2440,-16,-366,266,13
6035,-16,-2488,0,-334,298,0
6040,56,-2496,16,-296,312,-3
6045,112,-2480,-24,-256,313,-4
6050,136,-2456,8,-221,299,5
6055,152,-2376,32,-182,272,23
6060,152,-2320,24,-135,235,47
6065,144,-2224,-8,-76,200,76
6070,136,-2120,-8,-13,169,107
6075,184,-2016,-56,43,148,137
6080,144,-1912,-24,88,140,165
6085,104,-1824,-32,110,147,183
6090,64,-1736,-16,111,164,201
6095,8,-1680,-16,98,185,222
6100,-48,-1632,-8,81,207,236
6105,-120,-1584,-24,61,226,244
6110,-128,-1568,-32,38,245,248
6115,-208,-1520,-80,12,262,246
6120,-272,-1552,-88,-13,275,239
6125,-320,-1552,-104,-26,286,231
6130,-400,-1568,-176,-42,300,220
6135,-376,-1616,-208,-64,324,210
6140,-384,-1648,-168,-100,356,198
6145,-384,-1672,-160,-131,397,183
6150,-376,-1720,-160,-163,440,165
6155,-424,-1696,-136,-195,473,153
6160,-528,-1712,-80,-222,494,143
6165,-472,-1768,-80,-242,498,140
6170,-432,-1760,-136,-277,503,146
6175,-352,-1848,-80,-334,520,141
6180,-376,-1880,16,-383,517,130
6185,-424,-1920,48,-403,494,123
6190,-416,-1896,24,-409,474,127
6195,-352,-1984,72,-404,446,133
6200,-400,-1944,72,-361,395,137
6205,-320,-1896,72,-310,344,128
6210,-352,-1848,24,-265,291,122
6215,-328,-1808,8,-230,248,128
6220,-336,-1800,24,-201,213,125
6225,-312,-1744,-16,-173,176,115
6230,-328,-1680,-40,-156,147,106
6235,-336,-1616,-56,-158,128,96
6240,-344,-1576,-72,-172,111,86
6245,-344,-1536,-72,-191,94,78
6250,-352,-1544,-72,-210,74,80
6255,-336,-1560,-88,-234,46,65
6260,-328,-1536,-88,-267,23,36
6265,-360,-1520,-56,-307,10,10
6270,-424,-1504,-72,-354,-3,-10
6275,-360,-1488,-64,-406,-18,-23
6280,-368,-1504,-72,-461,-34,-26
6285,-376,-1496,-88,-517,-50,-33
6290,-400,-1520,-112,-578,-57,-45
6295,-392,-1544,-96,-642,-53,-61
6300,-432,-1536,-72,-708,-45,-77
6305,-440,-1544,-120,-772,-39,-95
6310,-408,-1536,-96,-827,-34,-104
6315,-416,-1552,-96,-872,-32,-108
6320,-392,-1584,-120,-905,-31,-115
6325,-408,-1568,-112,-932,-30,-124
6330,-384,-1568,-96,-950,-33,-133
6335,-312,-1584,-72,-968,-41,-138
6340,-264,-1584,-72,-980,-53,-143
6345,-232,-1576,-72,-1000,-69,-144
6350,-192,-1576,-40,-1023,-90,-138
6355,-168,-1568,-88,-1048,-114,-129
6360,-128,-1584,-96,-1066,-140,-116
6365,-128,-1616,-88,-1080,-167,-103
6370,-128,-1664,-120,-1085,-186,-92
6375,-128,-1672,-104,-1088,-196,-81
6380,-120,-1704,-152,-1087,-200,-70
6385,-120,-1720,-104,-1085,-197,-63
6390,-136,-1736,-80,-1087,-197,-59
6395,-136,-1752,-48,-1089,-200,-57
6400,-168,-1704,-72,-1091,-210,-59
6405,-144,-1736,-120,-1090,-225,-65
6410,-144,-1728,-104,-1085,-241,-69
6415,-208,-1704,-128,-1073,-257,-74
6420,-264,-1704,-128,-1065,-274,-81
6425,-296,-1736,-96,-1058,-295,-86
6430,-312,-1760,-136,-1057,-320,-89
6435,-360,-1792,-160,-1060,-348,-91
6440,-392,-1840,-128,-1063,-369,-90
6445,-368,-1904,-184,-1067,-375,-93
6450,-376,-1968,-136,-1072,-361,-100
6455,-360,-2000,-136,-1066,-336,-108
6460,-328,-2072,-24,-1043,-306,-117
6465,-264,-2216,16,-999,-274,-130
6470,-200,-2264,64,-942,-245,-144
6475,-96,-2368,64,-884,-213,-161
6480,-56,-2464,64,-821,-173,-184
6485,32,-2584,88,-739,-131,-205
6490,96,-2672,64,-627,-79,-234
6495,192,-2744,-32,-500,-4,-270
6500,312,-2816,-112,-375,95,-315
6505,448,-2872,-192,-268,216,-368
6510,544,-2944,-264,-182,366,-426
6515,736,-2960,-360,-133,512,-485
6520,840,-3024,-440,-123,657,-537
6525,816,-3024,-496,-126,798,-581
6530,800,-2992,-544,-159,894,-615
6535,688,-2936,-488,-185,971,-626
6540,688,-2824,-520,-186,1024,-629
6545,704,-2736,-448,-165,1073,-622
6550,720,-2576,-416,-128,1142,-612
6555,744,-2464,-360,-98,1228,-629
6560,840,-2328,-280,-90,1334,-655
6565,840,-2144,-208,-106,1463,-670
6570,872,-1936,-160,-154,1596,-684
6575,896,-1776,-200,-262,1743,-680
6580,912,-1736,-80,-432,1913,-675
6585,840,-1776,-8,-606,2084,-680
6590,768,-1928,96,-759,2238,-683
6595,608,-2104,136,-889,2342,-677
6600,440,-2376,120,-1000,2377,-651
6605,360,-2656,0,-1088,2346,-605
6610,248,-2928,-120,-1142,2255,-551
6615,16,-3160,-360,-1146,2110,-483
6620,-136,-3488,-600,-1105,1931,-413
6625,-472,-3592,-920,-997,1730,-353
6630,-648,-3736,-1160,-831,1534,-286
6635,-832,-3808,-1376,-626,1353,-219
6640,-1072,-3896,-1488,-375,1200,-156
6645,-1120,-3816,-1672,-62,1072,-73
6650,-1040,-3552,-1816,284,980,16
6655,-824,-3208,-1952,590,903,94
6660,-608,-2856,-1936,832,809,183
6665,-368,-2512,-1832,1016,695,275
6670,-128,-2176,-1792,1145,573,353
6675,16,-1872,-1688,1203,460,418
6680,160,-1616,-1592,1184,363,472
6685,288,-1424,-1568,1107,285,511
6690,376,-1264,-1528,1006,218,539
6695,408,-1104,-1512,897,148,555
6700,392,-1016,-1528,793,84,566
6705,336,-904,-1536,707,26,573
6710,264,-840,-1552,647,-27,583
6715,200,-784,-1608,616,-70,596
6720,200,-720,-1544,618,-101,608
6725,136,-664,-1608,645,-124,615
6730,120,-648,-1576,680,-140,618
6735,88,-632,-1544,706,-160,617
6740,48,-592,-1480,707,-180,625
6745,64,-648,-1408,669,-211,644
6750,32,-712,-1352,604,-256,660
6755,48,-784,-1328,535,-301,679
6760,24,-880,-1280,470,-332,690
6765,56,-1000,-1192,417,-349,696
6770,128,-1128,-1160,376,-363,692
6775,128,-1304,-1104,349,-366,678
6780,144,-1456,-1040,322,-360,665
6785,176,-1544,-928,291,-359,651
6790,208,-1640,-784,262,-369,635
6795,208,-1704,-616,246,-397,625
6800,216,-1744,-448,243,-448,612
6805,192,-1784,-312,252,-514,606
6810,120,-1816,-208,257,-586,606
6815,64,-1880,-72,257,-652,601
6820,8,-1928,-96,267,-709,585
6825,-8,-1976,-64,291,-744,566
6830,16,-1952,-32,330,-761,541
6835,56,-1976,-96,376,-744,507
6840,160,-1992,-112,426,-699,469
6845,256,-1984,-224,472,-631,421
6850,368,-1944,-328,503,-549,363
6855,456,-1864,-400,507,-470,296
6860,560,-1736,-440,491,-404,232
6865,640,-1632,-472,461,-346,177
6870,648,-1512,-568,419,-295,128
6875,640,-1448,-680,366,-240,78
6880,608,-1416,-744,304,-176,25
6885,584,-1376,-840,231,-103,-32
6890,632,-1440,-840,157,-26,-87
6895,616,-1464,-848,90,54,-139
6900,584,-1552,-864,35,133,-198
6905,600,-1728,-800,-13,218,-249
6910,568,-1856,-784,-45,305,-294
6915,512,-1960,-776,-63,384,-331
6920,424,-2072,-688,-68,436,-360
6925,360,-2144,-672,-45,458,-382
6930,248,-2176,-664,-15,456,-399
6935,104,-2232,-648,8,433,-402
6940,-16,-2280,-656,27,403,-406
6945,-120,-2360,-704,38,379,-414
6950,-216,-2360,-720,40,373,-424
6955,-288,-2352,-760,27,391,-431
6960,-336,-2352,-800,5,436,-437
6965,-336,-2288,-720,-21,493,-446
6970,-288,-2224,-656,-40,555,-457
6975,-240,-2168,-576,-38,609,-468
6980,-200,-2112,-544,-16,648,-478
6985,-168,-2088,-504,22,676,-489
6990,-128,-2056,-536,67,696,-508
6995,-128,-1992,-472,110,708,-526
7000,-120,-1912,-480,144,709,-546
7005,-96,-1856,-480,157,701,-563
7010,-72,-1768,-528,154,694,-575
7015,-40,-1664,-520,136,688,-589
7020,24,-1568,-576,108,677,-598
7025,40,-1472,-656,77,669,-610
7030,64,-1400,-704,39,661,-625
7035,104,-1296,-752,0,656,-638
7040,96,-1208,-720,-39,657,-650
7045,120,-1128,-704,-69,667,-657
7050,96,-1032,-672,-95,686,-662
7055,120,-984,-672,-106,712,-667
7060,144,-952,-600,-108,748,-671
7065,176,-928,-576,-103,790,-682
7070,152,-888,-560,-98,835,-696
7075,160,-912,-536,-92,871,-713
7080,184,-888,-560,-88,896,-736
7085,168,-872,-560,-91,910,-759
7090,144,-840,-624,-106,916,-784
7095,152,-816,-656,-126,918,-811
7100,176,-832,-656,-158,911,-837
7105,144,-824,-704,-199,904,-865
7110,128,-784,-800,-251,899,-897
7115,144,-752,-848,-309,900,-926
7120,128,-688,-896,-363,909,-948
7125,88,-704,-968,-415,919,-971
7130,-8,-648,-1080,-459,933,-995
7135,24,-632,-1096,-493,944,-1010
7140,88,-576,-1176,-526,963,-1031
7145,128,-544,-1168,-567,994,-1055
7150,104,-496,-1120,-615,1027,-1080
7155,120,-464,-1072,-672,1053,-1100
7160,128,-480,-1008,-736,1071,-1120
7165,144,-512,-968,-794,1079,-1136
7170,168,-576,-960,-850,1079,-1154
7175,80,-648,-936,-913,1068,-1174
7180,0,-808,-984,-974,1042,-1194
7185,-104,-992,-1016,-1033,996,-1211
7190,-208,-1216,-1032,-1077,934,-1222
7195,-344,-1424,-1160,-1116,856,-1233
7200,-472,-1664,-1184,-1163,764,-1241
7205,-624,-1904,-1304,-1217,664,-1243
7210,-760,-2104,-1448,-1274,554,-1241
7215,-912,-2352,-1576,-1348,446,-1230
7220,-928,-2656,-1704,-1420,365,-1218
7225,-1000,-2936,-1816,-1486,322,-1216
7230,-960,-3168,-1864,-1537,323,-1219
7235,-984,-3480,-1864,-1571,360,-1226
7240,-776,-3760,-1792,-1618,405,-1251
7245,-576,-4136,-1504,-1668,479,-1299
7250,-424,-4480,-1136,-1666,594,-1341
7255,-176,-4848,-736,-1617,742,-1364
7260,-48,-5192,-408,-1489,908,-1379
7265,160,-5384,56,-1217,1061,-1375
7270,432,-5512,392,-750,1180,-1343
7275,584,-5232,520,-153,1214,-1344
7280,864,-4848,544,482,1131,-1356
7285,1032,-4536,488,1089,954,-1369
7290,1328,-4128,392,1614,732,-1382
7295,1488,-3704,224,2010,535,-1384
7300,1616,-3256,136,2231,380,-1380
7305,1904,-2888,104,2319,261,-1363
7310,1984,-2480,72,2314,179,-1385
7315,1952,-2072,64,2240,117,-1401
7320,2000,-1704,56,2143,73,-1411
7325,1920,-1304,64,2030,47,-1447
7330,1776,-888,-56,1898,51,-1472
7335,1552,-616,-24,1754,99,-1475
7340,1288,-304,-112,1593,134,-1489
7345,1240,-176,-232,1377,146,-1502
7350,1056,8,-376,1157,172,-1530
7355,1040,96,-456,954,231,-1560
7360,1064,152,-480,817,328,-1616
7365,1056,224,-464,760,445,-1715
7370,1080,80,-400,764,566,-1834
7375,1176,-16,-232,801,667,-1973
7380,1224,-176,-48,842,754,-2117
7385,1392,-376,160,882,836,-2258
7390,1560,-728,384,944,926,-2404
7395,1736,-1048,576,1041,1025,-2550
7400,1904,-1416,792,1177,1121,-2692
7405,2088,-1792,1008,1364,1220,-2826
7410,2272,-2128,1240,1591,1315,-2952
7415,2416,-2432,1520,1864,1412,-3075
7420,2592,-2688,1656,2187,1519,-3189
7425,2808,-2856,1680,2480,1608,-3280
7430,2888,-2912,1640,2680,1653,-3360
7435,3224,-3104,1632,2761,1650,-3432
7440,3512,-3064,1480,2729,1599,-3528
7445,3944,-3160,1304,2599,1518,-3611
7450,4496,-3384,1160,2386,1456,-3668
7455,4880,-3496,992,2140,1460,-3715
7460,5248,-3560,1000,1846,1488,-3737
7465,5376,-3528,1088,1511,1498,-3764
7470,5264,-3408,1248,1159,1474,-3716
7475,5008,-3256,1432,790,1366,-3640
7480,4408,-3096,1520,445,1201,-3498
7485,3944,-2896,1568,123,951,-3334
7490,3616,-2736,1512,-173,631,-3141
7495,3088,-2640,1456,-441,359,-2920
7500,2448,-2616,1392,-640,166,-2689
7505,1920,-2600,1384,-754,20,-2454
7510,1456,-2624,1280,-771,-81,-2241
7515,1032,-2640,1192,-705,-101,-2064
7520,744,-2672,1072,-558,-50,-1927
7525,512,-2648,952,-322,45,-1838
7530,312,-2568,800,10,184,-1775
7535,216,-2392,512,396,331,-1738
7540,176,-2128,192,785,488,-1728
7545,48,-1680,-56,1120,650,-1729
7550,-24,-1304,-192,1290,794,-1716
7555,120,-992,-152,1304,904,-1686
7560,104,-768,-40,1238,988,-1657
7565,128,-544,80,1169,1055,-1642
7570,248,-400,184,1141,1099,-1636
7575,168,-184,304,1158,1116,-1647
7580,184,-96,352,1210,1119,-1672
7585,296,-32,336,1285,1124,-1723
7590,416,48,368,1367,1131,-1806
7595,440,48,368,1459,1135,-1911
7600,488,32,376,1569,1137,-2019
7605,584,24,384,1696,1120,-2119
7610,632,8,440,1833,1083,-2197
7615,784,-8,448,1973,1017,-2255
7620,920,56,456,2103,924,-2287
7625,1064,40,504,2203,801,-2296
7630,1208,-48,608,2260,663,-2297
7635,1248,-144,696,2293,514,-2307
7640,1344,-240,848,2322,362,-2337
7645,1416,-360,936,2355,226,-2381
7650,1480,-384,944,2366,128,-2442
7655,1616,-472,1112,2352,80,-2509
7660,1792,-496,1168,2351,87,-2558
7665,2008,-512,1304,2348,113,-2601
7670,2280,-488,1400,2365,162,-2633
7675,2456,-400,1456,2374,259,-2659
7680,2520,-312,1528,2371,387,-2694
7685,2464,-176,1560,2356,515,-2716
7690,2592,-80,1440,2335,597,-2712
7695,2640,96,1400,2296,649,-2700
7700,2616,248,1296,2223,721,-2693
7705,2632,408,1256,2135,817,-2687
7710,2584,632,1120,2023,921,-2691
7715,2464,752,1152,1871,1029,-2705
7720,2376,816,1112,1728,1108,-2708
7725,2192,944,1152,1638,1147,-2710
7730,2104,1120,1096,1582,1124,-2669
7735,1928,1376,1144,1518,1025,-2584
7740,1896,1544,1096,1432,860,-2422
7745,1776,1680,1144,1330,658,-2253
7750,1600,1904,1080,1201,457,-2046
7755,1624,2016,1104,1050,255,-1786
7760,1560,2136,1000,915,51,-1477
7765,1472,2272,920,777,-186,-1136
7770,1320,2264,840,662,-374,-771
7775,1232,2160,792,608,-537,-375
7780,1384,2080,744,650,-712,-4
7785,1536,2120,584,774,-874,286
7790,1432,2144,328,904,-977,477
7795,1352,2048,336,1011,-1015,609
7800,1296,1928,160,1038,-1005,701
7805,1032,1656,288,960,-939,759
7810,848,1312,568,836,-826,782
7815,968,912,864,727,-698,773
7820,1072,616,1072,675,-562,668
7825,1144,560,1072,633,-472,526
7830,1312,640,896,516,-337,371
7835,1104,480,944,343,-40,215
7840,920,344,880,173,281,61
7845,744,272,856,36,529,-86
7850,688,192,728,-34,683,-206
7855,648,208,624,-34,751,-320
7860,664,312,552,18,776,-429
7865,840,480,464,80,790,-500
7870,984,680,448,127,802,-528
7875,1120,864,496,167,809,-529
7880,1136,1056,504,228,816,-512
7885,1256,1224,496,311,818,-470
7890,1400,1464,424,407,815,-417
7895,1528,1632,424,502,809,-351
7900,1600,1768,392,594,782,-265
7905,1736,1920,336,678,733,-146
7910,1896,2000,288,748,677,10
7915,1976,2016,192,793,619,181
7920,1952,1992,160,812,571,348
7925,1880,1944,112,808,519,479
7930,1776,1976,80,768,446,547
7935,1664,2016,0,697,359,556
7940,1576,2048,-40,589,275,531
7945,1512,2064,-80,457,204,477
7950,1472,2072,-88,309,144,402
7955,1504,2056,-96,164,95,310
7960,1592,2104,-24,39,65,199
7965,1536,2120,32,-80,59,71
7970,1640,2048,192,-216,90,-43
7975,1672,1944,456,-350,159,-127
7980,1712,1808,600,-476,243,-182
7985,1712,1648,840,-568,310,-196
7990,1720,1512,1056,-604,330,-168
7995,1664,1400,1200,-575,293,-116
8000,1480,1328,1272,-491,214,-38
8005,1456,1144,1320,-366,100,82
8010,1480,1024,1336,-208,-24,202
8015,1456,952,1304,-37,-133,300
8020,1448,880,1216,118,-205,375
8025,1432,848,1152,242,-241,437
8030,1488,808,1112,330,-239,487
8035,1472,816,1056,390,-206,527
8040,1376,848,976,427,-156,557
8045,1392,856,960,448,-98,577
8050,1448,888,920,454,-41,591
8055,1424,960,928,451,7,599
8060,1496,960,824,441,41,594
8065,1440,1008,888,430,65,586
8070,1528,1008,936,423,84,578
8075,1544,992,888,413,101,573
8080,1424,976,856,402,113,569
8085,1440,960,872,385,111,569
8090,1440,944,904,371,93,572
8095,1416,936,960,355,58,574
8100,1384,920,976,345,15,576
8105,1376,872,1016,336,-31,580
8110,1232,816,928,334,-77,589
8115,1392,792,1104,343,-123,599
8120,1328,712,1208,361,-167,614
8125,1328,656,968,384,-210,632
8130,1344,592,976,408,-251,658
8135,1432,792,1032,416,-292,694
8140,1352,664,984,411,-328,734
8145,1352,936,960,393,-359,784
8150,1288,840,1040,357,-390,839
8155,1328,824,840,296,-425,894
8160,1416,936,968,214,-471,942
8165,1416,984,984,129,-529,977
8170,1464,1024,1016,52,-595,1004
8175,1448,1040,1032,-3,-666,1019
8180,1488,992,1056,-37,-726,1036
8185,1416,1000,1064,-54,-765,1058
8190,1360,984,992,-71,-792,1093
8195,1304,864,920,-97,-813,1134
8200,1272,704,864,-118,-834,1168
8205,1368,696,896,-126,-869,1194
8210,1368,552,848,-108,-898,1202
8215,1424,432,840,-68,-922,1194
8220,1368,368,752,-4,-939,1175
8225,1416,376,744,74,-953,1157
8230,1464,432,728,152,-973,1138
8235,1440,464,608,220,-1000,1135
8240,1384,400,456,268,-1039,1137
8245,1504,496,384,289,-1076,1153
8250,1576,512,360,291,-1102,1185
8255,1576,544,408,280,-1126,1194
8260,1752,536,464,257,-1159,1200
8265,1776,480,464,241,-1194,1194
8270,1952,536,584,231,-1220,1167
8275,1976,520,336,222,-1216,1123
8280,2448,464,280,181,-1172,1066
8285,2624,352,384,98,-1106,992
8290,2776,312,-88,6,-1020,894
8295,2856,256,-16,-106,-932,800
8300,2856,264,8,-243,-883,709
8305,2800,192,-96,-378,-896,622
8310,2960,256,-40,-507,-971,565
8315,2976,96,16,-603,-1063,518
8320,2832,64,152,-637,-1136,453
8325,2640,-16,208,-619,-1186,386
8330,2400,-56,280,-580,-1221,328
8335,2288,-136,320,-542,-1238,288
8340,2152,-216,336,-496,-1235,244
8345,1984,-264,376,-450,-1211,192
8350,1864,-304,368,-401,-1180,150
8355,1800,-296,448,-345,-1140,114
8360,1696,-336,472,-277,-1085,79
8365,1624,-312,424,-204,-1014,53
8370,1664,-272,312,-129,-935,43
8375,1656,-208,336,-68,-843,37
8380,1592,-240,280,-19,-739,41
8385,1664,-168,312,20,-633,49
8390,1672,-104,184,51,-532,64
8395,1744,-16,96,61,-431,84
8400,1824,64,64,53,-330,104
8405,1840,112,0,27,-238,124
8410,1928,192,-120,-12,-158,141
8415,1968,224,-112,-54,-94,153
8420,2136,304,-272,-100,-47,157
8425,2224,360,-160,-146,-19,151
8430,2344,376,-200,-195,-7,137
8435,2384,392,-232,-238,-6,113
8440,2504,384,-136,-265,-15,84
8445,2584,352,-88,-272,-31,56
8450,2592,344,-72,-252,-52,25
8455,2608,296,-72,-221,-79,-1
8460,2808,320,-160,-186,-114,-19
8465,2680,232,-32,-162,-151,-36
8470,2632,192,0,-147,-182,-51
8475,2568,136,40,-138,-210,-59
8480,2544,64,32,-127,-230,-60
8485,2496,24,48,-114,-240,-54
8490,2448,40,32,-97,-243,-47
8495,2424,8,72,-84,-243,-38
8500,2392,-24,72,-73,-246,-27
8505,2368,-16,8,-72,-249,-17
8510,2320,-8,-24,-76,-257,-8
8515,2264,0,-48,-85,-263,-2
8520,2200,16,-72,-99,-266,7
8525,2176,24,-88,-107,-264,12
8530,2216,16,-56,-108,-249,15
8535,2096,8,-40,-93,-223,16
8540,2096,40,-8,-73,-190,7
8545,2104,72,16,-48,-151,-4
8550,2088,96,0,-19,-104,-21
8555,2048,144,16,4,-52,-46
8560,2088,152,64,37,-6,-70
8565,2128,184,80,61,42,-92
8570,2056,240,104,95,78,-123
8575,2072,272,136,127,97,-148
8580,2072,304,128,147,119,-167
8585,2144,264,192,165,132,-182
8590,2072,360,224,186,143,-208
8595,2080,344,224,212,146,-223
8600,2088,360,240,245,141,-233
8605,2080,376,280,268,133,-242
8610,2096,392,264,282,130,-253
8615,2080,424,320,291,130,-263
8620,2096,416,320,311,128,-264
8625,2112,408,304,329,128,-259
8630,2040,472,328,341,132,-257
8635,2032,448,328,353,131,-244
8640,2088,448,304,360,131,-230
8645,2032,488,272,357,141,-220
8650,2032,480,272,340,158,-211
8655,2024,496,264,316,174,-201
8660,2032,488,248,288,184,-189
8665,2016,488,216,256,196,-179
8670,1984,496,200,232,203,-171
8675,2048,496,160,211,208,-157
8680,2040,504,208,199,215,-149
8685,2008,512,144,186,227,-142
8690,2032,552,112,171,233,-135
8695,2056,544,120,147,237,-128
8700,2040,560,96,122,240,-128
8705,2008,552,136,97,242,-126
8710,2048,536,112,67,244,-123
8715,2024,560,152,41,239,-123
8720,2048,544,144,26,233,-123
8725,2024,552,136,18,227,-126
8730,2048,536,168,12,222,-127
8735,2048,496,160,10,214,-125
8740,2088,504,160,4,201,-118
8745,2080,488,160,0,192,-115
8750,2096,480,144,3,187,-109
8755,2040,472,192,7,182,-103
8760,2040,472,184,17,174,-95
8765,2040,440,200,29,164,-86
8770,2056,440,176,46,156,-75
8775,2040,440,160,62,147,-65
8780,2064,440,168,77,140,-49
8785,2080,456,168,96,139,-41
8790,2072,464,152,113,145,-37
8795,2040,464,168,128,151,-35
8800,2048,456,168,137,156,-32
8805,2056,480,152,146,162,-31
8810,2008,472,160,155,166,-27
8815,2032,480,168,153,168,-31
8820,2040,472,160,143,171,-37
8825,2040,496,176,128,174,-42
8830,2040,504,184,118,177,-46
8835,2024,488,200,114,180,-47
8840,2008,512,240,110,180,-46
8845,1992,512,232,104,183,-44
8850,2008,504,208,98,184,-43
8855,1992,504,224,82,182,-41
8860,1992,504,240,67,182,-39
8865,2032,504,240,53,180,-36
8870,2008,512,280,39,179,-32
8875,2016,496,272,31,177,-28
8880,2000,504,280,26,174,-27
8885,2016,488,248,20,170,-23
8890,2016,472,280,10,165,-20
8895,2016,480,256,1,160,-18
8900,2024,504,256,-16,152,-15
8905,2008,488,256,-28,149,-12
8910,2000,480,272,-40,145,-13
8915,1984,488,240,-57,136,-16
8920,2008,496,280,-76,128,-23
8925,2016,464,256,-88,125,-26
8930,1992,472,248,-103,123,-30
8935,1992,464,264,-116,125,-32
8940,1976,488,256,-130,124,-34
8945,2008,448,304,-136,124,-37
8950,2008,432,296,-136,126,-39
8955,1984,464,328,-134,126,-42
8960,1992,432,336,-125,127,-45
8965,1992,416,352,-112,129,-47
8970,2000,424,344,-96,132,-53
8975,1976,448,344,-81,134,-56
8980,2000,424,360,-71,133,-58
8985,1984,424,304,-66,128,-60
8990,1984,424,320,-70,123,-61
8995,1976,464,304,-68,120,-60
9000,1976,432,328,-68,118,-60
9005,1984,440,280,-65,116,-59
9010,1992,448,304,-64,112,-59
9015,1984,464,280,-62,112,-58
9020,1960,440,336,-61,114,-57
9025,1976,440,312,-60,116,-58
9030,1992,472,352,-60,119,-56
9035,1984,456,312,-59,119,-55
9040,1952,464,304,-58,116,-54
9045,1992,456,280,-56,114,-52
9050,1984,456,320,-59,110,-51
9055,2016,440,312,-64,105,-50
9060,1992,456,320,-67,100,-47
9065,1984,464,272,-71,98,-44
9070,2016,440,288,-74,94,-43
9075,1984,440,312,-73,92,-40
9080,2008,448,336,-71,90,-39
9085,2008,432,320,-69,88,-38
9090,2000,448,304,-65,89,-38
9095,1968,432,328,-61,88,-38
9100,1976,472,304,-58,88,-38
9105,1984,440,336,-51,86,-36
9110,1984,440,312,-46,82,-38
9115,2016,416,312,-41,79,-38
9120,1976,464,320,-40,78,-43
9125,2048,440,328,-39,77,-44
9130,1952,464,312,-41,74,-45
9135,1952,480,312,-40,68,-42
9140,1968,488,360,-44,59,-39
9145,2000,448,368,-45,50,-37
9150,1960,472,392,-42,40,-34
9155,1992,480,344,-40,34,-32
9160,1992,480,328,-37,32,-32
9165,1976,456,376,-43,39,-36
9170,1984,464,384,-42,40,-35
9175,1976,480,360,-38,39,-34
9180,1992,448,344,-31,36,-31
9185,1976,472,328,-23,33,-30
9190,1968,472,328,-18,31,-30
9195,1984,464,352,-14,32,-33
9200,1992,488,328,-17,33,-36
9205,1992,480,352,-20,32,-36
9210,1976,488,296,-27,34,-39
9215,1984,496,296,-31,32,-36
9220,1992,480,328,-36,31,-37
9225,1984,528,328,-34,29,-39
9230,1984,480,360,-32,27,-42
9235,2000,504,336,-28,26,-41
9240,2000,488,352,-30,27,-39
9245,2000,480,376,-30,22,-38
9250,1984,488,344,-25,17,-34
9255,1968,464,336,-18,11,-30
9260,1968,504,320,-9,5,-27
9265,1984,488,344,-2,4,-26
9270,1976,488,336,0,2,-22
9275,1992,496,296,0,1,-19
9280,1976,488,264,-5,-1,-17
9285,2048,488,296,-11,0,-16
9290,2016,496,304,-14,3,-12
9295,1960,496,296,-11,9,-14
9300,2008,464,272,-13,10,-14
9305,2008,504,304,-19,10,-17
9310,2008,488,328,-25,12,-16
9315,2008,512,344,-24,13,-16
9320,2024,464,312,-20,15,-15
9325,1992,504,320,-17,16,-13
9330,2016,496,328,-16,16,-13
9335,2000,488,320,-16,15,-12
9340,2008,504,328,-15,13,-8
9345,2016,496,288,-17,11,-6
9350,2008,472,328,-15,9,-5
9355,2016,496,304,-16,8,-3
9360,2008,528,288,-16,6,-1
9365,1992,488,312,-15,5,2
9370,2008,488,296,-12,2,4
9375,2016,488,312,-11,0,4
9380,2000,488,320,-13,0,5
9385,2032,496,288,-12,1,5
9390,2008,480,312,-17,2,6
9395,2000,496,264,-22,1,6
9400,1984,520,304,-28,0,5
9405,2000,488,288,-33,-1,4
9410,1992,488,288,-39,1,4
9415,1984,496,336,-45,4,4
9420,2040,456,304,-50,6,3
9425,1960,504,328,-53,11,3
9430,2000,512,320,-58,12,3
9435,2016,488,280,-61,13,3
9440,2008,496,296,-61,14,0
9445,2000,488,280,-66,17,-1
9450,1992,504,288,-73,19,-2
9455,2000,480,304,-76,21,-3
9460,2000,480,304,-78,24,-4
9465,1992,464,272,-80,25,-7
9470,2024,464,336,-81,29,-8
9475,2000,504,312,-76,32,-11
9480,1984,488,280,-71,34,-11
9485,1984,464,312,-66,35,-11
9490,1992,464,320,-59,34,-12
9495,1992,472,288,-52,37,-12
9500,1976,456,328,-49,38,-14
9505,2008,472,304,-46,39,-16
9510,1984,480,328,-43,39,-17
9515,2000,472,312,-43,40,-17
9520,2024,480,320,-40,40,-18
9525,2008,488,312,-39,39,-19
9530,1968,472,304,-42,40,-20
9535,1992,456,304,-41,38,-18
9540,2000,472,304,-41,38,-18
9545,1984,472,304,-42,38,-18
9550,1992,488,336,-44,37,-18
9555,1984,496,296,-44,37,-17
9560,2000,496,320,-47,36,-17
9565,1976,504,304,-48,35,-16
9570,1992,504,328,-48,35,-14
9575,1976,504,304,-48,35,-13
9580,1992,480,360,-49,35,-13
9585,1976,504,328,-49,32,-12
9590,1984,504,336,-47,34,-13
9595,1976,496,328,-43,34,-13
9600,2000,504,312,-44,34,-14
9605,1968,496,320,-45,36,-15
9610,1992,496,296,-46,33,-14
9615,1976,496,328,-48,33,-13
9620,1992,480,320,-47,33,-12
9625,2008,488,336,-47,35,-11
9630,1984,488,312,-46,35,-10
9635,2008,480,328,-45,34,-10
9640,2024,520,280,-41,32,-10
9645,2000,496,280,-40,29,-9
9650,1992,480,296,-39,28,-9
9655,1976,488,328,-40,24,-7
9660,1992,488,328,-41,22,-5
9665,1984,464,320,-42,20,-6
9670,2000,488,320,-43,19,-7
9675,2008,472,352,-44,20,-6
9680,1984,496,344,-43,19,-6
9685,1992,472,376,-44,18,-6
9690,1960,488,368,-47,17,-7
9695,1984,496,360,-51,18,-7
9700,1968,512,344,-54,18,-8
9705,2000,480,344,-58,19,-8
9710,2000,464,360,-61,20,-7
9715,2000,496,336,-60,17,-6
9720,1984,480,336,-62,17,-3
9725,1984,496,304,-60,15,-3
9730,2000,480,312,-58,14,-1
9735,2008,480,352,-54,13,0
9740,2016,464,312,-55,14,2
9745,1984,504,328,-55,11,3
9750,1936,544,336,-53,11,4
9755,1960,464,280,-52,11,4
9760,2000,488,336,-51,9,3
9765,1976,464,320,-49,6,5
9770,1984,488,320,-48,5,5
9775,1976,480,320,-48,4,5
9780,1984,488,296,-49,1,3
9785,1968,496,352,-46,0,4
9790,1984,480,368,-44,0,2
9795,1984,496,320,-40,0,0
9800,1976,496,368,-36,1,-1
9805,1976,488,320,-35,2,-2
9810,1984,488,320,-33,5,-5
9815,1984,480,344,-35,6,-6
9820,1992,480,304,-39,7,-7
9825,1984,488,312,-45,8,-6
9830,1992,496,320,-48,8,-7
9835,1992,504,272,-51,7,-7
9840,2000,488,296,-54,6,-5
9845,1992,504,320,-55,4,-4
9850,2000,464,312,-56,5,-4
9855,2008,512,392,-53,3,-3
9860,2016,488,328,-49,2,-3
9865,1976,472,352,-46,1,-1
9870,2000,472,312,-46,-1,0
9875,2000,480,336,-43,0,1
9880,1984,504,328,-41,-1,0
9885,1984,504,304,-37,-1,2
9890,2016,496,312,-34,0,2
9895,1992,496,320,-32,2,2
9900,1992,480,312,-30,3,0
9905,2008,456,288,-25,5,-1
9910,2000,456,296,-23,7,-3
9915,1984,504,320,-20,9,-5
9920,1984,472,296,-22,12,-7
9925,1984,496,288,-24,12,-6
9930,1968,504,320,-25,14,-8
9935,1984,496,296,-27,16,-7
9940,1984,480,304,-29,19,-8
9945,1984,472,304,-28,22,-8
9950,1984,496,320,-28,21,-10
9955,2016,480,312,-26,25,-9
9960,1976,472,320,-25,27,-10
9965,1992,424,360,-25,27,-11
9970,1976,472,320,-25,27,-12
9975,2008,480,328,-25,27,-12
9980,2000,472,328,-22,25,-12
9985,2008,488,304,-24,22,-12
9990,1992,496,312,-26,22,-11
9995,2008,488,312,-30,21,-9
10000,1992,488,296,-34,21,-10
10005,2000,504,296,-37,21,-10
10010,2008,496,320,-40,21,-9
10015,1984,496,328,-42,21,-8
10020,1992,496,336,-43,22,-5
10025,2016,496,304,-42,20,-5
10030,1976,496,320,-40,20,-7
10035,2016,480,320,-37,21,-8
10040,1984,472,336,-37,20,-8
10045,2008,472,344,-36,20,-9
10050,2016,472,336,-35,21,-10
10055,1984,504,320,-34,21,-11
10060,2000,464,312,-34,21,-11
10065,2000,488,296,-36,21,-12
10070,1976,488,296,-38,23,-12
10075,1928,432,304,-41,23,-11
10080,1976,504,296,-45,25,-12
10085,1984,480,312,-45,28,-12
10090,1976,488,304,-45,30,-14
10095,1984,488,312,-43,26,-14
10100,2000,488,320,-41,28,-14
10105,2008,488,344,-38,27,-12
10110,2016,480,288,-36,27,-10
10115,1960,504,336,-34,29,-6
10120,1976,496,344,-33,28,-7
10125,1984,520,296,-40,26,-10
10130,2000,496,328,-45,25,-12
10135,1984,512,328,-51,24,-10
10140,2000,512,288,-53,24,-9
10145,1992,488,336,-57,23,-7
10150,2008,488,328,-59,22,-5
10155,1976,520,336,-62,22,-3
10160,1984,504,320,-64,22,-1
10165,2016,488,328,-64,21,1
10170,2000,496,328,-65,19,2
10175,1992,512,320,-64,18,3
10180,1976,504,336,-65,15,7
10185,1992,520,256,-65,14,7
10190,2000,472,304,-64,13,7
10195,1968,464,328,-64,14,7
10200,1976,464,296,-60,15,6
10205,1984,480,320,-57,13,5
10210,1992,464,304,-54,14,2
10215,1984,472,304,-51,15,0
10220,1992,496,320,-49,17,-1
10225,1984,488,312,-47,18,-4
10230,2032,464,296,-48,21,-4
10235,2000,496,336,-49,21,-3
10240,1984,488,312,-51,22,-5
10245,1992,504,328,-51,21,-4
10250,1984,488,312,-52,21,-4
10255,2000,496,304,-52,23,-4
10260,1968,512,312,-54,23,-2
10265,2008,496,328,-53,22,-3
10270,1992,464,328,-55,21,-3
10275,2008,488,328,-58,22,-3
10280,1984,488,312,-60,22,-3
10285,1984,504,320,-60,23,-3
10290,2016,408,304,-58,24,-2
10295,2008,488,344,-55,25,-5
10300,2016,472,320,-53,23,-2
10305,2008,464,320,-45,22,-2
10310,1984,464,328,-43,20,-3
10315,1976,496,344,-40,19,-4
10320,1992,496,344,-38,16,-5
10325,1984,472,312,-36,13,-5
10330,2000,456,336,-34,11,-5
10335,1968,488,304,-32,9,-7
10340,1992,480,352,-31,8,-7
10345,1968,504,312,-30,8,-8
10350,1984,496,312,-32,10,-11
10355,2008,480,304,-37,11,-13
10360,1984,512,312,-43,15,-14
10365,2008,472,280,-51,15,-15
10370,1992,480,288,-55,16,-14
10375,2000,472,280,-56,18,-15
10380,2000,488,296,-54,20,-12
10385,2000,488,312,-53,22,-12
10390,2000,488,344,-51,24,-11
10395,1992,496,352,-50,24,-11
10400,1992,488,352,-46,24,-9
10405,2000,480,304,-44,23,-7
10410,2008,496,328,-42,22,-7
10415,2000,496,336,-41,22,-8
10420,2024,488,320,-36,23,-7
10425,1992,488,328,-33,20,-6
10430,1992,496,312,-31,18,-5
10435,2000,504,296,-29,15,-6
10440,1992,496,296,-27,14,-6
10445,2008,488,312,-25,14,-4
10450,1976,480,344,-25,14,-5
10455,2000,464,336,-25,16,-7
10460,1984,488,328,-26,17,-6
10465,1976,472,304,-27,17,-7
10470,1992,496,328,-28,19,-7
10475,1952,520,312,-29,19,-7
10480,1968,488,304,-27,20,-6
10485,1952,504,360,-29,24,-6
10490,2000,480,320,-28,27,-7
10495,1976,496,312,-28,30,-8
10500,1960,512,344,-27,29,-8
10505,1984,480,352,-27,24,-7
10510,1992,448,344,-30,21,-5
10515,1976,520,352,-35,17,-4
10520,1976,512,328,-44,14,-2
10525,1992,496,328,-47,12,-1
10530,1992,488,328,-50,11,-1
10535,2000,512,336,-50,9,0
10540,1992,496,328,-53,8,1
10545,1992,496,320,-56,4,2
10550,1952,496,296,-56,5,2
10555,1976,472,312,-58,6,2
10560,1984,496,360,-55,7,2
10565,1976,496,328,-51,9,1
10570,2000,480,320,-48,9,2
10575,1984,496,328,-44,8,1
10580,2000,496,336,-42,7,1
10585,2008,496,304,-41,6,0
10590,1984,488,304,-41,7,-2
10595,2016,480,344,-41,7,-3
10600,1976,496,328,-39,9,-5
10605,1984,472,320,-38,8,-6
10610,1976,496,328,-36,9,-6
10615,1992,472,328,-32,12,-7
10620,2032,464,328,-34,15,-11
10625,1984,480,328,-35,17,-12
10630,2000,496,320,-34,18,-12
10635,1984,480,328,-32,20,-13
10640,1992,480,280,-32,21,-13
10645,1984,496,304,-31,21,-13
10650,2000,488,312,-31,21,-13
10655,2000,496,304,-33,19,-12
10660,2000,512,312,-37,18,-12
10665,1984,504,320,-39,15,-12
10670,1992,504,320,-41,16,-9
10675,1984,512,304,-42,13,-9
10680,1992,504,296,-45,13,-10
10685,2008,496,336,-46,13,-9
10690,1984,496,312,-46,11,-7
10695,2000,496,272,-46,9,-7
10700,1992,504,312,-46,9,-7
10705,2000,496,304,-46,10,-7
10710,2000,504,288,-46,9,-6
10715,1992,488,288,-45,11,-4
10720,1976,496,336,-44,11,-3
10725,1992,512,344,-41,11,-4
10730,2032,496,320,-38,10,-5
10735,1984,480,320,-35,14,-6
10740,2000,472,344,-32,14,-6
10745,2008,472,336,-29,14,-6
10750,2000,464,336,-25,13,-8
10755,1976,496,328,-20,10,-8
10760,2000,488,312,-19,7,-7
10765,1992,488,328,-16,5,-8
10770,1968,496,304,-17,6,-8
10775,1992,512,328,-18,7,-8
10780,2008,488,328,-20,10,-10
10785,1992,480,320,-21,11,-9
10790,2008,472,344,-23,12,-9
10795,1992,512,288,-25,14,-9
10800,2000,512,320,-26,17,-9
10805,1992,512,312,-31,21,-10
10810,2008,488,320,-31,24,-9
10815,2016,488,352,-33,26,-10
10820,1992,496,328,-32,27,-8
10825,1992,488,328,-26,25,-9
10830,2000,480,312,-25,24,-9
10835,2008,416,336,-26,25,-9
10840,2008,496,320,-25,23,-9
10845,1968,512,320,-24,23,-10
10850,1984,496,360,-25,22,-10
10855,1960,488,312,-25,23,-13
10860,1984,488,344,-23,21,-14
10865,1984,488,320,-19,19,-13
10870,1992,496,312,-17,19,-12
10875,1952,520,312,-16,20,-12
10880,1992,496,304,-19,21,-15
10885,1968,536,304,-22,24,-16
10890,2016,488,320,-27,26,-19
10895,2000,512,320,-33,30,-18
10900,1984,512,304,-37,29,-20
10905,1992,496,336,-39,28,-21
10910,2000,504,320,-43,28,-21
10915,2008,464,304,-45,28,-20
10920,1992,496,320,-44,26,-19
10925,2000,488,320,-44,23,-15
10930,1984,528,320,-42,22,-14
10935,1984,512,344,-40,19,-13
10940,1984,512,320,-38,16,-10
10945,2032,432,368,-35,15,-7
10950,2000,496,320,-33,13,-7
10955,1992,536,304,-33,13,-5
10960,2008,488,336,-31,12,-7
10965,2008,488,312,-27,15,-6
10970,1992,504,296,-23,16,-7
10975,1992,488,312,-20,17,-8
10980,2000,504,304,-17,18,-8
10985,1984,488,312,-14,18,-9
10990,1992,480,304,-13,18,-10
10995,2000,520,296,-15,20,-9
11000,2000,504,320,-15,18,-10
11005,1976,504,304,-15,18,-8
11010,1976,488,328,-16,18,-9
11015,1992,496,328,-18,21,-7
11020,1992,472,328,-18,22,-7
11025,1976,504,320,-19,23,-7
11030,1992,520,360,-17,21,-7
11035,1976,512,328,-20,20,-5
11040,1960,520,304,-26,21,-4
11045,2000,520,336,-37,17,0
11050,2000,528,328,-39,16,-3
11055,1968,560,336,-38,16,-4
11060,2000,496,304,-36,18,-4
11065,2000,496,344,-39,19,-4
11070,1960,512,336,-43,20,-4
11075,1968,520,296,-45,20,-4
11080,1984,496,304,-47,23,-4
11085,1984,496,336,-51,25,-3
11090,1992,520,344,-52,26,-5
11095,1984,512,328,-54,27,-7
11100,2000,504,312,-56,26,-5
11105,2072,504,328,-54,27,-6
11110,2000,488,296,-49,31,-7
11115,2080,520,304,-48,35,-12
11120,1936,536,336,-54,36,-12
11125,1976,520,320,-53,29,-6
11130,2016,480,336,-47,22,-6
11135,2000,488,360,-41,18,-7
11140,1984,480,336,-38,20,-10
11145,2008,504,312,-39,18,-11
11150,1992,456,312,-38,16,-10
11155,1992,504,328,-39,12,-8
11160,1992,480,392,-40,11,-7
11165,1984,528,328,-42,12,-6
11170,1992,512,320,-40,11,-7
11175,1976,504,336,-39,12,-7
11180,2008,472,304,-38,14,-6
11185,1968,528,272,-37,14,-6
11190,1984,496,312,-38,13,-8
11195,1968,512,320,-39,14,-7
11200,1960,528,328,-40,15,-6
11205,1976,512,360,-45,14,-7
11210,1960,528,344,-44,14,-5
11215,1968,472,344,-44,14,-4
11220,1968,512,328,-46,14,-5
11225,1992,520,344,-44,15,-5
11230,1992,504,312,-45,13,-5
11235,2008,488,352,-44,15,-6
11240,2000,488,296,-44,15,-5
11245,1992,512,328,-43,15,-5
11250,1992,488,256,-39,13,-5
11255,1984,488,336,-38,14,-3
11260,1984,496,312,-36,15,-6
11265,2000,504,296,-34,13,-4
11270,2000,496,352,-31,15,-6
11275,2024,496,320,-31,16,-4
11280,1992,504,296,-28,17,-4
11285,1984,512,352,-27,18,-5
11290,1992,496,320,-26,18,-8
11295,1976,504,312,-26,17,-7
11300,1984,512,320,-24,16,-7
11305,2000,496,312,-26,15,-7
11310,1992,512,328,-29,14,-9
11315,1992,512,320,-31,13,-7
11320,1992,544,360,-33,14,-6
11325,1976,496,296,-33,13,-7
11330,2000,512,320,-39,13,-5
11335,1976,520,336,-43,14,-6
11340,2000,520,304,-45,13,-7
11345,1976,528,336,-45,14,-7
11350,2000,496,304,-45,15,-5
11355,1984,520,312,-45,18,-7
11360,2000,528,320,-46,20,-6
11365,2000,520,312,-45,22,-7
11370,1992,512,304,-44,23,-6
11375,1976,512,320,-44,24,-6
11380,1976,472,312,-42,25,-5
11385,1984,504,344,-41,25,-5
11390,2000,512,312,-40,22,-6
11395,1984,504,360,-41,21,-7
11400,1976,488,328,-41,20,-8
11405,2000,496,312,-40,17,-10
11410,1984,496,336,-40,18,-11
11415,1984,496,336,-37,17,-10
11420,1968,496,320,-33,18,-9
11425,2000,496,328,-30,16,-9
11430,1968,488,344,-27,16,-10
11435,1992,504,328,-28,19,-11
11440,1976,496,304,-31,20,-11
11445,1992,520,336,-34,20,-11
11450,1984,520,304,-35,20,-11
11455,2008,512,304,-37,20,-12
11460,1992,496,328,-41,20,-13
11465,1984,520,352,-45,18,-11
11470,1992,504,312,-45,17,-10
11475,1976,520,320,-44,18,-10
11480,1968,504,336,-45,17,-10
11485,1968,512,304,-47,17,-9
11490,2000,520,320,-45,18,-7
11495,1992,512,304,-45,16,-6
11500,2000,512,336,-41,17,-6
11505,2000,520,312,-39,18,-4
11510,1992,528,320,-36,17,-6
11515,1984,496,296,-33,18,-6
11520,1976,512,304,-31,19,-8
11525,1976,512,304,-27,21,-6
11530,1968,504,312,-26,20,-7
11535,1992,504,328,-24,20,-7
11540,1976,496,304,-23,20,-7
11545,1968,528,344,-25,19,-7
11550,1968,536,304,-25,19,-8
11555,1992,496,312,-29,21,-9
11560,1960,504,328,-31,23,-9
11565,1992,512,320,-33,22,-9
11570,2072,456,288,-31,21,-8
11575,1976,520,320,-31,25,-9
11580,1936,552,320,-34,33,-11
11585,2016,504,304,-44,36,-10
11590,1960,504,336,-53,31,-14
11595,1960,536,344,-55,26,-8
11600,1984,504,344,-55,23,-6
11605,1976,504,320,-55,23,-8
11610,1984,520,288,-51,24,-10
11615,1984,504,304,-51,25,-11
11620,2008,488,328,-48,27,-10
11625,1984,496,320,-47,28,-12
11630,1976,504,272,-46,29,-13
11635,1984,512,304,-45,29,-11
11640,1992,512,320,-42,28,-12
11645,1992,520,296,-42,29,-12
11650,1976,528,352,-40,29,-12
11655,2008,488,312,-41,28,-13
11660,2000,496,312,-40,27,-14
11665,1992,520,336,-34,25,-12
11670,1984,512,336,-32,23,-11
11675,1992,480,352,-32,23,-9
11680,1984,512,304,-30,22,-10
11685,1936,512,288,-30,22,-10
11690,2008,512,304,-44,17,2
11695,2016,504,296,-50,11,-3
11700,1976,496,296,-47,13,-8
11705,1960,504,384,-38,13,-8
11710,1984,520,352,-34,12,-9
11715,1968,496,304,-33,14,-9
11720,1968,520,320,-34,15,-8
11725,1976,536,304,-35,14,-7
11730,1968,520,320,-36,15,-8
11735,1968,496,336,-36,13,-8
11740,1984,520,336,-37,14,-8
11745,2000,504,328,-39,15,-9
11750,1976,536,280,-41,19,-10
11755,1960,560,336,-47,20,-11
11760,2000,512,344,-48,22,-11
11765,2016,488,328,-47,20,-10
11770,1984,512,360,-44,18,-9
11775,1976,520,344,-41,18,-6
11780,1968,512,328,-38,19,-6
11785,1976,520,344,-38,18,-7
11790,2008,520,312,-38,17,-7
11795,2000,520,320,-38,16,-7
11800,1984,520,320,-37,18,-7
11805,1984,528,336,-38,17,-7
11810,1968,552,376,-35,19,-13
11815,1992,512,304,-30,19,-15
11820,2008,504,328,-29,16,-9
11825,2008,504,344,-30,17,-7
11830,2000,512,320,-36,17,-6
11835,1992,512,328,-40,19,-6
11840,1984,512,304,-41,16,-5
11845,1976,512,312,-39,15,-4
11850,1968,512,296,-37,14,-3
11855,1992,496,312,-43,16,-3
11860,1992,496,304,-49,16,-3
11865,2016,488,384,-48,15,-3
11870,1976,528,320,-46,14,-2
11875,1968,520,296,-43,11,-2
11880,1984,512,328,-42,10,-3
11885,1976,512,328,-42,11,-1
11890,1984,504,320,-45,11,-2
11895,1992,496,320,-45,10,-2
11900,2000,504,320,-43,12,-2
11905,2000,512,336,-42,12,-4
11910,1960,536,328,-38,14,-2
11915,1952,544,360,-35,15,-3
11920,1976,528,312,-31,17,-5
11925,1976,488,336,-31,19,-7
11930,2000,512,336,-28,19,-7
11935,1976,504,336,-29,20,-6
11940,2000,520,352,-29,20,-7
11945,2008,496,304,-28,19,-7
11950,2008,496,344,-31,17,-6
11955,1992,520,336,-31,15,-6
11960,1984,512,336,-33,14,-4
11965,1992,504,296,-34,12,-4
11970,1984,520,304,-34,9,-3
11975,1920,520,280,-35,9,-2
11980,2008,496,312,-42,4,4
11985,2008,528,304,-46,-2,6
11990,2008,536,320,-44,0,4
11995,1984,528,336,-43,4,1
12000,1976,536,312,-39,8,0
12005,1976,512,320,-36,7,0
12010,1984,512,328,-36,8,-2
12015,1976,536,328,-37,10,-3
12020,1992,528,288,-38,11,-4
12025,1968,528,328,-39,11,-4
12030,1992,528,328,-39,10,-5
12035,2016,528,296,-39,9,-3
12040,2008,520,312,-42,9,-5
12045,1992,528,312,-46,11,-6
12050,1992,512,288,-46,12,-4
12055,1992,528,320,-48,14,-5
12060,2000,520,320,-48,15,-5
12065,1992,496,296,-47,18,-4
12070,1992,520,336,-48,21,-5
12075,1984,504,328,-50,21,-6
12080,1992,520,312,-51,22,-6
12085,1984,512,296,-49,22,-8
12090,1992,520,328,-48,23,-5
12095,1976,536,320,-47,20,-5
12100,1976,520,344,-47,21,-2
12105,1992,504,336,-47,20,-2
12110,1992,504,304,-48,19,0
12115,2000,504,360,-48,18,1
12120,2000,488,320,-48,16,2
12125,1984,520,336,-46,17,2
12130,1992,528,304,-46,17,3
12135,1992,520,344,-48,17,4
12140,1976,520,336,-50,18,4
12145,1984,536,312,-50,19,2
12150,2008,552,328,-48,18,3
12155,1992,504,320,-46,17,2
12160,1960,536,352,-50,17,2
12165,1968,520,336,-51,15,3
12170,1992,528,328,-56,14,5
12175,2000,544,304,-60,12,6
12180,1976,512,320,-64,10,7
12185,1968,512,320,-67,10,7
12190,1960,528,312,-71,10,8
12195,1984,520,304,-73,7,11
12200,1976,528,328,-74,6,11
12205,1976,520,320,-74,4,10
12210,1968,528,304,-76,4,9
12215,1984,504,320,-76,5,10
12220,1952,504,344,-74,7,10
12225,2016,504,336,-74,6,9
12230,1968,528,328,-75,6,8
12235,1976,488,344,-75,8,7
12240,1976,512,296,-76,9,6
12245,1976,496,336,-75,11,6
12250,1960,512,344,-75,14,4
12255,1984,512,296,-75,13,3
12260,2000,512,328,-74,16,2
12265,2000,504,320,-74,18,0
12270,1992,520,336,-71,19,0
12275,1992,496,320,-71,18,1
12280,2000,512,304,-67,19,0
12285,2024,496,352,-67,17,1
12290,1984,528,320,-65,16,3
12295,1976,512,344,-65,14,3
12300,1968,536,328,-68,13,5
12305,1992,496,344,-69,11,6
12310,1992,488,320,-70,10,7
12315,1984,504,312,-70,9,7
12320,2008,520,312,-69,10,8
12325,1992,520,312,-67,10,7
12330,1992,496,336,-65,12,6
12335,1984,504,312,-61,17,4
12340,1992,496,320,-61,18,4
12345,2000,504,336,-61,21,3
12350,1992,520,328,-63,21,1
12355,1992,520,320,-63,21,-1
12360,1992,496,328,-65,19,1
12365,1992,504,336,-67,17,1
12370,1976,512,360,-69,15,1
12375,1992,496,352,-71,11,4
12380,1968,520,328,-74,7,4
12385,1992,496,328,-75,2,7
12390,1952,496,344,-74,0,7
12395,2000,464,328,-71,-4,7
12400,1976,496,336,-65,-4,7
12405,2000,464,352,-62,-3,6
12410,1992,496,328,-60,-1,4
12415,2008,488,336,-62,2,4
12420,1976,504,328,-64,3,3
12425,1976,504,296,-68,4,2
12430,1984,496,296,-71,2,3
12435,1992,496,280,-71,3,3
12440,1984,496,312,-73,3,3
12445,1992,512,304,-74,6,0
12450,2000,512,328,-73,9,-2
12455,2024,480,320,-72,12,-3
12460,1984,512,336,-69,16,-1
12465,2000,496,344,-65,16,-2
12470,1992,496,320,-59,15,-3
12475,2000,496,328,-57,15,-2
12480,2008,512,312,-55,14,-3
12485,1984,520,320,-50,13,-1
12490,1984,504,320,-49,11,-1
12495,1984,504,320,-46,11,-1
12500,2000,504,328,-41,13,-1
12505,1992,512,312,-40,15,-2
12510,1976,496,312,-39,16,-2
12515,1992,496,304,-39,19,-2
12520,1984,472,320,-41,20,-2
12525,1992,488,320,-43,20,0
12530,1984,488,312,-44,22,2
12535,2000,520,296,-48,23,3
12540,1960,504,320,-51,25,2
12545,1968,504,320,-52,24,2
12550,1992,504,304,-52,24,1
12555,1976,496,336,-55,24,3
12560,1984,520,320,-58,24,2
12565,2008,488,344,-61,22,3
12570,1992,528,320,-63,22,3
12575,1984,504,328,-65,18,5
12580,2008,496,320,-67,16,6
12585,1992,512,304,-68,15,7
12590,1992,520,320,-70,13,7
12595,1984,512,304,-69,13,8
12600,1992,488,344,-69,14,7
12605,1976,472,312,-70,15,5
12610,1984,496,336,-70,15,6
12615,1984,504,328,-70,17,4
12620,2000,480,328,-69,17,5
12625,1992,504,352,-66,20,3
12630,2000,488,304,-66,20,2
12635,1984,480,312,-64,18,2
12640,2000,496,320,-65,18,2
12645,1984,488,328,-65,16,4
12650,2008,496,344,-63,15,4
12655,1984,488,296,-63,13,5
12660,2008,504,360,-65,11,6
12665,2008,488,344,-66,9,7
12670,2024,488,368,-69,8,7
12675,2000,488,336,-70,6,9
12680,1984,496,336,-73,2,10
12685,1984,528,344,-74,2,11
12690,2000,504,336,-80,2,10
12695,1984,496,304,-80,-1,11
12700,2000,512,344,-81,-3,11
12705,1992,488,328,-83,-1,10
12710,1984,512,368,-85,-1,10
12715,1976,504,320,-90,0,10
12720,1992,496,328,-89,3,11
12725,2016,496,328,-88,2,11
12730,1992,480,312,-83,1,12
12735,1992,488,320,-80,0,12
12740,1992,480,320,-78,3,12
12745,2008,480,296,-78,5,11
12750,2008,496,312,-78,7,11
12755,1984,488,304,-75,8,10
12760,2000,488,344,-73,8,9
12765,1992,488,336,-71,8,8
12770,2008,496,344,-66,8,9
12775,1984,472,304,-57,7,9
12780,1992,472,320,-53,9,9
12785,2008,464,312,-49,9,9
12790,2008,464,336,-47,10,8
12795,2000,464,320,-46,9,8
12800,2016,456,336,-44,8,8
12805,1992,472,304,-42,6,8
12810,1992,480,320,-37,2,11
12815,1992,464,304,-33,2,13
12820,2008,480,328,-30,1,14
12825,2008,480,328,-28,1,14
12830,2008,464,304,-26,2,16
12835,2000,480,288,-23,2,16
12840,2000,488,320,-24,2,17
12845,2016,488,288,-25,3,17
12850,1984,480,296,-29,4,17
12855,2000,504,328,-29,4,17
12860,1992,504,312,-32,7,17
12865,2000,488,312,-34,8,14
12870,2000,480,328,-38,10,14
12875,1976,496,312,-40,12,14
12880,2016,472,328,-42,13,13
12885,1992,504,312,-43,16,13
12890,2000,464,320,-43,18,14
12895,1992,464,304,-44,17,12
12900,1992,488,312,-45,15,13
12905,1992,512,280,-45,15,12
12910,1992,480,288,-47,13,13
12915,1992,480,320,-49,13,13
12920,2000,456,320,-52,13,13
12925,1992,480,312,-49,13,11
12930,1984,464,304,-51,12,9
12935,2000,472,344,-51,13,9
12940,1984,488,344,-52,11,9
12945,1992,488,344,-54,12,6
12950,1984,464,320,-56,14,5
12955,1984,480,312,-57,14,4
12960,2000,464,312,-59,16,4
12965,1984,496,312,-59,16,3
12970,2024,480,304,-58,15,3
12975,1976,480,328,-60,15,4
12980,1984,488,344,-59,16,2
12985,2000,472,336,-58,16,4
12990,1984,472,312,-56,17,3
12995,2008,456,312,-55,14,2
13000,1992,472,312,-52,15,3
13005,2000,488,336,-50,16,4
13010,1992,504,312,-49,16,3
13015,2000,424,328,-46,17,4
13020,2016,480,296,-48,18,4
13025,2000,488,320,-48,19,3
13030,2008,480,280,-46,19,3
13035,2008,496,296,-48,19,2
13040,1984,504,320,-52,18,2
13045,1976,488,312,-54,17,3
13050,1992,480,344,-58,17,3
13055,1992,488,352,-60,15,4
13060,1984,472,368,-64,12,6
13065,1976,496,360,-64,10,8
13070,1992,456,320,-62,5,9
13075,1984,472,328,-58,3,11
13080,2000,480,312,-55,0,13
13085,2008,464,312,-54,1,15
13090,1992,472,296,-56,3,14
13095,2000,456,304,-60,5,13
13100,2000,472,280,-64,7,13
13105,1992,472,312,-70,7,12
13110,1976,464,328,-72,9,11
13115,2000,480,336,-77,9,10
13120,1992,472,312,-75,8,10
13125,2000,424,224,-74,8,10
13130,2000,472,312,-72,10,10
13135,1984,472,296,-72,11,9
13140,1976,504,312,-68,13,10
13145,2016,480,304,-66,16,6
13150,2000,496,288,-64,16,6
13155,2016,480,304,-60,15,4
13160,1976,488,320,-55,12,4
13165,2000,464,328,-54,12,4
13170,2000,472,328,-51,13,4
13175,1984,472,320,-49,13,4
13180,2000,464,304,-49,14,4
13185,2008,496,320,-47,14,4
13190,2008,472,312,-46,14,6
13195,1984,496,296,-49,16,7
13200,2008,480,312,-53,17,6
13205,1992,464,312,-58,18,6
13210,2024,472,320,-62,18,6
13215,1992,472,320,-65,17,7
13220,2000,488,344,-67,16,9
13225,2000,472,328,-69,16,8
13230,2000,480,312,-72,14,9
13235,2000,488,344,-74,12,11
13240,2008,464,328,-73,10,11
13245,2016,456,336,-74,8,12
13250,1992,488,296,-74,8,12
13255,1992,472,336,-74,4,12
13260,2000,464,352,-76,3,13
13265,1992,464,344,-74,3,15
13270,1992,472,352,-74,2,15
13275,1992,464,320,-75,2,15
13280,2008,456,312,-77,3,15
13285,1968,472,296,-77,2,15
13290,1968,456,296,-80,5,14
13295,2016,464,312,-82,7,12
13300,2000,440,336,-84,11,8
13305,2016,464,328,-84,15,9
13310,1984,472,312,-81,16,7
13315,2016,456,320,-80,17,6
13320,2000,480,304,-79,16,5
13325,1984,464,312,-78,16,5
13330,1976,472,328,-78,14,6
13335,2008,464,304,-80,12,6
13340,2000,472,256,-81,9,6
13345,1992,448,328,-81,11,6
13350,2000,448,328,-83,10,6
13355,1992,456,320,-80,10,5
13360,1984,448,312,-76,12,2
13365,1976,448,328,-72,12,2
13370,2016,472,336,-69,13,1
13375,2000,440,320,-65,12,1
13380,1984,464,312,-61,12,1
13385,1992,448,336,-61,11,1
13390,2008,440,328,-58,14,0
13395,2000,472,304,-56,17,-1
13400,2000,448,312,-60,18,-2
13405,1984,488,328,-62,19,-2
13410,2008,456,312,-65,17,-1
13415,2008,472,320,-67,19,0
13420,2000,472,312,-66,18,0
13425,2024,448,296,-66,18,1
13430,2000,440,296,-65,20,0
13435,2016,456,312,-65,22,1
13440,1992,416,296,-63,22,0
13445,2008,456,296,-61,21,0
13450,2008,464,232,-57,21,-2
13455,2000,440,312,-54,22,-2
13460,2008,456,312,-48,21,-1
13465,2008,440,304,-44,21,-2
13470,1984,448,312,-41,22,-3
13475,2024,456,304,-40,23,-4
13480,2000,456,328,-37,22,-5
13485,1992,456,328,-36,24,-6
13490,2008,472,320,-36,26,-7
13495,2008,440,296,-37,28,-8
13500,2008,432,288,-35,30,-8
13505,1984,464,312,-31,31,-9
13510,1992,464,328,-30,35,-10
13515,2000,440,312,-28,38,-10
13520,1984,456,304,-26,39,-13
13525,1992,448,320,-22,41,-15
13530,2008,456,304,-18,42,-15
13535,1976,456,344,-19,43,-18
13540,2000,456,320,-15,43,-18
13545,1968,464,328,-15,43,-18
13550,1984,464,328,-17,43,-18
13555,1992,488,328,-18,43,-18
13560,1976,448,432,-22,41,-17
13565,1976,464,344,-25,38,-17
13570,2000,464,344,-30,39,-16
13575,1992,448,320,-31,38,-16
13580,1992,456,328,-33,35,-17
13585,2008,440,352,-34,35,-18
13590,2008,464,312,-33,34,-18
13595,2008,448,328,-32,33,-18
13600,1992,456,328,-34,34,-16
13605,2008,456,312,-32,33,-16
13610,2008,472,336,-31,34,-16
13615,2000,472,344,-30,33,-18
13620,1992,480,328,-28,34,-19
13625,1992,456,296,-29,34,-20
13630,2000,480,312,-30,36,-23
13635,1984,472,328,-29,36,-24
13640,1992,464,336,-28,38,-24
13645,2000,464,328,-26,40,-25
13650,1960,456,328,-23,41,-26
13655,1976,448,336,-20,42,-26
13660,1976,480,352,-17,41,-28
13665,1984,464,336,-14,40,-27
13670,1992,392,328,-13,40,-26
13675,1984,456,352,-13,37,-26
13680,1992,472,368,-13,34,-25
13685,1976,472,328,-12,31,-22
13690,1984,464,336,-11,29,-21
13695,1984,464,336,-13,28,-18
13700,1976,488,320,-16,27,-18
13705,2016,480,312,-21,28,-18
13710,2000,488,328,-26,28,-17
13715,2016,456,304,-31,27,-16
13720,2024,456,328,-33,27,-15
13725,2000,464,320,-37,27,-17
13730,1984,464,360,-37,27,-16
13735,2008,464,312,-39,29,-17
13740,2016,448,312,-37,28,-18
13745,1984,488,320,-35,32,-19
13750,2000,472,336,-31,33,-20
13755,2008,480,320,-25,34,-21
13760,2008,448,312,-22,35,-20
13765,2000,480,368,-20,36,-19
13770,1976,488,344,-18,35,-20
13775,1992,496,328,-15,33,-19
13780,2056,408,320,-14,32,-17
13785,1976,504,344,-14,29,-15
13790,1976,472,328,-15,26,-14
13795,1976,496,320,-14,22,-11
13800,1984,488,336,-16,20,-10
13805,1976,488,328,-16,18,-9
13810,1984,480,336,-19,18,-10
13815,1984,480,344,-22,20,-11
13820,1968,480,336,-20,21,-11
13825,2008,464,328,-22,24,-11
13830,1976,496,336,-24,27,-11
13835,1992,472,328,-29,28,-13
13840,1968,472,328,-32,30,-14
13845,1984,472,336,-35,32,-13
13850,1992,464,352,-39,34,-14
13855,1984,472,336,-43,34,-14
13860,1984,472,320,-42,31,-12
13865,2000,480,344,-36,29,-12
13870,1960,488,328,-33,27,-12
13875,2000,456,344,-33,28,-13
13880,1992,472,312,-32,27,-11
13885,2000,496,336,-32,29,-12
13890,1992,472,304,-32,30,-13
13895,1984,488,344,-33,28,-14
13900,1992,472,336,-33,27,-13
13905,2016,488,344,-31,28,-13
13910,2000,472,312,-34,29,-14
13915,1984,496,352,-36,31,-15
13920,1976,480,312,-39,32,-16
13925,2000,456,320,-37,33,-15
13930,1976,488,328,-36,33,-14
13935,2016,464,320,-34,33,-15
13940,1976,464,336,-33,33,-15
13945,2000,480,336,-32,36,-16
13950,1992,488,328,-32,35,-16
13955,2000,464,320,-32,34,-17
13960,2000,464,360,-31,35,-17
13965,1984,488,344,-28,32,-15
13970,1984,480,336,-23,32,-15
13975,1984,496,336,-22,29,-14
13980,1976,480,336,-25,28,-15
13985,1984,480,344,-25,27,-14
13990,1984,496,328,-27,25,-14
13995,1992,440,352,-31,26,-14
14000,1968,472,328,-32,26,-14
14005,1984,472,344,-33,24,-14
14010,2000,488,336,-32,23,-14
14015,1976,464,344,-30,23,-16
14020,2000,480,352,-31,26,-16
14025,1984,488,336,-33,28,-17
14030,1992,488,320,-33,31,-19
14035,1992,480,296,-37,33,-19
14040,2000,496,344,-39,35,-20
14045,2008,488,344,-39,34,-18
14050,1984,480,368,-40,32,-16
14055,2000,472,376,-39,28,-14
14060,2000,480,360,-37,27,-13
14065,1992,488,360,-36,25,-10
14070,1992,488,328,-34,24,-9
14075,2008,496,328,-34,23,-8
14080,1976,480,352,-30,20,-7
14085,1992,480,312,-30,17,-6
14090,1992,488,304,-28,17,-7
14095,2000,480,320,-28,14,-6
14100,1976,496,312,-30,12,-7
14105,1992,496,216,-29,13,-6
14110,1976,472,328,-29,16,-7
14115,1960,488,360,-30,15,-7
14120,1968,488,352,-30,18,-8
14125,1968,496,336,-30,22,-10
14130,1944,488,320,-29,25,-11
14135,1968,496,312,-29,29,-14
14140,1976,488,352,-30,31,-17
14145,1984,496,360,-30,31,-17
14150,1976,504,352,-29,31,-16
14155,1984,480,336,-28,28,-16
14160,1992,480,360,-28,27,-14
14165,1992,488,328,-27,25,-14
14170,1976,488,328,-24,27,-12
14175,2000,488,352,-23,26,-11
14180,2000,488,328,-21,23,-11
14185,1968,504,352,-23,23,-10
14190,1976,496,352,-24,24,-10
14195,1976,496,336,-23,23,-11
14200,2000,496,336,-23,24,-10
14205,1960,496,352,-25,25,-9
14210,1984,496,328,-27,23,-9
14215,2008,536,336,-27,25,-9
14220,1992,488,384,-27,24,-8
14225,2000,472,352,-29,21,-7
14230,2008,480,320,-30,20,-7
14235,1992,488,328,-31,21,-5
14240,1992,480,344,-33,20,-5
14245,1992,480,336,-33,17,-6
14250,1968,480,344,-34,14,-6
14255,1992,480,352,-34,12,-7
14260,1976,496,336,-30,10,-6
14265,1952,480,320,-27,7,-8
14270,1976,472,336,-24,6,-9
14275,1968,496,328,-22,7,-8
14280,2000,472,360,-21,8,-10
14285,1992,504,320,-21,11,-12
14290,1968,504,288,-21,15,-14
14295,1960,488,320,-21,17,-15
14300,1984,496,320,-21,21,-15
14305,2000,464,344,-21,24,-16
14310,1976,480,328,-24,24,-17
14315,1992,480,328,-21,25,-17
14320,1976,488,360,-22,25,-17
14325,1992,536,288,-26,25,-15
14330,1992,512,336,-29,27,-14
14335,1976,504,352,-31,27,-13
14340,1984,480,336,-31,24,-11
14345,1984,528,344,-34,21,-10
14350,1984,504,344,-34,15,-7
14355,1992,488,352,-31,11,-6
14360,1984,520,336,-31,7,-3
14365,1968,528,352,-31,3,-3
14370,1984,512,336,-32,3,-1
14375,1968,480,336,-34,1,-2
14380,1984,496,344,-36,0,-3
14385,1976,520,328,-37,-2,-2
14390,1992,488,328,-41,-3,-3
14395,1976,496,352,-45,-2,-4
14400,1976,504,360,-46,0,-3
14405,1992,496,352,-45,0,-4
14410,1992,472,328,-47,3,-6
14415,1976,512,320,-45,5,-6
14420,1968,504,384,-45,6,-7
14425,1984,496,368,-47,7,-7
14430,1984,496,304,-47,8,-7
14435,1976,504,336,-44,9,-7
14440,1984,528,328,-46,9,-7
14445,1992,504,304,-46,10,-7
14450,2000,488,320,-47,11,-7
14455,1984,504,328,-47,12,-6
14460,1968,504,320,-47,13,-7
14465,1992,496,312,-45,13,-7
14470,2008,480,344,-44,14,-7
14475,2000,504,320,-40,14,-7
14480,1992,496,328,-38,16,-7
14485,1984,472,360,-34,15,-5
14490,2008,488,360,-30,16,-4
14495,2000,488,320,-28,15,-6
14500,1992,480,344,-28,16,-5
14505,1992,488,368,-27,14,-5
14510,2016,480,344,-23,11,-4
14515,1992,488,320,-22,11,-4
14520,2000,480,312,-22,10,-4
14525,2000,488,304,-22,10,-2
14530,1984,472,336,-20,9,-2
14535,2000,496,312,-19,10,-1
14540,2000,480,344,-20,9,-2
14545,1968,504,336,-19,9,-2
14550,2008,464,352,-22,8,-1
14555,1984,496,320,-26,8,-1
14560,1984,488,336,-29,7,-1
14565,1992,488,312,-30,7,-1
14570,1984,480,336,-31,7,-1
14575,1984,496,344,-28,9,-2
14580,1976,496,344,-28,11,-4
14585,1960,520,328,-31,12,-4
14590,2000,496,360,-32,11,-4
14595,1984,488,344,-33,12,-6
14600,1968,512,312,-34,12,-6
14605,2016,496,320,-32,11,-8
14610,1976,504,336,-34,11,-8
14615,1976,504,352,-35,13,-8
14620,1976,496,352,-35,14,-9
14625,2000,488,312,-35,15,-10
14630,1992,504,336,-35,16,-11
14635,1992,504,320,-30,18,-11
14640,1984,504,328,-25,20,-9
14645,1992,504,328,-25,21,-10
14650,1992,512,360,-20,22,-10
14655,1992,504,336,-19,23,-12
14660,1968,520,320,-14,22,-11
14665,1984,512,312,-12,19,-10
14670,1992,472,328,-9,18,-11
14675,1984,504,312,-5,15,-11
14680,1960,496,328,-5,12,-11
14685,1984,504,312,-7,12,-9
14690,2000,488,352,-8,12,-7
14695,2000,472,336,-6,12,-8
14700,1944,488,344,-5,11,-8
14705,1976,480,304,-4,11,-7
14710,1984,496,296,-2,14,-7
14715,1984,496,320,-1,14,-8
14720,2008,496,344,-2,16,-9
14725,1984,488,336,-2,17,-9
14730,1984,512,352,-2,17,-9
14735,1984,504,352,-3,18,-10
14740,1976,504,304,-2,18,-11
14745,1992,512,336,-4,17,-10
14750,2000,496,336,-7,17,-11
14755,1976,496,320,-7,17,-11
14760,1960,512,304,-7,17,-10
14765,1984,496,336,-10,17,-11
14770,1968,504,328,-12,16,-9
14775,2000,488,328,-12,17,-8
14780,1984,504,320,-10,16,-8
14785,1984,472,336,-10,14,-6
14790,1992,512,320,-10,16,-6
14795,1968,488,328,-13,15,-8
14800,1984,480,312,-12,16,-6
14805,2000,480,352,-12,14,-5
14810,2008,528,312,-9,9,-3
14815,1984,488,320,-1,6,-5
14820,1992,512,328,2,9,-7
14825,1992,504,336,5,11,-10
14830,2024,488,328,8,14,-12
14835,2000,512,320,11,15,-15
14840,2000,504,304,12,17,-17
14845,1992,512,320,11,18,-17
14850,1968,520,320,8,19,-17
14855,1984,536,328,2,25,-18
14860,1968,520,336,-2,27,-18
14865,1992,536,352,-4,28,-20
14870,1984,504,304,-8,31,-18
14875,1984,536,352,-10,36,-19
14880,1976,536,352,-9,35,-19
14885,1976,520,344,-9,33,-17
14890,1984,520,344,-9,31,-18
14895,1976,528,344,-6,30,-18
14900,1944,504,320,-4,27,-19
14905,2032,488,312,-7,25,-12
14910,2096,472,336,-9,19,-5
14915,1944,528,296,-1,20,-9
14920,1936,520,336,4,20,-9
14925,1992,504,320,9,17,-7
14930,1984,520,336,6,14,-6
14935,1944,512,336,0,14,-7
14940,1976,528,352,-11,13,-6
14945,1992,520,344,-14,10,-8
14950,1984,544,328,-15,12,-10
14955,2000,512,328,-16,15,-11
14960,1984,520,304,-16,13,-10
14965,1984,496,336,-12,11,-10
14970,1984,496,344,-12,10,-7
14975,2000,528,304,-13,11,-7
14980,1976,528,344,-13,11,-8
14985,1968,544,336,-16,10,-5
14990,1984,512,328,-16,10,-5
14995,1984,520,328,-17,10,-5
