timestamp,accel_x,accel_y,accel_z,gyro_x,gyro_y,gyro_z
0,56,-2040,80,-17,68,-1
5,24,-2064,64,-18,67,0
10,0,-2040,72,-22,68,-3
15,8,-2040,80,-22,68,-2
20,40,-2048,64,-21,67,-5
25,64,-2072,104,-23,69,-3
30,72,-2000,128,-22,68,-6
35,32,-2032,56,-23,68,-4
40,24,-2048,72,-22,68,-5
45,16,-2032,72,-19,69,-2
50,16,-2024,96,-17,69,-4
55,40,-2032,72,-17,70,1
60,8,-2016,64,-14,68,-1
65,16,-2008,72,-11,67,1
70,16,-2040,72,-8,66,0
75,0,-2016,88,-5,66,3
80,32,-2016,80,-2,64,2
85,8,-2040,40,0,62,5
90,-8,-2032,88,1,59,2
95,-8,-2040,80,3,56,4
100,0,-2032,72,4,54,0
105,0,-2056,80,3,52,2
110,16,-2040,64,4,50,-1
115,-16,-2024,72,6,48,-1
120,8,-2064,96,6,46,-4
125,8,-2048,104,5,46,-4
130,8,-2048,96,7,46,-8
135,0,-2032,80,8,45,-7
140,16,-2056,104,8,44,-10
145,32,-2048,112,8,44,-10
150,8,-2056,88,11,47,-13
155,24,-2064,120,11,46,-9
160,24,-2040,112,12,44,-12
165,0,-2040,88,12,43,-8
170,40,-2064,88,12,43,-10
175,0,-2040,96,9,41,-8
180,24,-2064,112,6,40,-9
185,48,-2056,96,3,40,-6
190,24,-2048,112,0,39,-8
195,32,-2024,120,-2,40,-5
200,40,-2032,80,-3,39,-7
205,40,-2048,88,-6,40,-5
210,24,-2040,104,-7,40,-8
215,16,-2016,96,-8,41,-7
220,16,-2024,104,-6,44,-10
225,24,-2032,80,-6,47,-9
230,8,-2040,104,-5,51,-13
235,8,-2032,112,-4,54,-12
240,24,-2056,80,-3,56,-16
245,16,-2048,96,-3,57,-14
250,0,-2000,136,-2,59,-17
255,24,-2016,136,-2,62,-16
260,0,-2024,128,-3,63,-19
265,24,-2000,104,-4,63,-17
270,16,-2008,112,-6,62,-20
275,16,-2000,96,-5,62,-18
280,24,-2008,152,-5,62,-21
285,40,-2024,128,-5,62,-18
290,32,-2008,136,-6,61,-21
295,16,-2008,96,-4,63,-17
300,40,-2008,104,-3,61,-18
305,48,-2008,160,-3,63,-14
310,40,-2016,80,-2,63,-17
315,48,-2016,112,-3,64,-15
320,64,-2016,120,-3,66,-16
325,48,-2016,104,-3,70,-16
330,48,-2024,120,-3,72,-19
335,48,-2000,128,-2,74,-18
340,40,-1992,112,-4,76,-23
345,48,-1992,144,-5,80,-21
350,64,-2008,152,-7,83,-23
355,72,-2016,96,-7,86,-24
360,56,-2032,144,-5,89,-27
365,48,-2016,136,-6,92,-24
370,40,-2016,112,-6,97,-29
375,56,-2024,104,-7,98,-27
380,48,-2024,128,-10,100,-30
385,64,-2040,104,-10,102,-27
390,40,-2000,88,-11,105,-29
395,40,-2024,128,-15,105,-26
400,16,-2016,160,-18,105,-28
405,32,-2000,136,-21,104,-25
410,32,-2024,136,-24,104,-27
415,24,-2008,104,-28,105,-25
420,8,-2016,80,-37,106,-26
425,16,-2008,96,-43,104,-24
430,0,-2000,112,-48,103,-26
435,-16,-1976,112,-54,102,-25
440,-8,-2000,88,-59,101,-26
445,0,-2016,64,-63,100,-25
450,-16,-2016,72,-66,98,-28
455,-8,-2024,80,-68,95,-25
460,-24,-2016,72,-69,93,-27
465,-32,-2008,72,-69,91,-24
470,8,-2024,104,-68,87,-26
475,-24,-2024,72,-69,84,-21
480,-8,-2032,88,-69,80,-23
485,0,-2040,80,-69,77,-20
490,-8,-2040,64,-68,76,-21
495,0,-2056,72,-67,72,-18
500,8,-2064,64,-69,69,-19
505,8,-2048,72,-68,66,-16
510,-16,-2032,56,-67,65,-18
515,8,-2056,64,-66,63,-16
520,16,-2040,56,-64,63,-18
525,-8,-2040,64,-62,61,-16
530,0,-2056,72,-61,61,-19
535,16,-2048,88,-61,59,-16
540,24,-2056,64,-61,58,-17
545,24,-2056,80,-61,56,-15
550,24,-2040,88,-61,55,-18
555,16,-2040,72,-63,52,-16
560,-8,-2032,72,-64,50,-18
565,8,-2040,64,-63,49,-16
570,16,-2040,72,-65,48,-17
575,16,-2032,48,-66,47,-15
580,8,-2000,96,-67,46,-18
585,16,-2024,64,-67,45,-16
590,32,-2032,64,-69,43,-19
595,24,-2016,80,-71,41,-18
600,48,-2032,64,-73,38,-22
605,0,-2040,56,-74,36,-21
610,8,-2024,64,-76,35,-25
615,24,-2024,64,-77,34,-25
620,40,-2032,88,-80,32,-30
625,56,-2032,64,-82,30,-30
630,56,-2032,80,-82,30,-35
635,24,-2016,72,-83,31,-36
640,48,-2000,64,-84,32,-40
645,64,-2040,64,-84,36,-39
650,48,-2040,24,-84,39,-44
655,72,-2032,48,-84,42,-45
660,40,-2032,64,-85,46,-47
665,56,-2048,80,-85,49,-45
670,56,-2024,64,-85,53,-47
675,40,-2048,56,-85,55,-44
680,32,-2032,72,-86,57,-44
685,56,-2064,72,-87,58,-40
690,40,-2056,64,-90,59,-41
695,16,-2040,72,-92,58,-36
700,40,-2040,56,-92,59,-35
705,8,-2048,80,-92,59,-31
710,24,-2040,64,-93,59,-32
715,16,-2048,64,-91,58,-25
720,32,-2056,40,-89,54,-26
725,40,-2008,72,-89,52,-24
730,24,-2040,48,-88,52,-27
735,8,-2064,56,-88,47,-28
740,24,-2064,48,-89,44,-31
745,40,-2072,64,-90,41,-32
750,32,-2072,64,-90,37,-38
755,32,-2064,64,-90,34,-41
760,48,-2088,72,-90,32,-46
765,48,-2080,80,-89,28,-48
770,56,-2072,72,-86,23,-55
775,48,-2088,64,-83,23,-59
780,80,-2120,88,-81,21,-66
785,64,-2120,80,-79,20,-70
790,64,-2096,64,-78,20,-76
795,56,-2096,88,-76,21,-78
800,88,-2128,80,-76,20,-82
805,96,-2112,96,-76,24,-84
810,80,-2112,88,-77,26,-89
815,88,-2104,72,-80,29,-89
820,72,-2104,64,-82,31,-94
825,88,-2088,80,-86,35,-95
830,104,-2120,64,-88,40,-101
835,104,-2088,64,-88,45,-106
840,104,-2080,48,-88,52,-112
845,144,-2072,80,-87,58,-115
850,120,-2064,72,-85,65,-124
855,144,-2080,80,-82,70,-130
860,144,-2064,80,-79,74,-140
865,160,-2048,96,-76,77,-146
870,160,-2032,80,-73,80,-156
875,200,-2056,96,-72,84,-160
880,208,-2056,88,-74,89,-171
885,200,-2048,104,-73,93,-177
890,208,-2024,104,-75,101,-188
895,192,-2056,96,-75,108,-194
900,216,-2016,96,-77,119,-201
905,224,-2016,72,-78,129,-206
910,224,-2032,88,-80,144,-214
915,216,-2024,72,-83,156,-216
920,216,-2016,56,-88,170,-223
925,216,-2016,64,-91,186,-225
930,200,-2040,48,-93,201,-229
935,224,-1992,16,-95,216,-232
940,200,-1984,40,-94,232,-239
945,216,-1960,24,-94,249,-241
950,216,-1960,24,-91,263,-246
955,248,-1952,-8,-89,275,-248
960,272,-1928,-16,-85,287,-250
965,280,-1920,-48,-84,297,-249
970,280,-1856,-64,-83,308,-251
975,320,-1824,-88,-84,319,-246
980,360,-1808,-128,-89,331,-243
985,344,-1760,-176,-100,344,-237
990,376,-1712,-152,-114,359,-232
995,384,-1656,-216,-136,384,-221
1000,432,-1592,-224,-170,407,-213
1005,456,-1536,-208,-205,432,-203
1010,488,-1480,-216,-242,457,-198
1015,560,-1400,-168,-285,484,-187
1020,608,-1368,-168,-326,516,-180
1025,688,-1256,-144,-367,550,-167
1030,776,-1264,-112,-412,593,-150
1035,840,-1248,-72,-444,636,-124
1040,912,-1280,-16,-450,684,-95
1045,912,-1304,32,-431,739,-47
1050,936,-1408,80,-376,808,-5
1055,920,-1496,96,-309,867,35
1060,816,-1576,176,-231,921,67
1065,728,-1728,216,-156,963,93
1070,640,-1872,208,-92,995,107
1075,536,-2000,232,-50,1016,114
1080,456,-2144,224,-30,1029,110
1085,344,-2296,240,-33,1033,103
1090,216,-2456,184,-57,1024,87
1095,104,-2584,200,-100,1012,79
1100,-24,-2712,128,-150,997,71
1105,-96,-2792,128,-200,983,63
1110,-112,-2896,104,-228,966,50
1115,-176,-2952,56,-244,941,35
1120,-264,-3000,24,-254,917,16
1125,-336,-2976,-16,-257,893,1
1130,-368,-2920,-104,-249,874,-14
1135,-376,-2792,-96,-233,866,-24
1140,-344,-2680,-88,-204,861,-34
1145,-296,-2560,-72,-171,861,-34
1150,-264,-2376,-48,-135,862,-33
1155,-200,-2280,-16,-102,864,-21
1160,-152,-2128,8,-66,866,-10
1165,-88,-2024,104,-35,865,6
1170,-24,-1920,120,-10,861,21
1175,32,-1848,176,12,853,37
1180,80,-1792,240,27,843,51
1185,128,-1776,280,33,829,68
1190,144,-1728,304,30,810,76
1195,208,-1744,336,24,788,82
1200,208,-1768,352,10,766,85
1205,224,-1760,384,-6,748,88
1210,208,-1768,408,-27,727,83
1215,184,-1808,416,-47,713,75
1220,184,-1888,352,-62,699,60
1225,152,-1928,360,-78,693,46
1230,96,-1944,312,-102,694,32
1235,80,-1944,328,-127,691,19
1240,80,-1952,288,-154,692,6
1245,32,-1992,288,-181,702,-6
1250,24,-1968,192,-215,707,-18
1255,-48,-1976,224,-244,701,-20
1260,-56,-1976,256,-267,688,-9
1265,8,-2008,216,-289,675,1
1270,-16,-1976,208,-306,660,6
1275,-8,-1960,200,-326,642,14
1280,24,-1952,184,-350,622,17
1285,40,-1944,168,-375,599,19
1290,88,-1920,144,-403,573,13
1295,112,-1920,120,-432,545,6
1300,152,-1912,112,-459,514,-9
1305,152,-1888,88,-483,488,-27
1310,216,-1904,80,-505,466,-52
1315,248,-1888,80,-529,444,-73
1320,248,-1872,80,-540,432,-93
1325,280,-1856,40,-548,426,-110
1330,320,-1840,56,-555,427,-128
1335,328,-1848,8,-562,429,-141
1340,376,-1832,8,-573,438,-152
1345,392,-1832,0,-583,446,-161
1350,392,-1832,32,-591,456,-171
1355,400,-1832,16,-599,469,-177
1360,408,-1872,32,-605,484,-183
1365,400,-1864,24,-607,503,-187
1370,392,-1880,-24,-607,518,-188
1375,384,-1888,-24,-605,531,-189
1380,376,-1944,40,-604,545,-190
1385,344,-1984,8,-607,557,-190
1390,320,-2000,-16,-601,564,-193
1395,272,-2032,-16,-598,570,-197
1400,264,-2064,16,-597,571,-201
1405,248,-2064,-24,-599,572,-206
1410,200,-2088,24,-611,575,-218
1415,200,-2096,0,-625,571,-225
1420,176,-2112,24,-638,559,-227
1425,160,-2112,48,-641,542,-229
1430,200,-2112,56,-643,524,-232
1435,192,-2088,80,-646,506,-234
1440,216,-2080,80,-651,494,-239
1445,264,-2080,128,-655,485,-247
1450,248,-2024,104,-661,478,-258
1455,280,-2008,120,-668,474,-265
1460,312,-2024,168,-665,462,-273
1465,312,-1984,152,-653,454,-279
1470,336,-1960,192,-640,448,-286
1475,384,-1976,224,-617,445,-293
1480,384,-1936,192,-593,442,-296
1485,376,-1952,224,-559,439,-301
1490,400,-1960,256,-520,438,-301
1495,392,-2016,256,-475,433,-298
1500,392,-2024,224,-421,428,-293
1505,400,-2024,240,-368,426,-286
1510,384,-2072,288,-317,428,-274
1515,368,-2080,232,-264,423,-252
1520,384,-2080,200,-206,415,-222
1525,400,-2112,160,-144,407,-198
1530,392,-2120,160,-105,399,-170
1535,408,-2128,136,-76,396,-142
1540,408,-2128,64,-52,387,-115
1545,424,-2136,64,-39,379,-88
1550,432,-2144,40,-36,370,-62
1555,432,-2160,24,-36,356,-39
1560,424,-2160,-48,-33,341,-19
1565,424,-2184,-64,-32,319,-1
1570,408,-2200,-88,-29,294,15
1575,416,-2224,-160,-28,262,33
1580,416,-2248,-200,-31,238,49
1585,432,-2272,-336,-40,220,58
1590,432,-2328,-424,-63,211,64
1595,456,-2456,-440,-87,210,61
1600,472,-2608,-456,-103,210,53
1605,496,-2856,-520,-89,203,40
1610,488,-3064,-544,-52,191,29
1615,536,-3184,-616,-2,182,23
1620,560,-3384,-712,49,180,31
1625,600,-3512,-792,90,186,50
1630,592,-3608,-824,136,189,79
1635,536,-3656,-856,178,191,103
1640,448,-3664,-848,216,199,116
1645,328,-3592,-904,239,210,114
1650,248,-3488,-872,248,216,107
1655,136,-3256,-880,247,215,110
1660,48,-3016,-872,242,207,135
1665,-8,-2824,-864,240,194,167
1670,-48,-2616,-872,239,178,197
1675,-72,-2440,-880,227,161,225
1680,-96,-2248,-832,201,139,259
1685,-96,-2080,-800,158,117,285
1690,-96,-1952,-744,123,93,309
1695,-96,-1816,-688,98,67,322
1700,-96,-1704,-672,87,41,328
1705,-72,-1608,-624,84,15,322
1710,-72,-1536,-600,83,-11,317
1715,-88,-1448,-576,79,-38,302
1720,-88,-1392,-552,74,-61,287
1725,-96,-1344,-552,65,-84,270
1730,-128,-1304,-544,55,-106,252
1735,-144,-1288,-512,49,-132,239
1740,-104,-1240,-496,46,-152,228
1745,-112,-1208,-488,46,-167,216
1750,-128,-1248,-472,53,-182,207
1755,-104,-1264,-496,69,-194,194
1760,-112,-1352,-464,96,-203,186
1765,-88,-1408,-480,126,-213,177
1770,-88,-1480,-496,162,-224,175
1775,-40,-1576,-496,196,-235,177
1780,-16,-1656,-480,230,-244,184
1785,32,-1752,-472,256,-247,194
1790,88,-1864,-496,281,-244,203
1795,96,-1896,-512,298,-237,212
1800,136,-1984,-480,313,-224,223
1805,184,-2000,-480,324,-206,233
1810,184,-2032,-488,332,-181,244
1815,240,-2072,-464,340,-149,254
1820,288,-2096,-448,345,-111,266
1825,320,-2112,-448,347,-70,275
1830,368,-2104,-424,345,-29,282
1835,384,-2096,-384,342,17,281
1840,384,-2096,-408,330,71,278
1845,416,-2096,-360,321,111,268
1850,408,-2064,-328,313,148,258
1855,400,-2024,-344,305,182,241
1860,392,-1952,-336,296,214,223
1865,408,-1904,-312,282,243,199
1870,392,-1832,-280,266,269,175
1875,344,-1784,-320,249,290,149
1880,320,-1736,-312,228,309,126
1885,288,-1664,-296,211,327,105
1890,224,-1624,-272,197,346,84
1895,184,-1592,-264,181,358,69
1900,168,-1584,-288,173,371,64
1905,104,-1544,-232,169,385,60
1910,56,-1576,-240,170,397,66
1915,56,-1584,-200,177,409,71
1920,-24,-1592,-224,188,417,83
1925,-32,-1632,-208,200,421,96
1930,-64,-1680,-152,214,425,113
1935,-88,-1744,-152,229,423,128
1940,-136,-1760,-104,247,415,149
1945,-104,-1848,-96,266,406,163
1950,-136,-1904,-80,277,395,176
1955,-144,-1944,-56,285,382,184
1960,-160,-1976,-48,290,366,193
1965,-144,-2040,-24,296,346,195
1970,-152,-2056,-48,295,326,197
1975,-120,-2064,-40,292,304,196
1980,-104,-2072,-24,287,283,195
1985,-96,-2104,-16,282,262,189
1990,-80,-2112,0,268,244,182
1995,-88,-2096,16,248,220,171
2000,-72,-2080,32,229,203,161
2005,-56,-2064,32,204,190,145
2010,-72,-2032,56,179,178,130
2015,-24,-2008,40,154,173,108
2020,-40,-1976,56,135,171,89
2025,-16,-1968,64,115,170,70
2030,-16,-1896,72,95,171,55
2035,16,-1904,80,82,177,34
2040,0,-1840,88,76,189,13
2045,-80,-1824,176,78,200,-10
2050,-48,-1800,168,123,160,17
2055,112,-1760,32,138,151,20
2060,0,-1752,80,105,207,-23
2065,32,-1752,120,92,242,-57
2070,32,-1696,120,95,270,-78
2075,32,-1728,112,97,295,-96
2080,40,-1712,168,100,313,-103
2085,40,-1728,96,102,327,-112
2090,32,-1736,184,106,340,-118
2095,16,-1712,152,112,349,-130
2100,0,-1744,120,119,357,-139
2105,16,-1792,168,127,365,-152
2110,24,-1816,168,138,372,-161
2115,32,-1848,200,151,379,-176
2120,24,-1848,168,164,384,-186
2125,16,-1880,176,175,390,-203
2130,-24,-1896,168,180,393,-216
2135,-24,-1912,176,178,396,-234
2140,8,-1912,152,172,399,-246
2145,-32,-1936,152,161,402,-263
2150,-16,-1904,120,148,404,-276
2155,8,-1888,112,122,407,-290
2160,40,-1904,176,98,413,-297
2165,40,-1896,208,74,417,-304
2170,64,-1880,200,54,420,-299
2175,64,-1904,248,35,425,-296
2180,72,-1880,272,20,428,-277
2185,136,-1896,328,13,429,-258
2190,96,-1904,312,7,430,-232
2195,112,-1912,304,8,426,-208
2200,160,-1984,320,6,422,-175
2205,136,-1976,320,3,417,-157
2210,152,-2000,288,-3,408,-134
2215,128,-2032,248,-14,399,-113
2220,64,-2072,224,-33,383,-86
2225,72,-2120,224,-55,362,-56
2230,48,-2144,128,-84,341,-27
2235,-16,-2208,96,-112,321,-1
2240,-16,-2320,64,-137,300,33
2245,-80,-2424,48,-152,289,58
2250,-80,-2536,-8,-146,287,83
2255,-96,-2632,-40,-131,293,99
2260,-128,-2704,-72,-129,288,107
2265,-160,-2776,-48,-138,267,108
2270,-184,-2824,-56,-160,228,116
2275,-160,-2880,-48,-191,176,123
2280,-184,-2920,0,-226,112,140
2285,-120,-2952,-24,-256,39,155
2290,-96,-2960,32,-276,-24,164
2295,-272,-2888,232,-276,-85,161
2300,-296,-2776,64,-241,-183,198
2305,208,-2840,-160,-194,-285,246
2310,296,-2832,-208,-173,-268,179
2315,152,-2744,-176,-172,-201,100
2320,176,-2672,-264,-159,-161,69
2325,120,-2584,-320,-148,-131,60
2330,64,-2496,-416,-149,-109,73
2335,16,-2424,-456,-158,-85,89
2340,8,-2360,-488,-162,-58,111
2345,0,-2328,-480,-155,-25,135
2350,-8,-2288,-528,-133,8,157
2355,32,-2248,-512,-98,44,176
2360,48,-2208,-552,-55,96,197
2365,56,-2176,-584,-6,137,205
2370,80,-2120,-600,28,175,213
2375,72,-2096,-632,50,207,210
2380,64,-2064,-648,64,237,205
2385,104,-2040,-672,69,267,188
2390,168,-1992,-696,67,295,169
2395,200,-1960,-680,62,323,140
2400,256,-1920,-704,56,349,111
2405,320,-1912,-736,46,372,74
2410,376,-1832,-736,30,395,38
2415,448,-1792,-744,7,421,6
2420,464,-1744,-736,-11,442,-16
2425,496,-1680,-752,-31,463,-42
2430,592,-1624,-704,-45,484,-58
2435,616,-1568,-688,-58,502,-74
2440,616,-1536,-648,-65,514,-81
2445,624,-1544,-656,-68,530,-88
2450,608,-1536,-600,-64,546,-88
2455,560,-1528,-552,-60,560,-87
2460,504,-1584,-568,-58,570,-80
2465,408,-1592,-512,-57,577,-73
2470,360,-1640,-472,-57,574,-63
2475,280,-1704,-456,-56,565,-56
2480,152,-1728,-416,-57,549,-46
2485,72,-1792,-368,-57,526,-43
2490,-8,-1856,-336,-54,494,-36
2495,-88,-1904,-336,-50,456,-36
2500,-136,-1944,-312,-43,416,-33
2505,-216,-1984,-272,-30,371,-36
2510,-256,-2040,-232,-15,324,-34
2515,-304,-2072,-256,7,276,-36
2520,-336,-2080,-248,32,215,-34
2525,-376,-2136,-256,55,164,-37
2530,-408,-2168,-256,74,111,-38
2535,-416,-2184,-272,94,57,-46
2540,-432,-2168,-264,112,4,-50
2545,-392,-2192,-296,125,-48,-58
2550,-400,-2184,-304,136,-100,-61
2555,-360,-2120,-320,142,-149,-65
2560,-296,-2136,-296,143,-196,-64
2565,-216,-2088,-304,142,-237,-66
2570,-160,-2072,-304,135,-280,-62
2575,-96,-2040,-296,125,-309,-61
2580,-64,-2008,-272,114,-330,-57
2585,-8,-1984,-280,107,-350,-55
2590,64,-1912,-248,101,-369,-48
2595,80,-1880,-256,98,-382,-45
2600,160,-1856,-208,98,-391,-39
2605,192,-1832,-200,95,-393,-38
2610,184,-1776,-184,91,-392,-31
2615,224,-1784,-128,94,-396,-29
2620,216,-1768,-152,98,-400,-23
2625,256,-1752,-104,97,-399,-21
2630,280,-1744,-104,92,-394,-21
2635,280,-1760,-80,81,-382,-26
2640,248,-1768,-32,72,-374,-26
2645,248,-1752,-24,64,-373,-25
2650,272,-1744,-8,51,-370,-22
2655,256,-1760,8,36,-371,-26
2660,240,-1744,16,14,-364,-28
2665,272,-1776,24,-13,-356,-39
2670,224,-1784,56,-41,-350,-50
2675,208,-1800,16,-67,-345,-60
2680,208,-1808,32,-99,-342,-60
2685,184,-1808,40,-126,-338,-66
2690,136,-1824,32,-150,-341,-66
2695,160,-1848,48,-170,-348,-70
2700,96,-1864,56,-184,-361,-70
2705,80,-1888,56,-198,-376,-70
2710,80,-1912,40,-209,-397,-63
2715,8,-1880,56,-222,-415,-65
2720,48,-1928,80,-221,-438,-56
2725,-40,-1936,112,-210,-451,-63
2730,-64,-1920,72,-198,-487,-46
2735,-64,-1944,64,-183,-525,-33
2740,-88,-1920,16,-168,-551,-21
2745,-88,-1944,64,-156,-573,-15
2750,-96,-1912,32,-146,-594,-5
2755,-72,-1904,16,-138,-606,-2
2760,32,-1896,0,-146,-603,-8
2765,-240,-1864,144,-170,-573,-65
2770,-208,-1920,152,-184,-598,-39
2775,-104,-1920,96,-142,-651,28
2780,-96,-1904,120,-97,-679,69
2785,-48,-1888,80,-65,-692,88
2790,-24,-1856,104,-51,-692,104
2795,8,-1824,112,-43,-687,116
2800,32,-1800,136,-36,-679,129
2805,72,-1824,160,-28,-669,135
2810,88,-1808,152,-19,-660,145
2815,120,-1816,168,-8,-648,150
2820,120,-1816,176,2,-636,157
2825,152,-1824,184,12,-624,157
2830,152,-1824,192,21,-614,162
2835,152,-1832,208,33,-601,164
2840,168,-1832,184,44,-590,168
2845,160,-1856,256,53,-581,168
2850,168,-1872,264,66,-574,170
2855,136,-1872,264,80,-566,169
2860,144,-1944,272,94,-558,165
2865,160,-1976,224,105,-546,156
2870,168,-2024,248,113,-531,145
2875,184,-2048,256,115,-514,131
2880,176,-2096,272,110,-496,119
2885,184,-2120,224,103,-472,101
2890,176,-2144,248,86,-452,82
2895,176,-2160,256,71,-438,67
2900,480,-2152,152,54,-427,47
2905,96,-2096,264,8,-376,-40
2910,-32,-2168,312,-30,-375,-38
2915,24,-2200,248,-20,-421,19
2920,40,-2184,272,13,-459,59
2925,40,-2128,192,32,-485,73
2930,112,-2096,176,27,-505,91
2935,136,-2088,168,10,-507,93
2940,144,-2104,96,-26,-484,83
2945,208,-2128,72,-60,-453,63
2950,240,-2184,72,-87,-409,38
2955,296,-2280,8,-108,-363,8
2960,304,-2328,-16,-121,-319,-22
2965,328,-2416,-64,-122,-278,-56
2970,360,-2536,-104,-109,-244,-84
2975,408,-2584,-176,-78,-216,-117
2980,440,-2640,-248,-50,-184,-149
2985,464,-2688,-296,-33,-133,-182
2990,488,-2752,-328,-31,-55,-214
2995,488,-2776,-360,-39,19,-242
3000,480,-2800,-296,-38,94,-264
3005,472,-2816,-296,-30,160,-278
3010,448,-2840,-312,-13,219,-282
3015,416,-2864,-328,10,264,-281
3020,368,-2880,-344,37,299,-276
3025,288,-2840,-344,66,318,-268
3030,224,-2856,-368,94,325,-251
3035,120,-2832,-376,119,318,-233
3040,72,-2776,-416,138,285,-205
3045,-8,-2696,-448,152,242,-172
3050,-104,-2600,-480,148,193,-138
3055,-112,-2488,-480,133,139,-100
3060,-152,-2384,-480,108,83,-67
3065,-192,-2288,-504,84,33,-40
3070,-200,-2216,-480,62,-11,-16
3075,-192,-2168,-512,47,-48,6
3080,-144,-2072,-472,48,-79,30
3085,-144,-2032,-488,54,-105,47
3090,-96,-1984,-480,63,-125,63
3095,-56,-1960,-464,78,-149,69
3100,-40,-1912,-472,81,-168,64
3105,8,-1856,-496,74,-185,51
3110,40,-1832,-520,59,-200,31
3115,64,-1760,-512,39,-218,5
3120,88,-1736,-488,17,-238,-23
3125,64,-1672,-488,-5,-259,-54
3130,112,-1600,-504,-23,-280,-81
3135,72,-1544,-504,-43,-299,-107
3140,80,-1512,-472,-62,-316,-130
3145,48,-1472,-520,-80,-330,-150
3150,56,-1440,-512,-103,-335,-162
3155,32,-1448,-488,-120,-333,-167
3160,40,-1440,-544,-136,-323,-165
3165,56,-1480,-488,-153,-308,-155
3170,32,-1528,-488,-166,-284,-139
3175,48,-1584,-480,-176,-260,-115
3180,80,-1680,-448,-182,-236,-90
3185,96,-1744,-424,-186,-207,-69
3190,120,-1848,-360,-191,-177,-48
3195,144,-1920,-336,-169,-153,-14
3200,136,-1976,-296,-126,-138,15
3205,128,-2024,-296,-102,-125,46
3210,152,-2080,-288,-90,-107,72
3215,144,-2152,-216,-87,-85,99
3220,160,-2176,-224,-81,-59,123
3225,144,-2208,-232,-70,-36,147
3230,144,-2224,-240,-54,-17,168
3235,128,-2264,-240,-36,-3,187
3240,144,-2248,-240,-18,7,200
3245,120,-2248,-272,-4,9,209
3250,168,-2240,-288,4,8,210
3255,120,-2192,-280,8,17,200
3260,152,-2144,-280,13,19,188
3265,136,-2080,-328,16,16,174
3270,128,-2064,-288,14,8,156
3275,104,-2008,-312,8,0,135
3280,96,-1960,-256,-2,-5,111
3285,72,-1904,-264,-10,-13,87
3290,64,-1840,-272,-16,-20,71
3295,96,-1816,-248,-27,-28,60
3300,64,-1768,-200,-39,-17,31
3305,40,-1768,-128,-51,-5,11
3310,-16,-1736,-160,-56,4,-1
3315,8,-1720,-136,-60,8,-1
3320,-8,-1712,-88,-65,15,1
3325,-8,-1704,-80,-70,29,5
3330,-32,-1704,-56,-71,46,8
3335,-80,-1712,-40,-71,59,21
3340,-96,-1752,-48,-53,45,59
3345,0,-1776,-72,-21,13,97
3350,144,-1768,-72,-14,30,82
3355,56,-1744,-40,-29,104,41
3360,40,-1744,16,-35,148,22
3365,24,-1784,24,-34,170,27
3370,32,-1784,24,-42,191,28
3375,40,-1848,32,-56,215,32
3380,40,-1864,32,-67,239,31
3385,80,-1880,16,-72,258,28
3390,72,-1880,24,-79,280,22
3395,56,-1904,32,-84,301,16
3400,72,-1888,24,-95,313,11
3405,56,-1888,64,-105,329,-2
3410,56,-1896,80,-118,338,-15
3415,40,-1920,88,-123,345,-24
3420,0,-1888,104,-125,338,-26
3425,-40,-1880,96,-126,317,-8
3430,16,-1896,104,-126,288,23
3435,168,-1928,88,-128,280,15
3440,88,-1912,96,-128,313,-44
3445,96,-1896,104,-128,351,-94
3450,56,-1880,128,-128,389,-141
3455,24,-1808,136,-125,414,-168
3460,-8,-1808,152,-118,436,-176
3465,8,-1792,184,-106,450,-176
3470,0,-1752,200,-91,462,-176
3475,-24,-1776,192,-75,473,-171
3480,-64,-1752,248,-53,478,-162
3485,-56,-1768,192,-29,478,-143
3490,-88,-1752,176,-8,473,-129
3495,-64,-1880,160,9,464,-109
3500,-88,-1792,152,24,451,-92
3505,-136,-1800,152,36,433,-73
3510,-152,-1880,144,43,404,-57
3515,-136,-1912,168,47,376,-41
3520,-168,-1960,112,50,344,-32
3525,-184,-1992,152,51,308,-25
3530,-144,-2056,144,49,270,-20
3535,-104,-2088,104,43,226,-13
3540,-104,-2136,144,35,186,-7
3545,-88,-2192,120,30,153,1
3550,-64,-2248,152,28,121,7
3555,-48,-2296,208,28,99,16
3560,-32,-2384,200,31,82,20
3565,8,-2432,184,36,68,29
3570,24,-2488,168,36,65,34
3575,32,-2560,168,37,72,42
3580,48,-2584,192,37,85,49
3585,56,-2632,200,40,109,61
3590,72,-2672,208,44,136,71
3595,120,-2744,232,53,163,83
3600,104,-2752,208,69,193,86
3605,176,-2792,216,86,222,87
3610,232,-2816,168,109,253,79
3615,256,-2816,104,134,286,65
3620,304,-2816,48,137,307,51
3625,328,-2856,-72,117,316,39
3630,392,-2872,-224,68,316,32
3635,432,-2880,-368,-9,307,35
3640,424,-2888,-480,-105,302,35
3645,432,-2896,-592,-184,308,35
3650,256,-2864,-576,-202,354,37
3655,48,-2712,-536,-109,326,100
3660,520,-2592,-1072,-88,324,179
3665,264,-2568,-920,-214,466,122
3670,160,-2480,-872,-282,539,101
3675,112,-2400,-880,-276,558,107
3680,104,-2344,-912,-260,574,111
3685,96,-2304,-920,-239,580,117
3690,136,-2272,-904,-210,580,117
3695,152,-2256,-912,-175,581,120
3700,200,-2256,-888,-138,583,119
3705,232,-2160,-904,-103,589,119
3710,256,-2088,-840,-74,602,112
3715,288,-2008,-848,-55,617,113
3720,312,-1864,-808,-46,635,117
3725,320,-1768,-752,-51,653,128
3730,368,-1656,-712,-64,675,135
3735,400,-1560,-704,-86,695,147
3740,416,-1480,-664,-113,718,154
3745,416,-1416,-584,-140,740,164
3750,400,-1336,-544,-164,754,171
3755,400,-1352,-480,-179,766,180
3760,360,-1376,-448,-183,770,181
3765,328,-1408,-376,-173,772,181
3770,272,-1464,-368,-154,769,166
3775,240,-1552,-328,-116,756,155
3780,168,-1640,-304,-77,738,136
3785,104,-1752,-272,-34,709,119
3790,40,-1856,-240,14,670,96
3795,-24,-1944,-208,68,625,78
3800,-80,-2016,-192,117,575,51
3805,-136,-2080,-208,167,515,27
3810,-184,-2136,-216,205,455,-3
3815,-216,-2208,-232,230,396,-30
3820,-288,-2256,-248,248,339,-68
3825,-304,-2264,-312,246,278,-93
3830,-360,-2288,-336,226,232,-118
3835,-344,-2288,-392,193,191,-136
3840,-360,-2256,-416,152,156,-155
3845,-320,-2208,-384,109,121,-160
3850,-288,-2152,-440,67,85,-165
3855,-256,-2096,-416,27,47,-161
3860,-232,-2048,-416,-10,14,-155
3865,-168,-1936,-384,-38,-21,-139
3870,-96,-1872,-360,-63,-57,-120
3875,-72,-1760,-352,-79,-92,-93
3880,0,-1680,-320,-86,-118,-75
3885,24,-1592,-288,-83,-138,-52
3890,48,-1568,-296,-74,-160,-40
3895,96,-1520,-224,-57,-179,-27
3900,128,-1488,-200,-34,-190,-23
3905,144,-1464,-176,-7,-192,-19
3910,192,-1480,-160,24,-199,-23
3915,192,-1480,-112,52,-202,-26
3920,184,-1496,-96,78,-204,-35
3925,224,-1552,-72,101,-200,-43
3930,216,-1544,-88,130,-176,-69
3935,240,-1608,-64,130,-146,-93
3940,408,-1752,-56,133,-112,-139
3945,-8,-1648,-16,135,-78,-206
3950,0,-1680,-24,121,-133,-167
3955,136,-1784,-32,113,-197,-120
3960,120,-1832,-24,112,-214,-122
3965,160,-1872,16,100,-215,-132
3970,256,-1896,-16,82,-218,-154
3975,152,-1912,-48,59,-201,-199
3980,216,-1976,-24,23,-194,-244
3985,0,-1888,64,-15,-211,-256
3990,112,-1968,16,-24,-277,-219
3995,184,-1984,32,-27,-318,-204
4000,64,-1968,32,-37,-331,-217
4005,64,-1960,56,-51,-364,-200
4010,128,-1976,0,-56,-398,-179
4015,128,-1976,24,-66,-414,-166
4020,80,-1960,48,-72,-431,-161
4025,120,-1944,72,-72,-452,-146
4030,128,-1896,80,-71,-467,-133
4035,336,-1912,80,-81,-471,-132
4040,56,-1816,176,-96,-449,-164
4045,88,-1816,184,-86,-473,-119
4050,312,-1808,128,-73,-472,-119
4055,-48,-1728,224,-74,-442,-152
4060,16,-1776,216,-61,-484,-95
4065,80,-1784,200,-35,-530,-26
4070,56,-1752,192,-1,-554,9
4075,72,-1768,248,28,-565,31
4080,88,-1792,200,52,-572,38
4085,96,-1824,224,74,-573,49
4090,112,-1880,192,100,-568,50
4095,112,-1888,208,118,-556,47
4100,136,-1936,160,129,-538,40
4105,128,-1952,168,131,-512,28
4110,-8,-1992,160,118,-482,9
4115,0,-2064,168,113,-473,36
4120,24,-2088,184,126,-476,76
4125,16,-2128,168,139,-474,110
4130,24,-2184,216,148,-472,136
4135,32,-2208,208,155,-473,167
4140,72,-2248,232,163,-468,183
4145,88,-2304,280,170,-467,202
4150,112,-2296,296,181,-466,218
4155,160,-2312,304,199,-470,234
4160,192,-2312,328,218,-474,240
4165,208,-2288,352,236,-481,243
4170,288,-2280,408,250,-490,230
4175,320,-2256,416,261,-492,213
4180,328,-2208,376,269,-486,185
4185,360,-2168,440,266,-473,149
4190,360,-2184,424,259,-448,115
4195,384,-2176,376,254,-421,85
4200,376,-2208,376,253,-390,54
4205,408,-2272,352,255,-354,24
4210,408,-2368,304,252,-310,-13
4215,432,-2456,224,244,-255,-49
4220,464,-2576,192,232,-190,-88
4225,512,-2688,88,216,-113,-119
4230,576,-2792,24,191,-27,-150
4235,648,-2904,-120,163,66,-173
4240,640,-2992,-256,131,187,-209
4245,664,-3096,-320,91,287,-232
4250,648,-3152,-408,79,366,-250
4255,616,-3208,-456,80,423,-261
4260,552,-3216,-600,85,455,-275
4265,480,-3152,-696,83,460,-286
4270,432,-3088,-800,66,443,-296
4275,360,-3008,-856,36,407,-296
4280,280,-2896,-936,5,359,-297
4285,208,-2760,-992,-25,310,-295
4290,120,-2640,-1032,-51,254,-298
4295,48,-2512,-1000,-73,216,-293
4300,-64,-2384,-1040,-85,175,-285
4305,-128,-2216,-984,-94,135,-271
4310,-208,-2080,-936,-107,91,-252
4315,-256,-1952,-904,-117,43,-227
4320,-320,-1784,-808,-126,-6,-211
4325,-392,-1624,-712,-133,-57,-193
4330,-432,-1488,-640,-135,-106,-182
4335,-448,-1360,-552,-135,-150,-171
4340,-456,-1264,-456,-129,-184,-169
4345,-448,-1160,-416,-116,-216,-164
4350,-376,-1144,-400,-94,-234,-157
4355,-328,-1120,-312,-66,-250,-142
4360,-200,-1200,-288,-34,-265,-122
4365,-88,-1272,-280,-9,-285,-98
4370,-24,-1352,-272,13,-304,-77
4375,72,-1448,-240,29,-324,-59
4380,144,-1560,-272,43,-340,-41
4385,192,-1648,-256,55,-356,-21
4390,248,-1704,-288,66,-364,-4
4395,272,-1824,-288,74,-362,18
4400,352,-1912,-328,74,-350,38
4405,416,-2016,-328,70,-325,58
4410,464,-2104,-344,60,-290,78
4415,528,-2224,-360,51,-248,100
4420,568,-2280,-368,43,-198,118
4425,592,-2344,-360,34,-142,139
4430,632,-2392,-400,25,-82,154
4435,624,-2408,-352,17,-22,168
4440,544,-2384,-320,10,32,175
4445,496,-2352,-296,1,78,180
4450,448,-2336,-312,-9,130,182
4455,376,-2248,-296,-25,168,177
4460,336,-2168,-312,-37,192,162
4465,288,-2096,-256,-40,206,139
4470,200,-2032,-296,-36,209,112
4475,152,-1944,-264,-34,204,88
4480,80,-1816,-248,-39,204,64
4485,48,-1744,-224,-52,205,41
4490,-16,-1648,-216,-64,209,19
4495,-80,-1584,-184,-70,209,6
4500,-72,-1568,-184,-70,208,-2
4505,-40,-1536,-152,-68,218,-10
4510,-40,-1504,-160,-71,247,-34
4515,-88,-1480,-96,-81,279,-61
4520,-96,-1496,-72,-83,297,-72
4525,-96,-1528,-32,-77,292,-60
4530,-56,-1560,-32,-59,280,-39
4535,-104,-1584,48,-37,271,-22
4540,-128,-1664,56,-8,247,7
4545,-56,-1736,24,18,189,59
4550,128,-1840,-8,25,153,84
4555,144,-1856,-8,43,156,56
4560,192,-1896,0,63,187,24
4565,16,-1928,64,76,219,11
4570,0,-1936,56,88,203,54
4575,168,-2032,56,76,181,115
4580,344,-2120,64,41,194,139
4585,352,-2112,72,16,252,101
4590,224,-2096,88,4,325,46
4595,240,-2112,88,-4,368,24
4600,232,-2128,80,-16,393,19
4605,224,-2112,88,-37,424,10
4610,216,-2072,136,-60,452,0
4615,216,-2056,136,-81,483,-16
4620,200,-2032,160,-97,514,-35
4625,200,-1984,120,-103,543,-51
4630,144,-1912,160,-96,572,-62
4635,152,-1912,176,-81,602,-71
4640,104,-1832,152,-61,630,-76
4645,72,-1792,192,-39,652,-83
4650,24,-1744,208,-11,665,-86
4655,24,-1744,200,22,682,-78
4660,-8,-1728,248,61,694,-70
4665,-24,-1736,216,95,696,-70
4670,-24,-1712,192,126,693,-65
4675,-72,-1728,200,149,686,-69
4680,-80,-1712,200,168,675,-71
4685,-80,-1728,192,181,667,-71
4690,-80,-1728,240,189,659,-64
4695,-96,-1712,224,194,648,-57
4700,-88,-1720,232,192,632,-47
4705,-96,-1752,232,189,617,-36
4710,-88,-1784,232,186,594,-24
4715,-72,-1784,296,182,573,-12
4720,-88,-1856,272,180,552,4
4725,-48,-1896,336,181,532,15
4730,-96,-1936,328,183,514,28
4735,-64,-2024,344,188,492,36
4740,-64,-2064,344,190,470,40
4745,-88,-2088,360,193,450,39
4750,-80,-2120,360,194,429,39
4755,-96,-2184,368,190,410,36
4760,-104,-2200,360,181,384,36
4765,-128,-2256,336,163,361,38
4770,-152,-2304,336,145,334,51
4775,-160,-2312,328,122,306,67
4780,-160,-2368,344,100,277,94
4785,-168,-2456,328,88,250,119
4790,-152,-2512,288,81,227,151
4795,-96,-2592,264,91,203,181
4800,-80,-2672,224,114,175,211
4805,-32,-2768,208,142,145,230
4810,-8,-2880,136,175,111,255
4815,24,-2936,96,205,62,273
4820,-200,-2992,176,212,1,301
4825,256,-3024,152,273,-201,420
4830,504,-3088,-232,224,-255,430
4835,328,-3096,-272,124,-189,365
4840,352,-3072,-296,68,-181,342
4845,328,-2968,-392,46,-204,340
4850,312,-2872,-432,11,-211,341
4855,312,-2816,-448,-43,-198,342
4860,304,-2720,-496,-100,-166,339
4865,376,-2688,-560,-131,-86,314
4870,368,-2616,-680,-83,40,276
4875,336,-2448,-720,-19,185,245
4880,352,-2352,-656,4,291,220
4885,400,-2240,-656,-2,357,194
4890,400,-2192,-656,-17,402,174
4895,416,-2112,-664,-31,436,155
4900,456,-2104,-640,-40,467,137
4905,472,-2064,-640,-46,500,117
4910,448,-1968,-648,-46,537,102
4915,472,-1920,-616,-47,578,87
4920,480,-1808,-640,-51,635,84
4925,472,-1688,-624,-60,688,82
4930,456,-1576,-616,-74,748,90
4935,456,-1520,-600,-90,809,97
4940,432,-1416,-600,-107,871,111
4945,440,-1304,-592,-125,930,122
4950,424,-1240,-544,-150,984,136
4955,400,-1232,-520,-174,1029,140
4960,360,-1208,-480,-196,1062,145
4965,344,-1232,-448,-213,1086,140
4970,312,-1280,-432,-226,1101,129
4975,272,-1320,-368,-231,1098,106
4980,232,-1440,-312,-226,1083,85
4985,184,-1552,-232,-214,1057,59
4990,152,-1648,-208,-194,1018,33
4995,96,-1784,-120,-169,972,4
5000,88,-1904,-104,-140,919,-22
5005,64,-2040,-80,-110,861,-54
5010,8,-2104,-56,-81,798,-80
5015,-56,-2184,-32,-52,734,-106
5020,-96,-2320,-48,-32,671,-132
5025,-112,-2392,-56,-19,595,-156
5030,-136,-2472,-72,-17,542,-173
5035,-216,-2488,-104,-21,495,-188
5040,-216,-2488,-144,-32,456,-196
5045,-232,-2480,-176,-44,418,-205
5050,-224,-2464,-240,-54,383,-204
5055,-232,-2400,-240,-64,352,-204
5060,-240,-2344,-264,-76,325,-196
5065,-232,-2240,-256,-85,296,-187
5070,-184,-2192,-296,-94,267,-173
5075,-208,-2072,-256,-97,232,-161
5080,-160,-1992,-280,-97,194,-131
5085,-176,-1912,-256,-92,158,-106
5090,-104,-1848,-216,-92,128,-79
5095,-144,-1728,-200,-88,102,-63
5100,-72,-1696,-168,-84,73,-36
5105,-8,-1648,-184,-80,48,-20
5110,16,-1632,-96,-70,35,-8
5115,24,-1592,-72,-59,24,-6
5120,64,-1584,-40,-45,17,-2
5125,104,-1624,0,-29,12,-5
5130,136,-1656,8,-4,18,-16
5135,120,-1688,88,15,26,-32
5140,112,-1688,88,29,22,-37
5145,176,-1728,64,41,14,-44
5150,192,-1784,112,42,17,-60
5155,160,-1800,120,34,17,-87
5160,240,-1832,136,28,11,-103
5165,200,-1864,192,17,9,-134
5170,232,-1888,152,-1,8,-163
5175,480,-1960,160,-22,5,-199
5180,56,-1912,192,-65,40,-290
5185,16,-1952,232,-89,3,-281
5190,120,-1992,176,-76,-73,-218
5195,120,-2000,176,-63,-106,-205
5200,128,-2024,176,-66,-124,-202
5205,128,-1984,152,-80,-141,-201
5210,120,-1976,128,-100,-156,-197
5215,104,-1944,144,-126,-162,-202
5220,352,-1976,176,-162,-153,-218
5225,-192,-1856,344,-194,-74,-318
5230,128,-1880,192,-177,-144,-234
5235,-80,-1856,248,-145,-200,-187
5240,-16,-1864,192,-123,-254,-127
5245,48,-1800,200,-104,-286,-91
5250,-56,-1768,192,-94,-304,-66
5255,0,-1760,200,-79,-334,-29
5260,-40,-1744,216,-72,-352,-4
5265,-56,-1744,184,-66,-372,11
5270,-64,-1712,192,-56,-394,29
5275,-40,-1704,168,-42,-413,39
5280,56,-1720,168,-34,-416,34
5285,24,-1744,152,-30,-394,-2
5290,-136,-1720,184,-25,-397,-7
5295,-96,-1776,88,-13,-446,43
5300,-8,-1792,48,-1,-481,88
5305,32,-1824,40,0,-484,104
5310,56,-1848,32,-7,-475,112
5315,56,-1888,48,-16,-458,111
5320,120,-1912,72,-25,-447,123
5325,120,-1960,64,-27,-440,130
5330,152,-1968,80,-24,-434,136
5335,160,-2000,80,-21,-429,133
5340,208,-2032,120,-18,-421,129
5345,200,-2040,128,-20,-411,121
5350,224,-2064,144,-19,-400,113
5355,288,-2088,136,-20,-389,98
5360,312,-2152,136,-20,-374,82
5365,312,-2224,144,-29,-354,54
5370,320,-2280,144,-45,-332,28
5375,360,-2328,168,-65,-307,-10
5380,376,-2408,184,-83,-277,-47
5385,392,-2472,192,-99,-243,-79
5390,376,-2512,224,-101,-212,-103
5395,352,-2592,272,-94,-179,-130
5400,360,-2672,232,-75,-145,-149
5405,336,-2728,208,-54,-107,-167
5410,344,-2832,184,-33,-65,-181
5415,352,-2904,136,-14,-23,-197
5420,376,-2944,144,3,20,-209
5425,408,-3024,64,14,65,-225
5430,424,-3008,8,18,109,-238
5435,440,-3008,-40,15,158,-245
5440,416,-2968,-88,14,185,-241
5445,408,-2872,-128,15,196,-227
5450,400,-2800,-232,19,191,-207
5455,312,-2656,-328,11,176,-187
5460,272,-2544,-360,-5,148,-161
5465,240,-2416,-432,-27,115,-140
5470,208,-2312,-464,-54,77,-121
5475,208,-2232,-528,-83,43,-108
5480,192,-2120,-504,-109,13,-97
5485,200,-2056,-576,-130,-18,-90
5490,200,-1976,-592,-152,-37,-85
5495,184,-1928,-648,-166,-54,-85
5500,144,-1872,-600,-179,-71,-81
5505,104,-1808,-632,-190,-92,-83
5510,80,-1736,-656,-199,-118,-82
5515,40,-1672,-624,-208,-149,-91
5520,-8,-1608,-640,-217,-182,-101
5525,-80,-1544,-608,-228,-213,-115
5530,-80,-1472,-576,-239,-238,-129
5535,-104,-1424,-536,-249,-255,-149
5540,-120,-1392,-528,-253,-265,-167
5545,-120,-1384,-512,-251,-258,-186
5550,-96,-1384,-456,-232,-248,-199
5555,-56,-1448,-440,-199,-233,-207
5560,-16,-1504,-400,-155,-222,-206
5565,24,-1584,-432,-112,-208,-202
5570,72,-1680,-384,-78,-190,-191
5575,144,-1800,-400,-47,-166,-180
5580,192,-1888,-360,-20,-141,-164
5585,224,-1960,-368,2,-115,-142
5590,288,-2064,-312,28,-83,-122
5595,296,-2104,-240,48,-54,-102
5600,272,-2152,-336,63,-23,-79
5605,408,-2200,-232,73,10,-55
5610,480,-2328,-216,77,50,-32
5615,488,-2328,-264,84,88,-9
5620,488,-2400,-176,87,128,14
5625,464,-2392,-192,84,164,34
5630,456,-2424,-176,75,195,54
5635,416,-2400,-200,58,218,70
5640,352,-2384,-216,40,236,88
5645,288,-2392,-264,29,230,104
5650,224,-2312,-264,18,222,114
5655,168,-2240,-240,-4,218,118
5660,128,-2168,-280,-25,210,118
5665,80,-2088,-232,-43,208,110
5670,48,-2016,-256,-59,209,99
5675,32,-1904,-224,-73,213,80
5680,-8,-1792,-208,-80,224,61
5685,-32,-1720,-208,-77,238,39
5690,-32,-1640,-184,-70,249,19
5695,-40,-1576,-112,-61,253,7
5700,-48,-1576,-112,-59,256,-3
5705,-48,-1544,-136,-51,254,-10
5710,0,-1552,-72,-46,250,-12
5715,0,-1560,-56,-42,246,-14
5720,-32,-1560,-64,-35,243,-12
5725,8,-1600,-24,-44,235,-5
5730,0,-1600,-40,-44,231,-2
5735,24,-1632,16,-53,226,6
5740,0,-1688,0,-61,224,18
5745,48,-1728,0,-60,211,40
5750,72,-1776,-16,-65,210,53
5755,64,-1792,-16,-68,223,55
5760,88,-1856,16,-80,228,65
5765,112,-1896,8,-88,231,80
5770,104,-1936,-8,-94,240,81
5775,136,-1976,24,-96,249,83
5780,184,-2040,16,-102,259,94
5785,176,-2040,16,-110,284,96
5790,200,-2040,0,-117,313,95
5795,264,-2016,24,-124,341,94
5800,240,-2000,32,-131,362,89
5805,272,-1968,48,-140,383,81
5810,272,-1928,72,-146,402,68
5815,256,-1872,48,-151,421,55
5820,240,-1864,88,-153,441,40
5825,200,-1848,88,-148,455,26
5830,192,-1824,88,-140,468,13
5835,184,-1800,120,-125,481,-2
5840,136,-1816,168,-99,495,-17
5845,152,-1808,144,-65,512,-34
5850,136,-1848,136,-13,529,-49
5855,96,-1832,192,35,543,-62
5860,-584,-1752,784,126,494,-29
5865,456,-1928,232,242,339,94
5870,280,-1824,64,235,422,6
5875,104,-1896,168,195,530,-83
5880,80,-1912,136,211,554,-123
5885,8,-1912,160,233,555,-139
5890,-32,-1944,160,242,549,-143
5895,-32,-1960,176,249,529,-141
5900,-40,-1976,168,256,505,-140
5905,-80,-2016,168,258,478,-131
5910,-64,-2080,176,262,452,-124
5915,-80,-2104,168,267,433,-109
5920,-56,-2168,176,273,417,-93
5925,-32,-2224,176,287,410,-72
5930,0,-2272,168,308,417,-53
5935,40,-2296,208,329,429,-34
5940,104,-2320,224,347,445,-17
5945,152,-2360,216,359,457,7
5950,248,-2424,168,356,472,24
5955,344,-2488,136,341,489,43
5960,408,-2528,72,312,509,58
5965,464,-2592,32,270,528,75
5970,528,-2656,-96,221,541,88
5975,584,-2736,-120,171,562,104
5980,656,-2784,-208,126,589,111
5985,696,-2864,-312,75,618,118
5990,752,-2952,-384,20,649,122
5995,728,-3056,-472,-35,673,123
6000,696,-3112,-544,-99,688,120
6005,544,-3096,-632,-143,686,126
6010,424,-3080,-688,-177,670,133
6015,336,-3024,-704,-198,647,148
6020,200,-2928,-784,-210,617,160
6025,152,-2808,-768,-215,588,169
6030,72,-2624,-744,-216,570,167
6035,64,-2472,-720,-207,561,160
6040,24,-2296,-760,-190,562,139
6045,48,-2096,-712,-169,571,119
6050,40,-1968,-744,-144,592,93
6055,104,-1800,-728,-118,616,78
6060,152,-1680,-760,-107,644,62
6065,208,-1544,-776,-103,672,53
6070,168,-1408,-688,-110,699,41
6075,200,-1328,-584,-118,709,39
6080,216,-1296,-520,-119,714,29
6085,208,-1248,-496,-118,725,19
6090,232,-1216,-488,-121,735,13
6095,240,-1240,-416,-129,745,14
6100,232,-1256,-384,-129,748,11
6105,208,-1320,-304,-122,744,14
6110,160,-1408,-264,-110,732,12
6115,144,-1512,-208,-92,720,8
6120,80,-1608,-176,-71,705,-6
6125,40,-1712,-144,-48,689,-17
6130,16,-1800,-128,-23,665,-33
6135,0,-1936,-128,-1,636,-45
6140,0,-2072,-120,17,602,-66
6145,-16,-2144,-136,30,562,-83
6150,-32,-2232,-192,34,513,-107
6155,-56,-2312,-200,35,447,-123
6160,-88,-2320,-208,32,391,-144
6165,-88,-2368,-256,26,338,-161
6170,-88,-2352,-264,15,285,-179
6175,-72,-2328,-256,1,236,-189
6180,-96,-2248,-280,-16,190,-201
6185,-88,-2208,-256,-33,150,-205
6190,-64,-2128,-240,-55,113,-210
6195,-48,-2064,-224,-80,79,-205
6200,-24,-1976,-240,-106,49,-203
6205,8,-1912,-160,-132,18,-193
6210,48,-1816,-192,-161,-10,-187
6215,104,-1736,-184,-184,-35,-177
6220,136,-1672,-128,-198,-56,-176
6225,128,-1616,-64,-208,-84,-166
6230,192,-1568,-40,-208,-116,-168
6235,216,-1520,-80,-218,-141,-166
6240,256,-1456,-48,-234,-160,-167
6245,288,-1448,-48,-257,-169,-161
6250,304,-1424,-32,-279,-174,-162
6255,336,-1440,-24,-298,-178,-163
6260,344,-1432,-8,-312,-180,-175
6265,360,-1480,0,-311,-184,-188
6270,384,-1536,8,-308,-183,-208
6275,408,-1592,-8,-303,-178,-219
6280,400,-1640,0,-299,-169,-229
6285,432,-1680,-8,-299,-160,-231
6290,456,-1760,-16,-303,-150,-238
6295,464,-1816,-16,-311,-144,-245
6300,480,-1856,-32,-324,-138,-253
6305,480,-1928,-40,-345,-128,-255
6310,480,-1968,-32,-380,-119,-263
6315,480,-2024,-80,-413,-108,-266
6320,464,-2056,-48,-452,-92,-273
6325,472,-2088,-40,-494,-78,-278
6330,456,-2096,-32,-529,-66,-287
6335,632,-2128,-56,-561,-50,-298
6340,384,-2096,-40,-598,-7,-343
6345,416,-2096,-64,-632,-5,-337
6350,392,-2088,-24,-647,-4,-339
6355,336,-2080,0,-648,-2,-339
6360,360,-2080,0,-641,-1,-341
6365,376,-2040,-8,-636,4,-343
6370,368,-1992,-16,-635,17,-353
6375,384,-1976,32,-635,29,-355
6380,408,-1952,64,-628,40,-358
6385,424,-1928,40,-617,49,-357
6390,416,-1880,56,-603,59,-361
6395,408,-1872,80,-585,70,-360
6400,400,-1864,88,-565,81,-367
6405,392,-1840,104,-539,92,-372
6410,336,-1800,96,-506,100,-391
6415,320,-1776,96,-467,111,-407
6420,312,-1792,96,-439,125,-430
6425,280,-1776,88,-413,140,-451
6430,248,-1800,88,-390,156,-477
6435,240,-1776,96,-368,174,-499
6440,176,-1808,80,-347,188,-524
6445,152,-1856,56,-325,198,-540
6450,152,-1984,48,-300,201,-561
6455,120,-2072,-40,-269,203,-580
6460,112,-2216,-80,-233,208,-601
6465,104,-2376,-112,-195,217,-611
6470,64,-2576,-200,-179,225,-613
6475,96,-2672,-216,-185,227,-595
6480,112,-2832,-232,-221,227,-563
6485,144,-2936,-200,-284,217,-507
6490,216,-2968,-160,-366,193,-442
6495,208,-2920,-192,-450,163,-373
6500,248,-2816,-232,-543,123,-324
6505,240,-2776,-152,-634,88,-251
6510,272,-2880,-32,-705,29,-176
6515,256,-2816,-80,-643,-151,-180
6520,240,-2696,-208,-461,-338,-233
6525,136,-2512,-208,-344,-491,-277
6530,144,-2320,-248,-296,-624,-333
6535,128,-2176,-232,-300,-727,-398
6540,184,-2032,-288,-295,-811,-432
6545,288,-1888,-368,-283,-889,-441
6550,352,-1752,-424,-285,-954,-447
6555,416,-1608,-488,-338,-1027,-478
6560,448,-1552,-560,-441,-1108,-522
6565,552,-1528,-728,-523,-1163,-532
6570,624,-1528,-744,-568,-1162,-497
6575,688,-1584,-768,-553,-1137,-464
6580,720,-1560,-832,-509,-1109,-445
6585,824,-1576,-792,-484,-1077,-416
6590,800,-1560,-824,-461,-1042,-390
6595,904,-1584,-760,-438,-1006,-361
6600,928,-1576,-736,-409,-960,-343
6605,968,-1600,-696,-376,-907,-325
6610,1008,-1616,-680,-338,-850,-312
6615,992,-1584,-656,-295,-794,-305
6620,984,-1672,-608,-264,-746,-289
6625,936,-1680,-680,-231,-710,-288
6630,944,-1696,-688,-193,-649,-318
6635,888,-1712,-696,-162,-579,-349
6640,888,-1752,-696,-148,-525,-382
6645,872,-1792,-648,-144,-490,-420
6650,808,-1824,-600,-143,-469,-471
6655,784,-1672,-760,-140,-475,-516
6660,736,-1680,-736,-222,-468,-548
6665,632,-1656,-672,-313,-453,-592
6670,624,-1648,-712,-387,-460,-623
6675,536,-1616,-608,-428,-481,-646
6680,56,-1552,-120,-429,-523,-652
6685,608,-1488,-680,-309,-637,-584
6690,568,-1472,-736,-354,-582,-602
6695,472,-1368,-712,-396,-515,-654
6700,416,-1296,-648,-412,-500,-659
6705,384,-1216,-584,-428,-533,-647
6710,328,-1184,-544,-438,-579,-638
6715,272,-1128,-504,-433,-618,-622
6720,240,-1112,-512,-423,-663,-606
6725,176,-1072,-448,-424,-697,-591
6730,136,-1048,-504,-438,-747,-572
6735,120,-1072,-464,-460,-802,-547
6740,128,-1056,-472,-472,-861,-525
6745,104,-1040,-512,-482,-903,-489
6750,168,-1056,-504,-518,-957,-474
6755,200,-1016,-544,-554,-1009,-477
6760,232,-1024,-528,-580,-1062,-499
6765,224,-1016,-568,-608,-1128,-519
6770,296,-1024,-600,-628,-1216,-540
6775,280,-1056,-648,-638,-1262,-559
6780,272,-1088,-512,-640,-1307,-590
6785,40,-1032,80,-615,-1353,-588
6790,592,-1200,-672,-549,-1426,-563
6795,520,-1208,-672,-632,-1398,-611
6800,536,-1320,-616,-704,-1393,-660
6805,568,-1368,-600,-741,-1415,-680
6810,632,-1408,-672,-760,-1435,-685
6815,680,-1432,-688,-762,-1440,-678
6820,712,-1464,-680,-740,-1431,-658
6825,744,-1480,-736,-697,-1412,-631
6830,776,-1456,-712,-663,-1394,-596
6835,800,-1392,-752,-638,-1381,-554
6840,896,-1440,-768,-610,-1375,-513
6845,928,-1448,-784,-578,-1364,-480
6850,976,-1496,-832,-535,-1345,-455
6855,992,-1528,-840,-494,-1320,-432
6860,1016,-1568,-848,-467,-1297,-410
6865,1032,-1608,-880,-454,-1282,-385
6870,1088,-1704,-888,-457,-1277,-359
6875,1080,-1712,-864,-469,-1276,-340
6880,1120,-1760,-856,-484,-1272,-323
6885,1136,-1832,-832,-489,-1261,-299
6890,1144,-1856,-824,-485,-1246,-279
6895,1112,-1896,-848,-472,-1239,-260
6900,1080,-1952,-808,-447,-1244,-222
6905,1104,-2016,-856,-404,-1250,-169
6910,1056,-2024,-880,-344,-1264,-114
6915,1008,-2056,-920,-285,-1288,-53
6920,992,-2104,-976,-216,-1311,14
6925,968,-2080,-984,-106,-1319,77
6930,872,-2072,-1048,-14,-1295,90
6935,744,-2112,-1152,48,-1273,82
6940,544,-2104,-1176,117,-1252,130
6945,632,-2120,-1368,250,-1190,206
6950,344,-2088,-1256,349,-1096,222
6955,384,-2032,-1296,404,-1033,263
6960,304,-1920,-1232,443,-945,274
6965,152,-1792,-1392,469,-889,257
6970,-112,-1856,-1392,455,-927,267
6975,128,-1840,-1592,448,-1078,242
6980,424,-1912,-1720,561,-1011,315
6985,360,-1760,-1672,611,-820,315
6990,256,-1744,-1656,655,-745,294
6995,360,-1760,-1672,738,-745,333
7000,480,-1744,-1688,799,-759,380
7005,576,-1840,-1608,832,-754,396
7010,568,-1896,-1488,839,-751,386
7015,536,-1944,-1440,826,-767,344
7020,512,-2016,-1272,798,-798,280
7025,464,-2048,-1152,777,-850,184
7030,408,-2056,-1040,784,-929,98
7035,528,-2072,-1032,789,-992,-15
7040,568,-2016,-1048,812,-1006,-81
7045,640,-1992,-1056,824,-990,-94
7050,672,-1928,-1088,823,-972,-93
7055,688,-1880,-1136,815,-961,-90
7060,704,-1808,-1152,811,-944,-83
7065,688,-1696,-1144,802,-929,-76
7070,632,-1624,-1136,791,-915,-71
7075,624,-1536,-1096,777,-895,-38
7080,552,-1400,-1080,754,-878,-1
7085,504,-1304,-1000,726,-871,33
7090,432,-1160,-984,688,-871,68
7095,384,-1064,-912,646,-872,99
7100,328,-952,-920,598,-875,131
7105,312,-832,-896,536,-885,158
7110,288,-712,-824,462,-900,174
7115,392,-656,-856,381,-916,175
7120,480,-616,-800,288,-918,131
7125,24,-584,-664,179,-882,-35
7130,-24,-664,-616,119,-890,-59
7135,72,-728,-624,139,-935,-15
7140,240,-768,-664,164,-969,-9
7145,-24,-808,-624,187,-985,-59
7150,-16,-824,-688,220,-999,-101
7155,-136,-928,-720,258,-979,-185
7160,-144,-832,-728,351,-939,-248
7165,-64,-824,-752,407,-953,-223
7170,-24,-832,-808,417,-994,-203
7175,32,-800,-816,429,-1033,-203
7180,48,-816,-848,448,-1083,-220
7185,40,-856,-920,472,-1141,-223
7190,8,-1008,-912,490,-1217,-190
7195,-48,-1248,-880,487,-1320,-141
7200,104,-1128,-984,454,-1422,-80
7205,40,-1384,-960,385,-1522,-61
7210,-88,-1352,-968,287,-1639,-57
7215,-80,-1512,-968,177,-1783,-43
7220,-144,-1544,-960,107,-1913,0
7225,-120,-1576,-936,68,-2044,43
7230,-312,-1504,-904,54,-2224,68
7235,-280,-1456,-944,100,-2396,135
7240,-328,-1328,-872,164,-2564,182
7245,-360,-1208,-880,242,-2739,214
7250,-416,-1104,-832,330,-2906,247
7255,-320,-920,-824,415,-3082,296
7260,-224,-752,-848,489,-3280,360
7265,-200,-632,-840,545,-3496,421
7270,-128,-584,-864,592,-3709,487
7275,-144,-552,-928,638,-3900,530
7280,-152,-544,-984,676,-4054,564
7285,-248,-576,-976,710,-4190,567
7290,-256,-608,-992,774,-4249,603
7295,-224,-656,-984,853,-4267,640
7300,-232,-720,-1000,929,-4270,655
7305,-152,-768,-1024,1004,-4262,653
7310,-96,-792,-1024,1082,-4241,658
7315,-56,-832,-984,1151,-4213,665
7320,88,-832,-952,1200,-4181,675
7325,32,-848,-976,1219,-4154,648
7330,88,-912,-832,1211,-4128,621
7335,192,-952,-704,1229,-4082,641
7340,336,-992,-616,1248,-4033,667
7345,448,-936,-504,1277,-3987,679
7350,480,-920,-424,1325,-3946,695
7355,472,-872,-320,1380,-3897,715
7360,456,-728,-320,1395,-3863,718
7365,408,-632,-224,1323,-3839,709
7370,328,-648,-176,1208,-3821,736
7375,312,-616,-104,1080,-3820,790
7380,320,-592,-144,934,-3830,836
7385,144,-688,-64,774,-3851,841
7390,40,-760,-128,713,-3865,902
7395,-104,-912,-288,729,-3861,958
7400,-352,-1032,-344,775,-3842,1009
7405,-560,-1240,-424,869,-3807,1094
7410,-736,-1408,-552,988,-3753,1180
7415,-1040,-1584,-656,1105,-3683,1253
7420,-1336,-1880,-696,1232,-3605,1362
7425,-1648,-2216,-680,1393,-3524,1514
7430,-1952,-2696,-640,1595,-3458,1743
7435,-2416,-3224,-560,1844,-3418,2093
7440,-2688,-3664,-464,2156,-3388,2458
7445,-3072,-4552,120,2336,-3268,2770
7450,-3536,-5952,432,2565,-3061,3231
7455,-4264,-7960,1264,2778,-2635,3774
7460,-5728,-10424,1728,2858,-1989,4442
7465,-8016,-13696,1664,2529,-1381,5214
7470,-10232,-16864,1408,1810,-1191,5723
7475,-11400,-16640,8,1111,-1565,5553
7480,-10192,-14904,-400,898,-2012,4793
7485,-7512,-11480,-432,1439,-2366,3723
7490,-5272,-8280,24,3175,-2784,3078
7495,-3264,-5768,288,5056,-3342,2886
7500,-1896,-4024,344,6618,-3966,2976
7505,-592,-2176,40,7599,-4452,3063
7510,120,-1248,-488,8072,-4538,3148
7515,760,-368,-1272,8288,-4485,3262
7520,1400,632,-1568,7956,-4233,3340
7525,1792,1848,-1096,6961,-3572,3328
7530,2136,2632,240,5460,-2667,3170
7535,2256,2768,1360,3921,-1713,2864
7540,1968,2536,1848,2315,-768,2656
7545,1696,2056,1928,1178,-245,2580
7550,1600,1472,1944,267,89,2587
7555,1504,1016,1984,-323,316,2601
7560,1256,368,2112,-513,434,2578
7565,1016,-192,1992,-274,361,2493
7570,776,-624,1680,308,119,2362
7575,544,-744,1200,1005,-187,2207
7580,192,-784,744,1598,-490,2041
7585,-160,-760,480,1974,-737,1884
7590,-552,-720,384,2200,-930,1750
7595,-848,-728,456,2263,-1024,1663
7600,-1200,-832,480,2252,-1059,1601
7605,-1368,-952,448,2191,-1008,1558
7610,-1944,-1056,440,2078,-911,1510
7615,-2808,-1320,416,1930,-839,1479
7620,-3176,-1560,344,1670,-915,1505
7625,-3432,-1944,232,1386,-1033,1512
7630,-3752,-2360,248,1275,-998,1471
7635,-3784,-2408,120,1247,-1049,1475
7640,-3552,-2560,128,1182,-1187,1527
7645,-3176,-2992,200,1168,-1414,1646
7650,-2680,-3208,288,1222,-1783,1739
7655,-2040,-3192,352,1437,-2186,1795
7660,-1648,-2992,360,1770,-2603,1820
7665,-1120,-2712,264,2108,-3032,1812
7670,-832,-2272,232,2380,-3413,1739
7675,-632,-2056,136,2511,-3746,1609
7680,-600,-1704,128,2506,-4029,1452
7685,-320,-1464,104,2470,-4257,1345
7690,-112,-1184,96,2447,-4421,1216
7695,-80,-856,8,2419,-4504,1069
7700,-16,-672,-16,2371,-4603,906
7705,312,-560,-88,2359,-4618,795
7710,664,-440,-184,2354,-4486,732
7715,624,-464,-360,2341,-4313,597
7720,720,-328,-432,2296,-4239,385
7725,696,-192,-168,2200,-4134,210
7730,1224,-224,-8,2084,-3886,127
7735,1040,16,672,2004,-3460,5
7740,840,184,1112,2015,-3127,-54
7745,1048,720,1832,2063,-2895,-82
7750,632,936,2056,2059,-2701,-140
7755,1256,1552,2648,2057,-2495,-170
7760,752,2200,3456,2014,-2222,-292
7765,616,2824,4168,1983,-2094,-375
7770,504,3376,4256,1883,-2004,-474
7775,104,3832,4640,1677,-1863,-656
7780,-648,4160,5080,1426,-1702,-926
7785,-1168,4408,5200,1215,-1535,-1138
7790,-1432,4536,5712,1035,-1340,-1215
7795,-1504,4704,5320,941,-1139,-1059
7800,-952,4760,4640,980,-1035,-840
7805,-568,4512,4160,894,-860,-627
7810,-280,4192,3680,691,-644,-413
7815,272,4048,3008,406,-443,-247
7820,248,3512,2752,57,-243,-160
7825,168,2624,2608,-243,-115,-96
7830,112,2224,2352,-464,-67,14
7835,720,1536,2008,-614,-84,200
7840,1168,1128,1488,-709,-51,245
7845,1320,792,1312,-754,-151,113
7850,2336,376,816,-505,-433,-99
7855,2560,152,464,10,-834,-326
7860,2272,160,408,360,-1078,-546
7865,1736,296,840,451,-1060,-748
7870,1992,376,688,436,-995,-809
7875,2072,336,824,302,-734,-839
7880,1848,504,928,188,-349,-876
7885,1368,704,832,93,6,-795
7890,1000,760,824,-93,228,-581
7895,992,608,928,-285,398,-312
7900,640,552,888,-445,575,-185
7905,616,480,952,-589,713,-95
7910,536,352,1168,-697,872,-79
7915,184,296,1232,-750,1058,-98
7920,-56,264,1304,-824,1139,-58
7925,-200,128,1448,-913,1115,19
7930,-880,144,1592,-987,1032,89
7935,-1448,-16,1672,-1032,829,185
7940,-1136,-128,1672,-1008,526,280
7945,-1344,-128,1688,-918,358,135
7950,-1112,-240,1808,-752,188,18
7955,-848,-200,1936,-558,118,-68
7960,-568,-144,1992,-343,102,-115
7965,-384,-112,2064,-148,121,-140
7970,-224,-112,2104,20,151,-142
7975,-368,-8,2144,168,200,-143
7980,-240,-24,2160,283,228,-98
7985,-328,72,2176,361,251,-69
7990,-200,96,2176,414,276,-45
7995,-80,176,2240,441,302,-46
8000,32,232,2240,435,316,-69
8005,136,296,2328,416,296,-100
8010,424,376,2304,398,260,-133
8015,376,464,2328,354,233,-184
8020,512,520,2280,287,195,-207
8025,608,608,2128,182,204,-279
8030,8,760,2152,15,275,-370
8035,304,808,2232,-120,251,-370
8040,464,864,2096,-235,242,-406
8045,512,984,2096,-370,310,-538
8050,344,1024,2192,-563,423,-644
8055,272,1144,2224,-677,480,-685
8060,136,1160,2312,-750,502,-672
8065,296,1160,2200,-775,464,-620
8070,216,1256,2120,-794,446,-601
8075,88,1248,2144,-777,441,-599
8080,104,1240,2096,-701,438,-554
8085,136,1216,2064,-609,444,-509
8090,88,1104,2040,-526,463,-473
8095,88,984,1984,-423,475,-437
8100,72,864,2000,-285,475,-400
8105,24,704,2088,-70,444,-347
8110,224,544,1792,86,434,-295
8115,128,376,1792,152,484,-293
8120,72,224,1816,215,519,-295
8125,24,120,1800,285,527,-286
8130,-72,8,1832,336,518,-272
8135,-88,-24,1840,357,493,-258
8140,-160,-56,1848,354,448,-243
8145,-240,-120,1872,323,397,-232
8150,-328,-144,1880,274,335,-223
8155,-392,-184,1872,205,278,-214
8160,-504,-184,1888,145,229,-208
8165,-600,-176,1864,93,193,-203
8170,-680,-208,1880,52,163,-201
8175,-728,-184,1832,25,142,-204
8180,-784,-192,1816,10,130,-208
8185,-888,-216,1752,10,118,-213
8190,-968,-208,1696,20,112,-221
8195,-1032,-208,1704,32,115,-232
8200,-1096,-192,1680,53,123,-249
8205,-1104,-176,1640,89,131,-259
8210,-1136,-152,1624,125,147,-271
8215,-1176,-104,1592,153,159,-270
8220,-1184,-32,1632,165,163,-254
8225,-1176,-8,1648,165,159,-227
8230,-1168,24,1664,159,150,-201
8235,-1168,64,1656,145,136,-174
8240,-1112,72,1704,122,116,-141
8245,-1096,40,1728,96,96,-112
8250,-1040,32,1720,69,70,-83
8255,-1000,24,1736,35,41,-60
8260,-992,-8,1744,7,22,-43
8265,-928,-32,1792,-17,7,-25
8270,-888,-64,1784,-33,-6,-10
8275,-848,-96,1760,-47,-21,6
8280,-776,-120,1776,-56,-29,15
8285,-744,-144,1776,-63,-32,24
8290,-704,-176,1760,-64,-29,31
8295,-656,-248,1768,-57,-26,39
8300,-624,-264,1768,-51,-26,47
8305,-624,-296,1768,-46,-34,56
8310,-608,-328,1752,-45,-46,63
8315,-600,-344,1768,-47,-54,69
8320,-568,-360,1784,-53,-55,72
8325,-568,-368,1784,-59,-55,79
8330,-576,-360,1784,-67,-50,87
8335,-552,-376,1776,-79,-45,100
8340,-560,-368,1792,-96,-38,109
8345,-592,-336,1808,-110,-32,120
8350,-584,-352,1840,-122,-30,129
8355,-608,-328,1824,-136,-25,138
8360,-616,-264,1856,-145,-21,144
8365,-616,-256,1872,-152,-20,149
8370,-632,-224,1840,-157,-20,151
8375,-632,-208,1888,-161,-24,153
8380,-680,-152,1864,-157,-32,152
8385,-664,-152,1880,-152,-43,153
8390,-688,-136,1912,-144,-55,153
8395,-664,-120,1872,-131,-67,153
8400,-648,-88,1848,-121,-77,149
8405,-664,-72,1848,-112,-87,149
8410,-632,-80,1848,-104,-92,143
8415,-608,-88,1856,-97,-94,140
8420,-600,-72,1832,-87,-93,133
8425,-576,-112,1840,-82,-91,130
8430,-584,-80,1816,-74,-90,123
8435,-552,-104,1856,-69,-85,117
8440,-496,-136,1824,-66,-82,106
8445,-512,-96,1832,-62,-79,95
8450,-480,-152,1816,-59,-74,79
8455,-440,-128,1808,-57,-65,63
8460,-392,-128,1840,-55,-55,46
8465,-392,-144,1800,-57,-45,35
8470,-360,-120,1816,-58,-35,19
8475,-304,-136,1856,-62,-26,9
8480,-296,-120,1808,-67,-17,-4
8485,-264,-88,1832,-77,-10,-12
8490,-240,-96,1848,-86,-4,-24
8495,-240,-40,1848,-94,4,-32
8500,-216,-48,1832,-103,10,-45
8505,-200,-32,1816,-110,17,-51
8510,-200,-16,1904,-117,25,-59
8515,-176,24,1872,-120,33,-62
8520,-176,48,1840,-121,41,-65
8525,-168,80,1896,-118,50,-62
8530,-160,96,1912,-112,56,-60
8535,-168,104,1896,-104,63,-53
8540,-168,144,1904,-95,68,-48
8545,-176,176,1936,-84,71,-38
8550,-184,200,1944,-73,71,-31
8555,-192,200,1912,-62,68,-18
8560,-192,232,1936,-52,67,-11
8565,-216,224,1928,-43,64,2
8570,-216,248,1984,-35,62,11
8575,-224,216,2008,-30,58,23
8580,-248,224,1992,-27,54,31
8585,-248,240,2024,-26,49,45
8590,-288,240,2024,-24,45,53
8595,-296,248,1992,-20,41,65
8600,-320,240,1976,-18,36,73
8605,-320,240,2032,-17,33,83
8610,-328,232,1984,-16,24,88
8615,-352,208,2000,-16,21,93
8620,-328,168,1976,-20,18,92
8625,-336,176,1976,-27,16,90
8630,-320,152,1976,-34,16,88
8635,-304,136,1944,-40,21,88
8640,-312,160,1952,-44,26,81
8645,-304,144,1896,-47,34,79
8650,-288,144,1912,-43,46,71
8655,-304,168,1872,-40,57,69
8660,-280,176,1904,-38,70,62
8665,-248,184,1904,-34,82,61
8670,-280,200,1912,-31,89,55
8675,-304,224,1896,-28,98,55
8680,-288,208,1904,-24,103,51
8685,-256,216,1888,-19,105,53
8690,-264,208,1888,-16,107,49
8695,-272,200,1904,-9,107,50
8700,-272,224,1896,-5,104,46
8705,-288,200,1928,-1,100,48
8710,-296,208,1904,4,97,44
8715,-288,200,1920,7,90,44
8720,-296,176,1896,7,86,40
8725,-304,208,1920,6,82,38
8730,-320,176,1904,6,79,34
8735,-328,168,1904,7,78,34
8740,-320,160,1920,8,77,30
8745,-328,160,1912,7,79,31
8750,-320,144,1920,9,81,25
8755,-352,152,1920,12,84,25
8760,-352,128,1920,17,86,19
8765,-360,128,1896,23,88,18
8770,-352,96,1928,29,91,13
8775,-384,88,1880,36,92,11
8780,-360,104,1904,41,95,5
8785,-376,96,1896,44,98,3
8790,-352,80,1880,45,102,-3
8795,-384,88,1896,46,102,-2
8800,-384,80,1920,44,102,-7
8805,-376,96,1904,42,99,-6
8810,-392,72,1904,39,94,-10
8815,-384,32,1936,33,89,-10
8820,-392,64,1912,28,84,-14
8825,-400,56,1928,23,76,-13
8830,-424,64,1912,16,71,-17
8835,-424,56,1936,11,69,-18
8840,-432,56,1912,5,66,-22
8845,-440,32,1888,-2,63,-23
8850,-440,-8,1880,-7,61,-29
8855,-472,-8,1864,-12,61,-31
8860,-464,0,1864,-16,62,-37
8865,-464,0,1856,-19,67,-42
8870,-472,-8,1856,-20,70,-47
8875,-480,8,1880,-19,76,-48
8880,-488,8,1880,-17,81,-52
8885,-472,-16,1840,-14,83,-50
8890,-472,-16,1840,-12,85,-54
8895,-472,-8,1872,-9,88,-53
8900,-488,-16,1848,-8,88,-57
8905,-496,-32,1872,-7,88,-56
8910,-488,-32,1880,-7,86,-61
8915,-520,-32,1864,-10,82,-63
8920,-496,-24,1856,-11,77,-65
8925,-488,-32,1864,-14,72,-66
8930,-512,-32,1864,-14,68,-68
8935,-528,-32,1872,-16,65,-66
8940,-512,-32,1856,-16,62,-68
8945,-496,-40,1904,-17,61,-65
8950,-520,-16,1888,-19,60,-67
8955,-488,-24,1856,-23,59,-64
8960,-504,-32,1832,-27,56,-64
8965,-488,-32,1824,-29,55,-61
8970,-488,-32,1872,-33,52,-59
8975,-464,-32,1888,-34,52,-54
8980,-440,-8,1840,-32,53,-50
8985,-448,-16,1848,-32,54,-44
8990,-408,32,1808,-30,54,-41
8995,-416,56,1832,-26,56,-34
9000,-456,24,1856,-28,56,-33
9005,-608,8,1840,-28,55,-27
9010,-400,24,1872,-30,55,-26
9015,-392,40,1816,-33,54,-20
9020,-440,32,1856,-33,50,-19
9025,-424,-8,1872,-32,50,-16
9030,-424,8,1888,-30,51,-16
9035,-432,32,1864,-29,50,-14
9040,-408,8,1864,-33,47,-14
9045,-408,8,1864,-32,44,-10
9050,-416,32,1864,-30,46,-12
9055,-392,32,1864,-30,48,-8
9060,-384,56,1872,-27,49,-9
9065,-384,48,1872,-24,53,-5
9070,-376,48,1840,-21,56,-3
9075,-376,56,1848,-17,58,3
9080,-392,32,1856,-15,57,6
9085,-392,40,1880,-12,58,8
9090,-392,64,1864,-15,59,11
9095,-368,56,1856,-17,59,13
9100,-376,56,1920,-21,60,11
9105,-368,48,1880,-28,61,13
9110,-368,40,1888,-30,63,14
9115,-336,48,1904,-29,66,17
9120,-344,56,1896,-26,69,18
9125,-360,40,1880,-22,70,18
9130,-344,56,1896,-17,73,21
9135,-368,40,1888,-12,76,22
9140,-360,72,1896,-9,77,22
9145,-360,72,1888,-7,79,25
9150,-376,72,1912,-6,77,25
9155,-360,80,1888,-4,76,27
9160,-352,56,1904,-3,74,27
9165,-352,80,1920,-2,70,30
9170,-360,88,1880,0,69,29
9175,-368,88,1880,2,67,29
9180,-352,88,1888,2,65,30
9185,-368,112,1864,2,65,30
9190,-376,104,1872,1,65,30
9195,-344,88,1880,0,66,30
9200,-384,120,1864,-1,67,30
9205,-376,104,1864,-2,69,30
9210,-392,112,1896,-2,70,29
9215,-384,112,1904,-2,68,30
9220,-408,120,1904,-2,69,30
9225,-400,104,1904,0,69,29
9230,-376,96,1888,1,68,28
9235,-400,112,1920,1,65,27
9240,-392,104,1904,4,62,27
9245,-384,80,1928,4,60,26
9250,-392,96,1896,5,58,25
9255,-408,88,1936,4,54,23
9260,-384,112,1888,4,54,21
9265,-392,64,1880,4,55,20
9270,-400,80,1904,3,56,18
9275,-424,96,1904,1,54,15
9280,-392,88,1888,1,53,14
9285,-392,88,1880,1,53,11
9290,-400,80,1864,0,53,10
9295,-416,80,1896,1,52,7
9300,-416,72,1888,1,54,4
9305,-392,72,1880,0,53,2
9310,-400,80,1864,1,55,1
9315,-400,72,1848,0,55,0
9320,-424,48,1880,3,56,-2
9325,-400,40,1904,6,57,-5
9330,-392,32,1888,7,57,-7
9335,-416,32,1872,6,58,-11
9340,-408,56,1864,8,59,-13
9345,-408,40,1912,10,62,-16
9350,-432,40,1880,10,63,-19
9355,-392,48,1856,12,65,-23
9360,-408,48,1912,13,68,-25
9365,-400,32,1928,13,70,-28
9370,-400,32,1896,12,71,-30
9375,-392,40,1864,12,72,-33
9380,-384,48,1888,10,73,-34
9385,-392,32,1848,9,75,-35
9390,-376,40,1880,8,74,-36
9395,-400,24,1880,7,73,-39
9400,-392,48,1880,8,72,-37
9405,-424,40,1872,7,71,-40
9410,-424,40,1912,7,70,-39
9415,-392,48,1896,4,68,-40
9420,-432,64,1864,5,64,-39
9425,-392,32,1872,2,62,-40
9430,-424,56,1840,0,61,-38
9435,-408,32,1872,-1,62,-40
9440,-400,48,1872,-3,62,-37
9445,-416,40,1840,-3,62,-38
9450,-392,48,1896,-3,63,-36
9455,-408,56,1864,-4,65,-35
9460,-384,48,1872,-4,66,-32
9465,-384,40,1896,-4,67,-31
9470,-416,80,1904,-3,67,-27
9475,-424,56,1904,-1,66,-27
9480,-400,48,1888,-1,67,-23
9485,-424,56,1896,-1,67,-24
9490,-416,56,1896,-1,66,-19
9495,-400,56,1880,-1,64,-17
9500,-400,40,1904,-1,63,-13
9505,-424,32,1904,-1,61,-15
9510,-416,24,1888,-1,60,-12
9515,-440,56,1888,-1,59,-14
9520,-440,72,1856,-2,59,-12
9525,-424,32,1872,-1,59,-14
9530,-448,64,1864,-2,57,-13
9535,-448,64,1880,-3,60,-15
9540,-448,56,1888,-4,62,-13
9545,-440,80,1872,-6,61,-13
9550,-424,56,1872,-5,61,-10
9555,-424,56,1896,-3,61,-10
9560,-432,72,1872,-4,62,-5
9565,-416,32,1888,-4,62,-5
9570,-424,80,1880,-7,61,-2
9575,-432,56,1888,-9,61,-4
9580,-408,48,1896,-13,63,0
9585,-400,40,1896,-15,63,0
9590,-400,32,1952,-14,62,3
9595,-408,24,1904,-14,64,1
9600,-408,48,1880,-7,64,5
9605,-408,48,1888,-1,65,3
9610,-408,88,1904,4,69,6
9615,-392,64,1888,7,72,3
9620,-416,64,1888,7,74,6
9625,-416,80,1920,9,73,6
9630,-408,48,1888,8,74,8
9635,-400,80,1904,7,70,6
9640,-424,64,1880,8,67,11
9645,-400,88,1864,7,64,7
9650,-400,48,1872,7,61,10
9655,-392,64,1872,7,57,8
9660,-384,64,1888,5,54,10
9665,-392,80,1880,2,51,6
9670,-384,72,1872,2,49,7
9675,-392,96,1856,1,48,4
9680,-392,104,1888,-1,47,7
9685,-376,96,1880,0,47,3
9690,-392,64,1888,1,49,6
9695,-400,112,1864,5,49,2
9700,-392,88,1864,10,51,4
9705,-400,120,1888,13,52,2
9710,-392,96,1904,17,55,4
9715,-376,96,1920,23,57,0
9720,-368,72,1888,28,60,1
9725,-376,80,1872,33,61,-3
9730,-384,80,1896,37,65,-3
9735,-400,96,1880,39,68,-8
9740,-384,72,1920,40,72,-8
9745,-376,56,1896,39,75,-12
9750,-400,80,1928,35,77,-12
9755,-416,96,1872,33,78,-16
9760,-384,88,1872,28,78,-14
9765,-392,56,1888,22,76,-18
9770,-408,56,1920,16,76,-19
9775,-392,64,1880,8,76,-23
9780,-400,88,1880,1,72,-22
9785,-416,64,1872,-7,70,-27
9790,-416,72,1872,-13,68,-24
9795,-408,80,1920,-19,66,-28
9800,-400,80,1888,-22,64,-25
9805,-384,72,1888,-23,63,-29
9810,-400,72,1912,-22,64,-24
9815,-408,96,1888,-19,66,-26
9820,-392,88,1912,-15,68,-22
9825,-400,104,1904,-11,71,-22
9830,-424,96,1896,-7,72,-18
9835,-384,104,1904,-2,74,-19
9840,-400,88,1904,2,75,-15
9845,-416,80,1872,4,75,-16
9850,-424,80,1880,7,75,-12
9855,-376,64,1872,8,76,-12
9860,-408,88,1912,8,74,-9
9865,-408,80,1928,7,75,-10
9870,-424,96,1864,6,75,-6
9875,-400,72,1880,6,75,-7
9880,-400,72,1888,2,75,-4
9885,-408,80,1896,2,73,-7
9890,-416,72,1888,0,71,-3
9895,-424,88,1872,-1,69,-6
9900,-408,80,1872,-4,69,-3
9905,-424,64,1872,-5,68,-5
9910,-400,64,1848,-6,68,-2
9915,-424,72,1896,-8,67,-5
9920,-432,72,1848,-10,65,-2
9925,-416,56,1856,-10,64,-4
9930,-432,72,1864,-10,63,-1
9935,-416,56,1872,-12,63,-2
9940,-416,64,1824,-12,64,0
9945,-448,56,1856,-9,62,-2
9950,-424,72,1904,-8,62,0
9955,-408,88,1880,-7,62,-1
9960,-416,56,1880,-5,62,0
9965,-424,80,1856,-3,64,-1
9970,-416,80,1880,-2,65,1
9975,-416,56,1872,3,63,0
9980,-440,88,1888,4,63,2
9985,-408,72,1896,6,63,-1
9990,-440,112,1928,10,62,1
9995,-440,80,1912,12,60,-1
10000,-432,72,1880,13,59,-1
10005,-432,104,1904,11,59,-3
10010,-424,72,1912,12,59,-1
10015,-408,64,1872,11,59,-4
10020,-416,80,1848,10,58,-1
10025,-416,96,1912,8,58,-4
10030,-432,88,1872,7,59,-2
10035,-424,80,1904,4,58,-6
10040,-432,88,1856,2,57,-5
10045,-432,80,1888,3,57,-7
10050,-400,80,1872,2,58,-6
10055,-416,72,1856,3,59,-10
10060,-408,104,1888,2,61,-10
10065,-408,88,1880,1,63,-13
10070,-408,80,1896,1,65,-12
10075,-408,88,1904,2,66,-12
10080,-416,112,1896,1,66,-10
10085,-408,88,1888,0,66,-11
10090,-408,80,1896,-3,66,-9
10095,-400,80,1888,-5,66,-10
10100,-384,96,1928,-9,69,-9
10105,-400,80,1880,-14,71,-11
10110,-400,48,1896,-19,71,-8
10115,-376,48,1888,-17,70,-9
10120,-368,56,1904,-14,70,-10
10125,-400,80,1888,-8,69,-12
10130,-408,88,1880,-4,71,-11
10135,-424,96,1872,1,73,-12
10140,-400,88,1888,4,77,-12
10145,-424,104,1880,1,77,-11
10150,-416,64,1896,2,77,-11
10155,-416,104,1880,0,77,-11
10160,-416,88,1888,0,75,-9
10165,-392,80,1888,-1,73,-10
10170,-424,104,1872,-3,72,-9
10175,-416,88,1888,-6,70,-9
10180,-392,72,1888,-9,70,-7
10185,-384,64,1880,-13,69,-9
10190,-408,96,1872,-18,68,-8
10195,-376,104,1864,-22,69,-9
10200,-384,104,1880,-26,72,-9
10205,-408,104,1912,-29,75,-9
10210,-392,96,1872,-29,80,-7
10215,-432,112,1856,-30,81,-8
10220,-408,112,1880,-29,83,-6
10225,-416,88,1888,-27,85,-8
10230,-416,112,1936,-25,87,-6
10235,-408,96,1856,-21,86,-5
10240,-424,112,1872,-15,85,-5
10245,-440,104,1848,-12,85,-7
10250,-408,96,1912,-9,87,-5
10255,-424,96,1880,-7,85,-6
10260,-424,96,1864,-8,83,-4
10265,-432,96,1896,-10,82,-4
10270,-416,72,1920,-9,78,-1
10275,-424,112,1856,-12,73,-1
10280,-416,112,1856,-14,70,1
10285,-408,96,1864,-16,66,2
10290,-424,80,1888,-18,60,3
10295,-400,88,1888,-20,60,3
10300,-424,88,1888,-20,56,4
10305,-408,72,1856,-23,53,2
10310,-416,80,1848,-23,51,2
10315,-416,80,1880,-23,50,2
10320,-408,88,1880,-22,49,4
10325,-408,72,1872,-21,49,6
10330,-424,88,1856,-19,49,7
10335,-416,72,1920,-16,47,6
10340,-408,64,1912,-15,46,7
10345,-424,64,1880,-12,44,7
10350,-424,88,1864,-12,46,6
10355,-416,88,1888,-9,46,5
10360,-440,88,1880,-10,47,4
10365,-448,88,1888,-12,48,4
10370,-408,72,1856,-13,51,4
10375,-400,72,1864,-17,53,1
10380,-432,96,1896,-19,56,2
10385,-440,72,1864,-22,57,-1
10390,-416,72,1896,-25,61,-2
10395,-416,80,1864,-28,61,-1
10400,-432,80,1880,-30,61,-2
10405,-392,72,1888,-31,63,-2
10410,-440,72,1904,-34,62,-2
10415,-392,64,1912,-35,60,-1
10420,-392,64,1920,-35,58,-1
10425,-424,72,1896,-37,56,-2
10430,-424,96,1848,-38,53,-3
10435,-424,56,1888,-40,50,-1
10440,-408,48,1856,-40,49,-1
10445,-400,48,1888,-42,47,0
10450,-400,64,1856,-44,46,-2
10455,-408,88,1872,-44,45,-1
10460,-424,80,1872,-43,45,0
10465,-408,56,1912,-44,44,-1
10470,-392,64,1872,-44,44,-3
10475,-408,72,1896,-43,45,-1
10480,-408,80,1896,-42,47,-1
10485,-416,88,1864,-40,48,-1
10490,-416,72,1888,-40,47,-1
10495,-416,88,1872,-38,49,0
10500,-424,96,1888,-37,47,0
10505,-424,80,1872,-35,48,2
10510,-416,72,1936,-36,49,2
10515,-416,112,1888,-35,48,1
10520,-424,88,1880,-37,47,1
10525,-432,88,1872,-38,48,2
10530,-408,80,1872,-39,48,1
10535,-400,56,1888,-40,49,0
10540,-408,72,1896,-43,49,-3
10545,-408,72,1880,-45,49,-1
10550,-416,80,1888,-43,50,-2
10555,-416,88,1848,-44,50,-1
10560,-408,88,1888,-42,51,-2
10565,-400,72,1888,-42,53,-1
10570,-432,72,1888,-39,56,-1
10575,-408,88,1896,-38,57,0
10580,-408,72,1904,-35,58,-2
10585,-424,80,1880,-34,58,1
10590,-416,96,1896,-31,57,0
10595,-392,64,1896,-29,56,3
10600,-400,88,1904,-30,56,1
10605,-408,64,1880,-30,56,4
10610,-416,72,1880,-28,55,3
10615,-408,80,1888,-29,55,4
10620,-400,72,1888,-30,54,4
10625,-400,64,1880,-31,54,4
10630,-392,56,1888,-32,53,2
10635,-400,56,1864,-31,54,3
10640,-416,40,1888,-32,53,2
10645,-424,72,1888,-33,50,3
10650,-416,56,1880,-34,49,0
10655,-392,64,1880,-36,49,1
10660,-408,72,1904,-33,50,0
10665,-384,72,1848,-34,51,2
10670,-400,48,1912,-33,52,1
10675,-376,64,1896,-30,53,3
10680,-384,96,1896,-29,54,3
10685,-416,88,1888,-29,56,4
10690,-424,64,1888,-30,57,1
10695,-416,72,1880,-33,59,3
10700,-416,72,1904,-37,61,0
10705,-424,96,1928,-39,64,1
10710,-408,56,1880,-42,65,-2
10715,-416,80,1904,-43,66,1
10720,-400,32,1896,-42,66,-1
10725,-376,16,1888,-38,68,-1
10730,-400,64,1896,-34,69,-3
10735,-408,24,1912,-31,73,-2
10740,-400,48,1904,-29,76,-4
10745,-424,48,1848,-29,77,-1
10750,-424,24,1856,-29,76,-2
10755,-408,64,1888,-31,73,2
10760,-400,56,1904,-32,70,0
10765,-416,80,1896,-33,66,2
10770,-424,48,1888,-33,62,2
10775,-408,48,1880,-33,57,5
10780,-408,64,1864,-34,52,3
10785,-400,64,1896,-36,50,6
10790,-408,56,1864,-37,51,3
10795,-408,64,1856,-39,49,4
10800,-392,72,1864,-41,50,1
10805,-392,72,1872,-42,51,4
10810,-392,80,1848,-40,55,1
10815,-416,88,1888,-39,55,4
10820,-400,96,1880,-36,58,2
10825,-408,64,1888,-32,58,5
10830,-408,96,1912,-28,57,2
10835,-416,80,1896,-25,59,3
10840,-400,64,1888,-21,58,0
10845,-424,56,1848,-19,57,1
10850,-400,72,1888,-15,58,-1
10855,-400,64,1864,-13,59,0
10860,-400,48,1912,-12,58,-3
10865,-424,64,1888,-14,59,-2
10870,-400,64,1888,-15,58,-4
10875,-408,40,1912,-17,58,-1
10880,-424,48,1880,-17,57,-4
10885,-408,56,1896,-17,57,-3
10890,-416,64,1904,-18,55,-4
10895,-392,48,1872,-18,56,-3
10900,-416,64,1896,-19,55,-5
10905,-392,64,1888,-19,55,-4
10910,-408,80,1856,-19,54,-6
10915,-424,72,1888,-17,53,-4
10920,-408,72,1888,-17,55,-5
10925,-424,64,1904,-14,53,-3
10930,-408,40,1904,-13,55,-5
10935,-392,48,1888,-12,54,-2
10940,-416,72,1872,-10,54,-4
10945,-384,72,1912,-10,55,-1
10950,-408,64,1896,-7,55,-5
10955,-400,48,1864,-7,56,-2
10960,-416,72,1880,-6,58,-5
10965,-400,64,1896,-4,59,-4
10970,-400,64,1888,-5,60,-7
10975,-392,56,1888,-6,60,-5
10980,-392,32,1856,-7,61,-7
10985,-408,56,1856,-10,63,-6
10990,-400,48,1856,-10,65,-9
10995,-384,56,1888,-11,65,-7
11000,-408,48,1888,-12,67,-9
11005,-408,40,1888,-13,67,-6
11010,-400,48,1896,-13,68,-9
11015,-416,64,1856,-12,66,-6
11020,-416,40,1880,-12,65,-8
11025,-400,72,1856,-11,65,-6
11030,-392,40,1888,-11,64,-8
11035,-424,64,1896,-10,64,-7
11040,-408,48,1904,-11,63,-10
11045,-416,72,1864,-13,63,-8
11050,-400,72,1856,-15,65,-10
11055,-416,64,1896,-17,65,-7
11060,-376,80,1888,-16,64,-8
11065,-416,72,1880,-16,66,-7
11070,-424,72,1872,-15,65,-9
11075,-392,72,1896,-14,65,-5
11080,-408,64,1848,-14,64,-8
11085,-400,56,1896,-15,64,-5
11090,-408,56,1864,-14,63,-6
11095,-416,56,1880,-14,63,-4
11100,-400,48,1872,-14,63,-6
11105,-408,72,1880,-13,62,-3
11110,-424,88,1896,-12,62,-5
11115,-408,72,1904,-11,63,-3
11120,-408,56,1904,-9,64,-5
11125,-408,72,1888,-9,64,-3
11130,-424,72,1896,-7,64,-6
11135,-400,72,1888,-8,64,-4
11140,-392,48,1896,-9,65,-5
11145,-376,48,1888,-9,64,-3
11150,-416,64,1880,-8,64,-6
11155,-392,64,1872,-9,63,-5
11160,-408,64,1912,-10,62,-7
11165,-416,64,1872,-10,62,-5
11170,-416,64,1856,-11,64,-7
11175,-424,72,1864,-11,63,-5
11180,-408,72,1880,-11,63,-7
11185,-384,48,1888,-10,62,-6
11190,-408,64,1872,-10,63,-8
11195,-416,64,1912,-10,62,-7
11200,-416,56,1880,-11,63,-9
11205,-392,56,1872,-9,63,-8
11210,-392,64,1888,-7,63,-10
11215,-408,56,1904,-5,64,-7
11220,-392,64,1872,-4,65,-9
11225,-408,56,1896,-2,65,-6
11230,-416,64,1848,-2,65,-8
11235,-400,48,1880,-1,65,-5
11240,-416,72,1888,1,64,-7
11245,-400,56,1880,0,65,-6
11250,-416,64,1888,-1,65,-7
11255,-400,88,1872,-1,67,-4
11260,-424,64,1864,-1,66,-5
11265,-416,80,1904,-1,65,-3
11270,-400,56,1888,-1,65,-3
11275,-416,72,1888,-2,64,0
11280,-400,72,1848,-3,62,-2
11285,-392,72,1888,-5,60,1
11290,-416,64,1872,-8,59,-2
11295,-408,96,1888,-8,58,-1
11300,-408,48,1888,-8,58,-3
11305,-408,72,1888,-8,58,-4
11310,-408,48,1864,-8,58,-6
11315,-400,80,1848,-9,59,-7
11320,-408,88,1872,-8,62,-7
11325,-400,64,1864,-6,64,-4
11330,-424,72,1864,-4,65,-6
11335,-392,64,1864,-2,68,-4
11340,-416,80,1880,-2,68,-4
11345,-400,64,1880,-4,68,-2
11350,-408,72,1888,-7,69,-2
11355,-392,56,1880,-14,70,-2
11360,-408,32,1904,-20,70,-4
11365,-392,56,1920,-25,71,-4
11370,-408,56,1872,-28,69,-4
11375,-400,40,1880,-29,68,-4
11380,-424,48,1872,-29,69,-5
11385,-392,24,1904,-25,70,-3
11390,-400,48,1928,-22,71,-5
11395,-432,48,1912,-21,75,-2
11400,-408,56,1912,-21,75,-1
11405,-424,72,1880,-20,74,1
11410,-440,64,1888,-20,73,1
11415,-424,64,1880,-21,72,4
11420,-400,64,1872,-20,68,4
11425,-424,72,1848,-19,65,7
11430,-424,64,1896,-18,63,6
11435,-408,56,1888,-16,61,8
11440,-392,72,1864,-15,60,6
11445,-400,72,1888,-15,60,7
11450,-400,80,1872,-15,59,5
11455,-400,64,1856,-16,62,7
11460,-400,112,1856,-17,62,5
11465,-408,72,1864,-17,62,6
11470,-408,72,1864,-16,62,4
11475,-392,64,1896,-15,62,4
11480,-392,80,1896,-14,62,2
11485,-392,64,1864,-11,61,2
11490,-400,72,1880,-9,58,-1
11495,-360,48,1896,-7,58,0
11500,-392,88,1904,-4,57,-2
11505,-408,88,1896,-2,57,-4
11510,-400,72,1872,0,59,-4
11515,-416,64,1880,0,58,-5
11520,-416,72,1912,1,57,-5
11525,-416,64,1904,3,57,-5
11530,-400,72,1904,2,57,-6
11535,-400,64,1904,1,57,-6
11540,-408,56,1896,0,57,-5
11545,-408,64,1912,-1,57,-5
11550,-416,56,1888,-1,56,-5
11555,-408,64,1880,-3,55,-4
11560,-408,48,1896,-4,57,-4
11565,-400,80,1888,-3,57,-5
11570,-408,80,1888,-2,57,-5
11575,-424,64,1872,-2,56,-6
11580,-408,48,1888,-2,57,-5
11585,-416,72,1880,0,57,-5
11590,-392,56,1856,2,57,-4
11595,-408,64,1840,3,55,-4
11600,-400,64,1888,4,57,-3
11605,-408,72,1888,6,55,-3
11610,-392,48,1872,7,56,-4
11615,-408,56,1880,7,56,-5
11620,-424,56,1872,7,57,-6
11625,-400,40,1872,8,59,-7
11630,-384,64,1864,6,59,-6
11635,-416,64,1872,6,61,-8
11640,-408,80,1880,5,64,-9
11645,-416,64,1872,3,66,-10
11650,-400,72,1880,2,68,-10
11655,-400,72,1920,1,68,-10
11660,-400,64,1904,-2,71,-10
11665,-408,72,1904,-1,71,-8
11670,-392,64,1888,-3,71,-6
11675,-416,80,1880,-2,71,-7
11680,-400,64,1888,0,71,-5
11685,-424,56,1872,-1,69,-6
11690,-400,72,1872,0,66,-5
11695,-424,64,1872,2,66,-6
11700,-400,56,1856,0,65,-4
11705,-408,72,1872,1,63,-5
11710,-416,72,1872,0,62,-3
11715,-408,88,1880,-1,62,-6
11720,-400,64,1896,-1,61,-5
11725,-400,64,1912,-2,63,-6
11730,-424,72,1880,-1,63,-5
11735,-400,88,1896,-1,65,-6
11740,-408,72,1864,-2,64,-5
11745,-400,72,1888,-1,65,-6
11750,-416,64,1872,-1,66,-5
11755,-416,96,1888,0,64,-6
11760,-416,96,1896,2,64,-4
11765,-400,80,1912,2,65,-6
11770,-384,64,1880,3,65,-3
11775,-392,80,1880,5,62,-3
11780,-400,80,1904,6,61,-3
11785,-408,88,1872,6,63,-5
11790,-408,112,1904,6,62,-2
11795,-400,88,1888,6,61,-4
11800,-400,80,1880,6,60,-3
11805,-392,72,1904,7,59,-6
11810,-408,72,1896,6,59,-3
11815,-408,72,1880,4,58,-5
11820,-448,72,1864,4,58,-4
11825,-408,72,1888,5,57,-5
11830,-352,72,1848,5,58,-3
11835,-376,80,1888,2,59,-5
11840,-400,56,1888,3,61,-4
11845,-408,104,1888,2,60,-7
11850,-416,64,1872,2,60,-4
11855,-400,64,1872,1,61,-6
11860,-416,88,1856,2,61,-5
11865,-392,72,1872,2,61,-7
11870,-368,72,1856,2,61,-6
11875,-416,72,1920,3,61,-7
11880,-400,80,1872,2,61,-6
11885,-424,104,1896,2,62,-7
11890,-408,88,1880,2,62,-5
11895,-400,80,1888,3,63,-7
11900,-376,72,1872,4,64,-5
11905,-416,72,1872,3,62,-6
11910,-416,64,1920,2,62,-5
11915,-392,72,1880,3,63,-7
11920,-392,80,1880,3,62,-4
11925,-408,88,1864,2,63,-5
11930,-408,96,1904,2,62,-4
11935,-416,88,1872,3,62,-6
11940,-400,72,1912,3,61,-3
11945,-416,80,1904,3,61,-6
11950,-408,64,1888,4,61,-5
11955,-400,88,1880,4,62,-6
11960,-400,80,1888,4,62,-4
11965,-408,80,1872,4,63,-7
11970,-416,88,1872,6,63,-5
11975,-416,80,1872,7,63,-7
11980,-408,96,1848,5,63,-6
11985,-392,72,1896,4,63,-8
11990,-424,104,1888,4,63,-5
11995,-408,80,1848,4,63,-8
12000,-416,80,1904,2,63,-5
12005,-416,88,1856,1,62,-8
12010,-440,88,1888,1,64,-5
12015,-416,80,1888,1,63,-8
12020,-400,96,1912,-1,62,-6
12025,-416,72,1904,-2,61,-7
12030,-424,72,1872,-3,61,-5
12035,-432,80,1872,-3,61,-7
12040,-416,72,1880,-3,59,-4
12045,-416,96,1920,-2,60,-6
12050,-392,80,1896,-2,61,-3
12055,-416,96,1896,-3,59,-6
12060,-432,88,1880,-2,60,-4
12065,-392,72,1872,-3,60,-6
12070,-408,80,1912,-2,61,-4
12075,-400,72,1896,-3,63,-7
12080,-448,88,1880,-2,63,-4
12085,-416,88,1888,-1,62,-6
12090,-424,88,1880,-2,62,-4
12095,-424,80,1896,-1,62,-6
12100,-424,88,1896,0,63,-4
12105,-424,88,1872,1,62,-6
12110,-400,88,1880,0,63,-2
12115,-416,112,1896,2,63,-3
12120,-400,88,1896,2,61,0
12125,-416,104,1904,2,60,-3
12130,-416,88,1896,0,57,-2
12135,-408,88,1864,-1,57,-4
12140,-416,80,1888,1,55,-2
12145,-400,88,1872,1,54,-6
12150,-416,96,1872,-1,55,-5
12155,-400,96,1880,-1,59,-8
12160,-424,112,1872,0,61,-8
12165,-408,96,1888,1,64,-10
12170,-416,96,1864,2,67,-8
12175,-392,88,1888,3,66,-10
12180,-432,104,1904,2,68,-7
12185,-416,80,1864,0,69,-9
12190,-416,88,1896,-5,69,-6
12195,-392,72,1880,-10,70,-9
12200,-408,80,1920,-17,71,-5
12205,-400,88,1888,-23,72,-5
12210,-424,72,1920,-24,69,-3
12215,-392,96,1896,-22,69,-6
12220,-416,88,1840,-16,69,-5
12225,-384,80,1872,-8,70,-7
12230,-408,72,1872,-2,73,-6
12235,-416,104,1888,4,76,-9
12240,-400,96,1888,6,78,-5
12245,-408,112,1888,6,77,-6
12250,-440,104,1872,5,77,-2
12255,-392,40,1896,4,75,-5
12260,-400,88,1896,3,73,-3
12265,-408,88,1904,1,69,-5
12270,-424,112,1896,-2,69,-2
12275,-416,88,1872,-4,68,-5
12280,-392,80,1880,-7,66,-4
12285,-408,80,1888,-11,65,-6
12290,-416,96,1872,-14,64,-4
12295,-408,112,1856,-19,62,-5
12300,-400,128,1872,-23,63,-4
12305,-432,128,1864,-27,60,-5
12310,-408,112,1880,-29,60,-2
12315,-432,112,1912,-29,57,-2
12320,-416,88,1880,-28,57,0
12325,-392,72,2024,-24,56,-1
12330,-392,104,1928,-20,56,1
12335,-408,24,1864,-18,56,-2
12340,-552,112,1840,-14,56,0
12345,-400,112,1896,-12,56,-3
12350,-432,96,1904,-10,57,-2
12355,-416,96,1912,-10,57,-2
12360,-392,104,1888,-10,59,-1
12365,-448,80,1872,-11,59,-3
12370,-424,88,1888,-11,60,-2
12375,-416,80,1856,-14,59,-4
12380,-432,88,1864,-17,59,-1
12385,-432,104,1872,-19,57,-3
12390,-392,72,1872,-21,56,0
12395,-424,96,1880,-23,55,-1
12400,-408,104,1880,-25,52,0
12405,-416,72,1864,-24,51,-3
12410,-432,104,1880,-26,49,0
12415,-408,104,1856,-26,49,-2
12420,-408,96,1864,-26,49,-1
12425,-424,88,1880,-26,48,-2
12430,-416,96,1864,-25,49,1
12435,-408,96,1896,-23,49,2
12440,-408,88,1904,-21,49,4
12445,-432,96,1896,-19,50,4
12450,-392,88,1904,-16,50,6
12455,-408,88,1880,-14,51,3
12460,-408,88,1888,-13,51,5
12465,-424,96,1880,-12,52,3
12470,-416,88,1872,-13,53,4
12475,-416,72,1880,-13,53,1
12480,-392,80,1904,-16,56,0
12485,-416,88,1872,-19,57,-1
12490,-384,64,1888,-21,57,-2
12495,-408,72,1880,-25,58,-4
12500,-392,72,1896,-28,59,-3
12505,-392,72,1888,-30,63,-4
12510,-400,72,1872,-31,63,-3
12515,-400,80,1896,-32,65,-6
12520,-384,88,1880,-33,64,-3
12525,-432,80,1904,-34,63,-5
12530,-440,88,1888,-37,60,-5
12535,-408,96,1880,-38,59,-4
12540,-416,64,1888,-39,57,-4
12545,-424,80,1880,-39,57,-4
12550,-424,88,1880,-41,56,-3
12555,-416,104,1864,-41,55,-3
12560,-416,96,1880,-42,55,-3
12565,-416,120,1888,-42,57,-3
12570,-416,112,1880,-41,59,-1
12575,-400,80,1888,-40,58,-3
12580,-392,72,1872,-38,60,-2
12585,-408,80,1888,-38,60,-3
12590,-400,104,1912,-36,62,-1
12595,-424,80,1872,-35,61,-1
12600,-400,80,1872,-35,61,0
12605,-408,80,1864,-34,60,0
12610,-424,104,1904,-34,59,1
12615,-408,112,1888,-34,58,0
12620,-424,88,1904,-33,57,1
12625,-400,80,1888,-33,56,0
12630,-400,64,1872,-35,57,0
12635,-408,80,1880,-35,55,1
12640,-424,104,1904,-37,54,1
12645,-392,88,1888,-38,53,0
12650,-408,64,1880,-38,54,1
12655,-392,96,1880,-38,53,1
12660,-408,88,1896,-38,55,0
12665,-392,96,1896,-39,57,0
12670,-408,72,1856,-40,56,2
12675,-424,104,1888,-40,57,0
12680,-408,88,1912,-39,57,2
12685,-416,88,1888,-40,57,2
12690,-392,104,1872,-41,57,2
12695,-400,80,1864,-41,55,3
12700,-400,88,1888,-40,55,4
12705,-408,64,1872,-40,56,5
12710,-416,88,1888,-39,55,5
12715,-392,72,1880,-39,55,4
12720,-408,64,1904,-37,54,4
12725,-368,64,1880,-37,56,3
12730,-400,72,1896,-36,56,4
12735,-400,72,1872,-35,56,4
12740,-408,72,1888,-35,56,4
12745,-392,72,1872,-32,56,4
12750,-408,72,1880,-32,55,3
12755,-400,88,1896,-32,57,4
12760,-416,64,1880,-33,56,4
12765,-392,64,1888,-31,57,4
12770,-392,48,1856,-32,57,3
12775,-400,64,1872,-31,57,3
12780,-392,72,1864,-31,57,3
12785,-416,88,1880,-32,56,3
12790,-400,72,1864,-33,55,1
12795,-416,88,1872,-32,56,3
12800,-400,64,1912,-32,56,2
12805,-408,88,1880,-32,56,3
12810,-424,72,1872,-33,58,2
12815,-408,72,1864,-32,58,2
12820,-424,64,1896,-32,57,1
12825,-408,64,1880,-33,58,1
12830,-416,72,1912,-34,59,3
12835,-408,96,1904,-34,59,3
12840,-400,64,1896,-33,59,1
12845,-416,88,1880,-33,59,3
12850,-400,64,1904,-32,58,1
12855,-424,80,1880,-31,58,5
12860,-408,64,1864,-31,58,4
12865,-400,40,1856,-33,58,5
12870,-408,64,1888,-33,58,4
12875,-416,72,1888,-33,57,4
12880,-408,72,1888,-32,57,3
12885,-400,64,1888,-32,56,4
12890,-408,72,1896,-33,55,2
12895,-408,56,1872,-34,56,3
12900,-400,64,1904,-35,55,1
12905,-408,80,1904,-35,56,2
12910,-424,80,1880,-37,56,2
12915,-424,56,1880,-37,56,3
12920,-424,72,1920,-36,57,2
12925,-392,72,1896,-36,57,2
12930,-408,64,1880,-36,58,1
12935,-400,64,1912,-35,57,2
12940,-400,72,1888,-35,57,1
12945,-416,80,1896,-34,58,4
12950,-416,80,1896,-35,57,3
12955,-400,72,1872,-35,57,5
12960,-416,80,1856,-34,55,4
12965,-416,80,1864,-33,54,7
12970,-424,72,1880,-33,54,6
12975,-416,80,1888,-32,53,7
12980,-400,72,1880,-33,51,5
12985,-408,48,1872,-32,51,6
12990,-408,40,1872,-32,51,4
12995,-424,56,1880,-32,51,6
13000,-392,80,1880,-32,49,2
13005,-432,104,1856,-33,51,3
13010,-408,80,1888,-29,53,1
13015,-384,48,1872,-26,55,2
13020,-408,80,1888,-25,56,3
13025,-408,96,1880,-23,57,4
13030,-376,48,1872,-24,57,3
13035,-408,80,1888,-28,58,4
13040,-392,56,1896,-30,60,1
13045,-408,40,1888,-36,61,2
13050,-400,48,1896,-41,64,-1
13055,-400,48,1920,-46,65,1
13060,-408,40,1920,-50,66,-1
13065,-384,32,1896,-52,66,2
13070,-400,48,1904,-52,66,-1
13075,-392,24,1896,-49,64,1
13080,-416,40,1912,-45,66,0
13085,-400,40,1888,-42,67,3
13090,-424,48,1888,-39,69,0
13095,-424,32,1880,-36,70,3
13100,-424,56,1872,-33,67,1
13105,-400,64,1880,-33,64,3
13110,-424,72,1872,-34,60,1
13115,-408,80,1856,-35,57,4
13120,-416,56,1848,-32,54,2
13125,-416,48,1880,-31,52,5
13130,-392,72,1856,-31,50,2
13135,-384,56,1872,-28,50,2
13140,-416,48,1864,-29,49,-1
13145,-384,72,1872,-28,52,1
13150,-408,80,1864,-28,55,-2
13155,-392,64,1872,-31,57,1
13160,-416,72,1864,-30,61,0
13165,-408,72,1896,-29,63,0
13170,-416,80,1888,-29,62,-2
13175,-400,80,1888,-25,62,0
13180,-400,40,1912,-22,61,-2
13185,-400,56,1888,-17,60,0
13190,-392,80,1896,-14,57,-3
13195,-416,48,1928,-10,56,-2
13200,-400,40,1864,-6,55,-5
13205,-424,48,1888,-3,56,-3
13210,-400,56,1896,1,56,-6
13215,-416,56,1872,2,57,-3
13220,-408,48,1872,3,59,-6
13225,-416,48,1872,3,58,-5
13230,-408,72,1872,3,58,-6
13235,-392,64,1864,2,59,-6
13240,-392,56,1888,2,59,-7
13245,-416,72,1888,0,59,-4
13250,-400,56,1872,-1,60,-7
13255,-400,64,1880,-4,60,-4
13260,-400,56,1872,-3,59,-6
13265,-384,48,1896,-4,59,-3
13270,-384,40,1904,-4,59,-6
13275,-408,56,1888,-7,59,-4
13280,-424,64,1912,-7,59,-6
13285,-400,48,1888,-7,59,-3
13290,-392,32,1888,-7,59,-3
13295,-376,40,1912,-7,57,0
13300,-384,40,1912,-7,56,-3
13305,-408,48,1888,-6,57,-2
13310,-400,56,1896,-7,58,-6
13315,-432,56,1864,-5,57,-4
13320,-392,48,1904,-3,57,-7
13325,-376,48,1880,-2,59,-4
13330,-400,48,1880,0,60,-8
13335,-408,64,1904,1,62,-6
13340,-400,56,1904,2,65,-9
13345,-400,48,1848,3,68,-7
13350,-392,72,1880,3,71,-9
13355,-384,40,1928,5,73,-6
13360,-392,64,1888,5,75,-8
13365,-384,56,1888,4,75,-8
13370,-408,56,1864,3,75,-9
13375,-384,64,1888,1,73,-9
13380,-408,72,1880,-1,69,-11
13385,-376,56,1880,-3,68,-10
13390,-400,64,1872,-6,68,-12
13395,-408,64,1848,-8,67,-11
13400,-376,48,1872,-11,64,-12
13405,-408,72,1912,-14,65,-10
13410,-432,72,1896,-15,66,-13
13415,-408,88,1896,-16,66,-10
13420,-400,96,1880,-16,66,-12
13425,-408,80,1888,-16,68,-10
13430,-416,56,1888,-17,66,-11
13435,-376,56,1904,-15,67,-7
13440,-408,72,1904,-14,67,-9
13445,-400,72,1904,-13,67,-7
13450,-432,32,1904,-11,65,-7
13455,-416,56,1864,-8,65,-4
13460,-408,80,1888,-6,64,-5
13465,-440,72,1888,-5,64,-3
13470,-416,72,1872,-3,66,-5
13475,-416,72,1872,-2,65,-2
13480,-416,64,1880,-1,66,-5
13485,-392,64,1888,0,67,-4
13490,-400,48,1880,-1,65,-7
13495,-400,64,1904,-1,65,-5
13500,-376,72,1880,-1,65,-6
13505,-392,56,1920,-3,64,-6
13510,-392,72,1904,-2,66,-8
13515,-416,88,1888,-4,66,-7
13520,-416,72,1880,-3,66,-8
13525,-400,64,1896,-5,66,-7
13530,-400,72,1888,-5,67,-9
13535,-400,56,1880,-5,68,-7
13540,-400,80,1856,-5,68,-7
13545,-400,80,1880,-5,68,-6
13550,-376,72,1888,-3,68,-6
13555,-408,48,1904,-1,70,-4
13560,-416,80,1848,1,71,-6
13565,-376,56,1872,3,72,-4
13570,-424,72,1888,7,73,-6
13575,-392,88,1888,10,74,-3
13580,-400,72,1872,11,73,-5
13585,-416,56,1896,11,73,-3
13590,-400,72,1880,11,73,-5
13595,-408,64,1912,10,74,-3
13600,-408,88,1880,10,72,-4
13605,-400,64,1928,8,71,-3
13610,-416,56,1880,5,71,-3
13615,-408,64,1888,3,69,-1
13620,-416,72,1904,1,66,-1
13625,-392,56,1872,-1,65,-1
13630,-432,64,1896,-4,65,0
13635,-408,80,1896,-4,62,2
13640,-392,64,1912,-6,60,1
13645,-416,56,1888,-7,58,2
13650,-400,48,1856,-7,58,0
13655,-416,64,1872,-6,58,1
13660,-424,64,1888,-6,56,1
13665,-416,48,1864,-6,55,0
13670,-416,48,1864,-4,56,-3
13675,-392,72,1872,-4,58,-4
13680,-424,64,1872,-3,61,-6
13685,-432,64,1896,-3,61,-7
13690,-408,56,1904,-1,63,-7
13695,-416,56,1880,0,66,-6
13700,-416,72,1872,0,66,-7
13705,-392,48,1888,-1,67,-6
13710,-424,80,1856,-3,68,-5
13715,-392,48,1880,-6,68,-6
13720,-400,72,1864,-9,69,-7
13725,-392,48,1904,-12,69,-8
13730,-400,64,1904,-14,70,-9
13735,-376,48,1904,-16,71,-8
13740,-400,40,1904,-16,70,-10
13745,-400,48,1920,-14,71,-10
13750,-384,56,1880,-10,71,-11
13755,-384,32,1888,-5,72,-11
13760,-408,80,1896,2,73,-9
13765,-416,56,1912,6,74,-8
13770,-408,72,1888,9,74,-8
13775,-424,80,1848,10,73,-7
13780,-416,56,1896,10,70,-6
13785,-408,56,1872,10,70,-4
13790,-416,80,1856,13,66,-5
13795,-416,72,1872,12,65,-4
13800,-416,72,1888,12,63,-3
13805,-416,72,1880,12,61,-3
13810,-392,56,1896,13,63,-4
13815,-416,64,1864,12,62,-4
13820,-424,64,1880,10,62,-4
13825,-400,88,1872,7,62,-6
13830,-408,88,1848,4,64,-7
13835,-416,120,1808,3,66,-6
13840,-416,80,1888,0,65,-7
13845,-432,96,1880,1,66,-7
13850,-416,72,1880,0,64,-6
13855,-424,96,1896,-2,63,-5
13860,-416,88,1904,-1,60,-4
13865,-424,80,1896,-2,58,-5
13870,-424,88,1888,-2,56,-5
13875,-416,88,1896,0,54,-5
13880,-416,56,1864,1,54,-4
13885,-408,64,1864,2,53,-6
13890,-424,88,1920,2,56,-6
13895,-424,72,1904,2,56,-6
13900,-440,96,1880,-1,58,-6
13905,-392,64,1880,-2,57,-7
13910,-416,96,1872,-5,59,-7
13915,-392,80,1888,-7,58,-7
13920,-408,72,1896,-6,58,-7
13925,-432,80,1888,-7,57,-7
13930,-432,96,1896,-6,55,-5
13935,-408,80,1896,-6,55,-8
13940,-400,72,1912,-4,54,-6
13945,-392,72,1888,-2,53,-7
13950,-424,80,1888,-1,53,-7
13955,-408,88,1896,0,51,-8
13960,-408,64,1896,0,52,-7
13965,-400,88,1880,3,50,-6
13970,-400,88,1880,3,50,-4
13975,-416,72,1896,6,49,-5
13980,-408,96,1888,7,51,-3
13985,-400,72,1880,8,52,-5
13990,-408,64,1904,10,53,-4
13995,-400,80,1864,10,55,-6
14000,-392,96,1864,9,58,-6
14005,-424,64,1872,9,59,-7
14010,-376,80,1896,8,62,-7
14015,-416,80,1872,8,63,-9
14020,-384,72,1888,5,63,-7
14025,-384,72,1904,4,65,-9
14030,-416,80,1880,4,67,-8
14035,-408,48,1880,3,67,-10
14040,-432,96,1880,2,66,-8
14045,-400,88,1880,2,67,-10
14050,-408,80,1856,0,67,-9
14055,-392,72,1880,0,66,-11
14060,-416,80,1880,-2,64,-9
14065,-392,72,1904,-6,63,-11
14070,-392,64,1904,-8,63,-9
14075,-392,72,1912,-10,62,-11
14080,-392,80,1880,-12,61,-8
14085,-416,88,1888,-14,63,-9
14090,-416,88,1904,-17,62,-7
14095,-400,88,1880,-20,62,-8
14100,-400,104,1896,-20,63,-6
14105,-392,88,1864,-20,63,-7
14110,-384,88,1888,-22,64,-5
14115,-416,88,1880,-23,64,-5
14120,-384,88,1896,-25,62,-2
14125,-400,96,1896,-25,63,-4
14130,-392,80,1888,-25,61,-2
14135,-400,80,1896,-25,62,-4
14140,-416,80,1920,-24,60,-2
14145,-392,72,1896,-23,59,-4
14150,-408,64,1872,-24,59,-2
14155,-432,80,1880,-24,58,-4
14160,-464,96,1880,-26,56,-2
14165,-408,64,1912,-26,56,-2
14170,-408,72,1880,-27,54,0
14175,-424,88,1880,-26,53,-2
14180,-416,96,1896,-25,53,1
14185,-424,104,1880,-25,54,-1
14190,-424,112,1872,-24,52,2
14195,-400,80,1888,-24,52,0
14200,-416,80,1880,-24,53,2
14205,-400,96,1856,-23,53,1
14210,-400,72,1880,-20,51,4
14215,-392,88,1888,-21,51,0
14220,-400,80,1880,-20,51,2
14225,-400,72,1880,-21,53,0
14230,-400,80,1896,-22,52,2
14235,-408,88,1888,-23,54,-2
14240,-400,96,1896,-26,55,1
14245,-392,80,1880,-28,55,-1
14250,-400,72,1864,-31,53,2
14255,-408,80,1888,-31,53,-1
14260,-416,96,1904,-32,54,1
14265,-408,80,1880,-35,54,0
14270,-408,88,1904,-36,53,2
14275,-408,72,1888,-36,53,-1
14280,-408,72,1888,-36,53,2
14285,-392,56,1880,-38,51,-1
14290,-416,72,1880,-38,52,2
14295,-384,72,1896,-37,53,0
14300,-384,72,1888,-36,54,1
14305,-416,72,1888,-33,53,-1
14310,-408,64,1888,-32,54,1
14315,-400,64,1864,-32,55,-1
14320,-416,40,1896,-32,54,2
14325,-400,64,1896,-30,55,-1
14330,-416,72,1888,-27,55,1
14335,-416,56,1912,-28,57,0
14340,-384,56,1872,-27,57,1
14345,-400,88,1872,-27,56,-2
14350,-376,64,1840,-25,55,1
14355,-392,64,1896,-26,55,-2
14360,-400,48,1880,-25,57,1
14365,-400,72,1888,-27,56,-1
14370,-408,64,1896,-27,56,1
14375,-392,80,1904,-28,57,-2
14380,-392,48,1872,-28,58,0
14385,-400,96,1864,-29,58,-3
14390,-392,80,1928,-30,57,0
14395,-400,104,1904,-32,58,-2
14400,-400,64,1888,-31,58,2
14405,-408,72,1880,-33,58,-1
14410,-408,88,1880,-33,58,1
14415,-408,88,1872,-32,57,-2
14420,-416,72,1864,-32,56,1
14425,-392,64,1872,-31,56,-2
14430,-400,56,1888,-31,57,1
14435,-392,72,1880,-32,56,-1
14440,-408,64,1880,-31,57,1
14445,-416,64,1896,-32,57,0
14450,-400,88,1888,-31,57,2
14455,-408,80,1888,-30,57,0
14460,-408,56,1880,-31,56,3
14465,-392,80,1856,-32,58,0
14470,-400,80,1904,-31,56,2
14475,-416,40,1880,-31,58,1
14480,-392,72,1896,-33,57,4
14485,-400,72,1864,-34,55,1
14490,-408,72,1880,-34,55,4
14495,-408,64,1888,-34,56,0
14500,-400,64,1904,-36,54,3
14505,-392,64,1880,-36,54,0
14510,-392,64,1888,-35,55,5
14515,-416,72,1880,-34,54,0
14520,-408,88,1888,-35,53,2
14525,-416,48,1888,-34,56,1
14530,-392,72,1888,-34,56,1
14535,-424,80,1888,-35,57,-1
14540,-408,80,1904,-35,57,1
14545,-408,56,1864,-36,58,0
14550,-384,80,1888,-36,57,2
14555,-408,88,1864,-34,60,1
14560,-400,72,1888,-35,60,3
14565,-408,64,1912,-36,58,0
14570,-408,56,1872,-36,59,4
14575,-400,72,1912,-35,59,3
14580,-400,72,1888,-34,57,6
14585,-400,72,1856,-32,55,4
14590,-424,64,1880,-31,53,4
14595,-392,40,1888,-29,51,2
14600,-408,56,1872,-27,51,5
14605,-392,40,1896,-26,49,2
14610,-408,48,1896,-24,47,5
14615,-408,72,1864,-22,47,1
14620,-408,56,1880,-18,48,4
14625,-416,64,1888,-14,49,1
14630,-400,56,1872,-10,52,4
14635,-416,64,1872,-5,54,2
14640,-416,72,1848,-3,56,4
14645,-416,96,1880,-3,58,3
14650,-400,80,1856,-7,59,4
14655,-392,56,1896,-11,61,-1
14660,-376,64,1872,-17,62,0
14665,-400,64,1912,-24,66,-3
14670,-384,48,1944,-32,68,-1
14675,-376,8,1936,-37,69,-2
14680,-400,64,1864,-39,69,-1
14685,-408,64,1888,-40,69,-2
14690,-408,32,1888,-39,68,0
14695,-400,48,1896,-36,69,-1
14700,-408,48,1904,-32,71,1
14705,-408,32,1904,-29,72,3
14710,-400,56,1864,-28,70,3
14715,-384,64,1880,-28,67,4
14720,-408,48,1904,-29,65,6
14725,-392,64,1888,-32,61,6
14730,-408,64,1888,-35,56,8
14735,-400,64,1928,-35,56,7
14740,-416,40,1904,-37,52,9
14745,-408,56,1856,-37,50,8
14750,-384,40,1864,-40,49,7
14755,-408,56,1896,-43,48,6
14760,-392,24,1896,-48,48,5
14765,-408,48,1864,-52,49,5
14770,-408,80,1872,-55,50,5
14775,-392,48,1872,-58,50,4
14780,-400,80,1920,-59,53,3
14785,-400,56,1896,-59,53,3
14790,-384,64,1888,-57,54,6
14795,-400,64,1896,-53,53,6
14800,-408,80,1904,-49,53,6
14805,-384,48,1896,-43,53,6
14810,-416,64,1896,-38,53,6
14815,-408,72,1896,-32,53,4
14820,-432,72,1880,-30,54,5
14825,-384,80,1896,-28,55,5
14830,-408,56,1864,-27,55,4
14835,-384,64,1928,-26,56,4
14840,-400,32,1872,-25,56,3
14845,-392,56,1888,-28,57,3
14850,-400,48,1880,-29,57,3
14855,-400,56,1912,-31,56,2
14860,-376,48,1888,-34,56,2
14865,-384,48,1864,-34,54,1
14870,-392,56,1872,-36,53,0
14875,-392,32,1880,-38,52,1
14880,-408,48,1888,-39,51,0
14885,-384,56,1880,-40,51,-1
14890,-400,48,1904,-37,49,0
14895,-384,40,1888,-37,49,-1
14900,-384,48,1872,-35,50,-3
14905,-392,64,1856,-33,54,0
14910,-416,8,1896,-32,54,-1
14915,-400,56,1888,-30,54,1
14920,-400,64,1872,-28,55,0
14925,-416,40,1864,-27,55,-1
14930,-408,56,1864,-24,57,-3
14935,-392,40,1856,-22,56,-4
14940,-400,56,1864,-19,60,-5
14945,-376,32,1872,-18,61,-5
14950,-392,16,1864,-16,61,-7
14955,-384,48,1880,-13,63,-6
14960,-384,48,1856,-11,64,-6
14965,-392,32,1872,-9,67,-6
14970,-400,40,1856,-7,70,-7
14975,-392,8,1896,-6,69,-6
14980,-384,56,1880,-4,72,-6
14985,-392,40,1896,-1,72,-7
14990,-400,32,1888,0,68,-7
14995,-416,32,1840,1,67,-7
