timestamp,accel_x,accel_y,accel_z,gyro_x,gyro_y,gyro_z
0,-256,-2048,-176,-3,14,2
5,-264,-2040,-224,-2,16,-2
10,-256,-2024,-224,0,20,-7
15,-224,-2056,-208,4,22,-13
20,-224,-2040,-200,8,23,-18
25,-224,-2112,-184,13,26,-25
30,-224,-2072,-176,18,30,-29
35,-224,-2016,-224,23,35,-33
40,-208,-2024,-224,25,39,-36
45,-208,-2032,-200,24,45,-37
50,-192,-2024,-200,24,52,-38
55,-192,-2032,-200,22,59,-39
60,-192,-2032,-176,21,64,-38
65,-184,-2032,-160,19,69,-35
70,-184,-2032,-128,13,74,-32
75,-192,-2056,-168,4,79,-28
80,-192,-2056,-176,-6,82,-25
85,-184,-2040,-160,-19,85,-22
90,-176,-2056,-192,-34,89,-21
95,-200,-2072,-168,-48,91,-20
100,-192,-2064,-200,-64,93,-22
105,-200,-2072,-224,-78,95,-25
110,-184,-2040,-192,-93,97,-26
115,-248,-2056,-208,-108,101,-29
120,-232,-2008,-184,-123,104,-31
125,-232,-1992,-192,-137,109,-33
130,-232,-1992,-232,-150,116,-35
135,-152,-2016,-208,-164,125,-36
140,-184,-2000,-200,-176,134,-40
145,-184,-1992,-152,-185,139,-46
150,-200,-1992,-120,-189,140,-53
155,-200,-1992,-120,-189,139,-58
160,-208,-1984,-96,-185,137,-57
165,-176,-1992,-48,-175,136,-55
170,-208,-1984,-80,-160,138,-46
175,-168,-2000,-48,-142,140,-34
180,-144,-2000,-40,-123,139,-20
185,-104,-1992,-80,-107,137,-6
190,-128,-2016,-32,-96,129,7
195,-120,-2032,-40,-93,117,20
200,-128,-2056,-8,-95,101,31
205,-120,-2056,-48,-98,80,41
210,-152,-2080,-24,-101,63,51
215,-160,-2104,24,-103,45,60
220,-168,-2096,40,-99,31,68
225,-192,-2072,40,-93,19,73
230,-216,-2088,32,-86,7,78
235,-224,-2088,64,-82,-5,85
240,-248,-2024,0,-80,-11,88
245,-232,-2056,-40,-82,-19,92
250,-224,-2048,-24,-87,-26,94
255,-248,-2032,-80,-93,-31,97
260,-240,-2000,-80,-102,-31,98
265,-232,-2008,-56,-107,-30,98
270,-232,-1992,-88,-109,-27,96
275,-208,-2024,-96,-111,-22,95
280,-224,-1992,-80,-114,-14,91
285,-168,-1992,-128,-119,-7,87
290,-160,-1984,-136,-125,-2,82
295,-112,-1968,-160,-130,3,78
300,-104,-1992,-160,-135,9,75
305,-88,-1976,-200,-144,14,73
310,-40,-1984,-208,-158,19,71
315,-80,-1976,-288,-173,27,72
320,-32,-2008,-304,-193,32,72
325,-80,-1984,-296,-213,42,75
330,-56,-2000,-312,-226,52,78
335,-80,-2008,-328,-234,64,80
340,-112,-2008,-360,-238,75,81
345,-112,-1992,-352,-239,82,82
350,-136,-2000,-344,-241,86,82
355,-152,-1992,-392,-241,89,80
360,-160,-1968,-408,-237,90,78
365,-200,-1952,-384,-232,86,75
370,-216,-1928,-376,-222,77,67
375,-272,-1888,-392,-209,67,53
380,-296,-1864,-408,-196,58,34
385,-328,-1824,-376,-188,49,15
390,-336,-1816,-368,-181,40,-8
395,-392,-1760,-336,-174,34,-34
400,-464,-1776,-400,-169,30,-61
405,-480,-1768,-336,-165,30,-89
410,-472,-1800,-296,-166,31,-119
415,-504,-1824,-320,-171,35,-145
420,-512,-1896,-352,-184,37,-170
425,-528,-1968,-320,-202,43,-187
430,-520,-2064,-288,-226,49,-199
435,-568,-2096,-256,-248,60,-203
440,-512,-2216,-288,-276,67,-197
445,-520,-2296,-240,-303,73,-187
450,-504,-2352,-192,-322,79,-169
455,-488,-2400,-184,-332,83,-145
460,-496,-2424,-200,-328,84,-113
465,-448,-2424,-168,-311,82,-79
470,-416,-2432,-104,-284,79,-39
475,-376,-2408,-112,-244,74,3
480,-360,-2384,-96,-197,64,39
485,-320,-2352,-40,-147,55,75
490,-288,-2248,8,-97,43,107
495,-216,-2192,24,-47,30,135
500,-184,-2136,48,-2,15,152
505,-144,-2088,40,36,6,164
510,-168,-2096,16,60,0,173
515,-112,-2024,16,72,0,179
520,-96,-1992,0,80,9,186
525,-96,-1984,0,78,26,190
530,-80,-1960,-16,66,47,195
535,-104,-1968,-64,47,71,201
540,-136,-1936,-88,26,99,208
545,-136,-1928,-120,2,126,218
550,-176,-1928,-136,-29,154,230
555,-176,-1896,-160,-63,178,243
560,-200,-1920,-184,-97,201,256
565,-224,-1944,-192,-132,219,267
570,-224,-1976,-192,-162,233,276
575,-280,-1976,-192,-186,247,287
580,-312,-1976,-168,-203,259,291
585,-344,-1984,-160,-213,268,291
590,-360,-1976,-152,-213,280,291
595,-400,-1992,-152,-213,292,290
600,-400,-1968,-144,-210,297,284
605,-440,-1976,-136,-202,298,274
610,-440,-1960,-152,-192,303,264
615,-464,-1960,-112,-183,302,251
620,-464,-1880,-64,-175,301,237
625,-488,-1928,-104,-162,299,221
630,-496,-1904,-96,-146,297,204
635,-528,-1896,-112,-133,293,184
640,-512,-1888,-80,-119,290,167
645,-536,-1920,-80,-107,288,150
650,-512,-1928,-72,-95,283,134
655,-512,-1936,-64,-84,280,118
660,-504,-1944,-48,-73,276,101
665,-504,-1952,-64,-61,277,85
670,-472,-1984,-32,-49,278,74
675,-488,-1968,-80,-37,277,62
680,-456,-1976,-40,-25,279,53
685,-448,-1968,-72,-15,280,46
690,-432,-1976,-48,-7,283,43
695,-392,-1984,-64,1,284,36
700,-392,-1976,-56,6,283,33
705,-392,-1936,-40,11,282,30
710,-376,-1976,-64,18,279,28
715,-384,-1960,-64,24,279,24
720,-384,-1984,-64,30,277,19
725,-384,-1968,-56,38,274,13
730,-392,-1960,-48,44,271,7
735,-344,-1992,-56,47,269,2
740,-360,-1992,-48,51,268,-3
745,-360,-1984,-112,52,269,-7
750,-368,-2000,-80,54,272,-7
755,-384,-2000,-112,54,279,-8
760,-368,-2000,-104,54,286,-7
765,-400,-1992,-128,55,294,-6
770,-408,-2016,-120,56,303,-5
775,-392,-2032,-104,56,312,-3
780,-408,-2008,-144,55,322,-1
785,-392,-1992,-120,59,334,-3
790,-416,-2024,-120,65,347,-3
795,-384,-2048,-136,75,360,-6
800,-424,-2048,-104,86,376,-8
805,-432,-2080,-104,99,389,-8
810,-416,-2056,-112,113,400,-10
815,-448,-2048,-88,129,411,-11
820,-448,-2088,-104,141,418,-9
825,-488,-2088,-64,157,423,-4
830,-488,-2120,-40,174,423,0
835,-448,-2080,-32,192,422,6
840,-520,-2176,0,212,417,10
845,-568,-2176,24,232,412,17
850,-576,-2208,32,252,402,25
855,-568,-2264,40,273,392,33
860,-592,-2272,80,296,381,41
865,-584,-2272,72,320,371,48
870,-560,-2272,88,343,359,54
875,-552,-2264,88,366,356,58
880,-536,-2248,56,385,352,62
885,-512,-2248,88,405,349,62
890,-504,-2224,104,421,350,64
895,-496,-2208,128,436,356,64
900,-504,-2168,136,450,364,65
905,-528,-2136,128,459,371,68
910,-560,-2096,64,458,382,75
915,-528,-2088,-24,421,400,88
920,-400,-2240,-88,344,426,101
925,-424,-2384,-72,283,443,115
930,-504,-2496,-144,248,456,136
935,-560,-2552,-160,195,474,166
940,-568,-2600,-184,114,492,190
945,-576,-2640,-136,45,512,208
950,-688,-2632,-96,17,500,229
955,-776,-2560,-120,41,442,254
960,-840,-2536,-160,80,374,287
965,-904,-2504,-184,103,297,311
970,-896,-2480,-312,102,223,329
975,-904,-2456,-400,79,148,349
980,-920,-2424,-456,36,71,371
985,-992,-2360,-552,-17,-10,397
990,-1000,-2312,-512,-62,-85,422
995,-976,-2256,-552,-82,-153,441
1000,-936,-2192,-440,-72,-206,456
1005,-912,-2128,-400,-31,-251,464
1010,-856,-2024,-376,32,-291,456
1015,-784,-1944,-376,104,-325,435
1020,-688,-1816,-384,172,-349,399
1025,-568,-1744,-400,232,-358,348
1030,-440,-1672,-424,271,-351,288
1035,-328,-1568,-464,290,-330,222
1040,-216,-1544,-464,288,-297,153
1045,-136,-1480,-472,270,-252,88
1050,-56,-1432,-512,235,-197,27
1055,8,-1432,-552,189,-131,-28
1060,48,-1392,-568,135,-53,-74
1065,120,-1336,-576,87,34,-109
1070,184,-1312,-624,36,118,-130
1075,248,-1296,-608,-25,202,-144
1080,248,-1304,-568,-78,286,-157
1085,320,-1368,-592,-113,366,-168
1090,368,-1464,-544,-133,441,-168
1095,392,-1576,-544,-137,507,-161
1100,384,-1704,-512,-134,558,-149
1105,336,-1848,-512,-122,594,-128
1110,296,-1984,-528,-109,616,-102
1115,264,-2136,-504,-100,628,-74
1120,184,-2280,-504,-90,629,-46
1125,88,-2440,-488,-74,624,-18
1130,24,-2520,-480,-54,616,6
1135,-56,-2592,-456,-23,599,29
1140,-120,-2632,-424,17,581,44
1145,-184,-2624,-400,65,561,50
1150,-240,-2600,-416,117,537,50
1155,-296,-2552,-376,166,515,42
1160,-328,-2488,-408,207,497,30
1165,-376,-2464,-440,235,482,9
1170,-376,-2400,-480,249,470,-14
1175,-408,-2320,-464,250,461,-37
1180,-408,-2264,-456,242,455,-62
1185,-440,-2192,-440,228,450,-88
1190,-448,-2104,-408,207,444,-114
1195,-488,-2040,-360,180,441,-138
1200,-512,-1944,-352,150,438,-155
1205,-544,-1888,-344,120,434,-172
1210,-504,-1800,-328,82,427,-187
1215,-568,-1800,-280,38,418,-198
1220,-552,-1752,-264,-10,407,-206
1225,-568,-1696,-280,-59,395,-212
1230,-544,-1696,-280,-105,382,-221
1235,-528,-1696,-240,-144,370,-229
1240,-520,-1680,-280,-177,361,-234
1245,-488,-1688,-208,-203,358,-239
1250,-464,-1720,-184,-219,355,-246
1255,-400,-1760,-200,-228,355,-255
1260,-424,-1736,-168,-234,350,-272
1265,-344,-1704,-208,-235,338,-296
1270,-296,-1776,-168,-231,326,-316
1275,-280,-1808,-144,-231,314,-330
1280,-248,-1816,-136,-235,294,-345
1285,-192,-1824,-136,-237,271,-356
1290,-136,-1840,-128,-237,252,-360
1295,-216,-1856,-152,-234,233,-357
1300,-120,-1792,-128,-228,216,-350
1305,-64,-1904,-184,-223,200,-344
1310,-72,-1864,-168,-217,186,-340
1315,-8,-1880,-136,-213,176,-333
1320,-24,-1872,-144,-206,167,-325
1325,-48,-1904,-144,-200,157,-316
1330,-8,-1912,-152,-195,142,-309
1335,0,-1912,-136,-190,125,-300
1340,0,-1864,-176,-180,107,-291
1345,0,-1968,-96,-168,87,-277
1350,-8,-1888,-8,-158,68,-263
1355,-40,-1888,-16,-148,50,-245
1360,-168,-1840,-16,-137,35,-224
1365,-112,-1896,-120,-124,21,-204
1370,-48,-1856,-88,-110,13,-182
1375,-96,-1752,-64,-97,9,-159
1380,-176,-1832,-176,-82,5,-138
1385,-136,-1816,-144,-70,1,-120
1390,-184,-1824,-144,-57,-1,-101
1395,-176,-1808,-120,-50,-4,-83
1400,-208,-1800,-128,-43,-7,-69
1405,-184,-1800,-104,-38,-10,-55
1410,-192,-1816,-128,-36,-13,-42
1415,-160,-1800,-104,-37,-15,-30
1420,-112,-1864,-40,-39,-18,-20
1425,-200,-1840,-24,-42,-20,-10
1430,-144,-1936,-72,-45,-20,3
1435,-168,-1896,-40,-47,-17,18
1440,-176,-1944,-128,-49,-17,33
1445,-136,-1912,-56,-52,-21,45
1450,-192,-1944,-120,-54,-25,59
1455,-168,-1960,-104,-56,-31,73
1460,-176,-2008,-64,-59,-39,87
1465,-160,-2040,-24,-62,-49,103
1470,-208,-2000,-48,-64,-58,116
1475,-224,-2000,-96,-66,-69,130
1480,-240,-2024,-40,-70,-80,142
1485,-280,-2016,8,-73,-93,149
1490,-240,-2032,24,-76,-106,154
1495,-320,-2032,-8,-81,-122,153
1500,-344,-2056,32,-83,-141,145
1505,-440,-2104,-32,-86,-159,130
1510,-312,-2080,48,-88,-169,110
1515,-464,-2168,40,-86,-163,87
1520,-328,-2136,136,-81,-150,62
1525,-376,-2248,0,-73,-133,31
1530,-384,-2224,120,-67,-126,-18
1535,-344,-2296,-48,-54,-125,-66
1540,-360,-2288,40,-37,-137,-119
1545,-296,-2424,104,-25,-160,-170
1550,-312,-2392,104,-10,-186,-207
1555,-312,-2440,152,22,-212,-224
1560,-368,-2488,200,57,-247,-235
1565,-344,-2504,232,100,-285,-243
1570,-328,-2480,208,145,-324,-245
1575,-344,-2496,176,190,-354,-231
1580,-192,-2552,64,219,-373,-214
1585,-248,-2584,-152,232,-369,-195
1590,-304,-2760,-168,228,-357,-197
1595,-240,-2904,-128,194,-378,-224
1600,-272,-2960,-432,111,-401,-269
1605,-104,-3192,-512,-25,-410,-324
1610,-64,-3224,-488,-184,-411,-376
1615,-40,-3360,-352,-301,-380,-423
1620,32,-3368,-264,-305,-306,-477
1625,104,-3304,-152,-188,-204,-528
1630,112,-3168,-96,-19,-105,-573
1635,144,-3064,-112,146,-21,-625
1640,176,-2960,-176,303,62,-645
1645,128,-2776,-264,457,132,-635
1650,192,-2544,-392,585,175,-607
1655,208,-2312,-456,666,197,-571
1660,216,-2104,-584,681,201,-531
1665,248,-1968,-528,655,189,-480
1670,232,-1840,-584,595,155,-422
1675,192,-1840,-544,526,114,-363
1680,176,-1744,-512,467,73,-299
1685,80,-1760,-448,420,27,-237
1690,-32,-1752,-520,379,-21,-177
1695,-72,-1648,-552,332,-72,-115
1700,-192,-1616,-536,271,-136,-58
1705,-296,-1584,-616,198,-199,-9
1710,-376,-1560,-688,123,-268,29
1715,-472,-1488,-736,52,-338,55
1720,-520,-1472,-736,-9,-412,71
1725,-520,-1400,-888,-62,-486,77
1730,-696,-1336,-856,-107,-549,74
1735,-728,-1344,-856,-147,-601,63
1740,-784,-1328,-872,-183,-637,45
1745,-816,-1416,-888,-215,-654,20
1750,-824,-1432,-864,-238,-656,-6
1755,-752,-1512,-800,-263,-645,-40
1760,-680,-1624,-752,-282,-621,-75
1765,-624,-1752,-696,-294,-591,-110
1770,-504,-1864,-672,-300,-559,-135
1775,-464,-1944,-624,-301,-518,-147
1780,-360,-1992,-592,-291,-471,-148
1785,-264,-2096,-560,-270,-419,-140
1790,-168,-2176,-480,-242,-364,-124
1795,-96,-2176,-512,-215,-309,-98
1800,-24,-2192,-480,-187,-259,-69
1805,56,-2216,-520,-162,-216,-38
1810,112,-2240,-520,-142,-183,-6
1815,168,-2192,-544,-128,-157,30
1820,240,-2224,-496,-119,-137,66
1825,272,-2208,-528,-109,-121,101
1830,280,-2200,-520,-97,-111,135
1835,280,-2136,-504,-75,-104,169
1840,240,-2008,-496,-44,-99,204
1845,264,-2056,-440,-5,-93,229
1850,256,-1992,-408,40,-79,251
1855,184,-1968,-368,91,-63,269
1860,184,-1928,-320,144,-45,283
1865,88,-1888,-352,197,-28,292
1870,16,-1856,-272,247,-7,304
1875,-32,-1824,-280,286,9,307
1880,-80,-1808,-248,305,21,304
1885,-176,-1808,-232,313,38,301
1890,-264,-1776,-216,320,51,296
1895,-328,-1824,-200,323,63,291
1900,-368,-1840,-224,321,78,293
1905,-432,-1832,-224,311,88,297
1910,-424,-1848,-208,289,96,317
1915,-416,-1904,-200,275,97,365
1920,-512,-1904,-264,278,87,395
1925,-520,-1848,-264,277,87,382
1930,-544,-1776,-280,248,98,353
1935,-528,-1768,-216,213,117,332
1940,-536,-1736,-200,185,136,321
1945,-552,-1704,-216,159,148,310
1950,-528,-1728,-160,136,156,298
1955,-520,-1752,-200,119,161,283
1960,-512,-1736,-144,108,172,277
1965,-480,-1712,-168,99,181,274
1970,-480,-1712,-160,86,188,265
1975,-440,-1736,-176,69,199,259
1980,-448,-1728,-128,48,206,251
1985,-416,-1744,-112,25,204,235
1990,-392,-1760,-80,10,204,219
1995,-368,-1792,-80,-3,206,202
2000,-384,-1792,-80,-17,208,178
2005,-376,-1824,-80,-28,213,162
2010,-352,-1856,-64,-32,220,146
2015,-376,-1864,-56,-30,229,130
2020,-368,-1912,-80,-21,238,113
2025,-304,-1912,-24,-11,246,99
2030,-360,-1960,-80,0,255,87
2035,-376,-1984,-104,10,264,78
2040,-360,-1976,-88,22,270,70
2045,-360,-1984,-88,29,277,65
2050,-368,-1992,-88,34,285,62
2055,-352,-1984,-104,43,295,58
2060,-336,-1960,-72,54,302,55
2065,-336,-1984,-72,64,313,50
2070,-352,-1984,-104,73,323,44
2075,-312,-1992,-112,82,334,38
2080,-328,-1976,-72,89,349,27
2085,-312,-1968,-120,98,361,17
2090,-312,-1968,-88,106,372,7
2095,-272,-1984,-80,113,384,-6
2100,-264,-1976,-88,119,392,-19
2105,-272,-1960,-80,127,402,-30
2110,-280,-1968,-56,135,412,-41
2115,-288,-1976,-40,146,420,-52
2120,-304,-1976,-24,153,430,-61
2125,-296,-1984,0,162,438,-70
2130,-328,-1992,32,171,446,-79
2135,-400,-2008,24,182,453,-83
2140,-408,-2040,56,193,457,-85
2145,-464,-2064,88,203,460,-85
2150,-488,-2112,128,215,460,-83
2155,-512,-2128,160,230,458,-81
2160,-528,-2136,192,248,458,-78
2165,-544,-2192,200,268,456,-73
2170,-592,-2224,216,291,454,-72
2175,-568,-2232,264,312,453,-68
2180,-544,-2256,280,332,453,-64
2185,-552,-2280,312,351,449,-62
2190,-520,-2288,312,370,438,-61
2195,-536,-2240,352,385,423,-58
2200,-512,-2184,344,397,404,-54
2205,-528,-2168,384,408,388,-46
2210,-504,-2160,368,419,368,-38
2215,-512,-2136,416,435,351,-28
2220,-512,-2096,424,453,337,-19
2225,-504,-2104,440,469,319,-11
2230,-504,-2048,456,480,311,7
2235,-536,-2032,440,487,302,21
2240,-560,-2016,472,491,291,37
2245,-616,-2016,424,487,282,52
2250,-736,-2016,328,474,272,68
2255,-584,-2056,192,422,272,80
2260,-512,-2240,104,308,281,90
2265,-592,-2408,-8,189,276,119
2270,-664,-2560,-160,100,264,170
2275,-688,-2672,-304,-5,254,220
2280,-640,-2848,-344,-134,255,252
2285,-616,-2960,-208,-242,254,270
2290,-680,-3000,-88,-270,221,302
2295,-760,-2936,32,-199,148,358
2300,-784,-2816,64,-70,61,420
2305,-824,-2672,-32,57,-22,476
2310,-768,-2560,-120,151,-97,524
2315,-696,-2432,-232,200,-166,551
2320,-672,-2304,-384,207,-226,568
2325,-672,-2168,-464,189,-273,580
2330,-688,-2040,-600,152,-305,587
2335,-656,-1968,-624,102,-317,584
2340,-648,-1936,-696,54,-303,571
2345,-648,-1920,-648,18,-272,543
2350,-512,-1848,-608,1,-224,504
2355,-408,-1800,-560,4,-164,460
2360,-272,-1704,-528,30,-99,417
2365,-96,-1624,-552,62,-30,367
2370,32,-1544,-592,86,51,314
2375,176,-1488,-616,99,138,263
2380,320,-1472,-648,97,226,208
2385,432,-1472,-680,82,314,157
2390,520,-1472,-688,53,399,106
2395,616,-1496,-688,15,477,60
2400,632,-1608,-664,-31,540,14
2405,584,-1704,-632,-80,586,-25
2410,472,-1792,-624,-134,609,-54
2415,336,-1896,-560,-194,617,-68
2420,184,-2000,-488,-255,617,-77
2425,40,-2112,-472,-310,607,-79
2430,-160,-2216,-416,-360,596,-78
2435,-320,-2352,-392,-404,577,-73
2440,-496,-2448,-328,-438,555,-70
2445,-608,-2504,-320,-457,528,-66
2450,-752,-2544,-288,-465,496,-66
2455,-912,-2552,-288,-464,461,-69
2460,-904,-2608,-264,-453,424,-81
2465,-952,-2568,-296,-433,383,-95
2470,-976,-2472,-344,-412,339,-119
2475,-952,-2368,-376,-389,288,-151
2480,-880,-2272,-392,-362,230,-189
2485,-792,-2120,-344,-326,172,-229
2490,-720,-1992,-352,-286,116,-271
2495,-608,-1888,-368,-246,63,-304
2500,-528,-1776,-368,-205,14,-328
2505,-488,-1664,-368,-177,-33,-346
2510,-432,-1616,-336,-161,-78,-360
2515,-352,-1560,-312,-155,-117,-365
2520,-344,-1520,-304,-161,-145,-362
2525,-288,-1512,-304,-175,-166,-353
2530,-264,-1512,-272,-193,-179,-342
2535,-240,-1528,-256,-213,-186,-331
2540,-232,-1528,-232,-235,-186,-320
2545,-200,-1536,-224,-258,-180,-315
2550,-144,-1576,-256,-278,-170,-311
2555,-128,-1624,-168,-302,-155,-308
2560,-80,-1656,-176,-329,-140,-308
2565,-8,-1704,-184,-349,-118,-311
2570,-32,-1752,-176,-365,-95,-314
2575,0,-1792,-160,-383,-76,-317
2580,0,-1856,-144,-396,-60,-321
2585,0,-1888,-144,-403,-46,-321
2590,40,-1952,-160,-406,-37,-323
2595,24,-1936,-168,-412,-33,-323
2600,32,-1944,-192,-419,-37,-321
2605,8,-1944,-184,-428,-43,-316
2610,0,-1952,-160,-437,-52,-310
2615,0,-1936,-160,-446,-65,-301
2620,-24,-1936,-160,-455,-75,-286
2625,-32,-1936,-152,-461,-87,-271
2630,-64,-1936,-120,-461,-100,-251
2635,-96,-1912,-128,-456,-113,-227
2640,-136,-1896,-104,-445,-126,-201
2645,-144,-1888,-104,-426,-139,-173
2650,-144,-1888,-72,-399,-149,-149
2655,-152,-1872,-64,-371,-157,-125
2660,-160,-1864,-64,-342,-166,-101
2665,-152,-1856,-24,-313,-172,-79
2670,-144,-1880,-80,-282,-177,-61
2675,-168,-1872,-8,-249,-183,-46
2680,-136,-1864,-32,-220,-187,-35
2685,-168,-1912,16,-196,-190,-24
2690,-136,-1944,-16,-175,-195,-15
2695,-160,-1968,8,-155,-198,-6
2700,-144,-1968,-8,-136,-197,3
2705,-176,-2000,24,-120,-196,10
2710,-184,-1976,24,-109,-192,18
2715,-216,-1992,-8,-99,-188,26
2720,-208,-1984,-8,-90,-183,36
2725,-216,-2008,-16,-81,-181,46
2730,-240,-1984,-40,-77,-176,59
2735,-248,-1976,-32,-75,-177,72
2740,-264,-1968,-24,-74,-179,83
2745,-280,-1976,-32,-76,-183,95
2750,-312,-1968,-40,-79,-189,106
2755,-320,-1992,-56,-84,-196,116
2760,-304,-2016,-56,-90,-199,128
2765,-336,-2008,-16,-95,-202,137
2770,-328,-2016,-8,-101,-200,141
2775,-360,-2032,-16,-105,-200,140
2780,-344,-2008,-48,-113,-207,131
2785,-360,-2024,-40,-126,-217,102
2790,-376,-2040,-24,-139,-230,67
2795,-304,-2072,8,-152,-226,40
2800,-296,-2136,0,-145,-209,27
2805,-296,-2128,0,-118,-197,17
2810,-288,-2184,48,-90,-202,-6
2815,-296,-2160,24,-68,-223,-43
2820,-296,-2200,32,-49,-248,-78
2825,-296,-2256,32,-26,-271,-105
2830,-288,-2312,88,1,-292,-126
2835,-312,-2336,104,30,-314,-144
2840,-336,-2384,136,63,-336,-159
2845,-360,-2456,208,101,-355,-168
2850,-376,-2440,248,143,-373,-175
2855,-336,-2472,296,189,-391,-175
2860,-344,-2432,304,237,-409,-176
2865,-384,-2440,272,281,-424,-170
2870,-328,-2424,112,310,-435,-158
2875,-312,-2560,-136,316,-414,-146
2880,-384,-2648,-160,278,-371,-150
2885,-456,-2744,-288,186,-384,-175
2890,-440,-2872,-424,37,-435,-211
2895,-408,-2992,-584,-165,-454,-277
2900,-472,-3176,-712,-404,-471,-351
2905,-440,-3320,-640,-616,-476,-418
2910,-272,-3400,-480,-693,-429,-490
2915,-184,-3360,-288,-592,-334,-563
2920,-64,-3232,-264,-383,-219,-618
2925,0,-3088,-288,-143,-107,-646
2930,8,-2920,-328,69,-15,-666
2935,104,-2728,-432,252,68,-661
2940,160,-2504,-528,403,126,-640
2945,216,-2288,-600,511,164,-603
2950,272,-2128,-696,566,184,-562
2955,312,-1976,-744,592,189,-531
2960,328,-1872,-736,571,172,-506
2965,280,-1752,-720,525,137,-482
2970,176,-1672,-616,474,83,-453
2975,80,-1552,-576,430,13,-423
2980,0,-1504,-512,389,-68,-394
2985,-80,-1440,-504,353,-138,-359
2990,-240,-1336,-552,320,-224,-326
2995,-392,-1256,-576,285,-312,-295
3000,-480,-1208,-656,246,-392,-264
3005,-592,-1152,-704,197,-464,-236
3010,-720,-1128,-752,139,-525,-211
3015,-808,-1120,-824,73,-569,-188
3020,-888,-1184,-848,-3,-595,-171
3025,-888,-1312,-856,-88,-601,-161
3030,-888,-1448,-824,-173,-594,-157
3035,-840,-1608,-784,-252,-579,-162
3040,-744,-1728,-744,-325,-554,-171
3045,-616,-1936,-672,-388,-530,-175
3050,-456,-1960,-616,-428,-498,-174
3055,-384,-2224,-552,-437,-458,-168
3060,-280,-2312,-488,-418,-412,-155
3065,-168,-2440,-480,-369,-357,-135
3070,-8,-2520,-496,-306,-298,-113
3075,88,-2544,-448,-236,-241,-88
3080,176,-2584,-464,-165,-183,-63
3085,232,-2528,-472,-102,-133,-41
3090,344,-2512,-520,-54,-89,-19
3095,392,-2488,-512,-14,-51,0
3100,416,-2408,-536,19,-19,22
3105,368,-2448,-320,51,10,43
3110,360,-2240,-448,88,34,69
3115,304,-2128,-400,129,51,97
3120,272,-2032,-408,177,69,129
3125,184,-1912,-360,228,83,157
3130,120,-1840,-328,277,97,182
3135,48,-1768,-296,325,111,206
3140,-16,-1696,-312,363,122,227
3145,-64,-1648,-296,385,128,245
3150,-88,-1672,-288,395,125,261
3155,-136,-1672,-256,400,124,285
3160,-176,-1672,-248,399,115,316
3165,-232,-1688,-240,394,109,336
3170,-272,-1688,-240,377,106,344
3175,-344,-1656,-240,344,109,347
3180,-408,-1712,-248,301,112,352
3185,-400,-1720,-240,258,107,353
3190,-456,-1752,-224,219,107,361
3195,-464,-1776,-216,180,102,366
3200,-488,-1760,-240,146,101,370
3205,-504,-1768,-216,117,100,373
3210,-488,-1752,-256,93,102,375
3215,-488,-1752,-224,71,106,373
3220,-464,-1728,-232,52,111,372
3225,-448,-1720,-184,32,119,369
3230,-440,-1728,-192,12,123,360
3235,-440,-1728,-168,-7,127,350
3240,-432,-1744,-160,-21,132,342
3245,-432,-1760,-128,-33,140,335
3250,-440,-1752,-120,-42,145,320
3255,-408,-1760,-88,-46,154,308
3260,-392,-1776,-96,-50,163,288
3265,-400,-1736,-40,-55,175,275
3270,-392,-1784,-40,-63,178,253
3275,-400,-1832,8,-72,183,223
3280,-432,-1832,0,-79,185,195
3285,-440,-1848,16,-85,185,168
3290,-416,-1888,32,-88,188,143
3295,-448,-1896,24,-79,188,120
3300,-440,-1936,40,-63,186,99
3305,-432,-1944,32,-47,183,80
3310,-440,-1944,32,-26,180,66
3315,-432,-1936,48,0,177,56
3320,-432,-1920,40,24,174,48
3325,-384,-1920,8,46,172,40
3330,-392,-1912,64,64,169,35
3335,-360,-1944,32,78,166,29
3340,-328,-1896,32,91,167,24
3345,-280,-1920,32,99,169,18
3350,-288,-1944,56,108,178,10
3355,-248,-1936,16,116,186,3
3360,-256,-1944,56,123,196,-7
3365,-248,-1968,24,131,205,-18
3370,-248,-1968,64,141,218,-31
3375,-240,-1984,32,148,231,-45
3380,-224,-2000,24,156,246,-59
3385,-280,-2008,24,159,259,-75
3390,-272,-2040,48,162,274,-88
3395,-280,-2064,56,162,286,-97
3400,-296,-2088,24,161,297,-103
3405,-296,-2104,8,159,310,-104
3410,-328,-2120,8,159,325,-103
3415,-360,-2152,24,159,339,-98
3420,-352,-2168,0,160,355,-92
3425,-376,-2200,24,166,375,-85
3430,-392,-2216,24,173,398,-79
3435,-384,-2248,48,181,419,-71
3440,-384,-2280,104,195,440,-64
3445,-408,-2264,112,212,455,-57
3450,-408,-2288,128,233,468,-47
3455,-400,-2280,168,252,477,-37
3460,-424,-2288,200,274,482,-26
3465,-408,-2272,224,297,480,-12
3470,-464,-2264,264,322,472,5
3475,-488,-2280,312,349,464,23
3480,-496,-2272,352,380,449,37
3485,-504,-2272,408,418,430,52
3490,-536,-2240,448,460,414,69
3495,-520,-2256,432,508,393,83
3500,-560,-2200,456,553,373,98
3505,-568,-2152,448,592,353,115
3510,-696,-2112,432,623,338,132
3515,-704,-2080,184,624,330,153
3520,-488,-2144,88,551,344,166
3525,-480,-2344,96,434,368,184
3530,-592,-2512,0,365,371,227
3535,-720,-2664,-112,320,370,288
3540,-640,-2744,-192,249,377,341
3545,-544,-2896,-272,167,403,364
3550,-536,-2984,-144,113,414,374
3555,-608,-2952,-48,120,376,406
3560,-648,-2824,56,187,305,456
3565,-736,-2624,0,286,224,508
3570,-744,-2472,-136,355,153,554
3575,-696,-2376,-280,365,95,575
3580,-664,-2280,-352,324,49,581
3585,-696,-2192,-496,274,6,592
3590,-680,-2104,-648,218,-37,614
3595,-680,-2024,-752,159,-69,635
3600,-672,-1976,-792,115,-77,634
3605,-608,-1944,-760,93,-59,626
3610,-536,-1840,-696,104,-23,603
3615,-440,-1760,-608,140,19,576
3620,-312,-1624,-624,178,61,544
3625,-208,-1536,-584,201,104,507
3630,-64,-1464,-592,204,147,465
3635,96,-1424,-632,185,200,412
3640,232,-1416,-664,140,264,349
3645,376,-1440,-672,83,331,280
3650,504,-1488,-608,16,394,210
3655,560,-1624,-592,-43,451,144
3660,608,-1752,-488,-82,497,81
3665,576,-1896,-480,-109,535,25
3670,496,-2016,-448,-120,568,-14
3675,352,-2104,-432,-128,596,-42
3680,184,-2208,-408,-148,616,-62
3685,16,-2288,-400,-180,626,-81
3690,-160,-2384,-368,-223,622,-96
3695,-328,-2424,-336,-268,608,-112
3700,-512,-2512,-304,-308,584,-126
3705,-624,-2568,-296,-335,554,-139
3710,-736,-2608,-264,-349,515,-149
3715,-832,-2624,-280,-351,471,-158
3720,-936,-2592,-264,-343,422,-167
3725,-952,-2512,-280,-322,369,-176
3730,-960,-2440,-240,-292,312,-188
3735,-928,-2288,-280,-252,251,-203
3740,-856,-2104,-264,-206,186,-226
3745,-768,-1984,-264,-156,122,-256
3750,-632,-1792,-296,-114,66,-289
3755,-624,-1736,-248,-79,15,-317
3760,-552,-1608,-216,-53,-28,-344
3765,-456,-1552,-232,-36,-63,-365
3770,-392,-1488,-240,-33,-88,-381
3775,-344,-1480,-192,-38,-103,-390
3780,-272,-1448,-184,-51,-113,-394
3785,-240,-1448,-184,-70,-107,-392
3790,-192,-1448,-144,-96,-93,-386
3795,-136,-1480,-136,-124,-71,-376
3800,-120,-1512,-136,-151,-50,-367
3805,-104,-1568,-120,-180,-31,-359
3810,-8,-1600,-88,-204,-10,-351
3815,0,-1696,-80,-227,10,-343
3820,16,-1712,-56,-251,28,-333
3825,80,-1816,-56,-273,45,-324
3830,72,-1856,-16,-287,55,-317
3835,120,-1896,-48,-298,64,-313
3840,104,-1920,-8,-300,70,-310
3845,144,-1984,0,-295,70,-306
3850,152,-2008,-16,-286,71,-297
3855,160,-2024,-24,-278,71,-287
3860,136,-2032,40,-271,68,-275
3865,96,-2024,-48,-260,60,-265
3870,80,-2008,-80,-251,51,-255
3875,40,-1968,-56,-244,41,-243
3880,0,-1944,-72,-241,31,-228
3885,-24,-1928,-64,-239,19,-211
3890,-88,-1872,-32,-234,4,-186
3895,-112,-1856,-16,-222,-13,-163
3900,-152,-1832,0,-202,-30,-138
3905,-184,-1808,0,-179,-47,-110
3910,-240,-1792,24,-156,-64,-82
3915,-256,-1800,0,-130,-81,-55
3920,-264,-1800,8,-103,-96,-34
3925,-296,-1784,40,-79,-109,-15
3930,-296,-1816,40,-59,-120,4
3935,-320,-1816,16,-46,-131,20
3940,-312,-1856,24,-33,-144,37
3945,-336,-1888,24,-18,-161,50
3950,-344,-1880,8,-6,-174,60
3955,-328,-1888,16,4,-187,70
3960,-328,-1904,56,13,-201,79
3965,-360,-1896,32,23,-214,90
3970,-304,-1920,48,36,-226,102
3975,-312,-1920,88,48,-238,116
3980,-272,-1920,72,63,-249,133
3985,-280,-1920,56,78,-260,151
3990,-256,-1920,88,93,-270,171
3995,-256,-1896,80,106,-277,193
4000,-248,-1872,80,112,-284,216
4005,-240,-1872,96,108,-288,238
4010,-248,-1864,80,97,-290,255
4015,-280,-1864,104,77,-291,272
4020,-320,-1856,144,55,-294,285
4025,-304,-1880,112,26,-299,293
4030,-328,-1864,120,-8,-299,296
4035,-336,-1904,144,-44,-294,287
4040,-328,-1936,112,-80,-284,269
4045,-264,-2008,112,-109,-277,237
4050,-264,-2000,136,-137,-270,195
4055,-256,-2072,104,-161,-267,145
4060,-272,-2120,136,-179,-269,86
4065,-296,-2144,128,-191,-278,32
4070,-312,-2208,160,-197,-294,-18
4075,-344,-2256,192,-197,-309,-58
4080,-384,-2328,216,-185,-320,-87
4085,-408,-2384,232,-160,-331,-100
4090,-432,-2400,304,-123,-340,-105
4095,-440,-2456,320,-72,-353,-101
4100,-448,-2432,360,-14,-366,-92
4105,-448,-2408,392,46,-382,-85
4110,-408,-2440,400,94,-406,-74
4115,-408,-2400,448,148,-434,-64
4120,-400,-2392,448,195,-465,-58
4125,-336,-2368,392,230,-501,-49
4130,-288,-2432,224,242,-525,-41
4135,-264,-2552,136,223,-519,-41
4140,-384,-2744,176,193,-515,-68
4145,-504,-2880,96,163,-576,-116
4150,-440,-3000,-120,91,-621,-176
4155,-400,-3144,-232,-48,-610,-259
4160,-344,-3328,-368,-225,-593,-347
4165,-200,-3480,-264,-386,-545,-446
4170,-16,-3536,-144,-434,-427,-583
4175,80,-3464,-16,-314,-294,-700
4180,160,-3312,0,-91,-133,-788
4185,160,-3120,-24,133,-12,-852
4190,264,-2904,-104,325,82,-895
4195,232,-2632,-192,472,154,-912
4200,232,-2456,-264,577,212,-906
4205,240,-2248,-392,634,248,-881
4210,248,-2104,-440,640,274,-835
4215,248,-1960,-464,611,278,-772
4220,184,-1888,-424,560,255,-701
4225,104,-1816,-408,508,215,-620
4230,-24,-1712,-392,462,163,-557
4235,-104,-1648,-344,404,97,-495
4240,-192,-1584,-424,365,44,-419
4245,-328,-1496,-432,325,-18,-349
4250,-392,-1440,-528,270,-91,-291
4255,-504,-1360,-584,197,-175,-234
4260,-608,-1304,-656,107,-261,-186
4265,-688,-1240,-688,3,-348,-145
4270,-744,-1248,-744,-103,-428,-114
4275,-792,-1232,-792,-202,-496,-94
4280,-856,-1208,-792,-285,-551,-84
4285,-856,-1240,-840,-353,-590,-79
4290,-856,-1296,-816,-406,-612,-79
4295,-800,-1408,-808,-449,-616,-86
4300,-720,-1528,-776,-484,-608,-98
4305,-640,-1688,-736,-515,-591,-108
4310,-520,-1856,-688,-542,-569,-113
4315,-448,-2000,-640,-563,-541,-109
4320,-360,-2128,-568,-574,-506,-96
4325,-248,-2280,-496,-570,-468,-78
4330,-192,-2368,-448,-547,-428,-56
4335,-88,-2464,-440,-512,-382,-33
4340,-24,-2512,-408,-468,-335,-9
4345,56,-2520,-432,-418,-287,15
4350,152,-2552,-400,-365,-240,36
4355,216,-2560,-392,-309,-191,55
4360,248,-2496,-416,-255,-141,72
4365,256,-2440,-432,-203,-91,89
4370,288,-2368,-424,-154,-38,107
4375,280,-2288,-472,-106,9,124
4380,280,-2192,-424,-61,52,144
4385,272,-2112,-416,-16,91,164
4390,240,-2040,-392,26,125,183
4395,240,-1976,-352,67,153,197
4400,120,-1936,-368,105,177,217
4405,128,-1872,-336,140,197,237
4410,72,-1832,-288,164,211,262
4415,24,-1816,-272,176,217,286
4420,-72,-1800,-240,173,219,306
4425,-96,-1816,-240,160,216,322
4430,-192,-1808,-232,142,206,342
4435,-264,-1840,-216,121,194,366
4440,-320,-1872,-168,98,180,380
4445,-376,-1896,-208,80,171,392
4450,-456,-1880,-168,57,169,398
4455,-480,-1904,-208,33,171,400
4460,-496,-1920,-176,12,177,402
4465,-512,-1896,-184,-9,185,404
4470,-504,-1848,-168,-28,197,405
4475,-472,-1880,-160,-44,204,400
4480,-480,-1824,-192,-56,213,393
4485,-432,-1816,-160,-68,222,386
4490,-400,-1816,-168,-86,232,370
4495,-368,-1760,-160,-100,242,356
4500,-344,-1752,-160,-110,249,347
4505,-328,-1736,-128,-120,259,331
4510,-280,-1720,-80,-129,268,316
4515,-288,-1712,-80,-137,278,304
4520,-280,-1712,-80,-145,288,286
4525,-296,-1744,-72,-149,301,270
4530,-280,-1736,-48,-153,315,257
4535,-296,-1744,-24,-159,330,240
4540,-312,-1768,0,-165,345,222
4545,-304,-1832,32,-167,356,208
4550,-320,-1856,8,-165,376,205
4555,-344,-1872,32,-162,384,188
4560,-352,-1912,32,-157,393,172
4565,-344,-1952,-16,-149,403,157
4570,-360,-1936,16,-144,411,141
4575,-352,-1928,0,-136,419,130
4580,-344,-1960,8,-120,426,117
4585,-328,-1952,-8,-103,430,106
4590,-344,-1984,-32,-83,432,94
4595,-344,-1960,-24,-61,435,83
4600,-360,-1976,8,-39,437,74
4605,-376,-1968,0,-16,438,65
4610,-360,-1968,0,5,442,57
4615,-368,-1960,16,26,449,48
4620,-360,-1992,16,48,454,40
4625,-328,-1944,-16,72,461,34
4630,-360,-1952,32,91,467,25
4635,-344,-1936,-32,107,471,16
4640,-328,-1936,0,120,475,8
4645,-336,-1936,0,131,478,-2
4650,-344,-1928,24,142,481,-10
4655,-368,-1928,-16,152,482,-18
4660,-376,-1912,-24,160,484,-25
4665,-368,-1912,-72,166,486,-31
4670,-384,-1936,-56,165,491,-37
4675,-400,-1920,-48,161,496,-40
4680,-408,-1952,-32,155,501,-44
4685,-400,-1928,-40,149,509,-46
4690,-424,-1976,-64,147,516,-45
4695,-424,-1984,-56,148,524,-39
4700,-424,-2008,-40,151,531,-35
4705,-432,-2008,-24,155,541,-31
4710,-440,-2048,-40,161,546,-26
4715,-464,-2064,-32,169,552,-20
4720,-440,-2096,-16,175,554,-13
4725,-472,-2096,-8,182,555,-5
4730,-464,-2144,-16,188,551,2
4735,-472,-2112,-8,194,547,8
4740,-472,-2160,24,205,541,17
4745,-464,-2136,64,222,533,25
4750,-496,-2104,120,245,525,31
4755,-504,-2120,144,271,514,37
4760,-496,-2152,224,299,504,45
4765,-520,-2120,240,328,493,52
4770,-528,-2144,272,358,484,59
4775,-552,-2152,328,386,475,66
4780,-568,-2128,344,413,470,71
4785,-560,-2136,376,432,470,77
4790,-568,-2160,384,440,475,84
4795,-648,-2144,352,435,486,94
4800,-568,-2136,280,396,518,109
4805,-424,-2312,208,302,572,130
4810,-416,-2608,184,222,617,150
4815,-480,-2760,48,182,654,171
4820,-496,-2864,-112,115,694,196
4825,-416,-2960,-184,3,727,210
4830,-400,-3016,-280,-122,756,207
4835,-504,-3000,-232,-217,756,213
4840,-680,-2904,-128,-247,700,254
4845,-744,-2832,-104,-199,600,308
4850,-776,-2680,-56,-112,493,354
4855,-776,-2584,-88,-19,388,386
4860,-800,-2456,-96,67,289,409
4865,-792,-2376,-144,143,191,423
4870,-744,-2232,-160,197,108,429
4875,-720,-2144,-168,242,45,431
4880,-752,-2080,-224,281,5,432
4885,-712,-2000,-200,307,-19,435
4890,-664,-1928,-240,314,-21,434
4895,-608,-1872,-280,306,-5,422
4900,-576,-1792,-272,285,23,401
4905,-512,-1736,-280,251,55,374
4910,-432,-1696,-280,210,95,345
4915,-376,-1688,-296,167,136,317
4920,-272,-1648,-280,123,181,289
4925,-200,-1624,-344,79,232,261
4930,-80,-1616,-360,34,291,237
4935,0,-1576,-448,-11,362,217
4940,64,-1584,-472,-49,437,201
4945,160,-1520,-496,-84,519,188
4950,248,-1520,-560,-113,602,179
4955,312,-1488,-568,-137,679,173
4960,384,-1488,-624,-161,749,168
4965,384,-1488,-656,-190,810,165
4970,408,-1544,-656,-221,859,163
4975,376,-1600,-640,-248,893,159
4980,344,-1720,-624,-276,915,152
4985,280,-1840,-584,-305,920,146
4990,216,-1920,-568,-333,908,140
4995,136,-2056,-488,-360,885,134
5000,64,-2176,-416,-379,850,125
5005,-40,-2312,-376,-388,807,114
5010,-120,-2384,-296,-386,755,102
5015,-224,-2504,-248,-372,699,91
5020,-312,-2544,-264,-347,641,80
5025,-400,-2528,-240,-313,585,66
5030,-456,-2512,-248,-277,530,45
5035,-520,-2440,-288,-249,481,23
5040,-544,-2392,-320,-235,436,4
5045,-584,-2296,-400,-230,398,-17
5050,-616,-2232,-456,-237,368,-34
5055,-592,-2136,-472,-248,342,-51
5060,-592,-2056,-440,-258,325,-64
5065,-576,-2000,-440,-264,312,-77
5070,-576,-1960,-416,-266,297,-90
5075,-552,-1944,-384,-261,286,-104
5080,-552,-1896,-320,-255,271,-117
5085,-520,-1864,-304,-247,258,-133
5090,-496,-1848,-264,-239,248,-152
5095,-472,-1832,-232,-227,242,-172
5100,-416,-1816,-232,-209,240,-194
5105,-376,-1808,-192,-184,239,-214
5110,-336,-1816,-160,-158,249,-235
5115,-304,-1824,-160,-139,259,-253
5120,-256,-1816,-168,-122,267,-267
5125,-168,-1832,-152,-112,274,-279
5130,-144,-1824,-152,-108,283,-288
5135,-120,-1832,-176,-106,291,-294
5140,-48,-1880,-168,-108,295,-299
5145,-64,-1864,-152,-114,298,-302
5150,0,-1896,-136,-125,297,-304
5155,-40,-1824,-160,-140,292,-306
5160,-8,-1904,-120,-153,289,-303
5165,-40,-1872,-136,-169,280,-300
5170,-24,-1864,-144,-186,268,-294
5175,-40,-1848,-136,-203,256,-286
5180,-80,-1872,-152,-217,247,-277
5185,-112,-1880,-128,-233,240,-267
5190,-104,-1856,-152,-244,236,-256
5195,-152,-1880,-144,-255,234,-243
5200,-160,-1888,-144,-265,233,-230
5205,-168,-1872,-144,-278,235,-215
5210,-200,-1896,-144,-289,235,-201
5215,-216,-1888,-144,-297,235,-187
5220,-208,-1920,-152,-302,235,-173
5225,-216,-1928,-160,-303,232,-160
5230,-216,-1944,-112,-299,231,-147
5235,-232,-1936,-144,-292,229,-134
5240,-256,-1984,-128,-287,225,-125
5245,-264,-1976,-160,-283,218,-118
5250,-256,-1976,-128,-280,208,-109
5255,-272,-1968,-136,-274,197,-102
5260,-264,-1968,-120,-264,188,-97
5265,-256,-2024,-40,-252,176,-93
5270,-296,-1984,-128,-241,163,-86
5275,-296,-1960,-120,-231,156,-81
5280,-296,-1968,-104,-223,151,-72
5285,-320,-1960,-104,-213,146,-65
5290,-304,-1968,-136,-204,139,-58
5295,-328,-1960,-136,-196,135,-55
5300,-320,-1952,-104,-189,131,-55
5305,-288,-1936,-120,-185,127,-55
5310,-272,-1944,-120,-180,129,-57
5315,-248,-1920,-104,-174,135,-56
5320,-232,-1952,-72,-166,144,-57
5325,-208,-1952,-88,-153,151,-62
5330,-200,-1936,-112,-139,158,-67
5335,-168,-1984,-80,-121,165,-74
5340,-144,-1984,-88,-104,167,-83
5345,-152,-2008,-64,-84,169,-89
5350,-144,-2016,-48,-68,167,-91
5355,-152,-2024,-32,-46,159,-88
5360,-184,-2000,-8,-19,145,-80
5365,-216,-2016,0,8,126,-68
5370,-272,-2048,16,36,100,-51
5375,-312,-2016,16,61,73,-28
5380,-336,-2048,32,86,45,-3
5385,-360,-2008,16,108,17,23
5390,-392,-2000,-64,122,-3,56
5395,-376,-1992,-184,120,-4,90
5400,-376,-2008,-280,96,7,125
5405,-336,-2000,-344,50,30,146
5410,-224,-2064,-368,-8,46,139
5415,-176,-2072,-432,-77,58,106
5420,-96,-2152,-512,-158,70,52
5425,-88,-2264,-528,-254,72,-11
5430,-80,-2400,-552,-353,63,-85
5435,-56,-2536,-480,-428,53,-164
5440,-96,-2656,-496,-468,46,-248
5445,-152,-2784,-536,-487,48,-331
5450,-208,-2880,-544,-509,51,-401
5455,-232,-2912,-568,-533,55,-438
5460,-280,-2904,-600,-522,74,-452
5465,-344,-2808,-608,-474,91,-451
5470,-400,-2656,-608,-400,104,-432
5475,-456,-2504,-680,-327,107,-393
5480,-456,-2376,-712,-271,95,-339
5485,-424,-2216,-768,-237,69,-278
5490,-376,-2088,-840,-223,34,-211
5495,-304,-1984,-856,-223,-13,-150
5500,-216,-1920,-880,-236,-63,-97
5505,-152,-1848,-880,-266,-110,-55
5510,-88,-1808,-848,-311,-156,-22
5515,0,-1760,-816,-367,-196,-1
5520,40,-1728,-760,-430,-227,11
5525,96,-1704,-704,-492,-250,16
5530,144,-1696,-664,-554,-266,16
5535,168,-1680,-656,-610,-269,11
5540,168,-1664,-624,-661,-262,7
5545,192,-1648,-616,-704,-244,3
5550,160,-1608,-632,-735,-213,1
5555,152,-1576,-656,-759,-172,7
5560,136,-1552,-656,-782,-128,17
5565,128,-1576,-672,-800,-81,30
5570,80,-1576,-656,-811,-33,47
5575,56,-1584,-680,-818,12,66
5580,8,-1592,-672,-811,62,84
5585,-32,-1648,-632,-798,108,99
5590,-56,-1664,-632,-780,148,110
5595,-88,-1736,-616,-751,189,115
5600,-136,-1760,-640,-715,229,121
5605,-168,-1816,-640,-684,264,129
5610,-200,-1816,-704,-659,297,133
5615,-248,-1824,-720,-643,336,145
5620,-232,-1904,-752,-635,377,151
5625,-256,-1920,-792,-642,417,153
5630,-280,-1944,-816,-653,456,151
5635,-296,-1968,-824,-671,488,146
5640,-320,-1992,-792,-692,513,139
5645,-336,-2000,-784,-714,529,133
5650,-400,-2008,-752,-727,535,125
5655,-384,-1992,-744,-729,533,120
5660,-400,-1984,-680,-721,527,125
5665,-424,-1976,-672,-707,517,129
5670,-424,-1952,-624,-687,500,136
5675,-464,-1888,-624,-666,478,142
5680,-464,-1856,-632,-651,449,149
5685,-472,-1816,-632,-640,420,161
5690,-464,-1784,-600,-639,390,174
5695,-496,-1728,-624,-641,359,183
5700,-480,-1728,-592,-649,336,192
5705,-496,-1696,-648,-659,317,196
5710,-488,-1664,-648,-674,299,186
5715,-496,-1664,-648,-688,288,171
5720,-488,-1640,-672,-703,286,153
5725,-496,-1632,-704,-719,290,138
5730,-464,-1640,-744,-740,298,124
5735,-416,-1664,-736,-767,310,106
5740,-400,-1672,-768,-800,328,93
5745,-328,-1728,-816,-832,348,79
5750,-336,-1752,-808,-877,367,70
5755,-328,-1776,-824,-922,384,63
5760,-272,-1832,-808,-967,400,58
5765,-240,-1832,-776,-1006,412,57
5770,-272,-1872,-784,-1036,422,60
5775,-208,-1904,-760,-1060,429,66
5780,-176,-1880,-768,-1078,436,72
5785,-176,-1928,-752,-1089,441,79
5790,-128,-1872,-736,-1092,447,85
5795,-120,-1888,-744,-1090,452,85
5800,-112,-1840,-720,-1087,454,88
5805,-104,-1792,-792,-1085,457,85
5810,-152,-1720,-896,-1090,454,83
5815,0,-1696,-936,-1121,458,79
5820,-32,-1688,-960,-1164,465,60
5825,-96,-1680,-1008,-1198,452,45
5830,-240,-1632,-976,-1212,433,41
5835,-320,-1648,-992,-1224,406,51
5840,-368,-1696,-952,-1240,385,65
5845,-416,-1720,-896,-1249,382,74
5850,-416,-1744,-816,-1232,392,84
5855,-392,-1792,-712,-1176,406,98
5860,-384,-1808,-672,-1097,412,113
5865,-336,-1848,-672,-1013,413,130
5870,-296,-1896,-704,-946,410,144
5875,-240,-1952,-752,-908,416,157
5880,-184,-1936,-736,-897,429,169
5885,-152,-1936,-800,-905,453,174
5890,-88,-1872,-808,-921,485,177
5895,-80,-1832,-824,-940,517,172
5900,-16,-1776,-816,-957,551,163
5905,8,-1720,-808,-968,581,158
5910,8,-1680,-760,-974,602,151
5915,-32,-1648,-736,-978,613,146
5920,0,-1608,-784,-975,612,138
5925,-32,-1576,-784,-971,604,125
5930,-72,-1520,-808,-974,589,116
5935,-152,-1472,-832,-985,561,93
5940,-184,-1456,-864,-1002,524,61
5945,-248,-1432,-920,-1032,490,32
5950,-328,-1432,-960,-1078,455,6
5955,-360,-1456,-1000,-1133,416,-13
5960,-448,-1472,-1032,-1190,372,-26
5965,-496,-1536,-1032,-1239,325,-35
5970,-544,-1584,-1032,-1277,274,-38
5975,-608,-1672,-1000,-1303,220,-37
5980,-608,-1736,-968,-1317,166,-32
5985,-624,-1776,-952,-1319,116,-24
5990,-608,-1864,-928,-1307,65,-18
5995,-584,-1912,-912,-1274,9,-11
6000,-552,-1952,-920,-1227,-48,-5
6005,-520,-1992,-920,-1172,-104,2
6010,-432,-2024,-912,-1111,-159,9
6015,-384,-2040,-888,-1050,-209,17
6020,-328,-2032,-888,-986,-260,20
6025,-232,-2048,-832,-917,-304,20
6030,-176,-2056,-816,-842,-347,17
6035,-88,-2064,-784,-759,-386,11
6040,-24,-2024,-776,-671,-421,2
6045,72,-2000,-720,-588,-445,-5
6050,152,-1944,-704,-516,-458,-15
6055,232,-1920,-720,-464,-466,-27
6060,288,-1848,-720,-424,-454,-24
6065,312,-1744,-768,-402,-441,-30
6070,376,-1648,-792,-398,-430,-42
6075,400,-1488,-888,-420,-411,-51
6080,424,-1416,-1008,-473,-383,-55
6085,376,-1296,-1024,-555,-355,-57
6090,376,-1224,-1088,-643,-327,-52
6095,296,-1120,-1160,-723,-309,-50
6100,272,-1072,-1248,-791,-302,-50
6105,200,-1016,-1320,-840,-307,-50
6110,136,-1000,-1416,-869,-320,-56
6115,32,-984,-1440,-879,-337,-63
6120,-80,-1008,-1496,-884,-355,-74
6125,-168,-984,-1568,-883,-369,-94
6130,-272,-1048,-1664,-885,-376,-120
6135,-304,-1056,-1704,-887,-371,-153
6140,-352,-1152,-1736,-877,-362,-182
6145,-416,-1320,-1776,-840,-348,-203
6150,-392,-1496,-1816,-774,-330,-215
6155,-328,-1664,-1888,-698,-309,-213
6160,-240,-1800,-1896,-628,-265,-200
6165,-208,-1896,-1928,-546,-209,-182
6170,-112,-1952,-1976,-431,-154,-165
6175,-64,-1920,-2024,-286,-112,-160
6180,-24,-1800,-2128,-129,-80,-170
6185,32,-1608,-2176,0,-63,-185
6190,48,-1424,-2264,84,-50,-204
6195,88,-1200,-2280,116,-34,-222
6200,88,-1016,-2216,112,-16,-233
6205,112,-840,-2144,101,8,-239
6210,104,-736,-2088,93,34,-233
6215,40,-696,-1992,83,57,-225
6220,8,-640,-1928,80,81,-218
6225,-48,-672,-1880,89,99,-218
6230,-64,-760,-1920,112,114,-224
6235,-112,-784,-1944,145,131,-228
6240,-112,-784,-1936,172,152,-224
6245,-88,-816,-1960,185,175,-213
6250,-48,-840,-1976,182,203,-192
6255,0,-856,-1976,173,223,-162
6260,24,-880,-2008,164,238,-124
6265,8,-864,-2016,152,252,-87
6270,0,-888,-2040,138,259,-53
6275,-56,-904,-2032,121,263,-18
6280,-144,-960,-2032,112,264,14
6285,-208,-1008,-2048,113,259,37
6290,-304,-1040,-2016,117,250,54
6295,-368,-1080,-2008,123,240,61
6300,-520,-1104,-2056,134,220,55
6305,-648,-1088,-2112,149,196,41
6310,-760,-1032,-2160,157,167,20
6315,-832,-952,-2184,149,130,-2
6320,-888,-848,-2144,118,74,-24
6325,-864,-736,-2064,76,3,-51
6330,-848,-688,-2024,40,-68,-86
6335,-840,-632,-2016,13,-144,-127
6340,-768,-632,-1976,-6,-217,-173
6345,-712,-696,-1984,-18,-294,-215
6350,-704,-664,-1984,-15,-374,-253
6355,-672,-720,-2024,3,-453,-281
6360,-672,-800,-2072,28,-527,-303
6365,-608,-840,-2096,47,-595,-317
6370,-584,-888,-2096,59,-656,-326
6375,-520,-984,-2112,61,-708,-326
6380,-504,-1008,-2096,53,-750,-319
6385,-472,-1056,-2080,38,-784,-307
6390,-408,-1088,-2072,17,-806,-293
6395,-376,-1160,-1976,-5,-819,-275
6400,-408,-1176,-1960,-26,-831,-258
6405,-376,-1216,-1920,-42,-849,-242
6410,-400,-1224,-1904,-50,-877,-229
6415,-344,-1192,-1944,-55,-909,-217
6420,-360,-1224,-1936,-69,-938,-209
6425,-352,-1216,-1888,-87,-966,-200
6430,-384,-1208,-1888,-101,-984,-195
6435,-400,-1176,-1896,-111,-997,-195
6440,-392,-1096,-1848,-128,-1006,-199
6445,-384,-1048,-1840,-150,-1005,-212
6450,-376,-1008,-1840,-170,-998,-224
6455,-392,-992,-1856,-189,-994,-237
6460,-328,-1064,-1768,-202,-989,-251
6465,-344,-1104,-1768,-207,-985,-266
6470,-288,-1152,-1704,-202,-984,-280
6475,-312,-1176,-1712,-184,-985,-288
6480,-312,-1200,-1688,-166,-991,-289
6485,-320,-1280,-1696,-154,-1001,-285
6490,-336,-1296,-1696,-145,-1012,-277
6495,-344,-1336,-1688,-139,-1027,-264
6500,-352,-1360,-1680,-132,-1039,-248
6505,-360,-1384,-1696,-122,-1049,-235
6510,-392,-1328,-1680,-114,-1054,-221
6515,-416,-1320,-1680,-104,-1053,-208
6520,-392,-1296,-1688,-91,-1044,-198
6525,-384,-1232,-1656,-71,-1026,-186
6530,-344,-1216,-1624,-51,-1004,-179
6535,-296,-1200,-1592,-34,-981,-171
6540,-312,-1200,-1600,-17,-965,-161
6545,-264,-1192,-1608,0,-953,-156
6550,-248,-1184,-1584,14,-947,-154
6555,-240,-1176,-1528,24,-947,-152
6560,-264,-1216,-1608,28,-950,-148
6565,-248,-1200,-1496,20,-958,-144
6570,-264,-1192,-1496,6,-968,-141
6575,-272,-1208,-1488,-9,-976,-142
6580,-296,-1192,-1480,-27,-983,-147
6585,-336,-1224,-1456,-43,-988,-152
6590,-376,-1200,-1480,-51,-983,-159
6595,-392,-1216,-1456,-56,-972,-166
6600,-424,-1216,-1448,-58,-957,-170
6605,-456,-1216,-1488,-59,-943,-173
6610,-488,-1232,-1464,-55,-936,-178
6615,-504,-1256,-1400,-44,-939,-182
6620,-504,-1248,-1424,-28,-948,-184
6625,-496,-1248,-1392,-14,-962,-187
6630,-496,-1248,-1384,-4,-980,-188
6635,-488,-1272,-1424,-4,-1003,-188
6640,-480,-1272,-1416,-10,-1034,-187
6645,-472,-1272,-1392,-18,-1066,-190
6650,-456,-1248,-1400,-24,-1101,-196
6655,-456,-1224,-1376,-28,-1135,-204
6660,-456,-1192,-1368,-28,-1168,-217
6665,-400,-1216,-1344,-26,-1198,-229
6670,-440,-1136,-1312,-19,-1223,-244
6675,-400,-1200,-1344,-12,-1242,-260
6680,-400,-1216,-1296,-7,-1263,-278
6685,-376,-1200,-1280,-9,-1279,-288
6690,-384,-1208,-1248,-18,-1289,-299
6695,-384,-1192,-1280,-26,-1290,-309
6700,-368,-1168,-1240,-36,-1285,-318
6705,-376,-1136,-1256,-55,-1277,-327
6710,-376,-1120,-1248,-75,-1268,-335
6715,-400,-1096,-1264,-87,-1256,-345
6720,-416,-1080,-1272,-89,-1247,-353
6725,-416,-1032,-1256,-82,-1249,-367
6730,-400,-1024,-1272,-71,-1255,-377
6735,-376,-1008,-1256,-59,-1267,-382
6740,-360,-1008,-1288,-46,-1286,-390
6745,-320,-1008,-1296,-40,-1310,-394
6750,-304,-1000,-1288,-42,-1329,-394
6755,-240,-1000,-1264,-50,-1337,-383
6760,-192,-1016,-1224,-61,-1337,-373
6765,-152,-1016,-1216,-71,-1329,-362
6770,-136,-976,-1208,-78,-1316,-355
6775,-72,-936,-1208,-76,-1303,-358
6780,-64,-920,-1144,-68,-1287,-367
6785,-72,-856,-1136,-53,-1274,-385
6790,-56,-800,-1104,-38,-1257,-403
6795,-56,-760,-1040,-33,-1238,-418
6800,-120,-704,-1032,-39,-1224,-434
6805,-160,-648,-1016,-49,-1224,-456
6810,-184,-640,-1000,-58,-1230,-470
6815,-192,-664,-960,-71,-1245,-476
6820,-256,-672,-960,-82,-1267,-481
6825,-296,-704,-888,-88,-1299,-479
6830,-328,-736,-912,-89,-1339,-472
6835,-384,-768,-920,-88,-1390,-458
6840,-384,-752,-912,-82,-1447,-439
6845,-376,-744,-928,-76,-1501,-418
6850,-400,-720,-872,-66,-1550,-397
6855,-344,-680,-848,-59,-1591,-376
6860,-272,-648,-832,-56,-1625,-359
6865,-232,-608,-808,-49,-1651,-343
6870,-192,-528,-736,-41,-1673,-333
6875,-128,-472,-680,-29,-1688,-329
6880,-88,-424,-632,-8,-1695,-335
6885,8,-432,-600,20,-1696,-349
6890,64,-360,-592,51,-1692,-365
6895,120,-304,-544,72,-1688,-389
6900,144,-240,-528,77,-1682,-414
6905,184,-152,-480,71,-1670,-431
6910,216,-168,-440,52,-1656,-444
6915,224,-176,-408,22,-1637,-455
6920,200,-208,-408,-15,-1614,-458
6925,176,-248,-304,-59,-1592,-448
6930,152,-272,-304,-104,-1564,-429
6935,96,-320,-264,-152,-1541,-396
6940,64,-368,-184,-182,-1505,-355
6945,40,-416,-176,-198,-1460,-308
6950,0,-472,-80,-209,-1414,-263
6955,-80,-520,-24,-205,-1365,-215
6960,-168,-528,32,-177,-1308,-165
6965,-208,-592,40,-133,-1247,-95
6970,-240,-648,48,-65,-1179,-10
6975,-312,-664,16,7,-1124,67
6980,-384,-696,-48,53,-1090,138
6985,-432,-744,-40,74,-1078,216
6990,-448,-832,-16,75,-1083,290
6995,-504,-872,0,87,-1063,370
7000,-592,-904,96,122,-1019,455
7005,-656,-928,128,169,-983,539
7010,-728,-960,136,221,-961,626
7015,-832,-1024,80,267,-960,716
7020,-960,-1056,32,303,-974,809
7025,-1104,-1048,-16,319,-1004,903
7030,-1272,-1048,-80,319,-1046,1000
7035,-1400,-1088,-32,308,-1118,1093
7040,-1560,-1072,-112,307,-1221,1181
7045,-1752,-1080,-144,325,-1344,1264
7050,-1912,-1104,-160,352,-1485,1338
7055,-2040,-1080,-152,394,-1625,1417
7060,-2080,-1080,-160,452,-1748,1498
7065,-2112,-1024,-248,518,-1850,1574
7070,-2120,-1024,-312,576,-1933,1635
7075,-2224,-1056,-424,619,-2003,1676
7080,-2360,-1200,-504,635,-2076,1704
7085,-2592,-1368,-592,632,-2153,1721
7090,-3056,-1568,-648,596,-2219,1728
7095,-3872,-1808,-728,525,-2284,1764
7100,-4736,-2248,-976,455,-2369,1840
7105,-6872,-2872,-1288,396,-2526,2001
7110,-10232,-4112,-1880,312,-2847,2422
7115,-15400,-5976,-1712,167,-3539,3370
7120,-19008,-9624,-2888,482,-4483,5030
7125,-20808,-11896,-7120,1051,-4154,7410
7130,-19600,-11872,-8848,1065,-1910,9236
7135,-14200,-10064,-6160,716,-150,8292
7140,-8592,-7880,-3848,939,-159,5751
7145,-4584,-7352,-2856,1471,-856,3070
7150,-1456,-6568,-2232,1830,-1860,415
7155,232,-5168,-1024,2127,-2809,-1685
7160,1792,-3816,-360,2588,-3601,-2451
7165,2352,-2544,264,3188,-4039,-2067
7170,2944,-856,400,3638,-4099,-1134
7175,3592,848,1144,3893,-3748,-119
7180,4472,2656,1264,4246,-3116,828
7185,4584,4344,1088,4283,-2073,1493
7190,4928,5256,744,3619,-893,1896
7195,4512,5128,384,2348,-6,2088
7200,3584,4248,72,728,553,2295
7205,2608,3144,184,-975,882,2571
7210,1216,1840,336,-2455,972,2740
7215,-368,416,296,-3317,795,2742
7220,-1592,-984,368,-3320,449,2574
7225,-3216,-2608,656,-2783,11,2329
7230,-3304,-3408,984,-1860,-453,2156
7235,-3568,-4016,1136,-728,-893,1996
7240,-3624,-4016,728,473,-1337,1892
7245,-3280,-3896,736,1374,-1689,1951
7250,-2840,-3552,632,1875,-1813,2170
7255,-2384,-3216,480,2030,-1810,2379
7260,-1960,-2872,336,1929,-1739,2471
7265,-1440,-2576,192,1695,-1653,2434
7270,-816,-2336,128,1468,-1563,2339
7275,-312,-2032,40,1347,-1464,2274
7280,16,-1600,-8,1324,-1365,2225
7285,168,-1168,104,1322,-1301,2289
7290,112,-768,328,1298,-1327,2379
7295,-88,-488,608,1337,-1425,2445
7300,232,-408,880,1474,-1543,2482
7305,112,-224,1112,1732,-1640,2446
7310,-48,184,1416,2042,-1737,2427
7315,-448,464,1672,2304,-1871,2481
7320,-952,632,1840,2403,-2060,2512
7325,-1248,808,2032,2392,-2248,2542
7330,-1736,856,2200,2412,-2442,2629
7335,-2128,992,2080,2539,-2582,2741
7340,-2224,1288,1672,2612,-2557,2803
7345,-2744,2000,1504,2546,-2331,2833
7350,-3280,2552,1792,2235,-2138,2945
7355,-3584,2656,2176,1875,-2020,3143
7360,-4352,2832,2432,1741,-1905,3282
7365,-4520,3080,2312,1628,-1855,3374
7370,-4224,3040,2304,1448,-1720,3327
7375,-3888,3096,2264,1330,-1455,3229
7380,-3888,3552,2008,1305,-1164,3043
7385,-3984,4200,1616,1265,-950,2741
7390,-3792,4616,1208,1212,-772,2328
7395,-3328,4840,568,1254,-525,1710
7400,-2808,4928,-224,1288,-128,863
7405,-2536,4160,-808,1284,319,-36
7410,-2040,3664,-856,1175,830,-844
7415,-2048,3016,-40,837,1249,-1366
7420,-2472,2048,784,627,1431,-1626
7425,-2512,1456,1136,649,1334,-1683
7430,-2224,1080,1576,535,1161,-1601
7435,-1912,568,1536,331,869,-1486
7440,-2080,-160,2096,57,728,-1382
7445,-1584,-616,1960,16,625,-1121
7450,-1136,-688,1664,45,438,-958
7455,-896,-472,1272,-8,230,-921
7460,-848,-304,1016,-154,39,-894
7465,-688,-256,808,-295,-93,-753
7470,-496,-232,552,-381,-181,-555
7475,-456,-232,376,-423,-252,-386
7480,-392,-176,280,-397,-306,-240
7485,-352,-144,200,-277,-333,-108
7490,-360,48,192,-77,-327,-12
7495,-464,296,240,169,-294,30
7500,-640,592,304,408,-248,41
7505,-816,912,368,633,-186,37
7510,-808,1144,376,843,-102,24
7515,-856,1472,296,1028,-6,-18
7520,-856,1672,264,1158,75,-74
7525,-800,1856,264,1212,133,-129
7530,-632,1920,256,1202,187,-178
7535,-472,1960,192,1140,238,-219
7540,-440,1936,80,1032,291,-231
7545,-608,1888,112,868,326,-196
7550,-840,1800,192,639,297,-148
7555,-984,1648,336,371,221,-111
7560,-1176,1520,504,105,126,-99
7565,-1424,1344,616,-131,13,-111
7570,-1632,1160,792,-337,-105,-142
7575,-1784,896,896,-493,-212,-193
7580,-1968,696,936,-585,-274,-243
7585,-2144,504,1000,-619,-290,-276
7590,-2320,392,1064,-612,-276,-279
7595,-2464,352,1112,-565,-258,-259
7600,-2512,336,1144,-488,-238,-223
7605,-2568,416,1160,-398,-221,-186
7610,-2552,520,1192,-306,-208,-159
7615,-2472,584,1200,-214,-189,-147
7620,-2392,744,1136,-131,-158,-158
7625,-2224,904,1216,-54,-115,-190
7630,-2184,1008,1136,14,-53,-237
7635,-2128,1128,1144,70,24,-291
7640,-2072,1200,1088,126,114,-353
7645,-2056,1312,1040,182,207,-423
7650,-2064,1304,968,229,289,-498
7655,-2008,1304,880,255,356,-575
7660,-1968,1256,856,262,404,-648
7665,-1936,1144,848,256,433,-714
7670,-1872,1056,824,243,437,-763
7675,-1832,928,840,226,423,-803
7680,-1792,792,824,214,409,-832
7685,-1888,672,848,220,389,-833
7690,-1840,528,864,250,350,-813
7695,-1824,512,872,293,326,-782
7700,-1840,360,872,344,323,-739
7705,-1960,344,880,386,325,-708
7710,-1936,248,872,430,328,-671
7715,-1928,232,792,453,341,-637
7720,-1880,272,728,438,366,-604
7725,-1880,328,656,400,393,-560
7730,-1768,336,648,343,416,-503
7735,-1736,424,568,277,451,-462
7740,-1560,408,528,212,510,-423
7745,-1400,448,488,150,594,-368
7750,-1288,416,496,71,678,-326
7755,-1256,384,520,-25,739,-291
7760,-1248,328,624,-125,782,-242
7765,-1248,200,752,-212,804,-190
7770,-1320,160,840,-277,792,-143
7775,-1328,48,904,-314,752,-103
7780,-1360,-128,1016,-322,710,-50
7785,-1408,-232,1120,-254,681,27
7790,-1512,-336,1096,-108,643,111
7795,-1640,-432,1032,97,621,182
7800,-1856,-352,896,302,623,223
7805,-2000,-320,856,494,635,264
7810,-2152,-184,768,678,642,272
7815,-2296,48,592,792,671,263
7820,-2408,128,488,820,710,267
7825,-2448,192,360,789,742,250
7830,-2488,232,208,715,771,203
7835,-2512,256,72,624,806,131
7840,-2480,328,-16,478,856,51
7845,-2480,320,16,320,899,-30
7850,-2424,280,0,173,914,-105
7855,-2376,216,-8,53,901,-166
7860,-2384,232,-32,-29,857,-215
7865,-2272,96,8,-93,787,-255
7870,-2240,16,0,-99,728,-237
7875,-2272,48,56,-107,654,-226
7880,-2304,48,104,-143,564,-235
7885,-2160,-64,200,-159,506,-211
7890,-2128,-96,208,-119,487,-150
7895,-2168,-56,216,-66,446,-145
7900,-2192,-24,256,-36,408,-151
7905,-2144,-16,232,-32,388,-121
7910,-2096,72,200,-8,383,-85
7915,-2104,160,176,15,394,-57
7920,-2208,256,128,29,388,-59
7925,-2216,320,168,24,334,-107
7930,-2008,336,160,3,289,-102
7935,-1984,408,152,12,303,-45
7940,-2072,424,144,17,312,-7
7945,-2072,432,192,8,294,17
7950,-2088,432,144,-10,267,35
7955,-2104,400,152,-33,233,45
7960,-2104,376,176,-53,206,53
7965,-2120,328,160,-70,183,67
7970,-2120,352,208,-78,165,82
7975,-2072,320,200,-86,150,99
7980,-2048,320,248,-93,139,118
7985,-2040,312,256,-99,138,136
7990,-2024,312,272,-110,137,153
7995,-1984,352,296,-134,132,171
8000,-2016,328,320,-158,127,183
8005,-2056,336,312,-180,122,195
8010,-2048,344,344,-195,113,210
8015,-2024,344,376,-205,101,220
8020,-2064,352,352,-218,89,227
8025,-2064,376,384,-217,82,234
8030,-2088,368,392,-199,86,241
8035,-2104,408,416,-165,100,253
8040,-2096,424,424,-126,117,265
8045,-2144,480,408,-85,138,280
8050,-2112,496,368,-58,151,283
8055,-2120,496,336,-44,156,275
8060,-2056,512,328,-37,163,267
8065,-2040,544,288,-40,169,257
8070,-1976,520,328,-50,171,245
8075,-1960,536,312,-62,166,227
8080,-1952,488,296,-74,152,203
8085,-1920,488,312,-87,135,176
8090,-1904,496,280,-103,113,147
8095,-1912,472,312,-117,94,123
8100,-1952,472,312,-131,72,99
8105,-1944,440,312,-143,46,78
8110,-2128,440,384,-150,20,58
8115,-2024,408,360,-155,-5,39
8120,-2040,392,344,-152,-23,33
8125,-2072,368,344,-143,-36,32
8130,-2080,376,376,-131,-44,33
8135,-2088,376,360,-112,-45,31
8140,-2088,416,352,-91,-47,36
8145,-2048,440,376,-77,-45,40
8150,-2056,440,376,-62,-40,40
8155,-2016,464,376,-45,-31,36
8160,-2000,512,424,-32,-22,32
8165,-1984,544,416,-27,-15,24
8170,-1936,560,424,-27,-13,16
8175,-1936,560,432,-28,-12,4
8180,-1912,568,408,-30,-10,-9
8185,-1936,576,408,-34,-10,-21
8190,-1920,568,424,-36,-13,-33
8195,-1920,568,400,-38,-8,-45
8200,-1920,520,384,-37,-4,-55
8205,-1952,536,376,-27,4,-67
8210,-1976,472,392,-11,12,-80
8215,-2000,472,376,8,15,-90
8220,-2032,480,392,27,13,-99
8225,-2024,464,376,46,3,-107
8230,-2016,464,336,65,-5,-112
8235,-2024,448,336,81,-15,-117
8240,-2032,424,352,93,-21,-122
8245,-2024,400,328,100,-29,-125
8250,-2040,384,312,103,-35,-126
8255,-2040,360,320,104,-42,-126
8260,-2040,360,296,107,-52,-128
8265,-2048,352,336,109,-66,-124
8270,-2040,328,352,115,-81,-109
8275,-2032,344,336,129,-99,-96
8280,-2048,344,360,150,-110,-85
8285,-2016,368,344,173,-112,-76
8290,-2048,376,376,197,-105,-69
8295,-2048,408,376,215,-89,-67
8300,-2040,440,360,220,-83,-67
8305,-2016,424,352,216,-75,-65
8310,-2040,448,368,215,-59,-65
8315,-2000,424,384,213,-43,-62
8320,-2016,432,376,205,-27,-57
8325,-2024,400,352,194,-19,-53
8330,-2024,416,400,173,-16,-47
8335,-2000,408,400,149,-17,-43
8340,-2016,424,416,126,-18,-39
8345,-2008,400,432,100,-26,-33
8350,-1968,408,440,79,-31,-34
8355,-2032,424,432,56,-37,-36
8360,-1992,400,456,33,-45,-36
8365,-2000,416,416,11,-52,-41
8370,-1944,408,432,-5,-50,-43
8375,-1968,408,416,-17,-39,-47
8380,-1920,368,504,-31,-27,-49
8385,-1984,392,408,-46,-17,-47
8390,-2008,376,408,-57,-12,-49
8395,-1992,360,376,-64,-9,-48
8400,-2008,344,392,-69,-7,-44
8405,-1992,344,384,-68,-6,-43
8410,-2008,360,416,-69,-5,-39
8415,-2008,320,424,-68,-5,-36
8420,-1992,336,432,-69,-8,-32
8425,-1992,336,416,-68,-13,-27
8430,-1984,376,424,-69,-16,-24
8435,-1984,344,392,-68,-7,-20
8440,-2000,344,408,-68,6,-16
8445,-2008,352,432,-69,16,-16
8450,-2000,344,432,-71,19,-16
8455,-2000,336,472,-68,25,-11
8460,-2008,288,480,-58,30,-4
8465,-2040,296,480,-40,40,3
8470,-2040,296,432,-17,44,11
8475,-2008,280,480,20,44,14
8480,-2016,304,464,67,46,19
8485,-2000,352,456,115,46,24
8490,-1984,360,440,154,39,30
8495,-1952,424,448,179,26,36
8500,-1928,472,432,182,11,42
8505,-1904,520,392,168,-3,47
8510,-1912,552,400,137,-20,50
8515,-1904,568,424,94,-35,51
8520,-1896,544,392,44,-47,50
8525,-1920,560,408,-7,-58,48
8530,-1904,528,472,-57,-68,44
8535,-1928,536,464,-98,-75,36
8540,-1928,456,432,-125,-74,24
8545,-1936,448,472,-138,-65,14
8550,-1960,408,472,-132,-45,0
8555,-1992,408,456,-118,-17,-10
8560,-2032,392,432,-108,7,-21
8565,-2016,344,448,-103,29,-27
8570,-2048,320,424,-96,48,-30
8575,-2048,312,448,-86,65,-30
8580,-2056,312,448,-75,77,-27
8585,-2048,288,448,-57,83,-23
8590,-2040,280,480,-32,87,-15
8595,-2040,288,488,-1,89,-7
8600,-2008,320,440,32,85,3
8605,-1992,328,464,69,82,9
8610,-1952,336,440,100,74,14
8615,-1976,376,488,127,62,17
8620,-1912,408,448,151,42,18
8625,-1904,440,456,161,24,19
8630,-1920,472,464,163,10,23
8635,-1904,480,432,146,-3,23
8640,-1936,520,480,114,-22,22
8645,-1888,536,448,76,-30,19
8650,-1928,544,456,26,-30,17
8655,-1904,544,480,-32,-24,13
8660,-1920,496,496,-85,-4,9
8665,-1912,464,512,-127,21,5
8670,-1952,424,536,-153,45,0
8675,-1952,416,504,-159,64,-5
8680,-1984,392,512,-150,77,-9
8685,-1960,384,496,-134,88,-11
8690,-1960,400,480,-113,96,-12
8695,-1968,384,472,-95,104,-14
8700,-1960,352,472,-83,110,-14
8705,-1920,256,368,-76,113,-15
8710,-1976,376,416,-69,113,-17
8715,-1968,360,448,-63,114,-20
8720,-1984,376,416,-58,116,-22
8725,-1984,344,408,-53,119,-25
8730,-1984,352,384,-47,125,-26
8735,-2008,352,416,-43,131,-27
8740,-2032,336,408,-37,139,-27
8745,-2024,304,432,-33,146,-27
8750,-2048,344,424,-24,151,-25
8755,-2048,336,456,-14,155,-22
8760,-2048,336,448,3,154,-15
8765,-2048,360,448,18,147,-9
8770,-2032,368,456,33,137,1
8775,-2024,400,424,47,126,10
8780,-2016,416,400,53,114,15
8785,-1992,416,424,53,106,19
8790,-1992,448,384,45,97,22
8795,-1960,432,416,34,91,24
8800,-1976,456,416,20,83,22
8805,-1976,464,408,5,76,21
8810,-1960,448,392,-8,69,17
8815,-1920,472,464,-20,68,13
8820,-1960,424,416,-30,67,7
8825,-1976,424,376,-37,66,0
8830,-1976,408,424,-45,68,-7
8835,-1960,408,408,-51,65,-10
8840,-1968,376,432,-52,68,-17
8845,-1976,376,408,-57,69,-17
8850,-1976,376,432,-61,68,-16
8855,-1960,368,440,-61,71,-13
8860,-1976,368,456,-58,77,-11
8865,-2000,384,472,-63,80,-7
8870,-2008,328,480,-69,80,-4
8875,-2008,368,488,-71,79,-1
8880,-2016,344,480,-70,75,2
8885,-2016,376,464,-66,73,5
8890,-2016,344,456,-56,72,5
8895,-2032,384,440,-45,73,10
8900,-2000,384,440,-33,75,13
8905,-1992,408,416,-20,78,16
8910,-2000,424,424,-11,80,19
8915,-1976,440,416,-4,81,18
8920,-1976,424,400,1,80,17
8925,-1992,432,408,3,75,15
8930,-1984,448,408,1,69,12
8935,-1976,440,408,-4,65,12
8940,-1976,424,440,-12,61,10
8945,-1976,424,440,-18,58,9
8950,-1968,416,424,-24,58,8
8955,-1992,408,432,-28,58,3
8960,-1976,416,448,-30,60,1
8965,-1992,432,424,-30,63,-1
8970,-1976,400,424,-29,65,-3
8975,-2008,408,424,-28,67,-4
8980,-1992,424,432,-28,67,-7
8985,-1984,376,424,-29,66,-9
8990,-2008,408,424,-29,65,-8
8995,-2008,392,416,-31,63,-8
9000,-1968,376,416,-31,63,-8
9005,-1992,384,424,-29,61,-6
9010,-1984,400,432,-26,58,-7
9015,-2008,392,432,-25,56,-5
9020,-1968,368,440,-21,54,-3
9025,-2008,376,456,-17,52,-4
9030,-1992,408,440,-14,54,-6
9035,-2016,408,472,-15,55,-6
9040,-1992,400,448,-15,58,-7
9045,-1992,416,472,-17,59,-7
9050,-1984,408,456,-17,64,-9
9055,-1968,408,432,-19,65,-11
9060,-1976,416,416,-20,67,-12
9065,-1984,408,440,-21,69,-12
9070,-1976,424,464,-22,68,-12
9075,-2000,376,432,-23,69,-12
9080,-2000,400,440,-25,69,-12
9085,-1992,424,456,-27,69,-13
9090,-2000,424,448,-28,68,-11
9095,-2008,392,440,-34,66,-12
9100,-1984,392,464,-38,64,-12
9105,-2000,392,408,-44,63,-12
9110,-2000,384,440,-47,63,-9
9115,-2016,384,424,-49,62,-9
9120,-1992,376,432,-49,62,-7
9125,-2016,384,424,-47,62,-6
9130,-2000,384,432,-43,64,-6
9135,-2000,392,440,-39,65,-4
9140,-2000,384,496,-35,67,-4
9145,-2016,408,432,-28,68,-2
9150,-1992,368,432,-22,67,0
9155,-1992,392,416,-18,67,1
9160,-2000,400,424,-16,64,0
9165,-1984,424,408,-15,64,3
9170,-1984,400,456,-17,63,3
9175,-1960,408,448,-20,61,2
9180,-1960,416,408,-24,61,1
9185,-1976,416,408,-27,62,0
9190,-1984,408,432,-31,62,-3
9195,-2008,392,424,-36,62,-3
9200,-2000,384,424,-37,64,-2
9205,-1968,392,432,-40,66,-5
9210,-1992,376,440,-42,67,-6
9215,-2008,400,440,-43,70,-6
9220,-1984,376,432,-43,72,-6
9225,-1992,376,432,-41,73,-4
9230,-2000,368,440,-38,74,-1
9235,-1992,384,440,-34,72,2
9240,-1992,384,456,-30,72,4
9245,-1976,384,440,-28,73,5
9250,-1968,416,384,-27,74,7
9255,-1976,368,416,-27,74,6
9260,-1968,368,416,-28,75,7
9265,-1960,392,424,-31,73,4
9270,-1976,416,456,-33,72,4
9275,-1960,400,448,-36,70,4
9280,-1968,400,440,-36,69,3
9285,-1976,400,440,-33,68,-1
9290,-1984,376,440,-30,66,-5
9295,-1976,368,424,-26,67,-5
9300,-1976,400,440,-24,68,-8
9305,-1976,384,432,-22,69,-9
9310,-1992,384,456,-21,70,-11
9315,-1984,368,456,-20,72,-11
9320,-2008,400,472,-20,73,-10
9325,-1984,360,472,-18,74,-9
9330,-1968,376,464,-17,74,-8
9335,-1960,392,424,-18,74,-5
9340,-1992,400,416,-20,73,-6
9345,-1992,408,432,-25,71,-5
9350,-1984,424,456,-32,68,-3
9355,-2000,384,456,-35,67,-4
9360,-2016,384,400,-38,68,-3
9365,-1992,368,440,-37,68,-4
9370,-1976,376,424,-33,70,-3
9375,-1976,376,400,-27,72,-3
9380,-1992,392,432,-21,76,-4
9385,-1984,408,472,-16,79,-4
9390,-1960,392,464,-11,82,-6
9395,-1984,384,440,-10,83,-6
9400,-1992,400,456,-10,84,-5
9405,-1984,392,416,-11,85,-5
9410,-1992,408,440,-12,83,-6
9415,-1992,392,464,-9,80,-4
9420,-2000,392,456,-7,77,-4
9425,-1984,408,432,-4,75,-3
9430,-1976,384,440,-1,71,-3
9435,-1984,392,408,1,69,-3
9440,-1968,376,424,2,67,-3
9445,-1992,400,424,2,62,-6
9450,-1976,384,416,-1,60,-4
9455,-1984,400,416,-4,56,-4
9460,-1968,408,432,-9,53,-6
9465,-1984,408,448,-14,51,-7
9470,-1960,352,448,-19,50,-7
9475,-1968,392,456,-23,52,-6
9480,-1992,424,456,-27,57,-7
9485,-1992,408,472,-33,62,-6
9490,-2000,392,464,-36,67,-8
9495,-2000,376,432,-36,75,-9
9500,-1992,392,472,-37,78,-8
9505,-2000,384,448,-33,84,-7
9510,-1992,384,440,-28,87,-5
9515,-1984,392,440,-20,90,-3
9520,-1992,360,472,-14,90,-2
9525,-1976,368,424,-9,90,-1
9530,-1952,376,448,-6,87,0
9535,-1976,408,432,-5,84,-1
9540,-1976,376,440,-6,81,1
9545,-1984,416,456,-10,76,-1
9550,-1976,408,440,-13,69,-2
9555,-1968,408,432,-20,64,-4
9560,-1984,408,440,-25,60,-3
9565,-1992,408,432,-28,59,-4
9570,-1984,408,464,-29,60,-7
9575,-1984,368,432,-28,63,-8
9580,-1976,408,432,-25,66,-10
9585,-1984,424,440,-23,71,-11
9590,-2000,400,424,-20,77,-12
9595,-2000,376,432,-17,83,-10
9600,-2016,376,448,-18,86,-10
9605,-2000,400,400,-18,89,-9
9610,-1968,368,424,-19,89,-8
9615,-1976,352,464,-21,90,-7
9620,-1984,376,456,-22,92,-7
9625,-1976,368,448,-19,93,-5
9630,-1992,360,432,-14,94,-1
9635,-1984,360,440,-10,91,1
9640,-1992,384,416,-5,89,1
9645,-1984,392,440,0,87,3
9650,-1944,376,424,2,84,2
9655,-1952,384,424,2,80,0
9660,-1960,408,416,4,78,-1
9665,-2008,384,440,4,77,-2
9670,-1944,376,424,5,74,-1
9675,-1984,400,448,6,71,-1
9680,-1952,408,448,6,68,-1
9685,-1960,376,456,7,65,-2
9690,-1976,400,456,3,64,-2
9695,-1976,384,408,0,64,-3
9700,-1984,400,440,-5,64,-4
9705,-2000,400,456,-9,64,-7
9710,-1992,408,424,-15,65,-7
9715,-1976,392,456,-18,65,-7
9720,-1984,400,456,-19,67,-8
9725,-2000,408,456,-17,66,-9
9730,-1968,400,440,-15,67,-10
9735,-2008,376,416,-11,68,-10
9740,-1928,432,328,-7,70,-10
9745,-1968,408,440,-4,69,-9
9750,-2000,400,424,-2,67,-10
9755,-2016,408,424,-4,67,-9
9760,-2008,432,416,-3,65,-9
9765,-2008,400,448,-4,63,-10
9770,-1976,408,408,-6,61,-12
9775,-2000,392,464,-6,61,-12
9780,-2000,416,416,-10,61,-12
9785,-1992,392,432,-11,60,-12
9790,-2008,392,456,-12,58,-12
9795,-2008,392,512,-12,58,-14
9800,-2000,400,440,-12,58,-14
9805,-2008,400,432,-11,57,-14
9810,-2024,416,440,-10,55,-14
9815,-2016,400,464,-9,54,-13
9820,-2000,400,440,-8,53,-10
9825,-2008,408,416,-7,52,-11
9830,-2000,424,432,-8,53,-11
9835,-2000,416,424,-13,54,-9
9840,-1976,384,440,-19,52,-9
9845,-1976,392,440,-26,50,-8
9850,-1992,392,432,-31,51,-8
9855,-1992,368,448,-36,53,-8
9860,-1992,384,456,-40,55,-8
9865,-2008,384,432,-39,57,-9
9870,-1992,376,416,-37,60,-8
9875,-2008,384,432,-33,63,-8
9880,-2008,368,432,-27,66,-7
9885,-2008,384,416,-21,67,-6
9890,-2008,376,408,-17,67,-4
9895,-2024,368,424,-12,67,-1
9900,-1992,368,440,-8,65,1
9905,-2024,352,368,-4,61,4
9910,-2000,384,440,0,58,8
9915,-2000,376,432,4,55,10
9920,-2000,392,440,8,52,10
9925,-1992,392,456,11,52,11
9930,-1984,408,440,13,52,11
9935,-1976,416,456,10,52,11
9940,-1960,400,440,8,53,10
9945,-1968,392,448,3,55,9
9950,-1952,400,432,-5,56,6
9955,-1968,408,448,-13,56,6
9960,-1952,400,472,-20,56,5
9965,-2000,408,464,-26,54,6
9970,-1984,392,432,-28,52,5
9975,-1952,384,416,-26,50,5
9980,-1976,392,448,-23,49,5
9985,-1976,376,440,-21,49,6
9990,-1992,392,424,-18,50,6
9995,-1984,400,432,-14,53,5
10000,-1992,416,464,-11,58,6
10005,-1992,400,432,-9,64,5
10010,-1984,384,440,-8,69,4
10015,-1992,392,408,-8,71,4
10020,-2000,400,432,-8,72,3
10025,-2008,384,456,-9,72,4
10030,-1992,384,464,-9,73,6
10035,-2008,384,464,-7,72,7
10040,-2008,384,456,-6,74,8
10045,-2008,424,448,-3,77,10
10050,-1968,376,448,0,82,11
10055,-2000,400,480,4,86,12
10060,-1984,392,448,6,88,12
10065,-1976,392,440,9,91,12
10070,-1992,424,464,13,91,11
10075,-1968,392,448,17,92,13
10080,-1960,384,440,21,89,13
10085,-1976,408,432,22,85,13
10090,-1952,408,440,21,82,12
10095,-1952,400,432,19,79,10
10100,-1976,392,464,16,73,10
10105,-1984,408,416,16,64,10
10110,-1968,400,424,11,60,9
10115,-1960,432,440,3,56,9
10120,-1968,472,320,-6,54,9
10125,-1976,416,424,-14,50,8
10130,-1968,424,424,-23,48,7
10135,-1984,392,440,-30,47,5
10140,-2000,400,432,-38,48,3
10145,-2008,376,440,-44,52,1
10150,-2032,368,448,-48,56,-2
10155,-2008,376,432,-47,60,-3
10160,-2024,392,448,-45,66,-2
10165,-2008,376,432,-41,70,-2
10170,-2024,368,480,-33,72,-3
10175,-2008,384,440,-25,75,-2
10180,-2000,376,384,-18,78,1
10185,-2000,376,448,-12,80,1
10190,-1992,400,408,-8,80,1
10195,-1984,416,416,-4,79,2
10200,-1968,392,416,-2,77,2
10205,-2000,408,440,0,71,1
10210,-1952,384,424,1,66,-1
10215,-1968,440,416,-1,61,-3
10220,-1976,392,400,-3,57,-5
10225,-1976,408,448,-9,52,-9
10230,-1968,392,472,-15,49,-11
10235,-1968,432,432,-22,46,-14
10240,-1976,408,440,-28,42,-14
10245,-1968,384,448,-34,39,-15
10250,-2000,384,424,-38,38,-16
10255,-2008,400,432,-40,36,-18
10260,-1992,376,432,-41,36,-21
10265,-2016,384,456,-40,38,-22
10270,-2000,392,456,-39,39,-21
10275,-2000,384,448,-36,42,-22
10280,-2008,360,464,-34,46,-21
10285,-2016,384,472,-29,50,-18
10290,-1992,360,432,-22,54,-16
10295,-1984,384,424,-16,60,-13
10300,-1984,360,456,-7,66,-9
10305,-1984,384,456,1,69,-6
10310,-2000,408,424,9,69,-5
10315,-1976,400,472,13,69,-3
10320,-1952,400,464,14,69,-4
10325,-1944,392,440,15,68,-2
10330,-1944,408,456,14,65,-2
10335,-1936,416,440,12,63,0
10340,-1952,424,456,9,62,0
10345,-1960,376,456,4,59,1
10350,-1944,416,472,0,57,2
10355,-1984,392,464,-5,57,3
10360,-1960,376,472,-10,59,1
10365,-1960,392,472,-15,58,-1
10370,-1968,368,488,-23,58,-1
10375,-1968,376,456,-27,60,-1
10380,-1968,360,464,-30,63,0
10385,-1992,392,432,-31,67,-3
10390,-2008,392,464,-30,71,-3
10395,-1992,360,456,-30,74,-3
10400,-2008,392,448,-28,73,-5
10405,-2008,392,448,-25,74,-3
10410,-1992,400,424,-20,73,-3
10415,-2000,408,440,-15,73,-2
10420,-1976,408,432,-13,73,-4
10425,-2000,408,440,-9,73,-1
10430,-1984,392,432,-7,74,-2
10435,-1984,392,456,-7,76,-4
10440,-1984,416,432,-9,76,-4
10445,-1992,408,448,-7,77,-4
10450,-1992,480,448,-7,76,-4
10455,-1976,392,440,-7,77,-4
10460,-2016,408,432,-6,75,-4
10465,-2000,416,464,-7,75,-5
10470,-1984,400,472,-6,74,-4
10475,-2016,400,416,-8,75,-5
10480,-1984,392,416,-8,75,-5
10485,-2008,408,416,-6,75,-4
10490,-1992,368,432,-4,73,-2
10495,-2016,392,424,-2,71,1
10500,-2016,384,416,0,69,2
10505,-1992,408,392,1,67,4
10510,-1976,392,448,3,64,4
10515,-2008,392,416,3,62,4
10520,-1968,392,448,0,57,2
10525,-1960,400,448,-4,55,2
10530,-1968,392,432,-8,50,2
10535,-1952,392,440,-11,48,0
10540,-1968,408,456,-16,49,-1
10545,-1968,384,496,-17,50,-3
10550,-1968,408,464,-20,53,-5
10555,-1960,368,440,-24,58,-6
10560,-1944,384,528,-29,59,-7
10565,-1976,368,464,-31,62,-7
10570,-1968,360,504,-33,65,-7
10575,-1968,360,480,-32,68,-4
10580,-2008,384,464,-30,69,-2
10585,-1992,376,472,-25,70,-2
10590,-1984,368,448,-20,72,-1
10595,-1992,392,440,-15,74,1
10600,-1992,384,448,-8,74,3
10605,-1984,400,456,-1,73,5
10610,-2000,384,432,4,73,4
10615,-1984,384,416,8,72,5
10620,-1968,376,432,8,72,5
10625,-1984,416,432,7,69,6
10630,-1984,400,440,4,67,5
10635,-1992,408,456,-2,63,4
10640,-1960,416,432,-5,60,3
10645,-1960,416,448,-9,57,2
10650,-1976,384,392,-11,56,1
10655,-1968,392,440,-12,54,0
10660,-1976,416,448,-14,52,-1
10665,-1928,376,472,-17,50,-4
10670,-1976,408,448,-19,51,-6
10675,-1976,400,424,-21,55,-7
10680,-1992,392,440,-25,61,-8
10685,-1984,368,456,-29,66,-8
10690,-1992,376,448,-33,73,-9
10695,-2016,408,416,-36,80,-10
10700,-2008,392,464,-35,84,-9
10705,-2008,392,416,-30,89,-5
10710,-2032,384,456,-20,93,-3
10715,-2024,376,472,-4,96,0
10720,-1992,360,456,13,97,4
10725,-2000,368,464,32,97,6
10730,-2016,376,448,50,98,8
10735,-2016,392,448,65,98,10
10740,-2008,392,464,72,97,11
10745,-1976,416,432,74,95,12
10750,-1984,416,464,71,90,14
10755,-2008,440,416,67,86,13
10760,-1968,448,432,56,84,12
10765,-1952,424,432,43,80,11
10770,-1968,448,432,30,78,10
10775,-1920,432,424,18,73,6
10780,-1952,416,440,8,68,4
10785,-1968,400,440,-1,64,0
10790,-1984,432,416,-9,61,-2
10795,-1992,408,424,-15,58,-6
10800,-1952,408,424,-19,57,-10
10805,-1984,408,448,-24,56,-12
10810,-2000,392,432,-28,54,-11
10815,-1960,376,440,-31,56,-12
10820,-2000,408,440,-33,56,-11
10825,-1992,376,440,-35,56,-11
10830,-1992,384,432,-36,57,-11
10835,-1984,400,432,-37,61,-7
10840,-2024,376,424,-36,67,-4
10845,-2000,392,440,-35,75,-4
10850,-2008,360,432,-32,81,-7
10855,-2016,392,440,-27,88,-5
10860,-2000,368,456,-22,94,-4
10865,-2016,352,488,-15,99,-1
10870,-2032,360,456,-6,102,0
10875,-2016,368,456,6,102,4
10880,-2016,368,424,17,102,8
10885,-2000,344,432,31,98,12
10890,-2016,384,440,46,93,15
10895,-2008,408,448,58,88,16
10900,-2000,416,448,66,82,19
10905,-1984,416,456,68,76,20
10910,-1984,424,432,66,67,21
10915,-1976,456,440,57,60,20
10920,-1952,424,456,44,55,18
10925,-1960,448,416,27,51,17
10930,-1944,432,448,9,49,13
10935,-1960,456,440,-7,50,10
10940,-1952,448,440,-20,49,5
10945,-1984,432,448,-28,47,-1
10950,-1976,408,424,-33,46,-6
10955,-1976,408,448,-36,44,-10
10960,-1992,424,432,-37,43,-12
10965,-2000,416,448,-38,42,-13
10970,-1984,416,456,-39,42,-15
10975,-1960,384,448,-40,44,-15
10980,-1944,384,456,-41,45,-15
10985,-1984,368,472,-43,48,-14
10990,-1976,408,472,-45,50,-13
10995,-1984,392,456,-46,53,-15
11000,-2000,400,440,-50,57,-14
11005,-2000,408,440,-55,62,-15
11010,-1992,392,448,-56,66,-13
11015,-1992,384,472,-56,71,-14
11020,-1992,392,408,-55,77,-14
11025,-1976,392,440,-51,82,-15
11030,-2000,400,440,-47,84,-14
11035,-1992,408,504,-42,88,-14
11040,-2008,408,440,-36,93,-15
11045,-1992,392,464,-32,97,-16
11050,-2000,400,448,-31,102,-15
11055,-1976,376,456,-33,104,-13
11060,-1984,376,448,-36,104,-12
11065,-1984,392,464,-38,104,-9
11070,-2000,360,456,-41,102,-8
11075,-2008,352,456,-40,100,-5
11080,-2000,392,464,-35,96,-3
11085,-1976,360,440,-27,92,0
11090,-1984,360,440,-20,88,1
11095,-1968,376,432,-11,86,3
11100,-1984,392,440,-5,84,5
11105,-1984,384,448,-3,78,6
11110,-1960,376,432,-3,74,5
11115,-1960,400,400,-6,69,5
11120,-1984,384,424,-6,66,5
11125,-1976,408,464,-9,60,4
11130,-1976,408,432,-10,56,4
11135,-1984,416,416,-14,54,4
11140,-1976,392,448,-17,50,4
11145,-1992,408,464,-22,50,3
11150,-1984,416,432,-27,52,2
11155,-1992,408,480,-32,55,1
11160,-2000,432,448,-38,59,1
11165,-2008,416,424,-44,64,-1
11170,-1992,408,440,-46,70,-4
11175,-2000,416,384,-48,78,-4
11180,-1992,392,424,-49,85,-5
11185,-2000,416,448,-50,93,-3
11190,-2008,408,424,-49,100,-2
11195,-2000,416,424,-47,106,-2
11200,-2008,424,456,-41,108,-4
11205,-1992,368,432,-36,109,-4
11210,-1984,432,400,-30,109,-4
11215,-2008,416,432,-26,107,-4
11220,-1992,424,440,-26,103,-3
11225,-1992,400,456,-25,97,-4
11230,-1992,352,424,-20,90,-4
11235,-1968,376,448,-21,86,-5
11240,-1984,376,432,-23,76,-3
11245,-1976,440,480,-23,70,-3
11250,-1968,400,432,-25,67,-2
11255,-2016,400,416,-29,67,-2
11260,-2000,400,456,-33,67,-2
11265,-1984,384,440,-37,67,-1
11270,-1984,384,448,-38,69,-4
11275,-1976,416,464,-39,69,-4
11280,-2016,400,424,-39,73,-2
11285,-1984,392,432,-40,74,-2
11290,-1984,392,432,-39,75,-3
11295,-2008,408,432,-38,74,-2
11300,-1984,392,448,-37,73,-1
11305,-2008,432,456,-38,73,-1
11310,-1984,400,440,-38,71,-1
11315,-1992,400,440,-38,69,1
11320,-1960,360,464,-36,68,0
11325,-1992,400,456,-33,67,1
11330,-2008,400,464,-31,67,1
11335,-1984,360,440,-28,67,0
11340,-2000,384,456,-24,68,-1
11345,-1976,368,424,-19,71,1
11350,-1976,384,440,-15,72,0
11355,-2000,416,424,-14,71,1
11360,-1984,384,424,-12,69,0
11365,-1960,392,456,-13,69,1
11370,-1968,392,432,-14,68,2
11375,-1976,392,456,-15,69,3
11380,-1960,384,472,-15,70,2
11385,-1960,400,456,-16,71,3
11390,-1992,400,432,-15,71,2
11395,-1968,392,432,-15,70,1
11400,-1976,408,456,-15,68,1
11405,-1992,384,464,-14,70,0
11410,-1968,376,416,-18,71,-2
11415,-1976,392,424,-19,71,-2
11420,-1992,400,432,-20,72,-1
11425,-1976,392,432,-22,73,-2
11430,-1984,384,432,-24,72,-1
11435,-2008,400,424,-24,74,1
11440,-1992,384,416,-25,75,-1
11445,-1984,408,416,-26,75,-2
11450,-1976,376,464,-25,74,-2
11455,-1984,400,416,-25,75,-2
11460,-2024,400,416,-24,75,-2
11465,-2008,408,424,-24,76,-2
11470,-1992,424,392,-22,74,-2
11475,-1976,392,440,-18,74,-2
11480,-1992,408,440,-18,74,-4
11485,-1968,392,432,-19,74,-4
11490,-2016,424,440,-20,72,-4
11495,-2016,416,440,-20,71,-5
11500,-2000,400,424,-19,70,-6
11505,-1984,368,432,-19,68,-7
11510,-1976,392,432,-19,66,-8
11515,-1984,424,432,-19,67,-8
11520,-1968,384,448,-19,66,-8
11525,-1992,400,432,-19,66,-8
11530,-1992,400,440,-19,65,-9
11535,-1984,368,440,-19,64,-8
11540,-2032,456,416,-19,63,-7
11545,-2000,424,424,-20,63,-4
11550,-2000,400,448,-20,63,-5
11555,-2008,432,432,-20,63,-5
11560,-1992,408,432,-22,65,-4
11565,-2000,392,416,-22,64,-4
11570,-1984,408,440,-22,66,-4
11575,-1960,384,456,-23,69,-5
11580,-1992,392,456,-22,70,-5
11585,-1984,408,456,-20,71,-6
11590,-2000,408,472,-20,72,-7
11595,-1992,408,440,-19,71,-6
11600,-1992,400,440,-18,73,-6
11605,-1992,408,456,-18,72,-4
11610,-1976,392,440,-18,70,-3
11615,-1976,408,416,-19,70,-4
11620,-1976,384,432,-17,69,-3
11625,-1976,392,456,-18,67,-3
11630,-1984,400,440,-18,68,-3
11635,-1984,408,440,-17,68,-4
11640,-1984,360,456,-17,65,-3
11645,-1952,392,456,-15,65,-4
11650,-1984,384,440,-14,66,-3
11655,-2000,400,448,-14,67,-3
11660,-1984,392,464,-14,67,-4
11665,-1992,392,440,-14,69,-3
11670,-2008,408,456,-15,72,-4
11675,-2000,392,432,-15,74,-4
11680,-1984,400,440,-16,75,-5
11685,-1984,384,416,-17,75,-3
11690,-1984,384,456,-17,74,-2
11695,-1984,384,440,-17,73,-2
11700,-2000,416,432,-17,74,-1
11705,-1992,384,424,-18,72,-2
11710,-2008,392,440,-17,70,-3
11715,-2000,392,424,-18,70,-3
11720,-1992,408,416,-18,70,-3
11725,-1968,392,424,-19,70,-2
11730,-1984,376,424,-19,71,-2
11735,-2000,424,432,-19,71,-1
11740,-1992,432,448,-19,71,-1
11745,-1984,384,448,-18,72,0
11750,-1984,384,424,-21,72,0
11755,-2040,448,424,-22,72,2
11760,-2000,392,448,-23,73,2
11765,-2000,400,408,-25,72,4
11770,-1984,376,448,-26,73,4
11775,-1984,408,448,-23,76,4
11780,-1976,400,456,-22,77,5
11785,-1976,416,432,-20,79,5
11790,-1992,416,424,-19,78,5
11795,-1984,400,456,-16,78,4
11800,-1984,416,432,-15,77,4
11805,-2008,408,432,-14,77,3
11810,-1984,400,456,-13,75,4
11815,-1984,408,408,-13,76,3
11820,-2000,384,432,-14,78,2
11825,-1984,392,408,-16,76,2
11830,-2008,376,440,-16,76,2
11835,-1992,352,448,-16,76,0
11840,-2000,360,408,-16,76,0
11845,-2008,376,416,-14,76,0
11850,-1992,376,424,-10,74,-1
11855,-1992,384,432,-6,73,-2
11860,-1992,392,408,-2,68,-2
11865,-2024,400,392,1,64,-3
11870,-1968,368,424,1,60,-3
11875,-1968,400,432,0,57,-3
11880,-1968,400,464,-1,55,-2
11885,-1984,392,464,-4,54,-3
11890,-1960,384,440,-7,53,-3
11895,-1984,408,472,-10,53,-3
11900,-1968,384,456,-12,52,-4
11905,-1984,408,456,-15,54,-4
11910,-2000,392,440,-19,57,-4
11915,-1976,400,464,-24,61,-5
11920,-2008,416,432,-24,63,-6
11925,-2008,392,448,-26,65,-8
11930,-1992,392,456,-25,69,-9
11935,-2024,400,456,-23,71,-8
11940,-2000,360,432,-20,71,-8
11945,-1992,384,448,-17,71,-7
11950,-2000,416,440,-14,71,-6
11955,-1992,384,424,-12,68,-3
11960,-2016,416,480,-9,68,-3
11965,-1976,392,440,-6,66,-3
11970,-2000,392,408,-5,64,-3
11975,-2016,448,408,-8,64,-5
11980,-1992,424,432,-8,65,-5
11985,-1984,392,440,-7,63,-6
11990,-1992,392,456,-7,62,-6
11995,-1984,392,440,-6,62,-7
12000,-2000,432,432,-6,62,-8
12005,-1976,424,456,-7,63,-8
12010,-1976,408,440,-9,64,-8
12015,-1992,392,440,-11,67,-8
12020,-1984,384,432,-13,67,-6
12025,-1968,376,464,-16,64,-6
12030,-1984,392,440,-17,65,-6
12035,-1984,400,448,-16,63,-6
12040,-1976,392,440,-15,60,-3
12045,-2000,392,456,-14,59,-2
12050,-1968,392,448,-14,59,-1
12055,-1984,392,416,-14,58,-1
12060,-2000,384,440,-15,61,-1
12065,-2008,392,440,-17,62,-2
12070,-1992,400,448,-20,65,-2
12075,-2008,408,416,-20,67,-4
12080,-1976,376,416,-20,66,-4
12085,-2000,408,464,-18,67,-4
12090,-2008,400,432,-15,67,-5
12095,-1992,400,424,-11,67,-3
12100,-2000,400,424,-9,67,-4
12105,-1992,384,408,-9,66,-4
12110,-1984,400,448,-11,65,-3
12115,-2000,400,432,-12,64,-2
12120,-2008,408,408,-14,64,-2
12125,-1976,376,424,-18,62,-2
12130,-2000,408,472,-20,60,-1
12135,-2000,416,432,-19,58,1
12140,-1976,392,440,-20,57,0
12145,-1960,416,440,-20,56,1
12150,-1984,408,464,-18,57,1
12155,-1984,400,432,-19,60,1
12160,-1984,400,440,-16,64,0
12165,-1992,376,424,-16,67,-1
12170,-1984,416,448,-17,66,-2
12175,-1984,360,440,-19,68,-3
12180,-2000,384,448,-18,69,-3
12185,-1992,384,448,-18,69,-3
12190,-2008,400,472,-19,70,-1
12195,-2000,424,432,-15,70,-2
12200,-1984,400,432,-13,71,-2
12205,-1976,360,480,-11,72,-3
12210,-1960,360,424,-10,72,-4
12215,-1976,392,416,-8,72,-3
12220,-1984,392,448,-7,70,-5
12225,-1992,376,424,-7,67,-5
12230,-2008,400,448,-7,66,-5
12235,-1992,400,440,-7,66,-6
12240,-1992,408,448,-7,65,-5
12245,-1976,392,440,-9,65,-5
12250,-1976,400,448,-10,65,-4
12255,-1984,400,448,-9,66,-5
12260,-1968,392,448,-10,65,-5
12265,-1968,392,456,-11,66,-5
12270,-1992,392,456,-13,63,-5
12275,-1984,392,456,-14,62,-3
12280,-1992,392,448,-18,62,-5
12285,-1984,400,408,-19,63,-5
12290,-1976,392,456,-20,63,-4
12295,-1992,400,456,-22,63,-4
12300,-1936,432,376,-25,65,-4
12305,-1984,416,456,-25,65,-5
12310,-1976,400,432,-25,66,-5
12315,-1968,416,448,-24,66,-6
12320,-1984,400,416,-23,66,-6
12325,-2000,368,416,-22,66,-5
12330,-1968,392,440,-19,66,-4
12335,-1992,384,432,-16,67,-3
12340,-2008,392,448,-13,67,-4
12345,-1992,416,464,-13,66,-4
12350,-1976,384,440,-13,63,-3
12355,-1984,376,440,-16,62,-2
12360,-2000,408,432,-17,60,-3
12365,-1992,400,456,-17,62,-3
12370,-1984,408,432,-19,62,-3
12375,-1968,400,432,-20,64,-3
12380,-1968,400,448,-20,65,-3
12385,-2000,392,440,-21,69,-4
12390,-1976,384,456,-20,72,-5
12395,-1992,416,448,-20,72,-4
12400,-1976,400,440,-19,72,-5
12405,-1984,392,432,-18,72,-4
12410,-1984,320,488,-17,71,-2
12415,-2000,416,448,-17,71,0
12420,-1976,424,440,-16,71,-1
12425,-1992,408,464,-17,70,-1
12430,-1984,408,432,-14,68,1
12435,-1976,392,456,-16,66,1
12440,-2000,400,424,-16,67,2
12445,-1992,384,440,-18,68,1
12450,-2000,392,432,-18,67,1
12455,-1984,384,424,-20,66,-1
12460,-1984,416,464,-19,66,-2
12465,-1984,400,448,-20,67,-3
12470,-2008,392,456,-20,66,-2
12475,-2008,376,440,-22,69,-2
12480,-2000,392,456,-23,70,-1
12485,-1992,376,456,-22,72,-4
12490,-2000,368,440,-22,76,-4
12495,-1992,392,448,-19,76,-4
12500,-1984,408,440,-16,76,-4
12505,-1984,384,464,-12,76,-4
12510,-1976,400,440,-8,76,-3
12515,-1968,376,448,-6,75,-3
12520,-1984,392,488,-7,74,-2
12525,-1984,400,456,-8,73,-1
12530,-1984,368,456,-11,73,-1
12535,-1976,408,440,-12,73,1
12540,-2000,408,432,-14,73,1
12545,-2000,408,432,-14,74,1
12550,-1976,400,440,-13,74,1
12555,-1984,400,456,-14,73,1
12560,-1976,400,456,-11,72,-1
12565,-1984,384,464,-10,73,-3
12570,-2000,400,432,-8,71,-3
12575,-1976,392,440,-9,71,-4
12580,-1984,392,440,-9,71,-5
12585,-1976,392,440,-11,70,-7
12590,-2000,400,440,-12,69,-7
12595,-2000,384,448,-12,69,-7
12600,-1992,368,464,-11,70,-7
12605,-2000,384,432,-10,73,-5
12610,-1992,368,432,-6,76,-4
12615,-2000,392,424,-3,78,-2
12620,-1984,392,408,-1,79,0
12625,-1944,344,448,2,79,-1
12630,-1984,400,408,3,75,-1
12635,-1984,416,432,3,72,-1
12640,-1960,392,424,0,67,0
12645,-1976,392,432,-1,65,-1
12650,-1984,408,424,-3,62,-2
12655,-1976,392,440,-6,59,-2
12660,-1984,392,448,-8,56,-3
12665,-1984,376,440,-10,55,-3
12670,-1984,400,440,-12,54,-3
12675,-1992,408,432,-16,56,-3
12680,-2008,424,464,-19,56,-3
12685,-2016,408,448,-18,58,-3
12690,-1992,424,472,-18,63,-2
12695,-2008,368,440,-17,65,-1
12700,-1968,376,456,-15,68,-1
12705,-2000,408,432,-11,69,-2
12710,-2000,376,424,-4,69,-2
12715,-2008,400,440,2,69,-3
12720,-1976,384,448,8,67,-4
12725,-1968,408,424,13,64,-5
12730,-1976,408,416,18,61,-6
12735,-1992,384,416,20,55,-5
12740,-1968,384,408,22,51,-6
12745,-1984,392,432,22,44,-8
12750,-1992,416,408,22,39,-8
12755,-2008,408,448,22,30,-7
12760,-1992,384,448,19,24,-7
12765,-1968,368,432,18,23,-5
12770,-1992,400,456,17,24,-4
12775,-1976,392,448,15,27,-5
12780,-1976,384,424,9,28,-4
12785,-2016,416,432,2,31,-5
12790,-1984,400,440,-4,32,-8
12795,-1968,392,464,-9,35,-6
12800,-1984,392,448,-12,46,-3
12805,-2000,376,480,-16,54,-2
12810,-1976,400,488,-20,57,-1
12815,-1984,400,456,-26,57,2
12820,-1984,384,448,-27,56,3
12825,-1992,392,456,-29,53,3
12830,-1984,392,448,-30,54,2
12835,-1968,384,448,-27,54,1
12840,-1984,408,432,-24,55,1
12845,-1968,400,448,-25,56,1
12850,-1992,392,464,-26,54,1
12855,-2016,408,432,-27,52,0
12860,-1984,392,456,-26,47,1
12865,-1984,392,464,-26,47,-1
12870,-1976,384,464,-21,52,-2
12875,-1992,368,464,-16,55,0
12880,-2008,408,440,-16,58,1
12885,-1992,392,480,-16,56,1
12890,-1984,384,448,-20,55,1
12895,-2000,416,440,-24,50,2
12900,-1984,392,480,-27,47,3
12905,-1992,384,456,-27,50,2
12910,-1976,392,456,-26,52,3
12915,-2000,408,440,-25,53,2
12920,-1984,392,432,-24,55,3
12925,-1992,416,440,-25,55,1
12930,-1952,384,448,-27,55,0
12935,-1984,400,472,-29,54,0
12940,-1984,416,496,-29,57,1
12945,-1976,400,440,-28,59,0
12950,-2000,400,448,-29,61,-2
12955,-2032,376,464,-27,64,-4
12960,-1992,400,440,-27,66,-4
12965,-1984,376,456,-28,66,-3
12970,-2000,408,464,-29,69,-4
12975,-2000,392,424,-31,71,-4
12980,-1976,376,464,-32,74,-4
12985,-1968,392,464,-34,72,-3
12990,-1976,384,472,-35,74,-3
12995,-1968,392,456,-35,73,-4
13000,-1976,392,464,-35,74,-4
13005,-2000,400,464,-35,74,-2
13010,-2000,408,448,-35,75,-2
13015,-1984,400,472,-37,73,-4
13020,-1984,408,432,-38,72,-4
13025,-1976,368,448,-40,71,-5
13030,-1984,384,448,-41,71,-5
13035,-1968,400,432,-44,72,-4
13040,-1976,400,464,-45,75,-3
13045,-2000,400,440,-46,76,-2
13050,-2016,424,432,-45,78,-2
13055,-1992,400,464,-44,79,-3
13060,-1976,384,456,-43,81,-4
13065,-1992,312,424,-42,83,-6
13070,-1976,408,456,-43,83,-5
13075,-1992,408,440,-43,85,-2
13080,-1984,392,456,-43,85,-4
13085,-2000,392,464,-44,86,-3
13090,-1976,376,472,-46,90,-3
13095,-1976,384,456,-45,90,-3
13100,-1984,408,448,-46,92,-2
13105,-2000,392,456,-45,93,-1
13110,-1992,416,448,-47,94,-2
13115,-1968,440,416,-47,96,-1
13120,-2008,392,416,-47,98,-1
13125,-1992,400,432,-47,99,-1
13130,-1984,352,440,-46,102,-2
13135,-1992,392,456,-47,104,-2
13140,-1992,392,472,-49,107,-1
13145,-2024,408,480,-50,109,-1
13150,-2000,376,448,-50,111,-2
13155,-1984,416,448,-50,111,-1
13160,-1992,400,464,-47,111,-1
13165,-1968,376,416,-44,112,-1
13170,-1968,392,432,-40,112,1
13175,-1992,384,432,-37,111,0
13180,-1976,368,456,-34,111,1
13185,-1992,384,448,-31,112,1
13190,-1968,392,440,-29,110,0
13195,-1976,360,432,-29,109,1
13200,-1976,376,464,-29,107,0
13205,-1984,392,440,-29,104,0
13210,-1992,384,456,-31,103,0
13215,-1976,392,440,-35,101,0
13220,-2000,408,408,-36,99,0
13225,-1976,368,440,-37,100,0
13230,-1984,400,464,-40,99,0
13235,-1968,400,456,-43,103,-3
13240,-1968,384,424,-46,103,-3
13245,-1984,392,456,-51,105,-4
13250,-1976,392,440,-55,108,-4
13255,-2008,400,448,-61,111,-6
13260,-1976,408,432,-66,112,-4
13265,-1984,376,464,-67,114,-5
13270,-1968,400,464,-68,117,-5
13275,-2000,400,440,-68,120,-5
13280,-1976,384,464,-68,120,-5
13285,-2000,400,440,-67,119,-5
13290,-1960,384,408,-66,117,-5
13295,-1968,368,440,-64,113,-4
13300,-1976,384,408,-63,110,-5
13305,-2000,392,416,-62,107,-4
13310,-1992,384,416,-60,105,-2
13315,-1968,400,432,-60,101,-2
13320,-1984,400,408,-58,99,-1
13325,-1968,384,416,-55,97,-2
13330,-1992,416,416,-54,94,0
13335,-2032,408,432,-51,92,-2
13340,-2008,400,424,-44,94,-3
13345,-1992,376,424,-40,93,-6
13350,-2008,384,424,-34,91,-6
13355,-2016,400,424,-28,93,-6
13360,-2000,384,416,-24,94,-9
13365,-1992,376,432,-21,96,-8
13370,-2016,392,416,-20,99,-8
13375,-2000,368,432,-18,101,-8
13380,-2008,360,432,-19,103,-6
13385,-2016,344,448,-19,104,-3
13390,-2016,368,440,-18,106,-3
13395,-1992,376,416,-20,107,-1
13400,-1984,384,416,-20,107,-1
13405,-1984,384,384,-20,106,2
13410,-1992,408,408,-19,101,1
13415,-1992,392,384,-16,97,1
13420,-1984,392,408,-15,89,1
13425,-1992,376,376,-14,83,1
13430,-2008,400,384,-14,77,2
13435,-1992,400,424,-12,73,1
13440,-1984,384,432,-12,69,1
13445,-1976,384,416,-11,65,1
13450,-1992,384,424,-14,63,0
13455,-1984,392,456,-19,63,-2
13460,-2000,400,440,-24,64,-1
13465,-2000,392,440,-29,64,0
13470,-2016,384,440,-32,66,0
13475,-1992,376,440,-33,69,1
13480,-2016,384,424,-31,71,2
13485,-2008,400,456,-28,75,2
13490,-2000,400,416,-24,78,2
13495,-2008,384,416,-19,82,1
13500,-1952,448,384,-16,83,0
13505,-2008,392,416,-14,81,0
13510,-1984,376,424,-11,80,-3
13515,-1984,392,432,-10,79,-3
13520,-1968,392,408,-9,77,-4
13525,-1984,400,440,-9,75,-4
13530,-1968,392,424,-12,75,-6
13535,-1984,376,456,-15,76,-5
13540,-2000,400,448,-16,76,-6
13545,-1960,368,440,-18,76,-6
13550,-1976,376,440,-16,78,-4
13555,-2024,416,432,-16,80,-4
13560,-1976,384,424,-17,79,-4
13565,-2000,400,408,-14,80,-6
13570,-2008,416,440,-11,81,-4
13575,-1992,368,392,-7,80,-4
13580,-1984,408,400,-4,77,-5
13585,-2000,376,392,-3,75,-4
13590,-1992,400,392,-3,72,-4
13595,-2000,384,432,-2,70,-4
13600,-1976,384,440,-4,71,-3
13605,-2008,392,408,-8,74,-4
13610,-2000,400,400,-13,76,-6
13615,-1992,416,408,-19,76,-7
13620,-2008,424,424,-25,77,-6
13625,-1992,400,432,-27,81,-6
13630,-2008,384,424,-31,84,-7
13635,-2000,384,416,-33,86,-7
13640,-2016,376,440,-36,87,-8
13645,-1992,384,424,-38,88,-7
13650,-1968,384,424,-39,91,-7
13655,-1976,376,424,-41,92,-7
13660,-1992,392,432,-47,96,-7
13665,-1976,416,392,-54,97,-6
13670,-2016,384,448,-62,99,-7
13675,-1976,400,432,-69,98,-7
13680,-2008,392,448,-75,101,-9
13685,-2008,408,424,-78,104,-11
13690,-2000,392,408,-77,106,-12
13695,-2008,384,416,-75,107,-13
13700,-2000,392,384,-70,104,-14
13705,-1984,376,416,-61,101,-13
13710,-1976,352,400,-51,102,-13
13715,-1984,344,416,-38,103,-11
13720,-2000,416,376,-27,104,-8
13725,-2016,368,416,-19,100,-8
13730,-1984,360,400,-10,93,-5
13735,-1992,376,384,-3,85,-3
13740,-1976,376,400,2,79,-1
13745,-1984,408,384,6,74,1
13750,-1984,368,416,6,68,1
13755,-1968,408,456,4,64,0
13760,-1968,384,424,3,60,-1
13765,-2000,400,416,2,57,-3
13770,-1976,392,448,1,58,-4
13775,-1992,384,432,0,59,-7
13780,-2000,408,424,-1,59,-9
13785,-1992,384,440,-2,62,-10
13790,-1976,384,456,-2,65,-12
13795,-2000,392,456,-3,68,-12
13800,-1968,376,416,-6,73,-12
13805,-2008,376,472,-9,79,-11
13810,-1992,368,448,-11,83,-11
13815,-2000,368,432,-15,87,-10
13820,-2008,360,464,-16,89,-10
13825,-2016,368,360,-18,90,-10
13830,-2008,360,440,-19,94,-10
13835,-1992,384,408,-19,100,-10
13840,-1992,376,416,-22,104,-7
13845,-2016,368,424,-22,104,-8
13850,-1992,368,376,-19,109,-7
13855,-2000,368,400,-20,109,-4
13860,-2000,384,384,-16,110,-4
13865,-2000,384,384,-11,108,-4
13870,-2008,352,432,-8,104,-2
13875,-2000,360,456,-4,99,-1
13880,-1976,368,392,2,94,-3
13885,-1984,384,400,5,93,-1
13890,-1984,384,400,3,90,-1
13895,-2000,352,424,1,87,-1
13900,-2008,384,392,-4,82,-2
13905,-2000,384,424,-9,79,-2
13910,-1992,368,416,-14,78,-3
13915,-2000,376,400,-18,77,-5
13920,-2024,376,408,-21,75,-4
13925,-2000,392,400,-23,77,-5
13930,-1992,368,416,-21,85,-4
13935,-2040,360,456,-20,88,-4
13940,-2008,376,432,-20,93,-5
13945,-2000,392,432,-19,97,-7
13950,-1992,376,408,-17,98,-5
13955,-2000,384,392,-15,101,-6
13960,-1984,376,400,-11,101,-6
13965,-2000,392,424,-12,96,-4
13970,-1984,360,392,-8,94,-4
13975,-1992,376,408,-5,93,-4
13980,-1992,400,416,-4,91,-2
13985,-2000,400,408,-5,87,-2
13990,-2016,376,368,-6,80,-3
13995,-1984,408,360,-6,76,-3
14000,-1992,408,384,-6,73,-4
14005,-2008,424,384,-4,73,-5
14010,-1992,376,392,-6,71,-6
14015,-2000,392,400,-7,71,-7
14020,-2000,384,432,-8,73,-7
14025,-2016,384,424,-8,75,-7
14030,-1968,376,432,-8,76,-6
14035,-2008,336,424,-8,78,-4
14040,-1984,408,376,-9,80,-5
14045,-1984,336,432,-9,82,-5
14050,-2016,376,416,-11,84,-4
14055,-2008,392,432,-11,85,-3
14060,-1992,360,440,-11,86,-4
14065,-2000,392,416,-13,89,-4
14070,-1992,368,408,-14,90,-4
14075,-2008,376,424,-14,92,-5
14080,-2008,376,416,-14,94,-5
14085,-1992,384,392,-12,93,-5
14090,-1976,368,400,-7,95,-5
14095,-2000,384,384,-3,96,-5
14100,-2024,392,392,4,98,-5
14105,-1992,344,400,7,98,-5
14110,-1984,368,392,10,98,-5
14115,-1992,384,400,12,95,-7
14120,-1976,376,400,15,93,-6
14125,-1992,384,384,15,90,-8
14130,-1952,384,400,13,86,-7
14135,-1984,376,392,10,83,-5
14140,-1992,376,440,4,82,-5
14145,-1992,376,424,0,82,-6
14150,-2016,392,440,-5,85,-5
14155,-1992,376,400,-7,87,-4
14160,-2016,376,432,-9,93,-2
14165,-2000,384,376,-9,98,-2
14170,-1984,376,392,-10,102,0
14175,-1992,384,416,-14,103,1
14180,-2000,400,416,-17,103,0
14185,-2008,400,400,-18,104,-1
14190,-2000,360,416,-19,106,0
14195,-1984,408,400,-19,107,-1
14200,-2016,392,384,-18,108,-1
14205,-2016,384,416,-20,107,1
14210,-2008,360,400,-19,105,-1
14215,-2016,360,408,-17,102,0
14220,-1992,368,408,-10,102,0
14225,-2024,368,408,-8,102,0
14230,-2000,400,408,-8,98,1
14235,-2008,376,408,-5,97,1
14240,-1992,392,376,-2,96,0
14245,-1992,376,392,0,94,-1
14250,-1984,400,376,0,91,0
14255,-1992,384,384,0,89,-1
14260,-1984,360,400,-2,87,0
14265,-1984,368,384,-3,84,0
14270,-1984,400,376,-4,83,0
14275,-1992,392,384,-6,81,-2
14280,-1968,368,416,-7,82,-2
14285,-1992,384,392,-9,79,-3
14290,-1992,376,376,-12,78,-2
14295,-2000,384,400,-12,77,-1
14300,-2016,400,392,-13,80,-3
14305,-1984,376,384,-12,85,-4
14310,-2000,368,408,-10,91,-6
14315,-2016,376,392,-11,97,-7
14320,-2000,384,376,-14,101,-9
14325,-2000,368,392,-15,102,-10
14330,-2024,368,376,-15,103,-11
14335,-2008,360,384,-15,105,-9
14340,-2016,360,400,-11,103,-8
14345,-2032,392,360,-7,104,-7
14350,-2000,376,360,-5,103,-7
14355,-2008,384,376,-3,103,-4
14360,-2016,392,384,0,103,-3
14365,-2024,360,360,2,100,-3
14370,-2016,400,368,2,99,-3
14375,-1992,376,376,5,96,-3
14380,-2000,392,360,5,96,-2
14385,-2016,384,392,1,93,-1
14390,-1992,376,392,-1,90,0
14395,-1992,360,376,-1,87,1
14400,-2000,360,352,-2,86,0
14405,-2008,392,360,-3,84,1
14410,-2016,384,400,-4,85,1
14415,-1984,392,360,-4,86,1
14420,-2000,376,376,-3,88,2
14425,-2000,384,376,-4,88,2
14430,-1992,368,376,-4,87,3
14435,-1992,360,384,-4,88,3
14440,-2000,368,360,-4,87,5
14445,-2016,376,376,-4,84,6
14450,-1976,352,376,-5,80,7
14455,-2000,408,376,-4,77,8
14460,-1976,376,376,-3,72,6
14465,-2008,408,376,-3,70,6
14470,-2008,392,368,-3,68,5
14475,-2000,408,384,-1,66,3
14480,-2008,360,400,-2,62,2
14485,-1992,408,360,0,62,1
14490,-2000,400,352,0,61,0
14495,-2000,400,368,-1,60,-2
14500,-2000,384,392,-4,57,-2
14505,-2000,384,368,-6,55,-2
14510,-2016,400,376,-7,54,-1
14515,-2008,400,376,-10,54,-1
14520,-2024,376,368,-11,52,-1
14525,-1992,384,392,-13,51,1
14530,-2032,384,392,-14,54,1
14535,-2024,384,368,-13,56,-1
14540,-2000,384,400,-14,56,0
14545,-1984,352,384,-16,55,-1
14550,-2000,368,384,-15,58,-1
14555,-2000,384,392,-14,59,-1
14560,-2000,392,376,-13,61,-2
14565,-2000,400,384,-13,60,-3
14570,-2008,408,384,-12,60,-3
14575,-1992,384,376,-11,59,-3
14580,-1976,360,384,-9,58,-2
14585,-2016,392,376,-9,57,-2
14590,-2016,376,360,-8,55,-3
14595,-2016,392,352,-7,54,-3
14600,-1992,392,392,-5,53,-3
14605,-1992,384,392,-3,51,-2
14610,-2024,416,392,-3,49,-4
14615,-1992,400,400,-2,49,-3
14620,-2000,360,376,-1,48,-4
14625,-1984,400,376,0,50,-5
14630,-2016,384,376,-1,50,-5
14635,-1992,384,424,-3,50,-3
14640,-2008,384,384,-5,50,-5
14645,-2016,408,368,-7,51,-4
14650,-2000,392,392,-8,51,-3
14655,-2008,384,400,-11,50,-4
14660,-2016,384,384,-13,51,-5
14665,-1984,384,408,-15,51,-3
14670,-2024,400,408,-17,52,-4
14675,-2008,392,400,-17,54,-6
14680,-2000,392,392,-17,57,-4
14685,-2016,408,368,-16,60,-4
14690,-2016,392,384,-14,62,-5
14695,-2016,400,376,-12,62,-6
14700,-2024,400,384,-10,64,-6
14705,-2008,376,416,-8,67,-6
14710,-2016,384,368,-5,67,-4
14715,-2000,384,376,-4,68,-4
14720,-2008,376,368,-4,66,-4
14725,-1992,376,360,-4,67,-2
14730,-1968,368,384,-4,63,-1
14735,-1968,344,368,-3,60,-1
14740,-1976,376,384,-3,57,0
14745,-1992,384,368,-4,53,0
14750,-1992,384,392,-4,51,1
14755,-1992,400,384,-4,49,-1
14760,-2008,392,384,-5,47,-1
14765,-1984,384,408,-6,48,-1
14770,-2016,400,392,-7,49,-2
14775,-2000,384,400,-11,49,-2
14780,-1992,384,408,-11,50,-3
14785,-2016,408,408,-12,52,-3
14790,-2000,376,360,-11,53,-4
14795,-2008,392,368,-10,55,-5
14800,-2000,368,400,-9,55,-6
14805,-1968,344,384,-6,56,-7
14810,-2000,392,400,-3,56,-7
14815,-2032,400,376,0,55,-8
14820,-2000,376,368,2,56,-8
14825,-2000,392,392,2,55,-6
14830,-1992,376,384,-1,53,-5
14835,-1992,384,376,-5,54,-4
14840,-1992,376,384,-8,56,-4
14845,-1976,368,424,-11,60,-3
14850,-1992,360,416,-15,62,-3
14855,-1976,360,416,-15,66,-3
14860,-2008,352,416,-14,70,-1
14865,-2000,392,384,-13,70,0
14870,-1992,376,368,-14,70,1
14875,-1976,384,384,-12,70,2
14880,-2008,392,384,-11,70,2
14885,-1976,376,360,-11,68,2
14890,-1984,376,392,-11,64,1
14895,-2008,376,368,-11,61,0
14900,-1992,400,384,-11,58,0
14905,-2000,400,408,-9,55,1
14910,-1984,400,416,-8,51,2
14915,-1984,408,384,-7,47,2
14920,-2016,392,392,-9,45,1
14925,-1984,392,384,-7,45,1
14930,-2008,392,392,-6,45,1
14935,-2016,384,352,-6,45,0
14940,-2008,416,368,-7,49,-1
14945,-2024,408,368,-6,52,-2
14950,-2000,352,392,-4,55,-5
14955,-2008,408,416,-4,58,-5
14960,-2000,376,392,-4,59,-4
14965,-1968,392,400,-2,61,-4
14970,-1984,384,384,-2,61,-4
14975,-2000,384,384,-2,62,-5
14980,-1976,408,384,-1,62,-5
14985,-1984,384,376,-1,61,-5
14990,-2008,392,400,-1,58,-8
14995,-2024,392,408,-2,57,-9
