timestamp,accel_x,accel_y,accel_z,gyro_x,gyro_y,gyro_z
0,248,-1736,-632,69,197,-48
5,216,-1704,-632,75,183,-47
10,192,-1728,-616,89,165,-45
15,168,-1720,-584,109,143,-42
20,144,-1688,-568,131,116,-41
25,144,-1760,-488,156,86,-37
30,96,-1720,-496,186,57,-31
35,80,-1688,-464,221,28,-27
40,56,-1728,-432,261,-1,-23
45,32,-1728,-416,305,-26,-18
50,8,-1768,-360,350,-49,-11
55,0,-1704,-376,395,-78,-8
60,0,-1720,-360,433,-112,-4
65,-8,-1704,-312,463,-151,-2
70,-48,-1704,-296,487,-196,4
75,-88,-1720,-264,509,-237,9
80,-96,-1744,-320,525,-274,12
85,-80,-1776,-272,539,-302,18
90,-88,-1816,-296,552,-318,24
95,-88,-1800,-296,560,-325,33
100,-56,-1816,-328,572,-325,43
105,8,-1840,-392,581,-318,50
110,48,-1832,-408,589,-298,60
115,136,-1856,-432,596,-263,67
120,248,-1872,-456,600,-211,73
125,320,-1856,-496,605,-148,74
130,344,-1872,-488,606,-81,76
135,448,-1856,-496,602,-23,74
140,488,-1904,-512,593,14,68
145,528,-1896,-520,577,26,55
150,552,-1960,-536,558,15,38
155,552,-2000,-608,527,-9,17
160,560,-2032,-664,482,-36,-10
165,528,-2104,-784,418,-59,-40
170,520,-2160,-880,326,-67,-70
175,568,-2288,-960,228,-63,-97
180,600,-2408,-1032,137,-39,-133
185,552,-2496,-1040,71,14,-173
190,544,-2552,-1272,31,95,-222
195,472,-2576,-1368,16,173,-278
200,384,-2552,-1376,26,230,-331
205,296,-2568,-1360,63,263,-376
210,256,-2576,-1192,118,281,-403
215,240,-2624,-936,220,301,-416
220,240,-2584,-760,363,306,-417
225,184,-2536,-656,509,288,-408
230,120,-2408,-696,627,235,-392
235,64,-2304,-696,704,147,-361
240,8,-2128,-816,747,45,-319
245,0,-1992,-912,762,-63,-278
250,-64,-1816,-1008,753,-173,-245
255,-120,-1696,-1104,718,-290,-215
260,-184,-1592,-1176,658,-419,-186
265,-160,-1504,-1288,575,-548,-159
270,-192,-1496,-1320,468,-665,-136
275,-216,-1448,-1400,352,-758,-123
280,-200,-1392,-1400,236,-821,-117
285,-216,-1408,-1440,124,-854,-112
290,-240,-1400,-1472,24,-868,-119
295,-216,-1432,-1400,-70,-866,-141
300,-224,-1448,-1376,-154,-852,-171
305,-176,-1496,-1320,-222,-833,-206
310,-128,-1488,-1264,-273,-807,-240
315,-72,-1512,-1168,-303,-776,-267
320,0,-1536,-1120,-313,-741,-285
325,72,-1544,-1048,-306,-700,-285
330,152,-1560,-1064,-281,-656,-278
335,240,-1584,-1032,-250,-609,-264
340,288,-1592,-1064,-208,-567,-240
345,336,-1624,-1016,-157,-534,-209
350,344,-1656,-1032,-101,-516,-178
355,344,-1696,-1024,-45,-511,-143
360,344,-1768,-1000,8,-509,-111
365,336,-1792,-1000,62,-506,-77
370,328,-1848,-1000,112,-507,-44
375,320,-1856,-1024,151,-512,-14
380,296,-1864,-1040,175,-518,14
385,280,-1832,-1064,185,-525,40
390,256,-1880,-1040,190,-528,61
395,224,-1848,-1080,186,-526,85
400,272,-1816,-1064,170,-513,112
405,192,-1784,-1104,148,-492,139
410,176,-1768,-1088,123,-464,161
415,104,-1728,-1064,101,-432,178
420,128,-1728,-1048,83,-395,190
425,128,-1704,-1008,62,-363,196
430,120,-1688,-968,36,-332,198
435,80,-1648,-928,3,-303,195
440,112,-1640,-864,-28,-278,191
445,112,-1608,-800,-55,-258,180
450,104,-1560,-776,-83,-236,171
455,72,-1608,-824,-112,-216,166
460,80,-1568,-784,-139,-198,160
465,96,-1560,-776,-165,-182,149
470,80,-1576,-792,-182,-169,140
475,72,-1560,-728,-191,-159,132
480,16,-1584,-736,-189,-154,126
485,-8,-1544,-744,-179,-153,118
490,-32,-1552,-760,-168,-152,112
495,-32,-1552,-776,-156,-153,106
500,-72,-1552,-768,-150,-154,102
505,-88,-1544,-768,-148,-156,93
510,-96,-1568,-768,-162,-161,85
515,-112,-1560,-736,-175,-170,76
520,-120,-1560,-704,-185,-180,69
525,-120,-1576,-704,-203,-192,65
530,-120,-1640,-712,-226,-202,57
535,-144,-1624,-712,-251,-211,53
540,-112,-1664,-720,-276,-216,46
545,-128,-1688,-728,-304,-218,42
550,-88,-1736,-752,-324,-216,37
555,-96,-1736,-736,-342,-213,34
560,-104,-1760,-736,-357,-209,27
565,-96,-1776,-648,-364,-206,22
570,-64,-1800,-712,-365,-200,16
575,-48,-1808,-688,-357,-194,10
580,0,-1824,-648,-342,-185,4
585,0,-1808,-632,-318,-177,-3
590,8,-1808,-608,-293,-167,-9
595,40,-1808,-616,-269,-152,-16
600,64,-1784,-600,-247,-141,-23
605,96,-1760,-592,-229,-125,-31
610,72,-1728,-584,-215,-110,-37
615,128,-1728,-600,-202,-93,-45
620,72,-1688,-616,-203,-77,-53
625,136,-1672,-608,-207,-60,-61
630,144,-1712,-568,-212,-43,-72
635,152,-1712,-536,-214,-26,-81
640,168,-1688,-536,-211,-12,-90
645,160,-1744,-528,-207,4,-98
650,192,-1736,-528,-193,18,-107
655,200,-1768,-512,-171,32,-117
660,208,-1776,-488,-143,47,-121
665,224,-1784,-464,-108,66,-122
670,264,-1824,-440,-69,87,-120
675,272,-1912,-376,-30,110,-114
680,272,-1904,-440,8,133,-107
685,264,-1912,-392,47,153,-100
690,280,-1944,-376,86,169,-88
695,272,-1976,-360,123,181,-80
700,272,-2000,-304,162,189,-72
705,216,-2024,-312,204,195,-65
710,200,-2024,-312,251,187,-55
715,144,-2008,-336,301,165,-50
720,80,-2008,-352,347,133,-43
725,24,-1984,-392,397,102,-30
730,-24,-1960,-384,443,79,-16
735,-48,-1960,-368,476,73,-2
740,-64,-1912,-424,498,86,11
745,-80,-1944,-392,510,121,19
750,-96,-1920,-360,511,172,24
755,-64,-1928,-376,511,227,21
760,0,-1976,-432,505,284,11
765,24,-1976,-536,482,331,-3
770,-8,-1960,-664,430,367,-18
775,-16,-2024,-832,351,377,-25
780,-96,-2096,-1056,249,358,-19
785,-96,-2200,-1096,141,308,-2
790,-128,-2304,-1216,53,224,28
795,-168,-2408,-1312,-3,109,67
800,-160,-2464,-1392,-23,-31,120
805,-136,-2488,-1440,-38,-181,194
810,-168,-2472,-1408,-53,-305,280
815,-216,-2472,-1320,-78,-383,371
820,-208,-2536,-1232,-116,-422,456
825,-144,-2560,-1136,-164,-431,515
830,-176,-2536,-1168,-200,-414,542
835,-176,-2544,-1184,-209,-372,545
840,-200,-2504,-1264,-188,-309,528
845,-184,-2368,-1432,-142,-229,496
850,-168,-2152,-1544,-79,-133,446
855,-120,-1960,-1656,-12,-28,386
860,-56,-1824,-1736,50,85,324
865,0,-1624,-1784,98,197,270
870,56,-1472,-1728,126,303,226
875,184,-1392,-1584,141,389,185
880,216,-1328,-1472,141,453,146
885,256,-1336,-1400,129,497,116
890,296,-1344,-1312,103,517,93
895,224,-1328,-1240,62,506,84
900,200,-1320,-1208,1,459,83
905,168,-1288,-1224,-74,384,93
910,152,-1336,-1208,-153,297,99
915,160,-1384,-1184,-223,218,102
920,128,-1472,-1112,-273,157,96
925,56,-1568,-1048,-300,121,81
930,8,-1680,-1032,-301,95,67
935,0,-1736,-1008,-281,76,48
940,-16,-1784,-1048,-245,60,29
945,8,-1840,-1080,-195,53,0
950,0,-1904,-1040,-137,55,-35
955,8,-1888,-1056,-76,66,-75
960,0,-1912,-1056,-20,78,-122
965,16,-1912,-1096,24,94,-173
970,40,-1896,-1104,56,111,-222
975,80,-1880,-1136,67,130,-268
980,96,-1848,-1176,60,150,-308
985,152,-1808,-1128,43,173,-340
990,160,-1808,-1136,18,196,-362
995,184,-1760,-1128,-4,218,-375
1000,168,-1728,-1080,-25,234,-377
1005,168,-1712,-1056,-46,236,-375
1010,152,-1640,-1008,-68,228,-372
1015,176,-1648,-960,-91,209,-370
1020,168,-1600,-904,-121,187,-365
1025,136,-1568,-840,-149,163,-359
1030,152,-1512,-800,-171,138,-355
1035,120,-1488,-736,-190,114,-352
1040,120,-1472,-672,-194,90,-348
1045,112,-1416,-680,-183,66,-341
1050,104,-1392,-640,-163,41,-338
1055,88,-1352,-616,-135,17,-335
1060,120,-1312,-632,-109,-6,-331
1065,104,-1240,-600,-81,-28,-322
1070,104,-1208,-640,-54,-47,-313
1075,64,-1160,-600,-31,-64,-300
1080,144,-1176,-640,-14,-76,-284
1085,120,-1144,-616,-6,-82,-268
1090,152,-1168,-608,-7,-85,-251
1095,192,-1144,-632,-16,-86,-233
1100,192,-1176,-592,-28,-89,-221
1105,240,-1256,-584,-43,-91,-207
1110,256,-1256,-616,-60,-91,-199
1115,288,-1328,-616,-82,-90,-190
1120,240,-1352,-624,-110,-90,-180
1125,248,-1424,-632,-136,-88,-172
1130,216,-1480,-624,-159,-86,-164
1135,192,-1536,-640,-179,-86,-160
1140,184,-1600,-608,-191,-91,-153
1145,168,-1664,-624,-200,-102,-145
1150,160,-1680,-616,-207,-115,-135
1155,144,-1752,-560,-208,-131,-122
1160,208,-1776,-584,-192,-147,-111
1165,128,-1848,-544,-165,-164,-98
1170,120,-1912,-512,-125,-183,-92
1175,144,-1968,-456,-70,-200,-92
1180,120,-2040,-400,-2,-217,-100
1185,168,-2064,-368,78,-236,-113
1190,160,-2088,-368,161,-246,-129
1195,128,-2144,-344,237,-239,-149
1200,128,-2160,-328,318,-227,-171
1205,152,-2160,-384,408,-212,-187
1210,160,-2080,-344,501,-199,-190
1215,176,-2072,-424,592,-184,-179
1220,232,-2040,-424,673,-153,-163
1225,304,-2016,-448,738,-106,-142
1230,304,-2008,-456,778,-48,-123
1235,320,-2000,-456,787,10,-105
1240,312,-1976,-424,765,59,-91
1245,304,-1952,-408,718,94,-76
1250,368,-1944,-384,661,118,-59
1255,440,-1952,-392,602,149,-39
1260,528,-1952,-344,547,191,-20
1265,608,-1944,-368,497,243,-4
1270,576,-1944,-400,453,290,4
1275,648,-1888,-336,420,314,2
1280,592,-1936,-264,394,302,-12
1285,536,-1960,-200,371,260,-36
1290,424,-2016,-152,347,193,-59
1295,344,-2080,-200,314,122,-76
1300,264,-2128,-304,267,63,-90
1305,224,-2192,-552,192,18,-108
1310,200,-2208,-824,73,-18,-128
1315,152,-2256,-1240,-97,-35,-159
1320,160,-2360,-1752,-302,-17,-195
1325,160,-2488,-2040,-499,46,-239
1330,248,-2648,-2168,-625,148,-295
1335,320,-2712,-2192,-638,263,-339
1340,376,-2752,-2048,-544,364,-382
1345,432,-2760,-1832,-383,426,-413
1350,480,-2736,-1608,-191,463,-416
1355,512,-2664,-1512,-18,493,-384
1360,504,-2608,-1432,119,511,-345
1365,520,-2464,-1472,236,499,-304
1370,448,-2304,-1472,348,445,-263
1375,376,-2136,-1536,450,350,-227
1380,304,-2008,-1592,515,227,-196
1385,264,-1952,-1608,531,87,-184
1390,64,-1904,-1520,500,-68,-181
1395,-104,-1896,-1432,439,-215,-180
1400,-280,-1912,-1496,365,-324,-175
1405,-416,-1896,-1536,296,-404,-177
1410,-456,-1856,-1600,248,-468,-192
1415,-408,-1832,-1704,223,-502,-207
1420,-376,-1760,-1672,216,-495,-218
1425,-352,-1704,-1608,227,-458,-223
1430,-280,-1656,-1512,246,-409,-221
1435,-240,-1616,-1416,266,-359,-214
1440,-136,-1592,-1296,280,-318,-210
1445,-40,-1584,-1184,285,-289,-217
1450,8,-1592,-1096,277,-269,-233
1455,104,-1640,-952,262,-255,-248
1460,224,-1664,-936,255,-247,-252
1465,296,-1664,-944,261,-243,-241
1470,400,-1696,-928,279,-245,-220
1475,432,-1704,-1008,304,-249,-186
1480,496,-1672,-1016,329,-264,-137
1485,464,-1568,-1024,333,-287,-75
1490,456,-1624,-1064,311,-321,-6
1495,440,-1624,-1056,263,-357,66
1500,392,-1616,-1064,194,-391,141
1505,360,-1640,-1032,116,-414,212
1510,336,-1672,-1008,43,-420,279
1515,312,-1680,-960,-21,-408,337
1520,256,-1672,-936,-79,-385,384
1525,200,-1632,-928,-128,-358,420
1530,136,-1608,-880,-171,-330,443
1535,160,-1616,-840,-202,-305,454
1540,128,-1568,-808,-216,-285,457
1545,112,-1520,-792,-220,-262,452
1550,120,-1448,-752,-216,-236,444
1555,88,-1368,-736,-202,-207,430
1560,88,-1304,-696,-172,-176,413
1565,120,-1224,-672,-131,-142,390
1570,80,-1152,-624,-74,-111,362
1575,80,-1080,-584,-8,-84,331
1580,48,-1040,-616,62,-59,299
1585,32,-1000,-576,109,-35,264
1590,-8,-952,-584,135,-10,230
1595,-32,-936,-640,145,13,200
1600,-48,-944,-624,145,34,174
1605,-72,-960,-592,131,55,149
1610,-80,-1016,-592,113,69,125
1615,-136,-1048,-616,86,76,103
1620,-168,-1104,-576,57,79,83
1625,-200,-1152,-624,32,75,62
1630,-240,-1224,-624,12,63,43
1635,-216,-1264,-632,-6,48,26
1640,-216,-1328,-632,-21,28,11
1645,-304,-1400,-624,-36,7,-6
1650,-208,-1456,-608,-55,-15,-23
1655,-176,-1496,-592,-76,-36,-40
1660,-200,-1536,-584,-97,-55,-54
1665,-168,-1600,-552,-109,-75,-64
1670,-144,-1632,-512,-110,-93,-75
1675,-136,-1712,-488,-97,-113,-83
1680,-128,-1760,-464,-68,-133,-90
1685,-88,-1768,-448,-20,-150,-96
1690,-88,-1792,-416,38,-160,-95
1695,-64,-1776,-400,113,-165,-96
1700,-8,-1832,-432,199,-165,-94
1705,-40,-1808,-392,279,-161,-89
1710,-32,-1776,-392,349,-157,-80
1715,-16,-1760,-456,406,-152,-68
1720,-16,-1744,-440,441,-143,-59
1725,0,-1752,-424,466,-133,-53
1730,16,-1760,-400,491,-125,-49
1735,56,-1776,-400,515,-110,-47
1740,64,-1776,-384,532,-95,-41
1745,120,-1864,-296,546,-77,-36
1750,160,-1904,-312,550,-61,-35
1755,208,-1976,-304,538,-52,-38
1760,216,-1992,-312,515,-52,-43
1765,272,-2040,-344,477,-66,-49
1770,304,-2064,-344,428,-90,-54
1775,296,-2088,-344,368,-121,-58
1780,296,-2088,-328,297,-153,-57
1785,288,-2112,-336,225,-174,-49
1790,248,-2144,-296,165,-180,-33
1795,192,-2168,-256,118,-168,-7
1800,152,-2176,-176,83,-140,22
1805,192,-2232,-184,67,-100,57
1810,168,-2248,-200,68,-45,93
1815,168,-2320,-104,87,25,121
1820,208,-2304,-224,117,94,139
1825,224,-2344,-416,137,162,150
1830,232,-2344,-688,129,215,143
1835,232,-2312,-992,86,248,140
1840,216,-2280,-1488,-8,250,163
1845,200,-2216,-1912,-146,213,195
1850,104,-2248,-2104,-291,121,251
1855,-32,-2336,-2152,-404,4,308
1860,-136,-2480,-2088,-467,-115,382
1865,-384,-2616,-2024,-497,-209,465
1870,-584,-2728,-1864,-517,-289,530
1875,-672,-2800,-1792,-532,-376,585
1880,-640,-2752,-1776,-560,-456,614
1885,-616,-2704,-1832,-571,-480,621
1890,-656,-2584,-1856,-559,-431,614
1895,-608,-2480,-1888,-513,-327,603
1900,-488,-2376,-1888,-429,-200,589
1905,-200,-2296,-1872,-316,-61,562
1910,88,-2184,-1896,-186,103,523
1915,200,-2088,-1888,-49,290,472
1920,272,-1976,-1832,97,458,412
1925,248,-1848,-1752,240,559,352
1930,256,-1736,-1704,353,583,297
1935,360,-1592,-1608,418,544,247
1940,440,-1504,-1560,433,477,202
1945,448,-1440,-1432,403,407,160
1950,392,-1440,-1304,343,347,123
1955,376,-1488,-1176,274,294,89
1960,296,-1488,-1040,209,240,60
1965,216,-1544,-976,150,184,38
1970,128,-1616,-912,97,126,25
1975,8,-1584,-928,64,69,18
1980,-56,-1608,-960,58,25,10
1985,-136,-1648,-944,74,-2,-6
1990,-216,-1656,-1008,102,-15,-32
1995,-296,-1688,-992,121,-14,-70
2000,-352,-1688,-1040,135,-9,-122
2005,-344,-1672,-1032,142,-1,-183
2010,-328,-1664,-1048,144,4,-261
2015,-280,-1664,-1048,144,9,-347
2020,-256,-1616,-1056,121,17,-432
2025,-208,-1576,-1016,71,26,-506
2030,-112,-1568,-1016,6,34,-566
2035,-72,-1544,-936,-65,43,-610
2040,-16,-1496,-904,-138,55,-636
2045,8,-1480,-840,-214,68,-648
2050,56,-1440,-768,-274,78,-646
2055,64,-1416,-728,-317,76,-639
2060,72,-1416,-680,-352,63,-626
2065,80,-1352,-656,-375,35,-615
2070,48,-1296,-608,-387,-13,-599
2075,48,-1248,-648,-389,-74,-577
2080,56,-1208,-600,-372,-144,-550
2085,48,-1136,-584,-338,-218,-521
2090,56,-1048,-600,-293,-292,-489
2095,88,-1016,-544,-249,-359,-462
2100,96,-960,-576,-203,-415,-436
2105,128,-944,-568,-158,-458,-415
2110,176,-920,-576,-116,-484,-396
2115,152,-888,-536,-87,-493,-385
2120,216,-928,-600,-72,-492,-374
2125,248,-976,-544,-70,-481,-363
2130,296,-1016,-616,-77,-459,-353
2135,264,-1024,-664,-92,-433,-344
2140,352,-1128,-640,-117,-406,-337
2145,360,-1224,-632,-143,-380,-334
2150,400,-1320,-664,-171,-363,-321
2155,400,-1384,-680,-200,-350,-303
2160,384,-1504,-688,-226,-344,-290
2165,360,-1600,-696,-243,-346,-280
2170,376,-1680,-656,-247,-354,-272
2175,352,-1760,-688,-235,-366,-264
2180,336,-1800,-632,-208,-374,-257
2185,344,-1864,-592,-166,-387,-245
2190,360,-1960,-488,-103,-400,-229
2195,264,-2008,-424,-19,-416,-217
2200,232,-2048,-336,88,-434,-208
2205,200,-2080,-288,211,-458,-198
2210,120,-2072,-216,344,-490,-192
2215,72,-2136,-176,476,-530,-179
2220,16,-2136,-80,603,-572,-162
2225,8,-2176,-120,727,-609,-144
2230,-40,-2200,-152,841,-619,-118
2235,-120,-2136,-192,931,-597,-98
2240,-104,-2120,-248,999,-555,-74
2245,-32,-1984,-392,1033,-491,-49
2250,64,-1960,-416,1024,-401,-23
2255,112,-1944,-456,985,-291,-14
2260,176,-1928,-448,927,-178,-20
2265,176,-1896,-464,864,-85,-39
2270,248,-1832,-488,801,-14,-53
2275,344,-1760,-568,736,48,-48
2280,392,-1688,-560,665,113,-30
2285,544,-1632,-536,580,176,-18
2290,632,-1608,-448,485,217,-15
2295,560,-1672,-328,392,219,-25
2300,560,-1744,-72,319,180,-38
2305,512,-1848,72,282,106,-51
2310,400,-1936,232,277,12,-60
2315,344,-2024,160,288,-82,-67
2320,256,-2112,-88,275,-160,-71
2325,168,-2160,-376,205,-212,-77
2330,128,-2168,-712,74,-234,-95
2335,16,-2176,-1272,-116,-228,-116
2340,-88,-2152,-1848,-370,-188,-144
2345,-96,-2240,-2272,-666,-108,-182
2350,-104,-2472,-2448,-932,26,-259
2355,96,-2656,-2432,-1080,194,-365
2360,232,-2880,-2416,-1100,387,-471
2365,336,-3040,-2280,-1032,552,-584
2370,408,-3112,-2024,-914,653,-671
2375,520,-3168,-1752,-747,711,-718
2380,560,-3128,-1560,-532,761,-717
2385,608,-3016,-1416,-279,785,-685
2390,560,-2840,-1344,-8,758,-639
2395,448,-2648,-1280,284,660,-590
2400,416,-2400,-1368,572,495,-548
2405,272,-2272,-1448,807,295,-508
2410,64,-2104,-1408,928,83,-479
2415,-208,-2008,-1392,932,-138,-446
2420,-520,-1888,-1424,857,-363,-403
2425,-760,-1744,-1528,747,-580,-362
2430,-832,-1688,-1640,609,-760,-333
2435,-888,-1616,-1800,458,-875,-306
2440,-848,-1560,-1832,299,-918,-278
2445,-824,-1560,-1904,147,-906,-253
2450,-696,-1560,-1744,24,-869,-239
2455,-608,-1584,-1640,-40,-819,-229
2460,-472,-1584,-1464,-44,-756,-214
2465,-240,-1600,-1256,-1,-691,-207
2470,-32,-1560,-1168,73,-629,-218
2475,112,-1544,-1048,139,-573,-243
2480,232,-1544,-1032,176,-525,-274
2485,344,-1560,-952,176,-491,-301
2490,440,-1544,-912,159,-475,-311
2495,520,-1592,-880,143,-467,-303
2500,544,-1536,-952,138,-466,-274
2505,560,-1528,-968,146,-471,-224
2510,656,-1520,-936,153,-485,-157
2515,616,-1480,-1008,142,-501,-90
2520,624,-1488,-960,113,-515,-17
2525,616,-1536,-968,70,-522,50
2530,592,-1560,-960,24,-523,115
2535,520,-1592,-928,-25,-517,179
2540,520,-1648,-944,-72,-504,237
2545,448,-1624,-936,-111,-482,288
2550,368,-1616,-888,-146,-454,328
2555,312,-1600,-832,-170,-421,358
2560,224,-1544,-840,-175,-391,379
2565,128,-1448,-824,-173,-360,388
2570,112,-1424,-768,-167,-330,385
2575,72,-1320,-728,-154,-299,374
2580,8,-1280,-696,-134,-267,358
2585,0,-1192,-624,-105,-235,337
2590,-8,-1104,-568,-69,-205,313
2595,-32,-1040,-504,-26,-177,284
2600,-64,-976,-512,12,-151,250
2605,-72,-936,-504,36,-125,213
2610,-136,-848,-472,44,-102,176
2615,-160,-832,-480,42,-82,137
2620,-192,-912,-472,37,-67,101
2625,-248,-928,-504,32,-56,60
2630,-264,-984,-512,31,-50,16
2635,-320,-1040,-520,44,-52,-26
2640,-328,-1128,-512,68,-59,-68
2645,-344,-1168,-552,91,-68,-102
2650,-360,-1248,-560,107,-75,-131
2655,-360,-1344,-576,112,-84,-159
2660,-384,-1360,-552,107,-95,-180
2665,-400,-1416,-576,98,-109,-199
2670,-384,-1496,-544,86,-129,-213
2675,-408,-1544,-544,67,-157,-221
2680,-384,-1552,-488,49,-188,-224
2685,-352,-1608,-512,40,-222,-218
2690,-328,-1600,-512,37,-257,-206
2695,-240,-1624,-504,41,-295,-190
2700,-208,-1656,-512,58,-327,-171
2705,-120,-1688,-536,83,-349,-151
2710,-104,-1688,-536,111,-356,-131
2715,24,-1768,-560,142,-351,-113
2720,56,-1808,-576,168,-329,-105
2725,184,-1848,-512,200,-290,-106
2730,224,-1920,-512,242,-240,-111
2735,232,-1904,-488,285,-181,-124
2740,296,-1992,-440,324,-117,-138
2745,272,-2024,-392,345,-59,-153
2750,328,-2072,-344,353,-6,-168
2755,296,-2088,-320,354,35,-176
2760,288,-2128,-312,357,63,-181
2765,256,-2184,-360,359,69,-184
2770,216,-2144,-328,355,48,-180
2775,224,-2168,-352,344,9,-173
2780,192,-2160,-424,325,-40,-160
2785,176,-2160,-456,289,-89,-139
2790,120,-2144,-440,246,-128,-109
2795,32,-2176,-400,198,-164,-76
2800,-24,-2184,-368,153,-190,-37
2805,-72,-2208,-320,116,-204,7
2810,-112,-2232,-240,92,-197,52
2815,-120,-2256,-184,77,-162,94
2820,-104,-2288,-112,75,-101,128
2825,-56,-2312,-64,96,-19,154
2830,-16,-2336,-120,140,74,166
2835,112,-2352,-152,190,170,161
2840,200,-2336,-376,234,253,139
2845,192,-2280,-712,256,310,100
2850,232,-2240,-1136,241,333,72
2855,200,-2200,-1576,183,304,61
2860,136,-2120,-2032,93,194,79
2865,0,-2128,-2344,-7,-3,139
2870,-136,-2144,-2432,-91,-224,226
2875,-344,-2304,-2208,-155,-391,336
2880,-504,-2512,-1968,-215,-478,442
2885,-720,-2744,-1616,-280,-533,531
2890,-800,-2912,-1560,-350,-594,605
2895,-776,-2904,-1576,-421,-643,667
2900,-736,-2800,-1720,-463,-654,709
2905,-720,-2672,-1824,-459,-619,732
2910,-624,-2520,-1856,-397,-549,746
2915,-416,-2376,-1864,-281,-443,742
2920,-104,-2280,-1888,-126,-300,715
2925,184,-2144,-1920,29,-110,663
2930,256,-2024,-1936,167,98,594
2935,376,-1912,-1888,285,266,514
2940,568,-1776,-1840,380,343,429
2945,736,-1664,-1632,467,331,345
2950,816,-1536,-1520,546,276,268
2955,832,-1512,-1440,597,223,211
2960,736,-1520,-1296,591,193,171
2965,656,-1520,-1176,517,175,146
2970,520,-1504,-1080,391,157,130
2975,400,-1536,-984,247,131,120
2980,272,-1592,-984,129,94,110
2985,144,-1640,-928,53,48,97
2990,16,-1696,-912,24,5,75
2995,-120,-1768,-912,37,-30,48
3000,-208,-1800,-952,86,-62,9
3005,-264,-1856,-920,158,-90,-37
3010,-344,-1880,-1008,235,-111,-97
3015,-376,-1856,-1008,297,-127,-170
3020,-424,-1824,-1032,338,-131,-253
3025,-448,-1752,-1048,359,-129,-349
3030,-448,-1680,-1056,354,-126,-450
3035,-384,-1584,-1040,320,-122,-545
3040,-336,-1552,-1016,256,-118,-627
3045,-232,-1496,-944,168,-105,-687
3050,-144,-1424,-904,70,-88,-732
3055,-128,-1432,-856,-28,-69,-756
3060,-88,-1448,-776,-124,-55,-770
3065,-48,-1488,-712,-205,-50,-775
3070,-48,-1456,-664,-266,-56,-772
3075,0,-1464,-616,-310,-78,-763
3080,16,-1448,-608,-344,-111,-750
3085,32,-1440,-600,-370,-154,-726
3090,8,-1360,-568,-388,-210,-694
3095,16,-1288,-568,-390,-275,-654
3100,56,-1264,-544,-375,-346,-611
3105,64,-1168,-592,-339,-417,-566
3110,72,-1080,-544,-287,-481,-519
3115,120,-1032,-568,-227,-535,-477
3120,160,-1016,-592,-166,-574,-438
3125,200,-928,-592,-113,-598,-404
3130,208,-896,-552,-65,-608,-376
3135,248,-896,-544,-23,-606,-354
3140,288,-880,-568,7,-594,-341
3145,328,-904,-584,25,-574,-333
3150,376,-920,-576,25,-550,-324
3155,376,-944,-584,6,-524,-317
3160,432,-1016,-552,-32,-496,-313
3165,424,-1088,-656,-81,-472,-301
3170,416,-1192,-656,-141,-450,-283
3175,464,-1288,-672,-199,-427,-267
3180,432,-1400,-680,-250,-408,-251
3185,456,-1520,-696,-288,-391,-239
3190,432,-1632,-632,-315,-376,-228
3195,416,-1736,-640,-313,-364,-217
3200,408,-1800,-584,-288,-358,-205
3205,400,-1912,-608,-240,-358,-197
3210,376,-2024,-512,-174,-364,-187
3215,280,-2048,-456,-94,-369,-174
3220,288,-2144,-344,2,-379,-162
3225,224,-2184,-296,107,-397,-148
3230,176,-2256,-232,218,-422,-136
3235,120,-2304,-184,331,-451,-121
3240,88,-2320,-208,442,-476,-102
3245,24,-2328,-256,546,-483,-85
3250,8,-2312,-280,643,-481,-68
3255,-24,-2232,-352,729,-475,-48
3260,-24,-2152,-352,798,-459,-23
3265,32,-2104,-376,849,-425,5
3270,88,-2072,-368,885,-365,27
3275,112,-2024,-408,903,-284,29
3280,144,-1992,-384,902,-200,30
3285,168,-1952,-360,880,-122,20
3290,224,-1936,-352,840,-56,4
3295,240,-1848,-408,782,11,-4
3300,320,-1784,-440,715,89,-5
3305,384,-1672,-488,643,181,-3
3310,512,-1616,-528,570,270,-7
3315,624,-1544,-472,501,339,-22
3320,608,-1536,-392,440,366,-54
3325,600,-1584,-320,394,344,-95
3330,472,-1672,-104,375,268,-134
3335,312,-1760,32,382,158,-162
3340,192,-1888,72,389,43,-178
3345,104,-1976,-8,370,-52,-187
3350,40,-2048,-104,305,-122,-194
3355,-32,-2152,-352,181,-179,-213
3360,-136,-2240,-760,-4,-225,-247
3365,-248,-2304,-1288,-250,-252,-292
3370,-248,-2416,-1896,-542,-245,-337
3375,-248,-2528,-2208,-828,-185,-375
3380,-128,-2760,-2424,-1037,-59,-432
3385,-32,-2944,-2448,-1104,98,-532
3390,56,-3056,-2344,-1033,219,-625
3395,240,-3152,-2048,-878,310,-700
3400,368,-3224,-1792,-676,392,-748
3405,464,-3248,-1504,-446,477,-753
3410,512,-3208,-1360,-206,536,-741
3415,488,-3032,-1312,37,550,-711
3420,448,-2808,-1360,277,509,-676
3425,352,-2624,-1408,500,409,-633
3430,288,-2456,-1480,688,256,-579
3435,184,-2200,-1528,814,61,-525
3440,8,-2048,-1520,858,-165,-481
3445,-192,-1880,-1576,832,-398,-439
3450,-376,-1760,-1616,741,-601,-396
3455,-528,-1624,-1624,615,-757,-354
3460,-608,-1552,-1624,502,-874,-317
3465,-584,-1488,-1680,397,-947,-279
3470,-544,-1480,-1672,295,-980,-248
3475,-496,-1488,-1616,187,-973,-214
3480,-352,-1496,-1544,83,-940,-183
3485,-208,-1520,-1416,1,-892,-165
3490,-80,-1488,-1264,-46,-836,-154
3495,40,-1496,-1128,-60,-768,-156
3500,112,-1496,-1056,-49,-686,-164
3505,176,-1488,-952,-25,-589,-167
3510,256,-1480,-872,-4,-487,-159
3515,368,-1504,-832,9,-389,-149
3520,456,-1560,-816,19,-306,-130
3525,512,-1528,-832,32,-241,-107
3530,552,-1536,-864,51,-195,-76
3535,592,-1544,-872,70,-170,-35
3540,608,-1528,-984,67,-168,9
3545,592,-1544,-1032,36,-187,53
3550,568,-1552,-1016,-13,-217,95
3555,552,-1584,-1032,-68,-252,137
3560,488,-1608,-1008,-127,-283,177
3565,456,-1624,-984,-177,-305,218
3570,384,-1728,-928,-223,-315,260
3575,336,-1648,-848,-261,-314,296
3580,264,-1624,-880,-287,-303,329
3585,240,-1608,-848,-306,-287,353
3590,152,-1552,-808,-315,-264,366
3595,152,-1520,-720,-309,-241,373
3600,96,-1456,-704,-296,-219,371
3605,88,-1376,-720,-280,-197,364
3610,56,-1320,-688,-264,-179,351
3615,16,-1200,-672,-248,-160,334
3620,-16,-1120,-640,-233,-144,316
3625,-32,-1072,-632,-222,-124,293
3630,-56,-992,-624,-215,-101,267
3635,-96,-976,-576,-205,-75,235
3640,-104,-960,-576,-194,-47,198
3645,-128,-936,-600,-181,-23,156
3650,-152,-1024,-560,-166,1,113
3655,-120,-1056,-576,-145,18,71
3660,-168,-1088,-568,-119,29,32
3665,-216,-1152,-584,-90,35,-1
3670,-248,-1184,-560,-67,30,-37
3675,-272,-1232,-592,-50,18,-67
3680,-296,-1240,-608,-42,-1,-89
3685,-280,-1344,-584,-42,-27,-104
3690,-296,-1400,-632,-51,-56,-127
3695,-256,-1408,-608,-70,-85,-146
3700,-264,-1496,-624,-89,-118,-162
3705,-224,-1552,-568,-99,-150,-175
3710,-216,-1624,-552,-110,-184,-181
3715,-200,-1648,-544,-115,-217,-186
3720,-192,-1696,-520,-100,-250,-190
3725,-168,-1712,-496,-73,-279,-186
3730,-136,-1720,-512,-40,-304,-186
3735,-80,-1728,-520,-5,-326,-182
3740,-64,-1744,-488,29,-342,-180
3745,-56,-1720,-504,65,-355,-180
3750,-48,-1712,-480,105,-364,-182
3755,-64,-1752,-480,143,-367,-185
3760,8,-1720,-528,181,-369,-191
3765,40,-1728,-544,210,-365,-195
3770,40,-1720,-576,221,-353,-201
3775,64,-1720,-568,219,-331,-209
3780,96,-1760,-552,206,-301,-219
3785,128,-1792,-584,184,-263,-225
3790,136,-1848,-560,159,-219,-229
3795,192,-1928,-544,149,-175,-230
3800,232,-1984,-544,145,-131,-231
3805,296,-2056,-528,150,-93,-235
3810,360,-2056,-472,160,-68,-238
3815,328,-2144,-504,170,-55,-234
3820,312,-2168,-496,175,-57,-224
3825,328,-2208,-520,174,-69,-213
3830,320,-2240,-504,164,-94,-200
3835,336,-2256,-464,146,-125,-182
3840,272,-2256,-480,125,-159,-160
3845,256,-2280,-448,103,-191,-135
3850,192,-2264,-432,84,-214,-103
3855,128,-2272,-432,78,-231,-66
3860,128,-2256,-360,97,-230,-24
3865,72,-2272,-296,138,-208,18
3870,120,-2264,-240,193,-163,57
3875,112,-2296,-152,251,-92,93
3880,136,-2280,-168,315,-3,110
3885,232,-2304,-144,380,96,122
3890,248,-2296,-288,426,191,121
3895,248,-2264,-488,445,263,107
3900,288,-2216,-704,420,296,86
3905,312,-2104,-1208,335,279,69
3910,256,-2040,-1704,184,195,76
3915,224,-1984,-2080,-21,48,112
3920,56,-2024,-2272,-240,-130,184
3925,-64,-2128,-2240,-432,-282,272
3930,-248,-2368,-2056,-569,-367,363
3935,-472,-2624,-1784,-639,-398,444
3940,-624,-2856,-1544,-651,-417,509
3945,-720,-2920,-1480,-622,-460,560
3950,-768,-2936,-1448,-575,-522,598
3955,-832,-2768,-1576,-503,-575,628
3960,-728,-2568,-1688,-414,-590,664
3965,-600,-2320,-1712,-315,-540,697
3970,-376,-2112,-1736,-192,-418,712
3975,-168,-1984,-1664,-58,-232,701
3980,72,-1824,-1688,75,-2,670
3985,224,-1704,-1648,206,240,618
3990,304,-1528,-1648,325,442,546
3995,376,-1392,-1576,429,568,466
4000,496,-1304,-1512,508,602,391
4005,616,-1200,-1440,544,568,327
4010,688,-1200,-1376,533,507,267
4015,616,-1208,-1232,476,447,211
4020,560,-1288,-1104,388,384,160
4025,456,-1336,-1056,281,316,123
4030,312,-1408,-1000,165,244,105
4035,160,-1496,-928,56,175,98
4040,8,-1584,-920,-17,107,99
4045,-48,-1688,-904,-42,48,97
4050,-112,-1744,-904,-19,2,90
4055,-200,-1800,-936,38,-27,80
4060,-264,-1944,-936,107,-39,56
4065,-352,-2016,-1000,180,-42,21
4070,-376,-2024,-1112,244,-38,-32
4075,-416,-2056,-1104,291,-28,-105
4080,-392,-2040,-1128,325,-14,-193
4085,-368,-2008,-1120,343,3,-305
4090,-280,-1952,-1192,337,16,-420
4095,-200,-1912,-1144,292,30,-519
4100,-176,-1840,-1088,213,50,-604
4105,-88,-1808,-1024,127,70,-663
4110,-64,-1768,-992,53,82,-700
4115,0,-1704,-888,-6,84,-719
4120,-32,-1672,-808,-56,72,-729
4125,-16,-1632,-760,-100,47,-730
4130,8,-1568,-704,-134,10,-726
4135,-24,-1528,-624,-155,-32,-713
4140,-8,-1464,-624,-168,-80,-690
4145,-24,-1368,-592,-176,-136,-662
4150,0,-1280,-616,-177,-199,-626
4155,8,-1208,-584,-167,-264,-586
4160,16,-1120,-568,-144,-325,-545
4165,24,-1048,-576,-119,-381,-505
4170,56,-968,-552,-88,-429,-464
4175,80,-968,-552,-54,-465,-422
4180,128,-936,-544,-21,-486,-385
4185,136,-888,-624,15,-492,-355
4190,200,-864,-584,50,-490,-337
4195,232,-840,-584,77,-488,-315
4200,248,-848,-624,85,-481,-302
4205,280,-896,-632,73,-475,-293
4210,296,-904,-624,42,-469,-294
4215,336,-1016,-640,2,-475,-283
4220,328,-1128,-656,-47,-478,-271
4225,336,-1176,-680,-108,-482,-262
4230,328,-1304,-704,-168,-482,-249
4235,312,-1440,-720,-222,-485,-239
4240,296,-1544,-648,-263,-483,-236
4245,312,-1632,-672,-282,-482,-231
4250,320,-1728,-648,-278,-477,-221
4255,304,-1840,-632,-258,-467,-215
4260,304,-1936,-624,-216,-456,-206
4265,288,-2032,-536,-156,-449,-202
4270,264,-2104,-480,-75,-446,-193
4275,256,-2184,-376,32,-454,-184
4280,216,-2248,-344,162,-470,-173
4285,152,-2304,-256,310,-496,-160
4290,40,-2312,-224,472,-528,-145
4295,24,-2336,-144,638,-569,-131
4300,16,-2304,-176,803,-612,-109
4305,-24,-2272,-232,944,-631,-80
4310,-112,-2192,-296,1049,-622,-53
4315,-96,-2096,-360,1116,-591,-39
4320,0,-2000,-392,1142,-550,-21
4325,80,-1968,-432,1130,-491,-1
4330,136,-1920,-432,1089,-412,3
4335,176,-1936,-376,1028,-329,-7
4340,176,-1888,-464,955,-253,-23
4345,168,-1776,-520,868,-187,-25
4350,256,-1728,-568,768,-130,-12
4355,416,-1664,-608,655,-80,7
4360,560,-1624,-584,531,-33,18
4365,648,-1608,-472,415,7,12
4370,680,-1696,-280,328,37,-4
4375,680,-1760,-120,290,44,-25
4380,648,-1848,-8,296,25,-51
4385,608,-1888,64,331,-9,-75
4390,528,-1944,80,370,-49,-98
4395,472,-2016,72,390,-84,-119
4400,384,-2064,-40,370,-122,-144
4405,296,-2120,-296,287,-161,-180
4410,176,-2168,-632,138,-207,-231
4415,64,-2272,-1128,-84,-242,-287
4420,-48,-2392,-1600,-369,-233,-339
4425,-64,-2560,-1888,-654,-153,-406
4430,0,-2728,-2088,-857,-4,-487
4435,152,-2912,-2160,-925,203,-549
4440,296,-2992,-2104,-859,426,-623
4445,312,-3032,-1936,-701,585,-688
4450,320,-3072,-1592,-492,643,-726
4455,408,-3160,-1312,-259,627,-735
4460,464,-3144,-1136,-26,591,-720
4465,504,-3032,-1176,181,559,-681
4470,472,-2864,-1256,353,526,-625
4475,360,-2664,-1360,512,463,-566
4480,152,-2416,-1448,657,345,-515
4485,16,-2264,-1488,753,173,-477
4490,-152,-2056,-1496,786,-30,-446
4495,-304,-1952,-1504,760,-243,-420
4500,-448,-1832,-1520,676,-452,-388
4505,-648,-1712,-1544,550,-644,-352
4510,-792,-1680,-1536,405,-796,-323
4515,-888,-1640,-1528,265,-898,-302
4520,-936,-1600,-1520,159,-946,-288
4525,-928,-1584,-1544,93,-955,-273
4530,-832,-1592,-1528,49,-930,-253
4535,-696,-1544,-1512,8,-884,-230
4540,-472,-1520,-1440,-27,-831,-203
4545,-352,-1456,-1376,-51,-777,-173
4550,-120,-1456,-1320,-64,-732,-147
4555,64,-1400,-1152,-64,-684,-132
4560,192,-1432,-1056,-46,-638,-132
4565,344,-1432,-936,-18,-593,-144
4570,440,-1464,-856,15,-551,-157
4575,520,-1488,-792,49,-514,-163
4580,552,-1488,-776,78,-479,-164
4585,608,-1520,-760,102,-448,-151
4590,624,-1512,-752,127,-425,-126
4595,616,-1528,-816,147,-411,-88
4600,600,-1504,-880,152,-402,-41
4605,552,-1568,-872,137,-405,7
4610,488,-1592,-880,113,-418,49
4615,408,-1624,-864,89,-435,96
4620,376,-1632,-880,64,-452,143
4625,256,-1656,-864,38,-463,188
4630,208,-1664,-880,13,-459,228
4635,128,-1664,-848,-18,-444,259
4640,56,-1640,-824,-55,-419,277
4645,48,-1656,-832,-96,-390,286
4650,8,-1616,-856,-138,-361,289
4655,-16,-1608,-784,-175,-332,289
4660,-56,-1592,-720,-196,-308,284
4665,-72,-1520,-696,-202,-289,274
4670,-112,-1464,-672,-195,-273,263
4675,-56,-1400,-624,-176,-261,249
4680,-96,-1328,-600,-151,-250,231
4685,-88,-1240,-560,-127,-240,210
4690,-128,-1192,-536,-97,-235,186
4695,-152,-1096,-504,-62,-233,165
4700,-144,-1064,-496,-35,-232,136
4705,-152,-1056,-512,-25,-231,100
4710,-184,-1032,-520,-21,-230,60
4715,-192,-1072,-520,-24,-228,22
4720,-224,-1096,-512,-32,-229,-16
4725,-264,-1080,-544,-43,-233,-55
4730,-240,-1192,-520,-56,-240,-94
4735,-264,-1232,-520,-68,-249,-132
4740,-248,-1296,-504,-77,-261,-168
4745,-288,-1336,-512,-83,-273,-199
4750,-280,-1384,-520,-86,-284,-227
4755,-288,-1432,-528,-90,-295,-250
4760,-264,-1512,-552,-97,-301,-266
4765,-280,-1560,-552,-109,-308,-280
4770,-248,-1568,-552,-117,-316,-287
4775,-240,-1608,-544,-124,-325,-293
4780,-72,-1672,-552,-129,-333,-295
4785,-160,-1696,-472,-123,-344,-294
4790,-112,-1736,-496,-107,-355,-292
4795,-72,-1776,-472,-83,-369,-285
4800,-24,-1800,-416,-50,-380,-277
4805,16,-1848,-392,-5,-386,-267
4810,80,-1848,-408,47,-384,-256
4815,120,-1888,-424,99,-375,-247
4820,168,-1872,-368,147,-358,-241
4825,224,-1920,-384,189,-331,-233
4830,272,-1968,-416,227,-299,-226
4835,288,-1960,-432,262,-263,-223
4840,352,-2008,-424,291,-220,-219
4845,352,-2040,-456,309,-173,-216
4850,352,-2048,-456,321,-124,-214
4855,400,-2096,-416,331,-74,-214
4860,376,-2152,-432,343,-31,-214
4865,336,-2128,-456,351,-5,-213
4870,288,-2112,-448,359,-4,-210
4875,232,-2128,-520,364,-34,-207
4880,120,-2064,-560,355,-90,-195
4885,72,-2048,-616,331,-160,-172
4890,16,-2040,-584,287,-220,-140
4895,8,-2040,-576,236,-255,-103
4900,0,-2048,-512,186,-262,-68
4905,-56,-2064,-408,153,-240,-35
4910,-8,-2088,-320,139,-190,-4
4915,-16,-2112,-216,134,-123,23
4920,16,-2128,-112,143,-47,47
4925,64,-2152,-128,168,28,70
4930,96,-2176,-168,193,96,93
4935,112,-2192,-280,196,154,110
4940,128,-2168,-384,186,192,124
4945,112,-2168,-568,160,205,145
4950,120,-2176,-872,110,189,180
4955,144,-2224,-1096,27,143,221
4960,168,-2288,-1488,-80,51,269
4965,168,-2320,-1808,-187,-88,335
4970,32,-2360,-1864,-273,-249,410
4975,-56,-2384,-1968,-328,-398,484
4980,-248,-2488,-1864,-359,-497,579
4985,-440,-2616,-1648,-390,-539,652
4990,-552,-2856,-1472,-415,-574,692
4995,-576,-2880,-1448,-429,-613,715
5000,-616,-2944,-1432,-427,-636,722
5005,-672,-2912,-1520,-398,-630,714
5010,-744,-2768,-1632,-326,-591,694
5015,-672,-2544,-1736,-226,-518,659
5020,-504,-2384,-1760,-116,-405,603
5025,-352,-2144,-1672,-19,-249,545
5030,-96,-1960,-1656,63,-54,488
5035,48,-1776,-1640,135,158,441
5040,96,-1552,-1696,183,362,391
5045,88,-1432,-1728,203,535,336
5050,136,-1216,-1704,193,648,287
5055,248,-1136,-1576,157,685,251
5060,440,-1096,-1464,91,654,222
5065,600,-1016,-1296,-1,582,192
5070,720,-1128,-1144,-95,499,164
5075,632,-1216,-1032,-180,412,136
5080,536,-1352,-936,-249,312,105
5085,424,-1440,-856,-297,203,81
5090,344,-1528,-888,-322,93,58
5095,240,-1568,-856,-318,-3,41
5100,152,-1664,-848,-275,-80,26
5105,8,-1720,-896,-193,-134,12
5110,-16,-1816,-912,-83,-161,-4
5115,-112,-1880,-960,38,-168,-36
5120,-192,-1928,-1008,154,-162,-86
5125,-296,-1936,-1088,257,-154,-144
5130,-328,-1984,-1136,339,-143,-213
5135,-384,-1944,-1184,397,-125,-284
5140,-352,-1912,-1208,433,-96,-357
5145,-304,-1912,-1224,437,-56,-428
5150,-232,-1888,-1160,403,-13,-492
5155,-216,-1856,-1104,340,19,-547
5160,-152,-1808,-1032,258,40,-583
5165,-96,-1736,-1000,169,49,-601
5170,-64,-1728,-920,79,46,-604
5175,-24,-1728,-848,-7,31,-598
5180,-32,-1664,-832,-85,6,-585
5185,-16,-1640,-800,-153,-26,-566
5190,-16,-1584,-784,-218,-64,-550
5195,-32,-1560,-728,-263,-103,-532
5200,-24,-1528,-680,-291,-148,-512
5205,8,-1464,-648,-297,-192,-492
5210,40,-1432,-632,-278,-237,-468
5215,88,-1384,-616,-241,-283,-441
5220,128,-1336,-592,-187,-324,-412
5225,176,-1296,-552,-126,-355,-379
5230,232,-1232,-544,-61,-380,-348
5235,272,-1192,-584,1,-392,-318
5240,320,-1128,-560,54,-399,-291
5245,368,-1088,-568,91,-395,-266
5250,416,-1072,-592,110,-384,-245
5255,416,-1096,-568,110,-370,-225
5260,440,-1072,-632,91,-352,-207
5265,464,-1136,-592,58,-337,-188
5270,384,-1136,-672,17,-325,-175
5275,448,-1176,-624,-28,-316,-157
5280,432,-1240,-640,-75,-309,-145
5285,384,-1320,-640,-121,-304,-133
5290,376,-1440,-640,-164,-303,-123
5295,352,-1520,-632,-196,-306,-117
5300,320,-1584,-592,-217,-309,-116
5305,304,-1672,-560,-219,-309,-118
5310,200,-1744,-528,-202,-307,-119
5315,232,-1808,-496,-166,-306,-123
5320,184,-1800,-440,-115,-305,-114
5325,184,-1944,-432,-47,-303,-111
5330,88,-1976,-352,33,-306,-113
5335,48,-2048,-248,128,-312,-120
5340,0,-2080,-144,238,-328,-131
5345,-32,-2136,-112,365,-350,-139
5350,-64,-2168,-16,510,-378,-142
5355,-128,-2152,-56,667,-404,-142
5360,-168,-2120,-72,819,-411,-124
5365,-208,-2040,-120,954,-401,-101
5370,-152,-1952,-88,1066,-386,-82
5375,-80,-1808,-248,1144,-358,-55
5380,24,-1784,-200,1182,-307,-21
5385,96,-1728,-224,1186,-235,3
5390,120,-1720,-256,1158,-156,14
5395,160,-1752,-280,1106,-91,17
5400,184,-1728,-320,1041,-46,24
5405,232,-1672,-456,973,-14,46
5410,344,-1584,-520,907,23,88
5415,512,-1568,-616,845,75,141
5420,632,-1520,-624,783,138,188
5425,752,-1520,-568,723,187,215
5430,840,-1576,-520,671,198,221
5435,712,-1672,-384,636,161,213
5440,672,-1792,-376,615,74,200
5445,584,-1832,-472,599,-46,180
5450,504,-1936,-760,554,-171,150
5455,392,-2024,-1136,441,-264,113
5460,376,-2144,-1640,247,-292,74
5465,392,-2392,-2160,1,-217,33
5470,440,-2520,-2576,-268,-15,-32
5475,400,-2704,-2928,-530,295,-148
5480,184,-2832,-2840,-761,638,-306
5485,-112,-3088,-2352,-915,900,-471
5490,-152,-3384,-1616,-932,1019,-609
5495,-112,-3616,-1112,-810,1030,-718
5500,0,-3800,-640,-570,1003,-786
5505,-24,-3864,-464,-292,979,-771
5510,-64,-3744,-424,-45,949,-729
5515,-104,-3584,-528,167,857,-665
5520,-256,-3376,-752,360,705,-609
5525,-432,-3008,-1016,541,488,-559
5530,-536,-2592,-1248,718,232,-485
5535,-608,-2184,-1496,874,-16,-415
5540,-640,-1816,-1608,975,-229,-372
5545,-640,-1592,-1592,1017,-418,-342
5550,-680,-1344,-1624,1012,-595,-328
5555,-656,-1208,-1584,964,-767,-321
5560,-664,-1088,-1512,876,-925,-326
5565,-664,-1032,-1416,758,-1055,-336
5570,-640,-992,-1376,625,-1150,-348
5575,-576,-936,-1400,480,-1212,-364
5580,-456,-912,-1456,309,-1242,-376
5585,-344,-864,-1416,120,-1229,-378
5590,-192,-872,-1336,-59,-1176,-366
5595,-72,-888,-1328,-207,-1096,-338
5600,96,-952,-1248,-323,-994,-306
5605,240,-1024,-1200,-414,-878,-279
5610,344,-1176,-1112,-473,-761,-254
5615,456,-1264,-1112,-493,-656,-235
5620,504,-1344,-1096,-483,-574,-210
5625,536,-1368,-1088,-438,-517,-180
5630,504,-1416,-1072,-368,-482,-149
5635,520,-1488,-1056,-282,-464,-110
5640,504,-1536,-1072,-191,-454,-70
5645,504,-1616,-960,-102,-444,-25
5650,480,-1608,-1016,-26,-434,17
5655,472,-1704,-1000,25,-424,59
5660,480,-1720,-1032,45,-416,95
5665,472,-1744,-1032,32,-406,129
5670,448,-1760,-1008,-3,-396,157
5675,416,-1776,-1064,-58,-384,185
5680,384,-1784,-1072,-123,-374,212
5685,320,-1760,-1024,-184,-362,236
5690,296,-1744,-984,-224,-347,252
5695,240,-1696,-1016,-233,-325,259
5700,216,-1704,-1008,-221,-304,254
5705,192,-1616,-976,-196,-280,240
5710,168,-1544,-984,-164,-255,223
5715,104,-1488,-928,-139,-229,202
5720,64,-1456,-872,-125,-199,182
5725,40,-1400,-784,-120,-173,160
5730,32,-1328,-752,-130,-151,137
5735,-16,-1288,-704,-149,-136,114
5740,-32,-1256,-704,-172,-128,97
5745,-64,-1216,-712,-196,-124,81
5750,-120,-1136,-752,-227,-121,70
5755,-144,-1192,-736,-259,-121,61
5760,-176,-1176,-760,-289,-125,50
5765,-184,-1232,-752,-314,-131,39
5770,-200,-1216,-752,-331,-147,23
5775,-208,-1312,-784,-335,-166,5
5780,-224,-1336,-720,-324,-184,-14
5785,-248,-1392,-744,-306,-199,-35
5790,-232,-1424,-800,-281,-213,-55
5795,-192,-1432,-784,-255,-220,-70
5800,-144,-1480,-792,-234,-223,-84
5805,-128,-1520,-776,-225,-228,-91
5810,-128,-1480,-800,-235,-232,-91
5815,-104,-1512,-808,-258,-242,-88
5820,-80,-1504,-808,-293,-255,-82
5825,-48,-1536,-752,-334,-268,-71
5830,0,-1552,-792,-372,-280,-59
5835,32,-1600,-696,-405,-287,-42
5840,72,-1664,-632,-425,-290,-21
5845,120,-1728,-600,-432,-292,1
5850,136,-1768,-584,-424,-292,23
5855,208,-1792,-608,-405,-291,46
5860,216,-1832,-672,-375,-288,66
5865,216,-1792,-696,-347,-284,80
5870,232,-1784,-744,-327,-271,96
5875,232,-1760,-784,-311,-251,101
5880,216,-1752,-776,-297,-222,104
5885,200,-1704,-768,-289,-187,107
5890,208,-1680,-776,-285,-149,106
5895,208,-1680,-752,-280,-114,101
5900,216,-1624,-688,-275,-78,97
5905,192,-1600,-712,-270,-40,96
5910,160,-1544,-672,-266,1,94
5915,144,-1488,-704,-269,45,95
5920,128,-1432,-720,-277,89,100
5925,104,-1360,-792,-299,129,109
5930,80,-1296,-896,-331,158,121
5935,88,-1200,-936,-371,177,133
5940,80,-1144,-1000,-418,186,142
5945,64,-1072,-1024,-474,180,149
5950,64,-1064,-976,-537,154,152
5955,16,-1104,-848,-597,111,153
5960,-16,-1192,-688,-638,54,156
5965,-136,-1232,-552,-651,-10,162
5970,-288,-1392,-464,-634,-71,170
5975,-368,-1504,-400,-603,-135,172
5980,-352,-1576,-504,-576,-204,166
5985,-256,-1656,-648,-579,-263,157
5990,-184,-1664,-792,-611,-307,147
5995,-176,-1688,-1008,-665,-349,145
6000,-176,-1664,-1184,-718,-400,145
6005,-232,-1608,-1280,-755,-463,146
6010,-272,-1600,-1368,-763,-520,144
6015,-304,-1584,-1312,-738,-550,138
6020,-320,-1664,-1312,-692,-549,128
6025,-288,-1768,-1216,-650,-531,113
6030,-328,-1840,-1152,-624,-512,94
6035,-320,-1920,-1120,-630,-508,80
6040,-280,-1984,-1176,-669,-522,71
6045,-200,-1984,-1240,-738,-557,63
6050,-96,-2032,-1256,-818,-601,55
6055,-16,-2048,-1280,-882,-644,38
6060,0,-2048,-1280,-922,-676,17
6065,24,-2072,-1312,-936,-699,-6
6070,0,-2120,-1296,-930,-719,-22
6075,32,-2232,-1344,-907,-742,-29
6080,56,-2320,-1368,-868,-766,-23
6085,112,-2320,-1368,-813,-787,0
6090,160,-2312,-1368,-745,-803,43
6095,272,-2320,-1376,-665,-818,96
6100,336,-2240,-1400,-588,-831,148
6105,392,-2144,-1392,-516,-838,187
6110,488,-2064,-1408,-453,-828,206
6115,496,-2000,-1424,-392,-802,213
6120,512,-1832,-1456,-339,-762,216
6125,512,-1648,-1432,-300,-710,222
6130,440,-1504,-1464,-296,-647,236
6135,440,-1288,-1512,-339,-572,262
6140,400,-1160,-1496,-428,-481,294
6145,336,-1040,-1456,-555,-373,323
6150,264,-944,-1408,-706,-258,353
6155,232,-896,-1344,-861,-145,378
6160,152,-824,-1272,-1005,-42,400
6165,144,-848,-1264,-1125,48,416
6170,40,-864,-1256,-1211,115,429
6175,16,-896,-1256,-1258,156,435
6180,-8,-952,-1280,-1267,176,436
6185,-72,-1016,-1384,-1244,180,438
6190,-80,-1072,-1344,-1202,182,445
6195,-72,-1112,-1408,-1147,194,455
6200,-152,-1136,-1456,-1089,209,465
6205,-168,-1208,-1488,-1035,222,473
6210,-208,-1224,-1544,-994,238,475
6215,-216,-1264,-1560,-972,260,477
6220,-240,-1328,-1616,-965,290,480
6225,-208,-1408,-1640,-959,323,481
6230,-264,-1472,-1656,-945,354,485
6235,-264,-1544,-1672,-923,380,490
6240,-272,-1584,-1696,-892,396,492
6245,-248,-1632,-1704,-856,407,495
6250,-256,-1640,-1704,-812,409,502
6255,-272,-1664,-1720,-762,404,507
6260,-240,-1680,-1720,-708,387,507
6265,-280,-1648,-1720,-661,366,502
6270,-280,-1664,-1720,-619,343,507
6275,-336,-1600,-1744,-581,319,517
6280,-320,-1592,-1648,-537,297,532
6285,-288,-1536,-1592,-479,279,547
6290,-312,-1480,-1560,-413,267,557
6295,-280,-1352,-1488,-357,259,563
6300,-312,-1288,-1536,-317,254,562
6305,-328,-1208,-1576,-308,254,560
6310,-328,-1128,-1600,-322,258,555
6315,-304,-1096,-1584,-346,268,547
6320,-328,-1064,-1584,-371,279,538
6325,-280,-1032,-1632,-388,295,532
6330,-280,-1000,-1656,-394,324,536
6335,-280,-1032,-1632,-397,354,536
6340,-264,-1016,-1600,-392,378,529
6345,-256,-1056,-1616,-377,398,524
6350,-272,-1088,-1640,-358,416,527
6355,-256,-1088,-1648,-342,436,530
6360,-232,-1128,-1680,-343,459,539
6365,-264,-1152,-1680,-365,485,543
6370,-256,-1160,-1664,-405,509,546
6375,-264,-1208,-1688,-450,532,548
6380,-256,-1264,-1672,-480,553,543
6385,-272,-1304,-1672,-491,571,541
6390,-256,-1336,-1664,-484,584,537
6395,-272,-1320,-1728,-470,592,532
6400,-312,-1320,-1720,-456,594,528
6405,-312,-1304,-1768,-449,596,523
6410,-288,-1320,-1752,-443,604,517
6415,-256,-1328,-1736,-434,614,514
6420,-224,-1336,-1712,-421,634,518
6425,-224,-1328,-1704,-417,658,527
6430,-192,-1328,-1736,-420,684,544
6435,-192,-1296,-1760,-433,710,564
6440,-200,-1280,-1760,-449,734,587
6445,-248,-1256,-1760,-464,749,610
6450,-256,-1208,-1768,-473,750,625
6455,-272,-1176,-1776,-478,744,634
6460,-312,-1128,-1712,-485,741,638
6465,-288,-1160,-1720,-496,745,643
6470,-320,-1184,-1656,-514,760,644
6475,-352,-1208,-1568,-532,779,647
6480,-352,-1216,-1544,-542,797,652
6485,-352,-1240,-1504,-547,814,658
6490,-336,-1216,-1504,-553,833,669
6495,-352,-1240,-1520,-564,856,683
6500,-336,-1200,-1536,-583,879,698
6505,-328,-1216,-1552,-609,910,715
6510,-280,-1184,-1584,-642,947,730
6515,-248,-1136,-1560,-669,979,749
6520,-232,-1144,-1520,-683,1004,773
6525,-200,-1128,-1448,-683,1020,797
6530,-184,-1128,-1464,-684,1028,822
6535,-200,-1136,-1456,-693,1034,849
6540,-224,-1104,-1416,-712,1031,873
6545,-248,-1112,-1408,-740,1024,899
6550,-312,-1064,-1344,-768,1013,923
6555,-328,-1064,-1360,-798,999,945
6560,-280,-1056,-1328,-832,984,960
6565,-296,-1160,-1328,-862,967,968
6570,-280,-1152,-1392,-878,952,972
6575,-264,-1112,-1448,-881,940,972
6580,-224,-1056,-1504,-879,919,972
6585,-192,-960,-1496,-875,873,970
6590,-160,-952,-1496,-869,797,945
6595,-168,-1048,-1584,-849,711,878
6600,-224,-1184,-1696,-797,640,776
6605,-336,-1312,-1848,-700,605,670
6610,-464,-1288,-2008,-565,615,586
6615,-584,-1152,-2088,-410,657,548
6620,-720,-904,-2208,-267,702,544
6625,-760,-792,-2184,-159,722,555
6630,-744,-720,-2040,-92,709,552
6635,-696,-768,-1856,-56,668,525
6640,-608,-832,-1728,-30,604,467
6645,-544,-936,-1624,1,518,377
6650,-472,-984,-1568,43,416,275
6655,-360,-912,-1552,87,313,175
6660,-304,-872,-1648,122,214,98
6665,-320,-816,-1680,146,117,39
6670,-248,-784,-1776,159,25,-2
6675,-184,-800,-1800,170,-57,-22
6680,-152,-768,-1736,191,-126,-29
6685,-80,-776,-1728,217,-175,-18
6690,-72,-728,-1712,246,-202,-1
6695,-48,-688,-1696,269,-211,19
6700,-72,-640,-1728,275,-208,36
6705,-48,-640,-1712,264,-193,49
6710,-16,-616,-1720,251,-167,61
6715,0,-624,-1728,242,-128,68
6720,-8,-632,-1776,237,-86,67
6725,-24,-632,-1752,238,-50,64
6730,-16,-632,-1736,245,-26,57
6735,0,-664,-1712,257,-13,49
6740,16,-696,-1728,269,-12,41
6745,8,-720,-1752,278,-17,30
6750,8,-736,-1776,283,-28,23
6755,8,-760,-1792,281,-40,17
6760,0,-760,-1800,274,-50,15
6765,-24,-776,-1832,265,-52,15
6770,-16,-768,-1800,258,-47,18
6775,-32,-824,-1824,254,-32,22
6780,-88,-800,-1848,253,-16,30
6785,-128,-816,-1832,260,-4,39
6790,-128,-840,-1848,270,8,49
6795,-168,-840,-1848,279,27,63
6800,-160,-808,-1824,280,57,77
6805,-152,-816,-1856,267,95,87
6810,-136,-824,-1872,243,136,97
6815,-120,-832,-1824,217,176,105
6820,-136,-848,-1776,191,214,108
6825,-88,-840,-1808,173,249,107
6830,-64,-880,-1824,163,284,106
6835,-40,-832,-1784,155,322,111
6840,-24,-856,-1728,152,360,121
6845,0,-880,-1768,146,400,138
6850,-8,-880,-1800,140,436,160
6855,8,-912,-1792,137,467,189
6860,24,-888,-1808,137,491,220
6865,40,-912,-1856,140,509,252
6870,24,-880,-1848,143,525,276
6875,56,-840,-1880,143,534,293
6880,24,-848,-1856,139,544,304
6885,40,-880,-1904,134,560,311
6890,24,-864,-1856,123,581,316
6895,24,-912,-1808,105,609,319
6900,32,-912,-1896,79,638,326
6905,8,-928,-1920,48,667,334
6910,0,-960,-1912,20,689,340
6915,-32,-976,-1928,-4,707,349
6920,-72,-944,-1928,-18,728,359
6925,-56,-976,-1952,-29,752,370
6930,-32,-952,-1912,-46,770,384
6935,-24,-984,-1880,-61,773,400
6940,-24,-1000,-1848,-70,757,413
6945,-8,-1024,-1832,-62,735,422
6950,-8,-1008,-1824,-48,717,427
6955,8,-984,-1856,-36,699,430
6960,8,-968,-1856,-31,686,433
6965,0,-952,-1824,-30,675,433
6970,0,-936,-1800,-25,670,434
6975,16,-960,-1832,-15,671,438
6980,-8,-944,-1848,-3,679,444
6985,-8,-880,-1824,8,691,449
6990,-8,-888,-1832,21,700,448
6995,-16,-904,-1752,30,706,440
7000,8,-888,-1680,36,707,425
7005,40,-904,-1616,39,706,409
7010,40,-912,-1624,44,701,397
7015,64,-920,-1656,46,695,386
7020,112,-920,-1584,48,687,373
7025,112,-904,-1584,49,674,363
7030,128,-912,-1552,52,659,355
7035,168,-952,-1536,56,646,354
7040,176,-936,-1552,62,632,356
7045,208,-928,-1576,74,620,364
7050,208,-944,-1544,92,608,373
7055,192,-928,-1520,112,597,379
7060,232,-944,-1528,130,591,383
7065,192,-928,-1536,148,592,386
7070,232,-976,-1536,167,599,389
7075,216,-984,-1496,186,611,388
7080,208,-984,-1448,205,621,387
7085,256,-960,-1424,219,628,385
7090,256,-968,-1400,231,636,383
7095,280,-960,-1408,241,647,380
7100,256,-952,-1384,251,665,385
7105,256,-904,-1392,257,687,392
7110,248,-880,-1448,259,710,398
7115,192,-832,-1408,254,728,402
7120,192,-832,-1416,247,734,405
7125,176,-824,-1376,235,733,409
7130,160,-848,-1400,230,730,411
7135,128,-840,-1424,235,734,410
7140,64,-800,-1448,244,737,407
7145,16,-760,-1416,252,735,403
7150,16,-688,-1448,259,731,400
7155,0,-696,-1424,258,719,397
7160,-64,-664,-1456,251,700,391
7165,-112,-672,-1448,234,684,384
7170,-56,-656,-1504,211,675,377
7175,-88,-640,-1536,188,672,366
7180,-80,-680,-1528,172,661,349
7185,-80,-688,-1584,162,637,326
7190,-72,-696,-1584,158,602,299
7195,-24,-728,-1624,162,573,272
7200,8,-776,-1672,172,562,246
7205,40,-808,-1672,188,565,219
7210,104,-896,-1672,210,579,194
7215,120,-912,-1688,237,589,170
7220,208,-960,-1624,269,592,144
7225,272,-960,-1584,306,598,118
7230,360,-1000,-1568,341,611,95
7235,384,-1008,-1648,365,640,75
7240,400,-976,-1656,369,686,58
7245,408,-968,-1688,353,739,47
7250,376,-928,-1664,326,787,40
7255,336,-952,-1648,301,827,32
7260,352,-952,-1632,284,853,28
7265,320,-936,-1648,272,865,23
7270,296,-944,-1624,262,873,12
7275,304,-936,-1568,251,879,4
7280,288,-920,-1600,239,883,-6
7285,232,-888,-1568,222,885,-19
7290,216,-872,-1568,201,883,-33
7295,176,-872,-1520,173,873,-47
7300,160,-888,-1512,144,857,-63
7305,144,-904,-1480,114,839,-77
7310,120,-872,-1464,85,823,-81
7315,120,-904,-1456,63,814,-77
7320,136,-904,-1416,46,809,-66
7325,120,-912,-1392,34,802,-53
7330,216,-928,-1400,33,796,-35
7335,272,-912,-1512,49,792,-13
7340,336,-944,-1504,81,798,9
7345,448,-904,-1536,123,819,31
7350,520,-888,-1608,170,847,54
7355,600,-792,-1640,201,880,72
7360,672,-784,-1640,215,919,84
7365,704,-784,-1576,210,971,93
7370,744,-768,-1544,199,1036,107
7375,784,-776,-1424,182,1120,135
7380,824,-816,-1424,157,1213,168
7385,760,-792,-1432,125,1304,206
7390,768,-776,-1408,82,1383,240
7395,768,-808,-1448,21,1442,272
7400,728,-832,-1512,-47,1489,293
7405,688,-856,-1536,-107,1526,301
7410,680,-888,-1528,-147,1557,299
7415,664,-888,-1512,-158,1583,296
7420,648,-888,-1528,-137,1615,302
7425,736,-936,-1560,-99,1664,317
7430,752,-936,-1624,-66,1726,334
7435,784,-984,-1560,-46,1781,349
7440,800,-1024,-1680,-42,1817,356
7445,792,-1072,-1704,-54,1827,348
7450,744,-1072,-1736,-75,1811,330
7455,768,-1136,-1816,-97,1779,307
7460,712,-1224,-1872,-121,1738,264
7465,688,-1304,-1920,-145,1690,206
7470,616,-1352,-2000,-165,1636,145
7475,592,-1432,-1960,-173,1582,89
7480,568,-1512,-2008,-168,1538,29
7485,584,-1520,-2016,-159,1502,-23
7490,544,-1520,-1992,-157,1473,-66
7495,600,-1648,-2056,-178,1448,-100
7500,560,-1728,-2168,-236,1428,-125
7505,584,-1856,-2208,-329,1406,-143
7510,640,-2016,-2288,-437,1364,-155
7515,672,-2096,-2360,-541,1287,-167
7520,696,-2192,-2520,-625,1155,-197
7525,744,-2224,-2656,-680,982,-251
7530,720,-2272,-2744,-691,806,-325
7535,744,-2320,-2808,-652,678,-405
7540,752,-2392,-2776,-571,638,-477
7545,728,-2432,-2616,-453,657,-536
7550,696,-2480,-2472,-301,687,-577
7555,720,-2392,-2304,-126,688,-589
7560,712,-2240,-2192,57,666,-580
7565,736,-2096,-2080,221,637,-561
7570,696,-1888,-1968,353,607,-538
7575,704,-1672,-1760,452,575,-516
7580,672,-1440,-1528,518,541,-494
7585,664,-1176,-1304,551,510,-471
7590,704,-1032,-1152,544,486,-449
7595,712,-768,-912,487,474,-427
7600,776,-552,-832,376,479,-405
7605,848,-392,-688,234,485,-387
7610,944,-192,-576,88,492,-375
7615,1008,-112,-520,-49,519,-359
7620,1040,-32,-488,-176,577,-344
7625,1088,8,-488,-284,653,-330
7630,1120,40,-480,-367,720,-328
7635,1136,-16,-496,-415,768,-331
7640,1144,-24,-536,-429,795,-330
7645,1136,-136,-608,-410,810,-341
7650,1096,-264,-600,-374,827,-363
7655,1080,-368,-672,-333,842,-394
7660,1024,-416,-752,-298,858,-429
7665,1008,-488,-752,-276,873,-465
7670,1000,-560,-792,-270,888,-491
7675,960,-608,-864,-270,914,-514
7680,912,-680,-888,-274,952,-539
7685,824,-696,-936,-264,999,-559
7690,800,-680,-1000,-242,1061,-565
7695,776,-600,-1072,-208,1145,-547
7700,808,-544,-1056,-171,1230,-513
7705,792,-512,-1104,-136,1290,-476
7710,872,-520,-1096,-108,1323,-450
7715,904,-520,-1056,-74,1346,-437
7720,920,-520,-1024,-19,1369,-429
7725,944,-456,-1024,47,1389,-427
7730,976,-408,-1032,111,1407,-423
7735,1064,-320,-992,164,1405,-419
7740,1112,-280,-1000,201,1381,-425
7745,1128,-176,-952,217,1353,-434
7750,1152,-176,-912,201,1326,-444
7755,1168,-200,-840,169,1299,-446
7760,1120,-224,-800,140,1283,-438
7765,1160,-256,-744,121,1283,-422
7770,1152,-320,-656,103,1295,-403
7775,1224,-440,-640,87,1316,-382
7780,1272,-504,-672,67,1358,-366
7785,1344,-592,-696,51,1430,-351
7790,1384,-648,-736,46,1534,-333
7795,1456,-672,-760,64,1665,-304
7800,1544,-760,-768,111,1791,-277
7805,1600,-752,-784,184,1900,-256
7810,1664,-808,-824,269,1994,-241
7815,1728,-808,-800,349,2079,-225
7820,1672,-784,-792,418,2155,-202
7825,1656,-832,-768,464,2220,-179
7830,1616,-880,-704,498,2281,-158
7835,1640,-912,-672,529,2342,-135
7840,1672,-896,-648,557,2405,-109
7845,1720,-888,-656,573,2469,-81
7850,1696,-856,-704,565,2531,-48
7855,1696,-800,-688,531,2580,-7
7860,1680,-720,-704,489,2616,33
7865,1736,-696,-712,455,2643,67
7870,1696,-584,-640,435,2668,101
7875,1784,-592,-656,420,2696,133
7880,1816,-584,-584,407,2734,152
7885,1712,-616,-560,402,2794,165
7890,1592,-672,-528,398,2854,200
7895,1536,-760,-488,395,2884,244
7900,1576,-864,-456,400,2903,251
7905,1584,-944,-488,429,2939,223
7910,1576,-944,-472,465,2981,171
7915,1664,-920,-456,503,3018,127
7920,1680,-968,-440,552,3058,70
7925,1680,-1024,-400,607,3060,26
7930,1880,-1088,-248,662,3050,-6
7935,2000,-1096,-176,705,3030,-52
7940,2200,-1128,-96,735,2997,-92
7945,2384,-1088,0,744,2953,-174
7950,2520,-1120,56,735,2904,-256
7955,2592,-1200,32,699,2857,-331
7960,2704,-1232,-8,660,2813,-383
7965,2728,-1288,-56,652,2774,-413
7970,2880,-1264,-32,691,2744,-471
7975,2848,-1280,-128,785,2709,-513
7980,2808,-1312,-152,902,2673,-568
7985,2920,-1344,-112,1024,2632,-630
7990,2960,-1408,-96,1137,2619,-697
7995,3080,-1440,-56,1228,2641,-759
8000,3240,-1520,-80,1297,2697,-812
8005,3400,-1568,-32,1349,2759,-843
8010,3456,-1616,8,1372,2793,-865
8015,3456,-1688,32,1382,2803,-886
8020,3520,-1696,112,1423,2821,-920
8025,3400,-1624,200,1505,2867,-963
8030,3240,-1536,320,1593,2901,-1000
8035,3232,-1480,440,1668,2874,-1029
8040,3240,-1416,480,1729,2785,-1053
8045,3264,-1416,552,1784,2685,-1069
8050,3192,-1424,696,1828,2614,-1079
8055,3104,-1376,776,1867,2562,-1075
8060,3112,-1304,808,1901,2521,-1052
8065,3072,-1176,808,1931,2522,-1005
8070,2936,-1032,864,1953,2594,-941
8075,2688,-912,968,1968,2689,-880
8080,2576,-832,1152,1979,2736,-817
8085,2464,-760,1192,1994,2710,-759
8090,2400,-672,1192,1997,2633,-721
8095,2280,-584,1032,1966,2517,-708
8100,2176,-488,944,1905,2373,-710
8105,2152,-464,1000,1835,2235,-717
8110,2104,-424,1184,1772,2098,-698
8115,2104,-464,1272,1739,1924,-642
8120,2064,-520,1352,1733,1708,-573
8125,2080,-536,1408,1722,1486,-514
8130,2112,-504,1472,1693,1313,-445
8135,2112,-424,1624,1635,1207,-373
8140,2072,-400,1640,1559,1136,-302
8145,1992,-280,1744,1464,1074,-242
8150,1824,-200,1688,1339,1019,-204
8155,1736,-136,1672,1186,977,-181
8160,1552,0,1712,1021,965,-155
8165,1456,40,1720,862,970,-114
8170,1328,136,1672,719,955,-61
8175,1216,224,1544,599,906,8
8180,1176,232,1472,493,855,78
8185,1112,208,1304,389,808,139
8190,1104,224,1312,292,769,178
8195,1024,160,1272,216,737,194
8200,1024,120,1304,171,714,195
8205,992,80,1320,152,685,198
8210,960,-8,1312,147,648,223
8215,936,-8,1320,150,606,244
8220,888,-88,1272,147,564,271
8225,864,-144,1232,145,551,290
8230,768,-176,1248,149,563,292
8235,712,-128,1208,165,581,295
8240,648,-136,1200,191,612,319
8245,704,-72,1232,233,643,347
8250,760,-16,1248,275,654,369
8255,896,16,1304,325,652,382
8260,992,0,1408,366,654,396
8265,1056,24,1456,398,671,423
8270,1152,32,1480,415,702,450
8275,1144,80,1536,416,734,478
8280,1216,112,1584,400,752,514
8285,1288,128,1568,369,750,555
8290,1368,168,1576,323,738,584
8295,1408,168,1608,285,723,605
8300,1416,184,1576,260,702,632
8305,1344,224,1616,245,680,660
8310,1328,272,1608,238,652,674
8315,1360,304,1584,241,611,690
8320,1328,336,1560,257,572,726
8325,1256,336,1576,286,540,757
8330,1232,320,1576,317,497,762
8335,1216,368,1664,352,439,753
8340,1216,344,1640,385,376,762
8345,1136,320,1624,417,327,768
8350,1096,304,1616,446,290,757
8355,1080,288,1584,470,259,743
8360,1080,304,1592,488,239,739
8365,1136,248,1544,508,241,736
8370,1136,184,1560,534,264,731
8375,1088,152,1560,556,294,724
8380,1040,128,1496,559,314,730
8385,1024,80,1504,555,323,734
8390,1048,24,1480,556,325,731
8395,1120,16,1496,568,321,715
8400,1136,0,1512,587,324,705
8405,1160,-40,1512,606,339,693
8410,1280,-56,1568,600,348,695
8415,1232,-128,1600,574,352,712
8420,1272,-80,1600,535,344,728
8425,1152,-40,1608,493,333,744
8430,1136,0,1616,448,306,755
8435,1296,-32,1648,409,262,742
8440,1312,-48,1664,371,220,757
8445,1432,-24,1696,332,196,795
8450,1432,-48,1704,299,188,816
8455,1320,-72,1800,274,195,816
8460,1200,-88,1776,237,185,819
8465,1192,-72,1704,174,153,824
8470,1008,-40,1664,107,110,804
8475,1272,-88,1648,52,58,757
8480,1440,-152,1648,27,15,689
8485,1512,-232,1696,37,12,623
8490,1424,-272,1640,60,49,564
8495,1264,-336,1616,73,92,526
8500,1152,-448,1616,67,119,492
8505,1144,-552,1608,49,127,444
8510,1152,-648,1608,35,124,395
8515,1176,-768,1536,36,122,360
8520,1072,-808,1520,54,129,322
8525,1032,-912,1496,91,127,297
8530,984,-936,1624,141,114,273
8535,960,-1000,1744,199,87,249
8540,960,-1048,1824,258,59,213
8545,944,-1064,1824,300,16,161
8550,968,-1032,1824,320,-48,126
8555,1008,-984,1760,326,-120,106
8560,1048,-928,1728,322,-176,85
8565,1056,-856,1712,305,-215,54
8570,1048,-752,1712,271,-247,25
8575,1064,-648,1736,213,-274,-2
8580,1072,-600,1736,126,-300,-21
8585,1056,-552,1712,16,-327,-29
8590,1072,-544,1704,-93,-354,-29
8595,1064,-536,1648,-184,-378,-25
8600,1048,-520,1624,-241,-398,-21
8605,1024,-504,1568,-267,-412,-16
8610,1016,-504,1504,-267,-423,-8
8615,1024,-440,1416,-254,-430,-1
8620,1056,-416,1360,-239,-429,1
8625,1048,-336,1288,-232,-421,-4
8630,1024,-336,1280,-227,-410,-7
8635,1048,-344,1280,-229,-404,-6
8640,1040,-360,1256,-226,-399,-15
8645,1040,-368,1216,-214,-405,-16
8650,1032,-400,1232,-198,-411,-9
8655,1120,-432,1184,-172,-419,-2
8660,1216,-464,1192,-138,-425,0
8665,1232,-504,1168,-104,-421,-13
8670,1248,-504,1200,-68,-408,-31
8675,1328,-512,1160,-39,-381,-49
8680,1352,-496,1088,-14,-332,-69
8685,1360,-472,1088,-1,-270,-73
8690,1400,-488,1064,2,-200,-67
8695,1504,-488,1008,0,-127,-67
8700,1552,-488,1016,2,-60,-72
8705,1632,-488,1016,17,9,-74
8710,1640,-504,1032,41,70,-66
8715,1680,-496,1048,63,120,-52
8720,1720,-488,1040,80,155,-39
8725,1760,-504,1056,81,177,-30
8730,1768,-552,1120,67,191,-22
8735,1776,-568,1168,39,198,-16
8740,1776,-664,1288,-3,195,-16
8745,1768,-744,1376,-62,179,-23
8750,1688,-784,1416,-139,139,-27
8755,1696,-848,1416,-216,90,-32
8760,1672,-856,1424,-288,36,-38
8765,1672,-864,1400,-344,-10,-42
8770,1624,-864,1376,-376,-44,-47
8775,1600,-880,1336,-386,-72,-48
8780,1600,-880,1312,-375,-94,-46
8785,1552,-848,1288,-348,-104,-44
8790,1552,-824,1256,-314,-102,-41
8795,1512,-784,1208,-277,-88,-41
8800,1512,-784,1232,-246,-65,-38
8805,1520,-792,1240,-220,-43,-36
8810,1480,-800,1232,-198,-21,-37
8815,1496,-784,1216,-176,2,-42
8820,1504,-776,1208,-157,28,-41
8825,1504,-776,1176,-142,56,-36
8830,1488,-752,1160,-132,81,-36
8835,1472,-784,1168,-120,102,-36
8840,1528,-776,1192,-104,120,-36
8845,1528,-784,1176,-82,138,-36
8850,1520,-840,1160,-59,157,-36
8855,1520,-808,1192,-38,171,-31
8860,1496,-784,1200,-22,174,-22
8865,1488,-792,1184,-10,170,-11
8870,1512,-792,1200,7,161,-4
8875,1520,-768,1208,31,151,3
8880,1520,-752,1224,62,142,8
8885,1520,-728,1248,96,132,14
8890,1512,-696,1248,126,124,18
8895,1472,-664,1272,151,116,26
8900,1496,-632,1256,180,108,37
8905,1448,-560,1248,209,102,46
8910,1472,-592,1264,230,101,56
8915,1456,-560,1272,244,105,61
8920,1440,-552,1288,252,110,65
8925,1440,-528,1320,255,115,64
8930,1432,-520,1304,260,122,64
8935,1416,-520,1336,267,131,62
8940,1408,-512,1344,262,139,61
8945,1392,-488,1320,249,147,58
8950,1416,-560,1368,228,153,55
8955,1344,-520,1384,205,158,51
8960,1384,-520,1384,189,159,46
8965,1328,-528,1440,181,159,40
8970,1336,-512,1416,180,160,29
8975,1336,-528,1440,175,163,22
8980,1312,-512,1424,162,160,16
8985,1304,-504,1440,146,157,12
8990,1296,-512,1440,136,154,6
8995,1304,-520,1408,125,154,1
9000,1304,-528,1424,115,155,-5
9005,1304,-536,1416,103,155,-10
9010,1296,-544,1456,89,159,-14
9015,1328,-544,1464,82,164,-16
9020,1272,-560,1440,83,168,-18
9025,1296,-576,1464,92,173,-19
9030,1312,-560,1432,103,178,-20
9035,1304,-544,1456,112,184,-21
9040,1320,-568,1416,115,189,-25
9045,1328,-528,1456,114,192,-27
9050,1344,-512,1432,104,193,-26
9055,1328,-512,1440,95,197,-27
9060,1320,-536,1496,94,200,-25
9065,1328,-576,1496,101,206,-23
9070,1328,-512,1464,107,207,-20
9075,1312,-512,1472,104,207,-20
9080,1304,-512,1480,100,202,-20
9085,1320,-512,1496,88,197,-18
9090,1280,-504,1480,70,190,-17
9095,1280,-496,1512,59,185,-12
9100,1280,-504,1512,60,179,-10
9105,1232,-488,1504,50,168,-9
9110,1224,-496,1528,32,157,-7
9115,1208,-496,1552,21,148,-4
9120,1208,-424,1496,16,138,1
9125,1216,-512,1544,3,130,6
9130,1216,-512,1568,-6,120,9
9135,1216,-504,1544,-5,112,12
9140,1216,-520,1560,-4,106,11
9145,1216,-520,1528,-5,99,9
9150,1216,-504,1520,-17,90,5
9155,1224,-552,1552,-26,81,4
9160,1208,-520,1512,-28,75,5
9165,1224,-560,1544,-36,67,5
9170,1256,-536,1520,-45,60,5
9175,1208,-568,1512,-51,54,4
9180,1256,-560,1536,-45,49,4
9185,1272,-560,1520,-32,45,3
9190,1248,-576,1488,-15,38,1
9195,1256,-576,1496,-1,33,0
9200,1288,-560,1440,9,28,-5
9205,1248,-584,1496,8,22,-11
9210,1248,-592,1496,12,16,-12
9215,1280,-584,1480,21,10,-11
9220,1248,-592,1488,33,4,-13
9225,1264,-568,1472,45,-1,-16
9230,1224,-560,1464,56,-4,-20
9235,1264,-552,1472,60,-8,-22
9240,1272,-576,1432,57,-11,-26
9245,1272,-560,1464,43,-15,-26
9250,1256,-560,1504,24,-18,-27
9255,1256,-552,1480,14,-20,-24
9260,1256,-544,1472,13,-19,-21
9265,1280,-560,1456,12,-16,-22
9270,1304,-584,1504,10,-15,-21
9275,1288,-536,1488,9,-17,-23
9280,1304,-560,1456,6,-19,-23
9285,1304,-600,1512,-3,-24,-20
9290,1344,-576,1424,-18,-29,-17
9295,1304,-560,1440,-31,-33,-15
9300,1328,-560,1432,-42,-37,-12
9305,1336,-568,1464,-48,-40,-12
9310,1328,-568,1416,-48,-41,-13
9315,1336,-568,1416,-56,-42,-14
9320,1336,-592,1456,-69,-43,-14
9325,1328,-560,1448,-68,-42,-13
9330,1336,-584,1440,-58,-42,-13
9335,1352,-600,1440,-53,-42,-13
9340,1336,-568,1408,-53,-41,-13
9345,1352,-616,1416,-58,-44,-13
9350,1344,-584,1416,-62,-45,-13
9355,1344,-624,1376,-67,-47,-11
9360,1336,-608,1392,-68,-44,-10
9365,1368,-632,1384,-66,-40,-11
9370,1360,-592,1352,-63,-37,-10
9375,1392,-632,1336,-57,-34,-9
9380,1368,-608,1360,-52,-31,-9
9385,1384,-624,1392,-47,-26,-13
9390,1400,-600,1360,-40,-22,-9
9395,1368,-600,1336,-32,-21,-9
9400,1384,-592,1384,-25,-16,-9
9405,1360,-592,1336,-19,-14,-6
9410,1384,-616,1344,-9,-9,-1
9415,1384,-608,1352,4,-6,2
9420,1368,-584,1368,19,-5,6
9425,1360,-592,1368,34,-4,7
9430,1344,-592,1400,47,-5,9
9435,1360,-600,1368,59,-5,11
9440,1344,-592,1360,70,-3,15
9445,1336,-592,1392,76,-2,20
9450,1336,-608,1304,81,-1,25
9455,1320,-600,1376,85,3,29
9460,1320,-600,1368,91,6,33
9465,1304,-624,1360,101,13,36
9470,1336,-616,1360,112,20,39
9475,1296,-616,1352,124,27,42
9480,1304,-616,1336,135,34,45
9485,1296,-576,1288,138,41,46
9490,1280,-600,1360,132,44,46
9495,1312,-632,1384,130,50,49
9500,1312,-632,1408,148,57,50
9505,1272,-616,1376,178,66,51
9510,1312,-608,1384,202,75,48
9515,1304,-608,1400,215,83,48
9520,1288,-624,1400,222,90,47
9525,1272,-568,1432,227,96,47
9530,1312,-608,1416,236,101,47
9535,1320,-632,1416,246,106,47
9540,1296,-624,1432,256,108,46
9545,1296,-624,1424,267,110,45
9550,1312,-632,1456,280,112,45
9555,1320,-608,1456,296,116,44
9560,1328,-608,1432,310,119,40
9565,1328,-616,1448,324,122,38
9570,1320,-600,1432,333,126,33
9575,1344,-576,1424,340,130,32
9580,1312,-576,1480,343,134,30
9585,1312,-584,1464,352,140,32
9590,1328,-560,1464,361,143,27
9595,1368,-568,1488,365,145,23
9600,1328,-552,1480,362,146,21
9605,1304,-536,1440,353,144,20
9610,1272,-520,1528,342,140,19
9615,1312,-512,1480,330,136,21
9620,1304,-504,1472,319,133,23
9625,1320,-504,1456,305,128,21
9630,1296,-512,1496,278,119,19
9635,1288,-520,1520,255,112,18
9640,1296,-512,1512,259,108,19
9645,1280,-512,1520,261,102,16
9650,1272,-504,1456,254,96,16
9655,1256,-488,1456,236,88,12
9660,1272,-504,1496,210,80,14
9665,1264,-528,1528,195,76,14
9670,1256,-520,1512,186,74,15
9675,1256,-512,1512,172,72,14
9680,1248,-520,1488,161,70,19
9685,1240,-520,1528,158,67,16
9690,1224,-520,1512,151,65,13
9695,1248,-528,1520,139,60,11
9700,1232,-496,1496,119,55,10
9705,1248,-536,1504,104,52,10
9710,1240,-512,1520,100,48,10
9715,1232,-520,1504,96,45,6
9720,1256,-528,1536,88,42,6
9725,1256,-528,1528,69,38,3
9730,1256,-512,1496,56,36,2
9735,1232,-504,1520,38,33,1
9740,1240,-504,1552,26,32,-2
9745,1224,-528,1536,32,30,-4
9750,1240,-512,1520,38,29,-8
9755,1256,-528,1512,34,26,-8
9760,1248,-544,1504,26,24,-11
9765,1288,-536,1528,15,23,-13
9770,1256,-528,1512,8,24,-14
9775,1232,-560,1488,6,27,-14
9780,1248,-528,1512,4,29,-15
9785,1232,-552,1520,4,32,-17
9790,1256,-568,1488,4,34,-16
9795,1240,-544,1480,7,37,-18
9800,1264,-560,1488,10,43,-17
9805,1256,-560,1488,12,48,-20
9810,1272,-592,1496,14,50,-20
9815,1256,-544,1464,13,54,-22
9820,1288,-576,1496,12,58,-23
9825,1280,-576,1512,13,59,-21
9830,1256,-592,1472,13,60,-24
9835,1304,-560,1472,11,59,-24
9840,1280,-568,1472,4,57,-25
9845,1304,-568,1456,-1,53,-25
9850,1280,-544,1424,-6,50,-24
9855,1272,-568,1456,-10,50,-24
9860,1256,-560,1440,-15,45,-25
9865,1272,-544,1472,-16,42,-24
9870,1272,-552,1480,-17,36,-25
9875,1296,-584,1440,-18,33,-24
9880,1288,-544,1392,-23,32,-22
9885,1256,-560,1416,-43,29,-20
9890,1280,-560,1488,-46,27,-21
9895,1272,-584,1472,-24,28,-18
9900,1232,-560,1440,-5,28,-17
9905,1256,-528,1456,8,27,-16
9910,1272,-560,1432,19,28,-15
9915,1248,-552,1440,31,28,-15
9920,1256,-568,1480,41,28,-13
9925,1264,-560,1448,52,32,-9
9930,1272,-512,1432,61,34,-10
9935,1248,-536,1464,72,36,-7
9940,1280,-472,1488,81,37,-7
9945,1256,-520,1496,91,38,-6
9950,1232,-544,1472,98,40,-6
9955,1272,-520,1496,108,39,-5
9960,1256,-520,1472,114,39,-4
9965,1248,-536,1456,117,40,-4
9970,1248,-536,1496,121,39,-2
9975,1288,-544,1464,124,41,-3
9980,1280,-560,1448,121,42,-2
9985,1296,-536,1488,110,43,-3
9990,1280,-544,1536,105,45,-3
9995,1272,-592,1528,118,47,-4
10000,1264,-536,1544,132,50,-2
10005,1272,-528,1528,141,48,-2
10010,1304,-536,1512,146,48,-2
10015,1272,-520,1536,146,47,-1
10020,1248,-528,1536,141,47,-1
10025,1264,-512,1544,139,44,1
10030,1248,-536,1520,136,44,0
10035,1312,-520,1504,134,43,0
10040,1280,-504,1528,121,42,-2
10045,1264,-480,1496,95,39,-3
10050,1296,-488,1584,72,37,-3
10055,1264,-496,1552,66,35,-1
10060,1264,-512,1536,58,31,-1
10065,1248,-512,1544,47,27,0
10070,1264,-512,1544,35,20,-2
10075,1264,-504,1512,27,12,-2
10080,1216,-536,1544,17,6,-2
10085,1256,-504,1512,17,1,-1
10090,1256,-528,1504,23,-2,-4
10095,1224,-528,1488,28,-7,-4
10100,1304,-520,1472,35,-7,-5
10105,1240,-520,1512,41,-6,-6
10110,1240,-520,1496,45,-3,-6
10115,1240,-528,1496,49,2,-3
10120,1240,-544,1504,54,8,-3
10125,1224,-552,1488,60,13,-4
10130,1248,-528,1488,63,20,1
10135,1216,-560,1464,68,26,0
10140,1232,-528,1464,75,31,-2
10145,1240,-544,1480,81,37,0
10150,1208,-560,1480,86,40,-1
10155,1192,-552,1488,92,43,-2
10160,1256,-536,1512,94,46,-2
10165,1256,-552,1488,94,46,-2
10170,1232,-544,1504,92,47,-4
10175,1232,-536,1512,90,47,-5
10180,1256,-544,1488,85,48,-5
10185,1240,-536,1496,76,46,-5
10190,1224,-528,1504,68,44,-6
10195,1264,-536,1504,60,44,-5
10200,1256,-528,1504,52,41,-4
10205,1264,-544,1496,47,40,-5
10210,1280,-560,1544,40,37,-4
10215,1256,-512,1488,36,34,-5
10220,1256,-552,1512,31,32,-4
10225,1256,-512,1504,28,29,-6
10230,1272,-528,1512,27,27,-6
10235,1256,-552,1496,26,26,-5
10240,1240,-520,1496,28,25,-5
10245,1216,-512,1472,31,26,-5
10250,1264,-560,1520,31,23,-5
10255,1224,-512,1496,32,22,-6
10260,1264,-536,1512,31,22,-6
10265,1224,-528,1512,33,21,-7
10270,1264,-544,1504,34,21,-8
10275,1256,-544,1496,36,22,-8
10280,1248,-536,1528,40,23,-8
10285,1224,-512,1496,44,22,-8
10290,1248,-528,1512,50,22,-8
10295,1256,-536,1520,56,22,-7
10300,1256,-560,1496,63,24,-6
10305,1280,-536,1504,69,23,-7
10310,1248,-528,1504,73,23,-8
10315,1280,-544,1504,78,23,-6
10320,1256,-552,1480,80,24,-8
10325,1256,-544,1520,70,26,-7
10330,1248,-560,1528,65,26,-7
10335,1264,-544,1504,69,26,-6
10340,1256,-528,1528,71,28,-7
10345,1240,-528,1504,71,30,-5
10350,1232,-544,1504,67,29,-5
10355,1240,-528,1512,65,27,-6
10360,1248,-520,1528,60,27,-8
10365,1280,-528,1536,59,28,-7
10370,1248,-512,1504,57,26,-7
10375,1232,-528,1496,56,24,-7
10380,1256,-512,1512,53,21,-9
10385,1224,-520,1520,48,19,-8
10390,1248,-504,1536,44,18,-8
10395,1248,-512,1504,37,15,-9
10400,1232,-520,1512,29,13,-13
10405,1240,-528,1528,22,10,-13
10410,1240,-544,1496,16,8,-16
10415,1240,-552,1496,11,6,-16
10420,1248,-552,1480,6,1,-17
10425,1248,-560,1520,4,1,-19
10430,1224,-544,1528,1,0,-19
10435,1224,-544,1488,1,0,-20
10440,1240,-544,1504,2,0,-20
10445,1256,-568,1480,5,1,-21
10450,1240,-568,1512,11,1,-23
10455,1240,-536,1520,16,4,-23
10460,1232,-536,1488,23,5,-22
10465,1248,-552,1496,26,6,-24
10470,1240,-544,1488,31,8,-24
10475,1216,-520,1480,34,9,-23
10480,1224,-544,1496,34,10,-24
10485,1280,-544,1544,33,9,-26
10490,1272,-536,1488,33,9,-25
10495,1280,-528,1528,31,8,-23
10500,1264,-528,1504,29,7,-22
10505,1256,-512,1512,25,7,-22
10510,1256,-512,1496,21,5,-22
10515,1248,-512,1496,18,4,-21
10520,1240,-528,1488,13,5,-21
10525,1248,-544,1504,0,6,-22
10530,1256,-536,1488,-15,7,-21
10535,1232,-568,1528,-22,7,-19
10540,1208,-576,1536,-8,10,-17
10545,1248,-528,1528,11,13,-18
10550,1240,-536,1520,22,15,-18
10555,1272,-536,1472,26,15,-18
10560,1256,-520,1504,26,15,-18
10565,1272,-528,1512,26,16,-18
10570,1256,-520,1496,28,17,-17
10575,1248,-520,1480,29,17,-14
10580,1248,-544,1504,29,17,-15
10585,1256,-536,1520,31,18,-11
10590,1240,-552,1472,31,17,-10
10595,1256,-544,1504,30,16,-12
10600,1272,-544,1480,32,16,-11
10605,1256,-544,1504,32,14,-11
10610,1240,-544,1472,34,13,-10
10615,1248,-520,1512,34,13,-9
10620,1256,-552,1488,36,11,-10
10625,1272,-552,1528,36,10,-9
10630,1232,-560,1496,34,11,-9
10635,1256,-552,1504,32,11,-10
10640,1264,-528,1520,28,11,-12
10645,1224,-568,1488,18,12,-13
10650,1240,-536,1520,14,12,-11
10655,1232,-560,1512,12,13,-9
10660,1256,-568,1512,12,12,-9
10665,1248,-544,1520,9,10,-8
10670,1240,-560,1528,9,7,-7
10675,1224,-528,1512,9,6,-7
10680,1232,-552,1480,9,5,-7
10685,1256,-560,1488,11,2,-4
10690,1248,-552,1488,11,2,-5
10695,1232,-552,1536,11,0,-6
10700,1280,-480,1488,11,-1,-7
10705,1264,-600,1464,11,-1,-6
10710,1256,-552,1512,10,-2,-5
10715,1240,-536,1520,12,-4,-6
10720,1248,-544,1520,12,-7,-6
10725,1232,-520,1512,15,-10,-6
10730,1208,-536,1512,16,-13,-6
10735,1256,-560,1496,18,-17,-3
10740,1216,-528,1480,21,-19,-4
10745,1232,-560,1496,25,-20,-6
10750,1232,-560,1496,30,-21,-5
10755,1232,-552,1480,35,-22,-5
10760,1248,-560,1488,41,-20,-6
10765,1224,-536,1464,48,-20,-7
10770,1256,-584,1448,56,-16,-7
10775,1224,-560,1448,64,-14,-5
10780,1232,-552,1440,74,-10,-5
10785,1224,-560,1464,82,-5,-5
10790,1248,-576,1496,92,0,-2
10795,1256,-592,1472,100,6,-2
10800,1248,-576,1472,110,12,-2
10805,1240,-552,1480,114,19,0
10810,1264,-496,1456,115,23,-1
10815,1256,-536,1472,114,27,-1
10820,1272,-544,1504,109,30,-1
10825,1264,-520,1480,104,32,-3
10830,1232,-512,1520,94,34,1
10835,1256,-520,1504,82,34,0
10840,1264,-520,1504,67,32,1
10845,1272,-544,1480,49,31,4
10850,1256,-520,1528,37,30,6
10855,1264,-536,1512,50,33,8
10860,1272,-544,1512,67,35,10
10865,1200,-536,1456,76,38,11
10870,1256,-552,1488,81,38,11
10875,1256,-544,1520,83,40,14
10880,1248,-520,1488,84,41,14
10885,1240,-520,1472,86,45,16
10890,1256,-528,1512,88,46,17
10895,1248,-528,1496,89,46,17
10900,1264,-520,1464,91,47,18
10905,1240,-520,1480,93,46,19
10910,1264,-536,1472,97,46,18
10915,1264,-528,1520,98,46,19
10920,1280,-592,1472,97,45,18
10925,1240,-520,1472,97,44,16
10930,1256,-536,1488,95,44,15
10935,1240,-544,1504,90,43,15
10940,1256,-536,1488,87,42,14
10945,1232,-520,1520,85,41,13
10950,1232,-544,1488,88,40,12
10955,1240,-552,1520,93,41,13
10960,1224,-544,1496,102,42,11
10965,1232,-512,1512,109,44,12
10970,1240,-528,1472,111,44,12
10975,1208,-544,1456,111,43,11
10980,1232,-560,1520,111,44,11
10985,1240,-544,1512,109,47,11
10990,1248,-528,1504,110,47,12
10995,1248,-568,1496,107,49,12
11000,1232,-544,1496,104,51,10
11005,1232,-528,1520,101,53,11
11010,1208,-568,1528,97,52,11
11015,1232,-560,1520,92,51,10
11020,1240,-544,1496,88,50,10
11025,1216,-536,1512,88,47,8
11030,1216,-536,1520,88,46,9
11035,1216,-552,1520,90,43,8
11040,1208,-560,1512,93,41,8
11045,1216,-528,1520,97,37,6
11050,1216,-560,1536,99,36,8
11055,1224,-576,1496,102,35,8
11060,1208,-560,1528,104,33,6
11065,1224,-544,1512,106,32,7
11070,1208,-544,1536,105,30,7
11075,1224,-536,1520,105,29,6
11080,1200,-536,1456,104,28,7
11085,1200,-568,1552,106,27,6
11090,1224,-544,1520,107,26,8
11095,1240,-568,1504,109,26,4
11100,1200,-528,1528,111,26,5
11105,1216,-544,1512,114,25,5
11110,1224,-536,1496,120,25,5
11115,1208,-560,1536,123,27,6
11120,1224,-544,1504,125,27,6
11125,1216,-528,1520,128,28,8
11130,1224,-560,1552,130,30,7
11135,1256,-608,1536,131,31,9
11140,1240,-544,1536,131,32,8
11145,1240,-528,1512,130,33,8
11150,1232,-520,1504,127,35,7
11155,1224,-520,1512,122,34,8
11160,1232,-520,1536,118,34,7
11165,1232,-536,1528,116,34,7
11170,1248,-520,1536,114,34,7
11175,1240,-536,1520,111,34,7
11180,1224,-520,1504,109,35,4
11185,1232,-520,1520,106,34,3
11190,1256,-528,1536,104,32,1
11195,1240,-520,1520,102,33,1
11200,1232,-512,1528,97,32,0
11205,1232,-520,1504,93,31,0
11210,1216,-520,1528,91,30,-1
11215,1240,-504,1504,91,29,-1
11220,1240,-512,1528,91,28,-1
11225,1232,-536,1536,91,28,-1
11230,1208,-536,1520,91,27,-2
11235,1248,-528,1544,96,26,-1
11240,1240,-536,1544,99,26,0
11245,1224,-528,1496,100,26,-2
11250,1232,-536,1528,102,23,-2
11255,1216,-520,1520,104,21,-5
11260,1224,-528,1528,105,20,-5
11265,1224,-520,1544,105,20,-5
11270,1224,-520,1528,108,18,-5
11275,1240,-520,1536,108,17,-6
11280,1232,-520,1520,107,17,-7
11285,1232,-520,1536,107,15,-7
11290,1200,-512,1520,108,14,-6
11295,1208,-528,1512,107,13,-5
11300,1200,-544,1496,108,14,-6
11305,1208,-520,1520,107,15,-7
11310,1200,-528,1544,105,16,-7
11315,1208,-528,1504,103,16,-5
11320,1216,-528,1528,100,17,-5
11325,1232,-536,1528,94,21,-6
11330,1224,-536,1528,89,24,-7
11335,1200,-528,1528,83,25,-6
11340,1208,-520,1512,76,26,-7
11345,1200,-512,1520,70,27,-4
11350,1224,-528,1528,65,27,-2
11355,1280,-512,1520,62,28,-3
11360,1216,-528,1528,60,26,-3
11365,1208,-528,1536,58,26,-2
11370,1232,-512,1536,58,26,-2
11375,1208,-520,1536,56,25,-2
11380,1216,-520,1544,55,24,-3
11385,1224,-512,1536,54,23,-2
11390,1216,-512,1528,52,23,-3
11395,1240,-520,1520,51,22,-4
11400,1224,-512,1552,48,21,-5
11405,1208,-512,1536,46,20,-4
11410,1192,-512,1568,48,16,-4
11415,1216,-512,1536,48,9,-4
11420,1192,-512,1528,51,4,-6
11425,1216,-520,1528,55,-1,-6
11430,1232,-544,1536,61,-7,-6
11435,1216,-528,1560,68,-11,-8
11440,1216,-544,1544,76,-15,-9
11445,1240,-528,1536,83,-16,-10
11450,1224,-520,1512,90,-17,-9
11455,1200,-504,1512,97,-15,-11
11460,1208,-520,1512,103,-11,-11
11465,1192,-576,1464,107,-7,-11
11470,1240,-520,1472,111,-3,-10
11475,1192,-528,1520,115,1,-10
11480,1192,-512,1528,119,4,-10
11485,1240,-520,1504,123,6,-9
11490,1216,-520,1528,126,8,-10
11495,1208,-512,1520,128,10,-10
11500,1192,-504,1528,132,11,-11
11505,1208,-512,1536,133,11,-13
11510,1208,-504,1536,130,12,-14
11515,1224,-512,1544,128,12,-16
11520,1200,-512,1496,122,13,-15
11525,1232,-504,1520,114,14,-14
11530,1224,-488,1544,104,16,-14
11535,1208,-488,1544,91,15,-12
11540,1224,-496,1544,76,16,-12
11545,1232,-504,1560,63,15,-9
11550,1232,-496,1512,49,14,-9
11555,1208,-488,1544,37,15,-11
11560,1232,-512,1520,28,14,-10
11565,1192,-512,1536,21,13,-8
11570,1216,-512,1520,15,11,-9
11575,1216,-520,1504,13,11,-8
11580,1232,-512,1560,12,9,-10
11585,1240,-520,1520,10,6,-10
11590,1232,-512,1544,11,5,-9
11595,1224,-504,1536,13,3,-12
11600,1208,-520,1528,13,3,-11
11605,1216,-504,1536,14,2,-13
11610,1224,-528,1536,16,-1,-12
11615,1232,-520,1528,18,-1,-14
11620,1224,-512,1512,21,-1,-12
11625,1224,-520,1504,24,-1,-13
11630,1208,-512,1552,29,-2,-13
11635,1208,-504,1544,35,-1,-12
11640,1240,-528,1520,40,0,-11
11645,1232,-528,1528,46,0,-10
11650,1192,-496,1520,51,1,-11
11655,1216,-512,1488,56,2,-12
11660,1224,-520,1536,57,3,-9
11665,1216,-512,1520,58,6,-9
11670,1208,-520,1528,55,7,-12
11675,1216,-512,1504,50,8,-9
11680,1152,-520,1528,44,9,-10
11685,1200,-512,1536,38,11,-7
11690,1216,-512,1504,35,11,-7
11695,1208,-512,1560,29,10,-7
11700,1224,-544,1544,28,8,-7
11705,1200,-536,1512,28,8,-7
11710,1216,-512,1560,27,7,-7
11715,1208,-520,1528,25,8,-8
11720,1240,-536,1552,15,4,-9
11725,1216,-520,1568,10,4,-8
11730,1224,-528,1536,15,6,-11
11735,1248,-560,1560,19,6,-12
11740,1192,-504,1520,16,3,-13
11745,1208,-520,1544,8,0,-12
11750,1208,-520,1528,1,-4,-12
11755,1232,-536,1536,-6,-7,-11
11760,1232,-520,1536,-11,-11,-12
11765,1208,-528,1544,-16,-15,-13
11770,1232,-528,1536,-20,-16,-13
11775,1216,-520,1528,-23,-18,-14
11780,1224,-528,1544,-24,-20,-14
11785,1240,-528,1544,-24,-19,-17
11790,1248,-568,1608,-26,-22,-19
11795,1200,-512,1512,-28,-22,-19
11800,1240,-536,1520,-26,-21,-20
11805,1232,-512,1536,-28,-20,-20
11810,1248,-520,1520,-28,-20,-21
11815,1216,-520,1528,-28,-20,-20
11820,1248,-528,1504,-28,-16,-19
11825,1208,-512,1520,-27,-16,-20
11830,1232,-512,1512,-26,-14,-19
11835,1240,-520,1496,-25,-13,-19
11840,1240,-528,1512,-25,-11,-19
11845,1256,-552,1528,-25,-9,-19
11850,1216,-528,1544,-25,-8,-17
11855,1232,-512,1512,-26,-7,-18
11860,1256,-528,1520,-24,-4,-18
11865,1240,-520,1496,-23,-4,-18
11870,1248,-520,1488,-22,-2,-15
11875,1240,-512,1512,-21,0,-16
11880,1232,-520,1496,-20,0,-15
11885,1224,-512,1512,-17,3,-15
11890,1224,-528,1488,-16,4,-16
11895,1240,-536,1504,-13,5,-15
11900,1216,-536,1504,-10,6,-14
11905,1248,-528,1520,-9,6,-15
11910,1232,-512,1496,-8,7,-15
11915,1256,-552,1504,-4,8,-13
11920,1248,-528,1512,-2,8,-13
11925,1232,-520,1520,2,9,-12
11930,1248,-520,1496,3,9,-13
11935,1232,-520,1512,4,9,-14
11940,1264,-536,1536,3,10,-14
11945,1256,-536,1488,3,10,-14
11950,1264,-544,1536,3,10,-12
11955,1240,-568,1536,3,9,-13
11960,1224,-528,1512,4,9,-13
11965,1264,-552,1512,3,9,-13
11970,1240,-560,1512,5,10,-12
11975,1240,-544,1496,6,11,-11
11980,1232,-560,1496,10,11,-11
11985,1248,-544,1488,14,12,-9
11990,1184,-528,1488,18,12,-9
11995,1224,-552,1496,24,14,-6
12000,1264,-544,1488,29,15,-6
12005,1232,-536,1480,34,16,-5
12010,1216,-528,1520,37,19,-5
12015,1232,-544,1512,39,19,-5
12020,1256,-536,1504,41,21,-6
12025,1240,-536,1496,40,22,-5
12030,1248,-536,1528,40,23,-4
12035,1224,-512,1512,38,25,-5
12040,1224,-536,1512,37,26,-5
12045,1264,-560,1520,36,27,-3
12050,1248,-528,1520,36,28,-2
12055,1224,-560,1512,35,29,-1
12060,1160,-544,1528,36,29,-2
12065,1176,-568,1496,40,28,-2
12070,1208,-536,1496,44,28,-2
12075,1232,-544,1536,50,26,-3
12080,1216,-560,1504,56,25,-3
12085,1224,-544,1512,59,25,-2
12090,1208,-520,1496,63,25,-1
12095,1224,-528,1512,65,25,-3
12100,1208,-536,1448,67,26,-3
12105,1232,-560,1496,70,26,-1
12110,1232,-536,1512,72,25,2
12115,1216,-576,1544,74,23,0
12120,1224,-536,1512,78,19,-1
12125,1224,-568,1512,80,16,1
12130,1208,-568,1528,84,12,-1
12135,1208,-552,1528,89,9,0
12140,1216,-568,1520,93,6,-3
12145,1224,-568,1480,97,5,-4
12150,1208,-576,1536,104,4,-5
12155,1200,-536,1520,112,4,-8
12160,1224,-552,1464,118,5,-7
12165,1224,-592,1520,121,6,-7
12170,1208,-568,1496,127,9,-6
12175,1224,-560,1504,132,11,-5
12180,1216,-544,1512,137,14,-3
12185,1200,-552,1496,139,18,-4
12190,1232,-528,1528,143,21,-6
12195,1224,-544,1496,146,22,-5
12200,1200,-528,1520,148,25,-6
12205,1224,-528,1520,146,27,-7
12210,1200,-528,1528,145,28,-7
12215,1216,-520,1544,141,29,-10
12220,1216,-528,1552,134,29,-8
12225,1272,-536,1536,125,27,-9
12230,1176,-512,1536,115,26,-9
12235,1200,-520,1536,106,24,-9
12240,1208,-520,1536,101,24,-8
12245,1232,-528,1536,98,22,-6
12250,1224,-544,1536,96,21,-6
12255,1224,-528,1528,97,21,-6
12260,1232,-552,1512,99,21,-5
12265,1224,-536,1512,100,21,-4
12270,1224,-544,1520,104,22,-3
12275,1232,-552,1528,107,23,-4
12280,1136,-520,1528,109,24,-4
12285,1224,-536,1496,108,25,-4
12290,1240,-544,1504,110,26,-7
12295,1216,-512,1520,114,28,-8
12300,1216,-536,1520,119,28,-8
12305,1192,-504,1504,123,27,-9
12310,1240,-512,1504,124,27,-9
12315,1240,-512,1536,124,27,-9
12320,1240,-520,1488,123,28,-9
12325,1240,-544,1496,123,28,-7
12330,1240,-520,1544,122,29,-7
12335,1224,-528,1520,123,29,-8
12340,1216,-520,1536,123,30,-8
12345,1216,-520,1528,124,30,-6
12350,1224,-520,1544,125,31,-7
12355,1224,-512,1536,126,31,-7
12360,1240,-512,1512,128,34,-6
12365,1232,-512,1536,129,36,-6
12370,1224,-520,1520,128,37,-5
12375,1240,-504,1488,126,37,-6
12380,1208,-520,1488,124,39,-5
12385,1232,-520,1504,122,40,-5
12390,1240,-520,1504,118,40,-2
12395,1208,-512,1528,112,41,-2
12400,1208,-512,1520,107,43,-4
12405,1216,-504,1512,101,42,-4
12410,1208,-520,1520,99,42,-1
12415,1232,-520,1528,96,39,-2
12420,1208,-512,1528,93,40,-1
12425,1200,-520,1544,93,38,-4
12430,1208,-520,1536,92,37,-6
12435,1224,-520,1544,92,35,-3
12440,1240,-520,1512,93,34,-3
12445,1184,-504,1512,93,33,-3
12450,1224,-504,1536,92,33,-4
12455,1216,-504,1528,91,32,-4
12460,1216,-504,1528,90,29,-4
12465,1232,-528,1544,89,27,-3
12470,1208,-496,1536,87,26,-4
12475,1192,-504,1520,84,24,-2
12480,1224,-520,1544,84,21,-4
12485,1208,-512,1544,83,19,-4
12490,1224,-512,1528,83,17,-4
12495,1200,-528,1544,84,17,-7
12500,1216,-512,1560,85,17,-7
12505,1200,-496,1528,87,17,-8
12510,1200,-520,1536,87,18,-8
12515,1216,-512,1528,88,18,-7
12520,1216,-512,1560,87,18,-9
12525,1216,-496,1520,87,19,-9
12530,1200,-512,1544,88,19,-8
12535,1208,-504,1536,89,20,-7
12540,1224,-504,1552,89,21,-7
12545,1216,-504,1512,89,21,-8
12550,1248,-536,1536,88,21,-7
12555,1184,-536,1504,88,21,-6
12560,1192,-496,1512,88,21,-8
12565,1208,-504,1520,88,23,-7
12570,1216,-488,1528,87,22,-8
12575,1216,-512,1560,85,22,-8
12580,1208,-504,1536,85,22,-9
12585,1208,-496,1512,82,22,-8
12590,1208,-480,1536,80,22,-9
12595,1192,-528,1536,76,22,-10
12600,1208,-512,1536,73,21,-9
12605,1216,-520,1552,69,20,-10
12610,1240,-520,1568,67,21,-9
12615,1216,-504,1536,64,20,-9
12620,1192,-496,1552,62,20,-9
12625,1208,-496,1536,61,19,-8
12630,1208,-496,1536,61,18,-9
12635,1200,-520,1528,61,17,-9
12640,1208,-520,1528,62,17,-8
12645,1224,-496,1528,64,17,-10
12650,1208,-512,1528,66,16,-11
12655,1176,-512,1528,66,17,-10
12660,1192,-504,1536,68,16,-9
12665,1224,-496,1536,69,17,-9
12670,1224,-520,1536,70,17,-9
12675,1208,-512,1536,71,16,-8
12680,1200,-504,1528,71,15,-8
12685,1216,-504,1544,71,15,-9
12690,1200,-504,1528,72,14,-10
12695,1192,-520,1528,72,14,-10
12700,1224,-520,1552,71,13,-10
12705,1192,-520,1528,71,13,-9
12710,1200,-528,1552,70,13,-8
12715,1208,-512,1568,71,12,-10
12720,1200,-488,1536,70,12,-11
12725,1208,-504,1536,69,13,-9
12730,1192,-496,1552,69,14,-10
12735,1208,-480,1544,68,13,-10
12740,1224,-504,1544,68,15,-9
12745,1232,-496,1568,65,15,-9
12750,1176,-488,1528,64,18,-10
12755,1200,-504,1528,62,17,-9
12760,1208,-512,1528,58,18,-9
12765,1216,-480,1528,53,19,-9
12770,1224,-504,1504,46,18,-10
12775,1200,-488,1544,40,19,-10
12780,1208,-504,1544,33,18,-10
12785,1216,-504,1528,28,18,-10
12790,1208,-504,1536,28,17,-10
12795,1192,-480,1544,26,17,-11
12800,1184,-496,1552,27,16,-12
12805,1200,-512,1552,29,13,-10
12810,1200,-496,1504,31,13,-11
12815,1176,-480,1528,32,13,-11
12820,1192,-504,1528,33,12,-11
12825,1160,-512,1528,34,12,-10
12830,1216,-504,1544,34,10,-10
12835,1208,-496,1536,33,9,-9
12840,1184,-512,1528,34,8,-9
12845,1208,-512,1544,33,6,-10
12850,1208,-496,1560,33,2,-12
12855,1200,-496,1552,35,-3,-10
12860,1216,-520,1568,37,-8,-10
12865,1208,-520,1560,37,-12,-8
12870,1216,-504,1520,40,-13,-11
12875,1232,-520,1552,42,-15,-11
12880,1192,-536,1528,44,-16,-13
12885,1184,-504,1528,47,-15,-13
12890,1208,-504,1544,50,-13,-13
12895,1216,-520,1536,53,-11,-14
12900,1216,-520,1520,57,-6,-12
12905,1208,-512,1536,60,-1,-11
12910,1208,-512,1536,66,4,-10
12915,1200,-504,1512,70,8,-9
12920,1192,-480,1504,74,11,-10
12925,1216,-496,1528,79,13,-11
12930,1208,-512,1560,83,15,-11
12935,1200,-528,1528,84,16,-11
12940,1184,-496,1552,81,16,-13
12945,1192,-488,1536,75,16,-15
12950,1208,-480,1552,70,16,-15
12955,1200,-480,1536,59,17,-17
12960,1192,-472,1552,48,17,-18
12965,1200,-488,1536,37,17,-14
12970,1216,-480,1560,26,15,-14
12975,1216,-496,1560,16,14,-14
12980,1208,-488,1560,8,13,-13
12985,1200,-504,1568,2,13,-11
12990,1200,-456,1504,-2,13,-11
12995,1248,-520,1544,-4,12,-9
13000,1200,-512,1544,-8,10,-9
13005,1208,-528,1536,-9,9,-11
13010,1192,-496,1544,-10,9,-10
13015,1184,-504,1560,-10,8,-11
13020,1240,-520,1520,-10,6,-11
13025,1208,-496,1520,-11,5,-12
13030,1208,-512,1544,-12,3,-13
13035,1208,-512,1528,-14,1,-14
13040,1208,-512,1544,-18,0,-16
13045,1216,-536,1616,-19,-3,-16
13050,1216,-496,1520,-20,-4,-16
13055,1208,-488,1552,-19,-5,-16
13060,1216,-504,1536,-18,-4,-18
13065,1224,-520,1544,-17,-3,-17
13070,1192,-504,1512,-17,-2,-15
13075,1208,-504,1528,-16,0,-15
13080,1216,-520,1544,-16,3,-15
13085,1216,-536,1520,-14,6,-15
13090,1184,-512,1568,-13,8,-13
13095,1192,-528,1528,-10,10,-12
13100,1176,-528,1512,-7,14,-12
13105,1192,-488,1528,-4,16,-11
13110,1200,-552,1544,-4,18,-11
13115,1200,-512,1504,-3,20,-11
13120,1192,-504,1552,-4,21,-13
13125,1200,-512,1528,-8,24,-11
13130,1200,-512,1552,-14,24,-11
13135,1200,-544,1544,-16,22,-12
13140,1240,-552,1512,-18,21,-12
13145,1176,-488,1504,-19,18,-11
13150,1208,-552,1528,-20,15,-11
13155,1224,-528,1520,-19,11,-12
13160,1192,-504,1552,-19,9,-12
13165,1200,-512,1552,-18,10,-13
13170,1216,-520,1536,-19,7,-14
13175,1208,-528,1528,-23,5,-13
13180,1216,-520,1520,-26,4,-13
13185,1224,-520,1528,-30,1,-13
13190,1192,-520,1520,-33,0,-16
13195,1216,-544,1544,-36,-3,-17
13200,1216,-552,1552,-38,-5,-16
13205,1232,-536,1520,-39,-8,-17
13210,1208,-528,1536,-39,-9,-17
13215,1208,-536,1544,-38,-11,-16
13220,1216,-560,1528,-33,-13,-17
13225,1216,-560,1512,-31,-13,-18
13230,1200,-544,1536,-28,-13,-18
13235,1200,-528,1552,-25,-14,-19
13240,1208,-544,1528,-22,-11,-20
13245,1208,-528,1528,-21,-10,-20
13250,1208,-528,1544,-20,-11,-18
13255,1208,-544,1528,-22,-10,-20
13260,1160,-520,1536,-23,-6,-22
13265,1224,-536,1536,-27,-3,-19
13270,1200,-512,1528,-29,-3,-20
13275,1208,-528,1520,-31,-4,-17
13280,1184,-528,1536,-32,-3,-15
13285,1208,-536,1528,-34,-2,-18
13290,1216,-536,1504,-32,-3,-18
13295,1240,-520,1512,-31,-2,-17
13300,1216,-520,1512,-31,-1,-16
13305,1240,-536,1536,-30,-1,-18
13310,1208,-544,1528,-30,-1,-18
13315,1224,-568,1544,-32,-2,-16
13320,1208,-544,1512,-32,-2,-16
13325,1216,-544,1536,-33,-2,-15
13330,1216,-536,1528,-33,-3,-16
13335,1208,-536,1520,-34,-3,-15
13340,1216,-528,1536,-36,-4,-15
13345,1216,-552,1528,-34,-4,-14
13350,1200,-552,1528,-32,-4,-14
13355,1216,-544,1528,-27,-4,-14
13360,1224,-576,1504,-24,-5,-13
13365,1216,-568,1512,-21,-5,-14
13370,1184,-552,1464,-16,-4,-14
13375,1192,-552,1520,-13,-4,-14
13380,1232,-528,1480,-10,-3,-15
13385,1224,-544,1504,-8,-2,-14
13390,1216,-544,1512,-7,-1,-12
13395,1208,-536,1512,-4,0,-14
13400,1208,-528,1512,-3,0,-14
13405,1216,-560,1496,-3,0,-12
13410,1248,-544,1512,-2,1,-12
13415,1200,-536,1504,-2,3,-11
13420,1192,-536,1472,-1,3,-10
13425,1208,-584,1536,0,4,-9
13430,1200,-536,1512,2,4,-8
13435,1216,-552,1528,3,4,-9
13440,1232,-552,1488,9,4,-8
13445,1216,-576,1496,14,5,-7
13450,1200,-560,1488,18,7,-7
13455,1216,-552,1472,25,8,-8
13460,1256,-536,1480,32,9,-8
13465,1192,-560,1512,39,9,-8
13470,1184,-536,1504,45,9,-7
13475,1208,-600,1472,51,9,-7
13480,1240,-568,1520,56,9,-7
13485,1208,-544,1480,59,9,-8
13490,1216,-536,1520,62,9,-5
13495,1216,-544,1512,64,10,-10
13500,1200,-568,1496,64,9,-10
13505,1216,-544,1504,65,10,-11
13510,1200,-560,1488,64,10,-10
13515,1200,-576,1528,64,11,-11
13520,1216,-584,1504,64,14,-10
13525,1208,-544,1480,65,16,-10
13530,1192,-552,1536,67,20,-10
13535,1248,-584,1568,69,23,-10
13540,1208,-552,1496,72,25,-8
13545,1216,-544,1504,76,25,-9
13550,1216,-544,1512,79,25,-10
13555,1200,-568,1504,82,24,-9
13560,1216,-560,1496,85,24,-9
13565,1216,-568,1528,88,22,-10
13570,1232,-552,1512,89,20,-9
13575,1216,-560,1504,93,20,-10
13580,1200,-568,1488,96,21,-11
13585,1232,-552,1512,100,21,-9
13590,1264,-536,1496,103,20,-8
13595,1224,-536,1496,106,19,-8
13600,1208,-544,1512,107,20,-8
13605,1224,-528,1528,109,17,-7
13610,1200,-528,1528,109,14,-9
13615,1200,-528,1528,108,9,-9
13620,1192,-544,1512,108,7,-9
13625,1200,-552,1504,108,3,-9
13630,1216,-560,1528,107,1,-9
13635,1224,-560,1504,110,1,-9
13640,1208,-528,1496,113,1,-9
13645,1208,-584,1472,118,2,-11
13650,1224,-536,1472,125,6,-9
13655,1208,-568,1488,133,8,-8
13660,1240,-568,1464,142,11,-9
13665,1232,-560,1488,152,15,-8
13670,1200,-528,1480,164,19,-8
13675,1232,-552,1512,172,23,-9
13680,1224,-560,1528,179,24,-7
13685,1192,-536,1536,186,25,-9
13690,1216,-536,1504,190,27,-9
13695,1200,-560,1496,192,27,-10
13700,1240,-520,1520,192,28,-12
13705,1216,-528,1544,188,27,-11
13710,1216,-520,1552,180,26,-13
13715,1208,-520,1536,171,24,-12
13720,1224,-520,1536,160,21,-11
13725,1224,-504,1536,149,19,-9
13730,1216,-512,1496,140,17,-6
13735,1208,-528,1560,132,14,-7
13740,1248,-552,1528,126,13,-7
13745,1208,-528,1576,121,13,-6
13750,1208,-488,1520,119,13,-5
13755,1232,-528,1536,117,13,-4
13760,1216,-528,1528,118,14,-4
13765,1248,-536,1528,119,17,-4
13770,1200,-536,1536,119,18,-5
13775,1208,-528,1496,121,18,-6
13780,1232,-552,1536,122,18,-7
13785,1216,-512,1528,123,17,-6
13790,1208,-512,1528,123,17,-8
13795,1200,-528,1520,123,15,-7
13800,1200,-496,1520,124,14,-7
13805,1208,-528,1544,124,13,-7
13810,1192,-544,1552,125,12,-7
13815,1232,-528,1536,126,12,-8
13820,1208,-528,1504,129,12,-7
13825,1200,-504,1528,130,14,-8
13830,1232,-544,1544,132,15,-7
13835,1208,-512,1528,132,17,-6
13840,1232,-512,1520,132,19,-6
13845,1200,-496,1528,131,21,-7
13850,1208,-496,1512,130,21,-8
13855,1208,-512,1512,128,20,-7
13860,1240,-536,1552,125,21,-7
13865,1208,-504,1544,122,22,-6
13870,1208,-504,1528,118,23,-9
13875,1192,-512,1520,113,24,-7
13880,1208,-520,1536,108,24,-5
13885,1208,-528,1528,102,26,-6
13890,1232,-528,1544,96,28,-6
13895,1224,-504,1536,92,28,-6
13900,1208,-528,1536,90,28,-5
13905,1224,-504,1520,89,28,-7
13910,1216,-512,1496,88,28,-6
13915,1224,-520,1536,85,26,-7
13920,1208,-512,1536,84,24,-7
13925,1224,-528,1544,82,24,-8
13930,1208,-520,1544,80,23,-8
13935,1224,-520,1528,80,22,-8
13940,1200,-536,1544,79,21,-9
13945,1208,-512,1512,78,19,-9
13950,1232,-520,1560,79,18,-8
13955,1192,-528,1544,80,17,-10
13960,1216,-520,1544,80,15,-9
13965,1256,-520,1528,82,13,-9
13970,1224,-544,1536,84,15,-10
13975,1192,-520,1504,84,12,-10
13980,1216,-512,1536,87,12,-10
13985,1224,-528,1536,89,12,-10
13990,1216,-504,1536,90,12,-11
13995,1216,-512,1536,90,13,-15
14000,1208,-504,1544,91,13,-15
14005,1232,-520,1528,91,12,-13
14010,1216,-520,1544,89,12,-14
14015,1208,-496,1536,87,11,-14
14020,1184,-512,1528,85,11,-12
14025,1184,-472,1504,83,13,-13
14030,1208,-488,1536,81,15,-13
14035,1208,-504,1544,80,14,-13
14040,1216,-512,1528,79,15,-10
14045,1216,-512,1536,78,15,-11
14050,1208,-512,1536,79,15,-9
14055,1208,-504,1512,80,18,-9
14060,1216,-488,1544,81,19,-8
14065,1216,-512,1520,82,20,-10
14070,1216,-504,1544,84,20,-8
14075,1224,-512,1528,85,22,-9
14080,1184,-504,1520,87,21,-9
14085,1216,-512,1552,89,22,-8
14090,1216,-488,1544,89,22,-10
14095,1216,-504,1552,88,22,-12
14100,1208,-496,1536,86,22,-11
14105,1216,-496,1552,82,20,-10
14110,1200,-488,1520,80,21,-10
14115,1184,-496,1520,78,19,-10
14120,1216,-512,1544,75,19,-11
14125,1192,-480,1528,72,19,-10
14130,1216,-488,1552,71,20,-9
14135,1224,-480,1552,70,20,-9
14140,1224,-512,1552,66,21,-9
14145,1216,-496,1552,63,21,-10
14150,1256,-512,1544,61,21,-10
14155,1208,-504,1528,58,21,-11
14160,1200,-512,1520,59,22,-11
14165,1224,-504,1536,59,21,-11
14170,1192,-472,1560,61,19,-13
14175,1192,-496,1520,62,20,-13
14180,1192,-464,1568,62,21,-11
14185,1216,-480,1488,61,19,-13
14190,1216,-488,1568,59,20,-12
14195,1184,-480,1544,53,20,-13
14200,1208,-504,1544,46,18,-15
14205,1200,-480,1536,39,17,-14
14210,1208,-504,1536,30,16,-16
14215,1216,-496,1544,23,16,-17
14220,1232,-504,1528,15,15,-15
14225,1200,-504,1536,8,15,-17
14230,1192,-496,1568,0,15,-18
14235,1200,-496,1568,-6,14,-19
14240,1264,-528,1576,-11,9,-20
14245,1224,-504,1544,-15,4,-21
14250,1192,-496,1544,-19,0,-20
14255,1208,-512,1528,-22,-4,-20
14260,1208,-512,1536,-22,-11,-19
14265,1224,-520,1544,-20,-16,-19
14270,1200,-504,1536,-14,-20,-18
14275,1208,-536,1544,-7,-25,-19
14280,1184,-528,1544,1,-26,-20
14285,1192,-528,1504,13,-27,-19
14290,1200,-512,1528,24,-25,-20
14295,1208,-536,1536,34,-23,-20
14300,1192,-512,1520,42,-20,-21
14305,1192,-520,1528,46,-17,-21
14310,1208,-520,1544,45,-15,-21
14315,1192,-504,1528,44,-12,-21
14320,1208,-528,1528,40,-11,-20
14325,1184,-512,1552,38,-9,-19
14330,1184,-488,1504,35,-9,-20
14335,1208,-512,1576,34,-8,-19
14340,1224,-512,1560,33,-8,-18
14345,1208,-512,1544,32,-7,-16
14350,1176,-472,1544,32,-8,-15
14355,1216,-512,1544,32,-7,-16
14360,1224,-496,1544,33,-8,-15
14365,1200,-496,1536,34,-8,-15
14370,1208,-504,1528,36,-7,-15
14375,1216,-520,1528,36,-7,-14
14380,1240,-512,1544,37,-9,-15
14385,1224,-512,1536,39,-12,-13
14390,1192,-512,1528,41,-17,-14
14395,1224,-544,1544,44,-22,-14
14400,1216,-520,1560,47,-25,-15
14405,1184,-544,1512,49,-29,-16
14410,1224,-512,1536,50,-33,-17
14415,1232,-528,1552,49,-36,-19
14420,1224,-504,1528,50,-36,-19
14425,1240,-528,1520,50,-35,-19
14430,1232,-504,1536,49,-32,-20
14435,1248,-520,1520,51,-29,-21
14440,1280,-520,1512,53,-26,-19
14445,1224,-512,1512,55,-21,-19
14450,1216,-520,1504,59,-15,-18
14455,1256,-504,1504,62,-10,-21
14460,1216,-496,1520,65,-6,-21
14465,1240,-504,1504,68,-3,-21
14470,1232,-488,1528,70,1,-22
14475,1240,-496,1496,69,3,-23
14480,1224,-496,1544,67,3,-27
14485,1256,-488,1560,64,3,-28
14490,1240,-496,1536,57,2,-29
14495,1232,-488,1528,48,2,-30
14500,1224,-496,1536,39,0,-30
14505,1224,-520,1560,30,-3,-29
14510,1232,-504,1536,20,-5,-27
14515,1216,-456,1544,9,-7,-26
14520,1224,-480,1528,-2,-6,-28
14525,1224,-504,1536,-10,-6,-27
14530,1256,-512,1528,-18,-6,-28
14535,1232,-504,1496,-25,-7,-29
14540,1248,-504,1528,-31,-8,-29
14545,1224,-504,1520,-35,-7,-29
14550,1232,-488,1512,-40,-8,-31
14555,1240,-512,1488,-43,-9,-30
14560,1216,-544,1536,-46,-9,-31
14565,1232,-536,1536,-49,-9,-33
14570,1216,-544,1552,-51,-11,-33
14575,1248,-520,1536,-51,-9,-32
14580,1224,-536,1528,-50,-10,-34
14585,1240,-528,1528,-48,-9,-35
14590,1216,-512,1536,-47,-8,-34
14595,1224,-536,1520,-44,-6,-33
14600,1232,-528,1520,-40,-6,-31
14605,1216,-520,1528,-35,-5,-30
14610,1248,-520,1520,-30,-3,-30
14615,1216,-520,1520,-24,-2,-29
14620,1264,-552,1512,-18,0,-27
14625,1256,-544,1528,-12,1,-28
14630,1248,-520,1480,-7,3,-24
14635,1232,-528,1512,-4,4,-22
14640,1216,-520,1504,-1,8,-24
14645,1216,-520,1512,1,10,-22
14650,1224,-512,1496,2,12,-21
14655,1240,-528,1496,3,13,-20
14660,1224,-504,1504,2,15,-21
14665,1232,-512,1520,-1,18,-19
14670,1200,-520,1536,-4,17,-18
14675,1176,-528,1504,-8,16,-20
14680,1232,-528,1536,-11,16,-17
14685,1224,-536,1536,-13,16,-16
14690,1224,-544,1544,-12,17,-16
14695,1224,-520,1536,-11,18,-14
14700,1224,-536,1528,-10,18,-12
14705,1232,-520,1544,-8,16,-13
14710,1216,-520,1504,-9,17,-13
14715,1232,-512,1528,-9,14,-12
14720,1216,-528,1552,-10,12,-13
14725,1224,-544,1536,-10,11,-12
14730,1160,-520,1512,-11,8,-13
14735,1200,-536,1528,-14,6,-14
14740,1216,-512,1544,-15,1,-14
14745,1232,-520,1496,-17,-3,-13
14750,1224,-536,1512,-19,-7,-15
14755,1240,-568,1512,-20,-10,-16
14760,1240,-552,1520,-19,-13,-18
14765,1232,-552,1488,-20,-14,-18
14770,1192,-512,1496,-20,-14,-18
14775,1232,-536,1496,-20,-14,-18
14780,1192,-520,1520,-16,-13,-19
14785,1224,-608,1576,-17,-11,-19
14790,1224,-536,1512,-16,-10,-17
14795,1232,-520,1536,-16,-9,-17
14800,1232,-544,1528,-14,-7,-17
14805,1240,-528,1528,-15,-4,-17
14810,1248,-536,1512,-15,-5,-18
14815,1232,-520,1504,-16,-4,-15
14820,1248,-536,1504,-15,-5,-15
14825,1232,-544,1520,-15,-6,-13
14830,1272,-528,1512,-13,-7,-15
14835,1240,-544,1488,-10,-10,-15
14840,1224,-552,1488,-9,-11,-15
14845,1240,-528,1528,-8,-13,-16
14850,1216,-536,1504,-7,-14,-18
14855,1224,-528,1504,-7,-14,-19
14860,1232,-520,1520,-6,-14,-19
14865,1224,-536,1496,-7,-14,-20
14870,1232,-520,1512,-7,-14,-19
14875,1256,-528,1496,-8,-14,-19
14880,1216,-576,1528,-8,-13,-21
14885,1232,-560,1480,-9,-11,-19
14890,1216,-528,1496,-10,-13,-19
14895,1264,-544,1552,-11,-12,-20
14900,1240,-528,1528,-9,-12,-19
14905,1256,-544,1512,-9,-10,-18
14910,1248,-552,1480,-6,-10,-18
14915,1232,-552,1488,-5,-10,-16
14920,1224,-528,1504,-3,-10,-16
14925,1232,-560,1512,-1,-9,-17
14930,1248,-552,1512,1,-10,-17
14935,1216,-544,1520,4,-10,-17
14940,1224,-568,1472,3,-10,-16
14945,1232,-536,1512,4,-10,-16
14950,1192,-568,1536,3,-9,-17
14955,1232,-552,1512,2,-9,-17
14960,1232,-528,1464,0,-8,-16
14965,1256,-536,1464,-1,-7,-16
14970,1240,-568,1480,-3,-7,-17
14975,1200,-520,1464,-3,-6,-15
14980,1232,-552,1512,-3,-5,-17
14985,1256,-544,1520,-2,-4,-15
14990,1216,-544,1496,0,-5,-15
14995,1232,-528,1472,4,-5,-14
