timestamp,accel_x,accel_y,accel_z,gyro_x,gyro_y,gyro_z
0,128,-1608,1176,-29,17,-17
5,120,-1600,1144,-30,17,-18
10,96,-1608,1160,-31,18,-18
15,104,-1592,1200,-31,18,-18
20,128,-1584,1192,-33,20,-17
25,128,-1600,1224,-35,20,-15
30,120,-1584,1240,-36,23,-13
35,104,-1568,1200,-37,22,-13
40,128,-1584,1224,-36,23,-11
45,120,-1600,1176,-33,22,-9
50,120,-1608,1240,-30,20,-8
55,104,-1616,1208,-23,17,-8
60,136,-1640,1200,-18,13,-7
65,144,-1648,1192,-9,9,-6
70,112,-1624,1248,2,6,-7
75,88,-1640,1136,14,4,-6
80,112,-1680,1096,28,4,-9
85,120,-1656,1168,43,4,-9
90,128,-1640,1176,59,5,-7
95,112,-1616,1144,75,7,-7
100,120,-1640,1128,89,10,-5
105,112,-1592,1152,101,13,-6
110,120,-1584,1152,111,16,-1
115,104,-1560,1112,117,19,0
120,120,-1568,1128,121,21,1
125,112,-1560,1096,122,21,3
130,128,-1544,1072,120,21,2
135,104,-1544,1096,117,20,1
140,120,-1544,1128,109,18,0
145,112,-1560,1120,100,17,-3
150,112,-1536,1160,90,15,-4
155,104,-1544,1144,78,12,-7
160,128,-1544,1168,63,10,-10
165,96,-1536,1208,47,8,-8
170,104,-1544,1192,32,6,-9
175,136,-1544,1184,20,5,-7
180,120,-1568,1232,10,2,-9
185,120,-1592,1192,3,2,-11
190,112,-1568,1176,-1,3,-14
195,104,-1600,1200,-4,4,-16
200,96,-1600,1184,-2,5,-17
205,128,-1608,1176,3,7,-15
210,120,-1624,1168,10,8,-16
215,120,-1632,1192,21,8,-13
220,88,-1640,1152,35,7,-12
225,112,-1624,1168,52,9,-8
230,112,-1656,1176,68,9,-7
235,120,-1600,1168,81,12,-6
240,104,-1632,1176,93,15,-5
245,96,-1616,1184,102,18,-4
250,112,-1616,1192,112,19,-3
255,104,-1616,1152,122,21,-2
260,112,-1584,1144,131,22,-3
265,112,-1584,1120,140,25,-2
270,128,-1584,1160,145,26,-4
275,104,-1544,1128,144,24,-5
280,112,-1544,1104,139,22,-6
285,104,-1544,1160,129,22,-7
290,120,-1528,1104,115,18,-7
295,120,-1528,1136,100,18,-9
300,104,-1536,1144,85,15,-10
305,104,-1528,1136,70,14,-12
310,112,-1552,1120,56,13,-12
315,104,-1536,1152,45,15,-12
320,136,-1552,1128,34,15,-13
325,104,-1536,1144,26,15,-13
330,144,-1560,1176,19,14,-13
335,112,-1536,1160,12,12,-13
340,112,-1552,1136,8,12,-13
345,104,-1584,1168,5,9,-13
350,112,-1552,1160,1,8,-15
355,128,-1592,1184,-1,8,-14
360,112,-1568,1128,-3,8,-13
365,128,-1600,1168,-6,8,-14
370,96,-1592,1176,-6,10,-14
375,104,-1584,1160,-6,10,-13
380,112,-1600,1152,-7,12,-13
385,136,-1584,1216,-5,13,-11
390,96,-1592,1168,-6,15,-13
395,104,-1592,1144,-7,16,-12
400,128,-1584,1144,-10,17,-11
405,120,-1600,1208,-10,18,-11
410,104,-1592,1200,-14,19,-11
415,104,-1584,1144,-18,20,-9
420,128,-1592,1160,-20,19,-9
425,128,-1592,1160,-25,19,-9
430,112,-1576,1136,-27,18,-8
435,112,-1568,1144,-31,18,-9
440,144,-1576,1136,-36,18,-10
445,120,-1576,1168,-38,16,-11
450,80,-1560,1152,-39,14,-11
455,128,-1592,1184,-41,10,-11
460,112,-1576,1168,-42,9,-14
465,128,-1592,1160,-41,7,-12
470,104,-1576,1168,-42,4,-12
475,128,-1584,1136,-43,2,-12
480,104,-1600,1136,-43,2,-15
485,112,-1600,1144,-42,-1,-15
490,128,-1592,1160,-41,0,-17
495,128,-1616,1144,-41,-1,-16
500,80,-1560,1152,-43,1,-17
505,96,-1592,1144,-44,1,-16
510,120,-1600,1168,-41,3,-16
515,112,-1616,1200,-38,2,-18
520,112,-1600,1144,-34,3,-17
525,120,-1600,1152,-30,6,-15
530,112,-1592,1128,-25,8,-16
535,112,-1608,1168,-20,8,-16
540,112,-1616,1168,-15,8,-16
545,104,-1616,1152,-13,10,-16
550,120,-1608,1144,-9,10,-15
555,128,-1592,1104,-6,10,-15
560,120,-1616,1128,-4,11,-15
565,88,-1560,1128,-1,10,-15
570,96,-1600,1128,0,12,-15
575,104,-1592,1144,0,12,-14
580,120,-1600,1136,0,12,-14
585,104,-1616,1112,1,11,-14
590,112,-1592,1120,0,10,-15
595,112,-1600,1120,0,11,-14
600,120,-1616,1112,0,10,-15
605,144,-1608,1104,-1,11,-15
610,128,-1624,1120,0,10,-15
615,128,-1576,1096,-1,10,-14
620,112,-1624,1112,-1,8,-14
625,88,-1576,1120,0,8,-13
630,144,-1624,1104,-1,8,-11
635,128,-1608,1144,-1,8,-10
640,120,-1632,1136,-1,8,-12
645,120,-1592,1112,-1,6,-11
650,112,-1616,1104,-4,7,-11
655,136,-1600,1112,-7,7,-13
660,104,-1600,1112,-12,6,-15
665,136,-1616,1144,-17,6,-15
670,112,-1592,1112,-21,5,-16
675,56,-1616,1152,-25,7,-16
680,112,-1608,1136,-28,6,-17
685,120,-1592,1128,-31,7,-15
690,112,-1608,1128,-32,7,-16
695,144,-1608,1144,-31,8,-16
700,152,-1640,1136,-29,9,-14
705,88,-1624,1120,-30,10,-15
710,96,-1576,1112,-28,12,-13
715,128,-1664,1136,-25,11,-13
720,120,-1640,1128,-23,11,-12
725,88,-1632,1160,-20,13,-12
730,104,-1664,1088,-15,12,-11
735,112,-1624,1112,-12,12,-12
740,128,-1664,1136,-6,11,-10
745,136,-1648,1088,-1,10,-11
750,112,-1648,1112,5,9,-12
755,112,-1632,1088,11,8,-13
760,128,-1640,1120,16,6,-13
765,96,-1640,1088,21,4,-12
770,136,-1608,1072,26,3,-12
775,112,-1640,1112,30,2,-12
780,136,-1664,1112,32,1,-10
785,96,-1584,1064,33,2,-9
790,112,-1616,1096,33,0,-7
795,120,-1616,1096,31,1,-4
800,120,-1616,1104,28,1,-5
805,128,-1616,1104,26,4,-4
810,128,-1600,1096,25,4,-4
815,120,-1624,1080,21,5,-4
820,128,-1608,1144,18,6,-7
825,128,-1640,1096,17,9,-7
830,104,-1640,1064,14,8,-7
835,104,-1648,1072,15,8,-8
840,96,-1648,1112,15,9,-10
845,120,-1640,1064,17,11,-11
850,128,-1640,1112,17,11,-13
855,88,-1624,1104,20,10,-13
860,120,-1640,1096,20,10,-12
865,96,-1616,1088,21,10,-12
870,112,-1648,1088,23,8,-9
875,112,-1672,1128,22,8,-5
880,144,-1680,1096,25,7,-4
885,128,-1632,1136,26,7,-5
890,120,-1632,1096,26,7,-6
895,128,-1600,1120,27,7,-5
900,136,-1624,1104,27,6,-6
905,136,-1640,1104,27,7,-7
910,128,-1624,1104,29,7,-5
915,128,-1624,1080,32,6,-4
920,144,-1640,1112,34,4,0
925,128,-1632,1096,36,3,-2
930,152,-1656,1120,37,3,1
935,128,-1648,1080,39,3,3
940,136,-1656,1112,38,3,3
945,112,-1632,1112,38,4,4
950,128,-1648,1088,39,6,4
955,104,-1632,1088,42,5,4
960,112,-1640,1104,41,5,-1
965,120,-1624,1104,44,5,-2
970,112,-1616,1088,46,5,-5
975,96,-1624,1088,47,6,-8
980,104,-1592,1096,46,5,-11
985,96,-1648,1080,44,6,-12
990,112,-1608,1096,41,7,-14
995,88,-1608,1080,40,7,-17
1000,96,-1608,1056,39,9,-17
1005,104,-1632,1104,39,10,-17
1010,104,-1640,1064,41,12,-16
1015,112,-1640,1112,43,15,-14
1020,120,-1632,1080,46,16,-14
1025,104,-1632,1080,50,17,-12
1030,120,-1608,1104,53,18,-12
1035,128,-1648,1080,57,18,-11
1040,152,-1616,1112,63,18,-9
1045,104,-1616,1072,66,17,-8
1050,136,-1640,1104,68,17,-7
1055,96,-1592,1056,70,15,-7
1060,120,-1584,1080,69,14,-7
1065,112,-1592,1096,67,14,-6
1070,112,-1640,1096,63,12,-8
1075,120,-1576,1088,58,10,-8
1080,120,-1624,1104,51,10,-8
1085,120,-1600,1080,44,10,-10
1090,144,-1608,1120,33,10,-10
1095,112,-1600,1120,25,11,-9
1100,112,-1624,1080,17,10,-10
1105,96,-1576,1088,8,10,-9
1110,112,-1624,1088,1,10,-8
1115,104,-1600,1088,-5,12,-8
1120,136,-1632,1120,-9,11,-7
1125,112,-1616,1120,-12,11,-8
1130,144,-1624,1096,-13,11,-10
1135,104,-1632,1136,-14,11,-11
1140,104,-1632,1080,-13,12,-13
1145,112,-1624,1096,-12,10,-13
1150,144,-1656,1096,-10,10,-16
1155,104,-1624,1128,-7,10,-15
1160,120,-1648,1120,-3,9,-15
1165,112,-1632,1072,0,9,-14
1170,112,-1640,1096,5,11,-13
1175,112,-1648,1120,13,12,-11
1180,104,-1648,1096,20,11,-10
1185,96,-1664,1080,27,12,-10
1190,112,-1648,1096,33,11,-10
1195,112,-1632,1096,39,12,-8
1200,144,-1648,1096,43,11,-7
1205,96,-1624,1072,44,11,-9
1210,136,-1632,1104,45,11,-11
1215,96,-1648,1088,45,10,-10
1220,152,-1672,1120,44,10,-11
1225,120,-1608,1096,44,10,-13
1230,112,-1616,1072,42,9,-12
1235,112,-1624,1112,39,9,-14
1240,104,-1616,1072,37,10,-14
1245,112,-1624,1088,33,9,-13
1250,120,-1632,1088,30,12,-15
1255,120,-1640,1080,28,12,-14
1260,112,-1640,1096,26,13,-13
1265,96,-1616,1072,27,14,-13
1270,112,-1608,1064,28,14,-11
1275,104,-1624,1096,27,16,-11
1280,120,-1648,1080,28,17,-11
1285,112,-1632,1104,31,16,-12
1290,128,-1656,1064,33,15,-13
1295,128,-1656,1080,35,16,-13
1300,128,-1648,1088,38,13,-13
1305,144,-1672,1072,41,13,-12
1310,104,-1656,1072,46,12,-11
1315,136,-1664,1080,49,11,-13
1320,136,-1648,1096,55,10,-13
1325,136,-1640,1064,57,8,-14
1330,72,-1664,1104,61,8,-14
1335,128,-1648,1096,63,7,-13
1340,104,-1672,1088,66,7,-15
1345,112,-1640,1096,67,8,-13
1350,128,-1656,1056,68,8,-11
1355,112,-1632,1072,69,9,-10
1360,120,-1664,1096,68,10,-11
1365,96,-1648,1072,67,10,-10
1370,104,-1600,1072,64,12,-11
1375,128,-1656,1064,63,13,-11
1380,104,-1624,1064,61,13,-9
1385,80,-1624,1032,59,12,-9
1390,112,-1656,1064,56,13,-9
1395,136,-1632,1072,55,14,-9
1400,136,-1640,1064,54,13,-9
1405,104,-1632,1064,53,12,-9
1410,104,-1640,1080,53,13,-9
1415,128,-1648,1064,54,11,-8
1420,136,-1632,1072,53,11,-7
1425,112,-1648,1088,55,12,-5
1430,104,-1656,1064,56,11,-3
1435,128,-1632,1064,56,10,-2
1440,120,-1608,1040,55,11,-2
1445,104,-1648,1088,54,13,-4
1450,112,-1648,1104,53,13,-7
1455,120,-1632,1080,52,13,-8
1460,104,-1656,1088,53,14,-8
1465,96,-1648,1072,53,15,-9
1470,128,-1648,1088,56,16,-9
1475,128,-1680,1088,58,17,-11
1480,112,-1632,1088,59,18,-11
1485,128,-1664,1088,60,18,-12
1490,72,-1624,1128,60,16,-13
1495,120,-1648,1112,58,15,-13
1500,128,-1616,1088,57,15,-11
1505,120,-1640,1112,58,14,-11
1510,128,-1648,1096,63,14,-8
1515,144,-1672,1088,67,14,-6
1520,128,-1656,1112,71,13,-5
1525,112,-1616,1072,74,13,-4
1530,104,-1608,1088,75,13,-6
1535,120,-1616,1088,74,13,-7
1540,152,-1624,1120,74,14,-9
1545,120,-1632,1096,75,12,-9
1550,112,-1656,1120,77,10,-7
1555,128,-1640,1088,79,9,-7
1560,104,-1640,1096,83,9,-5
1565,120,-1616,1088,87,9,-4
1570,144,-1632,1088,88,9,-4
1575,120,-1640,1096,88,10,-3
1580,88,-1608,1096,88,12,-5
1585,120,-1632,1072,86,14,-6
1590,128,-1664,1096,85,15,-6
1595,120,-1656,1096,86,16,-9
1600,48,-1624,1072,85,17,-11
1605,96,-1632,1080,85,18,-13
1610,112,-1624,1072,84,17,-15
1615,104,-1592,1096,81,19,-15
1620,96,-1616,1104,78,19,-16
1625,80,-1616,1112,72,19,-17
1630,104,-1608,1120,67,17,-17
1635,120,-1640,1072,62,18,-17
1640,96,-1600,1128,59,19,-16
1645,104,-1624,1080,57,19,-16
1650,96,-1624,1088,55,19,-14
1655,128,-1656,1088,54,19,-13
1660,104,-1632,1080,55,18,-11
1665,120,-1632,1096,55,17,-12
1670,96,-1608,1104,56,18,-10
1675,120,-1640,1120,57,15,-9
1680,120,-1648,1104,57,15,-7
1685,104,-1648,1104,59,14,-7
1690,120,-1608,1064,59,13,-5
1695,144,-1648,1088,60,11,-7
1700,120,-1600,1072,61,10,-8
1705,136,-1640,1120,62,10,-8
1710,112,-1632,1096,62,10,-7
1715,112,-1624,1096,63,9,-7
1720,88,-1616,1088,62,11,-8
1725,120,-1632,1080,61,10,-8
1730,104,-1616,1112,59,11,-7
1735,112,-1592,1080,57,11,-7
1740,120,-1640,1112,56,11,-8
1745,128,-1624,1072,55,13,-7
1750,96,-1632,1064,54,14,-8
1755,152,-1648,1072,56,15,-7
1760,96,-1616,1112,56,14,-5
1765,136,-1648,1080,56,14,-7
1770,136,-1648,1112,54,16,-10
1775,112,-1624,1064,53,15,-10
1780,136,-1640,1096,53,14,-10
1785,112,-1616,1112,51,14,-12
1790,112,-1616,1080,49,12,-13
1795,120,-1616,1080,46,12,-11
1800,112,-1632,1096,45,12,-10
1805,120,-1648,1152,45,10,-11
1810,120,-1640,1096,47,9,-10
1815,104,-1632,1104,50,8,-9
1820,160,-1632,1120,54,8,-8
1825,104,-1600,1080,56,9,-8
1830,120,-1640,1088,59,9,-9
1835,96,-1624,1080,62,11,-9
1840,136,-1616,1096,63,11,-11
1845,136,-1648,1088,64,10,-8
1850,104,-1632,1112,63,11,-10
1855,136,-1656,1080,62,12,-11
1860,128,-1648,1096,60,10,-13
1865,104,-1600,1104,58,10,-14
1870,112,-1624,1104,58,10,-15
1875,96,-1648,1088,56,10,-15
1880,136,-1616,1104,54,11,-15
1885,104,-1624,1088,52,12,-16
1890,128,-1656,1088,52,12,-14
1895,96,-1616,1128,50,12,-14
1900,112,-1624,1104,49,14,-13
1905,128,-1624,1088,50,15,-12
1910,136,-1616,1104,51,17,-12
1915,136,-1616,1064,51,16,-12
1920,112,-1632,1104,51,15,-11
1925,112,-1616,1136,53,15,-11
1930,96,-1608,1152,52,15,-13
1935,96,-1616,1128,55,15,-14
1940,112,-1608,1088,56,14,-12
1945,136,-1632,1096,57,13,-14
1950,128,-1624,1104,59,14,-14
1955,104,-1624,1104,61,13,-14
1960,128,-1640,1104,62,13,-16
1965,120,-1648,1104,64,12,-14
1970,96,-1616,1096,64,12,-13
1975,120,-1664,1080,65,13,-12
1980,112,-1632,1104,65,12,-11
1985,152,-1624,1048,65,13,-11
1990,104,-1648,1120,64,14,-12
1995,112,-1648,1088,63,13,-12
2000,120,-1624,1104,64,14,-12
2005,104,-1632,1128,65,13,-13
2010,136,-1616,1128,64,14,-14
2015,112,-1624,1088,64,14,-14
2020,64,-1624,1128,64,13,-15
2025,136,-1632,1096,65,12,-18
2030,88,-1624,1064,66,12,-18
2035,80,-1608,1072,66,12,-16
2040,88,-1616,1088,66,13,-16
2045,120,-1624,1080,67,13,-14
2050,112,-1648,1088,67,13,-11
2055,128,-1600,1088,66,15,-11
2060,96,-1624,1104,65,16,-7
2065,128,-1624,1080,64,16,-8
2070,96,-1624,1080,62,17,-7
2075,128,-1616,1120,58,17,-5
2080,128,-1632,1128,56,16,-6
2085,112,-1600,1136,52,16,-8
2090,104,-1656,1144,52,16,-8
2095,104,-1624,1088,51,14,-8
2100,128,-1632,1096,50,14,-12
2105,104,-1624,1104,51,14,-12
2110,88,-1616,1080,52,13,-15
2115,112,-1624,1112,54,12,-16
2120,112,-1640,1096,54,10,-16
2125,112,-1648,1104,56,10,-17
2130,120,-1624,1112,59,9,-17
2135,144,-1624,1112,61,9,-14
2140,128,-1648,1104,63,9,-13
2145,176,-1648,1088,64,10,-11
2150,128,-1608,1120,65,11,-12
2155,104,-1624,1112,63,13,-12
2160,136,-1624,1096,61,15,-15
2165,152,-1632,1080,61,16,-17
2170,120,-1616,1112,62,16,-18
2175,128,-1640,1096,66,16,-17
2180,112,-1640,1104,72,15,-16
2185,144,-1656,1104,78,13,-14
2190,128,-1648,1072,86,13,-11
2195,112,-1616,1096,91,13,-8
2200,112,-1696,1080,95,13,-7
2205,112,-1632,1136,96,13,-6
2210,136,-1648,1104,97,16,-5
2215,128,-1632,1104,99,18,-6
2220,104,-1624,1072,102,20,-5
2225,96,-1608,1072,104,20,-6
2230,104,-1624,1056,105,20,-7
2235,136,-1600,1120,106,20,-8
2240,136,-1656,1088,106,21,-10
2245,88,-1584,1072,105,22,-12
2250,96,-1608,1080,101,22,-13
2255,112,-1592,1064,97,21,-13
2260,120,-1592,1088,92,21,-13
2265,120,-1600,1088,85,22,-13
2270,104,-1592,1104,81,23,-14
2275,120,-1600,1104,76,23,-13
2280,128,-1608,1104,71,25,-13
2285,112,-1600,1096,69,25,-13
2290,120,-1592,1112,67,25,-12
2295,96,-1616,1120,63,26,-11
2300,88,-1616,1112,61,26,-13
2305,144,-1632,1112,60,25,-14
2310,96,-1616,1080,57,24,-13
2315,136,-1624,1088,56,23,-12
2320,112,-1616,1120,56,20,-13
2325,128,-1640,1104,55,20,-11
2330,112,-1616,1112,55,19,-11
2335,112,-1632,1104,56,18,-11
2340,112,-1632,1144,57,17,-10
2345,80,-1624,1104,56,16,-10
2350,128,-1632,1104,56,16,-11
2355,104,-1608,1128,58,14,-9
2360,104,-1624,1104,59,14,-10
2365,88,-1688,1184,59,15,-12
2370,104,-1624,1104,61,14,-13
2375,128,-1632,1104,61,14,-11
2380,112,-1624,1096,62,14,-10
2385,136,-1616,1104,62,14,-8
2390,120,-1624,1104,63,14,-9
2395,120,-1608,1112,63,15,-10
2400,120,-1624,1112,63,15,-9
2405,88,-1608,1104,62,15,-10
2410,104,-1616,1088,61,15,-11
2415,104,-1608,1112,59,15,-11
2420,128,-1592,1048,58,14,-11
2425,104,-1608,1136,57,12,-12
2430,96,-1584,1096,56,14,-10
2435,128,-1656,1128,56,15,-9
2440,96,-1616,1104,56,14,-9
2445,104,-1624,1104,56,13,-10
2450,104,-1592,1104,58,11,-8
2455,112,-1608,1136,57,12,-8
2460,120,-1608,1136,57,10,-8
2465,128,-1624,1128,57,10,-8
2470,120,-1624,1096,58,11,-9
2475,144,-1648,1112,58,11,-8
2480,96,-1592,1136,57,10,-9
2485,104,-1600,1120,57,10,-10
2490,88,-1608,1088,57,9,-10
2495,136,-1640,1136,56,9,-10
2500,104,-1584,1112,54,9,-11
2505,104,-1624,1128,51,8,-13
2510,112,-1608,1096,51,9,-14
2515,136,-1608,1136,48,9,-15
2520,96,-1600,1112,49,10,-15
2525,160,-1616,1096,47,11,-18
2530,128,-1656,1152,48,12,-18
2535,104,-1616,1128,48,14,-17
2540,104,-1608,1144,48,14,-14
2545,112,-1616,1104,48,14,-14
2550,152,-1640,1112,47,16,-14
2555,104,-1608,1088,48,15,-13
2560,96,-1616,1112,48,14,-14
2565,136,-1600,1112,48,15,-13
2570,112,-1600,1096,48,14,-14
2575,104,-1632,1104,48,13,-14
2580,64,-1592,1104,50,12,-13
2585,112,-1624,1120,50,12,-12
2590,104,-1624,1128,51,11,-13
2595,104,-1600,1104,52,11,-13
2600,112,-1624,1104,51,11,-12
2605,112,-1608,1104,54,9,-12
2610,120,-1624,1080,53,11,-11
2615,104,-1616,1128,54,12,-11
2620,128,-1632,1128,54,12,-12
2625,120,-1584,1128,55,11,-10
2630,104,-1616,1112,57,12,-10
2635,112,-1560,1080,57,12,-11
2640,120,-1624,1112,57,12,-12
2645,112,-1616,1096,56,11,-12
2650,144,-1608,1080,56,13,-12
2655,120,-1624,1104,54,13,-12
2660,152,-1640,1104,54,13,-10
2665,144,-1632,1104,54,13,-13
2670,112,-1616,1144,54,13,-12
2675,104,-1600,1112,54,12,-11
2680,112,-1616,1104,55,12,-10
2685,104,-1584,1096,55,13,-10
2690,144,-1648,1128,56,14,-8
2695,112,-1616,1096,57,14,-7
2700,128,-1616,1112,55,13,-6
2705,96,-1608,1120,54,13,-4
2710,136,-1624,1128,51,14,-4
2715,112,-1616,1128,49,13,-5
2720,120,-1616,1112,46,12,-5
2725,112,-1600,1120,42,12,-5
2730,112,-1632,1136,41,12,-5
2735,120,-1624,1112,40,10,-7
2740,120,-1616,1136,41,10,-8
2745,72,-1656,1136,41,9,-10
2750,88,-1616,1104,43,10,-12
2755,104,-1608,1096,45,8,-12
2760,128,-1632,1112,47,8,-14
2765,120,-1656,1104,51,8,-15
2770,96,-1632,1088,57,8,-13
2775,104,-1640,1112,60,7,-10
2780,104,-1608,1096,62,7,-9
2785,112,-1632,1128,62,10,-10
2790,96,-1608,1120,59,12,-13
2795,120,-1584,1144,56,13,-16
2800,96,-1608,1088,52,14,-18
2805,112,-1584,1136,51,13,-19
2810,96,-1600,1120,50,14,-20
2815,128,-1608,1128,51,13,-19
2820,136,-1608,1112,53,12,-18
2825,128,-1656,1104,58,10,-15
2830,128,-1648,1128,63,7,-12
2835,96,-1616,1144,68,7,-10
2840,112,-1632,1080,72,7,-8
2845,96,-1656,1136,77,8,-5
2850,144,-1624,1136,80,11,-3
2855,144,-1664,1120,82,13,-2
2860,128,-1632,1112,86,14,0
2865,112,-1624,1104,90,14,-1
2870,136,-1648,1120,90,14,-2
2875,104,-1616,1104,90,12,-6
2880,112,-1616,1104,87,11,-9
2885,112,-1592,1080,82,12,-9
2890,112,-1640,1112,76,12,-10
2895,112,-1616,1072,72,12,-12
2900,136,-1600,1112,68,11,-11
2905,96,-1584,1128,63,13,-11
2910,32,-1576,1136,59,14,-10
2915,120,-1608,1096,56,16,-12
2920,88,-1608,1128,52,18,-12
2925,104,-1608,1120,50,20,-11
2930,112,-1608,1120,47,21,-10
2935,112,-1600,1112,48,22,-11
2940,120,-1624,1128,47,22,-11
2945,112,-1624,1096,47,22,-12
2950,112,-1624,1136,49,20,-10
2955,104,-1624,1128,49,20,-12
2960,120,-1616,1152,48,18,-11
2965,120,-1616,1136,50,17,-13
2970,128,-1616,1096,49,15,-12
2975,112,-1632,1144,49,13,-13
2980,120,-1616,1120,52,13,-11
2985,104,-1608,1104,53,12,-11
2990,104,-1624,1112,55,11,-12
2995,112,-1616,1104,56,11,-13
3000,104,-1608,1072,57,10,-13
3005,128,-1616,1136,58,11,-12
3010,120,-1624,1168,57,11,-10
3015,112,-1616,1088,58,12,-11
3020,104,-1664,1112,58,13,-10
3025,128,-1608,1120,58,13,-7
3030,104,-1608,1088,56,14,-10
3035,112,-1600,1136,57,14,-11
3040,96,-1600,1128,56,13,-12
3045,128,-1584,1096,56,11,-12
3050,120,-1624,1120,56,12,-12
3055,128,-1608,1104,56,11,-13
3060,144,-1632,1112,56,10,-13
3065,112,-1592,1120,58,10,-13
3070,128,-1656,1104,58,11,-9
3075,160,-1640,1120,58,9,-11
3080,112,-1600,1128,57,10,-8
3085,128,-1600,1104,56,10,-9
3090,120,-1608,1144,55,10,-9
3095,120,-1592,1128,54,9,-9
3100,112,-1616,1112,52,10,-9
3105,120,-1608,1096,51,10,-7
3110,104,-1608,1096,51,9,-5
3115,128,-1616,1144,48,8,-6
3120,136,-1624,1136,47,8,-6
3125,72,-1656,1080,45,7,-7
3130,96,-1616,1120,42,7,-8
3135,128,-1616,1120,39,5,-10
3140,112,-1592,1104,36,6,-10
3145,96,-1632,1104,34,6,-12
3150,104,-1608,1128,33,5,-13
3155,104,-1584,1120,30,6,-13
3160,128,-1616,1152,31,7,-13
3165,96,-1616,1144,28,9,-14
3170,96,-1624,1144,28,8,-15
3175,72,-1608,1128,28,9,-15
3180,136,-1624,1096,28,9,-15
3185,136,-1608,1096,28,10,-15
3190,96,-1592,1096,27,11,-13
3195,104,-1600,1120,30,11,-13
3200,128,-1624,1128,29,11,-14
3205,112,-1632,1128,30,10,-11
3210,104,-1600,1128,30,11,-11
3215,120,-1624,1128,30,8,-11
3220,128,-1624,1104,32,7,-12
3225,144,-1600,1096,33,7,-11
3230,104,-1608,1104,34,6,-13
3235,80,-1592,1056,35,5,-11
3240,120,-1616,1120,35,5,-11
3245,120,-1608,1096,36,4,-11
3250,128,-1616,1120,36,4,-10
3255,128,-1640,1112,37,4,-11
3260,104,-1600,1120,38,5,-11
3265,112,-1640,1112,37,4,-11
3270,104,-1608,1088,37,5,-11
3275,112,-1624,1120,37,5,-12
3280,96,-1640,1144,35,6,-9
3285,128,-1624,1056,33,6,-10
3290,104,-1656,1032,33,7,-10
3295,104,-1608,1112,31,7,-10
3300,144,-1648,1104,29,6,-9
3305,104,-1608,1136,28,6,-8
3310,104,-1608,1080,27,6,-9
3315,128,-1624,1128,26,6,-10
3320,128,-1624,1096,28,6,-12
3325,136,-1656,1072,29,4,-14
3330,128,-1648,1088,34,4,-12
3335,120,-1616,1088,41,5,-13
3340,120,-1632,1064,49,3,-12
3345,120,-1648,1048,56,5,-12
3350,120,-1656,1072,63,6,-10
3355,104,-1640,1096,66,7,-8
3360,120,-1632,1072,68,7,-6
3365,96,-1608,1104,66,6,-4
3370,128,-1600,1072,59,6,-4
3375,128,-1600,1096,52,6,-3
3380,136,-1632,1096,43,7,-2
3385,96,-1576,1088,35,9,-3
3390,120,-1576,1096,27,9,-5
3395,136,-1600,1128,22,10,-6
3400,104,-1584,1080,18,11,-8
3405,104,-1608,1120,13,10,-10
3410,128,-1624,1120,11,9,-11
3415,112,-1592,1136,10,8,-12
3420,104,-1616,1112,10,6,-15
3425,104,-1632,1144,10,7,-16
3430,136,-1632,1144,14,6,-13
3435,104,-1624,1152,16,5,-12
3440,112,-1624,1120,20,5,-12
3445,120,-1648,1136,22,5,-9
3450,104,-1640,1072,24,5,-9
3455,96,-1648,1136,26,6,-11
3460,120,-1624,1120,27,6,-12
3465,136,-1624,1112,28,5,-14
3470,120,-1600,1096,30,7,-14
3475,144,-1608,1120,32,8,-13
3480,128,-1616,1120,36,6,-10
3485,136,-1608,1128,42,5,-7
3490,144,-1648,1144,49,4,-4
3495,128,-1640,1096,56,3,-2
3500,144,-1640,1088,62,2,1
3505,152,-1648,1136,64,3,3
3510,144,-1648,1128,65,4,5
3515,136,-1648,1104,64,6,4
3520,112,-1632,1112,63,7,4
3525,120,-1616,1104,62,9,2
3530,128,-1632,1088,61,10,2
3535,120,-1608,1088,61,10,0
3540,120,-1624,1088,59,9,-5
3545,112,-1600,1080,57,8,-8
3550,96,-1568,1104,50,6,-11
3555,120,-1640,1056,43,5,-10
3560,112,-1616,1080,34,4,-14
3565,88,-1608,1064,26,4,-15
3570,80,-1568,1112,18,4,-15
3575,104,-1600,1080,10,5,-16
3580,96,-1592,1104,4,7,-14
3585,112,-1624,1112,0,8,-14
3590,112,-1624,1080,-3,10,-14
3595,104,-1608,1112,-7,10,-15
3600,128,-1624,1088,-10,11,-14
3605,128,-1608,1112,-12,11,-14
3610,112,-1632,1120,-16,10,-15
3615,144,-1664,1088,-17,8,-12
3620,112,-1624,1088,-18,6,-12
3625,128,-1648,1120,-16,3,-11
3630,88,-1608,1104,-14,-1,-12
3635,112,-1648,1104,-11,-6,-11
3640,96,-1632,1096,-6,-8,-11
3645,88,-1624,1112,1,-12,-13
3650,80,-1664,1080,4,-17,-16
3655,88,-1640,1080,9,-23,-19
3660,112,-1664,1096,9,-26,-22
3665,104,-1664,1064,8,-28,-28
3670,80,-1568,1040,7,-29,-29
3675,64,-1648,1048,8,-29,-31
3680,80,-1648,1056,9,-27,-31
3685,96,-1656,1064,10,-26,-32
3690,96,-1632,1064,12,-22,-28
3695,104,-1656,1056,11,-17,-26
3700,96,-1616,1032,11,-14,-25
3705,104,-1632,1096,12,-10,-24
3710,88,-1632,1048,13,-7,-23
3715,136,-1608,1088,12,-4,-21
3720,104,-1608,1088,11,-2,-16
3725,120,-1592,1064,9,-1,-10
3730,120,-1608,1112,10,0,-4
3735,136,-1616,1096,13,0,-1
3740,112,-1608,1144,19,-1,3
3745,128,-1608,1144,26,-5,4
3750,144,-1600,1104,29,-6,3
3755,168,-1608,1080,25,-8,1
3760,248,-1656,1136,22,-8,-1
3765,184,-1592,1088,23,-4,-6
3770,184,-1640,1112,23,0,-6
3775,184,-1624,1096,19,5,-6
3780,136,-1592,1056,18,8,-4
3785,152,-1592,1072,14,9,-3
3790,136,-1616,1112,12,9,-2
3795,160,-1608,1080,6,10,0
3800,136,-1600,1088,3,11,1
3805,136,-1608,1128,-1,12,3
3810,136,-1616,1128,-6,13,7
3815,136,-1640,1112,-8,16,9
3820,120,-1656,1128,-12,15,16
3825,120,-1664,1088,-11,14,18
3830,152,-1664,1128,-9,14,19
3835,168,-1688,1088,-7,13,18
3840,136,-1648,1072,-3,12,18
3845,160,-1664,1056,1,13,16
3850,168,-1656,1112,4,12,13
3855,152,-1640,1080,8,11,11
3860,168,-1656,1072,10,9,8
3865,168,-1648,1064,13,8,6
3870,176,-1672,1104,14,8,1
3875,160,-1616,1048,16,7,-2
3880,168,-1640,1080,19,7,-3
3885,176,-1672,1088,22,9,-4
3890,120,-1632,1040,25,10,-2
3895,120,-1624,1072,26,11,0
3900,160,-1656,1072,26,12,-3
3905,120,-1624,1064,26,12,-4
3910,128,-1640,1064,24,13,-5
3915,136,-1664,1080,22,14,-6
3920,120,-1680,1080,20,15,-7
3925,120,-1656,1056,17,16,-6
3930,104,-1624,1040,15,17,-7
3935,112,-1632,1040,12,18,-6
3940,112,-1680,1072,10,16,-7
3945,192,-1624,984,8,16,-8
3950,104,-1648,1088,7,15,-7
3955,104,-1656,1064,5,13,-8
3960,96,-1640,1048,2,11,-9
3965,88,-1656,1072,0,10,-10
3970,112,-1656,1072,0,9,-10
3975,88,-1664,1080,-2,7,-10
3980,72,-1640,1056,-2,6,-12
3985,88,-1648,1080,-3,5,-14
3990,96,-1664,1112,-1,3,-15
3995,96,-1672,1032,2,1,-16
4000,72,-1680,1024,6,1,-17
4005,112,-1688,1056,9,3,-17
4010,104,-1656,1048,10,3,-20
4015,96,-1688,1040,10,6,-19
4020,88,-1664,1032,7,10,-15
4025,80,-1680,1056,6,16,-10
4030,88,-1672,1040,3,22,-11
4035,80,-1688,1040,2,23,-9
4040,96,-1720,984,2,18,1
4045,112,-1784,1008,2,9,8
4050,112,-1736,968,0,4,12
4055,64,-1664,1032,8,5,14
4060,128,-1616,1088,19,6,14
4065,104,-1624,1080,43,4,10
4070,96,-1616,1072,62,1,10
4075,104,-1640,1080,65,-3,13
4080,80,-1608,1016,61,-8,17
4085,96,-1648,1040,63,-17,18
4090,96,-1640,1040,71,-20,19
4095,80,-1672,1080,83,-19,21
4100,120,-1648,1056,97,-11,17
4105,136,-1624,1056,107,2,11
4110,136,-1624,1064,107,19,3
4115,112,-1592,1072,104,28,0
4120,136,-1584,1040,96,34,-7
4125,160,-1608,1064,86,40,-12
4130,176,-1584,1104,78,44,-14
4135,128,-1600,1064,72,45,-16
4140,160,-1592,1032,65,45,-14
4145,184,-1640,1072,55,43,-15
4150,160,-1624,1072,45,40,-16
4155,136,-1664,1056,38,34,-15
4160,136,-1704,1056,34,27,-13
4165,144,-1688,1048,33,20,-12
4170,120,-1672,1056,34,13,-13
4175,144,-1688,1040,37,10,-14
4180,120,-1704,1048,41,10,-17
4185,136,-1672,1072,45,9,-20
4190,112,-1656,1040,53,10,-24
4195,120,-1664,1072,57,10,-26
4200,120,-1696,1080,64,13,-27
4205,120,-1664,1072,73,14,-28
4210,136,-1672,1088,82,15,-30
4215,128,-1672,1096,90,17,-25
4220,112,-1696,1072,101,24,-23
4225,136,-1704,1096,109,29,-21
4230,112,-1656,1080,119,27,-21
4235,104,-1672,1088,129,25,-22
4240,120,-1656,1080,136,26,-23
4245,120,-1672,1072,141,26,-26
4250,128,-1648,1048,143,26,-28
4255,120,-1616,1080,142,26,-32
4260,160,-1656,1056,138,28,-35
4265,144,-1656,1088,133,30,-37
4270,88,-1624,1072,127,32,-43
4275,128,-1624,1080,120,33,-46
4280,120,-1592,1104,113,31,-50
4285,120,-1608,1056,107,34,-50
4290,136,-1624,1112,101,34,-52
4295,176,-1624,1080,93,34,-54
4300,152,-1608,1080,88,32,-57
4305,144,-1592,1088,83,34,-58
4310,128,-1608,1096,77,34,-61
4315,128,-1648,1064,75,34,-64
4320,160,-1648,1064,75,33,-66
4325,88,-1656,1096,76,32,-64
4330,112,-1640,1080,77,31,-66
4335,112,-1648,1072,76,30,-65
4340,104,-1648,1072,73,29,-64
4345,96,-1640,1064,71,27,-63
4350,88,-1640,1040,69,25,-61
4355,88,-1680,1032,64,23,-58
4360,96,-1680,1048,59,20,-51
4365,88,-1648,1080,57,19,-46
4370,104,-1624,1056,55,18,-41
4375,112,-1672,1048,56,18,-36
4380,128,-1672,984,60,19,-33
4385,112,-1656,1056,70,22,-30
4390,136,-1664,1056,81,24,-29
4395,120,-1656,1056,94,28,-28
4400,128,-1648,1048,106,32,-32
4405,120,-1672,1080,119,35,-36
4410,144,-1656,1080,133,38,-42
4415,160,-1688,1088,145,41,-49
4420,112,-1648,1080,155,43,-58
4425,112,-1616,1040,163,44,-66
4430,160,-1672,1080,169,48,-74
4435,160,-1648,1104,169,51,-82
4440,168,-1640,1048,165,55,-88
4445,144,-1584,1088,155,60,-93
4450,136,-1608,1064,141,64,-96
4455,136,-1616,1104,126,65,-101
4460,128,-1616,1088,113,63,-107
4465,112,-1624,1072,101,60,-111
4470,72,-1600,1080,95,53,-116
4475,104,-1608,1112,92,44,-120
4480,48,-1632,1064,89,36,-125
4485,40,-1608,1072,85,27,-131
4490,32,-1640,1056,81,19,-131
4495,40,-1584,1056,80,11,-133
4500,40,-1608,1056,81,2,-133
4505,56,-1624,1056,79,-1,-134
4510,40,-1624,1064,73,-4,-130
4515,48,-1608,1072,68,-6,-123
4520,48,-1608,1064,69,-8,-114
4525,64,-1632,1104,72,-6,-103
4530,64,-1680,1080,73,0,-88
4535,64,-1672,1112,72,4,-77
4540,96,-1696,1120,72,3,-66
4545,192,-1728,1096,74,7,-50
4550,144,-1680,1120,73,8,-36
4555,136,-1672,1120,72,2,-25
4560,152,-1696,1120,75,-7,-16
4565,152,-1664,1104,78,-14,-7
4570,184,-1648,1136,78,-22,-1
4575,144,-1656,1112,80,-29,3
4580,120,-1616,1072,79,-37,5
4585,112,-1600,1072,74,-47,9
4590,176,-1608,1096,65,-55,12
4595,192,-1608,1064,56,-61,13
4600,176,-1600,1040,48,-60,15
4605,200,-1568,1088,36,-57,19
4610,200,-1560,1088,25,-53,25
4615,200,-1544,1072,9,-47,31
4620,240,-1552,1056,-6,-43,37
4625,256,-1576,1096,-22,-39,41
4630,216,-1576,1080,-34,-33,46
4635,232,-1584,1120,-47,-25,49
4640,216,-1552,1072,-58,-20,50
4645,208,-1560,1080,-67,-15,50
4650,216,-1592,1096,-79,-13,50
4655,192,-1592,1072,-90,-7,50
4660,192,-1616,1104,-99,-2,49
4665,168,-1608,1056,-104,-1,47
4670,168,-1624,1064,-106,0,44
4675,152,-1616,1072,-105,-3,42
4680,136,-1624,1056,-102,-9,39
4685,128,-1656,1056,-100,-14,36
4690,160,-1656,1064,-100,-18,34
4695,168,-1640,1016,-101,-21,31
4700,160,-1672,1032,-103,-17,28
4705,120,-1656,992,-104,-11,22
4710,168,-1656,1008,-103,-1,18
4715,168,-1688,992,-102,11,13
4720,160,-1680,1024,-98,25,9
4725,176,-1672,1016,-88,39,4
4730,184,-1696,1040,-72,52,3
4735,200,-1712,1040,-53,59,8
4740,192,-1728,1056,-28,63,13
4745,192,-1736,1088,0,63,21
4750,184,-1712,1064,26,62,33
4755,200,-1736,1064,50,60,43
4760,232,-1728,1088,73,58,51
4765,176,-1736,1112,95,56,56
4770,160,-1688,1120,114,53,59
4775,168,-1672,1128,128,47,59
4780,144,-1632,1144,136,36,55
4785,120,-1584,1152,137,24,49
4790,136,-1544,1088,125,12,40
4795,168,-1544,1080,108,4,27
4800,128,-1496,1080,84,0,12
4805,168,-1480,1040,51,-2,-4
4810,208,-1472,1024,13,3,-18
4815,208,-1488,1032,-26,13,-33
4820,184,-1496,1032,-63,27,-47
4825,224,-1512,1072,-97,43,-57
4830,224,-1568,1080,-124,58,-68
4835,224,-1576,1128,-144,70,-76
4840,240,-1624,1144,-158,75,-83
4845,224,-1648,1120,-167,78,-89
4850,224,-1672,1120,-174,76,-94
4855,248,-1720,1152,-173,70,-96
4860,152,-1656,1152,-166,60,-95
4865,176,-1680,1176,-159,47,-90
4870,128,-1696,1152,-153,30,-85
4875,144,-1688,1144,-150,14,-76
4880,112,-1712,1152,-149,-3,-70
4885,96,-1688,1128,-152,-20,-61
4890,80,-1656,1112,-163,-36,-56
4895,80,-1640,1072,-180,-48,-51
4900,64,-1648,1080,-200,-54,-49
4905,40,-1656,1088,-222,-56,-53
4910,32,-1624,1016,-245,-54,-55
4915,24,-1624,960,-268,-48,-63
4920,16,-1640,1000,-292,-41,-76
4925,0,-1664,936,-307,-34,-92
4930,16,-1664,984,-312,-30,-112
4935,24,-1672,976,-315,-26,-130
4940,40,-1696,968,-312,-23,-146
4945,80,-1696,1000,-305,-20,-159
4950,112,-1720,992,-290,-18,-168
4955,176,-1768,1008,-266,-15,-170
4960,184,-1768,1024,-231,-16,-171
4965,184,-1760,992,-188,-19,-168
4970,240,-1776,1040,-142,-26,-164
4975,216,-1752,1072,-97,-45,-160
4980,224,-1768,1056,-60,-65,-155
4985,136,-1744,1072,-28,-91,-154
4990,104,-1752,1080,5,-136,-168
4995,56,-1760,1056,27,-173,-183
5000,24,-1752,1032,23,-197,-207
5005,8,-1720,944,-8,-204,-238
5010,0,-1720,904,-59,-193,-274
5015,16,-1696,888,-120,-167,-309
5020,40,-1720,808,-174,-134,-336
5025,56,-1704,776,-216,-101,-361
5030,96,-1736,792,-241,-71,-376
5035,80,-1744,768,-247,-44,-389
5040,112,-1776,736,-238,-19,-393
5045,88,-1768,704,-219,4,-386
5050,88,-1776,680,-200,26,-375
5055,88,-1776,680,-190,51,-354
5060,120,-1752,680,-186,77,-327
5065,168,-1680,736,-195,112,-266
5070,16,-1696,824,-232,104,-223
5075,48,-1616,832,-254,39,-230
5080,160,-1584,848,-256,-28,-236
5085,208,-1584,872,-267,-72,-226
5090,272,-1552,872,-292,-97,-204
5095,304,-1592,880,-328,-115,-188
5100,384,-1616,880,-365,-127,-172
5105,408,-1664,920,-400,-133,-156
5110,456,-1704,936,-429,-131,-143
5115,448,-1704,920,-452,-122,-130
5120,480,-1728,920,-476,-114,-117
5125,512,-1736,976,-500,-108,-106
5130,512,-1752,960,-520,-107,-95
5135,504,-1784,992,-536,-107,-84
5140,504,-1776,960,-547,-108,-77
5145,448,-1792,944,-556,-109,-67
5150,400,-1744,976,-562,-110,-57
5155,352,-1728,912,-569,-112,-43
5160,336,-1744,912,-576,-109,-34
5165,264,-1728,896,-583,-106,-24
5170,248,-1712,896,-590,-100,-23
5175,160,-1696,896,-595,-97,-25
5180,192,-1688,896,-601,-95,-27
5185,184,-1672,872,-603,-95,-30
5190,192,-1672,888,-605,-99,-36
5195,208,-1688,840,-614,-110,-41
5200,264,-1696,832,-625,-124,-45
5205,264,-1728,824,-637,-143,-53
5210,296,-1752,816,-641,-162,-62
5215,304,-1768,824,-637,-178,-69
5220,336,-1784,816,-628,-190,-74
5225,344,-1824,864,-617,-196,-74
5230,384,-1808,840,-605,-198,-71
5235,336,-1816,816,-595,-196,-65
5240,336,-1856,784,-587,-187,-55
5245,328,-1872,776,-582,-178,-45
5250,312,-1848,704,-586,-163,-31
5255,304,-1824,696,-599,-150,-19
5260,296,-1776,704,-622,-135,-11
5265,304,-1760,720,-643,-121,1
5270,304,-1712,736,-658,-112,7
5275,336,-1720,760,-673,-108,10
5280,352,-1728,800,-695,-110,13
5285,368,-1728,824,-719,-118,15
5290,392,-1768,848,-741,-127,21
5295,376,-1816,872,-752,-136,26
5300,424,-1904,856,-745,-145,31
5305,392,-1952,776,-727,-153,36
5310,376,-1976,672,-706,-159,38
5315,360,-2000,672,-682,-158,41
5320,320,-1976,592,-663,-150,44
5325,280,-1952,576,-649,-137,47
5330,280,-1896,520,-642,-123,49
5335,264,-1872,536,-637,-109,51
5340,248,-1832,520,-630,-94,51
5345,264,-1792,472,-625,-81,52
5350,272,-1816,536,-619,-70,49
5355,304,-1792,544,-618,-61,49
5360,264,-1840,504,-616,-54,51
5365,336,-1848,544,-611,-49,55
5370,336,-1848,544,-605,-43,59
5375,336,-1864,544,-601,-39,62
5380,336,-1888,560,-602,-35,67
5385,352,-1912,528,-607,-32,70
5390,336,-1944,536,-615,-26,75
5395,336,-1960,488,-621,-20,82
5400,296,-1952,504,-625,-16,85
5405,248,-1944,472,-629,-15,86
5410,184,-1928,408,-637,-17,84
5415,232,-1912,384,-645,-15,83
5420,168,-1920,376,-652,-12,74
5425,152,-1936,360,-653,-11,67
5430,168,-1928,344,-652,-11,58
5435,184,-1920,360,-650,-16,53
5440,192,-1912,368,-653,-24,48
5445,216,-1904,352,-668,-32,47
5450,248,-1904,352,-687,-43,47
5455,280,-1928,392,-709,-54,49
5460,352,-1944,376,-725,-63,56
5465,360,-1920,328,-738,-74,64
5470,312,-1912,360,-753,-83,74
5475,360,-1928,344,-769,-95,82
5480,352,-1920,368,-786,-107,87
5485,344,-1912,336,-796,-118,90
5490,304,-1912,320,-803,-126,88
5495,304,-1920,336,-803,-133,87
5500,256,-1944,344,-798,-142,84
5505,200,-1968,312,-791,-150,79
5510,176,-1976,288,-780,-155,72
5515,208,-2032,240,-766,-158,69
5520,184,-2040,264,-750,-159,72
5525,184,-2064,264,-731,-161,79
5530,240,-2064,248,-715,-166,91
5535,272,-2064,256,-701,-173,102
5540,312,-2032,280,-693,-181,114
5545,328,-2048,312,-691,-190,128
5550,336,-2008,264,-695,-199,132
5555,352,-2032,256,-699,-207,135
5560,344,-2008,264,-703,-213,137
5565,352,-1984,208,-710,-218,136
5570,336,-1960,240,-712,-222,132
5575,280,-1968,192,-710,-220,126
5580,320,-2008,192,-705,-214,125
5585,328,-1976,176,-693,-203,124
5590,320,-1976,136,-674,-192,126
5595,328,-2008,152,-657,-185,129
5600,360,-2008,120,-643,-174,136
5605,376,-2040,104,-632,-156,143
5610,392,-2008,152,-622,-135,152
5615,424,-2024,168,-617,-117,162
5620,392,-1968,184,-615,-98,168
5625,408,-1944,200,-621,-83,175
5630,408,-1968,256,-629,-69,175
5635,376,-1960,184,-636,-58,172
5640,400,-1976,168,-636,-47,163
5645,368,-1968,136,-629,-38,153
5650,336,-2000,72,-612,-36,146
5655,344,-2040,8,-588,-44,138
5660,352,-2040,-24,-562,-58,127
5665,320,-2072,-32,-531,-67,112
5670,288,-2048,-56,-502,-61,100
5675,232,-2040,-56,-472,-45,91
5680,184,-2008,-8,-449,-15,81
5685,120,-1984,-64,-436,6,71
5690,176,-2000,0,-440,22,65
5695,168,-1968,24,-461,35,60
5700,120,-1960,48,-481,41,58
5705,136,-1968,24,-484,40,61
5710,128,-2008,16,-479,32,60
5715,104,-1976,-24,-470,20,59
5720,112,-2000,-88,-459,6,57
5725,112,-2000,-80,-455,-12,60
5730,112,-1976,-64,-452,-28,61
5735,56,-1976,-104,-450,-44,59
5740,96,-2024,-64,-450,-56,64
5745,112,-2048,-48,-445,-69,72
5750,128,-2048,-88,-443,-85,79
5755,152,-2096,-96,-442,-102,89
5760,200,-2088,-88,-439,-115,100
5765,208,-2080,-96,-435,-123,114
5770,200,-2120,-144,-426,-129,125
5775,248,-2128,-136,-415,-131,134
5780,264,-2104,-152,-404,-128,133
5785,256,-2072,-160,-392,-120,127
5790,144,-2056,-208,-378,-105,119
5795,176,-2048,-160,-362,-87,115
5800,176,-2048,-152,-336,-67,112
5805,176,-2040,-168,-311,-55,110
5810,192,-2048,-168,-294,-45,110
5815,192,-2032,-160,-285,-41,116
5820,240,-2048,-184,-283,-39,125
5825,232,-2016,-176,-281,-41,126
5830,248,-1984,-232,-280,-48,127
5835,232,-1976,-232,-280,-58,123
5840,232,-1952,-176,-282,-66,114
5845,176,-1968,-208,-287,-69,105
5850,184,-1944,-200,-292,-66,94
5855,200,-1936,-184,-295,-57,85
5860,192,-1976,-208,-297,-51,79
5865,176,-1968,-232,-297,-48,74
5870,208,-2016,-240,-295,-42,69
5875,184,-2016,-288,-288,-35,65
5880,200,-2000,-304,-282,-26,61
5885,200,-2032,-344,-276,-13,58
5890,168,-2032,-328,-263,0,55
5895,128,-2024,-344,-243,13,56
5900,176,-1984,-352,-224,25,57
5905,112,-1968,-360,-213,37,56
5910,128,-1976,-328,-216,46,59
5915,120,-1944,-272,-225,51,59
5920,120,-1976,-280,-236,56,57
5925,88,-1968,-312,-248,60,53
5930,72,-1944,-264,-263,63,47
5935,112,-1992,-264,-279,65,39
5940,112,-2024,-272,-295,65,32
5945,80,-2048,-200,-313,57,31
5950,128,-2088,-232,-327,46,29
5955,144,-2120,-248,-339,37,26
5960,128,-2152,-256,-346,30,22
5965,120,-2208,-288,-350,28,20
5970,136,-2248,-304,-352,29,22
5975,144,-2272,-336,-354,32,29
5980,96,-2304,-368,-353,42,37
5985,112,-2328,-384,-345,50,47
5990,88,-2320,-416,-331,60,60
5995,128,-2312,-408,-309,65,68
6000,128,-2280,-416,-283,72,84
6005,144,-2208,-408,-271,76,109
6010,192,-2264,-400,-260,68,134
6015,200,-2232,-336,-243,56,154
6020,208,-2216,-400,-223,41,170
6025,192,-2176,-384,-208,23,181
6030,184,-2136,-416,-204,6,184
6035,168,-2072,-416,-207,-7,184
6040,120,-2048,-328,-215,-16,178
6045,144,-2048,-352,-218,-18,168
6050,152,-2008,-344,-217,-17,158
6055,104,-2032,-376,-215,-9,149
6060,88,-2000,-408,-216,2,138
6065,80,-1960,-448,-226,13,130
6070,56,-1976,-424,-238,26,121
6075,64,-1992,-384,-235,37,119
6080,112,-2016,-400,-226,45,119
6085,104,-2032,-384,-221,44,121
6090,128,-2032,-392,-228,35,122
6095,120,-2040,-416,-241,20,122
6100,112,-2032,-416,-252,5,125
6105,128,-2016,-384,-260,-2,130
6110,88,-1952,-456,-266,1,133
6115,104,-1960,-456,-272,11,135
6120,112,-1944,-472,-284,26,135
6125,112,-1936,-464,-293,38,133
6130,88,-1936,-392,-291,49,126
6135,88,-1944,-400,-274,61,118
6140,96,-1952,-408,-253,71,113
6145,96,-1944,-424,-233,80,110
6150,40,-1992,-416,-219,82,108
6155,24,-1992,-328,-205,73,102
6160,48,-1976,-344,-193,56,98
6165,40,-1968,-280,-188,40,92
6170,16,-1952,-240,-189,35,94
6175,24,-1928,-248,-199,34,97
6180,8,-1904,-240,-224,30,101
6185,24,-1896,-208,-262,24,103
6190,48,-1888,-232,-304,27,106
6195,56,-1920,-240,-339,36,117
6200,72,-1952,-296,-358,45,129
6205,32,-2000,-376,-362,52,135
6210,48,-2024,-416,-354,51,139
6215,40,-2064,-480,-337,49,143
6220,40,-2064,-496,-307,41,146
6225,56,-2072,-520,-273,25,150
6230,24,-2064,-480,-234,2,151
6235,-16,-2048,-488,-186,-19,148
6240,-16,-2016,-496,-142,-36,142
6245,-24,-2016,-512,-112,-52,131
6250,-64,-2040,-464,-90,-64,114
6255,-88,-2000,-456,-75,-71,100
6260,-72,-2008,-448,-73,-77,86
6265,-72,-1992,-440,-85,-84,81
6270,-64,-1928,-416,-101,-92,76
6275,-64,-2000,-368,-109,-100,77
6280,-40,-1992,-360,-105,-107,79
6285,16,-2000,-408,-99,-110,87
6290,56,-1960,-416,-102,-114,97
6295,80,-1952,-480,-123,-117,112
6300,136,-1952,-472,-159,-122,128
6305,168,-1944,-424,-193,-131,140
6310,168,-1968,-456,-224,-142,151
6315,192,-1984,-456,-259,-154,155
6320,216,-1976,-528,-307,-167,158
6325,256,-2024,-560,-363,-177,156
6330,232,-1936,-552,-419,-185,149
6335,200,-1936,-560,-471,-187,137
6340,184,-1912,-520,-507,-180,119
6345,136,-1880,-536,-524,-166,98
6350,88,-1856,-512,-529,-151,78
6355,24,-1792,-488,-531,-138,53
6360,32,-1816,-496,-522,-123,26
6365,-40,-1776,-472,-508,-105,3
6370,-72,-1720,-472,-492,-88,-17
6375,-48,-1648,-504,-483,-71,-33
6380,-40,-1672,-528,-494,-62,-39
6385,-24,-1632,-536,-527,-61,-40
6390,0,-1640,-608,-568,-70,-38
6395,0,-1648,-600,-607,-82,-34
6400,8,-1688,-640,-636,-93,-30
6405,16,-1728,-624,-649,-96,-24
6410,24,-1728,-680,-644,-94,-17
6415,8,-1728,-648,-632,-87,-16
6420,48,-1664,-648,-629,-77,-18
6425,64,-1600,-608,-638,-60,-22
6430,88,-1552,-600,-659,-34,-24
6435,120,-1544,-584,-690,-2,-22
6440,104,-1520,-528,-729,26,-19
6445,128,-1592,-512,-768,37,-16
6450,136,-1664,-480,-800,38,-14
6455,136,-1784,-448,-818,33,-16
6460,160,-1872,-504,-807,24,-15
6465,152,-1952,-520,-778,14,-15
6470,88,-2016,-616,-739,5,-11
6475,120,-2016,-664,-697,1,-6
6480,72,-1976,-736,-651,0,1
6485,176,-1984,-744,-597,5,4
6490,56,-1880,-776,-544,10,2
6495,56,-1784,-792,-496,12,-5
6500,0,-1624,-784,-464,7,-16
6505,16,-1552,-760,-447,2,-31
6510,-24,-1360,-720,-449,-1,-49
6515,-64,-1280,-688,-467,1,-63
6520,-96,-1288,-672,-493,6,-73
6525,-88,-1296,-648,-519,8,-77
6530,-88,-1360,-624,-540,6,-78
6535,-56,-1472,-688,-547,4,-67
6540,-56,-1544,-744,-534,-2,-54
6545,-56,-1648,-736,-512,-10,-39
6550,-8,-1752,-760,-485,-22,-33
6555,-16,-1792,-744,-460,-33,-31
6560,0,-1840,-768,-438,-45,-33
6565,0,-1872,-768,-418,-57,-36
6570,8,-1872,-712,-400,-66,-36
6575,24,-1848,-696,-379,-74,-40
6580,64,-1864,-712,-358,-80,-42
6585,48,-1840,-664,-335,-84,-42
6590,64,-1800,-728,-312,-91,-39
6595,64,-1776,-720,-290,-104,-36
6600,88,-1760,-728,-268,-117,-30
6605,72,-1776,-768,-244,-136,-27
6610,32,-1760,-816,-219,-157,-23
6615,0,-1776,-856,-194,-181,-18
6620,-32,-1784,-888,-170,-213,-15
6625,-56,-1792,-952,-150,-248,-15
6630,-64,-1792,-976,-133,-282,-15
6635,-120,-1824,-1000,-117,-316,-17
6640,-112,-1848,-992,-101,-346,-20
6645,-200,-1824,-1040,-92,-362,-23
6650,-232,-1880,-960,-86,-361,-26
6655,-184,-1888,-992,-71,-351,-28
6660,-136,-1928,-944,-52,-340,-34
6665,-144,-1936,-992,-32,-325,-49
6670,-104,-1944,-1000,-11,-299,-61
6675,-72,-1864,-1064,16,-258,-64
6680,32,-1776,-1288,40,-206,-60
6685,128,-1792,-1512,24,-131,-63
6690,184,-1832,-1448,-52,-54,-95
6695,208,-1792,-1096,-151,-36,-153
6700,240,-1760,-968,-181,-122,-201
6705,192,-1720,-1040,-143,-179,-205
6710,200,-1696,-960,-80,-165,-194
6715,208,-1672,-928,-19,-140,-167
6720,232,-1648,-944,22,-110,-133
6725,216,-1624,-944,18,-84,-97
6730,232,-1608,-912,-21,-70,-67
6735,200,-1584,-856,-79,-66,-32
6740,160,-1560,-840,-134,-68,3
6745,104,-1592,-816,-180,-75,34
6750,48,-1600,-776,-218,-85,57
6755,-16,-1656,-808,-242,-91,77
6760,-48,-1648,-784,-253,-96,91
6765,-24,-1664,-752,-261,-93,92
6770,-56,-1736,-704,-267,-82,84
6775,-8,-1712,-688,-264,-78,70
6780,-64,-1728,-720,-252,-73,63
6785,0,-1720,-752,-241,-69,59
6790,-24,-1680,-752,-222,-69,60
6795,0,-1664,-760,-190,-84,69
6800,0,-1616,-776,-167,-114,91
6805,16,-1568,-776,-165,-157,124
6810,96,-1520,-728,-172,-215,158
6815,104,-1480,-696,-193,-278,205
6820,96,-1480,-632,-228,-334,237
6825,136,-1400,-592,-267,-386,267
6830,128,-1440,-568,-312,-428,288
6835,136,-1472,-536,-355,-466,298
6840,136,-1512,-488,-394,-492,299
6845,136,-1528,-472,-421,-518,295
6850,128,-1592,-528,-440,-550,291
6855,88,-1616,-544,-449,-589,289
6860,80,-1672,-696,-463,-628,291
6865,48,-1688,-792,-483,-668,295
6870,40,-1736,-840,-501,-704,307
6875,56,-1744,-952,-517,-736,324
6880,56,-1736,-992,-527,-760,347
6885,88,-1776,-1040,-532,-772,372
6890,80,-1736,-1072,-526,-770,400
6895,112,-1736,-1120,-511,-758,424
6900,112,-1728,-1176,-496,-743,448
6905,128,-1720,-1240,-486,-724,471
6910,112,-1648,-1304,-491,-705,486
6915,104,-1616,-1336,-519,-685,502
6920,104,-1640,-1320,-569,-659,509
6925,104,-1608,-1320,-645,-628,507
6930,96,-1656,-1264,-735,-598,495
6935,72,-1752,-1168,-831,-581,470
6940,8,-1832,-1064,-922,-573,436
6945,-96,-1928,-984,-996,-568,395
6950,-256,-2056,-832,-1043,-564,350
6955,-408,-2208,-728,-1054,-557,304
6960,-480,-2312,-664,-1024,-549,262
6965,-512,-2424,-568,-948,-544,225
6970,-568,-2472,-616,-809,-547,196
6975,-544,-2512,-640,-635,-554,163
6980,-528,-2456,-688,-451,-569,138
6985,-480,-2432,-720,-274,-600,114
6990,-424,-2312,-696,-105,-650,99
6995,-320,-2112,-680,47,-721,94
7000,-232,-1936,-632,172,-807,96
7005,-160,-1744,-584,257,-897,106
7010,-128,-1624,-560,300,-984,127
7015,-64,-1496,-520,301,-1065,155
7020,-16,-1368,-480,268,-1138,182
7025,-40,-1248,-432,216,-1199,208
7030,-48,-1216,-440,146,-1244,228
7035,-72,-1176,-360,73,-1278,240
7040,-56,-1200,-392,9,-1303,240
7045,-64,-1256,-352,-34,-1314,236
7050,-88,-1264,-296,-55,-1310,225
7055,-104,-1384,-344,-57,-1288,212
7060,-104,-1424,-352,-49,-1256,194
7065,-120,-1528,-368,-36,-1219,168
7070,-96,-1616,-304,-21,-1189,135
7075,-80,-1696,-296,-3,-1167,99
7080,-56,-1776,-280,17,-1159,61
7085,-48,-1792,-280,39,-1163,24
7090,-168,-1848,-256,68,-1181,-8
7095,-192,-1888,-240,99,-1212,-36
7100,-216,-1904,-176,146,-1245,-56
7105,-288,-1920,-112,209,-1264,-66
7110,-312,-1920,-72,289,-1270,-72
7115,-344,-1896,8,387,-1259,-79
7120,-368,-1864,56,491,-1238,-81
7125,-384,-1816,128,593,-1216,-78
7130,-360,-1736,152,692,-1196,-69
7135,-328,-1768,224,799,-1177,-57
7140,-280,-1720,216,920,-1163,-49
7145,-248,-1704,216,1040,-1162,-40
7150,-208,-1656,200,1148,-1179,-32
7155,-160,-1656,168,1240,-1209,-19
7160,-144,-1640,112,1315,-1248,-5
7165,-160,-1600,8,1367,-1287,6
7170,-136,-1536,-72,1395,-1321,17
7175,-152,-1496,-176,1397,-1356,30
7180,-152,-1464,-224,1361,-1415,51
7185,-168,-1416,-264,1298,-1499,74
7190,-248,-1328,-352,1225,-1587,99
7195,-304,-1304,-224,1167,-1652,142
7200,-392,-1304,-176,1136,-1689,188
7205,-424,-1288,-144,1137,-1709,227
7210,-504,-1256,-32,1165,-1712,264
7215,-568,-1248,0,1205,-1712,295
7220,-616,-1232,48,1242,-1719,322
7225,-664,-1216,88,1272,-1738,348
7230,-680,-1232,80,1293,-1764,362
7235,-776,-1224,96,1297,-1807,376
7240,-848,-1240,16,1290,-1886,397
7245,-864,-1248,-64,1262,-1982,426
7250,-888,-1136,-104,1227,-2079,454
7255,-888,-1056,-168,1171,-2145,500
7260,-856,-1040,-192,1057,-2184,547
7265,-800,-1016,-184,968,-2197,581
7270,-656,-1000,-168,908,-2173,602
7275,-664,-880,-144,871,-2118,625
7280,-464,-888,-112,729,-2150,560
7285,-336,-880,-120,648,-2078,544
7290,-568,-728,-152,595,-1945,602
7295,-120,-808,-112,447,-1920,575
7300,-192,-792,-144,359,-1815,613
7305,-192,-696,-312,255,-1749,651
7310,-192,-568,-456,77,-1720,652
7315,-200,-512,-544,-153,-1668,641
7320,-200,-424,-600,-393,-1554,635
7325,-192,-376,-552,-602,-1383,627
7330,-128,-416,-528,-749,-1201,622
7335,-176,-400,-536,-838,-1047,606
7340,-120,-448,-560,-880,-926,585
7345,-48,-496,-600,-901,-822,556
7350,-104,-472,-720,-915,-722,531
7355,-32,-504,-792,-923,-617,507
7360,16,-512,-808,-920,-511,489
7365,40,-552,-776,-904,-411,474
7370,8,-560,-744,-895,-319,461
7375,16,-616,-656,-909,-229,456
7380,-40,-656,-600,-947,-134,463
7385,-152,-728,-512,-1003,-30,481
7390,-208,-832,-472,-1068,70,510
7395,-232,-840,-424,-1124,155,541
7400,-288,-856,-432,-1157,221,566
7405,-296,-944,-520,-1158,267,581
7410,-312,-896,-648,-1138,299,599
7415,-320,-896,-800,-1114,328,609
7420,-304,-896,-888,-1118,349,614
7425,-360,-912,-912,-1153,360,620
7430,-440,-968,-872,-1193,378,636
7435,-504,-1024,-952,-1221,417,666
7440,-536,-1048,-1032,-1242,472,703
7445,-544,-1112,-1064,-1281,520,743
7450,-552,-1192,-1032,-1339,557,786
7455,-536,-1248,-984,-1405,580,829
7460,-784,-1304,-840,-1460,598,876
7465,-800,-1440,-840,-1475,625,941
7470,-784,-1456,-704,-1458,657,1005
7475,-984,-1504,-640,-1441,683,1062
7480,-1016,-1456,-640,-1440,694,1128
7485,-1096,-1432,-488,-1437,687,1200
7490,-1160,-1424,-496,-1402,673,1263
7495,-1224,-1256,-376,-1344,666,1313
7500,-1200,-1136,-256,-1294,662,1361
7505,-1152,-1064,-184,-1277,640,1404
7510,-1064,-808,-192,-1299,611,1440
7515,-1024,-656,-312,-1347,589,1467
7520,-1096,-504,-344,-1417,567,1499
7525,-1104,-344,-320,-1493,537,1524
7530,-1032,-128,-352,-1568,492,1554
7535,-1176,32,-208,-1675,429,1599
7540,-1184,72,-88,-1792,363,1649
7545,-1192,80,-112,-1872,308,1691
7550,-1216,304,-40,-1934,247,1719
7555,-1360,400,-176,-2035,178,1772
7560,-1264,144,40,-2213,101,1803
7565,-1288,96,104,-2346,57,1860
7570,-1496,-32,304,-2392,40,1860
7575,-1648,-48,472,-2341,38,1901
7580,-1664,-240,384,-2204,57,2045
7585,-1664,488,-232,-1968,86,2149
7590,-1480,280,-416,-1949,104,2350
7595,-1680,736,-560,-1971,183,2530
7600,-3112,2336,-3144,-2073,369,2786
7605,-6320,5816,-7952,-3150,1514,3524
7610,-2992,912,-3072,-4816,3889,4429
7615,-3632,2096,-5952,-4194,5735,3523
7620,-6896,-5032,-3704,-2966,6191,2155
7625,-1368,-9288,-4480,-2060,4853,1035
7630,-5096,-10536,-8664,-1855,4726,1267
7635,-26968,6192,-6712,-2826,6470,1573
7640,14336,880,-4928,-2925,5830,1166
7645,1544,-224,-4512,-2436,2694,1305
7650,-8336,1624,-6264,-2837,1537,1393
7655,-4960,960,-7656,-3419,2381,1603
7660,-5320,2784,-9600,-3067,3421,1536
7665,-2192,3432,-7888,-2884,3309,1079
7670,-3640,928,-5392,-2440,2109,603
7675,-2872,872,-3216,-1864,1224,426
7680,-3200,544,-2864,-1516,1501,365
7685,-2272,1064,-3152,-1201,1958,348
7690,-2040,528,-3824,-979,2016,339
7695,-2000,688,-3656,-784,1745,339
7700,-2072,1240,-3120,-598,1453,353
7705,-1824,2056,-2760,-450,1310,378
7710,-1552,2184,-2712,-359,1256,373
7715,-1368,880,-2288,-339,1202,356
7720,-1672,760,-2136,-376,1153,341
7725,-664,128,-2680,-471,1037,381
7730,-1576,904,-2664,-671,762,440
7735,-760,272,-2376,-700,536,481
7740,-600,-504,-2168,-784,383,522
7745,-792,-504,-1984,-1016,321,515
7750,-1008,-608,-1744,-1261,355,642
7755,-1184,-680,-1888,-1323,584,940
7760,200,-2088,-2024,-1304,982,1297
7765,-552,-1112,-2552,-1468,1189,1389
7770,-120,-904,-2440,-1564,1282,1412
7775,440,-1760,-2440,-1620,1316,1179
7780,328,-2392,-1976,-1443,1609,721
7785,-776,-1592,-1976,-1133,1902,361
7790,-1200,-1392,-1272,-825,2066,109
7795,-912,-1040,-1240,-451,2131,79
7800,-872,-192,-1152,-206,2103,117
7805,-1136,104,-1352,-114,2021,164
7810,-624,528,-1256,-203,1882,219
7815,-752,656,-1056,-387,1795,197
7820,-832,600,-920,-547,1680,213
7825,-1136,704,-928,-640,1569,248
7830,-1096,944,-968,-677,1454,256
7835,-848,688,-912,-682,1374,288
7840,-688,680,-912,-644,1316,304
7845,-640,696,-1032,-585,1257,347
7850,-720,888,-1184,-519,1202,368
7855,-656,832,-1200,-481,1141,391
7860,-576,992,-1328,-430,1092,411
7865,-368,1216,-1400,-395,1043,410
7870,-336,1184,-1496,-381,1008,418
7875,-120,1032,-1664,-369,980,389
7880,80,952,-1600,-361,988,357
7885,-176,816,-1536,-360,1017,283
7890,-64,864,-1576,-330,1059,264
7895,-136,808,-1744,-332,1045,220
7900,-144,832,-1800,-340,1008,177
7905,-72,800,-1768,-345,994,139
7910,-216,824,-1856,-320,972,99
7915,16,888,-1800,-318,920,75
7920,136,960,-1768,-293,878,50
7925,288,776,-1864,-227,833,52
7930,168,1032,-1912,-149,775,42
7935,184,960,-1872,-107,718,26
7940,40,992,-2000,-64,690,13
7945,8,968,-2048,-8,659,23
7950,152,616,-2152,49,623,59
7955,144,784,-2056,109,577,58
7960,88,656,-2128,181,522,37
7965,48,512,-2232,261,460,21
7970,16,448,-2224,305,380,13
7975,16,424,-2168,333,285,6
7980,-56,384,-2176,360,180,0
7985,0,232,-2088,424,107,1
7990,-80,376,-2144,433,21,-16
7995,-80,416,-2216,458,-31,-27
8000,-24,336,-2176,472,-71,-37
8005,-88,448,-2328,479,-107,-47
8010,-40,432,-2320,464,-148,-59
8015,-32,320,-2376,431,-184,-72
8020,-88,336,-2376,396,-205,-84
8025,-152,280,-2328,357,-217,-97
8030,-224,272,-2336,306,-226,-105
8035,-192,264,-2240,261,-232,-109
8040,-152,216,-2224,222,-234,-115
8045,-224,184,-2160,184,-238,-120
8050,-216,264,-2128,152,-236,-121
8055,-384,200,-2072,127,-235,-117
8060,-312,240,-2008,102,-226,-110
8065,-264,232,-1992,85,-216,-110
8070,-240,288,-1968,72,-210,-110
8075,-192,288,-1928,70,-212,-116
8080,-184,208,-1840,76,-219,-120
8085,-312,504,-1888,99,-235,-116
8090,-192,200,-1904,132,-252,-109
8095,-176,416,-1936,147,-273,-102
8100,-88,312,-1952,168,-308,-102
8105,-136,376,-1912,195,-343,-109
8110,-96,304,-1888,229,-371,-114
8115,-208,192,-1912,265,-392,-130
8120,-240,288,-1840,282,-405,-135
8125,-256,400,-1816,298,-420,-128
8130,-192,152,-1776,328,-442,-113
8135,-184,464,-1832,348,-461,-100
8140,-200,256,-1864,354,-489,-91
8145,-264,280,-1936,362,-514,-95
8150,-264,104,-1944,366,-529,-98
8155,-344,-120,-2088,354,-523,-114
8160,-344,-112,-2040,300,-499,-139
8165,-392,256,-2112,245,-476,-155
8170,-464,-160,-2048,198,-456,-163
8175,-408,-200,-2168,163,-418,-171
8180,-416,-136,-2096,83,-364,-154
8185,-608,-176,-2064,22,-314,-134
8190,-528,56,-2000,-33,-260,-102
8195,-496,544,-1976,-78,-210,-73
8200,-288,592,-1808,-88,-170,-35
8205,-192,464,-1816,-53,-156,-28
8210,-240,424,-1816,-36,-134,-26
8215,-288,272,-1784,-3,-130,-36
8220,-352,88,-1792,28,-134,-56
8225,-464,16,-1888,58,-141,-78
8230,-424,88,-1840,89,-146,-84
8235,-512,176,-1848,134,-160,-93
8240,-480,184,-1832,181,-187,-92
8245,-384,88,-1784,219,-220,-87
8250,-336,128,-1768,252,-255,-86
8255,-352,184,-1784,270,-280,-85
8260,-384,224,-1672,270,-294,-80
8265,-416,200,-1640,272,-300,-72
8270,-416,128,-1640,280,-288,-68
8275,-480,112,-1672,299,-258,-63
8280,-480,136,-1704,309,-214,-52
8285,-504,136,-1744,311,-164,-43
8290,-536,112,-1816,306,-109,-35
8295,-536,128,-1872,294,-52,-27
8300,-528,120,-1960,280,10,-21
8305,-504,104,-1976,264,66,-16
8310,-480,112,-1976,244,113,-13
8315,-480,80,-2040,225,146,-10
8320,-448,96,-2056,209,165,-9
8325,-432,88,-2024,192,176,-7
8330,-400,96,-2048,178,175,-7
8335,-392,88,-1992,164,171,-6
8340,-408,96,-1984,153,162,-7
8345,-400,40,-2016,144,153,-9
8350,-416,96,-1992,132,145,-9
8355,-424,104,-2032,124,141,-10
8360,-440,112,-2056,115,136,-10
8365,-464,120,-2040,111,128,-9
8370,-440,112,-2032,103,121,-5
8375,-424,88,-2056,94,111,-5
8380,-448,152,-2056,87,99,-3
8385,-408,128,-2032,78,86,-1
8390,-416,112,-2032,74,69,0
8395,-408,136,-2040,67,56,4
8400,-464,160,-2048,59,45,3
8405,-400,136,-1992,47,38,6
8410,-416,192,-2032,34,32,7
8415,-440,184,-2032,21,29,11
8420,-440,152,-2040,7,28,12
8425,-424,160,-2000,-9,29,16
8430,-416,144,-1968,-22,31,16
8435,-424,128,-2000,-34,35,16
8440,-392,136,-1976,-46,40,20
8445,-392,152,-1952,-54,46,20
8450,-432,128,-1968,-57,55,19
8455,-384,160,-1864,-66,66,21
8460,-392,128,-1904,-70,77,20
8465,-392,152,-1888,-71,88,21
8470,-392,176,-1952,-72,100,21
8475,-368,160,-1904,-73,113,22
8480,-352,160,-1864,-69,128,23
8485,-344,160,-1864,-64,143,22
8490,-384,160,-1856,-58,154,20
8495,-344,184,-1888,-52,165,18
8500,-336,184,-1896,-47,172,16
8505,-288,176,-1896,-38,178,15
8510,-336,208,-1896,-32,187,13
8515,-328,200,-1912,-22,193,10
8520,-312,168,-1888,-8,196,9
8525,-296,136,-1920,5,200,6
8530,-312,192,-1912,15,199,3
8535,-296,184,-1896,23,198,1
8540,-312,224,-1888,32,194,0
8545,-320,200,-1952,38,189,-2
8550,-320,200,-1960,42,182,-3
8555,-296,184,-1952,48,175,-4
8560,-304,200,-1952,54,170,-3
8565,-312,176,-1992,59,164,-6
8570,-304,192,-1984,65,156,-8
8575,-336,192,-1976,71,149,-6
8580,-296,152,-1976,75,142,-6
8585,-328,192,-2000,77,133,-8
8590,-312,184,-1968,79,124,-9
8595,-312,168,-2000,83,114,-10
8600,-336,184,-2016,86,105,-9
8605,-304,192,-1984,87,95,-10
8610,-280,168,-2016,89,83,-10
8615,-272,160,-2024,91,71,-11
8620,-312,176,-2024,94,60,-12
8625,-320,184,-1976,95,49,-11
8630,-304,176,-2016,96,38,-10
8635,-304,184,-2040,97,27,-14
8640,-320,168,-2008,97,19,-15
8645,-320,192,-1984,98,9,-15
8650,-312,168,-2008,96,1,-13
8655,-304,152,-1984,93,-6,-14
8660,-304,168,-2000,91,-13,-14
8665,-320,160,-2000,87,-21,-14
8670,-336,184,-1960,82,-28,-14
8675,-304,152,-2000,77,-34,-13
8680,-312,184,-1952,71,-40,-12
8685,-336,168,-1992,67,-42,-13
8690,-344,144,-1984,64,-43,-14
8695,-336,168,-1960,62,-44,-16
8700,-304,152,-1984,61,-43,-14
8705,-320,160,-1968,59,-42,-15
8710,-328,152,-1952,59,-41,-17
8715,-312,144,-1960,59,-41,-17
8720,-328,152,-1920,58,-42,-18
8725,-344,184,-2000,59,-42,-17
8730,-288,136,-1968,59,-44,-17
8735,-312,144,-1944,60,-45,-18
8740,-312,144,-1920,60,-46,-18
8745,-288,160,-1912,59,-46,-17
8750,-312,144,-1968,59,-50,-19
8755,-320,144,-1968,58,-53,-19
8760,-344,152,-1936,60,-53,-19
8765,-352,184,-1944,63,-55,-19
8770,-336,152,-1928,65,-52,-19
8775,-328,168,-1928,68,-50,-20
8780,-336,152,-2000,73,-47,-20
8785,-376,168,-1960,77,-45,-19
8790,-352,128,-1960,80,-43,-17
8795,-376,184,-2016,81,-43,-18
8800,-344,136,-1952,81,-45,-19
8805,-360,160,-1984,82,-45,-17
8810,-360,176,-1968,80,-46,-16
8815,-360,152,-1960,83,-44,-16
8820,-344,144,-1944,82,-42,-15
8825,-384,152,-1968,80,-40,-16
8830,-360,112,-1952,78,-36,-14
8835,-392,144,-1992,76,-34,-15
8840,-368,144,-1936,73,-30,-14
8845,-400,144,-1976,72,-23,-12
8850,-384,136,-1936,71,-21,-12
8855,-368,120,-1984,71,-18,-11
8860,-368,152,-1936,72,-16,-12
8865,-368,152,-1960,73,-13,-10
8870,-376,144,-1944,70,-11,-9
8875,-360,152,-1936,68,-9,-11
8880,-336,160,-1960,65,-7,-10
8885,-384,136,-1944,64,-5,-12
8890,-376,136,-1928,65,-1,-12
8895,-352,112,-1968,67,3,-10
8900,-368,120,-1976,68,8,-10
8905,-344,136,-1968,67,12,-9
8910,-360,136,-1952,66,17,-9
8915,-336,136,-1944,63,18,-9
8920,-384,152,-1960,59,22,-9
8925,-368,144,-1928,57,23,-10
8930,-368,160,-1952,54,26,-9
8935,-368,152,-1944,50,28,-8
8940,-336,128,-1960,49,32,-9
8945,-352,152,-1992,50,35,-9
8950,-400,144,-1968,51,37,-7
8955,-384,168,-2016,49,40,-9
8960,-336,136,-1960,50,41,-9
8965,-360,152,-1992,51,43,-9
8970,-368,136,-1944,53,44,-9
8975,-368,144,-1992,52,44,-9
8980,-344,144,-1976,52,43,-10
8985,-328,152,-1984,53,42,-8
8990,-344,160,-1968,51,40,-9
8995,-328,128,-1968,50,39,-9
9000,-344,152,-1928,50,35,-8
9005,-352,136,-2000,49,34,-9
9010,-288,112,-1952,50,33,-8
9015,-352,152,-1968,51,32,-9
9020,-352,152,-1928,51,32,-9
9025,-344,152,-1968,54,33,-8
9030,-352,152,-1944,56,34,-9
9035,-344,152,-1992,59,33,-9
9040,-360,160,-1984,60,33,-10
9045,-336,176,-1960,63,31,-10
9050,-352,176,-1944,63,29,-11
9055,-320,136,-1984,64,25,-12
9060,-344,160,-1936,64,24,-11
9065,-360,192,-1976,64,23,-10
9070,-336,192,-1968,65,23,-10
9075,-320,160,-1992,64,21,-10
9080,-328,160,-1976,65,20,-11
9085,-320,120,-1944,63,20,-11
9090,-312,152,-1944,63,17,-12
9095,-344,168,-1984,61,16,-11
9100,-328,136,-1960,65,15,-10
9105,-328,136,-1960,66,14,-10
9110,-312,152,-1968,67,13,-11
9115,-344,120,-1968,68,11,-12
9120,-344,144,-1960,67,9,-12
9125,-328,152,-1976,67,5,-11
9130,-344,168,-1952,65,4,-12
9135,-336,152,-1952,64,3,-11
9140,-344,144,-1984,63,1,-13
9145,-344,144,-1960,62,1,-13
9150,-352,160,-1976,62,2,-13
9155,-328,144,-1952,62,0,-13
9160,-328,128,-1984,61,-2,-12
9165,-336,120,-1936,60,-3,-11
9170,-320,104,-1984,58,-3,-12
9175,-328,160,-1968,54,-4,-12
9180,-344,136,-1960,53,-4,-12
9185,-344,136,-1960,53,-5,-12
9190,-344,176,-1960,53,-4,-11
9195,-344,152,-1960,54,-2,-14
9200,-360,152,-1968,55,0,-13
9205,-336,136,-1968,57,0,-13
9210,-320,152,-1976,60,-1,-13
9215,-328,128,-1968,60,-2,-13
9220,-360,128,-1992,61,-3,-12
9225,-368,120,-2000,60,-5,-11
9230,-344,136,-1976,59,-7,-11
9235,-336,144,-1936,56,-9,-11
9240,-344,168,-1976,55,-10,-9
9245,-352,128,-1960,53,-9,-11
9250,-344,128,-1952,53,-8,-8
9255,-344,136,-1936,51,-8,-11
9260,-360,152,-1928,51,-6,-12
9265,-360,104,-1952,49,-5,-10
9270,-336,144,-1920,49,-5,-10
9275,-320,160,-1872,48,-4,-9
9280,-352,136,-1920,48,-2,-11
9285,-352,144,-1960,48,0,-10
9290,-352,152,-1960,50,2,-11
9295,-336,152,-1912,52,4,-10
9300,-352,144,-1936,53,6,-11
9305,-344,144,-1952,56,6,-11
9310,-368,168,-1952,59,6,-10
9315,-368,168,-1992,60,7,-10
9320,-368,136,-1920,63,6,-11
9325,-336,144,-1968,63,4,-10
9330,-368,136,-1960,63,4,-11
9335,-368,144,-1936,62,3,-10
9340,-368,136,-1968,64,4,-11
9345,-336,144,-1960,62,5,-11
9350,-352,136,-1952,62,7,-12
9355,-352,152,-1952,61,8,-10
9360,-352,160,-1968,60,9,-11
9365,-360,168,-1960,61,10,-10
9370,-360,152,-1920,60,12,-11
9375,-368,128,-1944,61,13,-9
9380,-352,152,-1952,59,13,-9
9385,-384,136,-1976,57,15,-8
9390,-376,160,-1928,51,16,-8
9395,-336,152,-1952,48,17,-10
9400,-336,160,-1960,48,18,-9
9405,-360,136,-1960,48,20,-11
9410,-352,152,-1960,49,23,-12
9415,-352,152,-1984,54,25,-12
9420,-368,120,-1968,59,26,-13
9425,-376,144,-2008,66,26,-11
9430,-344,144,-2000,69,26,-12
9435,-328,112,-1984,71,25,-11
9440,-312,184,-1968,69,21,-11
9445,-352,144,-1976,65,18,-11
9450,-336,136,-1960,60,17,-11
9455,-352,128,-1976,56,14,-9
9460,-360,144,-1960,53,15,-9
9465,-344,152,-1976,52,14,-9
9470,-352,128,-1944,53,13,-10
9475,-352,144,-1960,53,12,-10
9480,-360,192,-1952,51,13,-10
9485,-312,168,-1952,52,13,-11
9490,-392,152,-1984,50,15,-9
9495,-344,136,-1920,51,18,-10
9500,-344,136,-1952,56,19,-10
9505,-336,160,-1944,61,19,-11
9510,-344,120,-1944,64,20,-12
9515,-336,136,-1960,65,18,-11
9520,-336,152,-1928,61,15,-12
9525,-320,144,-1896,55,13,-12
9530,-360,136,-1872,48,8,-11
9535,-344,96,-1928,41,7,-11
9540,-336,144,-1912,40,8,-11
9545,-368,192,-1928,40,11,-12
9550,-360,144,-1952,45,14,-13
9555,-336,120,-1976,51,20,-13
9560,-368,160,-1992,59,24,-13
9565,-320,120,-2008,66,28,-13
9570,-352,152,-2008,73,28,-12
9575,-360,128,-2016,78,25,-12
9580,-336,136,-2016,80,21,-11
9585,-336,136,-2024,79,14,-10
9590,-336,136,-1992,76,9,-10
9595,-344,112,-2008,72,3,-9
9600,-408,136,-1976,65,0,-7
9605,-336,136,-1960,61,-5,-9
9610,-352,144,-1952,55,-6,-7
9615,-352,120,-1944,51,-6,-7
9620,-344,136,-1960,48,-4,-8
9625,-336,136,-1936,48,-2,-9
9630,-360,144,-1936,48,1,-11
9635,-328,104,-1936,50,4,-8
9640,-312,120,-1912,52,7,-9
9645,-336,144,-1960,55,7,-11
9650,-360,176,-1960,57,8,-10
9655,-360,152,-1944,58,8,-9
9660,-360,128,-1968,62,7,-11
9665,-312,128,-1960,63,6,-10
9670,-344,136,-1960,63,4,-11
9675,-344,144,-1960,64,3,-11
9680,-336,144,-1944,65,0,-11
9685,-360,144,-1928,66,0,-11
9690,-352,144,-1952,66,-2,-12
9695,-368,152,-1944,62,-6,-11
9700,-368,152,-1936,58,-7,-10
9705,-320,192,-2000,51,-8,-9
9710,-368,136,-1920,49,-7,-10
9715,-376,144,-1920,49,-4,-11
9720,-360,136,-1960,50,0,-13
9725,-384,152,-1960,55,4,-12
9730,-352,136,-1976,60,9,-12
9735,-352,152,-1992,64,11,-13
9740,-320,128,-2000,66,13,-11
9745,-328,144,-1936,66,13,-11
9750,-376,120,-1984,63,11,-10
9755,-336,128,-1968,58,9,-10
9760,-336,144,-1888,52,7,-10
9765,-352,128,-1936,45,6,-10
9770,-344,144,-1936,36,6,-9
9775,-368,136,-1936,30,10,-9
9780,-368,136,-1920,29,13,-9
9785,-368,144,-1952,33,18,-8
9790,-344,160,-1944,40,25,-10
9795,-344,152,-1960,48,29,-12
9800,-360,144,-2032,57,32,-13
9805,-368,152,-1992,62,32,-13
9810,-352,136,-1992,66,30,-12
9815,-336,88,-1952,65,27,-12
9820,-360,120,-1984,65,22,-11
9825,-368,128,-1968,62,17,-11
9830,-344,136,-1968,59,14,-10
9835,-352,128,-1960,56,11,-10
9840,-376,152,-1960,54,10,-9
9845,-344,136,-1920,51,8,-8
9850,-352,128,-1952,49,10,-9
9855,-328,136,-1912,51,11,-9
9860,-352,144,-1960,49,13,-10
9865,-360,128,-1976,50,12,-8
9870,-368,144,-1928,50,14,-8
9875,-352,120,-1960,51,17,-9
9880,-344,128,-1952,52,16,-10
9885,-352,128,-1936,54,18,-10
9890,-368,120,-1960,55,16,-9
9895,-352,136,-1944,55,15,-12
9900,-360,136,-2000,56,14,-9
9905,-336,120,-1952,56,12,-9
9910,-352,136,-1936,56,12,-10
9915,-336,120,-1928,54,10,-12
9920,-344,136,-1896,50,8,-10
9925,-352,136,-1952,44,7,-9
9930,-360,136,-1896,37,8,-9
9935,-344,136,-1936,30,9,-10
9940,-328,136,-1904,25,11,-11
9945,-344,136,-1880,23,17,-11
9950,-336,128,-1904,21,23,-11
9955,-376,152,-1928,22,28,-10
9960,-336,136,-1960,26,33,-10
9965,-352,136,-1968,35,40,-10
9970,-352,152,-1992,48,43,-11
9975,-336,152,-1952,62,47,-12
9980,-352,144,-2032,75,48,-12
9985,-344,128,-2040,87,43,-10
9990,-328,120,-2040,92,40,-9
9995,-344,136,-2048,92,35,-9
10000,-352,136,-2008,86,28,-9
10005,-344,136,-2016,76,22,-8
10010,-320,144,-1984,67,17,-8
10015,-320,104,-1984,57,15,-7
10020,-352,128,-1992,48,13,-7
10025,-344,120,-1960,44,12,-7
10030,-280,160,-1960,40,10,-8
10035,-352,152,-1944,40,11,-8
10040,-320,120,-1944,43,11,-9
10045,-328,136,-1976,48,13,-10
10050,-336,144,-1928,53,14,-11
10055,-328,136,-1968,55,15,-10
10060,-344,104,-1936,59,17,-10
10065,-328,128,-1952,59,17,-9
10070,-336,128,-1928,59,16,-9
10075,-320,96,-1984,58,12,-10
10080,-352,120,-1944,59,11,-9
10085,-336,144,-1992,61,6,-10
10090,-320,160,-1984,63,-3,-11
10095,-320,144,-1968,63,-17,-9
10100,-328,136,-1944,63,-32,-11
10105,-320,128,-1960,61,-48,-9
10110,-328,136,-1944,60,-60,-8
10115,-336,96,-1960,60,-68,-7
10120,-384,152,-1928,65,-73,-7
10125,-368,120,-2000,72,-73,-7
10130,-400,152,-1960,77,-72,-8
10135,-384,176,-1968,78,-72,-7
10140,-368,136,-1944,73,-71,-6
10145,-368,136,-1984,68,-68,-5
10150,-368,136,-1936,63,-64,-6
10155,-344,136,-1928,58,-60,-6
10160,-376,144,-1936,56,-54,-7
10165,-360,136,-1944,55,-45,-7
10170,-360,144,-1984,59,-36,-8
10175,-376,152,-2008,65,-26,-9
10180,-376,136,-2000,70,-18,-9
10185,-384,96,-1984,75,-12,-9
10190,-408,144,-1944,77,-7,-9
10195,-392,144,-2000,76,-6,-10
10200,-368,136,-2000,73,-5,-10
10205,-384,120,-2000,66,-4,-8
10210,-352,136,-1984,61,-4,-6
10215,-384,152,-1976,55,-4,-7
10220,-368,96,-1984,51,-4,-8
10225,-336,128,-1944,47,-4,-9
10230,-376,128,-1992,44,-3,-8
10235,-376,144,-1992,42,-2,-6
10240,-344,104,-1952,42,-1,-8
10245,-360,144,-1936,43,2,-8
10250,-360,120,-1936,45,6,-8
10255,-360,144,-1936,47,10,-9
10260,-352,96,-1936,49,14,-9
10265,-376,128,-1928,52,17,-10
10270,-368,120,-1928,54,18,-10
10275,-344,112,-1984,56,18,-11
10280,-328,112,-1984,57,17,-11
10285,-368,136,-1936,57,15,-13
10290,-368,128,-1944,59,15,-12
10295,-416,152,-1944,60,13,-11
10300,-352,128,-1936,63,12,-11
10305,-360,128,-1968,63,12,-12
10310,-376,144,-1960,63,12,-11
10315,-360,128,-2008,62,12,-10
10320,-360,128,-1960,61,11,-11
10325,-400,144,-1952,60,13,-12
10330,-352,128,-1976,58,14,-12
10335,-368,104,-1928,58,15,-12
10340,-368,176,-1984,56,17,-11
10345,-368,136,-1944,56,20,-10
10350,-360,136,-1944,54,21,-11
10355,-360,120,-1968,54,22,-11
10360,-368,136,-1944,51,23,-11
10365,-336,120,-1936,49,23,-10
10370,-368,128,-1928,48,22,-10
10375,-368,144,-1944,48,22,-12
10380,-352,128,-1960,46,19,-10
10385,-376,160,-1952,46,16,-11
10390,-368,144,-2008,46,15,-11
10395,-368,112,-1952,48,14,-12
10400,-408,104,-1992,48,12,-12
10405,-368,152,-1968,49,12,-11
10410,-352,136,-1944,51,12,-10
10415,-352,152,-1968,50,11,-11
10420,-360,144,-1944,50,10,-8
10425,-360,136,-1952,50,10,-10
10430,-360,144,-1944,51,10,-10
10435,-360,120,-1928,46,9,-11
10440,-368,128,-1912,44,10,-10
10445,-328,128,-1912,42,9,-11
10450,-352,104,-1920,38,10,-11
10455,-360,208,-1976,40,12,-12
10460,-368,120,-1928,41,15,-12
10465,-360,128,-1904,42,19,-12
10470,-384,136,-1960,47,20,-13
10475,-384,144,-1952,50,21,-13
10480,-360,144,-1968,52,23,-11
10485,-368,136,-1952,55,22,-14
10490,-376,168,-2024,57,23,-13
10495,-360,120,-2000,59,21,-11
10500,-376,136,-2016,60,20,-12
10505,-344,120,-1984,61,17,-11
10510,-400,136,-1976,58,17,-11
10515,-368,136,-1984,57,16,-10
10520,-376,144,-1976,56,16,-10
10525,-368,152,-1976,52,15,-9
10530,-376,128,-1944,50,14,-8
10535,-376,160,-1968,48,13,-10
10540,-360,152,-1960,49,13,-9
10545,-336,120,-1920,49,13,-9
10550,-392,136,-1928,50,13,-9
10555,-352,120,-1952,51,13,-10
10560,-360,168,-1936,53,13,-7
10565,-400,80,-1944,53,14,-9
10570,-344,128,-1952,54,13,-8
10575,-368,144,-1952,54,12,-8
10580,-360,128,-1960,56,13,-8
10585,-344,120,-1944,56,14,-10
10590,-360,128,-1912,57,14,-9
10595,-360,120,-1960,57,14,-10
10600,-352,120,-1936,59,15,-10
10605,-392,128,-1984,61,16,-10
10610,-360,144,-1960,60,14,-11
10615,-336,128,-1904,61,15,-11
10620,-360,104,-1944,59,14,-11
10625,-344,144,-1968,58,15,-10
10630,-352,128,-1968,57,14,-10
10635,-344,136,-1952,56,14,-8
10640,-376,144,-1936,54,13,-9
10645,-344,136,-1976,54,12,-10
10650,-360,144,-1928,55,11,-10
10655,-360,96,-1976,57,11,-10
10660,-336,96,-1992,59,11,-10
10665,-360,144,-2008,58,11,-11
10670,-368,88,-1976,58,11,-11
10675,-368,152,-1968,55,12,-10
10680,-360,136,-1936,52,12,-10
10685,-360,144,-1968,50,11,-10
10690,-360,152,-1960,48,11,-9
10695,-352,112,-1968,48,10,-10
10700,-344,136,-1960,50,10,-11
10705,-344,136,-1960,51,9,-10
10710,-352,128,-1992,50,7,-11
10715,-352,120,-1920,50,8,-9
10720,-360,136,-1928,49,8,-10
10725,-368,120,-1976,49,9,-10
10730,-352,120,-1952,49,10,-10
10735,-376,120,-1976,53,12,-10
10740,-336,136,-1960,58,14,-12
10745,-360,112,-1944,60,15,-12
10750,-344,112,-1960,62,15,-12
10755,-360,136,-1952,61,15,-11
10760,-352,128,-1960,60,14,-11
10765,-328,112,-1960,59,12,-11
10770,-384,128,-1928,58,12,-11
10775,-376,144,-1968,58,13,-12
10780,-352,144,-1888,57,13,-11
10785,-360,128,-1960,56,14,-11
10790,-376,128,-1920,57,15,-11
10795,-376,144,-1968,56,16,-10
10800,-376,144,-1952,57,18,-11
10805,-368,144,-1960,57,17,-11
10810,-360,136,-2008,56,19,-11
10815,-368,144,-1944,57,18,-11
10820,-344,128,-1984,57,17,-11
10825,-328,120,-1976,58,16,-12
10830,-392,152,-1976,56,14,-10
10835,-424,152,-1968,55,13,-10
10840,-368,112,-1968,54,12,-10
10845,-360,136,-1960,54,12,-9
10850,-352,128,-1952,54,12,-10
10855,-360,136,-1936,54,12,-9
10860,-360,136,-1952,54,13,-11
10865,-384,144,-1936,54,13,-9
10870,-344,120,-1984,54,12,-11
10875,-384,160,-1944,52,12,-11
10880,-352,200,-1984,52,11,-11
10885,-376,104,-1912,52,11,-11
10890,-384,136,-1968,52,11,-10
10895,-352,112,-1952,53,11,-10
10900,-360,112,-1952,53,12,-11
10905,-376,120,-1952,54,11,-10
10910,-360,136,-1944,54,12,-10
10915,-336,144,-1944,54,11,-10
10920,-368,144,-1960,54,10,-9
10925,-376,144,-1936,54,10,-9
10930,-360,152,-1976,53,10,-10
10935,-368,128,-1936,52,10,-10
10940,-368,184,-1952,52,10,-10
10945,-376,120,-1960,52,11,-10
10950,-368,120,-1984,53,11,-12
10955,-384,128,-1928,54,12,-10
10960,-344,128,-1976,52,11,-10
10965,-376,120,-1952,51,9,-11
10970,-360,96,-1976,50,9,-9
10975,-352,112,-1952,49,10,-9
10980,-368,120,-2000,49,10,-10
10985,-328,88,-1936,48,9,-10
10990,-344,136,-1944,47,11,-12
10995,-376,96,-1968,46,12,-11
11000,-352,112,-1936,48,12,-9
11005,-344,136,-1952,48,13,-11
11010,-360,128,-1952,47,13,-9
11015,-344,136,-1968,48,12,-10
11020,-368,136,-1960,50,12,-11
11025,-352,128,-1984,50,11,-11
11030,-360,104,-1968,50,12,-11
11035,-376,160,-1944,51,12,-11
11040,-328,128,-1920,51,12,-11
11045,-400,128,-1976,52,13,-9
11050,-368,104,-1944,50,11,-11
11055,-352,152,-1944,50,13,-10
11060,-376,136,-1960,50,15,-10
11065,-352,120,-1960,49,14,-10
11070,-352,104,-1952,49,14,-10
11075,-360,120,-1920,48,14,-10
11080,-336,136,-1928,48,16,-12
11085,-368,128,-1992,49,15,-11
11090,-384,168,-1936,48,16,-11
11095,-360,128,-1928,50,17,-11
11100,-344,136,-1944,49,16,-10
11105,-384,160,-1984,49,17,-10
11110,-368,136,-1952,50,16,-10
11115,-344,104,-1968,50,15,-10
11120,-360,96,-1928,51,16,-9
11125,-360,120,-1960,51,16,-10
11130,-344,128,-1960,51,15,-9
11135,-368,128,-1944,52,14,-10
11140,-360,128,-1928,52,16,-11
11145,-368,136,-1976,51,16,-10
11150,-352,120,-1968,51,17,-10
11155,-368,192,-1952,53,16,-9
11160,-376,152,-1968,54,16,-9
11165,-368,120,-1968,53,15,-9
11170,-376,136,-1936,54,15,-9
11175,-344,128,-1944,53,17,-9
11180,-344,120,-1936,53,16,-9
11185,-352,144,-1936,51,18,-10
11190,-368,120,-1944,51,18,-10
11195,-344,112,-1984,52,17,-9
11200,-384,128,-1960,52,18,-8
11205,-344,136,-1920,54,17,-9
11210,-352,144,-1992,54,16,-11
11215,-360,120,-1952,55,16,-11
11220,-360,120,-1944,56,15,-11
11225,-352,136,-1952,54,15,-8
11230,-376,144,-1960,54,14,-9
11235,-360,128,-1960,52,15,-10
11240,-360,128,-1976,51,14,-12
11245,-344,128,-1968,50,13,-10
11250,-384,160,-1992,53,15,-10
11255,-384,120,-1960,56,14,-9
11260,-376,184,-1984,56,12,-12
11265,-384,128,-1960,57,12,-12
11270,-360,144,-1976,56,13,-11
11275,-352,144,-1976,53,13,-10
11280,-368,120,-1952,50,13,-11
11285,-360,128,-1952,50,13,-9
11290,-336,120,-1976,50,13,-10
11295,-336,120,-1944,51,12,-11
11300,-336,136,-1984,54,12,-11
11305,-352,120,-1920,54,12,-12
11310,-328,120,-1920,54,12,-10
11315,-360,88,-1952,55,12,-11
11320,-368,144,-1920,55,12,-9
11325,-344,96,-1944,55,13,-10
11330,-376,136,-1952,56,14,-12
11335,-360,112,-1952,59,17,-12
11340,-352,112,-1976,64,18,-12
11345,-312,112,-1944,66,19,-11
11350,-344,104,-1984,66,18,-11
11355,-360,136,-1952,66,18,-12
11360,-368,152,-1904,64,18,-11
11365,-352,224,-1992,63,17,-11
11370,-344,120,-1968,61,16,-10
11375,-376,152,-1968,61,16,-11
11380,-352,136,-1904,60,17,-12
11385,-376,128,-1968,59,19,-12
11390,-360,128,-1928,57,20,-12
11395,-360,128,-1960,56,23,-11
11400,-336,112,-1984,57,27,-11
11405,-352,72,-1968,56,30,-11
11410,-360,120,-1936,56,31,-12
11415,-384,120,-1920,55,30,-12
11420,-384,120,-1984,57,31,-11
11425,-368,128,-1944,55,30,-12
11430,-352,120,-1944,56,28,-12
11435,-352,120,-1960,57,27,-11
11440,-360,120,-2000,56,27,-12
11445,-360,136,-1968,55,27,-11
11450,-360,128,-1984,55,25,-13
11455,-368,160,-1952,53,24,-11
11460,-336,128,-1976,52,25,-12
11465,-360,120,-1968,51,25,-13
11470,-328,136,-1976,50,24,-11
11475,-344,120,-1920,49,23,-11
11480,-352,104,-1976,49,22,-10
11485,-344,112,-1976,48,20,-12
11490,-344,136,-1912,48,20,-10
11495,-352,144,-1960,50,20,-10
11500,-352,144,-1944,49,19,-10
11505,-328,152,-1968,48,22,-11
11510,-360,128,-1952,49,21,-10
11515,-360,128,-1920,50,20,-9
11520,-344,136,-1976,50,19,-9
11525,-344,144,-1984,51,18,-10
11530,-328,112,-2000,50,16,-9
11535,-384,120,-1968,49,14,-8
11540,-352,128,-1952,51,14,-10
11545,-344,120,-2000,54,14,-12
11550,-376,128,-1968,54,14,-11
11555,-368,104,-1944,55,14,-10
11560,-344,96,-1984,54,14,-11
11565,-368,136,-1976,52,11,-9
11570,-328,128,-1944,51,11,-10
11575,-352,128,-1944,49,11,-9
11580,-392,112,-2032,47,11,-9
11585,-344,136,-1960,47,13,-10
11590,-360,120,-1944,48,13,-10
11595,-328,120,-1952,46,12,-9
11600,-360,120,-1960,47,14,-11
11605,-352,136,-1968,47,12,-9
11610,-360,112,-1952,48,14,-11
11615,-336,112,-1944,49,12,-12
11620,-336,104,-1976,50,12,-12
11625,-336,144,-1976,51,11,-11
11630,-352,120,-1984,52,9,-11
11635,-368,128,-2000,52,10,-11
11640,-344,120,-1952,52,11,-11
11645,-360,136,-1952,52,11,-10
11650,-352,104,-1952,51,10,-11
11655,-352,144,-1952,51,10,-10
11660,-344,128,-1968,51,10,-9
11665,-352,120,-1928,51,11,-10
11670,-368,104,-1976,51,10,-9
11675,-360,128,-1920,50,11,-9
11680,-352,128,-1936,49,10,-11
11685,-400,136,-1984,51,10,-9
11690,-352,120,-1968,51,11,-10
11695,-360,120,-1992,51,10,-10
11700,-344,112,-1976,53,10,-10
11705,-352,120,-1976,51,12,-10
11710,-384,144,-1968,51,10,-10
11715,-336,128,-1944,51,12,-10
11720,-368,120,-1968,51,12,-10
11725,-360,136,-1960,51,12,-11
11730,-344,128,-1944,50,11,-10
11735,-344,112,-1944,50,11,-10
11740,-352,152,-1976,50,12,-10
11745,-368,136,-1952,51,11,-9
11750,-336,144,-1984,52,11,-9
11755,-352,136,-1968,52,11,-9
11760,-360,144,-1952,52,12,-9
11765,-352,112,-1952,51,13,-9
11770,-352,136,-1960,51,13,-9
11775,-368,144,-1976,51,14,-9
11780,-384,128,-1944,48,16,-9
11785,-376,120,-1928,45,16,-8
11790,-360,128,-2016,43,17,-8
11795,-360,160,-1968,42,18,-9
11800,-352,136,-1976,41,18,-8
11805,-352,120,-1976,41,19,-8
11810,-336,112,-1952,41,19,-10
11815,-368,128,-1952,41,20,-9
11820,-368,120,-1960,41,20,-9
11825,-384,136,-1992,39,20,-10
11830,-344,144,-1976,38,20,-9
11835,-368,168,-1944,37,21,-9
11840,-328,160,-1944,39,21,-9
11845,-320,144,-1976,41,20,-8
11850,-344,128,-1968,44,19,-10
11855,-352,128,-1976,45,20,-10
11860,-336,136,-1968,45,20,-10
11865,-376,152,-1952,43,20,-10
11870,-352,120,-1952,42,20,-10
11875,-376,128,-1976,41,19,-10
11880,-368,136,-1920,41,19,-10
11885,-344,128,-1976,43,17,-11
11890,-344,136,-1952,47,17,-11
11895,-336,104,-1928,48,17,-10
11900,-368,120,-1920,49,17,-11
11905,-368,136,-1928,49,16,-10
11910,-320,120,-1976,51,15,-9
11915,-360,136,-1936,49,18,-9
11920,-352,128,-1936,51,19,-11
11925,-336,128,-1928,55,20,-11
11930,-352,128,-1928,60,21,-10
11935,-384,144,-2000,64,23,-12
11940,-336,112,-1984,65,23,-12
11945,-336,120,-1952,65,21,-11
11950,-352,136,-1944,63,19,-11
11955,-336,120,-1968,61,20,-11
11960,-368,144,-1984,62,18,-11
11965,-360,136,-1984,61,19,-11
11970,-352,136,-1992,61,21,-11
11975,-376,120,-1976,60,20,-12
11980,-344,112,-1984,59,19,-11
11985,-344,128,-1968,57,20,-11
11990,-352,144,-1952,55,21,-11
11995,-392,128,-1960,55,21,-10
12000,-360,144,-1944,55,21,-11
12005,-352,128,-1928,55,21,-10
12010,-344,136,-1984,53,19,-12
12015,-352,112,-1960,53,16,-10
12020,-368,144,-1960,49,15,-9
12025,-352,104,-1968,47,14,-10
12030,-344,128,-1952,44,13,-9
12035,-344,112,-1968,41,12,-9
12040,-336,160,-1960,38,14,-8
12045,-344,128,-1960,35,14,-7
12050,-352,128,-1952,33,14,-8
12055,-344,120,-1976,32,16,-7
12060,-360,144,-1920,30,17,-8
12065,-384,104,-1904,30,19,-9
12070,-368,136,-1952,30,20,-8
12075,-352,152,-1960,29,20,-7
12080,-368,144,-1976,28,20,-7
12085,-344,160,-1920,26,20,-7
12090,-336,128,-1976,26,21,-9
12095,-368,160,-1968,27,21,-9
12100,-344,144,-1944,27,20,-9
12105,-352,136,-1944,26,21,-8
12110,-384,168,-1984,28,22,-9
12115,-352,136,-1960,28,23,-8
12120,-368,144,-1944,29,22,-8
12125,-344,120,-1952,28,21,-9
12130,-336,136,-1936,27,22,-9
12135,-352,144,-1944,28,23,-10
12140,-352,136,-1960,31,23,-10
12145,-352,136,-1944,33,23,-10
12150,-368,112,-1960,33,23,-9
12155,-344,136,-1984,34,23,-9
12160,-344,120,-1936,33,22,-10
12165,-336,112,-1928,33,22,-9
12170,-328,96,-1992,32,23,-9
12175,-352,144,-1968,33,23,-10
12180,-352,128,-1976,31,24,-10
12185,-352,144,-1944,31,25,-12
12190,-360,152,-1944,32,25,-10
12195,-336,144,-1952,33,26,-12
12200,-368,176,-1968,32,27,-10
12205,-360,120,-1976,32,28,-10
12210,-320,128,-1952,34,28,-12
12215,-376,128,-1984,36,28,-10
12220,-336,128,-1944,37,27,-11
12225,-336,144,-1960,37,27,-9
12230,-368,144,-1968,36,27,-10
12235,-336,136,-1976,38,27,-11
12240,-336,136,-1960,37,28,-11
12245,-312,152,-1960,37,29,-10
12250,-344,160,-1960,35,28,-10
12255,-344,152,-1952,35,27,-11
12260,-344,160,-1968,36,27,-10
12265,-360,136,-1992,34,25,-8
12270,-328,112,-1968,36,26,-10
12275,-296,152,-2008,34,26,-8
12280,-344,120,-1944,35,26,-9
12285,-320,152,-1976,35,24,-10
12290,-320,144,-1952,35,23,-11
12295,-328,136,-1968,35,23,-9
12300,-352,120,-1952,37,22,-9
12305,-336,152,-1960,36,23,-8
12310,-296,128,-1968,35,22,-9
12315,-336,152,-1920,36,22,-9
12320,-344,152,-1968,37,22,-9
12325,-328,128,-1960,36,21,-9
12330,-320,144,-1944,36,22,-8
12335,-352,168,-1960,38,23,-10
12340,-344,144,-1984,39,22,-10
12345,-352,144,-1960,39,22,-8
12350,-352,160,-1960,40,23,-9
12355,-336,128,-1952,40,23,-11
12360,-344,160,-1920,41,25,-10
12365,-384,176,-2000,42,25,-12
12370,-344,152,-1976,42,25,-10
12375,-328,152,-1936,42,25,-8
12380,-320,136,-1952,42,25,-10
12385,-328,136,-1968,42,26,-9
12390,-352,112,-1936,43,25,-8
12395,-360,160,-1952,43,26,-10
12400,-320,136,-1960,45,25,-9
12405,-328,136,-1984,45,25,-9
12410,-352,176,-1960,47,25,-11
12415,-352,144,-1960,47,25,-11
12420,-328,152,-1944,45,24,-11
12425,-352,168,-1976,45,24,-12
12430,-344,160,-1952,44,23,-11
12435,-336,152,-1960,46,23,-8
12440,-344,160,-1984,48,22,-9
12445,-344,136,-1992,51,22,-11
12450,-344,136,-1968,51,21,-13
12455,-352,136,-1936,50,20,-11
12460,-336,152,-1960,51,18,-9
12465,-304,144,-1952,49,18,-9
12470,-352,136,-1960,47,16,-8
12475,-328,120,-1928,45,16,-7
12480,-336,128,-1928,43,16,-8
12485,-360,144,-1952,45,17,-9
12490,-320,168,-1960,45,18,-9
12495,-320,160,-1960,45,19,-8
12500,-344,144,-1936,44,21,-9
12505,-336,136,-1936,42,21,-9
12510,-352,160,-1952,42,23,-11
12515,-328,152,-1936,43,25,-10
12520,-312,160,-1976,46,27,-11
12525,-344,152,-1960,50,29,-12
12530,-360,160,-1944,53,30,-12
12535,-280,112,-1968,53,32,-9
12540,-320,192,-1936,53,30,-11
12545,-328,144,-1968,53,28,-12
12550,-320,144,-1968,53,27,-12
12555,-328,152,-1984,53,25,-8
12560,-312,136,-1976,52,24,-9
12565,-328,144,-1984,51,23,-10
12570,-336,152,-1976,50,22,-12
12575,-320,112,-1976,49,22,-10
12580,-352,152,-1968,47,23,-11
12585,-368,144,-1960,48,23,-10
12590,-336,128,-1976,46,22,-10
12595,-400,144,-1960,44,22,-9
12600,-344,160,-1960,45,23,-9
12605,-304,152,-1944,44,21,-10
12610,-336,144,-1952,43,20,-8
12615,-328,144,-1936,43,19,-7
12620,-328,168,-2000,43,18,-9
12625,-336,160,-1968,43,17,-7
12630,-328,128,-1952,42,16,-9
12635,-320,168,-1936,42,18,-7
12640,-344,160,-1928,42,18,-9
12645,-288,128,-1936,42,18,-10
12650,-336,144,-1856,44,19,-10
12655,-328,144,-1920,44,19,-7
12660,-344,160,-1976,45,18,-10
12665,-328,160,-1936,46,20,-11
12670,-328,128,-1952,47,21,-10
12675,-320,144,-1976,46,20,-11
12680,-368,184,-1968,46,20,-11
12685,-328,144,-1912,48,21,-10
12690,-344,120,-1968,47,22,-11
12695,-344,160,-1952,49,22,-11
12700,-288,128,-1992,50,22,-10
12705,-320,144,-1984,52,22,-10
12710,-312,152,-1960,51,20,-10
12715,-312,152,-1944,48,20,-11
12720,-320,136,-1984,48,19,-12
12725,-328,152,-1944,50,19,-10
12730,-312,128,-1976,50,19,-10
12735,-344,152,-1928,50,19,-9
12740,-304,152,-1968,49,17,-10
12745,-312,152,-2000,49,17,-11
12750,-352,128,-1920,48,16,-8
12755,-304,88,-1952,48,16,-10
12760,-312,152,-1952,48,17,-11
12765,-320,144,-1960,48,18,-10
12770,-312,120,-1936,48,20,-9
12775,-320,152,-1984,47,20,-10
12780,-328,128,-1952,46,19,-10
12785,-336,152,-1944,46,21,-10
12790,-312,128,-1968,45,20,-9
12795,-336,160,-1952,47,20,-10
12800,-312,176,-1960,47,21,-9
12805,-336,144,-1968,47,21,-11
12810,-344,128,-1952,47,20,-9
12815,-312,136,-1944,50,20,-10
12820,-320,152,-1968,51,19,-11
12825,-328,144,-1984,51,18,-10
12830,-328,128,-1968,51,18,-10
12835,-328,144,-1960,51,18,-10
12840,-376,160,-1984,51,20,-9
12845,-344,144,-1920,52,18,-10
12850,-344,144,-1984,50,17,-10
12855,-336,152,-1920,49,17,-9
12860,-336,168,-1928,49,17,-9
12865,-328,136,-1920,48,16,-9
12870,-344,152,-1984,49,16,-11
12875,-336,184,-1960,50,15,-10
12880,-328,144,-1960,51,15,-11
12885,-352,136,-1976,50,14,-8
12890,-312,136,-1960,51,14,-10
12895,-320,136,-1968,52,13,-10
12900,-312,136,-1976,50,14,-9
12905,-336,176,-1968,50,12,-10
12910,-328,160,-1960,50,13,-9
12915,-328,128,-1984,50,14,-11
12920,-336,176,-1976,49,14,-10
12925,-344,160,-1968,50,15,-11
12930,-328,176,-1960,51,16,-12
12935,-328,160,-1944,51,15,-12
12940,-344,152,-1944,51,16,-11
12945,-320,168,-1960,49,16,-10
12950,-360,160,-1976,48,15,-10
12955,-352,152,-2000,49,16,-11
12960,-336,176,-1968,48,16,-10
12965,-320,144,-1944,48,16,-10
12970,-304,144,-2024,49,18,-12
12975,-336,152,-1952,49,18,-12
12980,-336,144,-1952,51,18,-11
12985,-320,152,-1952,49,18,-10
12990,-328,152,-1984,49,17,-9
12995,-352,160,-1960,48,18,-10
13000,-344,192,-1968,49,18,-10
13005,-336,152,-1976,49,20,-10
13010,-320,112,-1984,48,18,-12
13015,-320,184,-1960,47,19,-12
13020,-296,88,-1960,46,20,-10
13025,-352,152,-1960,48,19,-9
13030,-328,144,-1960,49,21,-10
13035,-328,144,-1984,50,20,-11
13040,-312,152,-1968,53,19,-12
13045,-320,136,-1976,55,19,-12
13050,-344,152,-1968,55,17,-11
13055,-320,128,-1960,55,16,-10
13060,-336,120,-1984,54,15,-11
13065,-320,160,-1936,52,15,-11
13070,-336,144,-1968,50,14,-10
13075,-320,136,-1944,49,13,-11
13080,-328,136,-1960,49,14,-11
13085,-328,152,-1936,51,16,-11
13090,-328,152,-1936,53,16,-10
13095,-320,144,-1928,53,16,-12
13100,-328,160,-1944,52,16,-10
13105,-328,160,-1936,51,17,-12
13110,-312,128,-1944,50,20,-12
13115,-312,160,-1952,53,22,-13
13120,-320,152,-1976,56,26,-11
13125,-296,120,-1960,57,27,-12
13130,-344,160,-1960,59,28,-12
13135,-336,152,-1936,58,26,-12
13140,-296,112,-2000,60,24,-11
13145,-328,176,-2000,60,23,-14
13150,-320,160,-1968,59,21,-11
13155,-312,144,-1952,59,20,-14
13160,-328,152,-2000,59,19,-12
13165,-312,152,-1960,59,18,-11
13170,-360,152,-1976,57,17,-10
13175,-328,144,-1992,55,17,-10
13180,-328,144,-2016,55,16,-12
13185,-336,160,-1992,54,15,-10
13190,-328,160,-1968,53,16,-10
13195,-328,136,-1968,52,15,-10
13200,-328,160,-1952,50,15,-9
13205,-320,152,-1976,50,15,-11
13210,-328,136,-1968,49,15,-10
13215,-328,168,-1960,47,14,-10
13220,-352,168,-1968,47,12,-11
13225,-320,152,-1968,46,15,-10
13230,-328,160,-1936,47,16,-10
13235,-320,152,-1992,47,16,-9
13240,-312,152,-1976,48,17,-10
13245,-320,152,-1952,48,19,-9
13250,-336,144,-1944,47,19,-10
13255,-336,152,-1952,48,19,-10
13260,-312,136,-1960,48,19,-9
13265,-296,152,-1960,47,19,-10
13270,-328,152,-1960,49,21,-10
13275,-312,144,-1976,47,20,-10
13280,-296,120,-1968,47,19,-8
13285,-304,144,-1976,48,19,-11
13290,-272,136,-1944,49,17,-10
13295,-328,144,-1952,50,20,-10
13300,-304,128,-1984,51,20,-9
13305,-328,160,-1960,52,20,-11
13310,-320,144,-1992,52,18,-10
13315,-320,144,-1960,50,17,-10
13320,-336,144,-1952,49,15,-9
13325,-344,160,-1976,50,15,-10
13330,-328,136,-1960,52,13,-11
13335,-296,160,-1944,51,14,-8
13340,-344,136,-1944,50,13,-10
13345,-336,128,-1992,50,12,-9
13350,-312,128,-1944,50,11,-10
13355,-328,160,-1976,49,12,-11
13360,-336,168,-1976,49,12,-11
13365,-344,176,-1928,50,12,-10
13370,-304,152,-1976,51,13,-9
13375,-320,152,-2000,51,14,-11
13380,-304,120,-1960,51,15,-11
13385,-344,160,-1936,50,15,-12
13390,-328,168,-1936,50,15,-12
13395,-256,136,-1960,51,16,-12
13400,-312,168,-1952,51,16,-9
13405,-304,152,-1968,52,15,-10
13410,-312,152,-1936,51,16,-9
13415,-328,168,-1968,52,16,-10
13420,-336,144,-1984,53,15,-10
13425,-328,136,-2000,52,14,-10
13430,-320,160,-1984,53,15,-8
13435,-328,168,-1960,54,13,-11
13440,-336,160,-2000,53,13,-11
13445,-320,152,-1992,53,15,-11
13450,-312,136,-1936,52,13,-12
13455,-336,152,-1960,52,13,-12
13460,-312,160,-1976,50,13,-10
13465,-328,168,-1960,50,13,-9
13470,-328,160,-1968,51,12,-10
13475,-320,136,-1952,51,11,-11
13480,-328,160,-1968,52,12,-11
13485,-320,160,-1952,52,13,-11
13490,-328,168,-1960,55,12,-12
13495,-328,144,-2008,57,10,-11
13500,-288,144,-1984,56,12,-10
13505,-344,184,-1928,57,11,-9
13510,-312,128,-1968,57,11,-11
13515,-328,160,-1952,55,10,-9
13520,-312,152,-1992,55,11,-11
13525,-304,168,-1968,55,11,-12
13530,-344,160,-1976,54,10,-11
13535,-328,176,-1976,55,10,-11
13540,-312,136,-1928,55,11,-11
13545,-304,128,-1944,57,12,-11
13550,-320,136,-1960,58,14,-10
13555,-328,120,-1944,57,13,-9
13560,-328,160,-1992,58,13,-9
13565,-328,144,-1968,57,12,-10
13570,-312,152,-1976,57,14,-12
13575,-312,152,-1968,58,14,-11
13580,-328,160,-2000,60,13,-11
13585,-296,136,-1984,60,14,-11
13590,-344,160,-1992,60,13,-9
13595,-328,160,-1944,61,13,-11
13600,-312,136,-1960,62,11,-12
13605,-328,128,-1928,61,9,-12
13610,-352,152,-1984,61,10,-10
13615,-336,168,-1952,58,9,-9
13620,-312,168,-1968,57,11,-9
13625,-296,136,-1984,55,10,-12
13630,-312,128,-1960,55,10,-11
13635,-312,128,-1968,55,11,-11
13640,-304,144,-1968,56,11,-12
13645,-336,136,-1960,55,11,-12
13650,-344,160,-1936,57,10,-12
13655,-288,104,-1992,57,9,-11
13660,-312,136,-1936,56,9,-13
13665,-328,152,-1992,56,9,-10
13670,-312,152,-1992,54,10,-11
13675,-328,160,-1984,53,9,-10
13680,-312,136,-1920,50,8,-10
13685,-336,152,-1960,49,9,-10
13690,-320,136,-1952,49,10,-10
13695,-312,152,-1976,51,9,-9
13700,-328,136,-1928,50,9,-9
13705,-320,160,-2008,50,10,-8
13710,-328,144,-1928,47,12,-9
13715,-328,128,-1984,47,13,-9
13720,-312,160,-1952,49,15,-9
13725,-360,168,-1944,51,18,-10
13730,-320,160,-1928,55,22,-10
13735,-320,152,-1984,57,21,-10
13740,-336,136,-1984,58,20,-9
13745,-336,168,-1968,59,20,-10
13750,-336,152,-1968,60,18,-9
13755,-360,168,-1936,61,15,-10
13760,-280,120,-1992,63,13,-11
13765,-320,152,-1968,63,11,-9
13770,-288,152,-1992,63,9,-10
13775,-328,136,-1968,63,8,-12
13780,-320,144,-1944,63,6,-11
13785,-320,144,-1976,62,8,-13
13790,-328,160,-1992,60,8,-12
13795,-320,152,-1976,60,8,-10
13800,-320,152,-1976,60,8,-10
13805,-344,136,-1944,62,7,-11
13810,-336,144,-2016,59,7,-10
13815,-304,136,-2000,58,5,-10
13820,-288,112,-1976,59,4,-9
13825,-320,160,-1976,58,4,-10
13830,-336,152,-1968,58,4,-10
13835,-320,136,-1976,59,6,-10
13840,-312,136,-1952,59,8,-11
13845,-328,136,-1976,58,6,-9
13850,-336,152,-1928,60,8,-12
13855,-304,160,-1928,62,9,-13
13860,-312,152,-1952,61,9,-11
13865,-320,160,-1952,62,10,-11
13870,-344,144,-1960,61,9,-12
13875,-296,136,-1944,61,10,-10
13880,-320,144,-2000,61,9,-10
13885,-328,144,-1968,61,9,-9
13890,-344,144,-1976,59,8,-9
13895,-344,160,-1976,59,7,-8
13900,-312,136,-1960,59,8,-10
13905,-296,160,-1952,59,8,-10
13910,-328,128,-1944,59,7,-10
13915,-320,144,-1984,60,5,-9
13920,-336,144,-1976,59,4,-9
13925,-328,152,-1960,58,4,-8
13930,-320,192,-1952,57,5,-9
13935,-328,152,-1952,59,4,-8
13940,-336,144,-1960,59,6,-10
13945,-312,136,-1984,59,5,-9
13950,-328,152,-1944,57,4,-9
13955,-344,168,-1968,56,4,-9
13960,-312,136,-1960,55,4,-9
13965,-320,136,-1976,56,4,-9
13970,-304,152,-1992,56,4,-10
13975,-336,144,-1952,58,4,-11
13980,-320,128,-1960,57,5,-11
13985,-304,160,-1952,58,7,-9
13990,-320,120,-1936,58,8,-10
13995,-336,144,-1968,57,9,-10
14000,-336,152,-1976,56,10,-10
14005,-336,152,-1920,56,11,-11
14010,-344,144,-1952,56,12,-9
14015,-336,160,-1952,58,12,-11
14020,-312,144,-1976,58,13,-11
14025,-336,168,-1928,58,14,-10
14030,-320,144,-1936,60,16,-10
14035,-328,120,-1992,60,15,-12
14040,-336,136,-1984,60,13,-11
14045,-328,120,-1984,59,12,-10
14050,-336,152,-1976,59,11,-10
14055,-336,160,-1960,58,9,-11
14060,-328,136,-1968,58,9,-11
14065,-352,152,-1992,58,7,-12
14070,-328,160,-1928,58,7,-11
14075,-336,160,-1976,56,6,-12
14080,-312,136,-1960,56,5,-10
14085,-320,112,-1992,56,5,-11
14090,-320,112,-1944,57,5,-11
14095,-328,168,-1984,58,3,-10
14100,-320,128,-1960,57,4,-11
14105,-336,128,-1984,57,2,-12
14110,-328,144,-1960,56,2,-12
14115,-328,144,-1960,55,2,-11
14120,-328,128,-1960,54,1,-12
14125,-344,144,-1920,55,1,-10
14130,-352,152,-1944,54,2,-10
14135,-320,152,-1944,55,3,-10
14140,-320,152,-1952,55,3,-11
14145,-288,168,-1968,56,3,-11
14150,-328,136,-1976,58,3,-10
14155,-328,152,-1952,57,4,-11
14160,-328,144,-1968,57,4,-11
14165,-344,144,-1952,59,5,-12
14170,-344,160,-1920,59,4,-11
14175,-312,144,-1944,60,3,-12
14180,-304,144,-1992,60,2,-11
14185,-336,144,-1968,61,3,-12
14190,-336,136,-1944,61,2,-11
14195,-360,176,-1968,62,3,-12
14200,-336,112,-1952,60,2,-10
14205,-336,160,-1992,59,2,-12
14210,-320,144,-1984,59,3,-12
14215,-320,136,-1936,58,3,-11
14220,-328,128,-1984,59,4,-10
14225,-344,160,-1968,60,4,-12
14230,-344,152,-1920,61,5,-13
14235,-336,136,-1928,62,6,-11
14240,-320,112,-1952,64,5,-11
14245,-296,96,-1920,64,5,-10
14250,-336,144,-1888,62,3,-10
14255,-312,136,-1952,61,4,-10
14260,-320,128,-1952,59,4,-8
14265,-320,152,-1984,58,4,-9
14270,-328,128,-1960,58,5,-11
14275,-328,152,-1944,57,7,-10
14280,-328,144,-1960,56,5,-10
14285,-344,168,-1968,56,6,-10
14290,-304,88,-1968,58,7,-9
14295,-304,120,-2000,61,6,-11
14300,-336,160,-1960,61,6,-12
14305,-376,120,-1944,61,7,-12
14310,-352,160,-1952,60,6,-11
14315,-328,152,-1968,60,6,-11
14320,-352,128,-1984,59,6,-8
14325,-336,144,-1968,57,5,-9
14330,-336,120,-1952,56,4,-9
14335,-352,168,-1968,54,5,-10
14340,-336,136,-1928,54,4,-10
14345,-304,152,-1944,55,3,-10
14350,-352,136,-1944,55,4,-9
14355,-392,216,-1952,53,4,-10
14360,-344,128,-1984,53,5,-10
14365,-320,120,-1944,52,6,-9
14370,-328,128,-1952,54,9,-11
14375,-320,136,-1952,57,10,-11
14380,-352,152,-1960,61,12,-11
14385,-312,128,-1976,63,12,-9
14390,-328,136,-2000,64,11,-11
14395,-336,128,-1928,64,10,-11
14400,-352,168,-1992,63,9,-12
14405,-352,152,-1984,64,8,-11
14410,-312,136,-1984,63,7,-11
14415,-344,120,-1952,62,7,-11
14420,-328,144,-1952,63,7,-10
14425,-328,136,-2000,62,7,-11
14430,-336,136,-1952,63,7,-11
14435,-336,168,-1944,62,8,-12
14440,-344,128,-1976,63,6,-10
14445,-344,136,-1992,65,6,-11
14450,-304,104,-1960,64,7,-11
14455,-344,128,-1968,63,7,-13
14460,-344,120,-1952,62,5,-10
14465,-328,160,-2040,61,4,-10
14470,-344,136,-1976,60,4,-11
14475,-336,136,-1976,60,4,-11
14480,-344,152,-1976,58,3,-9
14485,-352,168,-1952,57,3,-10
14490,-328,144,-1944,56,3,-9
14495,-344,144,-1952,57,3,-11
14500,-296,128,-1960,57,4,-9
14505,-336,120,-1976,56,6,-11
14510,-336,128,-1968,56,6,-9
14515,-376,136,-1848,55,5,-9
14520,-328,128,-1936,56,5,-10
14525,-344,136,-1976,57,6,-10
14530,-328,120,-1936,57,5,-9
14535,-328,144,-1952,57,7,-10
14540,-344,152,-1992,58,9,-9
14545,-320,96,-1968,57,7,-9
14550,-352,136,-1944,58,6,-11
14555,-352,144,-1984,57,6,-11
14560,-344,152,-1960,57,6,-10
14565,-336,128,-1920,58,6,-10
14570,-344,112,-2000,56,6,-12
14575,-328,128,-1936,55,5,-12
14580,-328,160,-1944,54,5,-10
14585,-344,112,-1944,55,3,-10
14590,-344,136,-1984,56,4,-9
14595,-344,152,-1968,56,5,-11
14600,-344,136,-1952,56,5,-11
14605,-336,168,-1976,56,4,-11
14610,-336,128,-1928,55,5,-11
14615,-320,128,-1952,55,5,-10
14620,-368,136,-2000,54,4,-12
14625,-344,96,-1944,54,6,-10
14630,-352,128,-1952,55,5,-10
14635,-344,136,-1952,55,6,-11
14640,-328,128,-1960,54,5,-10
14645,-336,152,-1944,55,6,-9
14650,-320,128,-1952,54,6,-9
14655,-384,160,-1976,53,5,-10
14660,-392,144,-1904,54,8,-10
14665,-344,144,-1952,54,6,-10
14670,-288,112,-1952,54,6,-11
14675,-320,80,-1960,55,6,-10
14680,-336,136,-1968,56,7,-11
14685,-344,144,-1968,55,7,-11
14690,-328,136,-1992,55,7,-11
14695,-352,136,-1976,54,7,-11
14700,-328,136,-1976,54,5,-10
14705,-336,136,-1960,53,6,-11
14710,-312,128,-1904,53,8,-10
14715,-352,152,-1960,53,7,-10
14720,-392,152,-1928,52,6,-12
14725,-320,152,-1960,52,6,-10
14730,-280,120,-1960,51,6,-9
14735,-320,128,-2000,53,8,-9
14740,-336,144,-1952,53,7,-12
14745,-344,144,-1952,55,7,-11
14750,-360,160,-1960,53,7,-11
14755,-352,152,-1944,53,8,-10
14760,-336,136,-1960,53,9,-11
14765,-352,88,-1944,54,9,-10
14770,-304,112,-2016,54,10,-10
14775,-328,112,-1968,55,10,-11
14780,-336,112,-1960,54,10,-12
14785,-280,64,-1960,55,11,-12
14790,-344,128,-1944,55,12,-10
14795,-336,136,-1968,56,11,-11
14800,-344,128,-1976,56,13,-12
14805,-328,152,-1960,56,13,-11
14810,-360,144,-1952,56,12,-11
14815,-352,136,-1968,57,13,-11
14820,-320,120,-1960,56,12,-11
14825,-360,128,-1968,56,12,-11
14830,-352,144,-1960,55,13,-10
14835,-344,136,-1944,56,12,-10
14840,-344,128,-1976,56,12,-10
14845,-328,120,-1968,56,12,-10
14850,-336,120,-1952,56,13,-10
14855,-328,128,-1960,56,12,-11
14860,-328,120,-1960,56,12,-10
14865,-328,136,-1984,55,11,-10
14870,-312,120,-1936,55,12,-10
14875,-344,128,-1960,55,11,-10
14880,-336,136,-1928,55,10,-10
14885,-336,144,-1976,54,9,-10
14890,-352,136,-2000,55,10,-11
14895,-384,136,-1960,54,11,-12
14900,-336,120,-1960,54,11,-10
14905,-328,144,-1968,53,10,-9
14910,-328,144,-1936,52,11,-10
14915,-344,120,-1944,52,11,-9
14920,-352,120,-1976,54,10,-9
14925,-336,120,-1952,53,10,-10
14930,-352,128,-1960,53,10,-11
14935,-336,152,-1976,53,9,-9
14940,-344,128,-1928,53,10,-9
14945,-368,88,-1968,52,9,-11
14950,-312,120,-1944,52,9,-11
14955,-352,128,-1952,52,10,-10
14960,-344,120,-1952,51,9,-11
14965,-336,136,-1952,52,9,-12
14970,-352,136,-1952,52,8,-12
14975,-336,136,-1984,52,7,-11
14980,-352,128,-1920,52,9,-10
14985,-344,144,-1952,54,9,-11
14990,-312,136,-1960,53,10,-11
14995,-336,144,-1944,52,9,-8
