timestamp,accel_x,accel_y,accel_z,gyro_x,gyro_y,gyro_z
0,128,-1920,-632,66,18,-13
5,96,-1904,-656,68,17,-14
10,112,-1912,-648,69,17,-15
15,104,-1912,-648,72,15,-16
20,96,-1904,-632,78,14,-14
25,88,-1928,-624,82,13,-14
30,112,-1912,-648,87,12,-14
35,112,-1912,-640,90,10,-15
40,96,-1912,-696,94,8,-14
45,88,-1920,-648,95,7,-13
50,96,-1920,-616,95,8,-13
55,88,-1888,-640,95,7,-12
60,88,-1896,-656,95,7,-12
65,112,-1896,-648,97,7,-13
70,112,-1880,-656,96,7,-11
75,112,-1896,-664,93,7,-12
80,88,-1904,-640,93,8,-12
85,128,-1912,-656,91,7,-13
90,96,-1872,-632,91,7,-12
95,104,-1888,-640,89,7,-14
100,112,-1928,-640,87,7,-15
105,112,-1896,-632,85,8,-16
110,112,-1904,-632,84,8,-16
115,112,-1904,-608,81,9,-17
120,96,-1888,-608,79,10,-16
125,112,-1896,-624,75,11,-16
130,96,-1896,-640,71,10,-16
135,88,-1896,-624,69,11,-15
140,80,-1888,-592,65,11,-16
145,128,-1896,-600,62,13,-16
150,80,-1904,-616,59,13,-17
155,96,-1912,-592,58,12,-16
160,104,-1912,-616,59,11,-16
165,112,-1920,-608,59,12,-15
170,104,-1928,-608,60,12,-16
175,112,-1928,-608,63,12,-15
180,112,-1928,-600,68,12,-14
185,112,-1920,-600,70,11,-16
190,128,-1912,-608,73,12,-15
195,96,-1912,-616,75,13,-17
200,136,-1928,-632,77,14,-16
205,88,-1904,-600,77,14,-17
210,120,-1912,-616,77,16,-17
215,112,-1928,-592,78,16,-17
220,104,-1936,-632,78,17,-18
225,104,-1888,-600,77,17,-18
230,112,-1920,-624,77,18,-16
235,88,-1920,-608,76,18,-17
240,112,-1912,-584,76,20,-18
245,128,-1912,-632,76,21,-18
250,128,-1912,-576,73,20,-18
255,112,-1896,-632,73,20,-16
260,104,-1912,-656,74,20,-17
265,112,-1912,-568,75,21,-16
270,128,-1896,-616,76,20,-17
275,88,-1928,-632,77,19,-17
280,120,-1928,-608,80,17,-17
285,120,-1928,-600,81,17,-18
290,88,-1904,-600,80,15,-16
295,96,-1920,-600,80,17,-18
300,104,-1912,-608,80,16,-17
305,88,-1904,-600,78,16,-17
310,104,-1904,-624,75,16,-18
315,128,-1920,-584,72,17,-16
320,128,-1912,-624,70,17,-15
325,112,-1920,-600,66,17,-16
330,120,-1912,-592,64,17,-14
335,120,-1944,-616,62,16,-14
340,112,-1928,-576,61,17,-13
345,104,-1896,-632,61,17,-14
350,136,-1920,-584,62,18,-13
355,96,-1912,-608,64,18,-13
360,112,-1928,-632,65,18,-14
365,120,-1920,-600,66,18,-14
370,96,-1920,-616,66,18,-15
375,112,-1912,-632,68,18,-15
380,104,-1944,-592,70,19,-15
385,88,-1888,-632,69,16,-15
390,104,-1920,-616,68,17,-17
395,136,-1928,-616,68,18,-16
400,104,-1920,-600,68,18,-16
405,136,-1936,-624,69,19,-15
410,120,-1920,-624,69,20,-16
415,120,-1920,-584,71,20,-15
420,88,-1920,-608,71,20,-14
425,104,-1928,-624,73,20,-13
430,104,-1912,-616,74,19,-13
435,88,-1912,-600,73,20,-12
440,112,-1896,-592,70,19,-12
445,96,-1888,-592,67,17,-13
450,112,-1896,-576,62,17,-12
455,120,-1904,-584,56,17,-12
460,112,-1904,-592,50,15,-13
465,104,-1920,-584,48,14,-15
470,104,-1952,-608,47,15,-16
475,104,-1928,-616,50,15,-14
480,104,-1984,-600,55,14,-14
485,112,-1968,-632,65,14,-14
490,120,-1984,-608,76,16,-14
495,112,-1952,-624,86,16,-14
500,120,-1936,-632,91,18,-14
505,112,-1928,-600,93,17,-15
510,152,-1920,-608,93,15,-15
515,88,-1904,-632,90,15,-16
520,120,-1888,-616,86,15,-14
525,88,-1888,-624,79,16,-13
530,104,-1904,-584,74,16,-12
535,104,-1912,-608,67,17,-13
540,112,-1904,-584,62,18,-13
545,96,-1896,-584,59,18,-14
550,104,-1912,-576,59,17,-12
555,104,-1928,-608,58,17,-14
560,96,-1912,-616,56,17,-15
565,88,-1912,-568,56,16,-15
570,104,-1928,-584,56,15,-15
575,112,-1904,-576,56,14,-16
580,104,-1936,-592,56,14,-16
585,104,-1920,-608,57,14,-14
590,112,-1912,-600,56,12,-14
595,104,-1920,-584,58,12,-16
600,120,-1912,-600,59,11,-15
605,104,-1904,-616,59,11,-16
610,120,-1904,-600,59,13,-15
615,112,-1904,-600,60,12,-14
620,120,-1904,-592,60,13,-15
625,96,-1896,-600,59,12,-14
630,104,-1904,-600,57,12,-13
635,104,-1920,-616,57,13,-12
640,128,-1888,-632,56,13,-12
645,136,-1912,-592,57,13,-10
650,112,-1928,-624,55,13,-11
655,96,-1912,-592,54,13,-12
660,128,-1928,-640,54,14,-10
665,104,-1904,-608,52,15,-11
670,96,-1896,-608,51,14,-10
675,112,-1920,-608,51,15,-10
680,144,-1920,-624,49,16,-11
685,104,-1912,-624,48,15,-10
690,112,-1928,-600,48,14,-11
695,128,-1912,-616,48,14,-10
700,104,-1888,-616,49,14,-10
705,120,-1904,-648,51,15,-10
710,104,-1920,-616,51,13,-8
715,136,-1920,-600,54,14,-8
720,120,-1912,-608,53,13,-8
725,112,-1896,-608,52,13,-8
730,120,-1912,-616,53,12,-8
735,120,-1904,-608,50,13,-8
740,104,-1912,-624,46,12,-8
745,112,-1912,-592,44,13,-7
750,136,-1896,-616,43,13,-9
755,120,-1920,-592,41,12,-9
760,128,-1912,-616,40,11,-8
765,128,-1936,-600,40,10,-9
770,104,-1944,-616,42,11,-9
775,128,-1928,-592,46,12,-10
780,96,-1856,-552,48,11,-11
785,104,-1920,-576,51,11,-11
790,112,-1944,-576,55,12,-13
795,72,-1944,-616,56,13,-11
800,104,-1968,-600,58,13,-12
805,96,-1928,-584,60,13,-12
810,120,-1928,-616,61,13,-14
815,112,-1928,-584,63,12,-13
820,104,-1928,-600,63,12,-13
825,96,-1912,-600,63,13,-13
830,104,-1920,-600,60,15,-13
835,80,-1920,-568,58,15,-13
840,96,-1912,-608,57,16,-12
845,112,-1912,-592,54,15,-11
850,112,-1896,-584,52,14,-11
855,120,-1928,-600,49,15,-10
860,112,-1920,-576,47,16,-11
865,104,-1896,-592,47,15,-11
870,112,-1896,-592,47,15,-9
875,120,-1928,-600,46,14,-11
880,96,-1928,-608,47,13,-11
885,80,-1928,-560,47,13,-11
890,120,-1920,-608,48,14,-12
895,112,-1928,-584,49,12,-12
900,96,-1904,-608,51,13,-12
905,88,-1936,-592,53,14,-13
910,120,-1920,-600,53,14,-12
915,128,-1904,-616,54,16,-13
920,120,-1904,-608,54,15,-13
925,120,-1928,-592,54,15,-13
930,120,-1912,-592,52,13,-13
935,128,-1904,-616,51,14,-13
940,120,-1944,-624,50,13,-14
945,104,-1744,-608,50,14,-14
950,120,-1928,-608,51,15,-15
955,104,-1912,-624,52,15,-13
960,104,-1912,-600,54,15,-14
965,112,-1904,-608,55,15,-12
970,128,-1928,-576,54,14,-11
975,88,-1896,-600,52,14,-11
980,136,-1896,-584,48,11,-13
985,112,-1920,-584,41,10,-13
990,104,-1896,-616,35,10,-17
995,112,-1880,-600,30,10,-17
1000,104,-1912,-560,26,11,-17
1005,112,-1936,-592,25,11,-18
1010,104,-1936,-600,27,12,-17
1015,128,-1944,-608,31,13,-16
1020,120,-1952,-640,38,12,-16
1025,128,-1952,-632,48,14,-15
1030,120,-1936,-656,56,13,-16
1035,120,-1928,-632,64,13,-17
1040,128,-1896,-600,67,14,-17
1045,112,-1888,-616,66,13,-19
1050,128,-1872,-600,61,11,-17
1055,104,-1872,-640,55,11,-16
1060,112,-1904,-624,46,10,-17
1065,88,-1880,-616,38,10,-16
1070,120,-1912,-624,32,10,-14
1075,112,-1928,-608,28,11,-14
1080,104,-1920,-592,29,12,-13
1085,96,-1920,-584,30,15,-14
1090,128,-1960,-600,34,14,-13
1095,112,-1928,-584,36,14,-13
1100,112,-1944,-624,42,12,-15
1105,128,-1936,-600,46,12,-14
1110,104,-1920,-616,49,12,-14
1115,120,-1920,-592,51,12,-15
1120,128,-1936,-608,55,11,-14
1125,128,-1904,-608,59,11,-11
1130,112,-1920,-576,62,9,-13
1135,120,-1888,-624,65,10,-11
1140,112,-1928,-592,65,10,-13
1145,120,-1872,-584,66,11,-11
1150,112,-1904,-608,65,11,-10
1155,104,-1896,-600,63,10,-8
1160,184,-1872,-672,61,11,-9
1165,136,-1896,-608,57,10,-9
1170,120,-1896,-600,55,10,-8
1175,104,-1896,-600,53,12,-9
1180,112,-1904,-624,50,12,-9
1185,136,-1928,-616,47,12,-9
1190,128,-1928,-624,46,11,-9
1195,144,-1912,-624,43,12,-9
1200,128,-1880,-616,43,12,-7
1205,120,-1904,-624,43,13,-8
1210,120,-1896,-624,43,13,-8
1215,112,-1936,-608,44,13,-9
1220,120,-1912,-624,45,12,-7
1225,128,-1952,-640,46,11,-7
1230,120,-1928,-592,48,10,-10
1235,112,-1928,-608,52,10,-9
1240,136,-1936,-608,55,11,-8
1245,96,-1928,-600,57,11,-7
1250,112,-1912,-632,60,11,-7
1255,120,-1904,-616,61,11,-6
1260,112,-1904,-608,63,13,-7
1265,120,-1912,-592,63,13,-8
1270,112,-1896,-576,61,14,-8
1275,112,-1928,-584,59,13,-8
1280,136,-1904,-600,56,14,-9
1285,120,-1904,-600,54,14,-11
1290,88,-1904,-592,52,15,-9
1295,112,-1920,-608,49,16,-10
1300,120,-1912,-608,48,16,-9
1305,112,-1904,-608,48,17,-10
1310,128,-1912,-584,50,16,-10
1315,120,-1912,-600,52,15,-10
1320,120,-1928,-616,54,14,-11
1325,152,-1912,-616,53,14,-12
1330,96,-1896,-592,56,14,-12
1335,144,-1928,-608,59,13,-12
1340,96,-1912,-616,61,12,-11
1345,136,-1920,-608,62,12,-11
1350,120,-1944,-616,62,13,-10
1355,112,-1928,-616,64,14,-11
1360,144,-1944,-592,64,14,-8
1365,96,-1888,-608,63,15,-9
1370,128,-1904,-584,62,15,-9
1375,104,-1904,-600,61,15,-8
1380,96,-1920,-576,59,16,-8
1385,120,-1904,-616,59,16,-6
1390,88,-1912,-616,57,16,-3
1395,128,-1896,-616,58,16,-3
1400,80,-1896,-616,57,16,-4
1405,112,-1912,-632,57,15,-5
1410,96,-1920,-608,57,13,-4
1415,128,-1920,-608,58,13,-5
1420,136,-1920,-616,58,13,-6
1425,128,-1928,-608,58,12,-4
1430,88,-1920,-600,59,12,-6
1435,120,-1944,-608,59,11,-6
1440,120,-1936,-592,59,11,-5
1445,104,-1912,-592,59,12,-5
1450,112,-1936,-616,59,12,-6
1455,88,-1912,-608,57,12,-6
1460,128,-1912,-592,56,11,-6
1465,112,-1928,-600,54,11,-7
1470,136,-1920,-600,52,11,-8
1475,120,-1920,-600,52,10,-7
1480,136,-1904,-592,53,10,-10
1485,104,-1920,-592,53,10,-9
1490,128,-1952,-608,53,11,-8
1495,96,-1928,-624,55,12,-10
1500,120,-1936,-584,59,10,-9
1505,128,-1912,-616,59,10,-8
1510,120,-1920,-576,61,10,-9
1515,104,-1904,-608,61,10,-10
1520,104,-1912,-576,59,9,-11
1525,104,-1896,-584,55,9,-11
1530,112,-1904,-592,51,9,-13
1535,88,-1896,-592,49,9,-13
1540,128,-1944,-624,47,9,-12
1545,112,-1912,-584,48,11,-11
1550,128,-1968,-632,51,13,-11
1555,136,-1960,-640,55,12,-10
1560,120,-1952,-600,61,12,-10
1565,120,-1960,-648,67,12,-8
1570,112,-1952,-632,75,12,-8
1575,128,-1944,-632,81,11,-9
1580,112,-1920,-624,85,11,-7
1585,104,-1912,-616,86,11,-8
1590,112,-1880,-632,84,13,-8
1595,160,-1896,-592,79,15,-9
1600,136,-1904,-592,71,13,-10
1605,112,-1912,-584,64,12,-9
1610,112,-1880,-584,58,12,-9
1615,112,-1888,-592,52,12,-8
1620,88,-1904,-568,49,13,-8
1625,112,-1896,-616,48,14,-10
1630,112,-1936,-600,47,14,-10
1635,104,-1944,-592,51,16,-13
1640,104,-1920,-552,55,16,-14
1645,104,-1904,-592,58,15,-14
1650,96,-1928,-592,62,15,-13
1655,104,-1944,-600,64,15,-13
1660,120,-1928,-600,67,13,-12
1665,112,-1912,-560,68,12,-12
1670,120,-1920,-608,67,12,-12
1675,120,-1904,-584,68,12,-11
1680,112,-1896,-576,69,12,-10
1685,128,-1904,-600,70,12,-10
1690,104,-1912,-576,68,14,-9
1695,104,-1912,-608,66,14,-7
1700,96,-1904,-584,65,14,-8
1705,128,-1880,-624,62,12,-7
1710,128,-1904,-608,58,14,-7
1715,120,-1928,-616,56,12,-5
1720,104,-1904,-584,53,14,-4
1725,112,-1896,-600,52,14,-5
1730,152,-1904,-608,51,13,-6
1735,120,-1920,-584,51,13,-5
1740,144,-1920,-600,51,14,-6
1745,128,-1912,-624,51,14,-6
1750,144,-1928,-632,53,13,-6
1755,104,-1920,-624,53,13,-5
1760,120,-1912,-576,53,13,-6
1765,112,-1920,-608,54,12,-7
1770,104,-1936,-616,56,10,-8
1775,128,-1936,-616,56,13,-8
1780,96,-1912,-608,58,12,-8
1785,136,-1920,-624,59,13,-7
1790,152,-1944,-560,60,13,-9
1795,144,-1920,-608,60,13,-10
1800,96,-1912,-600,60,14,-8
1805,96,-1920,-584,60,13,-8
1810,128,-1928,-608,59,14,-9
1815,112,-1904,-616,59,13,-8
1820,80,-1896,-592,57,13,-8
1825,120,-1912,-568,54,12,-9
1830,120,-1952,-600,53,12,-10
1835,128,-1904,-544,51,12,-11
1840,120,-1936,-560,51,11,-11
1845,104,-1904,-592,51,12,-10
1850,120,-1896,-576,53,12,-7
1855,104,-1904,-600,53,11,-10
1860,96,-1920,-584,55,11,-8
1865,136,-1936,-608,56,11,-7
1870,88,-1888,-576,56,10,-8
1875,136,-1928,-568,58,11,-9
1880,104,-1920,-584,61,11,-7
1885,104,-1904,-592,61,11,-7
1890,120,-1936,-560,61,10,-9
1895,104,-1920,-600,62,12,-6
1900,128,-1928,-552,60,12,-6
1905,96,-1944,-560,61,14,-6
1910,112,-1936,-592,61,15,-6
1915,112,-1944,-608,63,16,-7
1920,112,-1960,-560,63,16,-6
1925,176,-1904,-584,62,17,-6
1930,88,-1920,-608,62,18,-6
1935,112,-1920,-584,63,18,-7
1940,104,-1936,-592,64,18,-5
1945,120,-1936,-576,65,17,-4
1950,112,-1928,-600,67,18,-3
1955,104,-1928,-576,67,17,-6
1960,120,-1928,-584,69,17,-6
1965,96,-1944,-616,70,16,-6
1970,88,-1920,-600,71,15,-5
1975,88,-1936,-608,71,15,-4
1980,104,-1920,-592,72,15,-6
1985,112,-1920,-584,72,15,-5
1990,112,-1936,-584,73,16,-4
1995,112,-1912,-600,72,15,-4
2000,112,-1928,-600,72,17,-4
2005,88,-1888,-608,69,18,-4
2010,96,-1912,-584,67,18,-5
2015,104,-1896,-592,64,18,-5
2020,80,-1880,-600,60,17,-4
2025,120,-1928,-600,57,16,-5
2030,96,-1904,-576,54,16,-3
2035,128,-1904,-584,52,15,-4
2040,136,-1920,-584,50,15,-4
2045,104,-1944,-624,50,14,-6
2050,128,-1928,-576,51,14,-2
2055,96,-1912,-600,52,15,-1
2060,120,-1912,-576,56,14,-1
2065,112,-1896,-616,58,13,-2
2070,112,-1912,-600,57,14,-2
2075,104,-1904,-584,56,12,-2
2080,96,-1904,-600,54,14,-2
2085,112,-1904,-568,50,14,-4
2090,104,-1904,-664,47,15,-5
2095,120,-1904,-624,47,17,-4
2100,88,-1928,-600,46,18,-5
2105,128,-1960,-600,48,20,-5
2110,96,-1952,-632,50,21,-4
2115,112,-1928,-616,55,24,-2
2120,96,-1944,-648,63,23,-1
2125,104,-1960,-648,68,23,0
2130,112,-1944,-624,72,22,-1
2135,104,-1912,-624,73,20,-1
2140,32,-1864,-592,72,19,-1
2145,120,-1888,-600,68,16,-1
2150,112,-1856,-600,60,15,-4
2155,96,-1880,-584,52,13,-4
2160,88,-1888,-560,42,13,-4
2165,96,-1880,-560,37,12,-1
2170,120,-1912,-608,32,13,-3
2175,104,-1936,-560,31,13,-4
2180,88,-1944,-600,32,16,-3
2185,104,-1952,-584,36,17,-3
2190,104,-1960,-608,41,19,-4
2195,96,-1936,-592,46,19,-6
2200,128,-1944,-568,53,19,-4
2205,96,-1920,-544,57,19,-5
2210,144,-1944,-592,63,17,-6
2215,104,-1944,-576,67,16,-7
2220,136,-1952,-584,69,15,-4
2225,120,-1920,-616,70,13,-4
2230,104,-1904,-584,71,11,-2
2235,104,-1904,-560,70,11,-2
2240,120,-1920,-568,67,11,-2
2245,96,-1896,-544,64,10,-2
2250,120,-1880,-616,62,10,0
2255,88,-1904,-584,59,10,0
2260,96,-1912,-576,57,13,-2
2265,104,-1912,-592,55,12,-3
2270,96,-1928,-584,53,13,-3
2275,104,-1896,-576,52,16,-2
2280,128,-1928,-576,51,16,-2
2285,112,-1920,-592,52,16,-5
2290,112,-1928,-584,51,16,-4
2295,88,-1920,-568,52,17,-3
2300,112,-1912,-592,51,17,-4
2305,64,-1920,-576,53,16,-4
2310,112,-1936,-608,53,14,-3
2315,128,-1944,-592,53,15,-2
2320,136,-1928,-568,54,15,-1
2325,112,-1928,-608,55,13,-1
2330,120,-1928,-584,56,12,-2
2335,104,-1952,-624,57,12,-2
2340,104,-1944,-576,61,10,-3
2345,112,-1912,-616,62,9,-2
2350,104,-1920,-560,63,9,-4
2355,104,-1912,-600,62,10,-1
2360,120,-1920,-616,62,9,-2
2365,128,-1912,-608,60,9,-2
2370,96,-1896,-576,57,10,-2
2375,80,-1928,-592,53,11,-2
2380,112,-1920,-576,52,11,-2
2385,80,-1928,-584,51,12,0
2390,136,-1936,-576,53,13,1
2395,120,-1928,-592,55,16,0
2400,136,-1968,-584,60,16,2
2405,96,-1928,-608,64,16,1
2410,96,-1944,-560,68,16,0
2415,80,-1920,-600,72,15,0
2420,112,-1912,-568,74,14,0
2425,152,-1944,-592,76,15,-2
2430,112,-1920,-600,75,14,-1
2435,96,-1904,-592,75,14,0
2440,88,-1920,-576,73,13,-2
2445,96,-1952,-592,71,11,-2
2450,112,-1912,-576,68,10,-3
2455,80,-1904,-552,65,10,-2
2460,104,-1928,-584,60,10,-3
2465,88,-1912,-584,57,10,-2
2470,120,-1920,-584,55,10,-3
2475,96,-1912,-560,51,10,-4
2480,112,-1912,-568,49,11,-4
2485,96,-1912,-584,48,11,-2
2490,112,-1912,-608,47,11,-4
2495,104,-1936,-536,45,12,-4
2500,104,-1912,-576,46,12,-5
2505,88,-1928,-552,44,13,-4
2510,104,-1928,-576,45,13,-5
2515,96,-1944,-584,44,13,-6
2520,96,-1856,-624,45,13,-4
2525,112,-1944,-576,46,12,-3
2530,104,-1936,-600,47,12,-4
2535,96,-1928,-560,49,13,-5
2540,112,-1928,-592,49,11,-5
2545,104,-1928,-584,51,11,-5
2550,88,-1936,-576,50,12,-5
2555,112,-1912,-576,50,11,-4
2560,80,-1896,-568,50,11,-6
2565,144,-1920,-552,49,13,-6
2570,104,-1880,-584,48,14,-5
2575,88,-1904,-576,44,14,-6
2580,80,-1896,-576,43,13,-6
2585,96,-1944,-584,41,12,-7
2590,112,-1928,-616,40,14,-7
2595,104,-1920,-576,42,16,-5
2600,96,-1936,-592,45,15,-5
2605,88,-1920,-568,47,16,-5
2610,104,-1928,-592,49,17,-4
2615,120,-1920,-592,53,18,-5
2620,96,-1920,-568,55,19,-4
2625,88,-1928,-600,55,19,-4
2630,104,-1896,-600,56,19,-3
2635,120,-1944,-600,58,19,-4
2640,88,-1976,-568,58,19,-4
2645,96,-1928,-584,58,19,-3
2650,112,-1936,-592,60,20,-2
2655,96,-1944,-584,62,22,-2
2660,120,-1944,-592,63,21,-2
2665,104,-1960,-600,64,19,-4
2670,112,-1968,-608,63,17,-4
2675,120,-1912,-592,62,16,-6
2680,80,-1928,-592,61,15,-8
2685,80,-1888,-560,60,15,-8
2690,104,-1920,-592,59,15,-10
2695,104,-1896,-600,54,15,-10
2700,96,-1904,-584,50,18,-10
2705,72,-1912,-568,45,18,-7
2710,104,-1920,-576,40,18,-8
2715,80,-1920,-608,38,19,-6
2720,104,-1936,-600,38,20,-6
2725,120,-1968,-592,41,20,-5
2730,112,-1936,-576,45,19,-4
2735,120,-1952,-584,51,18,-6
2740,96,-1944,-600,58,18,-7
2745,96,-1928,-576,62,18,-5
2750,136,-1952,-568,66,16,-6
2755,112,-1928,-592,67,14,-5
2760,104,-1912,-576,67,13,-6
2765,88,-1912,-568,65,12,-5
2770,80,-1912,-584,63,13,-6
2775,96,-1920,-568,59,13,-6
2780,128,-1920,-584,57,14,-6
2785,128,-1904,-568,54,13,-4
2790,120,-1904,-592,53,14,-4
2795,96,-1920,-584,50,16,-3
2800,120,-1936,-584,50,16,-4
2805,112,-1920,-608,49,17,-3
2810,80,-1928,-576,50,17,-3
2815,112,-1936,-608,50,17,-3
2820,104,-1904,-600,51,18,-4
2825,112,-1928,-576,50,17,-2
2830,80,-1896,-624,51,17,-3
2835,96,-1936,-552,52,18,-4
2840,128,-1896,-592,51,15,-4
2845,80,-1896,-584,53,15,-5
2850,104,-1912,-552,53,16,-5
2855,80,-1912,-624,49,16,-5
2860,112,-1920,-576,48,16,-5
2865,128,-1928,-592,48,16,-3
2870,112,-1944,-584,47,16,-3
2875,104,-1944,-584,47,16,-4
2880,112,-1944,-592,48,15,-4
2885,80,-1920,-592,50,15,-6
2890,96,-1928,-608,50,16,-8
2895,104,-1944,-600,51,15,-8
2900,104,-1904,-576,52,15,-6
2905,104,-1920,-576,51,15,-6
2910,88,-1920,-584,50,17,-4
2915,88,-1904,-552,47,17,-7
2920,80,-1936,-568,43,16,-5
2925,88,-1920,-576,42,17,-7
2930,104,-1928,-600,40,17,-7
2935,80,-1896,-592,39,18,-5
2940,104,-1944,-632,40,17,-5
2945,72,-1936,-584,43,17,-5
2950,104,-1944,-568,47,16,-3
2955,96,-1928,-584,49,17,-4
2960,96,-1928,-560,50,17,-5
2965,96,-1936,-600,53,17,-5
2970,96,-1928,-560,55,19,-5
2975,88,-1912,-576,54,19,-5
2980,112,-1920,-568,53,19,-6
2985,96,-1912,-576,52,21,-5
2990,88,-1920,-584,52,22,-4
2995,80,-1920,-576,52,22,-3
3000,96,-1912,-584,51,23,-4
3005,112,-1888,-584,51,23,-3
3010,72,-1912,-568,49,23,-2
3015,120,-1952,-584,47,24,-5
3020,96,-1928,-624,47,23,-3
3025,120,-1936,-592,45,24,-4
3030,88,-1928,-584,46,24,-6
3035,104,-1936,-592,45,23,-4
3040,88,-1936,-584,46,21,-4
3045,96,-1928,-600,47,22,-5
3050,136,-1936,-584,47,21,-4
3055,80,-1928,-584,49,20,-3
3060,96,-1928,-616,50,22,-4
3065,96,-1904,-608,51,22,-3
3070,112,-1928,-616,52,23,-4
3075,104,-1928,-608,51,23,-4
3080,80,-1928,-568,52,24,-5
3085,104,-1928,-624,53,23,-6
3090,96,-1856,-552,52,22,-6
3095,112,-1912,-608,54,20,-6
3100,112,-1944,-592,53,19,-7
3105,80,-1912,-576,54,17,-7
3110,72,-1920,-568,53,16,-9
3115,80,-1928,-592,51,14,-11
3120,112,-1904,-592,50,12,-12
3125,56,-1904,-608,51,13,-11
3130,88,-1944,-576,51,13,-10
3135,144,-1920,-624,53,15,-10
3140,64,-1944,-680,55,15,-10
3145,112,-1960,-608,60,16,-9
3150,144,-1912,-560,63,15,-9
3155,80,-1896,-592,63,14,-8
3160,112,-1904,-592,63,16,-10
3165,112,-1896,-608,58,15,-12
3170,112,-1912,-520,52,14,-11
3175,88,-1896,-600,47,13,-11
3180,96,-1912,-584,42,12,-11
3185,96,-1928,-584,42,12,-10
3190,64,-1928,-568,43,12,-9
3195,112,-1992,-592,46,12,-9
3200,80,-1968,-600,49,11,-10
3205,88,-1936,-584,52,11,-10
3210,328,-1984,-384,56,9,-13
3215,120,-1944,-600,59,9,-13
3220,104,-1912,-584,58,9,-12
3225,120,-1912,-552,56,8,-13
3230,112,-1912,-584,55,8,-14
3235,104,-1960,-576,53,8,-12
3240,88,-1904,-592,47,10,-14
3245,80,-1880,-576,42,11,-15
3250,104,-1928,-608,40,12,-14
3255,104,-1928,-552,41,12,-12
3260,144,-1960,-576,42,14,-12
3265,112,-1944,-592,45,14,-12
3270,88,-1920,-592,51,16,-11
3275,88,-1920,-592,55,15,-12
3280,152,-1920,-568,60,15,-11
3285,104,-1920,-568,63,14,-12
3290,120,-1920,-600,64,13,-12
3295,88,-1896,-576,66,11,-13
3300,104,-1904,-560,65,10,-12
3305,112,-1896,-576,62,8,-10
3310,80,-1896,-560,59,8,-12
3315,88,-1920,-560,58,8,-15
3320,80,-1904,-616,55,8,-15
3325,104,-1920,-568,51,10,-12
3330,88,-1912,-584,49,11,-13
3335,104,-1912,-568,47,12,-13
3340,104,-1944,-592,46,13,-15
3345,128,-1928,-568,44,14,-14
3350,104,-1944,-576,44,13,-13
3355,120,-1960,-592,43,13,-13
3360,104,-1944,-608,44,14,-12
3365,120,-1944,-600,45,13,-14
3370,96,-1928,-576,45,14,-13
3375,104,-1920,-600,47,13,-13
3380,88,-1912,-592,48,11,-13
3385,88,-1928,-616,49,11,-14
3390,96,-1912,-560,50,11,-14
3395,88,-1936,-600,50,11,-15
3400,120,-1920,-600,49,10,-15
3405,112,-1912,-608,48,12,-14
3410,104,-1912,-600,46,10,-14
3415,104,-1936,-608,45,11,-13
3420,104,-1928,-576,45,12,-13
3425,80,-1936,-576,45,12,-14
3430,104,-1904,-568,47,11,-14
3435,112,-1912,-576,48,11,-14
3440,96,-1928,-576,48,12,-17
3445,88,-1912,-584,50,12,-15
3450,88,-1904,-560,48,12,-14
3455,96,-1912,-552,43,12,-15
3460,112,-1904,-576,39,13,-14
3465,120,-1944,-576,35,12,-13
3470,112,-1896,-592,31,13,-15
3475,88,-1936,-568,28,13,-13
3480,104,-1912,-608,25,12,-14
3485,80,-1920,-616,23,13,-13
3490,112,-1952,-560,22,14,-11
3495,104,-1944,-584,23,14,-11
3500,72,-1928,-584,25,13,-11
3505,88,-1904,-600,24,13,-10
3510,112,-1920,-600,25,14,-10
3515,96,-1928,-600,27,13,-10
3520,96,-1920,-608,27,13,-9
3525,176,-1936,-608,27,13,-8
3530,120,-1912,-600,26,12,-10
3535,112,-1936,-576,25,12,-10
3540,96,-1920,-584,23,12,-10
3545,104,-1912,-608,21,11,-9
3550,112,-1856,-680,19,11,-12
3555,88,-1904,-568,18,11,-13
3560,88,-1920,-592,15,10,-13
3565,48,-1984,-608,12,10,-15
3570,96,-1912,-600,10,9,-17
3575,120,-1920,-576,8,7,-19
3580,136,-1912,-576,6,6,-20
3585,104,-1920,-592,5,5,-21
3590,128,-1920,-584,3,3,-22
3595,96,-1928,-592,2,6,-23
3600,96,-1912,-576,1,7,-23
3605,96,-1896,-608,1,8,-24
3610,136,-1928,-592,1,8,-23
3615,88,-1904,-584,2,8,-23
3620,80,-1912,-560,3,10,-21
3625,112,-1904,-576,3,11,-22
3630,64,-1904,-576,3,12,-22
3635,104,-1928,-592,4,12,-19
3640,112,-1928,-592,5,11,-20
3645,104,-1896,-592,4,11,-19
3650,120,-1920,-616,2,9,-19
3655,96,-1904,-552,0,9,-17
3660,96,-1920,-608,-2,7,-18
3665,80,-1896,-576,-5,8,-18
3670,96,-1904,-568,-8,8,-18
3675,96,-1896,-568,-10,7,-18
3680,80,-1904,-568,-14,5,-19
3685,80,-1896,-568,-16,2,-20
3690,80,-1920,-592,-18,2,-21
3695,96,-1936,-592,-19,3,-22
3700,96,-1928,-616,-17,3,-22
3705,56,-1936,-600,-16,4,-22
3710,80,-1928,-632,-11,6,-21
3715,88,-1912,-632,-7,6,-21
3720,112,-1912,-600,-5,8,-19
3725,80,-1896,-624,-6,9,-19
3730,88,-1880,-560,-9,8,-20
3735,96,-1904,-600,-15,9,-19
3740,112,-1896,-600,-20,8,-19
3745,72,-1880,-584,-22,10,-18
3750,104,-1928,-592,-25,10,-15
3755,112,-1976,-616,-26,9,-16
3760,88,-1936,-632,-24,8,-17
3765,80,-1944,-600,-19,7,-17
3770,80,-1968,-624,-13,6,-17
3775,104,-1976,-608,-10,4,-18
3780,88,-1920,-600,-7,2,-18
3785,104,-1928,-640,-6,1,-18
3790,112,-1904,-616,-7,2,-20
3795,120,-1896,-648,-12,2,-22
3800,112,-1888,-656,-19,4,-22
3805,120,-1896,-632,-28,5,-20
3810,112,-1896,-648,-31,8,-18
3815,128,-1912,-632,-34,9,-17
3820,104,-1912,-640,-35,10,-15
3825,104,-1928,-608,-29,14,-15
3830,144,-1880,-640,-24,15,-16
3835,120,-1920,-656,-17,17,-16
3840,120,-1936,-616,-9,19,-16
3845,112,-1904,-640,-3,18,-15
3850,88,-1904,-640,2,16,-16
3855,112,-1912,-632,4,16,-17
3860,120,-1896,-616,5,15,-19
3865,96,-1888,-600,6,13,-18
3870,80,-1872,-624,3,12,-18
3875,112,-1904,-624,1,11,-20
3880,104,-1888,-648,-1,10,-20
3885,136,-1888,-640,-3,8,-20
3890,80,-1880,-648,-7,7,-22
3895,120,-1888,-632,-9,7,-20
3900,136,-1912,-640,-12,7,-20
3905,112,-1904,-632,-15,5,-20
3910,104,-1896,-640,-17,3,-18
3915,128,-1920,-648,-22,1,-18
3920,88,-1872,-640,-28,0,-18
3925,104,-1896,-624,-32,-1,-19
3930,144,-1896,-608,-38,-3,-17
3935,104,-1888,-640,-42,-5,-18
3940,104,-1880,-648,-45,-6,-18
3945,112,-1864,-632,-49,-7,-18
3950,128,-1872,-632,-55,-9,-19
3955,120,-1888,-632,-59,-8,-19
3960,112,-1888,-664,-63,-7,-21
3965,128,-1864,-648,-67,-7,-19
3970,104,-1896,-664,-71,-7,-18
3975,136,-1904,-632,-75,-6,-18
3980,144,-1936,-664,-78,-6,-17
3985,120,-1896,-656,-79,-5,-15
3990,136,-1904,-616,-81,-4,-16
3995,120,-1896,-624,-82,-4,-14
4000,104,-1872,-632,-84,-4,-13
4005,128,-1872,-648,-84,-7,-15
4010,96,-1856,-632,-86,-8,-14
4015,104,-1864,-640,-93,-9,-13
4020,104,-1888,-632,-99,-9,-11
4025,112,-1840,-656,-108,-11,-12
4030,104,-1872,-640,-118,-13,-10
4035,88,-1864,-648,-129,-13,-9
4040,104,-1856,-656,-139,-15,-11
4045,40,-1800,-600,-151,-14,-8
4050,88,-1872,-640,-158,-15,-9
4055,88,-1880,-664,-166,-15,-10
4060,112,-1856,-640,-173,-16,-10
4065,72,-1872,-648,-178,-16,-10
4070,88,-1888,-704,-182,-16,-11
4075,64,-1888,-672,-185,-19,-13
4080,64,-1880,-648,-188,-17,-12
4085,88,-1912,-712,-186,-16,-13
4090,104,-1888,-688,-185,-16,-13
4095,96,-1920,-736,-184,-16,-14
4100,72,-1872,-704,-181,-16,-13
4105,96,-1872,-704,-181,-15,-14
4110,88,-1896,-704,-180,-15,-13
4115,96,-1872,-688,-179,-14,-12
4120,96,-1864,-696,-178,-14,-14
4125,104,-1848,-712,-180,-14,-15
4130,88,-1864,-712,-182,-14,-16
4135,112,-1856,-720,-187,-12,-18
4140,72,-1880,-712,-193,-13,-18
4145,64,-1832,-728,-201,-12,-19
4150,88,-1848,-768,-210,-14,-21
4155,104,-1856,-712,-216,-13,-21
4160,80,-1848,-736,-221,-12,-22
4165,72,-1864,-768,-224,-11,-22
4170,88,-1880,-752,-225,-10,-22
4175,88,-1872,-776,-226,-9,-23
4180,96,-1872,-792,-224,-10,-24
4185,104,-1872,-784,-222,-10,-23
4190,80,-1872,-792,-219,-9,-22
4195,104,-1872,-824,-215,-9,-22
4200,88,-1880,-808,-210,-9,-21
4205,88,-1848,-808,-206,-9,-20
4210,48,-1848,-880,-201,-9,-18
4215,96,-1840,-856,-195,-10,-15
4220,96,-1872,-832,-191,-11,-15
4225,80,-1840,-824,-184,-12,-14
4230,88,-1808,-816,-177,-17,-15
4235,96,-1856,-824,-168,-19,-14
4240,96,-1840,-824,-161,-22,-15
4245,88,-1856,-856,-154,-25,-18
4250,72,-1832,-856,-146,-28,-23
4255,104,-1840,-888,-142,-33,-28
4260,120,-1848,-848,-139,-38,-31
4265,88,-1840,-880,-137,-43,-36
4270,104,-1848,-864,-133,-44,-42
4275,120,-1832,-872,-125,-42,-47
4280,112,-1840,-840,-117,-41,-51
4285,120,-1840,-864,-106,-36,-54
4290,136,-1872,-856,-93,-29,-58
4295,112,-1808,-840,-79,-23,-58
4300,112,-1800,-824,-69,-19,-58
4305,112,-1736,-800,-62,-13,-57
4310,120,-1736,-816,-62,-8,-56
4315,104,-1688,-776,-75,-6,-53
4320,112,-1680,-744,-97,-6,-48
4325,128,-1696,-752,-127,-8,-44
4330,64,-1672,-760,-163,-10,-36
4335,104,-1712,-752,-202,-14,-31
4340,104,-1728,-776,-243,-19,-23
4345,88,-1728,-800,-282,-21,-18
4350,104,-1768,-744,-316,-25,-11
4355,88,-1800,-792,-345,-28,-6
4360,120,-1816,-800,-367,-32,-2
4365,136,-1808,-800,-381,-39,3
4370,88,-1816,-808,-391,-44,5
4375,120,-1848,-840,-398,-52,5
4380,88,-1824,-832,-401,-57,4
4385,120,-1816,-808,-404,-60,3
4390,120,-1784,-792,-406,-65,4
4395,136,-1800,-816,-409,-71,5
4400,128,-1792,-792,-418,-74,7
4405,112,-1760,-752,-430,-77,8
4410,128,-1760,-744,-445,-81,10
4415,88,-1736,-760,-462,-82,14
4420,112,-1768,-744,-483,-85,18
4425,216,-1768,-760,-508,-86,22
4430,96,-1752,-760,-539,-87,27
4435,96,-1768,-768,-567,-89,28
4440,144,-1760,-792,-600,-92,28
4445,88,-1776,-800,-629,-97,31
4450,120,-1792,-792,-657,-104,28
4455,112,-1760,-800,-687,-112,26
4460,88,-1792,-840,-716,-119,22
4465,120,-1800,-816,-747,-128,18
4470,80,-1800,-840,-771,-135,15
4475,64,-1800,-824,-788,-143,13
4480,64,-1800,-880,-798,-149,11
4485,80,-1776,-832,-800,-160,9
4490,56,-1752,-856,-799,-170,4
4495,80,-1768,-840,-802,-179,4
4500,80,-1752,-880,-811,-183,3
4505,64,-1776,-848,-827,-184,3
4510,80,-1776,-864,-850,-177,6
4515,96,-1760,-848,-878,-170,12
4520,136,-1728,-888,-910,-160,14
4525,144,-1736,-896,-947,-151,17
4530,136,-1712,-960,-990,-141,21
4535,136,-1744,-992,-1054,-129,30
4540,136,-1808,-1032,-1110,-120,40
4545,120,-1848,-1048,-1163,-116,48
4550,88,-1848,-1096,-1211,-112,56
4555,112,-1952,-1096,-1251,-113,61
4560,104,-2016,-1152,-1276,-112,62
4565,72,-2048,-1152,-1279,-115,61
4570,48,-2072,-1160,-1260,-120,57
4575,16,-2064,-1160,-1222,-128,53
4580,16,-2096,-1208,-1174,-137,49
4585,0,-2136,-1256,-1126,-140,44
4590,0,-2136,-1240,-1078,-143,42
4595,0,-2096,-1304,-1034,-147,36
4600,16,-2120,-1336,-994,-152,32
4605,16,-2096,-1352,-957,-157,33
4610,24,-2056,-1384,-926,-154,31
4615,40,-2040,-1392,-902,-152,29
4620,96,-2024,-1400,-881,-151,27
4625,64,-1952,-1424,-869,-148,26
4630,64,-1920,-1392,-863,-146,23
4635,80,-1888,-1440,-864,-139,20
4640,104,-1864,-1416,-870,-129,17
4645,16,-1808,-1464,-874,-122,15
4650,32,-1792,-1512,-876,-119,10
4655,24,-1824,-1512,-875,-115,6
4660,24,-1792,-1544,-868,-110,1
4665,32,-1768,-1528,-853,-107,-4
4670,48,-1760,-1552,-834,-101,-10
4675,48,-1760,-1592,-813,-95,-11
4680,48,-1744,-1624,-792,-87,-9
4685,32,-1752,-1656,-764,-77,-8
4690,32,-1744,-1672,-735,-68,-9
4695,72,-1736,-1712,-704,-59,-9
4700,64,-1704,-1704,-672,-50,-8
4705,56,-1680,-1744,-643,-41,-7
4710,48,-1688,-1744,-617,-33,-5
4715,24,-1688,-1720,-594,-24,-3
4720,64,-1672,-1760,-571,-18,1
4725,16,-1640,-1784,-549,-11,3
4730,32,-1648,-1776,-529,-4,8
4735,32,-1640,-1808,-509,1,12
4740,40,-1616,-1840,-494,8,16
4745,32,-1624,-1816,-476,15,17
4750,24,-1584,-1824,-457,22,19
4755,40,-1560,-1808,-439,28,20
4760,32,-1584,-1792,-426,33,21
4765,8,-1560,-1752,-412,40,21
4770,8,-1560,-1736,-396,43,20
4775,8,-1552,-1720,-381,40,18
4780,-16,-1544,-1720,-364,36,15
4785,0,-1552,-1664,-347,32,13
4790,-16,-1536,-1680,-332,28,10
4795,-16,-1536,-1656,-315,28,10
4800,-48,-1464,-1648,-299,26,10
4805,-16,-1512,-1552,-280,23,9
4810,-24,-1472,-1624,-266,23,9
4815,-8,-1456,-1592,-253,22,10
4820,-24,-1424,-1600,-245,20,9
4825,8,-1432,-1576,-239,18,12
4830,0,-1416,-1576,-232,18,12
4835,8,-1400,-1552,-229,19,12
4840,8,-1392,-1552,-221,20,15
4845,16,-1432,-1536,-211,26,15
4850,24,-1424,-1536,-200,31,14
4855,16,-1400,-1520,-185,36,16
4860,8,-1424,-1520,-164,36,17
4865,8,-1400,-1504,-142,35,17
4870,16,-1392,-1528,-118,34,15
4875,24,-1384,-1496,-95,37,18
4880,24,-1368,-1480,-74,42,21
4885,56,-1336,-1456,-54,48,23
4890,16,-1328,-1456,-34,54,26
4895,24,-1296,-1408,-19,59,30
4900,40,-1288,-1400,-4,62,28
4905,32,-1264,-1400,12,64,29
4910,24,-1256,-1416,26,67,25
4915,48,-1264,-1392,41,70,24
4920,48,-1304,-1368,57,72,23
4925,48,-1224,-1376,73,73,23
4930,80,-1264,-1360,92,68,20
4935,32,-1232,-1328,102,62,20
4940,48,-1224,-1288,107,51,23
4945,56,-1192,-1296,108,38,24
4950,32,-1144,-1288,107,32,29
4955,32,-1136,-1264,107,26,32
4960,48,-1088,-1296,102,19,35
4965,56,-1088,-1256,94,15,40
4970,32,-1040,-1288,85,9,42
4975,48,-1024,-1232,74,0,45
4980,72,-1016,-1248,62,-11,48
4985,56,-1016,-1256,51,-22,52
4990,64,-1040,-1264,41,-33,55
4995,48,-1040,-1224,35,-42,57
5000,40,-1056,-1192,31,-48,59
5005,64,-1088,-1192,40,-52,58
5010,32,-1112,-1200,53,-55,62
5015,24,-1128,-1232,77,-52,62
5020,40,-1128,-1264,107,-48,60
5025,40,-1136,-1240,135,-38,57
5030,56,-1104,-1280,159,-28,51
5035,32,-1064,-1248,179,-15,47
5040,40,-1024,-1248,188,-2,43
5045,48,-960,-1232,187,10,41
5050,24,-920,-1232,174,23,39
5055,48,-904,-1248,158,33,38
5060,48,-848,-1240,138,40,37
5065,24,-816,-1248,118,43,38
5070,40,-816,-1208,95,41,40
5075,48,-808,-1272,71,35,43
5080,40,-824,-1264,46,26,43
5085,16,-824,-1264,22,18,43
5090,48,-848,-1272,0,10,42
5095,32,-872,-1288,-17,5,41
5100,0,-848,-1264,-33,0,39
5105,8,-888,-1240,-47,-4,35
5110,48,-928,-1264,-55,-6,33
5115,24,-912,-1296,-64,-6,30
5120,8,-936,-1296,-70,-6,28
5125,16,-952,-1288,-76,-3,24
5130,16,-928,-1288,-84,-1,24
5135,32,-952,-1296,-94,2,21
5140,8,-936,-1304,-107,5,20
5145,16,-920,-1312,-119,11,19
5150,8,-928,-1328,-129,18,19
5155,8,-936,-1352,-136,21,19
5160,16,-952,-1336,-141,24,13
5165,-8,-936,-1304,-143,24,10
5170,-8,-952,-1336,-147,22,7
5175,0,-928,-1360,-157,18,6
5180,0,-928,-1352,-173,16,2
5185,-24,-904,-1344,-187,13,-2
5190,-8,-936,-1368,-205,8,-6
5195,-24,-904,-1368,-225,4,-12
5200,-48,-896,-1368,-242,6,-11
5205,-16,-920,-1400,-262,16,-14
5210,-24,-904,-1392,-279,27,-18
5215,-16,-952,-1360,-295,35,-20
5220,0,-960,-1408,-308,44,-21
5225,0,-968,-1352,-316,51,-21
5230,8,-984,-1368,-322,58,-22
5235,0,-1000,-1344,-329,66,-22
5240,0,-1040,-1352,-335,74,-23
5245,0,-1008,-1344,-342,81,-20
5250,24,-992,-1360,-353,89,-16
5255,8,-984,-1352,-361,96,-18
5260,0,-984,-1352,-372,106,-17
5265,8,-976,-1368,-386,116,-15
5270,-24,-976,-1392,-400,120,-14
5275,0,-968,-1392,-413,122,-10
5280,8,-976,-1360,-423,121,-8
5285,8,-976,-1392,-434,116,-3
5290,0,-960,-1384,-447,111,4
5295,0,-984,-1416,-463,103,13
5300,24,-1024,-1424,-479,96,23
5305,0,-1032,-1392,-498,87,34
5310,24,-1056,-1440,-513,75,47
5315,-8,-1072,-1432,-529,66,60
5320,16,-1112,-1456,-542,58,72
5325,0,-1160,-1472,-553,54,80
5330,8,-1128,-1528,-562,62,92
5335,0,-1184,-1504,-564,75,100
5340,0,-1176,-1552,-565,89,106
5345,16,-1184,-1560,-563,103,107
5350,8,-1184,-1568,-561,115,109
5355,0,-1208,-1584,-559,131,110
5360,8,-1200,-1584,-559,147,111
5365,0,-1216,-1584,-557,161,110
5370,0,-1224,-1552,-554,176,109
5375,0,-1208,-1568,-551,191,113
5380,8,-1200,-1576,-551,204,117
5385,-32,-1208,-1560,-553,215,119
5390,-56,-1192,-1536,-560,218,120
5395,-16,-1208,-1552,-570,212,121
5400,-80,-1208,-1568,-577,201,117
5405,-96,-1192,-1560,-586,184,118
5410,-80,-1224,-1528,-599,168,119
5415,-64,-1240,-1544,-612,149,120
5420,-72,-1208,-1568,-626,127,114
5425,-32,-1240,-1584,-643,107,107
5430,-136,-1240,-1672,-657,85,95
5435,-104,-1264,-1672,-672,89,99
5440,-80,-1296,-1704,-681,99,96
5445,-56,-1320,-1720,-682,113,92
5450,-64,-1304,-1744,-684,129,87
5455,-56,-1312,-1736,-682,147,86
5460,-32,-1312,-1728,-680,159,83
5465,-40,-1320,-1704,-679,170,82
5470,8,-1320,-1688,-682,178,83
5475,0,-1312,-1712,-689,188,82
5480,0,-1304,-1688,-696,197,81
5485,24,-1280,-1712,-704,208,82
5490,32,-1288,-1656,-717,217,79
5495,32,-1296,-1680,-734,221,76
5500,24,-1272,-1656,-754,225,71
5505,8,-1264,-1656,-770,224,69
5510,-16,-1248,-1640,-781,221,69
5515,0,-1256,-1648,-793,218,70
5520,0,-1232,-1680,-805,218,71
5525,-8,-1240,-1664,-817,221,75
5530,-32,-1264,-1624,-831,225,77
5535,-64,-1224,-1648,-844,233,80
5540,-48,-1216,-1672,-855,241,81
5545,-40,-1216,-1672,-869,250,83
5550,-56,-1184,-1664,-884,261,87
5555,-72,-1192,-1680,-902,276,91
5560,-56,-1184,-1688,-920,288,93
5565,-64,-1168,-1680,-935,298,97
5570,-56,-1240,-1680,-945,309,99
5575,-8,-1176,-1696,-950,322,103
5580,0,-1200,-1680,-955,340,107
5585,-16,-1168,-1664,-961,360,109
5590,8,-1160,-1640,-968,378,110
5595,0,-1144,-1648,-975,391,112
5600,-24,-1096,-1632,-986,400,114
5605,0,-1088,-1608,-999,408,115
5610,8,-1064,-1624,-1015,416,117
5615,8,-1024,-1600,-1033,427,120
5620,16,-1016,-1624,-1056,439,126
5625,0,-1016,-1592,-1082,445,130
5630,16,-1008,-1592,-1110,446,138
5635,8,-1016,-1616,-1138,446,145
5640,0,-1032,-1592,-1167,449,153
5645,-8,-1032,-1592,-1193,455,160
5650,0,-1048,-1632,-1216,460,168
5655,0,-1024,-1656,-1238,466,176
5660,0,-1040,-1616,-1259,469,186
5665,0,-1048,-1616,-1279,470,192
5670,-8,-1016,-1632,-1296,473,199
5675,0,-1048,-1600,-1312,481,203
5680,0,-1032,-1584,-1327,490,208
5685,16,-1008,-1600,-1338,498,213
5690,8,-968,-1600,-1353,505,215
5695,0,-960,-1576,-1375,515,217
5700,0,-960,-1560,-1399,528,218
5705,0,-936,-1560,-1427,546,212
5710,0,-944,-1560,-1451,563,209
5715,0,-944,-1552,-1475,583,201
5720,-32,-928,-1552,-1500,603,197
5725,0,-944,-1536,-1529,625,188
5730,16,-936,-1536,-1556,643,182
5735,8,-920,-1552,-1587,663,177
5740,-8,-864,-1568,-1621,676,174
5745,0,-864,-1584,-1657,685,171
5750,-16,-880,-1592,-1695,691,172
5755,-8,-904,-1600,-1732,696,172
5760,-32,-904,-1544,-1764,705,175
5765,-32,-928,-1536,-1786,711,172
5770,-16,-968,-1528,-1802,718,168
5775,-32,-968,-1528,-1813,729,166
5780,-64,-944,-1496,-1825,744,160
5785,-56,-960,-1488,-1838,762,154
5790,-24,-968,-1496,-1849,784,148
5795,-72,-960,-1480,-1858,808,145
5800,-88,-928,-1456,-1869,833,137
5805,-80,-936,-1432,-1881,857,133
5810,-88,-920,-1408,-1896,885,127
5815,-104,-888,-1376,-1907,905,120
5820,-152,-856,-1384,-1916,921,118
5825,-144,-856,-1336,-1936,936,114
5830,-136,-856,-1336,-1956,948,109
5835,-176,-848,-1288,-1975,959,106
5840,-216,-840,-1296,-1996,966,100
5845,-232,-864,-1288,-2022,972,96
5850,-224,-872,-1272,-2047,980,87
5855,-248,-840,-1216,-2073,990,75
5860,-264,-816,-1200,-2098,1000,61
5865,-232,-824,-1080,-2121,1012,45
5870,-288,-776,-1040,-2136,1031,29
5875,-272,-744,-952,-2149,1060,10
5880,-264,-664,-920,-2168,1088,-11
5885,-296,-632,-808,-2189,1118,-37
5890,-240,-552,-792,-2224,1149,-62
5895,-248,-512,-784,-2275,1192,-91
5900,-216,-496,-704,-2349,1246,-110
5905,-240,-488,-640,-2422,1307,-132
5910,-184,-496,-552,-2477,1361,-150
5915,-200,-560,-472,-2515,1410,-163
5920,-144,-672,-368,-2528,1452,-166
5925,-88,-792,-280,-2507,1493,-162
5930,8,-912,-256,-2446,1538,-153
5935,32,-920,-288,-2352,1594,-133
5940,96,-960,-208,-2257,1651,-107
5945,160,-1008,-232,-2163,1705,-65
5950,280,-1000,-232,-2063,1765,-7
5955,272,-968,-176,-1957,1824,53
5960,312,-816,-120,-1847,1882,127
5965,368,-712,-128,-1737,1943,209
5970,200,-448,-192,-1624,2041,281
5975,88,-200,-272,-1509,2196,333
5980,24,32,-360,-1383,2397,373
5985,-176,320,-336,-1251,2617,398
5990,-304,592,-328,-1130,2840,431
5995,-320,824,-192,-1050,3040,477
6000,-392,976,-104,-994,3199,519
6005,-440,1112,-24,-956,3307,559
6010,-456,1168,-96,-934,3368,614
6015,-408,1184,-144,-929,3404,687
6020,-280,1168,-240,-924,3412,776
6025,-200,1168,-264,-908,3406,881
6030,8,1184,-344,-880,3393,995
6035,288,1408,-504,-835,3381,1123
6040,648,1832,-648,-792,3394,1277
6045,1000,2368,-816,-793,3462,1440
6050,1648,2688,-840,-805,3559,1624
6055,1600,3288,-1320,-710,3659,1825
6060,2216,3808,-1216,-676,3836,2052
6065,3208,4632,-1432,-574,3987,2272
6070,4200,5840,-1552,-318,4105,2383
6075,4824,7168,-1992,141,4078,2302
6080,5824,8584,-2296,686,4083,1926
6085,7296,9016,-2568,1218,4314,1398
6090,7072,8176,-3776,1631,4562,1288
6095,7264,6664,-3624,1603,4634,1902
6100,7224,5000,-3472,1479,4819,2800
6105,6520,3504,-3288,1495,5078,3764
6110,7928,3136,-2800,1434,5349,4830
6115,9008,4008,-1560,1187,5415,5452
6120,9232,5176,-968,796,5153,5436
6125,9176,6528,-440,237,4620,5052
6130,8336,7392,-344,-506,4072,4523
6135,7264,7088,-256,-1468,3721,3772
6140,6760,6120,-88,-2498,3576,3144
6145,6568,4936,144,-3410,3603,2541
6150,5832,3072,464,-4006,3699,1956
6155,4288,1600,1224,-4125,3766,1420
6160,2280,256,2056,-3789,3657,987
6165,1472,-1080,2704,-2897,3325,602
6170,1432,-1920,2936,-1949,2915,201
6175,1336,-2624,2720,-1027,2567,-200
6180,1104,-2976,2272,-248,2287,-523
6185,784,-2736,1640,410,1964,-721
6190,848,-2152,1016,935,1550,-791
6195,560,-1136,440,1207,1101,-773
6200,528,-144,-312,1223,648,-675
6205,72,552,-568,1042,360,-547
6210,336,920,-688,790,257,-416
6215,632,888,-496,564,309,-314
6220,912,792,-136,403,423,-238
6225,1336,560,312,313,498,-180
6230,1664,400,672,293,512,-141
6235,1880,192,880,303,497,-114
6240,1920,88,984,303,492,-76
6245,1832,-32,1024,290,510,-16
6250,1768,0,1024,245,529,67
6255,1112,40,816,194,526,162
6260,800,32,688,125,446,269
6265,808,48,616,83,362,356
6270,696,0,616,68,321,394
6275,728,-24,616,71,315,408
6280,896,-40,560,95,334,411
6285,992,-32,560,124,380,410
6290,1136,-56,496,148,427,415
6295,1368,-48,464,159,468,428
6300,1576,-16,472,159,494,453
6305,1680,24,472,153,528,479
6310,1696,48,488,145,572,504
6315,1792,112,504,141,619,524
6320,1920,272,520,130,661,540
6325,2024,320,544,106,698,546
6330,2136,352,616,93,726,534
6335,2224,368,640,92,743,502
6340,2288,376,736,96,744,464
6345,1936,456,768,84,728,427
6350,2296,360,848,61,732,419
6355,2160,280,840,33,707,382
6360,2208,200,856,22,674,355
6365,2088,152,816,20,633,302
6370,1496,168,824,30,593,260
6375,2208,72,776,41,606,278
6380,2168,32,824,57,564,205
6385,2056,-16,816,84,506,152
6390,2320,-48,720,106,497,188
6395,2296,-24,824,135,481,176
6400,2168,-16,800,154,419,140
6405,2168,-56,808,163,350,139
6410,1464,24,800,161,301,151
6415,2336,-136,808,161,307,215
6420,2096,-144,832,154,257,177
6425,2080,-208,856,154,176,155
6430,2096,-192,760,166,112,146
6435,2104,-184,768,179,65,142
6440,2120,-184,720,186,21,138
6445,2008,-128,696,189,-34,129
6450,1904,-152,736,194,-90,120
6455,1968,-96,608,200,-143,106
6460,2048,-88,608,210,-185,89
6465,2112,-96,616,225,-213,73
6470,2040,-80,648,243,-238,50
6475,1968,-48,576,258,-269,37
6480,1960,-32,560,259,-314,26
6485,1952,-16,560,263,-364,15
6490,1880,8,536,272,-410,1
6495,1896,0,520,277,-466,-8
6500,1920,-8,536,284,-507,-14
6505,1896,56,512,293,-545,-19
6510,1904,48,488,289,-584,-27
6515,1896,64,464,277,-629,-41
6520,1864,88,488,263,-677,-62
6525,1848,88,464,244,-728,-79
6530,1856,88,464,228,-778,-95
6535,1824,96,440,212,-821,-107
6540,1840,104,392,197,-855,-123
6545,1800,72,352,181,-884,-138
6550,1816,56,320,166,-912,-156
6555,1856,32,264,157,-939,-176
6560,1848,40,232,152,-963,-194
6565,1912,16,224,150,-983,-213
6570,1952,64,200,156,-1005,-226
6575,1960,72,176,167,-1033,-231
6580,2000,112,176,180,-1058,-235
6585,2016,112,104,192,-1079,-238
6590,1992,176,56,209,-1094,-242
6595,1944,160,56,226,-1102,-243
6600,1976,136,32,231,-1117,-240
6605,2024,160,24,232,-1141,-235
6610,2096,104,48,245,-1149,-236
6615,2176,144,48,249,-1146,-233
6620,2040,232,-40,249,-1144,-229
6625,2144,328,-88,231,-1164,-222
6630,2216,408,-168,215,-1176,-236
6635,2232,368,-224,189,-1176,-252
6640,2272,312,-208,160,-1171,-267
6645,2216,240,-192,143,-1158,-279
6650,2088,136,-168,139,-1149,-282
6655,1984,136,-120,147,-1144,-280
6660,1904,160,-112,173,-1142,-281
6665,1880,248,-120,206,-1149,-286
6670,1872,296,-160,233,-1150,-292
6675,1832,376,-232,256,-1148,-302
6680,1920,456,-352,275,-1151,-317
6685,2032,488,-424,281,-1135,-334
6690,2128,456,-480,279,-1094,-345
6695,2224,472,-536,280,-1043,-349
6700,2360,448,-576,273,-983,-348
6705,2328,472,-640,257,-915,-342
6710,2352,472,-744,251,-854,-345
6715,2376,440,-728,244,-804,-351
6720,2392,432,-792,238,-759,-347
6725,2312,432,-824,229,-721,-340
6730,2328,408,-864,224,-691,-331
6735,2312,384,-840,228,-668,-322
6740,2288,360,-832,232,-641,-309
6745,2232,368,-808,230,-614,-290
6750,2136,344,-792,226,-584,-271
6755,2104,344,-800,221,-557,-244
6760,2064,304,-816,218,-527,-218
6765,2024,288,-792,214,-494,-188
6770,1976,336,-768,203,-461,-156
6775,1944,344,-784,188,-428,-124
6780,1920,376,-768,173,-401,-92
6785,1944,368,-792,159,-374,-62
6790,1912,384,-752,148,-346,-37
6795,2000,408,-736,135,-318,-11
6800,2016,376,-656,124,-284,5
6805,1984,440,-632,114,-249,21
6810,2008,384,-712,103,-217,40
6815,1984,400,-704,94,-182,53
6820,2000,376,-696,81,-152,63
6825,1984,352,-672,69,-115,74
6830,1944,360,-616,57,-87,81
6835,1968,344,-560,51,-62,88
6840,1944,392,-600,43,-38,93
6845,1944,424,-560,34,-15,93
6850,1992,432,-560,20,8,90
6855,1976,448,-560,2,31,86
6860,2000,440,-520,-15,55,81
6865,2000,408,-512,-31,79,76
6870,2016,376,-496,-45,97,68
6875,1960,384,-480,-54,112,60
6880,1976,352,-472,-55,125,52
6885,1944,312,-456,-54,137,42
6890,1952,320,-464,-50,145,35
6895,1952,328,-440,-46,157,28
6900,1944,304,-432,-43,167,23
6905,1944,320,-464,-42,174,17
6910,1976,296,-440,-44,182,17
6915,1984,296,-424,-44,189,15
6920,1992,256,-408,-45,195,17
6925,1992,264,-400,-37,197,15
6930,1992,256,-392,-33,198,14
6935,2024,240,-416,-27,201,16
6940,2024,232,-376,-22,202,16
6945,2032,248,-376,-14,204,18
6950,2072,248,-384,-7,204,22
6955,2056,264,-368,-2,202,25
6960,2104,264,-368,6,198,28
6965,2080,240,-376,13,191,31
6970,2128,248,-368,22,184,35
6975,2112,232,-384,29,178,36
6980,2144,232,-392,38,167,40
6985,2120,248,-352,46,155,45
6990,2120,256,-352,54,142,47
6995,2120,240,-368,59,131,51
7000,2120,256,-352,60,121,53
7005,2112,240,-352,59,112,55
7010,2104,248,-352,58,101,53
7015,2104,264,-368,57,93,48
7020,2112,240,-320,55,90,44
7025,2112,232,-352,52,84,39
7030,2104,232,-376,49,78,37
7035,2120,256,-376,46,69,31
7040,2112,248,-344,42,62,24
7045,2096,248,-336,40,53,19
7050,2080,264,-344,37,44,16
7055,2080,240,-352,36,33,10
7060,2064,256,-344,36,24,4
7065,2072,248,-344,37,14,0
7070,2056,248,-328,38,6,-5
7075,2056,232,-336,39,0,-11
7080,2032,280,-352,40,-6,-16
7085,2032,264,-328,39,-11,-18
7090,2024,264,-344,41,-15,-21
7095,2016,280,-360,42,-21,-25
7100,2040,248,-360,42,-25,-29
7105,2000,272,-352,44,-31,-30
7110,2024,264,-336,45,-34,-32
7115,2024,272,-336,47,-37,-34
7120,2024,240,-376,49,-41,-36
7125,2008,264,-368,52,-46,-34
7130,1992,248,-368,53,-46,-35
7135,1992,232,-312,54,-49,-37
7140,2000,264,-392,56,-50,-36
7145,2008,280,-352,56,-52,-38
7150,1992,248,-360,58,-52,-40
7155,2000,264,-400,63,-52,-44
7160,2008,248,-376,66,-53,-46
7165,2016,248,-400,70,-52,-46
7170,2000,272,-384,73,-50,-47
7175,1992,312,-384,74,-50,-48
7180,2040,288,-400,77,-49,-51
7185,2032,288,-408,79,-46,-49
7190,2024,296,-416,80,-46,-51
7195,2032,312,-408,80,-47,-50
7200,2056,320,-424,80,-45,-50
7205,2048,296,-432,80,-43,-48
7210,2048,320,-456,80,-40,-47
7215,2040,312,-432,81,-39,-47
7220,2064,320,-424,83,-38,-46
7225,2064,288,-448,84,-36,-47
7230,2088,304,-448,85,-34,-47
7235,2056,296,-448,85,-32,-47
7240,2064,328,-472,82,-28,-46
7245,2040,304,-424,78,-23,-45
7250,2048,320,-456,77,-18,-42
7255,2040,320,-448,73,-12,-40
7260,2024,304,-432,71,-6,-36
7265,2048,288,-456,69,-2,-32
7270,2040,280,-472,70,1,-27
7275,2016,296,-448,69,2,-26
7280,2040,320,-440,65,3,-25
7285,2024,320,-424,62,4,-22
7290,2040,312,-416,58,7,-20
7295,2016,320,-440,53,10,-19
7300,2008,312,-392,49,12,-18
7305,2024,304,-416,45,15,-15
7310,2032,288,-400,44,15,-13
7315,2024,304,-456,44,16,-11
7320,2016,296,-456,46,17,-10
7325,2032,296,-424,48,21,-9
7330,2032,272,-440,51,23,-8
7335,2032,320,-424,53,26,-9
7340,2032,296,-440,53,31,-8
7345,2032,296,-440,52,34,-7
7350,2040,296,-432,54,37,-4
7355,2040,272,-416,54,39,-6
7360,2048,280,-400,55,41,-6
7365,2048,304,-408,57,43,-6
7370,2040,312,-376,57,42,-4
7375,2032,296,-416,59,40,-4
7380,2056,296,-384,59,41,-4
7385,2040,296,-400,59,37,-3
7390,2024,312,-400,59,36,-5
7395,2040,320,-416,60,33,-5
7400,2064,280,-408,60,32,-6
7405,2056,280,-384,61,29,-5
7410,2048,288,-408,65,28,-5
7415,2040,264,-408,68,25,-6
7420,2048,288,-400,71,25,-9
7425,2048,288,-416,73,26,-10
7430,2040,272,-432,77,27,-9
7435,2016,296,-408,81,30,-12
7440,2056,288,-384,85,31,-12
7445,2048,288,-480,88,31,-11
7450,2040,288,-432,93,33,-9
7455,2056,272,-424,98,32,-7
7460,2048,288,-432,101,31,-5
7465,2080,272,-480,105,28,-4
7470,2040,296,-432,107,29,-4
7475,2048,256,-464,109,29,-3
7480,2040,288,-416,106,27,-1
7485,2032,304,-392,103,27,-2
7490,2032,304,-376,96,24,-4
7495,2040,296,-360,88,26,-2
7500,2024,304,-416,83,26,-2
7505,2040,272,-384,78,29,-4
7510,2000,264,-384,77,31,-6
7515,2000,272,-392,79,33,-7
7520,2040,264,-392,83,36,-9
7525,2024,272,-424,87,36,-12
7530,2032,256,-416,91,36,-15
7535,2032,304,-424,95,35,-17
7540,2040,296,-440,97,32,-19
7545,2048,296,-408,95,34,-20
7550,2032,272,-432,94,31,-24
7555,2008,296,-416,99,28,-26
7560,2008,280,-392,103,27,-28
7565,2024,256,-400,104,23,-28
7570,2016,272,-416,105,22,-27
7575,2016,320,-416,104,24,-29
7580,2032,296,-416,102,23,-28
7585,2032,320,-416,99,23,-30
7590,2040,312,-424,95,26,-31
7595,2016,304,-408,91,30,-29
7600,2064,272,-416,84,37,-21
7605,2024,296,-400,82,34,-28
7610,2016,304,-360,83,30,-30
7615,2000,272,-392,84,28,-28
7620,2048,280,-384,84,24,-27
7625,2016,312,-424,84,23,-27
7630,2032,312,-376,84,21,-28
7635,2032,280,-392,86,17,-28
7640,2032,288,-368,89,11,-30
7645,2032,280,-376,88,8,-32
7650,2032,280,-400,85,3,-34
7655,2056,296,-352,82,-5,-39
7660,2040,312,-368,80,-7,-40
7665,2056,312,-384,77,-10,-39
7670,2040,312,-376,78,-7,-36
7675,2048,312,-408,77,-4,-37
7680,2048,304,-384,74,-7,-38
7685,2048,304,-368,74,-7,-41
7690,2048,280,-384,74,-8,-38
7695,2040,288,-376,74,-7,-39
7700,2056,312,-384,75,-7,-38
7705,2040,296,-392,75,-7,-39
7710,2048,280,-416,75,-9,-37
7715,2032,320,-376,76,-9,-35
7720,2040,280,-376,78,-8,-34
7725,2040,280,-368,79,-7,-35
7730,2032,312,-392,79,-4,-33
7735,2032,304,-344,81,-2,-32
7740,2048,264,-392,81,1,-30
7745,2064,272,-384,79,5,-28
7750,2024,312,-384,79,7,-26
7755,2040,304,-376,77,7,-22
7760,2048,304,-400,77,8,-23
7765,2024,328,-416,76,10,-23
7770,2016,320,-408,76,12,-21
7775,2040,312,-424,73,12,-19
7780,2016,304,-376,69,11,-20
7785,2048,288,-392,67,6,-19
7790,2040,296,-392,65,3,-19
7795,2032,304,-384,64,2,-19
7800,2048,304,-376,63,-2,-20
7805,2032,288,-368,62,-2,-18
7810,2032,328,-384,61,-1,-17
7815,2056,288,-424,61,0,-15
7820,2040,288,-408,62,1,-16
7825,2040,304,-368,61,2,-17
7830,2008,296,-400,62,6,-19
7835,2016,304,-416,63,9,-20
7840,2008,320,-416,64,14,-19
7845,2040,296,-384,62,16,-21
7850,2048,296,-424,62,22,-21
7855,2024,296,-392,61,26,-18
7860,2048,280,-400,59,28,-19
7865,2024,288,-408,58,30,-16
7870,2040,280,-408,60,26,-15
7875,2040,280,-424,64,23,-14
7880,2040,280,-400,65,21,-15
7885,2016,304,-416,64,21,-16
7890,2016,320,-408,66,21,-16
7895,2032,296,-392,66,20,-17
7900,2048,296,-440,65,21,-17
7905,2048,296,-384,65,25,-20
7910,2024,304,-384,65,26,-19
7915,2032,304,-416,66,28,-22
7920,2040,288,-424,68,29,-19
7925,2040,312,-424,70,26,-20
7930,2040,312,-376,67,23,-19
7935,2040,296,-408,64,19,-21
7940,2032,296,-384,60,17,-21
7945,2032,328,-432,57,16,-22
7950,2040,336,-464,54,15,-24
7955,2056,296,-416,51,13,-25
7960,2048,288,-400,50,17,-23
7965,2048,312,-408,52,18,-24
7970,2040,280,-408,53,21,-25
7975,2048,288,-400,54,21,-25
7980,2016,288,-424,58,22,-26
7985,2032,288,-376,61,22,-25
7990,2040,296,-416,63,19,-26
7995,2032,312,-392,63,16,-24
8000,2056,296,-392,62,15,-26
8005,2048,304,-368,62,12,-25
8010,2048,328,-392,61,10,-24
8015,2056,304,-360,56,12,-24
8020,2040,320,-376,55,13,-24
8025,2040,296,-400,53,15,-23
8030,2040,304,-416,49,17,-24
8035,2016,312,-392,48,18,-24
8040,2032,304,-384,45,18,-24
8045,2024,288,-400,43,18,-23
8050,2016,304,-376,42,15,-24
8055,2008,280,-432,42,14,-24
8060,2024,288,-408,44,11,-24
8065,2040,288,-408,47,10,-24
8070,2008,312,-408,49,8,-23
8075,2032,312,-392,52,5,-23
8080,2032,296,-424,53,4,-24
8085,2032,336,-416,53,5,-23
8090,2040,320,-384,52,6,-24
8095,2016,336,-376,48,9,-21
8100,2040,312,-424,46,10,-21
8105,2048,288,-408,44,10,-20
8110,2008,296,-400,43,12,-21
8115,2032,320,-264,42,11,-21
8120,2016,296,-400,42,12,-20
8125,2032,320,-384,42,12,-19
8130,2032,320,-440,40,14,-20
8135,2056,288,-408,42,14,-18
8140,2056,280,-416,42,12,-17
8145,2040,288,-432,41,11,-19
8150,2040,304,-392,43,9,-20
8155,2032,296,-416,45,8,-20
8160,2040,312,-376,44,6,-21
8165,2048,288,-424,46,6,-22
8170,2008,288,-400,46,8,-22
8175,2032,320,-432,48,10,-22
8180,2032,272,-424,50,11,-23
8185,2040,312,-384,52,12,-22
8190,2016,304,-408,53,12,-22
8195,2040,328,-400,54,12,-22
8200,2040,320,-400,54,12,-22
8205,2048,312,-400,51,12,-21
8210,2032,312,-408,52,13,-20
8215,2032,304,-408,51,13,-20
8220,2032,304,-424,51,14,-17
8225,2040,296,-424,52,15,-18
8230,2032,304,-416,52,18,-18
8235,2032,320,-416,51,17,-17
8240,2040,288,-408,51,17,-19
8245,2032,312,-384,50,17,-20
8250,2040,304,-392,50,14,-19
8255,2040,304,-416,49,12,-18
8260,2032,328,-376,49,11,-16
8265,2040,320,-408,51,9,-17
8270,2032,304,-424,53,13,-17
8275,2016,312,-440,54,13,-16
8280,2032,312,-432,55,15,-15
8285,2040,328,-400,56,16,-15
8290,2040,304,-408,57,18,-16
8295,2032,288,-416,56,19,-16
8300,2056,304,-392,55,19,-17
8305,2040,304,-400,55,18,-14
8310,2048,296,-432,54,17,-14
8315,2040,288,-400,57,13,-13
8320,2024,312,-392,58,13,-13
8325,2032,312,-424,59,14,-14
8330,2048,304,-440,57,15,-14
8335,2016,312,-368,57,14,-15
8340,2024,328,-392,60,12,-15
8345,2032,312,-432,60,13,-16
8350,2032,312,-400,60,15,-17
8355,2040,288,-392,60,16,-15
8360,2040,288,-392,61,16,-16
8365,2040,312,-392,61,17,-17
8370,2008,344,-400,61,18,-16
8375,2032,344,-392,59,17,-15
8380,2024,304,-360,55,17,-16
8385,2024,296,-416,53,17,-15
8390,2040,312,-400,52,18,-17
8395,2040,304,-376,49,17,-16
8400,2040,304,-424,50,14,-16
8405,2032,304,-384,51,14,-16
8410,2024,312,-432,51,12,-16
8415,2032,320,-400,52,12,-17
8420,2040,328,-408,53,13,-16
8425,2032,296,-368,54,12,-17
8430,2048,304,-392,53,14,-16
8435,2024,296,-400,54,13,-20
8440,2032,312,-400,53,14,-20
8445,2024,312,-408,53,13,-19
8450,2032,304,-400,53,13,-19
8455,2040,288,-384,53,11,-22
8460,2048,296,-392,52,12,-19
8465,2016,312,-408,52,12,-21
8470,2040,304,-392,51,13,-21
8475,2032,320,-392,50,12,-19
8480,2040,320,-408,51,11,-21
8485,2032,296,-392,52,9,-21
8490,2048,320,-408,52,9,-20
8495,2024,320,-360,52,9,-21
8500,2016,320,-424,53,11,-22
8505,2040,304,-408,53,11,-21
8510,2024,320,-432,54,12,-20
8515,2048,296,-424,54,13,-22
8520,2008,304,-432,55,12,-19
8525,2032,320,-400,56,13,-19
8530,2032,304,-408,57,12,-19
8535,2032,328,-392,57,12,-18
8540,2024,328,-424,56,12,-17
8545,2008,296,-416,57,13,-16
8550,2016,320,-424,57,12,-17
8555,2032,304,-416,58,13,-20
8560,2040,312,-408,55,14,-19
8565,2048,312,-416,55,14,-18
8570,2040,304,-392,55,15,-19
8575,2032,304,-400,54,15,-19
8580,2040,272,-408,56,13,-20
8585,2032,296,-424,56,14,-20
8590,2040,296,-376,56,16,-18
8595,2008,304,-400,57,15,-18
8600,2040,336,-408,56,16,-19
8605,2016,320,-392,58,15,-16
8610,2016,312,-424,58,14,-15
8615,2056,304,-368,59,11,-16
8620,2024,328,-416,61,12,-15
8625,2048,296,-400,58,10,-14
8630,2048,304,-424,57,11,-14
8635,2040,336,-416,55,11,-14
8640,2032,320,-408,56,10,-14
8645,2032,312,-424,56,12,-13
8650,2016,344,-416,58,13,-14
8655,2056,312,-440,60,16,-14
8660,2048,312,-416,60,17,-13
8665,2048,320,-384,60,17,-15
8670,2056,320,-408,59,17,-14
8675,2056,296,-392,58,16,-13
8680,2056,312,-400,58,16,-11
8685,2016,328,-408,56,13,-12
8690,2048,288,-392,58,10,-12
8695,2024,304,-400,59,7,-13
8700,2016,304,-376,59,7,-13
8705,2040,328,-424,59,9,-13
8710,2040,288,-360,58,12,-13
8715,2032,336,-376,56,13,-15
8720,2040,328,-384,56,16,-14
8725,2048,328,-400,56,17,-13
8730,2032,296,-408,55,17,-11
8735,2040,296,-384,57,16,-11
8740,2040,288,-408,59,14,-9
8745,2024,304,-432,62,11,-10
8750,2024,296,-400,65,10,-11
8755,2048,312,-392,64,9,-13
8760,2032,304,-392,62,11,-13
8765,2032,320,-392,58,10,-14
8770,2024,336,-384,55,10,-16
8775,2024,280,-360,51,9,-15
8780,2016,312,-376,51,10,-18
8785,2032,304,-424,53,11,-16
8790,2008,312,-392,55,11,-18
8795,2032,312,-416,57,14,-18
8800,2032,320,-432,58,15,-19
8805,2048,312,-432,56,15,-18
8810,2040,336,-416,54,14,-19
8815,2040,296,-416,53,13,-20
8820,2048,336,-440,51,13,-19
8825,2032,304,-400,49,14,-17
8830,2032,336,-400,52,13,-17
8835,2064,312,-416,53,12,-16
8840,2040,320,-392,55,13,-16
8845,2040,328,-432,55,11,-16
8850,2016,328,-400,56,11,-17
8855,2032,312,-392,57,11,-17
8860,2048,312,-408,58,12,-17
8865,2008,344,-424,58,12,-17
8870,2032,304,-400,58,13,-17
8875,2040,304,-408,57,14,-17
8880,2048,304,-392,55,12,-16
8885,2040,328,-392,54,11,-15
8890,2040,312,-368,53,11,-14
8895,2056,328,-384,51,9,-14
8900,2048,312,-416,50,8,-14
8905,2040,320,-408,49,7,-13
8910,2008,328,-408,49,4,-13
8915,2008,328,-400,49,5,-12
8920,2040,296,-392,49,5,-11
8925,2024,320,-368,49,6,-10
8930,2016,288,-416,49,6,-9
8935,2024,320,-408,50,5,-9
8940,2024,344,-392,52,4,-10
8945,2024,320,-384,51,3,-9
8950,2032,320,-432,52,2,-9
8955,2040,304,-440,51,3,-9
8960,2032,304,-408,50,2,-10
8965,2024,320,-392,49,5,-9
8970,2024,344,-424,47,8,-8
8975,2016,312,-424,47,8,-8
8980,2032,296,-424,47,9,-6
8985,2032,344,-424,47,10,-5
8990,2048,304,-408,47,12,-5
8995,2032,312,-432,48,13,-7
9000,2056,304,-416,50,14,-9
9005,2032,328,-440,49,15,-11
9010,2048,336,-400,51,16,-11
9015,2040,320,-392,51,16,-13
9020,2040,304,-424,51,16,-13
9025,1984,352,-392,51,16,-13
9030,2048,336,-360,52,19,-14
9035,2032,312,-432,50,14,-16
9040,2040,320,-408,45,12,-17
9045,2008,328,-400,44,11,-15
9050,2032,296,-376,42,11,-15
9055,2008,296,-424,40,11,-17
9060,2024,312,-416,39,12,-16
9065,2016,288,-408,40,12,-16
9070,2016,312,-416,39,12,-16
9075,2008,296,-408,40,11,-15
9080,2048,288,-408,41,11,-16
9085,2048,296,-408,42,10,-18
9090,2040,296,-384,44,10,-16
9095,2032,328,-408,44,9,-19
9100,2048,312,-400,45,9,-17
9105,2040,336,-400,47,9,-16
9110,2032,320,-416,49,9,-17
9115,2024,328,-416,48,8,-16
9120,2048,320,-400,47,8,-17
9125,2048,336,-408,48,8,-19
9130,2032,336,-392,47,8,-18
9135,2048,320,-424,48,7,-18
9140,2000,328,-392,48,5,-17
9145,2024,312,-384,49,4,-17
9150,2016,336,-408,50,4,-17
9155,2048,336,-376,48,5,-17
9160,2008,336,-408,48,6,-16
9165,2040,328,-416,50,7,-16
9170,2048,320,-384,51,5,-15
9175,2024,328,-392,51,4,-15
9180,2024,312,-432,51,5,-14
9185,2016,320,-416,52,6,-16
9190,2040,320,-392,53,7,-13
9195,2040,312,-408,52,7,-11
9200,2040,344,-408,53,9,-11
9205,2048,296,-392,53,8,-9
9210,2016,312,-416,53,9,-11
9215,2024,336,-432,55,8,-11
9220,2040,304,-424,54,9,-11
9225,2024,312,-416,54,10,-10
9230,2016,336,-424,52,9,-10
9235,2032,328,-408,52,7,-9
9240,2032,328,-432,52,8,-9
9245,2032,288,-376,52,8,-8
9250,2040,296,-392,53,8,-8
9255,2024,328,-424,53,8,-10
9260,2040,360,-480,54,9,-10
9265,2016,328,-384,54,11,-9
9270,2048,312,-408,54,12,-8
9275,2040,328,-424,55,11,-10
9280,2032,296,-392,54,12,-11
9285,2056,304,-416,54,12,-12
9290,2040,312,-392,54,13,-11
9295,2032,328,-424,54,14,-11
9300,2016,320,-408,54,13,-10
9305,2024,320,-384,55,13,-12
9310,2056,320,-384,54,15,-13
9315,2016,328,-376,54,17,-10
9320,2040,320,-400,54,15,-11
9325,2040,344,-416,53,14,-9
9330,2048,304,-376,53,12,-9
9335,2032,304,-376,54,12,-8
9340,2024,320,-416,52,11,-10
9345,2032,304,-432,52,11,-12
9350,2040,288,-400,52,12,-10
9355,2024,320,-416,52,11,-10
9360,2016,312,-400,53,11,-9
9365,2008,320,-400,54,11,-10
9370,2040,320,-408,54,11,-11
9375,2032,328,-408,54,11,-12
9380,2048,304,-424,55,12,-14
9385,2032,312,-432,53,14,-13
9390,2024,320,-392,52,14,-13
9395,2032,328,-376,51,12,-13
9400,2024,312,-416,53,10,-14
9405,2040,304,-424,53,9,-15
9410,2024,328,-392,53,7,-15
9415,2048,312,-432,53,8,-16
9420,2032,304,-416,55,8,-17
9425,2032,296,-440,54,9,-17
9430,2024,328,-408,54,9,-18
9435,2040,320,-384,52,10,-16
9440,2032,336,-392,53,13,-14
9445,2040,312,-400,51,12,-12
9450,2032,280,-392,53,12,-11
9455,2024,336,-424,55,10,-10
9460,2032,288,-400,55,9,-9
9465,2040,312,-440,56,9,-10
9470,2024,320,-432,57,8,-11
9475,2016,336,-392,57,10,-12
9480,2024,312,-400,55,12,-13
9485,2024,296,-392,54,13,-13
9490,2032,288,-384,53,15,-13
9495,2000,320,-440,53,16,-14
9500,2048,280,-360,53,15,-12
9505,2032,312,-416,53,13,-12
9510,2040,328,-384,55,14,-13
9515,2040,328,-392,54,14,-13
9520,2024,336,-416,52,11,-15
9525,2032,328,-416,51,12,-14
9530,2048,336,-408,48,12,-14
9535,2040,320,-416,47,11,-16
9540,2032,328,-408,46,12,-15
9545,2040,320,-432,45,12,-16
9550,2032,304,-400,48,13,-14
9555,2040,336,-384,48,15,-16
9560,2032,320,-432,49,14,-15
9565,2040,312,-408,50,14,-15
9570,2048,320,-408,51,13,-17
9575,2032,336,-408,50,12,-15
9580,2032,312,-400,52,9,-17
9585,2032,336,-400,53,11,-17
9590,2040,344,-424,53,9,-15
9595,2040,320,-392,54,10,-15
9600,2048,320,-408,54,9,-14
9605,2016,320,-400,53,9,-15
9610,2032,320,-408,53,9,-16
9615,2024,352,-376,53,8,-14
9620,2048,320,-416,51,9,-15
9625,2016,344,-424,51,9,-14
9630,2040,304,-408,52,9,-13
9635,2032,296,-424,52,10,-13
9640,1880,352,-536,52,10,-12
9645,2032,320,-400,52,9,-12
9650,2040,320,-384,52,9,-12
9655,2032,320,-424,52,10,-12
9660,2032,320,-456,53,10,-13
9665,2024,320,-416,53,9,-13
9670,2032,320,-408,54,11,-13
9675,2024,328,-408,53,10,-11
9680,2016,312,-440,51,12,-11
9685,2032,352,-408,50,14,-11
9690,2032,312,-416,51,13,-10
9695,2032,320,-456,50,13,-10
9700,2040,312,-416,50,12,-10
9705,2048,296,-416,51,12,-8
9710,2032,328,-432,51,13,-10
9715,2032,328,-408,52,14,-10
9720,2032,312,-416,53,15,-11
9725,2024,312,-408,54,16,-12
9730,2024,296,-416,55,17,-12
9735,2016,336,-432,55,18,-14
9740,2032,288,-400,54,19,-13
9745,2032,320,-408,53,20,-13
9750,2048,320,-360,52,19,-14
9755,2008,328,-400,50,18,-16
9760,2040,336,-376,50,18,-16
9765,2000,344,-400,51,17,-15
9770,2008,320,-400,50,17,-16
9775,2008,296,-400,50,16,-15
9780,2016,328,-416,50,16,-14
9785,2032,344,-416,52,15,-15
9790,2008,336,-400,50,15,-14
9795,2040,304,-424,50,13,-14
9800,2032,320,-432,51,14,-14
9805,2064,288,-376,52,15,-13
9810,2032,320,-416,52,14,-12
9815,2032,328,-376,53,15,-14
9820,2048,320,-416,52,14,-12
9825,2024,312,-392,52,13,-12
9830,2048,320,-400,52,12,-10
9835,2040,336,-392,52,11,-11
9840,2032,336,-424,51,10,-12
9845,2008,352,-408,51,8,-10
9850,2040,328,-424,51,8,-11
9855,2032,320,-392,50,7,-12
9860,2024,320,-376,50,6,-11
9865,2040,336,-408,50,7,-11
9870,2032,336,-392,51,6,-13
9875,2040,312,-400,52,6,-12
9880,2016,312,-408,53,7,-11
9885,2032,312,-408,52,7,-11
9890,2032,320,-400,55,6,-12
9895,2032,304,-392,55,7,-13
9900,2032,328,-416,57,9,-13
9905,2040,320,-408,56,9,-11
9910,2024,320,-424,56,9,-13
9915,2048,312,-392,57,10,-12
9920,2016,296,-408,55,9,-13
9925,2016,336,-392,55,9,-14
9930,2016,320,-392,53,8,-13
9935,2024,320,-416,53,9,-12
9940,2040,320,-416,53,9,-12
9945,2016,336,-416,55,9,-9
9950,2024,328,-456,55,6,-7
9955,2032,328,-424,56,6,-8
9960,2024,320,-432,57,5,-7
9965,2008,336,-424,58,6,-6
9970,2040,328,-400,60,8,-6
9975,2032,320,-432,61,10,-7
9980,2032,352,-424,62,12,-8
9985,2032,312,-408,61,15,-8
9990,2032,336,-400,60,16,-8
9995,2056,336,-424,58,17,-8
10000,2032,336,-408,56,16,-9
10005,2024,320,-424,55,15,-9
10010,2016,312,-432,54,16,-10
10015,2032,336,-408,53,14,-8
10020,2032,328,-432,53,12,-8
10025,2032,320,-376,53,12,-8
10030,2040,320,-392,54,11,-9
10035,2016,304,-400,53,12,-10
10040,2016,320,-416,54,12,-11
10045,2040,352,-416,55,11,-9
10050,2040,344,-392,56,13,-11
10055,2032,320,-408,54,14,-11
10060,2040,304,-424,54,17,-11
10065,2024,328,-384,54,15,-11
10070,2024,304,-400,54,15,-12
10075,2016,336,-424,52,16,-12
10080,2040,328,-408,51,15,-12
10085,2048,312,-424,50,15,-12
10090,2032,336,-416,50,14,-13
10095,2040,320,-400,50,16,-11
10100,2032,320,-424,50,14,-11
10105,2024,336,-400,51,13,-11
10110,2032,336,-392,53,11,-10
10115,2040,320,-424,53,10,-11
10120,2048,320,-400,53,10,-10
10125,2016,328,-416,51,10,-10
10130,2048,312,-392,51,10,-11
10135,2040,328,-416,51,9,-11
10140,2040,304,-392,51,9,-12
10145,2040,320,-376,54,8,-12
10150,2040,312,-408,53,9,-13
10155,2016,320,-400,53,12,-13
10160,2040,352,-432,54,12,-14
10165,2024,320,-432,55,14,-16
10170,2032,328,-424,53,16,-13
10175,2040,328,-416,54,17,-13
10180,2040,320,-408,55,18,-12
10185,2040,336,-448,54,17,-9
10190,2024,304,-408,56,16,-7
10195,2016,304,-400,57,15,-7
10200,2040,312,-440,58,13,-6
10205,2040,320,-392,59,13,-7
10210,2040,328,-416,58,13,-9
10215,2048,320,-424,55,15,-10
10220,2032,328,-392,51,14,-10
10225,2008,312,-416,49,13,-12
10230,2024,312,-400,48,12,-14
10235,2008,280,-400,48,12,-12
10240,2024,336,-392,50,12,-11
10245,2016,320,-408,50,12,-10
10250,2032,328,-424,52,11,-11
10255,2032,336,-432,52,11,-13
10260,2048,304,-392,52,10,-12
10265,2032,312,-376,51,11,-12
10270,2032,312,-416,52,9,-12
10275,2016,304,-384,54,9,-11
10280,2040,328,-432,54,10,-13
10285,2040,320,-424,56,10,-13
10290,2032,328,-392,58,12,-13
10295,2040,328,-424,61,14,-14
10300,2032,344,-416,62,14,-15
10305,2056,304,-392,63,14,-14
10310,2048,336,-424,64,14,-17
10315,2024,328,-400,63,14,-14
10320,2040,344,-400,68,11,-15
10325,2048,352,-408,66,10,-14
10330,2016,328,-416,64,12,-15
10335,2040,320,-392,61,14,-15
10340,2032,320,-424,60,13,-11
10345,2000,360,-432,59,13,-12
10350,2040,312,-424,59,12,-11
10355,2016,352,-416,59,10,-9
10360,2016,320,-384,57,9,-9
10365,2016,336,-384,57,8,-9
10370,2032,336,-416,57,8,-8
10375,2040,328,-392,55,7,-7
10380,2032,320,-400,55,7,-6
10385,2048,320,-424,56,8,-7
10390,2040,312,-424,55,11,-7
10395,2024,320,-432,55,10,-6
10400,2064,256,-432,57,10,-8
10405,2040,328,-392,57,11,-9
10410,2040,304,-432,57,10,-9
10415,2032,320,-408,57,10,-9
10420,2040,320,-456,56,9,-8
10425,2024,312,-408,56,9,-8
10430,2032,312,-384,55,10,-7
10435,2048,320,-408,54,10,-7
10440,2032,328,-384,53,10,-6
10445,2016,304,-424,52,9,-6
10450,2040,296,-400,52,9,-7
10455,2016,288,-416,55,8,-8
10460,2032,328,-408,58,10,-9
10465,2032,312,-416,60,11,-8
10470,2024,320,-432,63,12,-11
10475,2024,328,-424,65,14,-11
10480,2032,328,-456,67,17,-14
10485,2056,328,-424,67,17,-15
10490,2048,328,-440,65,18,-16
10495,2032,304,-416,65,18,-16
10500,2008,344,-392,66,18,-15
10505,2008,328,-416,63,16,-15
10510,2016,288,-392,61,15,-14
10515,2032,304,-392,59,13,-15
10520,2032,312,-400,56,12,-16
10525,2024,304,-416,53,11,-16
10530,2040,328,-400,51,12,-14
10535,2024,328,-416,50,10,-13
10540,2040,320,-424,51,12,-13
10545,2040,328,-392,50,12,-11
10550,2064,328,-552,51,12,-11
10555,1976,296,-368,50,10,-11
10560,2032,304,-384,51,11,-10
10565,2040,344,-448,51,10,-13
10570,2040,320,-400,51,9,-11
10575,2040,312,-424,51,7,-11
10580,2040,296,-416,50,7,-12
10585,2040,304,-384,50,7,-11
10590,2040,320,-416,51,7,-11
10595,2048,320,-432,51,8,-11
10600,2032,304,-416,52,10,-13
10605,2048,336,-408,55,9,-14
10610,2016,320,-424,55,9,-15
10615,2032,328,-432,57,10,-14
10620,2048,320,-400,56,10,-14
10625,2032,344,-408,55,9,-14
10630,2040,312,-416,55,9,-14
10635,2024,328,-368,56,9,-13
10640,2048,328,-392,54,8,-13
10645,2032,320,-400,54,10,-13
10650,2024,336,-408,54,11,-11
10655,2016,304,-408,53,11,-10
10660,2040,336,-408,53,12,-11
10665,2008,320,-368,52,11,-11
10670,2000,328,-392,51,11,-10
10675,2032,312,-400,51,11,-11
10680,2032,320,-416,50,9,-12
10685,2024,328,-376,50,10,-10
10690,2032,328,-424,50,9,-11
10695,2032,312,-400,50,7,-10
10700,2024,328,-392,50,8,-8
10705,2032,336,-432,50,8,-9
10710,2040,320,-416,50,8,-8
10715,2016,328,-424,50,11,-8
10720,2024,344,-432,50,12,-8
10725,2040,328,-400,49,14,-8
10730,2088,336,-392,49,16,-8
10735,2040,344,-416,49,17,-10
10740,2016,320,-416,50,17,-9
10745,2048,312,-416,49,16,-10
10750,2008,328,-424,50,16,-9
10755,2032,344,-392,49,15,-10
10760,2032,304,-400,49,13,-10
10765,2048,336,-384,48,14,-8
10770,2024,312,-424,49,13,-8
10775,2048,328,-400,49,13,-8
10780,2032,336,-408,49,13,-9
10785,2048,320,-400,49,13,-10
10790,2024,320,-432,50,13,-11
10795,2016,320,-408,51,12,-9
10800,2032,328,-424,50,12,-10
10805,2032,320,-416,49,13,-9
10810,2040,304,-392,50,12,-9
10815,2040,312,-416,51,12,-10
10820,2056,296,-424,52,11,-8
10825,2016,296,-392,52,11,-8
10830,2016,320,-400,53,9,-8
10835,2016,328,-392,54,6,-8
10840,2024,304,-392,56,5,-7
10845,2032,296,-416,58,2,-5
10850,2040,288,-424,62,1,-5
10855,2032,320,-424,65,2,-5
10860,2056,312,-424,67,1,-5
10865,2048,344,-432,69,4,-4
10870,2048,312,-416,71,5,-7
10875,2048,352,-432,71,8,-7
10880,2032,360,-448,70,11,-6
10885,2040,304,-392,69,14,-4
10890,1984,320,-400,68,16,-4
10895,2048,296,-392,69,16,-3
10900,2040,360,-408,65,18,-4
10905,2024,376,-440,61,18,-6
10910,2048,344,-392,55,16,-6
10915,2016,328,-416,51,16,-7
10920,2024,320,-408,49,12,-6
10925,2032,312,-448,48,9,-8
10930,2024,312,-384,48,6,-8
10935,2032,312,-408,49,4,-8
10940,2024,312,-424,48,2,-10
10945,2040,272,-504,49,3,-9
10950,2032,304,-408,51,4,-9
10955,2008,320,-408,54,5,-8
10960,2008,296,-416,55,5,-6
10965,2016,288,-408,55,7,-4
10970,2008,304,-368,57,7,-2
10975,2024,256,-400,60,5,0
10980,2040,280,-408,61,6,1
10985,2024,288,-376,64,5,2
10990,2024,288,-448,68,3,4
10995,2064,288,-432,75,0,4
11000,2040,296,-408,81,-2,4
11005,2056,280,-448,89,-4,6
11010,2040,336,-440,98,-6,6
11015,2032,320,-424,103,-6,6
11020,2040,320,-464,106,-5,5
11025,2048,328,-456,107,-4,3
11030,2032,368,-432,105,-1,2
11035,2024,384,-432,99,3,-2
11040,2032,368,-424,89,7,-5
11045,2032,336,-400,80,10,-8
11050,2024,336,-400,70,12,-11
11055,2016,312,-392,65,13,-12
11060,2032,296,-392,61,11,-11
11065,1992,312,-400,61,9,-13
11070,2024,296,-432,62,8,-13
11075,2032,304,-416,64,9,-13
11080,2032,328,-440,67,10,-15
11085,2016,328,-432,67,11,-15
11090,2040,328,-448,66,14,-16
11095,2024,312,-464,66,15,-15
11100,2016,312,-432,62,16,-16
11105,2024,304,-416,59,18,-17
11110,2024,336,-424,60,22,-16
11115,2024,320,-424,56,24,-14
11120,2040,312,-368,52,25,-16
11125,2024,320,-408,51,25,-15
11130,2032,312,-424,50,24,-16
11135,2040,344,-408,49,22,-15
11140,2048,336,-424,48,20,-15
11145,2040,336,-408,47,18,-15
11150,2032,336,-384,47,16,-16
11155,2032,320,-400,45,13,-17
11160,2040,288,-368,45,11,-15
11165,2048,304,-416,46,5,-15
11170,2040,280,-400,47,0,-15
11175,2040,288,-400,51,-6,-14
11180,2048,304,-440,55,-10,-12
11185,2040,304,-400,58,-12,-11
11190,2040,296,-456,62,-11,-12
11195,2032,320,-440,64,-8,-12
11200,2024,336,-416,67,-4,-14
11205,2040,312,-448,68,0,-15
11210,2048,328,-424,68,3,-14
11215,2008,384,-408,66,6,-16
11220,2048,320,-416,62,10,-15
11225,2008,320,-408,59,12,-15
11230,2032,344,-408,55,12,-16
11235,2040,328,-416,53,13,-14
11240,2048,336,-448,49,14,-13
11245,2016,336,-400,47,14,-12
11250,2032,320,-416,45,15,-13
11255,2016,320,-400,44,14,-13
11260,2008,336,-424,45,13,-13
11265,2032,336,-416,45,16,-13
11270,2040,328,-448,46,17,-11
11275,2024,328,-392,48,19,-10
11280,2032,280,-464,48,18,-10
11285,2024,328,-432,49,20,-9
11290,2040,328,-440,48,23,-7
11295,2016,344,-424,49,26,-9
11300,2032,312,-424,48,28,-9
11305,2032,328,-424,46,28,-9
11310,2024,304,-432,43,27,-9
11315,2032,328,-376,42,24,-10
11320,2024,296,-416,40,23,-8
11325,2016,288,-400,40,20,-8
11330,2024,264,-368,40,17,-7
11335,2016,272,-368,40,15,-7
11340,2016,288,-392,41,10,-6
11345,2032,248,-376,45,5,-4
11350,2056,272,-408,52,-1,-4
11355,2040,280,-432,61,-7,-3
11360,2032,280,-424,70,-11,-4
11365,2056,288,-416,80,-14,-5
11370,2056,296,-448,88,-15,-6
11375,2056,296,-464,98,-18,-7
11380,2056,304,-440,107,-19,-7
11385,2032,336,-440,108,-18,-8
11390,2048,352,-416,109,-16,-11
11395,2048,352,-456,106,-11,-12
11400,2040,352,-424,100,-8,-13
11405,2016,352,-384,92,-3,-13
11410,2016,360,-400,85,1,-14
11415,2016,336,-424,78,4,-15
11420,2016,360,-416,70,7,-14
11425,2000,344,-440,67,9,-14
11430,2000,360,-440,62,12,-14
11435,2008,320,-440,60,15,-13
11440,2048,336,-424,57,14,-13
11445,2024,336,-472,55,13,-12
11450,2032,336,-400,54,15,-12
11455,2008,328,-432,51,17,-9
11460,2032,312,-424,50,19,-8
11465,2032,320,-432,48,22,-6
11470,2040,328,-392,47,26,-7
11475,2008,312,-384,45,25,-6
11480,2008,320,-424,42,27,-6
11485,2008,288,-384,40,26,-5
11490,2096,312,-336,37,25,-7
11495,2024,328,-408,34,25,-6
11500,2024,304,-424,32,22,-6
11505,2032,304,-424,32,20,-5
11510,2040,312,-456,32,17,-6
11515,2040,256,-432,32,14,-5
11520,2008,280,-432,36,11,-4
11525,2032,256,-448,42,6,-4
11530,2040,248,-432,50,4,-3
11535,2048,264,-424,57,0,-2
11540,2048,264,-416,66,-3,-1
11545,2040,288,-408,75,-6,1
11550,2048,272,-472,83,-6,1
11555,2064,288,-432,89,-5,-2
11560,2040,320,-440,93,-2,-2
11565,2040,320,-448,95,1,-7
11570,2056,336,-432,96,4,-8
11575,2032,328,-448,96,7,-10
11580,2040,360,-448,95,11,-11
11585,2008,336,-432,88,12,-12
11590,2024,376,-416,81,16,-15
11595,2000,368,-424,71,19,-13
11600,2032,320,-432,65,20,-14
11605,1992,336,-416,60,21,-13
11610,2016,336,-400,55,21,-12
11615,2032,328,-416,51,21,-10
11620,2032,352,-408,49,22,-10
11625,1992,344,-408,48,21,-8
11630,2024,344,-400,48,21,-9
11635,2016,344,-400,46,20,-10
11640,2024,320,-392,42,20,-10
11645,2016,320,-424,38,18,-11
11650,2008,296,-368,36,18,-12
11655,2032,296,-584,34,16,-12
11660,2016,296,-408,32,16,-11
11665,2016,296,-408,31,16,-11
11670,2024,312,-432,33,16,-12
11675,2008,288,-408,32,16,-13
11680,2016,312,-392,32,16,-15
11685,2032,304,-424,34,15,-15
11690,2016,304,-416,33,14,-18
11695,2032,320,-408,34,13,-20
11700,2032,272,-424,33,10,-22
11705,2040,240,-424,33,6,-27
11710,2040,248,-384,36,1,-29
11715,2048,248,-400,43,-8,-29
11720,2056,280,-432,57,-19,-27
11725,2048,272,-440,69,-27,-26
11730,2048,280,-448,79,-36,-27
11735,2032,280,-448,89,-42,-29
11740,2072,288,-448,98,-44,-31
11745,2040,304,-472,104,-45,-31
11750,2032,320,-432,107,-43,-32
11755,2024,328,-440,108,-40,-31
11760,2032,352,-456,105,-33,-30
11765,2032,336,-416,100,-25,-30
11770,2032,352,-408,91,-15,-30
11775,2008,360,-432,80,-6,-29
11780,2032,368,-424,70,0,-28
11785,2024,376,-408,62,3,-23
11790,2032,368,-424,57,7,-23
11795,2008,368,-424,51,6,-22
11800,2000,336,-400,47,7,-19
11805,2016,352,-432,46,4,-17
11810,2024,320,-472,45,2,-16
11815,2000,336,-432,44,1,-16
11820,2048,344,-376,42,2,-16
11825,2008,360,-464,41,5,-16
11830,1992,344,-424,39,8,-15
11835,2008,320,-408,37,13,-15
11840,2008,328,-416,34,15,-14
11845,2000,304,-384,30,18,-16
11850,2008,328,-408,26,21,-14
11855,2000,336,-424,22,21,-13
11860,2040,304,-400,19,22,-14
11865,2016,352,-408,18,21,-12
11870,2008,320,-416,19,19,-14
11875,2024,344,-456,21,18,-14
11880,2032,320,-408,20,15,-12
11885,2032,320,-448,20,14,-10
11890,2040,264,-432,22,12,-10
11895,2040,256,-416,26,9,-8
11900,2048,256,-448,34,4,-7
11905,2024,248,-408,46,-1,-6
11910,2048,280,-440,58,-4,-5
11915,2040,296,-432,69,-8,-7
11920,2040,296,-424,76,-10,-8
11925,2024,312,-400,82,-11,-10
11930,2032,312,-440,85,-11,-14
11935,2040,328,-440,88,-11,-16
11940,2056,312,-424,88,-8,-16
11945,2032,344,-424,85,-5,-17
11950,2008,336,-440,83,-2,-18
11955,2032,352,-464,79,2,-17
11960,2048,376,-448,73,6,-18
11965,2032,344,-448,66,9,-18
11970,2040,344,-432,60,10,-18
11975,2024,344,-408,54,11,-16
11980,2016,328,-448,51,14,-17
11985,2048,344,-464,49,17,-15
11990,2008,344,-448,50,19,-14
11995,2024,328,-440,49,20,-15
12000,2048,336,-424,49,21,-14
12005,2032,320,-464,49,21,-14
12010,2040,352,-432,46,22,-12
12015,2016,336,-440,42,21,-14
12020,2024,328,-408,40,20,-13
12025,2016,336,-440,37,18,-13
12030,2000,312,-424,36,16,-12
12035,1992,272,-400,36,13,-11
12040,2016,296,-408,37,9,-9
12045,2016,264,-416,41,4,-8
12050,2016,248,-472,48,1,-6
12055,2024,272,-424,61,-4,-8
12060,2040,264,-440,75,-8,-9
12065,2048,232,-472,91,-10,-9
12070,2048,232,-456,114,-13,-7
12075,2040,248,-472,138,-16,-7
12080,2056,304,-472,164,-16,-9
12085,2040,288,-456,177,-14,-10
12090,2024,336,-456,186,-13,-13
12095,2040,368,-448,184,-13,-13
12100,2048,376,-440,175,-11,-13
12105,2000,400,-416,163,-4,-13
12110,2016,416,-464,148,2,-12
12115,2008,408,-440,133,7,-10
12120,2016,424,-432,118,10,-8
12125,2024,400,-440,102,15,-9
12130,2008,352,-440,90,17,-6
12135,2016,360,-456,77,20,-4
12140,2024,328,-408,67,21,-5
12145,2008,344,-448,59,24,-2
12150,2032,336,-432,53,27,-3
12155,2040,344,-416,50,28,-3
12160,2032,328,-424,48,31,-2
12165,2008,360,-448,45,30,-2
12170,2016,344,-416,41,31,-1
12175,1984,336,-440,36,30,-1
12180,2032,336,-424,31,30,-1
12185,2008,344,-432,25,30,-1
12190,1976,312,-416,17,30,-2
12195,2000,296,-408,11,29,-2
12200,1976,320,-432,8,27,0
12205,2000,280,-408,8,24,1
12210,2024,232,-416,8,20,2
12215,2024,224,-408,14,13,3
12220,2016,224,-424,26,7,3
12225,2032,240,-408,44,0,5
12230,2040,240,-424,62,-6,4
12235,2056,272,-472,81,-13,5
12240,2080,240,-504,102,-18,4
12245,2040,304,-488,119,-21,7
12250,2056,280,-472,132,-24,7
12255,2048,288,-488,143,-22,8
12260,2048,312,-488,148,-24,10
12265,2040,368,-472,148,-22,10
12270,2048,392,-464,142,-20,10
12275,2080,368,-448,129,-14,8
12280,2048,392,-440,117,-7,7
12285,2032,392,-424,106,-3,8
12290,2024,384,-456,93,0,8
12295,2040,376,-432,80,3,8
12300,2048,360,-432,69,5,8
12305,2008,352,-408,59,8,6
12310,2024,360,-432,50,11,5
12315,2024,360,-424,45,14,3
12320,2008,360,-400,40,15,3
12325,2024,352,-408,34,15,2
12330,2000,344,-416,27,14,3
12335,1992,328,-432,19,14,1
12340,2008,320,-408,13,14,0
12345,2000,304,-416,7,15,-3
12350,2008,312,-392,3,16,-6
12355,1976,288,-408,-1,15,-8
12360,2000,248,-424,1,14,-9
12365,1968,208,-400,5,10,-11
12370,1992,240,-408,15,5,-12
12375,2024,232,-488,32,-1,-12
12380,2048,208,-432,51,-3,-11
12385,2048,248,-480,71,-7,-11
12390,2048,248,-480,90,-11,-11
12395,2032,264,-480,107,-12,-11
12400,2024,312,-464,118,-11,-14
12405,2048,320,-464,127,-6,-14
12410,2048,304,-448,134,-3,-13
12415,2032,312,-448,136,0,-13
12420,2040,360,-448,129,2,-13
12425,2040,384,-472,123,4,-13
12430,2040,384,-440,112,5,-12
12435,2040,376,-448,99,7,-9
12440,2024,400,-440,89,8,-7
12445,2040,344,-472,78,10,-7
12450,2048,360,-448,68,13,-7
12455,2032,336,-456,60,13,-6
12460,2016,328,-448,53,14,-7
12465,2032,328,-424,48,16,-5
12470,2008,352,-440,42,16,-5
12475,1992,328,-440,37,20,-7
12480,2032,320,-416,33,20,-7
12485,2008,336,-416,28,19,-7
12490,2032,304,-408,24,18,-10
12495,2000,336,-424,19,16,-11
12500,2000,304,-416,18,16,-12
12505,2008,288,-424,16,14,-13
12510,2008,288,-424,15,12,-15
12515,2016,280,-440,14,9,-14
12520,1992,280,-464,18,7,-15
12525,2000,256,-440,24,5,-17
12530,2016,264,-432,32,3,-18
12535,2032,272,-440,43,-2,-19
12540,2040,232,-440,59,-7,-22
12545,2056,200,-432,79,-10,-19
12550,2040,200,-504,106,-9,-19
12555,2048,216,-488,133,-10,-21
12560,2064,208,-512,163,-14,-24
12565,2040,256,-536,192,-17,-28
12570,2008,264,-480,217,-19,-34
12575,2048,328,-488,239,-26,-40
12580,2040,344,-488,248,-22,-42
12585,2080,360,-424,243,-15,-41
12590,2048,408,-416,220,-8,-35
12595,2032,360,-400,191,-2,-32
12600,2040,352,-408,163,-2,-22
12605,2000,344,-424,142,-3,-17
12610,2000,336,-424,125,-2,-16
12615,2048,328,-440,111,5,-15
12620,2024,312,-472,102,10,-17
12625,2024,336,-496,92,12,-18
12630,2024,328,-424,80,18,-17
12635,1992,352,-408,69,25,-18
12640,2016,328,-448,59,29,-19
12645,2024,312,-440,51,31,-21
12650,2008,344,-400,44,32,-20
12655,2016,344,-440,37,33,-20
12660,1976,360,-416,29,34,-19
12665,2016,352,-424,21,33,-19
12670,2024,320,-440,14,32,-18
12675,2024,328,-448,7,31,-19
12680,1984,336,-424,1,29,-17
12685,2024,312,-440,-5,28,-16
12690,2000,304,-408,-9,27,-16
12695,2032,296,-456,-16,27,-15
12700,2000,312,-368,-21,25,-13
12705,2024,288,-408,-20,23,-12
12710,2016,304,-464,-17,23,-12
12715,2024,280,-424,-10,22,-12
12720,2016,280,-456,1,21,-12
12725,2056,264,-464,13,20,-12
12730,2048,272,-480,28,18,-10
12735,2040,232,-472,43,15,-6
12740,2048,232,-472,60,10,-5
12745,2048,240,-488,80,6,-5
12750,2056,264,-456,99,1,-4
12755,2048,256,-480,118,-1,-6
12760,2048,256,-448,137,-3,-9
12765,2048,280,-440,151,-5,-13
12770,2032,280,-464,160,-4,-13
12775,2056,280,-440,164,-4,-18
12780,2040,296,-456,166,-4,-18
12785,2016,296,-496,164,-4,-19
12790,2040,328,-456,161,-4,-20
12795,2040,344,-440,152,-3,-20
12800,2032,352,-440,141,1,-19
12805,2016,392,-440,124,4,-17
12810,2032,384,-408,104,5,-16
12815,1984,400,-440,82,8,-15
12820,2024,352,-424,65,8,-14
12825,2000,368,-448,50,10,-11
12830,2008,336,-408,38,9,-11
12835,2008,336,-424,30,12,-11
12840,2008,328,-456,23,12,-10
12845,2008,304,-440,20,12,-11
12850,2024,328,-448,18,13,-10
12855,1984,336,-432,15,14,-11
12860,2008,320,-440,15,13,-12
12865,1992,336,-424,15,12,-10
12870,1992,328,-440,14,13,-10
12875,2000,312,-480,14,15,-10
12880,2008,272,-448,17,17,-9
12885,2016,312,-456,20,18,-8
12890,1984,288,-432,24,19,-8
12895,2016,288,-440,27,22,-10
12900,1992,328,-456,28,25,-11
12905,2000,312,-456,28,28,-11
12910,1984,320,-424,26,31,-10
12915,2024,312,-432,24,33,-12
12920,2016,304,-448,21,32,-9
12925,2024,328,-448,20,31,-9
12930,2040,304,-472,22,27,-10
12935,2024,304,-464,22,24,-9
12940,2048,320,-432,25,19,-10
12945,2064,288,-464,28,17,-10
12950,2064,288,-456,33,14,-9
12955,2048,288,-472,36,14,-9
12960,2048,280,-448,40,12,-10
12965,2040,312,-464,42,13,-9
12970,2056,304,-488,45,15,-8
12975,2048,288,-472,46,18,-9
12980,2032,288,-448,48,22,-9
12985,2048,248,-432,50,24,-8
12990,2000,256,-432,55,23,-10
12995,2024,256,-432,62,21,-11
13000,2024,280,-432,69,19,-10
13005,2024,288,-448,76,17,-12
13010,2040,288,-416,81,16,-13
13015,2032,304,-440,84,15,-12
13020,2040,336,-456,86,16,-14
13025,2016,352,-424,85,16,-12
13030,2024,360,-416,82,17,-13
13035,2016,368,-448,76,19,-12
13040,2032,360,-408,70,21,-11
13045,2032,344,-416,63,24,-10
13050,2008,352,-392,54,24,-8
13055,2008,336,-432,47,25,-5
13060,2000,304,-432,43,26,-6
13065,2016,312,-432,36,25,-3
13070,2008,312,-432,33,24,-4
13075,2000,344,-408,30,21,-2
13080,2024,320,-424,28,20,-4
13085,2032,304,-456,25,19,-2
13090,2016,296,-432,25,18,-2
13095,2016,336,-472,24,17,-3
13100,2024,296,-424,25,17,-3
13105,2016,312,-440,23,17,-3
13110,2032,304,-448,18,18,-5
13115,2024,304,-464,15,19,-6
13120,2016,304,-432,12,20,-3
13125,2032,320,-440,11,21,-5
13130,2024,336,-432,7,22,-6
13135,2032,328,-448,5,23,-6
13140,2032,328,-464,3,25,-7
13145,2048,320,-448,1,28,-10
13150,2048,328,-472,0,32,-12
13155,2048,344,-456,-1,35,-13
13160,2040,336,-448,-3,38,-14
13165,2024,360,-416,-7,40,-16
13170,2024,368,-448,-10,43,-15
13175,2032,360,-424,-17,45,-17
13180,2016,336,-416,-24,47,-18
13185,1856,344,-440,-21,60,8
13190,2280,328,-360,-24,135,50
13195,2096,288,-344,-33,102,-6
13200,2024,272,-360,-41,57,-16
13205,2008,288,-400,-53,38,-19
13210,2024,272,-360,-54,30,-20
13215,2016,280,-384,-48,28,-24
13220,2024,272,-392,-45,24,-26
13225,2000,264,-432,-42,22,-27
13230,2024,272,-408,-36,19,-28
13235,2000,264,-400,-30,19,-28
13240,2016,288,-424,-25,16,-31
13245,2016,272,-400,-18,15,-31
13250,2040,296,-416,-15,14,-30
13255,2016,304,-440,-13,13,-30
13260,2032,288,-480,-7,11,-31
13265,2000,304,-416,-4,12,-30
13270,2016,312,-456,-1,13,-29
13275,2032,312,-464,3,14,-28
13280,2024,296,-408,6,16,-28
13285,2024,328,-448,8,16,-27
13290,2040,320,-440,11,15,-25
13295,2032,304,-472,11,15,-22
13300,2048,312,-456,12,14,-19
13305,2064,320,-448,13,10,-18
13310,2040,344,-448,12,7,-13
13315,2072,320,-464,12,6,-12
13320,2056,304,-456,12,6,-9
13325,2056,328,-464,11,5,-6
13330,2048,336,-432,11,6,-3
13335,2048,328,-440,9,6,-1
13340,2056,304,-464,8,8,2
13345,2048,328,-464,6,8,6
13350,2048,336,-424,4,10,10
13355,2024,336,-424,4,11,12
13360,2032,312,-416,4,12,12
13365,2048,320,-456,4,14,15
13370,2056,304,-440,6,16,14
13375,2032,320,-424,7,18,14
13380,2032,320,-424,11,20,14
13385,2024,304,-456,14,23,16
13390,2040,328,-416,17,26,16
13395,2008,320,-432,21,27,17
13400,2016,336,-400,23,29,18
13405,2008,344,-408,25,32,19
13410,2024,328,-400,27,33,22
13415,2016,336,-408,30,32,23
13420,2024,320,-400,31,31,24
13425,2024,320,-424,31,29,26
13430,2048,336,-424,31,29,26
13435,2032,352,-416,29,27,28
13440,2024,344,-432,29,24,30
13445,2016,352,-392,29,22,31
13450,2032,344,-416,29,22,31
13455,2040,344,-424,27,21,33
13460,2040,296,-448,27,20,33
13465,2048,312,-432,26,19,32
13470,2008,328,-432,24,19,34
13475,2032,304,-408,22,19,34
13480,2048,304,-408,19,18,35
13485,2016,320,-448,21,17,34
13490,2040,312,-424,20,16,35
13495,2016,304,-432,21,15,35
13500,2048,320,-424,23,13,34
13505,2040,264,-432,23,14,32
13510,2024,320,-416,25,17,29
13515,2032,312,-400,25,17,28
13520,2016,336,-408,25,15,27
13525,2024,328,-440,22,13,27
13530,2040,336,-424,20,12,27
13535,2040,272,-392,18,11,26
13540,2032,288,-440,16,9,26
13545,2016,288,-424,14,8,26
13550,2008,288,-416,12,8,28
13555,2032,272,-432,11,9,26
13560,2024,288,-408,9,7,23
13565,2048,288,-416,7,10,25
13570,2040,296,-432,6,11,22
13575,2024,296,-408,4,11,21
13580,2000,304,-408,2,10,19
13585,2032,288,-392,-3,9,19
13590,2008,296,-416,-4,9,19
13595,2024,256,-400,-2,9,18
13600,2032,280,-432,1,8,18
13605,2008,304,-392,1,7,17
13610,2048,304,-408,1,7,17
13615,2032,360,-288,0,8,14
13620,2040,296,-456,0,8,10
13625,2016,320,-432,1,8,9
13630,2040,320,-456,0,9,4
13635,2016,304,-424,1,10,2
13640,2056,304,-440,-3,10,2
13645,2048,280,-448,-3,12,1
13650,2032,280,-432,1,14,1
13655,2024,296,-432,1,15,-2
13660,2040,296,-408,5,13,-6
13665,2032,296,-440,8,13,-5
13670,2048,296,-400,11,13,-6
13675,2040,272,-424,13,12,-7
13680,2032,312,-448,14,13,-7
13685,2040,272,-416,14,13,-8
13690,2032,328,-424,16,14,-8
13695,2032,312,-424,18,13,-9
13700,2040,288,-432,19,14,-10
13705,2040,296,-416,18,13,-9
13710,2016,336,-432,17,10,-7
13715,2032,304,-408,17,7,-5
13720,2016,336,-456,18,5,-5
13725,2032,312,-392,17,4,-4
13730,2016,296,-432,18,3,-5
13735,2016,312,-448,21,3,-5
13740,2040,312,-432,21,2,-6
13745,2048,288,-472,25,0,-6
13750,2048,280,-432,26,-2,-5
13755,2040,296,-432,28,-5,-5
13760,2016,304,-432,30,-6,-5
13765,2048,280,-408,31,-6,-4
13770,2024,304,-464,31,-7,-4
13775,2040,296,-440,31,-7,-6
13780,2016,384,-376,32,-6,-7
13785,2024,320,-464,33,-7,-6
13790,2032,304,-448,33,-5,-6
13795,2032,312,-432,33,-5,-7
13800,2048,312,-424,34,-4,-6
13805,2056,304,-456,36,-1,-6
13810,2032,304,-432,37,1,-6
13815,2040,296,-440,39,2,-6
13820,2008,312,-448,40,3,-6
13825,2024,296,-424,41,4,-6
13830,2024,296,-456,41,5,-7
13835,2048,304,-392,40,5,-7
13840,2024,320,-440,41,7,-7
13845,2040,272,-416,40,7,-7
13850,2008,288,-376,38,9,-5
13855,2040,288,-400,38,9,-5
13860,2032,288,-408,37,9,-4
13865,2008,312,-424,37,8,-5
13870,2024,288,-440,36,8,-6
13875,2024,296,-424,36,8,-6
13880,2016,288,-456,34,7,-6
13885,2064,272,-432,34,7,-7
13890,2040,312,-424,36,7,-9
13895,2016,296,-448,38,8,-8
13900,2040,320,-424,40,7,-10
13905,2040,280,-384,42,7,-12
13910,2032,328,-432,44,7,-14
13915,2040,304,-416,46,9,-15
13920,2032,312,-448,49,10,-14
13925,2048,288,-456,50,10,-13
13930,2040,264,-416,51,11,-12
13935,2024,296,-424,53,11,-12
13940,2032,304,-424,52,11,-14
13945,2008,368,-424,51,12,-13
13950,2040,296,-456,50,12,-14
13955,2024,336,-408,50,10,-13
13960,2024,328,-440,48,8,-13
13965,2040,320,-424,48,8,-13
13970,2024,304,-416,47,6,-11
13975,2016,312,-408,46,6,-12
13980,2032,304,-416,45,5,-13
13985,2016,296,-416,45,5,-11
13990,2032,304,-448,46,3,-11
13995,2056,344,-424,46,3,-13
14000,2032,328,-432,48,3,-15
14005,2072,280,-424,49,3,-13
14010,2032,304,-448,50,3,-14
14015,2032,312,-472,51,4,-15
14020,2040,296,-448,53,4,-15
14025,2024,320,-432,53,4,-14
14030,2048,296,-416,54,4,-16
14035,2024,320,-416,54,4,-15
14040,2032,288,-400,54,4,-13
14045,2008,296,-440,56,5,-14
14050,2016,320,-448,56,5,-16
14055,2048,304,-440,55,5,-13
14060,2016,328,-456,55,5,-14
14065,2008,296,-416,54,6,-13
14070,2016,304,-448,53,5,-12
14075,2016,304,-424,53,6,-13
14080,2032,280,-448,53,6,-13
14085,2016,328,-416,52,8,-13
14090,2024,304,-448,54,10,-13
14095,2000,328,-424,54,11,-13
14100,2040,320,-432,54,11,-12
14105,2032,320,-440,53,12,-13
14110,2032,312,-440,54,14,-11
14115,2040,304,-448,53,13,-13
14120,2024,296,-440,51,13,-13
14125,2040,304,-416,49,13,-14
14130,2008,296,-408,48,13,-14
14135,2040,304,-432,44,12,-14
14140,2024,304,-432,43,12,-14
14145,2008,304,-432,40,9,-10
14150,2048,304,-432,38,9,-13
14155,2024,320,-392,35,7,-13
14160,1976,360,-368,35,4,-12
14165,2032,312,-416,36,2,-12
14170,2056,272,-416,38,-1,-10
14175,2048,312,-432,37,-3,-9
14180,2048,312,-456,39,-5,-9
14185,2048,296,-448,41,-5,-10
14190,2032,312,-472,46,-2,-9
14195,2040,320,-456,50,-1,-12
14200,2048,312,-456,52,0,-14
14205,2040,336,-432,51,4,-15
14210,2000,328,-440,52,5,-14
14215,2008,312,-448,50,8,-12
14220,2040,328,-448,48,10,-12
14225,2032,304,-432,47,11,-10
14230,2032,304,-448,45,12,-10
14235,2024,304,-416,44,11,-8
14240,2024,288,-416,45,9,-4
14245,2032,288,-440,44,7,-4
14250,2008,296,-400,44,6,-4
14255,2000,296,-440,45,4,-5
14260,2000,288,-408,45,4,-5
14265,2016,296,-432,46,1,-8
14270,1992,280,-408,45,1,-6
14275,2024,280,-448,47,2,-8
14280,2032,288,-432,49,3,-9
14285,2008,312,-464,51,3,-9
14290,2024,296,-440,55,3,-10
14295,2040,304,-448,57,6,-9
14300,2048,296,-448,58,8,-10
14305,2040,344,-456,58,11,-11
14310,2040,320,-440,56,12,-12
14315,2024,312,-472,55,12,-12
14320,2040,312,-464,52,14,-14
14325,2112,328,-432,50,13,-14
14330,2032,288,-424,48,13,-13
14335,2008,312,-416,47,13,-14
14340,2016,296,-432,47,12,-14
14345,2008,328,-440,47,12,-15
14350,2024,312,-424,47,12,-16
14355,1992,320,-440,47,13,-15
14360,2024,296,-456,48,12,-17
14365,2040,312,-440,49,12,-19
14370,2024,320,-432,50,13,-17
14375,2008,312,-416,53,12,-16
14380,2040,312,-448,52,12,-16
14385,2024,304,-448,53,11,-18
14390,2024,304,-480,54,12,-16
14395,2024,304,-424,54,12,-16
14400,2040,280,-432,55,14,-16
14405,2024,312,-440,55,13,-14
14410,2008,304,-440,55,12,-14
14415,2024,320,-432,55,12,-13
14420,2016,304,-416,54,11,-13
14425,2040,312,-432,54,11,-13
14430,2032,304,-448,55,11,-10
14435,2008,312,-392,53,9,-9
14440,2040,336,-424,53,8,-8
14445,2032,320,-424,54,8,-8
14450,2048,304,-448,55,8,-7
14455,2040,304,-448,54,6,-8
14460,2040,296,-448,54,4,-7
14465,2056,288,-432,55,5,-7
14470,2040,280,-448,56,5,-9
14475,2048,320,-432,54,7,-10
14480,2040,328,-424,55,8,-10
14485,2024,312,-440,55,11,-10
14490,2040,320,-464,55,12,-11
14495,2032,296,-408,55,14,-10
14500,2024,296,-424,53,14,-11
14505,2040,280,-432,52,13,-9
14510,2024,304,-432,52,13,-11
14515,2008,336,-448,53,13,-12
14520,2040,288,-416,53,14,-12
14525,2032,312,-464,53,14,-12
14530,1992,328,-448,53,15,-14
14535,2024,288,-448,53,15,-14
14540,2048,280,-440,53,16,-15
14545,2016,320,-448,53,16,-13
14550,2024,296,-416,52,17,-14
14555,2016,296,-432,53,17,-12
14560,2032,288,-424,52,17,-13
14565,2040,312,-416,53,19,-16
14570,2024,296,-440,52,20,-16
14575,2024,296,-456,50,21,-16
14580,2016,312,-416,50,20,-17
14585,2000,288,-472,49,21,-16
14590,2040,304,-456,49,20,-16
14595,2016,304,-432,49,21,-17
14600,2024,312,-432,48,20,-16
14605,2048,320,-440,48,20,-17
14610,2016,296,-432,49,19,-16
14615,2024,312,-424,47,18,-16
14620,2016,328,-408,47,17,-16
14625,2024,312,-416,46,17,-15
14630,2048,304,-400,45,17,-16
14635,2024,320,-440,45,16,-15
14640,2048,336,-448,46,15,-17
14645,2024,304,-440,47,14,-16
14650,2024,304,-432,49,14,-15
14655,2040,312,-440,49,14,-15
14660,2048,328,-440,50,13,-16
14665,2032,320,-432,50,11,-16
14670,2016,352,-408,51,11,-14
14675,2024,336,-448,51,11,-14
14680,2032,296,-416,52,11,-14
14685,2048,296,-440,55,11,-13
14690,1984,312,-432,54,10,-11
14695,2016,328,-424,54,8,-10
14700,2016,328,-472,55,9,-10
14705,2024,312,-456,54,8,-8
14710,2040,312,-448,55,8,-9
14715,2040,320,-448,56,8,-8
14720,2024,312,-456,57,8,-7
14725,2016,320,-432,56,9,-9
14730,2024,288,-424,55,9,-7
14735,2016,304,-416,56,9,-7
14740,2032,304,-448,55,9,-6
14745,2024,320,-448,55,9,-6
14750,2024,312,-456,54,8,-6
14755,2040,312,-424,54,8,-6
14760,2024,320,-416,55,9,-4
14765,2024,320,-424,55,10,-4
14770,2032,336,-456,56,11,-7
14775,2024,304,-400,55,10,-6
14780,2024,280,-448,55,11,-7
14785,2032,304,-432,55,12,-7
14790,2016,312,-464,55,11,-7
14795,2032,312,-440,56,13,-7
14800,2016,296,-448,55,13,-8
14805,2048,312,-472,55,14,-8
14810,2032,296,-456,57,16,-9
14815,2016,304,-432,56,16,-9
14820,2024,288,-456,57,16,-9
14825,2016,304,-440,59,17,-11
14830,2016,312,-432,60,15,-11
14835,2016,296,-472,62,15,-9
14840,2016,296,-456,64,15,-11
14845,2016,304,-424,67,16,-13
14850,2032,296,-464,68,16,-14
14855,2024,304,-464,69,17,-14
14860,2040,296,-440,69,19,-13
14865,2032,296,-440,68,18,-15
14870,2024,312,-456,69,19,-16
14875,2008,312,-424,68,21,-18
14880,2016,304,-384,68,21,-19
14885,2032,320,-408,67,19,-18
14890,2032,312,-432,66,18,-19
14895,2000,320,-440,66,17,-20
14900,2048,256,-472,66,17,-22
14905,2016,304,-424,68,18,-22
14910,2032,280,-440,71,17,-24
14915,2040,304,-432,71,18,-24
14920,2008,344,-424,71,20,-24
14925,2016,344,-440,68,20,-25
14930,2032,336,-424,67,21,-24
14935,2016,312,-432,64,22,-23
14940,2032,304,-424,60,23,-21
14945,2040,304,-432,60,22,-19
14950,2040,304,-440,58,21,-18
14955,2040,304,-440,59,20,-16
14960,2016,304,-432,60,18,-16
14965,2024,304,-432,63,17,-16
14970,2048,296,-416,63,15,-16
14975,2024,304,-472,64,16,-18
14980,2008,304,-408,63,16,-17
14985,2024,320,-416,63,17,-19
14990,2008,368,-432,61,16,-18
14995,2056,296,-408,59,13,-20
