timestamp,accel_x,accel_y,accel_z,gyro_x,gyro_y,gyro_z
0,-64,-1952,304,48,14,-8
5,-48,-1968,320,49,13,-9
10,-64,-1960,312,50,13,-9
15,-72,-1968,336,52,14,-9
20,-80,-1944,344,53,14,-9
25,-72,-1952,320,53,14,-7
30,-32,-1944,328,53,14,-8
35,-32,-1920,336,53,14,-10
40,-64,-1944,336,52,14,-10
45,-64,-1920,312,53,15,-8
50,-80,-1952,336,54,15,-8
55,-56,-1960,344,56,15,-8
60,-72,-1960,344,59,17,-8
65,-72,-1952,328,59,17,-8
70,-72,-1968,328,60,15,-7
75,-72,-1944,360,59,15,-7
80,-88,-1952,344,58,14,-7
85,-48,-1912,336,55,13,-8
90,-80,-1952,320,52,12,-9
95,-56,-1960,336,47,12,-9
100,-64,-1984,336,43,12,-11
105,-64,-1968,328,43,12,-11
110,-56,-1984,336,44,14,-10
115,-48,-1960,320,45,14,-8
120,-72,-1952,328,46,12,-7
125,-48,-1936,328,49,11,-7
130,-80,-1952,328,49,10,-8
135,-64,-1960,336,50,10,-9
140,-64,-1952,336,52,10,-10
145,-80,-1944,336,53,10,-10
150,-72,-1976,328,55,10,-10
155,-56,-1976,336,55,11,-11
160,-64,-1952,352,57,12,-12
165,-80,-1960,328,59,12,-11
170,-56,-1936,344,62,13,-11
175,-32,-1968,344,63,12,-10
180,-56,-1952,328,63,12,-11
185,-48,-1944,344,63,12,-11
190,-64,-1952,344,63,11,-10
195,-56,-1936,352,62,13,-11
200,-72,-1944,360,63,12,-11
205,-72,-1944,328,63,13,-10
210,-48,-1952,336,63,14,-10
215,-80,-1960,360,63,13,-12
220,-32,-1960,336,62,12,-11
225,-80,-1976,368,63,12,-11
230,-64,-1960,360,63,13,-10
235,-40,-1968,344,61,12,-9
240,-64,-1960,336,61,12,-10
245,-80,-1928,328,62,12,-9
250,-72,-1968,344,61,11,-8
255,-72,-1936,336,62,12,-9
260,-40,-1960,312,61,13,-9
265,-56,-1960,360,60,13,-10
270,-40,-1960,328,60,12,-11
275,-24,-1952,336,61,12,-12
280,-40,-1976,352,60,14,-12
285,-88,-1936,344,61,13,-13
290,-48,-1968,344,62,14,-10
295,-56,-1952,336,64,12,-10
300,-32,-1952,344,64,12,-11
305,-48,-1944,328,66,15,-9
310,-56,-1960,352,65,15,-9
315,-64,-1960,344,65,15,-9
320,-32,-1960,336,65,14,-10
325,-64,-1952,344,65,14,-10
330,-56,-1944,336,63,16,-12
335,-40,-1928,336,62,16,-10
340,-24,-1968,328,60,14,-10
345,-64,-1944,360,59,13,-11
350,-64,-1968,352,58,13,-12
355,-56,-1960,384,57,12,-12
360,-48,-1936,352,54,14,-11
365,-48,-1960,352,54,14,-12
370,-48,-1968,320,51,13,-10
375,-56,-1960,352,49,14,-10
380,-40,-1976,344,49,15,-10
385,-56,-1976,336,50,15,-10
390,-40,-1944,336,51,14,-10
395,-72,-1960,344,53,15,-9
400,-40,-1960,352,54,15,-9
405,-80,-1936,328,56,14,-10
410,-48,-1960,320,57,14,-10
415,-56,-1944,344,58,14,-10
420,-48,-1968,328,59,13,-11
425,-56,-1952,368,60,15,-9
430,-64,-1960,376,60,15,-9
435,-80,-1952,344,60,15,-10
440,-72,-1968,336,59,16,-9
445,-48,-1952,368,59,17,-10
450,-64,-1960,352,60,17,-11
455,-56,-1984,328,61,15,-10
460,-56,-1952,328,62,16,-9
465,-64,-1968,344,61,14,-8
470,-64,-1952,352,61,15,-8
475,-56,-1952,328,62,15,-8
480,-40,-1968,328,63,15,-9
485,-72,-1960,336,63,13,-9
490,-56,-1952,336,63,14,-7
495,-72,-1952,320,63,15,-6
500,-72,-1944,344,63,14,-7
505,-72,-1928,336,64,14,-8
510,-48,-1936,320,64,14,-8
515,-80,-1936,352,66,15,-8
520,-80,-1936,368,69,14,-9
525,-56,-1952,336,71,14,-9
530,-48,-1944,376,71,13,-8
535,-56,-1960,376,72,14,-8
540,-72,-1928,352,71,13,-8
545,-64,-1968,384,70,12,-9
550,-40,-1976,376,70,13,-10
555,-96,-1928,368,68,12,-9
560,-40,-1944,344,66,11,-9
565,-48,-1944,352,63,12,-10
570,-40,-1952,336,60,12,-12
575,-56,-1944,344,58,13,-10
580,-88,-1928,352,56,13,-10
585,-64,-1944,368,53,12,-12
590,-32,-1952,344,51,11,-10
595,-64,-1928,352,50,11,-11
600,-56,-1968,328,50,11,-12
605,-64,-1936,368,51,12,-11
610,-88,-1952,352,53,12,-9
615,-72,-1960,320,54,12,-10
620,-48,-1936,344,56,12,-9
625,-72,-1936,360,60,12,-9
630,-40,-1952,360,59,11,-10
635,-56,-1968,344,59,11,-11
640,-88,-1952,344,59,11,-9
645,-56,-1968,344,60,11,-10
650,-32,-1976,328,58,12,-10
655,-56,-1960,368,57,13,-10
660,-64,-1952,328,54,14,-10
665,-72,-1936,344,53,14,-10
670,-80,-1912,368,53,15,-10
675,-32,-1944,312,52,14,-11
680,-48,-1952,344,51,13,-10
685,-80,-1936,368,50,11,-10
690,-64,-1944,368,51,12,-11
695,-64,-1944,368,49,12,-12
700,-48,-1944,352,48,11,-11
705,-56,-1928,352,49,12,-9
710,-72,-1952,336,48,12,-9
715,-40,-1952,352,47,12,-10
720,-48,-1952,344,47,11,-10
725,-40,-1944,360,46,11,-11
730,-48,-1936,344,47,12,-11
735,-40,-1968,336,50,12,-11
740,-64,-1968,352,50,13,-9
745,-64,-1936,352,53,11,-10
750,-64,-1984,352,53,12,-11
755,-40,-1968,368,54,12,-9
760,-48,-1944,336,55,12,-9
765,-64,-1968,344,55,12,-10
770,-48,-1944,352,55,12,-11
775,-56,-1960,360,55,13,-10
780,-40,-1944,376,55,12,-10
785,-72,-1960,336,55,13,-10
790,-72,-1952,360,55,12,-10
795,-56,-1936,360,53,11,-10
800,-48,-1952,360,55,11,-11
805,-64,-1968,368,54,11,-12
810,-56,-1968,328,54,10,-11
815,-40,-1960,368,54,11,-11
820,-72,-1944,352,53,11,-11
825,-56,-1960,368,54,11,-10
830,-72,-1952,352,55,12,-10
835,-32,-1960,352,56,12,-9
840,-72,-1936,360,55,11,-9
845,-64,-1952,368,56,12,-8
850,-64,-1952,368,58,11,-10
855,-72,-1976,368,57,12,-7
860,-40,-1968,336,58,13,-9
865,-40,-1952,352,57,12,-9
870,-64,-1928,376,56,13,-8
875,-80,-1936,360,58,14,-8
880,-48,-1960,384,57,15,-9
885,-64,-1936,344,59,15,-9
890,-56,-1984,352,58,15,-8
895,-96,-1944,344,58,16,-8
900,-56,-1968,320,57,15,-8
905,-56,-1944,360,56,15,-10
910,-48,-1952,360,57,16,-8
915,-64,-1944,376,57,14,-8
920,-64,-1928,352,57,15,-9
925,-64,-1944,376,58,14,-10
930,-56,-1960,328,57,15,-8
935,-56,-1944,344,57,14,-10
940,-72,-1944,336,58,14,-9
945,-40,-1952,352,59,13,-10
950,-64,-1968,368,59,13,-10
955,-48,-1976,344,58,13,-10
960,-56,-1960,352,58,14,-11
965,-64,-1944,384,57,13,-10
970,-56,-1952,360,55,15,-10
975,-56,-1960,360,55,16,-11
980,-32,-1968,344,55,17,-9
985,-56,-1968,352,55,18,-9
990,-56,-1976,360,55,16,-9
995,-56,-1936,352,55,14,-8
1000,-56,-1944,352,57,14,-7
1005,-72,-1944,360,56,13,-9
1010,-64,-1952,384,55,13,-8
1015,-32,-1944,360,53,14,-8
1020,-48,-1952,360,54,13,-8
1025,-72,-1944,352,53,14,-9
1030,-64,-1944,360,54,15,-10
1035,-56,-1976,344,54,15,-9
1040,-80,-1936,376,54,15,-10
1045,-72,-1960,352,54,15,-8
1050,-80,-1960,368,56,15,-11
1055,-72,-1976,344,58,14,-8
1060,-32,-1952,328,59,15,-8
1065,-32,-1968,352,59,15,-9
1070,-56,-1960,352,62,14,-7
1075,-48,-1968,360,62,14,-6
1080,-64,-1936,328,63,15,-8
1085,-64,-1944,376,64,14,-6
1090,-64,-1944,360,64,14,-7
1095,-56,-1936,352,66,14,-6
1100,-48,-1960,352,66,13,-6
1105,-48,-1952,360,67,14,-7
1110,-64,-1952,360,67,14,-7
1115,-48,-1936,360,67,14,-5
1120,-48,-1960,368,66,15,-9
1125,-64,-1952,384,64,14,-7
1130,-40,-1952,384,66,15,-9
1135,-64,-1920,360,63,15,-10
1140,-64,-1944,392,60,14,-10
1145,-56,-1952,360,58,15,-8
1150,-80,-1928,376,57,14,-10
1155,-48,-1976,368,55,14,-9
1160,-64,-1968,344,53,14,-9
1165,-72,-1968,376,52,14,-8
1170,-64,-1960,328,53,14,-10
1175,-64,-1952,368,53,14,-9
1180,-56,-1952,352,54,14,-9
1185,-64,-1952,368,53,14,-7
1190,-40,-1968,368,54,14,-7
1195,-64,-1968,376,54,12,-4
1200,-32,-1960,368,54,14,-6
1205,-56,-1960,360,55,14,-6
1210,-48,-1952,368,57,14,-6
1215,-24,-1984,384,57,13,-6
1220,-48,-1952,352,57,13,-6
1225,-48,-1952,384,59,14,-7
1230,-72,-1944,344,60,14,-7
1235,-64,-1944,344,60,15,-7
1240,-48,-1952,376,62,15,-7
1245,-80,-1944,320,61,15,-8
1250,-56,-1928,344,62,15,-7
1255,-56,-1952,352,61,14,-7
1260,-32,-1960,360,60,15,-7
1265,-40,-1968,368,59,15,-7
1270,-64,-1952,368,57,15,-8
1275,-40,-1896,272,56,14,-8
1280,-128,-1896,400,57,14,-7
1285,56,-1952,336,56,12,-6
1290,-24,-1960,216,56,13,-6
1295,-72,-1952,360,57,13,-7
1300,-80,-1880,264,56,15,-7
1305,-112,-1912,352,55,13,-6
1310,48,-1968,416,56,13,-5
1315,-104,-1824,304,57,13,-8
1320,-64,-1920,368,58,14,-9
1325,-64,-1936,360,59,14,-8
1330,-64,-1944,376,60,14,-7
1335,-64,-1968,360,59,13,-8
1340,-80,-1960,352,60,15,-9
1345,-96,-2000,384,60,14,-9
1350,-80,-1936,400,60,15,-9
1355,-24,-1968,360,59,14,-7
1360,-40,-1952,352,59,15,-8
1365,-40,-1968,384,58,16,-7
1370,-32,-1968,360,59,15,-8
1375,-56,-1944,368,57,15,-6
1380,-80,-1936,368,56,14,-8
1385,-64,-1944,344,56,15,-8
1390,-16,-1960,352,54,15,-9
1395,-72,-1936,344,54,15,-7
1400,-64,-1944,368,51,14,-7
1405,-56,-1952,360,50,12,-8
1410,-64,-1952,360,50,13,-8
1415,-56,-1944,384,50,14,-7
1420,-56,-1936,384,49,12,-8
1425,-16,-1968,360,49,14,-8
1430,-64,-1952,368,48,12,-9
1435,-56,-1944,392,46,13,-9
1440,-72,-1944,352,47,13,-11
1445,-88,-1936,376,47,11,-9
1450,-64,-1968,384,47,11,-11
1455,-48,-1968,368,46,12,-9
1460,-56,-1968,384,47,13,-10
1465,-40,-1968,352,47,12,-9
1470,-56,-1976,384,48,13,-11
1475,-48,-1952,368,50,14,-10
1480,-40,-1936,344,49,15,-8
1485,-72,-1952,352,48,14,-10
1490,-48,-1952,360,49,15,-9
1495,-72,-1944,336,49,14,-9
1500,-56,-1960,352,48,14,-9
1505,-56,-1952,376,47,13,-10
1510,-48,-1960,368,47,13,-8
1515,-24,-1944,368,46,12,-10
1520,-72,-1952,392,43,14,-8
1525,-48,-1920,360,41,14,-9
1530,-88,-1928,352,41,14,-10
1535,-64,-1944,384,38,13,-10
1540,-56,-1952,360,37,12,-10
1545,-64,-1960,352,36,12,-9
1550,-48,-1944,384,34,13,-10
1555,-48,-1976,368,34,12,-11
1560,-72,-1952,328,34,11,-12
1565,-56,-1952,360,33,11,-11
1570,-64,-1944,368,31,13,-12
1575,-64,-1952,352,32,13,-11
1580,-64,-1960,376,33,13,-11
1585,-56,-1960,368,31,13,-13
1590,-80,-1960,368,30,13,-12
1595,-72,-1944,360,29,13,-12
1600,-56,-1944,360,28,14,-11
1605,-72,-1936,376,29,14,-10
1610,-40,-1944,352,28,12,-10
1615,-80,-1952,384,27,12,-10
1620,-48,-1944,352,28,11,-10
1625,-64,-1936,344,26,11,-10
1630,-64,-1960,360,25,9,-9
1635,-56,-1944,336,25,8,-8
1640,-64,-1928,352,25,8,-9
1645,-56,-1920,360,23,9,-9
1650,-64,-1968,360,23,8,-11
1655,-40,-1952,360,20,9,-12
1660,-80,-1976,384,18,11,-13
1665,-88,-1944,376,18,12,-10
1670,-64,-1952,304,18,13,-10
1675,-56,-1960,360,19,11,-12
1680,-56,-1968,360,20,11,-12
1685,-32,-1960,352,22,11,-10
1690,-64,-1960,352,25,11,-10
1695,-64,-1960,352,26,11,-10
1700,-56,-1928,328,29,12,-8
1705,-56,-1936,352,31,12,-9
1710,-64,-1960,344,34,13,-7
1715,-64,-1960,376,37,12,-8
1720,-48,-1952,336,38,11,-8
1725,-64,-1968,352,41,12,-7
1730,-80,-1960,368,42,13,-8
1735,-64,-1936,368,43,14,-8
1740,-72,-1936,376,44,13,-10
1745,-72,-1928,376,42,13,-10
1750,-72,-1928,360,42,13,-8
1755,-56,-1968,360,42,14,-11
1760,-40,-1920,376,39,13,-11
1765,-80,-1936,368,37,14,-12
1770,-80,-1944,344,35,13,-13
1775,-48,-1944,376,32,14,-13
1780,-64,-1944,360,29,14,-12
1785,-56,-1968,360,27,14,-11
1790,-56,-1952,352,26,14,-12
1795,-40,-1960,368,26,13,-9
1800,-72,-1968,360,27,13,-9
1805,-32,-1952,360,27,12,-10
1810,-64,-1952,352,29,12,-8
1815,-40,-1952,368,32,13,-7
1820,-56,-1960,344,35,11,-6
1825,-56,-1960,352,36,11,-6
1830,-56,-1952,352,38,12,-4
1835,-56,-1968,344,40,14,-3
1840,-56,-1952,344,42,15,-5
1845,-56,-1968,360,43,16,-5
1850,-72,-1952,336,46,14,-5
1855,-64,-1976,344,49,14,-4
1860,-64,-1952,352,51,16,-4
1865,-96,-1936,344,49,14,-3
1870,-56,-1936,376,50,16,-4
1875,-72,-1976,352,51,16,-6
1880,-72,-1960,352,50,16,-6
1885,-56,-1928,376,51,17,-6
1890,-64,-1952,360,50,17,-5
1895,-40,-1968,368,50,15,-6
1900,-56,-1960,376,49,16,-7
1905,-72,-1928,344,48,15,-7
1910,-32,-1968,360,49,15,-8
1915,-64,-1960,336,47,14,-7
1920,-80,-1952,328,46,15,-7
1925,-80,-1944,336,44,14,-6
1930,-80,-1952,344,44,15,-7
1935,-80,-1944,384,44,15,-8
1940,-80,-1952,344,42,14,-7
1945,-72,-1944,392,40,14,-8
1950,-64,-1952,352,38,14,-8
1955,-80,-1944,344,36,14,-7
1960,-72,-1952,320,33,13,-7
1965,-24,-1960,360,29,14,-7
1970,-64,-1944,328,27,13,-9
1975,-48,-1952,320,25,12,-11
1980,-80,-1928,344,22,13,-10
1985,-72,-1960,360,22,12,-9
1990,-48,-1944,376,21,12,-10
1995,-40,-1952,352,20,12,-11
2000,-64,-1936,336,19,13,-11
2005,-80,-1944,352,20,12,-11
2010,-72,-1944,360,19,11,-10
2015,-64,-1984,344,17,10,-9
2020,-40,-1960,344,17,11,-8
2025,-64,-1960,352,18,10,-8
2030,-32,-1976,360,18,8,-6
2035,-72,-1952,360,19,9,-8
2040,-64,-1976,360,19,8,-9
2045,-48,-1984,360,18,8,-9
2050,-64,-1952,344,18,8,-9
2055,-40,-1944,368,17,8,-9
2060,-48,-1960,344,17,8,-9
2065,-72,-1960,336,16,8,-10
2070,-80,-1952,352,15,8,-11
2075,-56,-1960,360,14,8,-10
2080,-56,-1960,328,15,9,-10
2085,-64,-1944,352,16,8,-10
2090,-56,-1960,360,13,9,-11
2095,-64,-1968,344,14,9,-9
2100,-72,-1936,328,14,9,-9
2105,-72,-1960,336,14,9,-9
2110,-40,-1944,344,13,8,-9
2115,-40,-1952,328,12,8,-8
2120,-48,-1976,344,13,8,-8
2125,-40,-1944,320,14,8,-6
2130,-40,-1976,360,13,7,-6
2135,-72,-1944,336,12,8,-6
2140,-40,-1944,360,12,9,-6
2145,-48,-1944,312,14,9,-6
2150,-48,-1944,328,15,10,-7
2155,-80,-1952,336,14,10,-6
2160,-40,-1976,344,16,10,-7
2165,-40,-1960,320,18,10,-8
2170,-32,-1968,360,18,10,-7
2175,-32,-1960,360,19,11,-8
2180,-64,-1960,336,22,10,-7
2185,-72,-1976,336,26,12,-8
2190,-64,-1960,336,29,12,-6
2195,-64,-1960,312,33,12,-7
2200,-64,-1984,320,35,11,-5
2205,-144,-1976,336,40,12,-5
2210,-56,-1952,296,42,11,-7
2215,-72,-1936,336,46,11,-7
2220,-24,-2000,328,49,11,-5
2225,-72,-1936,360,50,13,-7
2230,-56,-1944,344,52,14,-7
2235,-56,-1952,312,53,15,-6
2240,-48,-1976,352,54,14,-7
2245,-72,-1920,328,54,17,-6
2250,-64,-1960,272,55,17,-7
2255,-56,-1936,320,57,16,-7
2260,-56,-1960,336,58,17,-6
2265,-32,-1976,328,58,16,-6
2270,-56,-1952,312,60,16,-6
2275,-64,-1936,352,62,15,-7
2280,-80,-1936,336,62,15,-6
2285,-72,-1960,336,64,17,-6
2290,-80,-1968,312,65,17,-7
2295,-64,-1976,344,66,17,-6
2300,-64,-1984,328,69,19,-6
2305,-48,-1960,328,71,19,-4
2310,-72,-1976,352,75,19,-7
2315,-56,-1968,352,77,18,-7
2320,-56,-1968,336,80,18,-5
2325,-64,-1976,352,84,17,-6
2330,-48,-1960,344,87,18,-4
2335,-64,-1984,296,89,17,-6
2340,-64,-1984,328,93,17,-6
2345,-40,-1960,320,94,17,-6
2350,-56,-1952,320,95,18,-4
2355,-72,-1952,336,96,19,-5
2360,-80,-1984,320,100,18,-5
2365,-72,-1936,352,101,20,-6
2370,-72,-1960,352,104,19,-6
2375,-40,-1984,328,108,20,-5
2380,-72,-1952,328,110,20,-5
2385,-72,-1984,336,113,21,-6
2390,-48,-1960,336,115,19,-5
2395,-64,-1952,344,118,18,-7
2400,-64,-1952,352,119,20,-5
2405,-80,-1928,360,119,19,-7
2410,-56,-1952,320,117,18,-7
2415,-40,-1944,336,116,19,-6
2420,-72,-1944,352,114,18,-8
2425,-48,-1944,360,112,19,-6
2430,-72,-1968,328,109,18,-7
2435,-32,-1952,352,107,17,-7
2440,-48,-1960,336,103,17,-7
2445,-56,-1944,320,99,16,-8
2450,-64,-1976,368,96,15,-4
2455,-64,-1928,328,93,15,-7
2460,-48,-1960,392,90,16,-8
2465,-56,-1944,376,86,14,-7
2470,-88,-1976,368,84,14,-6
2475,-64,-1936,392,81,14,-7
2480,-88,-1944,352,81,15,-8
2485,-56,-1952,328,81,14,-5
2490,-88,-1928,328,81,15,-7
2495,-64,-1952,376,79,14,-8
2500,-56,-1968,392,80,14,-7
2505,-56,-1968,376,80,13,-6
2510,-64,-1968,352,78,14,-8
2515,-64,-1960,328,78,14,-7
2520,-64,-1952,376,77,16,-5
2525,-72,-1968,384,76,16,-5
2530,-64,-1968,360,75,16,-6
2535,-64,-1968,392,76,17,-8
2540,-48,-1960,352,75,16,-8
2545,-48,-1944,376,75,15,-7
2550,-80,-1944,368,76,15,-8
2555,-64,-1960,360,75,14,-7
2560,-80,-1936,384,74,14,-8
2565,-80,-1944,336,72,14,-9
2570,-56,-1936,368,72,13,-8
2575,-88,-1936,368,69,12,-9
2580,-72,-1920,352,68,14,-8
2585,-64,-1960,368,66,14,-8
2590,-48,-1968,352,64,14,-8
2595,-64,-1944,368,65,12,-9
2600,-56,-1944,368,64,13,-11
2605,-32,-1952,384,63,14,-10
2610,-56,-1936,368,62,13,-12
2615,-64,-1944,400,64,13,-10
2620,-56,-1928,368,64,16,-10
2625,-72,-1928,360,63,15,-10
2630,-64,-1960,368,64,17,-9
2635,-56,-1952,376,64,16,-9
2640,-56,-1976,376,62,15,-10
2645,-72,-1944,392,61,15,-10
2650,-48,-1952,360,61,14,-8
2655,-64,-1960,360,60,15,-9
2660,-40,-1944,376,59,16,-10
2665,-80,-1952,376,59,14,-8
2670,-48,-1944,368,59,14,-9
2675,-56,-1952,384,59,15,-10
2680,-48,-1968,384,60,15,-9
2685,-72,-1944,384,61,15,-12
2690,-64,-1968,384,61,16,-10
2695,-64,-1952,352,63,14,-12
2700,-48,-1936,376,61,14,-12
2705,-64,-1952,368,62,15,-10
2710,-56,-1944,352,63,15,-11
2715,-64,-1936,360,63,15,-12
2720,-56,-1928,392,63,14,-11
2725,-80,-1952,384,63,16,-11
2730,-80,-1936,352,64,15,-11
2735,-64,-1936,376,63,15,-11
2740,-64,-1936,368,64,15,-11
2745,-64,-1920,384,64,16,-10
2750,-64,-1968,384,65,15,-11
2755,-64,-1952,384,65,15,-10
2760,-64,-1952,384,65,14,-10
2765,-56,-1944,352,66,14,-10
2770,-72,-1952,376,66,14,-9
2775,-64,-1952,384,66,15,-9
2780,-64,-1952,384,66,14,-11
2785,-56,-1960,352,67,15,-10
2790,-40,-1944,344,67,15,-7
2795,-72,-1944,376,68,16,-7
2800,-56,-1944,368,68,16,-7
2805,-56,-1952,392,67,16,-7
2810,-64,-1968,392,69,17,-6
2815,-64,-1936,384,68,16,-6
2820,-64,-1936,384,70,16,-6
2825,-64,-1968,368,70,16,-8
2830,-80,-1960,392,73,18,-7
2835,-32,-1984,344,74,17,-9
2840,-64,-1920,368,75,16,-8
2845,-72,-1944,368,77,17,-8
2850,-64,-1952,360,77,18,-9
2855,-64,-1968,360,77,17,-9
2860,-64,-1936,368,77,18,-9
2865,-72,-1936,368,77,18,-11
2870,-64,-1960,384,76,18,-12
2875,-64,-1960,384,76,17,-11
2880,-80,-1936,376,74,18,-12
2885,-72,-1960,384,73,17,-10
2890,-56,-1936,368,74,18,-11
2895,-64,-1928,368,72,18,-9
2900,-72,-1944,376,72,16,-11
2905,-88,-1928,368,71,14,-11
2910,-72,-1976,400,72,15,-11
2915,-48,-1936,408,70,13,-10
2920,-56,-1936,360,68,13,-11
2925,-64,-1952,392,67,14,-8
2930,-64,-1944,376,68,13,-8
2935,-72,-1936,360,67,13,-9
2940,-72,-1952,368,65,14,-8
2945,-56,-1952,392,64,14,-9
2950,-72,-1944,384,60,15,-9
2955,-64,-1960,384,59,14,-11
2960,-72,-1960,416,58,15,-12
2965,-72,-1952,352,58,16,-10
2970,-72,-1944,384,57,16,-10
2975,-64,-1960,384,56,16,-11
2980,-40,-1952,400,56,16,-10
2985,-48,-1960,384,55,15,-9
2990,-40,-1968,328,56,14,-10
2995,-64,-1952,376,55,14,-10
3000,-64,-1936,376,57,13,-9
3005,-80,-1952,352,60,12,-9
3010,-88,-1952,368,60,13,-9
3015,-48,-1968,384,63,13,-8
3020,-64,-1944,360,66,13,-9
3025,-64,-1936,392,69,13,-8
3030,-48,-1920,384,70,13,-9
3035,-56,-1960,392,71,13,-10
3040,-88,-1936,400,72,15,-11
3045,-56,-1928,416,71,14,-13
3050,-72,-1944,384,68,14,-12
3055,-72,-1920,424,66,15,-10
3060,-40,-1936,376,63,15,-11
3065,-80,-1936,360,58,15,-10
3070,-64,-1920,408,54,15,-12
3075,-56,-1936,376,53,16,-12
3080,-64,-1944,400,50,14,-11
3085,-72,-1960,392,48,15,-11
3090,-64,-1936,392,48,14,-10
3095,-56,-1952,400,46,15,-9
3100,-56,-1984,400,47,13,-9
3105,-72,-1960,408,48,12,-8
3110,-64,-1944,392,50,13,-10
3115,-64,-1960,360,53,14,-9
3120,-40,-1944,392,54,14,-7
3125,-64,-1936,376,56,14,-8
3130,-72,-1936,400,58,14,-8
3135,-56,-1976,384,58,16,-8
3140,-80,-1928,368,59,16,-8
3145,-56,-1952,392,61,16,-8
3150,-64,-1944,376,61,17,-7
3155,-48,-1928,392,62,17,-6
3160,-48,-1976,392,61,17,-7
3165,-48,-1960,384,60,17,-7
3170,-64,-1928,392,60,17,-9
3175,-56,-1936,368,59,17,-8
3180,-56,-1936,360,59,16,-8
3185,-80,-1928,392,58,16,-10
3190,-64,-1960,384,56,15,-9
3195,-48,-1952,384,55,15,-10
3200,-72,-1976,368,55,14,-10
3205,-80,-1936,376,55,15,-10
3210,-72,-1928,376,54,14,-10
3215,-40,-1960,368,54,15,-9
3220,-96,-1936,376,55,14,-10
3225,-56,-1952,368,54,15,-10
3230,-56,-1968,408,54,14,-10
3235,-88,-1944,392,55,15,-11
3240,-64,-1944,368,55,15,-10
3245,-88,-1944,368,55,16,-9
3250,-88,-1928,416,56,15,-10
3255,-72,-1960,360,57,15,-11
3260,-72,-1952,408,56,15,-9
3265,-56,-1928,376,57,15,-9
3270,-88,-1944,344,57,15,-10
3275,-56,-1952,400,57,14,-10
3280,-40,-1936,360,55,14,-7
3285,-88,-1936,384,54,14,-8
3290,-88,-1960,392,54,15,-10
3295,-24,-2072,512,52,14,-10
3300,-40,-1960,304,50,13,-8
3305,-136,-1872,416,48,12,-8
3310,64,-1960,416,47,12,-7
3315,-8,-1992,392,47,13,-7
3320,-88,-1944,360,45,13,-8
3325,-32,-1968,624,44,12,-7
3330,-56,-1960,432,45,13,-9
3335,-184,-1896,280,45,12,-9
3340,-40,-1952,368,44,13,-8
3345,-64,-1960,384,46,12,-8
3350,-72,-1952,392,46,12,-10
3355,-48,-1952,400,48,12,-9
3360,-40,-1976,448,48,12,-9
3365,-80,-1944,384,48,12,-9
3370,-48,-1952,400,48,12,-10
3375,-72,-1936,392,48,12,-8
3380,-72,-1928,384,47,12,-10
3385,-64,-1944,408,48,13,-10
3390,-56,-1944,368,45,13,-11
3395,-64,-1960,384,45,14,-12
3400,-72,-1936,384,46,13,-10
3405,-48,-1952,400,45,14,-11
3410,-64,-1928,376,46,14,-10
3415,-64,-1944,392,45,14,-9
3420,-72,-1936,384,46,13,-9
3425,-56,-1928,408,46,13,-8
3430,-56,-1952,392,45,14,-8
3435,-64,-1936,368,44,14,-8
3440,-48,-1944,368,43,14,-10
3445,-72,-1928,376,40,14,-9
3450,-48,-1952,400,40,14,-9
3455,-72,-1952,400,38,13,-9
3460,-64,-1952,392,37,13,-10
3465,-80,-1952,384,36,14,-9
3470,-64,-1944,392,36,13,-10
3475,-64,-1952,376,35,13,-9
3480,-48,-1952,384,35,13,-10
3485,-56,-1944,376,35,13,-9
3490,-40,-1952,392,33,14,-10
3495,-48,-1976,360,32,14,-12
3500,-40,-1944,392,31,13,-14
3505,-48,-1944,384,30,12,-13
3510,-56,-1944,384,29,13,-13
3515,-64,-1936,384,26,13,-14
3520,-64,-1928,400,25,13,-15
3525,-64,-1928,392,21,13,-14
3530,-64,-1936,392,18,12,-13
3535,-48,-1928,400,13,13,-13
3540,-48,-1944,392,12,13,-13
3545,-64,-1928,384,10,14,-12
3550,-64,-1944,376,8,13,-12
3555,-40,-1968,384,5,11,-11
3560,-24,-1952,384,4,9,-11
3565,-40,-1920,400,2,8,-12
3570,-56,-1936,360,1,8,-12
3575,-104,-1944,400,-2,8,-12
3580,-112,-1960,344,-1,9,-11
3585,-72,-1952,392,-2,11,-11
3590,-72,-1944,376,-3,11,-12
3595,-48,-1952,392,-3,11,-12
3600,-72,-1960,384,-4,12,-13
3605,-56,-1968,392,-4,12,-12
3610,-64,-1960,384,-3,13,-16
3615,-72,-1976,384,-4,14,-15
3620,-48,-1952,360,-3,13,-15
3625,-72,-1944,376,-3,13,-15
3630,-48,-1968,376,-4,12,-15
3635,-64,-1944,360,-5,13,-14
3640,-32,-1944,352,-6,15,-13
3645,-80,-1920,352,-7,15,-14
3650,-56,-1960,368,-8,15,-13
3655,-72,-1936,344,-8,17,-11
3660,-64,-1960,352,-10,17,-15
3665,-64,-1928,392,-11,15,-16
3670,-32,-1952,320,-13,15,-18
3675,-56,-1936,376,-18,14,-20
3680,-72,-1896,304,-27,13,-22
3685,-56,-1912,352,-40,13,-23
3690,-56,-1928,376,-61,13,-24
3695,-64,-1920,352,-79,16,-22
3700,-56,-1920,368,-97,17,-19
3705,-48,-1904,368,-113,18,-20
3710,-40,-1880,360,-127,19,-21
3715,-56,-1880,312,-145,15,-24
3720,-48,-1872,280,-165,14,-29
3725,-72,-1864,304,-185,13,-34
3730,-56,-1888,296,-206,13,-40
3735,-64,-1944,304,-227,13,-42
3740,-80,-1960,264,-245,11,-46
3745,-72,-1960,264,-254,9,-50
3750,-56,-2000,256,-257,3,-55
3755,-264,-1968,128,-253,-5,-60
3760,-40,-2032,224,-259,-20,-57
3765,8,-1984,272,-251,-23,-61
3770,-72,-1984,240,-218,-20,-69
3775,0,-1992,200,-193,-18,-73
3780,-216,-1952,120,-178,-8,-71
3785,-64,-1976,144,-178,-1,-55
3790,-48,-1968,168,-182,0,-38
3795,-40,-1912,144,-176,1,-33
3800,-64,-1888,152,-164,3,-33
3805,-128,-1888,152,-164,1,-28
3810,-192,-1856,88,-185,-16,-17
3815,-32,-1832,96,-221,-31,-12
3820,-40,-1824,144,-249,-33,-11
3825,-32,-1864,128,-268,-34,-8
3830,0,-1816,144,-298,-43,-9
3835,8,-1896,208,-327,-55,-15
3840,-16,-1864,208,-353,-60,-14
3845,-112,-1824,184,-366,-61,-19
3850,-144,-1816,136,-384,-59,-23
3855,8,-1880,240,-428,-67,-24
3860,-128,-1904,152,-464,-63,-27
3865,-56,-1920,200,-498,-66,-28
3870,-32,-1944,208,-523,-64,-33
3875,-64,-1984,208,-531,-61,-37
3880,-24,-2024,248,-541,-61,-40
3885,16,-2064,264,-552,-67,-41
3890,16,-2064,312,-555,-78,-42
3895,72,-2064,296,-533,-69,-37
3900,0,-2040,256,-487,-52,-35
3905,-64,-1920,232,-435,-36,-40
3910,-24,-1880,192,-424,-25,-46
3915,-24,-1888,168,-453,-18,-45
3920,8,-1896,176,-490,-14,-40
3925,-8,-1928,176,-522,-14,-39
3930,24,-1952,176,-549,-14,-40
3935,8,-1984,184,-562,-15,-45
3940,16,-2008,232,-563,-13,-45
3945,40,-2024,216,-552,-5,-47
3950,32,-2040,256,-538,6,-48
3955,8,-2000,256,-517,15,-50
3960,40,-1960,304,-497,18,-57
3965,8,-1912,280,-479,25,-71
3970,32,-1912,280,-460,39,-79
3975,0,-1904,264,-437,55,-79
3980,-8,-1904,232,-430,65,-79
3985,0,-1904,224,-437,70,-80
3990,-24,-1920,256,-439,78,-80
3995,-72,-1968,240,-432,87,-76
4000,-72,-1976,264,-425,87,-72
4005,-80,-1992,280,-418,86,-69
4010,-80,-1984,248,-416,80,-67
4015,-56,-1952,248,-417,75,-62
4020,-96,-1968,224,-414,75,-54
4025,-56,-1960,224,-413,77,-47
4030,-104,-1936,160,-419,82,-43
4035,-128,-1928,200,-435,81,-43
4040,-136,-1952,184,-456,79,-41
4045,-128,-1944,160,-474,73,-36
4050,-152,-1968,152,-489,67,-31
4055,-144,-1968,144,-500,59,-25
4060,-120,-2000,176,-509,53,-18
4065,-112,-2000,160,-515,47,-12
4070,-104,-2008,160,-520,39,-11
4075,-104,-1992,160,-524,30,-14
4080,-120,-1984,120,-529,25,-14
4085,-104,-1976,104,-535,20,-16
4090,-80,-1976,80,-546,16,-18
4095,-64,-1968,32,-561,14,-21
4100,-64,-1968,64,-574,17,-23
4105,-72,-1960,48,-584,19,-26
4110,-56,-1992,64,-590,23,-26
4115,-40,-1968,48,-594,25,-28
4120,-32,-1952,64,-601,25,-32
4125,-48,-1896,16,-607,25,-38
4130,-48,-1912,24,-615,26,-41
4135,-40,-1936,16,-625,26,-45
4140,-56,-1912,-16,-637,29,-46
4145,-48,-1936,-24,-649,31,-44
4150,-72,-1968,-16,-656,28,-45
4155,-40,-1904,-8,-662,26,-42
4160,-40,-1936,-16,-668,25,-37
4165,0,-1936,-8,-667,22,-33
4170,48,-1944,-72,-665,22,-31
4175,88,-1952,-40,-665,29,-30
4180,104,-1928,-96,-669,38,-30
4185,40,-1920,-152,-675,52,-29
4190,16,-1904,-160,-692,66,-26
4195,8,-1904,-192,-719,74,-22
4200,32,-1944,-200,-748,80,-18
4205,32,-1944,-208,-772,86,-16
4210,24,-1904,-232,-795,87,-18
4215,-16,-1880,-232,-819,83,-25
4220,32,-1888,-256,-840,77,-28
4225,48,-1936,-312,-849,78,-33
4230,8,-1920,-312,-856,81,-37
4235,32,-1952,-336,-861,83,-39
4240,72,-1944,-344,-865,87,-47
4245,32,-1952,-368,-871,95,-54
4250,80,-1968,-352,-878,99,-58
4255,120,-1960,-344,-892,108,-64
4260,112,-1960,-376,-910,119,-74
4265,88,-1960,-328,-931,130,-79
4270,120,-1968,-376,-957,145,-86
4275,104,-1960,-392,-978,157,-95
4280,104,-1976,-432,-996,165,-106
4285,88,-1952,-448,-1017,173,-116
4290,80,-1952,-456,-1034,181,-126
4295,96,-1960,-480,-1056,189,-133
4300,96,-1928,-488,-1079,193,-139
4305,40,-1872,-488,-1101,199,-145
4310,56,-1920,-496,-1128,206,-153
4315,32,-1880,-528,-1158,213,-158
4320,16,-1880,-528,-1188,221,-167
4325,8,-1848,-544,-1219,230,-173
4330,0,-1856,-584,-1241,233,-177
4335,16,-1856,-600,-1257,237,-175
4340,16,-1872,-584,-1280,243,-173
4345,48,-1872,-616,-1302,245,-171
4350,48,-1896,-624,-1324,246,-173
4355,40,-1896,-640,-1342,246,-176
4360,40,-1896,-672,-1355,242,-184
4365,16,-1912,-680,-1364,240,-195
4370,64,-1880,-704,-1378,239,-201
4375,16,-1872,-720,-1383,239,-213
4380,56,-1880,-776,-1380,239,-230
4385,56,-1864,-744,-1383,244,-240
4390,64,-1864,-768,-1388,250,-244
4395,32,-1848,-816,-1396,254,-249
4400,56,-1872,-800,-1405,257,-250
4405,40,-1816,-792,-1412,260,-255
4410,56,-1832,-800,-1420,260,-259
4415,16,-1832,-800,-1421,255,-262
4420,8,-1816,-808,-1421,248,-266
4425,16,-1808,-760,-1422,242,-268
4430,8,-1840,-760,-1415,238,-271
4435,8,-1824,-768,-1406,237,-279
4440,0,-1808,-752,-1398,241,-286
4445,0,-1768,-776,-1387,247,-293
4450,0,-1800,-768,-1378,251,-297
4455,0,-1816,-768,-1373,252,-300
4460,0,-1816,-800,-1373,253,-296
4465,32,-1848,-800,-1384,254,-295
4470,56,-1840,-808,-1394,255,-298
4475,80,-1856,-808,-1403,256,-299
4480,48,-1840,-856,-1419,263,-301
4485,80,-1872,-880,-1436,269,-301
4490,40,-1896,-880,-1451,275,-300
4495,32,-1848,-888,-1465,275,-293
4500,24,-1816,-936,-1483,273,-288
4505,24,-1800,-928,-1499,266,-289
4510,16,-1784,-944,-1523,257,-288
4515,32,-1768,-992,-1554,251,-277
4520,8,-1736,-1024,-1587,248,-269
4525,8,-1712,-1040,-1618,244,-267
4530,16,-1720,-1072,-1653,242,-268
4535,64,-1688,-1080,-1693,243,-270
4540,80,-1704,-1104,-1730,246,-273
4545,104,-1736,-1080,-1763,244,-283
4550,80,-1744,-1080,-1792,241,-292
4555,96,-1752,-1080,-1806,237,-293
4560,88,-1760,-1072,-1816,231,-292
4565,120,-1736,-1096,-1824,216,-291
4570,160,-1672,-1120,-1830,200,-287
4575,144,-1656,-1136,-1826,185,-284
4580,160,-1608,-1152,-1815,175,-280
4585,160,-1624,-1240,-1798,166,-276
4590,160,-1624,-1224,-1785,151,-274
4595,128,-1712,-1272,-1779,126,-271
4600,104,-1760,-1280,-1777,92,-271
4605,72,-1872,-1272,-1767,50,-274
4610,40,-1960,-1280,-1742,6,-272
4615,24,-2000,-1280,-1697,-37,-270
4620,88,-2008,-1328,-1632,-79,-264
4625,96,-2040,-1384,-1561,-120,-248
4630,112,-2048,-1416,-1494,-162,-231
4635,104,-1992,-1480,-1423,-205,-214
4640,64,-1888,-1560,-1339,-238,-204
4645,24,-1904,-1656,-1255,-260,-196
4650,-16,-1928,-1664,-1179,-281,-188
4655,-72,-1952,-1704,-1108,-300,-176
4660,-8,-1960,-1736,-1027,-333,-162
4665,40,-1992,-1856,-941,-373,-153
4670,80,-2040,-1872,-858,-411,-148
4675,136,-1968,-1936,-795,-450,-152
4680,192,-2016,-1952,-770,-492,-166
4685,272,-1992,-2016,-732,-545,-183
4690,328,-1968,-2000,-688,-593,-204
4695,408,-1904,-2048,-633,-638,-228
4700,344,-1888,-2064,-591,-679,-261
4705,320,-1840,-2104,-572,-700,-272
4710,280,-1800,-2168,-570,-712,-284
4715,200,-1744,-2152,-577,-713,-299
4720,168,-1680,-2104,-609,-706,-312
4725,240,-1688,-2032,-649,-702,-339
4730,272,-1696,-1920,-687,-706,-385
4735,288,-1672,-1848,-698,-715,-435
4740,288,-1640,-1680,-696,-738,-494
4745,320,-1696,-1552,-692,-774,-546
4750,400,-1680,-1472,-657,-828,-593
4755,384,-1608,-1384,-601,-883,-644
4760,368,-1584,-1336,-519,-943,-701
4765,408,-1536,-1216,-444,-1003,-761
4770,384,-1496,-1136,-374,-1062,-821
4775,352,-1456,-1120,-301,-1122,-883
4780,320,-1392,-1088,-238,-1175,-942
4785,296,-1416,-1048,-184,-1225,-995
4790,200,-1392,-1032,-140,-1268,-1049
4795,128,-1344,-1000,-103,-1317,-1104
4800,112,-1360,-968,-62,-1365,-1151
4805,88,-1376,-936,-12,-1407,-1189
4810,152,-1400,-856,53,-1441,-1219
4815,192,-1448,-728,133,-1466,-1250
4820,160,-1424,-560,227,-1483,-1279
4825,152,-1440,-496,335,-1502,-1313
4830,72,-1464,-416,443,-1530,-1333
4835,40,-1400,-376,557,-1563,-1344
4840,32,-1288,-360,673,-1596,-1351
4845,-24,-1160,-432,773,-1627,-1358
4850,-88,-1024,-480,843,-1656,-1364
4855,-144,-912,-512,882,-1682,-1364
4860,-176,-752,-504,890,-1699,-1363
4865,-160,-664,-536,889,-1713,-1368
4870,-136,-544,-592,863,-1727,-1372
4875,-136,-496,-648,809,-1737,-1374
4880,-144,-496,-616,738,-1741,-1372
4885,-128,-504,-592,658,-1738,-1369
4890,-96,-576,-592,582,-1730,-1365
4895,-160,-656,-752,529,-1722,-1378
4900,-16,-808,-632,464,-1701,-1376
4905,72,-920,-616,393,-1674,-1386
4910,144,-992,-664,348,-1643,-1401
4915,232,-1096,-656,321,-1593,-1416
4920,296,-1160,-704,331,-1529,-1433
4925,392,-1224,-760,371,-1467,-1462
4930,480,-1256,-832,390,-1438,-1486
4935,448,-1232,-888,389,-1434,-1517
4940,376,-1152,-1000,376,-1439,-1566
4945,288,-1128,-1112,322,-1441,-1594
4950,248,-1096,-1208,246,-1443,-1610
4955,256,-1064,-1288,159,-1452,-1625
4960,176,-1040,-1336,58,-1482,-1653
4965,64,-1016,-1368,-46,-1517,-1680
4970,-72,-1024,-1344,-163,-1550,-1693
4975,-208,-1104,-1328,-230,-1584,-1685
4980,-360,-1184,-1200,-271,-1625,-1668
4985,-520,-1280,-1112,-287,-1690,-1651
4990,-720,-1272,-1072,-275,-1788,-1627
4995,-896,-1272,-1080,-247,-1921,-1594
5000,-1000,-1224,-1128,-204,-2088,-1544
5005,-1176,-1176,-1168,-152,-2272,-1485
5010,-1328,-1192,-1176,-98,-2456,-1409
5015,-1488,-1248,-1104,-29,-2634,-1315
5020,-1552,-1296,-1040,81,-2805,-1205
5025,-1536,-1368,-984,244,-2973,-1083
5030,-1416,-1408,-920,421,-3127,-961
5035,-1256,-1496,-776,606,-3258,-843
5040,-1104,-1504,-704,822,-3364,-714
5045,-1024,-1496,-784,1004,-3461,-597
5050,-968,-1480,-824,1094,-3558,-491
5055,-1024,-1448,-960,1147,-3637,-377
5060,-1120,-1424,-1016,1146,-3708,-255
5065,-1104,-1440,-1008,1130,-3782,-131
5070,-1200,-1352,-1008,1111,-3848,-20
5075,-1176,-1272,-944,1098,-3898,89
5080,-1080,-1224,-936,1101,-3915,187
5085,-872,-1152,-888,1060,-3894,265
5090,-720,-1056,-768,973,-3831,306
5095,-520,-1064,-648,895,-3716,323
5100,-384,-816,-648,810,-3566,309
5105,-192,-520,-704,703,-3403,268
5110,-96,-216,-848,586,-3224,192
5115,-24,120,-1000,416,-3025,119
5120,-24,232,-1032,222,-2823,70
5125,8,296,-936,127,-2623,37
5130,72,296,-800,85,-2417,25
5135,272,328,-704,2,-2222,20
5140,424,352,-640,-117,-2038,13
5145,480,392,-560,-235,-1868,-3
5150,488,456,-528,-319,-1717,-6
5155,496,424,-544,-364,-1586,4
5160,496,408,-552,-384,-1491,18
5165,504,368,-648,-399,-1426,30
5170,416,368,-664,-413,-1368,38
5175,376,304,-736,-423,-1294,41
5180,280,328,-800,-443,-1227,43
5185,184,320,-856,-465,-1149,55
5190,-40,384,-792,-490,-1085,77
5195,-72,392,-848,-504,-1057,118
5200,-64,432,-800,-523,-1048,172
5205,-184,392,-848,-551,-1050,226
5210,-128,352,-880,-591,-1057,273
5215,-128,312,-944,-642,-1064,299
5220,-176,288,-976,-698,-1068,304
5225,-216,168,-808,-750,-1070,296
5230,-120,256,-880,-801,-1068,279
5235,-256,120,-832,-856,-1068,250
5240,-248,168,-1136,-914,-1077,215
5245,-368,112,-1008,-969,-1100,174
5250,-440,56,-1120,-1019,-1145,134
5255,-568,16,-1104,-1065,-1203,99
5260,-840,40,-1304,-1110,-1273,78
5265,-816,-56,-1072,-1149,-1356,75
5270,-936,-24,-1192,-1173,-1457,75
5275,-1048,-152,-1096,-1182,-1582,81
5280,-1144,-136,-1280,-1190,-1714,92
5285,-1608,-72,-1448,-1184,-1844,111
5290,-1648,-200,-1344,-1178,-1984,160
5295,-1792,-368,-1496,-1188,-2134,238
5300,-2120,-496,-1680,-1214,-2308,330
5305,-2248,-832,-1608,-1248,-2521,418
5310,-2408,-1016,-1648,-1236,-2774,502
5315,-2632,-1264,-1680,-1213,-3050,612
5320,-3056,-1520,-1440,-1192,-3333,767
5325,-3136,-1544,-1592,-1124,-3611,964
5330,-3192,-1624,-1408,-1029,-3869,1168
5335,-3384,-1704,-1696,-950,-4113,1350
5340,-3520,-1624,-1736,-867,-4309,1560
5345,-3616,-1240,-1960,-755,-4445,1848
5350,-3328,-616,-2088,-676,-4544,2107
5355,-3064,-368,-2224,-618,-4561,2282
5360,-3072,-72,-2288,-645,-4510,2429
5365,-3424,16,-2120,-818,-4403,2548
5370,-3600,-600,-2144,-1087,-4295,2618
5375,-4136,-1144,-2000,-1331,-4147,2673
5380,-4608,-2600,-1768,-1421,-3924,2874
5385,-5600,-3440,-1376,-1429,-3679,3045
5390,-5160,-4464,-1624,-1431,-3477,3035
5395,-6456,-4008,-560,-1417,-2981,3054
5400,-6072,-3648,-632,-1082,-2634,3302
5405,-6120,-2904,-296,-656,-2472,3599
5410,-5816,-2192,-16,-340,-2450,3885
5415,-4824,-1128,-104,-168,-2461,4134
5420,-6352,-488,216,-265,-2395,4341
5425,-6048,88,520,-609,-2537,4490
5430,-5040,920,192,-1130,-2701,4421
5435,-4424,680,-224,-1732,-2668,4418
5440,-4600,-368,-672,-2346,-2610,4350
5445,-4456,-1280,-952,-2752,-2534,4030
5450,-3944,-2376,-944,-2671,-2378,3642
5455,-3480,-2896,-896,-2096,-2227,3485
5460,-2656,-3704,-512,-1166,-2132,3581
5465,-2088,-4080,-440,-94,-2022,3805
5470,-1368,-4352,-488,913,-1869,3923
5475,-720,-4624,-736,1770,-1697,3719
5480,-824,-4256,-928,2618,-1255,3326
5485,-944,-2504,-704,3265,-615,2807
5490,-616,-600,-784,3558,-29,2334
5495,-72,1480,-784,3423,484,2199
5500,-328,3248,-784,2999,982,2241
5505,-320,4672,-1112,2245,1483,2241
5510,-336,5264,-856,1067,2059,2151
5515,-1448,5256,-88,-304,2618,2093
5520,-2104,5040,400,-1607,3019,2005
5525,-2760,4080,736,-2735,3302,1907
5530,-2560,2872,304,-3533,3457,1751
5535,-3120,2040,80,-3988,3664,1509
5540,-2648,656,-88,-4122,3812,1332
5545,-2488,-416,-560,-3922,3887,1146
5550,-2568,-1336,-344,-3439,3900,988
5555,-2248,-1848,-464,-2708,3755,933
5560,-2192,-1712,-592,-1897,3510,958
5565,-2080,-1512,-352,-1159,3235,962
5570,-1968,-1128,-408,-576,2948,942
5575,-1904,-736,-400,-143,2685,921
5580,-1920,-208,-728,187,2465,911
5585,-1912,-112,-384,426,2300,912
5590,-1744,296,-664,569,2192,899
5595,-1504,536,-744,612,2152,894
5600,-1600,680,-760,580,2146,882
5605,-1408,904,-680,499,2129,869
5610,-1616,976,-544,433,2117,863
5615,-1672,1352,-440,392,2038,884
5620,-1768,1192,-136,351,1956,945
5625,-1808,1288,152,368,1885,1014
5630,-1328,1432,40,427,1813,1086
5635,-1344,1352,-96,492,1744,1132
5640,-1328,1288,-216,560,1694,1167
5645,-1152,1240,-192,651,1673,1195
5650,-1288,1232,-152,757,1648,1231
5655,-1080,1072,0,862,1576,1257
5660,-888,1200,-216,939,1486,1247
5665,-920,1248,-24,992,1413,1222
5670,-824,1264,-72,1025,1370,1200
5675,-1048,1264,-32,1056,1331,1187
5680,-1240,1376,120,1055,1275,1172
5685,-1192,1360,104,1014,1195,1152
5690,-1192,1336,40,1018,1126,1112
5695,-1208,1416,-24,1026,1058,1057
5700,-1416,1536,-216,1029,994,1010
5705,-1592,1592,-360,1039,926,1000
5710,-1584,1600,-664,1100,894,990
5715,-1672,1568,-1096,1171,948,941
5720,-2064,1792,-1328,1101,1102,816
5725,-2032,1648,-968,977,1188,695
5730,-2040,1624,-632,934,1119,641
5735,-2192,1816,-688,882,971,594
5740,-2304,1744,-608,802,849,530
5745,-2360,1696,-392,729,749,475
5750,-2272,1768,-392,651,655,436
5755,-1912,1888,-496,573,557,405
5760,-2088,1792,-416,494,459,380
5765,-2032,1928,-384,434,363,346
5770,-1880,2024,-376,392,276,313
5775,-1872,1960,-392,377,201,278
5780,-1888,1592,-56,359,118,243
5785,-1680,1848,-320,350,42,215
5790,-1728,1920,-384,352,-33,180
5795,-1576,2040,-496,324,-105,140
5800,-1776,2072,-576,267,-161,96
5805,-1648,2264,-744,191,-212,50
5810,-1752,2144,-736,98,-252,9
5815,-1600,2024,-760,13,-271,-34
5820,-1568,1976,-840,-59,-277,-78
5825,-1432,1928,-960,-103,-277,-142
5830,-1424,1752,-960,-117,-269,-186
5835,-1360,1656,-968,-105,-258,-217
5840,-1248,1624,-968,-71,-253,-238
5845,-1208,1608,-1016,-16,-237,-248
5850,-1240,1712,-1072,39,-213,-244
5855,-1352,1784,-1328,91,-183,-240
5860,-1344,1592,-1280,127,-148,-239
5865,-1352,1552,-1176,149,-116,-245
5870,-1288,1560,-1144,157,-83,-264
5875,-1296,1296,-1128,159,-48,-285
5880,-1248,1352,-1280,160,-10,-303
5885,-1336,1184,-1104,162,24,-321
5890,-1296,1248,-1216,163,55,-336
5895,-1296,1056,-1224,165,90,-349
5900,-1456,856,-1032,173,130,-369
5905,-1320,1072,-1248,182,164,-379
5910,-1152,1016,-1312,188,188,-387
5915,-1296,904,-1208,188,211,-390
5920,-1368,936,-1288,191,226,-390
5925,-1432,760,-1272,191,237,-386
5930,-1320,864,-1288,190,244,-375
5935,-1344,688,-1240,185,250,-359
5940,-1296,640,-1208,181,257,-338
5945,-1416,736,-1408,180,256,-315
5950,-1504,648,-1200,183,253,-292
5955,-1240,680,-1392,192,247,-273
5960,-1288,640,-1192,203,237,-257
5965,-1376,752,-1296,219,228,-241
5970,-1352,688,-1224,237,214,-226
5975,-1432,704,-1296,253,201,-214
5980,-1400,680,-1208,271,185,-206
5985,-1432,744,-1296,288,174,-197
5990,-1472,672,-1368,306,163,-185
5995,-1472,744,-1296,326,146,-174
6000,-1464,736,-1344,336,126,-166
6005,-1520,752,-1368,338,112,-162
6010,-1528,744,-1344,339,98,-153
6015,-1448,704,-1256,336,78,-149
6020,-1520,728,-1384,326,59,-146
6025,-1552,712,-1288,312,48,-132
6030,-1456,712,-1384,298,40,-121
6035,-1272,872,-1528,294,22,-116
6040,-1408,704,-1392,288,8,-115
6045,-1528,712,-1456,269,-7,-112
6050,-1456,712,-1400,240,-27,-111
6055,-1368,784,-1496,209,-47,-111
6060,-1392,616,-1376,183,-57,-112
6065,-1312,616,-1464,163,-72,-120
6070,-1416,664,-1488,131,-88,-129
6075,-1376,632,-1504,108,-95,-134
6080,-1504,504,-1544,97,-101,-139
6085,-1416,512,-1416,91,-105,-142
6090,-1376,336,-1352,86,-110,-139
6095,-1456,456,-1384,82,-117,-141
6100,-1512,488,-1400,85,-123,-144
6105,-1496,624,-1512,90,-133,-143
6110,-1560,496,-1384,97,-143,-139
6115,-1520,552,-1416,107,-155,-130
6120,-1576,560,-1400,113,-167,-121
6125,-1496,552,-1336,119,-180,-112
6130,-1576,704,-1448,119,-193,-107
6135,-1576,784,-1408,112,-203,-100
6140,-1528,696,-1344,105,-211,-80
6145,-1560,656,-1360,103,-219,-67
6150,-1552,632,-1320,99,-223,-64
6155,-1592,584,-1256,82,-224,-38
6160,-1536,600,-1256,75,-222,-30
6165,-1544,624,-1256,71,-218,-22
6170,-1544,616,-1216,64,-214,-12
6175,-1520,624,-1216,61,-208,-7
6180,-1440,608,-1200,60,-202,2
6185,-1520,616,-1184,58,-198,7
6190,-1504,624,-1200,60,-193,12
6195,-1504,624,-1168,62,-189,18
6200,-1504,648,-1144,63,-185,22
6205,-1472,696,-1288,65,-180,26
6210,-1528,616,-1144,69,-173,28
6215,-1512,648,-1152,74,-165,30
6220,-1504,656,-1120,78,-156,31
6225,-1512,664,-1128,82,-145,31
6230,-1448,688,-1008,84,-132,32
6235,-1504,664,-1080,89,-118,34
6240,-1512,656,-1088,90,-103,35
6245,-1512,656,-1048,89,-90,35
6250,-1504,664,-1064,85,-76,35
6255,-1480,680,-1072,81,-63,38
6260,-1528,728,-1056,75,-51,40
6265,-1536,696,-1056,70,-39,41
6270,-1504,672,-1048,67,-28,44
6275,-1512,696,-1056,62,-15,44
6280,-1504,680,-1064,59,-5,47
6285,-1512,688,-1064,58,2,49
6290,-1512,720,-1064,57,10,50
6295,-1536,728,-1056,56,15,52
6300,-1488,736,-1040,57,20,54
6305,-1528,712,-1080,56,26,54
6310,-1528,728,-1104,57,31,53
6315,-1536,744,-1112,55,38,53
6320,-1520,712,-1120,51,43,50
6325,-1504,824,-1208,50,52,47
6330,-1512,720,-1104,49,60,43
6335,-1528,728,-1128,48,66,41
6340,-1496,728,-1136,47,73,39
6345,-1504,728,-1128,47,80,38
6350,-1488,752,-1112,44,85,36
6355,-1488,728,-1152,44,89,35
6360,-1504,728,-1184,44,92,33
6365,-1496,720,-1144,44,94,32
6370,-1504,744,-1184,45,94,30
6375,-1488,704,-1192,43,94,28
6380,-1472,736,-1184,42,92,25
6385,-1512,744,-1184,40,88,24
6390,-1496,768,-1200,38,87,21
6395,-1456,784,-1160,34,84,20
6400,-1496,776,-1192,32,81,17
6405,-1496,752,-1216,30,80,14
6410,-1512,752,-1232,29,78,10
6415,-1528,728,-1208,30,76,9
6420,-1520,824,-1344,32,75,7
6425,-1496,760,-1216,36,72,3
6430,-1528,720,-1192,38,67,1
6435,-1504,712,-1224,40,63,0
6440,-1512,736,-1216,43,57,-1
6445,-1504,720,-1224,44,51,-6
6450,-1504,728,-1216,46,47,-8
6455,-1520,728,-1240,47,42,-9
6460,-1520,736,-1216,48,39,-10
6465,-1512,720,-1224,49,34,-12
6470,-1504,728,-1216,48,30,-12
6475,-1496,728,-1232,47,27,-11
6480,-1496,728,-1200,44,22,-11
6485,-1488,712,-1216,43,19,-14
6490,-1456,752,-1192,40,15,-14
6495,-1496,720,-1208,37,11,-15
6500,-1488,720,-1200,36,9,-16
6505,-1480,712,-1192,36,6,-19
6510,-1504,728,-1208,34,2,-20
6515,-1568,640,-1160,34,0,-20
6520,-1520,720,-1240,34,-2,-21
6525,-1512,712,-1208,36,-5,-22
6530,-1496,704,-1192,37,-7,-21
6535,-1520,736,-1192,41,-9,-19
6540,-1512,760,-1264,42,-11,-19
6545,-1496,720,-1200,45,-14,-19
6550,-1496,712,-1208,47,-15,-19
6555,-1504,736,-1192,47,-15,-18
6560,-1512,704,-1184,48,-14,-19
6565,-1520,728,-1176,50,-12,-21
6570,-1608,616,-1192,50,-10,-18
6575,-1512,712,-1168,50,-9,-19
6580,-1520,720,-1176,50,-6,-20
6585,-1520,704,-1200,50,-5,-20
6590,-1528,728,-1152,49,-2,-20
6595,-1528,696,-1168,49,-2,-21
6600,-1528,712,-1176,51,0,-19
6605,-1512,712,-1160,52,1,-18
6610,-1504,696,-1200,54,1,-17
6615,-1504,680,-1144,55,2,-15
6620,-1520,728,-1192,56,3,-16
6625,-1504,704,-1192,55,4,-16
6630,-1520,712,-1168,55,6,-14
6635,-1504,688,-1184,54,8,-12
6640,-1512,688,-1152,52,10,-11
6645,-1504,704,-1144,47,14,-9
6650,-1496,704,-1160,42,16,-8
6655,-1496,704,-1168,40,20,-8
6660,-1512,712,-1176,39,20,-6
6665,-1504,736,-1200,37,20,-5
6670,-1520,728,-1152,36,21,-5
6675,-1520,712,-1184,36,23,-3
6680,-1504,680,-1184,36,24,-1
6685,-1512,696,-1176,36,23,0
6690,-1520,720,-1192,34,24,1
6695,-1512,712,-1192,33,25,4
6700,-1512,712,-1208,33,26,7
6705,-1528,712,-1200,33,28,6
6710,-1520,704,-1216,32,30,7
6715,-1512,696,-1208,31,33,7
6720,-1520,720,-1200,31,33,7
6725,-1488,728,-1224,31,35,8
6730,-1488,712,-1168,31,36,6
6735,-1504,696,-1200,31,37,6
6740,-1512,720,-1200,32,36,6
6745,-1512,720,-1224,34,36,7
6750,-1504,720,-1200,35,35,8
6755,-1512,720,-1216,36,34,9
6760,-1512,720,-1176,37,32,7
6765,-1488,704,-1192,37,30,8
6770,-1496,736,-1176,37,29,6
6775,-1496,728,-1200,37,27,7
6780,-1512,720,-1216,37,24,6
6785,-1528,744,-1184,37,23,6
6790,-1512,720,-1192,37,22,7
6795,-1528,744,-1200,38,20,7
6800,-1520,760,-1200,38,18,6
6805,-1496,712,-1192,39,16,4
6810,-1496,712,-1176,40,15,4
6815,-1496,744,-1200,41,13,3
6820,-1504,728,-1168,43,11,-1
6825,-1488,720,-1208,44,11,-2
6830,-1504,728,-1208,44,12,-2
6835,-1504,728,-1192,44,12,-5
6840,-1488,728,-1176,44,13,-5
6845,-1488,712,-1184,43,16,-6
6850,-1496,744,-1200,43,16,-4
6855,-1488,712,-1168,43,17,-5
6860,-1512,712,-1208,43,17,-6
6865,-1512,744,-1192,43,17,-7
6870,-1512,728,-1184,46,16,-8
6875,-1496,744,-1200,47,16,-8
6880,-1504,720,-1168,50,16,-10
6885,-1504,712,-1160,52,17,-10
6890,-1504,736,-1208,55,15,-11
6895,-1496,728,-1192,56,15,-12
6900,-1480,720,-1152,58,14,-14
6905,-1504,720,-1192,59,13,-14
6910,-1488,736,-1184,60,12,-15
6915,-1512,720,-1176,60,11,-16
6920,-1504,728,-1176,59,11,-16
6925,-1480,680,-1176,58,12,-16
6930,-1496,704,-1192,58,11,-17
6935,-1504,720,-1176,58,11,-16
6940,-1496,728,-1184,57,11,-17
6945,-1480,728,-1184,56,10,-18
6950,-1496,712,-1184,56,10,-15
6955,-1488,712,-1168,55,9,-15
6960,-1496,712,-1168,57,8,-15
6965,-1504,712,-1200,58,6,-15
6970,-1520,712,-1192,56,7,-14
6975,-1496,736,-1176,57,7,-15
6980,-1464,720,-1184,55,8,-14
6985,-1512,712,-1168,54,10,-15
6990,-1504,736,-1176,53,11,-16
6995,-1472,712,-1176,54,13,-15
7000,-1520,712,-1200,52,14,-15
7005,-1512,704,-1176,53,14,-13
7010,-1520,728,-1192,52,16,-12
7015,-1504,728,-1192,54,17,-12
7020,-1504,704,-1208,54,16,-12
7025,-1504,704,-1168,54,16,-12
7030,-1504,712,-1192,55,17,-11
7035,-1512,704,-1216,56,18,-9
7040,-1496,720,-1192,55,19,-5
7045,-1520,704,-1192,55,19,-3
7050,-1504,688,-1200,52,19,-3
7055,-1504,712,-1192,50,21,-2
7060,-1528,728,-1208,47,22,-3
7065,-1504,712,-1200,46,21,-1
7070,-1496,712,-1192,46,22,0
7075,-1504,704,-1176,46,21,0
7080,-1504,712,-1160,45,22,0
7085,-1504,728,-1192,45,24,-2
7090,-1504,704,-1192,45,26,-3
7095,-1512,728,-1176,45,28,-3
7100,-1520,728,-1176,44,28,-3
7105,-1504,720,-1184,43,32,-2
7110,-1496,704,-1192,43,33,0
7115,-1488,696,-1144,41,37,0
7120,-1512,720,-1168,42,40,2
7125,-1504,720,-1184,42,42,4
7130,-1504,720,-1192,44,44,5
7135,-1504,728,-1184,43,46,4
7140,-1504,704,-1184,44,47,4
7145,-1496,720,-1200,45,48,4
7150,-1504,704,-1192,49,47,3
7155,-1504,720,-1200,52,47,5
7160,-1520,728,-1216,52,46,3
7165,-1520,728,-1200,54,45,4
7170,-1520,736,-1176,56,42,3
7175,-1488,720,-1200,59,41,4
7180,-1504,712,-1192,59,38,1
7185,-1520,736,-1168,60,38,1
7190,-1512,736,-1168,61,37,1
7195,-1504,744,-1176,60,35,2
7200,-1512,720,-1208,60,36,2
7205,-1480,728,-1208,59,36,1
7210,-1496,744,-1168,53,35,-2
7215,-1496,720,-1216,50,34,-1
7220,-1480,728,-1192,49,34,-4
7225,-1488,720,-1168,46,34,-3
7230,-1472,720,-1216,45,34,-5
7235,-1504,728,-1200,45,33,-4
7240,-1488,720,-1176,45,33,-6
7245,-1504,728,-1192,46,33,-4
7250,-1488,720,-1192,49,35,-3
7255,-1488,728,-1176,47,35,-5
7260,-1480,720,-1184,45,35,-5
7265,-1512,712,-1216,45,38,-3
7270,-1480,720,-1216,47,38,-4
7275,-1480,720,-1208,48,38,-2
7280,-1480,728,-1224,48,37,-1
7285,-1480,712,-1200,51,38,-1
7290,-1496,728,-1232,52,36,1
7295,-1480,736,-1184,49,34,-1
7300,-1488,712,-1200,48,33,-1
7305,-1488,744,-1200,50,31,0
7310,-1496,728,-1184,49,30,1
7315,-1496,720,-1200,48,30,1
7320,-1480,720,-1224,46,27,2
7325,-1472,720,-1216,46,26,3
7330,-1480,720,-1200,47,26,4
7335,-1488,744,-1224,46,24,3
7340,-1440,704,-1184,46,22,2
7345,-1480,744,-1192,48,22,4
7350,-1480,712,-1216,47,21,3
7355,-1496,720,-1184,42,20,4
7360,-1480,736,-1200,39,20,2
7365,-1488,736,-1192,38,21,0
7370,-1504,744,-1192,37,22,-1
7375,-1496,728,-1184,36,21,1
7380,-1480,736,-1192,35,22,-2
7385,-1472,720,-1224,36,21,-3
7390,-1488,728,-1216,35,20,-2
7395,-1480,712,-1168,34,20,-2
7400,-1488,728,-1184,38,21,-2
7405,-1488,728,-1208,37,19,-5
7410,-1496,712,-1192,37,21,-2
7415,-1504,744,-1192,39,20,-2
7420,-1472,712,-1176,34,18,-2
7425,-1480,744,-1224,30,18,-3
7430,-1512,752,-1216,31,19,-1
7435,-1480,704,-1200,30,17,-1
7440,-1496,736,-1216,32,18,1
7445,-1488,720,-1232,32,19,3
7450,-1496,728,-1184,32,20,2
7455,-1504,736,-1184,33,22,2
7460,-1504,736,-1176,33,24,4
7465,-1496,752,-1200,37,26,3
7470,-1520,720,-1192,37,26,2
7475,-1504,736,-1192,37,26,1
7480,-1480,720,-1200,36,27,-1
7485,-1488,728,-1192,39,29,0
7490,-1480,688,-1224,39,31,1
7495,-1512,720,-1208,36,31,-1
7500,-1440,744,-1160,35,30,0
7505,-1472,720,-1208,35,29,-1
7510,-1472,728,-1152,34,29,-1
7515,-1496,752,-1192,33,29,2
7520,-1512,744,-1216,33,29,2
7525,-1480,728,-1192,34,31,3
7530,-1488,728,-1216,33,31,3
7535,-1488,736,-1216,34,31,4
7540,-1480,736,-1192,32,30,2
7545,-1480,736,-1176,31,30,4
7550,-1472,728,-1184,30,29,4
7555,-1480,736,-1208,31,29,2
7560,-1488,752,-1192,30,27,-1
7565,-1496,752,-1192,33,26,0
7570,-1488,728,-1224,34,25,0
7575,-1480,752,-1192,35,24,0
7580,-1488,744,-1216,37,23,0
7585,-1488,744,-1192,38,21,-1
7590,-1504,728,-1232,39,20,-2
7595,-1464,752,-1176,41,17,-3
7600,-1456,728,-1208,41,17,-1
7605,-1464,736,-1184,40,16,-1
7610,-1488,736,-1216,42,14,0
7615,-1480,728,-1184,42,14,-2
7620,-1496,752,-1216,41,13,-1
7625,-1488,736,-1216,41,11,-2
7630,-1472,720,-1184,41,11,-1
7635,-1488,728,-1208,41,11,-2
7640,-1480,752,-1200,40,9,-3
7645,-1472,752,-1208,40,9,-3
7650,-1480,720,-1192,41,9,-4
7655,-1472,760,-1208,39,9,-5
7660,-1472,736,-1200,40,8,-7
7665,-1480,752,-1176,39,8,-6
7670,-1504,760,-1168,38,10,-6
7675,-1472,744,-1208,39,9,-9
7680,-1480,736,-1192,39,9,-9
7685,-1488,728,-1184,41,7,-9
7690,-1480,720,-1208,41,6,-8
7695,-1464,744,-1200,42,5,-10
7700,-1456,720,-1208,41,3,-8
7705,-1512,744,-1160,40,2,-10
7710,-1504,736,-1200,39,1,-8
7715,-1504,736,-1208,38,1,-7
7720,-1496,728,-1200,38,-1,-8
7725,-1496,752,-1200,38,0,-8
7730,-1480,744,-1192,38,-1,-8
7735,-1496,744,-1176,37,-1,-8
7740,-1496,760,-1192,37,-1,-10
7745,-1504,728,-1192,38,-2,-9
7750,-1472,720,-1216,37,0,-11
7755,-1488,736,-1200,39,0,-11
7760,-1480,736,-1184,37,1,-8
7765,-1472,728,-1200,37,1,-10
7770,-1480,728,-1192,37,1,-10
7775,-1456,720,-1168,37,2,-10
7780,-1472,728,-1184,35,2,-9
7785,-1496,736,-1184,34,3,-10
7790,-1472,712,-1184,34,4,-8
7795,-1512,728,-1208,35,5,-9
7800,-1496,728,-1184,35,7,-8
7805,-1488,744,-1176,33,9,-5
7810,-1488,728,-1176,30,10,-5
7815,-1472,704,-1176,28,13,-5
7820,-1480,736,-1176,26,14,-5
7825,-1480,704,-1208,24,15,-6
7830,-1472,744,-1184,23,16,-6
7835,-1464,712,-1216,23,17,-6
7840,-1480,736,-1184,23,17,-4
7845,-1512,736,-1192,24,17,-1
7850,-1520,752,-1184,24,18,1
7855,-1496,712,-1144,27,16,2
7860,-1496,712,-1200,25,18,3
7865,-1480,736,-1192,27,17,2
7870,-1488,744,-1184,28,17,2
7875,-1488,728,-1200,30,18,2
7880,-1480,744,-1176,30,18,4
7885,-1472,768,-1216,31,19,3
7890,-1512,744,-1160,28,22,5
7895,-1472,752,-1208,28,22,5
7900,-1480,752,-1192,25,23,5
7905,-1488,744,-1192,25,24,4
7910,-1488,720,-1176,25,24,5
7915,-1488,752,-1184,25,26,4
7920,-1472,720,-1208,25,27,5
7925,-1496,776,-1192,23,29,4
7930,-1488,752,-1200,23,31,4
7935,-1472,752,-1176,22,32,5
7940,-1488,760,-1184,22,35,6
7945,-1480,744,-1192,19,35,6
7950,-1496,744,-1216,20,34,7
7955,-1480,752,-1192,18,34,8
7960,-1480,744,-1200,19,34,9
7965,-1512,720,-1192,19,33,9
7970,-1480,744,-1224,21,31,11
7975,-1496,744,-1232,23,29,11
7980,-1472,744,-1192,25,28,10
7985,-1472,736,-1208,25,27,11
7990,-1504,768,-1216,27,25,12
7995,-1496,752,-1216,27,25,11
8000,-1488,776,-1192,29,24,11
8005,-1472,768,-1224,31,22,13
8010,-1488,784,-1200,30,20,11
8015,-1504,768,-1192,32,19,11
8020,-1464,736,-1216,34,19,12
8025,-1464,736,-1184,34,19,9
8030,-1464,760,-1184,34,19,10
8035,-1472,752,-1176,33,17,9
8040,-1480,752,-1200,32,17,9
8045,-1488,768,-1200,31,16,9
8050,-1472,752,-1176,32,17,7
8055,-1496,744,-1200,32,17,6
8060,-1480,744,-1184,33,17,5
8065,-1504,752,-1200,32,17,5
8070,-1464,768,-1200,32,18,4
8075,-1480,768,-1192,31,19,3
8080,-1504,768,-1160,30,19,1
8085,-1480,768,-1144,32,19,2
8090,-1472,768,-1184,33,19,2
8095,-1464,752,-1192,34,20,0
8100,-1464,752,-1200,34,21,-2
8105,-1480,744,-1208,34,21,-1
8110,-1472,752,-1192,35,21,-3
8115,-1488,752,-1192,33,21,-2
8120,-1464,776,-1200,34,19,-3
8125,-1480,784,-1200,35,19,-5
8130,-1488,752,-1232,35,18,-6
8135,-1488,776,-1192,35,18,-7
8140,-1472,736,-1184,38,16,-8
8145,-1488,760,-1216,39,17,-8
8150,-1480,776,-1176,40,18,-9
8155,-1480,744,-1208,40,17,-8
8160,-1496,768,-1208,39,18,-5
8165,-1496,744,-1200,38,20,-8
8170,-1488,776,-1208,39,19,-8
8175,-1496,776,-1184,38,18,-8
8180,-1472,776,-1192,39,19,-8
8185,-1488,776,-1184,39,20,-8
8190,-1496,760,-1208,40,19,-10
8195,-1464,752,-1200,40,17,-10
8200,-1464,768,-1192,40,17,-12
8205,-1480,776,-1200,41,17,-12
8210,-1488,760,-1176,43,14,-12
8215,-1488,760,-1216,44,15,-13
8220,-1464,752,-1168,48,13,-13
8225,-1488,760,-1208,47,14,-14
8230,-1488,728,-1184,47,14,-14
8235,-1456,736,-1200,48,12,-15
8240,-1480,760,-1184,49,11,-14
8245,-1448,752,-1176,50,12,-15
8250,-1472,744,-1224,49,12,-13
8255,-1488,768,-1208,48,13,-14
8260,-1472,744,-1224,48,12,-15
8265,-1472,744,-1176,45,13,-13
8270,-1472,752,-1200,44,13,-12
8275,-1480,760,-1168,43,13,-15
8280,-1488,752,-1184,42,13,-14
8285,-1472,744,-1200,40,13,-13
8290,-1464,760,-1168,40,14,-13
8295,-1472,744,-1192,40,15,-14
8300,-1464,744,-1200,41,16,-12
8305,-1464,736,-1176,41,15,-11
8310,-1488,760,-1192,42,17,-11
8315,-1472,744,-1192,43,17,-9
8320,-1464,760,-1192,42,18,-9
8325,-1488,744,-1168,43,19,-7
8330,-1448,760,-1184,42,19,-5
8335,-1464,752,-1184,44,21,-6
8340,-1472,760,-1184,43,22,-6
8345,-1480,760,-1184,43,22,-5
8350,-1472,736,-1184,42,22,-4
8355,-1440,760,-1192,43,22,-4
8360,-1464,768,-1200,41,23,-4
8365,-1488,752,-1240,39,22,-3
8370,-1496,776,-1200,38,24,-2
8375,-1472,760,-1184,37,24,-2
8380,-1472,752,-1200,35,25,0
8385,-1488,736,-1192,33,26,-1
8390,-1496,744,-1192,31,25,1
8395,-1488,784,-1160,32,26,0
8400,-1504,760,-1200,31,26,2
8405,-1488,760,-1184,32,25,2
8410,-1480,760,-1176,33,24,3
8415,-1464,728,-1184,33,24,5
8420,-1480,760,-1200,33,23,4
8425,-1480,776,-1168,32,23,7
8430,-1464,752,-1176,32,23,6
8435,-1496,752,-1224,31,23,5
8440,-1464,744,-1216,30,21,4
8445,-1456,752,-1200,29,21,4
8450,-1480,768,-1216,27,21,4
8455,-1512,752,-1176,28,21,0
8460,-1472,760,-1224,30,21,-2
8465,-1472,776,-1192,31,21,-2
8470,-1472,800,-1184,33,21,-2
8475,-1488,776,-1208,34,19,-4
8480,-1480,760,-1232,34,18,-5
8485,-1464,760,-1176,37,18,-7
8490,-1480,768,-1200,37,19,-6
8495,-1480,744,-1208,37,20,-7
8500,-1496,768,-1184,36,19,-7
8505,-1464,736,-1216,37,19,-7
8510,-1472,768,-1192,39,21,-7
8515,-1480,752,-1224,38,22,-8
8520,-1472,712,-1200,39,22,-6
8525,-1496,752,-1184,40,23,-7
8530,-1504,776,-1192,41,23,-6
8535,-1472,768,-1200,41,21,-8
8540,-1472,760,-1192,40,20,-7
8545,-1480,776,-1192,41,20,-8
8550,-1472,784,-1160,41,19,-8
8555,-1464,792,-1176,42,18,-10
8560,-1456,768,-1184,43,18,-11
8565,-1488,768,-1216,45,18,-9
8570,-1480,752,-1168,45,18,-11
8575,-1448,768,-1200,47,18,-9
8580,-1464,752,-1200,46,18,-10
8585,-1480,776,-1192,46,19,-12
8590,-1456,768,-1216,45,17,-12
8595,-1464,792,-1200,46,18,-12
8600,-1472,760,-1184,45,17,-11
8605,-1480,776,-1192,45,17,-13
8610,-1464,752,-1224,44,17,-14
8615,-1464,760,-1192,44,17,-14
8620,-1456,760,-1168,45,17,-13
8625,-1464,752,-1184,44,16,-14
8630,-1480,760,-1184,45,17,-15
8635,-1472,744,-1192,44,17,-14
8640,-1456,776,-1168,43,16,-14
8645,-1464,776,-1192,43,18,-15
8650,-1496,776,-1208,44,19,-13
8655,-1464,760,-1200,43,19,-13
8660,-1472,768,-1192,43,20,-12
8665,-1464,752,-1208,44,19,-15
8670,-1472,784,-1224,44,18,-14
8675,-1464,744,-1208,45,18,-14
8680,-1464,768,-1192,47,16,-13
8685,-1472,776,-1192,49,17,-15
8690,-1480,768,-1200,51,17,-16
8695,-1480,768,-1176,52,18,-16
8700,-1464,784,-1192,55,20,-17
8705,-1448,752,-1224,56,20,-15
8710,-1480,776,-1224,58,21,-16
8715,-1472,768,-1200,59,22,-14
8720,-1472,776,-1176,59,22,-15
8725,-1496,768,-1176,60,22,-16
8730,-1488,760,-1200,61,22,-17
8735,-1488,776,-1232,62,23,-17
8740,-1472,768,-1192,63,23,-16
8745,-1472,744,-1176,64,22,-18
8750,-1496,768,-1208,67,23,-20
8755,-1496,800,-1200,69,23,-21
8760,-1496,784,-1216,71,24,-21
8765,-1488,752,-1208,72,26,-20
8770,-1496,752,-1200,72,26,-21
8775,-1496,760,-1184,73,28,-22
8780,-1496,760,-1176,73,31,-20
8785,-1480,760,-1176,73,33,-19
8790,-1488,752,-1208,71,38,-17
8795,-1480,744,-1192,70,41,-13
8800,-1480,760,-1192,71,46,-12
8805,-1488,736,-1208,71,49,-11
8810,-1464,712,-1184,70,52,-9
8815,-1480,728,-1192,71,56,-6
8820,-1480,752,-1200,72,59,-2
8825,-1472,760,-1184,73,60,0
8830,-1504,776,-1216,74,63,2
8835,-1488,736,-1176,77,64,5
8840,-1480,736,-1192,82,67,7
8845,-1488,760,-1208,82,70,8
8850,-1472,736,-1208,83,74,12
8855,-1496,744,-1216,85,77,15
8860,-1496,768,-1208,84,80,17
8865,-1472,760,-1232,84,84,18
8870,-1488,736,-1224,85,86,19
8875,-1480,768,-1208,86,89,22
8880,-1504,728,-1224,87,92,24
8885,-1464,728,-1232,89,95,27
8890,-1480,760,-1208,92,100,29
8895,-1496,760,-1200,97,102,31
8900,-1472,744,-1216,98,106,33
8905,-1456,752,-1200,98,107,33
8910,-1472,752,-1216,100,109,35
8915,-1472,784,-1256,101,110,36
8920,-1456,776,-1208,101,110,35
8925,-1440,768,-1216,101,110,35
8930,-1416,768,-1224,103,110,30
8935,-1432,776,-1216,102,110,32
8940,-1440,752,-1224,102,107,30
8945,-1424,752,-1216,105,105,30
8950,-1456,784,-1232,107,101,28
8955,-1448,784,-1224,111,98,24
8960,-1448,792,-1216,112,94,22
8965,-1432,800,-1240,112,92,21
8970,-1448,776,-1240,110,90,17
8975,-1440,792,-1232,110,87,14
8980,-1408,776,-1248,105,86,12
8985,-1456,784,-1232,101,85,12
8990,-1416,784,-1240,99,84,11
8995,-1432,776,-1208,97,85,7
9000,-1416,776,-1232,96,85,6
9005,-1424,776,-1208,94,86,6
9010,-1432,728,-1200,93,87,8
9015,-1440,752,-1184,93,86,8
9020,-1400,752,-1216,90,84,9
9025,-1400,752,-1224,92,87,11
9030,-1432,768,-1232,88,85,13
9035,-1408,752,-1208,81,84,14
9040,-1400,744,-1208,75,82,15
9045,-1400,744,-1232,70,82,17
9050,-1368,736,-1192,64,83,16
9055,-1392,728,-1216,60,82,18
9060,-1408,744,-1232,56,81,19
9065,-1432,744,-1224,53,83,20
9070,-1432,768,-1240,50,86,21
9075,-1424,752,-1240,47,87,21
9080,-1432,760,-1224,47,91,23
9085,-1448,736,-1240,49,95,21
9090,-1440,736,-1264,53,97,23
9095,-1440,752,-1256,55,97,24
9100,-1440,760,-1240,56,97,28
9105,-1432,744,-1264,60,97,28
9110,-1472,752,-1248,63,93,30
9115,-1456,736,-1248,68,91,32
9120,-1456,736,-1272,71,92,35
9125,-1408,792,-1296,75,89,39
9130,-1440,760,-1272,79,87,39
9135,-1448,776,-1264,79,83,41
9140,-1448,784,-1264,80,79,42
9145,-1416,784,-1296,81,75,38
9150,-1432,784,-1280,83,71,36
9155,-1424,768,-1272,83,67,33
9160,-1448,760,-1280,85,63,28
9165,-1432,776,-1280,88,59,26
9170,-1424,768,-1280,88,54,23
9175,-1432,752,-1264,91,49,22
9180,-1424,752,-1288,94,44,21
9185,-1432,752,-1264,97,41,20
9190,-1432,760,-1272,99,38,22
9195,-1400,744,-1272,100,35,22
9200,-1408,728,-1272,104,32,18
9205,-1424,760,-1256,107,27,22
9210,-1392,752,-1272,104,26,26
9215,-1408,752,-1248,101,27,26
9220,-1384,760,-1240,96,23,26
9225,-1368,768,-1248,89,21,26
9230,-1360,760,-1264,84,22,29
9235,-1376,768,-1256,75,21,31
9240,-1392,784,-1240,69,19,30
9245,-1384,760,-1232,63,15,27
9250,-1384,744,-1248,57,11,23
9255,-1368,736,-1240,55,11,21
9260,-1368,752,-1248,53,7,17
9265,-1384,760,-1256,49,4,15
9270,-1376,752,-1232,42,-1,10
9275,-1384,752,-1256,39,-6,4
9280,-1384,736,-1256,36,-8,0
9285,-1376,768,-1232,35,-9,-4
9290,-1400,752,-1240,34,-9,-7
9295,-1424,752,-1256,34,-11,-8
9300,-1432,768,-1256,36,-11,-9
9305,-1408,768,-1248,37,-10,-10
9310,-1400,776,-1248,37,-11,-13
9315,-1416,744,-1264,36,-8,-14
9320,-1416,768,-1240,33,-6,-14
9325,-1408,784,-1232,30,-3,-16
9330,-1392,792,-1232,28,1,-20
9335,-1368,792,-1264,23,4,-21
9340,-1408,776,-1240,20,7,-22
9345,-1360,760,-1208,16,8,-25
9350,-1392,808,-1224,12,8,-24
9355,-1408,760,-1256,9,10,-27
9360,-1440,760,-1256,9,12,-29
9365,-1424,752,-1256,8,12,-29
9370,-1440,752,-1272,8,12,-28
9375,-1424,760,-1248,9,13,-25
9380,-1416,752,-1264,10,14,-23
9385,-1424,744,-1272,12,17,-22
9390,-1456,752,-1296,15,17,-20
9395,-1440,792,-1264,14,18,-18
9400,-1440,776,-1256,14,20,-16
9405,-1440,768,-1272,14,20,-16
9410,-1424,768,-1272,14,22,-14
9415,-1432,760,-1272,12,23,-15
9420,-1424,776,-1288,12,24,-15
9425,-1408,744,-1288,12,26,-17
9430,-1408,784,-1264,12,28,-13
9435,-1424,768,-1272,12,29,-14
9440,-1424,768,-1256,10,27,-13
9445,-1400,768,-1248,8,28,-15
9450,-1392,776,-1256,7,30,-16
9455,-1392,760,-1232,7,30,-18
9460,-1384,784,-1232,8,28,-19
9465,-1400,760,-1272,10,30,-20
9470,-1392,776,-1256,12,33,-19
9475,-1400,792,-1256,12,32,-19
9480,-1416,792,-1224,9,29,-18
9485,-1424,776,-1232,5,30,-19
9490,-1392,760,-1256,8,34,-20
9495,-1424,776,-1240,10,32,-21
9500,-1424,784,-1256,11,29,-19
9505,-1432,768,-1248,15,28,-18
9510,-1392,760,-1232,19,27,-18
9515,-1424,792,-1288,20,25,-19
9520,-1416,784,-1272,18,21,-21
9525,-1408,784,-1256,21,17,-22
9530,-1432,776,-1280,24,13,-24
9535,-1424,776,-1248,26,11,-26
9540,-1416,808,-1280,28,6,-28
9545,-1416,784,-1224,30,4,-29
9550,-1424,776,-1264,34,1,-31
9555,-1400,768,-1272,39,1,-32
9560,-1416,776,-1272,42,-2,-34
9565,-1416,768,-1256,42,-3,-36
9570,-1448,776,-1256,42,-5,-37
9575,-1456,808,-1248,43,-6,-40
9580,-1432,768,-1264,46,-7,-43
9585,-1440,776,-1240,48,-7,-46
9590,-1424,760,-1240,46,-7,-46
9595,-1440,736,-1256,41,-7,-46
9600,-1416,760,-1224,40,-5,-46
9605,-1424,744,-1264,40,-2,-46
9610,-1448,744,-1272,41,0,-45
9615,-1424,744,-1264,40,1,-42
9620,-1448,744,-1256,39,3,-41
9625,-1424,736,-1248,38,6,-39
9630,-1432,744,-1264,41,7,-37
9635,-1448,768,-1240,45,10,-33
9640,-1440,752,-1288,46,11,-31
9645,-1456,752,-1256,44,10,-28
9650,-1440,752,-1264,44,10,-23
9655,-1432,784,-1264,47,8,-19
9660,-1416,752,-1272,44,8,-16
9665,-1432,744,-1240,41,8,-12
9670,-1432,760,-1272,39,9,-7
9675,-1424,760,-1288,35,7,-2
9680,-1432,744,-1240,31,7,3
9685,-1432,752,-1256,29,7,5
9690,-1408,752,-1264,26,8,9
9695,-1424,760,-1240,23,7,13
9700,-1400,776,-1248,21,4,17
9705,-1416,752,-1272,18,4,21
9710,-1424,752,-1264,15,0,21
9715,-1416,760,-1264,14,0,24
9720,-1440,776,-1280,11,-3,23
9725,-1400,760,-1248,11,-5,23
9730,-1432,768,-1280,12,-7,21
9735,-1424,776,-1256,13,-10,20
9740,-1456,784,-1256,15,-12,19
9745,-1432,776,-1256,17,-11,21
9750,-1424,792,-1248,19,-11,22
9755,-1424,760,-1224,21,-11,20
9760,-1440,768,-1216,23,-9,22
9765,-1432,800,-1240,25,-7,20
9770,-1432,776,-1216,28,-5,19
9775,-1432,784,-1200,31,-5,17
9780,-1408,776,-1264,33,-5,16
9785,-1400,792,-1248,36,-3,12
9790,-1432,808,-1232,38,0,10
9795,-1400,792,-1240,39,2,7
9800,-1424,800,-1248,41,3,5
9805,-1416,784,-1240,42,6,2
9810,-1408,784,-1256,40,8,0
9815,-1400,792,-1224,40,11,-1
9820,-1416,792,-1224,41,13,-2
9825,-1424,808,-1256,40,15,-7
9830,-1416,784,-1256,41,16,-10
9835,-1432,792,-1240,42,17,-13
9840,-1424,784,-1256,44,19,-15
9845,-1416,768,-1248,46,21,-16
9850,-1416,808,-1248,47,21,-19
9855,-1440,816,-1264,49,20,-20
9860,-1400,752,-1248,49,20,-22
9865,-1416,792,-1240,50,20,-23
9870,-1432,768,-1248,50,19,-24
9875,-1424,792,-1272,51,17,-24
9880,-1408,768,-1264,52,19,-25
9885,-1432,768,-1232,54,18,-26
9890,-1424,752,-1224,54,18,-27
9895,-1408,784,-1248,52,18,-25
9900,-1424,760,-1272,53,19,-26
9905,-1416,760,-1232,54,20,-24
9910,-1416,752,-1208,53,20,-24
9915,-1432,776,-1224,52,20,-21
9920,-1408,776,-1248,51,20,-21
9925,-1416,776,-1248,51,22,-18
9930,-1408,784,-1256,49,21,-16
9935,-1392,776,-1248,47,20,-14
9940,-1424,768,-1248,46,19,-14
9945,-1424,768,-1248,44,17,-13
9950,-1416,776,-1240,43,14,-11
9955,-1416,768,-1248,41,12,-10
9960,-1456,768,-1240,41,9,-7
9965,-1408,768,-1272,37,7,-5
9970,-1424,752,-1264,36,5,-5
9975,-1424,760,-1272,35,3,-5
9980,-1424,776,-1240,35,2,-4
9985,-1432,768,-1256,33,-1,-3
9990,-1440,760,-1248,34,-2,-4
9995,-1432,776,-1240,33,-2,-3
10000,-1432,768,-1264,33,-4,-3
10005,-1424,792,-1264,32,-3,-3
10010,-1408,776,-1272,29,-3,-2
10015,-1424,776,-1248,28,-3,-1
10020,-1424,792,-1232,28,-2,0
10025,-1400,768,-1248,26,-2,0
10030,-1432,776,-1232,26,-1,-1
10035,-1424,776,-1256,25,-2,0
10040,-1408,792,-1248,26,-2,-2
10045,-1416,768,-1224,27,-1,-2
10050,-1408,776,-1248,27,0,-2
10055,-1424,808,-1248,27,2,-1
10060,-1416,800,-1192,29,2,-3
10065,-1440,792,-1248,29,3,-5
10070,-1440,784,-1248,30,2,-4
10075,-1440,784,-1216,31,2,-5
10080,-1432,800,-1232,32,1,-5
10085,-1400,800,-1232,33,3,-6
10090,-1408,776,-1232,36,3,-5
10095,-1424,776,-1240,36,2,-6
10100,-1424,792,-1256,37,2,-4
10105,-1408,776,-1256,40,2,-3
10110,-1424,784,-1248,42,1,-3
10115,-1424,792,-1248,44,1,-3
10120,-1416,792,-1232,45,4,-4
10125,-1448,776,-1200,46,4,-3
10130,-1432,768,-1224,44,4,-6
10135,-1416,776,-1224,44,3,-7
10140,-1408,808,-1232,45,4,-7
10145,-1432,784,-1232,44,4,-8
10150,-1416,784,-1256,43,5,-11
10155,-1440,784,-1224,42,7,-11
10160,-1440,792,-1232,41,8,-12
10165,-1408,784,-1216,41,10,-13
10170,-1432,776,-1216,43,13,-14
10175,-1416,808,-1264,42,11,-13
10180,-1400,776,-1216,42,13,-13
10185,-1400,784,-1232,41,14,-12
10190,-1432,792,-1248,42,13,-11
10195,-1432,792,-1240,40,12,-10
10200,-1432,776,-1248,41,11,-10
10205,-1424,800,-1232,41,8,-11
10210,-1408,784,-1232,41,7,-12
10215,-1416,776,-1264,40,6,-10
10220,-1432,800,-1232,40,6,-11
10225,-1424,776,-1264,40,5,-11
10230,-1440,776,-1216,40,5,-12
10235,-1432,776,-1224,41,4,-11
10240,-1448,792,-1216,43,4,-12
10245,-1424,760,-1216,43,6,-12
10250,-1424,768,-1248,42,5,-13
10255,-1432,800,-1256,43,8,-12
10260,-1408,792,-1240,43,9,-11
10265,-1424,792,-1232,44,9,-13
10270,-1416,784,-1240,44,11,-12
10275,-1400,784,-1256,45,11,-12
10280,-1400,784,-1240,44,11,-13
10285,-1424,808,-1256,45,10,-13
10290,-1400,792,-1200,44,11,-12
10295,-1416,776,-1240,44,9,-11
10300,-1400,776,-1208,43,8,-12
10305,-1424,792,-1232,40,8,-10
10310,-1400,760,-1256,38,8,-9
10315,-1416,760,-1256,36,8,-8
10320,-1440,776,-1248,36,7,-8
10325,-1424,752,-1248,34,6,-7
10330,-1424,752,-1232,33,7,-4
10335,-1448,760,-1224,33,8,-5
10340,-1440,792,-1248,33,7,-2
10345,-1424,752,-1224,33,7,0
10350,-1440,784,-1232,33,6,-1
10355,-1424,776,-1224,31,5,-3
10360,-1424,760,-1248,32,4,-4
10365,-1440,800,-1256,35,3,-7
10370,-1432,800,-1248,34,2,-6
10375,-1456,792,-1232,34,3,-6
10380,-1424,784,-1232,34,4,-7
10385,-1416,776,-1256,39,6,-6
10390,-1424,768,-1232,41,7,-7
10395,-1424,792,-1200,40,10,-7
10400,-1432,752,-1256,45,13,-8
10405,-1456,792,-1240,49,15,-8
10410,-1464,808,-1216,44,14,-9
10415,-1432,776,-1208,41,13,-8
10420,-1440,808,-1224,40,16,-9
10425,-1408,792,-1264,40,17,-9
10430,-1440,784,-1272,40,17,-10
10435,-1432,800,-1256,40,19,-10
10440,-1432,800,-1224,40,19,-10
10445,-1416,760,-1248,40,18,-10
10450,-1432,816,-1224,40,18,-10
10455,-1432,792,-1240,41,19,-8
10460,-1432,808,-1232,43,18,-10
10465,-1448,792,-1280,42,19,-11
10470,-1416,784,-1248,44,18,-8
10475,-1416,776,-1224,44,17,-9
10480,-1448,800,-1224,45,17,-9
10485,-1440,824,-1248,46,17,-11
10490,-1416,768,-1240,46,16,-10
10495,-1448,792,-1232,46,15,-12
10500,-1448,824,-1264,48,15,-14
10505,-1440,808,-1272,49,14,-15
10510,-1440,792,-1224,50,15,-17
10515,-1400,808,-1232,50,14,-15
10520,-1424,792,-1232,50,12,-16
10525,-1416,776,-1232,50,12,-16
10530,-1392,784,-1216,50,11,-17
10535,-1424,800,-1248,51,10,-17
10540,-1456,808,-1216,51,9,-15
10545,-1408,784,-1240,49,9,-17
10550,-1416,792,-1224,50,6,-15
10555,-1440,808,-1248,49,7,-17
10560,-1432,784,-1224,48,5,-16
10565,-1440,784,-1248,47,4,-17
10570,-1416,776,-1224,47,3,-17
10575,-1416,784,-1216,45,3,-16
10580,-1416,744,-1224,45,4,-16
10585,-1416,784,-1224,43,4,-15
10590,-1440,776,-1232,45,5,-14
10595,-1408,792,-1248,43,4,-13
10600,-1424,792,-1208,42,6,-13
10605,-1392,776,-1232,41,8,-10
10610,-1424,784,-1216,40,7,-9
10615,-1408,784,-1232,38,6,-9
10620,-1424,808,-1240,36,7,-10
10625,-1400,760,-1224,36,5,-10
10630,-1416,784,-1248,36,5,-9
10635,-1424,792,-1248,37,8,-10
10640,-1448,808,-1224,39,9,-10
10645,-1448,768,-1256,40,9,-8
10650,-1432,800,-1216,45,12,-9
10655,-1432,776,-1216,56,19,-7
10660,-1424,792,-1184,52,15,-8
10665,-1408,776,-1240,49,13,-8
10670,-1440,752,-1216,64,24,-12
10675,-1504,864,-1216,76,24,-5
10680,-1464,808,-1216,55,12,-3
10685,-1448,808,-1208,49,12,-3
10690,-1448,808,-1216,45,13,-5
10695,-1424,792,-1248,41,15,-9
10700,-1416,784,-1240,39,15,-10
10705,-1440,792,-1240,40,16,-11
10710,-1416,768,-1248,40,18,-9
10715,-1440,784,-1216,41,18,-10
10720,-1424,784,-1232,41,19,-10
10725,-1432,784,-1232,42,19,-10
10730,-1424,784,-1216,43,20,-8
10735,-1408,776,-1248,43,20,-9
10740,-1464,800,-1240,44,19,-8
10745,-1456,768,-1240,44,22,-8
10750,-1432,808,-1240,44,23,-10
10755,-1424,792,-1240,43,24,-9
10760,-1424,768,-1240,44,23,-8
10765,-1416,768,-1216,44,25,-9
10770,-1432,808,-1200,43,26,-9
10775,-1392,776,-1224,43,25,-11
10780,-1416,800,-1208,43,24,-13
10785,-1432,768,-1224,43,23,-12
10790,-1424,784,-1248,44,23,-12
10795,-1432,776,-1224,44,24,-12
10800,-1432,792,-1232,45,24,-14
10805,-1424,800,-1232,45,25,-15
10810,-1416,800,-1240,45,25,-16
10815,-1448,728,-1192,44,26,-15
10820,-1400,848,-1320,46,24,-16
10825,-1416,784,-1280,46,25,-15
10830,-1424,776,-1232,45,25,-16
10835,-1424,776,-1224,44,25,-14
10840,-1416,784,-1232,44,25,-14
10845,-1408,792,-1256,44,25,-13
10850,-1424,768,-1224,45,24,-13
10855,-1424,784,-1216,45,26,-11
10860,-1424,776,-1208,44,25,-11
10865,-1440,800,-1232,44,26,-12
10870,-1416,792,-1224,42,26,-12
10875,-1456,784,-1216,43,26,-13
10880,-1416,784,-1240,43,26,-12
10885,-1392,784,-1248,43,25,-11
10890,-1408,784,-1240,44,23,-11
10895,-1424,800,-1240,44,22,-12
10900,-1400,792,-1208,43,20,-13
10905,-1424,768,-1240,45,20,-14
10910,-1392,784,-1232,44,20,-15
10915,-1408,792,-1248,45,18,-17
10920,-1416,808,-1224,45,17,-18
10925,-1424,792,-1224,46,15,-19
10930,-1432,800,-1216,47,13,-20
10935,-1424,784,-1224,47,10,-21
10940,-1424,784,-1256,47,8,-22
10945,-1440,792,-1232,47,6,-22
10950,-1416,776,-1256,46,5,-19
10955,-1440,792,-1240,45,3,-20
10960,-1400,776,-1264,46,1,-21
10965,-1424,776,-1224,46,0,-21
10970,-1416,784,-1256,46,-1,-21
10975,-1408,776,-1248,45,-3,-22
10980,-1432,792,-1240,45,-3,-22
10985,-1440,792,-1232,45,-3,-21
10990,-1432,776,-1232,43,-6,-23
10995,-1424,776,-1240,41,-8,-22
11000,-1432,792,-1248,42,-10,-24
11005,-1456,784,-1240,42,-12,-24
11010,-1432,784,-1216,41,-13,-23
11015,-1440,784,-1224,42,-12,-24
11020,-1432,784,-1216,41,-10,-23
11025,-1456,768,-1232,41,-12,-21
11030,-1440,784,-1224,44,-9,-20
11035,-1448,768,-1224,44,-7,-20
11040,-1448,768,-1240,44,-8,-19
11045,-1432,776,-1216,47,-6,-16
11050,-1440,784,-1232,48,-5,-15
11055,-1432,808,-1248,47,-3,-16
11060,-1440,792,-1224,47,-1,-14
11065,-1440,808,-1216,49,-1,-13
11070,-1416,792,-1240,51,0,-13
11075,-1440,784,-1240,51,2,-13
11080,-1440,800,-1240,51,2,-13
11085,-1432,768,-1264,52,2,-12
11090,-1432,776,-1232,53,4,-11
11095,-1424,776,-1224,53,6,-12
11100,-1416,784,-1200,53,7,-13
11105,-1424,760,-1224,53,8,-14
11110,-1440,784,-1240,55,9,-12
11115,-1432,776,-1240,56,9,-9
11120,-1432,784,-1240,58,8,-9
11125,-1424,792,-1224,60,8,-9
11130,-1432,776,-1232,64,8,-11
11135,-1432,784,-1216,66,7,-12
11140,-1408,768,-1232,68,7,-11
11145,-1440,792,-1248,69,5,-12
11150,-1432,800,-1256,70,7,-11
11155,-1448,784,-1256,72,5,-12
11160,-1440,776,-1232,73,4,-13
11165,-1440,792,-1240,74,4,-14
11170,-1448,784,-1232,74,5,-14
11175,-1408,792,-1216,75,6,-14
11180,-1432,768,-1232,75,7,-13
11185,-1424,792,-1208,74,8,-16
11190,-1448,792,-1232,74,10,-17
11195,-1440,792,-1224,73,11,-19
11200,-1432,752,-1232,73,13,-19
11205,-1424,816,-1224,72,15,-16
11210,-1424,784,-1224,71,14,-20
11215,-1432,768,-1216,69,13,-21
11220,-1432,784,-1232,68,12,-22
11225,-1456,792,-1192,66,12,-21
11230,-1424,784,-1240,65,11,-20
11235,-1440,784,-1232,64,10,-20
11240,-1424,760,-1240,63,10,-20
11245,-1472,768,-1240,63,7,-20
11250,-1448,800,-1248,63,8,-20
11255,-1448,784,-1232,64,7,-21
11260,-1448,768,-1232,65,7,-21
11265,-1448,784,-1224,66,8,-20
11270,-1448,800,-1240,67,8,-20
11275,-1456,784,-1232,67,8,-19
11280,-1464,768,-1224,70,9,-21
11285,-1416,752,-1240,70,10,-20
11290,-1448,792,-1168,71,11,-20
11295,-1424,792,-1224,79,15,-16
11300,-1432,792,-1224,75,16,-19
11305,-1432,768,-1232,72,18,-19
11310,-1432,776,-1216,69,17,-21
11315,-1424,768,-1216,67,17,-19
11320,-1432,800,-1208,65,19,-19
11325,-1432,760,-1232,65,20,-18
11330,-1424,768,-1240,64,20,-18
11335,-1424,760,-1216,63,20,-17
11340,-1440,768,-1240,65,20,-17
11345,-1424,768,-1248,63,20,-17
11350,-1416,784,-1248,63,19,-18
11355,-1456,784,-1208,63,20,-16
11360,-1424,776,-1232,69,20,-13
11365,-1440,776,-1256,64,18,-16
11370,-1456,776,-1232,62,19,-17
11375,-1432,776,-1232,62,19,-17
11380,-1424,752,-1224,62,17,-17
11385,-1424,784,-1224,64,17,-17
11390,-1424,752,-1248,65,19,-15
11395,-1432,800,-1240,65,18,-16
11400,-1472,768,-1232,65,17,-17
11405,-1424,760,-1256,67,16,-16
11410,-1424,776,-1256,66,14,-18
11415,-1440,784,-1216,72,15,-18
11420,-1440,768,-1264,77,16,-17
11425,-1440,752,-1248,73,15,-19
11430,-1448,768,-1264,72,15,-19
11435,-1432,792,-1240,69,16,-21
11440,-1432,768,-1248,69,18,-20
11445,-1440,784,-1232,68,18,-20
11450,-1440,768,-1248,66,19,-21
11455,-1424,768,-1224,64,21,-21
11460,-1464,776,-1240,63,21,-22
11465,-1440,768,-1248,62,21,-23
11470,-1432,768,-1264,60,23,-20
11475,-1440,776,-1256,61,23,-21
11480,-1448,768,-1264,59,23,-23
11485,-1440,784,-1240,57,23,-24
11490,-1424,760,-1264,57,21,-23
11495,-1456,768,-1232,58,20,-23
11500,-1456,752,-1232,58,19,-24
11505,-1432,760,-1232,59,17,-22
11510,-1448,768,-1224,58,15,-21
11515,-1456,760,-1240,58,14,-23
11520,-1432,768,-1248,58,13,-23
11525,-1456,784,-1240,60,12,-22
11530,-1440,760,-1256,61,11,-19
11535,-1440,768,-1272,64,11,-19
11540,-1432,768,-1256,65,10,-18
11545,-1440,744,-1256,65,10,-16
11550,-1456,752,-1240,65,10,-16
11555,-1432,760,-1256,65,11,-17
11560,-1448,784,-1216,65,12,-16
11565,-1456,776,-1224,62,12,-17
11570,-1432,784,-1240,60,10,-17
11575,-1416,752,-1256,59,12,-19
11580,-1440,776,-1232,60,15,-22
11585,-1424,776,-1224,59,17,-23
11590,-1416,744,-1216,59,18,-23
11595,-1432,728,-1240,60,18,-23
11600,-1432,768,-1224,59,19,-21
11605,-1448,744,-1248,60,20,-23
11610,-1432,768,-1248,59,20,-22
11615,-1424,752,-1256,60,21,-21
11620,-1440,776,-1256,59,20,-18
11625,-1440,760,-1224,59,20,-19
11630,-1424,728,-1176,59,20,-17
11635,-1416,704,-1232,68,19,-12
11640,-1424,760,-1256,66,20,-13
11645,-1440,736,-1232,60,18,-13
11650,-1432,760,-1240,58,19,-10
11655,-1440,784,-1216,67,19,-8
11660,-1392,760,-1256,64,20,-5
11665,-1416,760,-1280,55,19,-10
11670,-1456,776,-1248,50,21,-11
11675,-1432,776,-1224,48,18,-12
11680,-1416,760,-1264,46,18,-11
11685,-1440,776,-1240,44,19,-10
11690,-1440,776,-1264,44,15,-11
11695,-1496,744,-1296,45,15,-10
11700,-1432,744,-1248,47,15,-11
11705,-1440,768,-1232,46,15,-9
11710,-1432,736,-1240,47,15,-10
11715,-1456,744,-1264,49,14,-9
11720,-1432,744,-1224,50,12,-10
11725,-1432,752,-1232,50,11,-10
11730,-1432,776,-1248,50,11,-10
11735,-1424,752,-1224,51,13,-10
11740,-1432,760,-1256,49,12,-8
11745,-1440,752,-1232,49,11,-9
11750,-1432,768,-1232,47,10,-10
11755,-1456,792,-1224,46,9,-12
11760,-1440,784,-1240,42,8,-10
11765,-1424,776,-1240,38,5,-11
11770,-1448,768,-1280,36,7,-13
11775,-1456,752,-1240,41,10,-13
11780,-1448,768,-1216,43,12,-12
11785,-1424,752,-1224,45,14,-11
11790,-1448,760,-1208,46,13,-11
11795,-1440,768,-1224,47,14,-10
11800,-1440,776,-1224,48,14,-11
11805,-1416,752,-1240,49,15,-12
11810,-1416,744,-1240,48,16,-12
11815,-1424,760,-1216,48,17,-11
11820,-1416,792,-1232,49,18,-11
11825,-1432,760,-1224,47,19,-12
11830,-1448,768,-1216,45,19,-10
11835,-1432,752,-1216,43,18,-9
11840,-1424,752,-1232,41,18,-10
11845,-1448,768,-1248,40,19,-10
11850,-1432,760,-1256,38,21,-11
11855,-1432,760,-1216,43,21,-7
11860,-1416,768,-1264,41,21,-8
11865,-1432,776,-1264,37,21,-8
11870,-1440,736,-1232,34,21,-9
11875,-1440,752,-1224,32,19,-7
11880,-1424,752,-1232,32,20,-5
11885,-1416,760,-1208,31,19,-5
11890,-1432,744,-1256,30,18,-4
11895,-1440,760,-1256,29,18,-2
11900,-1400,792,-1240,28,16,-4
11905,-1416,760,-1232,25,15,-3
11910,-1440,776,-1208,25,15,-4
11915,-1432,784,-1232,24,12,-3
11920,-1440,776,-1264,22,11,-1
11925,-1416,752,-1248,24,9,-4
11930,-1432,784,-1264,23,8,-3
11935,-1440,768,-1280,26,6,-3
11940,-1424,760,-1232,25,4,-4
11945,-1440,760,-1240,25,3,-2
11950,-1432,744,-1240,26,4,-3
11955,-1456,768,-1248,28,3,-4
11960,-1424,776,-1248,29,4,-3
11965,-1440,792,-1264,29,4,-2
11970,-1432,760,-1240,28,3,-1
11975,-1448,768,-1240,28,4,-3
11980,-1440,776,-1232,28,5,-3
11985,-1440,784,-1248,27,5,-1
11990,-1440,776,-1240,28,4,-3
11995,-1448,776,-1256,28,4,-4
12000,-1432,768,-1232,28,6,-2
12005,-1448,768,-1240,28,7,-2
12010,-1440,760,-1272,28,7,-1
12015,-1432,752,-1240,30,7,-1
12020,-1400,784,-1240,28,9,1
12025,-1448,776,-1264,29,10,-1
12030,-1424,752,-1224,29,9,-2
12035,-1424,784,-1232,28,8,-2
12040,-1424,784,-1216,28,9,-2
12045,-1416,776,-1256,28,10,-2
12050,-1440,768,-1240,29,11,-1
12055,-1448,760,-1224,30,11,-1
12060,-1416,760,-1208,30,12,-3
12065,-1440,752,-1248,29,12,-3
12070,-1432,784,-1248,29,13,-3
12075,-1424,768,-1272,31,13,-2
12080,-1448,784,-1232,31,13,-4
12085,-1448,776,-1248,31,13,-3
12090,-1432,776,-1224,30,12,-3
12095,-1456,768,-1224,31,14,-4
12100,-1432,784,-1240,32,14,-4
12105,-1424,792,-1232,33,15,-4
12110,-1440,776,-1224,33,14,-5
12115,-1408,760,-1224,34,15,-4
12120,-1440,784,-1224,32,16,-6
12125,-1432,792,-1232,30,16,-6
12130,-1416,752,-1232,29,15,-7
12135,-1424,760,-1240,27,16,-5
12140,-1440,768,-1224,26,16,-3
12145,-1464,792,-1240,24,16,-5
12150,-1416,792,-1232,23,15,-3
12155,-1464,776,-1216,22,15,-2
12160,-1416,768,-1248,24,13,-2
12165,-1432,752,-1240,25,13,-5
12170,-1456,784,-1256,28,12,-5
12175,-1440,768,-1240,29,12,-4
12180,-1448,776,-1216,29,12,-3
12185,-1440,776,-1200,29,11,-2
12190,-1456,776,-1232,30,10,-2
12195,-1432,776,-1216,29,11,-2
12200,-1456,752,-1208,30,11,-2
12205,-1440,768,-1200,29,11,-3
12210,-1432,776,-1240,32,10,-5
12215,-1416,768,-1240,34,10,-4
12220,-1440,776,-1216,33,10,-2
12225,-1456,776,-1240,33,10,-2
12230,-1448,776,-1216,32,12,-3
12235,-1432,768,-1256,31,10,-3
12240,-1432,776,-1216,30,11,-5
12245,-1440,760,-1192,32,11,-4
12250,-1432,752,-1240,34,11,-4
12255,-1432,784,-1216,34,11,-4
12260,-1408,752,-1224,34,12,-5
12265,-1408,792,-1200,34,14,-4
12270,-1440,776,-1200,36,14,-2
12275,-1432,792,-1240,35,14,-4
12280,-1416,776,-1208,35,13,-2
12285,-1432,776,-1248,34,14,-1
12290,-1416,776,-1216,33,14,-1
12295,-1408,776,-1216,32,14,1
12300,-1448,776,-1208,31,13,0
12305,-1440,784,-1224,32,12,1
12310,-1400,776,-1232,33,10,-2
12315,-1416,776,-1240,32,9,-1
12320,-1424,776,-1192,29,10,-2
12325,-1408,784,-1272,29,10,-1
12330,-1432,760,-1240,28,11,-3
12335,-1456,808,-1200,28,12,-2
12340,-1432,776,-1208,28,11,-2
12345,-1440,776,-1224,30,12,-3
12350,-1472,760,-1232,31,11,-4
12355,-1432,752,-1224,35,12,-5
12360,-1408,784,-1216,39,11,-7
12365,-1400,792,-1224,38,10,-6
12370,-1432,776,-1248,39,11,-4
12375,-1440,800,-1240,40,11,-4
12380,-1440,808,-1200,39,13,-3
12385,-1432,784,-1256,39,16,-4
12390,-1440,776,-1224,38,15,-5
12395,-1424,816,-1232,39,13,-5
12400,-1448,792,-1192,39,12,-5
12405,-1440,792,-1216,38,11,-5
12410,-1424,784,-1240,38,11,-6
12415,-1448,768,-1240,38,11,-7
12420,-1440,776,-1216,41,11,-7
12425,-1440,792,-1240,40,12,-9
12430,-1440,792,-1232,41,13,-8
12435,-1440,776,-1232,40,12,-7
12440,-1448,760,-1224,40,11,-7
12445,-1432,784,-1224,42,9,-8
12450,-1424,776,-1232,42,9,-9
12455,-1424,792,-1248,40,9,-8
12460,-1440,784,-1248,39,9,-7
12465,-1424,800,-1240,40,9,-5
12470,-1408,776,-1248,39,12,-5
12475,-1432,808,-1216,40,14,-7
12480,-1432,800,-1240,40,14,-7
12485,-1440,768,-1216,37,13,-7
12490,-1448,768,-1240,36,13,-6
12495,-1456,816,-1232,37,12,-7
12500,-1448,792,-1216,39,12,-8
12505,-1408,760,-1240,38,10,-8
12510,-1424,792,-1264,40,11,-9
12515,-1424,784,-1224,39,11,-7
12520,-1424,792,-1240,39,11,-6
12525,-1424,760,-1208,38,12,-6
12530,-1440,784,-1232,40,15,-7
12535,-1416,784,-1224,43,16,-6
12540,-1424,784,-1240,42,15,-5
12545,-1432,784,-1256,40,13,-5
12550,-1408,792,-1256,40,11,-4
12555,-1448,792,-1224,40,10,-3
12560,-1432,792,-1240,38,11,-5
12565,-1440,800,-1256,39,11,-6
12570,-1440,776,-1224,39,13,-7
12575,-1440,768,-1224,37,12,-7
12580,-1416,776,-1248,37,13,-6
12585,-1440,776,-1248,37,12,-6
12590,-1424,800,-1216,38,12,-8
12595,-1432,776,-1240,38,12,-8
12600,-1400,800,-1224,37,10,-8
12605,-1400,768,-1232,37,12,-9
12610,-1440,792,-1240,37,14,-9
12615,-1448,784,-1232,42,16,-7
12620,-1432,792,-1200,42,17,-8
12625,-1448,776,-1208,42,17,-7
12630,-1440,784,-1224,41,15,-5
12635,-1424,784,-1208,42,14,-8
12640,-1432,808,-1240,43,9,-7
12645,-1416,776,-1200,41,11,-3
12650,-1456,800,-1232,39,13,-3
12655,-1432,800,-1240,42,15,-3
12660,-1432,800,-1232,41,15,-3
12665,-1424,720,-1240,42,15,-2
12670,-1440,816,-1224,40,13,-4
12675,-1448,808,-1184,40,14,-3
12680,-1448,808,-1240,41,13,-4
12685,-1432,800,-1216,42,13,-5
12690,-1432,792,-1216,41,11,-5
12695,-1408,792,-1216,42,11,-5
12700,-1456,792,-1256,44,12,-7
12705,-1440,776,-1216,46,12,-4
12710,-1440,784,-1208,45,12,-5
12715,-1432,808,-1192,44,11,-5
12720,-1432,784,-1232,44,11,-5
12725,-1440,792,-1240,45,12,-5
12730,-1448,776,-1240,46,11,-4
12735,-1432,784,-1256,47,12,-3
12740,-1448,800,-1224,48,14,-3
12745,-1448,808,-1224,52,13,-4
12750,-1448,784,-1240,53,12,-5
12755,-1432,760,-1224,57,16,-5
12760,-1432,792,-1240,58,14,-3
12765,-1456,816,-1200,53,12,-3
12770,-1424,808,-1232,47,9,-5
12775,-1424,784,-1208,44,9,-6
12780,-1432,800,-1232,43,8,-8
12785,-1416,768,-1216,41,7,-10
12790,-1432,784,-1216,41,9,-11
12795,-1432,800,-1240,43,8,-12
12800,-1448,784,-1224,44,9,-11
12805,-1440,784,-1224,46,8,-10
12810,-1448,800,-1208,46,9,-12
12815,-1440,760,-1232,48,10,-10
12820,-1448,808,-1208,48,11,-9
12825,-1440,768,-1232,52,14,-8
12830,-1440,784,-1200,54,14,-8
12835,-1448,800,-1232,53,12,-7
12840,-1440,784,-1248,53,14,-8
12845,-1448,808,-1240,51,14,-8
12850,-1464,800,-1240,56,17,-9
12855,-1424,776,-1216,57,16,-8
12860,-1432,800,-1216,53,14,-9
12865,-1464,800,-1224,51,12,-11
12870,-1424,808,-1200,52,13,-10
12875,-1424,784,-1208,52,12,-10
12880,-1432,800,-1224,51,11,-13
12885,-1424,784,-1224,50,11,-12
12890,-1416,800,-1208,50,13,-13
12895,-1440,784,-1232,49,11,-12
12900,-1424,808,-1184,48,11,-13
12905,-1408,792,-1224,49,12,-12
12910,-1440,792,-1200,49,13,-11
12915,-1424,792,-1176,47,13,-12
12920,-1432,776,-1224,47,13,-10
12925,-1424,808,-1208,45,14,-11
12930,-1408,792,-1224,45,15,-11
12935,-1464,808,-1224,44,16,-9
12940,-1424,776,-1224,42,16,-9
12945,-1424,776,-1200,41,15,-10
12950,-1448,800,-1216,39,16,-10
12955,-1424,760,-1224,40,17,-11
12960,-1432,800,-1232,39,17,-14
12965,-1432,784,-1224,38,16,-11
12970,-1456,784,-1232,36,15,-14
12975,-1424,800,-1216,38,16,-15
12980,-1456,768,-1232,38,16,-17
12985,-1416,800,-1224,38,18,-13
12990,-1432,792,-1224,38,17,-14
12995,-1440,792,-1248,37,20,-14
13000,-1456,808,-1240,36,22,-14
13005,-1456,800,-1208,37,23,-13
13010,-1448,768,-1232,36,25,-13
13015,-1440,792,-1240,37,24,-12
13020,-1440,768,-1216,38,25,-10
13025,-1456,792,-1216,37,25,-10
13030,-1440,808,-1216,37,25,-8
13035,-1440,784,-1216,36,26,-6
13040,-1456,808,-1216,37,25,-6
13045,-1440,784,-1248,36,25,-7
13050,-1440,808,-1232,36,24,-6
13055,-1448,792,-1232,36,24,-4
13060,-1432,760,-1200,36,22,-4
13065,-1424,776,-1216,36,20,-5
13070,-1416,792,-1240,38,20,-4
13075,-1440,792,-1216,39,19,-4
13080,-1408,792,-1200,43,19,-4
13085,-1440,800,-1248,43,19,-7
13090,-1416,792,-1216,45,19,-6
13095,-1424,808,-1232,48,18,-5
13100,-1416,776,-1232,51,20,-8
13105,-1424,808,-1216,57,22,-7
13110,-1416,816,-1216,53,19,-4
13115,-1432,808,-1232,49,16,-4
13120,-1408,800,-1240,46,14,-5
13125,-1424,776,-1248,45,12,-7
13130,-1432,776,-1224,44,13,-8
13135,-1416,792,-1216,43,12,-9
13140,-1424,816,-1208,42,12,-10
13145,-1416,808,-1232,41,13,-12
13150,-1432,808,-1224,41,13,-11
13155,-1408,816,-1208,39,14,-8
13160,-1440,792,-1240,40,14,-8
13165,-1432,792,-1248,38,14,-11
13170,-1424,792,-1208,38,17,-12
13175,-1424,784,-1256,38,17,-12
13180,-1432,800,-1232,38,17,-13
13185,-1432,784,-1232,38,17,-15
13190,-1424,784,-1232,38,17,-14
13195,-1432,784,-1216,38,17,-15
13200,-1400,800,-1216,38,18,-14
13205,-1424,776,-1248,39,18,-14
13210,-1424,784,-1216,38,19,-11
13215,-1440,792,-1240,38,19,-10
13220,-1432,776,-1224,38,20,-12
13225,-1448,784,-1224,37,21,-12
13230,-1424,784,-1200,37,22,-12
13235,-1408,784,-1208,36,21,-11
13240,-1432,792,-1224,36,24,-12
13245,-1448,800,-1232,36,24,-10
13250,-1424,776,-1224,38,25,-9
13255,-1456,784,-1232,38,24,-8
13260,-1456,792,-1208,36,24,-9
13265,-1416,808,-1216,37,24,-10
13270,-1448,800,-1232,38,24,-9
13275,-1424,776,-1200,40,23,-8
13280,-1424,776,-1216,40,23,-7
13285,-1432,776,-1216,43,23,-8
13290,-1440,792,-1256,45,23,-7
13295,-1480,824,-1184,46,23,-7
13300,-1440,800,-1216,46,22,-7
13305,-1432,792,-1216,48,23,-7
13310,-1416,784,-1240,50,21,-6
13315,-1432,808,-1240,49,21,-7
13320,-1440,784,-1248,50,21,-7
13325,-1424,816,-1200,51,21,-7
13330,-1448,800,-1224,51,21,-9
13335,-1440,808,-1208,52,20,-8
13340,-1440,800,-1240,52,21,-9
13345,-1432,808,-1240,55,20,-10
13350,-1424,808,-1248,55,20,-11
13355,-1424,800,-1224,55,20,-11
13360,-1424,824,-1232,54,21,-11
13365,-1416,800,-1224,55,21,-12
13370,-1432,800,-1232,54,21,-11
13375,-1424,800,-1240,52,21,-12
13380,-1416,784,-1248,53,21,-13
13385,-1416,792,-1240,53,21,-13
13390,-1432,784,-1240,53,20,-12
13395,-1432,776,-1224,52,20,-14
13400,-1416,768,-1200,52,19,-13
13405,-1448,800,-1224,52,20,-16
13410,-1456,784,-1224,52,20,-15
13415,-1424,808,-1232,52,20,-15
13420,-1424,784,-1240,54,19,-13
13425,-1432,800,-1232,54,19,-13
13430,-1416,800,-1224,54,19,-11
13435,-1432,792,-1224,56,19,-13
13440,-1416,768,-1232,54,19,-14
13445,-1440,800,-1240,55,18,-14
13450,-1424,800,-1208,55,18,-13
13455,-1416,784,-1240,54,16,-12
13460,-1448,792,-1248,53,14,-12
13465,-1424,808,-1232,53,14,-12
13470,-1440,808,-1200,52,13,-14
13475,-1432,784,-1240,52,11,-13
13480,-1448,808,-1232,53,10,-15
13485,-1440,784,-1224,54,8,-14
13490,-1416,776,-1240,54,5,-13
13495,-1424,808,-1256,55,2,-15
13500,-1432,800,-1240,57,1,-15
13505,-1432,792,-1216,57,0,-13
13510,-1432,784,-1256,58,-2,-13
13515,-1432,800,-1240,58,-3,-12
13520,-1448,808,-1224,59,-3,-12
13525,-1432,800,-1264,60,-2,-15
13530,-1424,800,-1224,59,-2,-15
13535,-1432,800,-1224,59,-2,-16
13540,-1424,792,-1224,56,0,-15
13545,-1432,792,-1208,57,0,-18
13550,-1432,808,-1184,57,0,-20
13555,-1416,816,-1200,58,2,-20
13560,-1400,792,-1216,58,2,-19
13565,-1408,792,-1216,58,2,-21
13570,-1448,768,-1200,58,3,-21
13575,-1432,776,-1192,57,3,-21
13580,-1432,784,-1208,55,4,-21
13585,-1408,760,-1176,55,5,-21
13590,-1400,768,-1176,54,5,-20
13595,-1432,800,-1200,52,6,-19
13600,-1432,768,-1192,52,7,-18
13605,-1456,784,-1224,50,7,-17
13610,-1424,768,-1216,48,10,-15
13615,-1424,784,-1208,46,12,-16
13620,-1432,776,-1216,44,12,-14
13625,-1432,816,-1224,41,12,-14
13630,-1432,808,-1216,38,14,-14
13635,-1416,776,-1240,35,15,-16
13640,-1424,792,-1200,34,16,-16
13645,-1440,776,-1232,32,17,-15
13650,-1440,784,-1248,34,19,-14
13655,-1432,752,-1248,33,20,-12
13660,-1440,792,-1216,33,22,-13
13665,-1456,800,-1184,39,24,-10
13670,-1448,800,-1248,47,26,-8
13675,-1456,792,-1248,39,25,-9
13680,-1432,776,-1216,34,27,-10
13685,-1440,800,-1240,32,25,-10
13690,-1448,792,-1240,33,25,-7
13695,-1424,800,-1224,33,23,-6
13700,-1424,768,-1224,31,21,-7
13705,-1440,816,-1248,30,22,-5
13710,-1440,800,-1240,29,22,-6
13715,-1448,808,-1224,31,22,-5
13720,-1416,792,-1232,30,21,-7
13725,-1440,816,-1256,30,21,-7
13730,-1440,792,-1216,31,21,-7
13735,-1448,800,-1240,31,22,-6
13740,-1416,808,-1200,30,21,-8
13745,-1448,800,-1208,30,21,-10
13750,-1424,776,-1184,34,22,-11
13755,-1416,776,-1232,45,25,-9
13760,-1416,784,-1224,41,22,-12
13765,-1424,808,-1200,35,21,-12
13770,-1408,808,-1224,32,20,-13
13775,-1432,792,-1232,33,21,-15
13780,-1408,784,-1216,34,20,-14
13785,-1408,792,-1232,35,20,-15
13790,-1416,816,-1248,37,19,-16
13795,-1424,808,-1224,37,19,-16
13800,-1416,776,-1232,37,18,-16
13805,-1416,800,-1208,39,18,-17
13810,-1408,776,-1240,37,17,-18
13815,-1448,800,-1248,37,16,-19
13820,-1448,800,-1184,42,18,-18
13825,-1432,824,-1240,52,21,-18
13830,-1432,784,-1232,47,20,-19
13835,-1440,784,-1224,41,19,-19
13840,-1416,792,-1256,36,18,-19
13845,-1416,776,-1224,36,19,-20
13850,-1432,776,-1224,40,21,-19
13855,-1416,776,-1208,44,22,-15
13860,-1456,808,-1232,41,18,-16
13865,-1432,800,-1208,42,15,-17
13870,-1416,808,-1248,51,18,-17
13875,-1456,808,-1216,42,18,-18
13880,-1408,776,-1208,33,12,-19
13885,-1424,800,-1264,32,14,-22
13890,-1424,776,-1240,33,14,-21
13895,-1416,784,-1216,37,14,-19
13900,-1440,800,-1216,39,14,-19
13905,-1424,784,-1216,37,12,-18
13910,-1440,776,-1216,43,15,-18
13915,-1432,792,-1224,51,18,-18
13920,-1456,792,-1192,58,19,-16
13925,-1440,800,-1264,54,15,-16
13930,-1432,816,-1240,45,14,-15
13935,-1424,792,-1264,47,16,-16
13940,-1432,800,-1240,42,13,-16
13945,-1416,776,-1200,42,13,-17
13950,-1432,800,-1224,44,13,-15
13955,-1416,808,-1240,38,10,-16
13960,-1432,776,-1232,40,12,-15
13965,-1440,816,-1232,43,13,-15
13970,-1464,792,-1240,35,10,-17
13975,-1432,800,-1232,42,14,-19
13980,-1408,808,-1216,43,11,-18
13985,-1424,768,-1208,40,12,-19
13990,-1456,800,-1240,53,16,-17
13995,-1408,784,-1232,53,15,-17
14000,-1440,776,-1216,51,17,-19
14005,-1440,792,-1224,51,17,-19
14010,-1440,792,-1200,50,16,-20
14015,-1440,784,-1232,51,16,-19
14020,-1424,792,-1216,52,15,-17
14025,-1432,800,-1232,60,17,-14
14030,-1432,792,-1240,59,16,-14
14035,-1416,792,-1224,56,14,-14
14040,-1432,768,-1240,53,13,-14
14045,-1416,792,-1240,51,13,-13
14050,-1432,776,-1232,49,11,-12
14055,-1424,792,-1224,48,11,-11
14060,-1440,776,-1216,48,8,-9
14065,-1432,792,-1240,48,8,-11
14070,-1440,800,-1216,48,9,-12
14075,-1432,760,-1224,48,9,-10
14080,-1440,816,-1168,52,10,-12
14085,-1400,784,-1248,68,9,-6
14090,-1456,768,-1248,55,9,-10
14095,-1432,776,-1208,46,9,-11
14100,-1424,792,-1200,41,9,-11
14105,-1440,792,-1224,39,9,-9
14110,-1416,784,-1216,38,7,-7
14115,-1440,792,-1200,39,5,-7
14120,-1432,784,-1208,38,5,-8
14125,-1448,816,-1216,37,4,-5
14130,-1440,800,-1232,38,4,-5
14135,-1416,792,-1216,37,3,-5
14140,-1416,792,-1224,35,2,-3
14145,-1424,792,-1232,38,2,-4
14150,-1432,800,-1248,37,2,-3
14155,-1432,784,-1232,38,2,-1
14160,-1424,784,-1208,36,2,0
14165,-1416,800,-1232,36,2,2
14170,-1424,776,-1256,36,3,1
14175,-1424,792,-1240,36,3,3
14180,-1432,800,-1232,36,5,2
14185,-1440,784,-1248,35,5,3
14190,-1448,816,-1248,36,7,1
14195,-1416,800,-1224,36,7,1
14200,-1440,800,-1232,34,8,2
14205,-1448,800,-1200,34,8,3
14210,-1424,800,-1224,35,9,2
14215,-1424,776,-1216,35,9,3
14220,-1464,816,-1200,35,9,2
14225,-1432,784,-1200,35,9,2
14230,-1416,808,-1224,35,9,1
14235,-1424,784,-1240,34,9,1
14240,-1424,816,-1232,34,11,0
14245,-1424,800,-1208,33,12,1
14250,-1424,784,-1224,34,11,3
14255,-1448,776,-1240,34,11,4
14260,-1440,808,-1240,34,12,5
14265,-1408,784,-1256,33,13,5
14270,-1448,800,-1216,32,12,6
14275,-1432,808,-1192,32,11,6
14280,-1424,784,-1248,32,11,5
14285,-1424,816,-1208,33,10,5
14290,-1448,816,-1256,33,9,5
14295,-1424,784,-1208,32,10,3
14300,-1416,824,-1208,34,11,2
14305,-1424,784,-1232,36,10,1
14310,-1448,816,-1240,37,10,0
14315,-1424,816,-1232,38,10,-2
14320,-1440,808,-1240,40,11,-1
14325,-1440,800,-1216,42,11,-1
14330,-1432,808,-1208,44,12,2
14335,-1432,800,-1208,44,10,0
14340,-1416,792,-1248,44,10,-1
14345,-1424,832,-1232,45,9,0
14350,-1440,800,-1200,44,9,-1
14355,-1448,824,-1216,45,8,-1
14360,-1440,808,-1216,44,7,-1
14365,-1416,792,-1224,43,7,-1
14370,-1448,808,-1208,43,7,-2
14375,-1424,816,-1248,44,4,-2
14380,-1440,808,-1232,46,4,-4
14385,-1416,784,-1216,46,5,-4
14390,-1432,800,-1232,46,4,-4
14395,-1432,800,-1240,47,4,-4
14400,-1448,832,-1208,47,5,-4
14405,-1432,776,-1208,47,4,-4
14410,-1448,816,-1224,45,3,-3
14415,-1440,824,-1184,46,1,-3
14420,-1416,792,-1216,45,1,-3
14425,-1424,784,-1208,46,-2,-1
14430,-1432,800,-1224,47,-1,-4
14435,-1416,816,-1216,45,-2,-4
14440,-1440,800,-1232,44,-1,-4
14445,-1440,792,-1216,45,-1,-5
14450,-1448,824,-1184,43,1,-6
14455,-1424,832,-1208,43,1,-6
14460,-1440,792,-1248,42,2,-8
14465,-1432,808,-1216,44,2,-9
14470,-1448,792,-1200,42,3,-10
14475,-1424,808,-1200,42,5,-10
14480,-1440,824,-1192,42,5,-11
14485,-1432,800,-1216,42,4,-10
14490,-1440,824,-1200,42,6,-10
14495,-1440,808,-1248,43,5,-11
14500,-1448,776,-1232,43,6,-10
14505,-1440,800,-1208,42,9,-10
14510,-1424,800,-1216,42,7,-10
14515,-1448,792,-1200,43,9,-9
14520,-1424,800,-1224,41,8,-7
14525,-1416,800,-1200,41,7,-6
14530,-1408,792,-1224,43,8,-7
14535,-1424,800,-1200,42,9,-8
14540,-1440,768,-1232,40,8,-6
14545,-1440,808,-1208,42,8,-6
14550,-1432,808,-1208,41,8,-7
14555,-1440,800,-1240,40,8,-7
14560,-1432,824,-1216,41,9,-7
14565,-1456,816,-1208,41,10,-7
14570,-1432,808,-1208,41,10,-6
14575,-1440,800,-1216,41,10,-6
14580,-1432,800,-1208,42,13,-8
14585,-1448,800,-1224,42,14,-6
14590,-1448,816,-1208,42,15,-6
14595,-1448,832,-1224,44,16,-7
14600,-1424,816,-1216,42,17,-8
14605,-1448,832,-1224,42,17,-9
14610,-1440,824,-1192,43,17,-10
14615,-1424,816,-1200,42,18,-10
14620,-1448,808,-1224,41,18,-9
14625,-1432,792,-1200,41,18,-9
14630,-1448,816,-1224,41,16,-10
14635,-1440,800,-1216,41,16,-9
14640,-1432,808,-1224,39,17,-10
14645,-1432,792,-1192,38,18,-10
14650,-1440,800,-1224,39,19,-9
14655,-1432,792,-1200,39,19,-9
14660,-1440,784,-1184,39,20,-10
14665,-1424,824,-1232,37,20,-8
14670,-1448,792,-1216,40,22,-8
14675,-1424,792,-1192,42,23,-7
14680,-1432,792,-1216,43,23,-7
14685,-1456,800,-1208,41,23,-6
14690,-1432,800,-1200,42,21,-8
14695,-1424,824,-1216,42,20,-8
14700,-1400,824,-1208,42,19,-8
14705,-1432,792,-1200,42,18,-7
14710,-1424,776,-1232,40,17,-5
14715,-1416,816,-1224,43,17,-3
14720,-1392,784,-1208,44,19,-3
14725,-1448,792,-1176,48,22,-3
14730,-1456,808,-1216,49,20,-3
14735,-1448,832,-1192,46,17,-2
14740,-1448,808,-1240,45,16,-2
14745,-1432,808,-1200,44,15,-6
14750,-1448,816,-1192,44,16,-7
14755,-1448,824,-1224,44,16,-6
14760,-1424,816,-1224,46,16,-5
14765,-1424,808,-1216,48,17,-6
14770,-1440,792,-1240,45,17,-7
14775,-1424,832,-1200,43,15,-9
14780,-1432,800,-1216,42,14,-9
14785,-1416,792,-1208,42,13,-8
14790,-1432,800,-1208,42,12,-10
14795,-1464,816,-1216,43,11,-10
14800,-1424,808,-1240,46,13,-11
14805,-1464,792,-1208,50,17,-8
14810,-1432,824,-1224,48,17,-10
14815,-1440,784,-1200,46,14,-10
14820,-1424,808,-1192,48,12,-9
14825,-1440,808,-1224,48,11,-10
14830,-1440,824,-1200,46,11,-8
14835,-1432,808,-1240,47,11,-8
14840,-1424,792,-1216,48,12,-7
14845,-1432,800,-1240,51,13,-6
14850,-1448,792,-1208,52,16,-7
14855,-1432,776,-1208,51,15,-8
14860,-1440,824,-1208,50,13,-8
14865,-1440,824,-1192,47,12,-8
14870,-1432,808,-1192,47,12,-9
14875,-1432,792,-1208,48,13,-8
14880,-1416,792,-1208,47,12,-7
14885,-1336,736,-1200,51,19,-6
14890,-1528,816,-1224,62,27,-7
14895,-1464,816,-1208,50,16,-4
14900,-1440,808,-1200,46,13,-4
14905,-1408,792,-1216,44,14,-2
14910,-1448,792,-1176,44,14,-3
14915,-1408,840,-1216,42,14,-5
14920,-1448,824,-1216,40,13,-6
14925,-1448,808,-1240,40,14,-6
14930,-1416,808,-1232,43,17,-5
14935,-1424,816,-1200,48,18,-4
14940,-1424,800,-1176,44,16,-4
14945,-1424,824,-1224,42,14,-3
14950,-1432,800,-1224,43,13,-4
14955,-1440,816,-1200,44,14,-2
14960,-1416,800,-1200,45,13,-2
14965,-1472,832,-1232,46,16,-2
14970,-1432,824,-1248,47,14,-2
14975,-1432,808,-1216,47,13,-3
14980,-1440,816,-1248,47,11,-3
14985,-1432,816,-1200,46,10,-4
