timestamp,accel_x,accel_y,accel_z,gyro_x,gyro_y,gyro_z
0,-184,-1688,984,54,10,-10
5,-192,-1712,976,52,9,-10
10,-192,-1696,984,52,10,-10
15,-192,-1712,960,52,10,-10
20,-192,-1712,976,52,10,-10
25,-176,-1696,960,52,10,-11
30,-176,-1728,944,52,10,-12
35,-128,-1672,936,52,10,-11
40,-192,-1720,984,52,9,-12
45,-176,-1744,960,52,8,-11
50,-208,-1728,944,53,8,-9
55,-184,-1728,968,53,9,-10
60,-176,-1704,928,52,8,-10
65,-176,-1704,952,51,9,-11
70,-192,-1736,928,50,11,-11
75,-208,-1728,960,48,12,-10
80,-160,-1720,936,49,12,-10
85,-192,-1728,936,49,12,-10
90,-184,-1720,968,50,12,-10
95,-184,-1736,936,52,10,-11
100,-168,-1720,944,55,10,-9
105,-200,-1736,968,59,11,-8
110,-192,-1736,936,63,11,-9
115,-176,-1704,944,65,11,-7
120,-192,-1680,984,64,10,-9
125,-184,-1720,976,60,11,-9
130,-176,-1704,992,55,11,-11
135,-200,-1688,976,49,11,-12
140,-200,-1736,960,45,12,-12
145,-200,-1752,976,41,12,-13
150,-184,-1752,944,40,11,-14
155,-208,-1752,968,44,10,-14
160,-216,-1744,936,50,10,-14
165,-208,-1728,968,58,8,-12
170,-208,-1744,936,65,8,-10
175,-168,-1736,936,71,6,-9
180,-200,-1704,944,73,7,-8
185,-176,-1704,960,75,6,-7
190,-200,-1704,944,73,7,-7
195,-192,-1680,984,70,8,-7
200,-216,-1688,968,69,8,-7
205,-184,-1688,960,66,6,-8
210,-200,-1712,952,65,7,-8
215,-176,-1728,952,63,8,-9
220,-200,-1720,984,59,8,-11
225,-176,-1688,944,56,8,-12
230,-176,-1704,952,53,8,-12
235,-168,-1736,952,50,10,-12
240,-168,-1728,968,48,10,-12
245,-200,-1720,968,45,10,-12
250,-176,-1736,984,45,11,-12
255,-176,-1704,992,46,12,-12
260,-192,-1696,960,48,11,-11
265,-184,-1728,968,49,10,-11
270,-176,-1752,992,51,13,-12
275,-208,-1720,992,53,11,-11
280,-176,-1712,992,54,11,-11
285,-200,-1696,944,55,11,-11
290,-160,-1696,960,55,11,-10
295,-168,-1712,968,54,9,-12
300,-184,-1720,976,54,10,-12
305,-184,-1728,928,52,10,-11
310,-168,-1712,976,51,11,-9
315,-176,-1696,936,50,11,-10
320,-168,-1720,976,49,12,-11
325,-192,-1720,944,49,12,-10
330,-176,-1728,936,48,12,-13
335,-192,-1720,944,46,12,-12
340,-200,-1704,968,46,13,-13
345,-200,-1704,960,47,11,-13
350,-176,-1752,992,49,10,-11
355,-184,-1760,952,50,11,-13
360,-200,-1736,936,48,10,-14
365,-152,-1728,984,49,11,-13
370,-208,-1728,944,50,11,-13
375,-200,-1720,960,49,12,-13
380,-200,-1736,936,51,12,-12
385,-184,-1720,960,50,12,-12
390,-200,-1712,984,50,14,-15
395,-184,-1728,944,49,12,-13
400,-200,-1704,976,49,11,-13
405,-168,-1736,944,49,12,-14
410,-184,-1720,920,49,12,-13
415,-160,-1768,968,48,10,-11
420,-208,-1704,936,47,11,-14
425,-192,-1712,944,46,12,-13
430,-184,-1744,960,47,11,-12
435,-192,-1720,936,47,13,-12
440,-192,-1728,960,48,13,-12
445,-192,-1752,960,49,13,-12
450,-160,-1728,960,51,12,-13
455,-184,-1744,960,52,12,-14
460,-184,-1712,936,53,12,-14
465,-176,-1712,944,51,11,-14
470,-200,-1720,968,51,12,-15
475,-192,-1720,920,52,10,-14
480,-184,-1720,944,52,10,-14
485,-168,-1720,952,52,8,-14
490,-200,-1696,960,52,9,-13
495,-184,-1696,968,52,10,-13
500,-176,-1712,960,52,10,-12
505,-160,-1720,976,52,11,-14
510,-200,-1720,984,52,9,-12
515,-176,-1696,984,53,9,-14
520,-192,-1712,976,52,9,-12
525,-184,-1744,960,51,11,-12
530,-168,-1752,952,50,11,-13
535,-176,-1720,960,52,12,-12
540,-176,-1720,976,52,11,-12
545,-200,-1720,984,55,11,-11
550,-208,-1712,952,57,11,-12
555,-200,-1688,944,56,12,-15
560,-208,-1704,944,56,12,-14
565,-176,-1728,976,54,12,-15
570,-176,-1696,936,54,12,-13
575,-176,-1696,944,53,10,-13
580,-184,-1696,968,51,11,-13
585,-184,-1712,992,49,12,-13
590,-208,-1712,968,48,10,-13
595,-200,-1696,968,47,11,-11
600,-200,-1736,1000,46,12,-13
605,-168,-1728,944,46,11,-14
610,-184,-1744,984,45,12,-13
615,-176,-1720,976,46,13,-13
620,-192,-1728,992,47,11,-14
625,-160,-1736,936,49,11,-13
630,-176,-1688,960,49,12,-13
635,-176,-1728,960,50,11,-12
640,-216,-1728,976,51,10,-14
645,-192,-1728,952,51,10,-14
650,-200,-1728,976,51,11,-15
655,-184,-1744,952,52,11,-14
660,-168,-1736,936,51,11,-13
665,-176,-1696,960,52,11,-13
670,-192,-1736,928,52,10,-12
675,-184,-1704,960,51,9,-12
680,-208,-1720,952,50,9,-13
685,-192,-1728,960,48,11,-12
690,-168,-1720,944,49,12,-12
695,-168,-1728,976,48,12,-13
700,-160,-1720,936,49,12,-14
705,-184,-1728,936,50,12,-15
710,-208,-1704,976,50,11,-14
715,-208,-1744,920,52,12,-14
720,-200,-1720,952,53,12,-14
725,-184,-1728,944,53,13,-13
730,-184,-1752,992,54,12,-13
735,-168,-1728,968,54,12,-13
740,-160,-1720,968,54,12,-12
745,-176,-1728,952,54,12,-12
750,-184,-1712,976,56,12,-12
755,-184,-1736,952,56,13,-11
760,-184,-1760,952,54,13,-10
765,-208,-1720,952,54,13,-11
770,-176,-1688,952,55,14,-10
775,-160,-1728,960,53,15,-9
780,-208,-1712,952,54,13,-9
785,-192,-1720,960,54,14,-11
790,-192,-1712,960,54,13,-11
795,-168,-1728,928,52,14,-13
800,-176,-1720,960,53,13,-14
805,-176,-1704,944,54,12,-12
810,-192,-1712,984,53,12,-13
815,-160,-1720,976,52,12,-13
820,-192,-1688,968,53,12,-12
825,-184,-1720,952,52,13,-11
830,-176,-1696,968,51,12,-12
835,-192,-1712,952,50,11,-14
840,-176,-1744,968,49,11,-12
845,-168,-1720,984,45,13,-14
850,-176,-1736,952,43,13,-13
855,-192,-1720,944,39,14,-14
860,-184,-1704,952,37,15,-14
865,-192,-1720,960,37,14,-15
870,-176,-1744,984,40,14,-11
875,-192,-1696,960,44,13,-12
880,-168,-1728,952,47,14,-13
885,-168,-1736,968,53,15,-11
890,-176,-1712,936,55,15,-11
895,-192,-1680,968,55,16,-10
900,-192,-1728,960,53,16,-9
905,-176,-1720,976,49,16,-11
910,-200,-1736,960,42,16,-13
915,-192,-1736,976,37,15,-14
920,-200,-1744,928,32,13,-17
925,-192,-1728,968,28,12,-18
930,-192,-1728,960,32,10,-19
935,-184,-1760,952,40,8,-16
940,-192,-1728,928,50,8,-13
945,-160,-1728,952,59,9,-11
950,-176,-1728,928,65,9,-10
955,-168,-1720,936,68,8,-8
960,-200,-1704,952,67,8,-7
965,-192,-1696,944,64,9,-8
970,-200,-1720,968,62,9,-8
975,-200,-1688,984,59,10,-8
980,-184,-1712,976,58,9,-9
985,-192,-1712,968,56,10,-10
990,-192,-1696,976,54,11,-12
995,-192,-1704,944,53,11,-13
1000,-184,-1712,968,51,11,-13
1005,-184,-1712,952,50,11,-12
1010,-176,-1720,936,49,11,-13
1015,-176,-1720,960,47,13,-12
1020,-184,-1760,960,47,12,-14
1025,-176,-1720,960,46,12,-12
1030,-176,-1704,968,45,12,-12
1035,-176,-1736,952,45,13,-14
1040,-176,-1720,984,45,12,-13
1045,-184,-1728,968,45,11,-13
1050,-200,-1728,984,45,12,-15
1055,-176,-1744,984,47,11,-15
1060,-192,-1728,960,48,11,-14
1065,-192,-1728,968,49,10,-14
1070,-216,-1632,984,50,10,-14
1075,-168,-1696,920,50,11,-15
1080,-200,-1712,968,48,11,-13
1085,-168,-1728,944,46,12,-14
1090,-200,-1720,960,45,12,-14
1095,-152,-1752,960,44,12,-13
1100,-168,-1720,976,44,12,-11
1105,-184,-1728,952,45,12,-12
1110,-184,-1720,936,46,11,-12
1115,-208,-1712,960,47,10,-12
1120,-200,-1736,888,48,10,-11
1125,-208,-1736,944,49,10,-11
1130,-192,-1704,920,50,11,-11
1135,-168,-1704,944,50,9,-10
1140,-184,-1720,952,48,9,-10
1145,-192,-1720,936,47,9,-9
1150,-192,-1712,960,45,12,-12
1155,-192,-1728,968,43,12,-13
1160,-192,-1728,936,42,12,-14
1165,-200,-1728,928,42,12,-14
1170,-192,-1712,968,44,12,-13
1175,-128,-1704,856,47,12,-13
1180,-200,-1704,968,48,10,-12
1185,-200,-1720,992,50,11,-13
1190,-208,-1728,960,50,10,-11
1195,-176,-1736,944,52,10,-9
1200,-168,-1712,944,54,9,-9
1205,-192,-1728,952,55,9,-8
1210,-200,-1720,936,55,9,-10
1215,-192,-1720,952,56,9,-10
1220,-168,-1744,960,56,9,-10
1225,-176,-1688,944,57,10,-10
1230,-200,-1704,960,57,10,-9
1235,-168,-1720,936,57,9,-9
1240,-176,-1704,960,57,9,-9
1245,-168,-1704,952,56,9,-9
1250,-184,-1704,976,55,10,-9
1255,-192,-1704,960,54,9,-9
1260,-176,-1728,984,54,10,-10
1265,-184,-1712,976,54,9,-10
1270,-184,-1728,976,57,8,-9
1275,-176,-1736,960,58,8,-9
1280,-208,-1728,992,60,10,-8
1285,-176,-1720,952,61,9,-9
1290,-184,-1696,952,63,10,-10
1295,-168,-1768,976,64,8,-8
1300,-168,-1712,968,65,8,-10
1305,-168,-1736,944,65,7,-7
1310,-200,-1688,928,65,9,-8
1315,-192,-1712,960,62,9,-8
1320,-192,-1688,944,61,9,-8
1325,-208,-1704,992,60,10,-7
1330,-184,-1752,1000,60,11,-7
1335,-200,-1744,952,59,10,-9
1340,-208,-1712,952,58,10,-8
1345,-208,-1728,952,59,10,-9
1350,-176,-1744,984,59,10,-9
1355,-160,-1736,984,60,8,-10
1360,-200,-1720,968,60,8,-9
1365,-200,-1728,944,61,8,-9
1370,-184,-1720,952,61,8,-10
1375,-168,-1736,968,63,7,-7
1380,-176,-1712,976,62,7,-8
1385,-192,-1704,968,64,7,-8
1390,-176,-1736,944,64,6,-8
1395,-176,-1736,928,64,6,-9
1400,-184,-1704,968,63,7,-10
1405,-176,-1712,960,62,6,-10
1410,-168,-1704,976,62,5,-9
1415,-184,-1744,952,61,7,-11
1420,-184,-1712,944,60,6,-10
1425,-192,-1704,952,62,7,-9
1430,-192,-1704,944,61,8,-8
1435,-216,-1720,960,61,8,-8
1440,-184,-1720,960,60,8,-9
1445,-192,-1704,976,61,8,-10
1450,-136,-1648,952,61,7,-9
1455,-200,-1728,944,63,6,-9
1460,-200,-1696,960,63,7,-10
1465,-176,-1744,944,64,7,-8
1470,-208,-1680,968,63,6,-8
1475,-192,-1704,936,63,7,-9
1480,-200,-1712,1000,63,7,-10
1485,-184,-1696,928,62,6,-11
1490,-192,-1728,992,60,5,-11
1495,-200,-1728,992,60,6,-10
1500,-184,-1704,1000,60,6,-11
1505,-192,-1720,968,59,6,-10
1510,-192,-1720,992,60,8,-9
1515,-192,-1704,976,60,7,-10
1520,-208,-1712,968,58,7,-9
1525,-176,-1744,960,56,9,-11
1530,-176,-1712,976,55,9,-9
1535,-184,-1736,960,53,9,-9
1540,-184,-1720,960,53,10,-10
1545,-168,-1720,928,51,10,-11
1550,-184,-1720,952,49,9,-11
1555,-184,-1704,944,50,10,-12
1560,-184,-1728,952,52,9,-10
1565,-168,-1744,952,54,9,-9
1570,-168,-1712,936,58,9,-9
1575,-192,-1712,968,63,9,-7
1580,-176,-1704,960,65,8,-9
1585,-216,-1688,968,65,8,-8
1590,-176,-1720,960,62,7,-9
1595,-200,-1704,944,60,8,-10
1600,-184,-1704,968,54,8,-10
1605,-184,-1744,984,49,8,-12
1610,-200,-1736,952,45,7,-13
1615,-216,-1736,960,42,7,-13
1620,-168,-1752,968,43,7,-14
1625,-176,-1760,944,51,6,-13
1630,-200,-1776,960,62,6,-10
1635,-208,-1728,944,72,6,-9
1640,-208,-1752,912,81,5,-7
1645,-200,-1688,936,85,5,-5
1650,-176,-1720,960,88,4,-5
1655,-200,-1680,936,86,4,-4
1660,-200,-1680,944,81,4,-3
1665,-200,-1696,960,76,5,-3
1670,-184,-1680,952,71,4,-4
1675,-208,-1680,984,68,6,-3
1680,-192,-1712,992,66,4,-6
1685,-192,-1696,960,63,4,-8
1690,-200,-1696,952,62,3,-8
1695,-176,-1712,928,60,4,-8
1700,-168,-1728,992,60,5,-11
1705,-176,-1728,968,59,7,-12
1710,-184,-1712,952,59,8,-11
1715,-184,-1712,984,59,8,-10
1720,-184,-1728,976,58,10,-10
1725,-192,-1712,968,58,9,-11
1730,-200,-1680,976,59,9,-11
1735,-192,-1736,976,59,9,-12
1740,-176,-1712,976,61,9,-13
1745,-208,-1712,1000,61,10,-10
1750,-176,-1720,992,63,10,-8
1755,-192,-1704,968,64,9,-10
1760,-192,-1728,960,64,8,-10
1765,-176,-1688,944,63,6,-11
1770,-176,-1720,976,62,6,-10
1775,-192,-1720,968,62,8,-9
1780,-184,-1704,968,59,7,-10
1785,-184,-1704,936,54,7,-12
1790,-192,-1696,960,52,8,-11
1795,-168,-1704,928,51,9,-13
1800,-184,-1704,952,50,9,-13
1805,-192,-1712,960,51,9,-13
1810,-208,-1728,960,53,9,-11
1815,-200,-1728,968,56,9,-11
1820,-192,-1720,968,56,9,-9
1825,-176,-1728,960,57,9,-11
1830,-192,-1736,944,59,10,-11
1835,-192,-1728,960,59,10,-8
1840,-184,-1720,976,59,10,-10
1845,-184,-1720,976,56,9,-12
1850,-168,-1736,976,54,10,-12
1855,-192,-1680,960,53,11,-13
1860,-176,-1704,960,52,10,-14
1865,-208,-1712,976,51,10,-15
1870,-208,-1752,952,50,11,-14
1875,-192,-1752,928,49,10,-14
1880,-192,-1736,952,49,10,-13
1885,-192,-1720,968,50,10,-12
1890,-176,-1744,960,52,9,-9
1895,-184,-1712,968,52,10,-10
1900,-208,-1712,976,53,10,-10
1905,-176,-1704,952,54,10,-8
1910,-216,-1704,976,55,10,-7
1915,-192,-1728,944,54,10,-8
1920,-192,-1736,976,56,9,-11
1925,-216,-1712,952,58,8,-12
1930,-192,-1704,960,59,8,-12
1935,-200,-1688,976,60,8,-12
1940,-200,-1704,976,60,8,-11
1945,-192,-1704,968,59,8,-12
1950,-200,-1688,960,58,8,-12
1955,-192,-1704,984,57,7,-13
1960,-200,-1664,952,55,9,-12
1965,-200,-1728,960,55,8,-12
1970,-192,-1696,968,54,9,-12
1975,-176,-1712,984,52,9,-10
1980,-200,-1712,968,51,9,-12
1985,-184,-1720,992,52,9,-11
1990,-200,-1720,968,52,7,-12
1995,-192,-1720,968,55,7,-11
2000,-184,-1696,960,57,8,-12
2005,-200,-1728,976,59,9,-11
2010,-168,-1704,976,59,9,-10
2015,-184,-1712,960,58,8,-11
2020,-192,-1704,968,60,8,-11
2025,-192,-1688,968,59,8,-11
2030,-160,-1704,976,58,8,-12
2035,-176,-1712,976,56,8,-11
2040,-168,-1728,984,54,8,-11
2045,-160,-1720,968,52,8,-12
2050,-176,-1728,960,50,9,-12
2055,-208,-1712,960,49,10,-12
2060,-176,-1728,960,50,11,-11
2065,-208,-1728,984,49,10,-12
2070,-152,-1712,952,49,10,-13
2075,-176,-1736,968,51,10,-14
2080,-192,-1720,960,51,9,-12
2085,-176,-1704,960,51,9,-10
2090,-184,-1720,984,52,9,-12
2095,-192,-1704,976,53,11,-12
2100,-216,-1704,952,53,10,-11
2105,-184,-1704,912,54,10,-11
2110,-176,-1720,992,54,10,-10
2115,-176,-1720,960,54,12,-11
2120,-192,-1704,984,53,10,-10
2125,-192,-1696,976,52,9,-9
2130,-184,-1712,960,51,10,-8
2135,-160,-1712,976,51,9,-9
2140,-168,-1712,944,50,10,-10
2145,-184,-1728,976,51,10,-10
2150,-184,-1728,992,51,10,-11
2155,-192,-1688,968,53,11,-11
2160,-192,-1712,992,53,10,-10
2165,-168,-1720,960,54,10,-10
2170,-192,-1712,984,55,9,-12
2175,-168,-1744,944,55,9,-11
2180,-200,-1712,944,56,10,-11
2185,-168,-1704,976,56,10,-10
2190,-192,-1720,936,55,9,-11
2195,-184,-1712,984,55,8,-12
2200,-184,-1712,936,54,10,-12
2205,-176,-1736,984,52,10,-12
2210,-160,-1664,1016,52,10,-11
2215,-176,-1728,976,51,10,-11
2220,-192,-1712,992,51,11,-11
2225,-184,-1704,952,51,10,-9
2230,-176,-1744,984,52,11,-12
2235,-192,-1720,976,52,11,-12
2240,-200,-1728,976,53,11,-12
2245,-200,-1728,960,54,11,-13
2250,-192,-1712,952,54,12,-12
2255,-200,-1736,968,55,10,-12
2260,-200,-1728,960,56,11,-11
2265,-184,-1712,992,54,11,-13
2270,-184,-1704,960,54,9,-14
2275,-192,-1712,936,55,10,-13
2280,-192,-1704,992,55,10,-13
2285,-184,-1712,976,54,10,-11
2290,-176,-1728,928,54,11,-11
2295,-176,-1728,952,53,11,-10
2300,-192,-1704,944,51,11,-11
2305,-192,-1744,992,50,11,-11
2310,-160,-1744,984,48,11,-10
2315,-168,-1728,1000,48,11,-9
2320,-200,-1728,984,48,11,-11
2325,-184,-1720,960,48,11,-13
2330,-176,-1736,984,48,12,-13
2335,-176,-1720,936,48,11,-11
2340,-168,-1744,968,49,11,-12
2345,-184,-1704,960,51,9,-13
2350,-176,-1712,944,53,10,-12
2355,-176,-1704,928,56,10,-12
2360,-176,-1728,984,60,10,-10
2365,-192,-1696,1000,62,11,-9
2370,-160,-1704,968,62,11,-9
2375,-208,-1680,944,59,12,-9
2380,-184,-1728,976,56,11,-10
2385,-176,-1712,1008,50,12,-11
2390,-168,-1728,984,44,13,-13
2395,-184,-1744,976,39,13,-15
2400,-176,-1744,1000,36,12,-17
2405,-192,-1744,992,37,10,-17
2410,-176,-1752,920,44,9,-17
2415,-176,-1752,968,52,8,-16
2420,-192,-1728,944,61,6,-13
2425,-184,-1736,944,69,7,-11
2430,-216,-1728,936,74,5,-9
2435,-192,-1696,928,76,6,-9
2440,-184,-1696,944,77,5,-5
2445,-168,-1696,976,75,6,-6
2450,-184,-1704,968,73,5,-8
2455,-208,-1688,944,71,6,-6
2460,-200,-1696,984,69,7,-7
2465,-200,-1672,992,67,6,-9
2470,-208,-1680,968,63,6,-9
2475,-200,-1696,952,57,4,-10
2480,-176,-1704,952,54,5,-12
2485,-176,-1704,1136,51,7,-12
2490,-184,-1704,960,50,7,-11
2495,-176,-1712,984,48,10,-12
2500,-184,-1704,984,46,11,-10
2505,-200,-1704,960,46,12,-11
2510,-176,-1728,976,46,12,-11
2515,-152,-1744,968,46,11,-11
2520,-168,-1744,968,48,10,-10
2525,-184,-1728,944,50,10,-11
2530,-160,-1736,960,51,11,-12
2535,-200,-1720,1000,52,11,-12
2540,-184,-1704,984,53,10,-13
2545,-200,-1696,952,56,10,-12
2550,-184,-1712,976,55,11,-12
2555,-192,-1712,944,55,11,-12
2560,-184,-1704,944,54,9,-12
2565,-176,-1696,984,53,10,-12
2570,-192,-1720,968,53,9,-11
2575,-184,-1688,968,51,9,-11
2580,-168,-1720,1000,51,11,-10
2585,-200,-1704,952,51,12,-11
2590,-216,-1704,936,51,11,-11
2595,-192,-1704,968,50,11,-12
2600,-184,-1728,984,50,10,-11
2605,-192,-1712,968,50,10,-13
2610,-200,-1728,992,52,9,-12
2615,-192,-1728,976,52,11,-11
2620,-200,-1720,968,51,11,-10
2625,-192,-1728,984,51,12,-11
2630,-184,-1704,992,51,12,-10
2635,-176,-1736,968,50,11,-10
2640,-192,-1744,968,51,11,-10
2645,-184,-1720,936,50,11,-12
2650,-200,-1736,960,51,12,-13
2655,-176,-1744,960,50,12,-13
2660,-208,-1720,976,51,12,-12
2665,-192,-1720,920,51,11,-12
2670,-184,-1744,976,50,11,-13
2675,-176,-1696,992,50,11,-13
2680,-200,-1720,968,49,13,-12
2685,-192,-1704,944,50,12,-11
2690,-184,-1736,960,50,12,-11
2695,-160,-1752,944,49,12,-11
2700,-192,-1712,960,51,11,-10
2705,-200,-1712,952,53,11,-11
2710,-184,-1704,944,54,10,-11
2715,-184,-1712,952,54,12,-11
2720,-200,-1704,944,54,11,-11
2725,-216,-1696,984,56,12,-10
2730,-200,-1712,952,56,10,-11
2735,-192,-1712,960,56,10,-12
2740,-192,-1728,944,55,10,-12
2745,-192,-1720,968,56,11,-10
2750,-200,-1696,984,55,12,-11
2755,-208,-1712,992,55,11,-12
2760,-176,-1704,968,54,11,-12
2765,-176,-1720,984,53,11,-12
2770,-160,-1704,952,52,9,-11
2775,-184,-1712,984,51,9,-11
2780,-184,-1728,968,50,10,-13
2785,-184,-1744,944,51,11,-13
2790,-192,-1736,984,54,10,-13
2795,-184,-1720,944,54,11,-12
2800,-192,-1712,952,55,11,-10
2805,-192,-1728,984,56,10,-12
2810,-168,-1704,968,55,10,-13
2815,-176,-1728,968,54,11,-12
2820,-176,-1728,960,52,10,-14
2825,-184,-1728,960,51,10,-14
2830,-192,-1704,960,51,10,-14
2835,-200,-1720,976,52,10,-13
2840,-176,-1720,968,52,10,-12
2845,-184,-1728,992,52,12,-13
2850,-184,-1712,952,52,11,-12
2855,-176,-1712,976,52,10,-14
2860,-208,-1720,992,52,11,-13
2865,-200,-1768,1056,51,11,-12
2870,-200,-1728,968,50,10,-12
2875,-168,-1704,944,51,10,-10
2880,-216,-1712,968,51,11,-11
2885,-184,-1712,984,48,10,-13
2890,-176,-1704,968,49,11,-12
2895,-184,-1704,944,49,10,-11
2900,-168,-1728,960,51,10,-12
2905,-192,-1720,960,53,10,-11
2910,-160,-1728,952,53,10,-11
2915,-184,-1688,944,55,10,-12
2920,-208,-1704,968,54,10,-12
2925,-208,-1696,968,53,9,-12
2930,-176,-1704,1000,52,9,-12
2935,-200,-1728,968,52,8,-12
2940,-192,-1704,944,52,8,-11
2945,-192,-1712,1000,53,7,-11
2950,-192,-1720,976,54,8,-11
2955,-200,-1680,984,55,10,-12
2960,-208,-1704,968,52,12,-12
2965,-192,-1720,976,51,12,-11
2970,-192,-1720,960,52,10,-12
2975,-200,-1704,1000,51,10,-10
2980,-160,-1704,960,50,10,-11
2985,-208,-1688,976,50,9,-12
2990,-192,-1728,984,52,10,-13
2995,-192,-1712,984,52,11,-13
3000,-200,-1720,1000,52,11,-12
3005,-200,-1720,968,52,11,-12
3010,-184,-1720,976,53,11,-12
3015,-184,-1728,952,53,10,-11
3020,-184,-1720,960,53,10,-10
3025,-176,-1720,992,54,10,-10
3030,-200,-1704,984,54,10,-10
3035,-176,-1728,968,53,10,-9
3040,-184,-1712,960,52,9,-10
3045,-168,-1696,944,53,9,-11
3050,-176,-1728,976,53,9,-10
3055,-184,-1736,960,52,10,-10
3060,-192,-1704,960,53,10,-11
3065,-200,-1704,960,52,11,-11
3070,-192,-1720,984,53,11,-9
3075,-176,-1720,976,53,10,-11
3080,-184,-1720,968,54,11,-11
3085,-168,-1720,944,53,11,-11
3090,-176,-1704,960,53,11,-12
3095,-192,-1712,984,52,10,-12
3100,-192,-1720,960,52,11,-13
3105,-184,-1688,968,52,11,-14
3110,-184,-1696,944,51,12,-14
3115,-208,-1720,968,52,11,-14
3120,-192,-1704,976,54,11,-13
3125,-216,-1688,960,52,9,-13
3130,-184,-1696,976,53,10,-12
3135,-192,-1720,968,53,10,-12
3140,-192,-1712,984,54,10,-10
3145,-168,-1736,960,55,10,-9
3150,-192,-1704,960,55,11,-11
3155,-184,-1728,960,54,11,-11
3160,-208,-1720,984,54,10,-10
3165,-176,-1736,976,53,10,-11
3170,-200,-1712,968,50,11,-12
3175,-184,-1704,984,49,11,-13
3180,-192,-1728,960,47,11,-13
3185,-200,-1720,968,47,13,-12
3190,-184,-1736,992,48,11,-12
3195,-184,-1688,960,48,11,-13
3200,-184,-1712,976,50,11,-12
3205,-168,-1696,952,52,10,-10
3210,-184,-1712,944,55,11,-11
3215,-176,-1712,968,60,11,-11
3220,-168,-1704,968,63,11,-10
3225,-200,-1704,976,65,13,-9
3230,-184,-1688,984,64,12,-10
3235,-168,-1712,976,60,12,-10
3240,-184,-1696,1000,53,14,-10
3245,-168,-1640,872,47,13,-11
3250,-184,-1736,1000,39,14,-12
3255,-184,-1736,960,34,15,-16
3260,-192,-1744,1000,32,13,-15
3265,-176,-1752,960,35,11,-17
3270,-160,-1752,944,44,11,-14
3275,-176,-1752,936,55,10,-15
3280,-200,-1744,936,66,9,-12
3285,-192,-1712,920,74,6,-11
3290,-192,-1728,920,78,7,-8
3295,-184,-1688,960,79,6,-7
3300,-200,-1704,968,76,6,-6
3305,-160,-1688,952,72,6,-6
3310,-192,-1712,960,69,7,-7
3315,-184,-1720,976,65,8,-6
3320,-192,-1696,976,62,8,-7
3325,-208,-1688,984,60,9,-7
3330,-208,-1696,936,56,9,-9
3335,-192,-1680,960,53,9,-12
3340,-168,-1720,920,49,9,-11
3345,-168,-1704,952,48,9,-13
3350,-160,-1736,936,46,9,-11
3355,-192,-1688,984,46,10,-10
3360,-168,-1728,976,46,10,-11
3365,-144,-1744,968,45,10,-11
3370,-200,-1728,968,47,11,-10
3375,-168,-1712,960,50,10,-10
3380,-184,-1712,984,51,10,-11
3385,-168,-1720,984,51,10,-10
3390,-160,-1736,968,53,9,-11
3395,-208,-1696,976,55,8,-11
3400,-192,-1712,936,56,7,-11
3405,-208,-1712,992,55,9,-12
3410,-200,-1704,968,55,9,-12
3415,-192,-1688,968,54,10,-12
3420,-200,-1712,944,54,10,-10
3425,-192,-1712,936,51,9,-10
3430,-184,-1720,968,52,9,-11
3435,-184,-1696,984,52,9,-10
3440,-176,-1720,968,52,9,-8
3445,-208,-1704,952,52,10,-10
3450,-216,-1704,944,54,9,-10
3455,-200,-1720,952,53,8,-11
3460,-176,-1728,928,51,8,-11
3465,-184,-1720,976,51,9,-11
3470,-152,-1736,944,49,7,-10
3475,-184,-1728,952,50,9,-10
3480,-192,-1704,984,48,10,-10
3485,-184,-1720,984,48,12,-10
3490,-192,-1720,992,48,11,-11
3495,-192,-1680,952,47,11,-11
3500,-208,-1704,952,45,12,-11
3505,-184,-1704,1000,46,12,-11
3510,-184,-1712,968,46,11,-13
3515,-168,-1736,992,45,12,-14
3520,-168,-1792,1048,45,12,-13
3525,-192,-1720,984,43,11,-14
3530,-184,-1728,928,42,11,-14
3535,-168,-1712,968,43,11,-15
3540,-184,-1712,968,44,11,-14
3545,-192,-1712,960,45,10,-12
3550,-176,-1728,976,46,9,-13
3555,-184,-1712,984,45,10,-13
3560,-216,-1704,976,46,11,-11
3565,-176,-1704,968,46,11,-12
3570,-184,-1728,960,47,11,-11
3575,-200,-1712,992,47,10,-13
3580,-184,-1720,944,48,10,-13
3585,-208,-1704,984,50,10,-13
3590,-184,-1712,944,50,10,-12
3595,-192,-1728,952,52,10,-13
3600,-200,-1712,960,51,10,-13
3605,-200,-1696,984,52,9,-12
3610,-192,-1696,960,52,10,-11
3615,-184,-1704,992,50,10,-12
3620,-176,-1712,1000,49,10,-12
3625,-176,-1752,984,47,11,-14
3630,-176,-1704,968,48,10,-13
3635,-192,-1720,936,47,10,-13
3640,-200,-1712,984,46,11,-13
3645,-176,-1712,960,47,12,-12
3650,-208,-1720,944,46,11,-12
3655,-200,-1720,952,46,12,-13
3660,-184,-1704,976,46,11,-13
3665,-176,-1728,944,46,10,-13
3670,-184,-1744,960,45,11,-13
3675,-208,-1736,984,47,11,-15
3680,-168,-1720,952,48,11,-14
3685,-176,-1720,944,48,11,-13
3690,-176,-1728,976,50,10,-15
3695,-176,-1728,968,49,10,-15
3700,-208,-1720,960,52,11,-15
3705,-192,-1696,968,52,10,-13
3710,-168,-1688,976,50,11,-13
3715,-176,-1712,968,50,11,-14
3720,-192,-1704,960,49,12,-12
3725,-168,-1728,992,48,12,-14
3730,-176,-1712,952,46,12,-14
3735,-184,-1736,960,46,10,-16
3740,-176,-1728,976,46,10,-13
3745,-184,-1736,952,45,9,-14
3750,-176,-1728,984,45,11,-15
3755,-184,-1728,984,44,11,-15
3760,-192,-1688,960,47,11,-16
3765,-192,-1712,976,47,11,-16
3770,-168,-1720,992,49,13,-16
3775,-168,-1712,960,52,14,-15
3780,-184,-1688,968,52,16,-17
3785,-184,-1712,968,51,16,-17
3790,-184,-1712,968,50,17,-17
3795,-168,-1712,952,47,17,-16
3800,-176,-1696,976,44,18,-17
3805,-192,-1696,960,42,17,-15
3810,-184,-1688,960,39,17,-14
3815,-184,-1728,984,38,15,-15
3820,-136,-1728,960,37,16,-13
3825,-176,-1736,960,39,15,-14
3830,-168,-1744,976,40,15,-12
3835,-192,-1712,928,40,15,-12
3840,-176,-1688,952,41,15,-13
3845,-200,-1696,952,40,14,-13
3850,-184,-1712,944,39,14,-14
3855,-192,-1712,936,37,15,-13
3860,-160,-1728,952,37,14,-14
3865,-192,-1696,936,36,15,-15
3870,-168,-1736,960,36,14,-15
3875,-152,-1712,1000,37,14,-15
3880,-184,-1720,952,38,14,-15
3885,-192,-1712,944,39,14,-14
3890,-168,-1728,968,39,14,-15
3895,-184,-1760,992,42,14,-15
3900,-208,-1696,920,44,14,-15
3905,-136,-1712,968,46,11,-17
3910,-192,-1720,968,47,11,-18
3915,-184,-1696,976,47,9,-18
3920,-200,-1704,960,44,7,-19
3925,-184,-1712,952,40,6,-19
3930,-216,-1736,960,38,7,-19
3935,-192,-1720,960,36,7,-19
3940,-216,-1720,944,34,6,-16
3945,-208,-1728,984,32,6,-16
3950,-200,-1720,960,30,6,-15
3955,-200,-1712,936,31,5,-15
3960,-200,-1728,952,32,5,-16
3965,-184,-1712,968,34,3,-14
3970,-176,-1728,968,37,3,-13
3975,-184,-1712,960,38,2,-14
3980,-152,-1744,968,40,2,-13
3985,-216,-1696,960,42,1,-11
3990,-184,-1736,968,43,1,-11
3995,-208,-1720,960,41,1,-10
4000,-176,-1728,920,39,-1,-12
4005,-208,-1720,944,38,0,-13
4010,-200,-1696,984,39,0,-15
4015,-184,-1712,952,39,1,-16
4020,-160,-1728,936,38,2,-16
4025,-184,-1696,976,37,2,-16
4030,-176,-1728,960,36,3,-17
4035,-184,-1704,976,36,5,-18
4040,-184,-1720,960,38,5,-19
4045,-184,-1688,984,38,7,-18
4050,-176,-1704,960,35,6,-19
4055,-200,-1704,944,32,6,-19
4060,-192,-1712,984,26,7,-21
4065,-168,-1736,952,26,9,-21
4070,-208,-1712,976,25,9,-20
4075,-192,-1744,944,24,9,-20
4080,-192,-1720,992,24,9,-20
4085,-200,-1712,968,22,8,-21
4090,-176,-1736,984,23,6,-23
4095,-176,-1720,984,25,6,-26
4100,-176,-1720,960,26,4,-29
4105,-200,-1688,968,23,2,-30
4110,-184,-1720,952,20,2,-34
4115,-184,-1720,968,15,1,-33
4120,-168,-1680,968,10,0,-35
4125,-176,-1720,952,4,-1,-35
4130,-168,-1704,968,2,-1,-36
4135,-176,-1704,944,3,0,-35
4140,-184,-1704,976,3,1,-32
4145,-176,-1704,944,4,1,-30
4150,-176,-1744,960,4,2,-27
4155,-136,-1712,952,3,4,-23
4160,-168,-1728,984,3,5,-21
4165,-176,-1736,976,2,7,-18
4170,-176,-1736,944,0,8,-16
4175,-168,-1752,944,-1,7,-17
4180,-160,-1760,920,-2,6,-18
4185,-160,-1776,936,1,7,-18
4190,-144,-1768,928,7,5,-17
4195,-144,-1712,936,16,7,-15
4200,-152,-1736,928,23,7,-10
4205,-160,-1728,904,26,8,-8
4210,-168,-1736,928,26,6,-6
4215,-168,-1712,960,23,8,-5
4220,-176,-1752,936,19,6,-4
4225,-152,-1720,952,15,6,-8
4230,-168,-1736,920,11,7,-11
4235,-176,-1728,912,10,5,-11
4240,-176,-1752,936,9,5,-12
4245,-176,-1744,960,12,6,-14
4250,-184,-1744,896,13,6,-13
4255,-176,-1744,896,14,5,-13
4260,-160,-1744,920,17,5,-13
4265,-176,-1728,936,20,4,-13
4270,-176,-1736,920,19,5,-11
4275,-184,-1728,896,20,5,-13
4280,-128,-1696,976,19,3,-10
4285,-192,-1728,888,18,3,-10
4290,-200,-1728,920,14,3,-12
4295,-176,-1728,912,12,2,-9
4300,-208,-1728,912,10,3,-8
4305,-176,-1704,936,9,3,-7
4310,-176,-1720,920,9,5,-8
4315,-176,-1768,976,9,6,-10
4320,-208,-1744,944,10,7,-7
4325,-192,-1736,912,11,6,-6
4330,-176,-1736,920,14,8,-8
4335,-192,-1760,920,17,8,-10
4340,-192,-1776,912,20,6,-10
4345,-208,-1752,896,22,5,-12
4350,-168,-1752,904,22,4,-15
4355,-192,-1760,936,23,2,-15
4360,-192,-1736,912,24,3,-15
4365,-168,-1760,928,27,3,-15
4370,-192,-1744,944,28,3,-15
4375,-176,-1728,928,28,4,-15
4380,-176,-1696,896,27,3,-16
4385,-184,-1712,904,24,3,-14
4390,-176,-1736,904,22,4,-15
4395,-192,-1704,928,22,4,-14
4400,-192,-1720,920,20,3,-14
4405,-184,-1736,936,20,4,-12
4410,-200,-1736,912,20,4,-11
4415,-200,-1744,960,20,5,-12
4420,-160,-1744,944,19,4,-11
4425,-184,-1776,928,17,4,-13
4430,-176,-1784,928,15,4,-14
4435,-168,-1784,936,15,6,-15
4440,-184,-1760,928,15,6,-17
4445,-184,-1744,920,15,8,-18
4450,-208,-1744,944,15,7,-18
4455,-192,-1744,896,15,4,-17
4460,-168,-1760,944,18,3,-19
4465,-168,-1784,888,19,4,-19
4470,-184,-1752,952,21,3,-17
4475,-208,-1728,920,23,4,-17
4480,-176,-1712,920,25,5,-16
4485,-168,-1744,928,27,6,-17
4490,-176,-1744,896,27,7,-16
4495,-168,-1720,952,26,7,-16
4500,-184,-1704,944,25,6,-18
4505,-152,-1728,928,25,7,-19
4510,-168,-1720,912,26,8,-16
4515,-168,-1712,928,25,11,-16
4520,-136,-1736,944,25,13,-19
4525,-136,-1736,920,23,13,-19
4530,-160,-1712,912,21,16,-18
4535,-168,-1704,904,18,16,-18
4540,-160,-1720,936,14,19,-21
4545,-160,-1720,936,10,20,-22
4550,-168,-1696,904,7,23,-21
4555,-120,-1712,1016,5,24,-21
4560,-168,-1712,944,4,25,-22
4565,-144,-1720,912,1,26,-21
4570,-136,-1752,928,1,26,-21
4575,-160,-1736,896,1,26,-19
4580,-168,-1712,888,2,25,-19
4585,-168,-1728,952,2,25,-17
4590,-136,-1752,920,2,23,-17
4595,-152,-1752,904,0,23,-17
4600,-160,-1744,912,-3,22,-13
4605,-144,-1760,912,-7,22,-11
4610,-176,-1752,920,-12,24,-7
4615,-152,-1768,888,-17,27,-6
4620,-160,-1744,904,-22,29,-3
4625,-160,-1768,912,-28,32,-2
4630,-152,-1760,872,-38,36,-4
4635,-168,-1768,864,-48,39,-8
4640,-168,-1776,848,-61,44,-9
4645,-168,-1784,864,-73,51,-10
4650,-184,-1760,880,-84,54,-11
4655,-176,-1792,864,-89,56,-12
4660,-168,-1768,832,-87,57,-13
4665,-184,-1768,864,-79,57,-14
4670,-184,-1760,888,-68,60,-12
4675,-176,-1752,904,-56,60,-11
4680,-176,-1728,896,-45,61,-9
4685,-176,-1736,912,-39,61,-9
4690,-176,-1712,880,-38,59,-8
4695,-176,-1704,880,-42,54,-10
4700,-192,-1696,872,-52,48,-13
4705,-192,-1704,904,-62,48,-11
4710,-216,-1704,864,-74,49,-10
4715,-208,-1728,920,-90,50,-13
4720,-208,-1720,880,-108,49,-18
4725,-192,-1688,888,-133,48,-25
4730,-200,-1688,896,-158,47,-34
4735,-200,-1688,856,-189,47,-41
4740,-192,-1672,880,-223,48,-49
4745,-200,-1688,856,-255,53,-56
4750,-160,-1728,872,-284,56,-61
4755,-184,-1736,856,-307,58,-63
4760,-168,-1776,848,-322,58,-67
4765,-160,-1784,832,-327,60,-64
4770,-160,-1768,872,-329,65,-61
4775,-144,-1768,888,-327,74,-56
4780,-160,-1760,904,-328,84,-56
4785,-152,-1736,920,-332,88,-56
4790,-168,-1752,912,-344,87,-59
4795,-160,-1768,896,-356,84,-62
4800,-176,-1776,856,-366,83,-64
4805,-160,-1768,872,-370,84,-63
4810,-184,-1776,928,-370,90,-60
4815,-176,-1776,872,-371,92,-55
4820,-224,-1936,888,-381,85,-38
4825,-152,-1712,728,-369,57,-8
4830,-176,-1720,840,-366,82,-45
4835,-112,-1752,872,-385,95,-38
4840,-144,-1752,848,-418,100,-45
4845,-160,-1744,896,-455,99,-48
4850,-144,-1744,864,-488,94,-53
4855,-168,-1776,864,-512,93,-57
4860,-136,-1776,808,-526,96,-61
4865,-152,-1792,832,-533,101,-64
4870,-128,-1768,832,-536,108,-69
4875,-176,-1784,816,-538,113,-70
4880,-160,-1776,808,-539,118,-70
4885,-168,-1752,808,-546,122,-71
4890,-184,-1768,800,-552,119,-73
4895,-144,-1752,776,-561,112,-70
4900,-176,-1728,800,-578,114,-69
4905,-176,-1736,816,-602,121,-70
4910,-192,-1744,816,-633,130,-74
4915,-184,-1776,824,-663,138,-82
4920,-168,-1816,808,-688,136,-86
4925,-176,-1840,792,-705,129,-95
4930,-176,-1864,776,-714,127,-102
4935,-152,-1864,744,-719,126,-106
4940,-200,-1840,704,-724,125,-106
4945,-200,-1864,656,-734,121,-108
4950,-216,-1880,600,-749,116,-113
4955,-224,-1880,584,-765,119,-113
4960,-240,-1904,592,-771,123,-110
4965,-240,-1936,560,-762,125,-99
4970,-256,-1960,576,-738,127,-97
4975,-264,-1944,568,-705,129,-96
4980,-240,-1952,576,-675,125,-95
4985,-232,-1904,592,-652,118,-99
4990,-376,-2424,296,-643,112,-95
4995,-120,-1712,776,-665,63,17
5000,-208,-1744,600,-542,123,-81
5005,-208,-1736,568,-582,150,-103
5010,-184,-1768,528,-663,145,-118
5015,-184,-1808,520,-736,145,-131
5020,-200,-1856,504,-780,148,-139
5025,-184,-1880,488,-789,150,-135
5030,-192,-1896,480,-774,152,-128
5035,-200,-1880,472,-749,144,-125
5040,-216,-1872,464,-723,139,-121
5045,-192,-1904,472,-704,138,-118
5050,-192,-1880,464,-690,131,-116
5055,-200,-1888,456,-682,118,-115
5060,-232,-1904,456,-674,110,-114
5065,-184,-1896,464,-669,107,-113
5070,-176,-1920,472,-663,103,-113
5075,-184,-1944,440,-660,100,-114
5080,-200,-1928,432,-656,96,-109
5085,-168,-1936,392,-651,95,-106
5090,-160,-1944,424,-647,94,-104
5095,-152,-1936,416,-649,84,-105
5100,-152,-1944,368,-658,73,-106
5105,-160,-1928,360,-663,69,-105
5110,-152,-1936,376,-668,70,-103
5115,-416,-2856,96,-698,71,-82
5120,0,-1784,600,-696,34,64
5125,-208,-1696,232,-451,81,-67
5130,-144,-1824,264,-509,98,-73
5135,-176,-1872,272,-630,73,-98
5140,-144,-1960,232,-702,45,-117
5145,-128,-1984,288,-730,43,-124
5150,-160,-1976,272,-740,56,-128
5155,-144,-1968,240,-748,55,-128
5160,-152,-2000,216,-754,60,-128
5165,-160,-1984,248,-755,70,-122
5170,-136,-2008,208,-750,71,-116
5175,-144,-2000,192,-740,76,-111
5180,-136,-2008,208,-734,87,-108
5185,-136,-2024,200,-739,101,-107
5190,-152,-2032,184,-750,106,-107
5195,-144,-2032,136,-756,105,-108
5200,-128,-2024,128,-756,99,-113
5205,-32,-2720,256,-834,98,-57
5210,-136,-1720,368,-796,101,16
5215,-216,-1520,72,-506,104,-110
5220,-168,-1800,56,-529,114,-124
5225,-152,-1976,80,-658,96,-148
5230,-88,-2016,88,-716,62,-167
5235,-64,-1992,96,-725,62,-182
5240,-80,-1976,80,-728,81,-201
5245,-72,-1992,64,-739,100,-214
5250,-88,-2032,56,-744,123,-222
5255,-112,-1984,40,-737,140,-215
5260,-136,-2040,16,-725,140,-206
5265,-104,-2040,-16,-714,129,-197
5270,-112,-2024,-24,-711,124,-193
5275,-144,-2000,0,-714,127,-183
5280,-136,-2040,-16,-724,131,-174
5285,-160,-2048,-56,-732,122,-170
5290,-136,-2088,-64,-733,115,-163
5295,-160,-2064,-64,-726,114,-161
5300,-120,-2128,-48,-724,97,-143
5305,-120,-2096,-64,-714,80,-135
5310,-272,-2360,-256,-704,68,-126
5315,136,-2384,344,-897,68,17
5320,-96,-1672,192,-762,83,-36
5325,-48,-1520,-120,-546,57,-70
5330,-24,-1968,-144,-568,71,-74
5335,-72,-2040,-72,-662,53,-85
5340,-8,-2072,-136,-693,27,-96
5345,-8,-2048,-112,-699,25,-104
5350,8,-2048,-144,-701,30,-107
5355,0,-2064,-136,-698,35,-107
5360,-8,-2104,-176,-690,41,-106
5365,-24,-2064,-248,-681,47,-105
5370,0,-2056,-176,-675,48,-107
5375,-16,-2056,-168,-672,54,-106
5380,-16,-2056,-208,-677,59,-113
5385,16,-2096,-192,-684,59,-117
5390,0,-2104,-192,-686,64,-115
5395,-40,-2120,-232,-682,69,-116
5400,-56,-2160,-240,-671,72,-110
5405,-40,-2208,-248,-652,67,-106
5410,-40,-2160,-248,-626,64,-100
5415,-64,-2112,-256,-605,64,-91
5420,-96,-2088,-248,-591,65,-83
5425,-104,-2088,-216,-577,66,-75
5430,-136,-2048,-240,-568,65,-68
5435,-144,-2064,-240,-562,57,-58
5440,-112,-2072,-256,-547,46,-49
5445,-104,-2072,-280,-522,39,-41
5450,-64,-2056,-304,-492,27,-33
5455,-48,-2064,-368,-465,19,-24
5460,-40,-2072,-368,-441,11,-21
5465,-32,-2088,-360,-418,6,-16
5470,-48,-2112,-320,-397,3,-14
5475,-32,-2120,-336,-369,0,-10
5480,8,-2120,-320,-339,4,-7
5485,-32,-2104,-328,-315,8,-5
5490,-80,-2072,-288,-303,12,-4
5495,-96,-2088,-288,-293,12,-5
5500,-88,-2056,-288,-271,5,-4
5505,-64,-2048,-328,-246,-4,-2
5510,-48,-2040,-368,-231,-15,7
5515,-48,-2048,-384,-221,-22,14
5520,-16,-2048,-336,-213,-27,22
5525,-16,-2040,-376,-203,-32,24
5530,-8,-2040,-360,-192,-39,22
5535,-32,-2040,-328,-178,-41,16
5540,-16,-2040,-312,-172,-38,12
5545,-56,-2048,-312,-170,-37,6
5550,-48,-2032,-360,-168,-44,-2
5555,-72,-2024,-432,-161,-50,-11
5560,-80,-1992,-424,-156,-50,-12
5565,-64,-1968,-456,-156,-55,-12
5570,-88,-1960,-408,-159,-62,-10
5575,-48,-1968,-472,-163,-75,-10
5580,-48,-2000,-472,-164,-80,-11
5585,-40,-2032,-448,-167,-81,-14
5590,-56,-2008,-440,-168,-80,-19
5595,-64,-2024,-456,-166,-82,-26
5600,-88,-2048,-464,-167,-87,-31
5605,-80,-2032,-464,-170,-93,-37
5610,-104,-2048,-440,-175,-104,-43
5615,-48,-2040,-464,-179,-112,-47
5620,-32,-2048,-496,-180,-122,-51
5625,-32,-2056,-488,-183,-126,-53
5630,-24,-2016,-520,-183,-128,-51
5635,-8,-2024,-512,-191,-129,-48
5640,0,-2024,-496,-205,-131,-45
5645,-16,-2032,-512,-214,-133,-43
5650,-40,-2008,-512,-222,-135,-46
5655,-40,-2032,-512,-229,-138,-51
5660,-24,-2040,-512,-240,-138,-57
5665,-40,-2080,-520,-254,-139,-60
5670,-48,-2088,-520,-261,-145,-59
5675,-16,-2112,-512,-257,-149,-62
5680,-24,-2088,-520,-252,-152,-64
5685,-40,-2064,-536,-251,-153,-64
5690,-32,-2064,-576,-247,-147,-64
5695,-40,-2064,-576,-245,-141,-62
5700,-32,-2040,-576,-246,-138,-59
5705,-24,-2040,-600,-243,-138,-62
5710,-8,-2016,-568,-240,-143,-67
5715,-64,-2000,-616,-245,-149,-69
5720,-16,-2032,-624,-254,-156,-72
5725,-40,-2016,-600,-265,-157,-73
5730,-8,-2032,-568,-273,-158,-75
5735,-8,-2048,-576,-280,-161,-77
5740,-8,-2056,-576,-282,-164,-80
5745,8,-2048,-616,-279,-164,-82
5750,16,-2048,-632,-273,-167,-89
5755,0,-2008,-632,-265,-165,-90
5760,-48,-1976,-608,-266,-157,-88
5765,-48,-1968,-608,-273,-154,-87
5770,-64,-1976,-560,-276,-153,-84
5775,-80,-1944,-608,-273,-157,-82
5780,-72,-1904,-592,-266,-165,-83
5785,-80,-1888,-640,-263,-172,-86
5790,-80,-1872,-592,-262,-179,-91
5795,-128,-1904,-616,-263,-188,-91
5800,-80,-1896,-576,-259,-199,-94
5805,-56,-1864,-568,-252,-209,-97
5810,-56,-1856,-584,-245,-217,-101
5815,-48,-1792,-552,-238,-223,-103
5820,-24,-1760,-528,-240,-225,-104
5825,-16,-1752,-560,-253,-228,-105
5830,-8,-1712,-544,-269,-233,-105
5835,-40,-1720,-520,-287,-230,-107
5840,-64,-1752,-512,-304,-233,-112
5845,-32,-1760,-592,-319,-239,-119
5850,-64,-1768,-520,-331,-245,-125
5855,-72,-1768,-512,-337,-249,-125
5860,-56,-1760,-504,-341,-254,-122
5865,-56,-1800,-520,-343,-261,-119
5870,-48,-1776,-496,-343,-268,-114
5875,-8,-1768,-496,-340,-274,-111
5880,-8,-1776,-560,-334,-282,-111
5885,0,-1768,-512,-327,-285,-112
5890,8,-1744,-480,-319,-284,-114
5895,8,-1776,-464,-312,-282,-115
5900,8,-1752,-488,-306,-279,-114
5905,40,-1752,-464,-300,-278,-114
5910,8,-1760,-464,-292,-275,-117
5915,0,-1760,-496,-282,-277,-123
5920,-16,-1744,-496,-269,-281,-125
5925,-24,-1688,-480,-252,-285,-128
5930,-16,-1696,-496,-238,-289,-129
5935,-56,-1664,-520,-232,-291,-132
5940,-48,-1712,-512,-231,-295,-134
5945,-16,-1672,-488,-231,-298,-135
5950,-64,-1664,-496,-229,-305,-136
5955,-32,-1664,-480,-227,-313,-140
5960,-56,-1696,-520,-224,-321,-146
5965,-56,-1720,-520,-221,-326,-151
5970,-16,-1752,-520,-215,-333,-155
5975,-16,-1744,-528,-205,-339,-159
5980,0,-1728,-512,-196,-345,-166
5985,-24,-1736,-528,-192,-350,-173
5990,-48,-1752,-544,-187,-353,-179
5995,-16,-1784,-528,-180,-356,-183
6000,-24,-1776,-536,-174,-361,-187
6005,-24,-1768,-568,-169,-367,-194
6010,-24,-1784,-568,-168,-370,-204
6015,-56,-1816,-552,-165,-370,-211
6020,-24,-1808,-552,-159,-369,-214
6025,-56,-1832,-616,-153,-368,-220
6030,-80,-1840,-624,-147,-370,-226
6035,-80,-1880,-640,-139,-374,-234
6040,-72,-1912,-672,-133,-375,-239
6045,-80,-1960,-640,-123,-380,-251
6050,-120,-1944,-664,-115,-376,-262
6055,-104,-1992,-672,-105,-376,-269
6060,-88,-2008,-640,-96,-386,-280
6065,-96,-2016,-688,-86,-391,-293
6070,-48,-1992,-688,-78,-395,-306
6075,-40,-1984,-728,-67,-398,-316
6080,-48,-1944,-728,-60,-391,-320
6085,-48,-1904,-704,-54,-375,-316
6090,-48,-1896,-736,-54,-361,-311
6095,-24,-1880,-720,-61,-349,-306
6100,-56,-1824,-696,-76,-338,-301
6105,-24,-1832,-696,-99,-327,-293
6110,-8,-1856,-648,-133,-314,-286
6115,-8,-1904,-696,-168,-309,-282
6120,152,-1928,-736,-194,-306,-286
6125,8,-1976,-720,-209,-301,-287
6130,32,-2016,-752,-216,-290,-286
6135,32,-1992,-792,-224,-272,-283
6140,48,-2016,-792,-235,-257,-283
6145,24,-2000,-808,-243,-244,-285
6150,8,-2016,-792,-247,-232,-285
6155,0,-1976,-776,-247,-216,-286
6160,-40,-1952,-816,-251,-200,-286
6165,-72,-1984,-784,-256,-185,-283
6170,-80,-2000,-800,-262,-175,-277
6175,-72,-1976,-792,-261,-170,-267
6180,-48,-1976,-792,-259,-167,-258
6185,-16,-1936,-768,-262,-168,-246
6190,-8,-1944,-784,-268,-166,-236
6195,-16,-1904,-760,-275,-157,-224
6200,8,-1920,-784,-284,-146,-209
6205,16,-1888,-744,-289,-137,-195
6210,40,-1912,-744,-292,-133,-184
6215,56,-1896,-760,-295,-132,-180
6220,56,-1872,-776,-297,-127,-179
6225,48,-1832,-776,-299,-119,-179
6230,24,-1808,-752,-308,-108,-179
6235,48,-1832,-736,-319,-99,-179
6240,16,-1808,-728,-328,-97,-180
6245,8,-1784,-800,-332,-98,-179
6250,24,-1808,-816,-334,-98,-181
6255,-24,-1776,-792,-336,-97,-178
6260,-24,-1776,-792,-339,-94,-176
6265,-48,-1784,-752,-342,-91,-171
6270,-16,-1784,-800,-352,-88,-164
6275,-32,-1792,-800,-364,-91,-156
6280,0,-1800,-808,-373,-96,-146
6285,8,-1784,-744,-376,-97,-138
6290,8,-1800,-768,-378,-102,-132
6295,56,-1800,-784,-380,-106,-126
6300,48,-1768,-744,-383,-105,-119
6305,72,-1776,-704,-383,-107,-116
6310,80,-1768,-736,-378,-107,-111
6315,88,-1760,-760,-364,-106,-107
6320,112,-1736,-728,-349,-101,-101
6325,120,-1728,-696,-336,-94,-97
6330,136,-1728,-704,-332,-88,-97
6335,152,-1728,-704,-335,-87,-99
6340,168,-1728,-664,-335,-82,-99
6345,136,-1720,-680,-333,-77,-95
6350,112,-1720,-704,-330,-68,-91
6355,136,-1704,-720,-324,-61,-87
6360,112,-1704,-744,-321,-52,-79
6365,96,-1712,-752,-321,-42,-69
6370,128,-1760,-768,-318,-37,-59
6375,136,-1712,-752,-300,-39,-53
6380,144,-1736,-800,-278,-43,-50
6385,120,-1728,-776,-260,-43,-44
6390,120,-1760,-784,-242,-39,-38
6395,112,-1744,-776,-224,-35,-29
6400,112,-1712,-744,-209,-35,-25
6405,112,-1736,-728,-199,-40,-26
6410,80,-1752,-760,-194,-48,-28
6415,120,-1768,-752,-194,-53,-32
6420,72,-1800,-768,-190,-58,-31
6425,80,-1832,-768,-184,-66,-31
6430,104,-1856,-768,-171,-73,-27
6435,64,-1824,-800,-150,-81,-28
6440,64,-1856,-816,-130,-87,-22
6445,64,-1792,-856,-107,-91,-17
6450,72,-1744,-880,-90,-95,-6
6455,96,-1744,-912,-81,-100,0
6460,112,-1720,-872,-79,-102,6
6465,120,-1712,-864,-79,-104,8
6470,152,-1704,-872,-86,-101,4
6475,152,-1688,-864,-103,-93,1
6480,184,-1704,-864,-124,-87,-4
6485,176,-1720,-872,-147,-81,-10
6490,176,-1728,-880,-166,-74,-20
6495,160,-1696,-848,-188,-66,-32
6500,96,-1760,-864,-206,-54,-45
6505,56,-1688,-816,-225,-43,-55
6510,32,-1688,-880,-246,-36,-59
6515,40,-1688,-920,-268,-35,-57
6520,32,-1720,-952,-284,-37,-47
6525,16,-1672,-1008,-290,-40,-37
6530,56,-1672,-968,-290,-45,-20
6535,72,-1664,-1008,-294,-47,-6
6540,80,-1672,-928,-303,-48,8
6545,104,-1680,-944,-317,-47,19
6550,112,-1688,-944,-332,-41,31
6555,96,-1680,-952,-349,-30,40
6560,104,-1720,-1008,-362,-23,47
6565,96,-1736,-1000,-368,-16,54
6570,88,-1736,-976,-367,-12,65
6575,80,-1712,-992,-362,-11,70
6580,80,-1696,-1000,-356,-7,74
6585,80,-1672,-992,-360,3,78
6590,40,-1656,-968,-373,12,80
6595,40,-1648,-976,-384,26,86
6600,16,-1648,-936,-394,36,90
6605,8,-1624,-976,-399,36,92
6610,8,-1600,-976,-401,30,89
6615,16,-1584,-976,-403,22,87
6620,16,-1576,-952,-410,12,80
6625,8,-1568,-968,-420,7,72
6630,8,-1560,-960,-432,16,67
6635,0,-1592,-968,-445,31,70
6640,24,-1608,-944,-455,48,78
6645,112,-1640,-960,-457,64,86
6650,184,-1616,-928,-454,78,94
6655,280,-1624,-968,-453,98,102
6660,256,-1616,-936,-456,131,115
6665,248,-1624,-912,-465,169,126
6670,224,-1664,-920,-481,203,133
6675,216,-1672,-912,-492,234,134
6680,208,-1696,-888,-500,265,133
6685,168,-1704,-896,-504,292,126
6690,112,-1760,-896,-512,306,117
6695,48,-1760,-928,-515,312,107
6700,8,-1792,-920,-512,312,98
6705,-24,-1784,-912,-506,311,97
6710,-8,-1800,-920,-498,308,102
6715,-72,-1800,-920,-483,306,112
6720,-24,-1768,-920,-469,299,124
6725,-16,-1744,-968,-452,294,135
6730,-40,-1688,-976,-445,288,142
6735,-40,-1688,-952,-447,278,147
6740,-16,-1632,-944,-458,270,153
6745,0,-1656,-896,-471,266,161
6750,0,-1664,-936,-481,265,167
6755,8,-1648,-960,-492,261,174
6760,40,-1648,-976,-505,257,178
6765,40,-1664,-1024,-523,256,181
6770,72,-1672,-1016,-549,255,183
6775,96,-1672,-1016,-579,258,182
6780,96,-1688,-1000,-606,271,176
6785,64,-1680,-976,-634,287,167
6790,56,-1744,-952,-657,298,156
6795,24,-1776,-968,-667,309,144
6800,0,-1736,-968,-661,315,136
6805,-16,-1744,-960,-641,319,130
6810,-88,-1632,-920,-622,322,124
6815,-64,-1680,-936,-610,321,123
6820,-16,-1632,-920,-605,318,123
6825,8,-1560,-800,-610,315,125
6830,0,-1600,-896,-619,314,131
6835,0,-1584,-880,-627,319,139
6840,-24,-1576,-864,-624,328,153
6845,-32,-1568,-824,-608,340,170
6850,0,-1552,-832,-588,347,185
6855,0,-1536,-864,-573,349,196
6860,16,-1488,-896,-569,350,201
6865,24,-1456,-880,-580,354,203
6870,48,-1448,-880,-597,359,201
6875,48,-1416,-912,-620,367,195
6880,64,-1456,-864,-637,381,191
6885,80,-1440,-848,-644,394,186
6890,80,-1440,-840,-643,401,181
6895,104,-1448,-816,-641,405,176
6900,56,-1440,-776,-640,413,175
6905,80,-1432,-704,-642,432,177
6910,48,-1432,-704,-647,456,185
6915,48,-1400,-640,-654,492,203
6920,16,-1328,-600,-675,526,219
6925,24,-1296,-576,-714,549,235
6930,56,-1280,-600,-762,564,250
6935,40,-1264,-600,-806,568,266
6940,24,-1264,-632,-836,561,285
6945,16,-1280,-640,-848,556,303
6950,8,-1248,-648,-842,565,320
6955,0,-1208,-632,-826,583,339
6960,-40,-1168,-616,-822,608,352
6965,-88,-1152,-544,-841,633,361
6970,-128,-1120,-512,-864,639,369
6975,-88,-1088,-456,-876,637,374
6980,-32,-1112,-504,-876,643,375
6985,-40,-1024,-504,-868,660,374
6990,-8,-1016,-560,-862,678,366
6995,-16,-992,-616,-863,687,352
7000,-24,-1000,-720,-873,698,342
7005,-24,-1048,-720,-882,715,345
7010,-24,-1040,-704,-884,742,343
7015,-64,-1040,-688,-878,766,324
7020,-152,-1032,-712,-861,776,297
7025,-224,-1024,-664,-848,779,267
7030,-288,-1024,-648,-840,781,249
7035,-304,-1048,-632,-829,774,240
7040,-280,-1104,-592,-818,760,235
7045,-296,-1136,-640,-802,748,230
7050,-320,-1184,-592,-780,739,230
7055,-360,-1176,-568,-745,725,239
7060,-360,-1256,-520,-690,701,261
7065,-360,-1256,-528,-612,667,286
7070,-272,-1240,-504,-523,630,311
7075,-192,-1184,-504,-430,597,326
7080,-104,-1160,-496,-347,567,323
7085,-40,-1104,-488,-290,538,303
7090,-8,-1064,-512,-263,516,277
7095,40,-1024,-464,-252,507,258
7100,56,-912,-424,-240,512,249
7105,80,-832,-384,-235,529,241
7110,120,-792,-368,-240,546,234
7115,144,-720,-384,-253,551,227
7120,144,-608,-440,-275,542,222
7125,208,-544,-496,-307,529,227
7130,208,-504,-552,-341,536,247
7135,240,-512,-656,-382,561,264
7140,240,-488,-712,-427,582,269
7145,216,-456,-816,-471,583,257
7150,176,-440,-896,-508,561,233
7155,160,-432,-976,-538,521,204
7160,128,-456,-1032,-570,466,172
7165,112,-424,-1160,-593,397,141
7170,88,-392,-1352,-604,309,106
7175,80,-336,-1552,-609,208,63
7180,72,-240,-1728,-621,95,3
7185,56,-152,-1960,-671,-16,-75
7190,16,-104,-2232,-782,-129,-164
7195,-8,-88,-2584,-960,-251,-256
7200,-32,-128,-2944,-1205,-391,-335
7205,-40,-304,-3336,-1491,-554,-385
7210,-40,-440,-3752,-1781,-777,-414
7215,-144,-672,-4384,-2051,-1084,-422
7220,-240,-928,-5136,-2309,-1472,-420
7225,-368,-1072,-6016,-2571,-1917,-382
7230,-288,-1416,-6952,-2848,-2383,-274
7235,-336,-1664,-7608,-3215,-2807,-121
7240,-376,-2040,-8152,-3708,-3072,79
7245,-1008,-2432,-8032,-4337,-2970,297
7250,-1824,-2792,-7160,-5044,-2283,492
7255,-1216,-3344,-5840,-5681,-1106,641
7260,-72,-3784,-4224,-6301,-18,670
7265,848,-4296,-2240,-6784,521,589
7270,1528,-4424,-952,-6952,520,362
7275,1808,-4424,24,-6800,222,-17
7280,1912,-3816,-136,-6226,-156,-403
7285,1912,-3424,-152,-5475,-385,-687
7290,1952,-2488,-504,-4594,-417,-841
7295,2056,-1584,-816,-3652,-284,-987
7300,2016,-592,-968,-2837,15,-1189
7305,1864,328,-872,-2270,443,-1382
7310,1696,928,-816,-1990,916,-1509
7315,1352,1592,-696,-1980,1300,-1550
7320,944,2056,-496,-2128,1460,-1478
7325,712,2128,-560,-2241,1453,-1316
7330,488,2040,-984,-2180,1442,-1145
7335,176,1920,-1416,-1971,1496,-985
7340,-344,1696,-1968,-1709,1569,-804
7345,-720,1320,-2432,-1440,1609,-590
7350,-912,936,-2784,-1161,1574,-369
7355,-936,584,-2952,-910,1456,-186
7360,-808,328,-2968,-742,1309,-60
7365,-680,-40,-2688,-683,1226,12
7370,-504,-224,-2144,-640,1232,61
7375,-488,-440,-1744,-525,1271,28
7380,-528,-456,-1328,-383,1206,-38
7385,-504,-400,-1080,-154,1010,-87
7390,-440,-192,-1064,137,756,-92
7395,-344,32,-1168,410,539,-40
7400,-296,320,-1264,644,401,50
7405,-200,616,-1288,820,332,150
7410,-120,872,-1192,904,309,242
7415,-56,1112,-1112,874,317,319
7420,-40,1280,-1064,731,305,364
7425,-72,1296,-1104,500,222,380
7430,-64,1216,-1216,258,84,379
7435,8,1152,-1360,66,-43,352
7440,64,1176,-1480,-92,-105,313
7445,88,1168,-1488,-213,-80,274
7450,104,1136,-1520,-318,-22,239
7455,176,1048,-1480,-428,-18,204
7460,232,968,-1528,-542,-85,158
7465,296,856,-1576,-652,-176,88
7470,296,744,-1704,-736,-239,18
7475,256,648,-1680,-780,-249,-31
7480,272,552,-1624,-776,-234,-49
7485,352,456,-1592,-726,-244,-49
7490,360,400,-1608,-610,-295,-62
7495,336,368,-1664,-448,-360,-104
7500,256,424,-1816,-267,-410,-140
7505,208,496,-1968,-90,-434,-139
7510,208,536,-2072,62,-469,-114
7515,216,592,-2192,180,-525,-90
7520,312,656,-2336,258,-582,-72
7525,376,712,-2432,303,-618,-56
7530,424,776,-2520,315,-637,-47
7535,496,824,-2544,315,-658,-37
7540,576,864,-2640,308,-681,-23
7545,632,848,-2704,294,-695,-11
7550,648,840,-2800,264,-688,-10
7555,616,840,-2752,220,-669,-18
7560,624,768,-2704,169,-649,-25
7565,600,744,-2632,131,-642,-17
7570,616,680,-2568,110,-634,-6
7575,584,624,-2544,107,-613,14
7580,536,576,-2504,114,-580,41
7585,512,552,-2472,126,-545,77
7590,432,520,-2408,146,-519,125
7595,392,520,-2320,179,-503,180
7600,384,504,-2272,220,-498,234
7605,368,496,-2272,256,-504,276
7610,408,520,-2216,288,-518,300
7615,432,488,-2168,335,-534,306
7620,424,520,-2088,402,-542,298
7625,456,536,-2048,477,-536,281
7630,392,664,-2032,552,-526,264
7635,344,720,-2008,621,-532,245
7640,296,872,-2040,679,-565,228
7645,264,1024,-2096,716,-611,209
7650,280,1136,-2176,730,-643,194
7655,328,1256,-2240,720,-641,180
7660,336,1312,-2232,671,-612,156
7665,328,1368,-2200,563,-571,127
7670,272,1392,-2160,404,-521,99
7675,232,1352,-2040,204,-464,77
7680,144,1240,-1896,-4,-411,73
7685,128,1032,-1720,-199,-372,86
7690,96,952,-1632,-367,-350,106
7695,80,688,-1544,-502,-349,132
7700,88,504,-1520,-598,-361,150
7705,64,320,-1536,-641,-376,157
7710,40,232,-1552,-624,-385,153
7715,8,152,-1624,-556,-379,149
7720,0,168,-1704,-441,-360,147
7725,0,200,-1744,-303,-333,162
7730,24,272,-1776,-169,-313,195
7735,24,352,-1808,-55,-301,230
7740,64,424,-1872,37,-299,262
7745,160,504,-1872,108,-301,286
7750,200,592,-1848,152,-293,300
7755,232,664,-1840,181,-280,299
7760,288,696,-1752,188,-262,287
7765,296,808,-1712,174,-243,258
7770,248,792,-1680,130,-225,227
7775,208,824,-1688,74,-222,196
7780,168,800,-1744,17,-241,170
7785,88,800,-1816,-27,-270,148
7790,64,776,-1960,-58,-293,129
7795,-24,776,-2040,-75,-301,120
7800,-64,736,-2072,-73,-294,122
7805,-112,752,-2120,-47,-287,134
7810,-160,720,-2144,-6,-280,147
7815,-192,736,-2120,27,-262,153
7820,-232,712,-2072,36,-239,156
7825,-280,752,-2024,34,-232,166
7830,-264,752,-2048,49,-245,173
7835,-272,776,-2064,60,-272,180
7840,-280,768,-2176,51,-310,183
7845,-280,808,-2248,-20,-354,189
7850,-184,784,-2072,-132,-369,198
7855,-104,752,-2016,-192,-354,205
7860,-64,768,-1984,-198,-335,211
7865,0,784,-1984,-184,-320,215
7870,-112,808,-1832,-156,-317,223
7875,216,960,-2048,-96,-437,182
7880,-88,1160,-2296,-110,-553,102
7885,392,1640,-3512,367,-469,70
7890,240,1968,-3440,326,-71,190
7895,88,1832,-2792,-211,245,344
7900,136,1008,-1928,-707,354,378
7905,-48,768,-1752,-845,299,283
7910,-24,512,-1792,-882,67,178
7915,-72,896,-2736,-848,-69,84
7920,-320,192,-2456,-625,23,16
7925,-120,216,-1912,-470,1,1
7930,-56,480,-2072,-428,-108,-39
7935,-16,512,-2184,-289,-156,-55
7940,0,472,-2344,-173,-99,-51
7945,-64,368,-2272,-120,17,-39
7950,-104,312,-2248,-110,43,-39
7955,-112,472,-2312,-122,15,-61
7960,-8,536,-2336,-132,14,-60
7965,0,552,-2296,-98,45,-50
7970,-64,384,-2656,56,96,-69
7975,48,480,-2328,22,132,-43
7980,-48,504,-2216,-74,128,-49
7985,-16,480,-2256,-61,96,-53
7990,-32,496,-2240,-60,41,-55
7995,24,456,-2224,-43,-5,-60
8000,16,480,-2168,-13,-49,-61
8005,0,488,-2192,22,-91,-62
8010,24,448,-2136,57,-119,-61
8015,24,456,-2136,84,-149,-61
8020,24,432,-2152,104,-178,-57
8025,32,448,-2136,121,-207,-56
8030,8,408,-2152,133,-235,-57
8035,-32,392,-2176,141,-265,-59
8040,-72,408,-2216,145,-291,-62
8045,-128,384,-2208,149,-303,-64
8050,-88,392,-2176,149,-309,-69
8055,-96,416,-2160,140,-326,-75
8060,-120,432,-2232,127,-345,-79
8065,-128,384,-2120,118,-348,-78
8070,-176,352,-2096,114,-347,-76
8075,-136,352,-2080,114,-345,-74
8080,-184,376,-2088,108,-348,-70
8085,-176,384,-2080,108,-340,-65
8090,-168,384,-2056,108,-326,-60
8095,-176,368,-2000,110,-309,-53
8100,-160,368,-1960,113,-295,-46
8105,-152,384,-2024,120,-284,-44
8110,-152,400,-2048,133,-277,-40
8115,-192,336,-2048,140,-268,-40
8120,-192,336,-2040,138,-257,-36
8125,-184,392,-2048,138,-247,-33
8130,-1312,808,-1960,134,-231,-34
8135,416,104,-2008,247,-90,-39
8140,40,352,-1912,133,-171,-36
8145,-216,376,-2072,51,-287,-38
8150,-280,376,-1992,39,-279,-35
8155,-248,384,-1992,37,-266,-33
8160,-280,296,-1896,35,-253,-32
8165,-184,368,-1912,39,-249,-29
8170,-216,344,-2024,38,-237,-31
8175,-264,336,-1960,28,-219,-30
8180,-272,336,-1912,19,-206,-30
8185,-120,344,-1936,21,-190,-29
8190,-224,336,-1864,24,-158,-23
8195,-272,312,-1888,16,-146,-21
8200,-288,344,-1872,8,-140,-21
8205,-240,344,-1864,3,-120,-18
8210,-232,352,-1864,1,-101,-15
8215,-248,320,-1864,-2,-84,-11
8220,-232,328,-1864,-9,-70,-9
8225,-240,352,-1848,-17,-59,-7
8230,-256,368,-1864,-23,-45,-6
8235,-224,344,-1888,-30,-40,-4
8240,-224,360,-1896,-38,-42,-5
8245,-272,336,-1888,-46,-49,-12
8250,-272,368,-1904,-57,-61,-23
8255,-280,416,-1928,-63,-77,-32
8260,-288,448,-1976,-63,-71,-30
8265,-280,408,-1952,-46,-33,-14
8270,-280,408,-2008,-25,-3,-8
8275,-272,408,-1848,-6,11,-6
8280,-264,376,-1920,7,29,-4
8285,-288,392,-1896,13,42,-3
8290,-280,376,-1936,18,59,-2
8295,-248,384,-1896,22,72,-1
8300,-248,376,-1872,29,84,0
8305,-224,376,-1896,36,96,2
8310,-240,392,-1880,43,106,3
8315,-240,400,-1848,49,112,4
8320,-224,352,-1904,55,118,6
8325,-224,392,-1912,59,124,5
8330,-216,392,-1928,64,127,8
8335,-216,400,-1960,67,128,8
8340,-224,408,-1976,69,129,6
8345,-216,376,-1992,69,131,5
8350,-240,392,-1984,69,134,5
8355,-256,448,-2024,71,140,3
8360,-208,392,-2024,69,151,2
8365,-208,400,-1944,71,163,3
8370,-168,392,-1944,73,149,1
8375,-168,368,-1992,76,134,-2
8380,-208,392,-1984,83,135,-3
8385,-232,408,-1952,87,136,-1
8390,-200,432,-2000,92,133,-1
8395,-176,400,-1968,99,133,-2
8400,-184,384,-1984,107,133,-1
8405,-192,392,-1968,113,131,0
8410,-184,392,-1960,119,131,3
8415,-184,384,-1968,122,128,0
8420,-176,360,-1968,124,127,2
8425,-168,368,-2000,126,126,3
8430,-176,392,-1968,125,122,3
8435,-160,368,-2016,121,116,-1
8440,-184,400,-1992,113,110,0
8445,-152,376,-2008,103,103,-1
8450,-176,360,-2024,93,98,-3
8455,-168,360,-2024,84,91,-3
8460,-176,344,-2008,79,87,-4
8465,-176,376,-1960,75,84,-5
8470,-176,384,-1960,73,81,-7
8475,-160,360,-1976,71,77,-6
8480,-200,368,-1968,71,76,-7
8485,-168,368,-1960,73,75,-6
8490,-168,352,-1960,75,75,-6
8495,-184,360,-1992,76,74,-4
8500,-176,360,-1992,76,72,-3
8505,-184,376,-1992,76,72,-2
8510,-144,344,-1976,75,71,-3
8515,-152,352,-2000,71,70,-2
8520,-176,360,-1992,69,67,-3
8525,-160,384,-2000,62,66,-3
8530,-176,376,-2000,58,68,-4
8535,-168,360,-1992,53,67,-6
8540,-184,368,-2008,47,68,-8
8545,-136,352,-2024,42,71,-7
8550,-160,360,-2032,36,74,-8
8555,-168,400,-2024,33,76,-11
8560,-168,392,-2032,29,75,-11
8565,-168,376,-2040,27,76,-13
8570,-152,384,-2040,28,76,-14
8575,-160,392,-2008,33,74,-13
8580,-160,376,-2008,35,72,-13
8585,-136,392,-1992,39,68,-14
8590,-144,376,-2000,40,65,-17
8595,-160,384,-1976,43,65,-18
8600,-144,400,-2000,47,64,-17
8605,-128,368,-1984,53,63,-17
8610,-152,400,-1952,60,61,-16
8615,-160,400,-2000,65,57,-15
8620,-168,392,-1976,71,54,-17
8625,-144,384,-2008,79,53,-16
8630,-152,376,-1936,87,56,-13
8635,-176,376,-1904,93,62,-10
8640,-184,384,-1920,97,68,-10
8645,-144,352,-1960,99,73,-10
8650,-160,384,-1984,102,73,-11
8655,-168,360,-2000,106,74,-9
8660,-176,368,-1960,112,75,-10
8665,-168,400,-1976,116,78,-10
8670,-208,400,-1984,118,85,-11
8675,-176,368,-1944,121,101,-10
8680,-192,352,-1952,125,118,-9
8685,-184,376,-1920,131,130,-5
8690,-192,384,-1920,136,145,-5
8695,-184,360,-1896,141,161,-4
8700,-176,352,-1912,145,173,-3
8705,-168,368,-1976,152,188,-3
8710,-160,352,-1952,160,203,-1
8715,-144,368,-1928,168,215,-3
8720,-160,392,-1936,177,227,-3
8725,-112,344,-1920,181,235,-4
8730,-120,368,-1944,186,241,-4
8735,-120,360,-1960,193,248,-3
8740,-88,352,-1952,199,254,-3
8745,-96,328,-1928,206,259,-3
8750,-136,344,-1952,215,265,-2
8755,-112,328,-1904,224,272,-1
8760,-120,336,-1920,231,278,0
8765,-112,328,-1912,240,284,2
8770,-96,320,-1928,246,291,7
8775,-88,328,-1912,256,297,9
8780,-104,360,-1896,261,300,6
8785,-72,312,-1928,260,301,5
8790,-56,328,-1920,255,302,5
8795,-64,320,-1872,254,307,7
8800,-80,304,-1880,260,312,9
8805,-88,328,-1856,269,314,8
8810,-80,296,-1864,275,307,8
8815,-80,288,-1880,270,301,8
8820,-88,264,-1832,265,298,9
8825,-72,280,-1896,265,295,7
8830,-72,272,-1904,265,295,8
8835,-88,296,-1864,261,300,9
8840,-48,272,-1864,254,300,11
8845,-64,296,-1816,249,296,10
8850,-16,288,-1920,243,289,12
8855,0,296,-1912,233,283,13
8860,-24,280,-1888,227,279,11
8865,32,240,-1872,227,276,14
8870,-32,248,-1928,231,271,15
8875,-24,280,-1912,232,267,13
8880,-16,256,-1896,232,265,12
8885,8,256,-1968,231,260,13
8890,0,248,-1944,224,253,14
8895,8,256,-1928,217,250,14
8900,0,256,-1944,206,246,12
8905,-16,232,-1968,201,240,11
8910,16,232,-1952,194,235,10
8915,16,240,-1976,185,228,8
8920,8,256,-1960,175,220,9
8925,24,248,-1944,162,208,8
8930,24,232,-1952,146,195,6
8935,24,256,-1960,135,182,4
8940,40,216,-2016,126,169,3
8945,32,240,-1984,115,161,3
8950,16,248,-1936,106,154,1
8955,8,240,-1960,100,143,0
8960,32,240,-2008,94,131,-2
8965,24,248,-2024,87,120,-2
8970,56,232,-2000,80,110,-3
8975,48,264,-2000,72,102,-4
8980,48,224,-2032,65,94,-4
8985,48,240,-2000,58,83,-6
8990,24,248,-2016,51,71,-9
8995,48,224,-2008,46,58,-7
9000,32,264,-2000,43,46,-7
9005,56,248,-2016,37,34,-9
9010,24,240,-2016,34,22,-9
9015,32,240,-1976,33,12,-10
9020,16,240,-1976,32,4,-10
9025,16,256,-1952,32,1,-9
9030,32,232,-1944,32,-3,-10
9035,24,224,-1952,31,-5,-9
9040,24,232,-2024,26,-10,-9
9045,16,256,-1992,23,-14,-7
9050,48,232,-2000,22,-17,-9
9055,24,256,-2000,21,-19,-10
9060,8,240,-2016,18,-22,-9
9065,32,256,-1968,17,-27,-10
9070,24,264,-1992,15,-32,-11
9075,48,232,-1992,12,-36,-9
9080,24,248,-1984,12,-45,-7
9085,8,248,-1984,10,-51,-8
9090,16,256,-1984,13,-55,-10
9095,0,256,-1952,14,-60,-10
9100,8,280,-2000,15,-62,-9
9105,24,272,-2008,16,-65,-9
9110,8,272,-2024,16,-67,-10
9115,24,240,-1992,17,-68,-9
9120,24,240,-1968,19,-66,-9
9125,16,240,-1968,21,-64,-8
9130,8,256,-1944,21,-62,-9
9135,16,280,-1968,19,-62,-8
9140,24,232,-1968,15,-65,-10
9145,16,264,-1960,15,-66,-9
9150,24,296,-2016,13,-70,-10
9155,8,272,-1984,12,-76,-9
9160,16,288,-1992,11,-82,-10
9165,16,280,-2008,8,-85,-11
9170,8,256,-1984,6,-88,-12
9175,8,272,-2016,4,-94,-11
9180,16,248,-1992,3,-97,-12
9185,0,264,-1992,4,-99,-13
9190,0,264,-2008,5,-102,-12
9195,0,256,-2000,6,-102,-13
9200,0,264,-1968,8,-102,-13
9205,0,264,-1952,7,-98,-12
9210,0,272,-1952,4,-94,-13
9215,-8,264,-1960,3,-93,-10
9220,8,272,-2008,1,-95,-10
9225,8,256,-1984,-1,-95,-10
9230,0,272,-1992,-2,-94,-10
9235,0,240,-1960,-4,-95,-10
9240,-8,288,-1976,-8,-98,-11
9245,8,288,-1984,-11,-101,-11
9250,-8,280,-1960,-15,-103,-12
9255,16,304,-2024,-16,-108,-11
9260,-8,280,-1976,-17,-110,-12
9265,-32,280,-1984,-17,-112,-13
9270,-32,288,-1984,-17,-114,-13
9275,-32,272,-1992,-18,-113,-12
9280,-40,288,-1984,-16,-111,-13
9285,-8,288,-1992,-15,-110,-15
9290,-40,280,-1992,-15,-107,-14
9295,-24,288,-1984,-14,-105,-14
9300,-24,296,-2008,-16,-102,-13
9305,-32,296,-2000,-18,-95,-13
9310,-24,296,-1984,-17,-90,-12
9315,-16,288,-1920,-21,-96,-14
9320,8,280,-1968,-27,-98,-13
9325,-32,320,-1984,-33,-91,-11
9330,-32,288,-1952,-40,-88,-11
9335,-40,296,-1960,-46,-90,-14
9340,-40,304,-2000,-48,-96,-14
9345,-48,312,-1968,-48,-104,-16
9350,-48,312,-1992,-40,-107,-18
9355,-16,280,-1984,-34,-108,-19
9360,-56,288,-1992,-28,-109,-20
9365,-24,312,-1960,-27,-110,-19
9370,-48,328,-1976,-28,-110,-18
9375,-48,304,-1968,-29,-109,-18
9380,-64,312,-1960,-30,-106,-18
9385,-56,312,-1960,-31,-102,-20
9390,-104,312,-1912,-28,-99,-19
9395,-32,288,-1968,-26,-96,-19
9400,-48,320,-1976,-20,-94,-18
9405,-24,312,-1984,-18,-95,-19
9410,-64,336,-1968,-15,-96,-18
9415,-72,312,-1968,-10,-93,-18
9420,-64,304,-1936,-9,-93,-19
9425,-72,296,-1952,-11,-91,-20
9430,-80,336,-1944,-12,-90,-20
9435,-72,336,-1936,-10,-86,-19
9440,-96,304,-1944,-8,-81,-20
9445,-96,304,-1912,-7,-76,-20
9450,-104,312,-1872,-9,-69,-20
9455,-96,312,-1904,-8,-61,-19
9460,-112,320,-1920,-5,-55,-18
9465,-88,312,-1912,-6,-52,-20
9470,-96,312,-1968,-3,-48,-20
9475,-88,328,-1952,-2,-45,-18
9480,-80,304,-1952,-2,-39,-17
9485,-112,352,-1944,0,-34,-17
9490,-88,328,-1920,3,-27,-18
9495,-96,336,-1960,4,-22,-18
9500,-80,320,-1936,-1,-16,-18
9505,-88,360,-1944,-4,-11,-16
9510,-72,344,-1928,-6,-8,-16
9515,-96,344,-1960,-6,-2,-17
9520,-80,344,-1944,-8,3,-16
9525,-80,336,-1928,-9,9,-16
9530,-88,312,-1960,-11,12,-17
9535,-88,344,-1992,-13,17,-17
9540,-64,352,-1976,-16,22,-16
9545,-80,352,-1968,-18,28,-15
9550,-72,336,-1960,-20,30,-15
9555,-80,344,-1992,-19,32,-14
9560,-56,328,-2008,-19,32,-13
9565,-24,344,-2032,-18,31,-13
9570,-80,312,-1976,-13,30,-11
9575,-88,336,-1984,-11,30,-10
9580,-80,344,-2016,-9,33,-11
9585,-88,360,-2000,-7,35,-11
9590,-96,360,-1992,-5,38,-10
9595,-64,368,-2016,-5,43,-9
9600,-80,336,-2000,-5,46,-9
9605,-80,360,-2008,1,50,-8
9610,-64,344,-1984,6,53,-8
9615,-88,368,-2008,10,56,-8
9620,-88,344,-1976,13,60,-9
9625,-64,344,-2016,17,60,-9
9630,-72,344,-2008,19,62,-11
9635,-72,344,-1992,23,62,-9
9640,-96,360,-1960,25,63,-9
9645,-32,344,-1984,28,66,-9
9650,-32,360,-1984,28,64,-9
9655,-72,320,-1960,27,64,-9
9660,-80,352,-1968,28,62,-10
9665,-48,336,-1960,29,59,-10
9670,-24,376,-2000,28,55,-9
9675,-64,328,-1976,27,52,-11
9680,-80,360,-1952,28,50,-11
9685,-48,328,-1952,27,47,-11
9690,-56,336,-1944,26,44,-11
9695,-88,352,-1944,25,42,-11
9700,-128,376,-1920,20,36,-12
9705,96,240,-2560,-8,-18,-8
9710,0,296,-1912,17,43,-5
9715,-32,336,-1960,16,38,-9
9720,8,336,-1952,19,39,-11
9725,-48,368,-2000,22,41,-11
9730,-56,344,-1968,24,40,-12
9735,-72,376,-1944,23,43,-13
9740,-48,336,-1968,22,42,-14
9745,-64,344,-1968,22,42,-12
9750,-48,304,-1976,22,40,-11
9755,-80,368,-1960,22,37,-14
9760,-24,344,-2008,27,33,-16
9765,-64,328,-1928,31,27,-16
9770,-48,344,-1976,25,27,-16
9775,-56,368,-1992,25,27,-16
9780,-72,336,-1952,26,27,-16
9785,-32,352,-1944,26,27,-16
9790,-56,376,-1976,28,25,-17
9795,-32,352,-1960,28,22,-18
9800,-24,344,-1952,27,21,-17
9805,-72,352,-1952,27,16,-16
9810,-24,360,-1968,25,18,-15
9815,-48,376,-1944,24,16,-14
9820,-80,368,-1960,24,15,-15
9825,-64,352,-1968,23,14,-17
9830,-48,328,-1952,24,12,-18
9835,-72,432,-1896,23,9,-19
9840,-48,360,-1984,27,7,-18
9845,-24,384,-1920,24,11,-17
9850,-64,352,-1920,22,13,-17
9855,-72,360,-1960,21,14,-18
9860,-48,360,-1968,21,15,-17
9865,-72,320,-1904,19,15,-16
9870,-64,360,-1944,19,15,-15
9875,-48,360,-1968,18,16,-16
9880,-64,368,-1984,20,17,-16
9885,-64,368,-1976,21,15,-16
9890,-56,352,-1968,23,16,-14
9895,-72,384,-1992,25,14,-16
9900,-40,344,-2008,26,13,-17
9905,-56,336,-1968,27,11,-16
9910,-40,368,-1952,29,11,-15
9915,-56,360,-1984,29,9,-16
9920,-56,360,-1976,31,8,-15
9925,-40,376,-1984,34,9,-14
9930,-8,336,-2000,36,9,-12
9935,-32,344,-2008,38,8,-13
9940,-40,368,-1976,40,9,-14
9945,-56,384,-1960,41,8,-12
9950,-32,344,-1984,43,8,-15
9955,-48,416,-1984,43,8,-14
9960,-72,360,-1976,44,9,-13
9965,-64,352,-2000,44,7,-14
9970,-32,360,-1976,44,5,-14
9975,-32,360,-1984,44,5,-15
9980,-32,352,-1968,46,5,-14
9985,-40,360,-1968,46,4,-14
9990,-40,368,-1976,46,2,-14
9995,-56,376,-1968,47,2,-15
10000,-32,360,-1960,46,1,-14
10005,-64,360,-1968,47,0,-13
10010,-56,360,-1984,47,0,-13
10015,-88,384,-1968,46,2,-13
10020,-40,360,-1952,46,2,-13
10025,-48,360,-1984,45,2,-12
10030,-72,368,-1952,44,3,-11
10035,-32,376,-1920,41,4,-12
10040,-64,360,-1960,41,6,-12
10045,-32,344,-1944,41,5,-10
10050,-64,352,-1952,40,3,-9
10055,-32,344,-1952,42,-1,-10
10060,-72,336,-1928,40,-4,-9
10065,-64,376,-1968,39,-6,-8
10070,-64,352,-1936,38,-4,-8
10075,-64,392,-1944,40,-4,-9
10080,-64,384,-1968,40,-5,-8
10085,-72,360,-1936,41,-1,-10
10090,-72,384,-1968,42,0,-9
10095,-64,376,-1920,43,1,-10
10100,-72,408,-1960,45,3,-8
10105,-40,352,-1944,46,4,-8
10110,-48,360,-1944,44,7,-9
10115,-48,376,-1944,42,10,-8
10120,-64,368,-1976,41,12,-8
10125,-48,352,-1928,42,12,-9
10130,-48,360,-1976,42,10,-8
10135,-64,376,-1992,44,8,-8
10140,-80,352,-2016,47,7,-8
10145,-40,376,-1984,48,5,-9
10150,-16,360,-2008,49,3,-8
10155,-80,376,-2000,47,3,-9
10160,-64,368,-1976,47,2,-8
10165,-40,408,-2000,47,2,-10
10170,-72,376,-1960,47,3,-10
10175,-24,336,-1984,46,5,-10
10180,-64,392,-1968,46,7,-11
10185,-64,376,-1952,45,8,-10
10190,-64,368,-1944,46,9,-10
10195,-56,384,-1952,49,17,-10
10200,-72,264,-1960,50,16,-10
10205,-64,384,-1960,48,3,-10
10210,-56,368,-1968,45,0,-10
10215,-72,368,-1960,48,1,-12
10220,-64,376,-1968,50,0,-10
10225,-88,376,-1960,49,1,-11
10230,-48,368,-1968,47,2,-12
10235,-48,400,-1960,45,2,-12
10240,-72,352,-1944,45,3,-12
10245,-88,376,-1976,46,4,-13
10250,-72,384,-1976,45,4,-14
10255,-80,376,-1984,43,6,-13
10260,-80,360,-1968,42,7,-12
10265,-48,376,-1960,40,9,-13
10270,-40,368,-1952,38,11,-13
10275,-48,368,-1968,35,12,-13
10280,-48,384,-1952,31,12,-14
10285,-40,368,-1976,29,15,-14
10290,-48,368,-1952,27,16,-11
10295,-32,344,-1952,24,17,-13
10300,-64,376,-1952,24,19,-13
10305,-48,376,-1944,22,21,-13
10310,-48,392,-1960,22,22,-14
10315,-56,376,-1944,21,21,-13
10320,-64,392,-1952,23,22,-13
10325,-64,408,-1960,24,22,-13
10330,-72,416,-1976,25,22,-14
10335,-56,376,-1968,27,23,-14
10340,-56,392,-1960,29,24,-14
10345,-32,368,-1944,32,25,-13
10350,-56,392,-1968,32,23,-13
10355,-40,384,-1992,35,23,-13
10360,-56,376,-1920,37,22,-13
10365,-32,352,-1936,39,23,-13
10370,-56,376,-1960,39,22,-14
10375,-72,408,-1944,40,22,-14
10380,-40,376,-1904,44,22,-14
10385,-72,360,-1920,42,23,-14
10390,-40,368,-1928,42,23,-14
10395,-56,384,-1920,44,20,-14
10400,-80,376,-1936,44,21,-12
10405,-32,376,-1960,44,18,-14
10410,-64,368,-1936,45,16,-13
10415,-16,360,-1944,45,15,-11
10420,-64,392,-1952,45,14,-12
10425,-40,360,-1960,45,13,-11
10430,-64,400,-1944,46,13,-12
10435,-56,392,-1928,47,12,-13
10440,-32,368,-1960,48,12,-11
10445,-64,392,-1936,47,13,-12
10450,-48,360,-1968,48,13,-10
10455,-72,360,-1936,49,14,-9
10460,-80,352,-1936,49,14,-11
10465,-56,368,-1928,50,14,-10
10470,-64,384,-1960,51,14,-8
10475,-48,368,-2000,52,13,-9
10480,-64,384,-1928,51,13,-9
10485,-24,376,-1928,50,13,-10
10490,-64,384,-1944,51,15,-10
10495,-56,392,-1936,51,13,-10
10500,-72,392,-1960,50,10,-8
10505,-56,384,-1976,49,10,-10
10510,-56,400,-1968,50,11,-9
10515,-56,376,-1968,49,10,-10
10520,-64,392,-1960,50,11,-9
10525,-24,416,-1952,49,13,-9
10530,-40,368,-1968,50,13,-9
10535,-40,376,-1944,47,13,-9
10540,-64,376,-1944,47,12,-8
10545,-32,392,-1960,46,12,-8
10550,-40,368,-1960,47,12,-8
10555,-56,368,-1976,46,11,-8
10560,-56,352,-1968,47,9,-9
10565,-56,376,-1960,46,9,-8
10570,-64,376,-1976,45,8,-8
10575,-16,360,-1992,45,8,-7
10580,-56,400,-1968,47,7,-7
10585,-64,384,-1944,48,8,-8
10590,-56,368,-1960,50,8,-8
10595,-64,376,-1976,49,8,-8
10600,-72,416,-1984,49,8,-8
10605,-56,400,-1968,49,7,-7
10610,-56,400,-1960,49,8,-7
10615,-40,376,-1968,52,5,-7
10620,-40,376,-2000,52,4,-7
10625,-32,384,-1960,53,4,-7
10630,-64,368,-1960,56,1,-7
10635,-56,376,-1952,55,3,-7
10640,-64,416,-1952,55,4,-7
10645,-80,376,-1968,56,5,-8
10650,-24,368,-1976,54,6,-7
10655,-56,392,-1968,55,7,-6
10660,-72,376,-1968,55,7,-7
10665,-48,360,-1944,56,6,-8
10670,-16,344,-1936,55,4,-7
10675,-8,408,-1960,54,4,-7
10680,-40,392,-1968,53,1,-8
10685,-56,360,-1952,52,-2,-8
10690,-64,376,-1936,52,-2,-9
10695,-48,408,-1944,53,-4,-8
10700,-48,360,-1952,50,-7,-10
10705,-56,376,-1952,48,-10,-9
10710,-72,376,-1920,46,-12,-10
10715,-56,384,-1952,44,-14,-11
10720,-40,368,-1952,43,-16,-10
10725,-64,384,-1912,42,-18,-11
10730,-72,384,-1944,41,-21,-13
10735,-64,408,-1960,41,-22,-14
10740,-64,384,-1944,40,-25,-15
10745,-40,392,-1936,40,-27,-15
10750,-72,392,-1960,40,-28,-16
10755,-56,392,-1936,41,-31,-16
10760,-64,392,-1952,44,-33,-18
10765,-40,400,-1952,43,-34,-16
10770,-56,376,-1920,43,-34,-16
10775,-72,384,-1960,43,-32,-15
10780,-80,392,-1960,44,-30,-16
10785,-72,384,-1952,46,-26,-15
10790,-104,368,-1952,49,-24,-16
10795,-72,376,-1976,51,-22,-17
10800,-64,376,-1936,51,-20,-16
10805,-56,376,-1944,51,-19,-15
10810,-24,376,-1952,52,-16,-16
10815,-56,368,-1968,53,-13,-15
10820,-72,384,-1920,51,-13,-14
10825,-72,376,-1920,49,-10,-14
10830,-64,392,-1936,46,-10,-14
10835,-80,360,-1904,44,-5,-14
10840,-48,360,-1928,43,-4,-12
10845,-80,392,-1968,44,-2,-11
10850,-64,360,-1952,45,-2,-10
10855,-80,376,-1984,47,-2,-10
10860,-40,344,-1952,45,-2,-10
10865,-88,368,-1960,43,-3,-8
10870,-96,400,-2008,40,-3,-8
10875,-64,376,-2008,41,-4,-8
10880,-64,384,-2016,41,-5,-8
10885,-48,392,-2008,41,-7,-7
10890,-80,400,-1968,43,-7,-7
10895,-72,400,-1976,42,-8,-7
10900,-104,424,-1992,38,-7,-8
10905,-56,392,-1976,35,-6,-9
10910,-72,384,-1984,34,-4,-11
10915,-80,392,-1976,34,-4,-11
10920,-80,400,-1976,35,-2,-10
10925,-80,416,-1976,35,-3,-10
10930,-72,416,-1944,34,-3,-11
10935,-88,400,-1984,36,-4,-11
10940,-32,392,-1952,38,-4,-13
10945,-48,384,-1992,39,-4,-12
10950,-96,408,-1984,40,-6,-13
10955,-56,392,-1968,41,-6,-14
10960,-72,408,-1960,41,-6,-15
10965,-80,408,-1976,42,-5,-15
10970,-96,384,-1944,44,-4,-16
10975,-64,392,-1928,46,-4,-15
10980,-80,392,-1920,47,-2,-16
10985,-64,400,-1944,49,0,-17
10990,-88,400,-1936,50,3,-18
10995,-64,376,-1952,51,5,-15
11000,-80,392,-1952,54,7,-16
11005,-72,344,-1968,55,7,-14
11010,-96,408,-1960,55,10,-13
11015,-88,392,-1952,56,11,-13
11020,-48,392,-1976,56,13,-12
11025,-56,368,-1936,58,12,-12
11030,-88,360,-1952,59,14,-11
11035,-80,408,-1960,60,15,-11
11040,-80,368,-1928,61,17,-12
11045,-64,384,-1968,63,19,-11
11050,-72,392,-1944,62,21,-11
11055,-104,384,-1944,63,24,-11
11060,-72,400,-1936,63,27,-11
11065,-80,400,-1936,63,28,-11
11070,-88,384,-1976,64,28,-8
11075,-72,400,-1936,63,29,-9
11080,-88,376,-1944,64,30,-7
11085,-72,368,-1960,63,29,-8
11090,-80,376,-1912,60,31,-9
11095,-96,400,-1952,60,30,-8
11100,-56,400,-1976,60,30,-8
11105,-80,392,-1960,61,29,-6
11110,-72,368,-1960,62,26,-7
11115,-96,392,-1976,61,27,-9
11120,-72,384,-1952,61,25,-8
11125,-64,416,-1976,60,26,-7
11130,-80,384,-1960,59,28,-7
11135,-64,376,-1960,59,28,-9
11140,-80,392,-1960,60,27,-7
11145,-96,408,-1976,59,28,-8
11150,-80,384,-1952,59,27,-6
11155,-88,368,-1944,57,27,-6
11160,-56,400,-1968,56,29,-7
11165,-72,384,-1968,55,27,-7
11170,-24,376,-1960,55,27,-8
11175,-72,392,-1976,54,24,-7
11180,-72,400,-1960,52,25,-8
11185,-80,392,-1952,50,24,-6
11190,-48,384,-1936,49,22,-9
11195,-48,368,-1984,47,21,-9
11200,-48,384,-1976,46,22,-9
11205,-40,392,-1968,46,23,-7
11210,-72,384,-1960,45,22,-9
11215,-56,376,-1976,46,21,-9
11220,-64,400,-1952,46,20,-9
11225,-56,424,-1944,46,19,-9
11230,-64,400,-1944,47,19,-9
11235,-72,384,-1944,46,17,-7
11240,-80,384,-1928,46,16,-7
11245,-32,376,-1960,47,15,-8
11250,-72,384,-1968,47,14,-9
11255,-64,368,-1968,46,12,-9
11260,-72,392,-1952,46,9,-9
11265,-40,384,-1968,45,9,-10
11270,-72,376,-1952,45,10,-9
11275,-72,384,-1936,45,10,-9
11280,-56,400,-1976,45,9,-9
11285,-72,392,-1960,45,8,-11
11290,-64,416,-1968,47,6,-11
11295,-72,392,-1984,46,5,-9
11300,-72,392,-2000,46,3,-9
11305,-88,400,-1968,46,3,-10
11310,-64,376,-1952,47,1,-11
11315,-80,408,-2008,48,1,-9
11320,-56,384,-1944,49,0,-12
11325,-48,368,-1976,49,0,-12
11330,-80,392,-1976,49,0,-12
11335,-32,392,-1960,49,-2,-10
11340,-64,368,-1960,51,-2,-12
11345,-56,400,-1936,50,-4,-12
11350,-72,392,-1944,51,-2,-13
11355,-72,384,-1944,51,-2,-12
11360,-88,392,-1960,50,-4,-12
11365,-80,416,-1944,51,-4,-12
11370,-72,384,-1968,50,-3,-11
11375,-80,408,-1936,52,-4,-14
11380,-80,400,-1968,52,-3,-11
11385,-88,392,-1936,51,-4,-12
11390,-56,384,-1960,52,-4,-11
11395,-72,392,-1936,52,-4,-11
11400,-80,392,-1960,52,-6,-11
11405,-72,416,-1936,52,-5,-13
11410,-48,400,-1952,53,-6,-11
11415,-80,392,-1944,52,-7,-11
11420,-48,400,-1944,53,-8,-11
11425,-72,384,-1952,54,-8,-11
11430,-72,432,-1960,54,-7,-12
11435,-64,408,-1944,54,-8,-12
11440,-88,408,-1968,56,-7,-10
11445,-56,368,-1912,55,-7,-14
11450,-72,392,-1936,54,-8,-11
11455,-72,384,-1944,55,-9,-12
11460,-72,400,-1944,55,-10,-12
11465,-80,408,-1968,56,-9,-12
11470,-80,368,-1920,55,-8,-11
11475,-88,392,-1952,55,-9,-12
11480,-80,392,-1936,56,-7,-12
11485,-88,400,-1960,56,-8,-13
11490,-80,408,-1976,55,-6,-13
11495,-80,384,-1912,55,-7,-12
11500,-88,392,-1944,53,-6,-12
11505,-72,400,-1936,50,-6,-12
11510,-64,368,-1912,49,-7,-13
11515,-96,376,-1944,47,-7,-11
11520,-104,384,-1952,45,-6,-12
11525,-64,392,-1920,44,-5,-11
11530,-72,384,-1976,45,-5,-12
11535,-80,368,-1944,47,-5,-13
11540,-88,368,-1960,48,-5,-11
11545,-88,400,-1960,47,-3,-12
11550,-72,384,-1960,46,-3,-11
11555,-80,400,-1944,46,-2,-12
11560,-88,400,-1984,46,-2,-10
11565,-88,368,-1952,45,0,-10
11570,-72,400,-1912,46,2,-9
11575,-72,384,-1936,45,3,-10
11580,-80,400,-1984,46,5,-10
11585,-80,408,-1952,47,4,-11
11590,-88,392,-1976,48,4,-10
11595,-80,424,-1952,46,3,-9
11600,-80,400,-1984,47,3,-9
11605,-88,384,-1968,47,0,-10
11610,-56,384,-1976,48,0,-10
11615,-88,416,-1992,48,0,-10
11620,-88,400,-1976,47,1,-10
11625,-80,368,-1968,49,2,-11
11630,-64,392,-1944,48,2,-11
11635,-96,400,-1968,49,4,-10
11640,-88,400,-1920,48,5,-11
11645,-80,368,-1976,50,7,-9
11650,-104,400,-1984,51,8,-10
11655,-80,408,-1992,52,9,-9
11660,-80,376,-1960,52,12,-12
11665,-80,392,-1968,52,10,-11
11670,-64,408,-1976,54,10,-12
11675,-64,384,-1968,54,10,-12
11680,-88,400,-1960,54,11,-10
11685,-64,384,-1960,55,11,-9
11690,-88,400,-1976,55,11,-12
11695,-96,384,-1944,54,11,-11
11700,-88,400,-1904,54,10,-10
11705,-96,416,-1952,54,10,-9
11710,-56,392,-1936,55,9,-9
11715,-80,376,-1928,55,9,-10
11720,-48,360,-1920,55,9,-9
11725,-120,408,-1952,57,11,-11
11730,-72,400,-1984,57,11,-9
11735,-64,408,-1960,57,11,-10
11740,-72,392,-1984,58,10,-11
11745,-56,392,-1952,58,11,-11
11750,-72,392,-1952,59,10,-10
11755,-96,384,-1952,59,10,-10
11760,-80,400,-1968,58,9,-11
11765,-88,400,-1928,58,10,-12
11770,-88,384,-1952,58,10,-12
11775,-96,384,-1960,58,11,-12
11780,-104,376,-1960,59,12,-10
11785,-72,376,-1944,58,11,-11
11790,-64,384,-1984,58,10,-13
11795,-80,400,-1904,59,10,-14
11800,-80,408,-1952,59,12,-14
11805,-80,400,-1992,58,12,-11
11810,-80,384,-1936,56,11,-11
11815,-64,392,-1984,56,11,-12
11820,-64,376,-1960,54,12,-11
11825,-88,392,-1968,54,11,-12
11830,-96,400,-1984,54,10,-10
11835,-96,392,-1952,53,9,-12
11840,-88,376,-1944,53,9,-12
11845,-112,400,-1952,53,9,-11
11850,-88,384,-1944,54,9,-11
11855,-80,376,-1960,54,7,-13
11860,0,376,-1920,54,8,-15
11865,-56,360,-1968,53,7,-12
11870,-96,424,-1920,54,5,-12
11875,-64,400,-1952,54,5,-12
11880,-72,376,-1976,54,5,-12
11885,-64,400,-1936,55,5,-12
11890,-104,392,-1944,54,6,-11
11895,-88,408,-1960,55,6,-10
11900,-56,376,-1968,55,6,-12
11905,-80,384,-1960,55,5,-12
11910,-64,448,-1992,54,5,-12
11915,-64,384,-1952,54,6,-12
11920,-64,392,-1960,53,4,-12
11925,-80,368,-1984,53,3,-12
11930,-72,392,-1952,54,2,-13
11935,-88,400,-1936,53,2,-14
11940,-64,384,-1944,53,2,-12
11945,-96,392,-1928,52,3,-11
11950,-80,392,-1992,51,5,-12
11955,-56,376,-1960,51,4,-13
11960,-96,408,-1944,51,4,-9
11965,-80,384,-1952,51,5,-10
11970,-80,384,-1960,51,5,-11
11975,-80,408,-1976,51,6,-13
11980,-80,400,-1976,52,7,-12
11985,-88,408,-1976,51,7,-13
11990,-48,400,-1960,51,8,-11
11995,-72,392,-1960,53,8,-12
12000,-80,416,-1976,52,7,-10
12005,-88,384,-1968,53,8,-11
12010,-64,376,-1952,52,7,-11
12015,-72,376,-1976,52,7,-12
12020,-96,400,-1968,52,8,-11
12025,-88,400,-1952,51,8,-11
12030,-88,400,-1944,52,8,-12
12035,-96,384,-1968,51,7,-11
12040,-88,408,-1936,53,7,-11
12045,-88,408,-1960,52,7,-11
12050,-88,392,-1944,53,8,-11
12055,-64,400,-1952,54,9,-11
12060,-64,392,-1960,52,10,-11
12065,-88,384,-1936,53,10,-11
12070,-96,384,-1944,52,11,-10
12075,-80,400,-1952,53,11,-11
12080,-88,376,-1920,52,11,-11
12085,-88,400,-1944,51,10,-11
12090,-72,384,-1960,51,10,-10
12095,-64,400,-1960,52,9,-10
12100,-112,416,-1960,52,7,-10
12105,-72,400,-1936,52,7,-9
12110,-96,408,-1944,52,7,-10
12115,-88,400,-1936,52,9,-10
12120,-96,384,-1960,52,9,-10
12125,-72,376,-1944,53,9,-12
12130,-88,432,-1944,52,8,-10
12135,-88,392,-1944,53,8,-13
12140,-64,376,-1960,53,8,-12
12145,-80,408,-1952,54,9,-14
12150,-88,384,-1952,54,8,-11
12155,-72,376,-1984,55,8,-12
12160,-88,400,-1936,55,7,-13
12165,-64,376,-1936,55,6,-13
12170,-96,400,-1960,53,4,-13
12175,-96,400,-1920,52,3,-13
12180,-72,384,-1904,52,4,-12
12185,-72,392,-1968,51,2,-13
12190,-88,400,-1952,53,0,-13
12195,-88,376,-1992,54,-1,-13
12200,-72,408,-1968,56,-1,-13
12205,-88,400,-1952,55,0,-14
12210,-88,392,-1920,52,-1,-15
12215,-64,384,-1984,51,-2,-13
12220,-88,392,-1928,50,-1,-11
12225,-104,392,-1936,50,1,-12
12230,-64,368,-1968,49,2,-12
12235,-64,384,-1952,49,3,-14
12240,-80,384,-1960,48,4,-13
12245,-72,400,-1968,49,3,-13
12250,-80,392,-1952,49,4,-11
12255,-56,400,-1944,51,2,-13
12260,-96,400,-1960,51,1,-13
12265,-88,408,-1984,52,1,-13
12270,-80,408,-1952,54,2,-14
12275,-56,376,-1976,53,2,-14
12280,-64,392,-1952,53,2,-13
12285,-96,416,-1984,53,2,-12
12290,-96,400,-1944,54,2,-13
12295,-88,400,-1968,55,3,-14
12300,-80,384,-1960,54,3,-14
12305,-72,408,-1944,55,3,-13
12310,-112,416,-1952,54,3,-13
12315,-72,392,-1936,54,4,-13
12320,-88,400,-1928,52,6,-14
12325,-88,392,-1936,54,5,-14
12330,-88,400,-1936,53,5,-12
12335,-96,408,-1944,55,6,-14
12340,-8,416,-1872,54,5,-12
12345,-72,392,-1960,55,6,-11
12350,-72,392,-1960,55,5,-12
12355,-88,408,-1968,55,6,-13
12360,-80,408,-1928,54,6,-12
12365,-80,408,-1928,56,7,-12
12370,-80,384,-1968,56,7,-11
12375,-80,408,-1952,54,7,-12
12380,-88,368,-1968,56,7,-12
12385,-104,384,-1960,56,6,-12
12390,-104,416,-2040,56,5,-13
12395,-96,376,-1952,56,5,-13
12400,-72,368,-1952,56,4,-13
12405,-88,368,-1960,56,4,-13
12410,-112,392,-1952,56,4,-11
12415,-96,384,-1952,57,4,-10
12420,-96,408,-1952,56,4,-13
12425,-96,392,-1928,56,4,-12
12430,-112,384,-1952,55,5,-14
12435,-88,368,-1920,56,6,-14
12440,-64,376,-1928,54,6,-13
12445,-96,392,-1952,54,6,-14
12450,-96,376,-1960,54,7,-12
12455,-96,384,-1968,53,7,-13
12460,-64,384,-1976,52,9,-10
12465,-80,376,-1960,51,9,-11
12470,-88,392,-1984,51,10,-11
12475,-88,392,-1960,50,9,-11
12480,-72,392,-1976,50,10,-11
12485,-64,408,-1944,49,8,-10
12490,-80,392,-1960,48,9,-11
12495,-80,408,-2000,49,11,-11
12500,-120,408,-1960,48,11,-12
12505,-80,392,-1960,48,11,-13
12510,-88,392,-1952,47,12,-12
12515,-104,376,-1936,48,10,-11
12520,-88,384,-1952,49,10,-12
12525,-64,384,-1968,49,10,-10
12530,-72,384,-1976,49,10,-11
12535,-88,400,-1976,50,7,-11
12540,-64,360,-1952,51,6,-11
12545,-88,400,-1968,50,6,-10
12550,-88,400,-1936,51,6,-10
12555,-104,408,-1952,52,5,-13
12560,-88,408,-1968,50,6,-10
12565,-88,400,-1984,51,6,-11
12570,-88,400,-1960,52,4,-12
12575,-96,400,-1992,52,2,-10
12580,-72,400,-1944,53,1,-12
12585,-80,408,-1944,53,2,-12
12590,-96,392,-1944,53,2,-12
12595,-112,400,-1920,53,4,-12
12600,-64,360,-1944,54,3,-12
12605,-104,376,-1944,52,3,-12
12610,-104,408,-1944,54,3,-11
12615,-64,384,-1976,54,2,-11
12620,-96,368,-1952,54,2,-12
12625,-88,384,-1944,54,2,-12
12630,-104,392,-1944,55,2,-12
12635,-80,400,-1928,53,2,-12
12640,-112,400,-1952,53,3,-13
12645,-96,400,-1936,53,3,-12
12650,-80,392,-1984,53,3,-11
12655,-80,392,-1968,52,4,-11
12660,-88,392,-1944,52,5,-10
12665,-96,384,-1952,53,7,-11
12670,-104,376,-1944,53,7,-11
12675,-104,400,-1936,52,8,-11
12680,-96,352,-1976,54,8,-12
12685,-88,392,-1952,53,8,-13
12690,-104,384,-1936,53,8,-12
12695,-72,368,-1968,53,8,-12
12700,-80,384,-1952,53,7,-12
12705,-112,416,-1936,55,8,-11
12710,-72,352,-1976,54,8,-10
12715,-72,384,-1944,54,8,-10
12720,-104,384,-1952,53,9,-10
12725,-120,392,-1968,52,10,-12
12730,-96,400,-1952,51,9,-9
12735,-80,392,-1952,52,9,-11
12740,-80,376,-1960,51,9,-10
12745,-88,368,-1944,51,8,-10
12750,-104,408,-1936,53,9,-12
12755,-72,384,-1960,52,7,-10
12760,-80,408,-1952,53,7,-10
12765,-64,408,-1848,54,9,-12
12770,-64,408,-1960,54,7,-11
12775,-64,376,-1920,53,7,-13
12780,-88,400,-1960,55,7,-12
12785,-80,376,-1960,55,7,-11
12790,-104,392,-1944,53,7,-11
12795,-88,400,-1936,53,7,-11
12800,-72,384,-1928,53,7,-12
12805,-96,408,-1936,54,6,-12
12810,-88,384,-1968,52,6,-11
12815,-88,392,-1944,51,5,-11
12820,-104,400,-1952,49,6,-11
12825,-96,376,-1904,47,7,-9
12830,-88,392,-1952,45,8,-11
12835,-96,376,-1968,44,9,-10
12840,-120,400,-1960,45,9,-11
12845,-104,416,-1936,47,9,-11
12850,-80,384,-1984,50,9,-10
12855,-80,384,-1968,52,9,-9
12860,-96,400,-1928,51,7,-9
12865,-72,400,-1944,53,7,-9
12870,-208,352,-1960,54,6,-10
12875,-104,384,-1976,54,4,-8
12880,-88,408,-1984,53,2,-8
12885,-96,384,-1936,55,2,-9
12890,-80,400,-1976,54,2,-10
12895,-72,392,-1944,53,2,-10
12900,-104,424,-1952,54,4,-11
12905,-88,400,-1984,54,3,-11
12910,-104,384,-1960,54,3,-10
12915,-104,400,-1968,54,4,-12
12920,-64,392,-1968,55,2,-10
12925,-80,400,-1952,56,1,-10
12930,-96,424,-1944,57,0,-11
12935,-88,384,-1952,57,0,-13
12940,-72,408,-1952,58,-1,-12
12945,-64,392,-1944,58,-2,-12
12950,-112,400,-1936,57,-3,-12
12955,-112,400,-1984,57,-5,-11
12960,-112,392,-1952,57,-4,-9
12965,-104,400,-1960,56,-6,-11
12970,-96,392,-1928,56,-6,-13
12975,-104,392,-1944,56,-5,-14
12980,-96,376,-1952,57,-6,-14
12985,-104,408,-1976,56,-4,-14
12990,-96,416,-1936,55,-3,-13
12995,-88,368,-1960,55,-2,-12
13000,-112,384,-1952,56,-1,-12
13005,-96,392,-1952,56,-2,-12
13010,-72,392,-1928,55,-2,-13
13015,-104,416,-1960,54,-3,-12
13020,-104,376,-1944,54,-4,-10
13025,-112,376,-1936,54,-3,-11
13030,-112,408,-1976,55,-3,-11
13035,-104,400,-1984,55,-2,-12
13040,-88,424,-1968,55,-1,-12
13045,-96,392,-1944,55,-2,-12
13050,-96,392,-1952,54,-2,-14
13055,-96,392,-1992,53,-1,-12
13060,-88,400,-1968,54,-1,-12
13065,-104,392,-1952,53,-1,-10
13070,-104,384,-1968,53,0,-10
13075,-112,416,-1976,53,1,-9
13080,-112,424,-1944,53,2,-9
13085,-104,400,-1936,54,3,-12
13090,-112,408,-1968,53,4,-12
13095,-112,400,-1968,53,3,-10
13100,-96,376,-1944,53,4,-10
13105,-88,416,-1936,53,4,-10
13110,-96,408,-1976,52,4,-11
13115,-80,376,-1968,51,6,-12
13120,-112,384,-1960,51,9,-11
13125,-88,408,-1952,50,9,-10
13130,-120,392,-1952,50,11,-9
13135,-136,424,-1952,50,11,-10
13140,-80,384,-1960,52,12,-11
13145,-104,424,-1952,51,13,-10
13150,-88,384,-1936,52,14,-10
13155,-96,360,-1944,52,13,-10
13160,-112,400,-1968,52,13,-10
13165,-88,408,-1936,52,14,-10
13170,-112,392,-1968,53,12,-12
13175,-88,376,-1936,53,12,-9
13180,-80,400,-1920,53,12,-10
13185,-104,424,-1960,53,11,-10
13190,-80,368,-1936,53,12,-8
13195,-88,384,-1960,54,12,-9
13200,-96,400,-1952,55,13,-10
13205,-96,408,-1928,55,15,-10
13210,-88,408,-1912,55,16,-10
13215,-112,384,-1944,55,18,-11
13220,-96,384,-1936,53,19,-10
13225,-96,360,-1952,54,19,-10
13230,-88,384,-1952,53,18,-10
13235,-120,424,-1968,55,17,-9
13240,-88,384,-1984,54,16,-9
13245,-88,360,-1840,57,15,-9
13250,-120,424,-1952,56,16,-10
13255,-88,384,-1968,55,15,-10
13260,-120,400,-1968,56,14,-12
13265,-80,392,-1952,55,14,-11
13270,-64,400,-1944,55,13,-11
13275,-96,416,-1976,53,13,-11
13280,-88,368,-1960,53,14,-11
13285,-88,392,-1968,53,14,-11
13290,-120,392,-1992,52,14,-10
13295,-88,384,-1952,52,15,-11
13300,-88,376,-1952,53,14,-11
13305,-88,400,-1960,54,13,-11
13310,-88,392,-1952,54,13,-11
13315,-96,408,-1968,53,13,-11
13320,-96,416,-1984,53,13,-10
13325,-96,392,-1944,54,12,-10
13330,-88,384,-1960,54,11,-10
13335,-88,424,-1968,54,11,-11
13340,-80,392,-1944,53,12,-11
13345,-96,368,-1960,54,12,-11
13350,-104,392,-1936,54,11,-11
13355,-104,392,-1952,54,10,-11
13360,-96,344,-1928,54,9,-9
13365,-96,408,-1936,53,10,-11
13370,-112,384,-1952,53,11,-9
13375,-120,392,-1952,51,9,-12
13380,-112,392,-1960,51,10,-11
13385,-88,408,-1928,51,10,-11
13390,-96,392,-1944,51,11,-12
13395,-80,400,-1920,52,11,-11
13400,-88,384,-1944,52,10,-11
13405,-80,392,-1976,52,11,-11
13410,-72,400,-1976,53,10,-12
13415,-120,408,-1936,53,9,-12
13420,-88,408,-1944,52,8,-11
13425,-120,408,-1968,52,8,-10
13430,-104,392,-1960,52,6,-10
13435,-128,392,-1944,52,7,-11
13440,-112,384,-1968,52,7,-12
13445,-72,392,-1968,52,7,-11
13450,-128,400,-1952,52,7,-12
13455,-88,384,-1944,52,6,-11
13460,-88,376,-1944,52,7,-10
13465,-88,376,-1968,52,7,-11
13470,-112,384,-1960,52,7,-12
13475,-96,384,-1936,51,7,-12
13480,-88,352,-1920,49,7,-12
13485,-112,408,-1968,48,6,-11
13490,-104,400,-1928,45,8,-11
13495,-88,360,-1952,45,8,-11
13500,-88,392,-1928,45,9,-10
13505,-88,400,-1952,46,8,-11
13510,-112,408,-1960,48,8,-11
13515,-120,416,-1984,49,9,-10
13520,-112,400,-1944,50,10,-10
13525,-104,408,-1968,49,10,-8
13530,-96,408,-1960,47,10,-9
13535,-96,376,-1984,47,9,-10
13540,-112,408,-1936,48,10,-9
13545,-96,416,-1960,48,10,-9
13550,-120,376,-1920,48,10,-10
13555,-88,384,-1952,48,11,-11
13560,-104,400,-1952,47,10,-9
13565,-96,368,-1952,50,10,-12
13570,-104,408,-1976,53,7,-10
13575,-104,384,-1944,52,6,-12
13580,-80,392,-1976,53,6,-10
13585,-112,424,-1944,53,6,-11
13590,-88,408,-1968,53,7,-10
13595,-104,392,-1952,53,9,-10
13600,-96,400,-1968,55,10,-11
13605,-104,408,-1944,56,9,-11
13610,-88,384,-1928,56,10,-12
13615,-104,392,-1968,56,10,-13
13620,-80,392,-1976,55,11,-12
13625,-112,400,-1960,57,9,-12
13630,-112,400,-1960,56,10,-12
13635,-104,416,-1968,56,11,-12
13640,-104,384,-1912,56,10,-11
13645,-72,392,-1960,57,10,-12
13650,-112,400,-1984,57,9,-12
13655,-72,392,-1984,57,8,-11
13660,-112,416,-1952,56,8,-13
13665,-96,392,-1968,56,9,-13
13670,-104,408,-1960,56,9,-14
13675,-80,376,-1960,55,9,-11
13680,-112,400,-1944,55,9,-12
13685,-72,392,-1952,55,8,-12
13690,-104,408,-1936,54,7,-13
13695,-112,400,-1944,55,8,-13
13700,-112,400,-1968,54,7,-14
13705,-80,376,-1944,54,6,-13
13710,-64,280,-1960,55,7,-12
13715,-112,432,-1984,55,5,-12
13720,-88,384,-1976,54,6,-11
13725,-88,376,-1960,54,5,-13
13730,-104,408,-1984,53,7,-12
13735,-80,376,-1952,52,7,-13
13740,-120,392,-1936,52,7,-13
13745,-112,384,-1984,53,7,-13
13750,-112,392,-1960,53,6,-11
13755,-88,376,-1944,52,7,-12
13760,-104,400,-1984,52,8,-12
13765,-112,392,-1944,51,9,-12
13770,-112,400,-1984,52,8,-11
13775,-88,392,-1952,51,8,-11
13780,-88,400,-1976,52,7,-13
13785,-96,432,-1928,52,8,-13
13790,-104,400,-1952,51,8,-11
13795,-88,392,-1952,50,5,-12
13800,-96,392,-1976,51,5,-12
13805,-104,400,-1944,50,5,-12
13810,-96,400,-1960,50,6,-11
13815,-120,392,-1944,49,5,-11
13820,-120,416,-1944,49,5,-10
13825,-120,400,-1976,48,6,-12
13830,-112,416,-1928,49,8,-11
13835,-128,384,-1936,48,8,-9
13840,-88,376,-1936,49,11,-9
13845,-112,392,-1968,48,11,-10
13850,-96,392,-1936,47,12,-13
13855,-88,408,-1952,47,10,-12
13860,-96,400,-1944,47,9,-13
13865,-104,376,-1936,47,8,-11
13870,-96,384,-1968,47,8,-10
13875,-112,408,-1976,47,9,-11
13880,-112,400,-1968,47,10,-12
13885,-112,368,-1936,47,10,-12
13890,-104,416,-1960,47,10,-12
13895,-104,360,-1976,47,11,-13
13900,-96,392,-1968,48,12,-11
13905,-104,424,-1960,49,12,-12
13910,-88,368,-1952,49,12,-12
13915,-88,384,-1944,49,13,-12
13920,-104,400,-1992,51,13,-11
13925,-104,392,-1976,51,14,-12
13930,-104,400,-1960,50,13,-10
13935,-112,400,-1936,52,12,-12
13940,-120,392,-1952,52,12,-12
13945,-96,400,-1952,52,11,-13
13950,-104,384,-1944,54,11,-13
13955,-112,384,-1968,54,13,-13
13960,-80,400,-1976,53,12,-13
13965,-112,392,-1936,53,11,-13
13970,-88,392,-1920,54,12,-13
13975,-104,400,-1952,54,11,-12
13980,-80,384,-1960,55,12,-13
13985,-96,400,-1968,54,12,-13
13990,-80,368,-1944,53,12,-12
13995,-112,424,-1976,52,12,-12
14000,-96,392,-1992,52,14,-13
14005,-80,384,-1928,52,16,-13
14010,-80,376,-1952,52,16,-12
14015,-88,392,-1952,51,17,-12
14020,-112,392,-1984,51,18,-11
14025,-96,368,-1992,51,18,-11
14030,-120,400,-1960,50,20,-11
14035,-72,376,-1976,49,19,-12
14040,-104,384,-1928,49,20,-11
14045,-96,400,-1976,49,21,-11
14050,-96,384,-1944,48,21,-12
14055,-104,384,-1944,48,20,-12
14060,-96,400,-1960,46,20,-11
14065,-128,408,-1960,48,19,-12
14070,-104,392,-1952,48,19,-12
14075,-104,408,-1944,47,20,-11
14080,-104,376,-1960,47,19,-12
14085,-80,392,-1944,47,17,-11
14090,-120,384,-1976,47,17,-9
14095,-88,424,-1944,47,15,-10
14100,-112,424,-2000,48,14,-10
14105,-80,400,-1952,48,14,-11
14110,-96,384,-1920,49,14,-10
14115,-88,400,-1968,50,13,-10
14120,-96,392,-1936,48,12,-9
14125,-128,384,-1960,48,12,-10
14130,-104,400,-1968,48,11,-11
14135,-88,424,-1968,47,12,-11
14140,-104,392,-1968,47,11,-12
14145,-96,400,-1968,48,9,-13
14150,-112,392,-1952,47,11,-11
14155,-112,392,-1872,42,11,-10
14160,-72,376,-1912,41,12,-12
14165,-104,392,-1944,40,14,-10
14170,-80,392,-1944,39,13,-11
14175,-96,408,-1976,40,15,-12
14180,-96,368,-1944,43,15,-11
14185,-96,416,-1960,44,14,-9
14190,-96,384,-1968,44,13,-11
14195,-104,408,-1952,44,12,-11
14200,-104,408,-1960,43,10,-11
14205,-88,384,-1960,44,10,-12
14210,-80,432,-1952,44,9,-11
14215,-80,416,-1944,43,9,-13
14220,-104,400,-1920,44,7,-10
14225,-96,392,-1952,45,7,-9
14230,-72,376,-1952,46,7,-11
14235,-112,408,-1960,47,7,-11
14240,-112,400,-1944,47,7,-12
14245,-104,384,-1952,48,6,-11
14250,-104,424,-1960,51,5,-13
14255,-96,392,-1952,52,5,-12
14260,-80,392,-1976,53,6,-12
14265,-96,392,-1960,54,5,-13
14270,-112,416,-1960,55,6,-13
14275,-104,392,-1960,55,5,-12
14280,-88,400,-1960,55,5,-11
14285,-96,384,-1952,56,5,-11
14290,-80,392,-1968,56,6,-11
14295,-80,376,-1960,55,5,-11
14300,-96,400,-1952,55,5,-13
14305,-104,416,-1944,53,6,-11
14310,-120,400,-1952,54,7,-13
14315,-112,424,-1952,53,7,-11
14320,-96,400,-1952,54,8,-12
14325,-112,416,-1944,54,9,-11
14330,-128,408,-1944,53,8,-10
14335,-120,368,-1944,53,8,-11
14340,-120,408,-1920,55,8,-12
14345,-88,416,-1944,55,10,-10
14350,-104,392,-1952,56,8,-10
14355,-80,408,-1968,55,8,-10
14360,-96,400,-1960,54,7,-11
14365,-112,376,-1968,53,7,-12
14370,-80,376,-1960,51,8,-10
14375,-80,368,-1952,52,7,-10
14380,-112,392,-1960,52,7,-11
14385,-104,424,-1976,53,8,-11
14390,-88,392,-1944,53,9,-11
14395,-96,400,-1952,52,9,-10
14400,-112,392,-1944,51,9,-10
14405,-104,416,-1952,52,9,-10
14410,-96,368,-1952,52,9,-10
14415,-96,400,-1952,52,10,-10
14420,-112,392,-1936,54,11,-10
14425,-88,384,-1944,54,10,-8
14430,-120,424,-1928,53,9,-8
14435,-104,400,-1920,53,9,-8
14440,-120,392,-1952,54,9,-10
14445,-120,400,-1944,53,8,-11
14450,-96,384,-1960,54,8,-11
14455,-80,360,-1952,54,8,-10
14460,-88,384,-1944,55,8,-10
14465,-80,384,-1960,54,6,-10
14470,-88,416,-1960,54,6,-11
14475,-104,416,-1864,54,6,-9
14480,-96,400,-1960,53,5,-9
14485,-120,424,-1944,55,6,-10
14490,-56,384,-1936,53,6,-10
14495,-96,400,-1952,54,7,-8
14500,-104,384,-1936,53,6,-8
14505,-88,392,-1944,54,4,-10
14510,-88,384,-1952,54,5,-9
14515,-112,400,-1952,54,4,-9
14520,-104,408,-1960,54,5,-10
14525,-120,392,-1800,55,5,-11
14530,-80,392,-1968,54,5,-10
14535,-96,392,-1952,54,5,-10
14540,-128,424,-1960,54,6,-11
14545,-96,408,-1952,54,7,-11
14550,-112,400,-1968,53,7,-10
14555,-112,376,-1952,55,7,-9
14560,-88,392,-1976,54,7,-11
14565,-120,400,-1944,53,6,-9
14570,-104,416,-1976,54,5,-11
14575,-104,416,-1944,52,6,-13
14580,-64,440,-2080,52,6,-12
14585,-96,392,-1968,52,5,-13
14590,-104,400,-1968,54,4,-12
14595,-104,400,-1944,54,5,-11
14600,-72,408,-1960,53,5,-12
14605,-88,408,-1952,53,5,-12
14610,-96,416,-1960,54,6,-12
14615,-96,392,-1968,54,5,-13
14620,-120,408,-1976,55,5,-12
14625,-104,400,-1944,55,5,-13
14630,-128,408,-1976,54,5,-12
14635,-112,384,-1952,55,6,-13
14640,-56,392,-1984,55,6,-12
14645,-104,416,-1952,54,5,-13
14650,-88,400,-1952,55,6,-14
14655,-112,392,-1960,54,7,-15
14660,-104,384,-1952,56,8,-12
14665,-104,400,-1944,57,8,-13
14670,-104,400,-1952,56,9,-12
14675,-88,376,-1936,56,8,-13
14680,-112,400,-1936,56,8,-12
14685,-104,408,-1952,56,10,-14
14690,-88,376,-1904,56,10,-12
14695,-88,392,-1960,55,11,-11
14700,-128,400,-1928,54,11,-11
14705,-88,376,-1912,54,13,-12
14710,-112,408,-1936,52,13,-13
14715,-104,392,-1968,54,14,-11
14720,-96,408,-1960,54,14,-11
14725,-112,400,-1928,53,14,-10
14730,-112,400,-1976,51,13,-10
14735,-104,408,-1984,50,14,-11
14740,-104,400,-1960,52,15,-12
14745,-96,416,-1928,50,14,-10
14750,-104,392,-1960,50,14,-11
14755,-104,384,-1920,50,14,-10
14760,-96,400,-1952,48,14,-9
14765,-80,416,-1968,48,13,-9
14770,-72,384,-1952,48,13,-9
14775,-96,376,-1944,48,13,-10
14780,-104,392,-1928,47,15,-8
14785,-112,368,-1952,46,16,-10
14790,-104,384,-1952,47,16,-10
14795,-96,416,-1944,47,17,-10
14800,-96,400,-1944,46,17,-11
14805,-104,384,-1960,46,18,-11
14810,-104,384,-1968,45,18,-9
14815,-96,400,-1960,44,18,-10
14820,-88,400,-1960,44,16,-10
14825,-88,368,-1944,43,17,-10
14830,-72,384,-1952,45,16,-9
14835,-104,416,-1936,47,16,-10
14840,-96,400,-1960,49,15,-9
14845,-128,392,-1936,49,16,-9
14850,-96,376,-1984,48,17,-10
14855,-96,432,-1968,50,16,-11
14860,-88,400,-1960,51,16,-10
14865,-96,432,-1960,51,15,-9
14870,-88,400,-1928,50,15,-7
14875,-96,400,-1952,52,15,-9
14880,-96,400,-1912,52,14,-10
14885,-96,392,-1960,53,14,-9
14890,-72,408,-1952,54,14,-10
14895,-104,400,-1968,55,13,-10
14900,-112,416,-1936,56,12,-10
14905,-104,376,-1944,56,11,-10
14910,-64,400,-1920,58,11,-11
14915,-104,400,-1944,57,10,-11
14920,-112,424,-1944,60,10,-10
14925,-96,400,-1976,59,10,-10
14930,-80,400,-1968,60,9,-10
14935,-96,400,-1952,58,8,-12
14940,-88,392,-1960,58,8,-11
14945,-120,392,-1960,56,9,-11
14950,-88,376,-1976,58,8,-11
14955,-48,416,-1960,56,8,-10
14960,-96,400,-1984,56,7,-10
14965,-96,392,-1968,56,7,-10
14970,-104,392,-1968,56,6,-10
14975,-96,432,-1968,56,7,-9
14980,-88,416,-1976,55,7,-12
14985,-104,400,-1960,54,7,-10
14990,-88,384,-1952,55,5,-11
14995,-96,400,-1944,56,5,-11
