timestamp,accel_x,accel_y,accel_z,gyro_x,gyro_y,gyro_z
0,16,-1552,1232,44,9,-12
5,32,-1544,1232,44,10,-12
10,40,-1544,1232,44,9,-11
15,32,-1536,1224,46,10,-11
20,40,-1552,1232,47,10,-10
25,64,-1552,1232,47,10,-11
30,40,-1536,1216,47,9,-10
35,48,-1512,1216,47,10,-10
40,56,-1544,1232,47,10,-10
45,32,-1560,1192,47,11,-13
50,40,-1544,1224,47,11,-11
55,32,-1552,1216,47,12,-11
60,48,-1552,1272,47,12,-13
65,8,-1560,1232,48,12,-13
70,64,-1560,1240,48,11,-14
75,40,-1560,1224,49,14,-14
80,24,-1544,1208,48,13,-13
85,32,-1552,1224,50,13,-13
90,32,-1536,1216,51,11,-15
95,32,-1584,1248,51,10,-16
100,16,-1544,1224,51,8,-13
105,16,-1536,1224,53,10,-13
110,32,-1544,1240,53,9,-13
115,8,-1544,1216,54,8,-12
120,32,-1536,1232,53,7,-12
125,32,-1552,1200,53,7,-11
130,16,-1544,1216,51,7,-11
135,24,-1552,1200,51,7,-12
140,24,-1544,1224,51,6,-12
145,64,-1544,1240,50,8,-9
150,16,-1560,1240,50,8,-9
155,40,-1560,1240,50,9,-8
160,48,-1552,1200,51,9,-7
165,24,-1552,1216,52,9,-8
170,8,-1560,1216,51,9,-9
175,48,-1544,1208,51,10,-8
180,24,-1568,1216,52,9,-8
185,32,-1560,1248,51,9,-8
190,24,-1544,1240,51,8,-10
195,40,-1544,1200,51,7,-9
200,40,-1560,1216,51,8,-10
205,48,-1584,1216,50,6,-10
210,32,-1544,1208,51,7,-11
215,16,-1560,1224,50,7,-12
220,32,-1544,1216,50,7,-14
225,40,-1552,1224,50,8,-14
230,40,-1552,1216,49,8,-13
235,48,-1536,1224,48,9,-14
240,16,-1536,1216,46,10,-15
245,40,-1536,1224,47,11,-13
250,24,-1544,1208,47,10,-11
255,16,-1544,1240,46,10,-12
260,24,-1544,1192,46,10,-12
265,24,-1552,1224,47,9,-12
270,24,-1560,1232,47,8,-12
275,40,-1544,1192,46,9,-13
280,8,-1560,1232,48,9,-12
285,16,-1560,1216,48,8,-12
290,24,-1568,1208,49,9,-13
295,48,-1536,1208,49,9,-12
300,24,-1536,1216,48,8,-12
305,32,-1544,1264,47,9,-12
310,32,-1568,1224,46,8,-13
315,40,-1552,1208,46,9,-12
320,24,-1568,1256,47,10,-12
325,40,-1528,1232,48,9,-12
330,24,-1536,1248,46,10,-13
335,24,-1536,1232,46,11,-11
340,16,-1568,1232,46,10,-10
345,32,-1560,1208,46,11,-11
350,64,-1544,1216,45,9,-12
355,40,-1536,1232,45,9,-12
360,32,-1544,1232,45,9,-11
365,40,-1552,1216,45,9,-11
370,40,-1544,1224,44,7,-10
375,40,-1536,1224,45,8,-11
380,48,-1536,1232,46,8,-12
385,24,-1544,1240,46,7,-12
390,24,-1536,1256,46,8,-12
395,40,-1552,1240,45,8,-13
400,32,-1552,1248,45,7,-13
405,48,-1536,1232,44,8,-12
410,40,-1520,1216,44,7,-12
415,16,-1536,1200,42,8,-12
420,16,-1536,1208,41,6,-13
425,32,-1544,1208,39,7,-12
430,32,-1560,1232,39,7,-12
435,24,-1552,1208,40,7,-11
440,16,-1552,1208,40,7,-11
445,40,-1552,1208,40,7,-12
450,24,-1568,1256,41,8,-11
455,32,-1552,1224,40,7,-11
460,40,-1552,1200,42,7,-12
465,24,-1560,1248,42,7,-10
470,48,-1552,1200,43,7,-10
475,48,-1544,1216,43,8,-12
480,40,-1544,1216,44,8,-12
485,48,-1536,1232,43,8,-12
490,16,-1560,1208,42,9,-11
495,32,-1544,1208,40,10,-11
500,32,-1536,1232,37,9,-12
505,32,-1552,1216,33,10,-13
510,40,-1552,1216,31,9,-12
515,56,-1576,1248,27,10,-14
520,8,-1632,1224,26,9,-12
525,24,-1560,1208,25,8,-11
530,24,-1568,1232,25,8,-12
535,32,-1560,1208,26,7,-12
540,48,-1544,1184,29,7,-12
545,24,-1544,1192,34,7,-12
550,24,-1544,1224,37,8,-11
555,48,-1568,1200,39,7,-10
560,32,-1536,1232,38,7,-11
565,32,-1552,1224,36,6,-10
570,32,-1536,1232,30,5,-8
575,24,-1544,1240,23,4,-10
580,40,-1560,1216,12,4,-11
585,24,-1544,1248,1,3,-11
590,8,-1560,1232,-8,2,-12
595,16,-1544,1240,-12,2,-12
600,24,-1592,1192,-13,1,-13
605,24,-1560,1216,-8,1,-13
610,32,-1584,1256,-3,3,-13
615,32,-1560,1224,4,5,-11
620,48,-1576,1184,8,6,-12
625,24,-1544,1200,11,6,-9
630,16,-1544,1192,10,7,-8
635,40,-1552,1216,9,5,-10
640,8,-1544,1184,7,3,-9
645,32,-1552,1224,5,4,-11
650,24,-1536,1184,5,4,-9
655,8,-1544,1192,6,5,-9
660,16,-1544,1216,8,6,-10
665,24,-1560,1216,10,8,-11
670,24,-1552,1224,11,8,-12
675,32,-1536,1192,15,10,-12
680,48,-1576,1216,18,9,-13
685,56,-1560,1224,21,9,-12
690,40,-1568,1184,24,10,-12
695,72,-1576,1200,27,9,-12
700,48,-1560,1192,31,10,-10
705,32,-1576,1176,35,9,-9
710,40,-1560,1200,39,9,-9
715,40,-1576,1184,43,9,-9
720,-16,-1584,1008,45,8,-8
725,56,-1552,1216,49,10,-9
730,24,-1536,1176,50,9,-8
735,32,-1560,1184,50,10,-9
740,24,-1552,1216,48,9,-9
745,56,-1544,1176,47,11,-9
750,48,-1560,1192,47,12,-9
755,40,-1560,1200,46,10,-10
760,24,-1560,1176,46,10,-9
765,40,-1576,1192,47,11,-9
770,48,-1584,1200,48,11,-8
775,32,-1600,1200,49,11,-9
780,40,-1600,1224,52,12,-9
785,16,-1592,1176,53,12,-10
790,72,-1552,1144,55,11,-9
795,40,-1584,1192,58,12,-9
800,48,-1592,1192,60,13,-10
805,16,-1544,1184,63,14,-10
810,16,-1568,1176,65,15,-9
815,32,-1552,1184,67,14,-11
820,48,-1544,1160,67,16,-9
825,40,-1584,1184,66,16,-8
830,16,-1584,1176,64,15,-9
835,32,-1560,1184,63,14,-9
840,56,-1576,1176,60,14,-8
845,32,-1552,1232,56,13,-9
850,40,-1576,1192,57,13,-10
855,40,-1560,1216,58,13,-11
860,32,-1576,1208,58,14,-14
865,40,-1576,1160,60,15,-13
870,40,-1584,1176,61,14,-11
875,24,-1544,1176,63,14,-9
880,32,-1552,1168,62,14,-10
885,24,-1568,1192,63,14,-11
890,56,-1568,1232,64,14,-11
895,32,-1552,1200,65,13,-11
900,16,-1576,1200,66,13,-11
905,8,-1560,1184,66,13,-10
910,24,-1560,1192,67,14,-11
915,32,-1552,1216,67,13,-10
920,24,-1552,1192,68,13,-8
925,48,-1576,1192,69,12,-10
930,24,-1552,1216,69,12,-9
935,40,-1560,1192,69,13,-9
940,48,-1544,1208,68,13,-8
945,48,-1536,1208,67,14,-10
950,56,-1568,1200,65,13,-10
955,40,-1568,1248,65,14,-11
960,48,-1576,1216,66,14,-12
965,40,-1552,1232,65,14,-11
970,40,-1552,1200,65,15,-13
975,32,-1560,1224,66,15,-12
980,24,-1568,1184,66,15,-13
985,16,-1560,1208,67,14,-13
990,32,-1560,1200,67,15,-11
995,40,-1568,1200,68,13,-13
1000,32,-1584,1184,67,13,-11
1005,24,-1544,1200,67,13,-12
1010,40,-1560,1224,66,11,-10
1015,24,-1544,1200,64,11,-9
1020,48,-1560,1168,63,11,-10
1025,48,-1544,1216,60,10,-10
1030,32,-1560,1200,59,11,-10
1035,24,-1568,1216,57,12,-8
1040,24,-1576,1208,56,12,-7
1045,40,-1568,1208,57,12,-7
1050,24,-1560,1208,56,13,-7
1055,72,-1600,1192,56,13,-7
1060,40,-1544,1216,57,14,-7
1065,40,-1568,1216,57,14,-9
1070,32,-1568,1192,56,14,-9
1075,32,-1576,1168,59,14,-10
1080,64,-1568,1208,59,13,-11
1085,56,-1568,1232,61,15,-11
1090,24,-1576,1200,61,14,-10
1095,48,-1560,1208,61,12,-9
1100,32,-1552,1168,61,14,-10
1105,48,-1560,1184,62,13,-10
1110,24,-1552,1216,61,14,-10
1115,8,-1544,1240,60,13,-8
1120,32,-1584,1184,59,12,-8
1125,48,-1568,1192,57,11,-8
1130,56,-1544,1232,55,13,-8
1135,32,-1568,1184,54,12,-7
1140,56,-1552,1240,52,12,-8
1145,32,-1544,1200,50,11,-6
1150,16,-1544,1216,49,11,-8
1155,32,-1552,1192,48,12,-8
1160,8,-1552,1216,48,12,-10
1165,64,-1568,1200,49,14,-9
1170,40,-1584,1168,50,12,-9
1175,48,-1568,1200,52,13,-10
1180,48,-1560,1216,53,13,-11
1185,48,-1552,1216,56,13,-11
1190,24,-1584,1192,58,15,-11
1195,32,-1576,1192,60,16,-11
1200,24,-1560,1200,62,15,-12
1205,32,-1576,1184,64,15,-13
1210,24,-1552,1224,67,15,-12
1215,64,-1576,1208,66,16,-13
1220,40,-1576,1176,67,15,-11
1225,32,-1544,1200,68,14,-10
1230,40,-1544,1208,68,14,-11
1235,24,-1560,1184,65,15,-9
1240,16,-1544,1208,64,14,-10
1245,48,-1552,1224,63,14,-10
1250,24,-1552,1200,59,13,-9
1255,24,-1544,1200,54,13,-9
1260,16,-1568,1208,52,11,-10
1265,48,-1568,1208,48,12,-8
1270,40,-1576,1208,47,12,-10
1275,32,-1568,1184,46,13,-8
1280,40,-1576,1176,46,12,-8
1285,32,-1584,1208,49,13,-9
1290,40,-1568,1200,53,13,-9
1295,40,-1568,1176,58,13,-9
1300,40,-1552,1208,63,15,-8
1305,16,-1552,1224,67,15,-9
1310,32,-1536,1192,66,15,-11
1315,32,-1536,1208,66,15,-11
1320,56,-1568,1216,63,12,-10
1325,32,-1544,1200,58,12,-11
1330,40,-1576,1208,53,12,-12
1335,24,-1544,1224,48,11,-13
1340,16,-1560,1240,45,12,-13
1345,16,-1560,1232,42,10,-12
1350,32,-1576,1200,43,10,-12
1355,8,-1576,1240,49,10,-14
1360,40,-1592,1160,56,11,-12
1365,40,-1576,1200,65,12,-13
1370,40,-1584,1200,73,12,-12
1375,8,-1544,1232,78,13,-10
1380,24,-1560,1208,82,12,-9
1385,16,-1544,1200,84,12,-10
1390,40,-1544,1208,83,10,-10
1395,16,-1536,1224,81,11,-10
1400,16,-1544,1208,79,10,-9
1405,32,-1536,1224,75,10,-9
1410,40,-1536,1224,72,10,-10
1415,16,-1560,1208,72,10,-10
1420,8,-1552,1232,72,10,-9
1425,48,-1544,1224,73,10,-11
1430,32,-1568,1216,73,8,-11
1435,32,-1560,1192,72,9,-11
1440,16,-1568,1184,70,10,-12
1445,24,-1560,1200,68,9,-12
1450,48,-1560,1208,68,10,-11
1455,48,-1568,1224,67,9,-11
1460,56,-1552,1200,65,9,-11
1465,64,-1568,1208,63,9,-10
1470,48,-1560,1216,61,12,-10
1475,64,-1552,1256,62,12,-10
1480,64,-1552,1248,63,11,-10
1485,24,-1544,1208,64,12,-11
1490,32,-1568,1224,64,11,-12
1495,24,-1560,1208,65,10,-12
1500,40,-1560,1200,64,10,-12
1505,32,-1544,1216,63,12,-12
1510,32,-1560,1192,63,10,-11
1515,24,-1552,1224,63,10,-10
1520,24,-1544,1232,61,9,-11
1525,24,-1552,1216,62,9,-11
1530,40,-1568,1224,61,9,-11
1535,16,-1568,1192,60,10,-11
1540,56,-1560,1224,59,9,-11
1545,56,-1592,1192,60,10,-10
1550,16,-1552,1200,60,9,-10
1555,40,-1504,1240,61,11,-10
1560,16,-1560,1176,64,10,-11
1565,32,-1552,1200,67,10,-12
1570,40,-1576,1224,67,12,-12
1575,56,-1568,1224,68,14,-11
1580,24,-1536,1208,69,13,-11
1585,16,-1552,1216,69,13,-12
1590,40,-1536,1208,68,13,-12
1595,24,-1552,1200,66,13,-11
1600,32,-1552,1216,64,12,-12
1605,64,-1576,1216,61,12,-13
1610,16,-1544,1216,59,12,-13
1615,48,-1544,1224,57,11,-13
1620,40,-1544,1232,59,10,-13
1625,40,-1560,1208,58,9,-13
1630,32,-1576,1208,58,10,-14
1635,48,-1552,1216,58,10,-13
1640,40,-1544,1240,60,9,-13
1645,40,-1552,1224,61,10,-13
1650,8,-1568,1224,61,11,-12
1655,32,-1560,1240,62,11,-14
1660,40,-1528,1224,62,11,-14
1665,56,-1552,1224,61,12,-15
1670,40,-1544,1224,61,12,-15
1675,16,-1536,1208,60,10,-15
1680,8,-1552,1224,58,9,-15
1685,40,-1544,1216,59,9,-15
1690,40,-1568,1224,58,10,-17
1695,8,-1536,1240,56,10,-16
1700,32,-1552,1232,55,9,-16
1705,24,-1536,1224,54,10,-14
1710,8,-1496,1232,54,9,-14
1715,56,-1552,1208,53,8,-13
1720,40,-1544,1232,52,7,-13
1725,24,-1552,1232,52,8,-14
1730,24,-1528,1224,50,7,-12
1735,8,-1544,1248,50,8,-13
1740,40,-1560,1248,48,9,-14
1745,40,-1528,1216,50,9,-13
1750,24,-1544,1232,49,9,-14
1755,24,-1568,1240,50,9,-16
1760,32,-1552,1248,49,7,-14
1765,40,-1560,1240,48,7,-15
1770,32,-1552,1216,47,7,-18
1775,32,-1552,1208,47,5,-16
1780,40,-1552,1248,45,4,-17
1785,32,-1536,1200,47,3,-17
1790,32,-1552,1216,47,2,-17
1795,24,-1552,1240,45,2,-17
1800,48,-1544,1200,45,0,-17
1805,32,-1552,1232,45,0,-19
1810,8,-1544,1232,44,1,-17
1815,24,-1576,1224,41,2,-16
1820,24,-1576,1216,40,2,-16
1825,8,-1544,1184,39,2,-15
1830,48,-1576,1200,37,3,-13
1835,56,-1576,1184,38,4,-13
1840,24,-1576,1192,41,4,-10
1845,48,-1584,1192,46,5,-11
1850,48,-1576,1216,49,6,-9
1855,80,-1576,1176,54,7,-7
1860,48,-1568,1208,58,8,-7
1865,48,-1584,1208,62,8,-4
1870,64,-1576,1184,65,9,-4
1875,48,-1592,1176,67,8,-5
1880,56,-1576,1160,68,8,-7
1885,64,-1552,1176,71,5,-8
1890,48,-1576,1208,71,3,-7
1895,48,-1552,1184,72,4,-10
1900,64,-1568,1208,73,3,-10
1905,64,-1560,1176,76,4,-9
1910,72,-1576,1216,79,6,-11
1915,48,-1552,1216,81,7,-12
1920,48,-1568,1208,81,10,-13
1925,48,-1560,1208,80,13,-10
1930,56,-1560,1224,78,16,-10
1935,48,-1552,1224,75,20,-10
1940,48,-1552,1192,73,22,-9
1945,40,-1536,1232,71,25,-7
1950,48,-1536,1224,67,26,-9
1955,32,-1536,1208,66,28,-7
1960,32,-1536,1208,65,28,-7
1965,32,-1552,1232,65,29,-6
1970,40,-1544,1208,63,30,-9
1975,48,-1528,1224,61,30,-9
1980,48,-1536,1240,59,28,-12
1985,24,-1544,1216,55,26,-14
1990,40,-1536,1208,51,24,-19
1995,32,-1544,1224,47,23,-20
2000,48,-1552,1208,44,21,-18
2005,8,-1544,1200,41,20,-17
2010,40,-1536,1216,38,20,-14
2015,16,-1552,1240,38,21,-13
2020,48,-1568,1232,40,22,-12
2025,48,-1560,1240,41,24,-11
2030,16,-1560,1240,43,26,-12
2035,40,-1568,1216,44,26,-12
2040,32,-1552,1240,48,26,-14
2045,56,-1528,1296,50,27,-14
2050,8,-1544,1200,52,28,-16
2055,40,-1544,1208,53,29,-16
2060,32,-1544,1200,54,29,-17
2065,40,-1552,1208,52,28,-16
2070,16,-1552,1232,49,27,-16
2075,40,-1544,1264,48,28,-16
2080,24,-1536,1208,45,28,-16
2085,24,-1552,1216,45,28,-16
2090,32,-1544,1224,46,27,-18
2095,8,-1576,1288,46,26,-17
2100,16,-1568,1224,46,25,-18
2105,24,-1568,1240,45,23,-19
2110,32,-1568,1256,43,23,-18
2115,32,-1576,1224,42,22,-20
2120,24,-1552,1232,42,22,-20
2125,16,-1552,1224,40,21,-21
2130,32,-1544,1224,42,20,-19
2135,32,-1536,1224,44,19,-18
2140,24,-1552,1208,47,20,-20
2145,32,-1544,1232,52,19,-22
2150,48,-1544,1224,53,18,-22
2155,48,-1536,1192,54,18,-23
2160,32,-1528,1200,52,17,-25
2165,48,-1528,1200,46,16,-26
2170,24,-1520,1224,37,17,-26
2175,16,-1536,1256,28,16,-27
2180,24,-1544,1256,18,15,-28
2185,16,-1576,1224,9,15,-29
2190,8,-1560,1216,2,15,-29
2195,24,-1584,1216,-1,13,-29
2200,8,-1624,1216,0,12,-26
2205,32,-1624,1216,9,12,-27
2210,24,-1624,1208,17,11,-25
2215,32,-1632,1200,27,11,-22
2220,16,-1600,1208,36,10,-20
2225,24,-1600,1176,45,9,-20
2230,16,-1568,1192,52,8,-19
2235,40,-1576,1176,57,7,-21
2240,16,-1536,1208,61,7,-17
2245,48,-1552,1160,65,6,-16
2250,40,-1528,1208,67,6,-16
2255,56,-1544,1184,68,7,-16
2260,48,-1544,1208,67,7,-14
2265,56,-1544,1192,66,8,-15
2270,40,-1536,1200,64,10,-14
2275,48,-1528,1200,63,11,-13
2280,56,-1544,1200,60,10,-12
2285,32,-1544,1208,56,10,-9
2290,40,-1536,1200,53,11,-8
2295,32,-1552,1224,49,12,-5
2300,56,-1568,1248,45,11,-4
2305,56,-1576,1208,44,10,-3
2310,48,-1568,1216,44,9,-1
2315,88,-1624,1160,45,7,-3
2320,72,-1576,1232,47,7,-2
2325,48,-1552,1240,50,6,-3
2330,56,-1568,1192,53,4,-1
2335,56,-1584,1184,58,3,-2
2340,56,-1560,1208,62,3,0
2345,64,-1536,1240,66,3,1
2350,72,-1560,1216,67,3,0
2355,80,-1544,1208,69,5,1
2360,56,-1536,1208,70,4,2
2365,48,-1552,1240,72,5,3
2370,56,-1536,1208,70,5,2
2375,40,-1552,1248,68,4,3
2380,32,-1528,1184,66,4,3
2385,48,-1536,1208,64,5,2
2390,24,-1536,1200,63,4,0
2395,32,-1552,1224,60,4,0
2400,40,-1560,1248,58,4,-3
2405,8,-1560,1208,56,5,-3
2410,0,-1576,1208,56,5,-4
2415,8,-1568,1232,56,5,-4
2420,24,-1544,1224,57,4,-2
2425,0,-1552,1216,56,5,-4
2430,32,-1560,1256,60,6,-5
2435,24,-1544,1232,59,6,-4
2440,0,-1560,1240,60,7,-6
2445,24,-1552,1248,60,9,-6
2450,24,-1576,1232,59,10,-6
2455,8,-1536,1240,57,9,-8
2460,32,-1536,1248,54,10,-10
2465,16,-1552,1224,54,9,-8
2470,24,-1536,1216,53,10,-10
2475,32,-1544,1232,53,10,-9
2480,24,-1536,1224,52,10,-7
2485,32,-1544,1232,51,11,-6
2490,48,-1544,1232,49,11,-8
2495,16,-1520,1208,49,9,-6
2500,24,-1536,1224,48,11,-6
2505,56,-1568,1264,48,12,-7
2510,40,-1560,1264,48,11,-9
2515,56,-1552,1216,49,10,-9
2520,56,-1560,1240,48,11,-8
2525,32,-1552,1240,48,13,-10
2530,48,-1528,1200,47,15,-10
2535,32,-1536,1232,48,14,-11
2540,40,-1552,1216,46,15,-12
2545,64,-1560,1208,47,16,-10
2550,40,-1560,1200,48,17,-9
2555,72,-1536,1192,48,18,-12
2560,72,-1544,1240,49,19,-11
2565,72,-1560,1248,50,20,-11
2570,64,-1544,1216,52,20,-9
2575,56,-1544,1200,54,22,-9
2580,72,-1560,1200,54,23,-9
2585,48,-1536,1208,55,23,-7
2590,64,-1544,1208,54,24,-7
2595,48,-1560,1208,55,23,-4
2600,40,-1552,1200,56,26,-5
2605,56,-1560,1208,58,28,-3
2610,40,-1560,1184,57,30,-4
2615,40,-1560,1200,57,31,-2
2620,48,-1560,1200,56,31,-2
2625,40,-1552,1192,55,33,-3
2630,40,-1560,1184,53,35,-3
2635,8,-1552,1224,51,35,-6
2640,24,-1544,1208,49,35,-6
2645,64,-1536,1224,47,36,-6
2650,32,-1552,1208,44,37,-7
2655,32,-1552,1216,42,37,-5
2660,32,-1576,1216,39,37,-6
2665,32,-1536,1232,37,38,-6
2670,24,-1552,1208,34,38,-7
2675,48,-1560,1272,32,39,-6
2680,8,-1528,1200,30,38,-7
2685,24,-1552,1224,29,37,-10
2690,40,-1568,1232,29,36,-11
2695,32,-1552,1208,29,35,-11
2700,24,-1536,1208,30,36,-9
2705,40,-1568,1224,29,35,-8
2710,24,-1552,1208,31,36,-7
2715,24,-1536,1216,30,36,-8
2720,8,-1544,1200,29,37,-6
2725,24,-1528,1200,27,37,-7
2730,16,-1536,1184,25,38,-6
2735,8,-1544,1168,24,36,-6
2740,24,-1552,1200,23,35,-6
2745,8,-1528,1208,20,34,-7
2750,24,-1552,1192,18,31,-5
2755,8,-1536,1224,15,31,-4
2760,32,-1560,1200,11,31,-4
2765,0,-1536,1208,6,29,-4
2770,32,-1536,1208,2,27,-2
2775,8,-1552,1240,-3,25,-3
2780,8,-1568,1208,-6,25,-3
2785,32,-1552,1232,-9,24,-4
2790,24,-1560,1224,-9,24,-4
2795,8,-1552,1224,-6,25,-3
2800,16,-1568,1224,-2,24,-5
2805,24,-1560,1192,-1,23,-5
2810,8,-1544,1224,2,25,-3
2815,16,-1560,1232,3,24,-3
2820,24,-1552,1248,1,21,-2
2825,16,-1544,1240,1,19,-1
2830,40,-1544,1232,1,18,-2
2835,40,-1560,1240,0,18,-2
2840,48,-1544,1248,-1,18,-4
2845,40,-1544,1232,-4,16,-3
2850,32,-1560,1208,-8,16,-5
2855,40,-1552,1216,-13,15,-3
2860,16,-1528,1184,-19,14,-2
2865,24,-1560,1232,-23,16,2
2870,32,-1528,1208,-27,16,4
2875,16,-1552,1208,-30,16,8
2880,8,-1544,1208,-33,17,11
2885,40,-1528,1216,-36,17,14
2890,56,-1552,1216,-42,17,17
2895,16,-1536,1232,-47,17,19
2900,40,-1544,1192,-54,14,19
2905,40,-1544,1184,-63,17,20
2910,32,-1544,1208,-69,21,20
2915,32,-1528,1200,-73,21,21
2920,40,-1576,1192,-76,21,21
2925,48,-1560,1160,-79,22,21
2930,56,-1552,1184,-82,24,21
2935,80,-1560,1192,-82,25,20
2940,48,-1576,1184,-82,28,21
2945,56,-1576,1208,-84,29,22
2950,32,-1560,1208,-86,30,22
2955,24,-1552,1168,-87,32,19
2960,8,-1560,1208,-88,34,19
2965,24,-1576,1176,-88,35,18
2970,32,-1584,1168,-90,35,17
2975,0,-1552,1200,-91,33,16
2980,8,-1568,1200,-92,33,15
2985,16,-1576,1160,-94,32,16
2990,16,-1552,1200,-94,31,17
2995,8,-1560,1208,-93,29,16
3000,40,-1576,1168,-92,27,16
3005,16,-1544,1152,-92,26,17
3010,24,-1536,1160,-93,26,18
3015,16,-1544,1152,-99,25,18
3020,8,-1544,1160,-105,23,18
3025,8,-1560,1160,-111,22,15
3030,24,-1560,1128,-121,25,16
3035,16,-1552,1144,-132,24,13
3040,8,-1576,1176,-143,24,11
3045,32,-1592,1200,-159,26,8
3050,8,-1576,1160,-172,28,3
3055,0,-1608,1192,-188,29,1
3060,16,-1608,1208,-201,31,-2
3065,24,-1624,1176,-209,36,-7
3070,16,-1640,1184,-213,37,-9
3075,0,-1640,1168,-213,39,-12
3080,-8,-1640,1152,-210,42,-13
3085,-40,-1640,1168,-206,43,-14
3090,-48,-1648,1184,-202,44,-13
3095,-56,-1616,1160,-197,45,-13
3100,-48,-1624,1136,-195,45,-12
3105,-80,-1600,1184,-191,43,-11
3110,-24,-1640,1144,-189,45,-9
3115,-56,-1632,1144,-188,45,-7
3120,-72,-1608,1120,-188,43,-3
3125,-56,-1624,1112,-190,40,-2
3130,-56,-1648,1128,-190,39,2
3135,-48,-1632,1136,-190,36,5
3140,-16,-1664,1128,-189,34,5
3145,-16,-1648,1080,-187,30,10
3150,0,-1632,1104,-184,28,10
3155,0,-1632,1072,-182,25,11
3160,0,-1624,1064,-181,24,11
3165,0,-1616,1072,-181,21,10
3170,8,-1632,1040,-182,18,6
3175,8,-1600,1096,-183,16,5
3180,24,-1640,1080,-186,14,2
3185,0,-1624,1096,-187,12,2
3190,8,-1648,1032,-188,10,0
3195,16,-1648,1040,-187,5,-1
3200,8,-1664,1072,-185,5,-1
3205,8,-1656,1032,-182,9,1
3210,8,-1656,1080,-177,9,2
3215,24,-1696,1056,-170,8,3
3220,48,-1744,1040,-164,6,4
3225,64,-1912,1256,-282,-88,46
3230,-144,-1336,1200,-211,-243,83
3235,0,-1464,960,-56,-97,34
3240,-16,-1592,1008,-76,26,23
3245,0,-1616,1024,-138,0,12
3250,48,-1712,1048,-193,-22,12
3255,32,-1680,1072,-218,-4,11
3260,8,-1680,1048,-223,-2,12
3265,24,-1672,1024,-220,-9,13
3270,32,-1688,1024,-216,-6,13
3275,24,-1704,1056,-214,-4,15
3280,0,-1712,1024,-214,-4,12
3285,0,-1712,1016,-212,-3,14
3290,16,-1664,1048,-210,-3,15
3295,0,-1712,1032,-207,3,16
3300,0,-1688,1032,-206,4,16
3305,0,-1688,1024,-206,5,16
3310,8,-1688,1032,-206,7,17
3315,0,-1672,1024,-207,10,16
3320,0,-1688,1032,-209,7,15
3325,0,-1680,1032,-211,8,17
3330,0,-1680,1016,-213,9,20
3335,-48,-1688,1032,-216,8,20
3340,0,-1688,1040,-221,3,22
3345,0,-1704,1048,-224,1,24
3350,8,-1704,1040,-226,1,26
3355,8,-1704,1032,-225,0,23
3360,8,-1696,1032,-226,1,24
3365,0,-1712,1032,-226,-2,22
3370,0,-1720,1040,-227,-2,21
3375,0,-1728,1032,-225,-2,21
3380,-32,-1720,1024,-223,-2,22
3385,-16,-1720,1016,-221,0,22
3390,-16,-1736,1048,-216,-1,25
3395,-8,-1736,1032,-211,-3,26
3400,-8,-1712,1056,-205,-4,29
3405,0,-1720,1032,-198,-6,30
3410,0,-1744,1024,-191,-7,31
3415,-8,-1696,1000,-187,-8,30
3420,0,-1712,984,-182,-9,31
3425,0,-1712,992,-178,-10,34
3430,0,-1712,992,-175,-9,34
3435,0,-1704,960,-172,-9,35
3440,8,-1688,960,-173,-7,37
3445,8,-1696,976,-175,-7,37
3450,8,-1672,936,-179,-8,36
3455,24,-1688,936,-186,-8,36
3460,0,-1688,896,-194,-9,39
3465,16,-1680,928,-205,-9,41
3470,8,-1680,928,-214,-7,43
3475,8,-1728,968,-221,-8,46
3480,8,-1736,960,-224,-6,52
3485,16,-1736,944,-223,-3,55
3490,0,-1760,928,-220,-3,57
3495,16,-1720,944,-218,-3,60
3500,8,-1768,928,-217,-4,62
3505,24,-1752,896,-217,-3,65
3510,32,-1744,880,-224,-1,68
3515,8,-1752,880,-231,-3,70
3520,16,-1744,872,-240,-4,74
3525,8,-1760,872,-252,-6,75
3530,200,-2872,504,-281,-6,84
3535,-8,-1568,1184,-415,-125,198
3540,-24,-1280,952,-267,-109,202
3545,-16,-1656,736,-174,-19,133
3550,0,-1792,816,-216,-8,99
3555,16,-1840,840,-261,-15,90
3560,0,-1848,856,-273,-5,84
3565,16,-1864,864,-266,-4,83
3570,8,-1808,856,-250,-9,81
3575,16,-1808,856,-230,-12,81
3580,24,-1792,832,-210,-13,80
3585,16,-1760,824,-195,-14,80
3590,24,-1768,800,-185,-13,78
3595,24,-1760,792,-184,-9,75
3600,8,-1720,784,-186,-4,71
3605,-16,-1744,808,-191,0,70
3610,0,-1752,816,-197,1,69
3615,-32,-1752,792,-204,3,67
3620,-8,-1760,808,-212,6,67
3625,-48,-1760,824,-219,8,67
3630,-48,-1784,800,-226,8,65
3635,-64,-1752,808,-231,6,64
3640,-56,-1792,808,-237,7,64
3645,-80,-1776,768,-239,12,62
3650,-32,-1808,800,-238,10,60
3655,-56,-1792,800,-238,11,58
3660,-40,-1784,760,-236,12,57
3665,-24,-1816,768,-238,11,56
3670,-48,-1808,760,-241,15,53
3675,-24,-1840,768,-241,18,49
3680,-48,-1864,760,-239,21,44
3685,0,-1864,776,-234,26,44
3690,-8,-1880,800,-223,35,42
3695,-8,-1888,816,-215,38,41
3700,-32,-1864,792,-206,44,36
3705,-48,-1880,800,-195,51,35
3710,-64,-2224,904,-240,48,48
3715,-56,-1536,888,-266,-16,123
3720,-48,-1480,824,-134,10,96
3725,-88,-1816,760,-103,57,47
3730,-88,-1848,816,-134,69,30
3735,-72,-1912,800,-155,79,24
3740,-64,-1920,800,-156,84,20
3745,-80,-1920,824,-147,81,18
3750,-64,-1864,800,-134,80,14
3755,-64,-1864,784,-119,80,13
3760,-56,-1864,816,-104,78,11
3765,-72,-1840,856,-97,75,9
3770,-40,-1832,800,-97,72,8
3775,-64,-1816,832,-105,74,7
3780,-24,-1792,816,-120,75,6
3785,-32,-1760,856,-138,80,8
3790,-32,-1792,824,-157,82,11
3795,-56,-1816,824,-179,86,11
3800,-40,-1816,832,-198,89,12
3805,-48,-1832,848,-218,91,12
3810,-64,-1840,856,-234,91,11
3815,-64,-1856,840,-242,88,8
3820,-56,-1888,912,-246,89,0
3825,-88,-1848,896,-250,92,-8
3830,-104,-1864,880,-254,84,-13
3835,-72,-1856,880,-256,77,-18
3840,-96,-1864,856,-255,72,-22
3845,-88,-1864,864,-252,69,-29
3850,-56,-1864,856,-251,68,-35
3855,-104,-1824,824,-254,68,-45
3860,-72,-1848,816,-267,67,-53
3865,-80,-1880,800,-283,64,-62
3870,-56,-1904,776,-298,64,-72
3875,-88,-1912,752,-312,68,-83
3880,-56,-1928,776,-322,68,-91
3885,-80,-1920,768,-329,67,-99
3890,-80,-1904,736,-332,72,-105
3895,-88,-1936,720,-330,76,-108
3900,-96,-1952,736,-326,80,-108
3905,-128,-1920,688,-321,80,-105
3910,-168,-1936,712,-316,83,-97
3915,-192,-1952,728,-312,86,-84
3920,-216,-1960,696,-308,93,-68
3925,-184,-1936,664,-306,91,-56
3930,-152,-1952,664,-308,85,-52
3935,-136,-1944,664,-314,78,-49
3940,-144,-1928,648,-326,70,-49
3945,-96,-1952,656,-341,61,-47
3950,-80,-2000,616,-361,52,-44
3955,8,-1936,1000,-490,16,14
3960,-64,-1672,592,-470,-36,49
3965,-8,-1936,512,-401,-5,4
3970,8,-2016,648,-408,27,-31
3975,32,-2072,624,-439,42,-36
3980,8,-2080,640,-455,56,-36
3985,-16,-2072,664,-456,55,-32
3990,-16,-2104,656,-442,52,-23
3995,-80,-2104,680,-421,48,-16
4000,-104,-2096,712,-400,41,-8
4005,-80,-2128,696,-388,33,4
4010,-120,-2104,704,-384,22,18
4015,-112,-2128,688,-385,11,29
4020,-88,-2152,704,-380,1,36
4025,-72,-2128,744,-371,-11,41
4030,0,-2136,712,-363,-22,41
4035,-24,-2104,720,-352,-31,35
4040,8,-2120,704,-349,-39,30
4045,32,-2096,704,-353,-45,21
4050,72,-2088,728,-364,-48,11
4055,64,-2136,888,-384,-50,1
4060,64,-2144,744,-411,-51,-2
4065,96,-2160,728,-437,-50,-6
4070,72,-2168,736,-455,-46,-7
4075,104,-2224,720,-467,-41,-10
4080,88,-2216,720,-470,-36,-13
4085,112,-2224,688,-466,-32,-14
4090,112,-2248,672,-462,-27,-16
4095,104,-2232,640,-459,-25,-20
4100,96,-2240,648,-459,-23,-21
4105,72,-2224,616,-460,-24,-22
4110,96,-2256,568,-465,-30,-26
4115,56,-2224,552,-470,-35,-29
4120,48,-2256,520,-475,-39,-32
4125,0,-2248,512,-483,-45,-39
4130,16,-2248,488,-490,-49,-42
4135,8,-2264,512,-497,-54,-45
4140,0,-2240,472,-499,-62,-47
4145,-16,-2256,448,-500,-70,-49
4150,-32,-2216,440,-500,-81,-50
4155,0,-2200,400,-501,-90,-51
4160,-40,-2176,384,-505,-94,-48
4165,-24,-2136,328,-513,-104,-46
4170,0,-2104,328,-520,-114,-44
4175,0,-2112,288,-527,-122,-43
4180,16,-2096,288,-530,-128,-46
4185,8,-2072,280,-525,-134,-49
4190,16,-2048,264,-516,-137,-52
4195,8,-2040,256,-505,-140,-58
4200,24,-2008,232,-499,-145,-67
4205,16,-2024,216,-499,-149,-73
4210,40,-1976,248,-507,-153,-83
4215,48,-1992,224,-521,-157,-92
4220,32,-1984,240,-540,-162,-97
4225,40,-1976,216,-556,-168,-105
4230,64,-2016,224,-571,-171,-109
4235,64,-1992,248,-584,-178,-112
4240,56,-1992,232,-593,-181,-115
4245,40,-1984,248,-594,-184,-114
4250,16,-1976,224,-588,-187,-116
4255,16,-1976,256,-577,-194,-117
4260,8,-1944,208,-564,-205,-117
4265,-8,-1888,224,-552,-216,-119
4270,-16,-1864,224,-542,-227,-122
4275,-40,-1816,184,-537,-240,-126
4280,-24,-1824,184,-538,-253,-127
4285,-56,-1760,208,-544,-266,-133
4290,0,-1760,208,-559,-281,-138
4295,0,-1736,160,-579,-287,-142
4300,8,-1776,184,-601,-289,-143
4305,8,-1784,184,-620,-290,-145
4310,8,-1752,176,-633,-288,-146
4315,32,-1744,128,-642,-285,-147
4320,40,-1760,120,-646,-279,-146
4325,64,-1760,16,-651,-272,-144
4330,64,-1760,72,-659,-263,-143
4335,88,-1784,48,-675,-253,-140
4340,96,-1816,64,-692,-243,-138
4345,128,-1872,16,-708,-226,-136
4350,96,-1920,32,-718,-208,-132
4355,112,-1928,16,-717,-192,-129
4360,96,-1936,16,-711,-180,-129
4365,48,-1952,24,-706,-169,-127
4370,40,-1944,16,-703,-161,-125
4375,16,-1968,40,-705,-150,-117
4380,16,-2000,16,-704,-142,-104
4385,0,-1968,24,-702,-136,-88
4390,8,-2016,-8,-699,-129,-74
4395,0,-2000,24,-693,-121,-59
4400,0,-2008,24,-690,-117,-46
4405,0,-2008,0,-687,-109,-32
4410,0,-2008,0,-685,-100,-20
4415,0,-2000,-40,-684,-91,-8
4420,-40,-1992,-40,-682,-88,4
4425,0,-2000,-56,-678,-83,14
4430,0,-2016,-56,-667,-72,23
4435,-8,-2024,-72,-648,-63,32
4440,8,-2024,-120,-626,-50,40
4445,0,-2008,-112,-597,-37,45
4450,48,-2024,-160,-565,-30,48
4455,48,-2016,-200,-532,-22,48
4460,32,-1936,-216,-501,-16,46
4465,32,-1880,-248,-473,-11,38
4470,16,-1816,-288,-449,-2,29
4475,32,-1760,-280,-433,6,19
4480,32,-1688,-296,-426,13,10
4485,8,-1648,-312,-423,20,1
4490,16,-1632,-296,-425,23,-9
4495,16,-1616,-344,-427,26,-18
4500,0,-1608,-344,-428,31,-31
4505,-16,-1608,-320,-426,34,-42
4510,-80,-1584,-360,-420,40,-51
4515,-112,-1552,-392,-416,47,-53
4520,-104,-1584,-368,-413,52,-55
4525,-120,-1576,-344,-402,49,-57
4530,-128,-1568,-376,-383,43,-54
4535,-152,-1560,-360,-366,36,-48
4540,-136,-1576,-376,-347,28,-38
4545,-120,-1592,-312,-330,23,-24
4550,-88,-1608,-336,-313,12,-11
4555,-96,-1624,-320,-295,-3,0
4560,-64,-1656,-296,-272,-15,12
4565,-64,-1632,-288,-246,-27,24
4570,-8,-1664,-264,-216,-39,33
4575,0,-1672,-240,-184,-46,36
4580,16,-1688,-264,-156,-51,38
4585,24,-1696,-264,-131,-52,34
4590,24,-1728,-232,-110,-47,28
4595,32,-1712,-240,-87,-42,22
4600,16,-1720,-264,-63,-33,12
4605,8,-1720,-272,-42,-23,0
4610,0,-1704,-272,-25,-12,-13
4615,16,-1728,-328,-10,-4,-25
4620,0,-1728,-344,0,5,-34
4625,0,-1712,-320,13,14,-46
4630,0,-1672,-376,27,21,-57
4635,-16,-1672,-360,42,27,-67
4640,-16,-1640,-328,58,33,-78
4645,-24,-1632,-376,75,34,-86
4650,-8,-1624,-312,92,36,-90
4655,-40,-1576,-280,108,39,-88
4660,-64,-1552,-304,121,42,-85
4665,-80,-1568,-248,133,46,-78
4670,-96,-1584,-272,142,49,-72
4675,-80,-1560,-272,150,49,-61
4680,-72,-1560,-264,159,48,-49
4685,-104,-1504,-296,164,47,-37
4690,-88,-1552,-272,168,45,-26
4695,-80,-1528,-264,170,40,-19
4700,-120,-1520,-304,170,33,-15
4705,-112,-1536,-320,173,24,-13
4710,-136,-1520,-312,175,15,-15
4715,-128,-1528,-304,182,4,-19
4720,-144,-1536,-288,192,-3,-19
4725,-104,-1520,-320,205,-8,-16
4730,-128,-1488,-304,219,-11,-9
4735,-112,-1528,-288,235,-12,0
4740,-120,-1488,-312,252,-12,10
4745,-88,-1536,-256,272,-11,23
4750,-88,-1536,-232,295,-9,35
4755,-80,-1536,-248,316,-9,49
4760,-80,-1512,-192,334,-10,64
4765,-80,-1504,-176,346,-12,77
4770,-88,-1552,-160,355,-13,94
4775,-48,-1576,-136,366,-16,108
4780,-16,-1576,-112,378,-20,122
4785,8,-1640,-72,393,-25,132
4790,32,-1672,-88,409,-28,139
4795,72,-1704,-72,430,-31,139
4800,80,-1776,-80,456,-34,130
4805,96,-1800,-96,484,-34,117
4810,88,-1848,-88,515,-30,99
4815,80,-1896,-144,549,-24,77
4820,64,-1896,-104,582,-17,47
4825,-8,-1888,-88,614,-9,21
4830,-48,-1880,-56,635,1,-4
4835,-104,-1896,-64,647,5,-26
4840,-144,-1840,-96,647,7,-48
4845,-128,-1808,-144,632,7,-64
4850,-208,-1816,-80,606,8,-70
4855,-184,-1824,-88,576,6,-68
4860,-176,-1808,-88,549,3,-59
4865,-176,-1832,-192,530,-3,-44
4870,-128,-1840,-72,522,-17,-28
4875,-72,-1832,-104,522,-27,-15
4880,-16,-1824,-104,523,-35,-3
4885,32,-1856,-120,521,-38,4
4890,48,-1888,-104,504,-39,9
4895,32,-1912,-120,480,-36,10
4900,24,-1992,-152,451,-24,11
4905,-8,-2040,-128,426,-8,11
4910,-16,-2072,-136,405,6,11
4915,-32,-2104,-168,391,20,12
4920,-32,-2152,-136,389,33,15
4925,-64,-2168,-168,401,41,18
4930,-56,-2176,-184,428,45,20
4935,-88,-2144,-88,465,47,22
4940,-88,-2160,-128,504,46,23
4945,-104,-2136,-96,540,41,23
4950,-104,-2072,-64,560,39,24
4955,-128,-2064,-72,562,35,26
4960,-120,-2048,-72,545,25,30
4965,-128,-2032,-80,515,14,33
4970,-104,-2048,-88,476,9,43
4975,-88,-2056,-120,433,11,53
4980,-48,-2064,-120,386,12,62
4985,-48,-2104,-80,345,18,75
4990,-16,-2136,-96,310,19,86
4995,0,-2136,-104,291,18,95
5000,0,-2136,-48,282,18,103
5005,0,-2120,-8,275,22,107
5010,-8,-2104,-8,263,24,107
5015,0,-2096,0,247,26,107
5020,-24,-2096,-16,227,32,105
5025,-48,-2080,8,206,42,106
5030,-64,-2072,8,183,49,109
5035,-8,-2112,-8,167,48,112
5040,-16,-2128,-24,158,50,115
5045,24,-2192,-8,166,47,119
5050,32,-2192,24,186,42,116
5055,16,-2200,24,214,38,107
5060,16,-2200,-8,241,40,96
5065,8,-2192,8,265,41,86
5070,16,-2200,8,285,41,73
5075,8,-2208,32,305,41,60
5080,-8,-2216,8,324,46,43
5085,-8,-2232,-8,348,55,30
5090,-64,-2208,16,379,62,17
5095,-64,-2208,24,418,66,9
5100,-48,-2184,0,464,64,0
5105,-56,-2128,16,510,61,-7
5110,-88,-2088,16,548,58,-13
5115,-88,-2064,8,573,56,-19
5120,-88,-1992,16,591,52,-20
5125,-80,-1928,0,601,45,-18
5130,-48,-1920,0,605,38,-16
5135,-88,-1896,8,603,31,-10
5140,-8,-1904,24,594,26,-7
5145,-40,-1880,80,580,23,-5
5150,-24,-1904,112,565,22,-6
5155,0,-1896,128,553,22,-9
5160,0,-1920,112,543,24,-14
5165,152,-3448,-840,529,28,-22
5170,0,-1672,672,297,-45,17
5175,-88,-1240,384,463,-12,-8
5180,0,-1768,24,607,45,-47
5185,40,-1848,136,579,53,-61
5190,8,-1880,192,560,67,-67
5195,16,-1872,160,575,75,-72
5200,48,-1848,144,597,82,-76
5205,16,-1792,136,612,95,-79
5210,16,-1776,128,617,109,-77
5215,8,-1792,184,613,121,-74
5220,-16,-1832,184,608,130,-75
5225,-24,-1872,216,610,139,-76
5230,-88,-1912,256,619,138,-80
5235,-136,-1936,296,641,136,-81
5240,-152,-1944,328,677,127,-82
5245,-96,-1952,368,722,115,-88
5250,-56,-2000,392,768,100,-97
5255,-40,-2016,416,808,85,-110
5260,-8,-2072,480,837,73,-123
5265,8,-2160,472,860,60,-138
5270,64,-2208,512,881,50,-156
5275,72,-2280,528,900,43,-177
5280,64,-2384,584,916,37,-200
5285,64,-2424,568,933,34,-222
5290,24,-2480,584,954,30,-242
5295,8,-2520,568,976,24,-258
5300,56,-2584,600,993,16,-269
5305,16,-2592,568,1004,7,-274
5310,64,-2616,552,1008,-3,-273
5315,56,-2624,552,1007,-8,-266
5320,72,-2632,576,1004,-5,-249
5325,56,-2616,608,1004,1,-227
5330,56,-2592,584,1010,6,-205
5335,32,-2560,624,1028,-3,-199
5340,80,-2472,592,1055,-19,-203
5345,24,-2384,552,1077,-34,-209
5350,64,-2312,480,1082,-47,-213
5355,96,-2256,448,1062,-62,-209
5360,80,-2216,456,1025,-67,-194
5365,88,-2176,504,977,-57,-166
5370,120,-2136,560,926,-49,-133
5375,104,-2120,656,884,-44,-111
5380,128,-2088,648,853,-43,-99
5385,128,-2016,648,829,-50,-97
5390,128,-2008,640,803,-60,-92
5395,176,-1992,712,773,-66,-80
5400,200,-1960,688,748,-68,-64
5405,184,-1976,696,731,-63,-55
5410,184,-1952,736,724,-58,-46
5415,168,-1928,680,726,-54,-39
5420,168,-1888,720,733,-45,-37
5425,144,-1840,728,739,-35,-40
5430,136,-1808,712,742,-25,-47
5435,96,-1768,744,738,-15,-52
5440,72,-1776,712,726,-10,-51
5445,72,-1728,768,711,-8,-51
5450,64,-1720,760,699,-1,-51
5455,40,-1704,808,692,2,-54
5460,32,-1680,800,690,-3,-59
5465,16,-1656,792,694,-13,-58
5470,24,-1648,808,698,-19,-57
5475,56,-1640,816,699,-22,-57
5480,0,-1592,808,705,-23,-57
5485,0,-1584,816,709,-21,-52
5490,16,-1568,808,708,-22,-45
5495,32,-1528,808,701,-24,-36
5500,48,-1552,784,685,-27,-29
5505,40,-1544,816,668,-29,-25
5510,48,-1544,856,651,-28,-19
5515,56,-1600,920,633,-30,-16
5520,32,-1688,896,621,-36,-19
5525,48,-1728,944,614,-41,-22
5530,32,-1744,952,615,-40,-24
5535,56,-1792,968,626,-39,-28
5540,56,-1824,984,647,-39,-32
5545,48,-1832,976,676,-38,-33
5550,72,-1832,952,709,-37,-34
5555,48,-1848,976,744,-37,-31
5560,64,-1816,968,778,-40,-31
5565,80,-1776,984,802,-43,-31
5570,96,-1784,968,817,-49,-35
5575,136,-1776,944,821,-50,-42
5580,96,-1744,960,815,-46,-46
5585,120,-1736,976,799,-41,-46
5590,96,-1720,992,778,-35,-47
5595,104,-1736,968,756,-34,-49
5600,104,-1744,968,732,-34,-48
5605,120,-1752,968,711,-32,-47
5610,88,-1776,1008,691,-32,-45
5615,96,-1792,1016,675,-29,-46
5620,88,-1792,1024,668,-31,-46
5625,96,-1800,1024,664,-35,-47
5630,80,-1776,1024,665,-39,-49
5635,80,-1784,992,666,-36,-51
5640,104,-1776,1016,665,-32,-53
5645,104,-1776,1024,662,-27,-54
5650,80,-1728,1000,657,-24,-58
5655,64,-1672,1008,650,-25,-60
5660,88,-1664,1048,635,-24,-60
5665,88,-1600,1008,611,-19,-62
5670,88,-1584,1024,580,-10,-63
5675,56,-1592,1008,544,-6,-60
5680,64,-1544,1040,505,-2,-55
5685,64,-1560,1032,463,-1,-50
5690,64,-1600,1024,422,-5,-39
5695,80,-1600,1016,385,-8,-30
5700,104,-1640,1024,355,-6,-28
5705,96,-1632,1032,330,0,-26
5710,128,-1648,1032,311,4,-23
5715,112,-1704,1048,296,8,-21
5720,104,-1704,1040,285,12,-17
5725,64,-1712,1096,277,19,-15
5730,56,-1728,1088,271,25,-14
5735,64,-1720,1112,268,26,-16
5740,64,-1744,1080,268,27,-17
5745,64,-1736,1144,268,28,-20
5750,72,-1704,1104,270,32,-28
5755,56,-1712,1104,271,36,-33
5760,56,-1664,1112,271,33,-38
5765,48,-1672,1080,268,32,-41
5770,56,-1640,1112,263,30,-41
5775,24,-1600,1120,256,31,-42
5780,0,-1576,1104,246,28,-44
5785,16,-1600,1120,234,23,-46
5790,32,-1608,1120,223,19,-47
5795,0,-1592,1112,210,17,-46
5800,32,-1600,1104,200,12,-47
5805,16,-1576,1128,188,9,-46
5810,24,-1592,1096,177,6,-45
5815,0,-1592,1088,171,3,-41
5820,16,-1576,1120,168,-2,-36
5825,8,-1608,1080,169,-6,-34
5830,40,-1608,1056,169,-9,-31
5835,24,-1632,1064,168,-9,-30
5840,24,-1624,1064,168,-9,-29
5845,24,-1624,1112,169,-8,-27
5850,16,-1616,1104,171,-8,-28
5855,40,-1632,1104,172,-5,-29
5860,64,-1632,1120,176,-1,-29
5865,48,-1616,1128,179,0,-30
5870,56,-1616,1104,178,0,-33
5875,72,-1616,1112,177,2,-34
5880,64,-1584,1080,173,0,-36
5885,80,-1576,1096,163,2,-39
5890,80,-1592,1104,153,7,-39
5895,64,-1592,1096,143,11,-37
5900,56,-1616,1128,135,13,-34
5905,56,-1608,1128,127,13,-32
5910,40,-1576,1112,121,13,-28
5915,72,-1608,1104,114,11,-23
5920,56,-1568,1152,108,5,-22
5925,88,-1632,1096,103,2,-18
5930,96,-1616,1144,100,0,-17
5935,72,-1624,1136,96,-5,-17
5940,88,-1624,1136,95,-8,-14
5945,96,-1624,1136,95,-10,-12
5950,128,-1616,1136,96,-11,-8
5955,104,-1632,1144,97,-13,-6
5960,144,-1616,1152,94,-13,-1
5965,144,-1640,1112,89,-14,3
5970,144,-1616,1136,85,-13,6
5975,152,-1656,1160,78,-9,13
5980,144,-1640,1120,74,-8,19
5985,136,-1632,1144,74,-5,24
5990,136,-1632,1112,76,-3,29
5995,152,-1656,1128,80,-4,33
6000,144,-1656,1104,88,-7,35
6005,112,-1640,1080,94,-5,38
6010,128,-1632,1104,103,-5,39
6015,144,-1616,1112,108,-3,40
6020,128,-1616,1104,109,1,39
6025,128,-1592,1112,110,7,37
6030,136,-1600,1080,105,12,34
6035,136,-1608,1104,97,13,34
6040,120,-1576,1144,87,17,37
6045,128,-1592,1128,76,20,37
6050,112,-1632,1096,66,22,36
6055,128,-1640,1120,55,25,35
6060,96,-1632,1104,49,26,34
6065,128,-1640,1104,48,28,31
6070,136,-1664,1080,50,35,27
6075,72,-1648,1128,56,42,23
6080,64,-1632,1088,66,43,26
6085,64,-1640,1048,73,41,29
6090,64,-1608,1064,73,42,30
6095,56,-1632,1056,66,41,27
6100,48,-1632,1072,58,41,23
6105,64,-1656,1088,50,41,23
6110,48,-1616,1064,43,43,23
6115,8,-1616,1080,38,43,21
6120,40,-1640,1056,35,44,21
6125,72,-1656,1096,33,44,19
6130,40,-1632,1088,32,43,17
6135,56,-1640,1064,33,41,14
6140,56,-1672,1088,32,41,11
6145,48,-1656,1056,30,39,9
6150,48,-1648,1040,30,39,7
6155,72,-1664,1048,33,36,6
6160,64,-1664,1040,37,35,2
6165,88,-1664,1048,40,34,0
6170,88,-1648,1048,44,35,-2
6175,80,-1672,1096,48,36,-3
6180,48,-1672,1088,52,38,-4
6185,72,-1656,1088,55,40,-4
6190,64,-1632,1080,57,39,-5
6195,56,-1656,1048,60,42,-6
6200,72,-1656,1088,62,45,-7
6205,80,-1656,1104,63,46,-7
6210,64,-1656,1072,65,48,-8
6215,32,-1648,1096,66,52,-8
6220,56,-1632,1120,69,51,-7
6225,56,-1648,1104,70,51,-7
6230,40,-1616,1096,72,51,-10
6235,32,-1624,1104,71,48,-10
6240,40,-1592,1096,68,44,-10
6245,40,-1616,1096,64,41,-11
6250,32,-1584,1096,59,38,-9
6255,40,-1592,1080,51,37,-7
6260,48,-1600,1032,41,38,-3
6265,56,-1616,1072,33,38,1
6270,56,-1632,1048,26,40,5
6275,80,-1640,1104,24,39,9
6280,80,-1664,1112,26,38,8
6285,64,-1672,1112,29,35,7
6290,112,-1680,1128,33,31,4
6295,104,-1680,1136,36,26,-2
6300,80,-1648,1168,38,20,-7
6305,96,-1664,1168,38,15,-8
6310,88,-1624,1168,41,14,-10
6315,96,-1616,1112,44,14,-13
6320,112,-1632,1136,41,18,-13
6325,112,-1608,1136,34,16,-16
6330,136,-1584,1200,19,15,-22
6335,152,-1624,1104,-3,14,-34
6340,104,-1672,1112,-31,10,-57
6345,56,-1632,1104,-69,2,-86
6350,88,-1648,1160,-119,-6,-108
6355,120,-1656,1152,-140,-14,-115
6360,136,-1640,1136,-135,-6,-112
6365,184,-1624,1120,-115,12,-102
6370,168,-1592,1080,-97,26,-95
6375,128,-1552,1128,-87,31,-93
6380,104,-1536,1216,-71,28,-79
6385,136,-1536,1208,-37,28,-50
6390,120,-1480,1128,-11,41,-33
6395,88,-1488,1176,-12,42,-25
6400,88,-1472,1184,-19,43,-5
6405,64,-1480,1176,-31,44,10
6410,72,-1488,1192,-47,40,18
6415,24,-1536,1232,-66,35,26
6420,24,-1536,1224,-83,33,34
6425,32,-1536,1248,-96,29,43
6430,0,-1544,1232,-103,26,51
6435,0,-1568,1240,-108,26,61
6440,-16,-1584,1216,-109,27,71
6445,-32,-1552,1224,-111,25,78
6450,0,-1544,1144,-114,20,84
6455,-32,-1544,1112,-125,17,90
6460,-24,-1536,1104,-142,15,96
6465,-32,-1552,1104,-166,14,103
6470,-8,-1536,1032,-199,14,109
6475,-32,-1544,1024,-236,13,114
6480,-64,-1576,984,-272,13,115
6485,-40,-1608,984,-305,13,119
6490,-24,-1624,944,-330,15,125
6495,-48,-1640,952,-352,18,129
6500,-32,-1680,952,-366,18,132
6505,-24,-1688,960,-377,20,136
6510,-24,-1704,928,-384,23,143
6515,0,-1744,872,-388,24,145
6520,0,-1776,904,-391,27,146
6525,0,-1832,912,-396,29,143
6530,8,-1848,896,-404,31,139
6535,16,-1920,928,-414,34,138
6540,40,-1960,984,-419,37,137
6545,88,-1992,1040,-415,39,136
6550,72,-1952,1048,-398,33,136
6555,104,-1920,1056,-370,23,132
6560,88,-1888,1096,-335,14,127
6565,120,-1848,1080,-302,8,127
6570,104,-1800,1072,-281,12,141
6575,176,-1752,1096,-278,25,169
6580,208,-1728,1072,-286,40,186
6585,184,-1664,1048,-290,50,179
6590,168,-1576,1016,-296,51,164
6595,136,-1552,928,-305,45,146
6600,96,-1520,872,-322,37,134
6605,104,-1520,864,-353,38,138
6610,80,-1504,888,-394,48,141
6615,56,-1456,952,-431,61,138
6620,-24,-1424,928,-453,56,116
6625,8,-1424,936,-486,46,115
6630,8,-1440,952,-529,49,120
6635,0,-1432,984,-571,54,113
6640,-16,-1448,968,-614,51,112
6645,-56,-1456,968,-655,48,112
6650,-40,-1512,1008,-687,49,111
6655,-56,-1536,1000,-706,54,110
6660,-104,-1568,1008,-714,61,113
6665,-128,-1616,1056,-717,62,120
6670,-120,-1680,1016,-719,59,127
6675,-144,-1744,984,-721,54,134
6680,-112,-1784,936,-724,46,137
6685,-120,-1808,888,-724,36,134
6690,-72,-1832,928,-726,30,128
6695,-8,-1856,960,-740,23,114
6700,24,-1840,936,-767,22,91
6705,56,-1848,912,-811,23,59
6710,72,-1792,872,-868,24,24
6715,72,-1824,848,-930,25,-12
6720,96,-1848,744,-987,28,-42
6725,96,-1880,664,-1034,28,-68
6730,112,-1896,624,-1063,39,-91
6735,88,-1928,576,-1077,59,-101
6740,48,-1936,520,-1078,78,-97
6745,16,-1944,488,-1073,93,-87
6750,24,-1960,480,-1075,91,-70
6755,0,-1960,464,-1082,84,-58
6760,0,-1936,544,-1095,80,-49
6765,8,-1968,664,-1113,83,-43
6770,24,-2360,792,-1176,84,-22
6775,-24,-1728,1152,-1286,28,69
6780,-16,-1472,1048,-1132,98,79
6785,-96,-1736,952,-1067,191,38
6790,-104,-1744,944,-1138,199,45
6795,-136,-1752,912,-1230,182,67
6800,-160,-1760,856,-1303,181,93
6805,-224,-1776,816,-1340,188,122
6810,-96,-2976,424,-1364,170,155
6815,-208,-1872,992,-1564,57,275
6820,-256,-1680,624,-1371,53,316
6825,-296,-1744,576,-1158,115,282
6830,-312,-1760,528,-1110,108,261
6835,-304,-1888,552,-1171,58,259
6840,-224,-2016,568,-1262,15,272
6845,-160,-2056,576,-1335,-10,292
6850,-144,-1960,736,-1364,-21,304
6855,-72,-1840,800,-1330,-25,299
6860,0,-1928,656,-1281,-30,269
6865,80,-1952,632,-1290,-46,241
6870,216,-2016,680,-1302,-56,218
6875,152,-1960,576,-1295,-65,200
6880,200,-1976,480,-1277,-73,187
6885,224,-2040,376,-1255,-70,171
6890,224,-2096,328,-1244,-64,170
6895,200,-2168,784,-1342,-87,198
6900,112,-1976,400,-1307,-86,218
6905,88,-1768,456,-1121,-36,195
6910,72,-1856,344,-1002,-7,150
6915,24,-1960,336,-1011,1,116
6920,24,-2064,432,-1047,-8,99
6925,0,-2096,360,-1047,-6,85
6930,-8,-2096,360,-1033,-15,72
6935,-24,-2120,392,-1016,-24,65
6940,-24,-2104,320,-998,-26,61
6945,-96,-2096,280,-977,-24,57
6950,-136,-2072,280,-957,-33,60
6955,-144,-2080,192,-939,-40,60
6960,-168,-2056,128,-922,-42,64
6965,-176,-2056,40,-913,-50,63
6970,-200,-2080,24,-906,-60,56
6975,-176,-2088,8,-896,-76,54
6980,-160,-2096,8,-891,-94,43
6985,-168,-2048,56,-886,-108,35
6990,-144,-2056,24,-885,-103,31
6995,-168,-2064,16,-895,-90,29
7000,-168,-2112,-24,-910,-85,23
7005,-168,-2144,-56,-918,-84,22
7010,-184,-2152,-80,-914,-85,20
7015,-224,-2144,-80,-904,-81,18
7020,-248,-2144,-144,-892,-82,16
7025,-200,-2160,-136,-886,-96,14
7030,-224,-2208,-168,-876,-109,12
7035,-208,-2248,-232,-853,-106,14
7040,80,-3672,-720,-829,-110,18
7045,-216,-2232,224,-1054,-175,41
7050,-192,-1736,-72,-829,-157,23
7055,-120,-2072,-160,-609,-111,-14
7060,-72,-2256,-72,-652,-108,-37
7065,-120,-2368,-48,-629,-104,-47
7070,-120,-2384,-64,-572,-102,-49
7075,-160,-2400,-48,-522,-105,-44
7080,-128,-2384,-8,-480,-108,-35
7085,-160,-2336,32,-441,-107,-24
7090,-160,-2336,-16,-407,-109,-13
7095,-176,-2312,-32,-377,-109,-2
7100,-192,-2320,-24,-353,-115,8
7105,-152,-2328,-56,-332,-122,19
7110,-120,-2328,-24,-315,-130,29
7115,-96,-2320,-8,-305,-139,37
7120,-104,-2312,0,-301,-151,36
7125,-120,-2296,-16,-305,-164,29
7130,-96,-2288,-16,-322,-178,20
7135,-136,-2304,-24,-345,-191,10
7140,-104,-2312,-56,-369,-205,2
7145,-112,-2336,-88,-393,-216,-5
7150,-80,-2336,-112,-420,-226,-10
7155,-56,-2328,-120,-442,-234,-15
7160,-56,-2320,-168,-455,-240,-22
7165,-40,-2280,-168,-464,-245,-29
7170,-8,-2304,-184,-474,-252,-35
7175,16,-2304,-176,-488,-256,-42
7180,40,-2320,-192,-500,-254,-45
7185,40,-2304,-152,-513,-252,-50
7190,56,-2296,-160,-523,-249,-53
7195,64,-2272,-168,-532,-245,-53
7200,40,-2216,-184,-540,-238,-57
7205,48,-2184,-144,-545,-238,-58
7210,24,-2160,-136,-553,-237,-62
7215,0,-2120,-152,-561,-247,-68
7220,8,-2096,-152,-571,-260,-78
7225,-48,-2040,-176,-583,-273,-88
7230,-88,-2000,-184,-595,-289,-90
7235,-136,-2000,-256,-613,-310,-82
7240,-120,-1992,-272,-630,-330,-68
7245,-160,-1976,-312,-649,-352,-54
7250,-176,-1992,-336,-667,-374,-38
7255,-184,-1992,-320,-686,-394,-22
7260,-168,-1968,-296,-709,-417,-9
7265,-136,-1984,-288,-736,-438,6
7270,-120,-1968,-280,-762,-456,23
7275,-96,-1968,-264,-784,-473,41
7280,-72,-1968,-256,-804,-482,61
7285,-88,-1960,-288,-816,-487,81
7290,-56,-1952,-320,-820,-492,96
7295,-56,-1960,-272,-818,-494,110
7300,-40,-1944,-288,-810,-495,117
7305,-16,-1928,-320,-799,-497,123
7310,0,-1896,-312,-788,-491,125
7315,0,-1904,-304,-774,-483,128
7320,-8,-1920,-296,-755,-473,128
7325,0,-1952,-344,-727,-462,130
7330,-24,-1928,-352,-696,-451,126
7335,-56,-1920,-376,-660,-439,120
7340,-80,-1896,-368,-626,-433,115
7345,-112,-1840,-368,-600,-430,107
7350,-136,-1808,-304,-578,-426,100
7355,-168,-1760,-328,-562,-427,91
7360,-208,-1704,-336,-550,-435,90
7365,-192,-1672,-352,-539,-448,95
7370,-192,-1624,-344,-527,-466,98
7375,-176,-1568,-368,-518,-481,101
7380,-160,-1520,-384,-508,-490,114
7385,-200,-1488,-368,-504,-495,120
7390,-208,-1472,-368,-506,-500,128
7395,-208,-1456,-368,-510,-502,140
7400,-176,-1504,-376,-509,-508,153
7405,-168,-1504,-336,-506,-518,159
7410,-160,-1480,-344,-499,-523,163
7415,-184,-1504,-352,-492,-526,163
7420,-200,-1464,-392,-482,-524,163
7425,-192,-1408,-376,-477,-521,168
7430,-200,-1400,-360,-485,-517,173
7435,-176,-1392,-368,-502,-519,180
7440,-120,-1424,-360,-510,-524,181
7445,-88,-1400,-336,-514,-529,178
7450,-48,-1408,-376,-518,-521,180
7455,-56,-1408,-312,-529,-506,184
7460,-88,-1448,-352,-537,-490,191
7465,-96,-1448,-312,-548,-478,194
7470,-144,-1464,-280,-558,-474,191
7475,-152,-1488,-320,-565,-475,187
7480,-144,-1512,-280,-573,-475,188
7485,-120,-1512,-240,-574,-479,193
7490,-144,-1504,-280,-569,-479,190
7495,-136,-1528,-248,-564,-480,187
7500,-152,-1504,-256,-562,-478,187
7505,-144,-1528,-280,-562,-476,185
7510,-128,-1512,-296,-565,-475,179
7515,-128,-1536,-312,-568,-476,168
7520,-128,-1544,-344,-564,-477,153
7525,-120,-1496,-368,-556,-472,132
7530,-88,-1480,-424,-496,-478,92
7535,-280,-1800,-728,-442,-501,41
7540,-136,-1536,-456,-543,-475,59
7545,-152,-1552,-480,-545,-429,78
7550,-176,-1536,-496,-532,-409,65
7555,-232,-1528,-488,-522,-409,53
7560,-264,-1488,-520,-520,-407,51
7565,-272,-1520,-512,-527,-398,56
7570,-296,-1520,-456,-536,-394,65
7575,-312,-1504,-480,-541,-397,77
7580,-344,-1496,-480,-541,-408,98
7585,-368,-1488,-424,-538,-426,124
7590,-384,-1464,-448,-537,-444,157
7595,-320,-1480,-424,-535,-467,190
7600,-320,-1456,-440,-536,-491,223
7605,-296,-1448,-432,-541,-507,256
7610,-280,-1488,-488,-547,-519,289
7615,-272,-1464,-480,-558,-526,316
7620,-328,-1464,-432,-564,-532,341
7625,-376,-1448,-408,-563,-530,363
7630,-352,-1424,-360,-567,-529,388
7635,-384,-1384,-392,-581,-527,420
7640,-376,-1344,-408,-613,-529,452
7645,-408,-1256,-480,-668,-540,488
7650,-408,-1280,-488,-751,-565,524
7655,-360,-1336,-472,-844,-606,560
7660,-360,-1376,-464,-930,-650,591
7665,-376,-1432,-448,-991,-692,618
7670,-352,-1472,-432,-1028,-745,634
7675,-360,-1424,-408,-1049,-809,647
7680,-352,-1416,-448,-1064,-870,667
7685,-392,-1408,-408,-1088,-914,702
7690,-424,-1448,-424,-1123,-943,753
7695,-488,-1496,-344,-1158,-975,811
7700,-464,-1512,-304,-1177,-1022,868
7705,-456,-1520,-224,-1175,-1081,920
7710,-496,-1472,-152,-1159,-1164,964
7715,-424,-1496,-104,-1138,-1241,1000
7720,-488,-1360,-232,-1114,-1321,1033
7725,-464,-1296,-264,-1086,-1392,1071
7730,-432,-1264,-336,-1055,-1447,1110
7735,-448,-1256,-464,-1026,-1483,1152
7740,-496,-1208,-544,-1003,-1505,1205
7745,-472,-1200,-528,-998,-1519,1269
7750,-416,-1216,-456,-1004,-1523,1334
7755,-440,-1200,-368,-1009,-1533,1383
7760,-448,-1208,-224,-1016,-1546,1415
7765,-488,-1160,-104,-1022,-1555,1448
7770,-496,-1184,-56,-1030,-1564,1488
7775,-464,-1232,-112,-1033,-1567,1529
7780,-448,-1256,-192,-1013,-1568,1567
7785,-376,-1272,-256,-968,-1562,1596
7790,-328,-1264,-320,-897,-1565,1599
7795,-264,-1128,-488,-810,-1575,1582
7800,-208,-1032,-568,-742,-1538,1575
7805,-144,-976,-680,-701,-1452,1590
7810,-104,-920,-800,-682,-1341,1619
7815,32,-896,-816,-692,-1225,1635
7820,200,-808,-800,-712,-1110,1627
7825,312,-760,-768,-753,-1000,1600
7830,384,-752,-808,-817,-880,1573
7835,440,-744,-824,-910,-742,1552
7840,520,-792,-848,-1039,-588,1526
7845,528,-896,-864,-1201,-433,1486
7850,608,-1016,-904,-1368,-287,1443
7855,568,-1112,-920,-1497,-152,1382
7860,552,-1264,-984,-1571,-30,1327
7865,504,-1392,-1008,-1607,101,1281
7870,296,-1472,-936,-1625,243,1253
7875,128,-1520,-776,-1632,348,1244
7880,-96,-1504,-744,-1630,403,1211
7885,-416,-1448,-616,-1631,408,1180
7890,-680,-1424,-536,-1652,371,1151
7895,-1024,-1432,-392,-1682,301,1141
7900,-1328,-1440,-224,-1704,192,1143
7905,-1576,-1464,-152,-1692,61,1157
7910,-1864,-1384,0,-1631,-95,1185
7915,-2160,-1120,168,-1549,-248,1237
7920,-2408,-1056,376,-1505,-412,1321
7925,-2448,-1072,328,-1475,-618,1431
7930,-2440,-1096,312,-1419,-862,1532
7935,-2432,-992,144,-1316,-1113,1626
7940,-2400,-736,0,-1206,-1334,1727
7945,-2336,-504,-168,-1161,-1535,1826
7950,-2296,-352,-304,-1200,-1733,1900
7955,-2200,-136,-472,-1290,-1949,1947
7960,-2024,-200,-848,-1376,-2198,1994
7965,-1704,-336,-1272,-1410,-2442,2046
7970,-1224,-488,-1688,-1373,-2630,2084
7975,-832,-632,-1920,-1238,-2758,2114
7980,-448,-696,-1904,-1002,-2837,2089
7985,-144,-592,-1800,-682,-2821,2001
7990,0,-304,-1632,-341,-2720,1900
7995,120,72,-1528,-70,-2604,1774
8000,72,344,-1488,82,-2518,1584
8005,-112,536,-1400,100,-2463,1344
8010,-632,648,-1432,54,-2396,1079
8015,-1304,1064,-1160,-71,-2240,810
8020,-2000,1520,-552,-324,-2048,578
8025,-2560,1720,40,-767,-1928,399
8030,-3480,1400,512,-1226,-1828,284
8035,-4016,632,136,-1532,-1732,214
8040,-4208,-320,-368,-1559,-1764,176
8045,-4392,-1056,-960,-1293,-1962,109
8050,-4352,-1432,-1280,-837,-2149,74
8055,-4576,-1488,-1784,-269,-2119,95
8060,-4504,-1240,-2072,241,-1960,241
8065,-4616,-1000,-2408,767,-1813,459
8070,-4584,-816,-2848,1188,-1718,728
8075,-4640,-816,-2960,1348,-1613,995
8080,-4920,-496,-3496,1302,-1489,1232
8085,-4736,520,-3312,1077,-1273,1483
8090,-4496,1480,-3560,925,-1056,1771
8095,-4512,2256,-3568,710,-922,2112
8100,-4664,2728,-3360,433,-795,2372
8105,-4800,2760,-3112,172,-611,2426
8110,-5104,2456,-2792,-67,-379,2259
8115,-5264,1984,-2496,-325,-80,2040
8120,-5320,1240,-2128,-663,198,1997
8125,-5096,848,-2024,-954,386,2131
8130,-4800,464,-1856,-1108,435,2374
8135,-4072,304,-1520,-1200,446,2578
8140,-3576,256,-1200,-1238,418,2745
8145,-3400,208,-992,-1211,370,2876
8150,-3088,200,-736,-1134,370,2920
8155,-2752,152,-480,-1071,378,2860
8160,-2528,56,-248,-1052,362,2726
8165,-2352,8,-48,-1078,354,2523
8170,-2192,-96,32,-1137,350,2295
8175,-2024,-224,32,-1193,338,2077
8180,-1784,-424,-112,-1207,318,1879
8185,-1472,-488,-280,-1152,303,1709
8190,-1304,-408,-360,-984,311,1559
8195,-1200,-600,-688,-697,353,1449
8200,-1112,-832,-968,-557,431,1365
8205,-1136,-512,-608,-507,521,1225
8210,-1336,-328,-584,-343,563,1055
8215,-1360,-224,-584,-149,553,944
8220,-1408,-48,-664,65,502,863
8225,-1520,96,-848,271,443,789
8230,-1576,352,-992,410,419,697
8235,-1664,512,-1016,479,404,604
8240,-1688,632,-1056,527,372,528
8245,-1776,712,-1000,564,346,412
8250,-1816,792,-920,610,337,290
8255,-1736,776,-968,653,340,173
8260,-1744,896,-960,653,348,9
8265,-1872,912,-1032,644,346,-152
8270,-1904,808,-1096,624,356,-292
8275,-1856,792,-1032,549,359,-458
8280,-1776,784,-1032,531,307,-529
8285,-1592,696,-1096,603,252,-505
8290,-1448,520,-1192,664,275,-544
8295,-1432,520,-1040,579,357,-702
8300,-1536,632,-760,454,380,-813
8305,-1440,720,-648,440,352,-777
8310,-1344,728,-616,519,339,-709
8315,-1336,800,-592,606,371,-676
8320,-1384,936,-640,653,421,-656
8325,-1448,976,-624,654,482,-619
8330,-1536,1048,-648,609,558,-623
8335,-1608,1048,-608,540,586,-610
8340,-1576,1024,-648,478,560,-571
8345,-1568,1016,-696,417,527,-545
8350,-1576,992,-720,367,523,-527
8355,-1592,968,-752,340,554,-488
8360,-1600,904,-744,326,594,-436
8365,-1624,864,-736,328,617,-385
8370,-1704,824,-752,357,610,-321
8375,-1728,752,-784,404,592,-252
8380,-1752,776,-840,446,572,-195
8385,-1744,816,-952,482,568,-134
8390,-1696,848,-968,489,585,-68
8395,-1744,920,-984,471,584,-4
8400,-1608,840,-1048,415,555,37
8405,-1544,680,-1016,315,531,23
8410,-1656,640,-928,227,512,-46
8415,-1680,632,-992,173,465,-78
8420,-1528,568,-960,131,412,-58
8425,-1480,544,-1016,92,372,-65
8430,-1472,472,-1016,51,337,-86
8435,-1584,448,-968,43,326,-108
8440,-1664,376,-960,67,312,-127
8445,-1728,400,-976,105,266,-122
8450,-1808,448,-1008,134,218,-101
8455,-1888,496,-1080,149,182,-75
8460,-1768,504,-1184,144,158,-31
8465,-1928,632,-1200,136,214,24
8470,-1904,616,-1160,106,230,80
8475,-1944,672,-1192,89,223,126
8480,-1888,608,-1232,77,207,160
8485,-1928,656,-1272,70,201,167
8490,-1952,688,-1288,63,197,175
8495,-2016,728,-1352,38,201,200
8500,-1944,688,-1320,-12,192,224
8505,-1896,640,-1240,-71,176,229
8510,-1896,608,-1184,-118,157,216
8515,-1896,528,-1144,-145,144,212
8520,-1880,528,-1104,-156,140,215
8525,-1920,680,-976,-147,147,218
8530,-1960,528,-1040,21,207,182
8535,-1720,176,-1320,61,271,145
8540,-1848,392,-1048,-98,238,184
8545,-1896,536,-1168,-122,201,224
8550,-1920,544,-1192,-128,193,221
8555,-1920,528,-1176,-117,183,205
8560,-1880,504,-1152,-99,168,179
8565,-1912,448,-1144,-78,152,134
8570,-1912,416,-1152,-45,136,83
8575,-1880,376,-1128,-15,113,36
8580,-1848,328,-1088,10,101,1
8585,-1824,368,-1064,33,87,-31
8590,-1784,368,-1056,55,74,-58
8595,-1744,336,-1008,76,65,-88
8600,-1728,328,-984,104,58,-123
8605,-1696,264,-968,131,53,-157
8610,-1696,272,-960,155,54,-192
8615,-1680,264,-904,174,64,-221
8620,-1664,272,-944,184,78,-248
8625,-1672,256,-888,189,89,-277
8630,-1680,216,-896,200,101,-304
8635,-1640,216,-880,216,115,-326
8640,-1640,192,-880,233,128,-340
8645,-1640,176,-872,253,137,-351
8650,-1648,144,-904,269,146,-359
8655,-1656,168,-912,281,156,-361
8660,-1656,192,-976,282,168,-360
8665,-1664,168,-1008,274,179,-359
8670,-1696,200,-1000,256,192,-358
8675,-1720,192,-1032,234,201,-357
8680,-1720,160,-1032,213,200,-353
8685,-1752,136,-1048,197,196,-349
8690,-1728,128,-1064,184,186,-345
8695,-1736,136,-1072,176,180,-338
8700,-1752,120,-1040,164,176,-329
8705,-1776,96,-1056,153,163,-318
8710,-1792,64,-1040,151,151,-307
8715,-1776,40,-1088,159,144,-298
8720,-1832,16,-1056,167,141,-290
8725,-1808,8,-1056,180,131,-279
8730,-1760,16,-1088,194,129,-265
8735,-1808,40,-1104,197,126,-250
8740,-1816,56,-1096,189,121,-239
8745,-1808,72,-1112,175,118,-224
8750,-1816,80,-1128,158,114,-211
8755,-1800,88,-1112,144,110,-202
8760,-1784,72,-1088,125,105,-192
8765,-1776,96,-1056,108,102,-181
8770,-1752,56,-1040,96,99,-175
8775,-1752,48,-1064,90,97,-175
8780,-1752,56,-1048,87,94,-169
8785,-1752,56,-1032,84,97,-159
8790,-1744,32,-1016,77,104,-142
8795,-1752,32,-1024,67,111,-125
8800,-1720,32,-1048,58,117,-113
8805,-1736,-8,-1024,51,125,-102
8810,-1728,0,-1032,49,133,-90
8815,-1720,-16,-1040,47,139,-84
8820,-1760,16,-1024,46,148,-74
8825,-1744,-8,-1056,45,141,-62
8830,-1768,16,-1064,46,137,-47
8835,-1744,8,-1064,47,131,-33
8840,-1720,8,-1104,43,126,-20
8845,-1752,40,-1096,35,122,-11
8850,-1744,80,-1104,28,122,0
8855,-1744,56,-1088,19,124,7
8860,-1760,32,-1096,16,118,13
8865,-1736,48,-1112,15,113,16
8870,-1736,40,-1096,15,107,19
8875,-1712,56,-1104,21,97,20
8880,-1744,40,-1112,23,93,24
8885,-1688,24,-1120,22,84,26
8890,-1760,104,-1120,17,83,24
8895,-1704,80,-1072,4,72,40
8900,-1720,64,-1096,2,61,44
8905,-1712,56,-1104,0,59,45
8910,-1720,56,-1080,-2,58,45
8915,-1736,72,-1080,-6,54,49
8920,-1704,56,-1088,-9,54,54
8925,-1712,88,-1080,-14,56,59
8930,-1712,56,-1056,-20,60,64
8935,-1696,48,-1064,-25,63,69
8940,-1704,72,-1096,-27,64,71
8945,-1712,88,-1096,-32,64,77
8950,-1720,72,-1104,-34,63,80
8955,-1696,72,-1096,-37,61,83
8960,-1720,80,-1088,-36,57,84
8965,-1720,88,-1096,-38,54,85
8970,-1688,72,-1080,-36,50,88
8975,-1736,120,-1096,-36,47,88
8980,-1720,104,-1096,-35,42,87
8985,-1752,120,-1104,-34,38,86
8990,-1728,104,-1088,-34,36,86
8995,-1704,136,-1072,-31,34,83
9000,-1712,88,-1080,-29,33,82
9005,-1720,136,-1080,-25,32,79
9010,-1744,136,-1096,-21,32,75
9015,-1720,128,-1112,-15,31,70
9020,-1728,104,-1088,-10,29,63
9025,-1728,136,-1080,-3,28,60
9030,-1736,136,-1088,4,24,51
9035,-1728,136,-1096,10,22,44
9040,-1720,128,-1096,17,18,37
9045,-1704,144,-1120,22,13,33
9050,-1720,120,-1112,27,10,29
9055,-1712,120,-1096,33,5,23
9060,-1736,96,-1072,38,3,20
9065,-1736,128,-1080,41,0,18
9070,-1688,120,-1096,45,-1,14
9075,-1696,128,-1064,49,-1,12
9080,-1688,144,-1064,52,-1,7
9085,-1728,128,-1096,58,-1,2
9090,-1688,144,-1080,60,-4,-1
9095,-1736,128,-1112,64,-5,-8
9100,-1704,136,-1088,67,-7,-11
9105,-1720,136,-1128,68,-10,-13
9110,-1704,128,-1088,69,-11,-15
9115,-1720,136,-1080,72,-15,-19
9120,-1712,104,-1072,72,-15,-21
9125,-1696,96,-1072,74,-16,-22
9130,-1720,112,-1080,76,-16,-23
9135,-1688,72,-1104,78,-15,-25
9140,-1704,120,-1080,78,-17,-25
9145,-1728,128,-1080,79,-19,-24
9150,-1696,104,-1088,80,-22,-25
9155,-1736,120,-1096,80,-25,-26
9160,-1712,120,-1080,81,-28,-27
9165,-1720,96,-1096,81,-29,-26
9170,-1720,112,-1088,81,-31,-26
9175,-1720,136,-1056,79,-31,-26
9180,-1720,96,-1048,78,-30,-27
9185,-1696,104,-1064,78,-27,-25
9190,-1720,136,-1072,76,-26,-25
9195,-1704,96,-1064,75,-22,-26
9200,-1704,136,-1032,73,-19,-25
9205,-1696,104,-1040,70,-16,-24
9210,-1712,104,-1072,70,-12,-23
9215,-1680,120,-1048,69,-12,-24
9220,-1712,128,-1080,70,-11,-24
9225,-1720,104,-1072,68,-9,-25
9230,-1720,104,-1056,69,-9,-23
9235,-1720,104,-1080,69,-8,-24
9240,-1728,104,-1064,68,-7,-24
9245,-1712,112,-1064,69,-7,-24
9250,-1736,104,-1064,67,-5,-22
9255,-1704,96,-1072,66,-5,-21
9260,-1728,112,-1080,67,-6,-21
9265,-1728,104,-1096,69,-6,-20
9270,-1712,104,-1080,68,-6,-21
9275,-1704,104,-1088,67,-6,-21
9280,-1720,96,-1064,66,-9,-20
9285,-1720,112,-1088,66,-9,-19
9290,-1720,104,-1064,65,-11,-19
9295,-1720,104,-1064,66,-9,-17
9300,-1688,104,-1064,65,-9,-19
9305,-1736,112,-1072,64,-9,-17
9310,-1704,112,-1056,64,-7,-17
9315,-1736,104,-1040,64,-7,-17
9320,-1672,88,-1096,64,-2,-20
9325,-1696,136,-1088,59,19,-36
9330,-1776,96,-1024,56,18,-39
9335,-1712,160,-1080,73,0,-15
9340,-1704,88,-1096,65,7,-9
9345,-1720,80,-1048,61,11,-14
9350,-1704,96,-1080,65,12,-13
9355,-1736,104,-1072,66,12,-12
9360,-1704,96,-1072,65,11,-13
9365,-1712,88,-1064,66,11,-14
9370,-1744,112,-1048,65,11,-12
9375,-1712,88,-1064,65,10,-13
9380,-1704,80,-1056,63,9,-11
9385,-1744,128,-1064,63,9,-12
9390,-1712,96,-1056,63,10,-11
9395,-1712,80,-1080,61,10,-9
9400,-1712,112,-1072,61,10,-9
9405,-1712,120,-1056,60,10,-9
9410,-1728,96,-1032,58,11,-8
9415,-1728,128,-1040,58,11,-7
9420,-1736,112,-1048,58,11,-6
9425,-1704,80,-1056,58,12,-7
9430,-1728,128,-1056,57,13,-8
9435,-1728,104,-1064,59,14,-8
9440,-1712,120,-1088,59,14,-8
9445,-1720,112,-1072,60,15,-9
9450,-1720,96,-1064,60,13,-9
9455,-1736,128,-1048,61,12,-11
9460,-1704,104,-1080,60,10,-11
9465,-1712,96,-1064,61,10,-10
9470,-1712,104,-1072,61,10,-11
9475,-1712,112,-1056,61,10,-10
9480,-1712,96,-1096,62,10,-11
9485,-1696,104,-1072,61,12,-11
9490,-1704,104,-1072,60,12,-10
9495,-1696,104,-1056,60,14,-9
9500,-1712,104,-1072,58,15,-11
9505,-1696,88,-1080,58,16,-12
9510,-1720,112,-1088,57,17,-11
9515,-1744,104,-1072,56,18,-12
9520,-1712,104,-1048,55,18,-11
9525,-1712,96,-1072,54,19,-11
9530,-1728,120,-1072,53,20,-9
9535,-1712,88,-1048,51,20,-9
9540,-1712,88,-1064,50,21,-9
9545,-1728,80,-1064,49,21,-8
9550,-1704,72,-1080,48,22,-7
9555,-1728,96,-1088,46,21,-8
9560,-1712,88,-1056,47,22,-7
9565,-1728,96,-1088,48,22,-7
9570,-1720,104,-1096,48,21,-6
9575,-1728,120,-1072,50,20,-8
9580,-1720,104,-1080,51,18,-9
9585,-1720,104,-1088,51,16,-9
9590,-1720,96,-1104,52,13,-10
9595,-1688,88,-1056,52,12,-10
9600,-1720,120,-1088,53,10,-11
9605,-1712,96,-1056,54,9,-12
9610,-1696,96,-1072,55,8,-11
9615,-1720,128,-1056,56,9,-13
9620,-1720,104,-1056,55,10,-13
9625,-1720,128,-1056,55,13,-14
9630,-1752,112,-1056,54,13,-13
9635,-1704,104,-1072,55,13,-13
9640,-1728,120,-1080,55,14,-12
9645,-1704,112,-1072,54,12,-13
9650,-1720,104,-1096,54,13,-12
9655,-1728,96,-1088,54,12,-12
9660,-1728,96,-1064,55,9,-10
9665,-1712,120,-1048,54,7,-8
9670,-1728,112,-1088,54,4,-9
9675,-1736,96,-1072,53,1,-9
9680,-1712,96,-1064,53,1,-10
9685,-1712,104,-1080,53,0,-9
9690,-1728,80,-1072,53,-1,-8
9695,-1712,128,-1064,55,0,-10
9700,-1712,96,-1064,55,1,-10
9705,-1720,112,-1080,55,1,-10
9710,-1736,128,-1048,56,0,-10
9715,-1720,120,-1080,56,-1,-11
9720,-1728,104,-1072,58,0,-11
9725,-1720,112,-1064,57,-1,-12
9730,-1736,96,-1072,58,1,-11
9735,-1728,120,-1072,57,2,-12
9740,-1696,88,-1080,59,4,-11
9745,-1712,96,-1072,57,5,-11
9750,-1704,104,-1056,58,5,-12
9755,-1728,120,-1064,58,6,-12
9760,-1712,88,-1032,59,6,-13
9765,-1728,112,-1080,59,8,-13
9770,-1704,120,-1056,58,9,-13
9775,-1736,112,-1056,60,7,-14
9780,-1704,112,-968,60,6,-12
9785,-1720,88,-1096,60,7,-13
9790,-1712,104,-1072,61,5,-15
9795,-1704,112,-1056,61,4,-15
9800,-1720,104,-1096,62,4,-12
9805,-1720,96,-1072,61,5,-13
9810,-1712,80,-1040,62,4,-12
9815,-1712,80,-1048,61,2,-13
9820,-1704,96,-1048,60,2,-10
9825,-1712,104,-1032,59,2,-11
9830,-1704,96,-1056,59,3,-8
9835,-1688,112,-1056,57,1,-8
9840,-1712,144,-1048,55,-1,-9
9845,-1728,112,-1056,53,-2,-10
9850,-1728,112,-1080,55,-1,-10
9855,-1736,88,-1040,56,1,-11
9860,-1736,96,-1072,55,2,-9
9865,-1728,88,-1080,55,2,-10
9870,-1736,120,-1056,55,3,-10
9875,-1720,80,-1088,55,3,-11
9880,-1728,96,-1064,56,5,-11
9885,-1720,96,-1056,57,3,-10
9890,-1712,64,-1048,56,3,-10
9895,-1712,96,-1040,57,4,-12
9900,-1712,120,-1080,57,4,-11
9905,-1712,88,-1072,57,5,-13
9910,-1712,96,-1056,56,5,-9
9915,-1720,120,-1064,56,5,-11
9920,-1680,96,-1056,56,7,-10
9925,-1720,104,-1048,57,7,-12
9930,-1736,120,-1048,58,8,-12
9935,-1720,104,-1040,57,7,-10
9940,-1736,96,-1072,56,6,-11
9945,-1704,112,-1040,57,7,-12
9950,-1744,104,-1072,58,8,-11
9955,-1744,112,-1088,57,7,-10
9960,-1712,96,-1048,57,5,-11
9965,-1704,136,-1064,57,5,-12
9970,-1672,88,-1048,56,4,-11
9975,-1720,112,-1080,56,5,-11
9980,-1712,96,-1064,54,5,-11
9985,-1712,104,-1048,55,5,-11
9990,-1720,104,-1088,55,5,-11
9995,-1704,72,-1064,55,5,-11
10000,-1712,88,-1072,56,6,-12
10005,-1728,96,-1056,56,5,-13
10010,-1704,104,-1064,56,6,-12
10015,-1680,96,-1112,55,8,-12
10020,-1720,120,-1048,55,8,-11
10025,-1712,120,-1048,56,10,-10
10030,-1736,96,-1056,55,11,-11
10035,-1720,72,-1072,55,11,-11
10040,-1760,104,-1064,55,12,-10
10045,-1720,80,-1080,57,12,-11
10050,-1744,104,-1072,57,13,-11
10055,-1720,88,-1056,57,12,-13
10060,-1720,104,-1048,58,13,-12
10065,-1704,72,-1048,57,12,-13
10070,-1720,120,-1080,58,11,-13
10075,-1720,80,-1080,58,9,-13
10080,-1736,96,-1048,57,8,-12
10085,-1728,104,-1080,58,7,-12
10090,-1712,96,-1040,59,6,-13
10095,-1728,72,-1080,59,4,-11
10100,-1744,112,-1064,58,4,-12
10105,-1728,80,-1056,60,2,-12
10110,-1736,120,-1040,59,1,-12
10115,-1704,96,-1080,59,2,-12
10120,-1728,104,-1080,60,0,-11
10125,-1736,104,-1072,60,1,-12
10130,-1704,96,-1064,59,1,-11
10135,-1720,112,-1064,58,1,-11
10140,-1728,88,-1056,57,1,-13
10145,-1736,112,-1048,57,0,-12
10150,-1728,88,-1064,58,1,-11
10155,-1712,88,-1024,57,1,-11
10160,-1696,96,-1032,58,2,-11
10165,-1728,96,-1056,57,4,-10
10170,-1736,88,-1064,57,2,-9
10175,-1728,104,-1048,56,5,-10
10180,-1728,112,-1056,56,6,-10
10185,-1728,128,-1056,56,5,-11
10190,-1728,112,-1064,56,6,-12
10195,-1720,112,-1064,55,8,-11
10200,-1720,80,-1056,55,7,-10
10205,-1736,88,-1040,56,6,-11
10210,-1704,112,-1056,56,6,-11
10215,-1728,104,-1080,57,7,-10
10220,-1736,112,-1072,57,8,-11
10225,-1728,120,-1064,56,7,-10
10230,-1704,80,-1064,57,8,-10
10235,-1712,104,-1056,57,8,-10
10240,-1728,80,-1048,56,8,-11
10245,-1720,104,-1048,55,8,-11
10250,-1736,104,-1000,55,8,-11
10255,-1712,88,-1048,54,9,-12
10260,-1712,96,-1032,54,11,-12
10265,-1728,96,-1040,55,12,-11
10270,-1688,152,-1024,55,14,-10
10275,-1704,88,-1064,55,14,-12
10280,-1712,96,-1064,56,15,-11
10285,-1728,88,-1040,56,16,-13
10290,-1720,120,-1072,57,17,-15
10295,-1720,104,-1064,56,18,-16
10300,-1704,96,-1032,57,17,-15
10305,-1720,104,-1064,57,15,-16
10310,-1728,104,-1088,57,15,-15
10315,-1720,96,-1080,56,13,-14
10320,-1688,96,-1080,56,11,-14
10325,-1704,80,-1080,58,11,-14
10330,-1736,104,-1024,57,10,-13
10335,-1712,80,-1064,55,11,-12
10340,-1736,104,-1024,54,12,-12
10345,-1720,120,-1048,54,15,-13
10350,-1736,112,-1064,52,16,-12
10355,-1712,96,-1072,52,17,-11
10360,-1720,104,-1064,53,18,-10
10365,-1728,112,-1040,52,18,-8
10370,-1704,72,-1040,52,17,-10
10375,-1744,104,-1072,52,17,-9
10380,-1744,104,-1072,52,15,-8
10385,-1712,88,-1064,52,13,-9
10390,-1744,96,-1088,51,11,-10
10395,-1728,104,-1040,51,10,-9
10400,-1712,104,-1056,51,11,-9
10405,-1728,104,-1080,52,10,-6
10410,-1736,88,-1080,52,10,-7
10415,-1704,88,-1064,52,8,-9
10420,-1704,104,-1048,53,10,-9
10425,-1712,72,-1072,54,10,-10
10430,-1744,72,-1080,56,10,-11
10435,-1704,104,-1080,57,7,-11
10440,-1736,96,-1048,58,7,-13
10445,-1720,136,-1056,59,6,-13
10450,-1712,80,-1064,60,7,-13
10455,-1704,88,-1056,59,5,-13
10460,-1712,96,-1064,59,7,-12
10465,-1720,104,-1064,59,6,-13
10470,-1712,112,-1064,60,7,-13
10475,-1720,88,-1064,59,6,-13
10480,-1728,80,-1056,58,5,-12
10485,-1704,80,-1064,58,6,-12
10490,-1744,144,-1112,60,6,-12
10495,-1712,88,-1048,58,7,-11
10500,-1728,112,-1072,59,5,-12
10505,-1720,88,-1080,61,5,-12
10510,-1712,120,-1096,60,5,-13
10515,-1728,88,-1048,60,5,-12
10520,-1744,128,-1048,60,3,-14
10525,-1728,104,-1064,60,5,-13
10530,-1728,80,-1072,61,4,-14
10535,-1712,56,-1088,61,5,-13
10540,-1704,80,-1056,60,3,-13
10545,-1728,112,-1056,59,3,-12
10550,-1744,104,-1080,60,2,-11
10555,-1744,80,-1032,60,3,-10
10560,-1696,104,-1040,58,3,-11
10565,-1696,88,-1072,59,3,-11
10570,-1736,96,-1056,59,1,-11
10575,-1712,128,-1064,59,1,-11
10580,-1720,120,-1088,59,0,-13
10585,-1728,80,-1072,60,-1,-12
10590,-1728,104,-1048,59,0,-13
10595,-1712,88,-1080,60,-1,-14
10600,-1728,120,-1072,61,-1,-14
10605,-1720,80,-1072,61,-1,-13
10610,-1728,80,-1040,60,-1,-13
10615,-1696,96,-1056,61,-3,-13
10620,-1720,104,-1056,60,-1,-13
10625,-1728,104,-1048,61,0,-12
10630,-1712,96,-1056,61,1,-12
10635,-1704,104,-1048,62,1,-10
10640,-1736,112,-1032,61,2,-9
10645,-1728,88,-1040,62,4,-9
10650,-1720,104,-1040,63,4,-9
10655,-1728,104,-1048,60,5,-6
10660,-1712,72,-1040,61,3,-5
10665,-1712,96,-1032,62,5,-5
10670,-1720,88,-1064,63,7,-4
10675,-1712,104,-1040,62,11,-4
10680,-1728,96,-1024,62,12,-2
10685,-1744,104,-1040,61,14,-3
10690,-1736,96,-1048,60,13,-3
10695,-1712,72,-1040,58,14,-4
10700,-1720,96,-1072,56,14,-5
10705,-1720,104,-1056,56,14,-6
10710,-1704,120,-1056,56,14,-9
10715,-1736,88,-1056,55,13,-8
10720,-1712,104,-1064,56,14,-10
10725,-1728,120,-1032,55,15,-10
10730,-1752,112,-1048,56,16,-11
10735,-1736,112,-1040,56,15,-12
10740,-1728,112,-1056,56,14,-11
10745,-1744,80,-1080,55,14,-12
10750,-1736,112,-1072,53,14,-12
10755,-1728,104,-1040,53,13,-11
10760,-1672,96,-1128,52,13,-10
10765,-1720,104,-1080,52,12,-10
10770,-1752,96,-1072,53,10,-10
10775,-1720,96,-1072,55,7,-12
10780,-1728,112,-1064,55,7,-13
10785,-1728,80,-1024,56,6,-15
10790,-1696,104,-1056,55,6,-13
10795,-1704,88,-1032,56,8,-13
10800,-1704,80,-1048,56,8,-13
10805,-1728,88,-1056,57,9,-14
10810,-1720,80,-1056,57,8,-13
10815,-1720,88,-1048,58,8,-14
10820,-1728,96,-1072,59,9,-15
10825,-1712,88,-1048,59,8,-14
10830,-1720,88,-1072,60,8,-14
10835,-1728,80,-1048,59,8,-14
10840,-1728,88,-1080,59,7,-15
10845,-1720,104,-1048,58,6,-12
10850,-1728,96,-1032,58,6,-13
10855,-1728,96,-1032,58,7,-14
10860,-1752,120,-1048,57,8,-13
10865,-1744,88,-1064,57,8,-12
10870,-1704,80,-1064,56,8,-11
10875,-1720,72,-1072,57,9,-12
10880,-1720,80,-1064,57,9,-12
10885,-1728,104,-1048,57,11,-13
10890,-1696,88,-1024,55,12,-13
10895,-1752,96,-1032,56,13,-11
10900,-1712,112,-1064,57,12,-12
10905,-1720,104,-1064,54,14,-12
10910,-1728,96,-1056,56,13,-13
10915,-1712,96,-1064,56,13,-12
10920,-1736,104,-1080,54,12,-12
10925,-1744,96,-1088,54,12,-13
10930,-1728,104,-1056,54,12,-13
10935,-1720,104,-1048,55,14,-11
10940,-1728,104,-1064,54,11,-11
10945,-1720,72,-1032,54,11,-12
10950,-1720,72,-1032,55,12,-11
10955,-1720,112,-1048,53,11,-12
10960,-1728,96,-1088,54,11,-12
10965,-1728,88,-1048,54,10,-11
10970,-1720,112,-1080,54,10,-11
10975,-1712,104,-1080,54,9,-12
10980,-1832,136,-1032,54,11,-11
10985,-1736,112,-1072,54,11,-11
10990,-1728,88,-1032,55,10,-12
10995,-1720,120,-1056,54,13,-11
11000,-1720,96,-1056,53,12,-11
11005,-1720,120,-1048,54,12,-12
11010,-1696,72,-1040,55,11,-12
11015,-1752,128,-1072,55,11,-11
11020,-1728,88,-1064,56,12,-13
11025,-1720,104,-1032,56,12,-12
11030,-1720,120,-1048,56,12,-12
11035,-1728,104,-1048,56,11,-15
11040,-1736,112,-1048,56,11,-13
11045,-1712,88,-1032,54,14,-14
11050,-1720,80,-1032,54,14,-14
11055,-1712,88,-1032,55,14,-15
11060,-1728,104,-1040,55,15,-12
11065,-1696,96,-1072,55,16,-13
11070,-1736,104,-1048,54,15,-14
11075,-1720,96,-1072,54,18,-13
11080,-1720,72,-1064,54,18,-13
11085,-1736,96,-1064,54,18,-13
11090,-1752,80,-1048,55,18,-14
11095,-1704,96,-1088,54,18,-12
11100,-1704,80,-1064,53,18,-13
11105,-1712,112,-1072,54,19,-14
11110,-1752,96,-1056,53,19,-13
11115,-1712,96,-1056,54,19,-15
11120,-1720,96,-1040,54,18,-14
11125,-1712,96,-1056,54,18,-12
11130,-1712,104,-1040,55,17,-14
11135,-1752,120,-1064,54,15,-13
11140,-1744,88,-1064,55,13,-12
11145,-1704,88,-1040,55,12,-14
11150,-1728,88,-1040,54,13,-12
11155,-1728,104,-1056,53,13,-12
11160,-1704,72,-1056,54,13,-13
11165,-1736,96,-1048,53,15,-12
11170,-1720,96,-1056,52,17,-12
11175,-1696,72,-1040,51,20,-12
11180,-1696,96,-1088,51,21,-11
11185,-1712,104,-1040,51,21,-10
11190,-1744,96,-1072,51,22,-9
11195,-1720,80,-1096,52,23,-11
11200,-1728,112,-1040,51,20,-10
11205,-1720,88,-1056,51,19,-9
11210,-1720,80,-1056,51,18,-8
11215,-1728,104,-1048,50,15,-7
11220,-1736,96,-1064,50,13,-7
11225,-1736,88,-1056,50,12,-6
11230,-1736,96,-1072,51,10,-5
11235,-1712,112,-1056,51,10,-6
11240,-1736,120,-1056,52,9,-9
11245,-1736,96,-1056,52,8,-8
11250,-1712,88,-1072,52,8,-8
11255,-1728,88,-1072,53,10,-10
11260,-1704,80,-1056,55,9,-9
11265,-1728,96,-1064,54,7,-9
11270,-1720,88,-1056,55,10,-10
11275,-1720,120,-1064,57,9,-10
11280,-1720,88,-1072,56,11,-9
11285,-1712,96,-1056,56,10,-8
11290,-1736,88,-1064,57,11,-11
11295,-1712,88,-1096,58,11,-10
11300,-1736,80,-1064,57,11,-10
11305,-1728,112,-1056,57,11,-11
11310,-1720,104,-1040,58,9,-12
11315,-1736,96,-1064,57,9,-11
11320,-1712,88,-1040,58,8,-13
11325,-1760,80,-1072,59,7,-13
11330,-1728,88,-1072,59,6,-13
11335,-1720,80,-1064,59,6,-14
11340,-1736,72,-1064,59,6,-14
11345,-1720,80,-1064,59,5,-12
11350,-1696,80,-1048,58,3,-11
11355,-1744,104,-1056,58,4,-13
11360,-1696,88,-1056,58,2,-12
11365,-1720,96,-1032,57,1,-12
11370,-1720,96,-1072,57,1,-10
11375,-1744,112,-1032,56,1,-10
11380,-1712,88,-1056,58,1,-10
11385,-1720,88,-1040,57,2,-12
11390,-1744,104,-1040,57,1,-11
11395,-1728,104,-1048,56,1,-10
11400,-1728,104,-1072,57,1,-10
11405,-1720,104,-1040,57,0,-9
11410,-1728,104,-1048,55,0,-9
11415,-1712,88,-1064,57,0,-10
11420,-1728,104,-1080,56,0,-10
11425,-1744,120,-1088,57,2,-11
11430,-1712,80,-1048,56,2,-10
11435,-1752,96,-1064,56,2,-10
11440,-1736,80,-1072,57,2,-10
11445,-1736,80,-1048,55,2,-11
11450,-1760,112,-1056,57,2,-11
11455,-1720,80,-1048,56,3,-11
11460,-1752,72,-1040,55,4,-11
11465,-1728,96,-1040,55,6,-11
11470,-1744,80,-1048,54,6,-12
11475,-1720,104,-1048,54,7,-12
11480,-1720,120,-1064,56,6,-11
11485,-1712,96,-1048,54,8,-11
11490,-1744,128,-1072,54,9,-10
11495,-1704,96,-1040,54,10,-10
11500,-1712,80,-1048,53,11,-11
11505,-1696,88,-1056,53,9,-10
11510,-1720,112,-1032,53,10,-8
11515,-1704,112,-1072,52,10,-9
11520,-1704,88,-1048,52,11,-11
11525,-1712,80,-1040,51,12,-11
11530,-1736,88,-1040,51,13,-9
11535,-1736,64,-1064,51,14,-9
11540,-1736,88,-1056,51,14,-11
11545,-1728,112,-1040,51,15,-11
11550,-1736,88,-1032,51,15,-11
11555,-1728,96,-1040,52,17,-12
11560,-1728,80,-1064,52,16,-11
11565,-1720,72,-1080,53,16,-12
11570,-1736,96,-1024,55,17,-12
11575,-1736,88,-1048,55,16,-12
11580,-1728,96,-1048,55,15,-13
11585,-1736,88,-1048,55,14,-12
11590,-1720,120,-1064,55,14,-12
11595,-1744,136,-1072,55,15,-12
11600,-1720,88,-1064,55,15,-12
11605,-1736,88,-1056,54,14,-12
11610,-1728,80,-1040,54,13,-12
11615,-1712,88,-1056,54,12,-11
11620,-1728,96,-1048,54,11,-11
11625,-1736,88,-1048,54,11,-10
11630,-1728,104,-1048,53,11,-10
11635,-1704,88,-984,53,11,-12
11640,-1728,88,-1048,53,11,-10
11645,-1696,88,-1064,54,12,-11
11650,-1736,120,-1072,55,12,-11
11655,-1704,96,-1040,53,12,-10
11660,-1728,88,-1032,53,12,-10
11665,-1744,136,-1040,54,11,-11
11670,-1728,80,-1056,55,12,-12
11675,-1736,80,-1056,55,12,-13
11680,-1736,88,-1040,56,11,-13
11685,-1688,104,-1072,55,10,-12
11690,-1744,96,-1040,55,11,-12
11695,-1720,88,-1056,55,11,-13
11700,-1728,88,-1056,57,11,-14
11705,-1736,96,-1032,55,11,-13
11710,-1712,64,-1048,55,12,-13
11715,-1736,104,-1080,55,13,-13
11720,-1736,96,-1048,55,11,-12
11725,-1712,64,-1032,54,11,-13
11730,-1720,112,-1056,54,11,-14
11735,-1728,72,-1080,54,12,-13
11740,-1704,80,-1064,54,11,-13
11745,-1736,112,-1056,53,13,-13
11750,-1744,104,-1048,52,12,-12
11755,-1728,112,-1064,53,12,-14
11760,-1728,120,-1040,53,13,-14
11765,-1712,96,-1064,52,12,-14
11770,-1712,96,-1032,53,14,-14
11775,-1712,72,-1056,53,15,-12
11780,-1712,88,-1072,54,15,-12
11785,-1736,64,-1080,54,15,-13
11790,-1728,96,-1048,54,13,-12
11795,-1728,72,-1040,53,14,-13
11800,-1736,80,-1048,53,14,-13
11805,-1704,96,-1048,54,15,-11
11810,-1720,80,-1048,53,14,-12
11815,-1736,104,-1056,53,15,-13
11820,-1736,80,-1048,54,16,-14
11825,-1744,112,-1048,52,16,-12
11830,-1728,88,-1064,53,15,-13
11835,-1728,56,-1080,53,15,-13
11840,-1736,96,-1056,54,16,-12
11845,-1744,96,-1040,53,16,-13
11850,-1736,72,-1048,53,15,-12
11855,-1736,88,-1040,54,16,-13
11860,-1728,88,-1056,53,17,-14
11865,-1728,88,-1064,52,16,-15
11870,-1736,104,-1056,52,17,-12
11875,-1728,96,-1072,53,16,-13
11880,-1728,112,-1072,53,16,-13
11885,-1736,112,-1032,53,16,-13
11890,-1736,120,-1072,53,17,-12
11895,-1736,96,-1048,53,18,-13
11900,-1728,96,-1056,53,18,-14
11905,-1704,176,-992,53,20,-12
11910,-1704,104,-1048,52,19,-14
11915,-1736,72,-1040,52,19,-13
11920,-1720,88,-1048,52,21,-13
11925,-1712,80,-1056,52,21,-13
11930,-1736,88,-1064,52,20,-13
11935,-1736,120,-1056,54,20,-14
11940,-1752,120,-1040,51,22,-14
11945,-1728,72,-1040,52,23,-13
11950,-1736,120,-1064,51,22,-13
11955,-1712,96,-1056,51,24,-13
11960,-1744,96,-1048,51,23,-14
11965,-1712,80,-1048,52,24,-13
11970,-1736,104,-1056,52,24,-12
11975,-1736,88,-1064,51,25,-12
11980,-1712,72,-1072,52,25,-13
11985,-1736,96,-1056,52,23,-14
11990,-1728,104,-1056,52,22,-13
11995,-1744,104,-1056,51,19,-14
12000,-1728,80,-1064,52,18,-14
12005,-1704,88,-1056,53,18,-13
12010,-1736,80,-1048,54,17,-12
12015,-1712,72,-1048,53,15,-12
12020,-1720,80,-1040,54,15,-12
12025,-1744,112,-1040,53,16,-13
12030,-1744,112,-1040,53,17,-12
12035,-1696,88,-1032,51,19,-13
12040,-1696,64,-1032,50,24,-13
12045,-1744,88,-1056,48,26,-14
12050,-1720,64,-1064,49,26,-11
12055,-1728,72,-1072,49,26,-8
12060,-1752,80,-1040,47,26,-8
12065,-1704,88,-1064,49,26,-9
12070,-1728,112,-1056,50,26,-9
12075,-1728,88,-1064,48,24,-8
12080,-1736,72,-1048,47,22,-7
12085,-1752,120,-1088,47,21,-7
12090,-1752,104,-1064,47,19,-7
12095,-1720,104,-1056,48,15,-7
12100,-1736,80,-1072,49,14,-7
12105,-1720,48,-1056,49,11,-6
12110,-1728,88,-1048,50,10,-7
12115,-1744,88,-1024,53,10,-10
12120,-1704,96,-1048,53,10,-10
12125,-1736,48,-992,53,9,-9
12130,-1736,88,-1056,54,10,-11
12135,-1704,88,-1064,54,9,-9
12140,-1720,104,-1048,54,10,-12
12145,-1712,104,-1040,55,10,-12
12150,-1720,80,-1080,56,10,-12
12155,-1728,80,-1048,55,10,-12
12160,-1736,96,-1048,54,10,-11
12165,-1712,96,-1056,55,10,-11
12170,-1728,88,-1056,55,11,-13
12175,-1736,104,-1032,55,11,-13
12180,-1712,88,-1064,55,10,-13
12185,-1728,88,-1064,56,11,-14
12190,-1728,88,-1064,56,10,-14
12195,-1712,96,-1048,57,10,-14
12200,-1736,96,-1040,57,11,-14
12205,-1720,96,-1064,57,10,-16
12210,-1712,80,-1048,57,11,-16
12215,-1736,112,-1064,58,10,-15
12220,-1728,96,-1040,57,11,-15
12225,-1712,80,-1056,56,10,-16
12230,-1728,88,-1048,56,10,-15
12235,-1720,96,-1072,56,11,-15
12240,-1712,96,-1064,54,11,-16
12245,-1728,88,-1048,54,12,-13
12250,-1736,96,-1072,53,13,-15
12255,-1744,104,-1056,54,11,-14
12260,-1712,96,-1064,53,11,-14
12265,-1728,96,-1064,53,11,-14
12270,-1736,112,-1064,53,12,-14
12275,-1736,104,-1056,52,13,-13
12280,-1728,104,-1048,51,13,-13
12285,-1720,80,-1048,52,12,-14
12290,-1736,96,-1056,52,12,-13
12295,-1720,88,-1080,52,12,-12
12300,-1728,80,-1080,53,12,-12
12305,-1728,80,-1040,52,12,-12
12310,-1728,112,-1072,52,12,-13
12315,-1704,96,-1064,52,12,-14
12320,-1720,96,-1080,52,13,-13
12325,-1712,80,-1040,53,15,-15
12330,-1736,104,-1056,53,14,-12
12335,-1728,104,-1056,52,14,-13
12340,-1712,80,-1040,52,15,-13
12345,-1704,88,-1072,52,17,-13
12350,-1720,96,-1056,50,18,-14
12355,-1720,112,-1056,51,18,-13
12360,-1720,104,-1032,50,19,-13
12365,-1744,88,-1072,50,20,-13
12370,-1704,80,-1040,52,19,-15
12375,-1728,88,-1080,50,20,-14
12380,-1696,80,-1056,50,19,-12
12385,-1720,88,-1064,51,19,-13
12390,-1704,96,-1032,51,20,-13
12395,-1696,96,-1048,49,20,-13
12400,-1720,80,-1072,51,20,-13
12405,-1744,104,-1064,50,21,-14
12410,-1736,96,-1040,50,21,-13
12415,-1728,96,-1008,50,21,-14
12420,-1720,112,-1072,50,21,-14
12425,-1712,64,-1064,50,22,-14
12430,-1728,112,-1032,51,21,-15
12435,-1752,104,-1064,51,22,-14
12440,-1728,96,-1048,52,21,-13
12445,-1720,88,-1032,53,22,-16
12450,-1720,112,-1080,53,20,-13
12455,-1728,88,-1064,53,19,-12
12460,-1728,112,-1048,55,18,-14
12465,-1728,96,-1072,54,16,-14
12470,-1736,104,-1072,54,15,-13
12475,-1728,96,-1072,54,14,-15
12480,-1736,88,-1064,55,13,-13
12485,-1720,88,-1080,54,14,-14
12490,-1712,80,-1072,56,14,-12
12495,-1712,88,-1056,55,13,-14
12500,-1752,104,-1056,57,13,-14
12505,-1712,96,-1088,55,12,-15
12510,-1728,96,-1024,55,10,-14
12515,-1720,96,-1072,56,9,-14
12520,-1720,88,-1056,56,9,-13
12525,-1704,88,-1048,56,8,-12
12530,-1736,96,-1072,54,8,-12
12535,-1704,80,-1056,55,7,-12
12540,-1744,96,-1064,56,6,-11
12545,-1736,72,-1064,55,5,-13
12550,-1736,88,-1056,55,6,-11
12555,-1736,112,-1072,56,5,-11
12560,-1720,96,-1088,56,7,-13
12565,-1728,104,-1048,56,6,-13
12570,-1744,88,-1064,56,5,-13
12575,-1712,88,-1064,56,5,-12
12580,-1720,88,-1080,55,5,-12
12585,-1736,88,-1056,55,6,-11
12590,-1728,96,-1064,57,6,-12
12595,-1728,80,-1048,56,6,-11
12600,-1728,88,-1056,55,5,-11
12605,-1736,96,-1040,56,6,-11
12610,-1720,80,-1040,55,7,-12
12615,-1720,72,-1072,55,7,-10
12620,-1728,56,-1032,54,9,-9
12625,-1704,104,-1064,53,9,-9
12630,-1712,80,-1072,52,11,-9
12635,-1712,112,-1088,52,11,-8
12640,-1704,56,-1048,53,10,-8
12645,-1720,72,-1072,53,10,-7
12650,-1736,88,-1096,53,10,-9
12655,-1752,64,-1064,52,10,-9
12660,-1736,96,-1064,53,9,-9
12665,-1720,104,-1088,53,10,-9
12670,-1720,112,-1072,53,9,-9
12675,-1720,80,-1080,52,10,-10
12680,-1712,72,-1032,54,10,-9
12685,-1704,96,-1048,53,8,-10
12690,-1744,120,-1072,52,9,-10
12695,-1712,72,-1080,53,9,-10
12700,-1720,80,-1040,53,9,-9
12705,-1696,64,-1072,52,10,-9
12710,-1712,96,-1048,54,11,-11
12715,-1736,112,-1040,54,11,-11
12720,-1720,80,-1048,54,11,-9
12725,-1736,112,-1048,53,12,-10
12730,-1736,96,-1064,53,12,-11
12735,-1728,88,-1072,54,12,-12
12740,-1720,96,-1080,53,13,-11
12745,-1720,96,-1088,53,13,-11
12750,-1704,96,-1072,54,14,-11
12755,-1736,112,-1064,52,13,-12
12760,-1704,80,-1032,53,12,-11
12765,-1728,88,-1064,54,12,-13
12770,-1744,104,-1040,54,12,-14
12775,-1712,88,-1056,54,12,-12
12780,-1744,96,-1048,55,14,-13
12785,-1728,80,-1056,54,13,-13
12790,-1720,80,-1072,55,14,-13
12795,-1720,96,-1032,54,14,-11
12800,-1720,80,-1088,54,14,-13
12805,-1712,88,-1072,54,16,-11
12810,-1720,96,-1056,55,15,-12
12815,-1728,96,-1080,55,15,-12
12820,-1712,88,-1064,55,15,-12
12825,-1720,96,-1040,54,14,-11
12830,-1720,96,-1032,53,14,-13
12835,-1752,96,-1072,54,15,-12
12840,-1720,96,-1056,54,15,-11
12845,-1704,104,-1080,54,15,-12
12850,-1736,88,-1048,54,13,-12
12855,-1712,96,-1072,54,13,-10
12860,-1736,72,-1072,54,12,-11
12865,-1736,104,-1040,53,11,-11
12870,-1720,96,-1024,52,10,-10
12875,-1736,88,-1072,52,11,-10
12880,-1712,56,-1056,53,10,-11
12885,-1712,96,-1040,53,11,-10
12890,-1744,88,-1056,53,12,-12
12895,-1688,72,-1024,52,15,-11
12900,-1728,88,-1032,51,16,-12
12905,-1744,88,-1064,49,20,-11
12910,-1720,104,-1056,49,20,-12
12915,-1720,80,-1080,50,22,-9
12920,-1736,96,-1072,51,22,-8
12925,-1744,104,-1072,50,21,-8
12930,-1744,88,-1064,51,19,-9
12935,-1728,96,-1064,52,18,-9
12940,-1736,104,-1104,52,16,-9
12945,-1704,112,-1056,51,14,-8
12950,-1736,80,-1072,51,11,-7
12955,-1720,96,-1112,52,9,-7
12960,-1720,72,-1064,51,8,-6
12965,-1744,96,-1040,51,7,-6
12970,-1760,96,-1048,52,6,-7
12975,-1720,88,-1048,53,7,-8
12980,-1728,96,-1064,54,7,-7
12985,-1712,96,-1080,55,7,-9
12990,-1736,80,-1032,56,6,-8
12995,-1728,88,-1048,57,6,-10
13000,-1728,80,-1048,56,7,-9
13005,-1736,112,-1064,56,7,-10
13010,-1704,96,-1024,56,8,-11
13015,-1720,96,-1048,57,8,-11
13020,-1744,104,-1040,56,9,-11
13025,-1736,88,-1048,56,8,-11
13030,-1744,88,-1040,57,9,-10
13035,-1712,80,-1056,56,9,-10
13040,-1712,88,-1056,56,9,-11
13045,-1720,96,-1048,56,9,-11
13050,-1736,144,-1080,57,8,-13
13055,-1712,88,-1056,58,8,-12
13060,-1712,88,-1048,58,8,-12
13065,-1712,88,-1056,58,5,-11
13070,-1720,104,-1096,58,5,-12
13075,-1736,80,-1056,58,3,-12
13080,-1704,80,-1056,57,3,-12
13085,-1720,104,-1080,58,2,-12
13090,-1720,88,-1040,57,1,-12
13095,-1752,96,-1064,57,1,-12
13100,-1720,96,-1056,57,1,-10
13105,-1712,104,-1072,56,1,-14
13110,-1728,80,-1032,55,2,-11
13115,-1728,104,-1064,56,2,-11
13120,-1736,72,-1048,56,1,-11
13125,-1728,104,-1048,56,1,-11
13130,-1736,80,-1064,56,0,-11
13135,-1712,104,-1056,56,1,-10
13140,-1736,96,-1064,55,0,-11
13145,-1728,104,-1072,56,0,-10
13150,-1720,96,-1064,57,-1,-12
13155,-1728,104,-1056,55,0,-11
13160,-1704,64,-1080,56,0,-10
13165,-1744,88,-1040,56,0,-10
13170,-1736,104,-1080,57,-1,-11
13175,-1704,80,-1064,55,-1,-10
13180,-1728,96,-1072,55,-1,-12
13185,-1720,104,-1056,56,0,-9
13190,-1704,80,-1040,55,0,-10
13195,-1736,88,-1048,55,2,-9
13200,-1720,64,-1072,55,4,-10
13205,-1712,96,-1040,54,4,-10
13210,-1712,104,-1064,55,4,-10
13215,-1728,96,-1048,54,6,-11
13220,-1712,96,-1064,54,7,-9
13225,-1712,80,-1064,54,8,-10
13230,-1736,96,-1064,53,8,-6
13235,-1736,88,-1056,52,9,-9
13240,-1728,96,-1080,52,10,-9
13245,-1728,96,-1048,53,10,-7
13250,-1736,112,-1064,51,10,-8
13255,-1728,80,-1064,51,11,-10
13260,-1720,120,-1072,53,13,-11
13265,-1728,88,-1056,53,13,-11
13270,-1720,72,-1048,52,13,-12
13275,-1712,88,-1064,54,13,-11
13280,-1736,112,-1048,54,14,-11
13285,-1728,88,-1048,54,14,-12
13290,-1728,88,-1072,53,13,-12
13295,-1728,88,-1072,54,13,-12
13300,-1720,104,-1056,55,12,-12
13305,-1736,112,-1064,55,13,-11
13310,-1752,96,-1088,55,13,-10
13315,-1728,96,-1072,55,12,-13
13320,-1784,72,-1128,56,12,-13
13325,-1712,96,-1040,56,12,-13
13330,-1736,104,-1064,55,10,-12
13335,-1736,104,-1048,54,10,-11
13340,-1728,80,-1056,55,11,-11
13345,-1712,80,-1056,56,11,-13
13350,-1728,104,-1072,56,11,-11
13355,-1704,96,-1064,56,10,-11
13360,-1704,80,-1064,56,11,-12
13365,-1736,104,-1048,55,12,-11
13370,-1712,88,-1088,54,11,-10
13375,-1728,88,-1048,54,12,-11
13380,-1720,96,-1056,54,11,-12
13385,-1720,96,-1056,53,12,-11
13390,-1712,80,-1048,54,11,-11
13395,-1720,112,-1080,53,10,-10
13400,-1728,80,-1056,54,11,-10
13405,-1728,96,-1088,53,9,-11
13410,-1712,88,-1072,53,9,-10
13415,-1728,80,-1080,54,10,-10
13420,-1712,96,-1048,54,10,-9
13425,-1744,104,-1040,53,10,-11
13430,-1736,96,-1064,54,11,-12
13435,-1744,112,-1080,54,9,-12
13440,-1744,104,-1056,54,11,-12
13445,-1736,88,-1064,54,10,-11
13450,-1720,72,-1048,55,10,-12
13455,-1728,88,-1048,54,12,-12
13460,-1704,96,-1048,55,10,-11
13465,-1720,88,-1064,54,10,-13
13470,-1728,104,-1056,55,9,-9
13475,-1728,88,-1048,56,10,-10
13480,-1720,80,-1056,54,10,-11
13485,-1712,80,-1048,54,9,-12
13490,-1720,88,-1080,54,9,-11
13495,-1728,64,-1056,53,10,-10
13500,-1744,104,-1072,53,11,-10
13505,-1736,104,-1080,53,12,-11
13510,-1728,104,-1072,53,11,-11
13515,-1736,96,-1040,53,13,-11
13520,-1728,88,-1048,53,11,-10
13525,-1720,104,-1032,54,13,-11
13530,-1728,80,-1048,54,12,-11
13535,-1728,88,-1064,53,13,-11
13540,-1704,96,-1128,53,13,-13
13545,-1744,112,-1064,54,13,-13
13550,-1712,104,-1032,55,15,-13
13555,-1712,88,-1040,56,14,-12
13560,-1696,88,-1080,56,15,-11
13565,-1728,88,-1088,55,15,-13
13570,-1720,104,-1072,55,14,-13
13575,-1728,96,-1040,54,13,-13
13580,-1736,80,-1040,55,13,-13
13585,-1720,96,-1040,54,14,-14
13590,-1744,112,-1056,52,13,-13
13595,-1712,88,-1072,54,14,-14
13600,-1712,88,-1072,55,14,-13
13605,-1744,96,-1064,53,13,-14
13610,-1720,104,-1056,53,13,-14
13615,-1728,104,-1056,54,13,-13
13620,-1728,112,-1080,54,12,-14
13625,-1728,104,-1056,55,11,-13
13630,-1744,88,-1072,56,10,-14
13635,-1704,128,-1032,54,9,-14
13640,-1728,72,-1040,54,10,-14
13645,-1728,96,-1056,54,10,-14
13650,-1712,88,-1064,54,11,-12
13655,-1752,64,-1072,55,12,-12
13660,-1712,72,-1040,54,14,-12
13665,-1736,112,-1048,53,14,-15
13670,-1696,80,-1048,54,15,-15
13675,-1712,80,-1048,55,14,-15
13680,-1720,80,-1072,54,16,-15
13685,-1736,80,-1072,56,14,-14
13690,-1696,64,-1032,55,15,-16
13695,-1720,80,-1048,54,16,-15
13700,-1744,104,-1056,55,16,-14
13705,-1712,112,-1040,55,16,-14
13710,-1712,80,-1040,56,15,-14
13715,-1744,88,-1072,55,16,-15
13720,-1720,96,-1040,56,16,-14
13725,-1712,88,-1088,56,18,-12
13730,-1720,72,-1048,54,17,-13
13735,-1720,88,-1048,55,17,-13
13740,-1728,64,-1072,54,17,-13
13745,-1744,64,-1048,54,18,-13
13750,-1704,72,-1048,55,18,-14
13755,-1744,112,-1048,54,18,-14
13760,-1712,88,-1040,53,20,-13
13765,-1736,80,-1088,53,20,-13
13770,-1704,72,-1072,54,21,-12
13775,-1736,72,-1056,52,21,-13
13780,-1728,88,-1064,53,21,-13
13785,-1744,88,-1056,54,19,-13
13790,-1696,88,-1056,53,18,-12
13795,-1736,96,-1056,52,18,-11
13800,-1720,96,-1056,52,15,-11
13805,-1728,104,-1048,54,15,-12
13810,-1712,48,-1040,53,14,-10
13815,-1728,88,-1064,53,15,-11
13820,-1720,88,-1064,52,15,-10
13825,-1736,64,-1056,51,16,-12
13830,-1744,72,-1024,50,17,-10
13835,-1704,64,-1048,50,20,-12
13840,-1712,88,-1040,49,21,-11
13845,-1736,96,-1048,48,22,-9
13850,-1712,72,-1056,49,24,-8
13855,-1728,48,-1056,48,23,-8
13860,-1728,72,-1096,50,20,-7
13865,-1768,88,-1080,49,20,-8
13870,-1728,96,-1072,50,18,-6
13875,-1736,80,-1064,50,16,-6
13880,-1712,80,-1056,50,14,-6
13885,-1720,88,-1056,49,11,-6
13890,-1744,112,-1056,49,10,-6
13895,-1720,80,-1048,50,8,-6
13900,-1712,72,-1064,50,8,-7
13905,-1720,72,-1080,51,8,-7
13910,-1712,72,-1048,53,8,-8
13915,-1728,88,-1064,53,7,-9
13920,-1720,88,-1056,55,8,-11
13925,-1728,104,-1080,56,7,-12
13930,-1736,112,-1048,57,8,-13
13935,-1728,96,-1072,57,8,-12
13940,-1728,104,-1056,57,8,-11
13945,-1736,88,-1056,58,8,-12
13950,-1736,56,-1064,57,9,-13
13955,-1704,88,-1048,57,10,-13
13960,-1720,112,-1048,57,9,-13
13965,-1704,88,-1032,56,10,-12
13970,-1720,96,-1048,56,10,-11
13975,-1728,248,-1064,56,10,-12
13980,-1720,88,-1080,56,10,-13
13985,-1744,88,-1080,58,9,-13
13990,-1712,112,-1056,56,10,-14
13995,-1744,112,-1080,57,8,-13
14000,-1728,56,-1048,58,10,-13
14005,-1712,48,-1064,58,9,-12
14010,-1728,88,-1072,58,9,-13
14015,-1736,88,-1064,58,8,-14
14020,-1736,88,-1032,58,6,-12
14025,-1704,64,-1040,58,7,-12
14030,-1712,80,-1048,58,7,-12
14035,-1728,88,-1040,56,6,-12
14040,-1728,72,-1072,56,4,-12
14045,-1736,88,-1032,57,5,-14
14050,-1712,96,-1048,56,6,-14
14055,-1728,104,-1080,57,6,-13
14060,-1720,88,-1088,57,5,-14
14065,-1704,88,-1056,57,3,-12
14070,-1752,88,-1048,57,3,-14
14075,-1704,48,-1064,57,3,-13
14080,-1712,112,-1040,56,3,-12
14085,-1712,88,-1056,56,2,-10
14090,-1720,104,-1048,57,3,-11
14095,-1728,104,-1064,57,4,-11
14100,-1744,88,-1056,56,5,-13
14105,-1728,104,-1056,56,5,-12
14110,-1736,112,-1064,57,7,-13
14115,-1704,96,-1040,57,5,-12
14120,-1728,64,-1056,57,6,-13
14125,-1720,88,-1040,56,7,-11
14130,-1720,96,-1064,56,8,-12
14135,-1696,64,-1032,55,8,-12
14140,-1712,72,-1048,54,9,-11
14145,-1728,104,-1056,53,9,-10
14150,-1728,104,-1032,53,11,-10
14155,-1696,72,-1064,53,10,-11
14160,-1712,80,-1056,53,13,-11
14165,-1696,88,-1064,51,12,-11
14170,-1720,88,-1048,52,13,-11
14175,-1728,88,-1040,51,13,-9
14180,-1728,88,-1048,51,12,-8
14185,-1736,104,-1072,52,13,-9
14190,-1704,72,-1040,52,12,-10
14195,-1736,200,-976,53,12,-10
14200,-1720,80,-1032,52,13,-11
14205,-1704,96,-1048,52,14,-11
14210,-1712,48,-1072,52,14,-9
14215,-1736,96,-1032,52,14,-10
14220,-1728,80,-1064,52,14,-11
14225,-1720,104,-1040,53,13,-10
14230,-1744,96,-1048,53,13,-11
14235,-1720,64,-1048,53,13,-11
14240,-1744,96,-1040,53,12,-10
14245,-1680,112,-1024,53,12,-11
14250,-1736,96,-1072,53,13,-11
14255,-1728,80,-1056,54,12,-10
14260,-1752,96,-1056,54,12,-11
14265,-1712,80,-1080,54,12,-11
14270,-1736,96,-1032,55,12,-11
14275,-1728,80,-1048,55,12,-11
14280,-1744,72,-1072,54,13,-12
14285,-1728,88,-1040,55,11,-13
14290,-1720,80,-1064,55,12,-13
14295,-1720,80,-1040,54,11,-12
14300,-1736,88,-1040,55,11,-13
14305,-1736,88,-1056,55,10,-11
14310,-1752,80,-1064,55,11,-11
14315,-1728,96,-1056,54,11,-11
14320,-1696,80,-1072,55,10,-13
14325,-1728,96,-1024,55,11,-12
14330,-1704,88,-1064,54,9,-12
14335,-1736,96,-1088,55,11,-14
14340,-1744,88,-1056,53,11,-12
14345,-1712,72,-1072,54,12,-11
14350,-1736,72,-1048,53,12,-12
14355,-1728,104,-1088,53,12,-13
14360,-1720,104,-1048,55,12,-13
14365,-1736,112,-1064,54,12,-13
14370,-1744,104,-1048,54,11,-12
14375,-1712,64,-1048,54,11,-11
14380,-1736,88,-1064,55,10,-13
14385,-1720,96,-1088,56,11,-12
14390,-1744,96,-1032,56,11,-13
14395,-1712,64,-1040,54,12,-14
14400,-1712,72,-1048,56,12,-13
14405,-1712,88,-1056,54,13,-14
14410,-1712,64,-1072,54,13,-13
14415,-1728,72,-1048,56,14,-15
14420,-1728,120,-1056,54,13,-13
14425,-1744,104,-1032,53,13,-11
14430,-1720,72,-1072,53,12,-12
14435,-1728,88,-1032,53,14,-12
14440,-1736,80,-1032,54,15,-13
14445,-1728,80,-1064,54,16,-12
14450,-1704,72,-1040,53,16,-12
14455,-1720,56,-1064,52,15,-12
14460,-1752,88,-1040,52,14,-12
14465,-1744,72,-1088,52,15,-12
14470,-1720,80,-1064,52,13,-11
14475,-1704,64,-1040,53,13,-13
14480,-1736,72,-1072,53,14,-13
14485,-1720,88,-1040,54,13,-12
14490,-1720,88,-1056,54,14,-14
14495,-1712,80,-1064,54,14,-12
14500,-1728,80,-1064,53,15,-12
14505,-1728,80,-1024,54,14,-14
14510,-1736,72,-1048,52,15,-13
14515,-1744,88,-1048,53,13,-13
14520,-1720,80,-1064,52,13,-12
14525,-1712,80,-1072,53,13,-13
14530,-1744,96,-1048,52,13,-12
14535,-1720,96,-1064,53,12,-13
14540,-1720,72,-1056,53,12,-12
14545,-1704,80,-1056,53,13,-12
14550,-1728,88,-1040,53,13,-14
14555,-1720,104,-1040,53,14,-14
14560,-1736,80,-1048,53,14,-14
14565,-1728,88,-1064,53,13,-13
14570,-1728,72,-1072,53,15,-14
14575,-1712,96,-1040,54,14,-12
14580,-1704,88,-1064,52,14,-12
14585,-1728,56,-1056,54,15,-12
14590,-1720,72,-1072,54,15,-12
14595,-1704,88,-1056,53,14,-13
14600,-1720,80,-1080,54,16,-12
14605,-1720,64,-1056,54,15,-12
14610,-1720,80,-1056,54,15,-13
14615,-1704,64,-1048,54,14,-12
14620,-1736,88,-1080,54,15,-13
14625,-1720,88,-1064,53,16,-13
14630,-1712,80,-1064,54,17,-13
14635,-1744,112,-1040,53,17,-14
14640,-1712,72,-1080,54,16,-14
14645,-1704,104,-1048,53,17,-14
14650,-1720,104,-1080,54,17,-13
14655,-1744,96,-1080,54,18,-13
14660,-1696,80,-1048,53,17,-11
14665,-1744,112,-1040,52,17,-14
14670,-1728,80,-1040,53,18,-15
14675,-1728,80,-1040,54,17,-14
14680,-1720,88,-1040,53,19,-15
14685,-1808,-48,-1040,54,19,-14
14690,-1712,88,-1056,53,19,-13
14695,-1728,88,-1088,52,19,-13
14700,-1720,72,-1080,52,19,-12
14705,-1752,80,-1080,53,18,-13
14710,-1752,96,-1064,53,18,-13
14715,-1744,80,-1088,53,18,-12
14720,-1648,64,-952,53,17,-12
14725,-1736,88,-1032,54,16,-11
14730,-1736,64,-1080,52,15,-11
14735,-1728,104,-1064,53,14,-12
14740,-1704,96,-1064,53,13,-12
14745,-1744,72,-1072,52,12,-11
14750,-1720,72,-1048,53,11,-12
14755,-1728,80,-1040,52,13,-13
14760,-1744,80,-1064,52,14,-12
14765,-1704,80,-1040,52,14,-12
14770,-1720,88,-1048,51,16,-13
14775,-1720,96,-1064,51,17,-11
14780,-1704,64,-1040,50,20,-9
14785,-1728,64,-1048,50,21,-10
14790,-1720,80,-1056,48,21,-9
14795,-1720,80,-1040,49,21,-9
14800,-1712,96,-1048,50,21,-9
14805,-1728,80,-1048,49,19,-7
14810,-1720,80,-1072,50,18,-8
14815,-1720,72,-1040,50,16,-9
14820,-1720,72,-1072,50,14,-6
14825,-1720,80,-1104,49,12,-6
14830,-1736,96,-1056,50,11,-6
14835,-1728,80,-1048,49,10,-6
14840,-1720,104,-1064,49,9,-6
14845,-1728,112,-1072,50,8,-9
14850,-1728,88,-1064,52,8,-10
14855,-1728,112,-1040,52,9,-9
14860,-1712,88,-1040,55,9,-9
14865,-1744,112,-1056,55,10,-9
14870,-1728,96,-1040,56,8,-12
14875,-1712,104,-1064,57,9,-11
14880,-1744,128,-1048,57,9,-11
14885,-1712,96,-1040,57,10,-11
14890,-1736,80,-1064,57,10,-11
14895,-1704,80,-1072,56,11,-12
14900,-1712,96,-1024,55,12,-11
14905,-1720,88,-1040,56,12,-12
14910,-1736,88,-1064,55,11,-10
14915,-1720,88,-1048,55,12,-12
14920,-1736,96,-1064,57,9,-11
14925,-1736,80,-1064,57,10,-12
14930,-1728,88,-1056,56,8,-11
14935,-1720,88,-1080,57,8,-11
14940,-1704,88,-1064,56,7,-10
14945,-1744,88,-1040,57,7,-12
14950,-1704,72,-1048,56,7,-11
14955,-1736,80,-1032,56,5,-12
14960,-1760,96,-1072,56,5,-10
14965,-1720,96,-1088,56,6,-12
14970,-1752,88,-1056,56,4,-12
14975,-1696,72,-1056,57,3,-11
14980,-1704,64,-1064,56,2,-10
14985,-1728,104,-1048,56,1,-10
14990,-1744,120,-1064,56,1,-10
14995,-1704,72,-1040,57,0,-10
