timestamp,accel_x,accel_y,accel_z,gyro_x,gyro_y,gyro_z
0,-80,-2064,-288,-20,64,13
5,-112,-2064,-296,-21,63,10
10,-112,-2048,-328,-20,62,8
15,-72,-2080,-304,-20,62,5
20,-88,-2056,-328,-19,64,4
25,-192,-2008,-384,-19,64,1
30,-88,-2064,-336,-17,62,-1
35,-96,-2048,-344,-18,63,-2
40,-112,-2064,-336,-16,65,-4
45,-96,-2064,-304,-16,66,-2
50,-104,-2080,-304,-15,68,-1
55,-112,-2056,-328,-16,68,-1
60,-104,-2064,-344,-16,68,0
65,-104,-2056,-296,-15,68,0
70,-88,-2072,-344,-14,67,0
75,-200,-2096,-304,-13,66,0
80,-72,-2064,-304,-13,68,0
85,-88,-2056,-304,-13,69,1
90,-112,-2072,-312,-13,70,0
95,-88,-2064,-304,-13,71,-2
100,-88,-2064,-320,-11,71,-2
105,-104,-2056,-312,-11,72,-2
110,-136,-2048,-336,-8,73,-5
115,-120,-2080,-296,-7,72,-6
120,-112,-2072,-312,-6,73,-5
125,-104,-2056,-312,-5,75,-2
130,-104,-2056,-328,-1,74,-3
135,-88,-2072,-312,1,75,-3
140,-88,-2080,-320,2,74,-1
145,-88,-2096,-296,5,75,0
150,-112,-2048,-312,7,74,2
155,-96,-2064,-336,8,74,2
160,-120,-2072,-312,9,74,2
165,-88,-2080,-336,10,75,2
170,-88,-2064,-312,10,76,0
175,-80,-2072,-304,9,75,-1
180,-104,-2048,-288,10,76,-3
185,-112,-2080,-360,10,76,-4
190,-88,-2064,-304,8,75,-5
195,-104,-2080,-304,6,75,-6
200,-96,-2064,-312,5,74,-6
205,-88,-2072,-304,1,75,-7
210,-96,-2064,-312,-2,73,-7
215,-104,-2080,-328,-4,73,-5
220,-112,-2064,-304,-7,73,-5
225,-136,-2056,-304,-8,72,-5
230,-96,-2072,-320,-11,71,-2
235,-88,-2072,-296,-12,70,-2
240,-88,-2072,-304,-11,69,-3
245,-120,-2064,-336,-11,69,-2
250,-112,-2072,-304,-10,67,-2
255,-104,-2056,-304,-9,67,-1
260,-112,-2064,-296,-7,67,-1
265,-104,-2064,-312,-7,68,-1
270,-112,-2072,-296,-7,66,-1
275,-88,-2064,-312,-8,66,-1
280,-104,-2072,-296,-7,67,-1
285,-104,-2080,-312,-7,66,1
290,-112,-2064,-296,-6,67,1
295,-104,-2048,-336,-6,68,0
300,-96,-2072,-312,-5,67,1
305,-88,-2072,-312,-3,68,1
310,-104,-2056,-304,-2,67,0
315,-96,-2056,-328,-2,67,-1
320,-88,-2072,-336,-2,67,0
325,-96,-2072,-328,-1,67,1
330,-96,-2064,-328,-2,69,-2
335,-72,-2072,-304,-3,69,-2
340,-96,-2064,-288,-3,69,-1
345,-88,-2048,-320,-4,69,-3
350,-80,-2056,-304,-5,68,-2
355,-96,-2048,-304,-6,69,-1
360,-80,-2056,-264,-6,68,-1
365,-80,-2088,-296,-7,67,-1
370,-104,-2064,-336,-8,67,-3
375,-112,-2056,-296,-8,66,0
380,-88,-2064,-248,-10,67,0
385,-112,-2072,-304,-10,66,1
390,-120,-2048,-304,-10,65,1
395,-104,-2064,-288,-12,66,0
400,-104,-2072,-312,-10,66,1
405,-88,-2080,-296,-10,67,1
410,-96,-2096,-312,-9,67,-1
415,-112,-2072,-296,-10,66,0
420,-96,-2064,-296,-10,66,-1
425,-96,-2072,-312,-11,66,-1
430,-80,-2096,-296,-11,66,-1
435,-104,-2056,-280,-11,66,-2
440,-104,-2072,-280,-11,68,-2
445,-72,-2088,-280,-10,68,-2
450,-104,-2072,-296,-10,68,0
455,-104,-2080,-288,-11,67,0
460,-88,-2064,-304,-10,68,-1
465,-112,-2056,-304,-8,67,0
470,-96,-2072,-304,-8,68,1
475,-128,-2072,-320,-8,68,1
480,-88,-2056,-328,-9,70,1
485,-88,-2072,-248,-11,70,1
490,-112,-2072,-320,-12,69,1
495,-96,-2072,-304,-13,69,2
500,-96,-2064,-312,-14,69,3
505,-128,-2072,-304,-16,70,3
510,-88,-2080,-272,-17,69,1
515,-112,-2056,-296,-19,70,2
520,-104,-2056,-280,-19,69,0
525,-112,-2072,-312,-20,69,0
530,-112,-2064,-312,-22,70,0
535,-120,-2064,-320,-22,70,-1
540,-120,-2064,-304,-21,71,-2
545,-88,-2064,-336,-20,71,0
550,-120,-2056,-320,-20,72,0
555,-96,-2080,-296,-19,71,-1
560,-96,-2080,-328,-18,72,0
565,-96,-2080,-320,-16,73,-1
570,-80,-2080,-288,-13,71,0
575,-112,-2056,-320,-13,72,2
580,-80,-2080,-312,-11,70,2
585,-96,-2072,-320,-7,70,2
590,-88,-2072,-344,-5,69,2
595,-104,-2072,-336,-2,68,3
600,-96,-2080,-304,0,69,2
605,-96,-2072,-328,1,69,1
610,-96,-2048,-360,3,68,2
615,-112,-2048,-328,2,66,0
620,-64,-2080,-336,0,67,0
625,-72,-2048,-304,0,69,0
630,-96,-2056,-320,-1,69,-2
635,-80,-2064,-304,-3,69,-4
640,-112,-2072,-304,-2,68,-7
645,-104,-2056,-312,-2,68,-7
650,-104,-2080,-320,-3,67,-8
655,-72,-2088,-312,-2,66,-8
660,-104,-2064,-320,-2,67,-7
665,-104,-2072,-296,-3,65,-6
670,-88,-2088,-312,-6,66,-7
675,-104,-2072,-304,-7,67,-6
680,-104,-2072,-304,-6,67,-4
685,-96,-2064,-320,-7,68,-3
690,-88,-2056,-328,-8,67,-2
695,-96,-2064,-304,-8,66,-4
700,-104,-2048,-312,-11,64,-6
705,-104,-2048,-288,-14,64,-7
710,-112,-2056,-296,-17,63,-8
715,-112,-2056,-312,-19,63,-9
720,-96,-2056,-320,-22,61,-10
725,-96,-2056,-320,-21,60,-9
730,-96,-2080,-312,-19,59,-9
735,-88,-2072,-288,-19,58,-8
740,-96,-2072,-296,-19,58,-6
745,-112,-2064,-312,-19,55,-6
750,-80,-2088,-320,-21,55,-4
755,-112,-2080,-312,-22,53,-3
760,-112,-2064,-336,-24,52,-4
765,-104,-2080,-280,-24,53,-4
770,-88,-2064,-328,-24,54,-3
775,-88,-2072,-304,-23,57,-4
780,-104,-2072,-312,-21,60,-6
785,-88,-2072,-328,-21,62,-8
790,-72,-2064,-288,-19,65,-9
795,-104,-2056,-328,-16,67,-9
800,-88,-2072,-328,-14,70,-9
805,-96,-2072,-352,-11,71,-10
810,-112,-2072,-296,-10,74,-11
815,-112,-2064,-328,-8,74,-9
820,-96,-2064,-320,-8,74,-9
825,-80,-2056,-296,-4,76,-8
830,-96,-2096,-312,-2,77,-7
835,-80,-2080,-328,-1,78,-5
840,-112,-2072,-328,0,79,-4
845,-88,-2056,-344,2,78,-1
850,-88,-2096,-304,3,78,0
855,-112,-2072,-288,4,77,2
860,-112,-2072,-296,6,76,1
865,-120,-2064,-320,6,76,2
870,-104,-2064,-312,5,77,2
875,-104,-2056,-304,5,76,3
880,-112,-2048,-296,4,74,1
885,-112,-2064,-328,3,73,0
890,-120,-2056,-328,1,72,0
895,-96,-2064,-296,-2,71,1
900,-104,-2056,-296,-3,71,-1
905,-112,-2056,-304,-5,69,-2
910,-104,-2080,-288,-6,67,-1
915,-80,-2080,-304,-5,67,-1
920,-112,-2080,-312,-3,68,-1
925,-80,-2080,-312,-1,68,-1
930,-88,-2064,-296,1,68,0
935,-80,-2080,-352,5,68,-1
940,-104,-2064,-320,7,68,0
945,-88,-2088,-296,10,70,-1
950,-96,-2064,-320,11,70,0
955,-96,-2072,-288,12,69,-1
960,-96,-2088,-328,15,69,1
965,-88,-2064,-272,15,69,1
970,-96,-2080,-296,14,70,0
975,-88,-2064,-304,14,68,2
980,-96,-2048,-304,14,66,4
985,-96,-2064,-296,13,65,4
990,-112,-2048,-296,10,62,5
995,-112,-2048,-304,10,60,8
1000,-128,-2048,-280,7,56,9
1005,-120,-2048,-280,-1,52,11
1010,-88,-2072,-296,-8,48,11
1015,-112,-2056,-272,-14,43,12
1020,-136,-2056,-336,-22,40,9
1025,-120,-2056,-304,-26,37,7
1030,-112,-2080,-304,-32,36,4
1035,-64,-2136,-296,-35,35,0
1040,-104,-2072,-288,-37,38,-5
1045,-112,-2096,-296,-37,39,-8
1050,-104,-2080,-312,-37,41,-12
1055,-88,-2096,-312,-36,44,-14
1060,-96,-2072,-320,-33,47,-17
1065,-112,-2064,-304,-30,50,-20
1070,-80,-2096,-280,-25,54,-21
1075,-96,-2096,-304,-22,58,-19
1080,-88,-2072,-272,-19,61,-18
1085,-96,-2072,-320,-16,65,-16
1090,-96,-2072,-288,-14,68,-13
1095,-112,-2080,-296,-12,70,-13
1100,-96,-2080,-272,-11,72,-11
1105,-80,-2072,-320,-11,75,-9
1110,-120,-2080,-296,-10,75,-6
1115,-120,-2072,-288,-10,76,-6
1120,-112,-2064,-304,-9,76,-6
1125,-88,-2072,-320,-10,79,-7
1130,-136,-2040,-288,-9,78,-6
1135,-136,-2064,-296,-10,79,-8
1140,-136,-2088,-232,-10,80,-6
1145,-112,-2072,-296,-10,81,-6
1150,-80,-2064,-288,-12,81,-5
1155,-128,-2056,-304,-13,80,-4
1160,-112,-2048,-280,-15,79,-4
1165,-112,-2048,-304,-19,78,-1
1170,-104,-2088,-344,-22,77,0
1175,-104,-2064,-328,-24,74,0
1180,-112,-2064,-296,-28,74,0
1185,-96,-2056,-320,-29,72,0
1190,-80,-2056,-320,-31,71,0
1195,-104,-2056,-296,-31,71,-2
1200,-88,-2064,-312,-29,72,-3
1205,-96,-2064,-304,-29,72,-3
1210,-104,-2072,-304,-27,73,-3
1215,-112,-2064,-312,-28,73,-5
1220,-96,-2072,-296,-24,73,-6
1225,-88,-2088,-296,-23,73,-5
1230,-112,-2072,-304,-21,73,-5
1235,-104,-2064,-296,-20,74,-5
1240,-104,-2072,-312,-18,72,-5
1245,-104,-2072,-296,-18,72,-5
1250,-40,-2064,-304,-16,70,-2
1255,-88,-2064,-304,-16,68,-2
1260,-80,-2072,-312,-15,66,-1
1265,-88,-2064,-336,-14,67,-2
1270,-80,-2072,-336,-15,67,-2
1275,-120,-2056,-328,-13,69,-1
1280,-96,-2064,-312,-12,67,0
1285,-112,-2080,-312,-12,68,-1
1290,-104,-2056,-296,-12,69,-2
1295,-112,-2072,-328,-13,69,-2
1300,-104,-2064,-312,-12,68,0
1305,-120,-2072,-328,-12,70,-3
1310,-96,-2080,-312,-13,68,-2
1315,-112,-2056,-320,-12,68,0
1320,-104,-2064,-296,-12,69,0
1325,-120,-2056,-336,-14,68,0
1330,-112,-2072,-328,-14,68,1
1335,-112,-2080,-312,-14,67,1
1340,-104,-2072,-312,-15,69,2
1345,-96,-2048,-336,-14,69,2
1350,-144,-2048,-272,-15,68,4
1355,-104,-2080,-304,-14,69,3
1360,-104,-2064,-312,-13,70,4
1365,-112,-2080,-312,-12,70,3
1370,-88,-2088,-312,-9,71,4
1375,-112,-2064,-304,-5,70,4
1380,-112,-2088,-296,-4,69,3
1385,-112,-2072,-312,-1,69,4
1390,-96,-2064,-304,1,69,4
1395,-104,-2048,-304,1,68,3
1400,-80,-2064,-312,-1,68,3
1405,-88,-2064,-296,-4,68,2
1410,-104,-2064,-312,-8,68,2
1415,-88,-2048,-320,-9,68,0
1420,-104,-2056,-296,-10,66,1
1425,-112,-2040,-296,-10,65,0
1430,-112,-2064,-320,-10,62,-1
1435,-96,-2064,-320,-10,61,-2
1440,-120,-2064,-336,-10,61,-3
1445,-96,-2096,-328,-9,61,-3
1450,-120,-2072,-320,-9,62,-3
1455,-104,-2080,-320,-7,63,-3
1460,-104,-2072,-312,-7,64,-4
1465,-40,-2056,-232,-5,65,-2
1470,-120,-2048,-336,-5,67,-3
1475,-80,-2048,-320,-4,69,-3
1480,-104,-2040,-328,-4,68,-5
1485,-104,-2056,-312,-6,66,-5
1490,-96,-2048,-264,-11,64,-7
1495,-112,-2072,-280,-14,65,-10
1500,-136,-2048,-280,-16,64,-10
1505,-96,-2072,-256,-19,63,-11
1510,-112,-2072,-264,-19,62,-11
1515,-120,-2064,-312,-19,62,-12
1520,-120,-2080,-312,-20,61,-13
1525,-112,-2056,-288,-20,62,-12
1530,-128,-2080,-304,-20,64,-12
1535,-104,-2088,-288,-18,66,-12
1540,-96,-2088,-304,-16,67,-13
1545,-112,-2072,-312,-14,71,-14
1550,-112,-2072,-304,-11,72,-12
1555,-120,-2080,-296,-9,73,-11
1560,-104,-2088,-264,-8,73,-10
1565,-120,-2064,-312,-5,74,-11
1570,-104,-2056,-328,-2,74,-10
1575,-112,-2072,-304,-4,73,-10
1580,-104,-2056,-288,-5,72,-9
1585,-120,-2056,-296,-3,71,-8
1590,-88,-2080,-288,-4,70,-7
1595,-80,-2088,-296,-5,70,-8
1600,-96,-2064,-328,-5,70,-9
1605,-80,-2072,-312,-7,71,-11
1610,-88,-2072,-304,-8,68,-11
1615,-80,-2056,-328,-8,70,-12
1620,-72,-2064,-328,-6,71,-12
1625,-96,-2056,-296,-5,71,-14
1630,-104,-2056,-312,-3,71,-15
1635,-80,-2072,-352,-1,72,-15
1640,-88,-2080,-336,0,73,-15
1645,-80,-2064,-312,3,75,-14
1650,-88,-2072,-304,5,74,-13
1655,-80,-2072,-296,7,74,-10
1660,-80,-2064,-304,8,73,-11
1665,-72,-2064,-280,6,71,-7
1670,-72,-2072,-328,2,70,-7
1675,-128,-2112,-376,3,70,-6
1680,-72,-2064,-296,1,68,-5
1685,-112,-2064,-312,-2,65,-5
1690,-72,-2064,-296,-3,64,-5
1695,-88,-2064,-304,-5,62,-6
1700,-104,-2080,-304,-5,63,-7
1705,-104,-2072,-304,-4,63,-8
1710,-88,-2080,-296,-3,64,-9
1715,-104,-2056,-304,-1,65,-9
1720,-112,-2064,-296,1,66,-10
1725,-120,-2096,-288,0,66,-10
1730,-88,-2064,-312,1,68,-9
1735,-96,-2088,-312,3,69,-9
1740,-96,-2080,-312,4,68,-8
1745,-112,-2080,-304,5,69,-8
1750,-88,-2056,-280,6,68,-7
1755,-96,-2064,-288,5,70,-8
1760,-112,-2072,-312,6,70,-8
1765,-104,-2088,-288,5,70,-8
1770,-120,-2064,-296,6,69,-8
1775,-104,-2064,-296,5,71,-9
1780,-112,-2080,-304,4,71,-10
1785,-112,-2056,-328,5,71,-11
1790,-128,-2072,-304,4,71,-11
1795,-96,-2080,-272,1,72,-13
1800,-104,-2080,-304,2,72,-12
1805,-120,-2072,-296,1,71,-13
1810,-120,-2056,-312,1,72,-12
1815,-104,-2080,-328,0,71,-10
1820,-112,-2072,-256,-2,70,-10
1825,-80,-2088,-320,-3,69,-8
1830,-96,-2072,-280,-4,67,-8
1835,-120,-2072,-296,-6,68,-8
1840,-104,-2048,-280,-6,69,-8
1845,-88,-2064,-304,-7,70,-8
1850,-96,-2080,-296,-7,68,-9
1855,-88,-2064,-328,-8,67,-9
1860,-96,-2064,-312,-9,68,-9
1865,-112,-2072,-320,-10,67,-9
1870,-80,-2080,-320,-10,67,-10
1875,-88,-2072,-288,-10,67,-9
1880,-80,-2104,-288,-10,67,-10
1885,-96,-2056,-304,-9,67,-11
1890,-80,-2080,-328,-8,67,-9
1895,-80,-2088,-296,-7,68,-9
1900,-96,-2064,-304,-5,68,-9
1905,-72,-2072,-312,-4,70,-8
1910,-112,-2072,-288,-2,70,-8
1915,-88,-2064,-304,-1,70,-8
1920,-104,-2064,-304,2,72,-7
1925,-64,-2064,-280,2,71,-8
1930,-80,-2064,-288,2,71,-7
1935,-72,-2056,-304,3,70,-7
1940,-96,-2048,-336,3,70,-8
1945,-88,-2064,-304,2,71,-7
1950,-80,-2080,-320,1,70,-9
1955,-96,-2048,-320,0,69,-9
1960,-104,-2056,-248,-1,69,-9
1965,-80,-2056,-296,-2,68,-9
1970,-96,-2056,-288,-3,67,-8
1975,-72,-2072,-312,-4,68,-7
1980,-104,-2072,-320,-4,67,-7
1985,-80,-2064,-304,-3,67,-7
1990,-96,-2064,-296,-5,68,-5
1995,-120,-2048,-312,-5,68,-5
2000,-72,-2080,-304,-4,69,-4
2005,-88,-2080,-304,-4,70,-3
2010,-88,-2072,-304,-3,68,-4
2015,-96,-2080,-296,-1,70,-5
2020,-120,-2064,-296,-1,69,-4
2025,-120,-2064,-328,-1,70,-2
2030,-104,-2056,-272,-1,70,-2
2035,-88,-2064,-288,0,69,-1
2040,-88,-2064,-296,0,70,-1
2045,-104,-2064,-304,-1,70,-2
2050,-80,-2056,-296,-2,69,-2
2055,-80,-2056,-304,-4,69,-3
2060,-72,-2072,-304,-4,69,-2
2065,-80,-2096,-320,-3,70,-2
2070,-96,-2080,-304,-3,69,-2
2075,-104,-2088,-280,-3,69,-2
2080,-96,-2072,-296,-2,69,-4
2085,-88,-2080,-296,-1,71,-4
2090,-120,-2080,-280,0,70,-3
2095,-104,-2064,-280,0,70,-3
2100,-96,-2064,-280,1,70,-4
2105,-152,-2072,-288,1,70,-4
2110,-104,-2072,-288,1,71,-4
2115,-104,-2088,-296,1,72,-4
2120,-88,-2072,-320,1,72,-5
2125,-80,-2080,-280,1,71,-4
2130,-112,-2056,-296,1,71,-3
2135,-72,-2072,-272,1,71,-4
2140,-96,-2072,-288,3,69,-4
2145,-64,-2072,-312,3,69,-3
2150,-80,-2096,-264,6,70,-4
2155,-112,-2088,-296,6,69,-4
2160,-80,-2064,-312,5,69,-4
2165,-80,-2064,-320,3,70,-4
2170,-72,-2072,-280,3,71,-4
2175,-80,-2072,-296,3,70,-4
2180,-112,-2072,-288,3,72,-3
2185,-88,-2072,-272,1,71,-5
2190,-120,-2080,-272,-1,71,-5
2195,-80,-2064,-288,0,71,-5
2200,-80,-2080,-288,-1,71,-4
2205,-88,-2064,-264,-1,71,-5
2210,-96,-2072,-288,-1,71,-3
2215,-88,-2072,-264,-1,71,-4
2220,-64,-2080,-280,-2,70,-5
2225,-88,-2072,-320,-2,69,-3
2230,-88,-2056,-272,-4,68,-2
2235,-96,-2080,-296,-5,67,-4
2240,-80,-2056,-296,-5,68,-3
2245,-56,-2088,-280,-5,68,-4
2250,-96,-2080,-288,-3,67,-5
2255,-80,-2080,-272,-1,67,-4
2260,-104,-2056,-280,2,66,-4
2265,-80,-2088,-280,4,66,-3
2270,-96,-2072,-312,5,67,-3
2275,-64,-2088,-296,7,68,-3
2280,-80,-2096,-272,8,69,-3
2285,-120,-2088,-312,9,70,-1
2290,-72,-2096,-304,8,72,-1
2295,-88,-2056,-280,8,72,0
2300,-88,-2056,-288,9,72,1
2305,-112,-2048,-320,6,71,2
2310,-104,-2064,-288,2,71,0
2315,-48,-2056,-248,-3,70,-1
2320,-88,-2056,-296,-7,70,-2
2325,-80,-2064,-296,-12,71,-4
2330,-112,-2048,-280,-15,68,-5
2335,-104,-2080,-296,-16,70,-6
2340,-80,-2080,-272,-18,67,-5
2345,-88,-2080,-288,-18,67,-6
2350,-88,-2080,-272,-18,68,-6
2355,-96,-2088,-272,-16,69,-5
2360,-104,-2064,-264,-14,70,-2
2365,-96,-2088,-272,-12,69,-1
2370,-72,-2080,-280,-11,70,0
2375,-88,-2072,-304,-10,72,-1
2380,-88,-2072,-288,-8,74,0
2385,-80,-2064,-296,-6,75,4
2390,-56,-2096,-272,-4,75,3
2395,-96,-2080,-272,-2,75,3
2400,-88,-2048,-296,-4,75,3
2405,-88,-2040,-312,-3,76,4
2410,-96,-2056,-264,-4,74,3
2415,-112,-2080,-296,-6,74,4
2420,-88,-2056,-264,-7,74,1
2425,-104,-2064,-264,-8,72,3
2430,-80,-2072,-312,-10,72,3
2435,-80,-2080,-304,-11,72,2
2440,-88,-2064,-312,-11,71,3
2445,-88,-2056,-288,-13,71,4
2450,-80,-2072,-264,-14,70,2
2455,-104,-2056,-288,-16,70,3
2460,-96,-2072,-264,-16,69,4
2465,-104,-2064,-256,-17,69,5
2470,-96,-2064,-320,-17,69,5
2475,-112,-2048,-304,-17,69,5
2480,-80,-2096,-320,-17,69,6
2485,-88,-2072,-296,-18,68,7
2490,-88,-2064,-280,-18,69,8
2495,-80,-2080,-288,-17,69,8
2500,-88,-2072,-280,-17,69,9
2505,-96,-2064,-296,-17,69,8
2510,-104,-2056,-288,-16,69,8
2515,-88,-2080,-280,-15,69,8
2520,-96,-2072,-272,-13,68,8
2525,-88,-2088,-272,-10,70,10
2530,-80,-2120,-272,-9,70,11
2535,-72,-2072,-288,-6,69,12
2540,-80,-2080,-296,-4,70,14
2545,-88,-2072,-328,-3,71,15
2550,-112,-2112,-296,0,71,16
2555,-96,-2088,-312,2,72,18
2560,-88,-2080,-272,5,72,18
2565,-72,-2080,-256,8,72,18
2570,-96,-2080,-288,9,72,19
2575,-88,-2056,-304,12,74,19
2580,-96,-2040,-304,13,75,18
2585,-104,-2064,-296,14,75,18
2590,-96,-2072,-264,15,75,17
2595,-112,-2056,-288,15,75,15
2600,-104,-2072,-256,15,76,15
2605,-104,-2080,-280,15,77,16
2610,-96,-2080,-280,14,75,15
2615,-96,-2080,-272,15,75,16
2620,-104,-2056,-272,15,75,16
2625,-96,-2064,-280,14,73,17
2630,-88,-2072,-296,14,72,18
2635,-104,-2040,-280,13,71,17
2640,-112,-2080,-296,12,71,17
2645,-80,-2088,-328,12,69,18
2650,-96,-2064,-272,13,69,19
2655,-120,-2056,-288,13,67,17
2660,-96,-2072,-272,14,67,17
2665,-128,-2080,-312,15,64,15
2670,-104,-2072,-272,16,63,14
2675,-88,-2096,-280,19,63,11
2680,-96,-2080,-304,21,62,11
2685,-104,-2088,-280,23,62,9
2690,-112,-2064,-288,24,61,8
2695,-104,-2080,-280,27,60,10
2700,-96,-2056,-272,29,59,9
2705,-104,-2072,-272,28,59,7
2710,-96,-2072,-288,28,59,7
2715,-96,-2064,-296,27,58,6
2720,-104,-2080,-280,27,58,5
2725,-104,-2064,-296,24,58,7
2730,-120,-2072,-256,21,58,7
2735,-104,-2064,-248,18,57,6
2740,-136,-2064,-272,15,58,6
2745,-112,-2128,-312,12,58,5
2750,-112,-2056,-280,10,59,6
2755,-96,-2064,-256,5,58,5
2760,-112,-2056,-264,2,58,3
2765,-104,-2080,-272,-2,58,4
2770,-136,-2048,-296,-7,58,5
2775,-120,-2064,-272,-12,60,4
2780,-112,-2080,-256,-13,60,4
2785,-112,-2048,-256,-16,61,4
2790,-120,-2088,-312,-18,62,4
2795,-120,-2056,-248,-20,62,4
2800,-80,-2096,-280,-21,62,3
2805,-128,-2072,-280,-23,62,3
2810,-120,-2088,-296,-23,64,4
2815,-120,-2080,-280,-24,66,3
2820,-128,-2064,-280,-25,67,3
2825,-112,-2064,-264,-23,70,3
2830,-104,-2096,-264,-23,69,2
2835,-104,-2080,-248,-22,70,2
2840,-104,-2088,-256,-23,70,3
2845,-112,-2096,-280,-23,71,5
2850,-88,-2088,-264,-23,72,4
2855,-104,-2088,-288,-23,71,3
2860,-104,-2080,-288,-23,72,4
2865,-112,-2072,-272,-24,72,3
2870,-112,-2056,-288,-25,73,3
2875,-96,-2080,-272,-24,73,2
2880,-88,-2080,-288,-25,74,2
2885,-136,-2104,-288,-24,72,2
2890,-120,-2056,-288,-24,74,1
2895,-120,-2056,-280,-24,75,0
2900,-80,-2056,-256,-24,74,-2
2905,-120,-2080,-288,-25,74,-2
2910,-112,-2072,-288,-26,73,-2
2915,-112,-2072,-288,-27,72,-4
2920,-104,-2080,-288,-29,73,-3
2925,-96,-2072,-288,-30,72,-3
2930,-120,-2072,-272,-31,71,-4
2935,-120,-2064,-296,-35,72,-5
2940,-104,-2056,-272,-37,71,-4
2945,-104,-2064,-296,-39,71,-5
2950,-104,-2072,-296,-40,70,-4
2955,-144,-2088,-288,-42,70,-4
2960,-120,-2064,-280,-42,69,-3
2965,-96,-2072,-288,-41,68,-4
2970,-120,-2080,-296,-39,66,-5
2975,-104,-2072,-304,-36,68,-4
2980,-104,-2080,-312,-32,68,-3
2985,-96,-2056,-272,-27,69,-3
2990,-112,-2088,-304,-21,70,-1
2995,-96,-2080,-264,-18,69,0
3000,-136,-2056,-288,-17,69,0
3005,-88,-2064,-304,-16,70,3
3010,-104,-2072,-304,-17,70,1
3015,-80,-2056,-304,-20,71,0
3020,-104,-2064,-280,-21,70,-1
3025,-96,-2072,-288,-22,69,-2
3030,-104,-2064,-264,-20,68,-4
3035,-104,-2072,-288,-20,67,-6
3040,-120,-2064,-264,-21,67,-6
3045,-120,-2064,-288,-19,67,-7
3050,-112,-2072,-272,-21,67,-6
3055,-104,-2080,-280,-22,66,-5
3060,-120,-2072,-288,-23,65,-5
3065,-120,-2088,-288,-24,67,-3
3070,-96,-2072,-288,-26,67,0
3075,-128,-2064,-272,-28,67,0
3080,-88,-2072,-288,-29,68,2
3085,-96,-2064,-288,-30,69,1
3090,-104,-2064,-312,-32,68,1
3095,-112,-2048,-280,-36,67,-1
3100,-104,-2064,-280,-40,65,-3
3105,-120,-2056,-312,-41,65,-4
3110,-128,-2064,-280,-44,63,-5
3115,-104,-2064,-280,-43,63,-5
3120,-104,-2096,-264,-42,62,-6
3125,-104,-2088,-288,-38,63,-7
3130,-104,-2072,-304,-37,63,-6
3135,-104,-2080,-296,-35,62,-5
3140,-112,-2080,-304,-33,64,-3
3145,-96,-2096,-272,-32,64,-3
3150,-88,-2064,-296,-31,64,-2
3155,-112,-2064,-320,-30,67,0
3160,-96,-2072,-280,-30,67,1
3165,-88,-2080,-296,-32,68,1
3170,-56,-2056,-320,-35,70,2
3175,-104,-2048,-280,-42,71,1
3180,-104,-2064,-272,-46,72,1
3185,-112,-2056,-288,-52,73,1
3190,-64,-2064,-280,-59,73,1
3195,-112,-2056,-296,-62,75,0
3200,-88,-2056,-264,-66,76,0
3205,-88,-2080,-256,-71,76,-1
3210,-112,-2080,-296,-73,78,-2
3215,-120,-2064,-288,-74,82,-2
3220,-104,-2080,-320,-76,84,-2
3225,-96,-2088,-256,-77,85,-2
3230,-88,-2072,-304,-76,86,-1
3235,-128,-2056,-296,-77,88,0
3240,-104,-2064,-288,-76,89,2
3245,-96,-2056,-272,-77,92,4
3250,-96,-2088,-296,-79,94,5
3255,-128,-2064,-296,-84,94,7
3260,-88,-2064,-296,-90,95,10
3265,-80,-2056,-296,-97,97,14
3270,-72,-2056,-312,-108,99,15
3275,-48,-2072,-288,-122,98,13
3280,-88,-2056,-272,-138,96,14
3285,-96,-2048,-304,-151,95,15
3290,-104,-2048,-272,-160,94,17
3295,-128,-2072,-296,-162,94,20
3300,-152,-2072,-288,-164,94,21
3305,-128,-2072,-304,-168,92,23
3310,-120,-2088,-304,-170,91,20
3315,-120,-2072,-336,-168,92,18
3320,-112,-2064,-336,-160,96,13
3325,-128,-2072,-320,-154,99,10
3330,-144,-2088,-304,-149,100,8
3335,-152,-2064,-384,-144,101,5
3340,-144,-2096,-328,-141,100,4
3345,-136,-2088,-344,-137,100,2
3350,-96,-2088,-352,-133,101,0
3355,-96,-2088,-360,-130,100,-2
3360,-96,-2088,-352,-127,102,-4
3365,-88,-2080,-352,-125,102,-6
3370,-96,-2048,-336,-121,100,-8
3375,-120,-2048,-376,-118,99,-8
3380,-88,-2072,-320,-116,99,-9
3385,-112,-2040,-344,-115,98,-9
3390,-88,-2040,-344,-115,99,-9
3395,-80,-2056,-360,-116,98,-8
3400,-104,-2064,-320,-115,95,-7
3405,-64,-2080,-320,-115,94,-9
3410,-88,-2048,-336,-112,93,-9
3415,-72,-2072,-328,-109,92,-8
3420,-72,-2072,-336,-108,89,-8
3425,-88,-2056,-368,-105,88,-6
3430,-88,-2080,-352,-105,85,-4
3435,-72,-2088,-360,-107,82,-3
3440,-56,-2096,-368,-110,79,-6
3445,-32,-2096,-368,-111,79,-11
3450,-32,-2088,-376,-113,81,-20
3455,-64,-2080,-376,-110,86,-29
3460,-80,-2072,-376,-108,90,-36
3465,-80,-2064,-360,-103,94,-40
3470,-64,-2088,-360,-99,99,-41
3475,-104,-2064,-352,-98,104,-40
3480,-88,-2064,-360,-95,110,-37
3485,-112,-2048,-392,-96,113,-33
3490,-112,-2040,-344,-97,118,-28
3495,-80,-2048,-360,-97,120,-21
3500,-104,-2016,-360,-99,123,-17
3505,-128,-2024,-352,-101,125,-14
3510,-136,-2016,-344,-104,127,-12
3515,-144,-2000,-376,-109,126,-9
3520,-144,-2040,-360,-112,126,-10
3525,-152,-2056,-368,-117,124,-10
3530,-168,-2032,-360,-124,123,-10
3535,-168,-2048,-384,-132,121,-10
3540,-184,-2048,-384,-138,116,-12
3545,-192,-2024,-376,-143,113,-14
3550,-168,-2016,-408,-145,109,-15
3555,-176,-2048,-408,-150,108,-17
3560,-160,-2032,-384,-154,104,-17
3565,-184,-2024,-416,-160,101,-17
3570,-176,-2032,-400,-165,97,-17
3575,-176,-2048,-400,-170,94,-14
3580,-168,-2008,-432,-173,89,-11
3585,-144,-2000,-424,-176,85,-12
3590,-160,-2016,-408,-179,82,-12
3595,-160,-2016,-408,-182,79,-15
3600,-144,-2032,-440,-185,77,-17
3605,-112,-2048,-424,-188,74,-20
3610,-88,-2000,-424,-190,72,-24
3615,-112,-2024,-440,-191,72,-28
3620,-120,-2072,-424,-190,70,-34
3625,-88,-2072,-464,-190,69,-38
3630,-72,-2032,-384,-188,69,-42
3635,-72,-2056,-400,-190,70,-45
3640,-120,-2016,-344,-191,71,-51
3645,-56,-2056,-392,-195,71,-55
3650,-88,-2016,-448,-200,73,-61
3655,-104,-2032,-432,-204,73,-67
3660,-72,-2016,-416,-210,71,-71
3665,-24,-2016,-408,-217,71,-79
3670,-8,-2040,-392,-221,70,-86
3675,-48,-2000,-424,-224,71,-94
3680,-56,-2080,-376,-225,69,-103
3685,-8,-2056,-416,-228,69,-110
3690,-80,-2000,-384,-233,68,-116
3695,0,-2072,-432,-238,69,-122
3700,-104,-2064,-424,-235,70,-126
3705,-16,-2040,-352,-237,70,-130
3710,-96,-2096,-448,-245,70,-134
3715,-48,-2016,-496,-255,69,-136
3720,-104,-2024,-496,-264,72,-140
3725,-56,-2032,-440,-264,73,-141
3730,-80,-2048,-472,-269,68,-138
3735,-80,-2024,-496,-280,62,-136
3740,-8,-2016,-464,-294,60,-133
3745,-32,-2040,-408,-307,59,-133
3750,-96,-2104,-472,-313,57,-134
3755,-88,-2016,-352,-317,53,-133
3760,-56,-2152,-480,-325,45,-130
3765,-40,-2040,-432,-333,40,-132
3770,-120,-2056,-560,-330,40,-135
3775,-56,-2040,-416,-317,43,-141
3780,-56,-2048,-432,-303,44,-142
3785,-24,-2072,-600,-293,40,-142
3790,-72,-2088,-520,-285,39,-143
3795,-80,-2056,-496,-278,41,-146
3800,-152,-2048,-504,-272,43,-147
3805,-32,-2048,-520,-267,46,-151
3810,-16,-2016,-552,-264,46,-152
3815,-8,-2040,-544,-263,48,-153
3820,-64,-2008,-528,-266,50,-155
3825,-48,-2016,-528,-273,48,-160
3830,-88,-1944,-528,-281,48,-162
3835,-64,-1976,-464,-289,46,-166
3840,-32,-2032,-480,-296,43,-168
3845,-64,-1992,-456,-302,41,-170
3850,-144,-1984,-520,-308,35,-173
3855,-80,-2000,-544,-313,32,-174
3860,-80,-1968,-552,-321,30,-177
3865,-16,-1984,-544,-326,28,-175
3870,-48,-1984,-568,-329,28,-173
3875,48,-2008,-664,-331,28,-170
3880,-32,-2000,-576,-333,29,-168
3885,-8,-1992,-592,-338,33,-163
3890,-24,-1952,-592,-344,34,-161
3895,-16,-1992,-568,-351,37,-159
3900,48,-1984,-632,-358,39,-157
3905,0,-1944,-664,-364,41,-157
3910,24,-1976,-504,-373,43,-156
3915,0,-1960,-688,-381,44,-151
3920,-72,-1968,-560,-392,44,-148
3925,-32,-2024,-672,-402,42,-149
3930,24,-1912,-528,-409,42,-149
3935,-32,-1952,-592,-415,42,-148
3940,24,-1984,-656,-422,42,-147
3945,-32,-1928,-712,-430,40,-147
3950,-48,-2016,-552,-437,37,-151
3955,24,-1976,-632,-444,38,-151
3960,-24,-1984,-632,-448,38,-151
3965,8,-1976,-640,-451,38,-151
3970,0,-1984,-656,-459,42,-149
3975,0,-2000,-616,-464,45,-146
3980,80,-1944,-664,-465,47,-144
3985,80,-1856,-672,-465,49,-143
3990,8,-1960,-600,-464,51,-140
3995,8,-2056,-536,-466,53,-137
4000,24,-1976,-600,-464,53,-135
4005,56,-2024,-680,-464,54,-131
4010,0,-2016,-656,-462,53,-125
4015,8,-2016,-784,-456,54,-125
4020,24,-1968,-568,-454,55,-124
4025,64,-2008,-552,-451,56,-125
4030,32,-1936,-616,-450,58,-126
4035,24,-1976,-648,-445,58,-125
4040,48,-1992,-648,-438,57,-122
4045,48,-1968,-656,-432,56,-117
4050,8,-1984,-680,-431,58,-113
4055,32,-2000,-568,-431,57,-113
4060,8,-1912,-688,-435,59,-113
4065,32,-1944,-688,-440,62,-113
4070,64,-1976,-744,-444,66,-115
4075,48,-1976,-696,-446,70,-116
4080,56,-1984,-696,-446,74,-118
4085,16,-1960,-728,-445,78,-120
4090,16,-1952,-736,-445,82,-122
4095,56,-1936,-744,-444,85,-125
4100,40,-1968,-744,-443,86,-127
4105,24,-1936,-760,-443,88,-127
4110,48,-1936,-800,-446,86,-128
4115,40,-1920,-784,-446,86,-131
4120,40,-1952,-816,-448,82,-132
4125,16,-1920,-792,-451,80,-135
4130,32,-1888,-800,-453,79,-137
4135,48,-1848,-824,-456,78,-138
4140,24,-1856,-840,-456,76,-136
4145,72,-1888,-840,-460,73,-132
4150,72,-1800,-824,-465,72,-124
4155,88,-1792,-824,-474,69,-118
4160,56,-1784,-832,-484,72,-113
4165,56,-1776,-816,-492,75,-108
4170,80,-1856,-848,-499,80,-101
4175,64,-1816,-800,-503,88,-97
4180,64,-1840,-816,-512,98,-91
4185,56,-1856,-840,-524,109,-91
4190,40,-1880,-840,-535,121,-92
4195,24,-1856,-880,-545,125,-96
4200,48,-1880,-864,-556,127,-100
4205,40,-1896,-880,-564,129,-107
4210,48,-1904,-912,-570,126,-113
4215,48,-1888,-904,-575,127,-117
4220,32,-1888,-896,-581,127,-119
4225,40,-1904,-904,-583,128,-120
4230,24,-1928,-920,-585,130,-121
4235,40,-1896,-904,-588,130,-123
4240,40,-1888,-896,-591,131,-120
4245,32,-1912,-920,-586,130,-117
4250,72,-1904,-928,-574,131,-110
4255,32,-1912,-896,-559,134,-102
4260,32,-1872,-904,-547,135,-96
4265,56,-1864,-920,-536,139,-91
4270,64,-1856,-904,-528,142,-87
4275,48,-1888,-960,-522,144,-85
4280,56,-1848,-968,-519,144,-88
4285,48,-1864,-960,-518,144,-92
4290,72,-1864,-984,-521,144,-99
4295,24,-1840,-968,-523,144,-106
4300,72,-1840,-1000,-526,145,-112
4305,64,-1824,-952,-526,149,-114
4310,64,-1816,-976,-530,154,-116
4315,64,-1808,-992,-535,160,-111
4320,72,-1800,-1000,-541,163,-108
4325,96,-1792,-1024,-547,162,-102
4330,96,-1784,-1016,-553,162,-99
4335,128,-1776,-1040,-557,161,-94
4340,96,-1800,-1048,-562,161,-90
4345,104,-1784,-1088,-564,161,-89
4350,112,-1768,-1088,-567,163,-88
4355,104,-1800,-1080,-567,165,-88
4360,112,-1800,-1064,-566,167,-89
4365,104,-1808,-1048,-562,163,-95
4370,112,-1808,-1088,-556,161,-104
4375,88,-1784,-1088,-547,155,-110
4380,80,-1816,-1128,-538,149,-119
4385,88,-1800,-1088,-529,138,-130
4390,56,-1776,-1112,-516,128,-139
4395,56,-1784,-1136,-503,121,-147
4400,72,-1728,-1080,-497,114,-154
4405,112,-1752,-1088,-494,110,-157
4410,136,-1720,-1040,-493,107,-162
4415,136,-1720,-1112,-495,107,-159
4420,176,-1728,-1120,-502,105,-161
4425,216,-1736,-1136,-509,103,-160
4430,200,-1712,-1128,-517,103,-161
4435,224,-1720,-1128,-525,102,-161
4440,240,-1760,-1160,-532,100,-164
4445,208,-1752,-1168,-534,98,-170
4450,216,-1760,-1192,-529,96,-180
4455,208,-1776,-1216,-517,94,-189
4460,232,-1768,-1232,-498,95,-202
4465,248,-1776,-1256,-475,96,-214
4470,248,-1792,-1248,-448,96,-224
4475,224,-1744,-1256,-420,96,-237
4480,232,-1712,-1272,-394,92,-245
4485,240,-1688,-1280,-369,90,-251
4490,240,-1664,-1280,-351,85,-253
4495,240,-1640,-1272,-330,81,-256
4500,240,-1616,-1248,-321,73,-257
4505,248,-1648,-1240,-316,67,-259
4510,208,-1648,-1224,-312,61,-258
4515,200,-1608,-1232,-309,55,-262
4520,208,-1648,-1248,-316,47,-268
4525,192,-1648,-1248,-330,40,-277
4530,168,-1648,-1264,-349,33,-291
4535,168,-1672,-1264,-361,23,-302
4540,184,-1680,-1288,-371,15,-313
4545,168,-1656,-1296,-380,6,-323
4550,136,-1664,-1320,-385,-5,-328
4555,160,-1696,-1312,-381,-11,-328
4560,200,-1672,-1312,-383,-18,-329
4565,216,-1656,-1352,-385,-25,-329
4570,200,-1648,-1304,-388,-31,-327
4575,296,-1624,-1312,-390,-32,-321
4580,224,-1648,-1296,-385,-32,-314
4585,256,-1640,-1256,-375,-30,-314
4590,248,-1600,-1288,-361,-25,-314
4595,240,-1616,-1288,-357,-26,-317
4600,264,-1576,-1296,-347,-24,-322
4605,240,-1592,-1304,-343,-24,-330
4610,256,-1592,-1312,-347,-25,-340
4615,240,-1560,-1328,-351,-27,-350
4620,240,-1568,-1312,-359,-33,-357
4625,248,-1600,-1320,-368,-40,-360
4630,224,-1584,-1288,-382,-47,-362
4635,232,-1584,-1248,-401,-54,-360
4640,240,-1568,-1264,-424,-59,-355
4645,248,-1560,-1280,-444,-64,-350
4650,272,-1576,-1272,-461,-67,-343
4655,248,-1552,-1240,-476,-66,-336
4660,256,-1560,-1240,-486,-64,-330
4665,256,-1528,-1256,-490,-59,-329
4670,256,-1520,-1240,-489,-57,-328
4675,208,-1472,-1264,-485,-57,-330
4680,248,-1496,-1264,-479,-57,-334
4685,200,-1480,-1272,-474,-59,-341
4690,240,-1448,-1272,-468,-61,-347
4695,200,-1456,-1248,-465,-62,-352
4700,224,-1480,-1280,-469,-60,-354
4705,208,-1472,-1272,-481,-56,-357
4710,232,-1472,-1248,-498,-48,-356
4715,256,-1472,-1264,-524,-44,-352
4720,272,-1448,-1272,-556,-39,-346
4725,232,-1480,-1248,-588,-32,-342
4730,256,-1472,-1248,-612,-28,-340
4735,264,-1440,-1256,-629,-24,-340
4740,272,-1456,-1296,-641,-21,-342
4745,240,-1440,-1264,-644,-19,-346
4750,232,-1448,-1248,-642,-19,-356
4755,240,-1448,-1296,-634,-18,-364
4760,192,-1408,-1288,-623,-22,-373
4765,184,-1408,-1328,-611,-26,-382
4770,160,-1408,-1352,-595,-30,-393
4775,152,-1400,-1336,-582,-34,-402
4780,144,-1360,-1328,-569,-37,-407
4785,160,-1352,-1320,-560,-41,-407
4790,160,-1368,-1312,-553,-42,-402
4795,184,-1400,-1344,-549,-45,-391
4800,208,-1336,-1320,-547,-45,-381
4805,232,-1328,-1328,-553,-44,-373
4810,248,-1296,-1288,-561,-42,-363
4815,256,-1312,-1328,-570,-37,-353
4820,304,-1288,-1296,-581,-32,-346
4825,296,-1296,-1296,-591,-28,-341
4830,296,-1288,-1328,-598,-24,-344
4835,288,-1344,-1320,-604,-20,-346
4840,264,-1328,-1408,-608,-19,-351
4845,248,-1312,-1376,-609,-18,-361
4850,232,-1320,-1400,-604,-20,-370
4855,200,-1336,-1408,-596,-26,-378
4860,208,-1336,-1432,-582,-30,-382
4865,216,-1312,-1424,-568,-34,-382
4870,192,-1304,-1400,-557,-40,-378
4875,192,-1288,-1432,-548,-42,-368
4880,240,-1272,-1416,-542,-46,-358
4885,232,-1224,-1440,-539,-48,-342
4890,248,-1208,-1392,-545,-48,-328
4895,280,-1168,-1400,-556,-44,-313
4900,296,-1144,-1400,-570,-39,-299
4905,360,-1160,-1392,-588,-32,-286
4910,336,-1152,-1424,-607,-20,-279
4915,296,-1120,-1408,-627,-6,-276
4920,328,-1152,-1416,-644,2,-280
4925,288,-1184,-1432,-656,8,-286
4930,272,-1240,-1408,-663,11,-295
4935,296,-1272,-1448,-666,7,-307
4940,272,-1304,-1464,-667,-2,-317
4945,240,-1304,-1488,-658,-12,-326
4950,216,-1288,-1520,-640,-19,-335
4955,200,-1256,-1528,-622,-23,-339
4960,200,-1272,-1536,-602,-26,-337
4965,168,-1216,-1512,-585,-24,-330
4970,200,-1216,-1520,-570,-22,-322
4975,176,-1160,-1504,-559,-17,-309
4980,192,-1136,-1496,-555,-8,-297
4985,232,-1136,-1512,-561,-1,-283
4990,256,-1152,-1520,-572,8,-271
4995,256,-1128,-1464,-590,16,-265
5000,288,-1128,-1496,-614,23,-262
5005,272,-1128,-1536,-640,27,-265
5010,296,-1144,-1536,-662,28,-272
5015,256,-1160,-1528,-679,21,-283
5020,256,-1120,-1560,-689,14,-294
5025,264,-1112,-1560,-688,5,-306
5030,248,-1120,-1608,-682,-4,-320
5035,216,-1096,-1576,-675,-14,-331
5040,224,-1072,-1624,-661,-20,-337
5045,232,-1040,-1616,-644,-25,-333
5050,224,-1032,-1632,-628,-30,-316
5055,224,-960,-1656,-620,-28,-310
5060,248,-960,-1608,-624,-21,-312
5065,232,-912,-1640,-633,-17,-308
5070,264,-912,-1592,-650,-17,-300
5075,272,-928,-1624,-676,-18,-297
5080,304,-944,-1616,-707,-17,-296
5085,336,-960,-1640,-744,-16,-298
5090,352,-976,-1656,-784,-17,-302
5095,360,-1000,-1648,-820,-15,-310
5100,352,-1000,-1672,-848,-12,-321
5105,344,-1000,-1736,-863,-4,-332
5110,336,-1016,-1712,-869,6,-345
5115,344,-976,-1752,-865,17,-359
5120,352,-960,-1712,-856,29,-369
5125,288,-904,-1720,-840,43,-375
5130,256,-896,-1768,-821,52,-377
5135,296,-848,-1712,-800,61,-375
5140,256,-840,-1720,-783,67,-371
5145,256,-832,-1712,-776,72,-367
5150,248,-824,-1728,-774,73,-361
5155,264,-808,-1696,-784,70,-358
5160,240,-784,-1688,-800,63,-353
5165,232,-808,-1696,-814,60,-351
5170,248,-784,-1712,-829,56,-349
5175,272,-760,-1696,-850,57,-353
5180,256,-736,-1712,-866,61,-360
5185,288,-768,-1736,-880,69,-371
5190,280,-736,-1720,-893,81,-383
5195,296,-704,-1720,-895,95,-391
5200,288,-688,-1664,-894,109,-398
5205,304,-680,-1696,-885,123,-401
5210,304,-656,-1688,-869,136,-403
5215,304,-648,-1704,-851,143,-401
5220,304,-624,-1696,-833,150,-395
5225,304,-616,-1648,-816,153,-389
5230,216,-616,-1624,-798,156,-379
5235,288,-592,-1672,-783,160,-371
5240,304,-592,-1632,-778,162,-363
5245,288,-576,-1600,-777,163,-361
5250,304,-544,-1664,-782,166,-356
5255,312,-552,-1632,-797,168,-359
5260,304,-552,-1656,-817,170,-362
5265,320,-536,-1664,-836,175,-369
5270,336,-560,-1680,-858,178,-377
5275,336,-544,-1664,-875,181,-389
5280,328,-536,-1632,-889,184,-401
5285,344,-552,-1696,-897,186,-411
5290,288,-536,-1664,-898,185,-417
5295,312,-552,-1688,-889,184,-422
5300,296,-528,-1656,-875,181,-423
5305,288,-528,-1672,-858,177,-422
5310,272,-528,-1688,-839,172,-416
5315,280,-512,-1704,-816,167,-409
5320,304,-520,-1680,-788,161,-398
5325,296,-488,-1696,-760,153,-388
5330,296,-472,-1680,-736,147,-378
5335,320,-456,-1688,-717,143,-373
5340,304,-456,-1744,-709,140,-374
5345,344,-448,-1752,-705,140,-375
5350,320,-448,-1712,-699,142,-377
5355,328,-416,-1736,-697,142,-384
5360,336,-440,-1712,-696,144,-392
5365,328,-432,-1752,-696,145,-398
5370,328,-432,-1728,-697,146,-406
5375,304,-456,-1744,-699,148,-414
5380,272,-456,-1728,-699,152,-419
5385,296,-440,-1704,-691,157,-424
5390,272,-440,-1640,-677,162,-428
5395,272,-448,-1648,-655,167,-429
5400,296,-416,-1656,-628,175,-429
5405,312,-448,-1624,-606,180,-428
5410,304,-416,-1624,-591,186,-422
5415,312,-440,-1640,-579,192,-418
5420,320,-432,-1656,-571,198,-415
5425,312,-424,-1648,-566,201,-413
5430,320,-432,-1664,-560,205,-414
5435,312,-408,-1648,-559,209,-415
5440,344,-440,-1656,-560,217,-418
5445,344,-408,-1688,-558,229,-424
5450,304,-448,-1696,-559,248,-433
5455,288,-456,-1664,-559,269,-441
5460,288,-464,-1648,-557,294,-446
5465,264,-472,-1616,-549,316,-451
5470,256,-472,-1600,-531,336,-452
5475,264,-464,-1608,-509,353,-451
5480,280,-464,-1552,-482,370,-445
5485,280,-464,-1536,-454,380,-438
5490,272,-496,-1552,-426,389,-431
5495,288,-464,-1536,-401,400,-423
5500,256,-472,-1528,-380,406,-415
5505,256,-448,-1528,-363,412,-407
5510,248,-456,-1520,-347,417,-400
5515,240,-456,-1552,-336,425,-397
5520,256,-472,-1528,-328,436,-396
5525,256,-464,-1536,-325,451,-399
5530,240,-456,-1560,-325,471,-404
5535,232,-416,-1552,-323,492,-408
5540,224,-456,-1520,-316,511,-409
5545,248,-464,-1528,-307,527,-409
5550,232,-464,-1536,-295,542,-408
5555,240,-440,-1520,-282,561,-404
5560,216,-448,-1504,-266,582,-399
5565,240,-448,-1488,-249,602,-390
5570,248,-464,-1496,-232,619,-381
5575,256,-488,-1456,-218,632,-367
5580,280,-496,-1448,-206,646,-354
5585,288,-504,-1472,-194,661,-342
5590,240,-496,-1456,-189,675,-330
5595,312,-488,-1464,-184,692,-322
5600,320,-512,-1448,-176,708,-312
5605,336,-504,-1472,-170,728,-306
5610,312,-504,-1472,-163,745,-302
5615,312,-496,-1496,-153,762,-297
5620,280,-520,-1488,-142,783,-293
5625,264,-520,-1488,-131,807,-293
5630,240,-536,-1488,-117,836,-290
5635,240,-552,-1472,-98,867,-289
5640,200,-568,-1480,-71,899,-287
5645,168,-584,-1464,-43,929,-283
5650,168,-592,-1456,-14,953,-279
5655,144,-592,-1440,23,972,-274
5660,120,-640,-1392,69,985,-270
5665,128,-688,-1424,126,997,-264
5670,104,-688,-1360,194,1014,-263
5675,128,-728,-1320,273,1036,-263
5680,136,-760,-1304,356,1070,-265
5685,160,-784,-1256,433,1115,-270
5690,144,-736,-1232,495,1167,-276
5695,192,-736,-1224,546,1228,-283
5700,168,-704,-1176,596,1289,-293
5705,128,-712,-1096,652,1357,-301
5710,128,-680,-1016,724,1428,-304
5715,24,-680,-1016,814,1513,-296
5720,56,-736,-992,905,1616,-284
5725,0,-856,-1032,986,1721,-255
5730,120,-928,-1136,1054,1795,-227
5735,152,-960,-1312,1100,1849,-210
5740,88,-984,-1296,1098,1882,-243
5745,152,-928,-1256,1085,1852,-336
5750,184,-840,-1208,1077,1803,-466
5755,208,-736,-1224,1082,1754,-580
5760,272,-672,-1128,1111,1710,-673
5765,352,-488,-1240,1144,1679,-751
5770,216,-488,-1056,1127,1706,-801
5775,152,-496,-1008,1114,1694,-868
5780,144,-456,-968,1086,1666,-953
5785,144,-528,-1024,1032,1631,-1014
5790,40,-632,-1032,944,1628,-1056
5795,120,-816,-1104,853,1655,-1095
5800,120,-1056,-1088,781,1669,-1141
5805,176,-1128,-1216,765,1640,-1216
5810,368,-1048,-1368,783,1634,-1269
5815,464,-1088,-1456,787,1657,-1308
5820,504,-1040,-1496,803,1648,-1367
5825,688,-824,-1640,845,1621,-1419
5830,808,-632,-1760,863,1630,-1461
5835,848,-408,-1856,824,1658,-1500
5840,824,-216,-1880,726,1702,-1515
5845,832,-24,-1848,634,1771,-1506
5850,864,152,-1848,583,1854,-1480
5855,952,392,-1904,573,1944,-1411
5860,1016,576,-1944,590,2029,-1304
5865,1072,720,-1952,606,2105,-1185
5870,1160,888,-1904,602,2170,-1084
5875,1272,984,-1776,593,2196,-1005
5880,1472,1064,-1872,580,2211,-946
5885,1576,1120,-1968,527,2222,-923
5890,1568,1216,-1968,416,2234,-944
5895,1552,1256,-1992,264,2252,-985
5900,1640,1320,-2032,122,2265,-972
5905,1640,1256,-2032,-39,2288,-951
5910,1648,1184,-1936,-218,2323,-942
5915,1672,1024,-1848,-380,2364,-911
5920,1712,856,-1816,-490,2408,-865
5925,1632,704,-1792,-568,2435,-842
5930,1584,640,-1808,-610,2439,-833
5935,1544,576,-1792,-630,2430,-818
5940,1488,512,-1744,-643,2416,-788
5945,1464,456,-1680,-646,2394,-737
5950,1464,368,-1648,-649,2357,-676
5955,1488,264,-1472,-657,2310,-603
5960,1536,192,-1472,-654,2268,-509
5965,1608,168,-1520,-645,2226,-415
5970,1624,88,-1424,-627,2237,-344
5975,1632,88,-1344,-588,2298,-297
5980,1664,120,-1296,-544,2366,-259
5985,1672,184,-1184,-518,2423,-208
5990,1640,232,-1040,-506,2477,-138
5995,1600,328,-976,-506,2536,-68
6000,1600,432,-888,-534,2591,-13
6005,1680,560,-816,-585,2640,46
6010,1576,568,-840,-649,2681,95
6015,1584,640,-784,-742,2734,167
6020,1632,720,-856,-864,2805,229
6025,1656,696,-824,-1077,2904,281
6030,1688,664,-768,-1324,3025,326
6035,1552,664,-776,-1544,3171,377
6040,1672,624,-752,-1744,3332,452
6045,1712,640,-736,-1911,3494,509
6050,1848,584,-704,-2061,3650,550
6055,2120,496,-512,-2189,3784,579
6060,2064,480,-560,-2241,3902,585
6065,2200,440,-672,-2249,4052,607
6070,2424,504,-408,-2282,4215,562
6075,2288,608,-288,-2134,4297,446
6080,2248,624,-136,-1896,4447,469
6085,2496,704,-248,-1750,4558,531
6090,2840,816,-168,-1787,4616,513
6095,3288,920,248,-1967,4624,423
6100,4032,880,1112,-2094,4635,257
6105,4352,1184,1160,-2013,4691,5
6110,5064,1120,1520,-2014,4748,-144
6115,6784,1280,1888,-2129,4714,-325
6120,7184,1440,1840,-2173,4710,-585
6125,7784,1928,1712,-2228,4841,-708
6130,8008,1984,2048,-2295,5135,-692
6135,7480,1888,2584,-2229,5404,-703
6140,6792,1640,2800,-2001,5468,-656
6145,6184,1552,2960,-1702,5313,-497
6150,5816,2160,2624,-1368,4912,-193
6155,4800,2336,2544,-1131,4515,284
6160,3472,2520,2816,-856,4158,763
6165,2296,2768,2896,-424,3761,1199
6170,1952,2408,3000,111,3344,1515
6175,1800,1776,3000,663,2878,1586
6180,1568,1360,2776,1172,2393,1478
6185,1072,1032,2600,1523,1981,1345
6190,360,680,2528,1654,1671,1189
6195,-96,328,2336,1610,1428,1056
6200,-456,16,2064,1430,1279,898
6205,-624,-232,1808,1134,1214,720
6210,-664,-400,1544,792,1261,549
6215,-616,-392,1368,440,1377,410
6220,-464,-440,1296,106,1491,293
6225,-432,-392,1192,-160,1562,199
6230,-272,-384,1248,-358,1569,129
6235,-8,-304,1160,-479,1525,86
6240,152,-184,1112,-519,1454,108
6245,288,-136,1104,-494,1358,201
6250,424,-144,1072,-407,1251,344
6255,480,-88,912,-275,1152,495
6260,488,-88,920,-127,1087,634
6265,520,-8,912,8,1064,740
6270,480,88,952,116,1082,813
6275,448,160,1008,169,1115,871
6280,440,168,1128,171,1141,902
6285,480,152,1208,139,1154,907
6290,504,80,1288,90,1162,907
6295,544,8,1384,47,1160,900
6300,576,-88,1456,28,1156,899
6305,640,-144,1512,31,1144,904
6310,832,-272,1568,52,1129,915
6315,928,-328,1640,85,1126,929
6320,1032,-352,1664,129,1136,948
6325,1088,-328,1712,177,1155,971
6330,1072,-304,1800,223,1182,993
6335,976,-232,1888,265,1218,1012
6340,848,-160,1984,286,1249,1031
6345,704,-80,2032,288,1273,1056
6350,672,0,2112,261,1288,1058
6355,624,56,2104,194,1290,1039
6360,632,112,2168,92,1285,1018
6365,608,112,2264,-21,1275,981
6370,528,80,2376,-129,1246,939
6375,544,24,2464,-230,1185,913
6380,672,-112,2592,-298,1116,873
6385,728,-280,2704,-322,1040,837
6390,856,-424,2792,-304,955,812
6395,992,-512,2840,-242,862,762
6400,1064,-648,2888,-146,758,705
6405,1136,-672,2816,-24,651,640
6410,1256,-704,2800,113,550,593
6415,1224,-824,2744,262,476,555
6420,1152,-840,2664,406,426,524
6425,1104,-848,2544,520,398,506
6430,1136,-800,2528,605,379,483
6435,1024,-712,2432,646,368,469
6440,912,-624,2352,636,350,461
6445,808,-568,2216,581,322,450
6450,736,-424,2200,481,287,457
6455,648,-320,2104,382,250,453
6460,640,-296,2088,293,198,462
6465,504,-288,1952,230,142,468
6470,480,-184,1896,193,85,482
6475,456,-216,1864,197,31,485
6480,480,-224,1728,249,-6,475
6485,544,-248,1656,344,-24,455
6490,576,-232,1640,453,-40,445
6495,664,-216,1616,568,-62,435
6500,784,-160,1568,677,-80,400
6505,832,-168,1624,769,-78,396
6510,832,-176,1632,821,-75,417
6515,912,-152,1624,821,-81,413
6520,992,-88,1632,801,-86,411
6525,1072,-80,1664,759,-90,435
6530,1080,-128,1624,701,-89,460
6535,1056,-136,1640,634,-93,461
6540,1024,-56,1640,559,-103,444
6545,1176,-112,1680,472,-133,395
6550,1240,-48,1688,392,-152,383
6555,1320,-72,1656,315,-182,382
6560,1368,-88,1680,256,-209,378
6565,1376,-56,1656,204,-239,358
6570,1392,-48,1640,157,-268,326
6575,1432,-80,1664,114,-301,292
6580,1480,-96,1640,80,-329,246
6585,1544,-104,1640,57,-352,203
6590,1608,-88,1632,38,-370,178
6595,1592,-88,1592,18,-383,160
6600,1592,-88,1600,-2,-397,129
6605,1624,-72,1576,-18,-411,100
6610,1624,-80,1584,-27,-421,76
6615,1664,-96,1568,-33,-428,57
6620,1648,-72,1568,-37,-435,41
6625,1648,-96,1584,-40,-443,27
6630,1664,-96,1544,-43,-452,17
6635,1664,-104,1528,-45,-458,5
6640,1608,-144,1552,-45,-465,-4
6645,1672,-136,1520,-45,-471,-18
6650,1728,-152,1496,-42,-475,-32
6655,1744,-128,1448,-42,-474,-47
6660,1760,-152,1448,-45,-470,-63
6665,1784,-176,1424,-50,-464,-81
6670,1800,-184,1400,-59,-456,-96
6675,1800,-184,1384,-70,-448,-114
6680,1792,-192,1376,-77,-433,-129
6685,1792,-184,1336,-76,-415,-140
6690,1816,-192,1320,-76,-399,-153
6695,1784,-176,1304,-78,-378,-166
6700,1768,-184,1328,-80,-356,-175
6705,1760,-176,1304,-76,-330,-179
6710,1712,-192,1264,-73,-306,-183
6715,1656,-208,1240,-65,-282,-181
6720,1680,-232,1288,-56,-259,-169
6725,1664,-152,1296,-52,-240,-171
6730,1600,-176,1288,-51,-217,-170
6735,1600,-168,1304,-52,-190,-164
6740,1584,-176,1304,-51,-162,-153
6745,1568,-152,1312,-54,-137,-141
6750,1616,-176,1320,-56,-119,-131
6755,1576,-176,1336,-62,-96,-110
6760,1584,-176,1336,-67,-71,-92
6765,1592,-176,1336,-73,-49,-77
6770,1608,-184,1368,-79,-29,-59
6775,1600,-224,1352,-83,-10,-42
6780,1624,-200,1344,-81,11,-23
6785,1608,-200,1360,-80,28,-5
6790,1600,-216,1384,-78,43,11
6795,1640,-232,1376,-77,55,27
6800,1640,-240,1360,-77,63,39
6805,1648,-240,1344,-78,74,48
6810,1632,-248,1368,-82,84,55
6815,1624,-256,1344,-86,93,61
6820,1640,-272,1376,-88,104,67
6825,1648,-272,1352,-91,112,73
6830,1632,-296,1352,-95,119,74
6835,1632,-312,1368,-98,130,77
6840,1616,-312,1392,-101,140,79
6845,1608,-344,1368,-105,148,82
6850,1600,-344,1368,-109,154,81
6855,1576,-384,1424,-114,161,81
6860,1632,-344,1344,-118,165,81
6865,1568,-400,1416,-122,169,80
6870,1544,-400,1440,-124,171,75
6875,1552,-440,1440,-126,175,70
6880,1536,-408,1408,-127,176,68
6885,1552,-400,1416,-125,177,62
6890,1528,-424,1408,-123,178,57
6895,1496,-424,1416,-122,180,51
6900,1496,-440,1416,-120,180,45
6905,1488,-416,1440,-116,181,35
6910,1472,-432,1432,-111,182,27
6915,1456,-448,1464,-107,187,16
6920,1456,-440,1448,-101,188,8
6925,1448,-416,1464,-95,190,-1
6930,1464,-440,1472,-88,193,-10
6935,1424,-408,1464,-81,191,-17
6940,1432,-408,1488,-73,190,-22
6945,1424,-408,1488,-64,188,-27
6950,1416,-416,1496,-55,185,-31
6955,1424,-408,1512,-44,182,-33
6960,1408,-392,1520,-32,178,-36
6965,1416,-392,1496,-18,176,-37
6970,1416,-312,1528,-5,172,-35
6975,1432,-400,1520,9,169,-34
6980,1408,-376,1520,21,165,-31
6985,1432,-392,1536,32,161,-29
6990,1400,-360,1544,44,158,-25
6995,1408,-360,1520,57,151,-21
7000,1416,-368,1544,68,146,-17
7005,1416,-352,1544,79,138,-13
7010,1416,-376,1536,87,132,-9
7015,1384,-336,1536,96,124,-6
7020,1400,-336,1544,105,117,-2
7025,1432,-320,1560,112,110,2
7030,1408,-288,1536,119,103,5
7035,1416,-304,1552,124,96,6
7040,1448,-280,1544,130,89,7
7045,1416,-280,1552,135,81,7
7050,1432,-240,1528,137,75,6
7055,1456,-256,1528,140,69,7
7060,1456,-256,1536,141,65,6
7065,1440,-232,1536,140,61,6
7070,1440,-224,1480,142,58,5
7075,1456,-216,1528,145,55,3
7080,1488,-216,1536,146,54,-1
7085,1472,-232,1520,147,52,-1
7090,1488,-208,1536,147,53,-4
7095,1472,-200,1520,147,52,-6
7100,1472,-200,1512,145,51,-10
7105,1504,-232,1536,147,50,-13
7110,1496,-176,1512,147,50,-19
7115,1464,-216,1520,139,53,-15
7120,1504,-184,1512,135,53,-26
7125,1520,-184,1512,125,58,-15
7130,1512,-176,1488,116,59,-9
7135,1504,-200,1496,107,58,-8
7140,1488,-184,1488,98,61,-7
7145,1504,-200,1504,90,61,-9
7150,1504,-168,1496,85,63,-10
7155,1496,-168,1488,77,65,-11
7160,1536,-184,1496,71,67,-10
7165,1504,-160,1496,64,68,-8
7170,1496,-176,1496,55,67,-5
7175,1496,-176,1512,47,66,-2
7180,1496,-192,1496,39,64,0
7185,1488,-152,1520,33,63,-1
7190,1496,-176,1496,27,63,-1
7195,1512,-192,1496,22,60,1
7200,1528,-200,1512,18,60,3
7205,1512,-216,1496,16,60,3
7210,1520,-216,1472,11,59,3
7215,1536,-200,1512,9,58,5
7220,1504,-200,1512,9,60,8
7225,1520,-224,1496,7,59,6
7230,1528,-192,1472,5,60,4
7235,1504,-216,1488,2,61,2
7240,1520,-208,1488,3,62,2
7245,1512,-216,1504,1,63,1
7250,1504,-248,1488,-1,65,-2
7255,1520,-248,1512,-5,67,-1
7260,1496,-224,1512,-6,67,-2
7265,1512,-248,1512,-7,70,-4
7270,1496,-216,1528,-10,68,-4
7275,1504,-224,1520,-11,72,-4
7280,1488,-232,1488,-13,73,-6
7285,1512,-232,1480,-15,73,-7
7290,1512,-256,1488,-15,75,-6
7295,1488,-256,1504,-13,77,-6
7300,1464,-232,1520,-12,79,-6
7305,1504,-264,1496,-10,76,-6
7310,1480,-240,1496,-9,80,-8
7315,1464,-224,1480,-9,80,-7
7320,1520,-264,1520,-3,78,-14
7325,1512,-272,1504,2,80,-12
7330,1512,-240,1480,0,80,-10
7335,1520,-272,1512,-4,82,-9
7340,1496,-248,1512,-6,83,-8
7345,1488,-240,1488,-5,83,-6
7350,1472,-264,1496,0,82,-8
7355,1472,-240,1504,3,80,-8
7360,1488,-240,1488,7,80,-8
7365,1488,-264,1480,10,78,-6
7370,1456,-256,1496,12,75,-6
7375,1480,-264,1512,15,75,-4
7380,1472,-272,1504,17,73,-4
7385,1480,-296,1504,16,72,-4
7390,1472,-288,1480,16,71,-3
7395,1480,-288,1528,15,70,-3
7400,1480,-280,1496,13,69,-2
7405,1480,-312,1504,14,68,-2
7410,1472,-264,1528,16,68,-3
7415,1512,-272,1488,16,68,-4
7420,1480,-256,1464,22,63,-10
7425,1504,-248,1504,35,61,-13
7430,1480,-256,1480,37,59,-14
7435,1504,-264,1504,38,57,-17
7440,1488,-280,1480,35,56,-16
7445,1480,-264,1528,35,54,-20
7450,1472,-248,1528,35,51,-20
7455,1464,-232,1512,36,45,-21
7460,1472,-248,1520,40,42,-24
7465,1480,-256,1504,43,38,-23
7470,1464,-248,1496,47,34,-22
7475,1504,-256,1496,53,30,-23
7480,1496,-248,1488,57,27,-24
7485,1504,-248,1488,64,23,-22
7490,1472,-248,1512,68,22,-22
7495,1496,-224,1520,72,22,-24
7500,1496,-208,1504,74,22,-24
7505,1480,-232,1520,75,24,-21
7510,1480,-208,1496,76,23,-20
7515,1488,-216,1504,75,24,-22
7520,1464,-192,1472,74,25,-19
7525,1488,-208,1504,72,29,-13
7530,1504,-216,1528,67,29,-16
7535,1504,-200,1504,62,33,-15
7540,1480,-200,1520,60,37,-14
7545,1488,-208,1504,56,42,-12
7550,1496,-208,1504,55,44,-10
7555,1496,-200,1520,54,49,-8
7560,1512,-216,1504,55,51,-7
7565,1496,-216,1528,55,52,-8
7570,1488,-192,1504,55,54,-3
7575,1512,-216,1504,55,57,0
7580,1520,-200,1496,55,59,-1
7585,1504,-208,1472,56,62,-1
7590,1512,-176,1456,56,63,-2
7595,1528,-200,1488,58,63,-1
7600,1512,-200,1504,59,64,0
7605,1504,-160,1496,58,64,-1
7610,1504,-184,1504,58,64,1
7615,1512,-192,1504,53,65,0
7620,1488,-152,1432,48,67,-1
7625,1512,-176,1480,46,69,-3
7630,1520,-184,1496,41,70,-1
7635,1512,-200,1504,37,71,-1
7640,1504,-200,1496,35,72,-3
7645,1488,-192,1520,33,71,-2
7650,1512,-200,1512,31,73,-3
7655,1512,-184,1512,30,72,-3
7660,1496,-192,1496,28,73,0
7665,1512,-192,1504,26,73,0
7670,1480,-200,1504,25,73,-2
7675,1512,-224,1504,23,73,-1
7680,1496,-200,1488,19,73,-2
7685,1496,-184,1504,16,75,-3
7690,1496,-192,1512,14,76,-2
7695,1504,-200,1528,13,77,-2
7700,1504,-192,1504,11,79,-3
7705,1480,-192,1512,10,79,-3
7710,1472,-192,1504,9,76,-4
7715,1496,-192,1512,9,75,-5
7720,1504,-200,1496,9,73,-6
7725,1512,-224,1520,8,70,-6
7730,1504,-200,1504,8,65,-9
7735,1512,-216,1496,10,57,-10
7740,1512,-200,1488,11,50,-13
7745,1488,-216,1536,13,41,-12
7750,1520,-192,1512,16,32,-13
7755,1504,-184,1472,20,25,-14
7760,1488,-192,1504,26,20,-8
7765,1496,-224,1488,31,12,-9
7770,1504,-232,1488,32,8,-9
7775,1504,-216,1512,31,7,-8
7780,1496,-192,1512,29,7,-8
7785,1464,-192,1512,29,6,-7
7790,1488,-200,1472,28,6,-6
7795,1480,-192,1512,29,9,-5
7800,1488,-200,1480,27,10,-7
7805,1480,-200,1496,24,14,-5
7810,1496,-200,1512,24,20,-5
7815,1504,-208,1488,23,22,-2
7820,1488,-184,1504,25,27,-3
7825,1504,-208,1528,25,31,-1
7830,1488,-184,1464,25,35,1
7835,1488,-184,1512,25,41,4
7840,1480,-240,1528,26,46,3
7845,1496,-200,1496,25,48,4
7850,1496,-216,1480,26,52,5
7855,1488,-232,1480,25,54,6
7860,1496,-184,1480,27,57,6
7865,1528,-208,1464,28,59,5
7870,1496,-192,1464,28,59,3
7875,1512,-208,1488,29,61,3
7880,1512,-200,1448,31,61,1
7885,1512,-184,1488,30,64,0
7890,1504,-168,1480,30,64,-1
7895,1496,-168,1480,31,66,-2
7900,1520,-176,1464,31,67,-2
7905,1504,-192,1488,30,71,-3
7910,1528,-176,1464,30,71,-3
7915,1512,-192,1504,27,72,-4
7920,1504,-192,1496,26,72,-1
7925,1520,-200,1456,24,73,-2
7930,1528,-192,1528,23,73,-2
7935,1520,-216,1496,20,73,-1
7940,1504,-200,1480,20,72,-1
7945,1504,-200,1488,18,71,0
7950,1512,-200,1464,15,71,0
7955,1536,-200,1488,13,72,-1
7960,1504,-176,1504,12,68,-2
7965,1504,-184,1456,13,66,-3
7970,1512,-192,1472,14,66,-3
7975,1512,-176,1488,15,66,-3
7980,1512,-192,1504,16,65,-4
7985,1504,-176,1488,17,64,-4
7990,1504,-208,1472,18,63,-4
7995,1512,-168,1512,20,62,-7
8000,1512,-168,1496,22,60,-9
8005,1496,-192,1512,25,58,-8
8010,1512,-176,1512,25,54,-8
8015,1520,-176,1480,27,52,-8
8020,1512,-176,1464,27,50,-7
8025,1480,-144,1520,27,50,-7
8030,1504,-168,1512,26,49,-5
8035,1520,-192,1504,25,48,-5
8040,1504,-184,1488,23,49,-3
8045,1512,-176,1464,21,48,-1
8050,1512,-168,1488,20,46,-1
8055,1472,-248,1520,18,50,0
8060,1520,-192,1512,16,48,1
8065,1512,-160,1512,15,51,2
8070,1520,-176,1480,15,51,2
8075,1512,-184,1520,15,53,3
8080,1496,-200,1520,19,56,11
8085,1488,-176,1512,21,52,8
8090,1496,-184,1512,19,55,7
8095,1496,-152,1496,16,57,5
8100,1496,-176,1504,16,60,5
8105,1520,-176,1464,15,62,3
8110,1504,-184,1456,15,66,3
8115,1512,-176,1480,12,68,3
8120,1504,-176,1504,10,70,2
8125,1512,-192,1480,9,72,1
8130,1504,-160,1488,12,73,0
8135,1496,-168,1480,12,75,0
8140,1504,-176,1512,12,75,-3
8145,1512,-176,1472,13,74,-2
8150,1520,-152,1496,14,74,-2
8155,1504,-168,1504,17,73,-3
8160,1504,-184,1464,18,73,-2
8165,1496,-152,1464,17,74,-3
8170,1472,-160,1504,17,74,-3
8175,1536,-200,1488,15,73,-4
8180,1496,-160,1496,14,74,-3
8185,1488,-184,1504,11,75,-4
8190,1512,-184,1480,8,72,-5
8195,1512,-176,1448,7,74,-3
8200,1504,-168,1480,5,76,-3
8205,1528,-184,1512,4,75,-4
8210,1528,-192,1504,3,76,-3
8215,1504,-168,1472,2,75,-4
8220,1512,-160,1496,2,73,-5
8225,1512,-168,1488,2,73,-6
8230,1512,-176,1512,3,73,-6
8235,1512,-168,1488,4,73,-6
8240,1520,-176,1504,7,72,-5
8245,1520,-184,1464,8,71,-6
8250,1496,-184,1528,11,71,-8
8255,1520,-176,1480,22,70,-11
8260,1504,-152,1480,25,70,-9
8265,1528,-184,1512,24,69,-8
8270,1512,-176,1472,26,69,-10
8275,1488,-240,1480,27,69,-10
8280,1520,-176,1472,29,71,-8
8285,1512,-160,1480,27,71,-6
8290,1528,-152,1496,25,72,-5
8295,1520,-160,1480,23,72,-3
8300,1512,-152,1496,22,72,-3
8305,1504,-160,1496,20,73,-1
8310,1496,-152,1496,19,72,0
8315,1512,-184,1504,19,73,0
8320,1512,-160,1464,17,74,2
8325,1560,-144,1520,13,74,3
8330,1504,-152,1504,11,75,3
8335,1504,-152,1488,9,76,4
8340,1512,-160,1512,8,76,5
8345,1520,-144,1496,8,76,5
8350,1520,-144,1472,9,77,4
8355,1512,-168,1488,9,77,6
8360,1512,-168,1480,9,75,3
8365,1504,-160,1504,10,75,4
8370,1512,-160,1480,10,75,4
8375,1504,-152,1480,10,77,3
8380,1504,-152,1504,9,77,4
8385,1504,-144,1488,7,76,3
8390,1512,-144,1464,7,77,2
8395,1512,-160,1472,5,77,1
8400,1496,-160,1480,3,78,3
8405,1520,-176,1488,1,78,3
8410,1504,-168,1520,0,77,2
8415,1496,-152,1488,-1,76,3
8420,1512,-168,1520,-2,76,3
8425,1512,-176,1504,-2,75,3
8430,1504,-176,1480,-3,72,4
8435,1496,-184,1512,-2,72,3
8440,1520,-176,1496,-1,72,1
8445,1496,-176,1456,-1,72,0
8450,1520,-184,1504,-3,73,0
8455,1496,-168,1512,-4,74,-1
8460,1480,-168,1496,-5,75,-4
8465,1496,-144,1488,-8,74,-5
8470,1488,-176,1488,-9,74,-5
8475,1512,-200,1528,-13,72,-4
8480,1504,-176,1504,-14,73,-5
8485,1512,-184,1480,-16,73,-6
8490,1488,-176,1496,-19,72,-5
8495,1456,-152,1576,-19,71,-5
8500,1512,-184,1496,-20,72,-5
8505,1496,-160,1520,-22,72,-4
8510,1520,-160,1520,-22,72,-6
8515,1512,-176,1496,-22,72,-8
8520,1504,-184,1488,-23,71,-7
8525,1504,-168,1496,-22,69,-6
8530,1488,-192,1496,-22,70,-6
8535,1504,-160,1496,-20,71,-6
8540,1480,-152,1504,-20,70,-6
8545,1488,-168,1504,-18,70,-4
8550,1512,-176,1496,-16,69,-4
8555,1488,-160,1504,-15,69,-3
8560,1512,-160,1480,-12,69,-4
8565,1512,-192,1496,-9,68,-3
8570,1512,-136,1480,-8,67,-2
8575,1520,-160,1488,-8,68,-2
8580,1512,-152,1488,-7,66,-2
8585,1520,-168,1480,-6,68,-2
8590,1520,-160,1496,-4,68,-2
8595,1496,-160,1504,-2,67,-1
8600,1496,-176,1496,-3,68,-1
8605,1512,-144,1448,-2,67,-1
8610,1496,-152,1496,-1,67,1
8615,1496,-176,1496,-2,70,0
8620,1504,-160,1512,-2,69,-1
8625,1480,-160,1504,-2,68,1
8630,1496,-168,1496,-3,69,1
8635,1504,-168,1536,-2,70,1
8640,1496,-160,1488,-2,69,0
8645,1520,-184,1520,-2,69,-2
8650,1520,-176,1456,-2,70,-1
8655,1496,-184,1520,-3,70,-2
8660,1504,-176,1488,-5,69,-1
8665,1504,-176,1496,-5,71,0
8670,1512,-176,1480,-4,71,0
8675,1496,-168,1472,-4,70,0
8680,1528,-176,1504,-3,70,0
8685,1528,-168,1480,-5,70,0
8690,1496,-152,1512,-6,71,-1
8695,1504,-168,1480,-6,71,-1
8700,1520,-160,1520,-5,70,-1
8705,1512,-160,1472,-5,70,0
8710,1488,-128,1408,-5,69,-1
8715,1512,-160,1504,-5,69,-1
8720,1504,-152,1496,-5,70,-3
8725,1512,-168,1504,-5,72,-2
8730,1480,-144,1496,-5,71,-1
8735,1504,-160,1504,-6,70,-1
8740,1528,-184,1504,-6,70,-1
8745,1520,-200,1464,-6,71,-3
8750,1512,-160,1504,-6,71,-2
8755,1504,-152,1480,-5,72,-2
8760,1512,-168,1520,-3,72,-2
8765,1520,-160,1528,-4,73,-3
8770,1520,-192,1504,-4,73,-4
8775,1496,-160,1504,-4,72,-3
8780,1520,-168,1496,-3,73,-3
8785,1496,-152,1472,-2,75,-3
8790,1496,-168,1488,-3,75,-3
8795,1496,-136,1496,-3,74,-1
8800,1520,-160,1504,-3,75,-2
8805,1504,-168,1496,-3,75,-1
8810,1496,-160,1520,-2,76,0
8815,1504,-160,1456,-3,77,0
8820,1488,-168,1496,-3,77,-2
8825,1496,-168,1472,-4,78,-2
8830,1504,-176,1520,-4,79,-1
8835,1504,-176,1472,-4,80,0
8840,1504,-160,1488,-4,80,-1
8845,1480,-144,1488,-3,80,1
8850,1504,-136,1520,-3,80,2
8855,1504,-184,1496,-4,81,2
8860,1496,-160,1480,-2,81,3
8865,1472,-168,1504,-1,80,2
8870,1488,-160,1488,0,79,2
8875,1496,-144,1528,0,79,2
8880,1504,-168,1496,1,79,2
8885,1496,-168,1496,2,78,2
8890,1504,-176,1504,4,78,3
8895,1488,-144,1512,5,79,4
8900,1504,-168,1512,3,79,3
8905,1504,-160,1520,2,80,3
8910,1520,-168,1496,0,81,3
8915,1496,-152,1504,0,82,3
8920,1504,-152,1504,1,82,4
8925,1512,-160,1504,1,82,4
8930,1512,-224,1504,4,82,3
8935,1520,-160,1488,4,81,4
8940,1488,-136,1504,7,82,5
8945,1496,-176,1520,8,83,6
8950,1528,-152,1488,9,82,8
8955,1488,-168,1504,10,83,6
8960,1496,-176,1512,9,83,8
8965,1488,-176,1528,9,84,9
8970,1488,-136,1488,9,85,9
8975,1488,-168,1496,8,83,8
8980,1520,-160,1496,5,81,8
8985,1512,-160,1464,5,81,8
8990,1512,-152,1472,3,80,8
8995,1520,-144,1464,1,77,7
9000,1512,-152,1472,2,75,6
9005,1496,-152,1496,0,74,4
9010,1512,-192,1488,-1,71,2
9015,1512,-160,1488,-2,70,0
9020,1488,-176,1504,-2,73,0
9025,1512,-184,1488,-2,72,-1
9030,1496,-168,1512,-2,72,0
9035,1488,-152,1496,1,73,-1
9040,1520,-176,1496,1,74,1
9045,1472,-144,1512,3,74,1
9050,1496,-152,1512,6,76,1
9055,1480,-152,1512,7,77,2
9060,1504,-160,1520,9,77,1
9065,1480,-144,1536,10,78,3
9070,1504,-160,1496,12,77,5
9075,1536,-152,1488,12,79,4
9080,1512,-168,1504,13,78,4
9085,1480,-160,1480,14,77,3
9090,1504,-136,1488,12,77,3
9095,1496,-160,1464,12,76,6
9100,1496,-160,1512,11,77,6
9105,1496,-152,1496,8,79,6
9110,1480,-160,1496,8,76,6
9115,1496,-160,1504,7,77,6
9120,1480,-136,1520,5,77,6
9125,1496,-128,1512,4,78,6
9130,1504,-168,1488,2,76,8
9135,1496,-168,1504,1,77,7
9140,1512,-176,1504,0,77,7
9145,1552,-160,1528,0,77,6
9150,1504,-152,1496,-1,78,6
9155,1472,-152,1512,-1,77,5
9160,1488,-168,1512,0,78,5
9165,1504,-136,1520,0,77,4
9170,1488,-144,1488,2,77,4
9175,1488,-152,1520,1,77,4
9180,1488,-176,1512,0,77,4
9185,1488,-144,1504,0,76,3
9190,1512,-184,1520,-2,76,2
9195,1488,-144,1512,-3,75,1
9200,1488,-104,1472,-3,77,4
9205,1488,-160,1504,0,77,7
9210,1520,-192,1512,0,74,3
9215,1472,-144,1504,-1,74,2
9220,1480,-168,1504,-3,74,0
9225,1472,-160,1512,-3,73,0
9230,1488,-176,1496,-2,73,-2
9235,1496,-152,1504,-3,76,-2
9240,1488,-176,1496,-1,77,-3
9245,1464,-144,1528,-1,77,-3
9250,1520,-168,1528,-1,78,-1
9255,1488,-160,1536,-3,76,-4
9260,1496,-160,1512,-5,76,-4
9265,1496,-144,1520,-8,77,-5
9270,1480,-160,1480,-10,77,-4
9275,1504,-152,1528,-13,77,-4
9280,1488,-168,1488,-13,76,-6
9285,1496,-168,1504,-13,76,-4
9290,1504,-160,1496,-13,74,-5
9295,1504,-144,1504,-14,73,-5
9300,1480,-168,1496,-14,72,-4
9305,1480,-176,1504,-14,71,-5
9310,1504,-160,1496,-14,70,-7
9315,1496,-168,1504,-12,71,-5
9320,1504,-144,1536,-13,70,-4
9325,1504,-160,1512,-11,70,-6
9330,1488,-128,1512,-10,69,-5
9335,1488,-152,1528,-10,69,-4
9340,1512,-176,1480,-9,68,-4
9345,1512,-144,1504,-7,71,-5
9350,1488,-136,1480,-6,69,-4
9355,1488,-160,1512,-5,71,-4
9360,1480,-168,1520,-5,70,-3
9365,1528,-152,1560,-4,69,-2
9370,1488,-160,1504,-4,71,-1
9375,1512,-152,1512,-4,72,-2
9380,1512,-152,1504,-3,72,0
9385,1480,-136,1472,-2,72,-1
9390,1488,-152,1520,-1,72,0
9395,1480,-144,1512,0,73,1
9400,1480,-144,1536,0,71,1
9405,1496,-168,1504,1,72,2
9410,1504,-152,1512,1,71,1
9415,1480,-160,1504,0,72,1
9420,1488,-176,1488,0,72,2
9425,1496,-160,1536,0,72,2
9430,1504,-128,1504,1,72,1
9435,1504,-168,1504,0,73,1
9440,1480,-152,1504,0,72,0
9445,1496,-144,1512,1,73,0
9450,1520,-152,1496,0,73,1
9455,1504,-160,1512,0,72,0
9460,1504,-160,1504,-2,73,1
9465,1488,-152,1496,-1,73,0
9470,1488,-144,1496,0,73,1
9475,1496,-152,1512,-1,73,2
9480,1496,-160,1496,-3,74,1
9485,1480,-176,1496,-2,74,1
9490,1496,-144,1520,-3,75,1
9495,1480,-136,1496,-4,75,2
9500,1496,-152,1504,-4,76,3
9505,1480,-152,1488,-6,77,1
9510,1488,-152,1504,-6,77,2
9515,1520,-184,1520,-6,78,4
9520,1496,-144,1504,-7,79,1
9525,1480,-168,1512,-9,80,2
9530,1488,-168,1488,-7,78,4
9535,1488,-168,1528,-6,79,4
9540,1496,-168,1488,-6,79,2
9545,1480,-136,1504,-5,78,3
9550,1504,-144,1504,-4,79,1
9555,1496,-168,1496,-5,78,3
9560,1504,-176,1528,-4,77,3
9565,1496,-192,1504,-5,78,3
9570,1496,-144,1504,-5,79,3
9575,1512,-160,1504,-5,77,1
9580,1504,-192,1488,-6,77,2
9585,1480,-136,1512,-6,78,1
9590,1488,-144,1520,-7,77,2
9595,1504,-152,1520,-8,78,2
9600,1464,-136,1496,-8,78,2
9605,1480,-136,1512,-9,77,1
9610,1488,-160,1488,-10,77,2
9615,1496,-136,1528,-12,79,1
9620,1472,-152,1520,-11,76,2
9625,1496,-176,1504,-12,75,2
9630,1496,-160,1488,-12,74,0
9635,1496,-152,1528,-10,75,2
9640,1472,-144,1520,-8,73,1
9645,1488,-184,1488,-7,74,2
9650,1464,-144,1512,-6,72,1
9655,1496,-160,1504,-3,71,-1
9660,1472,-144,1504,-3,72,0
9665,1496,-136,1512,-1,73,1
9670,1480,-144,1488,-2,72,-1
9675,1512,-152,1488,-3,73,-1
9680,1496,-136,1520,-4,74,0
9685,1488,-144,1536,-5,74,-1
9690,1496,-192,1496,-5,74,-2
9695,1504,-168,1520,-5,74,-4
9700,1496,-160,1504,-6,73,-4
9705,1488,-120,1504,-6,72,-3
9710,1472,-128,1488,-6,70,-3
9715,1480,-160,1520,-5,70,-2
9720,1488,-160,1488,-4,70,-3
9725,1488,-160,1504,-2,70,-3
9730,1488,-160,1520,-3,70,-3
9735,1488,-168,1512,-4,70,-2
9740,1504,-168,1520,-5,69,-2
9745,1496,-160,1496,-5,70,-3
9750,1480,-136,1504,-7,70,-3
9755,1488,-168,1512,-6,70,-4
9760,1504,-176,1496,-7,72,-3
9765,1464,-152,1512,-8,73,-3
9770,1496,-168,1512,-8,71,-6
9775,1496,-160,1488,-9,71,-7
9780,1488,-152,1512,-8,71,-7
9785,1512,-168,1512,-8,70,-7
9790,1520,-168,1496,-9,71,-7
9795,1504,-160,1544,-9,72,-9
9800,1488,-208,1544,-7,72,-9
9805,1528,-176,1512,-4,71,-7
9810,1488,-128,1512,-2,71,-8
9815,1472,-160,1496,-3,71,-6
9820,1504,-160,1496,1,70,-5
9825,1512,-152,1520,1,70,-4
9830,1496,-160,1496,4,70,-6
9835,1504,-128,1520,3,69,-4
9840,1496,-136,1512,5,70,-2
9845,1480,-136,1512,5,70,-3
9850,1464,-144,1520,6,70,-2
9855,1488,-128,1496,6,69,-1
9860,1488,-152,1512,4,70,-2
9865,1488,-144,1528,4,70,-1
9870,1496,-152,1528,3,69,1
9875,1504,-152,1496,3,69,2
9880,1472,-136,1536,2,67,2
9885,1480,-136,1488,0,68,1
9890,1488,-160,1512,-2,67,2
9895,1520,-152,1536,-3,68,2
9900,1480,-184,1512,-4,69,2
9905,1472,-168,1528,-5,71,3
9910,1448,-152,1504,-5,71,2
9915,1472,-152,1528,-6,72,2
9920,1472,-136,1488,-6,73,3
9925,1504,-160,1520,-5,74,2
9930,1472,-176,1528,-5,74,2
9935,1488,-136,1504,-4,74,1
9940,1512,-168,1512,-3,75,0
9945,1488,-152,1504,-4,74,1
9950,1496,-144,1496,-5,73,1
9955,1496,-136,1504,-4,74,0
9960,1488,-144,1536,-6,75,-1
9965,1512,-144,1504,-8,75,-1
9970,1464,-144,1520,-9,74,-2
9975,1480,-144,1488,-10,73,-2
9980,1496,-144,1472,-10,73,-1
9985,1488,-168,1472,-11,74,-1
9990,1480,-168,1512,-8,73,1
9995,1472,-144,1496,-7,72,0
10000,1472,-160,1512,-8,73,0
10005,1504,-144,1512,-7,72,-2
10010,1480,-168,1520,-8,72,-2
10015,1464,-120,1496,-9,73,-2
10020,1480,-144,1536,-11,73,-3
10025,1496,-168,1512,-10,74,-4
10030,1448,-128,1512,-13,74,-4
10035,1464,-152,1520,-15,73,-6
10040,1488,-160,1520,-15,74,-5
10045,1472,-160,1512,-18,74,-5
10050,1504,-168,1512,-19,73,-5
10055,1480,-144,1504,-21,74,-5
10060,1512,-144,1488,-21,74,-4
10065,1496,-168,1520,-20,75,-5
10070,1480,-152,1520,-21,75,-5
10075,1496,-144,1536,-20,74,-4
10080,1480,-168,1512,-19,76,-3
10085,1472,-136,1504,-17,75,-3
10090,1472,-152,1512,-18,76,-3
10095,1488,-168,1488,-15,76,-3
10100,1480,-144,1536,-16,76,-3
10105,1504,-160,1496,-15,77,-3
10110,1456,-160,1520,-13,77,-4
10115,1480,-152,1512,-12,76,-3
10120,1480,-144,1536,-11,75,-3
10125,1488,-208,1544,-12,76,-1
10130,1488,-152,1528,-11,75,-2
10135,1480,-160,1528,-10,74,0
10140,1480,-128,1504,-9,74,-1
10145,1496,-160,1504,-7,73,-2
10150,1480,-144,1528,-8,74,0
10155,1496,-144,1480,-7,73,0
10160,1496,-152,1496,-7,74,1
10165,1504,-168,1504,-5,73,0
10170,1520,-176,1520,-4,73,0
10175,1488,-168,1528,-3,72,0
10180,1496,-136,1488,-5,73,2
10185,1488,-160,1520,-5,72,1
10190,1488,-160,1496,-6,73,0
10195,1496,-152,1520,-6,71,1
10200,1496,-152,1512,-7,72,0
10205,1480,-152,1512,-6,73,2
10210,1496,-160,1512,-6,73,3
10215,1496,-136,1520,-7,72,1
10220,1504,-152,1520,-7,72,1
10225,1488,-160,1528,-6,71,0
10230,1480,-160,1520,-8,71,0
10235,1464,-160,1448,-9,72,-1
10240,1480,-136,1472,-10,71,-1
10245,1456,-144,1520,-11,70,-1
10250,1488,-152,1520,-11,71,-1
10255,1496,-152,1512,-11,71,-2
10260,1448,-136,1512,-13,71,-3
10265,1488,-152,1520,-14,72,-2
10270,1472,-160,1504,-13,72,-1
10275,1488,-128,1504,-13,72,-3
10280,1488,-168,1512,-14,71,-3
10285,1488,-176,1536,-14,72,-2
10290,1496,-152,1536,-13,73,-1
10295,1480,-160,1496,-13,74,-3
10300,1488,-160,1488,-14,73,-2
10305,1504,-136,1504,-12,73,-3
10310,1488,-144,1520,-13,74,-3
10315,1472,-168,1528,-12,72,-2
10320,1480,-168,1512,-11,71,-3
10325,1496,-136,1480,-10,73,-2
10330,1488,-168,1488,-11,73,-2
10335,1496,-160,1512,-12,74,-1
10340,1496,-160,1504,-11,73,-2
10345,1464,-152,1536,-12,75,-1
10350,1496,-168,1520,-12,75,-1
10355,1496,-144,1520,-12,75,0
10360,1480,-160,1512,-14,76,-1
10365,1488,-152,1528,-12,76,-1
10370,1488,-160,1528,-14,77,0
10375,1480,-128,1528,-15,75,0
10380,1512,-144,1480,-14,76,0
10385,1496,-160,1512,-14,77,1
10390,1488,-176,1520,-13,76,2
10395,1480,-168,1520,-13,74,2
10400,1464,-144,1480,-12,74,2
10405,1496,-152,1488,-11,74,2
10410,1480,-152,1512,-10,74,2
10415,1496,-152,1504,-8,75,1
10420,1472,-136,1528,-7,75,0
10425,1472,-144,1520,-6,75,0
10430,1464,-152,1520,-4,75,0
10435,1488,-144,1536,-6,74,-1
10440,1512,-144,1512,-8,76,-1
10445,1472,-128,1520,-9,75,-2
10450,1504,-160,1496,-10,74,-1
10455,1480,-152,1528,-9,74,-3
10460,1472,-152,1528,-11,73,-2
10465,1488,-136,1536,-9,72,-4
10470,1472,-176,1512,-9,73,-3
10475,1488,-168,1520,-7,71,-4
10480,1488,-144,1488,-6,70,-3
10485,1496,-152,1496,-5,70,-2
10490,1480,-168,1512,-6,69,-2
10495,1488,-152,1528,-6,68,-2
10500,1488,-168,1496,-7,71,-4
10505,1504,-168,1512,-8,71,-5
10510,1480,-184,1504,-9,71,-6
10515,1488,-168,1504,-10,71,-4
10520,1496,-184,1512,-10,72,-4
10525,1496,-160,1496,-11,72,-4
10530,1504,-144,1512,-10,72,-5
10535,1472,-152,1528,-11,74,-6
10540,1488,-152,1496,-11,75,-7
10545,1496,-152,1480,-10,75,-7
10550,1488,-168,1520,-10,74,-7
10555,1464,-176,1496,-9,74,-9
10560,1480,-136,1512,-9,74,-7
10565,1480,-168,1544,-8,74,-8
10570,1496,-144,1512,-7,73,-6
10575,1480,-152,1512,-5,73,-5
10580,1488,-160,1520,-2,72,-5
10585,1504,-160,1488,1,71,-6
10590,1472,-168,1520,1,71,-5
10595,1504,-152,1512,2,71,-4
10600,1480,-152,1496,1,71,-5
10605,1496,-136,1496,3,71,-3
10610,1488,-128,1512,5,70,-2
10615,1488,-120,1520,4,71,0
10620,1488,-136,1528,4,69,1
10625,1480,-136,1504,3,70,1
10630,1480,-144,1520,3,69,2
10635,1488,-144,1520,4,70,1
10640,1456,-152,1544,3,71,0
10645,1480,-152,1512,3,71,4
10650,1496,-160,1504,3,72,5
10655,1496,-160,1536,4,73,4
10660,1472,-128,1512,4,74,4
10665,1488,-176,1536,4,74,4
10670,1480,-152,1520,5,74,5
10675,1504,-160,1520,5,77,4
10680,1464,-168,1520,5,76,4
10685,1488,-152,1512,5,78,4
10690,1496,-152,1536,4,77,3
10695,1488,-152,1504,4,78,3
10700,1480,-160,1512,4,80,3
10705,1480,-136,1544,3,79,3
10710,1496,-152,1528,2,80,2
10715,1496,-152,1520,0,82,1
10720,1472,-136,1496,-4,82,1
10725,1536,-128,1520,-5,83,0
10730,1488,-160,1536,-8,82,0
10735,1496,-144,1496,-9,82,0
10740,1512,-160,1520,-10,81,-2
10745,1488,-152,1512,-11,81,-1
10750,1504,-168,1520,-10,80,-1
10755,1472,-176,1496,-8,80,-1
10760,1480,-152,1528,-8,77,-1
10765,1504,-160,1528,-7,75,-1
10770,1504,-136,1552,-7,73,-3
10775,1472,-152,1528,-8,74,-4
10780,1456,-128,1528,-9,73,-4
10785,1488,-176,1520,-10,72,-5
10790,1472,-144,1520,-11,74,-7
10795,1464,-152,1504,-7,73,-9
10800,1496,-152,1528,-7,73,-8
10805,1480,-152,1520,-11,74,-8
10810,1456,-144,1536,-15,72,-8
10815,1472,-160,1504,-18,73,-5
10820,1496,-184,1512,-20,72,-5
10825,1472,-144,1536,-19,72,-6
10830,1496,-160,1504,-19,71,-6
10835,1488,-168,1528,-18,71,-5
10840,1464,-152,1528,-18,71,-6
10845,1480,-152,1528,-16,71,-6
10850,1472,-152,1528,-17,70,-5
10855,1488,-144,1520,-15,71,-5
10860,1480,-144,1512,-13,71,-6
10865,1448,-144,1520,-13,70,-5
10870,1472,-152,1528,-12,70,-5
10875,1472,-152,1504,-13,69,-4
10880,1488,-136,1528,-11,72,-4
10885,1472,-152,1512,-11,71,-4
10890,1480,-144,1528,-11,70,-4
10895,1480,-120,1528,-12,70,-4
10900,1480,-160,1536,-11,70,-2
10905,1480,-136,1520,-10,72,-2
10910,1472,-136,1512,-10,71,-2
10915,1472,-144,1536,-9,71,-2
10920,1472,-160,1520,-9,71,-1
10925,1480,-168,1536,-7,71,-1
10930,1472,-152,1496,-7,70,-3
10935,1480,-168,1504,-7,71,-1
10940,1480,-144,1528,-7,71,0
10945,1488,-160,1512,-7,71,0
10950,1480,-136,1544,-6,71,0
10955,1496,-160,1496,-8,71,1
10960,1480,-144,1520,-8,70,0
10965,1496,-168,1528,-7,70,-1
10970,1512,-168,1504,-8,69,-1
10975,1488,-192,1528,-9,69,-2
10980,1472,-136,1520,-8,69,0
10985,1472,-168,1512,-8,68,-1
10990,1480,-120,1504,-8,66,-1
10995,1480,-160,1536,-9,68,-1
11000,1472,-144,1488,-10,69,0
11005,1488,-136,1528,-11,69,1
11010,1472,-152,1512,-12,70,-2
11015,1488,-160,1496,-12,70,0
11020,1488,-152,1512,-13,69,-1
11025,1480,-152,1520,-13,69,-2
11030,1480,-128,1536,-13,70,-3
11035,1496,-152,1520,-14,69,-3
11040,1496,-160,1528,-14,70,-2
11045,1480,-160,1512,-15,70,-2
11050,1496,-152,1512,-13,70,-3
11055,1480,-168,1512,-13,70,-3
11060,1496,-152,1520,-12,70,-3
11065,1472,-152,1520,-12,71,-4
11070,1480,-176,1520,-10,71,-3
11075,1480,-128,1528,-11,70,-4
11080,1496,-184,1520,-9,70,-2
11085,1496,-160,1528,-10,70,-3
11090,1464,-160,1536,-10,71,-2
11095,1480,-152,1504,-10,70,-3
11100,1496,-128,1528,-11,71,-3
11105,1488,-136,1496,-11,71,-2
11110,1480,-152,1536,-12,70,-2
11115,1488,-144,1496,-10,70,-3
11120,1464,-136,1520,-12,69,-3
11125,1464,-152,1504,-11,71,-1
11130,1488,-144,1488,-12,70,-1
11135,1480,-152,1536,-12,69,-2
11140,1456,-144,1520,-12,69,-2
11145,1488,-144,1528,-11,69,-2
11150,1480,-176,1536,-11,68,-2
11155,1480,-176,1528,-10,68,-2
11160,1480,-152,1512,-9,69,-2
11165,1480,-160,1512,-7,69,-1
11170,1496,-152,1512,-7,67,-2
11175,1512,-152,1480,-6,68,-2
11180,1480,-160,1520,-6,66,-2
11185,1488,-136,1512,-5,67,-2
11190,1488,-128,1528,-5,69,-1
11195,1480,-160,1496,-7,70,-3
11200,1472,-128,1520,-10,69,-3
11205,1488,-128,1528,-10,70,-4
11210,1464,-144,1496,-12,71,-4
11215,1560,-120,1536,-12,70,-4
11220,1472,-144,1528,-11,69,-5
11225,1480,-144,1496,-12,71,-4
11230,1488,-136,1528,-10,69,-3
11235,1472,-152,1520,-8,69,-4
11240,1464,-152,1504,-7,68,-3
11245,1464,-152,1504,-8,67,-3
11250,1480,-144,1520,-7,67,-5
11255,1488,-152,1520,-8,69,-6
11260,1496,-176,1536,-9,68,-7
11265,1464,-184,1496,-10,68,-6
11270,1472,-144,1536,-9,68,-6
11275,1456,-184,1528,-8,68,-6
11280,1472,-136,1496,-9,70,-6
11285,1488,-160,1528,-8,70,-6
11290,1480,-176,1520,-9,70,-5
11295,1480,-144,1512,-9,70,-7
11300,1480,-136,1528,-10,71,-8
11305,1464,-128,1520,-10,71,-8
11310,1472,-152,1528,-9,71,-9
11315,1496,-160,1536,-10,71,-9
11320,1488,-160,1528,-9,70,-9
11325,1440,-152,1496,-8,70,-7
11330,1488,-128,1504,-5,70,-6
11335,1496,-144,1496,-3,70,-6
11340,1496,-168,1528,-1,69,-6
11345,1480,-152,1512,0,69,-5
11350,1480,-128,1512,2,69,-5
11355,1488,-152,1512,2,69,-5
11360,1472,-128,1504,4,70,-3
11365,1488,-152,1520,3,70,-2
11370,1480,-144,1520,1,69,-2
11375,1504,-168,1520,0,68,-1
11380,1472,-144,1528,-1,69,1
11385,1472,-160,1512,-1,69,2
11390,1464,-136,1512,-2,67,1
11395,1496,-152,1520,-3,67,1
11400,1472,-136,1504,-4,67,2
11405,1464,-144,1504,-5,68,1
11410,1488,-136,1528,-7,67,2
11415,1464,-144,1536,-7,69,3
11420,1456,-152,1536,-8,69,3
11425,1464,-136,1512,-7,69,3
11430,1488,-168,1520,-7,68,1
11435,1472,-136,1480,-8,69,3
11440,1480,-160,1528,-7,70,2
11445,1480,-152,1520,-7,71,2
11450,1448,-136,1536,-6,72,1
11455,1472,-128,1528,-5,73,2
11460,1480,-168,1512,-6,73,1
11465,1472,-136,1512,-6,72,-1
11470,1472,-152,1528,-7,73,-1
11475,1488,-144,1512,-7,74,-1
11480,1472,-144,1488,-9,74,-2
11485,1464,-144,1504,-10,74,-2
11490,1504,-152,1528,-11,73,-2
11495,1480,-136,1528,-13,73,-2
11500,1480,-144,1512,-12,72,-3
11505,1480,-136,1512,-13,72,-2
11510,1472,-160,1512,-13,72,-1
11515,1472,-160,1512,-10,70,-1
11520,1480,-168,1504,-10,70,-2
11525,1488,-128,1496,-9,70,-1
11530,1488,-128,1520,-8,70,-1
11535,1472,-144,1512,-9,70,-3
11540,1472,-152,1520,-11,71,-3
11545,1464,-192,1528,-12,72,-4
11550,1488,-152,1528,-14,72,-4
11555,1480,-160,1512,-13,72,-6
11560,1464,-128,1512,-15,72,-5
11565,1480,-136,1528,-18,71,-3
11570,1472,-160,1520,-18,72,-4
11575,1488,-168,1512,-19,71,-5
11580,1472,-144,1536,-20,70,-5
11585,1472,-128,1520,-19,69,-5
11590,1464,-128,1536,-20,69,-6
11595,1464,-144,1528,-19,69,-6
11600,1456,-168,1536,-18,69,-6
11605,1488,-168,1536,-18,68,-6
11610,1496,-168,1528,-17,69,-5
11615,1480,-160,1520,-16,68,-4
11620,1448,-152,1512,-13,69,-5
11625,1488,-136,1520,-12,69,-4
11630,1456,-144,1512,-12,70,-5
11635,1480,-144,1512,-12,70,-4
11640,1472,-160,1504,-10,70,-3
11645,1504,-112,1504,-10,70,-3
11650,1472,-144,1544,-9,70,-3
11655,1496,-152,1528,-9,70,-2
11660,1464,-128,1488,-9,71,-3
11665,1488,-128,1528,-9,72,-3
11670,1496,-120,1512,-8,70,-3
11675,1480,-120,1520,-8,70,-1
11680,1464,-152,1520,-8,71,0
11685,1480,-160,1512,-7,71,0
11690,1464,-152,1512,-8,70,-1
11695,1464,-152,1520,-6,70,0
11700,1480,-168,1520,-5,69,0
11705,1456,-136,1504,-6,70,0
11710,1472,-112,1520,-7,70,0
11715,1480,-152,1528,-8,71,0
11720,1496,-176,1512,-9,69,0
11725,1480,-136,1488,-9,70,-1
11730,1472,-160,1528,-10,70,0
11735,1464,-168,1528,-10,70,0
11740,1472,-160,1520,-10,70,-1
11745,1472,-160,1512,-10,71,-1
11750,1480,-168,1520,-10,70,-1
11755,1472,-152,1520,-10,68,-1
11760,1472,-160,1536,-12,70,-2
11765,1472,-144,1512,-12,69,-2
11770,1504,-168,1528,-14,71,-3
11775,1488,-168,1520,-13,72,-3
11780,1480,-168,1544,-14,72,-3
11785,1472,-144,1528,-15,71,-2
11790,1488,-160,1496,-14,71,-2
11795,1496,-160,1528,-14,71,-1
11800,1472,-136,1536,-13,71,-2
11805,1480,-152,1520,-13,70,-2
11810,1464,-128,1528,-13,71,-2
11815,1488,-168,1520,-11,71,-4
11820,1472,-160,1512,-11,71,-3
11825,1488,-160,1488,-10,71,-2
11830,1464,-152,1528,-10,71,-4
11835,1472,-144,1528,-9,71,-3
11840,1464,-144,1520,-10,72,-2
11845,1472,-152,1512,-10,72,-1
11850,1472,-144,1520,-10,72,-2
11855,1448,-168,1544,-10,72,-4
11860,1464,-144,1536,-12,73,-3
11865,1512,-144,1488,-12,71,-3
11870,1488,-152,1512,-13,72,-1
11875,1480,-160,1520,-12,71,-1
11880,1480,-152,1512,-12,71,0
11885,1488,-152,1512,-14,71,-1
11890,1488,-160,1512,-13,70,-1
11895,1464,-144,1528,-14,70,-2
11900,1488,-152,1528,-14,70,-1
11905,1472,-144,1528,-12,70,-2
11910,1472,-152,1536,-10,69,-1
11915,1472,-136,1528,-9,70,-1
11920,1480,-144,1512,-8,68,1
11925,1472,-144,1512,-7,68,-1
11930,1472,-144,1528,-6,68,-1
11935,1472,-136,1496,-8,69,-2
11940,1472,-128,1520,-9,72,-3
11945,1480,-152,1528,-9,71,-2
11950,1496,-144,1520,-10,72,-2
11955,1488,-144,1528,-11,71,-3
11960,1496,-160,1528,-12,72,-3
11965,1488,-168,1520,-11,70,-3
11970,1456,-144,1528,-11,70,-3
11975,1448,-128,1528,-10,71,-4
11980,1480,-184,1520,-9,70,-2
11985,1480,-168,1528,-8,68,-2
11990,1464,-160,1536,-8,69,-2
11995,1480,-160,1512,-7,68,-2
12000,1480,-176,1512,-7,68,-4
12005,1456,-152,1512,-10,68,-5
12010,1472,-152,1520,-11,69,-4
12015,1456,-152,1512,-11,68,-6
12020,1488,-160,1528,-12,70,-6
12025,1472,-144,1520,-11,71,-6
12030,1512,-168,1528,-11,70,-6
12035,1472,-136,1504,-11,70,-7
12040,1456,-152,1536,-10,71,-8
12045,1504,-160,1520,-10,70,-8
12050,1472,-136,1520,-12,71,-8
12055,1480,-152,1504,-10,71,-8
12060,1480,-152,1528,-11,70,-8
12065,1496,-152,1504,-9,71,-8
12070,1480,-120,1496,-8,71,-8
12075,1480,-160,1520,-5,69,-6
12080,1480,-152,1512,-3,70,-7
12085,1472,-144,1536,-2,69,-6
12090,1456,-136,1512,0,69,-4
12095,1472,-152,1528,2,67,-5
12100,1472,-120,1528,2,68,-4
12105,1488,-152,1520,2,68,-3
12110,1472,-136,1504,3,69,-2
12115,1480,-144,1504,2,67,-2
12120,1496,-160,1544,0,67,-1
12125,1464,-144,1528,-1,66,-1
12130,1480,-144,1536,-2,67,1
12135,1472,-152,1520,-3,69,1
12140,1456,-128,1528,-4,69,1
12145,1456,-160,1512,-5,68,1
12150,1472,-160,1496,-6,67,1
12155,1488,-152,1528,-6,67,2
12160,1472,-136,1512,-7,67,2
12165,1480,-144,1512,-7,68,1
12170,1472,-152,1520,-8,69,1
12175,1480,-168,1528,-8,69,1
12180,1480,-144,1520,-7,70,1
12185,1464,-144,1512,-7,70,2
12190,1456,-144,1520,-8,71,0
12195,1520,-112,1544,-8,70,2
12200,1488,-136,1512,-8,72,1
12205,1488,-144,1504,-9,72,1
12210,1488,-168,1552,-8,71,0
12215,1480,-160,1528,-9,71,-3
12220,1480,-136,1528,-9,70,-2
12225,1496,-144,1504,-10,71,-2
12230,1456,-152,1536,-11,73,-2
12235,1472,-160,1536,-13,71,-2
12240,1488,-152,1528,-13,72,-2
12245,1472,-136,1512,-15,72,-2
12250,1488,-160,1504,-14,72,-2
12255,1456,-152,1544,-13,69,-2
12260,1480,-136,1512,-13,69,-2
12265,1472,-160,1544,-12,69,-3
12270,1496,-160,1512,-11,69,-2
12275,1480,-152,1528,-10,70,-2
12280,1480,-136,1528,-11,70,-4
12285,1472,-160,1504,-11,69,-4
12290,1456,-120,1496,-11,69,-3
12295,1480,-152,1520,-11,70,-4
12300,1464,-136,1512,-14,71,-5
12305,1456,-152,1512,-15,71,-5
12310,1488,-144,1528,-17,71,-5
12315,1480,-168,1528,-18,71,-5
12320,1472,-176,1520,-19,70,-4
12325,1464,-144,1536,-20,70,-3
12330,1464,-152,1528,-20,68,-3
12335,1488,-144,1512,-18,69,-4
12340,1464,-128,1512,-18,69,-4
12345,1472,-160,1512,-17,68,-5
12350,1456,-128,1520,-16,67,-5
12355,1480,-160,1528,-14,66,-5
12360,1480,-144,1528,-14,67,-5
12365,1480,-128,1496,-13,68,-5
12370,1448,-152,1512,-11,68,-5
12375,1488,-168,1528,-11,68,-4
12380,1464,-136,1528,-10,67,-2
12385,1496,-152,1496,-10,68,-2
12390,1472,-152,1528,-9,69,-4
12395,1496,-152,1520,-8,69,-3
12400,1480,-152,1520,-8,69,-3
12405,1488,-136,1496,-9,68,-3
12410,1464,-136,1520,-9,71,-2
12415,1480,-176,1560,-9,70,-2
12420,1472,-152,1504,-8,70,-2
12425,1472,-144,1520,-7,71,-1
12430,1480,-152,1528,-7,69,-1
12435,1512,-144,1504,-7,69,0
12440,1472,-152,1512,-6,68,1
12445,1472,-152,1520,-7,68,0
12450,1504,-160,1528,-8,69,0
12455,1496,-152,1528,-7,69,-1
12460,1480,-152,1528,-8,69,0
12465,1496,-160,1568,-9,69,-1
12470,1472,-152,1520,-9,69,-1
12475,1472,-168,1544,-9,68,-1
12480,1480,-152,1520,-9,68,-1
12485,1472,-152,1520,-9,68,0
12490,1480,-152,1520,-8,67,-2
12495,1488,-152,1512,-9,66,0
12500,1472,-152,1488,-10,66,0
12505,1480,-160,1520,-11,66,-2
12510,1480,-152,1512,-11,67,-3
12515,1496,-168,1496,-11,68,-3
12520,1472,-152,1520,-14,69,-3
12525,1488,-160,1520,-14,68,-3
12530,1472,-136,1488,-15,69,-4
12535,1456,-144,1520,-15,69,-4
12540,1464,-136,1520,-15,69,-4
12545,1504,-168,1568,-16,70,-5
12550,1480,-168,1528,-15,69,-5
12555,1472,-160,1528,-13,68,-4
12560,1488,-152,1528,-13,69,-5
12565,1464,-144,1504,-12,69,-2
12570,1488,-160,1520,-12,70,-2
12575,1488,-168,1528,-12,69,-3
12580,1488,-160,1512,-10,70,-3
12585,1472,-144,1544,-10,70,-3
12590,1480,-168,1536,-9,70,-2
12595,1480,-128,1528,-11,70,-1
12600,1480,-160,1520,-11,70,-3
12605,1464,-136,1512,-10,70,-3
12610,1464,-152,1504,-11,69,-4
12615,1496,-144,1520,-12,69,-2
12620,1472,-168,1520,-12,69,-2
12625,1480,-184,1512,-13,70,-2
12630,1520,-128,1504,-12,68,-2
12635,1488,-144,1528,-13,70,-2
12640,1472,-160,1528,-12,70,-3
12645,1480,-152,1528,-13,69,-2
12650,1512,-168,1536,-12,68,-1
12655,1472,-144,1512,-11,68,-1
12660,1472,-160,1528,-10,67,0
12665,1488,-152,1520,-9,67,-1
12670,1496,-152,1528,-7,67,-1
12675,1488,-152,1536,-6,67,-1
12680,1448,-144,1552,-6,67,-2
12685,1488,-160,1520,-6,68,-3
12690,1480,-128,1520,-8,70,-3
12695,1472,-128,1496,-10,71,-5
12700,1480,-128,1520,-12,71,-5
12705,1496,-136,1520,-13,71,-5
12710,1464,-144,1512,-13,70,-6
12715,1504,-144,1480,-13,70,-7
12720,1496,-144,1472,-12,69,-6
12725,1480,-120,1520,-11,68,-5
12730,1472,-152,1520,-9,67,-2
12735,1480,-160,1496,-9,67,-2
12740,1464,-152,1528,-8,66,-4
12745,1480,-160,1528,-8,65,-6
12750,1472,-152,1536,-9,66,-5
12755,1488,-144,1520,-9,67,-5
12760,1480,-160,1536,-12,68,-7
12765,1456,-152,1528,-11,69,-7
12770,1456,-136,1504,-11,67,-8
12775,1464,-152,1512,-10,69,-7
12780,1488,-128,1520,-10,69,-7
12785,1488,-168,1520,-9,70,-7
12790,1480,-136,1512,-9,69,-8
12795,1472,-152,1520,-9,70,-10
12800,1472,-152,1528,-9,70,-8
12805,1464,-136,1520,-11,71,-8
12810,1480,-144,1512,-10,70,-8
12815,1488,-160,1520,-8,70,-7
12820,1504,-184,1504,-5,70,-8
12825,1464,-136,1536,-4,68,-7
12830,1472,-160,1520,-3,67,-7
12835,1472,-120,1520,-1,67,-6
12840,1480,-136,1536,0,66,-7
12845,1480,-120,1488,2,65,-6
12850,1528,-112,1504,2,64,-7
12855,1488,-120,1536,2,63,-6
12860,1472,-144,1512,1,62,-7
12865,1488,-128,1520,0,62,-6
12870,1480,-136,1504,0,62,-5
12875,1480,-168,1512,-1,61,-4
12880,1480,-160,1512,-2,61,-4
12885,1480,-128,1520,-2,61,-4
12890,1472,-152,1528,-3,61,-4
12895,1480,-144,1536,-4,60,-3
12900,1480,-128,1536,-5,60,-1
12905,1448,-152,1520,-7,62,0
12910,1488,-144,1512,-8,61,2
12915,1464,-136,1512,-10,62,0
12920,1464,-136,1544,-11,64,0
12925,1472,-128,1520,-11,63,-2
12930,1464,-160,1536,-12,64,-2
12935,1464,-136,1488,-11,63,-3
12940,1464,-160,1528,-10,65,-4
12945,1496,-144,1512,-8,65,-4
12950,1480,-136,1520,-7,65,-4
12955,1456,-160,1536,-5,66,-5
12960,1472,-152,1520,-6,65,-5
12965,1488,-144,1504,-5,66,-6
12970,1472,-136,1528,-5,66,-6
12975,1496,-128,1496,-5,67,-6
12980,1480,-136,1520,-7,66,-7
12985,1496,-152,1520,-8,68,-8
12990,1480,-120,1520,-8,67,-7
12995,1464,-144,1504,-9,66,-5
13000,1480,-176,1528,-8,66,-5
13005,1504,-144,1552,-6,65,-3
13010,1504,-136,1528,-7,66,-3
13015,1472,-152,1520,-7,66,-4
13020,1456,-120,1512,-6,67,-3
13025,1472,-152,1520,-7,67,-4
13030,1488,-152,1520,-7,67,-4
13035,1464,-152,1536,-7,68,-6
13040,1480,-144,1528,-9,68,-6
13045,1472,-144,1520,-9,67,-7
13050,1472,-144,1512,-11,67,-7
13055,1472,-120,1504,-13,69,-6
13060,1488,-168,1528,-15,69,-5
13065,1464,-160,1536,-15,68,-5
13070,1472,-176,1528,-14,68,-5
13075,1480,-152,1496,-15,68,-6
13080,1480,-128,1536,-15,67,-6
13085,1472,-128,1536,-14,67,-6
13090,1448,-144,1528,-15,67,-7
13095,1488,-152,1528,-15,65,-6
13100,1464,-128,1536,-15,67,-7
13105,1488,-152,1528,-14,67,-7
13110,1496,-144,1536,-14,65,-7
13115,1480,-144,1520,-14,67,-8
13120,1440,-104,1504,-14,68,-8
13125,1464,-136,1536,-13,69,-7
13130,1488,-152,1512,-14,69,-6
13135,1472,-152,1528,-14,69,-6
13140,1464,-112,1520,-14,69,-6
13145,1464,-144,1544,-13,68,-5
13150,1480,-136,1544,-13,70,-5
13155,1472,-136,1528,-13,71,-5
13160,1472,-136,1520,-12,70,-5
13165,1472,-152,1512,-11,70,-3
13170,1480,-152,1528,-12,71,-1
13175,1464,-128,1504,-11,71,-1
13180,1480,-112,1536,-12,70,-1
13185,1464,-168,1512,-12,69,0
13190,1480,-136,1528,-11,69,0
13195,1464,-144,1544,-11,69,2
13200,1504,-160,1528,-11,70,1
13205,1480,-120,1528,-10,68,2
13210,1480,-136,1504,-11,70,1
13215,1472,-152,1528,-10,68,1
13220,1472,-128,1528,-9,68,1
13225,1496,-128,1480,-9,67,0
13230,1488,-160,1536,-11,68,0
13235,1472,-152,1496,-9,67,-1
13240,1456,-128,1520,-10,67,0
13245,1472,-160,1512,-11,67,0
13250,1488,-160,1528,-11,67,-1
13255,1496,-152,1520,-10,68,-1
13260,1488,-176,1520,-11,67,-2
13265,1464,-160,1520,-13,67,-1
13270,1448,-160,1512,-12,67,-3
13275,1480,-168,1528,-13,67,-2
13280,1488,-152,1512,-13,68,-1
13285,1472,-160,1512,-14,68,-2
13290,1488,-152,1488,-13,68,-3
13295,1496,-168,1520,-16,69,-4
13300,1464,-144,1528,-15,67,-4
13305,1472,-152,1536,-15,68,-3
13310,1488,-144,1512,-15,68,-4
13315,1472,-136,1520,-16,69,-5
13320,1480,-160,1528,-14,69,-3
13325,1464,-160,1520,-14,68,-3
13330,1472,-136,1536,-13,67,-4
13335,1488,-160,1520,-12,68,-5
13340,1472,-168,1488,-11,68,-4
13345,1488,-144,1520,-9,68,-3
13350,1480,-128,1528,-8,69,-2
13355,1504,-168,1512,-10,68,-2
13360,1496,-176,1536,-9,67,-4
13365,1472,-160,1536,-8,67,-3
13370,1480,-152,1520,-9,66,-2
13375,1480,-152,1512,-9,68,-2
13380,1488,-144,1496,-10,69,-3
13385,1496,-168,1512,-10,68,-4
13390,1480,-160,1544,-11,68,-4
13395,1504,-176,1504,-11,68,-3
13400,1472,-152,1520,-11,69,-3
13405,1488,-128,1512,-11,70,-3
13410,1480,-152,1544,-10,69,-2
13415,1504,-152,1520,-11,69,-1
13420,1472,-160,1504,-11,67,-2
13425,1472,-152,1496,-12,67,-1
13430,1464,-120,1536,-12,67,-1
13435,1480,-152,1512,-10,67,-1
13440,1480,-160,1528,-8,67,-2
13445,1480,-160,1536,-6,68,-2
13450,1496,-136,1504,-7,66,-1
13455,1488,-168,1504,-5,66,-2
13460,1472,-144,1520,-4,66,-3
13465,1464,-128,1520,-5,68,-2
13470,1496,-112,1520,-6,68,-3
13475,1480,-160,1512,-7,69,-3
13480,1496,-128,1504,-9,69,-4
13485,1472,-136,1512,-9,69,-4
13490,1464,-112,1504,-9,69,-3
13495,1480,-136,1496,-9,71,-4
13500,1496,-176,1504,-8,70,-6
13505,1440,-144,1536,-8,69,-4
13510,1464,-152,1528,-8,69,-3
13515,1480,-152,1504,-6,70,-3
13520,1448,-168,1528,-6,67,-4
13525,1456,-152,1512,-5,65,-5
13530,1480,-168,1520,-6,65,-5
13535,1456,-168,1512,-8,67,-4
13540,1464,-160,1512,-8,67,-6
13545,1480,-160,1528,-10,68,-6
13550,1480,-136,1512,-12,67,-7
13555,1496,-168,1520,-10,67,-5
13560,1472,-152,1528,-10,69,-6
13565,1480,-136,1504,-9,70,-8
13570,1496,-152,1520,-8,69,-8
13575,1480,-144,1528,-8,69,-9
13580,1496,-152,1520,-7,69,-9
13585,1488,-152,1520,-6,69,-9
13590,1472,-144,1544,-6,70,-10
13595,1496,-168,1528,-5,70,-11
13600,1488,-144,1512,-4,69,-11
13605,1480,-152,1536,-2,69,-9
13610,1472,-152,1544,0,68,-9
13615,1464,-128,1520,2,67,-7
13620,1504,-160,1520,4,67,-8
13625,1488,-160,1536,5,67,-7
13630,1488,-136,1528,6,67,-5
13635,1480,-128,1520,8,66,-6
13640,1496,-160,1520,7,66,-4
13645,1480,-144,1496,7,64,-5
13650,1488,-128,1496,6,64,-4
13655,1488,-104,1544,5,64,-3
13660,1480,-112,1520,4,63,-2
13665,1480,-136,1528,1,63,-1
13670,1472,-152,1528,1,62,1
13675,1472,-136,1512,1,62,1
13680,1472,-144,1536,0,63,1
13685,1472,-144,1528,-1,63,1
13690,1464,-144,1536,-2,64,1
13695,1480,-160,1520,-3,66,1
13700,1464,-128,1528,-3,65,3
13705,1480,-128,1520,-4,66,3
13710,1496,-152,1504,-4,67,-1
13715,1456,-144,1568,-3,68,0
13720,1448,-144,1512,-4,67,0
13725,1480,-144,1504,-3,68,-1
13730,1480,-136,1520,-1,69,-2
13735,1464,-144,1512,-1,68,-4
13740,1488,-128,1512,-1,68,-3
13745,1496,-144,1528,1,68,-4
13750,1488,-144,1536,2,67,-4
13755,1480,-136,1528,3,67,-5
13760,1480,-152,1520,3,68,-8
13765,1472,-128,1488,2,67,-6
13770,1480,-136,1528,1,67,-7
13775,1488,-128,1544,0,68,-5
13780,1472,-160,1512,-2,68,-5
13785,1480,-168,1520,0,68,-5
13790,1488,-152,1536,0,66,-5
13795,1480,-160,1512,0,65,-4
13800,1504,-152,1536,3,65,-3
13805,1472,-144,1528,1,65,-3
13810,1488,-152,1528,1,65,-5
13815,1472,-168,1528,1,65,-4
13820,1464,-144,1512,1,66,-6
13825,1456,-120,1528,1,65,-7
13830,1472,-144,1432,1,66,-6
13835,1488,-152,1496,-2,68,-7
13840,1472,-136,1512,-3,68,-7
13845,1480,-136,1528,-4,67,-6
13850,1472,-136,1512,-4,67,-6
13855,1464,-152,1520,-6,68,-6
13860,1480,-144,1520,-9,67,-4
13865,1464,-160,1552,-10,68,-4
13870,1496,-152,1528,-9,68,-5
13875,1472,-152,1528,-11,68,-5
13880,1472,-144,1536,-9,69,-6
13885,1488,-144,1528,-10,69,-5
13890,1488,-160,1512,-10,68,-5
13895,1464,-152,1528,-9,66,-5
13900,1472,-152,1520,-9,67,-5
13905,1456,-112,1528,-8,66,-5
13910,1496,-136,1512,-6,67,-4
13915,1472,-104,1504,-5,66,-4
13920,1472,-120,1520,-5,68,-5
13925,1472,-136,1512,-6,69,-5
13930,1488,-136,1504,-5,67,-4
13935,1512,-160,1528,-5,66,-5
13940,1472,-128,1528,-4,67,-4
13945,1480,-144,1528,-5,67,-3
13950,1472,-144,1528,-3,68,-3
13955,1480,-128,1528,-3,68,-2
13960,1472,-128,1504,-3,68,1
13965,1464,-136,1536,-1,69,0
13970,1488,-152,1520,-1,68,-1
13975,1480,-128,1512,0,68,1
13980,1488,-128,1536,-1,67,0
13985,1488,-152,1512,-2,68,-1
13990,1496,-152,1520,0,68,0
13995,1464,-128,1520,-2,67,-1
14000,1456,-136,1528,-2,67,0
14005,1464,-128,1528,-2,68,1
14010,1456,-136,1504,-1,68,0
14015,1472,-152,1544,-2,69,-1
14020,1480,-128,1528,-4,68,-1
14025,1496,-136,1488,-4,69,-1
14030,1480,-128,1520,-5,67,-1
14035,1480,-128,1504,-6,66,1
14040,1488,-136,1536,-8,67,0
14045,1488,-160,1520,-8,68,0
14050,1512,-144,1528,-10,68,0
14055,1488,-136,1520,-11,70,0
14060,1472,-120,1520,-12,69,-1
14065,1496,-152,1536,-14,68,-3
14070,1496,-152,1536,-15,69,-4
14075,1464,-120,1528,-15,69,-2
14080,1472,-128,1512,-16,70,-4
14085,1480,-152,1512,-17,69,-3
14090,1488,-136,1520,-16,68,-5
14095,1480,-144,1512,-16,70,-3
14100,1488,-120,1520,-16,70,-5
14105,1448,-112,1528,-15,70,-5
14110,1464,-120,1520,-16,71,-4
14115,1472,-136,1528,-15,70,-5
14120,1480,-152,1528,-15,72,-4
14125,1456,-112,1504,-15,72,-4
14130,1480,-128,1512,-14,71,-5
14135,1432,-112,1536,-15,71,-4
14140,1496,-144,1520,-16,71,-3
14145,1488,-144,1528,-16,71,-4
14150,1480,-152,1536,-16,70,-5
14155,1464,-136,1528,-18,69,-4
14160,1480,-120,1528,-21,70,-3
14165,1464,-160,1552,-21,71,-3
14170,1464,-152,1520,-22,70,-3
14175,1472,-136,1528,-24,71,-2
14180,1464,-168,1528,-25,70,-3
14185,1488,-136,1512,-24,70,-2
14190,1480,-144,1528,-25,70,-2
14195,1480,-136,1512,-25,70,-2
14200,1464,-120,1528,-27,71,0
14205,1464,-128,1536,-27,71,-1
14210,1480,-128,1544,-26,71,-3
14215,1488,-128,1504,-26,70,-2
14220,1472,-152,1520,-25,69,-1
14225,1488,-120,1536,-25,70,-1
14230,1496,-152,1536,-24,70,-1
14235,1480,-160,1520,-25,70,-2
14240,1488,-136,1512,-23,69,-2
14245,1480,-136,1520,-23,69,0
14250,1464,-128,1528,-23,71,0
14255,1480,-144,1512,-22,70,0
14260,1488,-128,1528,-22,69,-1
14265,1456,-176,1440,-22,69,-1
14270,1464,-112,1512,-20,69,0
14275,1464,-136,1504,-21,70,-1
14280,1488,-144,1520,-21,70,-2
14285,1496,-136,1536,-22,70,-1
14290,1480,-152,1496,-21,71,-2
14295,1472,-128,1512,-22,72,-3
14300,1496,-136,1512,-23,73,-4
14305,1496,-152,1520,-21,73,-3
14310,1488,-128,1528,-21,73,-3
14315,1480,-152,1512,-20,71,-2
14320,1496,-136,1512,-20,72,-3
14325,1480,-160,1520,-19,71,-2
14330,1472,-168,1520,-19,71,0
14335,1456,-128,1520,-18,70,-1
14340,1456,-144,1528,-17,70,-2
14345,1488,-160,1536,-17,69,-3
14350,1464,-128,1520,-21,68,-4
14355,1472,-160,1512,-21,69,-3
14360,1480,-136,1512,-24,68,-4
14365,1480,-176,1520,-26,68,-5
14370,1488,-152,1504,-24,68,-6
14375,1496,-168,1520,-24,68,-5
14380,1496,-160,1512,-23,68,-6
14385,1472,-152,1504,-22,68,-7
14390,1472,-136,1512,-20,67,-8
14395,1472,-136,1544,-18,68,-9
14400,1472,-144,1520,-17,69,-9
14405,1472,-144,1544,-17,69,-9
14410,1456,-144,1504,-17,70,-10
14415,1488,-136,1528,-14,70,-9
14420,1472,-144,1528,-14,69,-9
14425,1480,-160,1520,-14,69,-10
14430,1472,-128,1528,-13,68,-9
14435,1488,-144,1536,-11,69,-6
14440,1504,-152,1544,-10,68,-6
14445,1480,-128,1536,-11,68,-6
14450,1480,-136,1512,-11,68,-5
14455,1480,-152,1560,-11,68,-5
14460,1456,-128,1528,-13,68,-4
14465,1488,-136,1528,-14,67,-2
14470,1464,-128,1528,-14,67,-3
14475,1480,-128,1528,-15,65,-3
14480,1480,-144,1536,-17,65,0
14485,1512,-160,1560,-17,67,0
14490,1488,-136,1512,-18,67,1
14495,1480,-144,1544,-17,67,1
14500,1480,-144,1520,-17,66,0
14505,1472,-160,1504,-17,66,1
14510,1480,-152,1512,-16,66,1
14515,1480,-136,1512,-15,66,1
14520,1464,-120,1496,-15,68,1
14525,1472,-152,1512,-14,68,1
14530,1480,-160,1504,-14,68,0
14535,1456,-96,1568,-12,69,-1
14540,1472,-168,1528,-11,68,-1
14545,1488,-152,1496,-11,67,0
14550,1448,-128,1536,-11,67,0
14555,1472,-152,1528,-12,67,-1
14560,1488,-152,1504,-13,66,-2
14565,1488,-136,1512,-15,68,-1
14570,1464,-128,1520,-15,67,-2
14575,1488,-168,1528,-16,67,-3
14580,1488,-168,1504,-16,67,-2
14585,1480,-144,1520,-18,68,-3
14590,1488,-144,1520,-18,68,-3
14595,1496,-128,1528,-18,69,-4
14600,1496,-120,1512,-18,68,-2
14605,1488,-144,1528,-18,67,-4
14610,1480,-152,1512,-17,69,-3
14615,1488,-160,1504,-16,67,-5
14620,1464,-144,1512,-15,68,-6
14625,1488,-168,1520,-15,68,-6
14630,1472,-160,1504,-14,69,-5
14635,1480,-152,1544,-16,69,-5
14640,1464,-160,1536,-16,68,-7
14645,1480,-168,1528,-17,71,-8
14650,1472,-144,1520,-17,70,-8
14655,1472,-136,1520,-19,71,-8
14660,1472,-144,1520,-19,70,-9
14665,1464,-160,1536,-20,69,-9
14670,1472,-168,1528,-21,70,-9
14675,1472,-144,1536,-22,70,-9
14680,1480,-152,1536,-23,69,-7
14685,1480,-136,1504,-24,70,-9
14690,1480,-152,1528,-23,68,-10
14695,1480,-160,1536,-23,68,-10
14700,1432,-184,1504,-25,66,-10
14705,1472,-144,1536,-26,65,-9
14710,1488,-144,1528,-27,66,-8
14715,1472,-152,1520,-27,64,-8
14720,1440,-120,1536,-27,64,-10
14725,1480,-168,1536,-28,64,-10
14730,1464,-136,1528,-28,63,-10
14735,1456,-120,1544,-29,63,-11
14740,1480,-144,1544,-29,62,-11
14745,1496,-136,1536,-28,62,-11
14750,1464,-152,1576,-28,62,-13
14755,1464,-120,1512,-27,61,-12
14760,1480,-160,1496,-26,61,-11
14765,1472,-136,1520,-26,62,-10
14770,1464,-120,1512,-24,64,-9
14775,1464,-160,1544,-22,63,-10
14780,1464,-120,1496,-21,63,-9
14785,1472,-112,1512,-19,64,-7
14790,1472,-144,1496,-17,65,-8
14795,1488,-136,1512,-15,63,-7
14800,1480,-136,1520,-14,65,-6
14805,1480,-136,1512,-14,66,-5
14810,1480,-136,1512,-14,65,-5
14815,1464,-128,1496,-15,65,-3
14820,1464,-128,1504,-16,66,-4
14825,1480,-144,1536,-16,65,-2
14830,1488,-128,1528,-17,67,-2
14835,1488,-160,1512,-18,68,-2
14840,1488,-160,1472,-20,67,-4
14845,1472,-112,1528,-20,67,-3
14850,1480,-152,1512,-20,67,-2
14855,1488,-160,1512,-20,68,-3
14860,1488,-144,1536,-22,68,-2
14865,1488,-144,1512,-22,67,-2
14870,1480,-152,1512,-23,68,-2
14875,1496,-152,1512,-23,67,-1
14880,1488,-152,1504,-22,68,-2
14885,1480,-160,1536,-22,68,-3
14890,1504,-152,1528,-23,68,-2
14895,1472,-160,1544,-23,69,-2
14900,1480,-152,1544,-24,70,-1
14905,1480,-168,1512,-25,69,-1
14910,1496,-176,1528,-24,70,0
14915,1488,-152,1496,-24,69,0
14920,1480,-112,1504,-24,69,0
14925,1488,-144,1504,-25,71,-1
14930,1488,-152,1520,-25,71,0
14935,1464,-160,1536,-25,70,-1
14940,1480,-152,1504,-25,70,-1
14945,1488,-144,1520,-25,71,-1
14950,1480,-144,1504,-24,71,-1
14955,1472,-144,1528,-25,71,0
14960,1488,-152,1536,-26,71,-1
14965,1472,-128,1544,-26,71,-2
14970,1464,-144,1504,-27,73,-2
14975,1456,-144,1536,-29,72,-2
14980,1480,-152,1528,-28,71,-1
14985,1472,-152,1520,-29,70,-2
14990,1488,-136,1528,-28,69,-3
14995,1496,-160,1528,-29,70,-2
