timestamp,accel_x,accel_y,accel_z,gyro_x,gyro_y,gyro_z
0,120,-2008,-232,-31,-10,-87
5,160,-2008,-248,-33,-6,-89
10,184,-2032,-232,-36,-4,-90
15,200,-2016,-232,-38,-2,-91
20,176,-2024,-208,-45,-1,-91
25,200,-2024,-216,-52,1,-89
30,216,-2032,-232,-59,1,-88
35,200,-2024,-216,-67,0,-85
40,176,-2016,-192,-74,-4,-81
45,184,-2032,-216,-78,-8,-76
50,184,-2024,-192,-78,-13,-74
55,144,-2008,-176,-79,-17,-71
60,144,-2008,-200,-80,-21,-66
65,136,-1984,-216,-76,-28,-63
70,136,-1992,-208,-73,-33,-57
75,104,-1984,-192,-72,-37,-52
80,112,-2024,-208,-68,-39,-47
85,128,-2032,-208,-70,-41,-40
90,120,-2000,-160,-74,-42,-36
95,120,-1992,-192,-81,-45,-31
100,120,-2016,-184,-90,-46,-28
105,112,-2016,-176,-106,-47,-26
110,144,-2016,-168,-122,-47,-25
115,152,-2048,-176,-135,-44,-23
120,160,-2024,-216,-149,-42,-23
125,192,-2032,-232,-159,-40,-22
130,192,-2032,-184,-168,-39,-21
135,200,-2016,-224,-175,-39,-20
140,216,-2024,-216,-182,-40,-19
145,208,-2024,-248,-185,-38,-17
150,216,-2016,-296,-186,-40,-15
155,216,-2000,-272,-184,-40,-13
160,208,-2016,-304,-179,-39,-11
165,216,-1976,-304,-174,-38,-8
170,232,-1984,-336,-171,-36,-4
175,264,-1976,-328,-164,-33,-3
180,264,-1984,-352,-161,-30,-2
185,272,-1984,-344,-160,-24,-1
190,280,-2008,-336,-159,-16,-2
195,304,-2032,-344,-158,-8,-3
200,304,-2024,-376,-162,1,-6
205,312,-2056,-344,-163,8,-9
210,296,-2048,-392,-164,13,-9
215,288,-2056,-376,-163,16,-12
220,256,-2056,-352,-166,18,-12
225,272,-2056,-360,-167,20,-15
230,216,-2040,-344,-167,22,-17
235,184,-2024,-344,-164,24,-20
240,192,-2040,-336,-161,27,-20
245,200,-2040,-368,-156,29,-24
250,168,-2016,-368,-151,34,-25
255,160,-1984,-352,-149,35,-27
260,176,-1984,-328,-147,31,-29
265,208,-1968,-376,-144,29,-28
270,224,-1952,-392,-146,27,-29
275,224,-1968,-376,-151,27,-32
280,272,-1984,-376,-155,27,-34
285,288,-1992,-344,-157,27,-36
290,320,-2016,-368,-159,27,-39
295,312,-2040,-368,-163,30,-40
300,312,-2040,-376,-165,32,-40
305,312,-2040,-336,-169,37,-38
310,296,-2056,-352,-171,41,-35
315,304,-2032,-392,-172,47,-31
320,304,-2056,-360,-173,52,-26
325,288,-2024,-400,-172,59,-21
330,272,-2024,-360,-172,65,-18
335,272,-2024,-368,-170,71,-14
340,240,-2024,-352,-168,75,-11
345,224,-2024,-344,-165,76,-8
350,184,-2016,-360,-160,78,-5
355,184,-2032,-296,-153,77,-2
360,184,-2056,-352,-142,75,1
365,192,-2048,-336,-132,72,4
370,160,-2088,-376,-123,70,7
375,152,-2056,-360,-109,68,9
380,152,-2048,-336,-97,66,9
385,200,-2064,-360,-88,64,8
390,136,-2056,-352,-78,61,9
395,152,-2048,-320,-72,61,6
400,152,-2040,-328,-65,60,6
405,144,-2008,-336,-60,58,3
410,144,-2008,-320,-56,57,2
415,168,-2024,-336,-53,54,2
420,168,-2024,-312,-51,53,0
425,152,-2040,-336,-49,52,0
430,168,-2032,-304,-46,48,-2
435,152,-2016,-288,-44,44,-1
440,184,-2024,-320,-44,39,-1
445,160,-2056,-312,-43,35,0
450,168,-2032,-328,-43,33,3
455,192,-2032,-352,-44,30,5
460,176,-2008,-328,-41,28,6
465,200,-2032,-384,-43,28,8
470,168,-2032,-344,-47,30,8
475,184,-2000,-360,-50,35,8
480,184,-2016,-368,-59,38,10
485,184,-2024,-352,-64,39,7
490,184,-2056,-376,-72,45,4
495,192,-2040,-368,-79,50,-2
500,192,-2016,-320,-85,54,-8
505,184,-2024,-328,-91,54,-12
510,168,-2000,-376,-100,53,-19
515,192,-2032,-320,-107,52,-26
520,168,-2000,-312,-111,49,-31
525,168,-1992,-352,-114,44,-37
530,168,-2000,-336,-117,38,-40
535,176,-1992,-360,-120,32,-44
540,152,-1992,-368,-123,30,-45
545,168,-1992,-328,-123,25,-47
550,176,-2008,-352,-122,19,-46
555,184,-2024,-344,-120,16,-45
560,144,-2016,-336,-117,14,-45
565,176,-2048,-360,-114,10,-43
570,144,-2048,-344,-112,4,-39
575,160,-2040,-368,-112,1,-37
580,168,-2048,-352,-107,-4,-35
585,128,-2048,-384,-102,-7,-33
590,192,-2072,-368,-97,-8,-28
595,168,-2048,-360,-92,-11,-24
600,208,-2040,-344,-88,-13,-23
605,160,-2024,-352,-84,-14,-21
610,160,-2016,-368,-83,-14,-20
615,192,-2024,-400,-78,-13,-18
620,152,-2032,-416,-72,-15,-17
625,176,-2024,-384,-68,-14,-16
630,200,-2000,-400,-63,-14,-16
635,176,-2024,-392,-59,-12,-13
640,192,-2008,-400,-56,-12,-12
645,224,-2024,-408,-53,-12,-9
650,192,-2008,-384,-52,-10,-5
655,200,-2000,-360,-52,-9,-5
660,216,-2016,-368,-53,-9,-3
665,216,-2008,-360,-55,-10,-1
670,200,-1984,-448,-58,-11,2
675,224,-1992,-368,-62,-13,2
680,216,-2016,-376,-67,-13,3
685,208,-2032,-376,-73,-17,4
690,208,-2000,-376,-79,-18,4
695,184,-1992,-376,-84,-20,3
700,208,-2016,-392,-89,-25,2
705,200,-1992,-368,-93,-25,2
710,216,-2016,-416,-100,-27,0
715,192,-2032,-384,-107,-28,-2
720,192,-2032,-392,-111,-26,-6
725,232,-1944,-464,-112,-23,-13
730,176,-2048,-440,-113,-22,-22
735,184,-2064,-424,-115,-19,-30
740,184,-2040,-432,-118,-17,-39
745,184,-2024,-400,-121,-16,-48
750,224,-2064,-416,-126,-11,-53
755,208,-2024,-416,-129,-9,-58
760,264,-2016,-416,-129,-5,-58
765,232,-2016,-440,-128,-4,-57
770,272,-2008,-392,-126,-3,-52
775,304,-2000,-432,-126,-1,-48
780,208,-1928,-504,-126,-1,-41
785,304,-1992,-376,-125,-3,-35
790,272,-1984,-400,-124,0,-27
795,304,-1984,-416,-119,0,-20
800,304,-2000,-400,-115,0,-13
805,272,-1992,-416,-109,-2,-9
810,280,-2032,-384,-105,-5,-3
815,264,-2000,-408,-100,-7,1
820,224,-2024,-384,-97,-8,1
825,224,-2048,-416,-91,-3,-1
830,240,-2064,-432,-86,1,-4
835,176,-2080,-416,-81,5,-7
840,232,-2024,-424,-75,11,-10
845,232,-2048,-400,-70,19,-12
850,224,-2032,-384,-65,26,-12
855,240,-2016,-392,-61,31,-13
860,256,-2048,-384,-57,36,-12
865,248,-2024,-400,-48,39,-10
870,208,-2032,-392,-46,40,-8
875,232,-2000,-400,-42,41,-5
880,224,-2008,-400,-42,41,-3
885,240,-2024,-416,-42,39,-2
890,240,-2008,-408,-44,37,0
895,240,-2000,-408,-47,33,4
900,208,-1992,-392,-50,31,5
905,256,-1992,-392,-51,29,7
910,240,-2008,-424,-53,26,9
915,248,-2000,-408,-53,25,11
920,216,-2008,-336,-55,24,11
925,208,-2016,-376,-59,27,10
930,200,-2008,-408,-60,28,11
935,224,-2016,-400,-61,28,10
940,192,-2008,-408,-65,32,8
945,184,-2008,-408,-67,34,5
950,224,-2032,-400,-69,36,4
955,208,-2016,-408,-68,38,4
960,224,-2016,-424,-69,38,3
965,200,-2016,-392,-71,36,2
970,200,-2016,-400,-72,36,2
975,232,-2040,-408,-72,34,2
980,192,-2024,-392,-71,31,0
985,200,-2016,-408,-68,31,-1
990,200,-2024,-392,-65,29,-3
995,200,-2016,-392,-62,27,-3
1000,216,-2032,-400,-58,24,-3
1005,200,-2024,-440,-54,21,-5
1010,224,-2016,-448,-52,19,-4
1015,192,-2016,-416,-48,18,-4
1020,192,-2040,-416,-43,17,-5
1025,168,-2024,-424,-41,19,-4
1030,200,-2016,-400,-38,22,-3
1035,176,-2024,-400,-38,22,-4
1040,216,-2040,-384,-37,24,-3
1045,168,-2040,-384,-36,23,-5
1050,168,-2008,-384,-35,24,-5
1055,152,-2016,-384,-36,21,-5
1060,152,-1992,-376,-36,19,-3
1065,168,-2040,-384,-38,16,-3
1070,144,-2008,-416,-41,11,-3
1075,184,-2024,-384,-45,10,-3
1080,152,-2032,-400,-49,5,-4
1085,144,-2000,-392,-53,1,-3
1090,200,-2032,-384,-56,-1,-4
1095,168,-2016,-392,-59,-3,-3
1100,176,-1992,-368,-56,-3,0
1105,200,-1992,-376,-54,-4,1
1110,216,-2008,-392,-51,-3,4
1115,216,-2000,-384,-48,-3,3
1120,232,-1976,-384,-50,-2,3
1125,216,-2008,-384,-55,1,1
1130,216,-1984,-368,-62,3,0
1135,232,-1984,-392,-69,5,-4
1140,232,-1984,-368,-75,8,-8
1145,240,-2016,-400,-81,12,-10
1150,232,-2016,-384,-88,14,-14
1155,216,-2024,-400,-92,16,-15
1160,224,-2064,-384,-94,19,-18
1165,224,-2072,-416,-93,20,-19
1170,216,-2064,-384,-90,21,-21
1175,224,-2072,-392,-84,20,-21
1180,232,-2072,-416,-74,15,-21
1185,216,-2072,-400,-64,10,-21
1190,224,-2056,-392,-50,5,-20
1195,232,-2088,-392,-34,3,-17
1200,248,-2040,-432,-21,0,-16
1205,232,-2016,-440,-11,1,-13
1210,248,-2008,-424,-9,0,-14
1215,224,-2008,-440,-10,0,-12
1220,200,-2000,-424,-17,-1,-13
1225,216,-1992,-432,-24,-4,-13
1230,224,-1992,-416,-31,-7,-13
1235,200,-2008,-376,-37,-9,-14
1240,240,-2008,-384,-42,-10,-12
1245,192,-1984,-368,-45,-11,-11
1250,208,-2000,-376,-48,-11,-10
1255,192,-2000,-384,-50,-9,-9
1260,216,-2016,-392,-49,-7,-7
1265,200,-2008,-408,-49,-7,-6
1270,208,-2016,-416,-49,-6,-4
1275,208,-2032,-408,-46,-5,-4
1280,200,-2008,-384,-42,-5,-4
1285,224,-2048,-416,-39,-6,-3
1290,208,-2008,-400,-36,-5,-3
1295,232,-2032,-384,-31,-4,-2
1300,208,-2016,-432,-28,-5,0
1305,192,-2000,-408,-25,-5,2
1310,232,-2016,-392,-23,-5,5
1315,248,-2000,-392,-25,-6,5
1320,248,-2016,-416,-27,-8,7
1325,248,-1992,-400,-30,-11,8
1330,256,-2024,-416,-34,-12,8
1335,256,-2000,-408,-39,-11,8
1340,232,-2000,-408,-45,-8,8
1345,264,-2008,-448,-51,-4,9
1350,248,-2008,-424,-54,2,10
1355,248,-2008,-424,-57,10,10
1360,248,-2024,-448,-59,17,10
1365,248,-2024,-432,-58,22,11
1370,248,-2032,-416,-58,25,12
1375,240,-2024,-416,-54,27,11
1380,240,-2040,-432,-51,28,13
1385,240,-2056,-416,-46,27,15
1390,232,-2024,-408,-39,27,17
1395,232,-2040,-432,-34,25,19
1400,232,-2016,-408,-29,23,22
1405,168,-2008,-432,-27,21,22
1410,232,-1984,-416,-27,19,21
1415,208,-1984,-440,-24,19,22
1420,208,-1992,-400,-25,19,24
1425,208,-1968,-408,-25,18,23
1430,232,-1992,-424,-31,15,24
1435,216,-1984,-416,-35,13,23
1440,224,-1984,-408,-37,13,20
1445,240,-2008,-400,-37,14,21
1450,248,-2024,-400,-37,16,20
1455,208,-2016,-424,-40,18,21
1460,232,-2032,-424,-43,18,23
1465,216,-2032,-416,-45,21,22
1470,200,-2016,-416,-45,24,24
1475,216,-2032,-424,-45,26,23
1480,224,-2040,-424,-47,28,23
1485,208,-2016,-440,-48,30,22
1490,200,-2000,-416,-48,32,23
1495,168,-1992,-416,-49,32,21
1500,216,-2016,-416,-47,30,21
1505,208,-2016,-376,-47,28,20
1510,192,-2000,-400,-48,25,19
1515,192,-2000,-376,-48,24,19
1520,168,-1992,-384,-45,22,19
1525,184,-2000,-400,-43,19,19
1530,176,-2000,-392,-40,18,19
1535,168,-2016,-384,-39,15,21
1540,192,-2016,-392,-38,12,24
1545,176,-2008,-368,-41,13,24
1550,184,-2008,-392,-40,12,24
1555,200,-2016,-376,-42,12,23
1560,184,-1992,-392,-46,13,23
1565,168,-1984,-384,-53,13,22
1570,192,-2000,-376,-61,14,22
1575,184,-1992,-360,-67,15,20
1580,192,-2008,-400,-75,17,18
1585,168,-2008,-384,-80,17,17
1590,192,-2008,-416,-85,18,18
1595,200,-2048,-376,-86,21,19
1600,176,-2040,-368,-86,21,18
1605,184,-2016,-400,-84,20,18
1610,168,-2064,-376,-79,20,19
1615,184,-2056,-408,-75,19,20
1620,192,-2032,-408,-69,18,21
1625,168,-2032,-392,-64,16,19
1630,184,-2016,-384,-58,14,17
1635,184,-2016,-400,-54,12,16
1640,176,-2008,-416,-51,11,14
1645,184,-2032,-376,-47,12,13
1650,160,-2008,-384,-44,12,12
1655,160,-2032,-376,-41,10,13
1660,176,-2048,-408,-40,13,10
1665,152,-2032,-440,-36,15,9
1670,184,-2000,-408,-32,16,7
1675,176,-2032,-416,-30,16,8
1680,184,-2016,-360,-29,18,7
1685,184,-2032,-376,-25,17,6
1690,192,-2000,-368,-23,16,6
1695,160,-2008,-368,-21,16,7
1700,176,-2016,-400,-21,15,6
1705,184,-2016,-392,-21,13,6
1710,184,-2000,-416,-24,12,7
1715,184,-2000,-392,-26,10,7
1720,192,-2008,-416,-28,7,7
1725,184,-2024,-424,-29,6,7
1730,192,-2032,-424,-29,4,7
1735,208,-2008,-432,-29,2,7
1740,200,-2000,-384,-30,1,7
1745,200,-2040,-432,-31,0,7
1750,176,-2016,-416,-32,-2,6
1755,176,-2000,-424,-34,-3,5
1760,176,-2008,-424,-38,-6,3
1765,184,-2000,-392,-40,-6,1
1770,160,-2016,-416,-42,-6,-2
1775,192,-2024,-400,-44,-3,-3
1780,184,-2024,-424,-42,-2,-3
1785,184,-2032,-424,-41,2,-5
1790,184,-2048,-440,-38,5,-3
1795,160,-2024,-440,-35,8,-4
1800,192,-2024,-416,-31,10,-6
1805,176,-2048,-424,-30,11,-6
1810,208,-2048,-416,-29,11,-6
1815,200,-2016,-408,-25,11,-6
1820,176,-2000,-384,-22,10,-7
1825,176,-1984,-400,-17,9,-8
1830,184,-2008,-400,-13,10,-9
1835,192,-2016,-400,-9,8,-8
1840,176,-2008,-416,-7,6,-9
1845,184,-2024,-392,-6,4,-10
1850,176,-2008,-448,-6,1,-11
1855,160,-2024,-400,-8,0,-12
1860,192,-2032,-400,-8,0,-15
1865,160,-2000,-408,-10,1,-18
1870,248,-1952,-496,-12,4,-21
1875,184,-2016,-400,-14,5,-24
1880,168,-2016,-368,-15,8,-24
1885,192,-2032,-392,-13,9,-24
1890,200,-2032,-384,-13,10,-25
1895,192,-2064,-384,-11,11,-25
1900,200,-2040,-376,-5,11,-24
1905,200,-2032,-376,-1,11,-23
1910,192,-2048,-360,5,10,-20
1915,216,-2024,-408,10,10,-17
1920,192,-2000,-368,12,9,-14
1925,272,-2056,-368,16,9,-10
1930,224,-1984,-384,16,7,-6
1935,208,-1992,-392,14,6,-5
1940,208,-1984,-376,7,4,-4
1945,216,-2008,-360,-1,0,-5
1950,208,-2024,-376,-10,-3,-6
1955,176,-1992,-376,-17,-5,-6
1960,216,-2008,-384,-23,-3,-8
1965,200,-2048,-368,-28,0,-9
1970,216,-2048,-384,-32,4,-9
1975,208,-2032,-384,-33,9,-10
1980,256,-2056,-304,-34,14,-10
1985,224,-2024,-352,-34,17,-12
1990,216,-2048,-384,-33,18,-12
1995,224,-2016,-376,-31,20,-12
2000,232,-2016,-376,-28,19,-13
2005,224,-2024,-392,-26,18,-13
2010,216,-2016,-392,-21,15,-11
2015,200,-2024,-384,-18,11,-11
2020,232,-2024,-360,-14,9,-11
2025,240,-2024,-392,-13,5,-12
2030,216,-2016,-360,-11,4,-11
2035,232,-2008,-392,-10,4,-11
2040,232,-2008,-352,-10,4,-10
2045,232,-2024,-360,-10,4,-9
2050,216,-2000,-384,-14,5,-9
2055,224,-2016,-360,-16,4,-6
2060,184,-1984,-344,-18,5,-5
2065,216,-2000,-384,-21,8,-5
2070,208,-2000,-360,-25,9,-3
2075,208,-2008,-376,-30,11,-2
2080,184,-2000,-360,-34,13,-3
2085,192,-2024,-360,-36,14,-2
2090,208,-2008,-360,-38,13,-3
2095,216,-2024,-360,-41,13,-2
2100,208,-2048,-384,-40,12,0
2105,216,-2024,-344,-38,13,-1
2110,216,-2048,-400,-37,13,-2
2115,208,-2000,-360,-37,12,-3
2120,184,-2032,-384,-37,13,-4
2125,192,-2016,-376,-38,13,-4
2130,200,-2016,-384,-38,14,-6
2135,184,-2016,-352,-39,15,-6
2140,168,-2000,-408,-39,17,-6
2145,224,-2024,-352,-41,17,-8
2150,192,-2024,-376,-40,18,-9
2155,200,-2016,-360,-40,18,-10
2160,184,-2008,-344,-40,19,-10
2165,208,-2016,-368,-40,19,-12
2170,200,-2024,-352,-36,19,-15
2175,200,-2032,-400,-32,19,-16
2180,208,-2016,-384,-27,20,-17
2185,208,-2040,-416,-22,23,-20
2190,192,-2032,-392,-20,24,-21
2195,200,-2008,-400,-16,24,-23
2200,208,-2024,-368,-13,26,-23
2205,216,-2016,-368,-12,26,-24
2210,176,-2024,-384,-9,25,-22
2215,200,-2024,-384,-8,24,-22
2220,192,-2008,-408,-4,23,-22
2225,184,-2000,-368,-2,22,-20
2230,208,-2016,-392,-1,22,-18
2235,208,-2008,-384,2,22,-16
2240,216,-2016,-400,5,21,-15
2245,216,-2024,-392,7,19,-13
2250,168,-2000,-384,7,17,-10
2255,208,-2024,-376,6,16,-7
2260,200,-2000,-392,6,14,-3
2265,216,-2024,-384,5,14,-2
2270,168,-2008,-376,5,12,0
2275,208,-2008,-368,1,13,-1
2280,192,-2024,-368,-6,12,0
2285,200,-2016,-384,-10,11,0
2290,200,-2024,-384,-18,8,0
2295,184,-2000,-360,-25,8,-2
2300,192,-2024,-384,-29,7,-1
2305,200,-2008,-416,-32,9,-2
2310,160,-2008,-376,-35,12,-1
2315,176,-2016,-408,-38,14,-1
2320,184,-2032,-408,-40,15,-1
2325,168,-2024,-384,-37,18,0
2330,176,-2016,-376,-37,18,0
2335,216,-2064,-416,-34,20,0
2340,176,-2024,-392,-31,19,0
2345,184,-2048,-352,-31,18,-1
2350,184,-2032,-384,-27,17,2
2355,200,-2056,-344,-22,16,1
2360,208,-2072,-360,-16,16,2
2365,208,-2040,-344,-10,13,3
2370,184,-2024,-360,-3,13,2
2375,184,-2000,-368,1,12,1
2380,176,-2008,-336,7,9,2
2385,184,-2040,-360,13,8,3
2390,200,-2032,-368,16,6,2
2395,184,-2008,-352,21,7,2
2400,192,-2016,-360,23,6,1
2405,192,-2008,-360,24,7,2
2410,208,-1992,-344,23,6,1
2415,200,-2016,-360,21,7,-3
2420,200,-2016,-336,17,7,-4
2425,200,-1992,-328,14,6,-6
2430,192,-2016,-328,8,5,-7
2435,208,-2016,-328,3,4,-7
2440,184,-2008,-320,-3,2,-7
2445,208,-2000,-360,-8,2,-8
2450,208,-1992,-336,-14,2,-10
2455,232,-2016,-304,-20,2,-11
2460,216,-2024,-312,-24,2,-12
2465,216,-2024,-376,-27,4,-12
2470,208,-2024,-336,-28,5,-12
2475,216,-2040,-328,-31,6,-14
2480,216,-2048,-360,-31,9,-15
2485,208,-2040,-328,-30,9,-15
2490,208,-2032,-344,-29,11,-18
2495,224,-2048,-320,-24,13,-17
2500,216,-2032,-344,-23,15,-17
2505,216,-2032,-328,-19,19,-18
2510,200,-2040,-352,-15,22,-18
2515,208,-2032,-344,-9,24,-19
2520,200,-2016,-328,-7,23,-18
2525,208,-2016,-344,-6,22,-20
2530,176,-1992,-344,-5,23,-21
2535,216,-2008,-328,-5,23,-23
2540,216,-2008,-360,-6,22,-24
2545,192,-2008,-312,-6,21,-25
2550,224,-2016,-344,-7,21,-23
2555,216,-2016,-336,-13,21,-23
2560,216,-2000,-360,-18,22,-23
2565,224,-2024,-352,-24,24,-22
2570,208,-2000,-336,-28,24,-20
2575,224,-2032,-320,-31,23,-17
2580,208,-2032,-360,-30,22,-16
2585,216,-2008,-368,-27,21,-13
2590,208,-2000,-360,-27,19,-9
2595,216,-2016,-384,-29,18,-5
2600,224,-2024,-336,-27,16,-3
2605,216,-1992,-336,-28,16,-2
2610,216,-1992,-344,-28,12,-3
2615,208,-1984,-352,-32,9,-2
2620,200,-1984,-336,-37,8,-2
2625,184,-1992,-336,-43,7,-2
2630,192,-1984,-320,-47,10,-2
2635,200,-2000,-376,-51,9,-5
2640,200,-2048,-344,-53,10,-6
2645,200,-2032,-312,-54,11,-8
2650,224,-2040,-328,-52,13,-10
2655,232,-2080,-328,-50,15,-10
2660,200,-2056,-368,-46,14,-10
2665,216,-2072,-328,-41,14,-8
2670,208,-2040,-360,-35,15,-6
2675,224,-2048,-328,-28,16,-6
2680,232,-2000,-352,-25,16,-2
2685,240,-2024,-352,-24,17,-1
2690,216,-2008,-368,-25,14,-1
2695,208,-2032,-368,-28,12,-3
2700,232,-2048,-328,-31,8,-2
2705,208,-2032,-344,-33,5,-1
2710,176,-2008,-368,-33,1,-1
2715,192,-2008,-328,-36,2,-2
2720,200,-1992,-328,-37,4,-4
2725,184,-1984,-304,-36,7,-4
2730,200,-2000,-296,-34,11,-3
2735,192,-2000,-328,-35,14,-4
2740,216,-2024,-312,-36,17,-5
2745,224,-2032,-320,-36,19,-7
2750,208,-2032,-344,-38,21,-6
2755,224,-2040,-320,-38,19,-5
2760,224,-2016,-328,-38,18,-5
2765,192,-2008,-344,-40,17,-4
2770,192,-2032,-312,-38,16,-2
2775,208,-2032,-328,-38,14,-1
2780,232,-2008,-312,-35,14,-1
2785,216,-2008,-320,-34,13,-2
2790,208,-2000,-304,-35,14,-1
2795,184,-2024,-336,-35,13,-1
2800,200,-2008,-352,-35,11,0
2805,224,-1992,-360,-32,10,0
2810,208,-2008,-344,-32,9,-1
2815,240,-2032,-352,-34,9,-1
2820,208,-2008,-368,-36,13,-2
2825,216,-2016,-368,-35,15,-3
2830,216,-2016,-368,-37,17,-4
2835,208,-2016,-328,-35,19,-3
2840,208,-2032,-360,-35,21,-4
2845,216,-2024,-344,-37,24,-5
2850,232,-2024,-328,-35,25,-4
2855,208,-2040,-368,-34,26,-4
2860,216,-2040,-360,-29,27,-4
2865,232,-2016,-336,-24,26,-3
2870,200,-2032,-328,-21,24,-2
2875,216,-2040,-368,-17,21,-2
2880,224,-2048,-336,-14,16,0
2885,200,-2008,-328,-11,14,-1
2890,216,-2032,-344,-8,13,-1
2895,216,-2024,-352,-8,13,0
2900,192,-1992,-384,-9,11,-1
2905,224,-2024,-328,-10,11,-3
2910,192,-2008,-360,-10,12,-3
2915,200,-2008,-328,-12,14,-4
2920,192,-1992,-328,-13,18,-5
2925,176,-1992,-304,-14,21,-6
2930,192,-2008,-304,-15,21,-6
2935,200,-2032,-336,-17,23,-5
2940,184,-1992,-336,-19,25,-5
2945,184,-2016,-336,-21,24,-3
2950,208,-2032,-304,-26,26,-4
2955,200,-2008,-344,-29,24,-1
2960,176,-2024,-304,-33,23,-3
2965,192,-2016,-320,-36,21,-2
2970,216,-2024,-328,-40,20,-3
2975,200,-2000,-328,-44,18,-2
2980,184,-2048,-296,-47,17,-4
2985,184,-2000,-328,-50,17,-5
2990,184,-2008,-328,-53,16,-4
2995,176,-2016,-304,-53,17,-4
3000,192,-2008,-304,-53,18,-3
3005,208,-2016,-320,-51,19,-2
3010,208,-2032,-296,-51,19,-3
3015,208,-2032,-296,-50,21,-3
3020,232,-2032,-296,-49,20,0
3025,200,-2016,-328,-46,21,1
3030,208,-2040,-336,-46,21,3
3035,224,-2056,-312,-43,22,1
3040,200,-2024,-336,-40,21,1
3045,184,-2032,-296,-38,21,-1
3050,208,-2024,-320,-36,20,-2
3055,192,-2024,-320,-37,17,-4
3060,216,-2040,-328,-39,18,-6
3065,200,-2008,-200,-39,17,-8
3070,200,-2016,-328,-40,17,-8
3075,216,-2016,-320,-43,17,-9
3080,208,-2000,-320,-45,18,-10
3085,216,-2024,-320,-49,18,-9
3090,224,-2008,-336,-49,19,-8
3095,208,-2008,-312,-51,17,-8
3100,216,-2048,-320,-49,18,-9
3105,200,-2024,-312,-48,17,-8
3110,240,-2016,-304,-45,17,-6
3115,208,-2024,-336,-42,16,-6
3120,304,-1968,-416,-37,16,-6
3125,224,-2056,-328,-33,16,-6
3130,224,-2024,-336,-32,14,-4
3135,224,-2032,-320,-31,13,-5
3140,240,-2040,-288,-30,13,-4
3145,200,-2024,-352,-30,13,-5
3150,200,-2000,-320,-33,13,-5
3155,200,-2000,-296,-36,11,-4
3160,192,-1992,-320,-39,10,-5
3165,176,-2024,-336,-44,10,-4
3170,176,-2008,-312,-47,10,-2
3175,88,-2016,-224,-52,10,-1
3180,192,-1992,-336,-56,9,-2
3185,192,-2032,-312,-61,9,-1
3190,192,-2008,-352,-66,9,-1
3195,184,-2000,-312,-69,7,-2
3200,200,-2024,-352,-74,7,-3
3205,192,-2016,-320,-77,7,-3
3210,208,-2000,-312,-80,7,-2
3215,200,-2008,-312,-80,9,-1
3220,216,-2024,-368,-79,12,-1
3225,216,-2040,-304,-80,13,-1
3230,224,-2064,-336,-79,16,0
3235,208,-2048,-328,-74,16,-1
3240,200,-2032,-352,-72,16,-1
3245,208,-2048,-328,-70,17,-1
3250,192,-2024,-336,-68,16,-1
3255,208,-2040,-320,-68,13,-2
3260,200,-2024,-336,-66,12,-2
3265,184,-2024,-296,-64,13,-1
3270,208,-2040,-312,-61,13,0
3275,184,-2024,-336,-60,12,-2
3280,216,-2016,-336,-62,9,0
3285,240,-2016,-336,-65,8,0
3290,224,-2032,-328,-68,8,-1
3295,200,-2000,-312,-69,8,-3
3300,232,-2016,-312,-69,7,-3
3305,224,-2000,-320,-70,9,-2
3310,208,-2024,-336,-68,8,-2
3315,216,-2016,-336,-67,9,-3
3320,192,-2024,-360,-66,10,-4
3325,232,-2048,-336,-63,11,-4
3330,216,-2056,-320,-61,11,-5
3335,216,-2040,-360,-56,12,-6
3340,224,-2032,-352,-53,13,-4
3345,192,-2024,-320,-50,15,-5
3350,264,-2048,-344,-48,16,-6
3355,208,-2016,-328,-47,16,-5
3360,200,-2016,-312,-46,16,-5
3365,192,-2008,-368,-44,15,-5
3370,208,-2000,-328,-43,15,-6
3375,200,-2000,-360,-44,13,-6
3380,208,-2016,-312,-45,13,-6
3385,208,-2032,-336,-43,12,-7
3390,208,-2008,-288,-46,12,-8
3395,208,-2008,-320,-49,11,-8
3400,208,-2000,-336,-52,11,-8
3405,192,-2008,-328,-57,11,-7
3410,192,-1984,-352,-61,12,-7
3415,208,-2024,-336,-62,13,-6
3420,208,-2008,-336,-60,14,-3
3425,208,-2008,-312,-57,14,-2
3430,208,-2016,-344,-55,15,-2
3435,208,-2000,-352,-57,14,2
3440,176,-2008,-328,-61,14,2
3445,208,-2000,-368,-64,15,2
3450,184,-1984,-368,-68,14,2
3455,216,-2016,-352,-70,15,0
3460,200,-2008,-360,-73,15,-1
3465,208,-2016,-336,-77,14,-4
3470,192,-2016,-344,-83,15,-4
3475,184,-2024,-328,-87,14,-6
3480,208,-2040,-328,-86,14,-7
3485,184,-2032,-312,-86,16,-9
3490,184,-2056,-320,-82,17,-11
3495,200,-2080,-312,-78,16,-11
3500,200,-2072,-352,-68,15,-11
3505,200,-2056,-336,-56,15,-12
3510,200,-2080,-344,-41,16,-8
3515,208,-2040,-344,-29,17,-6
3520,224,-2016,-352,-22,17,-7
3525,208,-2000,-392,-21,17,-5
3530,216,-1992,-336,-24,15,-6
3535,200,-1984,-336,-29,13,-6
3540,184,-1984,-352,-34,12,-6
3545,200,-1984,-328,-41,11,-8
3550,184,-1984,-328,-48,11,-10
3555,208,-1992,-336,-53,11,-11
3560,192,-1984,-328,-57,14,-9
3565,208,-2000,-312,-62,15,-10
3570,200,-2016,-352,-66,18,-11
3575,200,-1984,-336,-68,20,-10
3580,200,-2016,-312,-69,22,-9
3585,208,-2040,-320,-69,22,-9
3590,192,-2040,-328,-68,21,-10
3595,208,-2016,-320,-68,19,-9
3600,224,-2024,-336,-67,18,-8
3605,216,-2040,-336,-65,16,-10
3610,216,-2008,-344,-63,13,-9
3615,200,-2024,-344,-62,12,-8
3620,216,-2024,-344,-59,9,-7
3625,240,-2024,-344,-55,9,-7
3630,216,-2000,-392,-55,8,-6
3635,224,-2016,-312,-52,8,-5
3640,216,-1992,-352,-53,9,-5
3645,232,-2016,-336,-54,8,-4
3650,192,-1992,-344,-57,8,-3
3655,200,-2008,-328,-58,10,-4
3660,192,-2008,-344,-62,9,-3
3665,232,-2032,-328,-65,9,-4
3670,200,-2032,-328,-67,12,-4
3675,200,-2024,-336,-69,12,-4
3680,192,-2040,-328,-70,12,-3
3685,200,-2008,-344,-69,13,-3
3690,232,-2024,-352,-70,14,-3
3695,200,-2024,-352,-71,14,-3
3700,208,-2032,-360,-70,14,-3
3705,224,-2024,-344,-69,15,-5
3710,216,-2024,-344,-66,14,-5
3715,208,-2000,-344,-65,13,-4
3720,200,-2032,-352,-67,13,-6
3725,192,-1992,-352,-68,12,-5
3730,232,-2008,-336,-67,11,-5
3735,184,-2000,-336,-68,12,-4
3740,200,-2016,-392,-69,12,-4
3745,224,-2024,-376,-70,12,-4
3750,192,-2024,-344,-69,11,-4
3755,184,-2008,-344,-68,13,-4
3760,208,-2016,-384,-67,13,-4
3765,216,-2016,-336,-68,13,-4
3770,200,-2032,-352,-67,14,-2
3775,216,-2016,-344,-68,15,-2
3780,216,-2032,-352,-67,17,-2
3785,200,-2000,-368,-68,19,-1
3790,200,-2024,-360,-69,18,-2
3795,216,-2024,-384,-70,18,-1
3800,200,-2000,-336,-72,18,-1
3805,208,-2008,-392,-75,19,-1
3810,216,-2032,-360,-77,19,-1
3815,176,-2000,-352,-77,21,-1
3820,200,-2016,-360,-79,21,-2
3825,200,-2016,-352,-80,22,0
3830,216,-2024,-400,-82,23,1
3835,224,-2024,-368,-80,23,1
3840,208,-2008,-344,-79,24,4
3845,224,-2024,-344,-79,23,3
3850,248,-2040,-352,-74,22,6
3855,240,-2032,-352,-69,20,8
3860,224,-2008,-360,-68,17,10
3865,208,-2016,-360,-67,17,13
3870,232,-2032,-368,-63,18,14
3875,216,-2040,-368,-61,20,14
3880,192,-2040,-352,-55,21,15
3885,192,-2048,-360,-52,21,16
3890,176,-2016,-376,-51,22,17
3895,168,-2024,-360,-46,20,18
3900,192,-2008,-360,-46,19,16
3905,184,-2000,-368,-46,19,16
3910,208,-2008,-336,-48,21,16
3915,216,-2000,-368,-45,24,14
3920,200,-2000,-368,-46,26,15
3925,192,-2000,-384,-47,28,16
3930,208,-2016,-368,-50,28,16
3935,184,-2000,-368,-52,29,18
3940,224,-2024,-384,-52,27,19
3945,208,-2016,-344,-50,26,20
3950,200,-2008,-344,-49,24,20
3955,200,-2008,-368,-48,20,20
3960,200,-2016,-376,-48,15,19
3965,168,-2000,-352,-48,11,17
3970,192,-2016,-360,-51,6,17
3975,168,-2008,-344,-55,2,16
3980,160,-2000,-344,-59,-2,15
3985,168,-2016,-360,-62,-4,13
3990,176,-2000,-344,-68,-6,10
3995,152,-1992,-344,-75,-5,10
4000,160,-2008,-376,-83,-2,9
4005,176,-1992,-368,-91,0,6
4010,152,-2008,-352,-98,-1,4
4015,160,-1992,-384,-106,-1,1
4020,200,-2032,-352,-112,-1,0
4025,192,-2008,-352,-118,-1,-2
4030,192,-2016,-376,-122,-1,-3
4035,192,-2000,-360,-123,-1,-3
4040,192,-2008,-368,-123,-2,-6
4045,192,-1992,-376,-122,-4,-6
4050,208,-1976,-392,-120,-3,-3
4055,200,-2008,-376,-119,-3,-4
4060,184,-1976,-360,-120,0,-1
4065,184,-2000,-376,-123,2,2
4070,176,-1992,-336,-127,4,4
4075,152,-1992,-376,-133,6,9
4080,176,-1992,-352,-137,8,12
4085,160,-1992,-368,-142,10,17
4090,160,-2000,-360,-150,10,20
4095,176,-1992,-368,-157,8,24
4100,200,-1984,-368,-169,5,29
4105,184,-1984,-376,-179,1,32
4110,192,-2000,-376,-193,-3,33
4115,200,-1992,-368,-205,-4,37
4120,200,-1992,-392,-218,-1,45
4125,160,-2000,-400,-231,-2,49
4130,184,-1992,-400,-242,-5,46
4135,208,-1984,-352,-250,-2,45
4140,216,-2000,-408,-252,4,48
4145,216,-1992,-376,-251,10,52
4150,224,-1992,-392,-249,16,58
4155,248,-2032,-376,-243,21,66
4160,224,-2008,-344,-233,23,75
4165,256,-2008,-384,-221,23,83
4170,256,-2008,-368,-211,22,91
4175,256,-2008,-360,-205,20,101
4180,248,-2000,-352,-203,18,109
4185,264,-1984,-376,-207,18,117
4190,256,-1952,-368,-216,16,123
4195,248,-1984,-376,-228,15,130
4200,248,-1976,-384,-244,15,138
4205,256,-2000,-384,-263,15,142
4210,216,-1960,-376,-283,13,145
4215,200,-1952,-392,-304,13,148
4220,224,-1952,-408,-329,15,151
4225,224,-1936,-400,-349,18,152
4230,224,-1952,-368,-369,21,154
4235,216,-1968,-416,-387,25,157
4240,192,-1968,-384,-403,30,157
4245,200,-1968,-424,-415,37,159
4250,216,-1984,-448,-424,41,160
4255,224,-1984,-456,-436,43,164
4260,208,-1984,-448,-446,45,164
4265,208,-1984,-456,-453,51,162
4270,168,-1968,-440,-457,54,163
4275,176,-2008,-416,-458,56,161
4280,192,-2024,-424,-455,56,158
4285,184,-2000,-440,-450,55,155
4290,168,-1984,-424,-451,57,154
4295,176,-1976,-448,-446,61,151
4300,184,-1976,-432,-442,65,152
4305,160,-1984,-448,-438,73,152
4310,152,-2024,-448,-436,77,152
4315,136,-2024,-488,-437,81,150
4320,128,-2064,-424,-438,81,151
4325,128,-2080,-528,-436,80,153
4330,120,-2056,-504,-433,75,157
4335,120,-2032,-496,-432,69,161
4340,128,-2032,-504,-434,61,165
4345,96,-2008,-576,-439,57,171
4350,128,-1992,-592,-449,53,177
4355,128,-1976,-552,-461,49,180
4360,144,-1976,-576,-474,47,185
4365,120,-1960,-568,-488,44,188
4370,112,-1952,-576,-499,42,188
4375,120,-1920,-720,-510,40,188
4380,72,-1920,-592,-521,39,187
4385,112,-1976,-584,-531,33,184
4390,88,-1968,-624,-540,29,180
4395,72,-1976,-600,-550,27,176
4400,80,-1960,-592,-560,26,171
4405,64,-1960,-600,-562,26,164
4410,48,-1936,-584,-561,31,159
4415,48,-1960,-552,-562,40,160
4420,40,-1936,-544,-570,45,164
4425,48,-1928,-536,-583,47,166
4430,72,-1936,-592,-597,47,166
4435,48,-1944,-568,-610,50,167
4440,56,-1936,-608,-623,53,168
4445,16,-1936,-600,-642,51,175
4450,32,-1936,-624,-667,49,178
4455,32,-1904,-624,-699,46,184
4460,32,-1920,-656,-729,42,190
4465,32,-1912,-704,-766,37,199
4470,64,-1904,-736,-800,30,204
4475,64,-1936,-728,-826,27,218
4480,32,-1936,-736,-839,29,232
4485,32,-1968,-760,-843,24,246
4490,40,-1976,-744,-841,14,259
4495,8,-1968,-760,-836,3,269
4500,72,-2008,-792,-832,-6,286
4505,24,-2000,-776,-831,-16,300
4510,56,-1976,-784,-830,-25,310
4515,24,-2000,-824,-832,-33,318
4520,24,-1976,-888,-842,-38,325
4525,-8,-2008,-848,-852,-45,328
4530,8,-2008,-920,-865,-55,324
4535,-8,-1968,-936,-881,-61,321
4540,-16,-1976,-912,-896,-61,320
4545,-48,-1936,-928,-904,-61,322
4550,-40,-1944,-888,-913,-56,322
4555,-80,-1928,-920,-915,-55,311
4560,-64,-1944,-912,-920,-54,308
4565,-32,-1896,-928,-932,-51,298
4570,-64,-1912,-920,-945,-52,286
4575,-112,-1904,-888,-949,-50,273
4580,-128,-1912,-912,-947,-47,256
4585,-112,-1920,-928,-941,-50,242
4590,-128,-1944,-920,-934,-50,226
4595,-128,-1952,-912,-935,-46,215
4600,-80,-1936,-952,-939,-41,203
4605,-112,-1904,-952,-945,-31,186
4610,-128,-1920,-920,-955,-19,176
4615,-112,-1896,-928,-969,-11,165
4620,-120,-1880,-936,-985,-2,153
4625,-120,-1912,-952,-1007,4,144
4630,-120,-1888,-944,-1029,10,136
4635,-128,-1888,-976,-1052,11,128
4640,-128,-1880,-1016,-1076,14,118
4645,-112,-1896,-1008,-1096,15,107
4650,-104,-1864,-1040,-1120,15,99
4655,-112,-1848,-1040,-1140,17,87
4660,-104,-1824,-1080,-1161,21,81
4665,-112,-1840,-1072,-1174,24,73
4670,-96,-1816,-1104,-1184,29,70
4675,-88,-1816,-1112,-1187,37,68
4680,-48,-1832,-1176,-1190,43,71
4685,-96,-1832,-1152,-1192,53,74
4690,-88,-1776,-1144,-1188,63,72
4695,-40,-1768,-1160,-1194,74,77
4700,-72,-1784,-1160,-1202,79,95
4705,-24,-1800,-1200,-1198,77,98
4710,-88,-1808,-1184,-1193,74,98
4715,-72,-1768,-1232,-1191,65,98
4720,-64,-1776,-1248,-1176,50,101
4725,-88,-1792,-1232,-1163,40,93
4730,-104,-1768,-1240,-1156,27,82
4735,-88,-1776,-1208,-1164,14,79
4740,-56,-1712,-1232,-1177,1,70
4745,-104,-1736,-1232,-1194,-8,55
4750,-80,-1728,-1216,-1215,-20,47
4755,-104,-1712,-1184,-1225,-29,39
4760,-128,-1664,-1192,-1232,-30,31
4765,-104,-1696,-1208,-1241,-28,25
4770,-128,-1704,-1208,-1245,-23,0
4775,-128,-1648,-1280,-1261,-14,-29
4780,-168,-1624,-1312,-1271,4,-43
4785,-240,-1640,-1360,-1277,20,-48
4790,-248,-1624,-1472,-1292,27,-44
4795,-224,-1712,-1472,-1319,34,-44
4800,-240,-1712,-1496,-1353,37,-49
4805,-288,-1760,-1512,-1395,35,-54
4810,-264,-1808,-1584,-1443,30,-62
4815,-240,-1776,-1576,-1494,22,-70
4820,-200,-1784,-1632,-1533,8,-75
4825,-152,-1832,-1664,-1557,0,-77
4830,-128,-1816,-1672,-1577,-6,-89
4835,-128,-1848,-1680,-1593,-17,-107
4840,40,-1856,-1760,-1601,-30,-124
4845,40,-1856,-1800,-1585,-38,-131
4850,64,-1872,-1872,-1561,-42,-150
4855,128,-1848,-1904,-1553,-39,-167
4860,96,-1856,-1928,-1558,-31,-178
4865,160,-1896,-1984,-1568,-31,-186
4870,112,-1856,-1952,-1594,-23,-193
4875,96,-1880,-2008,-1620,-8,-197
4880,24,-1904,-2048,-1638,8,-197
4885,32,-1848,-2032,-1650,23,-195
4890,32,-1832,-2048,-1659,38,-187
4895,-24,-1848,-2080,-1666,64,-179
4900,-8,-1856,-2064,-1673,94,-172
4905,16,-1888,-2056,-1674,128,-162
4910,48,-1912,-2072,-1658,168,-159
4915,56,-1896,-2056,-1638,212,-164
4920,96,-1896,-2048,-1610,260,-174
4925,120,-1824,-2088,-1571,304,-191
4930,72,-1808,-2080,-1514,344,-198
4935,40,-1800,-2120,-1436,372,-191
4940,-16,-1832,-2192,-1346,391,-171
4945,-88,-1856,-2152,-1253,394,-145
4950,-96,-1832,-2208,-1159,377,-111
4955,-96,-1888,-2232,-1071,348,-70
4960,-112,-1904,-2248,-992,313,-31
4965,-96,-1904,-2264,-918,276,5
4970,-96,-1896,-2208,-849,241,42
4975,-72,-1824,-2216,-781,205,74
4980,8,-1792,-2168,-721,169,104
4985,24,-1720,-2144,-671,143,126
4990,64,-1632,-2080,-628,125,143
4995,104,-1528,-2080,-596,116,157
5000,128,-1480,-2040,-570,115,168
5005,104,-1440,-2088,-546,117,173
5010,120,-1400,-2056,-524,122,176
5015,120,-1360,-2056,-512,130,178
5020,96,-1272,-2080,-514,134,174
5025,112,-1208,-2136,-530,140,175
5030,88,-1176,-2128,-562,146,172
5035,64,-1112,-2112,-603,147,169
5040,48,-1056,-2120,-656,148,167
5045,24,-1024,-2128,-712,147,165
5050,48,-1032,-2136,-767,146,164
5055,32,-1032,-2120,-813,151,162
5060,40,-1064,-2152,-848,153,158
5065,64,-1064,-2144,-877,158,155
5070,72,-1072,-2136,-900,167,150
5075,88,-1104,-2080,-912,178,147
5080,80,-1136,-2096,-919,189,144
5085,96,-1152,-2080,-920,200,143
5090,96,-1152,-2056,-905,213,142
5095,96,-1184,-2024,-879,225,142
5100,96,-1176,-2048,-838,230,143
5105,72,-1176,-2056,-796,234,141
5110,88,-1176,-2008,-754,237,139
5115,56,-1184,-1976,-711,242,134
5120,48,-1176,-1968,-673,246,131
5125,40,-1200,-1960,-619,250,127
5130,56,-1200,-1928,-569,252,123
5135,40,-1200,-1952,-513,254,121
5140,16,-1144,-1928,-460,258,124
5145,48,-1112,-1880,-411,265,129
5150,72,-1104,-1872,-371,271,131
5155,64,-1040,-1856,-341,274,137
5160,72,-1032,-1880,-316,274,143
5165,64,-984,-1824,-302,271,148
5170,96,-960,-1792,-293,265,152
5175,104,-944,-1808,-283,259,155
5180,104,-944,-1800,-271,250,156
5185,88,-904,-1792,-258,239,154
5190,144,-896,-1784,-252,231,158
5195,104,-856,-1792,-245,225,162
5200,104,-840,-1760,-239,218,168
5205,120,-856,-1744,-233,212,173
5210,128,-800,-1776,-222,207,181
5215,104,-848,-1728,-211,200,187
5220,88,-816,-1760,-207,187,191
5225,120,-832,-1776,-207,174,193
5230,104,-792,-1728,-205,159,193
5235,96,-816,-1784,-203,147,191
5240,72,-840,-1768,-199,134,187
5245,72,-792,-1768,-202,120,182
5250,128,-760,-1752,-215,109,177
5255,88,-776,-1744,-226,98,174
5260,80,-760,-1752,-229,87,167
5265,112,-768,-1728,-227,80,162
5270,104,-776,-1712,-223,79,156
5275,168,-784,-1736,-220,88,151
5280,120,-768,-1752,-210,97,147
5285,160,-784,-1720,-202,106,135
5290,144,-824,-1704,-196,119,126
5295,200,-848,-1712,-190,128,115
5300,200,-824,-1720,-184,136,99
5305,168,-832,-1688,-172,139,89
5310,192,-864,-1720,-157,135,76
5315,176,-880,-1696,-137,127,61
5320,168,-864,-1728,-118,113,45
5325,176,-864,-1720,-102,96,30
5330,136,-848,-1720,-88,77,15
5335,144,-800,-1720,-75,49,1
5340,128,-816,-1768,-63,23,-14
5345,104,-816,-1760,-53,-1,-32
5350,88,-816,-1760,-55,-20,-50
5355,112,-800,-1776,-59,-35,-66
5360,88,-776,-1792,-67,-42,-84
5365,112,-776,-1760,-79,-45,-100
5370,88,-752,-1744,-90,-50,-115
5375,112,-784,-1720,-103,-57,-128
5380,128,-784,-1744,-118,-66,-144
5385,136,-760,-1704,-132,-80,-159
5390,136,-800,-1728,-143,-95,-171
5395,184,-800,-1728,-148,-111,-184
5400,176,-808,-1744,-156,-129,-202
5405,160,-824,-1712,-167,-147,-217
5410,152,-832,-1752,-180,-168,-231
5415,128,-808,-1736,-193,-189,-244
5420,160,-856,-1784,-210,-211,-260
5425,136,-872,-1776,-225,-235,-274
5430,176,-880,-1776,-236,-258,-289
5435,160,-864,-1792,-244,-277,-304
5440,152,-872,-1776,-250,-291,-320
5445,152,-896,-1776,-250,-301,-333
5450,192,-896,-1776,-246,-308,-346
5455,232,-904,-1776,-236,-311,-358
5460,224,-864,-1792,-228,-312,-370
5465,240,-872,-1800,-220,-312,-379
5470,256,-848,-1792,-210,-314,-390
5475,296,-824,-1760,-204,-317,-401
5480,304,-808,-1760,-200,-319,-416
5485,304,-808,-1744,-201,-323,-431
5490,312,-776,-1744,-202,-322,-445
5495,328,-760,-1712,-209,-323,-459
5500,312,-736,-1720,-217,-324,-471
5505,280,-768,-1704,-225,-327,-479
5510,296,-776,-1712,-231,-331,-486
5515,288,-768,-1704,-231,-341,-492
5520,296,-784,-1712,-229,-350,-498
5525,280,-776,-1760,-235,-348,-499
5530,264,-808,-1752,-244,-348,-501
5535,248,-832,-1728,-254,-352,-502
5540,240,-832,-1720,-257,-360,-502
5545,256,-856,-1776,-259,-369,-505
5550,248,-872,-1776,-255,-381,-508
5555,248,-904,-1752,-249,-395,-516
5560,224,-888,-1800,-239,-409,-524
5565,320,-816,-1896,-226,-428,-534
5570,224,-928,-1808,-208,-445,-545
5575,224,-928,-1760,-188,-461,-555
5580,232,-928,-1744,-168,-475,-566
5585,208,-912,-1704,-140,-489,-577
5590,216,-904,-1704,-112,-503,-585
5595,248,-912,-1720,-81,-518,-594
5600,248,-888,-1664,-48,-526,-600
5605,232,-872,-1680,-17,-534,-607
5610,240,-856,-1624,13,-542,-613
5615,264,-856,-1640,44,-549,-617
5620,176,-800,-1688,69,-551,-622
5625,280,-832,-1592,88,-553,-626
5630,272,-840,-1576,101,-552,-631
5635,280,-840,-1568,110,-554,-630
5640,264,-808,-1544,113,-553,-629
5645,272,-808,-1528,115,-558,-628
5650,304,-824,-1528,120,-562,-627
5655,240,-824,-1528,124,-566,-626
5660,248,-784,-1464,133,-575,-625
5665,256,-808,-1488,141,-587,-624
5670,248,-832,-1448,157,-600,-622
5675,232,-768,-1544,179,-618,-619
5680,216,-792,-1432,198,-635,-620
5685,216,-736,-1424,214,-660,-618
5690,184,-760,-1400,220,-689,-617
5695,208,-760,-1416,221,-728,-613
5700,232,-768,-1416,214,-762,-607
5705,272,-776,-1416,200,-792,-607
5710,296,-792,-1384,178,-811,-604
5715,328,-824,-1344,150,-825,-600
5720,360,-824,-1320,117,-831,-597
5725,344,-832,-1312,86,-830,-597
5730,320,-848,-1320,61,-834,-595
5735,352,-840,-1336,55,-840,-591
5740,288,-896,-1344,52,-841,-589
5745,264,-912,-1336,54,-848,-588
5750,184,-904,-1344,61,-852,-589
5755,136,-936,-1368,69,-860,-594
5760,80,-968,-1384,77,-870,-607
5765,32,-1000,-1408,85,-886,-622
5770,-24,-968,-1432,95,-912,-637
5775,-120,-984,-1432,107,-940,-649
5780,-104,-1000,-1456,122,-969,-660
5785,-128,-1072,-1448,143,-999,-673
5790,-208,-1056,-1440,162,-1028,-690
5795,-184,-1056,-1464,188,-1057,-704
5800,-184,-1056,-1432,220,-1089,-722
5805,-136,-1048,-1432,246,-1120,-735
5810,-128,-1064,-1424,272,-1154,-748
5815,-112,-1032,-1368,290,-1186,-758
5820,-40,-968,-1384,302,-1215,-764
5825,40,-968,-1352,312,-1241,-769
5830,56,-912,-1312,317,-1263,-769
5835,80,-880,-1344,318,-1289,-770
5840,144,-880,-1336,308,-1316,-771
5845,192,-856,-1320,289,-1345,-773
5850,232,-872,-1312,269,-1371,-769
5855,184,-840,-1336,242,-1401,-764
5860,184,-888,-1312,204,-1439,-756
5865,88,-848,-1352,155,-1488,-746
5870,0,-872,-1352,93,-1540,-739
5875,-88,-904,-1360,31,-1604,-730
5880,-120,-904,-1392,-32,-1674,-720
5885,-168,-936,-1448,-99,-1736,-718
5890,-240,-952,-1416,-146,-1793,-718
5895,-328,-960,-1440,-167,-1850,-712
5900,-336,-984,-1448,-182,-1895,-705
5905,-440,-976,-1504,-189,-1931,-705
5910,-440,-984,-1480,-186,-1967,-689
5915,-424,-992,-1568,-170,-2005,-675
5920,-408,-944,-1592,-152,-2030,-658
5925,-368,-832,-1680,-144,-2033,-645
5930,-280,-736,-1744,-156,-2009,-637
5935,-216,-640,-1792,-190,-1968,-639
5940,-128,-576,-1800,-241,-1921,-656
5945,-56,-488,-1824,-304,-1877,-688
5950,0,-440,-1880,-374,-1835,-727
5955,-16,-408,-1984,-451,-1792,-780
5960,-64,-384,-2056,-545,-1755,-824
5965,-112,-448,-2176,-652,-1732,-862
5970,-288,-504,-2248,-773,-1743,-900
5975,-376,-568,-2344,-879,-1814,-909
5980,-520,-648,-2448,-929,-1913,-946
5985,-584,-728,-2472,-921,-2002,-965
5990,-632,-776,-2480,-872,-2072,-978
5995,-656,-784,-2512,-788,-2139,-974
6000,-688,-744,-2496,-718,-2228,-964
6005,-624,-648,-2568,-678,-2341,-943
6010,-552,-528,-2608,-687,-2433,-903
6015,-456,-456,-2584,-748,-2496,-836
6020,-408,-400,-2560,-839,-2529,-749
6025,-312,-328,-2600,-949,-2551,-657
6030,-304,-256,-2584,-1090,-2553,-533
6035,-216,-272,-2704,-1212,-2566,-441
6040,-288,-264,-2768,-1333,-2571,-341
6045,-304,-304,-2776,-1438,-2584,-266
6050,-416,-344,-2880,-1500,-2618,-235
6055,-496,-424,-2944,-1518,-2642,-226
6060,-656,-584,-3008,-1485,-2661,-251
6065,-824,-800,-2912,-1414,-2665,-260
6070,-992,-1008,-2712,-1319,-2675,-263
6075,-1160,-1296,-2392,-1174,-2714,-271
6080,-1456,-1488,-1992,-952,-2767,-283
6085,-1704,-1648,-1656,-665,-2828,-303
6090,-2016,-1576,-1448,-323,-2900,-320
6095,-1952,-1440,-1200,37,-2966,-290
6100,-1944,-1248,-1072,429,-3055,-307
6105,-1824,-936,-968,809,-3163,-352
6110,-1832,-608,-864,1090,-3267,-380
6115,-1552,-360,-712,1213,-3356,-345
6120,-1344,-64,-568,1132,-3451,-350
6125,-1160,80,-272,851,-3562,-382
6130,-936,-32,-224,449,-3706,-398
6135,-840,-352,-152,69,-3870,-402
6140,-768,-704,-296,-172,-3992,-388
6145,-776,-952,-616,-270,-4015,-388
6150,-1064,-1200,-880,-291,-3958,-396
6155,-1496,-1336,-1168,-217,-3898,-414
6160,-1952,-1368,-1640,-79,-3861,-398
6165,-2496,-1208,-2056,58,-3837,-286
6170,-2992,-1280,-2080,190,-3841,-101
6175,-3800,-1480,-1976,347,-3918,72
6180,-4528,-1584,-1880,534,-4096,214
6185,-5184,-1536,-1904,721,-4351,343
6190,-5856,-1680,-1968,867,-4587,518
6195,-6400,-1824,-2040,902,-4821,710
6200,-8680,-1896,-1960,894,-5078,865
6205,-10024,-2320,-1776,889,-5422,1210
6210,-10936,-2664,-1528,1050,-5706,1526
6215,-11136,-3016,-1368,1360,-5823,1819
6220,-10192,-3192,-1456,1721,-5723,2041
6225,-7736,-3072,-1432,1969,-5582,2148
6230,-5448,-2976,-1312,2198,-5412,2076
6235,-3480,-2824,-1200,2516,-5200,1957
6240,-1880,-2600,-1248,2924,-5018,1907
6245,-480,-2256,-1632,3331,-4900,1918
6250,544,-2008,-1832,3582,-4774,1976
6255,1096,-1888,-1616,3674,-4609,2138
6260,936,-1720,-1200,3720,-4458,2402
6265,808,-1440,-1016,3780,-4378,2724
6270,224,-824,-872,3756,-4242,2940
6275,-256,-448,-496,3617,-4031,3040
6280,-888,0,-112,3472,-3835,3014
6285,-1456,240,-40,3346,-3703,2936
6290,-1528,504,-56,3200,-3648,2864
6295,-1696,704,-272,3023,-3617,2765
6300,-1616,384,-120,2776,-3571,2706
6305,-1200,40,80,2548,-3502,2605
6310,-648,-56,208,2342,-3396,2431
6315,-128,0,336,2139,-3275,2232
6320,-16,128,688,1938,-3125,2040
6325,-456,248,1056,1747,-3008,1856
6330,-272,288,1192,1575,-2978,1745
6335,-584,496,1512,1401,-2935,1613
6340,-1096,880,1880,1251,-2862,1466
6345,-1272,1056,2072,1103,-2791,1348
6350,-1408,1296,2232,883,-2679,1200
6355,-1696,1464,2760,615,-2518,1032
6360,-2248,1360,3160,347,-2362,892
6365,-2112,1056,3464,90,-2237,737
6370,-1856,696,3456,-132,-2088,565
6375,-1544,368,3256,-350,-1844,368
6380,-1520,120,3016,-528,-1381,118
6385,-1608,88,2632,-586,-941,-134
6390,-1608,176,2216,-534,-508,-381
6395,-1392,112,1912,-487,-77,-601
6400,-1608,56,1792,-483,323,-819
6405,-1552,-48,1944,-457,648,-964
6410,-1576,-72,2088,-392,821,-986
6415,-1504,160,2176,-328,873,-867
6420,-1104,240,2104,-335,812,-684
6425,-1280,424,1896,-431,595,-592
6430,-944,384,1480,-564,309,-489
6435,-912,304,1200,-677,41,-449
6440,-744,176,952,-730,-134,-385
6445,-728,40,832,-700,-229,-329
6450,-680,24,824,-599,-305,-280
6455,-512,64,800,-489,-355,-236
6460,-440,176,976,-431,-356,-216
6465,-360,272,1096,-405,-341,-187
6470,-344,368,1152,-393,-331,-152
6475,-320,448,1200,-400,-339,-108
6480,-312,536,1264,-428,-352,-70
6485,-320,592,1240,-477,-350,-40
6490,-456,608,1304,-544,-341,-10
6495,-536,592,1328,-621,-355,15
6500,-520,536,1352,-692,-372,29
6505,-640,408,1424,-746,-375,27
6510,-680,264,1480,-777,-397,16
6515,-656,120,1432,-789,-435,-6
6520,-800,144,1400,-793,-476,-48
6525,-936,64,1416,-770,-520,-74
6530,-1008,-40,1424,-698,-564,-92
6535,-976,-40,1416,-619,-590,-146
6540,-912,-96,1424,-552,-582,-207
6545,-1024,40,1368,-516,-553,-266
6550,-1080,8,1240,-489,-501,-293
6555,-1128,16,1200,-463,-438,-304
6560,-1248,24,1128,-448,-381,-312
6565,-1336,64,1176,-459,-357,-314
6570,-1416,8,1176,-496,-364,-316
6575,-1496,32,1200,-540,-394,-326
6580,-1536,-8,1168,-580,-427,-329
6585,-1552,-24,1160,-611,-449,-339
6590,-1544,0,1136,-641,-463,-347
6595,-1656,40,1176,-680,-478,-365
6600,-1496,64,1160,-708,-478,-378
6605,-1360,88,1280,-699,-448,-353
6610,-1536,24,1240,-654,-421,-325
6615,-1600,-16,1272,-583,-395,-289
6620,-1736,-24,1408,-504,-364,-246
6625,-1704,-72,1408,-417,-367,-219
6630,-1712,-120,1472,-332,-362,-209
6635,-1712,-216,1488,-255,-351,-209
6640,-1680,-320,1424,-186,-332,-215
6645,-1608,-368,1384,-135,-310,-219
6650,-1568,-424,1344,-93,-281,-218
6655,-1544,-432,1312,-54,-247,-213
6660,-1504,-432,1248,-16,-221,-208
6665,-1488,-416,1216,20,-203,-197
6670,-1552,-392,1208,50,-188,-182
6675,-1512,-400,1176,78,-184,-166
6680,-1520,-336,1176,104,-188,-157
6685,-1528,-288,1176,129,-192,-150
6690,-1512,-272,1136,148,-193,-143
6695,-1504,-264,1136,159,-184,-135
6700,-1528,-224,1136,162,-164,-120
6705,-1512,-280,1104,163,-136,-108
6710,-1464,-304,1104,154,-95,-101
6715,-1440,-296,1120,138,-38,-95
6720,-1440,-312,1144,110,33,-99
6725,-1392,-352,1088,76,109,-100
6730,-1400,-344,1088,41,194,-93
6735,-1360,-376,1072,-3,288,-92
6740,-1304,-368,1040,-56,386,-94
6745,-1328,-368,1064,-124,496,-97
6750,-1312,-352,1032,-208,615,-99
6755,-1312,-392,1080,-302,725,-104
6760,-1272,-352,1056,-380,811,-108
6765,-1304,-376,1064,-427,875,-106
6770,-1256,-360,1056,-447,920,-103
6775,-1288,-448,1040,-454,950,-90
6780,-1312,-456,1080,-448,969,-83
6785,-1304,-504,1104,-430,970,-79
6790,-1344,-536,1096,-418,967,-71
6795,-1416,-608,1112,-418,967,-57
6800,-1464,-656,1088,-417,970,-45
6805,-1512,-664,1032,-411,982,-34
6810,-1624,-696,944,-397,991,-15
6815,-1632,-776,912,-380,1003,8
6820,-1680,-776,864,-343,1009,31
6825,-1760,-824,872,-290,1011,61
6830,-1744,-832,936,-235,1003,89
6835,-1736,-840,896,-178,992,113
6840,-1688,-784,904,-121,986,136
6845,-1664,-768,896,-79,991,158
6850,-1696,-792,896,-37,1002,186
6855,-1664,-736,944,24,1005,215
6860,-1616,-712,864,116,1007,237
6865,-1672,-672,840,226,1032,253
6870,-1664,-552,840,337,1062,269
6875,-1544,-528,800,436,1115,280
6880,-1528,-480,808,510,1201,299
6885,-1536,-472,816,573,1281,321
6890,-1592,-472,784,621,1340,343
6895,-1568,-472,744,650,1377,354
6900,-1544,-480,672,673,1404,371
6905,-1528,-512,688,678,1432,394
6910,-1576,-496,656,693,1452,405
6915,-1640,-464,664,698,1458,409
6920,-1584,-424,592,696,1457,402
6925,-1632,-296,576,671,1461,394
6930,-1640,-232,568,644,1456,385
6935,-1696,-192,576,599,1436,383
6940,-1688,-144,536,555,1402,375
6945,-1776,-80,488,500,1372,362
6950,-1880,-72,464,435,1342,352
6955,-1904,0,424,373,1308,336
6960,-1904,-8,392,313,1283,324
6965,-1936,-72,296,256,1268,317
6970,-1904,-104,304,206,1259,306
6975,-2024,-168,320,168,1250,303
6980,-2112,-192,320,147,1234,311
6985,-2056,-152,232,139,1213,305
6990,-2088,-152,224,125,1204,295
6995,-2080,-96,160,108,1187,295
7000,-2088,-120,232,79,1163,291
7005,-2112,-136,232,65,1124,286
7010,-2128,-112,200,60,1079,274
7015,-2152,-120,232,64,1029,254
7020,-2168,-96,176,74,987,230
7025,-2200,-80,200,88,953,215
7030,-2176,-72,184,121,910,209
7035,-2176,-8,168,157,871,203
7040,-2192,-32,136,190,839,201
7045,-2208,-32,144,215,805,199
7050,-2208,-48,128,233,770,197
7055,-2224,-64,96,247,733,195
7060,-2232,-72,120,260,699,196
7065,-2224,-80,104,273,673,199
7070,-2168,-80,80,292,640,212
7075,-2152,-80,48,302,614,222
7080,-2184,-88,48,304,597,230
7085,-2192,-80,48,298,569,237
7090,-2208,-72,40,290,534,238
7095,-2240,-48,48,272,504,237
7100,-2272,-64,40,258,483,237
7105,-2216,-48,40,245,460,229
7110,-2232,-64,8,234,437,219
7115,-2200,-32,0,218,420,204
7120,-2176,-8,24,200,402,190
7125,-2160,-16,-16,181,377,179
7130,-2168,-16,-8,163,348,168
7135,-2168,48,8,145,314,156
7140,-2144,64,-16,128,276,140
7145,-2184,40,64,109,238,122
7150,-2160,48,64,88,197,105
7155,-2152,72,88,69,157,82
7160,-2144,72,64,44,122,59
7165,-2160,64,104,16,91,33
7170,-2128,64,96,-12,60,11
7175,-2112,64,152,-38,28,-11
7180,-2152,40,112,-64,-5,-29
7185,-2120,0,136,-84,-35,-48
7190,-2080,-16,136,-102,-62,-63
7195,-2104,-32,136,-123,-83,-84
7200,-2104,-56,112,-144,-104,-100
7205,-2088,-56,112,-164,-123,-115
7210,-2088,-64,136,-178,-136,-130
7215,-2104,-64,128,-191,-148,-140
7220,-2072,-56,168,-201,-161,-150
7225,-2080,-80,144,-213,-173,-157
7230,-2072,-104,176,-215,-186,-161
7235,-2064,-120,216,-212,-198,-165
7240,-2032,-136,184,-207,-209,-166
7245,-2024,-152,184,-192,-221,-164
7250,-2008,-176,240,-181,-231,-163
7255,-2008,-200,200,-166,-247,-164
7260,-2000,-176,176,-140,-268,-162
7265,-1992,-216,176,-113,-284,-162
7270,-1984,-184,200,-91,-298,-161
7275,-1976,-176,200,-76,-314,-160
7280,-1952,-200,224,-64,-328,-158
7285,-1968,-216,224,-48,-338,-158
7290,-1976,-232,256,-35,-346,-156
7295,-1968,-208,280,-24,-350,-152
7300,-1968,-216,264,-2,-352,-151
7305,-1976,-208,312,10,-354,-149
7310,-1984,-232,328,20,-353,-146
7315,-1984,-248,320,35,-352,-143
7320,-1968,-200,312,53,-348,-141
7325,-2000,-232,304,67,-340,-139
7330,-2032,-248,320,85,-330,-139
7335,-2000,-248,336,106,-319,-138
7340,-2032,-224,320,126,-302,-135
7345,-2032,-240,320,144,-283,-132
7350,-2016,-232,320,164,-266,-131
7355,-2024,-232,328,176,-247,-131
7360,-2024,-208,320,182,-231,-133
7365,-2032,-184,344,189,-217,-138
7370,-2032,-184,352,189,-205,-142
7375,-1984,-184,360,184,-195,-147
7380,-1984,-168,376,176,-187,-153
7385,-2008,-160,392,165,-181,-159
7390,-2016,-168,416,151,-179,-167
7395,-1968,-168,392,136,-176,-174
7400,-1944,-160,392,118,-171,-181
7405,-1928,-176,416,101,-163,-187
7410,-1944,-168,432,90,-153,-187
7415,-1904,-168,424,78,-145,-186
7420,-1936,-176,424,67,-134,-187
7425,-1920,-200,392,57,-120,-185
7430,-1920,-200,424,50,-106,-183
7435,-1904,-200,448,45,-93,-180
7440,-1880,-200,456,42,-86,-176
7445,-1880,-232,408,40,-80,-173
7450,-1888,-248,408,38,-75,-167
7455,-1888,-256,416,34,-74,-159
7460,-1856,-256,440,34,-72,-154
7465,-1912,-264,464,37,-71,-137
7470,-1880,-280,408,39,-71,-134
7475,-1848,-264,448,36,-70,-133
7480,-1856,-216,448,34,-64,-126
7485,-1856,-216,464,35,-57,-116
7490,-1872,-256,472,43,-56,-96
7495,-1864,-240,448,46,-56,-90
7500,-1864,-208,448,49,-53,-85
7505,-1888,-240,448,49,-48,-72
7510,-1832,-192,440,51,-47,-63
7515,-1904,-264,416,59,-49,-44
7520,-1880,-208,440,66,-44,-48
7525,-1856,-232,424,61,-37,-43
7530,-1880,-216,424,57,-34,-34
7535,-1920,-200,384,62,-31,-27
7540,-1840,-192,416,62,-31,-22
7545,-1928,-208,416,67,-32,-9
7550,-1920,-208,400,71,-33,-16
7555,-1896,-216,432,73,-30,-17
7560,-1936,-208,424,77,-29,-15
7565,-1936,-224,392,81,-25,-13
7570,-1920,-192,416,77,-21,-10
7575,-1928,-200,440,76,-18,-6
7580,-1928,-168,424,76,-15,-1
7585,-1952,-184,432,78,-12,7
7590,-1880,-136,432,84,-8,13
7595,-1944,-216,448,98,-7,29
7600,-1936,-176,440,106,-6,30
7605,-1936,-168,432,108,-3,32
7610,-1928,-184,456,107,-4,33
7615,-1944,-160,448,102,-5,34
7620,-1928,-168,464,94,-8,32
7625,-1960,-144,432,88,-4,26
7630,-1936,-152,448,85,-2,21
7635,-1944,-152,448,82,2,14
7640,-1960,-168,440,81,8,9
7645,-1928,-168,416,83,15,6
7650,-1928,-152,472,79,22,3
7655,-1920,-160,416,74,26,2
7660,-1904,-168,448,68,28,1
7665,-1896,-168,440,61,30,1
7670,-1896,-144,456,52,31,5
7675,-1920,-152,424,42,27,6
7680,-1928,-152,448,29,24,9
7685,-1920,-152,424,18,18,10
7690,-1936,-144,400,9,11,10
7695,-1944,-144,440,-1,6,10
7700,-1920,-176,432,-6,2,10
7705,-1944,-160,416,-8,1,9
7710,-1952,-168,408,-6,2,8
7715,-1952,-152,408,-5,2,5
7720,-1968,-184,424,-8,6,3
7725,-1960,-144,456,-9,10,2
7730,-1944,-216,424,-14,12,3
7735,-1944,-160,424,-18,16,4
7740,-1960,-144,416,-28,19,3
7745,-1960,-128,448,-38,23,5
7750,-1952,-144,440,-49,23,6
7755,-1944,-160,432,-59,24,9
7760,-1960,-152,408,-72,26,9
7765,-1976,-136,432,-81,27,13
7770,-1952,-176,432,-87,28,13
7775,-1968,-168,408,-93,27,15
7780,-1952,-152,440,-96,27,15
7785,-1960,-168,408,-99,27,15
7790,-1944,-192,392,-101,27,16
7795,-1968,-192,392,-102,28,15
7800,-1960,-192,376,-99,28,17
7805,-1976,-168,352,-93,27,17
7810,-1960,-168,384,-86,24,17
7815,-1984,-176,368,-79,20,17
7820,-1968,-192,328,-68,15,17
7825,-1960,-184,336,-61,8,14
7830,-1968,-192,376,-51,1,12
7835,-1984,-184,344,-45,-7,12
7840,-1968,-192,336,-41,-13,10
7845,-1960,-184,376,-35,-21,6
7850,-1960,-144,368,-34,-26,4
7855,-1936,-184,416,-38,-30,3
7860,-1960,-184,400,-43,-34,2
7865,-1936,-168,416,-49,-34,1
7870,-1920,-184,416,-52,-30,2
7875,-1944,-192,448,-58,-23,4
7880,-1936,-176,440,-60,-16,5
7885,-1960,-200,464,-63,-11,8
7890,-1920,-200,440,-65,-5,9
7895,-1936,-208,424,-65,1,12
7900,-1936,-200,408,-65,4,14
7905,-1944,-168,424,-63,7,13
7910,-1960,-184,392,-61,5,14
7915,-1952,-160,400,-61,1,15
7920,-1960,-176,368,-62,-2,13
7925,-1968,-168,376,-63,-6,12
7930,-1960,-184,368,-63,-10,11
7935,-1944,-176,392,-63,-13,11
7940,-1920,-192,424,-60,-15,8
7945,-1944,-208,376,-55,-15,7
7950,-1944,-184,400,-46,-17,5
7955,-1960,-176,408,-35,-17,4
7960,-1944,-200,448,-28,-18,3
7965,-1920,-184,400,-21,-20,2
7970,-1952,-184,432,-14,-22,0
7975,-1952,-168,416,-9,-23,0
7980,-1944,-176,432,-3,-24,-3
7985,-1952,-168,456,-1,-24,-4
7990,-1952,-168,448,0,-26,-5
7995,-1952,-144,448,1,-27,-7
8000,-1928,-152,408,4,-27,-9
8005,-1952,-160,424,4,-26,-11
8010,-1936,-160,384,5,-27,-10
8015,-1928,-168,448,5,-25,-10
8020,-1952,-168,424,3,-25,-11
8025,-1944,-160,440,4,-19,-11
8030,-1936,-176,440,2,-17,-13
8035,-1952,-160,448,0,-16,-13
8040,-1936,-144,440,2,-14,-14
8045,-1920,-120,448,0,-10,-14
8050,-1968,-168,416,-2,-11,-15
8055,-1928,-192,416,-4,-10,-15
8060,-1928,-168,440,-5,-10,-14
8065,-1928,-176,448,-6,-10,-16
8070,-1936,-168,424,-6,-10,-15
8075,-1936,-160,408,-7,-11,-14
8080,-1936,-168,376,-6,-12,-13
8085,-1944,-152,416,-6,-14,-13
8090,-1912,-176,408,-8,-19,-13
8095,-1936,-168,432,-9,-18,-13
8100,-1928,-240,480,-10,-20,-13
8105,-1936,-144,400,-11,-23,-11
8110,-1928,-176,424,-14,-23,-14
8115,-1936,-152,424,-16,-21,-12
8120,-1936,-160,416,-19,-22,-10
8125,-1944,-152,456,-22,-22,-11
8130,-1920,-184,408,-21,-21,-10
8135,-1952,-176,440,-22,-20,-10
8140,-1936,-184,456,-19,-19,-10
8145,-1920,-192,416,-19,-19,-6
8150,-1936,-184,432,-15,-22,-9
8155,-2000,-200,496,-16,-21,-7
8160,-1928,-168,416,-15,-25,-7
8165,-1936,-168,424,-14,-27,-6
8170,-1936,-160,440,-11,-30,-6
8175,-1968,-152,424,-10,-31,-6
8180,-1936,-176,448,-11,-31,-6
8185,-1936,-184,464,-12,-32,-5
8190,-1976,-152,424,-11,-30,-6
8195,-1928,-144,456,-12,-30,-5
8200,-1944,-184,464,-14,-29,-2
8205,-1936,-168,448,-17,-28,-3
8210,-1872,-104,336,-21,-28,-5
8215,-1920,-176,488,-21,-26,-3
8220,-1920,-160,416,-23,-25,-4
8225,-1896,-192,496,-27,-24,-3
8230,-1944,-152,432,-27,-25,-1
8235,-1928,-192,456,-27,-25,-2
8240,-1912,-128,472,-25,-26,-2
8245,-1912,-176,408,-24,-27,-4
8250,-1928,-176,440,-20,-27,-5
8255,-1912,-168,488,-18,-29,-2
8260,-1960,-176,448,-18,-28,-2
8265,-1944,-144,456,-16,-27,0
8270,-1928,-160,448,-19,-23,2
8275,-1936,-128,488,-17,-17,3
8280,-1928,-152,472,-20,-11,5
8285,-1928,-160,464,-23,-5,10
8290,-1912,-144,480,-29,0,14
8295,-1936,-168,456,-32,4,16
8300,-1928,-184,504,-32,8,18
8305,-1912,-160,480,-32,13,18
8310,-1920,-200,464,-30,15,15
8315,-1920,-184,488,-30,16,14
8320,-1904,-176,456,-27,14,13
8325,-1920,-168,488,-27,12,13
8330,-1936,-168,464,-28,11,12
8335,-1928,-168,464,-25,10,12
8340,-1928,-160,480,-23,10,11
8345,-1912,-176,448,-20,11,11
8350,-1912,-160,464,-16,12,11
8355,-1928,-152,456,-17,13,9
8360,-1920,-168,448,-17,14,10
8365,-1920,-168,464,-18,15,8
8370,-1928,-168,448,-20,17,8
8375,-1936,-152,448,-26,18,8
8380,-1920,-160,472,-31,19,9
8385,-1920,-152,472,-36,20,9
8390,-1944,-160,472,-41,22,10
8395,-1920,-168,472,-46,23,11
8400,-1936,-152,464,-48,25,10
8405,-1944,-168,472,-51,26,9
8410,-1912,-152,448,-51,28,9
8415,-1912,-160,424,-48,28,8
8420,-1936,-168,456,-46,30,8
8425,-1960,-144,432,-46,29,8
8430,-1936,-168,440,-45,27,5
8435,-1936,-144,448,-43,26,5
8440,-1936,-160,432,-43,23,3
8445,-1920,-160,440,-42,20,4
8450,-1936,-168,432,-40,18,4
8455,-1968,-152,416,-39,14,3
8460,-1960,-168,448,-38,13,0
8465,-1952,-152,448,-37,9,-1
8470,-1920,-152,448,-37,5,-1
8475,-1960,-152,424,-37,2,-3
8480,-1976,-120,464,-37,0,-4
8485,-1928,-136,424,-36,-2,-5
8490,-1960,-152,456,-36,-4,-4
8495,-1928,-168,424,-34,-5,-6
8500,-1944,-160,456,-35,-5,-7
8505,-1944,-168,416,-37,-7,-6
8510,-1928,-168,432,-40,-7,-5
8515,-1952,-152,464,-40,-6,-4
8520,-1928,-160,472,-42,-7,-6
8525,-1928,-168,480,-42,-5,-5
8530,-1928,-144,472,-46,-3,-6
8535,-1936,-152,448,-44,-3,-7
8540,-1936,-152,440,-45,-1,-5
8545,-1944,-152,456,-44,0,-3
8550,-1936,-168,456,-40,0,-3
8555,-1952,-160,472,-35,-3,0
8560,-1912,-168,456,-29,-4,0
8565,-1944,-152,448,-21,-8,0
8570,-1928,-152,448,-12,-12,1
8575,-1920,-136,440,-2,-18,0
8580,-1944,-160,464,5,-21,2
8585,-1936,-160,464,14,-24,1
8590,-1912,-152,432,17,-26,1
8595,-1928,-144,440,17,-26,-1
8600,-1936,-176,440,17,-27,0
8605,-1920,-168,456,16,-24,-2
8610,-1936,-152,456,12,-21,-3
8615,-1912,-160,456,7,-19,-4
8620,-1904,-168,480,5,-18,-3
8625,-1896,-160,488,2,-17,-1
8630,-1928,-168,456,5,-16,1
8635,-1944,-192,456,5,-15,4
8640,-1920,-152,456,9,-16,4
8645,-1912,-152,456,15,-18,8
8650,-1936,-136,464,22,-20,10
8655,-1904,-168,472,30,-22,12
8660,-1928,-168,472,31,-21,13
8665,-1928,-160,480,31,-18,14
8670,-1920,-160,464,26,-18,11
8675,-1912,-168,488,19,-17,9
8680,-1904,-152,504,11,-13,6
8685,-1896,-168,488,1,-12,6
8690,-1896,-160,464,-5,-10,4
8695,-1904,-152,472,-14,-10,4
8700,-1904,-128,472,-20,-10,3
8705,-1904,-144,456,-24,-11,4
8710,-1912,-136,496,-24,-12,3
8715,-1928,-152,440,-24,-13,2
8720,-1928,-144,440,-22,-14,1
8725,-1944,-144,448,-21,-14,2
8730,-1928,-144,480,-18,-14,1
8735,-1928,-144,472,-15,-13,1
8740,-1928,-152,480,-11,-11,0
8745,-1928,-136,504,-9,-9,-1
8750,-1920,-152,488,-7,-6,1
8755,-1904,-152,472,-4,-1,-1
8760,-1920,-136,472,-3,2,-2
8765,-1944,-128,488,-5,3,-2
8770,-1928,-120,496,-7,4,-4
8775,-1928,-136,472,-8,7,-4
8780,-1944,-136,504,-13,7,-5
8785,-1920,-152,488,-15,7,-5
8790,-1920,-112,456,-20,8,-5
8795,-1928,-128,480,-26,9,-5
8800,-1904,-120,472,-28,9,-6
8805,-1920,-152,456,-34,9,-7
8810,-1928,-136,504,-37,8,-6
8815,-1928,-160,472,-38,8,-8
8820,-1912,-128,504,-37,7,-6
8825,-1896,-160,456,-35,6,-1
8830,-1912,-152,480,-32,4,-3
8835,-1928,-160,464,-34,2,-4
8840,-1960,-120,480,-32,0,-5
8845,-1944,-120,472,-33,-1,-4
8850,-1928,-152,432,-31,-2,-4
8855,-1952,-136,440,-30,-2,-4
8860,-1936,-144,448,-29,-2,-4
8865,-1928,-112,504,-33,0,-6
8870,-1912,-160,448,-38,1,-6
8875,-1928,-144,480,-44,2,-6
8880,-1936,-160,496,-47,4,-3
8885,-1928,-144,488,-50,5,-3
8890,-1936,-152,472,-51,6,-2
8895,-1920,-152,472,-50,4,-2
8900,-1904,-176,488,-50,3,-2
8905,-1920,-152,496,-52,2,-2
8910,-1928,-144,472,-53,1,0
8915,-1912,-160,504,-53,2,1
8920,-1912,-160,464,-54,3,1
8925,-1920,-120,480,-54,4,1
8930,-1920,-160,480,-55,7,2
8935,-1912,-152,472,-55,11,2
8940,-1928,-152,472,-53,14,1
8945,-1928,-136,480,-53,17,4
8950,-1896,-168,520,-55,18,3
8955,-1904,-152,496,-55,18,5
8960,-1912,-144,480,-56,18,3
8965,-1920,-144,504,-54,16,4
8970,-1904,-144,480,-55,14,4
8975,-1920,-144,480,-54,12,4
8980,-1904,-112,448,-54,8,3
8985,-1928,-104,456,-54,4,1
8990,-1944,-136,464,-53,2,-2
8995,-1944,-160,440,-53,-1,-1
9000,-1928,-144,464,-54,-1,-2
9005,-1944,-144,480,-56,0,-3
9010,-1920,-120,520,-55,3,-4
9015,-1936,-152,480,-53,7,-3
9020,-1920,-144,496,-54,10,-4
9025,-1912,-152,504,-52,13,-3
9030,-1928,-144,480,-51,16,-2
9035,-1928,-136,488,-49,17,-1
9040,-1912,-144,504,-46,18,-3
9045,-1904,-168,520,-43,19,-3
9050,-1928,-136,496,-43,21,-4
9055,-1904,-120,488,-42,20,-5
9060,-1928,-120,488,-43,19,-5
9065,-1944,-144,496,-43,20,-6
9070,-1928,-120,472,-45,19,-6
9075,-1920,-144,488,-45,18,-7
9080,-1912,-128,464,-46,17,-6
9085,-1912,-144,472,-45,19,-8
9090,-1928,-144,448,-47,20,-7
9095,-1912,-144,448,-48,20,-8
9100,-1920,-160,472,-51,21,-8
9105,-1936,-128,480,-51,20,-7
9110,-1928,-160,472,-48,19,-6
9115,-1904,-144,448,-48,20,-7
9120,-1912,-144,480,-50,21,-6
9125,-1944,-136,480,-48,22,-8
9130,-1920,-168,472,-50,22,-7
9135,-1928,-144,480,-50,24,-6
9140,-1904,-136,488,-52,25,-7
9145,-1928,-136,472,-52,26,-8
9150,-1920,-136,440,-54,26,-7
9155,-1920,-160,456,-57,27,-7
9160,-1896,-136,520,-60,28,-8
9165,-1912,-144,464,-63,26,-8
9170,-1952,-144,488,-64,25,-9
9175,-1928,-136,496,-64,24,-10
9180,-1920,-152,464,-64,25,-10
9185,-1920,-152,480,-65,25,-10
9190,-1896,-168,480,-64,26,-9
9195,-1936,-144,488,-63,24,-9
9200,-1920,-120,480,-63,23,-9
9205,-1912,-168,448,-64,21,-8
9210,-1944,-136,464,-60,22,-9
9215,-1920,-144,464,-58,21,-8
9220,-1944,-144,512,-54,19,-8
9225,-1920,-144,472,-51,21,-10
9230,-1944,-136,504,-46,21,-9
9235,-1936,-144,472,-43,20,-9
9240,-1928,-152,456,-41,22,-9
9245,-1904,-152,480,-40,21,-9
9250,-1936,-144,488,-40,21,-9
9255,-1912,-152,456,-41,20,-10
9260,-1920,-168,472,-43,19,-11
9265,-1936,-144,448,-42,18,-11
9270,-1944,-160,472,-45,16,-14
9275,-1944,-136,480,-48,17,-13
9280,-1920,-160,464,-48,17,-12
9285,-1920,-128,488,-52,19,-12
9290,-1928,-168,496,-56,20,-13
9295,-1920,-152,472,-57,23,-11
9300,-1936,-168,512,-60,27,-12
9305,-1952,-144,464,-63,29,-13
9310,-1912,-152,472,-65,31,-13
9315,-1928,-160,504,-67,33,-14
9320,-1936,-160,464,-68,33,-14
9325,-1920,-160,488,-71,33,-13
9330,-1912,-160,464,-68,32,-12
9335,-1912,-152,432,-67,32,-11
9340,-1928,-144,488,-61,30,-10
9345,-1928,-144,456,-56,29,-9
9350,-1936,-152,464,-48,24,-9
9355,-1928,-240,544,-37,18,-10
9360,-1928,-144,448,-27,12,-10
9365,-1944,-144,432,-20,5,-11
9370,-1952,-144,440,-13,0,-12
9375,-1936,-160,456,-6,-4,-14
9380,-1944,-152,472,-2,-8,-16
9385,-1936,-160,448,4,-11,-17
9390,-1944,-160,472,9,-12,-17
9395,-1936,-168,464,12,-12,-19
9400,-1912,-176,480,13,-10,-21
9405,-1928,-152,480,14,-9,-20
9410,-1968,-96,504,13,-6,-22
9415,-1904,-168,528,8,-5,-21
9420,-1920,-168,472,1,-2,-20
9425,-1912,-144,488,-4,-2,-19
9430,-1904,-152,504,-11,-2,-19
9435,-1912,-136,488,-17,-2,-17
9440,-1928,-128,464,-21,-2,-15
9445,-1944,-136,488,-28,-4,-14
9450,-1912,-160,456,-35,-2,-13
9455,-1920,-128,504,-44,0,-12
9460,-1904,-160,488,-48,2,-10
9465,-1968,-304,552,-55,5,-9
9470,-1936,-160,496,-59,9,-9
9475,-1920,-160,464,-59,13,-7
9480,-1896,-120,496,-59,17,-6
9485,-1912,-152,488,-58,18,-4
9490,-1896,-144,472,-54,19,-3
9495,-1936,-152,488,-51,17,-2
9500,-1904,-120,472,-47,16,-1
9505,-1912,-136,448,-44,15,-2
9510,-1920,-152,480,-43,14,-3
9515,-1912,-160,472,-41,13,-4
9520,-1944,-144,512,-39,14,-4
9525,-1920,-120,464,-40,12,-7
9530,-1936,-144,472,-41,12,-8
9535,-1912,-152,480,-41,13,-7
9540,-1920,-136,464,-37,14,-7
9545,-1904,-136,448,-40,15,-10
9550,-1904,-144,496,-38,16,-9
9555,-1904,-136,488,-37,16,-8
9560,-1928,-136,464,-39,16,-9
9565,-1928,-144,480,-41,17,-10
9570,-1928,-152,488,-41,18,-10
9575,-1928,-144,472,-43,18,-11
9580,-1920,-144,440,-43,18,-12
9585,-1920,-128,472,-39,18,-11
9590,-1920,-152,456,-40,19,-10
9595,-1928,-144,488,-38,18,-11
9600,-1912,-160,464,-38,17,-11
9605,-1904,-144,464,-37,15,-10
9610,-1912,-136,472,-36,15,-9
9615,-1944,-168,472,-35,12,-8
9620,-1912,-168,464,-34,11,-7
9625,-1912,-160,464,-33,7,-7
9630,-1920,-152,456,-33,5,-7
9635,-1912,-168,480,-33,3,-3
9640,-1928,-176,440,-32,0,-1
9645,-1960,-168,464,-35,-1,-4
9650,-1936,-160,456,-38,0,-5
9655,-1928,-160,472,-41,1,-5
9660,-1920,-144,472,-46,0,-4
9665,-1912,-168,480,-48,1,-4
9670,-1928,-152,488,-49,1,-2
9675,-1920,-144,488,-48,2,-4
9680,-1928,-136,472,-46,1,-3
9685,-1928,-160,472,-44,3,-2
9690,-1936,-160,472,-43,0,1
9695,-1920,-136,464,-38,-3,2
9700,-1936,-144,464,-37,-5,3
9705,-1912,-160,456,-36,-7,4
9710,-1912,-160,472,-36,-8,3
9715,-1920,-152,480,-36,-10,5
9720,-1928,-144,496,-38,-10,4
9725,-1928,-120,448,-42,-11,4
9730,-1912,-160,488,-43,-11,4
9735,-1936,-136,480,-45,-9,3
9740,-1904,-152,496,-45,-8,2
9745,-1936,-152,480,-48,-5,3
9750,-1944,-168,488,-48,-2,2
9755,-1944,-152,448,-48,0,4
9760,-1944,-144,520,-46,1,3
9765,-1928,-144,512,-45,1,4
9770,-1920,-160,472,-41,0,2
9775,-1936,-128,480,-37,-3,0
9780,-1928,-160,496,-34,-6,-1
9785,-1920,-136,488,-30,-10,-3
9790,-1912,-128,472,-26,-12,-3
9795,-1944,-144,488,-25,-13,-6
9800,-1936,-152,496,-24,-13,-5
9805,-1920,-168,496,-24,-10,-8
9810,-1912,-136,504,-24,-8,-9
9815,-1896,-152,480,-26,-6,-10
9820,-1912,-184,512,-28,-5,-9
9825,-1920,-136,480,-27,-3,-8
9830,-1920,-168,496,-27,-2,-7
9835,-1896,-152,448,-28,-1,-8
9840,-1928,-144,472,-26,-1,-9
9845,-1928,-160,496,-25,1,-9
9850,-1912,-152,480,-22,0,-10
9855,-1912,-144,488,-18,1,-12
9860,-1920,-152,480,-16,2,-13
9865,-1928,-120,496,-18,1,-12
9870,-1912,-136,496,-18,2,-13
9875,-1936,-136,504,-17,2,-11
9880,-1920,-136,488,-17,3,-11
9885,-1904,-144,464,-17,3,-12
9890,-1928,-160,520,-17,4,-12
9895,-1912,-136,504,-21,6,-12
9900,-1904,-144,464,-22,6,-9
9905,-1888,-168,480,-25,4,-2
9910,-1928,-152,496,-23,5,-3
9915,-1904,-128,488,-26,5,-8
9920,-1912,-144,488,-30,8,-9
9925,-1912,-144,480,-33,8,-9
9930,-1920,-136,512,-35,9,-7
9935,-1928,-112,480,-39,9,-7
9940,-1928,-152,488,-42,11,-7
9945,-1912,-136,480,-47,10,-6
9950,-1896,-136,464,-51,11,-6
9955,-1936,-136,512,-54,11,-7
9960,-1920,-160,496,-54,13,-6
9965,-1912,-152,480,-56,13,-5
9970,-1928,-152,472,-55,16,-5
9975,-1928,-136,504,-55,16,-5
9980,-1928,-152,512,-54,16,-4
9985,-1888,-168,448,-54,15,-5
9990,-1904,-144,488,-53,16,-6
9995,-1904,-152,496,-52,14,-4
10000,-1912,-152,496,-51,14,-6
10005,-1920,-144,504,-52,13,-5
10010,-1920,-128,496,-51,13,-5
10015,-1912,-144,464,-50,13,-6
10020,-1928,-160,448,-52,12,-7
10025,-1920,-128,520,-50,14,-7
10030,-1912,-152,480,-49,14,-7
10035,-1920,-144,480,-49,13,-7
10040,-1944,-160,496,-51,16,-5
10045,-1904,-152,512,-52,16,-4
10050,-1928,-136,488,-53,15,-4
10055,-1904,-152,472,-50,16,-4
10060,-1920,-144,488,-50,16,-5
10065,-1912,-152,488,-49,17,-5
10070,-1944,-128,472,-48,17,-5
10075,-1920,-160,504,-49,17,-6
10080,-1904,-136,480,-52,17,-5
10085,-1928,-136,504,-52,18,-4
10090,-1896,-136,512,-55,17,-4
10095,-1904,-160,536,-58,19,-5
10100,-1920,-152,488,-59,19,-5
10105,-1896,-160,480,-61,19,-4
10110,-1936,-152,504,-61,17,-4
10115,-1872,-160,472,-62,20,-4
10120,-1904,-152,496,-62,22,-3
10125,-1912,-152,488,-62,22,-4
10130,-1920,-136,488,-58,21,-4
10135,-1928,-168,472,-53,19,-3
10140,-1912,-160,464,-49,15,-3
10145,-1920,-152,472,-46,13,-3
10150,-1928,-152,472,-40,12,-5
10155,-1920,-136,520,-36,10,-4
10160,-1920,-144,464,-35,10,-5
10165,-1936,-136,496,-36,11,-5
10170,-1920,-152,488,-36,10,-6
10175,-1920,-144,504,-39,10,-7
10180,-1904,-152,520,-42,11,-7
10185,-1928,-160,512,-43,12,-6
10190,-1904,-192,520,-42,14,-5
10195,-1896,-160,496,-43,15,-4
10200,-1920,-160,488,-42,15,-4
10205,-1888,-176,504,-41,14,-2
10210,-1896,-160,480,-38,15,-2
10215,-1904,-168,480,-33,16,-1
10220,-1912,-152,504,-31,13,-2
10225,-1920,-136,464,-28,13,-2
10230,-1920,-136,464,-28,10,-1
10235,-1920,-136,464,-29,9,0
10240,-1904,-144,472,-32,8,0
10245,-1928,-144,480,-36,10,1
10250,-1912,-136,512,-38,10,1
10255,-1920,-136,472,-42,11,1
10260,-1920,-136,504,-46,12,0
10265,-1904,-144,552,-47,13,-1
10270,-1920,-160,480,-48,14,-1
10275,-1928,-168,504,-49,14,-3
10280,-1904,-168,472,-48,12,-2
10285,-1920,-136,480,-45,8,-4
10290,-1920,-136,448,-43,7,-4
10295,-1888,-160,480,-42,4,-5
10300,-1920,-120,488,-41,2,-7
10305,-1904,-152,480,-37,0,-7
10310,-1920,-136,480,-35,-2,-8
10315,-1944,-136,488,-34,-3,-7
10320,-1920,-152,504,-31,-1,-7
10325,-1936,-152,456,-26,1,-7
10330,-1912,-160,488,-24,2,-7
10335,-1936,-136,480,-21,5,-8
10340,-1928,-120,480,-23,6,-9
10345,-1920,-144,496,-24,7,-8
10350,-1928,-160,504,-24,9,-9
10355,-1904,-152,488,-27,11,-9
10360,-1928,-152,504,-29,11,-11
10365,-1920,-128,488,-29,12,-11
10370,-1920,-168,464,-30,14,-13
10375,-1904,-136,464,-32,12,-12
10380,-1904,-168,504,-34,10,-14
10385,-1920,-136,504,-34,10,-13
10390,-1912,-168,528,-37,10,-11
10395,-1912,-136,464,-37,8,-10
10400,-1928,-152,488,-38,6,-10
10405,-1872,-168,504,-37,6,-9
10410,-1896,-144,480,-39,3,-10
10415,-1912,-128,504,-39,3,-9
10420,-1912,-128,512,-37,3,-10
10425,-1912,-152,488,-40,2,-9
10430,-1904,-160,496,-39,0,-8
10435,-1896,-136,504,-42,-1,-8
10440,-1904,-136,480,-44,-3,-9
10445,-1928,-152,488,-45,-3,-7
10450,-1936,-128,488,-47,-2,-9
10455,-1912,-136,504,-51,-2,-9
10460,-1920,-144,480,-53,0,-8
10465,-1896,-144,488,-54,0,-8
10470,-1904,-160,512,-55,1,-7
10475,-1920,-128,512,-53,1,-7
10480,-1936,-160,488,-48,1,-7
10485,-1904,-168,488,-47,2,-6
10490,-1936,-152,520,-45,0,-4
10495,-1896,-144,504,-43,1,-4
10500,-1912,-168,528,-44,-2,-3
10505,-1896,-160,504,-46,-1,-2
10510,-1920,-152,496,-47,-1,-2
10515,-1928,-144,504,-50,1,-2
10520,-1928,-152,512,-52,3,-3
10525,-1888,-152,496,-54,5,-3
10530,-1920,-144,496,-56,9,-3
10535,-1904,-128,520,-56,10,-3
10540,-1904,-152,488,-58,14,-2
10545,-1928,-152,504,-58,15,0
10550,-1928,-232,592,-57,17,-1
10555,-1904,-152,536,-54,15,-1
10560,-1896,-160,520,-52,14,-2
10565,-1920,-136,504,-50,12,-1
10570,-1920,-176,504,-48,11,-3
10575,-1920,-160,496,-47,9,-4
10580,-1936,-144,512,-46,7,-6
10585,-1912,-136,512,-45,7,-6
10590,-1904,-160,496,-47,8,-7
10595,-1912,-144,528,-49,11,-7
10600,-1912,-136,512,-50,13,-8
10605,-1872,-80,456,-49,16,-7
10610,-1920,-168,504,-50,19,-7
10615,-1904,-160,496,-49,20,-6
10620,-1920,-168,504,-48,21,-4
10625,-1888,-176,504,-47,24,-4
10630,-1904,-144,480,-45,23,-2
10635,-1920,-136,504,-45,23,-5
10640,-1920,-144,456,-44,22,-4
10645,-1888,-168,504,-45,21,-4
10650,-1904,-160,496,-47,21,-4
10655,-1912,-136,488,-46,18,-4
10660,-1856,-176,376,-45,19,-3
10665,-1896,-136,512,-49,18,-5
10670,-1904,-112,512,-49,18,-4
10675,-1936,-136,472,-50,15,-4
10680,-1912,-144,496,-50,15,-5
10685,-1912,-136,488,-48,14,-3
10690,-1920,-152,456,-46,14,-3
10695,-1920,-144,496,-46,12,-4
10700,-1920,-136,504,-46,14,-4
10705,-1920,-168,504,-47,13,-3
10710,-1896,-160,496,-45,13,-4
10715,-1904,-144,504,-44,12,-4
10720,-1912,-128,512,-48,12,-3
10725,-1896,-144,512,-53,12,-4
10730,-1912,-160,480,-52,12,-5
10735,-1928,-152,504,-53,11,-6
10740,-1896,-160,496,-56,13,-6
10745,-1904,-168,504,-57,14,-7
10750,-1912,-152,504,-58,14,-7
10755,-1928,-136,480,-62,14,-6
10760,-1912,-144,544,-61,15,-6
10765,-1912,-144,504,-61,15,-6
10770,-1920,-152,496,-62,14,-6
10775,-1920,-152,496,-63,14,-6
10780,-1920,-144,480,-60,14,-7
10785,-1920,-160,480,-58,13,-7
10790,-1912,-144,480,-55,14,-5
10795,-1912,-136,504,-54,13,-6
10800,-1928,-144,496,-54,13,-6
10805,-1912,-160,488,-51,10,-6
10810,-1896,-152,496,-50,12,-6
10815,-1912,-136,496,-49,11,-5
10820,-1904,-144,512,-50,10,-6
10825,-1936,-128,472,-51,9,-7
10830,-1912,-144,488,-50,10,-8
10835,-1896,-168,480,-52,10,-7
10840,-1920,-144,496,-51,11,-7
10845,-1912,-152,504,-50,11,-7
10850,-1912,-168,488,-50,10,-8
10855,-1928,-152,480,-49,12,-9
10860,-1904,-144,504,-50,12,-8
10865,-1928,-136,488,-50,12,-8
10870,-1896,-144,488,-48,12,-7
10875,-1920,-152,480,-50,12,-8
10880,-1904,-144,504,-47,12,-7
10885,-1896,-160,528,-47,13,-6
10890,-1928,-152,464,-45,11,-7
10895,-1904,-168,496,-46,11,-5
10900,-1936,-144,480,-45,12,-5
10905,-1904,-168,520,-44,11,-6
10910,-1920,-136,464,-43,12,-5
10915,-1928,-152,512,-44,11,-4
10920,-1904,-160,512,-43,10,-4
10925,-1912,-144,512,-44,13,-4
10930,-1912,-144,496,-44,13,-2
10935,-1912,-144,496,-45,14,-3
10940,-1904,-152,496,-48,16,-2
10945,-1912,-144,496,-49,16,-1
10950,-1912,-160,512,-53,16,-3
10955,-1904,-128,512,-54,18,-2
10960,-1904,-136,520,-54,20,-2
10965,-1872,-152,512,-55,22,-2
10970,-1912,-136,504,-56,23,-2
10975,-1912,-152,480,-56,25,-2
10980,-1912,-160,512,-54,25,-2
10985,-1904,-152,512,-54,23,-2
10990,-1912,-160,496,-51,19,-3
10995,-1912,-160,480,-47,15,-4
11000,-1928,-136,464,-41,11,-2
11005,-1936,-128,488,-38,9,-2
11010,-1912,-144,496,-36,6,-3
11015,-1904,-136,504,-37,5,-4
11020,-1904,-144,496,-35,4,-4
11025,-1912,-136,488,-34,4,-5
11030,-1920,-144,472,-37,4,-5
11035,-1912,-144,488,-39,7,-6
11040,-1912,-136,504,-42,8,-4
11045,-1888,-192,488,-42,10,-2
11050,-1912,-144,512,-42,12,-3
11055,-1888,-144,480,-44,12,-1
11060,-1920,-176,496,-42,12,0
11065,-1896,-160,504,-40,14,1
11070,-1904,-168,496,-38,14,2
11075,-1904,-176,512,-37,14,2
11080,-1928,-152,488,-35,12,2
11085,-1944,-136,504,-35,8,3
11090,-1920,-144,464,-33,7,3
11095,-1920,-136,472,-36,7,4
11100,-1920,-144,472,-38,7,5
11105,-1912,-112,488,-38,10,5
11110,-1888,-144,504,-40,11,5
11115,-1904,-152,496,-41,11,5
11120,-1904,-136,488,-42,12,5
11125,-1880,-184,504,-46,11,5
11130,-1904,-152,512,-46,11,6
11135,-1888,-160,488,-45,10,5
11140,-1896,-152,512,-45,10,4
11145,-1912,-144,504,-42,8,4
11150,-1912,-160,472,-38,6,3
11155,-1904,-168,536,-39,4,2
11160,-1912,-128,496,-38,3,0
11165,-1912,-160,528,-36,4,-1
11170,-1920,-128,464,-35,4,-3
11175,-1920,-168,496,-34,6,-3
11180,-1920,-152,504,-36,5,-5
11185,-1904,-144,512,-36,7,-6
11190,-1912,-144,504,-35,8,-6
11195,-1920,-152,504,-36,10,-7
11200,-1896,-136,488,-36,11,-6
11205,-1912,-152,488,-37,12,-6
11210,-1896,-184,480,-40,13,-6
11215,-1936,-128,536,-40,13,-7
11220,-1928,-144,520,-38,15,-9
11225,-1904,-160,472,-38,15,-7
11230,-1920,-128,520,-41,13,-7
11235,-1912,-136,496,-40,13,-7
11240,-1920,-160,464,-39,11,-8
11245,-1928,-152,472,-38,9,-7
11250,-1888,-176,480,-37,6,-8
11255,-1920,-152,488,-34,6,-7
11260,-1904,-152,488,-31,4,-7
11265,-1896,-168,488,-31,3,-6
11270,-1904,-160,488,-29,2,-6
11275,-1896,-152,480,-28,-1,-6
11280,-1904,-168,488,-30,-4,-7
11285,-1920,-144,504,-29,-4,-6
11290,-1904,-136,472,-28,-4,-7
11295,-1936,-136,472,-28,-6,-7
11300,-1904,-136,520,-31,-7,-7
11305,-1912,-136,480,-35,-6,-7
11310,-1912,-152,512,-38,-5,-6
11315,-1912,-168,504,-41,-5,-7
11320,-1896,-168,512,-42,-3,-7
11325,-1904,-160,520,-42,-3,-7
11330,-1888,-152,496,-41,-2,-6
11335,-1896,-144,512,-39,-2,-6
11340,-1936,-128,464,-37,-5,-6
11345,-1904,-152,512,-36,-7,-3
11350,-1904,-144,504,-32,-9,-2
11355,-1912,-168,496,-29,-12,-1
11360,-1912,-136,520,-30,-14,-2
11365,-1904,-152,480,-33,-15,-4
11370,-1920,-152,504,-35,-13,-4
11375,-1928,-144,488,-35,-12,-3
11380,-1904,-184,528,-38,-11,-2
11385,-1896,-144,504,-40,-10,-2
11390,-1904,-168,544,-43,-7,-3
11395,-1896,-152,520,-44,-2,-2
11400,-1928,-120,512,-46,0,-2
11405,-1888,-168,512,-48,3,-2
11410,-1912,-152,520,-49,5,-3
11415,-1896,-144,520,-50,7,-2
11420,-1912,-160,520,-51,8,-2
11425,-1896,-136,488,-50,7,-2
11430,-1912,-144,520,-50,7,-4
11435,-1912,-144,520,-49,6,-5
11440,-1904,-144,528,-50,5,-5
11445,-1904,-136,512,-48,6,-5
11450,-1912,-136,536,-47,8,-7
11455,-1896,-152,536,-47,11,-7
11460,-1936,-136,536,-48,16,-6
11465,-1904,-160,504,-51,18,-6
11470,-1920,-144,504,-49,20,-5
11475,-1896,-144,504,-49,20,-4
11480,-1896,-160,504,-49,22,-4
11485,-1896,-152,496,-48,22,-3
11490,-1920,-136,496,-47,21,-3
11495,-1888,-152,512,-45,21,-3
11500,-1912,-144,464,-45,21,-3
11505,-1888,-128,536,-43,19,-4
11510,-1912,-120,496,-45,19,-5
11515,-1904,-144,528,-46,19,-5
11520,-1920,-144,520,-46,17,-5
11525,-1928,-144,512,-47,16,-6
11530,-1912,-144,504,-48,17,-5
11535,-1920,-120,496,-48,17,-6
11540,-1912,-160,512,-48,18,-6
11545,-1912,-160,488,-48,19,-6
11550,-1920,-160,512,-49,19,-5
11555,-1928,-136,504,-48,19,-5
11560,-1880,-152,520,-51,18,-4
11565,-1912,-136,504,-51,18,-5
11570,-1904,-136,520,-52,18,-5
11575,-1904,-160,520,-54,17,-4
11580,-1920,-144,496,-55,17,-3
11585,-1904,-136,512,-55,18,-6
11590,-1912,-160,496,-56,18,-5
11595,-1920,-184,512,-55,17,-5
11600,-1928,-136,496,-55,16,-4
11605,-1888,-136,488,-56,16,-4
11610,-1936,-120,480,-57,16,-5
11615,-1920,-128,520,-59,16,-4
11620,-1936,-136,488,-58,16,-4
11625,-1904,-112,504,-57,16,-5
11630,-1920,-128,496,-57,14,-6
11635,-1936,-128,496,-55,14,-5
11640,-1920,-152,520,-56,15,-5
11645,-1912,-152,488,-56,13,-4
11650,-1904,-152,528,-54,11,-3
11655,-1896,-144,488,-53,10,-3
11660,-1904,-176,512,-50,11,-5
11665,-1920,-128,520,-50,10,-4
11670,-1912,-144,504,-50,10,-6
11675,-1904,-120,512,-49,10,-7
11680,-1896,-160,512,-50,11,-5
11685,-1920,-144,536,-52,11,-6
11690,-1912,-136,536,-53,10,-6
11695,-1968,-224,600,-55,12,-6
11700,-1888,-168,528,-54,13,-7
11705,-1896,-168,528,-55,14,-7
11710,-1888,-160,512,-54,14,-7
11715,-1888,-152,472,-56,15,-7
11720,-1928,-152,544,-56,17,-8
11725,-1920,-136,528,-55,16,-7
11730,-1904,-136,512,-54,14,-7
11735,-1928,-136,512,-54,16,-8
11740,-1920,-144,528,-54,16,-7
11745,-1896,-136,504,-52,17,-6
11750,-1960,-168,520,-52,16,-6
11755,-1936,-144,496,-54,17,-4
11760,-1920,-160,472,-53,16,-4
11765,-1904,-160,480,-53,17,-4
11770,-1904,-144,496,-51,16,-5
11775,-1880,-144,496,-51,18,-5
11780,-1920,-136,520,-52,17,-4
11785,-1896,-136,520,-51,18,-5
11790,-1896,-160,504,-51,17,-5
11795,-1920,-120,504,-49,15,-5
11800,-1888,-152,480,-50,15,-4
11805,-1968,-144,552,-48,17,-4
11810,-1896,-152,512,-47,17,-3
11815,-1920,-160,512,-46,17,-5
11820,-1904,-152,536,-44,15,-3
11825,-1880,-136,512,-42,16,-2
11830,-1920,-160,472,-44,14,-3
11835,-1912,-168,480,-42,15,-2
11840,-1904,-144,496,-42,15,-4
11845,-1920,-136,496,-41,16,-3
11850,-1904,-176,504,-39,15,-4
11855,-1912,-144,480,-39,16,-4
11860,-1832,-120,440,-39,15,-2
11865,-1880,-160,504,-39,16,-4
11870,-1904,-160,488,-40,16,-3
11875,-1896,-160,496,-40,17,-2
11880,-1912,-160,544,-43,17,-2
11885,-1928,-128,536,-47,17,-2
11890,-1920,-144,504,-48,18,-2
11895,-1904,-160,520,-50,19,-4
11900,-1880,-168,512,-51,18,-2
11905,-1888,-160,512,-53,19,-2
11910,-1912,-152,496,-52,19,-2
11915,-1896,-152,488,-49,19,-2
11920,-1920,-160,496,-46,19,-2
11925,-1928,-128,504,-44,18,-3
11930,-1928,-168,472,-41,15,-3
11935,-1904,-144,472,-36,11,-3
11940,-1936,-136,496,-36,9,-4
11945,-1936,-128,464,-33,8,-4
11950,-1912,-152,504,-30,7,-5
11955,-1928,-136,504,-32,6,-6
11960,-1904,-168,512,-32,5,-6
11965,-1896,-144,496,-33,5,-7
11970,-1920,-152,512,-35,7,-6
11975,-1904,-152,512,-38,9,-7
11980,-1944,-152,528,-41,10,-6
11985,-1912,-176,528,-43,12,-5
11990,-1896,-160,520,-46,13,-4
11995,-1904,-144,544,-47,14,-2
12000,-1888,-168,520,-44,15,0
12005,-1944,-160,488,-43,17,1
12010,-1912,-176,480,-43,18,2
12015,-1920,-160,488,-39,18,4
12020,-1928,-152,528,-37,17,5
12025,-1904,-144,480,-35,17,6
12030,-1928,-128,496,-35,16,6
12035,-1920,-152,472,-32,16,7
12040,-1928,-144,496,-32,16,6
12045,-1928,-136,520,-32,16,6
12050,-1904,-168,528,-36,18,6
12055,-1896,-144,512,-37,18,4
12060,-1888,-168,488,-35,19,4
12065,-1888,-152,528,-37,17,3
12070,-1888,-144,512,-38,17,2
12075,-1904,-152,496,-41,16,1
12080,-1920,-144,504,-45,15,-1
12085,-1928,-120,512,-44,11,-1
12090,-1912,-144,488,-45,8,-2
12095,-1920,-152,496,-43,6,-2
12100,-1904,-152,496,-45,8,-4
12105,-1928,-136,544,-46,9,-4
12110,-1920,-136,512,-43,10,-6
12115,-1904,-136,528,-42,11,-6
12120,-1912,-136,504,-42,11,-7
12125,-1912,-152,520,-42,14,-6
12130,-1912,-144,512,-42,16,-6
12135,-1896,-144,536,-42,17,-7
12140,-1896,-128,496,-42,16,-8
12145,-1912,-136,512,-43,17,-7
12150,-1896,-152,496,-43,16,-7
12155,-1896,-144,496,-44,17,-8
12160,-1912,-152,520,-47,17,-8
12165,-1920,-144,472,-47,16,-10
12170,-1896,-152,512,-49,15,-7
12175,-1912,-120,496,-50,15,-6
12180,-1904,-152,504,-50,15,-6
12185,-1904,-144,480,-47,14,-6
12190,-1904,-144,512,-47,14,-6
12195,-1920,-168,480,-48,14,-4
12200,-1912,-144,520,-48,13,-5
12205,-1920,-160,536,-48,12,-5
12210,-1896,-168,528,-48,13,-4
12215,-1912,-160,528,-50,12,-4
12220,-1912,-152,496,-50,12,-2
12225,-1928,-128,488,-51,11,-3
12230,-1912,-128,496,-52,11,-3
12235,-1888,-144,480,-52,9,-3
12240,-1912,-144,512,-54,10,-4
12245,-1896,-144,512,-56,11,-4
12250,-1904,-136,528,-58,11,-3
12255,-1904,-160,528,-59,12,-4
12260,-1872,-144,496,-57,10,-4
12265,-1904,-160,496,-56,11,-4
12270,-1896,-176,520,-53,11,-3
12275,-1912,-160,504,-49,11,-3
12280,-1904,-176,512,-48,9,-3
12285,-1904,-144,520,-46,6,-2
12290,-1904,-160,472,-45,4,-2
12295,-1904,-144,504,-45,1,-1
12300,-1888,-160,496,-44,0,-2
12305,-1904,-160,528,-43,1,-2
12310,-1920,-160,496,-45,2,1
12315,-1944,-128,528,-47,4,-1
12320,-1912,-160,536,-48,4,-1
12325,-1880,-144,504,-50,6,-1
12330,-1912,-128,512,-51,8,-2
12335,-1904,-152,536,-52,10,-2
12340,-1888,-160,496,-54,11,-2
12345,-1904,-144,528,-53,13,-1
12350,-1904,-152,512,-54,15,0
12355,-1904,-144,512,-53,14,-1
12360,-1904,-152,512,-52,12,-1
12365,-1904,-136,504,-49,13,-2
12370,-1920,-144,504,-48,10,-1
12375,-1896,-120,536,-47,9,-4
12380,-1888,-168,488,-44,7,-4
12385,-1936,-136,504,-43,7,-5
12390,-1912,-160,496,-43,9,-6
12395,-1936,-128,512,-45,9,-5
12400,-1912,-152,536,-44,12,-7
12405,-1928,-128,544,-45,14,-6
12410,-1896,-128,504,-45,15,-5
12415,-1904,-136,536,-46,16,-5
12420,-1896,-120,536,-47,15,-5
12425,-1896,-136,512,-45,17,-5
12430,-1904,-168,504,-44,17,-4
12435,-1904,-136,480,-43,16,-2
12440,-1912,-144,488,-42,16,-3
12445,-1904,-144,504,-43,15,-3
12450,-1896,-144,472,-41,12,-3
12455,-1904,-152,520,-43,12,-4
12460,-1920,-144,496,-44,12,-4
12465,-1904,-152,480,-42,10,-5
12470,-1888,-136,520,-43,9,-6
12475,-1912,-120,528,-43,9,-5
12480,-1928,-136,512,-44,10,-4
12485,-1904,-144,496,-42,10,-4
12490,-1896,-136,488,-43,9,-3
12495,-1896,-144,480,-42,8,-3
12500,-1904,-168,496,-43,8,-5
12505,-1920,-144,528,-44,7,-5
12510,-1904,-136,520,-46,8,-3
12515,-1912,-128,512,-47,7,-4
12520,-1864,-160,488,-47,7,-5
12525,-1928,-136,512,-50,7,-6
12530,-1896,-152,496,-51,6,-4
12535,-1912,-152,520,-52,8,-5
12540,-1912,-160,544,-54,10,-4
12545,-1904,-168,504,-54,12,-5
12550,-1880,-160,488,-56,12,-5
12555,-1912,-160,488,-56,12,-5
12560,-1928,-128,520,-56,12,-4
12565,-1912,-160,528,-56,12,-3
12570,-1904,-144,496,-57,12,-4
12575,-1912,-128,528,-56,11,-4
12580,-1888,-136,496,-57,11,-4
12585,-1904,-176,496,-54,11,-4
12590,-1936,-144,488,-52,11,-6
12595,-1912,-136,512,-50,12,-5
12600,-1904,-144,496,-49,11,-5
12605,-1912,-152,520,-47,11,-4
12610,-1904,-152,520,-45,10,-5
12615,-1888,-152,504,-43,10,-5
12620,-1904,-144,488,-43,10,-5
12625,-1896,-144,536,-41,9,-5
12630,-1904,-136,504,-44,10,-4
12635,-1928,-128,512,-44,10,-5
12640,-1912,-144,504,-44,10,-5
12645,-1896,-120,536,-45,9,-5
12650,-1904,-152,528,-46,10,-5
12655,-1904,-152,504,-47,10,-5
12660,-1904,-136,520,-46,11,-5
12665,-1928,-144,496,-48,11,-5
12670,-1912,-160,512,-49,13,-5
12675,-1888,-152,536,-48,13,-5
12680,-1880,-152,536,-47,13,-4
12685,-1888,-152,552,-46,12,-3
12690,-1904,-144,528,-48,13,-3
12695,-1920,-128,512,-49,12,-3
12700,-1904,-160,528,-49,10,-3
12705,-1896,-176,512,-48,11,-3
12710,-1896,-152,488,-48,12,-2
12715,-1896,-152,488,-48,12,-1
12720,-1920,-152,504,-48,12,-3
12725,-1920,-136,496,-47,12,-1
12730,-1896,-160,488,-47,12,-1
12735,-1944,-136,512,-48,13,-1
12740,-1912,-144,528,-44,14,0
12745,-1904,-136,496,-46,13,-1
12750,-1912,-120,488,-44,13,-1
12755,-1912,-144,520,-44,14,-1
12760,-1912,-136,536,-42,12,-1
12765,-1928,-152,520,-42,12,-2
12770,-1904,-168,536,-42,11,-2
12775,-1896,-152,528,-42,12,-1
12780,-1912,-160,480,-42,10,-1
12785,-1896,-160,536,-44,11,-2
12790,-1904,-136,504,-44,11,-2
12795,-1912,-144,536,-44,10,-2
12800,-1888,-160,528,-45,11,-3
12805,-1904,-144,504,-44,13,-3
12810,-1904,-144,512,-44,14,-2
12815,-1912,-120,536,-45,16,-4
12820,-1904,-136,528,-47,16,-2
12825,-1904,-144,544,-50,16,-3
12830,-1904,-128,512,-50,16,-4
12835,-1896,-136,520,-54,15,-3
12840,-1824,-104,456,-54,16,-4
12845,-1904,-152,496,-53,17,-2
12850,-1880,-168,520,-52,16,-3
12855,-1912,-160,504,-50,17,-3
12860,-1904,-152,504,-48,15,-3
12865,-1904,-152,504,-46,14,-4
12870,-1920,-152,504,-42,10,-3
12875,-1888,-152,496,-38,8,-3
12880,-1912,-144,496,-37,6,-4
12885,-1912,-136,504,-34,5,-4
12890,-1920,-136,504,-32,4,-5
12895,-1888,-88,392,-30,2,-6
12900,-1880,-152,528,-27,1,-7
12905,-1912,-136,504,-27,2,-7
12910,-1904,-152,520,-25,3,-6
12915,-1888,-144,528,-25,2,-6
12920,-1888,-176,520,-25,4,-7
12925,-1904,-160,504,-28,6,-6
12930,-1888,-160,504,-26,8,-5
12935,-1880,-168,536,-28,9,-4
12940,-1888,-160,536,-28,11,-2
12945,-1864,-184,528,-25,11,0
12950,-1848,-168,520,-24,9,-1
12955,-1912,-144,512,-23,10,-1
12960,-1912,-128,496,-21,9,0
12965,-1896,-128,472,-20,5,3
12970,-1904,-136,512,-17,0,3
12975,-1928,-136,512,-16,0,5
12980,-1928,-128,472,-14,-2,4
12985,-1904,-120,528,-14,-3,6
12990,-1888,-144,520,-15,-4,5
12995,-1920,-128,520,-15,-5,1
13000,-1904,-152,520,-16,-4,0
13005,-1824,-96,456,-20,-1,1
13010,-1912,-128,520,-23,0,2
13015,-1880,-120,512,-27,0,2
13020,-1920,-136,520,-24,-1,9
13025,-1944,-144,512,-24,-3,4
13030,-1904,-152,504,-26,-1,1
13035,-1888,-136,512,-28,-1,1
13040,-1904,-152,520,-28,-1,-2
13045,-1936,-136,520,-29,0,-4
13050,-1912,-120,496,-28,0,-3
13055,-1904,-128,512,-26,2,-1
13060,-1912,-136,512,-18,2,-2
13065,-1920,-128,496,-19,2,-6
13070,-1912,-136,520,-23,5,-7
13075,-1872,-144,536,-26,6,-8
13080,-1888,-136,528,-30,6,-6
13085,-1928,-136,504,-33,6,-8
13090,-1896,-120,536,-33,8,-8
13095,-1760,-112,480,-36,9,-8
13100,-1904,-128,544,-37,10,-8
13105,-1904,-128,544,-37,11,-8
13110,-1936,-144,520,-38,13,-7
13115,-1888,-120,544,-41,14,-8
13120,-1904,-104,536,-45,15,-7
13125,-1912,-144,496,-49,16,-6
13130,-1888,-144,488,-51,16,-7
13135,-1936,-128,552,-52,17,-7
13140,-1904,-136,504,-53,16,-7
13145,-1896,-152,496,-52,16,-6
13150,-1896,-144,520,-51,17,-5
13155,-1896,-144,528,-52,15,-6
13160,-1912,-136,520,-52,14,-5
13165,-1896,-152,480,-52,12,-5
13170,-1920,-120,528,-52,10,-6
13175,-1904,-136,520,-53,10,-6
13180,-1912,-120,512,-56,7,-6
13185,-1888,-160,504,-57,7,-7
13190,-1904,-160,520,-57,8,-8
13195,-1928,-144,504,-59,7,-6
13200,-1888,-152,536,-56,6,-6
13205,-1888,-152,512,-54,7,-6
13210,-1904,-152,528,-53,8,-5
13215,-1904,-160,520,-50,7,-5
13220,-1888,-168,544,-48,5,-5
13225,-1880,-160,512,-46,4,-5
13230,-1880,-144,512,-45,3,-5
13235,-1912,-160,520,-45,0,-4
13240,-1896,-120,528,-44,-1,-3
13245,-1888,-144,536,-45,-1,-3
13250,-1912,-144,536,-46,-1,-4
13255,-1904,-160,504,-47,-1,-3
13260,-1920,-128,520,-47,1,-2
13265,-1920,-112,544,-50,4,-1
13270,-1920,-144,528,-52,6,-2
13275,-1880,-168,552,-53,9,-1
13280,-1896,-144,520,-54,11,-1
13285,-1888,-144,504,-54,12,0
13290,-1888,-136,528,-55,14,0
13295,-1904,-144,552,-53,14,0
13300,-1896,-184,520,-51,14,0
13305,-1920,-144,528,-50,13,0
13310,-1880,-168,504,-47,12,-1
13315,-1904,-128,504,-46,10,-2
13320,-1904,-152,480,-45,8,-2
13325,-1904,-136,504,-44,7,-2
13330,-1944,-128,544,-43,8,-4
13335,-1912,-128,512,-42,8,-4
13340,-1920,-144,496,-42,11,-5
13345,-1888,-144,536,-42,12,-4
13350,-1912,-136,528,-43,13,-5
13355,-1896,-144,536,-43,15,-5
13360,-1904,-136,528,-43,18,-4
13365,-1912,-112,504,-43,18,-3
13370,-1888,-144,496,-42,18,-2
13375,-1904,-128,488,-45,18,-3
13380,-1896,-144,496,-42,19,-3
13385,-1904,-136,528,-44,20,-3
13390,-1904,-144,528,-44,17,-2
13395,-1888,-128,504,-45,18,-3
13400,-1888,-136,552,-47,16,-2
13405,-1904,-152,504,-48,15,-2
13410,-1920,-136,520,-48,14,-4
13415,-1904,-112,520,-47,15,-2
13420,-1920,-112,520,-46,14,-3
13425,-1904,-136,528,-49,14,-2
13430,-1896,-152,512,-50,15,-2
13435,-1928,-144,536,-48,16,-3
13440,-1920,-128,488,-47,15,-3
13445,-1904,-160,520,-48,14,-2
13450,-1912,-136,544,-47,14,-2
13455,-1920,-136,528,-48,14,-1
13460,-1904,-144,520,-47,14,-2
13465,-1896,-152,512,-47,13,-3
13470,-1912,-128,496,-48,12,-2
13475,-1896,-152,560,-49,12,-2
13480,-1888,-136,512,-48,12,-3
13485,-1896,-152,528,-47,11,-3
13490,-1904,-160,512,-47,12,-2
13495,-1936,-128,512,-49,12,-3
13500,-1896,-136,520,-51,12,-3
13505,-1920,-152,512,-52,12,-3
13510,-1912,-128,536,-51,10,-3
13515,-1872,-168,536,-51,9,-3
13520,-1896,-160,528,-51,8,-3
13525,-1896,-136,496,-50,8,-3
13530,-1888,-160,552,-50,7,-3
13535,-1912,-136,496,-52,8,-3
13540,-1920,-136,520,-50,6,-3
13545,-1896,-168,504,-50,6,-4
13550,-1920,-128,560,-50,8,-4
13555,-1896,-144,528,-51,7,-4
13560,-1904,-144,520,-51,7,-3
13565,-1896,-152,536,-48,8,-4
13570,-1912,-128,536,-49,8,-4
13575,-1904,-128,560,-47,10,-4
13580,-1904,-144,528,-45,9,-5
13585,-1888,-136,536,-45,9,-4
13590,-1896,-144,512,-46,10,-4
13595,-1888,-136,536,-45,8,-5
13600,-1904,-128,528,-47,9,-5
13605,-1920,-120,480,-45,9,-4
13610,-1920,-136,552,-46,9,-4
13615,-1888,-152,512,-46,8,-5
13620,-1896,-136,528,-45,9,-5
13625,-1888,-160,544,-45,9,-4
13630,-1904,-136,504,-48,10,-4
13635,-1904,-160,528,-48,10,-4
13640,-1904,-152,512,-48,10,-4
13645,-1904,-144,512,-47,11,-5
13650,-1896,-144,520,-46,12,-4
13655,-1896,-112,504,-47,11,-4
13660,-1888,-152,536,-47,12,-4
13665,-1912,-128,504,-47,13,-5
13670,-1904,-152,560,-46,11,-4
13675,-1904,-136,528,-44,12,-4
13680,-1904,-136,536,-46,13,-3
13685,-1896,-176,544,-43,14,-2
13690,-1912,-128,528,-41,13,-2
13695,-1896,-144,544,-42,13,-3
13700,-1904,-136,536,-40,14,-4
13705,-1880,-160,512,-40,13,-4
13710,-1880,-136,544,-38,14,-3
13715,-1896,-136,536,-40,13,-3
13720,-1912,-144,528,-39,13,-3
13725,-1912,-144,512,-38,13,-3
13730,-1888,-144,536,-38,13,-3
13735,-1888,-144,512,-38,13,-2
13740,-1904,-128,504,-36,14,-2
13745,-1928,-136,488,-35,13,-2
13750,-1880,-144,528,-35,13,-2
13755,-1880,-144,528,-33,13,-2
13760,-1896,-136,520,-34,13,-1
13765,-1896,-144,520,-37,15,-3
13770,-1912,-160,528,-39,14,-3
13775,-1896,-152,512,-43,14,-3
13780,-1880,-168,520,-45,15,-3
13785,-1896,-168,536,-46,16,-3
13790,-1880,-144,504,-46,15,-1
13795,-1904,-152,536,-44,17,-2
13800,-1912,-128,520,-44,16,-3
13805,-1896,-136,528,-41,14,-3
13810,-1904,-112,528,-40,11,-3
13815,-1896,-128,520,-39,8,-2
13820,-1880,-152,528,-37,8,-3
13825,-1920,-136,504,-34,5,-3
13830,-1888,-128,536,-33,5,-5
13835,-1896,-152,520,-33,5,-6
13840,-1912,-152,520,-31,6,-6
13845,-1888,-136,512,-31,5,-6
13850,-1896,-136,528,-29,7,-6
13855,-1880,-136,512,-28,8,-6
13860,-1904,-144,528,-25,10,-4
13865,-1904,-144,528,-23,10,-5
13870,-1888,-144,528,-23,12,-5
13875,-1896,-152,536,-25,13,-5
13880,-1912,-168,536,-26,13,-3
13885,-1896,-160,536,-24,13,-3
13890,-1904,-136,536,-24,12,-1
13895,-1896,-176,504,-23,11,-1
13900,-1912,-120,528,-21,8,0
13905,-1920,-128,496,-17,7,2
13910,-1936,-128,544,-15,6,4
13915,-1888,-136,544,-14,4,2
13920,-1904,-144,488,-12,3,2
13925,-1896,-144,504,-14,3,3
13930,-1864,-144,512,-15,3,2
13935,-1896,-144,552,-19,1,2
13940,-1880,-144,544,-21,1,2
13945,-1888,-136,536,-24,2,0
13950,-1872,-128,528,-30,4,-1
13955,-1904,-120,512,-32,4,-2
13960,-1888,-136,552,-30,2,-8
13965,-1904,-136,512,-28,4,-5
13970,-1912,-120,552,-34,4,-4
13975,-1904,-144,544,-39,4,-3
13980,-1912,-144,528,-39,4,-7
13985,-1944,-152,520,-40,4,-8
13990,-1856,-144,544,-43,7,-9
13995,-1912,-128,528,-41,9,-10
14000,-1880,-136,536,-39,10,-10
14005,-1896,-120,528,-36,11,-11
14010,-1904,-112,560,-37,11,-11
14015,-1912,-136,536,-36,11,-11
14020,-1904,-136,544,-36,12,-12
14025,-1904,-136,528,-38,12,-13
14030,-1904,-112,504,-40,12,-13
14035,-1888,-144,496,-41,14,-13
14040,-1912,-152,568,-42,14,-12
14045,-1920,-120,512,-43,15,-12
14050,-1904,-144,528,-43,14,-14
14055,-1904,-144,528,-40,12,-12
14060,-1896,-144,528,-42,10,-10
14065,-1888,-176,528,-41,9,-10
14070,-1896,-152,552,-39,8,-10
14075,-1912,-120,520,-37,8,-10
14080,-1904,-152,528,-34,6,-8
14085,-1904,-128,536,-34,5,-8
14090,-1968,-152,424,-35,4,-9
14095,-1904,-176,512,-34,1,-8
14100,-1912,-144,544,-33,2,-8
14105,-1912,-120,496,-33,-1,-8
14110,-1896,-128,544,-37,-2,-8
14115,-1904,-120,520,-39,-3,-6
14120,-1888,-128,528,-41,-1,-8
14125,-1896,-168,536,-45,0,-6
14130,-1872,-152,544,-49,0,-6
14135,-1896,-152,536,-52,3,-7
14140,-1912,-128,520,-52,5,-7
14145,-1880,-136,536,-52,6,-7
14150,-1864,-152,536,-53,6,-7
14155,-1880,-144,504,-52,6,-7
14160,-1904,-144,528,-51,7,-7
14165,-1888,-144,544,-51,7,-6
14170,-1888,-160,520,-53,6,-5
14175,-1880,-160,528,-52,4,-6
14180,-1888,-152,520,-55,4,-6
14185,-1920,-136,496,-55,4,-4
14190,-1936,-128,544,-58,4,-5
14195,-1912,-144,536,-60,7,-6
14200,-1920,-144,544,-62,8,-5
14205,-1904,-144,552,-63,11,-5
14210,-1912,-144,512,-66,14,-5
14215,-1904,-152,552,-67,19,-6
14220,-1880,-128,544,-69,21,-4
14225,-1912,-120,544,-66,23,-3
14230,-1896,-144,544,-65,23,-3
14235,-1904,-144,544,-62,24,-1
14240,-1872,-128,544,-58,22,-1
14245,-1880,-144,528,-54,19,-1
14250,-1880,-120,544,-53,17,0
14255,-1896,-136,512,-52,15,0
14260,-1904,-144,528,-52,13,0
14265,-1896,-112,536,-51,14,-2
14270,-1888,-120,544,-47,14,-2
14275,-1896,-128,536,-47,15,-2
14280,-1904,-168,536,-46,16,-4
14285,-1896,-152,512,-44,17,-5
14290,-1872,-144,528,-43,17,-5
14295,-1904,-136,520,-43,20,-3
14300,-1888,-160,544,-44,21,-4
14305,-1912,-128,520,-44,23,-4
14310,-1904,-144,544,-44,23,-4
14315,-1896,-128,544,-45,21,-4
14320,-1896,-112,528,-46,20,-3
14325,-1896,-128,536,-47,20,-2
14330,-1888,-136,512,-49,20,-3
14335,-1912,-144,520,-49,16,-3
14340,-1896,-120,544,-50,15,-4
14345,-1888,-128,552,-52,15,-4
14350,-1888,-144,512,-52,16,-4
14355,-1920,-136,520,-52,16,-3
14360,-1912,-152,544,-51,16,-2
14365,-1896,-136,512,-51,18,-3
14370,-1896,-128,528,-50,17,-3
14375,-1904,-136,560,-49,17,-2
14380,-1904,-168,536,-48,17,-1
14385,-1920,-136,528,-48,18,-1
14390,-1872,-144,528,-47,17,-2
14395,-1896,-136,528,-46,15,-1
14400,-1904,-128,512,-48,15,-3
14405,-1912,-120,536,-47,14,-3
14410,-1904,-160,512,-50,13,-3
14415,-1880,-152,544,-51,15,-2
14420,-1896,-136,544,-50,14,-2
14425,-1904,-184,512,-51,14,-3
14430,-1904,-152,528,-51,15,-3
14435,-1896,-144,544,-51,16,-3
14440,-1944,-136,512,-51,15,-4
14445,-1896,-144,536,-52,13,-3
14450,-1888,-192,536,-52,12,-1
14455,-1904,-152,536,-51,12,-3
14460,-1912,-152,504,-47,11,-2
14465,-1880,-144,552,-46,10,-3
14470,-1904,-144,528,-44,8,-4
14475,-1904,-128,528,-43,8,-4
14480,-1896,-144,520,-43,9,-4
14485,-1904,-136,528,-42,8,-5
14490,-1904,-144,544,-42,9,-4
14495,-1888,-152,544,-41,9,-4
14500,-1896,-168,544,-44,9,-4
14505,-1896,-136,528,-43,8,-5
14510,-1888,-152,528,-44,7,-5
14515,-1896,-144,528,-46,8,-4
14520,-1888,-144,512,-49,7,-4
14525,-1896,-112,544,-49,7,-4
14530,-1896,-144,552,-49,9,-4
14535,-1888,-128,536,-48,8,-4
14540,-1904,-152,520,-48,9,-3
14545,-1896,-160,512,-47,10,-2
14550,-1920,-136,528,-48,11,-2
14555,-1912,-160,520,-49,11,-3
14560,-1888,-144,536,-48,11,-3
14565,-1904,-152,560,-48,13,-3
14570,-1920,-128,520,-48,12,-3
14575,-1888,-136,536,-47,12,-3
14580,-1864,-152,520,-47,11,-2
14585,-1896,-112,520,-48,11,-2
14590,-1904,-136,560,-46,12,-2
14595,-1880,-152,520,-43,11,-1
14600,-1912,-136,536,-43,10,-2
14605,-1896,-136,536,-42,12,-2
14610,-1896,-128,536,-40,11,-3
14615,-1888,-144,528,-37,10,-2
14620,-1888,-144,520,-34,11,-1
14625,-1872,-152,560,-34,10,-2
14630,-1880,-160,528,-33,10,-1
14635,-1912,-128,544,-32,9,-2
14640,-1904,-160,536,-31,7,-2
14645,-1912,-104,544,-32,7,-2
14650,-1896,-152,536,-31,6,-1
14655,-1896,-160,536,-30,6,-2
14660,-1888,-152,560,-31,6,-4
14665,-1896,-136,520,-31,7,-4
14670,-1912,-112,560,-31,7,-3
14675,-1880,-144,544,-35,9,-4
14680,-1904,-128,528,-37,10,-3
14685,-1880,-144,552,-41,10,-4
14690,-1896,-144,536,-44,12,-4
14695,-1904,-120,544,-46,12,-4
14700,-1888,-144,536,-48,13,-4
14705,-1896,-144,536,-47,14,-2
14710,-1912,-128,536,-46,16,-3
14715,-1896,-152,528,-45,15,-3
14720,-1896,-128,552,-44,13,-2
14725,-1888,-144,536,-43,11,-3
14730,-1904,-128,528,-39,9,-3
14735,-1904,-104,552,-40,6,-4
14740,-1912,-144,536,-37,5,-3
14745,-1888,-144,520,-33,5,-4
14750,-1896,-136,536,-32,4,-5
14755,-1896,-128,528,-30,2,-5
14760,-1896,-136,536,-26,4,-6
14765,-1904,-152,520,-25,5,-7
14770,-1896,-144,536,-23,5,-5
14775,-1888,-144,528,-22,8,-5
14780,-1888,-160,568,-19,9,-2
14785,-1888,-136,512,-16,9,-1
14790,-1880,-144,528,-15,8,-3
14795,-1912,-152,568,-18,11,-3
14800,-1896,-152,544,-20,12,-2
14805,-1896,-136,528,-21,11,-2
14810,-1904,-136,520,-19,11,1
14815,-1904,-136,536,-18,9,1
14820,-1896,-120,528,-15,6,2
14825,-1896,-136,504,-12,4,4
14830,-1936,-120,560,-11,3,6
14835,-1888,-136,536,-8,1,6
14840,-1896,-136,536,-8,-2,4
14845,-1880,-152,544,-8,-2,4
14850,-1848,-152,568,-9,-3,4
14855,-1896,-120,544,-7,-2,8
14860,-1888,-144,520,-11,-2,5
14865,-1880,-120,552,-13,1,1
14870,-1872,-136,544,-11,3,1
14875,-1904,-104,560,-17,4,-3
14880,-1896,-112,560,-25,3,-4
14885,-1912,-120,552,-31,2,-4
14890,-1880,-136,560,-36,0,-4
14895,-1896,-128,552,-40,1,-5
14900,-1912,-144,528,-41,5,-6
14905,-1904,-144,536,-40,5,-7
14910,-1904,-120,536,-39,7,-8
14915,-1888,-144,552,-37,8,-9
14920,-1888,-136,536,-37,10,-7
14925,-1904,-120,552,-35,9,-8
14930,-1888,-128,544,-35,11,-9
14935,-1888,-136,544,-37,11,-9
14940,-1896,-112,544,-38,11,-11
14945,-1912,-136,552,-37,10,-10
14950,-1888,-120,520,-39,11,-11
14955,-1904,-120,528,-38,11,-10
14960,-1872,-128,552,-41,12,-11
14965,-1888,-120,552,-43,12,-10
14970,-1888,-136,536,-43,11,-12
14975,-1864,-152,520,-42,12,-11
14980,-1856,-136,528,-43,11,-10
14985,-1888,-128,544,-45,12,-10
14990,-1896,-144,544,-45,11,-10
14995,-1912,-152,528,-47,11,-10
