timestamp,accel_x,accel_y,accel_z,gyro_x,gyro_y,gyro_z
0,88,-1952,592,-33,68,-6
5,96,-1960,568,-33,67,-7
10,96,-1944,552,-34,65,-7
15,112,-1952,576,-33,64,-7
20,88,-1952,576,-34,65,-6
25,136,-2000,648,-34,66,-6
30,104,-1968,568,-35,66,-8
35,104,-1976,600,-34,68,-6
40,112,-1968,576,-31,69,-3
45,88,-1960,568,-28,71,-1
50,128,-1960,568,-25,73,1
55,104,-1944,560,-20,75,3
60,96,-1936,576,-18,76,6
65,112,-1952,536,-17,77,8
70,88,-1936,584,-18,76,7
75,96,-1936,560,-19,74,8
80,104,-1944,584,-20,74,8
85,104,-1936,600,-22,70,6
90,88,-1936,584,-25,69,6
95,120,-1952,560,-27,67,4
100,104,-1944,616,-27,67,3
105,88,-1928,584,-28,66,2
110,80,-1944,568,-27,66,1
115,88,-1936,552,-27,68,0
120,96,-1960,568,-28,68,0
125,128,-1944,576,-28,70,0
130,136,-1960,592,-27,72,-2
135,88,-1920,592,-26,72,-2
140,104,-1944,584,-25,73,-2
145,112,-1960,584,-24,72,-3
150,104,-1960,568,-23,74,-3
155,112,-1960,584,-21,71,-2
160,112,-1952,568,-20,70,-3
165,96,-1944,560,-19,70,-3
170,104,-1936,568,-17,71,-3
175,104,-1920,576,-15,70,-2
180,88,-1928,576,-14,70,-2
185,104,-1896,568,-15,68,-3
190,88,-1944,528,-15,68,-3
195,96,-1952,568,-16,68,-2
200,112,-1960,544,-16,67,-4
205,128,-1944,544,-16,66,-4
210,104,-1928,568,-15,67,-5
215,96,-1960,560,-15,68,-3
220,96,-1936,560,-15,68,-3
225,104,-1952,552,-13,69,-3
230,96,-1976,528,-12,68,-1
235,104,-1944,560,-10,68,-1
240,80,-1920,536,-8,67,-1
245,88,-1936,544,-7,65,-1
250,96,-1952,568,-7,66,-2
255,104,-1928,576,-7,65,-2
260,112,-1952,560,-8,64,-2
265,96,-1968,560,-6,63,-2
270,120,-1952,552,-5,64,-3
275,104,-1968,560,-3,65,-3
280,120,-1960,552,-2,66,-2
285,128,-1952,560,1,68,-2
290,112,-1936,560,5,68,-1
295,96,-1872,536,7,71,0
300,104,-1976,552,11,69,1
305,120,-1968,552,12,70,1
310,112,-1952,584,13,69,1
315,96,-1936,576,14,71,2
320,104,-1936,568,14,70,1
325,96,-1944,600,14,69,0
330,104,-1944,568,15,69,0
335,96,-1960,576,17,69,-1
340,88,-1944,576,17,67,-1
345,96,-1952,584,17,68,-2
350,104,-1928,576,15,68,-2
355,88,-1952,560,12,71,-3
360,112,-1960,600,11,71,-4
365,96,-1952,560,9,73,-4
370,96,-1928,568,8,72,-1
375,104,-1936,576,5,72,-2
380,96,-1944,592,4,72,-1
385,104,-1944,568,1,71,-2
390,96,-1928,584,0,70,-3
395,88,-1936,576,0,70,0
400,104,-1952,584,-1,69,-1
405,88,-1936,608,-3,69,-2
410,104,-1944,608,-4,69,-4
415,112,-1952,584,-3,70,-2
420,104,-1968,560,-4,71,-2
425,96,-1952,576,-5,71,-2
430,120,-1952,568,-5,71,-3
435,104,-1960,536,-3,70,-3
440,120,-1952,592,0,72,-2
445,104,-1936,560,1,72,-2
450,104,-1944,560,5,73,-1
455,136,-1968,616,7,71,-1
460,104,-1944,576,9,71,-2
465,104,-1944,592,11,72,0
470,96,-1944,584,13,73,2
475,120,-1944,552,14,72,1
480,104,-1960,584,13,72,1
485,112,-1936,568,13,71,1
490,96,-1944,568,12,71,2
495,104,-1960,568,12,72,2
500,128,-1944,600,13,70,3
505,112,-1952,568,12,69,1
510,104,-1920,576,11,68,1
515,96,-1960,576,12,70,1
520,104,-1944,592,11,69,0
525,96,-1912,584,12,67,1
530,96,-1944,584,12,67,-2
535,88,-1944,560,10,67,-1
540,112,-1952,560,9,67,-3
545,96,-1944,584,9,66,-2
550,104,-1952,600,8,66,-3
555,96,-1952,576,9,67,-2
560,104,-1944,592,10,70,-1
565,96,-1944,592,11,70,-2
570,104,-1960,616,12,69,-1
575,104,-1960,576,16,71,-2
580,120,-1960,600,17,72,1
585,96,-1944,608,19,71,1
590,112,-1912,592,19,73,2
595,104,-1944,584,19,71,3
600,104,-1928,584,20,71,3
605,88,-1936,560,20,69,3
610,104,-1928,584,19,69,5
615,96,-1936,608,18,68,5
620,96,-1944,592,16,68,5
625,96,-1928,600,14,67,4
630,104,-1944,592,13,67,2
635,96,-1928,576,11,68,2
640,112,-1944,608,10,69,2
645,88,-1944,568,9,68,1
650,96,-1960,576,7,69,0
655,96,-1936,600,5,69,0
660,96,-1968,592,4,70,0
665,88,-1952,576,6,72,-1
670,88,-1944,568,6,72,1
675,96,-1904,600,6,72,1
680,88,-1936,608,6,73,0
685,96,-1904,592,6,71,1
690,96,-1936,592,5,72,1
695,112,-1936,568,5,72,-1
700,112,-1976,584,5,71,-1
705,96,-1944,560,5,71,-2
710,120,-1968,576,7,72,-2
715,104,-1968,568,10,73,0
720,104,-1928,560,13,74,0
725,96,-1952,576,15,75,2
730,104,-1952,576,15,75,3
735,112,-1912,592,16,77,3
740,96,-1936,584,15,75,3
745,104,-1952,600,14,73,-1
750,88,-1936,600,14,71,1
755,96,-1952,616,12,72,-2
760,112,-1944,624,13,69,-4
765,104,-1952,640,14,66,-5
770,80,-1928,592,14,66,-5
775,88,-1968,624,15,65,-6
780,104,-1952,624,15,64,-7
785,88,-1968,600,17,64,-5
790,96,-1944,616,18,63,-6
795,88,-1936,616,20,66,-6
800,88,-1936,616,20,67,-5
805,112,-1952,592,23,68,-4
810,120,-1960,632,25,72,-2
815,80,-1912,592,24,76,-1
820,112,-1928,600,25,79,2
825,104,-1928,568,25,80,4
830,112,-1904,568,24,81,7
835,80,-1912,576,23,80,8
840,104,-1928,592,22,81,9
845,96,-1944,608,21,79,11
850,80,-1920,584,19,76,11
855,96,-1928,608,18,74,10
860,96,-1944,616,18,73,11
865,96,-1944,624,18,71,10
870,72,-1928,624,19,69,9
875,88,-1928,600,18,68,6
880,88,-1944,632,19,68,6
885,104,-1928,600,18,69,5
890,112,-1960,616,18,68,6
895,88,-1928,632,19,69,5
900,88,-1936,608,19,71,3
905,104,-1944,616,18,72,3
910,96,-1944,632,19,73,4
915,96,-1936,656,19,73,4
920,104,-1944,608,19,74,4
925,104,-1936,616,18,76,3
930,104,-1936,616,19,75,2
935,104,-1936,616,18,74,2
940,104,-1944,640,19,73,3
945,128,-1904,648,19,73,2
950,96,-1936,624,18,73,1
955,64,-1928,632,19,72,0
960,64,-1928,608,19,71,0
965,96,-1928,608,19,70,0
970,96,-1936,608,21,69,-1
975,88,-1928,648,20,67,0
980,96,-1936,616,18,67,1
985,80,-1936,584,16,67,0
990,80,-1936,608,15,67,0
995,96,-1936,608,14,65,0
1000,80,-1928,608,13,64,0
1005,128,-1928,600,13,64,2
1010,104,-1936,584,12,65,3
1015,88,-1936,584,11,63,3
1020,88,-1936,600,9,62,3
1025,88,-1952,632,7,63,3
1030,96,-1936,616,6,62,3
1035,88,-1952,616,6,62,1
1040,96,-1960,608,6,62,0
1045,96,-1952,608,6,64,1
1050,96,-1960,648,8,65,0
1055,96,-1912,584,10,66,0
1060,80,-1928,600,10,68,1
1065,88,-1912,624,10,68,2
1070,72,-1920,608,11,70,1
1075,80,-1896,584,12,71,1
1080,104,-1920,640,10,70,1
1085,120,-1960,632,9,72,1
1090,80,-1920,640,11,72,2
1095,88,-1952,616,12,71,1
1100,80,-1944,640,12,68,1
1105,104,-1936,624,13,69,0
1110,88,-1936,592,13,70,0
1115,96,-1936,640,14,69,0
1120,80,-1912,640,14,68,-2
1125,88,-1936,640,15,69,-1
1130,80,-1920,640,16,69,-1
1135,80,-1904,624,16,70,-1
1140,88,-1936,624,16,71,0
1145,104,-1936,624,16,71,-1
1150,64,-1912,624,14,74,0
1155,112,-1928,624,12,73,1
1160,104,-1936,632,12,74,1
1165,88,-1880,600,10,74,-1
1170,88,-1912,600,9,74,0
1175,72,-1920,616,9,72,0
1180,96,-1928,624,9,72,0
1185,88,-1928,632,9,72,1
1190,112,-1928,616,11,71,0
1195,88,-1928,624,11,70,-1
1200,112,-1944,640,12,68,-2
1205,96,-1936,632,12,68,-2
1210,80,-1920,632,13,68,-3
1215,80,-1936,632,14,68,-2
1220,96,-1952,648,14,67,-1
1225,80,-1920,632,14,68,-1
1230,88,-1896,616,13,68,0
1235,112,-1928,648,11,70,-1
1240,64,-1912,624,11,71,-1
1245,88,-1920,616,9,71,-1
1250,96,-1904,640,9,71,0
1255,72,-1920,648,8,72,-1
1260,88,-1928,640,9,71,0
1265,88,-1936,648,8,70,-1
1270,112,-1912,640,8,70,0
1275,136,-1896,616,10,70,-1
1280,104,-1936,632,10,70,-1
1285,96,-1928,672,10,71,1
1290,104,-1928,632,10,71,0
1295,56,-1928,664,10,71,-1
1300,80,-1904,648,9,70,0
1305,88,-1920,600,9,70,0
1310,96,-1912,648,9,70,0
1315,96,-1936,616,9,71,-1
1320,88,-1920,648,9,72,-1
1325,64,-1904,648,9,72,0
1330,104,-1936,664,8,71,-2
1335,96,-1928,648,8,72,0
1340,72,-1928,648,8,71,0
1345,80,-1928,624,9,73,1
1350,80,-1944,672,9,73,0
1355,88,-1928,608,8,71,0
1360,96,-1936,624,9,72,1
1365,88,-1928,664,9,73,1
1370,104,-1936,632,11,73,0
1375,104,-1944,656,10,70,1
1380,96,-1904,640,10,71,2
1385,112,-1928,664,11,69,2
1390,88,-1896,624,11,69,2
1395,96,-1944,656,10,69,3
1400,104,-1912,616,9,68,3
1405,88,-1920,632,8,68,1
1410,88,-1920,640,7,68,2
1415,72,-1920,624,7,68,3
1420,96,-1928,632,7,69,2
1425,72,-1912,632,8,69,1
1430,80,-1920,648,7,71,1
1435,56,-1936,656,9,72,1
1440,88,-1928,616,10,73,1
1445,112,-1952,624,10,73,2
1450,104,-1936,640,12,72,2
1455,80,-1896,624,12,72,2
1460,80,-1904,664,13,72,2
1465,104,-1920,656,14,72,2
1470,96,-1936,656,13,71,2
1475,112,-1912,672,13,70,4
1480,104,-1904,648,12,71,3
1485,80,-1920,648,12,70,1
1490,96,-1912,656,9,71,1
1495,96,-1928,672,10,71,1
1500,96,-1944,632,8,71,1
1505,64,-1920,648,7,71,1
1510,96,-1920,656,6,70,1
1515,88,-1920,664,6,70,1
1520,88,-1936,648,5,70,0
1525,88,-1912,648,7,69,1
1530,104,-1904,648,8,68,2
1535,88,-1920,640,9,69,4
1540,88,-1912,632,10,70,3
1545,112,-1936,648,8,70,1
1550,96,-1896,672,6,71,0
1555,80,-1904,672,5,70,0
1560,112,-1904,640,4,71,0
1565,72,-1912,656,4,72,-1
1570,72,-1888,656,5,72,0
1575,96,-1896,640,5,71,1
1580,96,-1928,664,4,71,1
1585,112,-1912,664,3,70,0
1590,88,-1920,624,2,71,-1
1595,72,-1920,632,1,71,-2
1600,88,-1912,680,0,72,-1
1605,72,-1920,656,-3,72,-3
1610,104,-1928,672,-2,72,-4
1615,88,-1936,640,-2,70,-4
1620,80,-1928,672,1,69,-4
1625,88,-1928,632,3,67,-6
1630,80,-1896,640,4,68,-6
1635,64,-1936,648,2,65,-7
1640,96,-1904,640,2,65,-8
1645,112,-1944,672,1,65,-6
1650,72,-1936,664,1,67,-7
1655,80,-1936,664,1,69,-5
1660,96,-1944,648,3,70,-4
1665,112,-1936,632,5,72,-2
1670,88,-1944,640,6,74,0
1675,112,-1904,664,5,76,2
1680,104,-1920,624,4,77,2
1685,112,-1904,632,2,78,4
1690,104,-1896,632,-2,76,4
1695,88,-1920,640,-3,75,4
1700,88,-1872,632,-5,73,5
1705,144,-1928,696,-3,73,7
1710,72,-1912,680,-5,71,7
1715,64,-1904,664,-6,69,5
1720,104,-1912,632,-7,67,4
1725,80,-1936,672,-7,67,1
1730,96,-1936,688,-5,67,2
1735,72,-1928,656,-4,68,0
1740,104,-1936,664,-5,69,1
1745,96,-1912,672,-4,71,0
1750,112,-1912,672,-5,72,0
1755,80,-1920,648,-5,72,0
1760,80,-1904,648,-5,72,-1
1765,80,-1896,664,-6,71,-2
1770,88,-1912,648,-6,71,0
1775,80,-1912,672,-7,71,-1
1780,80,-1904,664,-8,71,-2
1785,64,-1888,632,-7,71,-2
1790,96,-1920,648,-8,70,-2
1795,80,-1920,640,-9,70,-3
1800,104,-1944,664,-11,69,-4
1805,72,-1896,640,-13,68,-4
1810,88,-1896,680,-15,67,-5
1815,96,-1904,688,-15,66,-5
1820,80,-1912,656,-15,66,-4
1825,96,-1936,648,-17,67,-6
1830,88,-1888,664,-18,66,-7
1835,80,-1920,672,-20,68,-6
1840,88,-1928,648,-19,69,-6
1845,72,-1896,664,-20,67,-5
1850,96,-1912,656,-22,67,-4
1855,80,-1904,640,-21,67,-3
1860,72,-1896,616,-20,67,-3
1865,80,-1928,640,-22,65,-4
1870,80,-1912,656,-23,65,-3
1875,88,-1920,656,-24,64,-2
1880,80,-1904,672,-26,64,-2
1885,88,-1912,648,-29,65,-2
1890,104,-1920,624,-30,64,-1
1895,88,-1920,640,-31,64,-4
1900,72,-1912,672,-32,66,-3
1905,88,-1928,640,-33,69,-3
1910,80,-1928,656,-33,71,-3
1915,88,-1904,640,-33,73,-3
1920,104,-1920,664,-34,74,-3
1925,72,-1896,672,-33,74,-4
1930,128,-1904,672,-35,75,-4
1935,120,-1928,648,-35,75,-3
1940,80,-1928,664,-39,75,-4
1945,112,-1896,664,-39,73,-4
1950,72,-1904,664,-40,72,-5
1955,96,-1928,672,-37,71,-7
1960,96,-1928,640,-36,70,-9
1965,96,-1928,672,-34,68,-11
1970,88,-1928,688,-34,66,-10
1975,96,-1928,640,-35,65,-13
1980,96,-1920,640,-36,64,-14
1985,80,-1880,640,-34,63,-14
1990,80,-1896,632,-38,63,-15
1995,88,-1896,648,-39,62,-16
2000,88,-1912,632,-41,64,-15
2005,88,-1920,656,-42,65,-13
2010,80,-1912,640,-44,66,-13
2015,72,-1920,632,-45,68,-13
2020,88,-1936,664,-43,70,-12
2025,64,-1904,656,-44,71,-11
2030,72,-1912,648,-42,71,-12
2035,72,-1944,656,-42,72,-10
2040,120,-1976,640,-40,71,-11
2045,80,-1952,640,-39,71,-12
2050,88,-1912,632,-38,70,-13
2055,40,-1920,624,-38,67,-15
2060,80,-1920,616,-39,66,-14
2065,72,-1912,656,-38,64,-15
2070,64,-1936,672,-38,64,-14
2075,88,-1920,656,-40,63,-13
2080,88,-1936,616,-41,64,-14
2085,64,-1920,632,-42,62,-13
2090,64,-1920,648,-42,63,-13
2095,96,-1912,632,-45,65,-13
2100,88,-1912,640,-48,68,-11
2105,80,-1936,648,-50,70,-10
2110,104,-1896,664,-54,72,-10
2115,96,-1920,640,-57,73,-9
2120,104,-1936,624,-60,73,-9
2125,104,-1904,656,-62,74,-10
2130,88,-1928,648,-65,74,-10
2135,88,-1920,640,-67,73,-11
2140,96,-1944,632,-68,71,-12
2145,120,-1920,632,-70,69,-12
2150,104,-1904,664,-70,68,-11
2155,104,-1928,632,-69,65,-11
2160,96,-1920,648,-69,64,-12
2165,104,-1936,640,-71,63,-12
2170,136,-1920,648,-71,63,-11
2175,80,-1912,640,-69,62,-10
2180,88,-1920,632,-68,63,-10
2185,120,-1928,624,-67,64,-11
2190,80,-1928,632,-67,64,-10
2195,96,-1936,632,-67,64,-8
2200,96,-1928,624,-66,67,-8
2205,112,-1928,600,-66,68,-8
2210,96,-1952,608,-66,70,-9
2215,88,-1920,616,-66,71,-8
2220,88,-1944,640,-65,70,-8
2225,112,-1952,632,-65,70,-6
2230,64,-1920,600,-65,71,-6
2235,80,-1944,640,-66,71,-6
2240,96,-1936,608,-65,73,-5
2245,88,-1920,616,-64,73,-6
2250,88,-1944,624,-64,74,-5
2255,88,-1944,616,-63,74,-4
2260,80,-1936,624,-62,73,-3
2265,80,-1928,624,-59,73,-5
2270,88,-1928,640,-57,73,-4
2275,104,-1928,616,-55,74,-6
2280,80,-1928,600,-55,73,-6
2285,88,-1920,608,-54,74,-6
2290,88,-1920,616,-53,73,-6
2295,96,-1936,608,-53,73,-4
2300,96,-1928,648,-54,74,-6
2305,96,-1928,608,-53,72,-6
2310,80,-1936,632,-53,74,-8
2315,120,-1952,608,-54,76,-7
2320,96,-1936,624,-54,75,-7
2325,80,-1928,616,-54,76,-7
2330,104,-1944,608,-54,77,-7
2335,96,-1952,584,-55,79,-8
2340,80,-1944,608,-55,78,-6
2345,96,-1928,656,-58,81,-7
2350,80,-1928,616,-60,82,-9
2355,88,-1928,624,-61,82,-9
2360,88,-1936,624,-63,83,-8
2365,72,-1920,608,-65,83,-9
2370,88,-1928,608,-66,83,-8
2375,72,-1944,624,-66,85,-9
2380,88,-1928,616,-67,85,-10
2385,96,-1952,624,-66,86,-8
2390,88,-1960,616,-65,85,-8
2395,104,-1936,624,-62,84,-10
2400,88,-1960,632,-60,83,-10
2405,80,-1952,632,-58,83,-9
2410,112,-1928,600,-57,79,-10
2415,88,-1936,592,-55,77,-10
2420,96,-1936,640,-55,74,-12
2425,64,-1944,616,-54,72,-13
2430,96,-1952,640,-54,72,-13
2435,88,-1920,616,-53,73,-13
2440,120,-1952,576,-52,74,-12
2445,104,-1944,592,-52,73,-11
2450,112,-1944,608,-50,74,-11
2455,72,-1928,600,-51,75,-10
2460,88,-1944,584,-50,75,-8
2465,96,-1936,560,-49,75,-6
2470,112,-1912,616,-48,74,-6
2475,96,-1920,624,-47,74,-7
2480,104,-1928,576,-45,71,-8
2485,96,-1960,584,-45,70,-11
2490,80,-1952,576,-43,68,-12
2495,88,-1944,600,-43,66,-11
2500,72,-1936,592,-43,65,-12
2505,96,-1952,592,-41,64,-13
2510,88,-1952,592,-42,63,-14
2515,88,-1960,592,-42,63,-12
2520,120,-1960,600,-42,64,-12
2525,96,-1944,608,-43,66,-10
2530,96,-1944,592,-40,68,-11
2535,80,-1952,600,-39,70,-9
2540,96,-1952,608,-36,71,-6
2545,128,-1936,584,-31,73,-3
2550,112,-1936,592,-30,76,-1
2555,112,-1960,584,-28,77,1
2560,96,-1928,584,-27,77,1
2565,96,-1920,568,-27,75,2
2570,96,-1920,592,-29,74,5
2575,104,-1928,584,-31,72,4
2580,112,-1936,576,-33,70,3
2585,112,-1952,576,-33,69,4
2590,96,-1952,600,-33,67,2
2595,96,-1944,584,-35,64,1
2600,80,-1944,592,-33,64,1
2605,96,-1944,616,-31,64,-2
2610,112,-1944,584,-31,65,-3
2615,96,-1960,600,-30,66,-4
2620,88,-1928,608,-29,67,-5
2625,120,-1944,584,-30,68,-5
2630,96,-1944,640,-31,69,-4
2635,88,-1936,568,-30,70,-4
2640,96,-1936,576,-31,71,-4
2645,96,-1952,632,-30,70,-2
2650,112,-1960,592,-30,71,-4
2655,96,-1960,600,-29,72,-5
2660,88,-1912,616,-31,71,-4
2665,112,-1944,624,-29,68,-4
2670,88,-1936,600,-30,68,-4
2675,104,-1960,584,-31,67,-2
2680,88,-1944,584,-34,67,-3
2685,112,-1968,568,-35,66,-5
2690,88,-1968,592,-37,65,-4
2695,80,-1920,584,-39,67,-7
2700,96,-1944,552,-39,67,-5
2705,96,-1944,560,-41,67,-5
2710,104,-1968,560,-42,67,-5
2715,88,-1968,600,-43,68,-6
2720,80,-1920,584,-43,67,-4
2725,112,-1944,568,-42,68,-4
2730,72,-1960,592,-40,67,-4
2735,104,-1928,560,-39,67,-5
2740,88,-1928,592,-37,67,-3
2745,104,-1944,576,-37,66,-4
2750,112,-1936,568,-39,64,-4
2755,88,-1952,608,-39,65,-6
2760,80,-1920,600,-39,64,-7
2765,80,-1952,592,-39,64,-8
2770,88,-1952,592,-39,64,-9
2775,96,-1944,616,-39,64,-10
2780,96,-1960,576,-37,66,-10
2785,112,-1936,592,-36,65,-7
2790,96,-1928,584,-34,66,-8
2795,112,-1952,576,-31,68,-8
2800,128,-1984,656,-29,67,-8
2805,104,-1952,592,-27,67,-7
2810,112,-1952,576,-26,64,-6
2815,104,-1936,584,-25,65,-6
2820,96,-1928,576,-24,64,-7
2825,88,-1952,568,-23,65,-7
2830,88,-1928,584,-22,64,-8
2835,80,-1952,576,-21,64,-9
2840,96,-1952,592,-22,65,-9
2845,88,-1928,584,-23,67,-9
2850,104,-1936,592,-25,66,-10
2855,88,-1936,608,-25,66,-10
2860,96,-1952,584,-28,68,-9
2865,96,-1928,600,-29,68,-9
2870,80,-1928,592,-32,68,-9
2875,88,-1944,576,-35,68,-9
2880,120,-1952,584,-34,69,-7
2885,96,-1960,576,-37,70,-8
2890,72,-1960,560,-38,71,-8
2895,88,-1952,568,-37,70,-7
2900,104,-1952,584,-37,68,-8
2905,96,-1952,608,-38,67,-8
2910,48,-1952,520,-38,68,-8
2915,120,-1968,544,-37,69,-8
2920,96,-1944,576,-34,68,-8
2925,104,-1968,584,-32,67,-8
2930,88,-1952,576,-32,67,-6
2935,96,-1960,544,-30,69,-7
2940,112,-1936,568,-27,68,-6
2945,96,-1952,568,-23,67,-7
2950,104,-1944,568,-22,66,-8
2955,112,-1944,584,-19,67,-6
2960,136,-1912,600,-18,66,-6
2965,88,-1928,560,-16,66,-4
2970,104,-1928,568,-15,67,-4
2975,88,-1944,576,-13,67,-4
2980,80,-1960,576,-11,68,-3
2985,112,-1952,560,-10,66,-2
2990,120,-1952,592,-8,67,-1
2995,88,-1952,560,-7,66,-1
3000,120,-1944,576,-5,66,-2
3005,80,-1936,584,-4,67,-3
3010,96,-1936,576,-2,66,-3
3015,96,-1952,552,-1,65,-3
3020,96,-1968,624,-1,65,-3
3025,112,-1952,552,0,65,-4
3030,96,-1952,576,0,64,-3
3035,96,-1952,576,0,65,-2
3040,72,-1920,568,1,66,-3
3045,80,-1960,592,1,66,-2
3050,96,-1952,536,2,67,-3
3055,128,-1976,584,2,66,-4
3060,104,-1960,600,3,65,-4
3065,104,-1944,600,2,66,-3
3070,112,-1944,568,3,66,-2
3075,64,-1936,584,3,67,-4
3080,104,-1952,568,2,67,-2
3085,112,-1936,568,3,68,-2
3090,96,-1960,584,3,67,-2
3095,96,-1952,592,2,65,-1
3100,96,-1968,608,3,66,-1
3105,88,-1952,584,4,67,-1
3110,112,-1960,560,4,65,-3
3115,112,-1928,600,3,64,-3
3120,88,-1952,576,4,65,-2
3125,64,-1960,544,5,65,-2
3130,80,-1944,584,5,65,0
3135,88,-1944,576,4,67,-1
3140,120,-1952,552,5,67,-1
3145,120,-1944,560,4,67,-2
3150,88,-1936,568,4,67,0
3155,88,-1944,584,3,68,1
3160,104,-1936,592,5,69,0
3165,104,-1976,584,8,70,1
3170,104,-1944,616,8,70,1
3175,104,-1920,592,10,70,1
3180,80,-1944,576,9,70,2
3185,96,-1936,560,8,71,3
3190,88,-1920,584,9,72,3
3195,112,-1952,592,6,71,2
3200,112,-1944,592,5,70,1
3205,88,-1936,600,5,69,1
3210,96,-1944,584,2,70,0
3215,96,-1952,608,2,69,0
3220,96,-1944,592,0,70,-2
3225,96,-1952,584,0,72,-2
3230,88,-1944,576,0,74,-2
3235,104,-1936,568,1,76,-2
3240,104,-1944,576,2,77,-1
3245,112,-1952,608,4,79,-1
3250,112,-1928,584,7,79,1
3255,104,-1936,608,7,78,-1
3260,128,-1952,576,8,76,0
3265,112,-1928,592,8,74,-1
3270,80,-1928,576,8,71,-4
3275,136,-1936,592,7,69,-6
3280,96,-1944,600,10,66,-5
3285,128,-1952,584,11,64,-8
3290,96,-1936,568,11,64,-6
3295,88,-1976,592,13,62,-6
3300,96,-1960,600,13,61,-4
3305,96,-1952,584,15,63,-4
3310,80,-1968,584,17,64,-4
3315,96,-1952,592,16,64,-2
3320,104,-1952,568,15,66,0
3325,96,-1936,592,16,68,2
3330,104,-1944,568,16,70,3
3335,112,-1936,568,17,73,4
3340,104,-1944,608,16,74,5
3345,120,-1936,592,16,75,6
3350,80,-1920,568,16,76,8
3355,112,-1928,584,14,76,7
3360,72,-1944,560,12,76,8
3365,104,-1936,592,12,74,9
3370,80,-1944,584,11,72,9
3375,96,-1936,592,12,69,9
3380,88,-1960,632,12,67,8
3385,96,-1936,600,12,68,6
3390,80,-1936,600,14,66,4
3395,88,-1944,616,15,66,4
3400,88,-1936,600,16,66,2
3405,80,-1920,592,17,65,2
3410,80,-1928,592,19,67,3
3415,96,-1920,592,20,71,2
3420,104,-1944,616,18,72,2
3425,112,-1928,616,17,72,4
3430,96,-1952,640,16,72,3
3435,120,-1928,624,15,73,3
3440,88,-1912,600,14,73,3
3445,112,-1952,624,13,72,3
3450,96,-1920,616,13,71,1
3455,112,-1952,616,12,71,1
3460,104,-1936,616,13,69,3
3465,112,-1944,592,13,67,3
3470,80,-1936,592,13,68,2
3475,96,-1936,608,12,67,1
3480,96,-1952,592,13,67,0
3485,96,-1936,592,12,67,-1
3490,96,-1952,608,12,67,-2
3495,88,-1928,592,12,68,1
3500,72,-1944,600,10,66,0
3505,80,-1944,584,10,67,1
3510,104,-1952,592,10,68,1
3515,88,-1912,576,9,69,0
3520,104,-1936,600,9,69,1
3525,112,-1944,616,7,69,2
3530,88,-1944,616,6,68,3
3535,80,-1904,600,5,67,3
3540,80,-1896,592,4,66,2
3545,96,-1920,616,3,66,2
3550,88,-1920,592,2,66,2
3555,96,-1960,616,2,66,1
3560,96,-1928,600,2,67,1
3565,136,-1936,616,2,69,1
3570,184,-1920,624,4,71,0
3575,80,-1936,632,4,73,2
3580,64,-1944,624,6,73,2
3585,104,-1936,600,7,76,2
3590,96,-1944,592,8,76,1
3595,96,-1944,616,7,75,1
3600,88,-1952,616,8,73,1
3605,112,-1928,608,6,72,1
3610,72,-1928,624,6,69,2
3615,80,-1936,624,6,69,1
3620,88,-1952,616,6,67,-1
3625,96,-1936,640,7,67,-2
3630,80,-1936,608,6,64,-1
3635,72,-1936,600,6,62,-2
3640,72,-1936,592,7,63,-1
3645,96,-1944,600,5,63,-4
3650,88,-1928,632,5,64,-4
3655,112,-1928,616,7,65,-4
3660,80,-1928,624,6,67,-3
3665,88,-1936,632,6,66,-4
3670,104,-1944,616,5,67,-3
3675,80,-1920,600,4,69,-2
3680,96,-1944,616,5,71,0
3685,64,-1936,584,4,73,-1
3690,96,-1928,624,2,73,-1
3695,80,-1928,640,2,73,0
3700,88,-1960,608,0,72,-1
3705,96,-1960,608,1,71,-2
3710,80,-1920,616,2,71,-2
3715,80,-1960,632,1,70,-2
3720,104,-1896,656,1,70,-2
3725,96,-1944,592,1,71,-4
3730,80,-1952,624,1,69,-3
3735,104,-1944,608,1,69,-2
3740,104,-1944,616,2,69,-2
3745,88,-1936,616,4,68,-3
3750,104,-1936,616,4,69,-2
3755,96,-1928,616,6,68,-3
3760,104,-1936,616,8,69,-2
3765,80,-1920,624,9,70,0
3770,88,-1936,624,9,72,-1
3775,64,-1952,608,10,71,-2
3780,88,-1944,592,9,72,0
3785,96,-1928,624,10,72,0
3790,96,-1920,616,11,73,-1
3795,112,-1928,624,11,71,1
3800,104,-1928,624,10,72,0
3805,80,-1928,608,8,71,0
3810,96,-1920,608,8,71,0
3815,72,-1936,632,8,71,-2
3820,96,-1936,624,5,71,-1
3825,96,-1936,600,5,71,-1
3830,88,-1912,608,4,71,-2
3835,112,-1952,592,2,69,-3
3840,104,-1944,600,1,69,-2
3845,104,-1928,624,2,70,-1
3850,80,-1936,616,2,68,-2
3855,96,-1936,640,3,69,-2
3860,88,-1936,624,3,68,-1
3865,88,-1928,632,4,70,-2
3870,96,-1920,616,3,70,0
3875,104,-1952,592,4,69,1
3880,72,-1936,648,5,69,0
3885,96,-1936,632,5,69,-1
3890,88,-1936,624,6,68,0
3895,88,-1920,624,8,69,0
3900,96,-1928,624,7,69,0
3905,96,-1936,648,7,69,1
3910,80,-1944,576,7,69,0
3915,80,-1920,600,5,68,0
3920,88,-1912,624,4,70,2
3925,72,-1920,632,5,70,2
3930,104,-1928,632,3,70,1
3935,96,-1912,616,2,69,1
3940,72,-1920,624,2,69,1
3945,88,-1952,616,-1,69,0
3950,80,-1920,600,-2,70,-1
3955,80,-1936,608,-2,70,-1
3960,88,-1944,608,-3,71,-1
3965,72,-1928,640,-3,71,-1
3970,104,-1928,624,-1,70,-1
3975,88,-1936,640,-1,70,-1
3980,96,-1928,616,-1,69,-2
3985,104,-1960,616,0,70,-1
3990,96,-1928,640,1,70,-1
3995,96,-1936,648,0,69,-2
4000,96,-1928,656,0,69,-1
4005,104,-1912,616,0,70,-2
4010,88,-1920,632,0,70,-1
4015,88,-1928,608,1,71,-2
4020,96,-1928,624,0,69,0
4025,80,-1928,616,0,69,-1
4030,96,-1920,632,2,69,-1
4035,96,-1952,640,1,70,1
4040,80,-1952,616,2,68,0
4045,104,-1928,624,3,67,2
4050,72,-1920,648,4,69,2
4055,96,-1944,608,4,68,1
4060,72,-1928,616,5,68,2
4065,88,-1928,648,6,68,1
4070,72,-1920,640,7,67,2
4075,88,-1928,624,6,68,1
4080,112,-1920,640,4,69,-1
4085,88,-1944,624,3,68,-1
4090,88,-1952,640,2,69,-2
4095,104,-1944,640,3,68,-1
4100,72,-1952,640,4,71,-2
4105,56,-1920,624,5,72,-2
4110,88,-1912,648,6,74,0
4115,64,-1920,624,6,77,2
4120,112,-1928,616,6,77,1
4125,96,-1928,632,7,78,2
4130,64,-1920,648,7,78,1
4135,104,-1944,624,7,77,0
4140,104,-1904,640,6,74,-2
4145,64,-1936,640,6,73,-2
4150,72,-1920,616,7,71,-5
4155,80,-1960,648,8,68,-6
4160,72,-1936,648,9,66,-6
4165,88,-1920,640,10,65,-6
4170,56,-1944,624,9,63,-8
4175,64,-1960,664,8,63,-8
4180,88,-1944,664,8,62,-9
4185,80,-1944,648,8,64,-8
4190,80,-1944,624,9,64,-5
4195,104,-1928,648,11,68,-5
4200,96,-1928,632,14,69,-3
4205,96,-1928,632,15,72,-1
4210,88,-1928,592,17,72,2
4215,96,-1896,616,17,74,2
4220,80,-1904,608,17,74,5
4225,112,-1896,608,17,74,7
4230,72,-1928,632,17,74,8
4235,88,-1920,624,15,72,9
4240,104,-1896,632,13,70,9
4245,72,-1920,656,13,69,9
4250,72,-1936,624,13,67,7
4255,96,-1920,640,12,67,8
4260,104,-1912,632,10,67,5
4265,64,-1920,632,10,67,2
4270,80,-1920,664,9,68,2
4275,80,-1920,616,10,69,3
4280,96,-1920,656,11,70,2
4285,88,-1920,648,10,72,2
4290,96,-1920,632,10,73,1
4295,104,-1904,648,11,74,1
4300,104,-1928,648,11,73,1
4305,88,-1904,656,9,73,1
4310,88,-1912,680,9,71,1
4315,96,-1928,664,9,71,1
4320,96,-1920,648,9,71,2
4325,88,-1920,600,8,69,1
4330,104,-1920,648,9,68,1
4335,88,-1912,648,9,69,1
4340,80,-1928,648,9,68,1
4345,88,-1928,640,9,66,0
4350,96,-1928,648,9,65,-2
4355,88,-1936,640,8,64,-2
4360,80,-1928,632,6,63,-1
4365,88,-1928,648,5,64,-2
4370,96,-1936,648,4,63,-2
4375,80,-1920,656,3,63,-1
4380,96,-1912,632,2,64,1
4385,96,-1936,648,2,64,1
4390,48,-1920,648,4,66,1
4395,72,-1936,664,3,65,0
4400,80,-1920,624,5,64,1
4405,80,-1936,624,4,65,2
4410,80,-1928,656,2,64,2
4415,88,-1912,624,2,62,2
4420,72,-1936,624,2,63,2
4425,88,-1904,680,0,62,2
4430,88,-1944,680,-1,63,3
4435,80,-1920,672,-1,64,1
4440,104,-1952,664,0,67,0
4445,80,-1912,680,-1,66,1
4450,80,-1904,680,1,68,0
4455,104,-1936,640,0,68,1
4460,96,-1904,664,1,68,1
4465,80,-1896,672,2,67,1
4470,88,-1912,704,1,68,1
4475,104,-1936,680,3,70,2
4480,88,-1936,640,3,69,2
4485,64,-1928,648,4,69,2
4490,104,-1936,624,5,68,1
4495,96,-1920,648,6,68,1
4500,64,-1928,680,5,66,-1
4505,104,-1912,664,4,66,-2
4510,64,-1912,640,4,66,-4
4515,104,-1912,616,5,67,-3
4520,88,-1912,656,2,67,-4
4525,88,-1936,624,2,69,-3
4530,72,-1912,648,-1,70,-2
4535,72,-1896,640,-3,71,-1
4540,64,-1912,664,-5,73,-2
4545,48,-1968,632,-8,73,-2
4550,104,-1920,624,-10,74,-3
4555,72,-1896,656,-11,73,-2
4560,72,-1912,664,-12,72,-3
4565,88,-1920,672,-14,70,-3
4570,80,-1920,656,-14,68,-4
4575,80,-1912,664,-13,66,-4
4580,112,-1936,640,-14,66,-5
4585,80,-1912,616,-13,65,-5
4590,88,-1936,648,-14,64,-6
4595,128,-1944,672,-12,65,-6
4600,72,-1920,648,-10,66,-4
4605,88,-1920,648,-12,66,-5
4610,96,-1920,648,-11,66,-4
4615,80,-1928,672,-10,66,-5
4620,80,-1912,664,-9,67,-5
4625,104,-1928,648,-10,66,-5
4630,88,-1904,664,-10,66,-6
4635,64,-1928,648,-10,67,-5
4640,80,-1896,664,-11,67,-5
4645,96,-1936,648,-13,68,-6
4650,112,-1928,608,-13,67,-7
4655,96,-1904,648,-14,67,-6
4660,88,-1920,688,-15,69,-6
4665,80,-1920,672,-15,67,-7
4670,96,-1944,680,-17,68,-7
4675,96,-1928,640,-16,68,-6
4680,88,-1920,648,-18,67,-8
4685,64,-1936,648,-17,66,-7
4690,96,-1920,640,-19,65,-7
4695,80,-1912,664,-20,65,-6
4700,80,-1920,664,-23,65,-5
4705,64,-1896,680,-24,66,-6
4710,88,-1912,640,-25,65,-5
4715,88,-1928,640,-25,65,-6
4720,80,-1928,648,-25,65,-6
4725,80,-1912,688,-26,65,-7
4730,72,-1912,656,-27,67,-7
4735,88,-1888,648,-29,65,-6
4740,80,-1896,640,-29,65,-5
4745,80,-1928,664,-29,65,-4
4750,80,-1920,640,-31,65,-5
4755,88,-1928,680,-32,64,-6
4760,136,-1928,648,-32,65,-4
4765,96,-1912,640,-32,64,-4
4770,96,-1920,656,-34,65,-5
4775,112,-1936,672,-35,65,-5
4780,88,-1904,632,-36,63,-4
4785,88,-1920,664,-39,63,-3
4790,96,-1920,648,-41,64,-5
4795,80,-1920,624,-42,62,-7
4800,88,-1904,648,-45,61,-8
4805,80,-1936,680,-47,61,-9
4810,80,-1928,640,-50,61,-10
4815,112,-1920,640,-54,62,-11
4820,88,-1928,664,-58,61,-12
4825,96,-1920,648,-59,61,-13
4830,96,-1936,648,-64,63,-13
4835,104,-1920,688,-65,64,-14
4840,88,-1936,648,-67,64,-14
4845,64,-1928,672,-70,67,-13
4850,88,-1952,632,-73,67,-16
4855,96,-1912,656,-77,68,-15
4860,96,-1936,656,-81,68,-17
4865,80,-1912,632,-81,68,-17
4870,64,-1904,648,-81,70,-16
4875,80,-1944,648,-80,71,-17
4880,96,-1944,624,-79,71,-17
4885,88,-1936,608,-80,73,-18
4890,88,-1928,640,-80,73,-17
4895,80,-1928,592,-80,72,-18
4900,96,-1952,624,-80,71,-18
4905,80,-1936,624,-79,72,-16
4910,96,-1936,616,-78,71,-18
4915,88,-1936,616,-78,73,-17
4920,88,-1936,608,-78,73,-18
4925,72,-1936,616,-77,73,-18
4930,88,-1936,592,-77,73,-17
4935,96,-1960,608,-76,74,-14
4940,88,-1936,624,-74,75,-16
4945,104,-1952,616,-71,75,-16
4950,96,-1944,616,-71,74,-16
4955,96,-1960,608,-68,75,-16
4960,96,-1960,616,-64,74,-14
4965,72,-1952,616,-62,74,-14
4970,96,-1936,640,-59,72,-14
4975,104,-1960,688,-53,72,-13
4980,88,-1944,608,-49,71,-12
4985,88,-1944,592,-44,69,-12
4990,96,-1952,616,-39,71,-9
4995,80,-1936,616,-35,70,-8
5000,64,-1936,592,-32,70,-8
5005,88,-1936,584,-28,69,-6
5010,64,-1936,624,-25,70,-3
5015,96,-1952,600,-26,70,-1
5020,96,-1920,608,-28,70,2
5025,104,-1936,600,-30,69,5
5030,112,-1920,616,-33,66,8
5035,88,-1928,592,-36,62,11
5040,104,-1928,616,-39,57,13
5045,120,-1928,616,-40,54,17
5050,96,-1920,624,-40,51,22
5055,112,-1960,624,-40,48,26
5060,120,-1928,656,-41,45,31
5065,112,-1944,640,-44,43,32
5070,128,-1936,624,-48,42,33
5075,112,-1904,616,-55,39,33
5080,128,-1936,632,-58,36,33
5085,120,-1928,592,-61,36,34
5090,128,-1840,616,-65,41,35
5095,192,-1888,648,-71,45,37
5100,96,-1904,592,-69,50,33
5105,80,-1888,640,-71,54,34
5110,120,-1888,608,-75,57,34
5115,152,-1904,616,-78,60,31
5120,64,-1904,608,-75,60,28
5125,96,-1888,624,-74,57,27
5130,72,-1920,616,-73,56,23
5135,56,-1936,600,-72,52,19
5140,96,-1984,624,-72,51,16
5145,72,-1936,632,-68,50,14
5150,96,-1992,616,-64,49,10
5155,72,-1976,600,-59,48,7
5160,48,-1992,648,-54,47,5
5165,56,-1976,624,-48,46,3
5170,64,-1984,624,-44,48,-2
5175,48,-1936,656,-37,50,-5
5180,64,-1944,600,-29,53,-6
5185,88,-1904,608,-23,56,-9
5190,72,-1904,592,-22,58,-14
5195,48,-1920,584,-20,59,-15
5200,40,-1888,568,-21,62,-18
5205,24,-1896,568,-25,63,-20
5210,56,-1880,576,-34,61,-24
5215,40,-1888,584,-45,58,-25
5220,32,-1912,600,-54,55,-28
5225,56,-1920,632,-65,50,-30
5230,64,-1936,592,-75,47,-33
5235,64,-1944,600,-82,44,-35
5240,64,-1928,592,-88,45,-36
5245,64,-1928,584,-92,45,-37
5250,56,-1944,600,-97,43,-39
5255,80,-1920,600,-101,42,-41
5260,96,-1912,600,-104,41,-44
5265,72,-1936,576,-106,42,-44
5270,72,-1944,584,-109,42,-46
5275,72,-1928,568,-112,43,-45
5280,64,-1912,616,-115,43,-46
5285,112,-1936,568,-122,42,-46
5290,96,-1912,560,-127,42,-45
5295,104,-1928,592,-130,42,-42
5300,96,-1920,560,-135,43,-41
5305,64,-1944,560,-137,43,-40
5310,88,-1952,552,-139,45,-38
5315,112,-1912,576,-150,46,-39
5320,136,-1936,520,-168,47,-42
5325,144,-1888,496,-190,44,-46
5330,144,-1928,520,-210,41,-51
5335,136,-1912,536,-223,37,-52
5340,120,-1920,536,-229,33,-53
5345,120,-1904,528,-230,30,-54
5350,136,-1920,504,-226,27,-53
5355,120,-1928,520,-219,24,-51
5360,144,-1944,544,-209,21,-48
5365,160,-1968,568,-199,19,-47
5370,136,-1968,544,-188,18,-45
5375,136,-1968,528,-180,18,-40
5380,152,-1984,544,-175,20,-36
5385,136,-1968,528,-171,25,-34
5390,120,-1952,544,-169,27,-32
5395,120,-1968,552,-170,30,-29
5400,136,-1944,568,-170,31,-27
5405,112,-1944,568,-173,30,-24
5410,120,-1968,576,-177,31,-24
5415,112,-1912,608,-183,28,-24
5420,96,-1936,560,-185,26,-23
5425,104,-1920,560,-187,26,-20
5430,120,-1920,576,-187,28,-19
5435,120,-1896,568,-189,33,-16
5440,112,-1920,560,-193,38,-13
5445,136,-1912,544,-198,38,-13
5450,120,-1896,544,-202,38,-14
5455,104,-1920,496,-207,35,-13
5460,120,-1896,560,-217,34,-11
5465,80,-1928,536,-224,34,-11
5470,128,-1944,520,-231,33,-8
5475,104,-1960,560,-234,35,-5
5480,80,-1960,528,-233,39,-4
5485,96,-1976,544,-231,43,-4
5490,88,-1984,512,-231,47,-4
5495,120,-1976,512,-231,52,-6
5500,88,-1960,488,-232,55,-6
5505,88,-1952,480,-237,56,-11
5510,80,-1944,464,-241,58,-10
5515,112,-1952,496,-247,59,-11
5520,88,-1928,512,-252,56,-11
5525,80,-1904,520,-258,56,-10
5530,96,-1936,504,-264,57,-9
5535,96,-1936,504,-272,57,-9
5540,80,-1912,488,-280,56,-9
5545,88,-1912,488,-290,56,-9
5550,88,-1928,496,-301,57,-11
5555,80,-1928,448,-311,59,-12
5560,72,-1896,480,-324,59,-12
5565,64,-1880,472,-334,59,-14
5570,72,-1904,440,-349,57,-16
5575,64,-1904,416,-366,54,-19
5580,8,-1920,432,-381,47,-22
5585,24,-1920,424,-397,39,-24
5590,96,-1968,392,-415,33,-27
5595,120,-1984,384,-429,33,-33
5600,96,-1984,360,-440,32,-39
5605,72,-2000,384,-448,31,-44
5610,120,-2008,360,-456,28,-52
5615,128,-2000,352,-458,27,-58
5620,144,-1976,376,-460,24,-62
5625,152,-2016,360,-461,22,-65
5630,160,-1992,360,-460,21,-68
5635,128,-1992,384,-459,19,-75
5640,136,-2008,352,-452,18,-77
5645,144,-1984,328,-447,15,-79
5650,144,-1984,320,-445,12,-79
5655,128,-1984,344,-442,11,-81
5660,120,-2008,328,-440,11,-83
5665,144,-1992,352,-442,8,-83
5670,160,-1992,312,-443,6,-83
5675,168,-2008,344,-447,5,-83
5680,176,-1976,328,-453,1,-82
5685,192,-1976,328,-462,3,-81
5690,160,-1984,320,-471,5,-80
5695,160,-1976,288,-473,3,-80
5700,144,-1968,320,-477,2,-81
5705,136,-1984,304,-480,1,-80
5710,160,-1984,280,-485,2,-81
5715,160,-1984,272,-488,5,-83
5720,152,-2000,312,-491,7,-86
5725,112,-1992,336,-491,10,-89
5730,208,-2000,288,-492,13,-89
5735,184,-2016,304,-495,20,-89
5740,160,-1984,288,-497,25,-89
5745,184,-2032,280,-499,27,-87
5750,176,-2016,304,-498,28,-88
5755,136,-2016,304,-493,31,-90
5760,160,-2040,280,-486,34,-90
5765,176,-2032,272,-482,35,-89
5770,144,-2024,248,-482,38,-87
5775,200,-2016,256,-481,41,-83
5780,232,-2016,272,-482,44,-78
5785,240,-2016,288,-481,51,-74
5790,192,-2040,248,-483,60,-71
5795,208,-2040,280,-483,62,-70
5800,160,-2024,256,-483,67,-70
5805,152,-2024,264,-482,69,-71
5810,112,-2008,264,-483,71,-72
5815,112,-2016,256,-484,71,-71
5820,112,-2008,216,-489,71,-72
5825,48,-2016,256,-492,68,-73
5830,136,-2008,200,-494,64,-72
5835,112,-1984,216,-500,66,-76
5840,152,-2000,224,-509,68,-80
5845,184,-2000,184,-514,68,-85
5850,104,-1952,160,-522,71,-88
5855,64,-1984,200,-531,69,-87
5860,176,-2000,152,-540,63,-82
5865,160,-2024,184,-552,69,-87
5870,160,-2048,160,-561,69,-91
5875,184,-2072,192,-569,65,-94
5880,104,-2040,208,-574,64,-96
5885,144,-2024,224,-573,60,-99
5890,176,-2000,192,-563,62,-99
5895,208,-2024,168,-561,62,-100
5900,184,-2016,144,-564,64,-103
5905,200,-2048,96,-571,66,-109
5910,200,-2056,88,-580,66,-115
5915,192,-2056,104,-589,66,-123
5920,160,-2040,64,-593,65,-126
5925,176,-2008,104,-599,64,-129
5930,160,-2008,24,-601,68,-129
5935,160,-2016,40,-608,70,-128
5940,176,-2040,24,-618,73,-127
5945,160,-2032,16,-627,76,-127
5950,160,-2024,0,-646,79,-127
5955,160,-2032,-32,-663,79,-129
5960,208,-2040,40,-676,82,-134
5965,224,-2048,-8,-685,86,-137
5970,200,-1992,-16,-694,89,-143
5975,240,-1992,-40,-703,95,-148
5980,224,-1992,-56,-711,96,-153
5985,232,-1992,-40,-715,98,-158
5990,256,-2000,-40,-718,99,-163
5995,216,-2008,-16,-721,99,-166
6000,248,-2024,-40,-723,96,-172
6005,240,-2008,-48,-724,95,-176
6010,240,-2008,-80,-723,93,-179
6015,240,-2000,-96,-724,89,-182
6020,232,-2024,-104,-726,91,-183
6025,232,-2016,-96,-723,93,-186
6030,216,-2016,-104,-721,95,-185
6035,200,-2032,-104,-722,95,-182
6040,200,-2024,-128,-723,96,-180
6045,200,-2016,-160,-722,96,-179
6050,200,-2024,-160,-725,96,-177
6055,224,-2008,-136,-725,94,-175
6060,184,-2008,-160,-723,94,-174
6065,192,-1992,-152,-723,91,-173
6070,232,-1976,-160,-725,82,-174
6075,192,-2000,-176,-727,75,-176
6080,216,-2000,-160,-730,64,-181
6085,224,-2000,-160,-730,54,-187
6090,232,-2008,-208,-732,48,-195
6095,216,-2000,-192,-738,42,-200
6100,248,-2016,-248,-741,36,-206
6105,200,-1976,-272,-748,32,-214
6110,224,-1992,-264,-757,28,-218
6115,216,-2008,-296,-763,23,-221
6120,216,-2016,-224,-770,19,-221
6125,248,-1992,-320,-781,14,-220
6130,256,-1984,-312,-790,9,-220
6135,248,-1992,-328,-804,5,-219
6140,232,-1960,-320,-819,1,-219
6145,280,-1960,-360,-832,-10,-220
6150,264,-1928,-360,-850,-18,-222
6155,272,-1944,-392,-866,-29,-219
6160,288,-1912,-416,-881,-39,-219
6165,296,-1896,-432,-904,-51,-221
6170,312,-1904,-440,-927,-62,-225
6175,296,-1888,-416,-953,-69,-229
6180,320,-1880,-448,-983,-78,-234
6185,336,-1872,-456,-1011,-84,-240
6190,344,-1888,-464,-1043,-85,-245
6195,336,-1888,-472,-1073,-84,-247
6200,336,-1880,-488,-1100,-81,-249
6205,328,-1880,-480,-1129,-79,-252
6210,320,-1888,-496,-1157,-76,-255
6215,336,-1888,-512,-1184,-72,-258
6220,336,-1888,-520,-1206,-69,-259
6225,344,-1896,-520,-1232,-63,-261
6230,352,-1880,-552,-1253,-59,-262
6235,360,-1880,-536,-1275,-55,-259
6240,360,-1888,-536,-1298,-49,-256
6245,352,-1840,-600,-1318,-43,-254
6250,376,-1856,-608,-1337,-37,-249
6255,368,-1864,-568,-1356,-31,-244
6260,368,-1864,-640,-1379,-23,-241
6265,376,-1864,-632,-1408,-22,-239
6270,376,-1880,-624,-1440,-16,-237
6275,384,-1880,-624,-1472,-5,-234
6280,384,-1904,-680,-1499,1,-233
6285,368,-1896,-680,-1528,13,-233
6290,432,-1896,-680,-1554,26,-231
6295,384,-1896,-680,-1589,43,-231
6300,384,-1880,-688,-1633,53,-229
6305,384,-1880,-688,-1673,57,-223
6310,408,-1920,-720,-1715,61,-216
6315,416,-1920,-696,-1755,69,-216
6320,408,-1928,-712,-1791,79,-209
6325,376,-1920,-704,-1827,86,-202
6330,392,-1960,-688,-1861,96,-199
6335,424,-1944,-704,-1879,101,-199
6340,368,-1928,-784,-1890,105,-203
6345,400,-1944,-824,-1909,108,-208
6350,376,-1928,-840,-1935,113,-214
6355,400,-1944,-888,-1974,113,-224
6360,400,-1976,-872,-2019,116,-236
6365,384,-1992,-960,-2069,127,-255
6370,368,-2016,-992,-2133,148,-273
6375,408,-1968,-1024,-2203,166,-294
6380,440,-1976,-1024,-2266,182,-314
6385,472,-1936,-1064,-2317,208,-340
6390,512,-1936,-1168,-2359,226,-378
6395,520,-1856,-1168,-2390,244,-421
6400,504,-1816,-1280,-2408,271,-469
6405,512,-1816,-1360,-2424,305,-514
6410,504,-1896,-1440,-2440,347,-548
6415,464,-1984,-1496,-2458,394,-585
6420,456,-2080,-1544,-2464,437,-616
6425,544,-2200,-1568,-2448,467,-645
6430,544,-2232,-1608,-2397,492,-675
6435,616,-2240,-1632,-2318,513,-698
6440,664,-2192,-1648,-2215,521,-712
6445,672,-2144,-1688,-2096,522,-713
6450,648,-2072,-1696,-1972,525,-705
6455,688,-2048,-1680,-1876,525,-680
6460,664,-2016,-1712,-1756,519,-646
6465,664,-2056,-1744,-1631,505,-611
6470,648,-2088,-1728,-1505,477,-575
6475,640,-2080,-1768,-1380,440,-536
6480,656,-2112,-1776,-1249,395,-508
6485,632,-2120,-1816,-1116,335,-474
6490,656,-2072,-1872,-988,268,-442
6495,672,-2080,-1896,-871,202,-411
6500,680,-1984,-1984,-759,132,-384
6505,664,-1928,-2016,-650,62,-352
6510,696,-1896,-1976,-554,3,-323
6515,680,-1824,-1984,-463,-44,-293
6520,680,-1800,-1960,-377,-80,-262
6525,664,-1728,-1912,-296,-106,-237
6530,608,-1632,-1856,-220,-126,-208
6535,600,-1576,-1832,-147,-141,-179
6540,640,-1520,-1808,-85,-151,-151
6545,608,-1480,-1768,-35,-160,-127
6550,632,-1480,-1752,5,-167,-107
6555,640,-1464,-1744,37,-174,-92
6560,648,-1408,-1728,57,-180,-83
6565,648,-1400,-1736,70,-185,-82
6570,624,-1392,-1736,76,-186,-85
6575,632,-1392,-1696,80,-187,-85
6580,608,-1344,-1696,77,-185,-85
6585,576,-1328,-1656,74,-184,-84
6590,600,-1296,-1664,66,-187,-88
6595,560,-1296,-1632,56,-189,-91
6600,520,-1304,-1584,43,-195,-93
6605,504,-1240,-1640,33,-204,-89
6610,520,-1288,-1560,22,-217,-90
6615,536,-1272,-1504,14,-224,-88
6620,520,-1280,-1472,7,-231,-79
6625,528,-1288,-1472,9,-240,-70
6630,504,-1312,-1496,16,-249,-62
6635,496,-1328,-1432,26,-259,-60
6640,528,-1320,-1400,38,-269,-60
6645,488,-1344,-1424,50,-273,-55
6650,456,-1352,-1392,63,-273,-47
6655,504,-1384,-1384,75,-275,-39
6660,480,-1368,-1400,94,-274,-32
6665,480,-1368,-1384,115,-279,-24
6670,464,-1384,-1416,142,-286,-12
6675,472,-1408,-1416,172,-295,-1
6680,480,-1400,-1408,204,-304,8
6685,448,-1360,-1416,235,-311,21
6690,448,-1336,-1376,261,-311,35
6695,456,-1320,-1360,280,-310,47
6700,440,-1280,-1408,293,-310,58
6705,424,-1288,-1360,302,-310,66
6710,432,-1256,-1336,311,-313,76
6715,360,-1240,-1448,321,-313,84
6720,408,-1248,-1336,329,-317,90
6725,424,-1264,-1328,338,-320,95
6730,416,-1264,-1384,345,-322,99
6735,416,-1240,-1352,352,-319,96
6740,408,-1208,-1392,358,-314,94
6745,448,-1216,-1376,362,-307,94
6750,424,-1208,-1408,364,-303,90
6755,432,-1216,-1424,364,-300,90
6760,400,-1208,-1408,360,-297,88
6765,448,-1152,-1416,358,-293,88
6770,392,-1184,-1408,351,-290,87
6775,408,-1176,-1440,340,-285,88
6780,408,-1168,-1424,329,-280,87
6785,392,-1176,-1448,311,-274,88
6790,392,-1160,-1424,298,-270,88
6795,400,-1152,-1424,284,-268,86
6800,384,-1144,-1456,269,-262,87
6805,392,-1136,-1408,258,-261,88
6810,384,-1128,-1432,248,-263,93
6815,376,-1160,-1448,242,-266,96
6820,376,-1168,-1432,230,-266,96
6825,400,-1144,-1464,221,-262,98
6830,392,-1184,-1424,222,-260,99
6835,408,-1192,-1416,223,-259,98
6840,400,-1216,-1432,226,-259,99
6845,392,-1200,-1416,229,-255,100
6850,416,-1208,-1424,232,-250,105
6855,432,-1208,-1424,235,-247,108
6860,440,-1224,-1400,238,-242,110
6865,440,-1256,-1360,244,-238,115
6870,440,-1256,-1336,251,-235,120
6875,432,-1288,-1368,257,-235,125
6880,400,-1296,-1312,266,-238,131
6885,408,-1312,-1288,273,-238,139
6890,424,-1312,-1344,276,-233,140
6895,424,-1272,-1384,274,-221,138
6900,448,-1304,-1408,266,-204,132
6905,440,-1256,-1440,255,-185,125
6910,456,-1256,-1416,241,-174,117
6915,448,-1216,-1328,225,-182,103
6920,424,-1192,-1256,213,-207,89
6925,408,-1176,-1208,215,-244,83
6930,384,-1112,-1160,235,-273,92
6935,384,-1088,-1176,262,-286,110
6940,392,-1016,-1184,286,-279,131
6945,448,-1024,-1216,298,-261,151
6950,456,-1032,-1168,300,-242,163
6955,464,-984,-1136,308,-233,174
6960,464,-976,-1144,320,-226,193
6965,472,-976,-1152,324,-216,212
6970,488,-1000,-1184,315,-201,225
6975,464,-1040,-1168,292,-186,228
6980,440,-1096,-1136,266,-181,226
6985,368,-1080,-1064,242,-187,222
6990,312,-1112,-1048,223,-210,223
6995,296,-1152,-1008,212,-245,229
7000,224,-1152,-992,207,-284,237
7005,232,-1176,-936,206,-327,249
7010,216,-1168,-944,204,-373,262
7015,200,-1144,-952,207,-422,277
7020,200,-1168,-968,210,-472,293
7025,152,-1136,-976,213,-524,310
7030,192,-1168,-1024,217,-573,327
7035,208,-1152,-1080,221,-620,344
7040,168,-1232,-1080,226,-664,358
7045,216,-1120,-1112,228,-703,374
7050,256,-1256,-1120,229,-737,390
7055,200,-1208,-1112,229,-770,404
7060,216,-1208,-1144,232,-804,417
7065,208,-1240,-952,239,-836,425
7070,208,-1304,-1360,248,-873,436
7075,224,-1368,-1256,257,-899,440
7080,168,-1400,-1248,257,-899,449
7085,336,-1456,-1176,268,-883,465
7090,264,-1488,-1152,295,-865,481
7095,256,-1528,-1152,343,-851,480
7100,208,-1520,-1112,389,-847,469
7105,208,-1496,-1120,433,-855,449
7110,240,-1488,-1192,482,-866,440
7115,168,-1512,-1288,517,-870,441
7120,248,-1504,-1320,537,-850,444
7125,224,-1512,-1336,545,-808,444
7130,216,-1576,-1392,545,-758,434
7135,200,-1672,-1224,545,-706,424
7140,120,-1568,-1160,555,-664,413
7145,160,-1648,-1056,593,-641,398
7150,168,-1656,-1136,634,-609,371
7155,168,-1720,-1040,670,-580,341
7160,184,-1616,-1160,692,-551,317
7165,136,-1592,-1200,700,-518,285
7170,136,-1552,-1216,696,-481,248
7175,176,-1552,-1200,684,-442,214
7180,208,-1576,-1208,674,-406,178
7185,176,-1544,-1136,666,-366,148
7190,176,-1672,-1232,668,-328,125
7195,176,-1672,-1176,683,-296,112
7200,168,-1680,-1120,701,-273,102
7205,176,-1680,-1040,719,-264,97
7210,120,-1576,-1040,731,-267,99
7215,152,-1592,-1000,739,-280,100
7220,136,-1672,-1152,743,-299,103
7225,136,-1696,-1040,736,-323,107
7230,256,-1656,-1128,731,-345,111
7235,272,-1712,-1096,730,-359,113
7240,248,-1664,-1104,738,-361,112
7245,336,-1736,-1088,750,-355,108
7250,344,-1744,-1096,766,-342,104
7255,328,-1784,-1016,785,-334,100
7260,328,-1792,-992,803,-336,100
7265,312,-1800,-1000,827,-344,104
7270,216,-1832,-864,851,-354,111
7275,240,-1800,-880,872,-359,121
7280,208,-1816,-928,885,-355,136
7285,184,-1792,-904,888,-349,155
7290,152,-1800,-920,889,-340,177
7295,120,-1752,-944,887,-332,199
7300,120,-1752,-936,879,-325,219
7305,128,-1784,-960,871,-319,238
7310,136,-1768,-984,860,-311,255
7315,224,-1720,-912,850,-298,268
7320,192,-1736,-944,841,-284,281
7325,200,-1728,-912,836,-269,293
7330,184,-1752,-912,835,-254,307
7335,176,-1736,-880,836,-237,318
7340,152,-1768,-856,840,-221,331
7345,192,-1760,-888,842,-208,343
7350,168,-1760,-784,842,-197,355
7355,160,-1784,-800,839,-189,368
7360,144,-1760,-824,839,-185,381
7365,160,-1800,-856,841,-182,390
7370,112,-1792,-848,842,-178,397
7375,56,-1832,-744,844,-172,403
7380,56,-1896,-784,841,-167,408
7385,104,-1904,-784,835,-158,409
7390,160,-1984,-752,833,-146,405
7395,112,-1936,-712,842,-124,403
7400,136,-1928,-696,865,-96,400
7405,168,-1968,-688,892,-67,394
7410,200,-1976,-672,914,-42,383
7415,88,-1920,-608,934,-21,370
7420,200,-1984,-672,956,-3,362
7425,208,-2000,-584,982,16,355
7430,176,-1992,-640,1004,32,347
7435,200,-2016,-664,1021,49,342
7440,200,-1960,-632,1037,68,339
7445,192,-2032,-672,1055,90,339
7450,192,-1968,-632,1073,111,341
7455,224,-1960,-640,1087,131,343
7460,280,-1944,-704,1102,152,347
7465,232,-1912,-704,1117,177,349
7470,312,-1824,-672,1128,201,344
7475,280,-1792,-680,1131,221,333
7480,336,-1752,-696,1124,243,319
7485,376,-1712,-664,1118,262,304
7490,400,-1648,-816,1104,275,289
7495,336,-1648,-600,1078,282,267
7500,424,-1664,-584,1047,288,244
7505,512,-1664,-600,1018,290,216
7510,440,-1696,-592,986,286,189
7515,400,-1544,-680,956,282,164
7520,288,-1680,-616,933,275,138
7525,248,-1672,-656,909,273,112
7530,176,-1664,-680,877,275,85
7535,80,-1624,-712,831,283,61
7540,40,-1536,-736,783,291,42
7545,48,-1536,-768,730,290,25
7550,16,-1488,-696,680,278,9
7555,-32,-1472,-712,641,256,-5
7560,-64,-1432,-640,607,223,-19
7565,-88,-1440,-696,574,186,-33
7570,-112,-1400,-712,544,144,-48
7575,-104,-1328,-712,513,104,-58
7580,-120,-1256,-768,480,65,-62
7585,-72,-1232,-744,444,27,-56
7590,-48,-1144,-808,405,-15,-46
7595,-8,-976,-768,357,-48,-30
7600,16,-904,-808,302,-76,-8
7605,32,-792,-824,235,-105,15
7610,96,-784,-744,162,-139,40
7615,72,-656,-880,97,-174,70
7620,8,-568,-880,40,-213,106
7625,-48,-552,-872,-11,-259,149
7630,-48,-536,-960,-60,-304,193
7635,-40,-520,-1000,-115,-338,227
7640,8,-576,-1072,-172,-356,253
7645,8,-608,-1048,-228,-364,266
7650,16,-680,-984,-282,-381,278
7655,-48,-704,-864,-316,-414,291
7660,-96,-792,-800,-322,-457,313
7665,-144,-840,-760,-312,-495,344
7670,-152,-896,-672,-294,-522,374
7675,-168,-928,-632,-275,-538,401
7680,-168,-968,-600,-261,-554,425
7685,-208,-1000,-488,-241,-580,449
7690,-200,-1008,-496,-201,-623,474
7695,-216,-1032,-416,-155,-674,503
7700,-272,-1040,-368,-107,-731,538
7705,-272,-1032,-304,-56,-787,581
7710,-336,-1008,-296,-7,-837,631
7715,-368,-984,-312,42,-887,683
7720,-416,-968,-288,91,-928,734
7725,-472,-936,-320,136,-961,782
7730,-488,-912,-304,180,-987,828
7735,-472,-920,-288,225,-1013,866
7740,-464,-952,-224,270,-1036,896
7745,-464,-976,-184,325,-1064,924
7750,-440,-984,-112,389,-1097,942
7755,-440,-1056,-24,460,-1138,956
7760,-432,-1056,40,537,-1186,973
7765,-456,-1104,72,622,-1227,997
7770,-448,-1056,88,702,-1251,1020
7775,-432,-976,48,761,-1263,1040
7780,-448,-944,8,795,-1283,1054
7785,-480,-808,-32,815,-1327,1068
7790,-424,-760,-88,831,-1400,1086
7795,-416,-648,-160,854,-1473,1103
7800,-424,-528,-232,869,-1528,1118
7805,-448,-432,-296,869,-1570,1135
7810,-472,-392,-312,848,-1610,1158
7815,-528,-424,-304,816,-1646,1191
7820,-584,-480,-280,808,-1682,1232
7825,-552,-536,-288,834,-1712,1296
7830,-568,-632,-368,877,-1713,1372
7835,-568,-728,-448,912,-1710,1452
7840,-640,-840,-368,966,-1702,1547
7845,-696,-912,-360,1073,-1695,1672
7850,-936,-960,-344,1196,-1691,1825
7855,-1256,-960,-408,1284,-1688,2001
7860,-1816,-1024,-480,1296,-1674,2192
7865,-2600,-1144,-408,1250,-1647,2401
7870,-3448,-1448,-488,1178,-1645,2617
7875,-4280,-1976,-368,1037,-1702,2798
7880,-5064,-2752,-128,921,-1791,2961
7885,-6128,-3728,400,984,-1892,3157
7890,-7856,-5000,1480,1309,-2083,3438
7895,-10456,-6584,2672,1888,-2412,3844
7900,-14992,-7920,1320,2280,-2693,4368
7905,-21016,-9424,-5544,1503,-2627,5006
7910,-22792,-12344,-11744,-614,-2096,5717
7915,-11928,-15600,-7976,-2872,-1574,6033
7920,-3784,-13256,-2176,-2542,-1273,4085
7925,-32,-10000,408,-800,-1389,2816
7930,2848,-7312,720,675,-1619,2651
7935,3728,-5200,8,1658,-1956,2588
7940,4832,-3232,-128,2323,-2286,2709
7945,4744,-1480,40,2707,-2485,3019
7950,4760,-152,-24,2789,-2604,3406
7955,4152,1256,-176,2702,-2547,3574
7960,3624,3016,-304,2486,-2269,3506
7965,2328,4624,-72,2055,-1638,3233
7970,56,5672,152,1265,-861,2878
7975,-1632,5352,824,-17,-76,2769
7980,-3152,3840,1816,-1490,689,2951
7985,-4056,1440,2752,-2611,1193,3284
7990,-4376,-1096,3080,-2959,1231,3511
7995,-3832,-3456,2248,-2508,835,3538
8000,-3072,-4432,720,-1486,367,3449
8005,-2208,-4896,-288,-580,-75,3401
8010,-1488,-5144,-808,-37,-396,3383
8015,-1376,-4848,-752,156,-555,3336
8020,-1360,-4208,-480,198,-623,3334
8025,-1240,-3608,-144,227,-718,3381
8030,-1016,-3032,112,385,-815,3451
8035,-640,-2448,368,605,-838,3551
8040,-416,-1760,560,751,-758,3677
8045,-216,-1160,672,767,-605,3815
8050,200,-296,680,690,-415,3939
8055,272,328,840,555,-150,4084
8060,320,912,904,429,78,4185
8065,184,1240,1248,314,199,4219
8070,136,1256,1328,262,225,4215
8075,-440,1336,1472,283,223,4200
8080,-984,1248,1328,324,178,4232
8085,-1608,928,1472,336,111,4320
8090,-2312,728,1520,354,-3,4463
8095,-2816,312,2248,343,-222,4623
8100,-3448,232,2856,395,-631,4805
8105,-3680,64,3008,413,-1182,4998
8110,-3432,-536,2744,343,-1759,5089
8115,-3288,-728,2432,236,-2127,5029
8120,-3320,-520,2176,175,-2190,4919
8125,-3264,-304,1816,219,-2019,4837
8130,-3032,48,1240,283,-1715,4696
8135,-2992,520,832,254,-1173,4405
8140,-2928,1064,424,169,-400,4021
8145,-2896,1488,-152,83,437,3524
8150,-2656,1832,-648,-10,1062,2880
8155,-2864,2104,-368,-116,1759,2071
8160,-3040,2320,-456,15,2211,1197
8165,-2768,2472,-576,389,2308,481
8170,-2360,1888,-664,992,2122,-327
8175,-1808,1264,-1160,1909,1893,-918
8180,-1264,1136,-1112,2853,1848,-1301
8185,-1504,1560,-912,3427,2009,-1522
8190,-2048,1992,-24,3421,2330,-1622
8195,-2240,2256,648,3044,2693,-1551
8200,-2224,2232,896,2448,3049,-1378
8205,-2272,1864,936,1682,3354,-1144
8210,-2184,1360,920,840,3510,-895
8215,-2216,720,928,125,3447,-660
8220,-2088,152,896,-293,3174,-434
8225,-1936,-320,736,-393,2741,-220
8230,-1672,-608,568,-277,2240,-24
8235,-1472,-848,424,-83,1791,141
8240,-1216,-1000,456,98,1467,264
8245,-1000,-1104,504,243,1234,320
8250,-840,-1072,496,357,1066,295
8255,-672,-768,464,450,953,189
8260,-600,-336,400,535,917,54
8265,-688,232,352,636,950,-61
8270,-904,824,344,750,1014,-143
8275,-1112,1472,272,850,1090,-190
8280,-1512,2024,216,931,1158,-208
8285,-1848,2456,152,985,1190,-180
8290,-2080,2696,88,1013,1170,-113
8295,-2264,2720,96,995,1078,-13
8300,-2248,2528,64,914,930,92
8305,-2128,2136,80,762,754,182
8310,-1912,1616,72,590,574,244
8315,-1640,1104,72,438,415,259
8320,-1416,712,16,317,283,219
8325,-1232,376,-40,233,187,138
8330,-1056,184,-104,182,112,31
8335,-976,80,-128,160,43,-99
8340,-1032,144,-152,162,-30,-244
8345,-1112,376,-192,190,-111,-386
8350,-1256,720,-248,224,-187,-515
8355,-1336,1016,-176,227,-256,-628
8360,-1432,1272,-152,238,-303,-720
8365,-1472,1472,-88,243,-348,-790
8370,-1488,1568,-32,248,-384,-832
8375,-1488,1584,-16,237,-413,-850
8380,-1456,1544,80,208,-445,-849
8385,-1288,1416,136,188,-467,-845
8390,-1224,1240,160,174,-468,-854
8395,-1136,976,184,148,-477,-891
8400,-1128,696,208,142,-469,-946
8405,-1192,472,184,161,-431,-1022
8410,-1248,288,176,203,-357,-1123
8415,-1488,240,152,262,-266,-1236
8420,-1744,248,200,317,-175,-1338
8425,-1904,320,136,367,-97,-1426
8430,-2128,464,56,403,3,-1494
8435,-2544,632,40,412,69,-1527
8440,-2720,768,-176,386,74,-1529
8445,-2960,776,-320,308,96,-1516
8450,-3072,928,-376,197,116,-1489
8455,-3304,1088,-376,54,130,-1423
8460,-3528,1256,-448,-79,139,-1325
8465,-3560,1304,-472,-190,157,-1192
8470,-3680,1376,-384,-271,169,-1056
8475,-3784,1352,-360,-318,163,-915
8480,-3856,1144,-272,-342,153,-774
8485,-3912,1032,-168,-320,117,-648
8490,-3584,800,-144,-269,99,-536
8495,-3664,760,-56,-192,117,-418
8500,-3384,864,-56,-102,118,-308
8505,-3104,864,-24,-12,128,-226
8510,-2744,696,-136,65,139,-151
8515,-2536,536,-64,98,190,-113
8520,-2456,392,-16,105,279,-98
8525,-2320,184,112,102,366,-105
8530,-2304,56,256,115,469,-107
8535,-2256,56,288,154,587,-81
8540,-2152,56,368,216,704,0
8545,-1904,24,296,267,816,95
8550,-1752,8,344,270,932,191
8555,-1544,-8,296,226,1016,278
8560,-1432,-40,200,144,1067,331
8565,-1312,32,56,39,1072,330
8570,-1048,24,-88,-92,1062,288
8575,-1168,64,-24,-209,1035,209
8580,-1208,144,-120,-271,954,121
8585,-1296,192,-152,-319,834,24
8590,-1184,312,-328,-382,703,-69
8595,-1328,392,-344,-461,589,-164
8600,-1424,416,-392,-520,475,-253
8605,-1528,432,-392,-548,368,-321
8610,-1688,432,-368,-552,271,-369
8615,-1776,360,-408,-544,196,-401
8620,-1872,272,-424,-540,147,-424
8625,-1920,168,-440,-534,113,-445
8630,-2016,64,-448,-531,93,-468
8635,-2016,-48,-504,-527,80,-494
8640,-2040,-120,-456,-523,75,-513
8645,-2080,-216,-472,-508,58,-524
8650,-2224,-256,-456,-491,36,-527
8655,-2072,-416,-448,-475,-1,-520
8660,-2096,-408,-448,-468,-26,-522
8665,-2168,-448,-408,-435,-46,-513
8670,-2280,-448,-376,-378,-72,-495
8675,-2344,-424,-360,-310,-103,-464
8680,-2424,-432,-408,-246,-142,-429
8685,-2264,-408,-480,-199,-172,-398
8690,-2304,-304,-456,-142,-173,-372
8695,-2320,-288,-560,-77,-174,-345
8700,-2520,-240,-512,-35,-178,-322
8705,-2424,-176,-544,-17,-182,-301
8710,-2320,-160,-608,-24,-178,-285
8715,-2168,-160,-608,-35,-161,-277
8720,-2208,-192,-616,-25,-128,-278
8725,-2192,-192,-624,-1,-95,-276
8730,-2272,-216,-584,24,-63,-272
8735,-2288,-216,-544,43,-36,-264
8740,-2296,-216,-504,61,-22,-247
8745,-2296,-200,-512,76,-15,-227
8750,-2248,-192,-472,86,-17,-204
8755,-2208,-176,-424,88,-26,-182
8760,-2112,-184,-416,85,-39,-160
8765,-2120,-192,-368,81,-55,-140
8770,-2080,-184,-360,76,-68,-122
8775,-2080,-200,-288,74,-81,-108
8780,-2048,-208,-272,74,-93,-95
8785,-2040,-176,-280,73,-110,-85
8790,-2040,-184,-216,71,-123,-77
8795,-2016,-168,-208,69,-136,-70
8800,-1984,-176,-200,66,-147,-63
8805,-1992,-176,-176,61,-159,-54
8810,-1960,-200,-184,55,-169,-47
8815,-1976,-176,-184,48,-177,-38
8820,-1960,-192,-168,39,-184,-34
8825,-1952,-176,-160,32,-189,-25
8830,-1944,-168,-168,27,-193,-16
8835,-1904,-184,-152,23,-196,-7
8840,-1904,-184,-160,20,-197,3
8845,-1920,-168,-160,18,-198,10
8850,-1904,-168,-152,16,-199,16
8855,-1920,-168,-160,15,-202,24
8860,-1936,-152,-144,13,-205,29
8865,-1936,-160,-128,14,-211,36
8870,-1928,-144,-120,16,-216,40
8875,-1952,-128,-120,17,-220,43
8880,-1968,-128,-104,20,-221,47
8885,-2000,-88,-128,22,-222,49
8890,-1968,-96,-120,25,-221,53
8895,-2008,-80,-96,29,-220,57
8900,-2024,-80,-128,33,-217,60
8905,-2032,-40,-152,38,-211,61
8910,-2056,-16,-112,42,-206,67
8915,-2048,-32,-144,42,-200,70
8920,-2072,-8,-120,41,-191,73
8925,-2104,-24,-152,39,-182,75
8930,-2112,-24,-160,36,-170,77
8935,-2112,-16,-152,29,-156,78
8940,-2120,-8,-144,20,-145,77
8945,-2136,8,-136,14,-133,78
8950,-2120,-16,-128,3,-117,77
8955,-2120,8,-96,-9,-99,74
8960,-2144,-8,-96,-15,-81,75
8965,-2104,0,-128,-20,-61,75
8970,-2104,32,-96,-24,-41,75
8975,-2088,32,-88,-25,-21,75
8980,-2096,56,-88,-26,0,75
8985,-2112,56,-72,-23,20,74
8990,-2112,48,-40,-23,38,75
8995,-2064,56,-64,-19,53,76
9000,-2080,64,-64,-17,68,77
9005,-2064,72,-32,-18,82,76
9010,-2056,72,-56,-18,92,74
9015,-2064,72,-40,-15,102,75
9020,-2056,80,-40,-13,111,73
9025,-2048,96,-8,-11,120,70
9030,-2072,96,-32,-12,128,68
9035,-2048,96,-48,-10,136,63
9040,-2088,120,-24,-8,143,60
9045,-2048,72,-48,-7,147,55
9050,-2048,96,-48,-7,155,49
9055,-2040,80,-80,-5,162,44
9060,-2056,64,-72,-5,168,37
9065,-2056,88,-56,-5,173,31
9070,-2056,80,-48,-5,180,26
9075,-2056,56,-72,-8,187,23
9080,-2056,16,-96,-8,195,15
9085,-2032,32,-80,-8,202,11
9090,-2056,56,-112,-6,206,6
9095,-2032,48,-120,0,208,0
9100,-2048,40,-128,7,212,-7
9105,-2040,48,-136,14,214,-11
9110,-2064,40,-120,21,214,-16
9115,-2056,32,-120,27,215,-20
9120,-2048,48,-144,33,213,-25
9125,-2056,32,-144,39,210,-27
9130,-2072,16,-160,45,206,-32
9135,-2064,-8,-128,49,201,-35
9140,-2072,24,-160,55,196,-37
9145,-2072,-16,-160,63,191,-39
9150,-2104,8,-184,70,184,-41
9155,-2080,-24,-192,77,177,-41
9160,-2080,-32,-200,83,169,-43
9165,-2096,-24,-240,89,159,-43
9170,-2096,-24,-240,94,151,-42
9175,-2104,-24,-256,96,141,-42
9180,-2112,-8,-272,96,132,-40
9185,-2088,-48,-224,95,121,-39
9190,-2104,-56,-256,92,109,-37
9195,-2096,-32,-272,87,98,-37
9200,-2104,-8,-232,79,88,-36
9205,-2096,-16,-248,72,80,-32
9210,-2096,-40,-264,64,76,-31
9215,-2080,-40,-232,56,70,-30
9220,-2064,-16,-232,48,64,-27
9225,-2072,-8,-224,40,58,-26
9230,-2072,0,-224,33,54,-23
9235,-2072,-24,-176,28,46,-22
9240,-2064,-8,-216,24,41,-20
9245,-2064,-16,-184,17,31,-20
9250,-2064,-16,-192,13,24,-17
9255,-2072,-8,-208,9,16,-15
9260,-2056,-16,-184,5,9,-14
9265,-2080,0,-176,3,3,-14
9270,-2064,-16,-216,-2,-3,-15
9275,-2080,-16,-192,-4,-9,-14
9280,-2064,-24,-168,-7,-13,-14
9285,-2080,-40,-176,-10,-13,-13
9290,-2064,-40,-200,-13,-14,-13
9295,-2096,-16,-176,-15,-15,-12
9300,-2096,-40,-176,-16,-15,-10
9305,-2088,-32,-160,-15,-14,-6
9310,-2064,8,-168,-14,-16,-5
9315,-2064,-8,-168,-13,-18,-4
9320,-2056,-32,-160,-13,-21,-5
9325,-2064,-32,-176,-14,-23,-6
9330,-2048,-32,-176,-15,-27,-7
9335,-2056,8,-136,-16,-29,-7
9340,-2064,-8,-160,-17,-32,-10
9345,-2056,-24,-128,-18,-34,-10
9350,-2072,-56,-152,-18,-35,-9
9355,-2064,-32,-152,-17,-35,-9
9360,-2064,-32,-136,-15,-33,-8
9365,-2056,-48,-128,-13,-31,-6
9370,-2048,-64,-152,-11,-28,-5
9375,-2056,-64,-128,-8,-27,-3
9380,-2056,-56,-112,-8,-23,0
9385,-2056,-64,-120,-5,-23,3
9390,-2056,-40,-112,-1,-20,9
9395,-2048,-16,-152,0,-18,12
9400,-2056,-24,-144,2,-15,14
9405,-2048,-8,-120,4,-9,17
9410,-2048,-16,-120,7,-7,18
9415,-2072,-16,-136,5,-3,19
9420,-2064,-8,-152,5,-1,17
9425,-2056,-24,-136,3,1,16
9430,-2072,0,-136,1,1,14
9435,-2064,0,-112,0,0,14
9440,-2080,0,-112,-1,3,14
9445,-2056,-8,-144,-2,4,15
9450,-2056,-16,-112,-3,6,15
9455,-2056,-8,-120,-3,10,14
9460,-2096,-8,-112,-1,15,13
9465,-2088,8,-120,5,16,13
9470,-2096,8,-112,9,18,13
9475,-2064,40,-120,13,23,12
9480,-2056,24,-104,13,29,11
9485,-2072,16,-88,13,37,9
9490,-2064,-8,-96,17,42,9
9495,-2080,8,-96,20,46,7
9500,-2056,32,-96,24,50,7
9505,-2064,-16,-104,25,55,6
9510,-2056,-8,-128,27,60,4
9515,-2080,32,-120,27,65,2
9520,-2064,40,-112,28,68,1
9525,-2064,16,-96,25,73,0
9530,-2064,32,-120,25,78,0
9535,-2064,-8,-120,25,79,-1
9540,-2080,24,-144,25,81,-2
9545,-2088,-8,-144,25,83,-5
9550,-2056,-8,-136,26,83,-3
9555,-2064,-8,-104,24,85,-5
9560,-2056,16,-136,22,85,-6
9565,-2096,32,-128,23,83,-7
9570,-2064,0,-128,22,83,-9
9575,-2056,-32,-120,23,82,-8
9580,-2080,8,-128,22,81,-8
9585,-2072,24,-136,21,82,-8
9590,-2064,8,-128,18,79,-10
9595,-2072,8,-136,18,77,-10
9600,-2072,24,-144,18,75,-10
9605,-2080,8,-112,18,72,-11
9610,-2088,-32,-152,15,70,-10
9615,-2096,-8,-160,13,68,-12
9620,-2056,-24,-112,11,66,-12
9625,-2064,-16,-112,13,61,-12
9630,-2048,-16,-144,12,61,-11
9635,-2088,-24,-152,14,57,-9
9640,-2064,-16,-160,13,55,-10
9645,-2088,0,-152,15,53,-10
9650,-2096,-32,-136,15,51,-10
9655,-2088,-32,-120,17,50,-9
9660,-2072,-8,-160,17,49,-6
9665,-2088,-8,-136,16,46,-5
9670,-2096,40,-152,17,44,-4
9675,-2064,-8,-136,17,39,-3
9680,-2080,-16,-152,21,35,-1
9685,-2072,-8,-152,20,32,-3
9690,-2072,0,-152,19,30,-5
9695,-2064,-8,-160,17,24,-7
9700,-2064,0,-152,16,20,-7
9705,-2048,-24,-136,15,15,-8
9710,-2048,-40,-144,14,11,-9
9715,-2048,-8,-136,12,12,-9
9720,-2064,8,-128,10,10,-8
9725,-2056,72,-112,8,11,-8
9730,-2080,-32,-136,5,9,-8
9735,-2056,-40,-144,3,8,-9
9740,-2072,-32,-128,3,7,-11
9745,-2048,-48,-128,5,2,-10
9750,-2048,-24,-128,9,-2,-10
9755,-2064,-16,-120,10,-7,-11
9760,-2056,-24,-96,13,-11,-10
9765,-2080,0,-120,13,-14,-9
9770,-2056,-24,-128,15,-16,-10
9775,-2056,-40,-112,17,-18,-10
9780,-2072,-16,-104,20,-19,-9
9785,-2072,-24,-96,23,-21,-9
9790,-2048,-40,-96,27,-23,-8
9795,-2072,-24,-56,27,-22,-10
9800,-2088,8,-112,31,-21,-10
9805,-2064,-8,-104,32,-20,-8
9810,-2056,-16,-80,35,-19,-7
9815,-2056,-16,-80,31,-17,-4
9820,-2064,-24,-80,28,-12,-5
9825,-2064,-8,-80,23,-6,-5
9830,-2056,-72,-96,17,0,-6
9835,-2088,-8,-24,8,7,-5
9840,-2080,8,-40,0,13,-6
9845,-2064,-32,-56,-6,18,-4
9850,-2072,-40,-56,-12,24,-6
9855,-2072,-24,-80,-15,28,-5
9860,-2072,-24,-64,-16,36,-5
9865,-2088,-40,-72,-15,42,-4
9870,-2088,-24,-88,-17,49,-4
9875,-2064,0,-64,-16,56,-5
9880,-2080,8,-88,-14,62,-2
9885,-2072,-24,-96,-11,68,-2
9890,-2088,16,-80,-10,72,-2
9895,-2072,-16,-96,-8,74,-1
9900,-2088,16,-96,-6,75,-3
9905,-2072,0,-104,-4,75,-2
9910,-2080,-8,-96,-4,75,-1
9915,-2080,0,-64,-2,74,-1
9920,-2072,-8,-56,-1,72,-2
9925,-2072,0,-72,1,71,-2
9930,-2072,0,-96,1,70,-2
9935,-2048,-8,-104,1,70,-2
9940,-2064,0,-56,0,71,-3
9945,-2048,-24,-120,0,70,-3
9950,-2080,-16,-80,0,73,-4
9955,-2072,-16,-80,-2,72,-5
9960,-2040,-32,-112,0,72,-7
9965,-2072,-48,-88,0,72,-9
9970,-2056,-32,-96,1,72,-7
9975,-2072,-24,-88,1,72,-8
9980,-2064,-8,-80,2,72,-9
9985,-2088,0,-112,2,71,-7
9990,-2088,-8,-104,2,73,-7
9995,-2064,-16,-128,1,72,-8
10000,-2080,-16,-96,2,73,-7
10005,-2080,0,-112,3,73,-5
10010,-2088,-24,-120,3,73,-6
10015,-2088,-8,-120,5,72,-3
10020,-2056,-16,-104,4,72,-5
10025,-2088,-16,-96,3,72,-5
10030,-2072,-8,-112,3,71,-5
10035,-2072,-16,-96,2,70,-5
10040,-2064,-24,-112,2,72,-5
10045,-2064,-24,-112,0,70,-5
10050,-2080,8,-80,-1,70,-5
10055,-2072,-8,-96,-2,68,-5
10060,-2080,-16,-56,-2,66,-5
10065,-2072,-8,-144,-1,64,-4
10070,-2072,-24,-88,-2,63,-4
10075,-2072,0,-112,-2,62,-5
10080,-2056,-8,-96,-5,57,-5
10085,-2080,-16,-120,-6,55,-4
10090,-2056,-24,-104,-3,56,-4
10095,-2096,0,-120,-1,56,-3
10100,-2064,-16,-104,1,56,-4
10105,-2064,-8,-88,2,55,-3
10110,-2080,24,-112,3,53,-4
10115,-2080,16,-72,5,53,-2
10120,-2080,-24,-104,5,53,-3
10125,-2080,8,-96,5,52,-3
10130,-2064,0,-88,4,51,-3
10135,-2072,32,-112,3,50,-4
10140,-2048,-24,-96,1,50,-3
10145,-2056,-8,-120,-1,50,-3
10150,-2080,-8,-80,-2,50,-4
10155,-2080,-8,-80,-2,50,-6
10160,-2072,-24,-80,-2,50,-4
10165,-2064,-16,-104,-3,49,-5
10170,-2072,-8,-80,-2,48,-5
10175,-2064,-8,-80,-4,48,-4
10180,-2056,-32,-96,-2,49,-3
10185,-2056,-16,-88,-3,51,-3
10190,-2072,0,-128,0,52,-3
10195,-2072,16,-88,-2,52,-3
10200,-2064,0,-72,-5,53,-2
10205,-2096,8,-72,-3,55,-2
10210,-2048,-40,-104,-3,59,1
10215,-2064,-24,-72,-5,59,-1
10220,-2088,-8,-80,-3,59,-2
10225,-2064,-24,-104,-1,59,-1
10230,-2064,-40,-88,-1,58,-1
10235,-2080,-24,-96,0,59,-1
10240,-2072,-16,-96,1,60,0
10245,-2080,-8,-88,2,60,-1
10250,-2080,-8,-128,2,61,-2
10255,-2080,-16,-96,3,61,-2
10260,-2104,-24,-80,3,61,-4
10265,-2048,-8,-96,2,58,-4
10270,-2056,8,-96,3,57,-6
10275,-2088,8,-120,3,57,-4
10280,-2064,-8,-96,3,58,-5
10285,-2064,-8,-80,5,59,-4
10290,-2064,-8,-80,6,60,-4
10295,-2080,-24,-112,6,61,-2
10300,-2072,-32,-88,7,62,-2
10305,-2056,-24,-56,7,63,-2
10310,-2048,-8,-88,6,66,0
10315,-2048,-24,-80,7,66,1
10320,-2064,-16,-96,6,66,3
10325,-2048,0,-80,6,67,4
10330,-2064,-8,-128,7,68,5
10335,-2048,24,-104,6,68,4
10340,-2088,16,-80,4,67,4
10345,-2088,8,-120,-2,67,3
10350,-2080,-16,-136,-5,67,1
10355,-2064,-16,-80,-9,66,2
10360,-2056,-8,-120,-12,66,0
10365,-2024,-8,-40,-13,64,0
10370,-2064,-40,-72,-14,64,-2
10375,-2080,-32,-72,-15,64,-3
10380,-2080,-8,-88,-16,63,-4
10385,-2104,-8,-80,-14,63,-4
10390,-2080,-8,-88,-10,62,-5
10395,-2064,-24,-104,-8,64,-4
10400,-2072,0,-88,-4,65,-4
10405,-2080,0,-80,-1,65,-2
10410,-2072,-16,-96,2,67,-2
10415,-2064,8,-72,6,68,-3
10420,-2072,-24,-80,7,66,-4
10425,-2080,-8,-88,7,65,-3
10430,-2056,0,-80,8,64,-3
10435,-2064,-24,-120,10,62,-4
10440,-2056,-24,-112,9,61,-5
10445,-2064,-8,-88,8,59,-5
10450,-2080,8,-80,8,56,-7
10455,-2064,-8,-72,7,54,-8
10460,-2080,16,-80,5,51,-7
10465,-2080,16,-64,4,50,-9
10470,-2064,-40,-112,3,50,-8
10475,-2056,-8,-88,1,51,-11
10480,-2072,0,-120,-2,50,-11
10485,-2096,24,-72,-3,49,-13
10490,-2088,-16,-104,-4,49,-13
10495,-2056,-8,-64,-6,47,-13
10500,-2064,-16,-104,-7,48,-12
10505,-2080,-16,-136,-6,47,-11
10510,-2064,-16,-80,-7,46,-12
10515,-2056,8,-104,-10,46,-12
10520,-2072,8,-80,-11,47,-12
10525,-2064,0,-88,-11,47,-12
10530,-2072,32,-40,-12,45,-13
10535,-2064,0,-96,-11,45,-12
10540,-2080,-24,-48,-12,47,-13
10545,-2048,0,-88,-14,47,-13
10550,-2064,0,-96,-15,46,-14
10555,-2056,-24,-96,-16,47,-13
10560,-2072,-16,-64,-16,49,-13
10565,-2048,-24,-40,-17,49,-12
10570,-2056,-32,-96,-16,49,-12
10575,-2080,0,-48,-16,50,-12
10580,-2080,8,-32,-16,52,-9
10585,-2072,-8,-56,-16,54,-9
10590,-2056,-16,-72,-17,55,-9
10595,-2056,-16,-64,-16,55,-6
10600,-2080,0,-72,-18,57,-5
10605,-2064,-32,-64,-19,58,-5
10610,-2064,-24,-88,-19,60,-5
10615,-2056,-32,-88,-22,61,-6
10620,-2072,-40,-56,-24,63,-5
10625,-2056,-32,-80,-24,63,-5
10630,-2048,-16,-80,-26,63,-6
10635,-2056,-16,-64,-29,66,-6
10640,-2072,8,-80,-31,66,-6
10645,-2056,-8,-112,-33,68,-4
10650,-2072,0,-56,-33,67,-6
10655,-2064,-8,-80,-36,68,-3
10660,-2064,-24,-64,-39,69,-3
10665,-2048,-16,-72,-42,71,-3
10670,-2072,-24,-64,-45,72,-2
10675,-2048,-8,-48,-47,72,0
10680,-2040,-32,-32,-48,74,1
10685,-2048,-16,-88,-49,74,1
10690,-2056,-16,-56,-48,73,2
10695,-2080,-16,-64,-50,71,3
10700,-2064,0,-104,-49,72,3
10705,-2056,-8,-96,-48,72,4
10710,-2080,0,-56,-46,72,2
10715,-2080,-8,-96,-45,72,2
10720,-2064,0,-96,-44,70,3
10725,-2064,-16,-104,-44,71,3
10730,-2056,-24,-88,-44,71,3
10735,-2064,-16,-64,-44,70,3
10740,-2064,32,-112,-46,70,2
10745,-2072,8,-72,-46,71,1
10750,-2088,0,-64,-46,72,1
10755,-2048,0,-88,-46,72,1
10760,-2064,-8,-72,-47,72,0
10765,-2072,-32,-72,-46,74,0
10770,-2088,0,-80,-49,74,0
10775,-2064,8,-64,-49,76,2
10780,-2064,-24,-80,-50,78,0
10785,-2080,-8,-96,-51,81,1
10790,-2072,0,-80,-49,82,0
10795,-2088,0,-80,-49,82,0
10800,-2096,8,-80,-48,85,-1
10805,-2072,-8,-72,-46,86,-1
10810,-2088,-16,-88,-45,86,0
10815,-2056,-24,-96,-43,88,-1
10820,-2064,0,-104,-40,87,-1
10825,-2072,-16,-56,-40,87,-1
10830,-2080,-16,-88,-38,88,-1
10835,-2080,0,-64,-37,89,-2
10840,-2080,-16,-104,-36,90,-2
10845,-2056,-16,-88,-35,91,-2
10850,-2072,16,-80,-34,91,-2
10855,-2064,0,-80,-34,92,0
10860,-2056,-8,-72,-33,90,-3
10865,-2072,-16,-80,-31,91,-2
10870,-2064,8,-80,-32,90,-2
10875,-2072,0,-88,-31,90,-2
10880,-2064,-32,-80,-32,89,-2
10885,-2080,-40,-80,-33,88,-3
10890,-2072,0,-96,-34,88,-2
10895,-2048,-48,-80,-35,88,-3
10900,-2080,0,-88,-36,88,-4
10905,-2072,-16,-88,-37,89,-4
10910,-2072,-16,-80,-37,90,-2
10915,-2072,8,-104,-37,92,-2
10920,-2072,-16,-120,-38,92,-3
10925,-2080,-24,-120,-37,92,-4
10930,-2056,-24,-88,-37,92,-2
10935,-2072,-8,-96,-37,92,-3
10940,-2072,-32,-88,-37,93,-3
10945,-2064,-32,-88,-37,91,-3
10950,-2072,-24,-72,-38,91,-2
10955,-2056,-40,-112,-39,91,0
10960,-2048,-24,-104,-39,91,-1
10965,-2072,-8,-88,-39,89,-1
10970,-2064,0,-104,-37,90,-1
10975,-2064,0,-96,-35,92,-1
10980,-2072,-16,-72,-35,91,-1
10985,-2072,-16,-88,-35,90,-2
10990,-2088,-32,-88,-35,90,-1
10995,-2088,-40,-104,-34,90,-1
11000,-2072,-16,-80,-33,90,-1
11005,-2048,-104,-56,-34,89,-2
11010,-2072,-8,-104,-34,91,-2
11015,-2056,-16,-96,-34,90,-1
11020,-2080,16,-104,-35,89,-3
11025,-2080,0,-112,-33,88,-3
11030,-2080,-16,-104,-33,89,-2
11035,-2080,24,-80,-34,89,-3
11040,-2064,-32,-96,-32,89,-2
11045,-2056,-32,-80,-32,89,-1
11050,-2072,0,-96,-33,90,-3
11055,-2064,0,-80,-33,89,-2
11060,-2056,-32,-120,-34,90,-3
11065,-2072,0,-104,-36,89,-2
11070,-2056,-8,-64,-36,90,-2
11075,-2080,8,-96,-38,90,-3
11080,-2048,-24,-104,-39,91,-4
11085,-2072,-8,-128,-40,91,-5
11090,-2072,-40,-64,-41,92,-4
11095,-2088,0,-96,-41,91,-4
11100,-2072,-24,-120,-40,94,-4
11105,-2064,-16,-96,-38,95,-3
11110,-2008,-16,-32,-36,95,0
11115,-2064,-24,-112,-32,96,1
11120,-2064,-8,-104,-29,97,2
11125,-2064,-8,-152,-25,96,2
11130,-2088,-8,-120,-22,94,3
11135,-2080,8,-112,-20,93,3
11140,-2080,-8,-112,-18,91,2
11145,-2064,16,-120,-17,88,0
11150,-2064,0,-112,-17,83,-2
11155,-2064,48,-136,-17,80,-3
11160,-2056,-24,-120,-16,78,-4
11165,-2080,-8,-120,-15,78,-6
11170,-2088,0,-112,-16,79,-6
11175,-2080,-24,-104,-16,80,-5
11180,-2064,-16,-88,-19,79,-7
11185,-2056,-16,-64,-21,82,-4
11190,-2072,0,-120,-24,81,-2
11195,-2064,-16,-104,-27,83,-2
11200,-2080,-32,-96,-30,85,-1
11205,-2056,-56,-120,-33,86,0
11210,-2056,0,-88,-33,89,2
11215,-2064,-40,-96,-34,92,4
11220,-2064,48,-144,-35,96,6
11225,-2072,8,-128,-34,96,6
11230,-2080,-16,-136,-33,99,8
11235,-2080,24,-120,-33,99,7
11240,-2056,-16,-96,-35,97,6
11245,-2072,0,-120,-36,96,5
11250,-2064,8,-112,-36,95,6
11255,-2072,-8,-96,-35,92,5
11260,-2056,-32,-96,-34,90,4
11265,-2088,32,-104,-32,88,4
11270,-2088,8,-120,-30,87,5
11275,-2072,-16,-80,-27,86,4
11280,-2072,0,-104,-24,86,3
11285,-2056,-8,-104,-23,85,5
11290,-2064,-8,-96,-20,86,4
11295,-2072,8,-112,-18,86,3
11300,-2072,16,-120,-17,87,2
11305,-2088,8,-104,-16,89,2
11310,-2072,8,-96,-15,89,1
11315,-2080,8,-128,-15,89,-1
11320,-2064,0,-104,-15,87,-2
11325,-2096,40,-168,-15,87,-4
11330,-2064,24,-136,-15,85,-4
11335,-2048,16,-112,-15,82,-5
11340,-2064,16,-104,-15,81,-7
11345,-2088,0,-112,-16,82,-8
11350,-2064,8,-112,-16,80,-8
11355,-2072,0,-120,-15,80,-8
11360,-2064,-24,-112,-17,81,-8
11365,-2048,-16,-120,-18,80,-8
11370,-2080,-8,-104,-19,79,-10
11375,-2056,-32,-96,-21,77,-10
11380,-2072,-8,-128,-22,77,-10
11385,-2072,-16,-128,-23,77,-10
11390,-2064,-8,-112,-23,75,-9
11395,-2056,-16,-152,-23,74,-10
11400,-2072,-8,-136,-23,74,-9
11405,-2080,-8,-128,-22,73,-9
11410,-2056,-8,-120,-21,73,-8
11415,-2056,0,-72,-19,73,-8
11420,-2096,8,-104,-19,74,-7
11425,-2072,-8,-120,-17,73,-9
11430,-2072,8,-128,-16,73,-8
11435,-2072,-32,-120,-16,72,-8
11440,-2064,-16,-136,-16,72,-8
11445,-2072,-8,-128,-15,71,-10
11450,-2072,-8,-128,-15,69,-9
11455,-2072,-24,-136,-15,69,-8
11460,-2056,-8,-104,-16,68,-8
11465,-2072,-16,-128,-15,66,-8
11470,-2080,-16,-128,-14,66,-7
11475,-2064,-8,-112,-15,65,-6
11480,-2064,-24,-88,-14,63,-5
11485,-2072,-24,-104,-14,63,-4
11490,-2056,-8,-136,-14,61,-4
11495,-2072,-8,-96,-14,60,-4
11500,-2064,-8,-136,-15,61,-5
11505,-2056,-16,-136,-15,60,-5
11510,-2072,-16,-104,-17,58,-6
11515,-2056,-24,-128,-16,58,-6
11520,-2064,-8,-112,-16,57,-6
11525,-2088,0,-88,-18,57,-7
11530,-2072,8,-120,-18,56,-6
11535,-2072,-40,-80,-18,55,-7
11540,-2064,-24,-104,-19,55,-4
11545,-2088,-40,-120,-17,54,-4
11550,-2088,0,-120,-17,55,-3
11555,-2056,-32,-128,-14,54,-3
11560,-2072,-24,-120,-13,54,-2
11565,-2056,-24,-120,-11,51,-2
11570,-2064,0,-104,-8,51,-1
11575,-2056,-24,-128,-6,51,0
11580,-2056,-8,-88,-5,50,0
11585,-2064,16,-120,-3,51,-1
11590,-2064,0,-120,-2,49,-1
11595,-2056,-24,-120,0,50,-1
11600,-2080,0,-104,0,49,-3
11605,-2072,-8,-136,0,50,-4
11610,-2056,-16,-112,1,49,-2
11615,-2056,-24,-112,1,49,-3
11620,-2072,-24,-104,0,47,-3
11625,-2048,-8,-96,0,48,-4
11630,-2072,16,-96,1,47,-4
11635,-2064,-8,-104,-2,45,-5
11640,-2056,-8,-80,-2,46,-4
11645,-2144,-24,-120,-4,47,-5
11650,-2096,-8,-96,-4,47,-5
11655,-2072,-8,-104,-3,47,-4
11660,-2056,-8,-104,-3,48,-4
11665,-2064,-32,-104,-3,50,-5
11670,-2072,-16,-80,-2,51,-5
11675,-2072,-16,-120,-1,52,-4
11680,-2056,-8,-120,0,53,-3
11685,-2088,0,-120,0,54,-5
11690,-2064,-8,-112,0,56,-4
11695,-2072,-16,-128,1,56,-4
11700,-2080,0,-104,1,56,-4
11705,-2080,-8,-104,0,56,-2
11710,-2064,-32,-88,-1,55,-2
11715,-2064,-8,-96,-1,55,-2
11720,-2064,-8,-120,-1,56,-3
11725,-2064,0,-88,-1,55,-2
11730,-2072,-24,-88,-2,54,-2
11735,-2072,-16,-72,-3,55,-3
11740,-2056,-8,-104,-3,54,-3
11745,-2048,-16,-112,-4,55,-4
11750,-2120,64,-128,-4,52,-5
11755,-2064,0,-72,-4,53,-3
11760,-2072,-8,-128,-3,53,-4
11765,-2088,-24,-96,-3,52,-4
11770,-2072,-8,-112,-4,51,-4
11775,-2072,-16,-112,-4,51,-4
11780,-2056,8,-96,-3,52,-4
11785,-2064,16,-112,-4,51,-4
11790,-2056,-24,-112,-4,52,-4
11795,-2072,-24,-56,-4,51,-4
11800,-2072,-8,-96,-3,51,-4
11805,-2064,-8,-104,-3,50,-5
11810,-2080,0,-104,-3,50,-4
11815,-2080,-16,-112,-2,50,-4
11820,-2064,-8,-120,-1,50,-6
11825,-2064,-16,-96,0,50,-5
11830,-2064,0,-88,0,48,-5
11835,-2072,0,-104,1,48,-4
11840,-2088,0,-104,0,49,-4
11845,-2064,-16,-96,0,50,-4
11850,-2056,-8,-112,0,51,-2
11855,-2064,-8,-96,0,53,-3
11860,-2112,-8,-112,1,54,-3
11865,-2056,-8,-112,0,55,-4
11870,-2088,8,-80,0,55,-4
11875,-2056,-16,-112,-2,55,-1
11880,-2056,0,-104,0,57,-3
11885,-2072,8,-128,-1,57,-3
11890,-2080,-8,-96,-1,56,-3
11895,-2096,8,-72,-2,56,-2
11900,-2056,-8,-72,0,57,-3
11905,-2064,-16,-96,1,58,-2
11910,-2072,-8,-104,1,57,-2
11915,-2072,-24,-88,3,56,-2
11920,-2056,-40,-104,3,55,-2
11925,-2080,0,-104,2,55,-1
11930,-2072,-8,-96,4,55,-2
11935,-2056,-24,-112,5,55,0
11940,-2064,0,-96,4,56,-2
11945,-2048,-16,-104,2,55,-1
11950,-2064,-8,-96,1,53,-1
11955,-2056,16,-104,1,53,-3
11960,-2072,-8,-88,0,54,-3
11965,-2064,16,-80,-2,55,-3
11970,-2080,-24,-72,-4,55,-3
11975,-2064,-40,-72,-2,55,-2
11980,-2056,0,-112,0,56,-2
11985,-2088,-16,-104,3,54,1
11990,-2056,-8,-104,5,55,2
11995,-2080,0,-96,8,55,1
12000,-2072,0,-96,10,55,0
12005,-2072,8,-96,13,54,1
12010,-2072,-16,-120,14,54,-1
12015,-2080,32,-112,14,52,-1
12020,-2064,8,-80,15,49,-1
12025,-2056,0,-96,16,47,-3
12030,-2056,-24,-80,18,45,-3
12035,-2064,-24,-104,19,43,-3
12040,-2080,-16,-64,20,41,-2
12045,-2080,0,-104,20,43,-3
12050,-2080,-32,-120,20,46,-1
12055,-2064,-40,-80,18,46,-2
12060,-2064,-16,-72,17,49,-2
12065,-2080,-16,-88,14,51,1
12070,-2056,-32,-96,12,51,3
12075,-2064,-40,-56,10,50,4
12080,-2088,8,-104,8,51,6
12085,-2064,8,-88,6,51,8
12090,-2072,0,-96,4,54,8
12095,-2064,-16,-96,4,55,10
12100,-2056,-16,-104,3,55,9
12105,-2072,-24,-104,0,55,7
12110,-2064,-24,-80,0,53,8
12115,-2080,16,-72,-1,51,6
12120,-2072,0,-112,-1,51,7
12125,-2072,8,-56,-3,48,5
12130,-2048,-16,-120,-2,48,5
12135,-2080,-16,-72,0,48,2
12140,-2080,24,-80,-1,46,2
12145,-2080,0,-64,0,46,3
12150,-2096,-32,-64,2,46,2
12155,-2056,-8,-64,3,47,1
12160,-2072,8,-96,4,48,2
12165,-2072,0,-72,5,52,2
12170,-2072,-8,-16,7,52,2
12175,-2080,-72,-64,8,54,0
12180,-2056,8,-104,10,55,0
12185,-2064,0,-72,11,55,-1
12190,-2072,-24,-80,12,55,-1
12195,-2080,0,-96,12,57,-2
12200,-2056,-8,-104,13,56,-3
12205,-2056,0,-88,12,56,-2
12210,-2056,-16,-112,12,55,-3
12215,-2064,0,-80,12,54,-4
12220,-2064,0,-64,12,53,-3
12225,-2064,16,-64,11,54,-4
12230,-2064,-24,-96,10,55,-5
12235,-2064,-24,-96,8,53,-5
12240,-2080,-16,-56,7,54,-6
12245,-2064,-8,-104,6,53,-5
12250,-2064,-24,-64,4,53,-6
12255,-2056,-40,-88,3,53,-5
12260,-2072,8,-64,2,53,-5
12265,-2080,32,-88,1,52,-4
12270,-2048,16,-56,1,53,-4
12275,-2056,-16,-80,2,53,-2
12280,-2080,8,-72,4,51,-2
12285,-2040,16,-88,5,51,-3
12290,-2088,8,-72,3,53,-4
12295,-2088,8,-96,4,53,-2
12300,-2072,-16,-96,4,55,-3
12305,-2080,-32,-72,0,55,-4
12310,-2080,0,-104,0,55,-5
12315,-2088,-32,-96,1,54,-7
12320,-2096,-8,-96,-2,54,-7
12325,-2048,0,-72,-3,54,-7
12330,-2064,-24,-80,-3,53,-10
12335,-2088,-8,-112,-2,53,-7
12340,-2048,-8,-88,-2,53,-6
12345,-2072,-32,-40,-2,52,-5
12350,-2072,-8,-88,-2,52,-4
12355,-2056,-24,-64,1,52,-3
12360,-2056,-24,-88,0,52,-2
12365,-2080,-8,-104,1,51,-1
12370,-2080,-8,-88,0,51,0
12375,-2048,-8,-72,2,50,-1
12380,-2064,-24,-80,1,49,-1
12385,-2064,-8,-104,1,50,-2
12390,-2040,-16,-32,1,50,-2
12395,-2080,8,-56,1,51,-2
12400,-2072,8,-112,0,51,-4
12405,-2080,0,-88,-1,51,-3
12410,-2064,8,-88,0,51,-5
12415,-2056,8,-72,2,52,-2
12420,-2088,-16,-64,3,51,-2
12425,-2080,-8,-80,2,50,-2
12430,-2064,-40,-56,3,51,-1
12435,-2056,-8,-40,3,49,-1
12440,-2064,-16,-80,5,49,-2
12445,-2088,16,-56,4,50,1
12450,-2088,8,-72,2,52,1
12455,-2080,-32,-72,5,53,0
12460,-2072,-24,-72,5,52,0
12465,-2080,-16,-56,6,52,0
12470,-2080,8,-56,5,53,1
12475,-2064,-8,-80,5,54,0
12480,-2048,8,-64,4,55,0
12485,-2080,0,-64,4,57,0
12490,-2072,0,-80,4,57,-2
12495,-2096,0,-88,4,58,-2
12500,-2032,24,-64,4,59,-2
12505,-2088,-16,-88,3,59,-3
12510,-2056,-24,-80,1,61,-3
12515,-2056,-8,-56,2,62,-4
12520,-2064,-8,-96,3,62,-3
12525,-2064,8,-72,0,64,-2
12530,-2080,0,-72,-1,63,-3
12535,-2064,8,-56,-2,66,-2
12540,-2064,32,-56,-3,65,-2
12545,-2064,8,-72,-4,65,-3
12550,-2064,-8,-64,-6,65,-3
12555,-2080,-8,-32,-6,66,-2
12560,-2080,-8,-80,-6,65,-1
12565,-2072,-8,-72,-5,65,-2
12570,-2072,8,-40,-4,67,-2
12575,-2080,-24,-64,-5,66,-3
12580,-2072,-8,-104,-5,66,-3
12585,-2072,-32,-56,-5,66,-3
12590,-2064,-8,-64,-6,67,-2
12595,-2072,0,-64,-7,66,-3
12600,-2072,0,-72,-7,67,-3
12605,-2056,-24,-88,-6,66,-4
12610,-2072,16,-56,-5,67,-3
12615,-2064,-8,-80,-5,68,-3
12620,-2056,-16,-48,-6,67,-4
12625,-2072,0,-40,-5,67,-4
12630,-2064,0,-104,-6,66,-2
12635,-2064,-8,-88,-7,66,-3
12640,-2080,8,-72,-7,67,-3
12645,-2064,8,-40,-7,65,-2
12650,-2064,-24,-72,-8,65,-2
12655,-2064,-32,-64,-8,65,-3
12660,-2056,-24,-80,-8,65,-4
12665,-2080,0,-96,-8,65,-4
12670,-2064,-8,-64,-8,66,-4
12675,-2056,-8,-64,-9,65,-4
12680,-2056,-32,-64,-11,65,-3
12685,-2048,-8,-80,-10,65,-4
12690,-2056,-16,-64,-10,66,-5
12695,-2072,8,-104,-10,65,-3
12700,-2072,-16,-80,-13,65,-3
12705,-2064,-16,-56,-13,66,-4
12710,-2064,-16,-56,-12,67,-4
12715,-2064,-8,-56,-11,68,-3
12720,-2080,8,-72,-11,69,-3
12725,-2072,8,-112,-10,70,-3
12730,-2056,-8,-64,-8,70,-1
12735,-2064,-24,-80,-9,70,-1
12740,-2080,8,-56,-6,70,-1
12745,-2056,-16,-96,-6,70,-3
12750,-2048,-8,-80,-6,70,-2
12755,-2072,-16,-40,-6,71,-2
12760,-2088,0,-56,-5,71,-3
12765,-2072,16,-40,-7,70,-2
12770,-2064,-8,-64,-7,70,-3
12775,-2088,-8,-80,-7,69,-4
12780,-2056,-16,-72,-7,70,-2
12785,-2048,-24,-104,-8,70,-1
12790,-2072,0,-88,-8,70,-2
12795,-2064,8,-56,-8,70,-2
12800,-2064,-16,-56,-8,71,-1
12805,-2072,0,-80,-9,71,-3
12810,-2072,-8,-64,-10,73,-3
12815,-2104,0,-96,-10,72,-3
12820,-2064,-16,-48,-10,72,-3
12825,-2064,-40,-48,-11,71,-3
12830,-2064,-24,-56,-13,70,-2
12835,-2048,-8,-72,-14,71,-3
12840,-2072,-8,-72,-16,71,-3
12845,-2056,-16,-88,-15,70,-3
12850,-2072,-16,-64,-16,73,-2
12855,-2064,-24,-56,-15,71,-2
12860,-2056,-16,-72,-13,73,-1
12865,-2048,8,-96,-12,74,2
12870,-2088,-8,-80,-10,73,1
12875,-2072,-8,-64,-9,74,1
12880,-2072,-8,-72,-7,73,-1
12885,-2080,0,-96,-6,72,-2
12890,-2064,8,-112,-6,72,-2
12895,-2080,16,-96,-5,69,-5
12900,-2072,-16,-80,-6,64,-5
12905,-2056,0,-80,-5,62,-7
12910,-2080,-8,-64,-3,60,-6
12915,-2096,16,-72,-3,59,-6
12920,-2056,8,-72,-2,59,-7
12925,-2064,-64,-112,-2,59,-7
12930,-2072,-16,-72,-4,62,-5
12935,-2064,-48,-56,-6,62,-4
12940,-2056,-56,-64,-6,65,-3
12945,-2080,-16,-72,-8,65,-1
12950,-2064,-16,-64,-8,65,1
12955,-2064,-32,-64,-7,66,3
12960,-2072,-8,-48,-6,69,6
12965,-2056,0,-96,-9,70,6
12970,-2072,-16,-80,-11,70,4
12975,-2088,0,-72,-13,69,6
12980,-2072,-16,-96,-17,67,5
12985,-2064,-16,-72,-22,65,4
12990,-2048,0,-80,-23,63,3
12995,-2048,-16,-88,-26,64,3
13000,-2072,8,-64,-28,65,2
13005,-2088,-24,-48,-28,65,2
13010,-2096,-24,-80,-26,66,1
13015,-2064,8,-40,-25,69,2
13020,-2080,-8,-48,-23,69,3
13025,-2056,0,-80,-21,72,2
13030,-2048,-24,-24,-20,76,3
13035,-2064,-24,-56,-19,79,3
13040,-2064,0,-32,-18,81,2
13045,-2064,8,-72,-16,82,1
13050,-2064,-16,-48,-18,83,2
13055,-2072,32,-72,-18,85,1
13060,-2048,-8,-80,-18,85,0
13065,-2064,0,-80,-17,84,-1
13070,-2080,24,-72,-16,84,-1
13075,-2056,32,-64,-14,83,-3
13080,-2088,16,-40,-15,83,-5
13085,-2064,8,-80,-16,83,-5
13090,-2080,16,-72,-17,83,-6
13095,-2056,8,-24,-18,83,-7
13100,-2056,-8,-64,-22,83,-9
13105,-2056,0,-104,-24,84,-9
13110,-2064,8,-56,-26,84,-9
13115,-2072,-8,-40,-29,82,-11
13120,-2080,-16,-64,-31,83,-10
13125,-2064,8,-72,-34,83,-10
13130,-2088,8,-32,-35,81,-11
13135,-2064,-8,-48,-38,82,-9
13140,-2096,-40,-128,-39,83,-11
13145,-2072,-8,-72,-39,85,-10
13150,-2088,-8,-80,-40,85,-10
13155,-2056,-24,-56,-40,87,-9
13160,-2088,-8,-56,-40,90,-8
13165,-2072,-40,-56,-39,88,-8
13170,-2072,0,-96,-38,88,-8
13175,-2064,-16,-56,-37,90,-9
13180,-2072,8,-80,-39,89,-8
13185,-2064,-8,-72,-39,89,-7
13190,-2080,-16,-56,-39,90,-8
13195,-2080,-24,-80,-39,89,-8
13200,-2072,0,-80,-38,90,-8
13205,-2080,-32,-88,-36,91,-7
13210,-2056,-32,-72,-35,89,-8
13215,-2072,-16,-72,-33,89,-8
13220,-2072,-40,-72,-33,89,-6
13225,-2072,0,-64,-31,89,-5
13230,-2072,-32,-40,-31,89,-2
13235,-2064,-32,-72,-32,89,-3
13240,-2064,-40,-104,-33,91,-3
13245,-2064,-32,-104,-36,92,-2
13250,-2064,-8,-80,-36,91,-4
13255,-2056,-40,-96,-38,89,-5
13260,-2064,-8,-72,-37,89,-4
13265,-2072,8,-80,-37,88,-4
13270,-2064,-32,-120,-37,89,-4
13275,-2080,-8,-96,-37,87,-5
13280,-2056,-32,-96,-36,87,-5
13285,-2072,0,-104,-36,86,-5
13290,-2080,0,-112,-36,85,-3
13295,-2080,0,-80,-36,85,-4
13300,-2056,0,-72,-36,84,-4
13305,-2080,8,-80,-35,85,-4
13310,-2080,8,-56,-35,83,-2
13315,-2080,-8,-88,-34,84,-3
13320,-2072,-32,-96,-35,85,-2
13325,-2080,0,-72,-37,85,-1
13330,-2064,-8,-96,-37,84,-1
13335,-2088,-8,-72,-38,87,0
13340,-2080,32,-56,-38,88,1
13345,-2088,-8,-96,-39,88,-1
13350,-2080,-8,-104,-38,90,-1
13355,-2064,-8,-88,-38,92,-1
13360,-2080,-8,-88,-37,92,-1
13365,-2048,-16,-72,-35,94,-2
13370,-2072,-24,-96,-36,95,-3
13375,-2056,0,-72,-36,96,-2
13380,-2072,0,-88,-36,97,-4
13385,-2064,-8,-64,-37,99,-4
13390,-2072,8,-80,-39,98,-4
13395,-2056,-24,-64,-38,99,-4
13400,-2064,-8,-40,-38,99,-4
13405,-2072,-16,-96,-38,98,-5
13410,-2064,-8,-72,-39,99,-5
13415,-2064,32,-96,-38,98,-5
13420,-2048,-8,-88,-39,98,-5
13425,-2072,0,-72,-40,98,-4
13430,-2072,16,-64,-42,99,-4
13435,-2072,-16,-88,-43,99,-4
13440,-2048,-24,-88,-43,100,-3
13445,-2072,8,-96,-42,103,-6
13450,-2072,0,-72,-41,101,-5
13455,-2080,-16,-96,-39,101,-4
13460,-2072,0,-104,-38,100,-5
13465,-2056,-8,-96,-39,99,-5
13470,-2056,-8,-104,-39,99,-3
13475,-2072,24,-96,-39,99,-3
13480,-2096,0,-88,-38,100,-4
13485,-2064,-24,-96,-38,99,-4
13490,-2064,0,-80,-39,97,-5
13495,-2080,-8,-96,-36,97,-4
13500,-2072,-16,-112,-36,99,-4
13505,-2056,24,-104,-38,98,-5
13510,-2056,-8,-104,-38,98,-5
13515,-2056,-8,-88,-38,98,-5
13520,-2088,24,-72,-39,95,-6
13525,-2072,-8,-112,-37,95,-5
13530,-2072,0,-88,-35,94,-6
13535,-2056,-16,-96,-34,94,-5
13540,-2048,-16,-96,-34,93,-5
13545,-2056,0,-72,-34,93,-5
13550,-2080,0,-120,-34,92,-5
13555,-2064,-24,-112,-35,91,-4
13560,-2056,16,-88,-34,90,-4
13565,-2040,16,-80,-33,89,-4
13570,-2048,-8,-88,-34,89,-4
13575,-2064,-16,-128,-36,89,-5
13580,-2080,-8,-112,-35,90,-6
13585,-2064,-16,-120,-35,90,-7
13590,-2064,-16,-96,-35,89,-6
13595,-2080,-16,-80,-35,88,-7
13600,-2064,-8,-112,-33,87,-6
13605,-2056,-16,-120,-33,87,-7
13610,-2064,-32,-80,-33,87,-6
13615,-2072,0,-112,-32,87,-6
13620,-2064,-8,-80,-31,87,-5
13625,-2080,0,-104,-30,86,-4
13630,-2080,0,-112,-29,87,-4
13635,-2072,-16,-120,-28,85,-4
13640,-2072,8,-88,-28,85,-4
13645,-2064,-16,-104,-28,84,-4
13650,-2056,-16,-96,-28,82,-5
13655,-2072,-16,-88,-30,83,-6
13660,-2064,-24,-104,-30,82,-5
13665,-2088,-16,-96,-30,82,-5
13670,-2080,-80,-72,-31,83,-5
13675,-2072,-8,-96,-29,83,-5
13680,-2056,-16,-104,-26,84,-3
13685,-2072,-16,-104,-22,83,-1
13690,-2064,-8,-112,-17,82,-2
13695,-2080,-8,-96,-13,82,0
13700,-2072,0,-144,-9,82,-1
13705,-2064,-8,-128,-7,81,-2
13710,-2080,8,-120,-5,80,-2
13715,-2072,24,-120,-7,79,-3
13720,-2064,-8,-120,-8,78,-6
13725,-2056,8,-104,-8,76,-6
13730,-2048,-16,-104,-8,75,-7
13735,-2064,-16,-120,-8,75,-7
13740,-2064,-8,-72,-8,73,-7
13745,-2064,-8,-96,-8,73,-7
13750,-2064,8,-104,-11,74,-6
13755,-2072,-24,-96,-13,75,-5
13760,-2056,-32,-88,-17,77,-3
13765,-2072,-8,-56,-22,77,-2
13770,-2064,-16,-96,-24,80,-1
13775,-2064,0,-72,-27,84,0
13780,-2128,-80,-64,-29,87,2
13785,-2056,-48,-80,-29,90,4
13790,-2056,-8,-136,-28,93,4
13795,-2064,-8,-120,-28,95,5
13800,-2064,16,-112,-27,94,5
13805,-2072,8,-112,-27,95,7
13810,-2056,-8,-128,-26,94,6
13815,-2096,40,-136,-27,93,6
13820,-2056,-8,-128,-27,91,6
13825,-2072,16,-112,-25,89,6
13830,-2056,-16,-120,-24,88,5
13835,-2096,32,-112,-24,86,4
13840,-2072,16,-136,-23,83,5
13845,-2072,8,-128,-22,80,4
13850,-2056,-24,-128,-19,81,3
13855,-2072,8,-104,-17,80,2
13860,-2072,-8,-120,-13,80,2
13865,-2064,0,-96,-9,79,2
13870,-2056,-24,-112,-6,77,1
13875,-2080,16,-128,-4,78,-1
13880,-2080,0,-120,-1,76,-1
13885,-2056,-16,-112,0,74,-2
13890,-2064,0,-112,1,73,-4
13895,-2048,24,-120,2,71,-5
13900,-2056,16,-128,0,70,-6
13905,-2088,16,-128,-2,69,-6
13910,-2072,-8,-144,-4,67,-7
13915,-2056,0,-112,-5,67,-8
13920,-2072,0,-120,-7,66,-9
13925,-2064,-16,-112,-10,64,-10
13930,-2056,-8,-112,-11,63,-10
13935,-2056,-16,-144,-13,62,-10
13940,-2056,0,-128,-15,61,-11
13945,-2056,-32,-144,-15,60,-10
13950,-2048,8,-80,-16,59,-9
13955,-2064,-16,-104,-16,57,-10
13960,-2072,-8,-88,-16,56,-10
13965,-2064,0,-72,-17,54,-9
13970,-2048,-24,-104,-17,54,-9
13975,-2064,-24,-136,-15,54,-7
13980,-2056,-24,-120,-14,51,-8
13985,-2080,-24,-112,-12,51,-8
13990,-2088,-40,-104,-11,50,-6
13995,-2088,-16,-96,-11,52,-5
14000,-2064,-8,-120,-10,52,-6
14005,-2048,-8,-136,-10,51,-6
14010,-2064,-16,-120,-9,52,-5
14015,-2064,-16,-120,-7,51,-5
14020,-2064,-8,-120,-6,50,-6
14025,-2048,-8,-112,-6,49,-8
14030,-2072,-24,-128,-7,48,-7
14035,-2104,-16,-112,-6,46,-6
14040,-2080,-32,-88,-7,46,-3
14045,-2056,-24,-104,-7,45,-3
14050,-2064,-16,-120,-8,44,-3
14055,-2056,-24,-112,-7,43,-3
14060,-2064,-8,-80,-6,43,-3
14065,-2064,8,-104,-5,43,-1
14070,-2056,-16,-136,-3,41,-2
14075,-2064,-8,-136,-3,43,-2
14080,-2064,24,-128,-3,41,-2
14085,-2072,8,-88,-3,43,-1
14090,-2064,-24,-80,-3,43,-4
14095,-2056,0,-88,-2,44,-5
14100,-2088,8,-104,-2,45,-4
14105,-2056,-24,-128,-2,44,-6
14110,-2080,-8,-104,-4,45,-5
14115,-2056,-16,-80,-3,44,-5
14120,-2056,-16,-88,-5,45,-4
14125,-2064,-8,-80,-6,46,-2
14130,-2080,-8,-128,-6,45,-2
14135,-2048,0,-56,-4,47,-2
14140,-2088,-8,-96,-3,47,-2
14145,-2072,0,-104,-2,48,0
14150,-2080,8,-112,0,49,1
14155,-2064,-8,-112,2,51,0
14160,-2064,16,-96,4,51,1
14165,-2064,-16,-88,5,52,1
14170,-2088,0,-112,7,54,0
14175,-2064,16,-112,7,55,-2
14180,-2056,-8,-96,7,57,-1
14185,-2080,0,-96,6,59,-2
14190,-2064,0,-104,6,59,-4
14195,-2064,0,-88,4,59,-4
14200,-2064,-24,-112,3,59,-4
14205,-2080,24,-120,2,60,-5
14210,-2056,-8,-72,0,61,-5
14215,-2064,-8,-96,-1,62,-3
14220,-2072,-16,-64,-1,64,-3
14225,-2072,-16,-104,-3,64,-5
14230,-2072,-8,-96,-4,66,-4
14235,-2056,-8,-88,-4,65,-3
14240,-2064,16,-96,-3,67,-3
14245,-2080,-16,-80,-5,66,-3
14250,-2080,-8,-88,-5,66,-5
14255,-2080,-24,-104,-5,66,-5
14260,-2064,0,-96,-2,66,-4
14265,-2064,-8,-80,-2,66,-4
14270,-2064,16,-120,-2,63,-3
14275,-2072,0,-72,-1,60,-3
14280,-2072,-16,-88,-1,59,-4
14285,-2080,16,-88,-1,56,-4
14290,-2072,0,-104,0,55,-3
14295,-2064,0,-104,0,56,-4
14300,-2080,-8,-96,2,55,-5
14305,-2072,-24,-80,2,53,-4
14310,-2032,0,-40,1,53,-6
14315,-2080,0,-80,1,53,-6
14320,-2072,-16,-112,1,53,-5
14325,-2072,-24,-112,1,52,-6
14330,-2080,0,-96,2,52,-6
14335,-2072,-8,-112,2,52,-5
14340,-2080,-8,-88,1,51,-6
14345,-2088,8,-104,1,49,-5
14350,-2072,-24,-72,3,48,-5
14355,-2080,-8,-80,2,47,-5
14360,-2064,-16,-88,4,47,-4
14365,-2080,-24,-80,5,47,-4
14370,-2096,-24,-88,5,48,-5
14375,-2064,-16,-112,6,49,-3
14380,-2080,0,-80,7,48,-2
14385,-2080,0,-104,8,48,-3
14390,-2048,-16,-80,6,49,-2
14395,-2064,0,-80,6,50,-2
14400,-2064,24,-88,5,51,-3
14405,-2064,-8,-64,2,50,-3
14410,-2064,-8,-96,2,50,-3
14415,-2080,0,-80,0,52,-3
14420,-2104,0,-80,-1,50,-3
14425,-2056,8,-104,-3,51,-3
14430,-2064,-32,-88,-1,51,-2
14435,-2072,8,-88,-1,53,-3
14440,-2080,-8,-64,-2,56,-1
14445,-2072,-16,-64,1,56,-2
14450,-2088,-16,-104,3,56,-2
14455,-2080,0,-88,2,57,-2
14460,-2064,8,-88,1,56,0
14465,-2064,0,-88,1,58,0
14470,-2080,-16,-88,-3,57,-1
14475,-2080,-16,-72,-4,58,-2
14480,-2072,-8,-64,-6,57,-1
14485,-2064,-40,-88,-7,59,-4
14490,-2064,-24,-96,-5,60,-2
14495,-2048,-8,-104,-4,61,-2
14500,-2080,-8,-80,-3,62,-1
14505,-2064,-16,-104,0,63,-3
14510,-2056,-24,-120,2,63,0
14515,-2072,-16,-72,4,63,2
14520,-2072,0,-104,6,62,0
14525,-2072,8,-104,9,60,1
14530,-2072,-8,-80,12,59,0
14535,-2072,0,-88,13,59,-1
14540,-2096,24,-96,14,57,-3
14545,-2072,16,-72,14,57,-1
14550,-2056,-24,-96,14,55,-3
14555,-2080,-24,-104,17,54,-5
14560,-2056,-32,-104,18,52,-5
14565,-2056,-16,-80,18,50,-4
14570,-2064,-24,-80,16,50,-4
14575,-2064,-24,-80,14,51,-4
14580,-2056,-24,-72,10,51,-3
14585,-2056,-24,-72,7,53,-2
14590,-2048,-24,-64,4,55,0
14595,-2072,-16,-40,1,57,1
14600,-2056,0,-64,1,58,3
14605,-2056,-16,-96,0,61,5
14610,-2064,16,-80,-1,61,4
14615,-2080,0,-80,-1,63,8
14620,-2072,8,-104,-2,64,6
14625,-2104,-16,-80,-4,66,7
14630,-2088,-8,-104,-6,65,7
14635,-2080,24,-104,-4,63,6
14640,-2064,-16,-104,-4,61,6
14645,-2080,-16,-88,-3,59,6
14650,-2096,-16,-112,-3,57,5
14655,-2064,0,-64,-3,55,4
14660,-2056,40,-96,-3,54,3
14665,-2056,0,-88,-3,54,4
14670,-2064,-8,-72,0,54,2
14675,-2064,-24,-80,2,54,2
14680,-2072,0,-88,3,55,2
14685,-2072,16,-64,6,56,1
14690,-2080,-16,-64,6,58,0
14695,-2080,-8,-72,8,57,0
14700,-2064,-8,-96,10,58,-1
14705,-2056,32,-88,12,60,-3
14710,-2064,-8,-104,12,59,-3
14715,-2064,24,-80,13,58,-3
14720,-2040,8,-88,12,58,-2
14725,-2072,-24,-64,12,57,-4
14730,-2072,16,-72,10,57,-5
14735,-2080,-16,-112,7,57,-5
14740,-2064,0,-64,8,57,-4
14745,-2064,-16,-104,6,58,-5
14750,-2072,-8,-48,5,58,-4
14755,-2072,-16,-48,5,60,-5
14760,-2064,8,-56,2,58,-5
14765,-2096,8,-88,2,59,-7
14770,-2088,40,-88,0,59,-6
14775,-2064,0,-96,-3,60,-7
14780,-2072,16,-80,-3,59,-7
14785,-2064,0,-80,-3,60,-6
14790,-2072,-16,-88,-3,60,-6
14795,-2080,-8,-64,-4,58,-4
14800,-2056,-24,-88,-5,57,-5
14805,-2056,-8,-80,-5,56,-4
14810,-2096,-8,-64,-6,56,-4
14815,-2072,-16,-56,-7,56,-3
14820,-2072,24,-64,-7,57,-3
14825,-2080,-8,-40,-6,57,-3
14830,-2064,-24,-72,-6,58,-5
14835,-2048,-16,-64,-6,56,-6
14840,-2064,-16,-88,-6,57,-7
14845,-2064,-32,-72,-5,56,-6
14850,-2096,16,-104,-3,56,-5
14855,-2072,-8,-80,-4,56,-6
14860,-2064,-16,-80,-4,55,-5
14865,-2072,-24,-32,-2,56,-4
14870,-2096,16,-80,-3,56,-5
14875,-2064,-16,-56,-3,55,-2
14880,-2064,-16,-40,-2,54,-3
14885,-2064,16,-56,-1,53,-2
14890,-2088,-16,-104,-1,53,0
14895,-2088,-8,-72,-1,53,-2
14900,-2056,-24,-88,-2,55,-1
14905,-2056,-8,-72,-2,54,-2
14910,-2072,-8,-96,1,55,-3
14915,-2072,8,-80,3,55,-3
14920,-2064,-16,-104,3,55,-2
14925,-2056,-8,-88,2,56,-3
14930,-2080,-8,-104,2,54,-2
14935,-2072,-16,-64,-1,54,-2
14940,-2080,24,-56,0,54,-4
14945,-2064,8,-72,0,55,-4
14950,-2056,16,-56,1,56,-5
14955,-2056,-8,-88,2,55,-5
14960,-2056,-8,-40,3,56,-2
14965,-2072,-8,-64,4,56,-2
14970,-2088,0,-104,3,55,-2
14975,-2064,-8,-88,4,54,1
14980,-2072,-8,-88,4,55,0
14985,-2064,-8,-64,3,55,1
14990,-2072,16,-64,3,56,2
14995,-2072,24,-72,6,55,2
