timestamp,accel_x,accel_y,accel_z,gyro_x,gyro_y,gyro_z
0,-8,-1984,80,77,15,-6
5,-16,-1992,96,75,15,-7
10,0,-2000,88,73,13,-8
15,0,-1992,96,73,14,-7
20,-16,-1984,40,72,13,-7
25,0,-1968,104,73,12,-6
30,0,-1976,88,75,12,-7
35,8,-1992,96,76,13,-8
40,-16,-1984,88,76,11,-8
45,0,-1984,72,77,12,-10
50,0,-1984,80,78,13,-9
55,-8,-1984,72,80,12,-9
60,0,-1992,72,78,12,-9
65,-8,-1984,80,79,12,-9
70,0,-1976,64,78,12,-10
75,0,-1976,96,76,13,-11
80,-16,-1976,80,72,13,-10
85,-16,-1976,96,70,12,-12
90,0,-1976,72,69,13,-13
95,8,-1992,96,68,13,-14
100,8,-2000,64,68,13,-14
105,0,-1984,72,68,12,-16
110,-8,-2000,56,67,12,-17
115,-24,-1976,56,67,12,-16
120,0,-1984,88,67,12,-15
125,-8,-1976,64,67,11,-14
130,-24,-1952,40,65,10,-14
135,-80,-1936,88,64,11,-14
140,80,-2016,200,64,11,-16
145,-16,-2000,32,63,11,-15
150,-48,-1976,208,64,12,-16
155,0,-1992,96,65,12,-16
160,-40,-1968,80,65,11,-14
165,-24,-1976,104,65,12,-15
170,-24,-1968,96,66,12,-16
175,-24,-1984,88,64,11,-14
180,0,-2008,72,64,12,-14
185,0,-2008,88,65,12,-15
190,-16,-1968,104,63,14,-13
195,0,-1984,96,62,14,-14
200,-40,-1976,80,61,14,-16
205,-24,-1968,88,58,14,-13
210,-24,-1952,72,54,15,-14
215,-8,-1984,88,50,15,-14
220,-8,-1976,96,46,16,-15
225,0,-1984,80,44,15,-13
230,0,-1976,64,42,15,-14
235,-32,-1976,96,41,15,-14
240,0,-1984,64,39,14,-14
245,-16,-2000,96,38,14,-15
250,-16,-1976,80,38,14,-14
255,-16,-1992,96,38,15,-13
260,-16,-2000,96,38,14,-13
265,8,-2000,64,37,14,-14
270,-24,-1952,80,39,14,-13
275,-24,-1976,104,40,14,-12
280,0,-2008,88,41,14,-12
285,-8,-1984,88,43,15,-13
290,8,-2000,96,45,14,-11
295,-16,-2008,112,48,12,-12
300,0,-1984,72,51,11,-10
305,-8,-2008,120,53,12,-11
310,0,-1992,64,55,13,-10
315,0,-1992,88,58,13,-11
320,0,-1984,80,58,13,-12
325,-8,-1960,104,61,13,-11
330,-8,-2008,64,62,13,-11
335,0,-1992,72,63,13,-10
340,-16,-1984,72,62,14,-12
345,-32,-1976,104,62,15,-11
350,0,-1984,104,62,16,-11
355,-32,-1976,80,63,15,-12
360,-16,-1984,88,61,14,-12
365,-8,-1984,80,60,15,-11
370,-16,-1984,88,59,14,-14
375,-16,-1984,40,56,16,-13
380,-16,-1984,104,51,18,-14
385,-32,-1984,88,50,17,-13
390,-16,-1984,80,46,18,-13
395,-24,-1992,40,44,17,-12
400,-16,-1992,96,41,17,-12
405,0,-2000,64,39,17,-11
410,-8,-1976,80,36,17,-13
415,0,-1976,72,35,16,-12
420,-8,-1984,80,34,15,-12
425,-8,-2000,56,32,16,-11
430,-8,-1984,88,32,15,-9
435,-32,-1984,64,31,15,-9
440,0,-2008,72,32,16,-11
445,-16,-2008,88,34,17,-11
450,-32,-1992,72,37,17,-13
455,0,-2008,56,38,17,-13
460,-40,-1992,88,41,17,-16
465,0,-2000,80,45,17,-14
470,-8,-1992,64,49,18,-13
475,-16,-2008,56,53,18,-13
480,0,-1984,48,56,19,-14
485,0,-1992,80,57,18,-14
490,-16,-1984,48,58,19,-13
495,-24,-1984,56,59,19,-14
500,-16,-1976,32,57,19,-14
505,-32,-1968,64,54,19,-14
510,-8,-1968,56,53,19,-14
515,-16,-1992,80,53,20,-13
520,-8,-1976,88,55,22,-14
525,-16,-1984,88,54,22,-13
530,-24,-1984,96,56,22,-14
535,-8,-1984,96,57,21,-15
540,-24,-1984,80,59,20,-15
545,-48,-1992,80,59,21,-15
550,0,-1984,120,60,19,-16
555,0,-1976,104,59,19,-16
560,-24,-1968,88,57,18,-18
565,0,-2000,80,55,17,-17
570,-8,-1984,80,52,16,-18
575,-32,-1968,104,48,15,-17
580,-8,-1976,96,47,14,-17
585,-24,-1984,72,44,14,-16
590,0,-1984,96,43,14,-17
595,-8,-1984,72,40,14,-15
600,-40,-1984,88,39,14,-15
605,0,-1976,72,38,12,-16
610,-24,-1952,80,36,12,-15
615,-16,-1992,80,34,11,-15
620,-8,-1992,80,32,10,-17
625,-16,-1992,80,31,9,-16
630,0,-1976,48,29,10,-17
635,0,-1992,80,29,10,-17
640,-16,-1992,56,28,11,-17
645,0,-1960,72,28,11,-16
650,0,-2008,64,28,11,-16
655,0,-1992,56,27,11,-17
660,-8,-1976,72,28,12,-17
665,-32,-1976,56,28,13,-15
670,-16,-1976,88,27,12,-15
675,-24,-1960,80,27,13,-15
680,0,-1992,72,27,13,-16
685,-16,-1968,88,28,12,-16
690,0,-2000,80,29,11,-16
695,0,-1984,80,29,11,-15
700,0,-1968,64,32,13,-14
705,8,-1992,72,33,13,-14
710,0,-1992,56,35,11,-14
715,-16,-1976,88,36,11,-12
720,-8,-1984,88,36,10,-13
725,-16,-2008,72,36,10,-11
730,0,-1968,64,36,9,-11
735,-8,-1984,104,37,10,-12
740,-8,-1992,48,36,11,-10
745,0,-2000,72,35,10,-10
750,0,-1992,112,33,10,-12
755,16,-1968,72,32,10,-12
760,-40,-1968,80,30,8,-11
765,-8,-1968,104,29,9,-10
770,0,-2008,72,28,10,-11
775,-8,-2000,72,27,10,-12
780,0,-1992,80,25,11,-10
785,-32,-1944,112,25,10,-8
790,-24,-1976,96,25,11,-10
795,-8,-2008,64,26,11,-10
800,0,-1984,64,27,12,-11
805,0,-2000,72,27,11,-10
810,0,-2000,56,29,10,-9
815,0,-1968,64,29,12,-8
820,0,-1976,80,30,12,-9
825,-24,-1952,72,30,11,-8
830,0,-1992,56,32,11,-7
835,0,-2000,64,33,10,-5
840,16,-1984,88,33,11,-7
845,0,-2000,64,35,12,-8
850,0,-2008,72,36,12,-5
855,0,-2000,96,38,11,-6
860,-16,-1968,64,38,11,-7
865,-32,-1976,32,40,9,-8
870,-16,-1968,80,42,10,-6
875,-32,-1968,40,44,10,-6
880,0,-1984,64,44,10,-5
885,0,-1984,80,45,12,-6
890,0,-1992,32,46,12,-6
895,-8,-2000,80,47,13,-5
900,0,-1976,72,49,13,-7
905,0,-1976,48,51,14,-7
910,0,-2008,72,53,13,-7
915,-24,-1984,64,54,15,-8
920,-24,-1952,32,56,16,-6
925,0,-1992,80,59,16,-6
930,-24,-1976,80,61,15,-6
935,0,-2008,48,64,15,-6
940,-40,-1992,40,66,15,-7
945,0,-1984,64,67,14,-7
950,-40,-1984,72,70,14,-8
955,-8,-1976,56,72,12,-7
960,-8,-1976,80,74,13,-8
965,-16,-1984,48,74,13,-9
970,8,-1992,80,73,12,-10
975,0,-1976,88,74,14,-12
980,8,-2016,40,75,14,-9
985,-24,-1984,72,76,15,-8
990,0,-1976,80,77,14,-7
995,0,-1992,64,77,14,-5
1000,0,-1984,48,77,15,-5
1005,-8,-1976,88,77,15,-5
1010,-16,-1984,64,76,15,-5
1015,24,-1984,64,74,15,-5
1020,0,-1960,80,75,14,-5
1025,0,-1968,72,73,15,-6
1030,0,-2000,88,73,14,-6
1035,-32,-1984,72,73,16,-5
1040,-16,-1984,64,75,15,-6
1045,0,-2008,40,77,16,-8
1050,-24,-1984,80,80,16,-9
1055,0,-2000,88,81,15,-7
1060,-16,-1992,56,85,14,-7
1065,8,-1984,56,87,14,-8
1070,0,-1992,56,90,13,-7
1075,-8,-2000,64,93,13,-7
1080,-16,-2000,72,92,13,-7
1085,-16,-1984,56,92,13,-7
1090,-16,-1968,88,92,11,-8
1095,8,-1992,96,93,12,-8
1100,0,-1976,64,95,12,-7
1105,-8,-2008,88,98,10,-9
1110,-24,-1992,96,102,11,-8
1115,-8,-1976,80,105,11,-10
1120,-32,-2000,64,110,11,-11
1125,-8,-1976,80,113,12,-11
1130,-16,-2000,88,119,13,-12
1135,0,-1976,88,122,13,-12
1140,-32,-1984,80,126,14,-14
1145,-32,-2008,80,129,15,-13
1150,-8,-1984,72,132,15,-14
1155,0,-1960,104,131,15,-13
1160,-16,-1960,112,129,15,-13
1165,-8,-1984,112,126,16,-13
1170,0,-1960,128,122,15,-12
1175,0,-1944,72,116,16,-12
1180,-24,-1976,112,111,15,-11
1185,-16,-1976,160,107,15,-9
1190,0,-2000,104,100,14,-9
1195,8,-1968,96,93,16,-8
1200,-16,-1960,96,87,14,-7
1205,-16,-1984,112,81,14,-5
1210,0,-2000,104,78,13,-6
1215,-16,-1952,112,75,12,-4
1220,0,-1992,88,73,13,-3
1225,0,-1992,136,72,13,-1
1230,-8,-1992,88,73,12,-1
1235,-8,-2000,80,73,12,0
1240,0,-1984,96,73,10,-2
1245,-8,-2000,96,78,11,0
1250,0,-1968,96,82,11,2
1255,0,-2008,112,87,12,1
1260,-24,-1976,104,89,13,2
1265,-16,-2000,80,91,12,2
1270,-16,-2000,112,92,13,3
1275,0,-2008,136,94,14,2
1280,-24,-1984,104,94,14,2
1285,0,-1992,88,96,14,2
1290,-24,-1976,120,96,14,3
1295,-8,-2008,128,97,14,4
1300,-16,-1984,128,96,14,2
1305,8,-1960,112,95,14,1
1310,-8,-1968,112,92,15,3
1315,-16,-1960,112,89,16,1
1320,-16,-1968,104,85,17,2
1325,-24,-1976,128,83,17,1
1330,-16,-1960,96,80,17,2
1335,-8,-1968,104,78,17,0
1340,-8,-1984,112,75,16,-1
1345,-16,-1976,104,73,17,0
1350,-24,-1992,120,71,17,-1
1355,-32,-1984,112,70,18,-2
1360,-16,-2000,120,69,19,-3
1365,0,-1968,128,70,18,-3
1370,-48,-1976,112,69,18,-2
1375,0,-1976,120,68,18,-3
1380,-24,-1984,120,68,17,-3
1385,-32,-1976,128,68,17,-2
1390,0,-2000,120,67,18,-2
1395,-8,-1976,120,67,18,-4
1400,-32,-2000,128,67,17,-4
1405,8,-2016,160,67,16,-6
1410,-48,-1960,120,67,15,-4
1415,-24,-1984,104,68,16,-5
1420,0,-2016,128,68,17,-5
1425,-8,-1976,120,67,16,-4
1430,-16,-1984,160,68,17,-3
1435,-8,-1968,120,67,14,-5
1440,0,-2000,136,65,17,-5
1445,-8,-1992,120,64,16,-5
1450,0,-1984,128,62,15,-6
1455,0,-1992,144,62,16,-5
1460,-8,-1952,112,62,16,-4
1465,-32,-1984,136,62,16,-5
1470,-32,-1968,112,62,15,-4
1475,-8,-1984,128,63,16,-4
1480,-8,-2000,120,64,15,-6
1485,-40,-1976,120,65,14,-5
1490,0,-1976,104,66,15,-5
1495,-8,-1984,128,67,16,-5
1500,-48,-1976,112,67,14,-6
1505,-8,-1976,128,68,14,-7
1510,-8,-1976,104,67,15,-8
1515,-24,-1992,104,68,13,-7
1520,-24,-1984,96,68,13,-6
1525,-8,-1984,96,68,14,-7
1530,-40,-1968,96,68,13,-7
1535,-32,-1976,104,67,13,-10
1540,-40,-1976,88,67,12,-8
1545,-16,-1992,120,65,12,-8
1550,-32,-1976,120,65,11,-9
1555,-16,-1976,128,64,11,-10
1560,-56,-1992,112,65,13,-12
1565,-32,-1968,136,66,11,-12
1570,-16,-1968,96,66,10,-12
1575,-48,-1960,104,65,10,-11
1580,-24,-1968,88,68,11,-10
1585,-24,-1976,104,67,11,-10
1590,-40,-1984,104,69,9,-12
1595,-16,-1968,96,68,10,-10
1600,-8,-1976,96,65,10,-12
1605,-16,-1984,144,64,9,-10
1610,-48,-1976,120,62,9,-10
1615,-8,-1976,112,60,10,-10
1620,-16,-1960,120,61,10,-10
1625,-16,-2000,144,60,8,-12
1630,0,-2000,128,61,10,-12
1635,-32,-2000,136,63,11,-11
1640,-40,-1992,136,65,11,-10
1645,0,-2016,128,67,11,-10
1650,-24,-1960,120,70,11,-9
1655,-16,-1992,152,72,11,-8
1660,0,-2000,120,73,10,-8
1665,-8,-2008,128,72,11,-9
1670,-32,-1984,128,70,11,-9
1675,-40,-1968,104,67,11,-8
1680,-8,-1968,136,66,13,-5
1685,8,-1984,136,64,12,-8
1690,-16,-1968,160,65,12,-6
1695,0,-1984,128,66,11,-4
1700,-24,-1984,128,67,12,-6
1705,-24,-1976,128,68,13,-5
1710,-16,-1968,152,69,14,-5
1715,0,-1984,160,69,14,-4
1720,-24,-1984,128,71,14,-7
1725,-24,-1968,168,71,15,-5
1730,-24,-1968,136,73,14,-6
1735,-16,-1960,120,72,15,-7
1740,-24,-1960,144,70,13,-6
1745,-8,-1968,152,68,14,-7
1750,0,-1968,168,66,12,-7
1755,0,-1968,120,63,12,-7
1760,-24,-1968,144,61,11,-5
1765,-32,-1960,144,58,11,-5
1770,-16,-1992,160,57,11,-5
1775,0,-1992,128,55,11,-5
1780,0,-1992,144,55,11,-6
1785,-16,-1968,112,54,12,-4
1790,0,-2000,96,55,12,-3
1795,-24,-1992,112,54,13,-3
1800,-16,-1992,136,52,12,-4
1805,-8,-1976,128,52,13,-2
1810,-40,-1976,120,52,14,-3
1815,-8,-1984,104,52,16,-4
1820,0,-1968,104,53,16,-3
1825,0,-1984,104,55,16,-5
1830,-16,-2000,128,54,17,-4
1835,0,-1984,112,55,17,-4
1840,-8,-1968,120,55,16,-4
1845,0,-1976,128,56,16,-3
1850,-8,-1992,104,54,17,-2
1855,-24,-1992,128,55,15,-3
1860,-8,-1976,128,56,17,-4
1865,-32,-1984,144,55,16,-2
1870,-24,-1984,128,54,16,-4
1875,-16,-1960,128,55,16,-5
1880,-16,-1984,112,56,16,-4
1885,-16,-1984,136,57,15,-3
1890,-24,-1992,128,56,14,-2
1895,-32,-1976,112,57,15,-3
1900,0,-1984,104,55,15,-2
1905,-16,-1984,128,55,15,-2
1910,-40,-1992,120,56,13,-4
1915,-8,-1992,128,56,16,-5
1920,-16,-1968,144,55,15,-2
1925,-8,-1968,136,54,15,-4
1930,-24,-1984,128,52,14,-5
1935,-24,-1976,120,53,15,-4
1940,-32,-1976,144,53,16,-5
1945,-8,-1992,120,53,15,-5
1950,-8,-1976,144,53,16,-6
1955,-24,-1992,120,51,15,-6
1960,-16,-1984,112,51,16,-4
1965,0,-1992,112,52,15,-3
1970,-24,-1992,144,51,14,-6
1975,-16,-1992,144,50,14,-7
1980,0,-1984,112,49,13,-5
1985,-8,-1960,120,48,14,-6
1990,-16,-1984,136,48,15,-6
1995,-24,-1976,136,48,14,-7
2000,-16,-1984,120,47,13,-8
2005,-24,-1976,96,46,14,-6
2010,-8,-1976,136,46,13,-6
2015,-32,-1976,128,45,14,-5
2020,-8,-1976,144,44,13,-5
2025,-16,-2000,112,45,13,-6
2030,-24,-1984,136,44,12,-5
2035,-32,-1976,136,44,12,-4
2040,0,-1984,136,44,12,-4
2045,0,-1976,152,47,12,-4
2050,-32,-2016,144,47,11,-2
2055,-8,-1984,136,49,11,-4
2060,-16,-1992,128,49,13,-4
2065,-48,-1960,144,51,12,-3
2070,0,-1984,136,51,14,-3
2075,-24,-1952,128,51,13,-5
2080,-16,-1968,144,53,13,-4
2085,-24,-1952,136,52,16,-3
2090,-48,-1984,128,50,15,-4
2095,-8,-1968,120,50,16,-4
2100,-24,-2000,136,50,16,-5
2105,-16,-1976,152,50,14,-4
2110,-32,-1968,184,49,14,-6
2115,-16,-1968,136,48,15,-6
2120,-24,-1968,144,48,14,-7
2125,-48,-1984,128,48,14,-8
2130,-32,-1968,136,46,13,-6
2135,-48,-1976,120,43,14,-9
2140,-8,-2008,128,42,15,-8
2145,-32,-1960,104,43,16,-7
2150,-24,-1976,136,41,16,-8
2155,-32,-1984,168,41,15,-6
2160,-16,-1952,104,42,14,-8
2165,-32,-1976,144,43,12,-8
2170,-8,-1992,128,42,12,-6
2175,-16,-1992,120,42,12,-6
2180,-16,-1976,120,41,12,-7
2185,-8,-1976,120,41,12,-7
2190,-16,-1984,128,43,12,-7
2195,0,-1984,152,44,13,-7
2200,-24,-1992,152,44,13,-7
2205,-24,-2008,144,47,15,-8
2210,-24,-1984,152,50,15,-7
2215,-32,-2016,184,53,17,-7
2220,8,-2016,120,56,16,-7
2225,-24,-1992,88,61,16,-7
2230,-16,-2000,136,63,16,-6
2235,-16,-1976,112,67,16,-7
2240,-8,-1984,104,67,16,-6
2245,-24,-1968,120,66,15,-5
2250,-32,-1976,112,65,15,-4
2255,-32,-1960,128,64,14,-6
2260,-16,-1968,120,63,14,-4
2265,-32,-1960,120,62,15,-5
2270,0,-1976,136,61,15,-5
2275,-40,-1968,184,60,16,-6
2280,-8,-1984,112,61,16,-7
2285,-16,-1984,152,60,17,-6
2290,-32,-1976,144,59,18,-7
2295,0,-1976,160,59,19,-7
2300,-16,-1976,144,55,18,-7
2305,-24,-1968,168,54,18,-9
2310,-8,-1992,128,50,18,-10
2315,-16,-1968,168,48,16,-9
2320,0,-2000,160,44,17,-9
2325,-40,-1976,128,41,16,-10
2330,-48,-1968,136,39,17,-10
2335,-16,-1960,112,39,16,-12
2340,0,-1984,144,38,14,-10
2345,-24,-1992,128,39,15,-11
2350,-48,-1992,144,39,15,-11
2355,-32,-1984,120,42,14,-10
2360,-16,-2000,136,45,13,-8
2365,-24,-1968,128,45,13,-8
2370,-24,-1976,120,48,13,-7
2375,-16,-1984,112,50,14,-6
2380,-32,-1968,152,51,14,-8
2385,-16,-1992,104,52,14,-8
2390,-8,-1992,128,52,14,-8
2395,-8,-1984,120,53,15,-7
2400,-32,-1984,128,53,14,-8
2405,-16,-1968,144,52,14,-8
2410,-24,-1984,104,52,14,-8
2415,0,-1960,152,52,15,-8
2420,0,-1968,112,50,15,-8
2425,-8,-1976,112,50,14,-9
2430,-8,-1952,120,48,16,-8
2435,-40,-1976,136,48,15,-9
2440,-24,-1968,152,47,14,-11
2445,0,-1976,120,46,14,-10
2450,-24,-1984,128,48,13,-9
2455,-24,-1968,152,47,13,-10
2460,-40,-1984,152,48,13,-10
2465,-24,-1976,128,47,11,-10
2470,-16,-1984,136,46,13,-9
2475,-24,-1992,112,46,13,-9
2480,0,-1984,136,44,13,-10
2485,-32,-1992,136,44,11,-9
2490,-8,-2000,104,44,12,-10
2495,-16,-1984,128,44,13,-10
2500,-24,-1968,128,44,13,-9
2505,-8,-1960,136,46,13,-11
2510,-24,-2000,144,47,14,-11
2515,-24,-1984,152,49,16,-11
2520,-16,-1984,128,51,15,-10
2525,-24,-1976,136,51,14,-10
2530,-40,-1976,136,54,14,-10
2535,-16,-1984,120,54,13,-9
2540,-24,-1976,128,53,14,-11
2545,-24,-1992,136,50,14,-9
2550,-32,-1976,88,49,14,-9
2555,-8,-1976,160,47,13,-9
2560,-32,-1960,168,45,11,-11
2565,-8,-1984,176,44,12,-10
2570,-24,-1976,152,45,13,-11
2575,-56,-1984,120,45,13,-11
2580,0,-1960,160,46,12,-10
2585,-8,-1968,144,47,12,-11
2590,-24,-1952,112,48,12,-10
2595,-40,-1984,176,48,11,-10
2600,-32,-1976,136,49,11,-8
2605,-16,-1976,136,49,11,-9
2610,-24,-2000,176,49,12,-10
2615,-16,-1976,152,49,13,-9
2620,-16,-1984,144,48,13,-9
2625,-32,-1968,136,50,13,-10
2630,0,-1992,160,49,12,-9
2635,0,-1984,136,47,13,-10
2640,-16,-1992,144,48,13,-11
2645,-32,-1976,136,49,13,-11
2650,0,-1992,128,47,16,-11
2655,-24,-1976,136,47,16,-10
2660,-40,-1960,128,46,14,-11
2665,-16,-1968,144,46,14,-12
2670,-8,-1952,144,45,13,-12
2675,-48,-1992,128,46,13,-13
2680,-32,-1976,136,44,13,-14
2685,-8,-2000,144,45,12,-12
2690,-16,-1976,136,43,13,-12
2695,-16,-1968,128,44,13,-12
2700,-24,-1992,144,43,13,-13
2705,-32,-1976,112,41,14,-11
2710,-40,-2008,136,42,15,-12
2715,-24,-2000,152,42,14,-13
2720,-16,-1976,120,43,14,-12
2725,-16,-2008,128,45,14,-11
2730,0,-1984,128,45,13,-11
2735,-16,-1976,152,46,12,-10
2740,-8,-1984,136,44,11,-12
2745,-24,-1976,120,44,11,-10
2750,0,-1968,112,43,11,-11
2755,-16,-1960,136,43,11,-11
2760,-16,-1968,104,42,11,-13
2765,-8,-1976,152,42,12,-12
2770,-24,-2000,112,42,12,-14
2775,-16,-1992,136,41,13,-15
2780,-32,-2000,144,44,12,-14
2785,-16,-2008,128,44,14,-15
2790,-8,-1976,136,47,14,-13
2795,-8,-2000,128,49,13,-13
2800,-16,-2000,104,52,12,-11
2805,-8,-2008,120,55,13,-10
2810,-16,-1976,120,55,12,-10
2815,0,-1992,104,56,12,-10
2820,-16,-1984,128,56,11,-9
2825,-40,-1984,136,55,11,-9
2830,-24,-1968,112,54,10,-8
2835,0,-1976,120,53,11,-9
2840,-32,-1976,112,54,12,-9
2845,-16,-1976,136,54,12,-10
2850,-24,-1968,128,56,11,-10
2855,-40,-1984,136,58,13,-11
2860,-24,-2008,136,59,13,-10
2865,-24,-1968,128,62,13,-10
2870,-40,-1960,160,63,14,-10
2875,-24,-1984,120,61,12,-10
2880,-32,-1992,112,58,12,-10
2885,-40,-1968,120,57,13,-10
2890,0,-1992,104,54,13,-9
2895,-16,-1968,152,51,14,-10
2900,-16,-1968,128,48,14,-11
2905,-48,-1960,128,46,14,-11
2910,-8,-1984,96,45,14,-12
2915,-16,-2008,120,44,12,-12
2920,-8,-1984,128,44,12,-13
2925,-24,-2016,144,45,12,-11
2930,0,-2008,120,47,12,-11
2935,0,-2000,112,49,12,-10
2940,-8,-1992,136,53,12,-10
2945,-32,-1992,184,56,12,-10
2950,-32,-1984,112,58,15,-8
2955,-32,-1960,144,59,15,-10
2960,-40,-1976,128,59,15,-10
2965,-24,-1992,112,57,16,-9
2970,-24,-1968,128,55,18,-9
2975,-8,-1976,104,52,18,-10
2980,8,-1960,152,50,18,-9
2985,-8,-1984,128,48,17,-10
2990,-24,-1968,112,44,17,-11
2995,-24,-1976,112,42,16,-10
3000,-24,-1984,120,38,16,-11
3005,0,-1992,120,38,15,-10
3010,0,-1968,104,38,14,-12
3015,-24,-1984,128,39,15,-12
3020,-16,-1984,104,40,13,-12
3025,-32,-1976,112,41,11,-11
3030,-32,-1968,136,42,11,-12
3035,-32,-1984,160,43,10,-10
3040,-8,-1952,136,43,11,-11
3045,0,-1984,136,43,10,-11
3050,0,-1976,112,43,10,-12
3055,-40,-1952,136,43,9,-13
3060,-48,-1984,136,43,9,-11
3065,-16,-1968,152,42,9,-11
3070,-24,-1984,136,39,10,-10
3075,-8,-1976,144,40,11,-12
3080,-16,-1984,128,39,12,-11
3085,-16,-1976,128,38,13,-11
3090,-24,-1960,144,37,13,-11
3095,-32,-1960,152,37,14,-8
3100,-32,-1992,160,36,14,-8
3105,-8,-1968,136,34,15,-9
3110,-40,-1968,152,34,14,-9
3115,-16,-1976,160,33,15,-8
3120,-8,-1984,152,32,14,-8
3125,-24,-1968,160,32,15,-8
3130,0,-1968,120,32,14,-6
3135,-16,-1984,128,33,12,-7
3140,-16,-1976,120,33,12,-6
3145,-32,-1984,136,32,12,-7
3150,-16,-1992,128,32,13,-6
3155,-24,-1976,136,32,12,-6
3160,-24,-1976,144,31,12,-6
3165,-48,-1976,112,31,12,-5
3170,-40,-1984,120,31,12,-7
3175,-8,-1952,136,30,12,-6
3180,-24,-1976,144,29,11,-6
3185,0,-1992,144,27,11,-6
3190,0,-1968,112,27,12,-6
3195,-8,-1984,144,27,10,-7
3200,-24,-1984,136,26,12,-8
3205,-8,-1984,136,27,12,-6
3210,-8,-1976,96,27,11,-6
3215,-16,-1976,152,28,12,-7
3220,-40,-1968,120,28,14,-8
3225,-32,-1976,120,29,13,-8
3230,-32,-1960,120,29,13,-9
3235,-8,-1992,120,29,13,-8
3240,-24,-1992,136,28,13,-9
3245,-32,-1984,136,26,13,-10
3250,-16,-1992,88,24,13,-11
3255,-32,-1960,136,22,13,-11
3260,-24,-1968,104,19,14,-11
3265,-32,-1976,112,17,15,-10
3270,0,-1984,128,15,15,-9
3275,0,-1968,128,14,13,-8
3280,-40,-1976,80,14,14,-7
3285,-40,-1960,128,13,14,-7
3290,-8,-1976,144,13,13,-8
3295,-16,-1992,128,12,13,-8
3300,-8,-1968,120,12,11,-6
3305,0,-2000,112,11,11,-7
3310,-32,-1984,120,11,10,-6
3315,-24,-1984,120,12,11,-8
3320,-8,-2008,128,11,12,-7
3325,-8,-1976,144,13,11,-9
3330,-24,-1960,104,15,12,-11
3335,-24,-1992,128,17,11,-10
3340,-16,-1992,112,18,12,-10
3345,-8,-2000,128,19,13,-12
3350,-32,-1984,104,21,12,-11
3355,-16,-1992,120,24,13,-11
3360,-40,-1976,96,25,12,-9
3365,-32,-1992,96,26,12,-9
3370,-8,-2008,96,26,12,-9
3375,-48,-1984,104,26,11,-10
3380,-40,-1984,112,25,11,-9
3385,-24,-1952,120,23,12,-8
3390,-32,-1984,112,23,11,-9
3395,-24,-1960,104,22,12,-9
3400,-16,-1984,104,22,10,-11
3405,-16,-2000,120,23,12,-11
3410,-16,-2000,136,24,12,-10
3415,-48,-1984,112,27,12,-12
3420,-8,-1992,104,29,12,-12
3425,-48,-1992,120,32,13,-11
3430,-32,-1984,128,35,13,-12
3435,-16,-1992,112,37,12,-12
3440,0,-1984,120,39,12,-13
3445,-8,-1968,112,40,12,-10
3450,-16,-1984,120,39,12,-10
3455,0,-1976,88,40,11,-11
3460,-24,-1976,120,38,11,-8
3465,-16,-2000,112,37,12,-8
3470,-8,-1992,112,35,11,-8
3475,-8,-1976,120,35,12,-9
3480,-16,-1976,88,34,10,-7
3485,8,-1992,112,33,9,-5
3490,-8,-1992,120,35,9,-6
3495,-16,-1976,88,37,8,-4
3500,-16,-1976,104,39,8,-4
3505,8,-2008,96,40,8,-5
3510,-48,-1968,96,42,9,-6
3515,-32,-1968,72,44,8,-5
3520,-24,-1968,112,48,8,-7
3525,-48,-1984,96,50,10,-8
3530,-16,-1976,112,51,9,-7
3535,-16,-1976,96,54,8,-8
3540,-16,-1976,72,55,10,-7
3545,-24,-1984,128,57,11,-8
3550,0,-2016,88,58,13,-9
3555,-32,-2008,120,61,12,-9
3560,-8,-2008,104,64,12,-9
3565,-40,-1992,112,65,11,-9
3570,-8,-2008,80,66,13,-10
3575,-8,-2000,88,68,13,-9
3580,80,-2056,216,69,13,-7
3585,8,-2016,152,69,13,-7
3590,0,-1960,104,68,13,-7
3595,0,-2008,160,67,14,-6
3600,-64,-2032,184,66,12,-7
3605,-16,-1976,152,65,12,-7
3610,-24,-1984,88,62,12,-6
3615,-16,-1976,104,62,13,-7
3620,-16,-1968,128,61,12,-7
3625,-16,-1968,104,60,14,-6
3630,8,-1992,88,59,13,-6
3635,-24,-1968,112,58,13,-6
3640,-16,-1976,96,57,14,-8
3645,-16,-2000,96,56,14,-7
3650,-8,-1968,88,55,14,-8
3655,-24,-1992,112,57,16,-8
3660,-40,-1984,112,59,15,-8
3665,-8,-1976,112,62,16,-8
3670,-16,-1992,88,64,15,-7
3675,0,-1992,112,68,15,-7
3680,0,-1992,112,69,15,-9
3685,-16,-1984,104,71,14,-8
3690,-24,-2000,96,73,15,-8
3695,0,-1976,120,72,15,-8
3700,-16,-1984,120,73,15,-7
3705,-8,-1976,96,73,16,-7
3710,-16,-1984,96,73,17,-5
3715,-8,-1976,96,74,17,-6
3720,-16,-1984,112,74,17,-5
3725,-16,-1984,120,75,17,-5
3730,-24,-1968,128,78,16,-7
3735,8,-1992,136,78,17,-5
3740,-16,-1984,120,78,18,-4
3745,-24,-1992,120,77,17,-4
3750,-32,-1992,128,77,16,-5
3755,-32,-2008,136,75,17,-7
3760,-24,-1976,128,73,17,-7
3765,-8,-2000,96,71,16,-5
3770,-40,-2008,120,71,16,-5
3775,-32,-1952,128,70,16,-6
3780,-40,-1976,160,70,15,-8
3785,-16,-1976,96,72,15,-7
3790,-16,-1976,96,71,16,-7
3795,-8,-1960,128,71,17,-8
3800,0,-1984,120,70,17,-10
3805,-32,-1984,120,68,17,-10
3810,-24,-1960,152,67,17,-10
3815,-24,-1976,144,65,18,-7
3820,-24,-1968,136,66,17,-8
3825,-24,-1984,120,65,16,-6
3830,0,-1976,128,63,16,-6
3835,0,-1984,120,63,15,-4
3840,-8,-1968,128,64,15,-4
3845,-16,-1960,168,63,16,-3
3850,-32,-1968,152,63,14,-4
3855,-24,-1976,112,62,14,-2
3860,-24,-2000,136,62,14,-5
3865,-16,-1952,144,62,14,-3
3870,0,-1976,120,60,14,-4
3875,-16,-1968,152,60,15,-4
3880,-40,-1984,160,60,16,-6
3885,-16,-1992,128,60,15,-7
3890,-48,-1976,184,61,16,-8
3895,-16,-2008,160,61,16,-8
3900,-32,-2000,152,63,16,-8
3905,-24,-1992,136,65,15,-6
3910,-32,-2000,152,65,16,-7
3915,-24,-1992,128,66,15,-6
3920,-16,-1976,120,68,15,-5
3925,-40,-1960,96,68,14,-6
3930,-40,-1976,120,67,14,-5
3935,-32,-1976,104,66,15,-5
3940,-24,-1976,136,69,15,-5
3945,-48,-1968,128,69,14,-4
3950,-24,-1984,120,71,15,-6
3955,-16,-1968,136,72,14,-5
3960,-40,-1960,144,73,14,-4
3965,-56,-1952,136,74,14,-4
3970,-40,-2008,128,75,15,-5
3975,8,-2000,128,74,14,-4
3980,-32,-1976,144,72,16,-5
3985,-16,-1984,120,73,16,-5
3990,-32,-1944,136,72,15,-6
3995,-16,-1976,104,69,16,-6
4000,-32,-1960,120,66,16,-4
4005,-32,-1968,128,61,16,-6
4010,-16,-1968,120,57,16,-5
4015,-24,-1968,120,53,16,-5
4020,-32,-1976,96,50,17,-6
4025,-8,-1976,136,47,16,-6
4030,-8,-1976,128,46,15,-5
4035,-24,-1992,152,47,15,-5
4040,-40,-1976,128,48,14,-5
4045,-8,-1976,128,49,13,-5
4050,-8,-1984,120,51,14,-6
4055,-32,-1960,120,51,13,-5
4060,-40,-1992,152,51,14,-5
4065,-40,-1976,120,53,14,-5
4070,-40,-1984,136,54,14,-3
4075,-24,-1992,128,56,14,-4
4080,-48,-1984,144,58,14,-4
4085,-64,-1960,144,59,15,-5
4090,-32,-1960,120,60,15,-5
4095,-16,-2000,112,60,12,-5
4100,-32,-1960,120,61,12,-5
4105,-24,-2000,128,60,13,-4
4110,-24,-1968,128,60,13,-5
4115,-16,-1992,144,59,11,-2
4120,-40,-2000,112,58,11,-3
4125,-32,-1976,128,58,12,-4
4130,-24,-1968,136,57,13,-5
4135,-16,-1960,96,57,12,-6
4140,-40,-1984,136,57,13,-8
4145,-24,-1944,144,56,13,-7
4150,-24,-1968,120,53,14,-6
4155,-32,-1960,128,51,13,-8
4160,-8,-1984,160,48,13,-9
4165,-24,-1968,120,45,13,-11
4170,-32,-1976,136,44,13,-13
4175,-24,-1968,128,43,14,-12
4180,-24,-1960,144,41,14,-12
4185,-16,-1960,104,39,15,-13
4190,-8,-1976,144,37,15,-13
4195,-16,-1976,120,35,17,-14
4200,-8,-1992,128,30,18,-15
4205,-16,-1992,128,27,17,-17
4210,-16,-1984,120,25,19,-17
4215,-40,-1936,136,21,18,-20
4220,-40,-1952,176,18,17,-22
4225,0,-1960,136,15,15,-24
4230,0,-1920,136,10,14,-25
4235,0,-1912,120,1,14,-26
4240,-24,-1928,112,-11,14,-26
4245,0,-1936,120,-25,15,-28
4250,-8,-1928,120,-41,15,-31
4255,0,-1920,96,-60,13,-31
4260,0,-1936,112,-82,12,-34
4265,-8,-1896,88,-105,12,-35
4270,-16,-1904,88,-126,11,-37
4275,0,-1928,40,-145,9,-39
4280,-8,-1936,24,-164,7,-43
4285,0,-1936,16,-178,6,-46
4290,-16,-1984,24,-186,4,-49
4295,-16,-1984,24,-188,5,-55
4300,-40,-2008,16,-187,6,-57
4305,-40,-2008,16,-183,12,-64
4310,-48,-2008,-16,-178,19,-68
4315,-8,-2024,-32,-174,23,-74
4320,-16,-2008,0,-170,28,-82
4325,-16,-2008,8,-165,31,-89
4330,-48,-1976,8,-159,31,-98
4335,-56,-1976,16,-153,32,-106
4340,-104,-1960,0,-148,32,-112
4345,-112,-1936,-16,-145,31,-116
4350,-96,-1944,-8,-147,29,-117
4355,-160,-1920,0,-153,23,-119
4360,-120,-1944,0,-165,13,-121
4365,-120,-1912,0,-180,2,-121
4370,-120,-1912,-8,-194,-9,-120
4375,-80,-1904,16,-211,-21,-120
4380,-48,-1904,40,-225,-29,-120
4385,-40,-1904,0,-238,-34,-118
4390,-32,-1928,48,-248,-37,-116
4395,-24,-1952,40,-256,-38,-114
4400,-32,-1952,48,-264,-41,-110
4405,-16,-1960,56,-266,-46,-108
4410,-8,-1976,40,-267,-51,-106
4415,0,-2000,56,-265,-53,-104
4420,0,-1960,64,-264,-54,-103
4425,8,-1968,72,-262,-55,-106
4430,16,-1976,72,-256,-56,-109
4435,48,-1992,48,-253,-57,-111
4440,40,-1968,64,-249,-58,-110
4445,120,-1976,56,-243,-57,-114
4450,80,-1944,48,-236,-50,-117
4455,104,-1960,88,-230,-42,-115
4460,104,-2000,88,-226,-34,-113
4465,56,-1976,40,-219,-27,-107
4470,8,-1944,48,-220,-26,-104
4475,16,-1936,32,-233,-26,-101
4480,16,-1944,8,-246,-26,-101
4485,32,-1944,32,-260,-24,-101
4490,48,-1952,24,-273,-19,-102
4495,16,-1984,64,-280,-14,-101
4500,56,-1992,64,-284,-14,-101
4505,56,-1960,104,-285,-13,-98
4510,96,-1992,88,-283,-8,-97
4515,64,-1968,88,-278,-1,-97
4520,24,-1960,80,-274,7,-95
4525,72,-1960,88,-272,12,-92
4530,40,-1960,96,-282,14,-89
4535,40,-1984,80,-284,19,-88
4540,0,-1976,72,-288,23,-86
4545,-8,-1960,56,-296,26,-80
4550,-8,-1952,80,-307,26,-77
4555,-16,-1960,40,-324,26,-78
4560,8,-1952,96,-339,23,-78
4565,8,-2008,40,-346,22,-80
4570,16,-1984,56,-354,22,-83
4575,8,-1984,64,-357,25,-87
4580,16,-1952,72,-354,32,-91
4585,0,-1960,64,-354,36,-94
4590,-16,-1920,32,-361,39,-96
4595,-8,-1912,40,-372,43,-98
4600,-8,-1912,0,-386,47,-97
4605,-8,-1920,0,-403,46,-93
4610,-48,-1904,-24,-421,45,-92
4615,-16,-1920,8,-439,40,-89
4620,-16,-1968,-16,-457,34,-87
4625,-40,-1960,-32,-474,26,-85
4630,-16,-1984,-40,-486,19,-85
4635,0,-1976,-56,-497,12,-86
4640,0,-1968,-16,-504,4,-87
4645,8,-1944,-48,-507,0,-89
4650,0,-1952,-32,-512,-3,-91
4655,24,-1904,-48,-516,-6,-91
4660,80,-1928,-48,-520,-7,-90
4665,80,-1920,-96,-522,-6,-90
4670,88,-1928,-120,-530,-2,-94
4675,56,-1920,-152,-542,4,-93
4680,56,-1928,-120,-558,9,-93
4685,72,-1912,-144,-575,12,-95
4690,88,-1912,-152,-594,9,-95
4695,88,-1920,-192,-611,4,-98
4700,40,-1936,-224,-630,-1,-99
4705,48,-1944,-232,-654,-11,-100
4710,72,-1936,-224,-676,-19,-100
4715,40,-1952,-216,-688,-23,-105
4720,16,-1952,-272,-696,-27,-110
4725,24,-1976,-264,-701,-30,-110
4730,8,-1920,-264,-705,-35,-109
4735,16,-1944,-296,-708,-41,-111
4740,0,-1936,-320,-710,-48,-111
4745,8,-1952,-328,-715,-57,-111
4750,0,-1904,-368,-722,-66,-113
4755,8,-1896,-344,-733,-71,-118
4760,8,-1896,-352,-745,-76,-124
4765,16,-1856,-344,-760,-81,-136
4770,-8,-1856,-360,-781,-82,-149
4775,0,-1864,-352,-802,-80,-160
4780,0,-1872,-352,-828,-81,-168
4785,0,-1896,-392,-856,-84,-176
4790,8,-1888,-360,-886,-86,-185
4795,24,-1904,-360,-920,-90,-192
4800,80,-1904,-368,-956,-91,-197
4805,128,-1912,-352,-998,-89,-200
4810,120,-1920,-344,-1034,-82,-201
4815,120,-1912,-416,-1065,-81,-199
4820,128,-1952,-384,-1095,-82,-201
4825,128,-1904,-424,-1125,-85,-198
4830,168,-1864,-448,-1157,-87,-196
4835,152,-1888,-448,-1196,-90,-193
4840,176,-1888,-488,-1230,-97,-193
4845,176,-1888,-520,-1262,-102,-191
4850,176,-1880,-568,-1297,-105,-191
4855,200,-1880,-528,-1330,-107,-190
4860,208,-1880,-608,-1355,-108,-196
4865,176,-1880,-600,-1386,-104,-197
4870,264,-1848,-616,-1421,-95,-192
4875,192,-1832,-680,-1454,-91,-190
4880,152,-1824,-656,-1485,-92,-198
4885,184,-1800,-656,-1526,-95,-207
4890,184,-1848,-616,-1554,-92,-217
4895,152,-1824,-688,-1561,-86,-221
4900,144,-1776,-672,-1560,-79,-221
4905,184,-1792,-664,-1567,-77,-221
4910,176,-1776,-672,-1582,-76,-225
4915,176,-1800,-672,-1594,-80,-234
4920,144,-1840,-656,-1605,-86,-246
4925,120,-1816,-672,-1609,-94,-254
4930,136,-1840,-720,-1610,-99,-260
4935,88,-1856,-704,-1614,-105,-261
4940,56,-1856,-712,-1616,-114,-259
4945,32,-1864,-728,-1615,-127,-252
4950,80,-1872,-760,-1608,-138,-239
4955,88,-1872,-776,-1593,-149,-215
4960,128,-1880,-784,-1577,-159,-198
4965,80,-1880,-816,-1570,-176,-184
4970,72,-1920,-848,-1575,-187,-169
4975,72,-1904,-864,-1588,-200,-153
4980,64,-1928,-880,-1606,-213,-134
4985,40,-1912,-904,-1628,-224,-116
4990,8,-1856,-944,-1647,-232,-95
4995,24,-1816,-968,-1665,-240,-76
5000,24,-1816,-1000,-1686,-247,-60
5005,32,-1784,-1032,-1707,-256,-44
5010,8,-1808,-1040,-1725,-258,-30
5015,16,-1832,-1064,-1736,-258,-16
5020,-16,-1896,-1048,-1738,-249,-1
5025,-24,-1912,-1048,-1731,-233,15
5030,-56,-1976,-1072,-1714,-209,35
5035,-48,-2032,-1096,-1693,-186,65
5040,0,-2024,-1144,-1667,-164,106
5045,48,-2048,-1216,-1636,-151,149
5050,112,-2040,-1256,-1606,-150,190
5055,192,-2032,-1288,-1570,-162,224
5060,240,-2064,-1352,-1531,-179,250
5065,248,-2096,-1376,-1489,-197,271
5070,360,-2200,-1336,-1445,-215,286
5075,456,-2296,-1280,-1394,-231,287
5080,528,-2392,-1208,-1343,-246,265
5085,536,-2400,-1240,-1269,-260,231
5090,544,-2328,-1296,-1175,-276,201
5095,488,-2136,-1504,-1082,-294,181
5100,432,-1880,-1664,-1000,-310,167
5105,352,-1696,-1872,-954,-318,154
5110,272,-1448,-2024,-958,-310,139
5115,216,-1336,-2152,-1008,-291,122
5120,160,-1280,-2208,-1093,-271,99
5125,96,-1328,-2184,-1189,-251,69
5130,96,-1392,-2144,-1278,-237,37
5135,104,-1536,-2048,-1344,-235,1
5140,64,-1592,-1976,-1376,-240,-30
5145,144,-1680,-1872,-1375,-248,-56
5150,200,-1728,-1840,-1350,-266,-77
5155,288,-1728,-1840,-1316,-286,-96
5160,320,-1664,-1840,-1282,-308,-113
5165,344,-1584,-1864,-1257,-327,-124
5170,368,-1536,-1912,-1247,-346,-129
5175,344,-1496,-1928,-1234,-362,-131
5180,376,-1472,-1968,-1229,-379,-135
5185,360,-1488,-1984,-1231,-397,-141
5190,344,-1472,-1976,-1236,-414,-154
5195,304,-1528,-1968,-1236,-428,-169
5200,280,-1560,-1976,-1220,-439,-186
5205,224,-1600,-1976,-1178,-446,-203
5210,192,-1624,-1944,-1111,-451,-216
5215,152,-1624,-1944,-1024,-458,-229
5220,80,-1640,-1944,-924,-461,-237
5225,32,-1592,-1960,-809,-467,-239
5230,8,-1528,-1952,-691,-468,-234
5235,0,-1504,-1936,-576,-467,-229
5240,-8,-1440,-1912,-469,-466,-224
5245,16,-1384,-1952,-381,-464,-220
5250,16,-1296,-1912,-306,-464,-215
5255,80,-1272,-1928,-242,-460,-204
5260,128,-1248,-1920,-181,-455,-190
5265,184,-1208,-1872,-132,-446,-173
5270,216,-1152,-1888,-91,-438,-157
5275,256,-1120,-1872,-61,-430,-143
5280,272,-1104,-1832,-39,-423,-138
5285,264,-1072,-1760,-25,-417,-134
5290,312,-1096,-1712,-15,-411,-132
5295,304,-1088,-1680,-8,-408,-132
5300,288,-1032,-1656,0,-408,-134
5305,296,-1024,-1600,6,-410,-134
5310,304,-1008,-1592,13,-417,-132
5315,248,-960,-1536,23,-424,-129
5320,200,-936,-1536,29,-436,-125
5325,176,-912,-1520,37,-447,-118
5330,152,-872,-1552,40,-459,-116
5335,104,-832,-1560,41,-471,-116
5340,48,-840,-1600,33,-476,-120
5345,16,-832,-1632,18,-479,-130
5350,-24,-856,-1616,2,-478,-141
5355,-64,-872,-1608,-17,-475,-152
5360,-80,-872,-1624,-28,-469,-163
5365,-112,-840,-1648,-34,-468,-171
5370,-88,-808,-1664,-38,-480,-177
5375,-104,-744,-1696,-46,-499,-180
5380,-88,-696,-1672,-57,-525,-177
5385,-112,-632,-1656,-74,-563,-174
5390,-120,-568,-1624,-105,-610,-174
5395,-104,-576,-1632,-149,-667,-178
5400,-104,-552,-1568,-203,-721,-183
5405,-40,-592,-1560,-259,-769,-196
5410,-40,-608,-1544,-303,-802,-215
5415,-40,-656,-1536,-337,-828,-238
5420,0,-720,-1528,-344,-851,-258
5425,48,-744,-1528,-342,-868,-280
5430,96,-768,-1560,-332,-878,-300
5435,152,-816,-1568,-323,-883,-320
5440,160,-784,-1576,-310,-887,-339
5445,240,-816,-1536,-296,-888,-355
5450,328,-848,-1560,-278,-886,-369
5455,392,-816,-1560,-263,-877,-389
5460,448,-848,-1520,-259,-856,-411
5465,520,-872,-1480,-261,-827,-430
5470,600,-872,-1376,-255,-791,-446
5475,688,-824,-1328,-245,-746,-462
5480,736,-808,-1256,-228,-697,-475
5485,784,-776,-1168,-213,-645,-484
5490,872,-768,-1112,-200,-587,-488
5495,952,-736,-1040,-188,-512,-487
5500,1016,-680,-1032,-178,-424,-490
5505,1056,-664,-1040,-196,-332,-503
5510,1088,-656,-1088,-232,-236,-521
5515,1144,-648,-1112,-271,-139,-536
5520,1248,-616,-1056,-302,-50,-554
5525,1160,-624,-1088,-334,48,-565
5530,1176,-560,-1128,-347,126,-588
5535,1096,-552,-1160,-355,204,-614
5540,1000,-496,-1120,-341,269,-648
5545,904,-496,-1096,-318,329,-673
5550,728,-456,-1128,-295,379,-688
5555,560,-464,-1104,-276,421,-695
5560,408,-544,-1136,-263,453,-691
5565,224,-632,-1160,-251,473,-677
5570,120,-720,-1152,-238,466,-662
5575,-48,-848,-1176,-217,443,-646
5580,-160,-936,-1168,-184,412,-623
5585,-288,-1056,-1192,-132,372,-593
5590,-336,-1136,-1224,-62,331,-556
5595,-376,-1192,-1256,24,289,-510
5600,-416,-1176,-1288,121,249,-454
5605,-392,-1168,-1288,221,208,-389
5610,-336,-1040,-1304,314,164,-321
5615,-272,-936,-1328,387,119,-251
5620,-216,-752,-1384,428,74,-182
5625,-208,-568,-1440,425,24,-119
5630,-280,-384,-1464,374,-35,-59
5635,-296,-280,-1472,282,-103,-6
5640,-312,-136,-1528,166,-179,38
5645,-304,-88,-1520,40,-251,80
5650,-336,-88,-1536,-88,-315,126
5655,-368,-192,-1536,-210,-364,181
5660,-280,-288,-1520,-318,-400,253
5665,-168,-472,-1448,-404,-423,334
5670,0,-568,-1464,-467,-436,421
5675,208,-664,-1392,-510,-433,501
5680,352,-664,-1408,-550,-422,560
5685,496,-640,-1472,-595,-407,603
5690,592,-640,-1504,-647,-385,636
5695,648,-632,-1472,-705,-357,667
5700,664,-640,-1432,-757,-323,703
5705,720,-688,-1352,-800,-285,738
5710,784,-720,-1360,-833,-245,778
5715,816,-768,-1336,-864,-207,816
5720,896,-792,-1280,-899,-168,847
5725,928,-816,-1208,-926,-128,865
5730,864,-832,-1152,-920,-78,881
5735,832,-912,-1144,-885,-29,885
5740,696,-944,-1144,-814,18,883
5745,536,-1000,-1136,-719,63,870
5750,416,-1040,-1136,-611,106,846
5755,248,-1120,-1152,-491,148,810
5760,144,-1160,-1176,-370,193,777
5765,104,-1192,-1136,-252,243,749
5770,120,-1144,-1176,-107,287,718
5775,128,-1104,-1176,14,334,681
5780,104,-1072,-1184,134,376,645
5785,72,-1064,-1184,233,409,606
5790,8,-1056,-1192,307,433,564
5795,0,-1064,-1184,356,445,516
5800,-40,-1032,-1160,382,444,464
5805,-32,-1016,-1216,390,427,402
5810,-40,-896,-1208,383,395,334
5815,-120,-832,-1280,359,346,266
5820,-296,-696,-1368,318,282,199
5825,-512,-536,-1480,261,203,134
5830,-664,-456,-1520,198,121,72
5835,-728,-456,-1456,151,47,24
5840,-848,-496,-1328,128,-23,-3
5845,-896,-560,-1232,129,-104,-13
5850,-896,-688,-1168,142,-200,-17
5855,-968,-752,-1152,168,-312,-15
5860,-976,-824,-1120,210,-433,-1
5865,-968,-840,-1152,263,-555,20
5870,-896,-832,-1184,308,-678,42
5875,-728,-856,-1232,344,-795,56
5880,-624,-816,-1240,378,-896,59
5885,-448,-824,-1304,411,-975,53
5890,-256,-800,-1256,438,-1037,34
5895,-120,-824,-1224,451,-1085,3
5900,-16,-856,-1200,454,-1120,-40
5905,72,-848,-1168,451,-1142,-84
5910,136,-840,-1120,451,-1150,-122
5915,288,-856,-1072,450,-1147,-158
5920,384,-832,-1064,449,-1136,-193
5925,392,-800,-1056,446,-1121,-228
5930,368,-744,-1056,436,-1109,-265
5935,344,-664,-1144,407,-1110,-296
5940,352,-648,-1152,358,-1124,-322
5945,336,-632,-1112,303,-1139,-337
5950,360,-672,-1008,264,-1153,-346
5955,328,-712,-960,250,-1169,-359
5960,256,-744,-848,259,-1187,-367
5965,184,-752,-832,286,-1200,-372
5970,88,-768,-760,333,-1217,-370
5975,64,-768,-744,375,-1243,-360
5980,-40,-704,-712,419,-1274,-347
5985,-88,-712,-688,458,-1314,-329
5990,-136,-664,-656,488,-1357,-311
5995,-160,-656,-616,515,-1397,-289
6000,-160,-640,-592,547,-1445,-267
6005,-152,-632,-616,576,-1495,-240
6010,-144,-608,-600,606,-1538,-207
6015,-216,-568,-624,630,-1582,-174
6020,-336,-536,-664,641,-1637,-142
6025,-424,-496,-720,637,-1699,-110
6030,-496,-472,-688,621,-1762,-65
6035,-464,-448,-712,608,-1826,-24
6040,-464,-376,-792,598,-1879,10
6045,-504,-336,-848,584,-1919,37
6050,-592,-264,-848,557,-1947,57
6055,-648,-192,-872,515,-1968,80
6060,-712,-168,-936,457,-1997,107
6065,-704,-128,-960,400,-2033,138
6070,-632,-96,-1000,339,-2068,169
6075,-600,-64,-1040,275,-2092,200
6080,-536,-64,-1056,225,-2116,232
6085,-520,-56,-1032,177,-2136,258
6090,-480,-72,-1056,146,-2159,283
6095,-456,-80,-1136,119,-2183,303
6100,-496,-112,-1168,93,-2205,323
6105,-520,-152,-1256,73,-2231,336
6110,-576,-216,-1320,57,-2275,335
6115,-624,-312,-1352,47,-2321,333
6120,-632,-368,-1384,61,-2371,325
6125,-584,-488,-1360,100,-2420,300
6130,-592,-592,-1320,163,-2461,267
6135,-672,-696,-1240,251,-2507,229
6140,-720,-864,-1184,365,-2568,187
6145,-808,-1008,-1168,499,-2634,159
6150,-944,-1120,-1144,649,-2705,150
6155,-1072,-1176,-1064,801,-2819,151
6160,-1224,-1336,-984,993,-2924,183
6165,-1320,-1392,-936,1169,-3048,242
6170,-1568,-1432,-832,1343,-3197,324
6175,-1768,-1320,-936,1494,-3388,425
6180,-2032,-1104,-1064,1590,-3606,526
6185,-2096,-872,-1136,1639,-3830,624
6190,-2288,-768,-1224,1651,-4008,757
6195,-2600,-664,-1200,1623,-4167,886
6200,-2880,-624,-1304,1536,-4317,1002
6205,-3240,-856,-1416,1411,-4440,1120
6210,-3736,-840,-1624,1262,-4550,1250
6215,-4608,-1040,-2000,1077,-4661,1448
6220,-5640,-1504,-2432,892,-4765,1692
6225,-6408,-2104,-2912,721,-4872,1956
6230,-8056,-2592,-3152,547,-4930,2294
6235,-9328,-2824,-3376,387,-4911,2671
6240,-11008,-3200,-3088,317,-4754,3099
6245,-11784,-3200,-2032,378,-4507,3477
6250,-9896,-3304,-864,651,-4186,3778
6255,-7240,-3264,-96,1153,-3758,4048
6260,-5808,-2432,16,1621,-3361,4470
6265,-5680,-2104,8,1819,-2950,4887
6270,-5872,-1840,-40,1663,-2558,4914
6275,-5632,-1704,-320,1254,-2296,4662
6280,-4808,-1592,-616,781,-2130,4357
6285,-4136,-1992,-704,452,-1975,4136
6290,-3704,-2552,-488,360,-1820,4003
6295,-2560,-3088,-40,572,-1740,3862
6300,-1840,-3248,40,1092,-1745,3677
6305,-936,-2984,376,1823,-1802,3472
6310,56,-2552,392,2668,-1775,3328
6315,896,-2160,296,3457,-1558,3287
6320,1320,-1856,80,3990,-1160,3293
6325,1712,-1552,-112,4066,-740,3277
6330,2352,-1184,-48,3794,-428,3111
6335,2440,-592,16,3355,-181,2792
6340,1304,256,-16,2843,112,2438
6345,120,832,32,2246,579,2309
6350,-216,1336,-160,1479,915,2189
6355,-1304,1584,-168,278,1247,1977
6360,-2320,1712,-16,-726,1532,1750
6365,-2464,1656,-16,-1611,1701,1534
6370,-2296,1664,-144,-2304,1819,1352
6375,-2576,1536,-184,-2754,1943,1223
6380,-3208,1408,320,-2940,2016,1174
6385,-3424,1176,632,-2901,2022,1136
6390,-3536,928,784,-2758,2070,1047
6395,-3440,720,808,-2613,2210,954
6400,-3328,440,576,-2461,2340,857
6405,-3352,208,160,-2289,2418,739
6410,-3288,104,-128,-2089,2469,589
6415,-3184,-56,-304,-1847,2497,425
6420,-3152,-184,-368,-1544,2458,265
6425,-2960,-224,-512,-1171,2354,128
6430,-2800,-248,-688,-804,2193,24
6435,-2768,-200,-848,-501,1988,-51
6440,-2672,-72,-912,-274,1780,-117
6445,-2560,40,-944,-115,1602,-165
6450,-2512,192,-1000,-25,1455,-192
6455,-2392,264,-1040,-3,1315,-208
6460,-2336,352,-1080,-32,1175,-230
6465,-2296,448,-1040,-100,1055,-247
6470,-2240,520,-808,-189,965,-244
6475,-2256,568,-624,-276,885,-225
6480,-2072,648,-488,-353,794,-213
6485,-1912,720,-416,-413,708,-218
6490,-2000,840,-288,-446,632,-226
6495,-1792,1024,-272,-424,536,-212
6500,-1656,1184,-272,-377,447,-173
6505,-1688,1384,-232,-333,371,-110
6510,-1784,1488,-168,-311,318,-21
6515,-1872,1544,-40,-303,276,62
6520,-1888,1496,160,-303,239,139
6525,-1672,1440,256,-295,189,189
6530,-1568,1320,384,-278,143,226
6535,-1432,1232,368,-227,103,247
6540,-1312,1088,432,-157,106,279
6545,-1256,936,464,-42,149,322
6550,-1272,912,440,92,189,372
6555,-1288,872,368,203,222,418
6560,-1368,776,328,267,277,449
6565,-1352,760,304,322,343,454
6570,-1368,728,312,340,407,454
6575,-1352,720,248,327,461,458
6580,-1384,736,296,306,500,479
6585,-1320,768,328,282,534,511
6590,-1304,752,400,258,559,549
6595,-1240,704,496,249,580,596
6600,-1216,648,520,268,605,652
6605,-1192,672,536,310,631,711
6610,-1184,712,560,361,657,781
6615,-1080,808,496,407,679,856
6620,-1208,920,568,420,719,952
6625,-1128,1000,536,446,728,1007
6630,-1048,1088,496,462,755,1045
6635,-1024,1072,544,455,808,1094
6640,-936,1064,520,466,857,1101
6645,-928,1040,488,488,921,1094
6650,-1000,976,376,495,989,1078
6655,-1032,968,280,480,1057,1051
6660,-1048,960,216,457,1128,1019
6665,-1136,904,72,443,1195,1005
6670,-1152,1008,-48,468,1242,970
6675,-1256,960,-8,482,1308,955
6680,-1264,1048,-88,507,1349,947
6685,-1528,1080,-176,531,1382,912
6690,-1192,368,-208,558,1383,879
6695,-1792,1360,80,508,1385,767
6700,-1944,1440,-280,505,1350,803
6705,-2184,1432,-384,474,1324,828
6710,-2504,1576,-456,384,1276,777
6715,-2744,1648,-544,311,1198,735
6720,-2896,1648,-584,213,1110,721
6725,-3072,1736,-640,140,989,641
6730,-3376,1896,-624,40,867,532
6735,-3544,1776,-664,-22,735,461
6740,-3632,1696,-640,-52,618,416
6745,-3712,1584,-592,-64,492,386
6750,-3680,1472,-624,-66,391,349
6755,-3576,1360,-600,-52,291,311
6760,-3344,1272,-680,-21,194,267
6765,-3192,1216,-736,22,122,224
6770,-3040,1200,-760,70,72,192
6775,-2848,1120,-792,114,40,159
6780,-2656,1080,-768,145,21,118
6785,-2584,1032,-760,170,5,67
6790,-2440,952,-712,198,-17,11
6795,-2264,856,-664,222,-44,-43
6800,-2152,800,-608,243,-74,-95
6805,-2056,760,-592,260,-110,-143
6810,-1960,720,-560,271,-146,-184
6815,-1840,712,-576,274,-179,-226
6820,-1712,696,-592,266,-206,-269
6825,-1608,704,-592,256,-226,-311
6830,-1552,696,-584,248,-239,-346
6835,-1464,712,-632,245,-245,-382
6840,-1368,696,-640,241,-241,-414
6845,-1320,720,-696,240,-231,-445
6850,-1264,736,-728,235,-216,-469
6855,-1184,736,-752,227,-194,-485
6860,-1136,688,-784,209,-168,-494
6865,-1120,704,-800,182,-140,-503
6870,-1104,664,-808,156,-112,-505
6875,-1104,640,-816,129,-83,-499
6880,-1144,616,-808,106,-57,-491
6885,-1168,592,-840,89,-34,-479
6890,-1120,552,-856,70,-15,-462
6895,-1200,552,-880,53,4,-447
6900,-1192,504,-904,42,23,-426
6905,-1224,512,-960,34,42,-406
6910,-1256,528,-1008,24,55,-385
6915,-1288,496,-1056,16,72,-366
6920,-1312,512,-1000,13,88,-348
6925,-1336,488,-1080,16,102,-329
6930,-1320,488,-1128,23,115,-309
6935,-1488,432,-1064,33,124,-287
6940,-1520,392,-1128,48,129,-273
6945,-1576,448,-1152,60,126,-256
6950,-1552,416,-1200,70,122,-242
6955,-1608,400,-1192,76,114,-228
6960,-1632,424,-1240,73,104,-211
6965,-1664,424,-1224,66,96,-196
6970,-1696,432,-1256,55,89,-179
6975,-1728,440,-1296,37,82,-163
6980,-1744,416,-1320,20,74,-144
6985,-1792,448,-1288,0,66,-124
6990,-1816,440,-1288,-25,58,-108
6995,-1864,416,-1328,-48,52,-91
7000,-1864,440,-1336,-71,49,-75
7005,-1944,440,-1304,-91,50,-59
7010,-1984,424,-1296,-110,49,-42
7015,-2048,432,-1320,-124,43,-29
7020,-2080,432,-1328,-135,38,-23
7025,-2160,424,-1304,-138,33,-13
7030,-2168,424,-1288,-133,19,-6
7035,-2152,400,-1280,-129,3,-1
7040,-2160,448,-1280,-123,-10,0
7045,-2176,408,-1280,-112,-18,4
7050,-2160,408,-1248,-101,-27,8
7055,-2112,456,-1304,-92,-37,10
7060,-2104,432,-1304,-86,-40,13
7065,-2080,408,-1264,-77,-43,15
7070,-2056,376,-1232,-62,-52,19
7075,-2048,368,-1152,-46,-63,24
7080,-2000,320,-1120,-29,-78,28
7085,-1968,336,-1056,-12,-91,30
7090,-1944,312,-992,7,-106,30
7095,-1912,328,-984,30,-117,29
7100,-1856,336,-936,51,-130,31
7105,-1864,336,-888,72,-143,31
7110,-1872,392,-824,92,-157,32
7115,-1832,376,-824,107,-174,32
7120,-1768,384,-792,113,-188,25
7125,-1752,392,-768,117,-199,18
7130,-1688,408,-776,118,-204,9
7135,-1800,424,-704,120,-205,2
7140,-1720,416,-744,122,-213,-2
7145,-1688,416,-728,114,-221,-10
7150,-1704,448,-720,104,-225,-19
7155,-1664,456,-704,100,-223,-25
7160,-1672,472,-688,97,-217,-29
7165,-1664,472,-704,96,-210,-32
7170,-1648,504,-720,91,-198,-36
7175,-1656,512,-736,84,-185,-38
7180,-1648,512,-704,77,-171,-43
7185,-1656,496,-680,70,-156,-45
7190,-1656,504,-704,64,-141,-48
7195,-1696,496,-664,58,-126,-51
7200,-1720,528,-680,55,-111,-53
7205,-1736,520,-696,53,-97,-53
7210,-1728,528,-696,53,-81,-54
7215,-1752,504,-680,56,-65,-54
7220,-1768,512,-712,58,-49,-53
7225,-1776,528,-720,61,-36,-55
7230,-1768,512,-744,65,-19,-53
7235,-1784,504,-720,66,-8,-52
7240,-1824,488,-736,69,6,-49
7245,-1816,504,-736,72,16,-47
7250,-1816,480,-768,74,24,-44
7255,-1848,504,-752,77,33,-42
7260,-1856,504,-792,80,37,-40
7265,-1864,504,-800,82,44,-35
7270,-1832,512,-792,84,48,-29
7275,-1872,504,-840,85,52,-26
7280,-1856,504,-840,84,54,-24
7285,-1880,520,-864,84,54,-18
7290,-1864,520,-840,82,54,-14
7295,-1880,520,-856,78,54,-13
7300,-1880,496,-848,76,54,-9
7305,-1872,512,-864,72,52,-9
7310,-1880,496,-872,68,49,-5
7315,-1872,496,-856,65,48,-3
7320,-1896,512,-888,64,44,0
7325,-1864,504,-896,60,43,2
7330,-1848,496,-872,57,40,1
7335,-1848,488,-888,53,39,3
7340,-1840,504,-864,50,36,3
7345,-1824,488,-872,46,31,5
7350,-1832,496,-840,41,30,4
7355,-1816,496,-896,37,28,5
7360,-1800,448,-872,35,25,6
7365,-1808,448,-888,33,23,7
7370,-1792,448,-888,34,20,5
7375,-1792,440,-896,36,19,6
7380,-1784,448,-848,38,15,5
7385,-1792,456,-864,40,12,6
7390,-1768,448,-864,44,9,5
7395,-1752,456,-856,48,9,5
7400,-1760,448,-840,49,5,4
7405,-1768,456,-840,49,4,3
7410,-1784,472,-840,51,3,2
7415,-1792,472,-888,53,1,2
7420,-1760,464,-856,52,3,-1
7425,-1760,488,-864,52,3,-2
7430,-1752,480,-864,50,3,-4
7435,-1768,472,-832,49,5,-5
7440,-1760,480,-840,48,6,-5
7445,-1784,480,-856,48,7,-6
7450,-1752,464,-824,46,7,-6
7455,-1760,472,-840,44,9,-7
7460,-1776,480,-832,43,9,-6
7465,-1800,488,-848,41,9,-7
7470,-1808,512,-808,39,10,-7
7475,-1760,496,-840,36,9,-7
7480,-1776,504,-832,31,7,-4
7485,-1800,496,-856,25,8,-3
7490,-1792,496,-848,19,7,-2
7495,-1816,512,-848,12,9,-2
7500,-1816,520,-840,5,10,-3
7505,-1824,504,-832,-1,10,-4
7510,-1856,504,-840,-8,13,-3
7515,-1816,512,-832,-13,12,-3
7520,-1824,520,-848,-18,13,-2
7525,-1816,488,-848,-21,14,-2
7530,-1832,488,-864,-25,15,-4
7535,-1816,496,-864,-28,14,-4
7540,-1840,488,-856,-28,16,-2
7545,-1848,488,-856,-29,17,-1
7550,-1832,464,-824,-29,20,-1
7555,-1856,504,-840,-28,22,-2
7560,-1824,448,-824,-27,23,-2
7565,-1856,480,-832,-23,25,-1
7570,-1832,472,-816,-18,27,0
7575,-1808,464,-840,-13,28,1
7580,-1856,472,-848,-9,28,0
7585,-1816,464,-848,0,30,-1
7590,-1800,464,-840,7,30,0
7595,-1824,472,-824,10,31,1
7600,-1816,456,-824,13,31,1
7605,-1808,504,-808,17,31,1
7610,-1808,472,-816,20,33,2
7615,-1800,496,-824,22,33,0
7620,-1808,496,-872,23,35,1
7625,-1816,504,-832,24,35,2
7630,-1784,496,-832,23,35,1
7635,-1784,488,-848,21,37,2
7640,-1784,496,-872,20,38,2
7645,-1792,488,-848,15,41,3
7650,-1800,496,-832,13,41,1
7655,-1792,504,-840,12,41,2
7660,-1776,488,-808,13,41,1
7665,-1792,488,-864,12,43,3
7670,-1768,464,-840,10,45,5
7675,-1768,448,-848,11,48,6
7680,-1760,480,-856,13,48,7
7685,-1800,464,-840,15,47,7
7690,-1800,504,-832,19,45,11
7695,-1792,504,-824,21,45,10
7700,-1784,512,-872,22,43,13
7705,-1776,504,-872,23,46,13
7710,-1792,504,-848,22,46,13
7715,-1792,504,-872,18,46,17
7720,-1792,504,-816,18,46,17
7725,-1792,512,-832,18,45,18
7730,-1800,504,-840,16,42,21
7735,-1808,488,-832,16,42,22
7740,-1800,496,-840,14,39,25
7745,-1816,512,-832,15,38,26
7750,-1824,512,-864,16,38,29
7755,-1776,496,-848,15,38,30
7760,-1800,512,-896,13,39,32
7765,-1824,512,-888,10,39,30
7770,-1792,512,-872,8,41,28
7775,-1784,520,-880,3,38,29
7780,-1792,520,-872,0,40,26
7785,-1808,504,-864,-2,41,23
7790,-1792,520,-840,-6,41,20
7795,-1816,496,-856,-6,40,20
7800,-1816,504,-888,-6,37,16
7805,-1824,496,-888,-3,34,15
7810,-1808,488,-864,2,35,16
7815,-1792,512,-864,7,36,14
7820,-1792,504,-824,13,36,13
7825,-1816,496,-848,20,35,11
7830,-1800,512,-856,26,33,9
7835,-1800,496,-864,32,31,10
7840,-1816,512,-864,37,31,11
7845,-1824,520,-848,43,29,11
7850,-1808,504,-888,48,30,9
7855,-1824,512,-864,53,28,9
7860,-1800,520,-888,56,28,8
7865,-1792,512,-856,60,28,7
7870,-1816,520,-856,63,27,6
7875,-1792,520,-872,65,28,4
7880,-1808,512,-872,65,26,3
7885,-1792,536,-880,65,25,2
7890,-1808,528,-864,65,23,1
7895,-1816,528,-856,64,23,1
7900,-1816,552,-856,62,21,0
7905,-1792,512,-872,63,21,0
7910,-1776,520,-856,63,21,1
7915,-1816,536,-864,61,20,1
7920,-1808,536,-864,61,20,1
7925,-1808,528,-880,60,18,-1
7930,-1784,520,-832,59,16,0
7935,-1784,520,-856,57,15,-3
7940,-1792,544,-856,57,15,-3
7945,-1760,536,-856,55,15,-4
7950,-1800,528,-848,53,14,-8
7955,-1784,520,-888,51,13,-10
7960,-1784,504,-848,49,12,-12
7965,-1776,520,-840,46,13,-13
7970,-1800,536,-840,43,12,-14
7975,-1760,512,-824,41,11,-14
7980,-1784,504,-872,41,10,-13
7985,-1784,528,-840,39,8,-13
7990,-1776,520,-848,38,7,-14
7995,-1776,512,-832,37,6,-15
8000,-1776,512,-872,35,6,-17
8005,-1776,520,-856,34,7,-18
8010,-1784,512,-872,32,6,-19
8015,-1808,512,-864,31,4,-21
8020,-1776,520,-856,28,4,-21
8025,-1776,504,-832,26,4,-25
8030,-1808,520,-864,27,4,-24
8035,-1800,528,-864,26,3,-24
8040,-1808,512,-872,24,4,-26
8045,-1800,504,-856,24,4,-25
8050,-1784,528,-824,23,2,-27
8055,-1792,528,-848,21,3,-26
8060,-1784,512,-856,19,5,-26
8065,-1776,512,-864,18,7,-27
8070,-1784,496,-840,16,11,-29
8075,-1800,512,-848,16,11,-29
8080,-1784,504,-856,17,11,-30
8085,-1800,512,-888,17,14,-29
8090,-1816,528,-856,15,14,-30
8095,-1816,512,-840,17,14,-30
8100,-1808,504,-848,15,18,-30
8105,-1784,520,-856,16,19,-31
8110,-1816,504,-864,16,19,-30
8115,-1800,504,-840,17,19,-28
8120,-1816,496,-848,19,17,-27
8125,-1784,496,-872,18,15,-26
8130,-1792,504,-848,16,14,-23
8135,-1808,496,-848,15,14,-21
8140,-1800,496,-840,14,14,-18
8145,-1792,504,-848,11,11,-17
8150,-1784,536,-832,9,11,-16
8155,-1800,496,-872,7,9,-13
8160,-1768,496,-864,4,10,-11
8165,-1792,512,-848,4,15,-9
8170,-1776,496,-848,3,17,-7
8175,-1784,488,-856,2,21,-4
8180,-1792,496,-832,2,25,-4
8185,-1808,488,-824,2,27,-1
8190,-1832,472,-840,3,29,-1
8195,-1816,464,-872,5,28,1
8200,-1800,480,-856,5,27,0
8205,-1808,488,-888,5,27,4
8210,-1776,472,-864,8,30,5
8215,-1800,504,-832,8,33,6
8220,-1800,488,-856,7,35,8
8225,-1752,472,-824,8,36,9
8230,-1768,496,-856,8,38,10
8235,-1784,488,-840,7,40,13
8240,-1768,504,-872,6,42,14
8245,-1784,496,-856,3,45,13
8250,-1768,480,-872,1,48,15
8255,-1768,496,-832,-2,52,15
8260,-1784,504,-832,-3,56,16
8265,-1752,480,-848,-4,59,15
8270,-1760,488,-840,-6,60,17
8275,-1776,504,-864,-6,63,15
8280,-1760,496,-840,-8,66,14
8285,-1776,496,-832,-10,70,14
8290,-1768,504,-864,-12,71,15
8295,-1800,504,-864,-15,74,14
8300,-1784,496,-848,-15,73,13
8305,-1752,512,-832,-20,72,12
8310,-1768,528,-872,-25,73,10
8315,-1792,528,-880,-29,73,10
8320,-1776,504,-864,-30,70,9
8325,-1800,512,-840,-34,68,8
8330,-1768,520,-864,-37,67,9
8335,-1784,496,-872,-37,68,11
8340,-1776,520,-848,-33,68,13
8345,-1776,520,-840,-30,69,17
8350,-1904,512,-824,-27,68,19
8355,-1752,488,-848,-22,58,16
8360,-1800,512,-856,-24,57,15
8365,-1800,536,-888,-18,62,18
8370,-1768,520,-872,-11,67,22
8375,-1776,536,-880,-3,72,24
8380,-1832,544,-888,1,76,26
8385,-1816,520,-864,3,78,26
8390,-1952,496,-848,5,80,24
8395,-1816,496,-864,4,72,19
8400,-1808,512,-896,-2,70,12
8405,-1800,528,-912,-1,74,8
8410,-1768,552,-912,5,78,7
8415,-1752,584,-912,9,83,9
8420,-1768,576,-912,12,88,12
8425,-1792,560,-904,15,89,17
8430,-1768,560,-920,16,88,17
8435,-1832,576,-888,14,85,17
8440,-1800,568,-880,13,81,16
8445,-1824,544,-888,12,78,15
8450,-1848,520,-808,13,71,15
8455,-1760,544,-888,11,53,3
8460,-1752,544,-928,7,54,-1
8465,-1704,568,-912,16,59,3
8470,-1728,568,-928,27,65,12
8475,-1752,600,-904,36,69,22
8480,-1752,592,-904,38,69,30
8485,-1768,576,-880,36,68,33
8490,-1768,584,-904,33,64,35
8495,-1744,560,-856,28,60,32
8500,-1776,576,-872,24,56,30
8505,-1768,568,-848,22,54,28
8510,-1752,568,-872,20,53,28
8515,-1744,552,-872,20,50,28
8520,-1752,544,-864,18,49,25
8525,-1752,552,-880,19,49,24
8530,-1760,584,-904,18,49,21
8535,-1776,576,-880,18,48,21
8540,-1776,576,-896,18,47,20
8545,-1768,560,-864,18,46,16
8550,-1776,568,-888,21,44,15
8555,-1776,552,-856,23,45,12
8560,-1776,560,-880,26,45,10
8565,-1760,576,-888,27,45,7
8570,-1752,544,-920,29,45,4
8575,-1768,552,-904,32,44,4
8580,-1776,576,-888,35,44,1
8585,-1768,568,-912,35,40,-2
8590,-1760,600,-912,36,37,-2
8595,-1784,560,-872,36,35,0
8600,-1792,552,-888,36,32,-5
8605,-1776,592,-912,36,26,-8
8610,-1800,584,-864,35,25,-7
8615,-1784,560,-896,34,24,-11
8620,-1792,584,-896,33,21,-14
8625,-1768,592,-896,31,19,-16
8630,-1792,584,-904,29,18,-17
8635,-1776,560,-872,28,18,-19
8640,-1784,568,-888,27,15,-20
8645,-1776,568,-880,24,11,-20
8650,-1752,568,-912,24,10,-22
8655,-1752,552,-904,21,7,-21
8660,-1776,536,-880,22,5,-20
8665,-1752,536,-888,19,2,-20
8670,-1728,536,-872,19,-1,-23
8675,-1768,568,-880,18,0,-21
8680,-1768,528,-880,18,0,-21
8685,-1776,544,-896,19,-2,-21
8690,-1768,528,-880,19,-3,-23
8695,-1760,520,-872,19,-4,-23
8700,-1776,520,-888,22,-4,-22
8705,-1768,544,-872,26,-6,-22
8710,-1752,520,-888,26,-6,-22
8715,-1752,520,-872,28,-4,-21
8720,-1760,528,-888,33,-3,-20
8725,-1736,520,-912,34,-4,-19
8730,-1776,520,-912,35,-2,-17
8735,-1752,536,-880,39,-2,-16
8740,-1768,544,-888,40,-1,-14
8745,-1768,528,-864,39,-1,-12
8750,-1752,544,-856,38,-2,-10
8755,-1768,536,-856,36,-2,-7
8760,-1752,536,-856,35,-1,-5
8765,-1760,544,-880,34,2,-4
8770,-1752,528,-848,30,3,-4
8775,-1752,520,-832,29,4,-1
8780,-1768,544,-872,28,8,-2
8785,-1776,536,-872,27,9,0
8790,-1776,536,-880,25,11,1
8795,-1752,536,-880,28,14,1
8800,-1784,552,-840,26,18,1
8805,-1760,528,-856,27,19,4
8810,-1776,544,-872,27,22,5
8815,-1768,536,-864,27,22,3
8820,-1784,528,-864,28,24,4
8825,-1784,560,-880,29,25,6
8830,-1760,520,-856,30,26,9
8835,-1776,544,-888,31,25,9
8840,-1776,520,-872,32,26,11
8845,-1776,536,-872,34,26,11
8850,-1792,560,-840,35,26,12
8855,-1744,544,-872,37,28,10
8860,-1792,528,-896,38,28,10
8865,-1776,536,-864,38,27,10
8870,-1760,536,-880,40,27,11
8875,-1800,576,-872,40,29,10
8880,-1768,536,-888,40,29,8
8885,-1760,552,-880,40,29,12
8890,-1768,560,-848,40,31,11
8895,-1760,544,-880,41,30,8
8900,-1760,560,-880,39,28,8
8905,-1784,560,-872,39,28,7
8910,-1760,568,-896,40,30,6
8915,-1744,544,-896,41,32,9
8920,-1744,544,-904,43,30,8
8925,-1776,560,-872,43,30,8
8930,-1760,560,-888,43,29,6
8935,-1776,552,-848,41,28,5
8940,-1760,560,-896,42,29,4
8945,-1792,560,-904,42,29,6
8950,-1704,568,-888,41,29,6
8955,-1752,544,-872,40,31,10
8960,-1760,544,-880,41,31,8
8965,-1760,536,-904,39,30,6
8970,-1760,552,-912,36,28,6
8975,-1744,552,-888,35,29,5
8980,-1752,568,-856,34,30,6
8985,-1736,544,-896,32,30,6
8990,-1776,560,-912,33,32,11
8995,-1760,568,-872,32,33,12
9000,-1744,560,-856,33,31,8
9005,-1720,576,-880,31,31,7
9010,-1768,544,-912,32,33,10
9015,-1784,560,-872,34,34,7
9020,-1760,552,-864,36,31,5
9025,-1760,552,-920,35,33,7
9030,-1776,576,-880,36,32,4
9035,-1800,584,-880,35,28,2
9040,-1760,568,-888,34,27,2
9045,-1792,576,-880,35,27,4
9050,-1768,544,-864,36,26,2
9055,-1776,560,-888,38,22,-1
9060,-1792,576,-880,38,21,2
9065,-1744,544,-888,41,23,3
9070,-1768,544,-888,44,23,5
9075,-1760,576,-880,48,20,4
9080,-1776,552,-896,48,18,2
9085,-1736,592,-920,46,20,3
9090,-1784,576,-920,45,20,4
9095,-1760,576,-856,47,17,4
9100,-1784,584,-896,43,14,0
9105,-1760,592,-888,41,15,1
9110,-1704,592,-904,38,17,2
9115,-1784,568,-904,37,19,3
9120,-1752,568,-888,38,16,0
9125,-1768,568,-856,37,14,-2
9130,-1696,552,-888,35,14,-3
9135,-1752,576,-888,36,18,0
9140,-1784,560,-880,38,18,-3
9145,-1760,560,-904,38,19,-3
9150,-1712,584,-864,36,21,-4
9155,-1768,560,-856,39,24,-2
9160,-1768,552,-880,38,23,-1
9165,-1728,576,-872,38,23,1
9170,-1752,592,-896,35,26,3
9175,-1768,576,-872,36,29,6
9180,-1760,568,-888,37,27,5
9185,-1768,584,-904,35,28,6
9190,-1776,584,-888,35,31,6
9195,-1736,592,-880,35,30,5
9200,-1768,584,-880,36,32,6
9205,-1712,568,-880,34,30,6
9210,-1752,552,-896,33,31,9
9215,-1744,568,-904,33,32,6
9220,-1776,584,-880,34,33,6
9225,-1720,576,-912,32,33,4
9230,-1768,592,-872,29,33,6
9235,-1752,560,-912,27,33,1
9240,-1768,592,-904,24,35,2
9245,-1736,576,-896,22,34,-1
9250,-1776,568,-872,19,35,-1
9255,-1736,560,-872,15,34,-5
9260,-1744,560,-912,12,34,-6
9265,-1768,560,-888,9,34,-8
9270,-1784,568,-848,9,34,-9
9275,-1784,584,-888,7,32,-11
9280,-1776,584,-920,5,28,-13
9285,-1760,552,-896,4,26,-16
9290,-1768,560,-904,3,26,-15
9295,-1784,584,-880,3,28,-17
9300,-1760,552,-896,3,24,-20
9305,-1752,528,-896,2,23,-21
9310,-1800,560,-896,4,24,-21
9315,-1744,560,-864,5,23,-24
9320,-1760,576,-928,5,20,-21
9325,-1760,576,-896,6,20,-22
9330,-1760,568,-880,9,19,-19
9335,-1744,568,-880,13,18,-20
9340,-1768,560,-880,15,17,-22
9345,-1760,568,-896,19,17,-20
9350,-1792,568,-880,23,18,-22
9355,-1760,552,-888,25,19,-21
9360,-1744,552,-880,27,19,-20
9365,-1768,568,-880,28,18,-21
9370,-1760,568,-896,31,19,-20
9375,-1760,584,-872,31,19,-20
9380,-1736,552,-880,30,20,-19
9385,-1760,568,-912,30,21,-19
9390,-1760,552,-880,29,22,-17
9395,-1760,552,-888,28,22,-18
9400,-1768,552,-880,26,20,-17
9405,-1776,584,-872,26,21,-15
9410,-1744,536,-872,26,22,-15
9415,-1784,576,-864,26,23,-12
9420,-1752,576,-880,26,22,-12
9425,-1744,568,-912,27,24,-13
9430,-1776,592,-896,26,23,-12
9435,-1744,584,-888,26,24,-11
9440,-1760,576,-880,25,22,-9
9445,-1744,560,-856,24,23,-9
9450,-1752,568,-912,24,24,-9
9455,-1760,592,-904,25,25,-8
9460,-1760,560,-888,26,26,-8
9465,-1752,568,-896,25,26,-11
9470,-1736,552,-880,27,28,-8
9475,-1760,560,-880,27,28,-7
9480,-1736,560,-904,30,28,-8
9485,-1744,560,-928,31,29,-9
9490,-1760,552,-880,33,29,-9
9495,-1744,584,-904,35,29,-6
9500,-1744,560,-864,36,30,-5
9505,-1752,592,-896,36,29,-6
9510,-1760,568,-880,35,27,-6
9515,-1760,584,-912,34,27,-7
9520,-1760,576,-904,35,27,-8
9525,-1768,576,-920,34,27,-9
9530,-1768,592,-912,34,28,-8
9535,-1752,584,-920,33,28,-11
9540,-1744,576,-880,32,28,-11
9545,-1760,576,-920,32,28,-10
9550,-1768,584,-896,32,28,-10
9555,-1768,600,-904,33,29,-8
9560,-1768,584,-920,33,28,-11
9565,-1744,584,-912,31,27,-11
9570,-1776,584,-880,32,27,-12
9575,-1760,584,-896,30,26,-13
9580,-1744,584,-888,30,25,-13
9585,-1752,600,-888,30,28,-15
9590,-1736,584,-872,31,27,-14
9595,-1768,568,-896,31,26,-14
9600,-1744,576,-872,29,26,-16
9605,-1768,592,-880,27,26,-18
9610,-1784,592,-896,27,25,-17
9615,-1760,592,-880,28,25,-16
9620,-1752,560,-864,27,24,-17
9625,-1752,568,-904,28,23,-17
9630,-1744,584,-904,29,25,-16
9635,-1752,576,-880,28,25,-17
9640,-1760,568,-888,28,24,-18
9645,-1752,584,-880,27,25,-18
9650,-1752,584,-888,28,24,-18
9655,-1768,592,-888,27,25,-17
9660,-1760,568,-920,28,25,-16
9665,-1768,560,-904,29,24,-16
9670,-1760,552,-896,29,24,-17
9675,-1760,600,-856,29,24,-18
9680,-1760,560,-888,30,23,-16
9685,-1776,592,-912,32,22,-17
9690,-1768,592,-888,32,22,-17
9695,-1776,608,-888,33,23,-16
9700,-1760,592,-888,33,25,-15
9705,-1760,576,-920,32,24,-16
9710,-1744,568,-896,30,25,-16
9715,-1760,552,-888,30,25,-15
9720,-1752,544,-888,30,25,-13
9725,-1736,544,-904,30,25,-12
9730,-1752,552,-904,31,26,-12
9735,-1744,568,-904,32,28,-10
9740,-1752,584,-904,34,27,-10
9745,-1744,584,-896,32,27,-9
9750,-1744,560,-896,31,27,-9
9755,-1744,560,-872,30,25,-8
9760,-1760,584,-920,27,24,-8
9765,-1728,552,-896,26,22,-8
9770,-1744,584,-904,25,22,-9
9775,-1760,568,-904,24,22,-11
9780,-1736,584,-904,21,21,-11
9785,-1728,568,-912,20,23,-12
9790,-1744,568,-904,21,23,-12
9795,-1768,568,-848,23,24,-12
9800,-1736,560,-864,24,24,-10
9805,-1744,568,-896,26,25,-10
9810,-1752,552,-880,28,24,-10
9815,-1744,576,-880,31,25,-8
9820,-1720,568,-880,34,24,-7
9825,-1752,568,-936,36,24,-7
9830,-1768,576,-904,38,25,-4
9835,-1752,568,-912,40,22,-3
9840,-1760,576,-888,41,21,-4
9845,-1744,576,-896,40,21,-3
9850,-1752,568,-944,39,20,-1
9855,-1760,600,-864,38,20,-1
9860,-1752,576,-904,38,18,-1
9865,-1752,584,-912,36,17,-1
9870,-1728,576,-880,36,15,-3
9875,-1776,592,-904,36,17,-1
9880,-1744,576,-904,38,12,-3
9885,-1752,560,-904,36,13,-3
9890,-1704,584,-904,33,14,-5
9895,-1744,552,-936,35,16,-1
9900,-1752,552,-888,37,16,-2
9905,-1736,584,-912,37,14,-4
9910,-1776,584,-904,37,14,-7
9915,-1768,592,-912,37,14,-6
9920,-1744,584,-920,37,16,-6
9925,-1760,576,-912,37,18,-3
9930,-1752,552,-888,39,17,-4
9935,-1744,584,-864,40,15,-7
9940,-1776,584,-912,38,14,-8
9945,-1752,576,-888,39,14,-6
9950,-1744,584,-904,40,13,-8
9955,-1736,568,-896,38,14,-9
9960,-1744,576,-912,39,14,-8
9965,-1768,552,-904,41,15,-3
9970,-1792,560,-856,42,11,-4
9975,-1712,576,-864,41,8,-6
9980,-1744,576,-888,42,9,-4
9985,-1776,592,-888,42,11,-4
9990,-1736,552,-880,43,11,-4
9995,-1752,584,-896,43,10,-6
10000,-1736,584,-880,43,10,-5
10005,-1784,560,-904,44,13,-2
10010,-1744,576,-904,45,13,-3
10015,-1760,576,-880,44,10,-4
10020,-1760,568,-880,43,8,-5
10025,-1752,584,-896,44,9,-7
10030,-1744,592,-888,43,10,-7
10035,-1760,576,-920,44,14,-5
10040,-1760,576,-880,45,14,-7
10045,-1752,584,-880,45,12,-7
10050,-1768,600,-888,44,12,-7
10055,-1752,600,-904,43,13,-5
10060,-1752,584,-872,42,14,-6
10065,-1744,576,-888,40,14,-5
10070,-1744,584,-864,40,14,-6
10075,-1744,584,-856,40,16,-3
10080,-1704,640,-928,41,17,-3
10085,-1744,600,-864,42,16,-5
10090,-1760,576,-880,42,13,-5
10095,-1752,584,-904,40,15,-7
10100,-1736,584,-888,40,17,-8
10105,-1744,592,-880,39,17,-5
10110,-1744,560,-896,40,17,-6
10115,-1776,592,-864,39,18,-7
10120,-1752,600,-896,38,19,-7
10125,-1752,584,-912,40,19,-8
10130,-1768,584,-888,40,18,-8
10135,-1768,592,-888,41,18,-7
10140,-1760,576,-888,40,17,-8
10145,-1744,552,-888,43,16,-7
10150,-1768,608,-896,43,18,-8
10155,-1768,592,-904,42,18,-6
10160,-1752,600,-904,42,18,-8
10165,-1744,600,-928,41,19,-10
10170,-1720,592,-912,42,19,-9
10175,-1736,568,-888,42,22,-5
10180,-1768,584,-912,45,19,-6
10185,-1752,584,-896,44,18,-9
10190,-1752,576,-856,41,19,-10
10195,-1760,584,-896,41,18,-10
10200,-1720,584,-920,41,19,-10
10205,-1760,576,-896,42,21,-12
10210,-1736,592,-864,41,19,-11
10215,-1728,592,-920,41,20,-12
10220,-1736,584,-920,41,20,-11
10225,-1744,592,-904,40,20,-12
10230,-1752,576,-872,37,21,-12
10235,-1744,584,-896,37,23,-12
10240,-1776,560,-928,37,21,-12
10245,-1744,736,-968,36,22,-14
10250,-1760,520,-952,36,20,-14
10255,-1744,608,-960,37,17,-14
10260,-1864,528,-808,39,17,-14
10265,-1648,608,-904,39,17,-13
10270,-1744,608,-904,38,17,-14
10275,-1744,568,-912,39,17,-12
10280,-1752,544,-904,39,15,-13
10285,-1752,584,-904,40,13,-12
10290,-1752,616,-936,43,12,-11
10295,-1768,576,-904,44,13,-10
10300,-1752,600,-920,46,10,-9
10305,-1720,568,-896,48,10,-10
10310,-1728,592,-896,50,13,-8
10315,-1776,608,-896,53,12,-7
10320,-1752,576,-896,55,9,-9
10325,-1768,608,-904,53,8,-9
10330,-1768,576,-904,52,6,-10
10335,-1760,592,-888,50,8,-11
10340,-1728,552,-912,48,6,-10
10345,-1736,568,-864,48,9,-8
10350,-1744,552,-888,47,11,-6
10355,-1776,584,-888,47,9,-7
10360,-1752,560,-864,46,7,-5
10365,-1744,568,-896,46,5,-7
10370,-1728,560,-880,46,6,-6
10375,-1720,592,-904,47,8,-6
10380,-1768,592,-864,48,11,0
10385,-1744,568,-904,48,8,-1
10390,-1744,592,-896,46,6,-3
10395,-1736,592,-880,44,7,-4
10400,-1752,576,-896,44,8,-4
10405,-1736,592,-872,42,10,-5
10410,-1744,584,-896,43,7,-5
10415,-1728,568,-880,43,8,-5
10420,-1768,592,-880,44,11,-1
10425,-1760,592,-888,44,9,-4
10430,-1760,600,-888,43,9,-5
10435,-1776,592,-888,42,11,-6
10440,-1728,576,-928,44,11,-5
10445,-1752,576,-896,47,19,0
10450,-1768,600,-896,50,20,-4
10455,-1760,568,-888,50,17,-4
10460,-1760,608,-904,49,17,-5
10465,-1768,584,-904,48,17,-4
10470,-1736,576,-880,49,18,-4
10475,-1752,624,-912,49,17,-4
10480,-1752,584,-920,48,18,-4
10485,-1784,608,-872,51,17,0
10490,-1768,576,-872,51,18,0
10495,-1768,608,-904,51,14,-3
10500,-1768,600,-864,50,13,-5
10505,-1776,608,-920,49,14,-6
10510,-1760,592,-888,49,14,-5
10515,-1744,592,-904,50,16,-5
10520,-1760,576,-888,48,14,-7
10525,-1776,600,-896,48,13,-7
10530,-1752,600,-888,46,13,-8
10535,-1752,592,-888,46,13,-8
10540,-1744,600,-904,44,12,-9
10545,-1776,600,-904,42,13,-10
10550,-1728,584,-920,43,13,-9
10555,-1744,592,-888,44,13,-9
10560,-1728,576,-896,43,13,-9
10565,-1728,560,-896,44,13,-9
10570,-1728,592,-896,45,14,-8
10575,-1744,584,-904,45,13,-8
10580,-1736,576,-888,44,14,-9
10585,-1752,600,-920,43,14,-10
10590,-1760,600,-880,41,15,-9
10595,-1760,584,-904,41,13,-10
10600,-1712,560,-864,43,11,-8
10605,-1760,552,-904,44,14,-5
10610,-1728,600,-888,49,12,-6
10615,-1752,560,-888,47,11,-6
10620,-1760,584,-888,46,12,-5
10625,-1744,576,-880,45,14,-6
10630,-1760,584,-920,47,14,-4
10635,-1760,600,-936,48,14,-5
10640,-1752,592,-872,46,15,-8
10645,-1728,624,-880,45,14,-9
10650,-1736,584,-864,45,17,-5
10655,-1768,616,-880,43,18,-4
10660,-1776,576,-864,44,14,-3
10665,-1784,600,-872,42,13,-7
10670,-1744,592,-888,39,14,-7
10675,-1760,600,-872,36,17,-8
10680,-1768,584,-872,36,17,-10
10685,-1728,568,-912,35,19,-9
10690,-1752,592,-904,34,18,-9
10695,-1744,568,-912,34,18,-9
10700,-1760,584,-896,34,18,-11
10705,-1760,584,-904,35,18,-12
10710,-1752,568,-896,37,19,-10
10715,-1760,568,-904,40,18,-9
10720,-1744,576,-880,42,17,-9
10725,-1760,600,-888,44,18,-9
10730,-1760,608,-896,45,18,-8
10735,-1744,576,-864,46,19,-6
10740,-1760,600,-872,47,18,-6
10745,-1744,600,-888,48,18,-5
10750,-1760,608,-880,47,19,-4
10755,-1760,592,-864,46,20,-6
10760,-1736,576,-888,46,19,-3
10765,-1760,600,-904,45,19,-4
10770,-1744,592,-880,43,21,-7
10775,-1744,592,-888,40,21,-6
10780,-1752,576,-880,39,22,-8
10785,-1768,624,-896,37,22,-10
10790,-1736,632,-896,37,21,-8
10795,-1776,584,-896,36,20,-9
10800,-1736,600,-896,36,21,-9
10805,-1736,552,-920,35,21,-8
10810,-1760,600,-904,34,21,-8
10815,-1744,592,-888,35,22,-8
10820,-1752,576,-880,35,22,-10
10825,-1744,584,-896,37,22,-10
10830,-1752,568,-896,38,23,-9
10835,-1736,568,-896,37,24,-11
10840,-1768,592,-904,37,24,-10
10845,-1744,560,-880,37,23,-9
10850,-1760,592,-896,37,24,-9
10855,-1752,592,-904,37,24,-10
10860,-1736,576,-872,37,22,-13
10865,-1760,592,-872,38,22,-9
10870,-1744,608,-896,38,22,-11
10875,-1736,568,-880,38,24,-11
10880,-1760,584,-864,39,24,-13
10885,-1760,592,-880,41,24,-14
10890,-1744,592,-888,42,24,-13
10895,-1744,600,-880,43,25,-14
10900,-1776,600,-904,44,25,-14
10905,-1736,600,-896,44,21,-14
10910,-1720,576,-920,45,21,-12
10915,-1768,576,-920,47,23,-11
10920,-1760,584,-904,47,23,-12
10925,-1752,576,-896,49,23,-13
10930,-1744,560,-872,52,20,-12
10935,-1736,560,-896,56,20,-10
10940,-1736,584,-888,57,17,-12
10945,-1776,600,-912,60,16,-12
10950,-1744,592,-912,61,16,-12
10955,-1768,592,-928,60,15,-12
10960,-1752,608,-896,60,16,-14
10965,-1752,616,-920,60,15,-14
10970,-1752,592,-904,59,16,-14
10975,-1752,600,-888,56,18,-14
10980,-1752,600,-896,53,17,-13
10985,-1736,568,-880,53,19,-13
10990,-1736,584,-880,53,19,-14
10995,-1752,592,-888,52,17,-13
11000,-1736,584,-896,54,18,-13
11005,-1720,584,-920,54,18,-12
11010,-1736,584,-912,56,17,-12
11015,-1752,576,-904,54,16,-13
11020,-1760,592,-888,54,16,-14
11025,-1760,584,-904,51,16,-13
11030,-1744,584,-920,50,16,-15
11035,-1744,592,-904,49,16,-15
11040,-1768,608,-896,49,16,-17
11045,-1752,584,-856,48,18,-17
11050,-1752,600,-864,49,17,-17
11055,-1744,592,-904,50,17,-18
11060,-1768,592,-896,50,18,-17
11065,-1760,592,-928,51,19,-17
11070,-1752,600,-888,52,23,-17
11075,-1736,568,-904,53,23,-18
11080,-1728,576,-912,54,24,-17
11085,-1744,568,-888,53,23,-18
11090,-1760,608,-888,51,21,-16
11095,-1752,584,-880,52,21,-13
11100,-1760,608,-880,49,21,-13
11105,-1752,584,-896,46,21,-13
11110,-1752,600,-896,46,21,-15
11115,-1744,600,-912,48,20,-17
11120,-1752,576,-904,47,20,-14
11125,-1744,600,-896,46,21,-14
11130,-1768,592,-928,47,21,-12
11135,-1768,592,-896,47,21,-14
11140,-1760,600,-872,46,22,-15
11145,-1752,568,-872,46,19,-18
11150,-1720,552,-912,44,20,-17
11155,-1736,584,-888,43,22,-19
11160,-1736,576,-896,43,22,-21
11165,-1784,608,-952,45,21,-21
11170,-1752,584,-888,43,22,-22
11175,-1736,576,-896,42,23,-21
11180,-1768,616,-888,40,23,-22
11185,-1728,584,-888,37,23,-21
11190,-1736,584,-904,32,24,-23
11195,-1752,616,-896,26,23,-21
11200,-1744,616,-896,22,23,-23
11205,-1760,624,-880,17,23,-23
11210,-1736,608,-880,13,23,-23
11215,-1760,608,-872,11,24,-23
11220,-1736,600,-896,9,25,-24
11225,-1752,584,-912,11,27,-25
11230,-1704,584,-888,15,28,-27
11235,-1760,560,-904,18,30,-26
11240,-1736,560,-936,23,32,-26
11245,-1752,528,-912,28,34,-25
11250,-1744,560,-912,33,34,-25
11255,-1752,568,-920,38,33,-22
11260,-1728,552,-896,40,33,-22
11265,-1752,576,-880,41,34,-19
11270,-1760,584,-912,41,31,-18
11275,-1728,584,-896,39,29,-18
11280,-1752,584,-904,37,31,-20
11285,-1752,592,-912,39,31,-21
11290,-1744,584,-912,37,31,-19
11295,-1736,592,-904,34,30,-20
11300,-1736,592,-896,33,29,-19
11305,-1768,600,-896,30,29,-19
11310,-1728,584,-912,27,28,-20
11315,-1768,584,-888,28,29,-20
11320,-1744,584,-888,28,30,-22
11325,-1776,568,-880,30,33,-21
11330,-1744,600,-880,31,35,-23
11335,-1760,544,-912,35,36,-26
11340,-1760,584,-904,36,36,-24
11345,-1768,576,-896,40,38,-22
11350,-1736,592,-896,41,36,-23
11355,-1752,552,-888,42,37,-20
11360,-1752,576,-920,43,36,-22
11365,-1760,560,-872,43,37,-20
11370,-1744,584,-896,43,35,-21
11375,-1768,600,-904,45,34,-19
11380,-1752,576,-896,44,31,-22
11385,-1752,608,-896,43,29,-20
11390,-1744,608,-904,42,29,-21
11395,-1776,608,-920,42,30,-20
11400,-1744,600,-920,42,29,-21
11405,-1760,592,-920,42,28,-21
11410,-1776,568,-928,43,29,-21
11415,-1744,576,-928,47,29,-24
11420,-1744,592,-920,48,29,-23
11425,-1736,592,-912,51,30,-22
11430,-1736,584,-912,51,27,-23
11435,-1744,568,-912,51,26,-20
11440,-1728,576,-896,51,22,-19
11445,-1736,584,-920,50,20,-17
11450,-1752,552,-888,48,19,-16
11455,-1720,584,-896,48,14,-18
11460,-1720,576,-912,47,16,-16
11465,-1744,568,-864,47,16,-18
11470,-1704,576,-888,46,16,-21
11475,-1736,568,-896,46,18,-22
11480,-1776,576,-904,46,18,-20
11485,-1760,584,-936,46,16,-23
11490,-1752,576,-912,46,19,-20
11495,-1760,592,-936,46,19,-19
11500,-1752,592,-912,45,17,-20
11505,-1768,600,-888,44,18,-18
11510,-1728,584,-872,42,15,-20
11515,-1712,576,-872,38,13,-19
11520,-1776,608,-888,33,14,-19
11525,-1776,608,-872,28,10,-15
11530,-1736,600,-888,23,9,-16
11535,-1720,592,-920,21,10,-16
11540,-1728,576,-944,21,13,-20
11545,-1728,584,-936,22,17,-23
11550,-1736,552,-936,28,22,-22
11555,-1736,560,-920,36,23,-21
11560,-1736,544,-904,41,23,-20
11565,-1752,584,-880,47,21,-19
11570,-1744,592,-920,50,20,-18
11575,-1744,600,-904,52,16,-15
11580,-1776,592,-912,52,15,-14
11585,-1760,592,-920,52,13,-12
11590,-1736,576,-920,52,13,-13
11595,-1744,568,-944,48,12,-13
11600,-1720,560,-904,47,11,-14
11605,-1736,592,-904,44,11,-10
11610,-1752,576,-880,42,10,-10
11615,-1744,568,-896,40,8,-9
11620,-1728,560,-912,36,8,-6
11625,-1736,568,-912,37,8,-6
11630,-1720,544,-904,39,9,-4
11635,-1736,552,-920,40,10,-4
11640,-1744,584,-880,41,9,-5
11645,-1752,576,-880,42,8,-4
11650,-1736,568,-928,43,8,-2
11655,-1704,560,-904,44,7,-1
11660,-1744,568,-896,44,8,0
11665,-1704,552,-880,44,10,-1
11670,-1760,576,-912,45,10,-1
11675,-1760,576,-904,46,13,-2
11680,-1736,552,-904,47,13,1
11685,-1752,592,-896,48,13,2
11690,-1744,592,-944,49,11,3
11695,-1752,568,-944,50,14,2
11700,-1760,584,-928,52,15,3
11705,-1752,592,-944,53,14,4
11710,-1744,568,-920,54,13,5
11715,-1744,552,-928,56,12,6
11720,-1744,600,-920,55,10,8
11725,-1728,592,-896,53,6,11
11730,-1768,584,-928,53,3,13
11735,-1728,584,-904,51,-1,14
11740,-1728,600,-920,50,-4,14
11745,-1752,584,-912,49,-4,15
11750,-1728,592,-944,50,-6,12
11755,-1776,584,-896,51,-4,11
11760,-1728,560,-912,52,-2,10
11765,-1744,576,-904,53,-1,9
11770,-1776,600,-856,54,0,7
11775,-1744,608,-904,51,0,8
11780,-1752,592,-896,50,2,7
11785,-1744,584,-864,47,2,7
11790,-1768,584,-888,43,1,7
11795,-1728,600,-904,40,-1,6
11800,-1720,600,-928,39,4,6
11805,-1704,576,-952,43,11,4
11810,-1752,552,-936,46,18,1
11815,-1744,584,-912,47,18,1
11820,-1744,568,-896,49,18,0
11825,-1768,584,-896,51,16,0
11830,-1728,600,-920,53,12,0
11835,-1728,584,-904,52,10,0
11840,-1744,576,-896,52,12,3
11845,-1744,616,-872,49,11,-1
11850,-1744,592,-912,49,8,-2
11855,-1736,584,-928,50,6,-2
11860,-1744,576,-928,50,7,0
11865,-1744,600,-936,50,7,1
11870,-1736,584,-920,51,5,0
11875,-1736,584,-920,51,4,0
11880,-1760,592,-896,54,8,2
11885,-1744,592,-920,56,8,2
11890,-1696,592,-912,58,7,3
11895,-1776,584,-912,63,10,3
11900,-1776,584,-880,63,9,0
11905,-1736,608,-896,62,7,2
11910,-1760,576,-904,61,7,3
11915,-1744,608,-880,60,5,2
11920,-1752,592,-896,56,4,2
11925,-1720,576,-936,54,7,3
11930,-1744,592,-912,52,8,-1
11935,-1760,600,-880,50,5,-1
11940,-1728,584,-904,48,5,-3
11945,-1688,592,-904,49,7,-4
11950,-1760,560,-912,50,12,1
11955,-1776,592,-872,52,11,-2
11960,-1752,576,-904,53,9,-1
11965,-1728,576,-920,55,11,2
11970,-1728,584,-928,57,12,1
11975,-1752,592,-904,57,9,0
11980,-1720,592,-880,56,11,4
11985,-1744,608,-888,54,12,4
11990,-1744,608,-872,52,9,1
11995,-1736,600,-888,48,11,4
12000,-1744,616,-888,46,12,3
12005,-1760,592,-896,43,12,1
12010,-1752,584,-888,41,15,2
12015,-1752,584,-912,41,17,1
12020,-1760,600,-904,42,15,-1
12025,-1760,608,-912,41,13,-1
12030,-1736,592,-880,40,12,-2
12035,-1736,616,-920,36,12,-2
12040,-1680,616,-920,34,12,-2
12045,-1752,592,-920,32,14,1
12050,-1736,616,-848,31,13,2
12055,-1760,616,-880,30,10,2
12060,-1760,600,-896,29,10,-1
12065,-1720,568,-920,32,15,-2
12070,-1752,568,-928,38,18,-6
12075,-1760,592,-920,42,21,-6
12080,-1680,576,-888,44,22,-7
12085,-1752,584,-912,48,24,0
12090,-1752,576,-872,53,22,-3
12095,-1752,600,-888,52,17,-1
12100,-1736,576,-896,49,16,-2
12105,-1720,592,-936,46,15,-4
12110,-1744,576,-920,45,17,-5
12115,-1728,600,-904,45,17,-5
12120,-1744,584,-920,46,20,-3
12125,-1744,584,-896,47,20,-4
12130,-1760,584,-912,48,15,-4
12135,-1768,592,-912,48,13,-4
12140,-1728,592,-912,47,14,-6
12145,-1760,608,-912,48,15,-7
12150,-1728,584,-912,49,15,-6
12155,-1760,592,-928,50,14,-7
12160,-1736,576,-920,50,15,-6
12165,-1728,560,-888,51,17,-2
12170,-1752,568,-912,54,19,0
12175,-1760,592,-912,58,15,-3
12180,-1736,568,-912,59,12,-4
12185,-1744,600,-872,60,16,-2
12190,-1760,600,-888,62,15,-4
12195,-1760,592,-872,64,12,-6
12200,-1744,576,-872,64,10,-5
12205,-1736,584,-912,63,11,-4
12210,-1768,624,-880,61,12,-5
12215,-1760,592,-912,63,10,-6
12220,-1736,568,-920,60,9,-8
12225,-1704,600,-936,60,10,-8
12230,-1760,560,-928,59,13,-4
12235,-1768,592,-904,61,10,-3
12240,-1744,600,-928,60,8,-2
12245,-1752,600,-904,56,6,-1
12250,-1736,624,-896,54,6,-1
12255,-1728,592,-912,51,5,-2
12260,-1728,576,-912,50,7,1
12265,-1752,592,-896,50,8,-3
12270,-1752,576,-864,53,5,-5
12275,-1696,624,-912,52,4,-3
12280,-1744,584,-896,52,7,-3
12285,-1752,624,-872,52,6,-2
12290,-1744,592,-888,49,3,-3
12295,-1744,608,-912,46,2,-3
12300,-1744,624,-888,44,3,-4
12305,-1752,608,-912,42,5,-3
12310,-1736,584,-904,40,6,-4
12315,-1776,616,-896,39,8,-6
12320,-1752,600,-920,41,10,-7
12325,-1744,592,-904,43,13,-9
12330,-1760,608,-896,44,16,-10
12335,-1744,608,-880,48,19,-11
12340,-1728,600,-880,49,19,-9
12345,-1752,616,-896,49,17,-7
12350,-1744,616,-880,50,16,-6
12355,-1760,616,-888,50,16,-5
12360,-1752,600,-904,48,13,-4
12365,-1736,600,-912,47,13,-4
12370,-1736,600,-904,46,12,-5
12375,-1728,576,-928,47,13,-8
12380,-1752,560,-936,50,16,-8
12385,-1712,584,-920,54,18,-8
12390,-1744,576,-912,61,19,-3
12395,-1760,592,-888,66,19,-5
12400,-1760,600,-896,70,14,-3
12405,-1744,584,-872,68,13,-6
12410,-1768,632,-880,62,10,-7
12415,-1744,616,-912,58,10,-5
12420,-1744,624,-896,56,10,-4
12425,-1744,632,-912,53,9,-6
12430,-1752,624,-912,47,11,-8
12435,-1760,608,-912,44,12,-8
12440,-1728,576,-904,42,13,-9
12445,-1752,592,-920,41,13,-10
12450,-1728,592,-872,42,14,-9
12455,-1712,584,-896,45,15,-9
12460,-1712,544,-896,49,17,-4
12465,-1760,568,-904,53,15,-7
12470,-1752,592,-920,56,12,-7
12475,-1760,608,-912,55,11,-9
12480,-1736,584,-896,53,12,-6
12485,-1736,584,-904,53,14,-3
12490,-1752,592,-912,54,12,-3
12495,-1728,600,-904,54,9,-5
12500,-1744,608,-896,52,11,-7
12505,-1760,584,-912,50,14,-6
12510,-1768,616,-864,50,10,-6
12515,-1760,608,-872,47,8,-5
12520,-1776,600,-888,42,7,-7
12525,-1752,616,-896,38,7,-7
12530,-1752,608,-888,36,7,-7
12535,-1768,616,-912,32,8,-8
12540,-1736,640,-888,29,9,-7
12545,-1760,600,-896,29,12,-6
12550,-1752,600,-904,30,11,-8
12555,-1736,568,-912,33,13,-9
12560,-1776,584,-904,35,16,-10
12565,-1728,552,-888,37,19,-10
12570,-1752,584,-896,41,18,-10
12575,-1776,584,-896,45,18,-10
12580,-1744,584,-896,46,19,-9
12585,-1728,576,-896,48,20,-8
12590,-1752,576,-904,49,20,-8
12595,-1744,600,-904,50,22,-7
12600,-1744,592,-920,49,21,-7
12605,-1744,592,-896,50,22,-7
12610,-1760,600,-928,51,24,-8
12615,-1760,592,-904,51,24,-7
12620,-1752,584,-904,50,23,-7
12625,-1728,592,-888,50,22,-7
12630,-1744,584,-880,51,22,-9
12635,-1736,584,-920,51,23,-10
12640,-1736,576,-896,53,22,-8
12645,-1760,584,-888,54,23,-6
12650,-1736,592,-920,54,21,-7
12655,-1752,608,-880,53,19,-6
12660,-1728,600,-888,52,17,-5
12665,-1736,584,-896,52,18,-4
12670,-1736,608,-928,52,18,-4
12675,-1736,568,-896,54,19,2
12680,-1776,600,-888,55,19,-2
12685,-1760,608,-912,59,15,-2
12690,-1760,616,-920,59,15,-2
12695,-1752,568,-912,56,16,-3
12700,-1736,616,-912,56,15,-6
12705,-1744,592,-928,53,15,-7
12710,-1736,576,-928,52,15,-8
12715,-1736,600,-864,50,14,-8
12720,-1728,600,-912,47,14,-9
12725,-1752,584,-872,46,13,-9
12730,-1744,608,-920,43,11,-8
12735,-1744,608,-904,43,10,-10
12740,-1768,608,-896,44,10,-10
12745,-1752,576,-920,44,9,-10
12750,-1744,600,-904,47,10,-9
12755,-1728,600,-904,49,11,-10
12760,-1752,600,-880,51,11,-11
12765,-1744,600,-912,54,12,-10
12770,-1752,560,-928,54,13,-11
12775,-1760,592,-904,54,14,-11
12780,-1760,584,-880,51,13,-12
12785,-1744,608,-904,48,12,-12
12790,-1752,608,-880,48,15,-14
12795,-1752,616,-888,46,12,-12
12800,-1744,632,-888,44,11,-11
12805,-1736,608,-904,45,11,-11
12810,-1720,592,-904,46,13,-12
12815,-1752,576,-928,50,14,-15
12820,-1760,568,-936,52,17,-18
12825,-1752,608,-904,55,18,-20
12830,-1752,608,-888,58,19,-20
12835,-1736,608,-912,59,18,-18
12840,-1752,592,-888,60,16,-17
12845,-1760,600,-912,59,17,-18
12850,-1752,608,-888,56,15,-18
12855,-1728,600,-920,52,16,-18
12860,-1752,584,-872,51,16,-16
12865,-1744,592,-912,51,16,-17
12870,-1736,584,-904,52,17,-14
12875,-1728,584,-896,52,16,-13
12880,-1728,600,-904,53,16,-14
12885,-1752,584,-912,53,16,-13
12890,-1752,584,-904,52,17,-13
12895,-1752,624,-904,53,19,-13
12900,-1752,592,-904,51,19,-15
12905,-1744,576,-912,49,18,-16
12910,-1736,600,-904,46,19,-17
12915,-1744,584,-880,44,20,-16
12920,-1744,560,-896,43,20,-16
12925,-1752,600,-920,43,19,-17
12930,-1728,560,-888,44,19,-17
12935,-1752,608,-872,43,21,-19
12940,-1752,576,-888,44,23,-20
12945,-1728,592,-880,46,25,-19
12950,-1760,592,-880,45,25,-18
12955,-1720,576,-912,48,26,-18
12960,-1760,608,-888,47,27,-17
12965,-1768,592,-904,49,28,-16
12970,-1760,592,-896,50,28,-14
12975,-1744,592,-912,50,26,-15
12980,-1760,624,-888,50,25,-13
12985,-1760,600,-880,49,24,-13
12990,-1752,592,-904,49,26,-13
12995,-1792,624,-904,49,25,-14
13000,-1768,592,-912,47,23,-17
13005,-1760,592,-936,47,22,-18
13010,-1768,584,-904,45,22,-19
13015,-1752,608,-912,42,21,-19
13020,-1768,608,-928,41,21,-21
13025,-1768,600,-904,40,20,-22
13030,-1736,592,-896,39,19,-23
13035,-1744,584,-912,38,19,-25
13040,-1744,600,-912,37,18,-29
13045,-1752,600,-912,37,18,-27
13050,-1736,608,-920,37,19,-29
13055,-1744,608,-888,38,20,-28
13060,-1728,592,-904,39,21,-30
13065,-1752,600,-888,39,23,-31
13070,-1776,608,-904,41,25,-29
13075,-1736,592,-928,44,27,-31
13080,-1736,592,-920,47,29,-32
13085,-1760,568,-928,50,30,-34
13090,-1720,584,-896,51,31,-34
13095,-1744,592,-912,50,31,-33
13100,-1768,600,-912,50,31,-33
13105,-1744,576,-896,47,29,-33
13110,-1744,608,-912,46,29,-33
13115,-1728,600,-912,43,27,-33
13120,-1736,560,-952,41,27,-32
13125,-1744,584,-920,40,27,-31
13130,-1728,576,-904,40,28,-32
13135,-1744,584,-872,41,25,-31
13140,-1720,592,-896,41,24,-32
13145,-1768,592,-896,40,22,-31
13150,-1760,600,-904,39,23,-30
13155,-1736,608,-920,38,23,-29
13160,-1768,584,-896,39,24,-31
13165,-1736,584,-896,40,23,-31
13170,-1744,576,-904,40,24,-33
13175,-1768,584,-920,41,24,-32
13180,-1728,576,-904,43,25,-32
13185,-1752,592,-920,44,26,-34
13190,-1752,584,-904,44,28,-32
13195,-1728,576,-896,44,29,-30
13200,-1744,560,-896,44,27,-32
13205,-1736,584,-936,44,29,-31
13210,-1744,584,-904,44,30,-31
13215,-1760,600,-888,44,33,-30
13220,-1728,600,-880,42,35,-31
13225,-1752,584,-904,41,37,-30
13230,-1736,600,-888,41,36,-31
13235,-1752,576,-912,40,37,-29
13240,-1768,608,-928,38,37,-28
13245,-1768,592,-880,38,37,-30
13250,-1736,608,-912,36,35,-31
13255,-1776,576,-920,36,36,-34
13260,-1760,600,-936,35,34,-32
13265,-1744,568,-896,35,33,-31
13270,-1760,600,-920,35,32,-29
13275,-1736,576,-928,35,31,-30
13280,-1720,560,-896,35,30,-31
13285,-1744,568,-888,34,29,-31
13290,-1744,568,-904,34,27,-31
13295,-1736,608,-936,34,25,-29
13300,-1752,600,-912,34,24,-30
13305,-1720,584,-944,36,25,-32
13310,-1760,576,-920,37,24,-35
13315,-1760,568,-928,40,24,-36
13320,-1752,584,-920,40,26,-36
13325,-1744,592,-904,43,26,-36
13330,-1728,568,-904,43,26,-36
13335,-1744,592,-912,46,28,-37
13340,-1736,592,-912,46,29,-36
13345,-1736,584,-912,46,29,-36
13350,-1744,576,-920,47,30,-34
13355,-1744,568,-912,49,30,-35
13360,-1744,584,-920,50,31,-35
13365,-1736,552,-920,50,31,-34
13370,-1728,568,-936,50,31,-33
13375,-1768,568,-912,48,33,-34
13380,-1760,584,-928,46,34,-33
13385,-1720,576,-928,43,34,-33
13390,-1744,584,-928,41,34,-35
13395,-1728,592,-912,38,33,-36
13400,-1744,600,-936,35,30,-36
13405,-1728,616,-928,29,30,-38
13410,-1784,584,-920,23,31,-38
13415,-1736,584,-904,20,28,-42
13420,-1744,576,-912,22,25,-43
13425,-1752,592,-952,24,23,-43
13430,-1744,568,-904,26,24,-42
13435,-1712,560,-896,27,22,-42
13440,-1728,552,-912,26,22,-42
13445,-1736,560,-912,27,22,-42
13450,-1776,520,-648,31,23,-40
13455,-1768,640,-976,34,23,-40
13460,-1680,552,-896,37,25,-39
13465,-1856,584,-1016,40,25,-38
13470,-1680,488,-904,44,27,-37
13475,-1728,480,-888,48,27,-37
13480,-1744,528,-912,51,28,-35
13485,-1752,576,-904,55,27,-34
13490,-1720,576,-920,55,26,-34
13495,-1744,552,-960,55,28,-32
13500,-1744,576,-928,55,26,-32
13505,-1752,568,-912,54,26,-35
13510,-1744,544,-920,53,28,-35
13515,-1752,576,-912,52,30,-35
13520,-1752,584,-912,47,30,-35
13525,-1752,584,-904,45,29,-34
13530,-1720,584,-928,43,29,-32
13535,-1736,560,-928,39,28,-31
13540,-1736,568,-912,35,26,-31
13545,-1736,584,-912,30,26,-30
13550,-1704,576,-920,27,28,-30
13555,-1760,568,-920,23,27,-32
13560,-1728,560,-952,21,26,-34
13565,-1744,576,-936,19,26,-33
13570,-1744,560,-896,18,27,-32
13575,-1760,552,-944,17,28,-33
13580,-1752,568,-888,19,27,-32
13585,-1744,592,-920,22,27,-30
13590,-1720,552,-904,25,27,-31
13595,-1728,552,-928,27,29,-29
13600,-1744,560,-896,29,29,-30
13605,-1744,592,-936,33,31,-27
13610,-1752,552,-912,34,31,-27
13615,-1736,528,-920,38,30,-25
13620,-1744,568,-928,40,32,-23
13625,-1744,552,-920,41,31,-23
13630,-1744,568,-904,40,33,-24
13635,-1728,568,-904,39,31,-24
13640,-1744,552,-936,39,30,-24
13645,-1744,568,-920,39,30,-25
13650,-1736,552,-928,38,29,-25
13655,-1744,584,-928,37,27,-23
13660,-1736,584,-928,36,25,-23
13665,-1728,560,-920,36,23,-22
13670,-1728,576,-928,33,20,-21
13675,-1744,560,-928,31,20,-22
13680,-1720,568,-904,31,19,-23
13685,-1752,584,-912,31,20,-24
13690,-1736,560,-928,33,20,-24
13695,-1744,592,-928,32,20,-24
13700,-1720,552,-920,33,22,-23
13705,-1744,536,-928,35,23,-25
13710,-1728,544,-936,37,24,-26
13715,-1736,552,-960,40,25,-27
13720,-1760,576,-952,39,24,-26
13725,-1704,536,-912,41,26,-26
13730,-1736,568,-936,41,26,-26
13735,-1736,576,-928,42,27,-26
13740,-1744,568,-928,42,26,-28
13745,-1728,576,-936,40,26,-29
13750,-1736,560,-920,41,26,-29
13755,-1744,568,-968,42,24,-28
13760,-1728,568,-944,42,25,-28
13765,-1760,568,-928,42,26,-28
13770,-1728,560,-944,41,28,-27
13775,-1744,568,-928,42,26,-25
13780,-1736,560,-920,42,22,-23
13785,-1744,552,-920,43,20,-20
13790,-1744,560,-920,41,17,-17
13795,-1728,536,-920,40,15,-15
13800,-1712,536,-912,39,13,-16
13805,-1744,568,-896,38,12,-14
13810,-1712,552,-896,36,9,-15
13815,-1720,568,-936,34,10,-13
13820,-1728,544,-936,32,11,-14
13825,-1736,544,-912,32,13,-14
13830,-1736,560,-904,30,13,-14
13835,-1712,560,-912,29,15,-14
13840,-1720,536,-928,29,17,-13
13845,-1744,552,-896,31,16,-12
13850,-1720,528,-904,32,15,-13
13855,-1744,544,-912,31,16,-11
13860,-1736,552,-928,28,16,-8
13865,-1712,568,-928,28,17,-7
13870,-1712,560,-920,28,16,-6
13875,-1712,560,-920,27,13,-3
13880,-1744,536,-920,27,13,-2
13885,-1696,552,-896,26,12,0
13890,-1728,544,-928,28,12,1
13895,-1712,536,-936,29,11,3
13900,-1728,536,-920,29,11,1
13905,-1728,560,-936,30,11,5
13910,-1712,568,-936,28,10,6
13915,-1728,568,-944,29,11,9
13920,-1736,568,-920,28,9,9
13925,-1728,552,-936,27,10,13
13930,-1696,536,-920,28,11,12
13935,-1720,560,-944,28,12,14
13940,-1736,544,-936,27,10,13
13945,-1744,544,-936,29,11,14
13950,-1728,536,-968,31,12,17
13955,-1712,560,-952,33,10,17
13960,-1720,560,-960,36,9,16
13965,-1728,536,-944,40,7,19
13970,-1728,560,-912,44,6,20
13975,-1720,576,-960,47,4,21
13980,-1768,560,-912,48,3,24
13985,-1736,568,-920,51,0,26
13990,-1728,560,-944,53,0,27
13995,-1752,552,-928,55,-1,26
14000,-1736,584,-904,57,-3,28
14005,-1720,568,-928,58,-5,26
14010,-1728,560,-944,59,-6,29
14015,-1744,576,-912,59,-7,29
14020,-1752,576,-920,58,-7,30
14025,-1736,568,-944,55,-7,30
14030,-1736,600,-896,55,-8,30
14035,-1736,592,-904,54,-9,30
14040,-1768,608,-920,50,-9,29
14045,-1752,576,-896,46,-9,28
14050,-1736,568,-928,44,-8,30
14055,-1728,576,-904,41,-10,28
14060,-1744,600,-928,39,-10,27
14065,-1744,584,-896,37,-9,27
14070,-1736,560,-912,37,-10,25
14075,-1736,584,-928,38,-10,24
14080,-1712,560,-920,39,-10,24
14085,-1760,568,-912,41,-10,22
14090,-1752,568,-896,43,-9,22
14095,-1744,576,-920,46,-7,23
14100,-1736,584,-920,49,-7,22
14105,-1744,584,-896,51,-6,23
14110,-1752,584,-928,55,-5,22
14115,-1744,568,-896,57,-4,22
14120,-1752,600,-912,60,-3,23
14125,-1728,592,-928,63,-1,22
14130,-1728,600,-904,66,0,21
14135,-1768,592,-928,66,1,19
14140,-1792,600,-944,67,2,19
14145,-1752,624,-888,69,2,18
14150,-1776,600,-952,69,3,18
14155,-1752,600,-888,67,4,17
14160,-1768,592,-928,67,4,17
14165,-1752,568,-904,64,5,17
14170,-1736,632,-888,62,5,15
14175,-1768,568,-888,60,7,16
14180,-1688,576,-928,57,9,13
14185,-1760,600,-920,58,11,14
14190,-1712,592,-896,57,11,14
14195,-1736,584,-928,57,15,17
14200,-1744,576,-904,56,14,11
14205,-1752,592,-904,56,16,15
14210,-1752,552,-944,56,16,15
14215,-1712,584,-936,59,15,14
14220,-1744,600,-944,59,13,13
14225,-1680,664,-936,58,12,15
14230,-1728,568,-920,57,10,16
14235,-1744,592,-912,56,9,13
14240,-1752,584,-880,56,10,15
14245,-1712,600,-920,53,7,11
14250,-1760,584,-904,54,7,11
14255,-1736,592,-920,55,6,10
14260,-1752,552,-920,56,7,12
14265,-1728,608,-920,55,7,10
14270,-1728,592,-904,55,5,14
14275,-1736,576,-928,54,10,10
14280,-1712,592,-896,53,10,11
14285,-1744,576,-912,51,11,10
14290,-1736,592,-920,51,9,8
14295,-1776,608,-912,50,8,8
14300,-1712,608,-928,50,6,7
14305,-1752,592,-904,52,8,8
14310,-1760,608,-920,52,8,7
14315,-1784,592,-912,53,6,8
14320,-1744,592,-904,53,3,6
14325,-1744,584,-936,52,4,8
14330,-1728,600,-912,50,4,6
14335,-1768,568,-896,52,8,8
14340,-1760,576,-912,52,6,5
14345,-1752,600,-928,52,7,7
14350,-1760,600,-912,51,7,5
14355,-1704,600,-960,51,4,5
14360,-1752,600,-920,51,8,6
14365,-1752,624,-912,51,11,5
14370,-1744,584,-920,50,9,3
14375,-1744,608,-952,49,11,2
14380,-1752,576,-936,51,11,3
14385,-1736,600,-912,49,10,0
14390,-1736,600,-904,49,12,2
14395,-1720,592,-888,49,12,2
14400,-1744,592,-944,51,11,-1
14405,-1728,608,-912,50,9,-1
14410,-1744,592,-888,50,13,0
14415,-1752,592,-888,51,12,-1
14420,-1744,584,-896,54,8,-2
14425,-1720,592,-912,53,9,-3
14430,-1736,584,-928,56,12,0
14435,-1744,584,-904,57,13,0
14440,-1760,608,-920,59,10,0
14445,-1720,576,-896,58,12,2
14450,-1744,576,-920,57,10,1
14455,-1728,592,-896,57,7,1
14460,-1728,568,-888,54,8,1
14465,-1728,584,-920,55,10,3
14470,-1736,616,-928,56,9,1
14475,-1736,592,-896,56,10,6
14480,-1760,576,-888,55,8,3
14485,-1704,624,-904,55,6,1
14490,-1736,576,-904,55,8,4
14495,-1736,584,-872,57,8,2
14500,-1704,592,-920,58,7,1
14505,-1752,568,-936,57,8,5
14510,-1728,608,-936,56,8,2
14515,-1696,600,-904,54,8,2
14520,-1760,600,-920,53,9,3
14525,-1760,600,-896,55,7,0
14530,-1752,608,-904,53,8,0
14535,-1728,576,-912,51,10,0
14540,-1728,616,-912,51,12,-1
14545,-1744,608,-912,49,9,-3
14550,-1744,600,-888,48,11,-3
14555,-1744,608,-920,47,11,-4
14560,-1704,592,-904,47,13,-2
14565,-1760,568,-888,48,15,0
14570,-1760,616,-912,49,12,-1
14575,-1736,592,-912,48,10,-2
14580,-1744,592,-920,48,12,-1
14585,-1760,608,-872,49,15,-2
14590,-1744,584,-904,47,16,-2
14595,-1672,616,-984,47,17,-3
14600,-1736,560,-920,51,19,3
14605,-1768,584,-904,53,19,1
14610,-1736,600,-896,52,16,0
14615,-1736,616,-896,53,14,-1
14620,-1752,624,-920,53,14,0
14625,-1744,584,-888,53,16,4
14630,-1736,608,-888,53,17,2
14635,-1760,600,-912,59,13,0
14640,-1736,592,-888,60,13,-1
14645,-1696,576,-920,61,13,0
14650,-1752,584,-888,64,15,0
14655,-1728,584,-912,66,12,-2
14660,-1736,584,-912,67,10,-2
14665,-1728,584,-912,66,12,-1
14670,-1752,592,-912,66,14,1
14675,-1752,592,-888,66,10,-2
14680,-1752,608,-904,65,8,1
14685,-1736,624,-896,61,7,-3
14690,-1680,616,-928,60,12,1
14695,-1760,608,-920,58,15,-2
14700,-1752,576,-920,60,10,-2
14705,-1720,584,-888,58,9,-2
14710,-1704,608,-920,57,9,-2
14715,-1736,584,-896,57,13,3
14720,-1752,592,-880,57,10,-1
14725,-1760,584,-944,57,8,-3
14730,-1752,616,-896,56,9,-5
14735,-1704,608,-912,54,9,-6
14740,-1720,560,-944,55,14,-1
14745,-1752,592,-896,57,13,-4
14750,-1728,584,-880,58,10,-6
14755,-1736,592,-904,56,10,-7
14760,-1736,600,-912,54,10,-9
14765,-1752,600,-920,51,11,-10
14770,-1744,600,-904,52,10,-9
14775,-1744,584,-904,51,10,-7
14780,-1672,584,-920,50,12,-7
14785,-1760,584,-944,52,14,-4
14790,-1752,624,-896,56,12,-8
14795,-1760,608,-920,58,10,-8
14800,-1744,584,-896,59,13,-8
14805,-1776,592,-904,61,10,-9
14810,-1688,584,-920,61,10,-9
14815,-1784,576,-888,64,14,-5
14820,-1736,592,-904,63,9,-7
14825,-1760,624,-912,63,6,-7
14830,-1744,616,-896,58,5,-6
14835,-1744,608,-920,55,6,-7
14840,-1720,584,-904,55,7,-7
14845,-1728,600,-896,53,9,-8
14850,-1728,600,-912,54,11,-6
14855,-1736,568,-896,55,12,-8
14860,-1728,592,-896,56,13,-8
14865,-1736,600,-896,58,14,-6
14870,-1736,584,-904,59,15,-6
14875,-1744,576,-912,59,14,-6
14880,-1736,592,-904,60,15,-6
14885,-1744,584,-928,60,14,-4
14890,-1744,592,-952,61,14,-5
14895,-1704,576,-904,61,12,-4
14900,-1680,608,-944,59,11,-4
14905,-1768,592,-912,60,15,1
14910,-1744,584,-912,63,12,-1
14915,-1720,608,-896,63,9,-2
14920,-1744,608,-888,61,10,-4
14925,-1736,600,-928,57,12,-5
14930,-1736,608,-936,54,14,-6
14935,-1744,592,-904,53,15,-8
14940,-1728,608,-920,51,17,-9
14945,-1736,608,-912,51,17,-7
14950,-1744,600,-912,52,18,-6
14955,-1736,632,-936,53,18,-7
14960,-1768,584,-944,55,21,-2
14965,-1744,592,-920,58,21,-5
14970,-1760,632,-904,61,19,-3
14975,-1728,600,-912,61,17,-2
14980,-1760,616,-904,59,17,-2
14985,-1720,600,-920,60,17,-4
14990,-1736,592,-880,59,17,-5
14995,-1752,608,-920,59,15,-4
