timestamp,accel_x,accel_y,accel_z,gyro_x,gyro_y,gyro_z
0,-16,-1936,-696,35,59,0
5,0,-1928,-728,33,61,1
10,0,-1952,-744,29,61,-1
15,-16,-1960,-704,28,61,0
20,-24,-1944,-760,26,63,-4
25,-40,-1944,-728,24,63,-2
30,-32,-1944,-704,22,63,-5
35,-32,-1952,-736,21,62,-4
40,-8,-1952,-720,18,62,-4
45,-24,-1920,-712,16,60,-3
50,-24,-1952,-736,14,60,-6
55,-8,-1936,-720,11,60,-6
60,-16,-1936,-696,12,59,-6
65,-32,-1920,-688,12,58,-4
70,-24,-1944,-760,13,58,-6
75,-16,-1936,-720,12,59,-3
80,-32,-1912,-712,12,59,-4
85,-8,-1944,-752,12,58,-1
90,-32,-1952,-736,11,58,-2
95,-16,-1944,-744,11,59,-1
100,-40,-1928,-728,11,59,-3
105,-16,-1944,-712,9,59,-2
110,-40,-1920,-712,10,59,-2
115,0,-1920,-720,12,60,0
120,-24,-1936,-752,12,61,-2
125,0,-1944,-744,13,60,0
130,-8,-1936,-720,14,60,-1
135,0,-1976,-680,16,59,1
140,0,-1952,-720,19,60,0
145,-24,-1952,-736,19,60,1
150,-24,-1928,-720,19,61,2
155,-32,-1944,-728,18,59,2
160,-8,-1952,-712,18,59,4
165,-16,-1928,-704,17,60,1
170,-24,-1952,-728,17,61,-1
175,-24,-1928,-728,16,62,-1
180,-16,-1936,-712,15,61,-2
185,0,-1944,-728,14,62,-2
190,-8,-1936,-720,11,63,-5
195,-8,-1944,-688,12,64,-7
200,-24,-1944,-696,13,63,-7
205,0,-1952,-712,14,63,-8
210,16,-1960,-712,15,63,-7
215,0,-1944,-728,16,64,-6
220,8,-1960,-728,18,63,-7
225,-16,-1960,-704,17,65,-5
230,8,-1960,-736,17,64,-5
235,0,-1952,-728,16,64,-4
240,-8,-1960,-704,16,64,-2
245,-24,-1944,-696,15,64,-1
250,-16,-1944,-728,15,62,0
255,-8,-1944,-712,15,62,-1
260,-16,-1944,-704,14,61,0
265,-8,-1936,-712,14,60,-2
270,-16,-1944,-704,15,60,-3
275,-32,-1960,-712,13,59,-2
280,0,-1944,-720,12,60,-1
285,0,-1944,-696,11,59,-1
290,-16,-1960,-720,10,59,0
295,-8,-1960,-696,8,56,1
300,-8,-1960,-696,11,55,2
305,-8,-1968,-712,10,55,0
310,-16,-1944,-712,10,57,3
315,-16,-1952,-688,10,56,1
320,-32,-1936,-688,8,57,2
325,-32,-1928,-720,8,58,-1
330,-32,-1944,-712,6,60,-2
335,-8,-1968,-696,4,60,-4
340,-16,-1928,-704,3,60,-4
345,-8,-1936,-768,7,62,-5
350,0,-1952,-728,8,63,-4
355,-32,-1944,-672,12,64,-4
360,-16,-1936,-680,11,64,-2
365,0,-1960,-704,11,64,-2
370,-24,-1944,-696,7,65,-2
375,-24,-1960,-696,8,64,-3
380,8,-1968,-720,6,64,-4
385,-8,-1944,-672,4,67,-5
390,16,-1952,-720,3,64,-6
395,-8,-1936,-696,2,67,-8
400,-8,-1976,-688,1,66,-8
405,0,-1960,-696,2,65,-10
410,-32,-1952,-744,4,62,-8
415,-24,-1984,-704,8,60,-7
420,-8,-2008,-696,11,58,-4
425,-16,-1992,-696,15,56,-1
430,16,-1992,-704,20,54,4
435,0,-1992,-736,26,52,7
440,0,-2008,-720,30,52,9
445,-8,-1960,-696,35,55,10
450,-16,-1968,-720,39,55,14
455,0,-1928,-712,39,55,13
460,-8,-1944,-688,42,56,14
465,-8,-1928,-704,42,55,12
470,0,-1912,-688,40,56,12
475,-16,-1888,-680,40,58,9
480,-24,-1920,-672,37,60,7
485,-32,-1936,-696,34,62,4
490,-40,-1928,-688,31,64,3
495,-32,-1936,-656,25,64,-1
500,-8,-1928,-672,20,65,-2
505,-16,-1952,-704,15,68,-5
510,-16,-1960,-688,11,67,-7
515,-40,-1960,-672,6,69,-10
520,-16,-1928,-664,2,69,-9
525,-16,-1952,-672,-1,68,-10
530,-16,-1968,-648,-6,67,-9
535,-16,-1952,-680,-9,66,-10
540,-16,-1936,-680,-9,65,-7
545,-32,-1976,-680,-10,63,-8
550,-8,-1976,-680,-11,61,-4
555,-32,-1952,-696,-9,60,-4
560,-16,-1968,-664,-9,59,1
565,-8,-1944,-696,-9,59,-1
570,-24,-1952,-696,-5,58,3
575,-32,-1960,-688,-2,55,4
580,-16,-1928,-712,2,56,6
585,-16,-1960,-712,4,55,6
590,-40,-1936,-704,6,57,8
595,-32,-1952,-688,8,57,5
600,16,-1976,-664,11,57,7
605,-16,-1960,-704,15,56,4
610,-8,-1952,-696,16,57,6
615,32,-1960,-696,19,59,3
620,-16,-1968,-688,22,59,3
625,-16,-1960,-720,24,61,0
630,-8,-1960,-688,26,62,2
635,-8,-1944,-712,24,62,-1
640,8,-1936,-704,23,63,1
645,-16,-1944,-696,21,62,-1
650,-16,-1936,-704,21,62,1
655,-16,-1944,-720,19,62,-1
660,-24,-1936,-680,18,61,1
665,-40,-1944,-680,17,59,-1
670,-24,-1928,-680,14,60,1
675,16,-1960,-640,12,60,0
680,-8,-1952,-664,10,59,1
685,-16,-1944,-704,7,59,-1
690,8,-1968,-696,6,59,1
695,-24,-1960,-680,5,58,0
700,-32,-1976,-688,4,55,4
705,-16,-1960,-672,5,55,-1
710,-16,-1968,-672,7,55,2
715,-16,-1960,-696,6,54,0
720,-16,-1968,-704,7,55,3
725,-24,-1984,-712,8,54,2
730,-16,-1968,-712,10,56,4
735,-24,-1960,-672,9,57,4
740,-24,-1992,-712,10,56,6
745,-8,-1976,-688,10,56,5
750,-32,-1944,-680,9,56,5
755,-40,-1960,-680,8,57,2
760,-32,-1944,-680,9,58,5
765,-48,-1928,-696,8,58,0
770,-32,-1944,-664,9,59,3
775,-8,-1952,-672,8,58,0
780,-32,-1936,-648,8,58,2
785,-40,-1960,-640,5,59,0
790,-32,-1952,-672,2,58,3
795,0,-1960,-664,2,56,-1
800,-32,-1968,-672,1,58,1
805,-40,-1952,-688,-1,58,-2
810,-32,-1960,-656,-2,56,1
815,-40,-1976,-680,-4,55,-1
820,0,-1976,-672,-5,56,1
825,-32,-1952,-680,-6,57,-1
830,-32,-1944,-680,-5,56,2
835,8,-1960,-680,-3,56,0
840,-32,-1952,-688,-3,58,4
845,-40,-1944,-688,-5,58,2
850,-8,-1960,-664,-7,58,4
855,-16,-1960,-664,-7,58,2
860,-16,-1936,-680,-7,57,5
865,-32,-1952,-704,-6,59,3
870,0,-1960,-688,-6,58,5
875,-16,-1944,-680,-7,58,3
880,-40,-1944,-672,-5,60,5
885,-32,-1968,-688,-4,60,1
890,-40,-1936,-648,0,60,3
895,-16,-1984,-696,-1,60,0
900,-16,-1960,-656,1,59,3
905,-16,-1968,-688,3,59,1
910,8,-1976,-688,2,59,3
915,-24,-1960,-688,2,59,1
920,-24,-1960,-672,2,58,2
925,-16,-1936,-688,-1,58,-1
930,-24,-1960,-648,-5,59,1
935,-16,-1960,-672,-7,60,-2
940,-16,-1968,-664,-7,59,0
945,-32,-1944,-656,-9,60,-2
950,-32,-1944,-664,-11,60,0
955,-24,-1936,-704,-11,58,-2
960,-24,-1944,-672,-9,59,-1
965,0,-1992,-688,-9,58,-2
970,-16,-1984,-672,-8,59,0
975,-8,-1976,-696,-6,60,-2
980,-8,-1960,-688,-5,61,1
985,-40,-1952,-680,-2,60,-2
990,-8,-1976,-656,-1,60,0
995,-16,-1976,-688,0,60,-4
1000,-16,-1968,-656,2,60,0
1005,-16,-1960,-704,5,59,-3
1010,-24,-1936,-680,7,59,0
1015,-16,-1952,-664,7,58,-2
1020,-16,-1960,-656,7,59,1
1025,-32,-1936,-640,6,58,1
1030,-8,-1944,-696,4,58,2
1035,-8,-1952,-688,2,58,1
1040,-16,-1936,-680,0,57,3
1045,-32,-1952,-688,-1,58,1
1050,-8,-1968,-664,-2,57,4
1055,-40,-1944,-704,-2,57,2
1060,-16,-1992,-656,-3,55,2
1065,-32,-1952,-656,-5,56,0
1070,-32,-1952,-656,-6,57,0
1075,-24,-1960,-680,-7,57,-1
1080,-32,-1952,-664,-7,58,0
1085,-40,-1960,-688,-8,59,-3
1090,-40,-1960,-648,-9,58,-1
1095,-8,-1976,-680,-9,59,-4
1100,-32,-1968,-696,-8,60,-1
1105,-24,-1960,-672,-7,60,-3
1110,-16,-1944,-656,-9,61,-3
1115,0,-1968,-672,-11,63,-5
1120,-16,-1960,-680,-11,63,-5
1125,-32,-1944,-688,-12,63,-7
1130,-16,-1960,-680,-8,63,-6
1135,-16,-1952,-672,-5,64,-5
1140,0,-1976,-672,-2,65,-3
1145,-32,-1952,-664,-2,64,-5
1150,-24,-1944,-696,-6,64,-3
1155,-16,-1944,-648,-9,63,-3
1160,-24,-1952,-656,-12,62,-3
1165,-40,-1944,-680,-14,62,-4
1170,-32,-1928,-648,-17,62,-4
1175,0,-1944,-672,-17,62,-5
1180,-32,-1952,-664,-20,62,-6
1185,-32,-1960,-656,-21,62,-7
1190,-16,-1968,-688,-22,61,-6
1195,-16,-1984,-712,-19,62,-7
1200,-16,-1984,-664,-17,61,-6
1205,-16,-1968,-656,-15,59,-7
1210,-32,-2008,-624,-13,58,-3
1215,-24,-1984,-672,-11,57,0
1220,-24,-2000,-672,-8,57,3
1225,-8,-1992,-688,-1,58,5
1230,-16,-1984,-688,3,59,6
1235,-16,-1968,-688,8,59,6
1240,-32,-1952,-712,11,61,8
1245,0,-1952,-672,11,61,7
1250,-16,-1936,-696,9,62,5
1255,-24,-1936,-672,9,62,3
1260,-24,-1912,-696,5,63,2
1265,-32,-1936,-648,4,64,0
1270,-8,-1904,-672,0,67,-2
1275,-32,-1936,-656,-4,67,-4
1280,-24,-1920,-640,-7,67,-5
1285,-24,-1936,-656,-10,68,-6
1290,-56,-1936,-648,-17,68,-7
1295,-24,-1960,-664,-19,69,-10
1300,-32,-1952,-632,-23,68,-9
1305,-24,-1976,-680,-27,69,-12
1310,-56,-1984,-640,-30,68,-12
1315,-40,-1976,-656,-32,66,-14
1320,-64,-1952,-656,-34,65,-13
1325,0,-1976,-664,-38,63,-13
1330,-32,-1952,-656,-42,61,-11
1335,-32,-1952,-664,-45,62,-9
1340,-16,-1952,-656,-46,59,-9
1345,-32,-1960,-672,-47,59,-8
1350,-16,-1960,-664,-49,59,-6
1355,-16,-1944,-672,-50,58,-7
1360,-16,-1952,-688,-49,57,-3
1365,-24,-1952,-656,-48,57,-3
1370,-24,-1960,-656,-45,56,-2
1375,0,-1968,-696,-44,57,-2
1380,-16,-1984,-696,-43,57,-1
1385,-8,-1960,-664,-40,57,-2
1390,-16,-1960,-688,-37,58,-1
1395,-16,-1968,-656,-36,59,-2
1400,-8,-1952,-648,-35,60,-2
1405,-16,-1944,-680,-34,60,-3
1410,-16,-1960,-688,-33,61,-5
1415,-32,-1944,-704,-33,60,-4
1420,0,-1952,-664,-34,60,-3
1425,-24,-1952,-672,-36,61,-4
1430,-24,-1952,-664,-39,59,-6
1435,-48,-1920,-672,-41,61,-6
1440,-16,-1960,-664,-42,60,-6
1445,-24,-1976,-696,-44,60,-8
1450,-32,-1960,-680,-46,61,-9
1455,-16,-1936,-656,-45,60,-9
1460,-16,-1968,-680,-47,60,-9
1465,-8,-1960,-672,-47,61,-9
1470,-24,-1968,-664,-45,60,-9
1475,-8,-1960,-680,-47,61,-9
1480,0,-1976,-664,-48,63,-8
1485,-16,-1960,-688,-47,61,-6
1490,-24,-1984,-696,-47,60,-6
1495,-24,-1968,-696,-48,61,-5
1500,-24,-1960,-712,-51,60,-4
1505,-16,-1952,-664,-50,60,-3
1510,-32,-1944,-680,-50,61,-3
1515,-24,-1960,-680,-49,60,0
1520,-8,-1928,-664,-48,60,-2
1525,-24,-1944,-680,-48,60,0
1530,-24,-1968,-656,-48,59,-2
1535,-16,-1944,-688,-48,57,-1
1540,-32,-1936,-680,-51,57,-3
1545,-16,-1968,-672,-50,57,-3
1550,-32,-1952,-704,-53,57,-3
1555,-24,-1968,-680,-55,57,-2
1560,-40,-1944,-688,-57,57,-1
1565,-32,-1960,-672,-59,57,-1
1570,-24,-1936,-672,-61,57,-1
1575,-16,-1944,-696,-62,58,1
1580,-40,-1968,-680,-61,59,-1
1585,-40,-1952,-688,-62,57,1
1590,-24,-1944,-680,-59,57,-1
1595,-32,-1960,-712,-59,56,0
1600,-16,-1952,-696,-56,59,-2
1605,-8,-1976,-720,-54,59,-1
1610,-8,-1944,-720,-52,59,-3
1615,-16,-1968,-680,-51,59,-3
1620,-32,-1944,-688,-50,59,-4
1625,-8,-1944,-712,-48,59,-2
1630,-24,-1944,-704,-46,61,-4
1635,-16,-1968,-680,-44,61,-3
1640,-32,-1952,-712,-43,60,-4
1645,0,-1960,-720,-42,61,-3
1650,-16,-1936,-680,-43,59,-2
1655,-24,-1944,-704,-43,61,-3
1660,-24,-1952,-720,-47,60,-3
1665,8,-1936,-696,-48,61,-2
1670,-16,-1928,-704,-50,62,-3
1675,-8,-1952,-680,-51,60,-1
1680,-8,-1944,-696,-52,60,-3
1685,-24,-1920,-696,-53,59,-2
1690,-16,-1952,-704,-55,61,-4
1695,-32,-1952,-680,-56,59,-1
1700,-24,-1952,-704,-57,58,-3
1705,-8,-1952,-712,-57,58,-2
1710,-40,-1928,-696,-59,58,-3
1715,-24,-1952,-696,-58,58,-3
1720,-48,-1944,-704,-57,58,-3
1725,-32,-1952,-696,-55,60,-2
1730,-32,-1944,-720,-55,58,-5
1735,-24,-1944,-704,-54,59,-3
1740,0,-1968,-680,-50,60,-3
1745,-32,-1952,-712,-50,59,-2
1750,-8,-1960,-720,-48,60,-2
1755,0,-1968,-680,-47,60,-1
1760,-16,-1960,-720,-46,60,-3
1765,-16,-1936,-680,-48,58,-2
1770,-24,-1968,-680,-47,58,-4
1775,-32,-1928,-720,-47,58,-3
1780,-16,-1928,-736,-47,57,-4
1785,-32,-1936,-712,-46,58,-2
1790,0,-1952,-728,-45,58,-3
1795,-32,-1928,-704,-46,58,0
1800,-8,-1936,-680,-49,57,-2
1805,-24,-1968,-704,-50,57,0
1810,-16,-1944,-720,-50,57,-3
1815,-32,-1944,-712,-50,57,-2
1820,-48,-1944,-704,-50,56,-4
1825,-16,-1976,-712,-48,57,0
1830,-24,-1944,-752,-45,56,-2
1835,-8,-1952,-720,-42,56,2
1840,-32,-1976,-720,-39,55,0
1845,-40,-1952,-696,-38,55,3
1850,-16,-1944,-728,-37,56,0
1855,-32,-1944,-728,-37,55,1
1860,-24,-1952,-720,-38,56,-1
1865,-32,-1976,-736,-38,55,0
1870,-16,-1944,-728,-37,56,-2
1875,-80,-2008,-640,-37,57,-1
1880,-32,-2080,-624,-36,57,-5
1885,-48,-1904,-816,-33,56,-4
1890,-32,-1904,-688,-36,57,-7
1895,-48,-1936,-816,-35,58,-4
1900,-8,-1952,-728,-36,57,-7
1905,-24,-1936,-704,-39,56,-6
1910,0,-1944,-728,-40,55,-8
1915,-24,-1920,-688,-44,56,-7
1920,-40,-1928,-712,-46,57,-11
1925,-48,-1920,-704,-50,59,-9
1930,-48,-1952,-720,-49,59,-13
1935,-24,-1936,-720,-46,60,-10
1940,-24,-1952,-736,-44,62,-13
1945,-40,-1944,-704,-43,63,-10
1950,0,-1936,-712,-43,62,-10
1955,0,-1936,-736,-43,61,-7
1960,-24,-1944,-736,-46,60,-9
1965,-24,-1928,-688,-50,60,-5
1970,-8,-1928,-744,-51,58,-7
1975,-8,-1936,-736,-50,57,-5
1980,-24,-1944,-752,-52,58,-7
1985,-24,-1952,-712,-53,58,-5
1990,-16,-1944,-712,-53,59,-7
1995,8,-1976,-720,-51,57,-6
2000,-24,-1960,-720,-50,54,-9
2005,-16,-1960,-712,-48,54,-6
2010,-32,-1944,-736,-47,53,-7
2015,-16,-1984,-728,-48,51,-5
2020,-32,-1976,-720,-47,51,-4
2025,-8,-1960,-760,-45,51,1
2030,-8,-1960,-728,-42,51,1
2035,-48,-1976,-728,-42,51,5
2040,-32,-1920,-744,-42,53,3
2045,-16,-1928,-752,-45,57,6
2050,-16,-1912,-736,-46,57,2
2055,-32,-1904,-688,-52,58,3
2060,-16,-1920,-712,-54,58,0
2065,-16,-1912,-744,-56,60,0
2070,-24,-1936,-728,-58,62,-4
2075,-16,-1912,-712,-57,63,-5
2080,-16,-1944,-720,-54,64,-9
2085,-16,-1928,-736,-52,64,-8
2090,-32,-1936,-720,-48,64,-12
2095,-32,-1968,-736,-44,63,-10
2100,-16,-1944,-768,-37,64,-16
2105,-16,-1992,-752,-30,62,-10
2110,-32,-1976,-760,-19,63,-13
2115,-16,-1968,-752,-10,62,-9
2120,8,-1968,-712,-3,61,-11
2125,-8,-1968,-720,4,60,-8
2130,-8,-1960,-744,8,60,-9
2135,-16,-1944,-744,13,59,-5
2140,8,-1944,-744,19,57,-7
2145,8,-1944,-736,20,56,-1
2150,-16,-1952,-720,24,59,-2
2155,-24,-1936,-712,27,59,2
2160,0,-1928,-728,26,60,1
2165,-16,-1936,-760,27,60,5
2170,0,-1920,-720,25,61,2
2175,-16,-1912,-736,26,62,5
2180,-16,-1928,-720,24,63,3
2185,-16,-1936,-744,21,64,5
2190,-32,-1944,-720,21,66,1
2195,-40,-1912,-752,19,65,1
2200,-40,-1928,-720,17,68,-2
2205,-16,-1936,-728,17,68,-1
2210,-24,-1928,-712,15,69,-4
2215,-24,-1928,-720,13,70,-1
2220,-32,-1920,-712,13,71,-6
2225,-24,-1920,-704,12,71,-4
2230,-32,-1928,-728,9,71,-7
2235,-32,-1960,-704,7,71,-6
2240,-32,-1952,-712,3,71,-7
2245,-32,-1936,-680,0,70,-7
2250,-24,-1952,-688,-1,68,-10
2255,-40,-1936,-672,-1,67,-9
2260,-48,-1952,-728,0,65,-10
2265,-32,-1968,-720,1,65,-8
2270,-16,-1952,-712,1,63,-10
2275,-48,-1952,-760,0,61,-7
2280,-16,-1960,-704,1,60,-9
2285,-24,-1936,-712,3,59,-7
2290,-32,-1936,-704,3,58,-8
2295,0,-1952,-720,4,59,-5
2300,-32,-1944,-720,5,57,-7
2305,0,-1952,-720,5,57,-4
2310,-8,-1952,-704,6,58,-5
2315,16,-1952,-728,6,56,-3
2320,0,-1936,-720,4,58,-4
2325,0,-1936,-736,7,60,-2
2330,0,-1952,-720,10,60,-3
2335,8,-1952,-760,13,62,0
2340,-32,-1928,-728,17,62,-3
2345,-24,-1944,-728,19,63,0
2350,-32,-1952,-720,21,62,-1
2355,-16,-1968,-720,22,63,0
2360,-32,-1944,-736,25,64,-1
2365,-8,-1968,-704,26,64,1
2370,8,-1984,-704,26,62,-2
2375,8,-1936,-704,28,62,1
2380,-24,-1912,-728,27,64,-2
2385,-16,-1928,-736,26,62,-1
2390,0,-1928,-680,23,63,-3
2395,-16,-1928,-712,19,62,0
2400,0,-1920,-696,16,62,-2
2405,-24,-1936,-752,11,60,-2
2410,-32,-1928,-736,9,61,-5
2415,-8,-1952,-728,5,62,-3
2420,-16,-1928,-720,1,62,-6
2425,-32,-1944,-720,0,63,-4
2430,-32,-1920,-744,-3,63,-7
2435,-16,-1952,-704,-4,62,-5
2440,-40,-1936,-704,-4,62,-7
2445,-48,-1928,-712,-5,61,-5
2450,-24,-1936,-728,-3,61,-6
2455,-32,-1936,-696,-1,61,-5
2460,-8,-1952,-736,1,60,-5
2465,-40,-1944,-712,4,60,-1
2470,-48,-1944,-712,8,59,-4
2475,-40,-1952,-720,11,61,-1
2480,8,-1960,-720,17,60,-2
2485,-8,-1976,-720,19,61,0
2490,-32,-1952,-720,20,60,-2
2495,-8,-1968,-728,22,59,-1
2500,-24,-1976,-712,23,61,-2
2505,-16,-1936,-688,23,59,-1
2510,0,-1960,-720,23,61,-2
2515,-32,-1944,-696,23,62,-2
2520,-16,-1936,-704,23,62,-3
2525,24,-1920,-728,20,64,-3
2530,-24,-1920,-680,19,62,-5
2535,-24,-1952,-704,19,64,-3
2540,8,-1936,-696,17,65,-5
2545,8,-1936,-688,15,65,-4
2550,-32,-1960,-704,13,65,-6
2555,-8,-1944,-704,11,64,-5
2560,-16,-1960,-696,9,63,-8
2565,-16,-1936,-696,5,61,-6
2570,0,-1944,-720,6,62,-7
2575,-16,-1968,-680,5,62,-7
2580,0,-1960,-720,4,62,-7
2585,-24,-1944,-704,6,62,-7
2590,-16,-1968,-696,5,61,-7
2595,16,-1984,-712,8,61,-5
2600,0,-1976,-696,9,60,-4
2605,-16,-1960,-712,10,60,-3
2610,-24,-1952,-704,13,60,-1
2615,-24,-1960,-696,16,61,2
2620,-24,-1960,-752,20,60,0
2625,-32,-1960,-696,22,60,2
2630,-24,-1936,-704,26,60,2
2635,-32,-1944,-696,28,60,3
2640,8,-1968,-696,30,59,3
2645,-16,-1944,-720,32,60,5
2650,-40,-1944,-680,33,58,5
2655,-24,-1960,-672,31,58,7
2660,-8,-1944,-712,31,57,6
2665,-16,-1944,-656,28,57,7
2670,-24,-1960,-672,25,57,6
2675,-24,-1952,-672,24,57,9
2680,-24,-1960,-704,21,57,8
2685,-8,-1952,-704,18,58,8
2690,-8,-1952,-688,14,58,9
2695,-8,-1944,-712,12,59,9
2700,0,-1952,-712,11,59,9
2705,-24,-1944,-696,7,60,8
2710,-24,-1952,-680,2,60,5
2715,-24,-1944,-688,-1,61,3
2720,-32,-1944,-696,-4,61,1
2725,-24,-1936,-704,-4,60,2
2730,-16,-1968,-720,-2,61,2
2735,-32,-1952,-696,0,61,2
2740,-32,-1952,-712,1,61,2
2745,0,-1944,-696,2,59,3
2750,-16,-1952,-672,2,61,3
2755,-8,-1936,-680,2,59,4
2760,-24,-1936,-664,0,59,3
2765,-24,-1936,-696,0,60,2
2770,-24,-1944,-688,-1,60,0
2775,16,-1968,-656,-3,60,0
2780,0,-1976,-680,-6,60,-1
2785,-32,-1944,-736,-7,59,1
2790,-24,-1984,-680,-7,58,1
2795,0,-1984,-680,-3,55,1
2800,-40,-1960,-728,2,53,4
2805,-16,-1976,-688,9,52,5
2810,-40,-1984,-736,14,51,9
2815,-16,-2008,-712,21,49,12
2820,-8,-1968,-704,27,50,15
2825,-8,-1968,-728,33,49,17
2830,-16,-1968,-712,36,50,18
2835,0,-1968,-720,38,50,20
2840,-16,-1960,-672,38,50,19
2845,-16,-1936,-664,37,50,18
2850,-8,-1928,-712,35,52,16
2855,-16,-1936,-688,32,54,14
2860,-24,-1920,-688,30,55,13
2865,-16,-1936,-656,26,57,10
2870,-16,-1896,-664,21,60,8
2875,-32,-1936,-680,16,60,5
2880,-32,-1928,-664,9,63,3
2885,-48,-1944,-688,5,62,1
2890,-32,-1952,-648,2,63,0
2895,-56,-1944,-672,-3,65,-1
2900,-32,-1944,-656,-5,62,-2
2905,-24,-1944,-672,-7,61,-3
2910,-48,-1968,-680,-10,60,-2
2915,-32,-1968,-680,-11,60,-1
2920,-24,-1968,-648,-10,56,1
2925,-32,-1984,-672,-9,59,2
2930,-24,-1960,-704,-10,58,3
2935,-8,-1968,-696,-8,56,3
2940,-24,-1952,-680,-5,55,5
2945,-24,-1952,-656,-4,55,5
2950,-40,-1992,-704,-1,54,7
2955,-16,-1976,-664,0,54,5
2960,-24,-1944,-688,4,53,6
2965,-24,-1960,-680,7,54,4
2970,24,-1920,-688,9,50,5
2975,-24,-1944,-672,11,49,5
2980,-24,-1968,-688,12,50,5
2985,-56,-1960,-664,11,50,3
2990,-24,-1944,-696,9,50,3
2995,-32,-1944,-672,6,51,2
3000,-16,-1936,-672,4,53,3
3005,0,-1952,-672,0,55,3
3010,-24,-1936,-704,-1,55,3
3015,-32,-1944,-704,-7,55,1
3020,-16,-1944,-672,-14,56,2
3025,-16,-1928,-688,-20,59,1
3030,-32,-1928,-656,-27,59,2
3035,-24,-1952,-696,-33,60,0
3040,-32,-1936,-672,-34,58,0
3045,-24,-1952,-696,-36,59,-2
3050,-32,-1968,-680,-37,57,-1
3055,-40,-1960,-680,-37,58,-1
3060,-56,-1952,-704,-39,56,0
3065,-24,-1984,-672,-39,55,-2
3070,-8,-1976,-672,-38,53,0
3075,-32,-1984,-680,-38,52,-1
3080,-24,-2000,-680,-35,52,0
3085,-32,-1992,-680,-32,51,0
3090,-16,-1992,-688,-28,52,2
3095,-40,-1976,-680,-25,51,3
3100,-24,-1992,-696,-23,52,4
3105,-32,-1976,-672,-22,52,3
3110,-24,-1960,-680,-20,52,6
3115,-32,-1960,-696,-20,52,4
3120,-16,-1976,-640,-21,53,5
3125,-48,-1928,-664,-21,53,4
3130,-40,-1936,-672,-20,55,4
3135,-24,-1960,-688,-24,54,0
3140,-40,-1952,-664,-25,56,0
3145,-16,-1968,-664,-28,55,-2
3150,-40,-1936,-688,-30,55,-2
3155,-40,-1952,-696,-35,56,-4
3160,-32,-1936,-656,-38,56,-2
3165,-24,-1968,-688,-42,56,-3
3170,-32,-1960,-680,-47,57,-1
3175,-24,-1960,-664,-51,56,-2
3180,-40,-1960,-680,-53,57,-1
3185,-32,-1960,-680,-55,56,-2
3190,-40,-1952,-704,-57,57,0
3195,-24,-1944,-680,-57,57,2
3200,-40,-1960,-680,-58,58,4
3205,-32,-1960,-656,-59,56,3
3210,-40,-1952,-672,-58,56,5
3215,-24,-1944,-688,-56,55,3
3220,-40,-1944,-672,-54,55,5
3225,-24,-1984,-664,-52,56,2
3230,-16,-1960,-736,-52,54,4
3235,-16,-1960,-704,-50,55,1
3240,-40,-1960,-712,-53,55,3
3245,-16,-1944,-696,-52,55,-1
3250,-40,-1952,-712,-52,54,0
3255,-32,-1952,-656,-53,55,-2
3260,-48,-1936,-728,-53,55,-1
3265,-32,-1936,-696,-54,55,-4
3270,-24,-1960,-704,-57,54,-1
3275,-40,-1944,-704,-59,55,-2
3280,-32,-1928,-688,-60,54,-1
3285,-40,-1928,-704,-61,54,-3
3290,-24,-1952,-696,-63,53,-1
3295,-16,-1928,-704,-64,54,-4
3300,-16,-1936,-696,-66,53,-2
3305,-32,-1944,-728,-67,54,-3
3310,-16,-1944,-704,-67,53,-2
3315,-16,-1968,-704,-68,54,-5
3320,-24,-1944,-672,-71,53,-5
3325,-8,-1952,-688,-73,54,-7
3330,-8,-1936,-720,-76,54,-4
3335,-40,-1944,-688,-78,53,-7
3340,-32,-1936,-688,-81,53,-5
3345,-24,-1944,-704,-82,52,-7
3350,-32,-1936,-712,-84,54,-4
3355,-16,-1968,-720,-85,54,-7
3360,-16,-1936,-688,-84,55,-5
3365,-16,-1944,-704,-84,54,-6
3370,-8,-1920,-720,-84,56,-5
3375,-8,-1952,-720,-81,57,-7
3380,-40,-1960,-744,-79,58,-4
3385,-24,-1952,-720,-77,58,-5
3390,-32,-1960,-704,-76,57,-3
3395,-40,-1952,-744,-74,55,-4
3400,-48,-1944,-704,-75,54,-2
3405,-24,-1952,-736,-75,53,-3
3410,8,-1936,-720,-75,52,0
3415,-24,-1944,-720,-77,52,-1
3420,-24,-1936,-712,-80,52,0
3425,-32,-1928,-760,-83,50,-3
3430,-24,-1952,-712,-83,51,-1
3435,-24,-1944,-728,-81,51,-6
3440,-16,-1928,-720,-81,50,-6
3445,-24,-1944,-728,-81,51,-9
3450,-24,-1936,-720,-83,52,-7
3455,-8,-1928,-704,-86,52,-10
3460,-24,-1928,-712,-90,51,-6
3465,0,-1904,-720,-93,52,-11
3470,8,-1920,-712,-96,53,-8
3475,-24,-1896,-736,-102,53,-10
3480,-16,-1896,-704,-106,56,-7
3485,-24,-1920,-688,-114,56,-7
3490,-32,-1920,-744,-120,58,-4
3495,-24,-1904,-752,-127,59,-8
3500,-16,-1936,-736,-134,59,-7
3505,-40,-1904,-744,-139,60,-9
3510,-24,-1912,-736,-148,61,-9
3515,-24,-1912,-728,-155,63,-13
3520,-16,-1920,-736,-162,63,-12
3525,-16,-1920,-720,-172,64,-17
3530,-32,-1904,-728,-179,64,-16
3535,-24,-1912,-728,-184,64,-18
3540,-24,-1928,-752,-189,63,-15
3545,-24,-1936,-752,-193,63,-18
3550,-16,-1944,-712,-196,61,-15
3555,-24,-1952,-728,-200,60,-17
3560,-8,-1952,-744,-204,59,-12
3565,-24,-1936,-720,-209,57,-12
3570,-32,-1936,-736,-214,54,-10
3575,-32,-1944,-728,-219,52,-13
3580,-16,-1944,-760,-221,52,-11
3585,-56,-1920,-760,-224,52,-14
3590,-32,-1928,-744,-226,54,-12
3595,-32,-1944,-736,-229,54,-13
3600,-24,-1896,-744,-233,56,-14
3605,-48,-1896,-768,-240,57,-18
3610,-48,-1896,-776,-248,57,-16
3615,-64,-1904,-800,-256,56,-22
3620,-56,-1896,-760,-265,56,-23
3625,-48,-1880,-776,-269,55,-28
3630,-24,-1896,-784,-273,55,-29
3635,-40,-1888,-776,-275,55,-32
3640,-40,-1904,-816,-278,56,-31
3645,-40,-1912,-784,-279,54,-32
3650,-48,-1896,-768,-281,54,-29
3655,-32,-1912,-792,-287,53,-32
3660,-24,-1896,-776,-294,52,-28
3665,-16,-1904,-800,-301,52,-29
3670,-24,-1888,-792,-309,53,-26
3675,-40,-1888,-792,-315,51,-28
3680,-8,-1888,-792,-320,51,-27
3685,-32,-1872,-816,-328,50,-30
3690,-32,-1856,-808,-335,51,-30
3695,-40,-1904,-840,-340,50,-33
3700,-24,-1896,-824,-342,47,-31
3705,-32,-1896,-824,-341,48,-34
3710,-24,-1920,-848,-337,44,-30
3715,-8,-1936,-856,-333,41,-29
3720,-40,-1928,-856,-327,39,-23
3725,-16,-1936,-848,-321,39,-22
3730,-24,-1912,-872,-315,40,-16
3735,-24,-1896,-888,-309,41,-16
3740,-32,-1904,-896,-308,40,-11
3745,-32,-1864,-896,-309,41,-12
3750,-16,-1888,-856,-312,45,-11
3755,-24,-1840,-920,-317,47,-14
3760,-16,-1864,-848,-320,47,-14
3765,-24,-1840,-888,-325,47,-20
3770,-32,-1832,-896,-332,50,-22
3775,-24,-1808,-856,-338,53,-28
3780,-24,-1832,-912,-342,53,-30
3785,-24,-1832,-896,-346,54,-36
3790,-8,-1856,-888,-350,53,-37
3795,-24,-1848,-904,-355,54,-41
3800,-32,-1824,-856,-362,54,-38
3805,-8,-1856,-872,-367,51,-42
3810,-24,-1864,-920,-372,48,-41
3815,-40,-1832,-896,-377,49,-44
3820,-24,-1864,-928,-382,48,-41
3825,0,-1824,-896,-384,47,-43
3830,0,-1856,-888,-390,45,-39
3835,0,-1848,-936,-395,45,-41
3840,-32,-1824,-920,-403,45,-36
3845,-8,-1832,-952,-411,43,-37
3850,-8,-1824,-936,-418,43,-34
3855,8,-1840,-952,-423,44,-35
3860,-8,-1832,-960,-429,44,-32
3865,0,-1832,-944,-435,46,-37
3870,-16,-1808,-976,-442,49,-36
3875,-8,-1832,-952,-450,50,-40
3880,-24,-1832,-952,-456,51,-39
3885,-8,-1808,-968,-460,50,-44
3890,-32,-1808,-968,-465,51,-45
3895,-16,-1808,-984,-470,50,-47
3900,-40,-1800,-992,-474,49,-45
3905,-8,-1808,-984,-482,49,-46
3910,-8,-1800,-1000,-488,48,-42
3915,-32,-1800,-1000,-494,47,-41
3920,-24,-1808,-992,-500,43,-39
3925,0,-1800,-1008,-505,41,-41
3930,-24,-1776,-992,-510,40,-39
3935,-32,-1776,-1008,-514,41,-43
3940,-32,-1776,-1048,-522,36,-43
3945,-24,-1824,-1048,-525,36,-47
3950,-8,-1816,-1024,-529,33,-47
3955,-8,-1808,-1040,-529,33,-50
3960,-16,-1824,-1048,-527,33,-50
3965,0,-1792,-1064,-526,35,-56
3970,-24,-1808,-1056,-524,39,-58
3975,-8,-1792,-1064,-522,42,-62
3980,-8,-1808,-1056,-515,44,-58
3985,8,-1816,-1088,-510,46,-57
3990,-24,-1776,-1056,-504,48,-55
3995,16,-1800,-1064,-500,47,-58
4000,24,-1792,-1064,-496,46,-55
4005,-16,-1760,-1104,-498,46,-58
4010,8,-1784,-1080,-503,47,-57
4015,24,-1752,-1104,-509,48,-61
4020,16,-1760,-1104,-521,50,-63
4025,8,-1752,-1104,-528,51,-67
4030,8,-1752,-1128,-537,54,-67
4035,8,-1712,-1120,-548,58,-72
4040,-32,-1704,-1128,-558,61,-70
4045,-16,-1696,-1128,-571,62,-68
4050,-16,-1680,-1144,-584,63,-67
4055,-8,-1664,-1184,-595,64,-62
4060,24,-1688,-1144,-606,65,-55
4065,16,-1680,-1160,-618,67,-51
4070,24,-1680,-1152,-633,72,-43
4075,32,-1664,-1152,-644,73,-40
4080,72,-1680,-1192,-655,78,-36
4085,32,-1656,-1208,-669,82,-36
4090,48,-1680,-1208,-685,84,-31
4095,72,-1656,-1248,-703,88,-28
4100,72,-1648,-1232,-721,94,-26
4105,72,-1712,-1216,-736,97,-25
4110,72,-1640,-1216,-753,98,-26
4115,40,-1616,-1248,-770,100,-19
4120,32,-1624,-1224,-790,99,-14
4125,40,-1624,-1224,-806,100,-15
4130,16,-1592,-1240,-826,100,-12
4135,16,-1576,-1240,-844,99,-14
4140,16,-1600,-1288,-862,97,-10
4145,-16,-1560,-1296,-877,94,-11
4150,-24,-1560,-1288,-894,96,-20
4155,0,-1568,-1280,-909,96,-19
4160,0,-1576,-1312,-922,94,-17
4165,-16,-1576,-1304,-933,96,-20
4170,0,-1568,-1328,-935,97,-21
4175,-16,-1560,-1352,-943,100,-25
4180,0,-1560,-1368,-953,98,-23
4185,16,-1552,-1368,-970,95,-24
4190,16,-1640,-1432,-990,92,-27
4195,16,-1512,-1376,-1017,94,-48
4200,24,-1544,-1384,-1034,92,-44
4205,56,-1528,-1376,-1049,91,-47
4210,24,-1512,-1392,-1071,90,-50
4215,24,-1512,-1368,-1097,90,-53
4220,16,-1496,-1376,-1125,84,-54
4225,-8,-1456,-1328,-1163,82,-61
4230,32,-1440,-1408,-1200,78,-63
4235,32,-1456,-1440,-1230,71,-59
4240,24,-1440,-1424,-1257,68,-57
4245,48,-1416,-1440,-1279,69,-56
4250,16,-1384,-1440,-1299,73,-53
4255,32,-1336,-1480,-1326,75,-65
4260,8,-1392,-1464,-1348,72,-51
4265,32,-1400,-1480,-1370,69,-43
4270,16,-1376,-1504,-1398,70,-39
4275,0,-1400,-1496,-1425,64,-40
4280,16,-1328,-1584,-1453,65,-48
4285,56,-1376,-1536,-1474,67,-34
4290,56,-1368,-1576,-1492,67,-23
4295,48,-1368,-1560,-1516,63,-9
4300,72,-1528,-1704,-1529,71,-18
4305,64,-1344,-1600,-1547,81,-28
4310,64,-1352,-1632,-1556,85,-18
4315,0,-1368,-1616,-1570,92,-15
4320,64,-1376,-1704,-1588,100,-12
4325,32,-1320,-1680,-1601,119,-28
4330,32,-1368,-1696,-1589,136,-27
4335,24,-1344,-1672,-1585,155,-33
4340,72,-1416,-1696,-1592,171,-33
4345,40,-1272,-1712,-1612,181,-41
4350,56,-1312,-1744,-1624,189,-24
4355,40,-1224,-1696,-1641,198,1
4360,128,-1376,-1744,-1644,212,4
4365,88,-1168,-1704,-1654,223,13
4370,0,-1136,-1688,-1658,233,41
4375,48,-1128,-1720,-1658,234,62
4380,40,-1072,-1752,-1660,238,75
4385,88,-1056,-1752,-1666,241,95
4390,64,-1104,-1792,-1672,246,121
4395,104,-1152,-1768,-1695,251,152
4400,56,-1008,-1848,-1720,261,148
4405,72,-1048,-1896,-1735,253,169
4410,104,-1072,-1928,-1752,252,194
4415,40,-1048,-1952,-1773,253,221
4420,32,-1040,-1944,-1807,251,235
4425,56,-1048,-1992,-1840,245,271
4430,72,-1072,-2048,-1855,246,282
4435,56,-1040,-2032,-1865,238,295
4440,16,-1096,-2120,-1871,234,305
4445,88,-1048,-2128,-1872,242,308
4450,40,-1056,-2168,-1861,258,308
4455,64,-992,-2168,-1838,285,314
4460,72,-920,-2208,-1801,321,300
4465,96,-952,-2224,-1762,362,290
4470,88,-928,-2224,-1716,402,289
4475,64,-912,-2296,-1677,449,282
4480,8,-808,-2280,-1643,491,276
4485,120,-768,-2232,-1625,540,271
4490,184,-688,-2216,-1604,577,267
4495,128,-624,-2248,-1570,604,265
4500,192,-616,-2232,-1542,627,261
4505,112,-592,-2264,-1510,635,252
4510,32,-624,-2296,-1480,644,248
4515,48,-624,-2328,-1446,659,239
4520,40,-656,-2352,-1360,666,227
4525,88,-624,-2344,-1279,671,213
4530,0,-624,-2344,-1211,669,193
4535,16,-576,-2392,-1150,659,166
4540,-16,-544,-2376,-1099,640,138
4545,64,-496,-2408,-1057,615,121
4550,-24,-544,-2416,-1014,577,97
4555,-64,-520,-2400,-981,561,77
4560,-16,-464,-2416,-938,545,56
4565,64,-432,-2408,-890,505,38
4570,56,-392,-2368,-842,463,25
4575,72,-400,-2368,-811,423,14
4580,72,-352,-2384,-786,389,4
4585,120,-376,-2352,-763,363,-6
4590,136,-360,-2400,-747,344,-16
4595,184,-344,-2408,-733,328,-25
4600,272,-352,-2416,-723,317,-33
4605,256,-312,-2432,-715,306,-41
4610,304,-320,-2408,-709,296,-49
4615,336,-280,-2384,-697,280,-55
4620,344,-272,-2376,-682,269,-58
4625,320,-208,-2336,-673,253,-58
4630,312,-216,-2312,-660,238,-58
4635,320,-216,-2328,-648,222,-58
4640,296,-208,-2264,-639,212,-57
4645,272,-232,-2280,-634,203,-55
4650,264,-208,-2264,-632,189,-56
4655,248,-192,-2240,-634,176,-54
4660,232,-168,-2240,-638,163,-56
4665,200,-176,-2208,-639,141,-62
4670,208,-176,-2240,-633,122,-69
4675,224,-208,-2216,-622,106,-74
4680,232,-160,-2232,-610,94,-81
4685,208,-152,-2184,-599,83,-84
4690,200,-152,-2224,-590,73,-90
4695,240,-144,-2192,-579,67,-94
4700,240,-152,-2160,-566,64,-99
4705,248,-112,-2168,-554,59,-101
4710,248,-128,-2160,-544,54,-106
4715,256,-96,-2136,-534,43,-107
4720,240,-96,-2152,-523,34,-108
4725,256,-88,-2096,-514,25,-108
4730,248,-72,-2088,-505,17,-109
4735,248,-40,-2104,-496,11,-107
4740,248,-40,-2104,-486,5,-107
4745,248,-48,-2112,-479,-1,-105
4750,264,-32,-2104,-472,-8,-105
4755,240,-32,-2112,-466,-11,-101
4760,280,-48,-2104,-463,-12,-102
4765,264,-32,-2128,-454,-10,-100
4770,256,-32,-2096,-444,-5,-100
4775,240,-8,-2088,-431,-1,-99
4780,256,-16,-2096,-420,0,-99
4785,232,-8,-2120,-408,3,-98
4790,232,24,-2080,-398,6,-98
4795,240,-8,-2112,-394,9,-92
4800,248,16,-2064,-389,8,-90
4805,248,32,-2080,-385,9,-86
4810,232,48,-2112,-377,8,-85
4815,240,32,-2128,-369,4,-82
4820,256,64,-2128,-358,6,-84
4825,248,48,-2120,-348,9,-86
4830,256,48,-2112,-337,13,-87
4835,248,48,-2128,-323,16,-87
4840,224,32,-2112,-310,20,-89
4845,240,16,-2144,-297,18,-84
4850,224,40,-2136,-284,12,-82
4855,224,56,-2152,-269,4,-73
4860,232,32,-2120,-253,-6,-70
4865,216,40,-2128,-238,-22,-61
4870,248,24,-2128,-220,-34,-59
4875,240,40,-2152,-203,-46,-53
4880,232,64,-2120,-185,-57,-49
4885,240,64,-2112,-171,-63,-42
4890,256,64,-2120,-159,-70,-40
4895,240,48,-2144,-149,-73,-38
4900,240,72,-2136,-142,-71,-39
4905,208,72,-2168,-131,-65,-37
4910,248,40,-2136,-123,-56,-40
4915,224,64,-2112,-117,-44,-39
4920,248,72,-2128,-109,-34,-40
4925,240,80,-2112,-105,-28,-37
4930,240,56,-2112,-102,-21,-39
4935,248,64,-2128,-97,-18,-33
4940,224,56,-2104,-93,-15,-33
4945,224,72,-2112,-89,-13,-30
4950,216,24,-2112,-81,-11,-32
4955,192,32,-2056,-67,-14,-27
4960,192,72,-2152,-54,-17,-28
4965,208,40,-2112,-43,-18,-24
4970,216,16,-2112,-27,-21,-22
4975,208,16,-2128,-12,-27,-17
4980,176,24,-2096,-1,-32,-20
4985,176,40,-2136,15,-40,-18
4990,184,8,-2112,32,-49,-21
4995,216,0,-2120,48,-53,-22
5000,200,24,-2120,65,-56,-28
5005,192,0,-2136,85,-59,-29
5010,184,-8,-2136,106,-58,-35
5015,176,-8,-2144,131,-56,-36
5020,184,8,-2152,157,-51,-41
5025,168,-32,-2176,178,-44,-36
5030,152,-48,-2200,196,-36,-41
5035,192,-24,-2128,215,-26,-47
5040,272,-16,-2120,244,-27,-49
5045,256,-32,-2120,272,-24,-39
5050,264,-32,-2128,303,-17,-38
5055,232,-24,-2104,331,-12,-40
5060,200,-24,-2120,359,-6,-49
5065,224,-32,-2080,389,5,-56
5070,176,-24,-2072,404,14,-65
5075,216,-64,-2112,412,23,-63
5080,208,-32,-2088,424,30,-67
5085,184,-24,-2080,436,29,-64
5090,168,-88,-2096,453,29,-60
5095,168,-88,-2072,469,31,-59
5100,216,-112,-2104,481,32,-62
5105,144,-112,-2064,490,41,-67
5110,152,-96,-2088,503,36,-70
5115,136,-32,-2056,514,24,-68
5120,136,-160,-2088,524,15,-66
5125,112,-128,-2104,523,17,-80
5130,120,-104,-2088,518,21,-100
5135,120,-136,-2080,517,20,-114
5140,136,-128,-2048,516,20,-132
5145,104,-120,-2072,512,24,-139
5150,120,-104,-2056,502,22,-154
5155,136,-104,-2064,489,21,-162
5160,152,-104,-2048,471,22,-173
5165,152,-88,-2080,452,24,-169
5170,136,-104,-2072,442,20,-177
5175,160,-112,-2112,436,20,-172
5180,160,-112,-2080,432,20,-169
5185,184,-112,-2040,429,15,-158
5190,160,-152,-2064,428,10,-153
5195,176,-152,-2048,428,12,-142
5200,168,-192,-2040,426,14,-137
5205,152,-184,-2072,426,9,-130
5210,152,-192,-2080,423,7,-127
5215,144,-192,-2056,411,5,-125
5220,168,-232,-2064,408,-1,-120
5225,112,-248,-2064,392,-7,-123
5230,120,-248,-2024,375,-10,-127
5235,120,-232,-2032,364,-12,-130
5240,128,-224,-2008,356,-15,-137
5245,136,-232,-1992,351,-21,-138
5250,128,-208,-2000,346,-21,-143
5255,128,-208,-1976,337,-24,-139
5260,112,-200,-1976,325,-24,-141
5265,128,-200,-2000,309,-21,-140
5270,160,-216,-1960,295,-17,-145
5275,136,-216,-1984,282,-15,-146
5280,120,-200,-1992,274,-14,-150
5285,152,-208,-1992,266,-11,-150
5290,152,-208,-1992,258,-12,-152
5295,160,-232,-1976,251,-10,-147
5300,144,-200,-1984,242,-11,-147
5305,160,-240,-1984,233,-12,-141
5310,192,-248,-1968,224,-12,-141
5315,160,-240,-1960,216,-14,-137
5320,168,-240,-1976,206,-15,-136
5325,192,-272,-1968,197,-20,-130
5330,176,-232,-1936,188,-22,-131
5335,168,-256,-1952,180,-24,-126
5340,176,-248,-1928,172,-28,-126
5345,160,-288,-1872,163,-33,-124
5350,160,-224,-2104,154,-36,-127
5355,152,-376,-2048,147,-39,-129
5360,88,-280,-1920,140,-38,-136
5365,136,-288,-1960,130,-39,-139
5370,144,-296,-1976,122,-39,-144
5375,136,-288,-1992,116,-39,-146
5380,128,-312,-2008,111,-40,-152
5385,144,-296,-2008,113,-39,-153
5390,144,-312,-1992,114,-42,-157
5395,152,-304,-1992,116,-44,-156
5400,152,-296,-1976,117,-47,-159
5405,168,-296,-1984,115,-51,-157
5410,160,-264,-1968,113,-55,-160
5415,184,-280,-1960,106,-58,-159
5420,184,-272,-1992,100,-60,-164
5425,200,-256,-1976,90,-60,-164
5430,184,-280,-1984,79,-62,-170
5435,200,-272,-1992,71,-61,-171
5440,208,-280,-1968,60,-62,-176
5445,216,-304,-2016,50,-62,-178
5450,200,-288,-1984,39,-63,-186
5455,184,-296,-1992,27,-63,-191
5460,224,-328,-1984,21,-63,-198
5465,192,-328,-1992,20,-63,-200
5470,192,-344,-2000,20,-64,-209
5475,184,-368,-1992,18,-63,-211
5480,200,-352,-1992,16,-66,-219
5485,184,-360,-2000,16,-67,-223
5490,176,-336,-1984,16,-67,-230
5495,184,-344,-2000,17,-68,-233
5500,216,-360,-1984,16,-68,-240
5505,200,-344,-1984,18,-70,-243
5510,208,-352,-1976,22,-69,-252
5515,224,-360,-1984,29,-71,-254
5520,192,-328,-2000,34,-72,-259
5525,200,-352,-1992,39,-75,-261
5530,216,-336,-2000,44,-75,-268
5535,216,-320,-2000,44,-77,-269
5540,208,-312,-2008,43,-80,-276
5545,200,-344,-2008,41,-84,-278
5550,216,-328,-1992,34,-89,-286
5555,192,-312,-2024,28,-96,-290
5560,184,-312,-2032,21,-105,-298
5565,160,-288,-2040,15,-112,-300
5570,192,-304,-2032,10,-120,-309
5575,160,-280,-2024,6,-127,-310
5580,176,-296,-1992,2,-137,-317
5585,168,-312,-2000,-1,-147,-320
5590,160,-296,-2008,-5,-154,-326
5595,176,-296,-2040,-9,-160,-330
5600,152,-264,-2016,-13,-165,-342
5605,168,-312,-2000,-16,-172,-344
5610,160,-288,-2016,-21,-176,-350
5615,152,-288,-2016,-25,-180,-356
5620,168,-320,-2056,-31,-182,-364
5625,168,-312,-2072,-37,-185,-367
5630,160,-304,-2080,-42,-185,-377
5635,168,-304,-2064,-46,-185,-380
5640,176,-320,-2088,-50,-183,-386
5645,176,-296,-2080,-55,-183,-390
5650,192,-320,-2072,-59,-182,-397
5655,168,-312,-2072,-62,-182,-399
5660,168,-328,-2032,-66,-179,-405
5665,176,-304,-2056,-67,-180,-404
5670,144,-304,-2096,-64,-185,-406
5675,168,-296,-2072,-59,-190,-405
5680,152,-304,-2072,-53,-196,-409
5685,144,-312,-2080,-45,-201,-407
5690,152,-328,-2072,-38,-208,-410
5695,120,-296,-2072,-29,-213,-408
5700,128,-304,-2040,-19,-216,-411
5705,112,-304,-2032,-11,-219,-408
5710,112,-288,-2016,-8,-224,-411
5715,144,-288,-2008,-8,-225,-409
5720,128,-264,-2024,-7,-227,-413
5725,104,-296,-2000,-11,-235,-410
5730,96,-264,-2008,-15,-239,-415
5735,80,-264,-2016,-20,-240,-413
5740,88,-288,-2000,-23,-246,-419
5745,80,-288,-2056,-30,-252,-424
5750,72,-272,-2016,-35,-254,-428
5755,72,-280,-2040,-36,-255,-429
5760,40,-304,-2024,-41,-257,-434
5765,24,-304,-2000,-41,-261,-435
5770,32,-296,-2000,-43,-265,-440
5775,32,-304,-2016,-43,-272,-443
5780,32,-288,-2008,-40,-278,-447
5785,56,-320,-2032,-37,-284,-447
5790,16,-296,-1992,-38,-290,-453
5795,40,-296,-2032,-39,-295,-454
5800,8,-320,-2040,-39,-302,-460
5805,24,-320,-2000,-39,-308,-460
5810,32,-304,-2040,-37,-314,-465
5815,56,-320,-2024,-31,-319,-465
5820,32,-312,-2000,-24,-325,-470
5825,16,-328,-2048,-18,-331,-469
5830,48,-304,-2024,-14,-332,-473
5835,32,-320,-2008,-8,-334,-473
5840,48,-328,-2024,-8,-337,-476
5845,48,-328,-2040,-10,-338,-476
5850,40,-320,-2032,-9,-339,-479
5855,32,-312,-2016,-9,-338,-480
5860,32,-344,-2072,-14,-338,-484
5865,40,-328,-2048,-15,-336,-483
5870,32,-304,-2064,-15,-333,-485
5875,56,-344,-2056,-14,-329,-483
5880,48,-344,-2032,-11,-327,-483
5885,16,-320,-2048,-8,-326,-478
5890,40,-320,-2032,-6,-329,-478
5895,24,-320,-2040,-6,-329,-475
5900,8,-320,-2040,-5,-333,-474
5905,16,-328,-2032,-6,-336,-470
5910,0,-312,-2064,-9,-345,-472
5915,-8,-304,-2040,-11,-354,-466
5920,24,-320,-2032,-16,-364,-466
5925,-40,-288,-2056,-20,-376,-466
5930,-16,-304,-2040,-28,-387,-468
5935,-40,-312,-2024,-36,-398,-467
5940,-32,-312,-2032,-44,-408,-467
5945,-16,-328,-2000,-52,-417,-465
5950,-56,-336,-2016,-57,-434,-470
5955,-80,-344,-2056,-63,-438,-464
5960,-64,-352,-2072,-66,-446,-462
5965,-64,-352,-2000,-65,-455,-456
5970,-64,-368,-2000,-63,-465,-453
5975,-80,-368,-2016,-58,-470,-446
5980,-104,-384,-1984,-51,-476,-443
5985,-96,-368,-2008,-46,-479,-439
5990,-96,-368,-1968,-41,-480,-440
5995,-80,-384,-1992,-36,-482,-441
6000,-80,-376,-2000,-27,-484,-443
6005,-96,-360,-1984,-21,-487,-445
6010,-64,-376,-1968,-13,-491,-448
6015,-80,-360,-1952,-6,-492,-449
6020,-72,-384,-1936,0,-495,-447
6025,-64,-376,-1960,4,-494,-443
6030,-64,-360,-1944,8,-498,-443
6035,-72,-368,-1920,10,-500,-438
6040,-64,-384,-1904,16,-504,-435
6045,-64,-384,-1968,18,-507,-430
6050,-24,-456,-1904,34,-512,-409
6055,-56,-384,-1936,34,-519,-417
6060,-56,-384,-1928,29,-525,-429
6065,-80,-368,-1928,28,-531,-431
6070,-80,-352,-1928,30,-533,-428
6075,-96,-344,-1904,31,-537,-424
6080,-96,-344,-1904,32,-541,-424
6085,-88,-352,-1928,29,-545,-423
6090,-88,-368,-1904,24,-548,-425
6095,-120,-376,-1920,21,-552,-426
6100,-96,-416,-1880,18,-558,-427
6105,-96,-400,-1896,11,-563,-430
6110,-104,-424,-1880,9,-571,-435
6115,-104,-424,-1848,8,-580,-439
6120,-144,-408,-1848,9,-583,-435
6125,-120,-424,-1856,19,-586,-428
6130,-112,-424,-1856,29,-593,-425
6135,-128,-432,-1832,34,-600,-425
6140,-120,-408,-1840,36,-606,-425
6145,-136,-400,-1808,43,-615,-423
6150,-112,-424,-1832,51,-624,-427
6155,-144,-408,-1776,57,-637,-434
6160,-160,-400,-1800,60,-646,-436
6165,-160,-432,-1800,58,-652,-441
6170,-152,-400,-1800,56,-656,-452
6175,-152,-408,-1840,52,-656,-452
6180,-128,-432,-1808,47,-649,-450
6185,-128,-456,-1808,38,-642,-444
6190,-112,-472,-1840,34,-640,-439
6195,-128,-456,-1808,32,-642,-437
6200,-128,-472,-1832,31,-649,-440
6205,-152,-464,-1784,31,-662,-442
6210,-120,-504,-1808,34,-681,-444
6215,-160,-464,-1848,43,-698,-447
6220,-168,-456,-1816,55,-715,-451
6225,-168,-464,-1840,69,-731,-458
6230,-144,-456,-1848,87,-743,-464
6235,-176,-448,-1816,101,-755,-469
6240,-168,-408,-1784,108,-766,-471
6245,-176,-400,-1744,111,-780,-473
6250,-136,-416,-1696,104,-797,-470
6255,-152,-432,-1720,99,-813,-466
6260,-112,-416,-1688,92,-835,-460
6265,-176,-448,-1720,90,-861,-455
6270,-168,-440,-1712,88,-872,-444
6275,-144,-432,-1752,90,-879,-435
6280,-104,-488,-1720,89,-888,-423
6285,-104,-488,-1728,91,-899,-414
6290,-96,-512,-1728,98,-912,-408
6295,-96,-536,-1720,107,-925,-406
6300,-104,-528,-1680,122,-937,-404
6305,-96,-552,-1704,144,-947,-401
6310,-112,-536,-1704,172,-955,-399
6315,-120,-544,-1624,193,-967,-398
6320,-160,-528,-1648,213,-984,-400
6325,-136,-544,-1656,227,-1000,-394
6330,-120,-536,-1616,237,-1015,-394
6335,-136,-552,-1576,247,-1032,-390
6340,-152,-520,-1544,257,-1048,-386
6345,-176,-544,-1552,264,-1057,-382
6350,-168,-552,-1528,271,-1062,-380
6355,-176,-536,-1544,277,-1065,-387
6360,-176,-552,-1528,287,-1063,-395
6365,-184,-544,-1504,298,-1059,-405
6370,-184,-536,-1496,311,-1053,-418
6375,-176,-512,-1464,327,-1052,-431
6380,-152,-496,-1472,345,-1055,-441
6385,-136,-480,-1448,363,-1063,-448
6390,-120,-496,-1416,377,-1076,-447
6395,-112,-496,-1408,395,-1088,-444
6400,-80,-520,-1376,415,-1106,-432
6405,-64,-552,-1368,442,-1135,-419
6410,-40,-600,-1344,489,-1167,-402
6415,-80,-616,-1352,533,-1205,-387
6420,-8,-744,-1360,578,-1240,-351
6425,-88,-712,-1256,610,-1264,-331
6430,-96,-728,-1304,631,-1281,-317
6435,-96,-704,-1240,646,-1299,-299
6440,-80,-656,-1264,666,-1324,-291
6445,-128,-592,-1248,681,-1361,-294
6450,-120,-544,-1224,685,-1401,-298
6455,-192,-464,-1176,682,-1441,-302
6460,-160,-464,-1120,677,-1466,-304
6465,-216,-400,-1120,680,-1477,-306
6470,-232,-360,-1056,674,-1479,-303
6475,-192,-304,-1064,662,-1473,-291
6480,-144,-248,-1104,628,-1468,-270
6485,-88,-240,-1120,582,-1460,-240
6490,-120,-296,-1144,539,-1452,-201
6495,-80,-392,-1096,505,-1443,-180
6500,-64,-536,-1096,501,-1437,-155
6505,-48,-640,-1024,545,-1440,-137
6510,-64,-696,-1040,616,-1444,-117
6515,24,-776,-976,702,-1450,-106
6520,-112,-776,-1072,803,-1453,-99
6525,-88,-760,-960,883,-1433,-72
6530,-24,-680,-936,938,-1412,-83
6535,-56,-584,-856,971,-1405,-101
6540,-16,-416,-784,965,-1416,-110
6545,-56,-248,-752,908,-1436,-114
6550,-88,-160,-632,813,-1468,-97
6555,-88,-160,-544,693,-1509,-60
6560,-96,-240,-432,626,-1539,-12
6565,-96,-320,-352,606,-1559,36
6570,-96,-400,-352,623,-1573,84
6575,-112,-496,-392,657,-1576,127
6580,-96,-568,-408,693,-1562,163
6585,-104,-552,-400,725,-1532,183
6590,-104,-536,-296,756,-1486,200
6595,-96,-544,-256,790,-1441,225
6600,-128,-496,-200,794,-1396,228
6605,-136,-384,-152,787,-1369,230
6610,-184,-312,-96,769,-1352,232
6615,-240,-200,-40,739,-1346,232
6620,-312,-120,56,703,-1347,235
6625,-408,-96,80,673,-1351,243
6630,-456,-112,40,654,-1350,265
6635,-560,-72,-16,638,-1326,270
6640,-624,-64,-40,620,-1297,275
6645,-648,-112,-80,596,-1282,277
6650,-680,-160,-128,576,-1274,285
6655,-728,-232,-120,553,-1284,283
6660,-808,-288,-104,553,-1303,283
6665,-800,-432,-112,561,-1357,283
6670,-840,-528,-144,583,-1426,281
6675,-824,-592,-184,607,-1527,267
6680,-912,-616,-160,631,-1604,256
6685,-984,-640,-192,657,-1704,210
6690,-1144,-592,-112,684,-1813,129
6695,-1160,-544,-80,721,-1930,52
6700,-1240,-448,-152,756,-2062,-13
6705,-1288,-336,-152,764,-2211,-73
6710,-1328,-240,-112,746,-2389,-158
6715,-1400,-128,-104,718,-2555,-245
6720,-1520,-32,-112,658,-2729,-325
6725,-1576,8,-48,587,-2917,-399
6730,-1664,128,-64,531,-3087,-428
6735,-2328,24,88,469,-3306,-454
6740,-3200,-56,72,393,-3676,-531
6745,-3416,-400,-288,345,-4083,-467
6750,-4352,-536,-424,300,-4463,-147
6755,-6296,-2240,-80,106,-4828,131
6760,-9528,-4904,-464,-181,-5615,309
6765,-17944,-8736,-4128,-1055,-6987,724
6770,-30024,-8360,-6544,-3375,-7731,2360
6775,-32768,-5416,-3200,-4958,-6774,4405
6780,-32768,-4520,176,-2714,-6382,5164
6785,-14432,-6760,-728,980,-5643,4500
6790,-4912,-3520,-1808,2505,-5540,1431
6795,104,-2488,-936,3617,-5063,-457
6800,4200,-1856,728,4786,-4379,-784
6805,7968,-1048,1256,6023,-3790,68
6810,9280,432,1096,5831,-2667,1305
6815,7152,1824,1888,4453,-1189,2784
6820,3928,1808,1216,2870,-480,4747
6825,1264,1008,-496,1433,-1193,6645
6830,-664,-160,-2008,345,-2271,7763
6835,-1392,-1280,-2552,-187,-2701,7999
6840,-1968,-2464,-1960,165,-2211,7432
6845,-2760,-2688,-560,1371,-1072,5870
6850,-2992,-2160,720,2975,48,4656
6855,-2760,-1352,1504,3774,362,3892
6860,-1696,-592,1048,3773,164,3272
6865,-896,72,704,2856,-212,2579
6870,-664,296,728,1540,-476,2041
6875,-440,264,960,343,-665,1833
6880,-512,208,1144,-406,-797,1883
6885,-744,368,1168,-672,-883,2038
6890,-1112,512,1440,-588,-851,2230
6895,-1528,592,1688,-255,-679,2377
6900,-1880,696,1816,156,-423,2317
6905,-2272,936,1752,315,-205,2047
6910,-2712,1000,1584,265,112,1602
6915,-3344,1224,1984,107,464,1085
6920,-3392,1128,1880,80,726,641
6925,-3200,840,1632,83,963,223
6930,-3048,592,1496,60,1214,-238
6935,-2832,440,1296,-22,1405,-705
6940,-2408,240,1176,-197,1455,-1088
6945,-2088,112,1040,-493,1327,-1330
6950,-1888,-128,992,-968,973,-1337
6955,-1744,-296,928,-1244,579,-1216
6960,-1752,-408,760,-1289,185,-1037
6965,-1960,-216,576,-1083,-110,-841
6970,-2016,-24,448,-704,-302,-624
6975,-2056,96,296,-263,-365,-441
6980,-2032,216,320,123,-321,-303
6985,-1960,248,416,367,-253,-231
6990,-1776,304,560,458,-196,-208
6995,-1640,352,736,438,-152,-219
7000,-1488,368,912,324,-148,-231
7005,-1312,368,1048,207,-197,-269
7010,-1296,384,1040,92,-295,-373
7015,-1272,520,1024,-23,-431,-524
7020,-1232,648,960,-112,-589,-660
7025,-1248,792,832,-186,-731,-774
7030,-1184,944,808,-246,-818,-839
7035,-1128,944,752,-286,-875,-869
7040,-1112,920,856,-288,-882,-873
7045,-1064,888,832,-278,-889,-871
7050,-1040,840,904,-284,-831,-861
7055,-1056,744,1112,-295,-746,-855
7060,-952,688,880,-305,-659,-832
7065,-728,616,928,-317,-483,-784
7070,-448,552,760,-331,-288,-751
7075,-280,608,520,-365,-104,-753
7080,-240,632,672,-424,76,-756
7085,-368,592,816,-443,185,-760
7090,-848,608,880,-371,196,-734
7095,-1256,592,920,-227,178,-660
7100,-1696,488,1000,-121,184,-573
7105,-2048,424,984,-50,172,-535
7110,-2200,368,952,-19,148,-528
7115,-2312,312,832,-31,129,-560
7120,-2568,160,880,-66,116,-585
7125,-2896,-16,952,-77,103,-599
7130,-2816,-144,976,-38,87,-593
7135,-2816,-176,944,20,71,-594
7140,-2920,16,920,56,69,-583
7145,-3032,136,912,105,88,-543
7150,-3072,328,856,154,101,-475
7155,-2968,536,696,191,107,-406
7160,-2920,736,712,207,126,-328
7165,-2864,856,768,210,150,-274
7170,-2760,952,696,233,174,-222
7175,-2608,992,672,268,201,-188
7180,-2472,1024,736,282,236,-170
7185,-2400,952,856,273,258,-162
7190,-2352,936,888,262,256,-145
7195,-2304,816,960,228,243,-113
7200,-2184,640,1032,188,235,-69
7205,-2144,480,1056,139,240,-24
7210,-2056,408,1016,87,255,28
7215,-1928,224,1080,27,277,66
7220,-1880,104,1032,-16,290,103
7225,-1816,16,1032,-49,291,143
7230,-1752,-40,920,-60,285,180
7235,-1696,-24,848,-64,275,202
7240,-1616,-8,776,-64,267,219
7245,-1592,32,784,-64,267,217
7250,-1544,104,744,-50,271,214
7255,-1416,144,736,-32,286,206
7260,-1376,224,800,-10,312,191
7265,-1344,256,816,5,345,163
7270,-1328,336,848,14,384,133
7275,-1312,384,832,3,433,88
7280,-1392,416,816,-36,495,45
7285,-1416,392,832,-86,554,-1
7290,-1464,352,832,-158,616,-29
7295,-1584,224,880,-222,662,-45
7300,-1760,96,832,-270,703,-36
7305,-1696,0,728,-308,730,-18
7310,-1768,-32,576,-348,764,-13
7315,-2016,-112,520,-387,792,-10
7320,-2200,-192,480,-398,789,13
7325,-2328,-288,400,-378,763,41
7330,-2232,-368,312,-356,741,65
7335,-2128,-432,320,-333,729,51
7340,-2056,-480,344,-247,720,38
7345,-1832,-464,240,-128,723,19
7350,-1592,-376,256,-8,746,-9
7355,-1560,-312,264,97,798,-50
7360,-1592,-248,336,199,853,-72
7365,-1728,-208,384,312,891,-70
7370,-1856,-128,456,403,919,-42
7375,-1824,-48,504,461,943,9
7380,-1912,8,520,489,954,43
7385,-1976,88,536,477,960,72
7390,-2040,120,464,417,951,104
7395,-2096,128,424,331,939,138
7400,-2176,120,344,252,929,178
7405,-2216,72,240,190,926,190
7410,-2320,16,96,143,930,203
7415,-2264,-96,0,103,933,192
7420,-2304,-40,-80,65,922,150
7425,-2232,-72,-216,24,895,103
7430,-2248,-112,-272,-9,871,63
7435,-2184,-104,-336,-25,828,5
7440,-2208,-176,-360,-41,766,-11
7445,-2152,-280,-304,-30,728,31
7450,-2032,-352,-216,6,706,87
7455,-1888,-440,-176,57,693,142
7460,-1880,-520,-136,117,689,202
7465,-1824,-544,16,164,678,250
7470,-1872,-528,32,194,667,291
7475,-1816,-552,64,196,647,302
7480,-1920,-496,88,173,630,294
7485,-1904,-424,128,139,613,274
7490,-1928,-392,72,102,596,263
7495,-1928,-320,-16,66,594,246
7500,-1984,-296,-72,32,604,231
7505,-1936,-280,-88,0,625,211
7510,-1960,-264,-88,-18,647,201
7515,-1960,-264,-160,-10,651,180
7520,-1992,-280,-192,5,652,151
7525,-2120,-288,-184,25,655,112
7530,-2152,-264,-184,44,658,59
7535,-2264,-224,-184,53,654,30
7540,-2288,-96,-136,59,630,34
7545,-2352,-64,-216,57,600,42
7550,-2256,-24,-296,40,597,47
7555,-2232,-8,-256,0,599,38
7560,-2256,24,-216,-33,591,36
7565,-2240,64,-232,-48,581,30
7570,-2264,80,-232,-63,575,29
7575,-2280,104,-296,-84,575,27
7580,-2240,72,-344,-116,570,29
7585,-2320,96,-360,-164,564,27
7590,-2312,24,-408,-194,573,34
7595,-2328,-8,-456,-209,570,37
7600,-2352,-72,-456,-219,552,41
7605,-2344,-120,-520,-223,527,35
7610,-2360,-168,-528,-214,499,35
7615,-2336,-224,-520,-196,471,32
7620,-2344,-200,-544,-172,438,35
7625,-2328,-232,-520,-152,401,39
7630,-2280,-216,-496,-134,352,51
7635,-2280,-176,-472,-115,311,59
7640,-2232,-136,-448,-104,270,74
7645,-2200,-88,-416,-94,229,85
7650,-2176,-32,-368,-89,189,99
7655,-2144,-8,-344,-85,151,107
7660,-2144,32,-304,-86,116,118
7665,-2136,56,-272,-92,78,124
7670,-2144,96,-288,-100,41,132
7675,-2128,128,-256,-107,5,135
7680,-2128,104,-280,-118,-36,145
7685,-2120,104,-264,-132,-67,149
7690,-2120,80,-232,-140,-95,155
7695,-2128,64,-224,-143,-117,157
7700,-2128,8,-216,-146,-134,158
7705,-2128,0,-216,-149,-147,155
7710,-2104,-8,-176,-149,-156,155
7715,-2104,-32,-144,-152,-161,148
7720,-2120,0,-160,-151,-162,142
7725,-2136,16,-96,-153,-162,136
7730,-2104,0,-120,-154,-157,124
7735,-2112,32,-112,-157,-148,108
7740,-2112,32,-80,-164,-142,99
7745,-2120,64,-80,-172,-134,88
7750,-2112,32,-48,-176,-130,84
7755,-2120,32,-40,-171,-128,74
7760,-2120,48,-40,-156,-121,68
7765,-2136,32,-32,-139,-116,57
7770,-2120,40,-32,-127,-112,50
7775,-2096,56,-16,-118,-107,38
7780,-2064,64,-8,-117,-102,25
7785,-2048,64,-8,-119,-99,9
7790,-2064,64,16,-122,-94,-5
7795,-2024,72,-24,-120,-89,-22
7800,-2008,32,-8,-115,-84,-32
7805,-1992,56,-16,-104,-76,-43
7810,-1992,32,0,-87,-70,-46
7815,-2032,40,0,-63,-64,-54
7820,-2024,8,8,-35,-55,-58
7825,-2024,8,-24,-10,-45,-65
7830,-2064,48,-16,11,-35,-68
7835,-2040,56,-8,18,-28,-72
7840,-2040,56,-24,18,-22,-71
7845,-2056,64,32,16,-15,-74
7850,-2080,48,0,15,-10,-72
7855,-2072,80,-16,15,-2,-72
7860,-2088,72,-8,18,7,-67
7865,-2128,88,-16,19,15,-65
7870,-2136,80,-16,18,23,-60
7875,-2128,88,-40,12,31,-56
7880,-2120,40,-48,3,40,-49
7885,-2104,16,-24,-2,42,-47
7890,-2096,8,-24,-3,47,-40
7895,-2096,16,-24,-1,50,-40
7900,-2088,-8,-16,1,52,-35
7905,-2040,0,-8,0,54,-33
7910,-2056,0,-16,-3,57,-27
7915,-2024,8,-16,-8,56,-26
7920,-2024,16,-16,-10,58,-21
7925,-2024,16,-8,-7,57,-23
7930,-2072,-8,-16,-2,59,-23
7935,-2048,8,0,1,61,-27
7940,-2048,24,24,3,63,-27
7945,-2064,56,-24,2,67,-30
7950,-2064,56,0,-1,68,-31
7955,-2080,56,-24,-5,70,-34
7960,-2064,48,-8,-9,73,-35
7965,-2088,32,-56,-12,79,-39
7970,-2072,40,-48,-14,83,-40
7975,-2112,24,-72,-16,89,-43
7980,-2104,24,-80,-13,93,-40
7985,-2088,8,-80,-10,96,-39
7990,-2104,0,-72,-5,100,-35
7995,-2096,-24,-80,1,100,-37
8000,-2096,-16,-112,5,99,-35
8005,-2088,0,-88,11,96,-36
8010,-2104,0,-112,11,92,-34
8015,-2104,16,-88,10,86,-31
8020,-2096,-8,-96,7,80,-29
8025,-2080,-8,-120,3,73,-28
8030,-2104,8,-120,1,68,-26
8035,-2088,-8,-112,-2,62,-27
8040,-2104,8,-112,-5,54,-26
8045,-2112,-24,-112,-7,49,-27
8050,-2112,-32,-80,-12,47,-28
8055,-2104,-24,-88,-17,41,-29
8060,-2096,-32,-72,-23,39,-30
8065,-2080,-32,-96,-29,39,-28
8070,-2048,-40,-104,-28,38,-28
8075,-2064,-48,-112,-27,39,-28
8080,-2088,-32,-104,-27,40,-26
8085,-2072,-32,-88,-26,43,-26
8090,-2080,-32,-104,-26,41,-23
8095,-2096,-32,-56,-25,41,-21
8100,-2096,-32,-96,-22,41,-16
8105,-2112,-32,-104,-21,41,-14
8110,-2112,-16,-88,-21,40,-9
8115,-2096,-16,-80,-25,38,-6
8120,-2088,-32,-80,-27,36,-2
8125,-2096,-8,-72,-30,33,1
8130,-2080,-8,-72,-31,29,3
8135,-2120,0,-88,-30,24,3
8140,-2080,-16,-88,-29,20,6
8145,-2080,-16,-56,-29,18,8
8150,-2072,-24,-64,-30,16,11
8155,-2080,-16,-40,-29,13,13
8160,-2056,-32,-72,-30,12,15
8165,-2088,-8,-48,-28,13,17
8170,-2088,-8,-48,-28,14,17
8175,-2080,-16,-56,-27,20,16
8180,-2080,-8,-40,-29,23,16
8185,-2080,0,-48,-32,28,15
8190,-2080,0,-48,-36,29,16
8195,-2096,-8,-32,-40,33,14
8200,-2056,-16,-56,-45,37,15
8205,-2064,8,-32,-44,40,14
8210,-2080,8,-32,-44,46,12
8215,-2096,16,-40,-42,48,9
8220,-2104,16,-56,-39,51,6
8225,-2096,0,-48,-36,55,4
8230,-2112,8,-48,-34,58,2
8235,-2088,0,-48,-30,60,-1
8240,-2096,8,-64,-24,60,-2
8245,-2072,8,-80,-22,63,-3
8250,-2080,16,-56,-19,63,-3
8255,-2088,24,0,-18,64,-4
8260,-2088,24,-40,-17,64,-5
8265,-2112,32,-64,-16,67,-6
8270,-2088,56,-16,-16,68,-5
8275,-2096,0,-48,-17,69,-7
8280,-2080,24,-24,-19,70,-4
8285,-2064,0,-48,-18,71,-4
8290,-2080,0,-48,-17,71,-1
8295,-2080,-16,-64,-15,72,0
8300,-2096,-32,-48,-13,72,1
8305,-2080,0,-64,-9,71,1
8310,-2088,0,-64,-4,72,0
8315,-2064,-16,-56,1,72,1
8320,-2088,8,-80,5,70,2
8325,-2088,8,-64,11,66,0
8330,-2104,0,-56,15,63,1
8335,-2072,16,-56,18,62,0
8340,-2088,24,-56,19,60,-1
8345,-2080,-8,-80,22,58,0
8350,-2080,0,-48,24,58,2
8355,-2088,0,-32,25,54,2
8360,-2088,-8,-48,26,53,3
8365,-2096,8,-64,24,51,5
8370,-2080,0,-40,24,52,3
8375,-2096,8,-48,21,50,3
8380,-2112,0,-72,21,49,1
8385,-2104,8,-96,21,49,0
8390,-2096,-24,-72,20,50,-1
8395,-2104,-16,-64,20,49,-1
8400,-2096,-8,-56,19,51,-4
8405,-2088,0,-104,21,50,-4
8410,-2088,0,-80,20,49,-4
8415,-2096,8,-96,19,49,-2
8420,-2088,0,-72,19,47,-2
8425,-2096,-8,-88,18,47,-2
8430,-2096,-8,-64,19,44,-2
8435,-2088,8,-40,17,41,-3
8440,-2064,-8,-56,16,38,-5
8445,-2088,16,-40,16,34,-4
8450,-2080,24,-8,13,33,-4
8455,-2080,8,-56,12,33,-4
8460,-2080,0,-56,10,31,-5
8465,-2088,8,-56,10,33,-5
8470,-2088,32,-40,10,35,-3
8475,-2096,24,-48,8,36,-4
8480,-2104,8,-112,6,37,-2
8485,-2088,0,-40,5,39,-2
8490,-2096,0,-56,5,39,0
8495,-2096,-8,-88,5,41,3
8500,-2096,0,-96,4,44,5
8505,-2104,0,-64,5,46,6
8510,-2096,-16,-64,5,50,4
8515,-2064,0,-88,4,49,4
8520,-2088,8,-64,2,50,1
8525,-2080,-24,-56,0,49,2
8530,-2072,8,-64,1,46,0
8535,-2072,-8,-40,4,43,-1
8540,-2080,-8,-56,8,41,-4
8545,-2088,-16,-72,14,38,-2
8550,-2096,-8,-64,22,36,-2
8555,-2096,-16,-64,31,35,1
8560,-2080,-16,-104,40,31,0
8565,-2080,0,-48,45,26,1
8570,-2096,-8,-64,48,21,1
8575,-2080,0,-32,46,18,-2
8580,-2104,56,0,39,17,-6
8585,-2088,40,-8,30,18,-8
8590,-2096,48,-24,20,20,-10
8595,-2080,32,-32,14,22,-11
8600,-2096,32,-16,10,27,-13
8605,-2104,0,-24,9,26,-13
8610,-2088,-24,-24,9,26,-16
8615,-2056,-48,-16,9,26,-18
8620,-2056,-40,-8,10,26,-18
8625,-2048,-32,-56,16,27,-13
8630,-2032,-48,-56,20,34,-7
8635,-2056,-48,-72,20,41,2
8640,-2056,-32,-72,22,42,7
8645,-2080,-16,-72,25,39,9
8650,-2112,0,-96,31,38,12
8655,-2096,16,-56,34,33,13
8660,-2104,24,-24,35,31,15
8665,-2080,32,-32,34,29,18
8670,-2072,32,-40,31,25,17
8675,-2080,48,128,30,26,16
8680,-2088,0,-72,30,27,11
8685,-2072,40,-208,29,30,10
8690,-2104,24,64,23,30,6
8695,-2096,16,-104,19,31,5
8700,-2064,-56,-64,21,32,3
8705,-2064,32,-24,19,32,3
8710,-2088,8,-48,18,33,3
8715,-2080,-8,-24,21,27,0
8720,-2080,8,-32,24,25,-1
8725,-2064,16,-48,29,26,2
8730,-2072,0,-32,31,31,2
8735,-2112,32,-48,31,32,3
8740,-2080,24,-16,31,25,-2
8745,-2080,16,-64,33,25,-4
8750,-2096,0,-8,35,25,-5
8755,-2048,0,-32,35,22,-5
8760,-2104,16,-24,35,25,-5
8765,-2112,0,-24,33,25,-7
8770,-2080,-32,-16,32,27,-5
8775,-2080,24,-24,31,27,-5
8780,-2088,16,8,26,30,-5
8785,-2072,8,-8,22,34,-1
8790,-2056,32,-48,21,36,0
8795,-2072,0,-16,16,37,2
8800,-2080,16,-8,13,40,2
8805,-2080,0,-32,14,41,2
8810,-2096,8,-32,12,44,1
8815,-2088,40,-32,14,44,1
8820,-2104,24,-8,13,42,1
8825,-2072,24,-8,13,42,0
8830,-2088,16,-32,13,43,0
8835,-2080,0,-16,13,43,2
8840,-2104,8,-24,15,41,-2
8845,-2096,24,-24,12,39,0
8850,-2112,16,-32,12,40,-2
8855,-2080,8,-16,9,39,1
8860,-2096,0,-48,8,40,0
8865,-2088,8,-8,6,42,2
8870,-2104,8,-32,6,39,1
8875,-2104,-8,0,10,41,1
8880,-2112,-16,-32,14,44,1
8885,-2120,-8,-48,17,45,2
8890,-2096,-8,-32,15,46,0
8895,-2096,0,-16,14,44,-4
8900,-2072,-8,-48,17,44,-7
8905,-2080,16,-56,16,45,-1
8910,-2080,8,-8,13,45,0
8915,-2088,-16,-40,15,44,2
8920,-2080,-8,-24,16,42,1
8925,-2080,-24,-48,17,39,1
8930,-2080,-8,-40,20,37,0
8935,-2080,8,-24,22,36,4
8940,-2072,0,-32,21,34,4
8945,-2120,8,-8,22,33,3
8950,-2080,8,-40,23,28,2
8955,-2104,8,-16,23,24,5
8960,-2104,0,0,27,21,1
8965,-2088,0,-8,29,16,-3
8970,-2056,-8,-24,31,18,-3
8975,-2128,-16,0,35,13,-7
8980,-2096,0,-8,40,-1,-16
8985,-2088,8,-16,43,1,-13
8990,-2072,0,-8,48,7,-11
8995,-2104,8,0,43,16,-6
9000,-2080,16,-16,34,17,-7
9005,-2096,8,-32,31,16,-6
9010,-2088,8,-8,29,18,-7
9015,-2088,-16,32,29,15,-6
9020,-2072,16,-16,31,14,-7
9025,-2048,32,-8,28,16,-5
9030,-2072,8,16,29,20,-5
9035,-2096,16,16,29,20,-2
9040,-2088,32,8,27,19,-4
9045,-2056,16,24,26,16,-1
9050,-2080,32,-8,25,21,3
9055,-2064,8,8,17,28,7
9060,-2080,8,16,11,31,7
9065,-2088,0,0,8,35,8
9070,-2120,8,0,5,39,6
9075,-2080,16,0,4,42,7
9080,-2088,0,-24,5,45,3
9085,-2072,0,16,5,50,5
9090,-2096,32,32,6,50,4
9095,-2072,-16,24,5,50,7
9100,-2064,0,-16,4,52,5
9105,-2096,8,-8,7,52,6
9110,-2088,16,-24,8,49,4
9115,-2080,24,-8,11,47,6
9120,-2080,-24,-8,14,44,6
9125,-2096,16,-24,18,41,6
9130,-2096,0,0,21,36,3
9135,-2064,-8,-24,26,31,9
9140,-2096,24,-48,32,24,5
9145,-2104,16,-16,33,18,5
9150,-2096,16,-24,35,14,1
9155,-2104,8,8,35,16,1
9160,-2104,24,0,34,19,0
9165,-2096,24,16,34,25,-2
9170,-2096,0,8,34,31,-7
9175,-2104,0,-16,35,35,-7
9180,-2080,-8,16,37,38,-18
9185,-2064,8,0,42,40,-21
9190,-2104,24,0,44,47,-22
9195,-2072,0,24,43,49,-21
9200,-2088,24,16,40,51,-20
9205,-2088,16,40,36,55,-15
9210,-2064,16,-8,30,53,-14
9215,-2072,32,16,29,52,-7
9220,-2088,16,8,28,45,-7
9225,-2104,32,24,25,44,-3
9230,-2096,16,-24,16,45,-5
9235,-2080,16,8,11,44,-2
9240,-2072,0,16,10,46,-6
9245,-2088,8,-8,7,48,-5
9250,-2064,8,-8,5,47,-7
9255,-2080,16,56,3,47,-5
9260,-2104,16,-16,2,46,-6
9265,-2088,8,-16,3,44,-4
9270,-2088,8,0,3,43,-3
9275,-2080,-16,0,4,43,1
9280,-2096,-16,8,5,42,0
9285,-2088,16,-24,8,38,4
9290,-2088,0,-8,11,35,3
9295,-2072,-16,16,15,35,6
9300,-2088,-8,16,20,30,4
9305,-2104,16,24,23,24,3
9310,-2080,8,24,28,19,-2
9315,-2064,0,8,31,16,0
9320,-2072,32,8,29,17,-4
9325,-2080,8,56,24,18,0
9330,-2080,8,32,18,18,-4
9335,-2080,0,24,14,24,-2
9340,-2080,-8,40,9,30,-4
9345,-2080,-24,0,2,34,-4
9350,-2072,-32,32,1,38,-7
9355,-2088,-24,24,0,45,-3
9360,-2064,-24,-8,-2,48,-3
9365,-2080,-16,-8,-4,50,2
9370,-2096,-8,8,-3,52,4
9375,-2096,8,24,-2,51,9
9380,-2080,16,0,2,49,7
9385,-2120,24,32,2,48,10
9390,-2112,48,32,-1,47,6
9395,-2104,32,8,-5,47,6
9400,-2096,48,40,-9,47,4
9405,-2080,32,48,-12,49,7
9410,-2088,40,0,-16,51,2
9415,-2064,0,0,-18,53,4
9420,-2056,32,-8,-21,54,1
9425,-2080,16,48,-25,55,3
9430,-2072,0,24,-29,56,1
9435,-2088,8,0,-30,56,3
9440,-2064,-16,40,-29,57,2
9445,-2072,16,32,-25,58,1
9450,-2088,8,40,-24,60,-1
9455,-2112,0,0,-21,59,1
9460,-2088,0,24,-18,60,-2
9465,-2088,24,48,-16,60,0
9470,-2104,16,24,-17,59,-3
9475,-2080,8,48,-17,60,-1
9480,-2088,8,0,-16,61,-2
9485,-2096,16,24,-17,61,-1
9490,-2080,24,8,-14,62,-4
9495,-2080,16,8,-14,61,-1
9500,-2088,0,8,-13,60,-2
9505,-2064,8,8,-11,60,-1
9510,-2088,8,16,-8,59,-2
9515,-2104,0,8,-7,57,2
9520,-2072,-8,32,-5,55,-1
9525,-2072,-8,0,-5,54,3
9530,-2080,-8,-8,-5,53,0
9535,-2080,16,24,-3,51,2
9540,-2072,16,-8,-1,49,1
9545,-2088,8,16,-3,48,2
9550,-2088,24,40,-3,48,-1
9555,-2088,16,-16,-2,50,2
9560,-2088,0,0,-5,51,0
9565,-2080,24,40,-5,53,0
9570,-2112,16,0,-8,55,-4
9575,-2080,8,40,-11,56,-2
9580,-2096,32,40,-15,58,-5
9585,-2080,8,-24,-19,57,-3
9590,-2080,24,24,-22,59,-4
9595,-2080,8,8,-23,60,0
9600,-2096,8,8,-22,62,-3
9605,-2064,8,8,-23,60,-2
9610,-2064,0,24,-22,60,-5
9615,-2080,-16,8,-23,60,-1
9620,-2088,0,16,-24,59,-3
9625,-2080,-16,-8,-25,58,0
9630,-2072,-24,0,-23,58,-1
9635,-2072,-16,16,-21,59,1
9640,-2096,-8,-8,-21,60,-2
9645,-2096,8,40,-21,60,0
9650,-2072,-8,8,-23,60,-2
9655,-2080,16,0,-25,59,1
9660,-2096,8,-16,-27,61,-1
9665,-2096,8,-16,-28,62,-1
9670,-2088,0,0,-30,62,-4
9675,-2080,8,-8,-30,63,-2
9680,-2096,16,-8,-30,61,-5
9685,-2072,24,-8,-30,61,-2
9690,-2104,-16,48,-30,61,-5
9695,-2064,0,24,-29,61,-1
9700,-2064,0,24,-29,60,-3
9705,-2072,8,0,-27,58,0
9710,-2072,16,40,-26,58,-2
9715,-2104,16,8,-24,57,0
9720,-2088,0,40,-23,58,-1
9725,-2096,0,8,-24,54,1
9730,-2072,-8,16,-23,55,-3
9735,-2088,32,16,-25,58,0
9740,-2072,16,24,-26,60,-4
9745,-2072,8,0,-28,62,-2
9750,-2096,8,32,-31,63,-4
9755,-2072,8,24,-34,65,-1
9760,-2096,8,0,-36,67,-5
9765,-2104,16,8,-37,68,-3
9770,-2096,8,16,-39,69,-7
9775,-2080,-8,0,-38,70,-5
9780,-2072,24,16,-36,71,-7
9785,-2080,8,0,-36,72,-3
9790,-2096,8,8,-35,70,-5
9795,-2104,16,24,-34,67,-2
9800,-2088,0,24,-32,67,-4
9805,-2088,-8,16,-33,67,-1
9810,-2104,8,8,-31,67,-5
9815,-2080,8,40,-31,67,-3
9820,-2080,8,8,-33,68,-6
9825,-2080,24,24,-35,67,-5
9830,-2112,8,32,-37,70,-6
9835,-2072,8,16,-38,71,-3
9840,-2096,8,0,-37,71,-4
9845,-2072,-24,8,-35,71,-2
9850,-2096,0,24,-33,71,-4
9855,-2088,8,32,-31,71,-3
9860,-2080,8,0,-30,71,-6
9865,-2072,0,40,-30,71,-2
9870,-2080,-8,-16,-25,68,-5
9875,-2096,8,8,-24,68,-2
9880,-2080,-16,16,-24,67,-4
9885,-2088,-8,-8,-24,67,-2
9890,-2096,16,8,-23,66,-5
9895,-2096,8,8,-23,66,-5
9900,-2088,24,24,-27,67,-7
9905,-2056,0,40,-30,67,-5
9910,-2096,-8,16,-31,66,-8
9915,-2096,8,24,-35,67,-6
9920,-2104,40,32,-35,68,-9
9925,-2064,-8,8,-36,70,-5
9930,-2104,32,-16,-36,71,-9
9935,-2080,0,48,-37,71,-7
9940,-2080,0,8,-37,74,-8
9945,-2088,8,-8,-36,75,-5
9950,-2072,-8,24,-35,72,-7
9955,-2064,8,48,-35,71,-3
9960,-2104,-16,-16,-33,68,-4
9965,-2096,16,8,-35,65,-3
9970,-2096,8,32,-34,63,-6
9975,-2088,16,8,-35,62,-3
9980,-2096,32,0,-37,63,-5
9985,-2080,8,40,-39,62,-1
9990,-2096,8,-8,-37,63,-5
9995,-2096,-16,-8,-35,64,-3
10000,-2088,-8,-16,-29,65,-5
10005,-2104,-8,16,-23,65,-3
10010,-2096,24,-8,-17,62,-4
10015,-2080,0,8,-11,60,-2
10020,-2112,-8,0,-11,58,-5
10025,-2096,24,0,-11,58,-4
10030,-2088,16,16,-14,56,-7
10035,-2088,40,8,-18,56,-6
10040,-2096,16,40,-20,58,-10
10045,-2072,-16,16,-24,60,-9
10050,-2080,-24,16,-25,60,-10
10055,-2080,-24,40,-27,60,-7
10060,-2072,-24,40,-26,62,-8
10065,-2064,-24,48,-25,62,-4
10070,-2072,-16,-8,-23,64,-5
10075,-2056,-16,16,-25,65,-2
10080,-2080,-32,24,-23,67,-2
10085,-2080,-8,32,-23,67,1
10090,-2096,-16,8,-20,68,-1
10095,-2088,24,8,-20,68,4
10100,-2096,40,0,-24,69,2
10105,-2064,16,16,-26,69,2
10110,-2104,32,0,-31,68,-1
10115,-2080,16,16,-33,68,1
10120,-2064,0,8,-35,68,-2
10125,-2064,8,0,-36,69,-1
10130,-2080,-16,8,-35,70,-4
10135,-2072,-8,0,-33,69,-2
10140,-2040,-16,0,-34,67,-3
10145,-2064,-8,8,-32,65,-1
10150,-2072,-8,8,-30,63,0
10155,-2080,0,32,-27,61,2
10160,-2096,8,24,-22,58,0
10165,-2088,8,-16,-17,57,3
10170,-2080,24,32,-14,55,0
10175,-2096,16,-40,-13,55,2
10180,-2080,16,-8,-12,56,-1
10185,-2088,8,-24,-13,54,1
10190,-2072,8,0,-10,56,-2
10195,-2104,24,8,-9,57,0
10200,-2088,0,0,-9,58,-4
10205,-2088,0,8,-9,62,-4
10210,-2096,16,0,-8,62,-6
10215,-2080,16,0,-7,64,-4
10220,-2056,-16,32,-6,64,-5
10225,-2080,-8,8,-2,64,-4
10230,-2080,-8,24,-1,64,-6
10235,-2088,24,0,-1,65,-3
10240,-2064,-16,-16,0,61,-5
10245,-2088,-8,8,-1,59,-4
10250,-2064,8,0,-1,58,-6
10255,-2064,-8,32,1,56,-3
10260,-2080,-8,32,2,52,-4
10265,-2088,-8,0,4,53,-3
10270,-2080,-8,-24,5,51,-4
10275,-2064,-8,0,4,51,-2
10280,-2080,0,16,3,51,-3
10285,-2088,8,16,0,51,-2
10290,-2064,8,16,-4,51,-4
10295,-2088,8,8,-6,52,-1
10300,-2056,0,-16,-10,50,-2
10305,-2080,32,40,-10,51,0
10310,-2056,-8,32,-10,51,-2
10315,-2064,-16,8,-11,50,-1
10320,-2112,8,-56,-9,49,-2
10325,-2072,-16,-8,-6,48,-1
10330,-2096,-16,8,-3,48,-1
10335,-2088,-16,-16,0,46,1
10340,-2104,0,0,2,48,0
10345,-2072,-16,-40,5,45,3
10350,-2104,24,8,6,41,2
10355,-2080,-8,-16,6,41,5
10360,-2096,8,16,7,39,4
10365,-2088,16,8,10,39,7
10370,-2112,48,0,9,39,6
10375,-2096,0,-8,8,39,7
10380,-2088,8,48,7,39,5
10385,-2088,0,8,3,41,6
10390,-2104,24,40,0,43,3
10395,-2080,40,0,-3,45,3
10400,-2072,8,32,-5,48,0
10405,-2088,16,16,-7,52,3
10410,-2080,0,32,-9,53,1
10415,-2064,0,16,-9,57,3
10420,-2072,8,56,-10,57,2
10425,-2072,8,40,-8,57,4
10430,-2080,8,48,-10,57,2
10435,-2080,16,16,-9,57,2
10440,-2088,8,0,-6,57,0
10445,-2080,8,32,-2,55,1
10450,-2088,8,24,0,55,-2
10455,-2088,8,32,1,54,1
10460,-2088,24,8,4,53,0
10465,-2096,16,24,5,55,2
10470,-2080,16,8,5,55,0
10475,-2072,8,8,6,55,3
10480,-2096,16,32,5,54,2
10485,-2072,8,24,4,56,3
10490,-2064,0,0,5,57,3
10495,-2096,-16,16,2,56,3
10500,-2088,8,48,2,57,2
10505,-2088,16,0,2,58,3
10510,-2088,-8,40,1,59,1
10515,-2104,16,-8,0,60,3
10520,-2096,0,32,-1,62,1
10525,-2056,0,32,-4,62,2
10530,-2088,16,24,-4,61,1
10535,-2064,0,8,-3,61,2
10540,-2112,24,0,-2,62,-1
10545,-2064,0,0,-2,59,1
10550,-2088,0,16,-1,60,0
10555,-2080,-8,-8,1,57,2
10560,-2104,8,0,2,56,0
10565,-2088,0,16,4,53,4
10570,-2096,16,8,8,52,1
10575,-2104,0,8,11,51,3
10580,-2088,16,0,14,48,1
10585,-2072,-16,24,13,47,1
10590,-2096,24,32,14,44,-1
10595,-2088,-16,24,17,43,0
10600,-2088,32,40,16,42,-1
10605,-2104,8,16,16,44,-1
10610,-2064,-16,8,13,45,-3
10615,-2096,24,48,9,45,-2
10620,-2072,8,24,4,46,-3
10625,-2088,8,48,0,47,-3
10630,-2080,40,56,-2,48,-5
10635,-2096,24,56,-6,52,-2
10640,-2096,24,32,-9,57,-3
10645,-2088,-16,16,-10,60,-2
10650,-2096,-8,-16,-12,62,-3
10655,-2080,-8,-16,-13,63,-1
10660,-2080,-8,56,-13,62,-2
10665,-2080,-16,16,-13,61,-1
10670,-2096,16,0,-9,58,-1
10675,-2072,0,-8,-8,56,2
10680,-2056,0,48,-5,55,2
10685,-2088,0,-8,-1,55,3
10690,-2088,-8,-16,5,52,3
10695,-2096,0,-8,10,49,4
10700,-2088,0,-8,14,48,3
10705,-2112,0,24,17,45,5
10710,-2088,0,-8,20,43,3
10715,-2112,0,32,23,42,3
10720,-2080,8,24,21,41,1
10725,-2096,32,0,20,40,1
10730,-2096,32,32,19,41,-3
10735,-2096,16,16,17,42,-2
10740,-2072,24,40,13,44,-4
10745,-2088,8,64,10,46,-3
10750,-2080,8,40,6,51,-3
10755,-2072,-32,40,7,54,-2
10760,-2080,-24,32,9,58,-1
10765,-2080,-16,8,12,61,0
10770,-2088,-16,56,14,61,-1
10775,-2088,-8,32,18,63,1
10780,-2072,-8,16,21,62,1
10785,-2088,-8,24,24,61,6
10790,-2096,40,-8,24,58,7
10795,-2088,24,16,23,55,10
10800,-2096,8,8,21,55,8
10805,-2096,24,32,22,53,10
10810,-2088,24,16,18,52,6
10815,-2080,24,48,16,53,5
10820,-2080,8,40,12,56,4
10825,-2096,32,8,7,59,4
10830,-2064,0,32,0,63,2
10835,-2056,48,48,-6,64,4
10840,-2064,0,56,-7,61,2
10845,-2072,24,0,-7,59,3
10850,-2072,-16,16,-6,55,2
10855,-2088,24,64,-3,55,4
10860,-2080,0,8,0,52,4
10865,-2096,0,24,1,50,6
10870,-2080,-8,32,5,48,4
10875,-2088,-8,32,8,48,4
10880,-2088,24,24,13,47,1
10885,-2080,24,0,15,47,0
10890,-2072,16,-8,16,46,-2
10895,-2096,16,40,17,45,-1
10900,-2088,0,16,14,45,-2
10905,-2104,40,24,15,44,1
10910,-2072,24,48,15,45,-1
10915,-2080,16,56,14,45,-2
10920,-2088,16,64,10,47,-2
10925,-2072,8,40,7,49,-2
10930,-2096,40,40,3,52,-4
10935,-2064,8,32,1,54,-1
10940,-2080,24,40,-2,55,-3
10945,-2096,16,0,-3,57,-3
10950,-2072,24,-16,-3,56,-5
10955,-2080,-16,24,-4,55,-5
10960,-2080,8,40,-3,52,-5
10965,-2096,8,32,-1,51,-3
10970,-2080,0,16,-1,50,-4
10975,-2096,0,32,1,49,-3
10980,-2080,-8,8,1,50,-4
10985,-2072,0,16,1,50,-3
10990,-2096,0,32,0,49,-4
10995,-2072,16,40,-4,49,-3
11000,-2112,32,32,-5,47,-3
11005,-2072,16,24,-2,47,-2
11010,-2080,0,0,-2,47,-2
11015,-2064,-8,24,-2,47,-2
11020,-2072,-8,40,-2,46,-3
11025,-2096,24,8,0,47,-3
11030,-2096,8,16,0,46,-3
11035,-2112,16,8,2,44,-1
11040,-2088,-24,48,5,42,-1
11045,-2096,0,40,8,40,-1
11050,-2096,24,48,13,39,0
11055,-2080,8,48,16,39,2
11060,-2080,-8,24,19,37,0
11065,-2080,-16,8,19,38,3
11070,-2072,8,40,22,39,1
11075,-2088,24,40,22,41,-1
11080,-2096,16,40,20,43,-2
11085,-2096,64,64,14,46,-2
11090,-2072,32,64,6,49,-1
11095,-2080,0,40,0,51,-2
11100,-2088,24,40,-4,54,-2
11105,-2088,24,40,-9,56,-1
11110,-2096,40,48,-10,56,-1
11115,-2096,8,16,-9,56,2
11120,-2080,0,0,-9,55,1
11125,-2080,0,32,-8,52,3
11130,-2104,8,40,-6,51,4
11135,-2096,-16,16,-5,52,5
11140,-2088,-8,24,-5,51,6
11145,-2104,8,48,-1,52,5
11150,-2096,24,56,0,53,5
11155,-2088,0,16,2,52,4
11160,-2088,24,16,2,53,4
11165,-2088,32,24,1,55,3
11170,-2096,8,24,-1,57,3
11175,-2112,32,0,-3,59,3
11180,-2088,40,40,-6,59,3
11185,-2088,8,8,-5,59,1
11190,-2056,16,56,-4,58,0
11195,-2088,24,24,-1,59,0
11200,-2080,0,16,0,59,1
11205,-2088,16,24,1,60,0
11210,-2096,-8,0,0,59,1
11215,-2080,0,32,2,58,3
11220,-2088,8,32,3,57,3
11225,-2072,8,40,7,55,3
11230,-2072,24,32,9,56,3
11235,-2064,16,48,9,54,3
11240,-1920,8,8,8,52,2
11245,-2096,24,0,9,49,0
11250,-2056,8,64,11,48,2
11255,-2056,24,16,9,47,2
11260,-2088,16,32,7,45,-1
11265,-2072,32,32,7,45,0
11270,-2088,16,40,7,44,-2
11275,-2104,8,16,9,42,-4
11280,-2080,16,64,9,43,-4
11285,-2080,0,32,8,45,-2
11290,-2080,-8,24,4,45,1
11295,-2080,-8,40,3,45,1
11300,-2064,-16,64,3,45,3
11305,-2064,0,48,7,46,-1
11310,-2080,-8,56,13,45,-3
11315,-2072,16,48,15,49,-3
11320,-2096,40,40,13,50,-3
11325,-2104,32,24,5,51,-1
11330,-2080,24,48,-2,54,0
11335,-2088,16,56,-7,54,-2
11340,-2104,16,64,-10,57,-2
11345,-2080,24,56,-10,57,-3
11350,-2080,16,32,-9,59,-3
11355,-2088,8,48,-7,57,-3
11360,-2088,24,48,-5,57,-4
11365,-2080,16,0,-5,59,-4
11370,-2088,-8,40,-5,57,-4
11375,-2072,16,40,-6,57,-5
11380,-2096,8,56,-7,57,-4
11385,-2104,32,72,-7,54,-6
11390,-2080,24,40,-6,55,-4
11395,-2064,8,32,-4,54,-4
11400,-2088,0,24,-3,55,-3
11405,-2072,8,64,0,56,-5
11410,-2104,8,24,-1,54,-7
11415,-2096,16,24,-1,54,-7
11420,-2088,24,32,0,53,-9
11425,-2088,40,8,-2,52,-10
11430,-2080,16,48,-5,51,-8
11435,-2080,40,64,-10,49,-10
11440,-2088,40,40,-14,50,-9
11445,-2072,16,64,-19,51,-9
11450,-2104,16,32,-24,54,-10
11455,-2088,16,56,-27,57,-9
11460,-2056,-24,64,-27,60,-10
11465,-2072,-8,64,-25,61,-10
11470,-2080,-16,24,-22,62,-8
11475,-2064,-16,64,-22,63,-7
11480,-2048,-24,32,-17,64,-5
11485,-2080,-16,32,-15,64,-2
11490,-2088,-16,24,-14,64,0
11495,-2080,8,16,-11,62,2
11500,-2080,24,40,-12,61,3
11505,-2080,48,24,-17,61,3
11510,-2088,48,64,-23,62,4
11515,-2088,48,24,-28,64,2
11520,-2080,32,48,-33,65,1
11525,-2072,32,40,-38,68,-2
11530,-2072,24,48,-42,70,-4
11535,-2072,-8,80,-46,73,-6
11540,-2080,24,56,-49,74,-4
11545,-2064,24,64,-52,74,-5
11550,-2016,8,72,-54,74,-5
11555,-2064,0,48,-52,72,-4
11560,-2080,8,64,-51,71,-1
11565,-2056,-8,56,-47,68,-1
11570,-2080,16,24,-43,69,0
11575,-2080,-8,-8,-39,69,0
11580,-2064,16,8,-36,69,-2
11585,-2096,-8,16,-33,70,-4
11590,-2088,16,8,-33,69,-2
11595,-2072,24,32,-32,68,-5
11600,-2080,24,48,-32,68,-6
11605,-2064,16,56,-33,67,-7
11610,-2072,32,56,-33,66,-8
11615,-2096,40,16,-33,67,-10
11620,-2072,24,8,-35,66,-9
11625,-2088,32,16,-36,67,-11
11630,-2088,40,48,-35,66,-11
11635,-2088,24,56,-38,67,-13
11640,-2088,32,72,-37,66,-13
11645,-2096,0,56,-38,64,-14
11650,-2096,24,56,-39,63,-15
11655,-2048,16,40,-39,61,-16
11660,-2072,-8,56,-39,61,-16
11665,-2088,24,40,-40,59,-18
11670,-2080,-16,24,-42,57,-16
11675,-2088,8,8,-43,57,-18
11680,-2088,24,24,-40,55,-16
11685,-2096,8,56,-40,53,-17
11690,-2080,0,24,-43,52,-16
11695,-2072,16,-8,-46,51,-14
11700,-2088,8,16,-47,52,-13
11705,-2080,24,8,-49,53,-16
11710,-2080,8,0,-51,57,-16
11715,-2072,8,40,-53,60,-18
11720,-2112,16,32,-54,61,-17
11725,-2088,16,48,-55,62,-19
11730,-2096,-24,0,-54,61,-16
11735,-2096,0,8,-52,63,-15
11740,-2088,-16,16,-46,63,-15
11745,-2096,0,8,-42,63,-15
11750,-2104,-16,48,-41,61,-13
11755,-2096,-8,32,-39,61,-12
11760,-2104,-8,48,-39,61,-9
11765,-2088,-8,32,-39,61,-9
11770,-2088,0,40,-41,62,-7
11775,-2080,-16,8,-41,64,-8
11780,-2088,-8,8,-42,64,-6
11785,-2080,8,32,-42,65,-8
11790,-2088,32,56,-44,68,-7
11795,-2088,8,8,-47,70,-9
11800,-2088,40,40,-50,70,-8
11805,-2080,0,56,-52,71,-10
11810,-2080,8,24,-54,71,-8
11815,-2080,0,24,-57,68,-9
11820,-2080,-16,24,-57,68,-5
11825,-2056,-8,56,-55,67,-7
11830,-2096,8,56,-55,65,-5
11835,-2088,0,64,-53,64,-6
11840,-2072,-16,16,-52,65,-5
11845,-2088,-8,32,-52,63,-5
11850,-2064,-24,40,-50,62,-3
11855,-2072,0,24,-49,62,-4
11860,-2072,16,64,-50,61,-3
11865,-2104,16,32,-49,62,-3
11870,-2088,16,64,-51,63,-2
11875,-2056,0,56,-52,62,-4
11880,-2096,24,16,-50,63,-2
11885,-2072,24,56,-52,65,-3
11890,-2088,8,48,-52,66,-1
11895,-2080,16,32,-51,69,-3
11900,-2064,16,40,-53,73,0
11905,-2064,-16,56,-50,72,-1
11910,-2064,-8,32,-50,72,1
11915,-2064,-8,24,-50,73,0
11920,-2088,40,32,-46,74,3
11925,-1984,0,-40,-43,74,1
11930,-2104,-8,8,-41,73,5
11935,-2024,-24,96,-40,73,5
11940,-2064,16,-32,-38,73,4
11945,-2120,112,-40,-37,74,1
11950,-2224,16,-40,-35,73,2
11955,-2072,40,32,-34,74,0
11960,-2096,0,40,-33,75,-2
11965,-2104,16,16,-32,74,-7
11970,-2080,32,24,-31,73,-10
11975,-2104,24,32,-30,73,-15
11980,-2096,40,24,-33,72,-16
11985,-2088,16,8,-35,69,-18
11990,-2088,8,8,-36,69,-18
11995,-2080,8,40,-36,68,-17
12000,-2088,0,24,-35,68,-15
12005,-2088,24,24,-35,70,-15
12010,-2096,0,56,-33,74,-14
12015,-2120,16,8,-33,74,-15
12020,-2080,16,16,-36,76,-12
12025,-2104,-8,8,-40,78,-14
12030,-2096,24,48,-45,79,-12
12035,-2080,-8,56,-51,79,-12
12040,-2088,8,64,-56,80,-10
12045,-2088,8,-8,-59,78,-11
12050,-2088,0,32,-60,76,-10
12055,-2072,-16,16,-62,75,-11
12060,-2088,-8,8,-62,71,-10
12065,-2072,-16,8,-60,67,-12
12070,-2064,-8,24,-56,62,-10
12075,-2096,-24,8,-51,59,-11
12080,-2080,-32,24,-47,56,-9
12085,-2080,-24,16,-45,55,-10
12090,-2088,-8,40,-44,54,-7
12095,-2096,8,16,-47,54,-10
12100,-2072,-8,64,-48,55,-7
12105,-2096,32,56,-50,56,-9
12110,-2096,24,64,-52,57,-10
12115,-2112,32,40,-54,57,-11
12120,-2056,16,56,-59,61,-9
12125,-2088,24,24,-59,65,-10
12130,-2096,-8,40,-59,69,-9
12135,-2088,8,24,-55,72,-11
12140,-2088,-24,-8,-51,71,-9
12145,-2096,-16,24,-44,71,-12
12150,-2072,-32,8,-36,69,-8
12155,-2088,-8,0,-29,66,-11
12160,-2088,-16,8,-26,62,-10
12165,-2072,-16,8,-27,61,-13
12170,-2096,8,24,-29,61,-14
12175,-2064,0,24,-33,60,-17
12180,-2080,0,32,-37,61,-15
12185,-2072,-16,-8,-39,63,-16
12190,-2080,-8,40,-42,64,-10
12195,-2064,-16,32,-42,67,-11
12200,-2048,-16,48,-41,69,-7
12205,-2056,-24,24,-39,72,-5
12210,-2072,-24,56,-38,74,0
12215,-2072,-24,24,-35,77,1
12220,-2080,-32,40,-33,78,5
12225,-2080,0,16,-30,78,5
12230,-2056,-24,56,-27,77,9
12235,-2072,24,32,-27,77,9
12240,-2096,16,16,-28,75,10
12245,-2104,32,32,-32,77,8
12250,-2104,16,56,-35,78,8
12255,-2088,8,24,-39,79,3
12260,-2088,16,16,-41,81,4
12265,-2096,8,16,-42,82,0
12270,-2080,-16,16,-43,82,0
12275,-2080,0,0,-43,83,-2
12280,-2080,-16,8,-44,80,-1
12285,-2064,-32,-8,-40,77,-2
12290,-2080,0,8,-36,74,1
12295,-2072,-32,8,-30,71,1
12300,-2080,-8,0,-24,70,4
12305,-2080,-8,0,-16,67,2
12310,-2112,32,-8,-9,66,5
12315,-2080,0,8,-6,65,3
12320,-2104,0,0,-3,64,4
12325,-2080,8,32,-1,63,2
12330,-2104,8,24,0,62,3
12335,-2112,8,-8,2,61,0
12340,-2072,16,0,3,61,0
12345,-2120,8,32,4,60,-3
12350,-2096,0,16,5,62,-1
12355,-2112,16,40,6,63,-5
12360,-2072,8,16,4,65,-4
12365,-2096,16,8,4,65,-5
12370,-2104,24,0,2,65,-3
12375,-2088,8,16,2,63,-4
12380,-2096,-16,32,-1,61,-1
12385,-2080,-8,16,-1,61,-2
12390,-2088,-16,-24,-2,58,0
12395,-2080,-16,32,-1,58,-3
12400,-2096,-16,24,-2,56,-2
12405,-2088,-8,-8,-2,54,-4
12410,-2088,-16,24,-1,53,-3
12415,-2104,8,32,-1,52,-4
12420,-2080,-24,8,-1,50,-2
12425,-2072,0,32,-2,49,-4
12430,-2088,0,-16,-1,48,-3
12435,-2096,8,32,-2,48,-7
12440,-2080,24,32,-4,47,-4
12445,-2096,8,24,-4,46,-4
12450,-2088,0,8,-4,46,-3
12455,-2096,-8,32,-1,45,-3
12460,-2104,16,32,1,43,-1
12465,-2080,-24,24,5,41,-2
12470,-2080,-16,24,7,40,0
12475,-2072,8,8,9,37,0
12480,-2088,0,32,10,36,2
12485,-2080,16,40,10,36,2
12490,-2088,0,40,10,34,5
12495,-2080,8,40,8,35,3
12500,-2088,16,16,9,35,5
12505,-2080,-16,24,8,36,2
12510,-2080,0,0,6,40,2
12515,-2104,-8,40,5,40,-1
12520,-2088,8,24,6,43,0
12525,-2088,0,32,5,45,-2
12530,-2072,0,32,8,47,0
12535,-2072,-16,32,8,49,-3
12540,-2080,-16,48,9,48,0
12545,-2096,8,16,8,48,-2
12550,-2080,0,24,8,48,1
12555,-2072,0,40,9,49,0
12560,-2096,0,64,9,48,4
12565,-2096,0,16,12,47,2
12570,-2072,16,24,12,48,4
12575,-2088,16,8,14,48,2
12580,-2088,16,48,12,50,4
12585,-2072,-8,24,11,51,1
12590,-2080,16,32,8,53,3
12595,-2064,0,8,6,53,-1
12600,-2080,-8,16,6,55,3
12605,-2088,8,16,6,59,1
12610,-2088,-8,64,6,59,2
12615,-2072,0,48,6,61,1
12620,-2064,0,-8,7,61,4
12625,-2072,8,40,6,63,0
12630,-2056,-8,56,6,63,4
12635,-2072,8,48,7,63,2
12640,-2088,0,24,10,63,4
12645,-2088,8,0,10,62,2
12650,-2080,0,16,13,60,4
12655,-2096,0,16,15,61,1
12660,-2080,-8,64,15,61,2
12665,-2104,32,24,17,58,0
12670,-2056,8,16,16,58,2
12675,-2080,-16,16,17,57,-1
12680,-2096,8,16,16,56,1
12685,-2080,0,24,17,55,-1
12690,-2112,16,32,17,53,3
12695,-2088,8,24,17,54,0
12700,-2096,16,64,15,53,3
12705,-2088,32,32,15,52,1
12710,-2080,24,16,12,53,4
12715,-2080,-8,32,12,52,3
12720,-2072,0,16,12,50,5
12725,-2088,-8,-24,10,50,2
12730,-2080,24,24,8,49,4
12735,-2096,8,24,8,49,1
12740,-2096,24,64,7,48,3
12745,-2096,-8,24,8,49,-1
12750,-2064,8,48,8,48,0
12755,-2112,-8,16,9,48,-2
12760,-2080,-8,40,12,47,0
12765,-2080,-24,24,15,44,-1
12770,-2088,-16,48,18,42,2
12775,-2064,-16,48,20,39,-1
12780,-2088,-24,8,23,37,2
12785,-2104,8,8,28,34,1
12790,-2056,0,16,30,32,3
12795,-2088,8,32,31,30,2
12800,-2088,8,56,34,29,4
12805,-2080,-16,56,35,28,3
12810,-2064,8,64,35,27,4
12815,-2096,8,32,35,28,3
12820,-2096,8,16,36,30,5
12825,-2096,0,64,33,31,1
12830,-2096,0,64,30,33,3
12835,-2072,0,40,27,35,0
12840,-2080,0,48,21,38,3
12845,-2088,32,64,13,42,-1
12850,-2088,-8,32,7,45,1
12855,-2088,24,48,3,48,-4
12860,-2056,0,40,2,48,-3
12865,-2088,0,40,4,52,-5
12870,-2072,-8,40,6,53,-2
12875,-2088,-24,56,9,56,-4
12880,-2080,-24,16,15,56,0
12885,-2104,-8,32,21,55,-2
12890,-2088,-16,-8,28,54,1
12895,-2096,0,24,32,53,-1
12900,-2088,16,24,37,50,1
12905,-2112,24,16,39,45,-1
12910,-2080,32,16,41,44,0
12915,-2088,24,48,42,43,-4
12920,-2088,32,64,41,41,-2
12925,-2080,0,40,37,42,-5
12930,-2080,16,24,33,45,-4
12935,-2088,24,48,31,47,-7
12940,-2072,-16,40,27,50,-4
12945,-2064,-24,24,25,51,-5
12950,-2072,-24,32,23,52,-2
12955,-2064,-24,48,24,52,0
12960,-2072,-16,24,26,53,6
12965,-2072,-24,16,31,52,6
12970,-2080,-8,48,34,48,14
12975,-2096,24,24,36,45,13
12980,-2096,32,-8,36,43,16
12985,-2072,16,64,35,41,13
12990,-2080,24,40,31,43,13
12995,-2088,32,16,26,43,8
13000,-2096,32,64,18,45,8
13005,-2072,40,24,11,48,2
13010,-2072,32,56,5,50,3
13015,-2080,32,40,0,52,-1
13020,-2072,0,56,-4,52,1
13025,-2072,0,72,-6,51,-2
13030,-2096,24,72,-5,51,2
13035,-2072,8,64,-3,49,0
13040,-2096,24,32,2,46,2
13045,-2080,8,40,2,45,1
13050,-2080,-8,64,8,46,4
13055,-2072,-8,48,13,45,3
13060,-2088,-24,48,19,44,5
13065,-2096,8,48,23,44,0
13070,-2088,0,40,27,45,1
13075,-2080,16,16,32,44,-2
13080,-2096,24,56,34,43,-3
13085,-2088,40,64,38,40,-5
13090,-2072,32,48,42,39,-4
13095,-2080,8,48,43,40,-9
13100,-2072,24,48,45,39,-8
13105,-2088,24,72,43,41,-10
13110,-2080,0,56,42,42,-8
13115,-2064,24,40,41,43,-11
13120,-2072,32,64,39,43,-9
13125,-2080,24,48,33,44,-10
13130,-2104,24,48,24,43,-4
13135,-2096,16,56,18,46,-4
13140,-2072,0,48,12,46,-2
13145,-2064,-8,40,12,46,-4
13150,-2080,8,40,12,44,-4
13155,-2056,-24,32,16,43,-7
13160,-2112,16,40,18,42,-6
13165,-2096,-24,48,21,41,-8
13170,-2088,16,64,25,37,-7
13175,-2080,32,40,29,35,-13
13180,-2056,-8,64,30,38,-9
13185,-2096,24,24,26,36,-12
13190,-2088,0,56,23,35,-8
13195,-2088,0,48,20,35,-7
13200,-2048,-8,48,19,33,-5
13205,-2088,-8,56,20,34,-8
13210,-2088,-8,48,22,32,-6
13215,-2056,0,64,25,34,-8
13220,-2064,-8,24,27,34,-4
13225,-2080,24,56,25,36,-5
13230,-2088,-16,32,23,35,-1
13235,-2080,-8,56,25,34,-3
13240,-2072,-24,64,29,34,-1
13245,-2096,16,8,29,35,-4
13250,-2088,8,32,31,34,-1
13255,-2088,0,0,34,33,-4
13260,-2104,-8,80,36,34,-2
13265,-2088,16,64,35,34,-4
13270,-2072,0,16,34,36,-2
13275,-2088,24,64,34,40,-3
13280,-2088,8,72,31,44,0
13285,-2080,8,72,29,47,-5
13290,-2072,8,48,25,49,-1
13295,-2088,32,64,22,50,-3
13300,-2072,24,72,18,51,-2
13305,-2080,0,32,14,52,-3
13310,-2072,24,64,9,52,-1
13315,-2104,16,72,7,54,-2
13320,-2080,16,64,5,53,1
13325,-2104,0,56,5,53,-1
13330,-2096,24,64,7,51,2
13335,-2112,16,64,8,49,0
13340,-2056,0,56,12,47,0
13345,-2072,0,48,17,47,-2
13350,-2072,0,48,21,47,1
13355,-2072,24,48,21,48,-2
13360,-2072,-8,56,23,48,-2
13365,-2080,8,64,22,49,-4
13370,-2080,0,72,21,52,0
13375,-2088,16,72,21,52,-2
13380,-2104,16,48,21,53,2
13385,-2088,0,56,18,54,-2
13390,-2072,16,64,14,58,1
13395,-2112,0,40,10,59,-1
13400,-2088,8,24,6,60,3
13405,-2080,24,24,4,62,-1
13410,-2096,32,40,3,62,1
13415,-2088,32,56,3,63,-1
13420,-2104,8,56,2,62,1
13425,-2080,8,32,1,60,-2
13430,-2096,16,64,-1,58,1
13435,-2072,16,48,1,57,-2
13440,-2064,-8,40,2,58,1
13445,-2080,0,40,4,57,-4
13450,-2088,16,56,6,56,-1
13455,-2088,8,24,6,55,-2
13460,-2072,16,32,5,55,-1
13465,-2104,8,56,7,54,-2
13470,-2064,-16,40,6,54,-1
13475,-2088,8,64,8,54,-3
13480,-2056,-24,56,8,54,0
13485,-2088,16,64,7,53,-3
13490,-2088,0,64,9,51,-2
13495,-2072,8,40,7,53,-5
13500,-2072,0,64,7,53,-3
13505,-2088,0,48,3,54,-4
13510,-2064,-8,32,-1,55,-1
13515,-2096,8,64,-4,56,-1
13520,-2088,-8,32,-6,56,0
13525,-2072,8,40,-4,55,-4
13530,-2072,8,64,-3,56,-2
13535,-2072,-8,40,-2,54,-2
13540,-2096,24,56,-1,53,0
13545,-2080,0,24,2,53,-4
13550,-2088,8,56,1,52,-1
13555,-2080,-8,64,2,52,-4
13560,-2064,-8,56,1,50,-1
13565,-2080,0,40,2,48,-3
13570,-2088,8,64,4,47,0
13575,-2096,8,72,5,46,-2
13580,-2088,0,56,5,47,2
13585,-2072,24,64,7,47,1
13590,-2088,24,80,8,48,3
13595,-2088,8,48,5,50,1
13600,-2104,40,32,0,50,4
13605,-2080,8,80,-4,51,2
13610,-2088,8,40,-8,54,3
13615,-2080,-8,40,-9,57,2
13620,-2096,16,64,-10,59,2
13625,-2072,0,56,-11,60,-1
13630,-2064,-16,24,-8,62,1
13635,-2072,-8,72,-8,62,-2
13640,-2072,-24,80,-4,62,0
13645,-2080,8,56,-2,62,-2
13650,-2072,0,72,0,62,1
13655,-2088,24,56,1,63,1
13660,-2080,16,72,3,62,2
13665,-2064,-8,56,2,61,0
13670,-2096,24,64,0,61,2
13675,-2080,16,48,-2,59,-2
13680,-2080,24,112,-3,61,1
13685,-2096,-8,64,-5,61,1
13690,-2096,16,64,-4,62,2
13695,-2088,-8,48,-5,61,2
13700,-2072,8,64,-6,64,3
13705,-2080,24,56,-8,63,1
13710,-2072,32,64,-9,64,1
13715,-2072,8,24,-11,63,1
13720,-2072,0,56,-13,63,4
13725,-2064,-16,64,-15,63,4
13730,-2080,0,64,-12,62,7
13735,-2088,-8,64,-9,60,7
13740,-2072,-16,56,-3,61,9
13745,-2104,-24,56,1,61,6
13750,-2104,-16,40,2,59,8
13755,-2096,8,64,4,58,6
13760,-2080,24,24,5,59,5
13765,-2104,24,24,3,60,1
13770,-2088,56,64,2,60,1
13775,-2088,32,64,0,61,-4
13780,-2096,32,64,-1,62,-5
13785,-2112,48,72,-6,63,-11
13790,-2080,32,48,-12,68,-10
13795,-2088,48,64,-19,70,-15
13800,-2096,40,48,-26,73,-14
13805,-2088,16,56,-31,78,-16
13810,-2080,8,64,-38,80,-13
13815,-2088,-16,72,-41,81,-15
13820,-2048,-16,72,-42,83,-11
13825,-2040,-24,56,-41,83,-9
13830,-2088,-24,32,-38,81,-4
13835,-2072,-8,-8,-33,78,-2
13840,-2064,0,56,-25,73,1
13845,-2088,16,40,-20,67,2
13850,-2096,24,56,-18,63,5
13855,-2088,40,72,-22,60,3
13860,-2096,64,72,-27,61,3
13865,-2080,72,64,-39,61,-2
13870,-2080,56,80,-45,64,-3
13875,-2088,32,64,-54,69,-9
13880,-2064,64,88,-64,76,-9
13885,-2088,24,72,-76,78,-12
13890,-2064,8,72,-84,81,-12
13895,-2080,0,56,-90,83,-14
13900,-2072,8,48,-92,80,-12
13905,-2072,0,40,-91,80,-13
13910,-2056,-16,48,-85,78,-10
13915,-2072,0,64,-77,77,-10
13920,-2080,-16,64,-72,76,-6
13925,-2072,-8,48,-66,76,-9
13930,-2080,-8,64,-59,75,-8
13935,-2080,0,64,-56,75,-10
13940,-2056,24,48,-57,75,-9
13945,-2080,0,56,-57,76,-12
13950,-2088,24,56,-61,74,-11
13955,-2072,24,40,-63,75,-14
13960,-2056,32,64,-65,72,-12
13965,-2064,8,64,-66,72,-13
13970,-2088,16,80,-67,75,-11
13975,-2096,-8,24,-65,74,-12
13980,-2080,16,56,-64,74,-8
13985,-2072,0,64,-61,74,-8
13990,-2072,0,48,-60,74,-7
13995,-2088,-8,40,-58,74,-6
14000,-2080,24,48,-59,74,-5
14005,-2080,16,32,-61,72,-5
14010,-2104,32,64,-67,72,-2
14015,-2072,16,64,-69,72,-4
14020,-2096,8,80,-74,72,-3
14025,-2080,8,64,-76,74,-6
14030,-2088,16,48,-79,75,-7
14035,-2072,0,56,-80,75,-10
14040,-2080,0,32,-82,78,-10
14045,-2064,-24,56,-85,78,-10
14050,-2088,-8,8,-87,79,-9
14055,-2088,8,24,-87,77,-13
14060,-2064,-24,48,-85,77,-10
14065,-2056,-16,40,-83,74,-11
14070,-2072,-24,8,-77,74,-8
14075,-2096,-32,56,-71,71,-9
14080,-2088,-16,24,-63,69,-7
14085,-2080,-16,64,-57,68,-6
14090,-2096,-16,40,-50,65,-4
14095,-2080,-16,48,-45,63,-1
14100,-2088,0,40,-41,61,2
14105,-2072,8,32,-37,60,1
14110,-2080,-16,48,-37,61,3
14115,-2096,16,40,-38,61,2
14120,-2104,16,32,-39,62,3
14125,-2088,-8,64,-40,64,0
14130,-2072,16,40,-43,65,-2
14135,-2088,8,48,-47,66,-5
14140,-2072,8,72,-51,67,-5
14145,-2056,16,64,-55,68,-9
14150,-2080,0,32,-61,71,-8
14155,-2072,8,64,-68,73,-9
14160,-2080,24,64,-72,75,-7
14165,-2064,24,72,-73,77,-10
14170,-2096,16,64,-74,79,-6
14175,-2064,8,72,-75,78,-6
14180,-2064,8,48,-76,79,-4
14185,-2064,0,64,-77,78,-3
14190,-2064,-8,64,-74,75,-1
14195,-2056,-8,48,-73,73,0
14200,-2056,-24,48,-66,70,2
14205,-2056,-16,64,-60,68,1
14210,-2080,-24,48,-53,64,4
14215,-2096,-16,48,-47,61,2
14220,-2080,-16,8,-44,60,3
14225,-2088,-16,64,-39,59,2
14230,-2096,-16,56,-35,60,2
14235,-2112,0,64,-31,64,-1
14240,-2104,8,56,-28,69,-2
14245,-2088,8,48,-27,74,-7
14250,-2096,24,72,-27,82,-8
14255,-2096,8,64,-28,88,-11
14260,-2096,24,40,-31,93,-11
14265,-2096,16,64,-36,97,-13
14270,-2096,8,24,-40,102,-10
14275,-2072,16,32,-46,104,-9
14280,-2080,24,24,-51,105,-7
14285,-2088,-8,56,-55,103,-5
14290,-2080,-8,8,-55,102,-3
14295,-2088,24,40,-55,95,-4
14300,-2048,0,8,-52,92,-3
14305,-2088,-16,16,-51,89,-3
14310,-2096,24,48,-50,87,0
14315,-2064,-8,24,-51,82,-3
14320,-2072,0,32,-47,79,-4
14325,-2080,0,24,-41,76,-5
14330,-2088,0,24,-36,74,-5
14335,-2088,0,16,-31,68,-6
14340,-2088,-16,48,-26,65,-7
14345,-2080,-16,24,-20,62,-7
14350,-2096,-16,8,-16,58,-6
14355,-2088,0,24,-15,55,-6
14360,-2080,-24,56,-14,54,-7
14365,-2104,-8,48,-14,51,-8
14370,-2088,40,32,-15,50,-7
14375,-2064,-8,24,-16,48,-7
14380,-2088,16,40,-17,49,-8
14385,-2072,40,24,-20,53,-7
14390,-2080,24,64,-26,56,-8
14395,-2088,8,64,-35,59,-10
14400,-2072,0,64,-40,61,-10
14405,-2088,0,64,-45,63,-11
14410,-2096,8,40,-47,64,-12
14415,-2080,8,48,-50,65,-12
14420,-2088,-32,40,-51,67,-9
14425,-2088,-8,56,-52,65,-9
14430,-2096,0,56,-54,65,-8
14435,-2072,0,40,-52,63,-7
14440,-2080,-24,48,-51,62,-4
14445,-2088,-16,56,-49,61,-3
14450,-2064,-32,48,-51,62,-2
14455,-2080,-8,32,-49,61,-1
14460,-2080,-24,64,-47,62,1
14465,-2064,-8,48,-45,63,0
14470,-2088,-16,48,-43,64,-1
14475,-2072,-16,64,-42,64,-3
14480,-2096,0,48,-39,64,-4
14485,-2080,0,56,-38,66,-7
14490,-2088,16,16,-36,66,-6
14495,-2064,0,56,-37,66,-6
14500,-2080,16,24,-41,65,-5
14505,-2056,-8,40,-43,66,-3
14510,-2056,16,32,-45,68,-2
14515,-2088,8,40,-49,70,-2
14520,-2072,0,56,-52,73,-3
14525,-2080,-8,56,-53,76,-3
14530,-2080,-8,48,-56,81,-3
14535,-2088,-8,40,-55,84,-2
14540,-2064,-32,40,-53,86,-1
14545,-2080,-8,64,-54,89,-1
14550,-2072,-16,64,-53,89,2
14555,-2088,0,32,-50,87,2
14560,-2064,-40,64,-48,85,2
14565,-2080,-8,0,-46,86,2
14570,-2088,-16,40,-43,87,4
14575,-2072,0,24,-39,86,6
14580,-2088,-8,16,-34,88,11
14585,-2096,-8,56,-27,87,10
14590,-2080,-16,32,-18,88,10
14595,-2096,-24,-8,-8,87,11
14600,-2072,-24,32,2,84,11
14605,-2088,-8,16,10,83,10
14610,-2064,-24,24,19,81,13
14615,-2080,-32,56,28,80,17
14620,-2072,-16,32,32,79,20
14625,-2080,-8,8,34,74,21
14630,-2080,24,24,34,72,23
14635,-2088,24,48,27,73,20
14640,-2072,40,32,22,71,20
14645,-2096,56,16,19,71,16
14650,-2072,56,40,13,67,11
14655,-2104,56,-8,8,66,8
14660,-2064,24,56,6,66,6
14665,-2096,32,24,4,64,3
14670,-2088,-8,16,8,62,1
14675,-2072,0,-16,10,58,-2
14680,-2096,-8,8,12,54,-4
14685,-2080,8,24,17,50,-4
14690,-2112,0,8,18,47,-3
14695,-2104,-8,40,19,45,-5
14700,-2088,-16,24,21,42,-7
14705,-2096,8,0,22,41,-8
14710,-2088,-8,32,24,41,-9
14715,-2120,-8,32,25,41,-8
14720,-2080,-8,32,26,42,-8
14725,-2080,-24,48,21,43,-8
14730,-2080,-16,40,17,41,-6
14735,-2072,-8,32,13,43,-6
14740,-2056,-16,24,16,44,-2
14745,-2080,-24,24,17,48,0
14750,-2080,-24,24,18,48,2
14755,-2064,0,32,18,50,5
14760,-2088,0,64,17,50,9
14765,-2072,0,32,16,47,11
14770,-2096,24,32,12,46,12
14775,-2080,24,0,7,44,10
14780,-2080,8,56,2,43,11
14785,-2104,16,24,0,43,8
14790,-2080,0,32,-1,45,8
14795,-2072,-8,64,-4,49,7
14800,-2080,32,32,-6,50,8
14805,-2072,0,48,-8,53,8
14810,-2080,8,32,-7,53,7
14815,-2088,8,64,-5,51,7
14820,-2096,16,24,1,49,7
14825,-2096,24,56,3,47,5
14830,-2048,8,40,8,46,4
14835,-2088,32,0,10,44,2
14840,-2088,8,56,14,44,1
14845,-2112,16,48,19,45,-2
14850,-2080,0,72,21,46,-2
14855,-2096,40,40,20,47,-4
14860,-2096,8,48,21,49,-6
14865,-2072,8,64,19,52,-6
14870,-2072,-16,40,17,54,-7
14875,-2088,0,32,16,57,-8
14880,-2080,24,48,16,59,-7
14885,-2072,24,40,16,62,-8
14890,-2080,24,24,15,63,-7
14895,-2072,8,48,12,63,-9
14900,-2056,8,24,11,64,-6
14905,-2064,0,64,10,64,-7
14910,-2056,0,40,12,63,-7
14915,-2080,8,40,12,64,-5
14920,-2104,8,64,12,61,-4
14925,-2088,-8,16,13,58,-6
14930,-2088,0,24,15,56,-3
14935,-2080,0,16,16,56,-5
14940,-2072,-8,24,16,54,-3
14945,-2056,-16,56,20,53,-4
14950,-2096,8,40,24,50,-3
14955,-2080,-8,56,26,49,-3
14960,-2072,0,24,28,48,-2
14965,-2096,0,-8,27,48,-4
14970,-2104,24,0,25,46,-3
14975,-2096,32,32,23,46,-3
14980,-2096,40,8,20,48,-4
14985,-2112,40,8,16,50,-4
14990,-2080,32,32,11,50,-4
14995,-2064,0,-8,10,49,-4
