timestamp,accel_x,accel_y,accel_z,gyro_x,gyro_y,gyro_z
0,312,-2080,-384,-47,25,-5
5,280,-2096,-448,-48,26,-6
10,304,-2072,-392,-48,27,-5
15,288,-2088,-392,-51,27,-6
20,264,-2096,-432,-51,27,-6
25,304,-2096,-464,-53,27,-7
30,288,-2096,-400,-56,27,-7
35,288,-2112,-416,-56,25,-8
40,264,-2088,-408,-57,27,-9
45,280,-2128,-456,-56,26,-8
50,280,-2104,-432,-55,28,-7
55,280,-2088,-416,-55,27,-8
60,248,-2064,-408,-53,27,-8
65,280,-2112,-416,-53,27,-6
70,280,-2088,-400,-52,27,-6
75,256,-2088,-400,-51,26,-7
80,304,-2104,-440,-49,27,-7
85,272,-2096,-416,-48,26,-8
90,288,-2120,-400,-46,26,-7
95,264,-2104,-408,-45,26,-10
100,256,-2096,-408,-44,26,-9
105,264,-2088,-424,-43,29,-7
110,288,-2080,-432,-41,28,-9
115,304,-2096,-416,-39,28,-7
120,288,-2096,-384,-38,29,-7
125,248,-2056,-448,-38,29,-7
130,280,-2136,-432,-38,30,-6
135,280,-2096,-448,-37,31,-7
140,288,-2080,-416,-36,32,-7
145,256,-2064,-448,-35,32,-6
150,280,-2088,-408,-35,33,-6
155,256,-2080,-416,-36,32,-6
160,272,-2088,-432,-36,31,-7
165,280,-2096,-416,-36,31,-5
170,280,-2088,-408,-33,30,-6
175,248,-2104,-440,-31,30,-5
180,296,-2128,-432,-30,29,-5
185,248,-2096,-456,-27,29,-6
190,272,-2072,-416,-27,30,-6
195,272,-2072,-416,-26,30,-6
200,256,-2088,-416,-25,29,-6
205,256,-2088,-440,-25,29,-5
210,240,-2064,-432,-27,29,-5
215,280,-2080,-408,-27,28,-6
220,272,-2088,-392,-28,26,-7
225,256,-2096,-448,-28,26,-7
230,240,-2096,-448,-30,26,-9
235,256,-2080,-408,-30,26,-8
240,240,-2080,-400,-31,24,-6
245,264,-2072,-432,-32,24,-6
250,248,-2072,-424,-34,23,-6
255,272,-2080,-416,-38,22,-7
260,264,-2088,-432,-38,21,-5
265,264,-2080,-408,-41,18,-3
270,280,-2080,-400,-42,17,-3
275,264,-2080,-376,-44,15,-4
280,248,-2072,-416,-46,15,-5
285,264,-2088,-440,-49,13,-3
290,248,-2080,-368,-52,10,-2
295,280,-2088,-360,-55,10,-1
300,272,-2072,-400,-59,10,-1
305,288,-2088,-368,-62,7,-1
310,272,-2072,-384,-67,7,-1
315,256,-2064,-360,-69,7,-1
320,272,-2096,-368,-71,6,-1
325,280,-2096,-408,-73,6,-1
330,280,-2096,-400,-74,5,0
335,272,-2112,-416,-72,5,0
340,280,-2096,-432,-69,4,-1
345,280,-2088,-344,-68,4,0
350,280,-2096,-416,-63,5,-1
355,280,-2088,-400,-62,5,-2
360,288,-2096,-392,-62,5,-2
365,312,-2112,-424,-60,6,0
370,272,-2120,-416,-61,9,-2
375,304,-2112,-400,-58,12,0
380,296,-2120,-376,-58,13,0
385,288,-2104,-392,-53,14,0
390,288,-2112,-400,-51,17,0
395,296,-2128,-424,-43,20,0
400,256,-2168,-384,-37,21,-1
405,288,-2096,-440,-30,23,-1
410,296,-2120,-416,-23,23,-1
415,288,-2112,-432,-15,24,-2
420,296,-2120,-440,-8,26,-2
425,272,-2112,-472,0,24,-2
430,272,-2096,-456,5,26,-2
435,288,-2096,-488,9,27,-2
440,272,-2072,-464,11,28,-3
445,280,-2104,-472,14,30,-2
450,272,-2080,-480,12,30,-3
455,264,-2080,-472,10,32,-6
460,264,-2088,-448,7,32,-6
465,296,-2096,-464,2,33,-6
470,288,-2072,-432,-1,34,-6
475,264,-2072,-432,-5,34,-8
480,272,-2072,-432,-7,35,-9
485,296,-2088,-432,-13,33,-7
490,296,-2112,-464,-16,31,-8
495,272,-2072,-432,-20,32,-8
500,256,-2072,-448,-22,30,-7
505,256,-2064,-384,-26,29,-7
510,272,-2072,-464,-29,29,-8
515,240,-2056,-368,-32,29,-7
520,264,-2064,-400,-33,26,-8
525,256,-2064,-376,-36,26,-7
530,232,-2048,-400,-41,25,-7
535,264,-2064,-408,-45,26,-6
540,264,-2088,-384,-48,25,-5
545,264,-2072,-408,-51,24,-4
550,256,-2080,-408,-54,24,-4
555,264,-2072,-392,-60,21,-3
560,272,-2064,-392,-62,19,-3
565,256,-2064,-376,-67,16,-3
570,248,-2080,-416,-71,12,-4
575,256,-2096,-392,-74,11,-4
580,256,-2080,-392,-79,8,-3
585,248,-2088,-392,-83,5,-5
590,240,-2104,-400,-85,2,-2
595,256,-2064,-408,-87,-1,-2
600,264,-2064,-368,-91,-3,-1
605,272,-2080,-416,-93,-3,-3
610,264,-2104,-384,-94,-5,-3
615,248,-2080,-416,-95,-7,-1
620,288,-2088,-400,-94,-8,-1
625,280,-2112,-408,-94,-8,-1
630,280,-2088,-384,-93,-8,-1
635,280,-2096,-400,-91,-7,-2
640,280,-2096,-408,-88,-6,-2
645,272,-2120,-408,-83,-4,-1
650,288,-2088,-392,-79,-1,-3
655,288,-2112,-408,-75,2,-3
660,288,-2128,-392,-69,5,-4
665,280,-2088,-392,-61,7,-5
670,296,-2128,-352,-57,10,-5
675,288,-2112,-448,-52,12,-6
680,288,-2120,-416,-48,13,-6
685,304,-2104,-448,-45,12,-4
690,288,-2096,-448,-41,13,-5
695,280,-2096,-440,-42,15,-6
700,272,-2088,-456,-42,15,-6
705,296,-2072,-408,-42,16,-6
710,304,-2112,-448,-43,16,-4
715,264,-2104,-432,-43,16,-5
720,280,-2080,-432,-44,18,-5
725,264,-2080,-432,-44,17,-5
730,304,-2080,-432,-43,19,-6
735,280,-2088,-424,-44,18,-5
740,288,-2080,-392,-44,19,-4
745,280,-2088,-392,-43,22,-4
750,280,-2072,-424,-43,23,-4
755,288,-2064,-408,-43,24,-5
760,280,-2072,-400,-44,24,-4
765,256,-2056,-376,-45,23,-4
770,248,-2072,-400,-46,24,-3
775,256,-2104,-408,-45,24,-4
780,280,-2112,-416,-50,25,-5
785,264,-2088,-384,-52,23,-4
790,240,-2064,-400,-55,21,-5
795,248,-2064,-400,-57,21,-5
800,256,-2072,-392,-59,20,-6
805,280,-2088,-376,-63,18,-7
810,248,-2080,-408,-65,16,-6
815,248,-2080,-400,-67,15,-6
820,264,-2096,-408,-69,14,-5
825,248,-2064,-376,-74,11,-6
830,232,-2080,-424,-74,8,-5
835,264,-2088,-376,-78,4,-5
840,256,-2056,-424,-80,0,-4
845,256,-2064,-416,-82,-4,-4
850,256,-2064,-392,-87,-6,-5
855,264,-2072,-376,-89,-10,-3
860,256,-2104,-416,-88,-13,-2
865,240,-2088,-392,-87,-15,-1
870,216,-2064,-424,-90,-17,0
875,240,-2080,-392,-90,-20,1
880,232,-2096,-440,-90,-24,1
885,240,-2096,-424,-90,-25,2
890,232,-2088,-432,-88,-26,2
895,256,-2120,-408,-88,-29,2
900,264,-2104,-424,-86,-30,1
905,232,-2096,-432,-84,-32,1
910,240,-2128,-440,-81,-33,1
915,248,-2088,-408,-78,-35,2
920,272,-2120,-392,-74,-36,1
925,256,-2104,-408,-73,-37,-1
930,248,-2112,-416,-71,-37,1
935,248,-2088,-440,-67,-39,2
940,248,-2136,-456,-65,-39,1
945,256,-2072,-408,-62,-37,1
950,256,-2096,-432,-60,-39,1
955,256,-2096,-432,-58,-38,0
960,240,-2112,-408,-56,-38,1
965,256,-2112,-408,-53,-39,1
970,256,-2096,-416,-48,-37,1
975,264,-2096,-432,-46,-36,2
980,280,-2112,-440,-44,-35,0
985,264,-2088,-400,-40,-33,0
990,248,-2088,-416,-39,-31,0
995,264,-2096,-456,-41,-31,-1
1000,296,-2096,-416,-38,-30,0
1005,256,-2064,-464,-39,-27,-1
1010,256,-2056,-424,-39,-27,0
1015,288,-2104,-400,-39,-26,0
1020,288,-2096,-432,-40,-25,0
1025,280,-2064,-432,-40,-23,0
1030,280,-2096,-432,-40,-23,1
1035,256,-2080,-456,-40,-19,0
1040,288,-2072,-448,-40,-18,0
1045,312,-2088,-408,-42,-16,0
1050,200,-2096,-456,-42,-15,0
1055,280,-2072,-408,-43,-12,0
1060,280,-2088,-456,-45,-9,0
1065,288,-2088,-440,-47,-8,1
1070,288,-2080,-424,-51,-6,-1
1075,264,-2080,-424,-49,-6,-1
1080,272,-2080,-456,-49,-5,-1
1085,232,-2080,-448,-48,-3,-1
1090,264,-2088,-408,-47,-3,-1
1095,288,-2088,-408,-47,-1,-1
1100,272,-2088,-408,-47,3,-2
1105,272,-2144,-424,-46,4,-2
1110,256,-2080,-424,-47,4,0
1115,256,-2096,-432,-47,6,-3
1120,248,-2080,-408,-44,7,-1
1125,296,-2104,-424,-44,11,-2
1130,256,-2088,-408,-42,11,-4
1135,296,-2120,-424,-40,13,-3
1140,264,-2080,-408,-39,13,-3
1145,264,-2096,-448,-38,15,-4
1150,272,-2104,-424,-37,17,-3
1155,288,-2104,-440,-35,20,-3
1160,288,-2112,-464,-35,20,-3
1165,280,-2072,-448,-32,21,-4
1170,272,-2080,-432,-32,23,-5
1175,272,-2088,-432,-32,24,-3
1180,256,-2088,-416,-32,25,-5
1185,248,-2072,-424,-31,26,-5
1190,232,-2048,-448,-30,27,-5
1195,272,-2080,-416,-32,29,-5
1200,264,-2080,-424,-32,28,-5
1205,280,-2104,-440,-31,28,-4
1210,264,-2080,-400,-32,28,-3
1215,264,-2088,-416,-32,28,-4
1220,272,-2072,-440,-33,27,-5
1225,256,-2064,-448,-31,28,-6
1230,264,-2128,-432,-33,27,-4
1235,248,-2088,-400,-34,28,-4
1240,264,-2096,-408,-34,29,-4
1245,272,-2080,-424,-34,28,-4
1250,280,-2104,-400,-34,29,-6
1255,272,-2088,-464,-32,29,-6
1260,280,-2096,-408,-31,29,-7
1265,256,-2080,-400,-29,31,-7
1270,280,-2096,-448,-28,31,-5
1275,264,-2096,-424,-27,31,-6
1280,280,-2112,-424,-27,31,-5
1285,288,-2104,-440,-27,32,-6
1290,272,-2088,-432,-25,32,-8
1295,280,-2104,-464,-25,32,-7
1300,264,-2112,-408,-24,34,-7
1305,288,-2088,-408,-26,34,-7
1310,272,-2096,-440,-28,35,-8
1315,272,-2096,-440,-30,36,-9
1320,312,-2096,-416,-33,36,-8
1325,264,-2080,-424,-34,37,-9
1330,272,-2072,-416,-35,37,-8
1335,272,-2080,-416,-38,39,-9
1340,256,-2088,-400,-37,38,-8
1345,288,-2072,-456,-38,40,-8
1350,272,-2072,-440,-41,40,-8
1355,280,-2056,-400,-42,39,-10
1360,280,-2112,-432,-43,37,-9
1365,224,-2064,-392,-44,37,-8
1370,232,-2080,-424,-44,38,-8
1375,272,-2096,-408,-44,37,-8
1380,288,-2096,-408,-46,36,-7
1385,256,-2088,-432,-43,36,-7
1390,256,-2080,-432,-43,37,-7
1395,264,-2096,-448,-43,37,-7
1400,264,-2104,-448,-43,35,-8
1405,256,-2096,-416,-42,35,-7
1410,256,-2088,-408,-42,35,-7
1415,272,-2072,-416,-44,36,-6
1420,264,-2080,-440,-44,36,-4
1425,304,-2088,-440,-44,34,-5
1430,240,-2088,-424,-46,35,-5
1435,256,-2088,-400,-46,36,-4
1440,264,-2080,-408,-49,35,-4
1445,272,-2056,-392,-48,35,-6
1450,240,-2088,-408,-50,35,-4
1455,256,-2096,-448,-50,33,-3
1460,280,-2088,-400,-51,33,-3
1465,264,-2096,-408,-53,32,-2
1470,224,-2056,-456,-54,31,-3
1475,248,-2104,-432,-52,30,-2
1480,240,-2080,-384,-53,29,-4
1485,248,-2112,-408,-52,29,-4
1490,264,-2096,-408,-51,29,-3
1495,248,-2104,-408,-48,29,-4
1500,256,-2120,-416,-46,29,-4
1505,248,-2088,-408,-41,27,-4
1510,256,-2112,-424,-39,27,-5
1515,256,-2104,-448,-37,27,-4
1520,264,-2112,-432,-36,27,-4
1525,240,-2104,-432,-35,29,-4
1530,248,-2088,-456,-35,26,-5
1535,208,-2072,-384,-33,24,-4
1540,264,-2096,-432,-33,22,-4
1545,240,-2064,-448,-34,20,-2
1550,240,-2064,-408,-36,19,-1
1555,256,-2096,-416,-38,17,-2
1560,240,-2072,-416,-39,15,-2
1565,240,-2088,-408,-40,14,-3
1570,272,-2088,-432,-42,14,-3
1575,280,-2096,-416,-44,13,-3
1580,256,-2072,-392,-44,11,-2
1585,240,-2072,-392,-44,10,-2
1590,272,-2088,-416,-42,9,-2
1595,248,-2104,-416,-42,6,-3
1600,256,-2104,-416,-42,5,-4
1605,256,-2104,-408,-38,5,-3
1610,272,-2096,-408,-36,5,-2
1615,272,-2096,-432,-34,3,-2
1620,272,-2128,-448,-29,2,-2
1625,256,-2104,-408,-26,1,-4
1630,296,-2136,-408,-22,0,-2
1635,272,-2080,-432,-16,0,-2
1640,256,-2104,-392,-14,1,-1
1645,248,-2096,-440,-11,0,-2
1650,264,-2080,-408,-8,0,-3
1655,256,-2080,-424,-9,1,-2
1660,248,-2064,-432,-12,1,-2
1665,264,-2096,-416,-13,0,-2
1670,264,-2048,-456,-16,1,-1
1675,280,-2072,-416,-18,0,0
1680,248,-2056,-440,-20,-1,-3
1685,272,-2096,-432,-23,0,-2
1690,272,-2072,-408,-25,-1,-2
1695,280,-2064,-416,-27,0,-3
1700,256,-2136,-384,-29,1,-2
1705,280,-2088,-408,-31,1,-4
1710,272,-2072,-448,-32,0,-2
1715,272,-2080,-432,-32,2,-3
1720,288,-2080,-448,-33,2,-4
1725,280,-2096,-416,-29,3,-4
1730,256,-2088,-440,-27,4,-4
1735,256,-2104,-456,-28,4,-4
1740,256,-2088,-448,-28,5,-5
1745,280,-2096,-448,-28,6,-4
1750,240,-2080,-392,-30,6,-8
1755,256,-2080,-424,-32,5,-6
1760,248,-2064,-400,-34,6,-7
1765,280,-2072,-416,-35,6,-7
1770,280,-2088,-424,-41,7,-7
1775,256,-2072,-408,-42,7,-7
1780,256,-2072,-440,-44,7,-7
1785,264,-2072,-424,-48,6,-9
1790,264,-2072,-424,-48,6,-8
1795,248,-2080,-416,-51,6,-8
1800,264,-2096,-432,-51,6,-7
1805,224,-2104,-440,-53,6,-7
1810,272,-2112,-392,-55,7,-6
1815,232,-2080,-416,-57,6,-5
1820,272,-2072,-400,-57,5,-5
1825,272,-2104,-416,-58,5,-5
1830,248,-2072,-416,-56,3,-6
1835,256,-2088,-424,-57,2,-9
1840,264,-2104,-400,-56,1,-6
1845,232,-2080,-416,-53,0,-7
1850,264,-2080,-384,-52,-2,-5
1855,232,-2080,-440,-50,-3,-4
1860,296,-2072,-320,-48,-4,-4
1865,256,-2072,-424,-46,-5,-6
1870,248,-2088,-392,-45,-7,-5
1875,280,-2104,-400,-42,-9,-6
1880,248,-2088,-432,-42,-12,-6
1885,248,-2088,-424,-41,-13,-7
1890,256,-2080,-424,-38,-15,-7
1895,248,-2112,-400,-38,-18,-7
1900,248,-2088,-448,-40,-19,-8
1905,248,-2080,-432,-38,-21,-8
1910,248,-2088,-400,-38,-24,-9
1915,240,-2120,-472,-40,-27,-8
1920,248,-2088,-440,-40,-27,-8
1925,232,-2080,-424,-42,-30,-8
1930,264,-2104,-392,-43,-32,-8
1935,240,-2072,-400,-44,-35,-8
1940,224,-2072,-432,-46,-36,-8
1945,264,-2104,-400,-49,-36,-9
1950,272,-2064,-400,-49,-37,-9
1955,272,-2088,-400,-53,-37,-9
1960,264,-2072,-408,-55,-37,-10
1965,240,-2072,-416,-55,-35,-11
1970,296,-2088,-280,-54,-35,-12
1975,256,-2072,-424,-53,-35,-12
1980,264,-2080,-408,-53,-34,-10
1985,280,-2096,-416,-50,-34,-12
1990,280,-2072,-384,-47,-34,-11
1995,280,-2088,-400,-43,-33,-11
2000,280,-2096,-440,-38,-32,-12
2005,312,-2112,-408,-32,-31,-10
2010,288,-2080,-416,-28,-30,-9
2015,256,-2096,-424,-23,-28,-10
2020,264,-2080,-384,-21,-26,-10
2025,288,-2088,-416,-17,-25,-10
2030,280,-2096,-408,-14,-25,-8
2035,272,-2096,-416,-14,-22,-8
2040,296,-2080,-416,-16,-21,-8
2045,256,-2064,-424,-19,-20,-7
2050,288,-2080,-400,-21,-18,-8
2055,280,-2088,-408,-24,-16,-7
2060,272,-2080,-408,-26,-15,-8
2065,272,-2080,-416,-28,-11,-6
2070,288,-2088,-376,-32,-10,-6
2075,248,-2064,-400,-35,-7,-6
2080,272,-2072,-416,-35,-3,-6
2085,272,-2072,-416,-37,-3,-4
2090,280,-2088,-400,-38,-1,-4
2095,280,-2096,-400,-36,3,-4
2100,304,-2096,-424,-38,6,-5
2105,288,-2096,-400,-38,10,-6
2110,288,-2104,-400,-37,15,-6
2115,272,-2096,-400,-36,18,-4
2120,296,-2088,-408,-36,23,-5
2125,320,-2104,-392,-36,29,-7
2130,304,-2160,-376,-36,33,-8
2135,320,-2088,-424,-36,37,-8
2140,296,-2072,-424,-36,42,-10
2145,280,-2080,-400,-36,45,-9
2150,288,-2088,-416,-36,49,-8
2155,312,-2096,-392,-37,53,-8
2160,288,-2072,-424,-37,56,-9
2165,288,-2096,-440,-38,57,-9
2170,304,-2064,-424,-40,61,-10
2175,312,-2104,-360,-44,65,-11
2180,296,-2088,-400,-47,66,-12
2185,304,-2072,-368,-49,69,-13
2190,304,-2088,-440,-52,73,-12
2195,288,-2072,-400,-55,76,-13
2200,280,-2064,-424,-57,81,-14
2205,288,-2088,-400,-56,84,-14
2210,296,-2080,-424,-59,89,-15
2215,288,-2080,-384,-60,91,-14
2220,296,-2096,-424,-62,93,-16
2225,296,-2112,-408,-62,96,-18
2230,288,-2096,-384,-64,99,-17
2235,312,-2096,-416,-63,101,-19
2240,256,-2120,-432,-64,104,-20
2245,312,-2112,-408,-64,105,-20
2250,288,-2096,-408,-64,107,-20
2255,264,-2072,-384,-63,108,-19
2260,288,-2112,-400,-63,108,-19
2265,272,-2112,-416,-63,109,-20
2270,280,-2104,-424,-63,111,-21
2275,248,-2072,-360,-61,112,-19
2280,304,-2072,-400,-59,113,-18
2285,264,-2104,-416,-58,115,-17
2290,272,-2112,-384,-56,114,-18
2295,248,-2096,-440,-55,114,-18
2300,256,-2080,-392,-53,114,-19
2305,248,-2096,-416,-52,112,-18
2310,240,-2072,-432,-52,113,-16
2315,256,-2080,-408,-51,111,-15
2320,272,-2096,-424,-50,109,-14
2325,272,-2088,-416,-50,108,-12
2330,272,-2080,-408,-50,105,-12
2335,240,-2088,-400,-49,105,-10
2340,248,-2064,-384,-49,103,-11
2345,264,-2088,-432,-48,101,-10
2350,216,-2136,-392,-48,98,-9
2355,256,-2080,-424,-49,96,-8
2360,256,-2080,-400,-49,94,-8
2365,264,-2104,-424,-50,92,-6
2370,232,-2072,-424,-47,90,-5
2375,240,-2080,-440,-49,86,-5
2380,264,-2072,-408,-48,84,-5
2385,248,-2088,-392,-48,81,-5
2390,256,-2096,-432,-46,79,-3
2395,264,-2088,-432,-47,76,-3
2400,224,-2096,-416,-46,73,-2
2405,264,-2080,-416,-46,69,-2
2410,248,-2104,-400,-44,68,-3
2415,264,-2088,-416,-42,65,-4
2420,256,-2088,-440,-45,62,-3
2425,280,-2088,-400,-47,59,-2
2430,240,-2064,-424,-47,55,-2
2435,248,-2080,-416,-49,52,-2
2440,272,-2080,-416,-51,49,-2
2445,264,-2104,-416,-52,46,-1
2450,240,-2072,-416,-53,43,-1
2455,272,-2080,-376,-54,40,-1
2460,248,-2088,-440,-55,35,-2
2465,264,-2104,-384,-56,32,-1
2470,256,-2064,-416,-56,29,-2
2475,256,-2080,-424,-58,26,-2
2480,272,-2096,-448,-59,21,-4
2485,272,-2096,-400,-58,18,-2
2490,248,-2112,-408,-59,15,-3
2495,248,-2088,-416,-57,12,-4
2500,288,-2104,-416,-56,9,-3
2505,240,-2088,-416,-54,8,-3
2510,248,-2072,-432,-54,6,-3
2515,272,-2120,-424,-54,6,-3
2520,264,-2096,-432,-55,5,-4
2525,272,-2088,-440,-57,2,-4
2530,256,-2088,-392,-59,0,-4
2535,256,-2072,-408,-61,-1,-6
2540,256,-2072,-432,-65,-2,-7
2545,280,-2072,-432,-66,-3,-8
2550,280,-2096,-416,-70,-5,-6
2555,280,-2112,-424,-68,-7,-7
2560,264,-2096,-408,-68,-10,-7
2565,280,-2112,-440,-67,-10,-8
2570,280,-2096,-408,-66,-13,-8
2575,264,-2072,-408,-68,-16,-8
2580,272,-2096,-424,-68,-15,-7
2585,280,-2088,-408,-70,-17,-7
2590,288,-2112,-424,-70,-19,-7
2595,256,-2088,-416,-70,-19,-7
2600,280,-2096,-416,-69,-19,-6
2605,280,-2104,-448,-67,-19,-5
2610,272,-2088,-384,-64,-18,-4
2615,272,-2088,-440,-62,-19,-4
2620,296,-2088,-432,-58,-17,-4
2625,272,-2096,-416,-54,-17,-2
2630,304,-2088,-448,-52,-16,-3
2635,272,-2088,-424,-48,-16,-4
2640,264,-2112,-424,-47,-16,-2
2645,288,-2112,-416,-46,-15,-1
2650,264,-2088,-440,-44,-16,-2
2655,296,-2096,-424,-43,-14,-3
2660,296,-2104,-384,-40,-13,-4
2665,280,-2072,-416,-38,-12,-4
2670,264,-2064,-392,-35,-12,-3
2675,320,-2120,-448,-32,-11,-2
2680,296,-2096,-448,-30,-11,-2
2685,272,-2096,-456,-28,-10,-1
2690,296,-2128,-440,-27,-8,-2
2695,320,-2096,-456,-25,-8,0
2700,272,-2080,-448,-24,-7,-3
2705,288,-2120,-448,-21,-4,-3
2710,240,-2072,-456,-22,-2,-3
2715,304,-2112,-432,-28,-1,-2
2720,296,-2064,-440,-32,1,-1
2725,304,-2104,-416,-35,1,1
2730,256,-2096,-424,-35,6,1
2735,280,-2080,-440,-37,5,1
2740,288,-2104,-424,-40,8,3
2745,296,-2096,-432,-43,10,4
2750,288,-2096,-424,-45,11,5
2755,296,-2112,-448,-46,15,4
2760,304,-2104,-464,-50,19,4
2765,272,-2080,-464,-52,21,2
2770,288,-2104,-424,-56,25,1
2775,312,-2088,-440,-60,28,-3
2780,312,-2120,-432,-63,31,-4
2785,312,-2088,-456,-65,34,-6
2790,296,-2072,-440,-69,38,-6
2795,320,-2088,-456,-74,41,-6
2800,304,-2064,-432,-79,43,-8
2805,304,-2080,-472,-84,46,-10
2810,288,-2080,-472,-90,50,-9
2815,296,-2080,-456,-95,54,-10
2820,320,-2080,-456,-101,56,-10
2825,280,-2072,-432,-107,59,-9
2830,272,-2072,-448,-112,61,-8
2835,264,-2112,-440,-118,64,-7
2840,288,-2072,-488,-125,64,-7
2845,304,-2080,-456,-134,67,-6
2850,272,-2072,-496,-143,69,-7
2855,280,-2080,-480,-151,70,-7
2860,264,-2064,-464,-157,69,-8
2865,320,-2128,-488,-167,67,7
2870,296,-2048,-496,-178,72,-8
2875,272,-2048,-480,-180,74,-12
2880,304,-2056,-488,-185,71,-12
2885,272,-2080,-472,-192,70,-14
2890,280,-2112,-496,-197,68,-14
2895,280,-2056,-472,-202,67,-15
2900,280,-2088,-456,-207,66,-15
2905,272,-2080,-448,-208,64,-13
2910,296,-2088,-488,-211,63,-14
2915,288,-2080,-480,-212,61,-7
2920,272,-2064,-456,-212,62,-12
2925,304,-2064,-464,-207,61,-13
2930,296,-2064,-480,-204,62,-14
2935,280,-2064,-448,-204,61,-14
2940,256,-2064,-480,-202,61,-14
2945,264,-2056,-400,-201,60,-15
2950,288,-2064,-472,-201,60,-14
2955,304,-2064,-464,-202,58,-15
2960,304,-2064,-488,-205,56,-15
2965,280,-2048,-464,-209,55,-16
2970,256,-2040,-520,-217,52,-16
2975,288,-2056,-496,-224,48,-14
2980,288,-2056,-520,-239,46,-14
2985,264,-2048,-512,-256,42,-10
2990,264,-2064,-512,-277,38,-3
2995,264,-2056,-536,-291,34,-9
3000,256,-2072,-536,-302,30,-10
3005,256,-2056,-528,-310,28,-8
3010,272,-2064,-512,-317,25,-6
3015,256,-2056,-544,-323,23,-6
3020,248,-2056,-512,-328,22,-4
3025,256,-2048,-520,-328,21,-3
3030,256,-2040,-504,-329,22,-4
3035,272,-2040,-512,-330,22,-2
3040,264,-2056,-528,-331,22,1
3045,264,-2048,-544,-334,24,-1
3050,320,-2064,-496,-332,22,-4
3055,272,-2040,-528,-334,22,-5
3060,248,-2032,-544,-337,22,-6
3065,288,-2048,-544,-340,22,-5
3070,248,-2024,-536,-347,22,-6
3075,288,-2048,-552,-352,23,-6
3080,280,-2064,-536,-356,22,-7
3085,304,-2040,-552,-363,23,-7
3090,272,-2032,-576,-370,22,-8
3095,288,-2056,-584,-377,24,-6
3100,280,-2048,-536,-384,25,-8
3105,272,-2040,-616,-384,26,-11
3110,296,-2048,-600,-388,27,-14
3115,296,-2056,-576,-392,29,-16
3120,296,-2040,-608,-395,30,-19
3125,296,-2048,-592,-402,31,-19
3130,328,-2048,-648,-407,33,-20
3135,272,-2040,-616,-416,34,-22
3140,296,-2048,-632,-425,34,-23
3145,296,-2040,-640,-429,35,-24
3150,304,-2048,-640,-430,38,-29
3155,320,-2024,-656,-432,40,-31
3160,344,-2008,-648,-434,42,-32
3165,296,-2048,-680,-434,43,-34
3170,336,-2032,-664,-437,45,-35
3175,328,-2024,-672,-443,47,-34
3180,312,-2048,-680,-447,49,-32
3185,336,-2032,-680,-453,51,-31
3190,320,-2024,-720,-457,52,-29
3195,312,-2032,-720,-462,54,-29
3200,288,-2016,-720,-471,55,-26
3205,328,-2032,-720,-481,54,-24
3210,312,-2024,-720,-493,52,-23
3215,312,-2024,-736,-507,51,-16
3220,296,-2000,-736,-524,48,-14
3225,288,-1992,-720,-539,45,-15
3230,296,-2008,-712,-553,42,-14
3235,272,-1976,-760,-572,39,-11
3240,288,-1936,-784,-589,35,-9
3245,288,-1952,-744,-608,32,-8
3250,256,-1928,-768,-629,27,-6
3255,240,-1944,-776,-650,20,-3
3260,240,-1936,-792,-672,13,0
3265,248,-1920,-776,-692,8,-2
3270,224,-1880,-776,-711,1,-5
3275,224,-1896,-768,-729,-7,-6
3280,224,-1896,-736,-749,-15,-6
3285,208,-1912,-776,-767,-24,-6
3290,208,-1920,-760,-786,-33,-7
3295,216,-1920,-768,-806,-43,-7
3300,200,-1936,-784,-823,-52,-7
3305,200,-1952,-792,-841,-61,-6
3310,200,-1968,-808,-860,-73,-6
3315,224,-1976,-784,-878,-82,-5
3320,184,-1984,-840,-894,-92,-7
3325,208,-2000,-848,-910,-101,-7
3330,216,-2008,-816,-924,-107,-8
3335,216,-2016,-840,-937,-112,-7
3340,224,-2032,-864,-949,-118,-6
3345,224,-2016,-872,-957,-124,-4
3350,240,-2032,-896,-964,-128,-8
3355,232,-2048,-888,-965,-133,-12
3360,232,-2032,-872,-964,-138,-17
3365,248,-2048,-880,-957,-144,-23
3370,216,-2000,-888,-949,-147,-30
3375,208,-2072,-864,-935,-152,-37
3380,280,-2032,-920,-916,-167,-50
3385,280,-1992,-928,-901,-173,-56
3390,256,-2016,-944,-899,-160,-53
3395,248,-1992,-912,-897,-152,-51
3400,280,-2032,-944,-892,-148,-50
3405,264,-2056,-952,-886,-146,-48
3410,264,-2048,-936,-877,-145,-53
3415,296,-2048,-920,-868,-152,-60
3420,288,-2040,-976,-853,-158,-66
3425,296,-2040,-992,-840,-167,-69
3430,272,-2008,-992,-832,-167,-67
3435,352,-2024,-1008,-824,-165,-65
3440,288,-2032,-1024,-814,-164,-62
3445,288,-2016,-1008,-800,-163,-60
3450,296,-2048,-1024,-782,-161,-56
3455,296,-2008,-1040,-760,-157,-55
3460,288,-1992,-1024,-745,-157,-55
3465,280,-1936,-1048,-732,-158,-57
3470,280,-1936,-1024,-726,-156,-56
3475,256,-1920,-1032,-728,-158,-55
3480,288,-1888,-1064,-738,-157,-53
3485,280,-1896,-1048,-750,-155,-51
3490,272,-1920,-1072,-762,-158,-47
3495,264,-1904,-1072,-775,-160,-42
3500,256,-1912,-1064,-787,-162,-40
3505,256,-1896,-1088,-791,-164,-39
3510,256,-1888,-1088,-800,-167,-38
3515,256,-1936,-1080,-810,-173,-34
3520,240,-1912,-1120,-816,-178,-30
3525,248,-1920,-1136,-820,-180,-30
3530,248,-1888,-1160,-823,-183,-28
3535,240,-1880,-1120,-825,-184,-25
3540,248,-1920,-1160,-830,-184,-22
3545,224,-1928,-1152,-834,-185,-23
3550,208,-1872,-1128,-837,-185,-23
3555,216,-1872,-1160,-838,-184,-25
3560,200,-1880,-1176,-840,-185,-25
3565,224,-1872,-1192,-845,-187,-27
3570,232,-1864,-1192,-851,-189,-26
3575,232,-1864,-1208,-860,-193,-25
3580,232,-1888,-1168,-870,-197,-27
3585,224,-1864,-1216,-877,-201,-24
3590,216,-1864,-1208,-883,-203,-25
3595,216,-1792,-1176,-886,-206,-24
3600,232,-1832,-1232,-888,-207,-20
3605,232,-1816,-1232,-892,-207,-16
3610,248,-1824,-1208,-896,-208,-10
3615,256,-1784,-1272,-899,-209,-5
3620,240,-1784,-1280,-906,-209,-1
3625,248,-1760,-1288,-912,-209,4
3630,224,-1728,-1256,-916,-211,9
3635,248,-1784,-1264,-921,-213,15
3640,256,-1784,-1272,-929,-217,17
3645,248,-1768,-1272,-937,-221,16
3650,264,-1776,-1352,-943,-222,16
3655,240,-1768,-1328,-953,-218,13
3660,256,-1784,-1320,-968,-214,11
3665,232,-1760,-1360,-981,-210,9
3670,232,-1752,-1376,-997,-205,0
3675,240,-1768,-1384,-1014,-200,-9
3680,200,-1760,-1400,-1027,-198,-15
3685,216,-1776,-1400,-1042,-195,-20
3690,216,-1752,-1408,-1054,-190,-30
3695,176,-1744,-1416,-1064,-185,-39
3700,216,-1760,-1432,-1070,-177,-40
3705,240,-1720,-1464,-1069,-179,-40
3710,184,-1776,-1440,-1064,-177,-46
3715,232,-1712,-1520,-1047,-194,-48
3720,288,-1664,-1552,-1051,-181,-45
3725,272,-1696,-1528,-1068,-157,-39
3730,280,-1696,-1512,-1082,-144,-32
3735,280,-1688,-1528,-1089,-136,-24
3740,296,-1704,-1536,-1094,-133,-11
3745,240,-1680,-1568,-1094,-126,-8
3750,288,-1704,-1544,-1088,-122,-6
3755,256,-1664,-1544,-1079,-120,-7
3760,264,-1688,-1560,-1071,-119,-2
3765,248,-1672,-1616,-1071,-111,0
3770,264,-1656,-1640,-1073,-102,-6
3775,280,-1632,-1648,-1080,-85,-9
3780,248,-1640,-1696,-1093,-65,-10
3785,264,-1616,-1704,-1105,-48,-14
3790,296,-1616,-1752,-1113,-30,-16
3795,280,-1592,-1744,-1124,-12,-18
3800,272,-1600,-1752,-1131,4,-20
3805,280,-1600,-1760,-1130,20,-24
3810,304,-1536,-1776,-1132,37,-26
3815,256,-1560,-1720,-1117,45,-24
3820,216,-1568,-1712,-1093,44,-19
3825,168,-1552,-1712,-1059,37,-14
3830,208,-1496,-1656,-1018,16,-14
3835,168,-1520,-1640,-1003,8,-9
3840,120,-1472,-1648,-992,-1,-13
3845,176,-1440,-1672,-977,-18,-12
3850,136,-1496,-1704,-979,-16,-9
3855,128,-1432,-1640,-988,-13,-8
3860,128,-1448,-1656,-995,-8,-9
3865,112,-1424,-1768,-1004,-2,-11
3870,136,-1416,-1720,-1021,1,-14
3875,136,-1408,-1728,-1038,3,-18
3880,152,-1384,-1696,-1054,10,-28
3885,200,-1344,-1704,-1076,15,-35
3890,200,-1304,-1736,-1099,20,-35
3895,216,-1248,-1696,-1113,32,-35
3900,224,-1240,-1656,-1121,39,-32
3905,248,-1232,-1616,-1122,37,-30
3910,176,-1200,-1600,-1113,25,-29
3915,216,-1184,-1584,-1101,-5,-28
3920,168,-1168,-1488,-1092,-38,-29
3925,152,-1120,-1576,-1080,-70,-35
3930,112,-1072,-1600,-1076,-101,-41
3935,112,-1080,-1680,-1082,-133,-49
3940,72,-1040,-1672,-1115,-153,-59
3945,56,-1032,-1664,-1150,-188,-75
3950,48,-1064,-1672,-1195,-204,-95
3955,56,-1024,-1696,-1245,-221,-123
3960,24,-1032,-1704,-1299,-228,-148
3965,24,-1064,-1752,-1360,-232,-170
3970,80,-1040,-1816,-1426,-235,-190
3975,48,-1048,-1760,-1477,-239,-206
3980,96,-1032,-1792,-1514,-255,-229
3985,120,-1024,-1832,-1550,-267,-243
3990,112,-1000,-1824,-1583,-274,-244
3995,168,-1048,-1808,-1623,-282,-227
4000,168,-1088,-1792,-1661,-292,-240
4005,184,-1064,-1784,-1682,-312,-246
4010,200,-1104,-1832,-1699,-339,-248
4015,192,-1120,-1856,-1722,-355,-257
4020,168,-1120,-1816,-1740,-379,-273
4025,144,-1152,-1896,-1747,-408,-288
4030,184,-1088,-1832,-1767,-416,-283
4035,184,-1072,-1840,-1767,-431,-299
4040,200,-1104,-1888,-1777,-442,-298
4045,176,-1064,-1880,-1799,-446,-312
4050,200,-1080,-1888,-1796,-456,-322
4055,224,-1104,-1872,-1788,-473,-322
4060,216,-1056,-1808,-1781,-491,-321
4065,248,-1080,-1848,-1755,-511,-324
4070,192,-1112,-1872,-1731,-530,-324
4075,184,-1072,-1824,-1716,-555,-326
4080,160,-1072,-1800,-1710,-583,-330
4085,104,-1056,-1800,-1703,-607,-351
4090,136,-1064,-1800,-1698,-639,-366
4095,112,-1024,-1784,-1702,-655,-377
4100,104,-1032,-1864,-1691,-690,-395
4105,48,-1008,-1840,-1692,-695,-425
4110,72,-984,-1872,-1691,-708,-447
4115,80,-1000,-1880,-1698,-706,-465
4120,88,-952,-1840,-1708,-711,-479
4125,104,-976,-1816,-1714,-731,-504
4130,136,-904,-1848,-1723,-739,-535
4135,112,-896,-1792,-1726,-734,-559
4140,168,-888,-1752,-1717,-733,-584
4145,176,-912,-1720,-1700,-716,-608
4150,192,-880,-1672,-1674,-695,-631
4155,208,-968,-1656,-1635,-668,-651
4160,256,-984,-1704,-1572,-629,-685
4165,264,-976,-1664,-1503,-582,-713
4170,320,-944,-1704,-1438,-531,-740
4175,288,-896,-1736,-1377,-481,-760
4180,384,-880,-1712,-1321,-428,-781
4185,424,-800,-1664,-1267,-381,-804
4190,408,-760,-1640,-1227,-335,-822
4195,480,-704,-1640,-1203,-293,-834
4200,448,-680,-1576,-1202,-248,-842
4205,472,-672,-1560,-1206,-208,-846
4210,496,-728,-1520,-1208,-173,-845
4215,480,-792,-1544,-1207,-142,-851
4220,464,-832,-1520,-1219,-113,-855
4225,448,-976,-1584,-1228,-85,-854
4230,440,-984,-1496,-1261,-38,-852
4235,424,-1040,-1544,-1254,-23,-867
4240,352,-1064,-1544,-1246,-10,-872
4245,312,-1064,-1552,-1239,-8,-879
4250,248,-1048,-1608,-1234,-16,-884
4255,152,-1000,-1544,-1228,-39,-886
4260,176,-1016,-1448,-1231,-78,-874
4265,72,-960,-1352,-1239,-126,-881
4270,-8,-880,-1200,-1258,-196,-872
4275,-104,-824,-1192,-1289,-269,-857
4280,-256,-792,-1248,-1340,-350,-827
4285,-312,-664,-1192,-1430,-414,-806
4290,-296,-672,-1408,-1494,-520,-806
4295,-248,-832,-1416,-1565,-606,-796
4300,-280,-888,-1376,-1596,-716,-781
4305,-248,-904,-1208,-1580,-858,-780
4310,-280,-920,-1216,-1544,-1012,-762
4315,-184,-888,-1120,-1518,-1154,-714
4320,-256,-752,-1224,-1468,-1340,-743
4325,-224,-728,-1176,-1441,-1502,-720
4330,-264,-664,-1080,-1400,-1669,-753
4335,-296,-696,-1008,-1355,-1848,-788
4340,-416,-664,-976,-1319,-1997,-821
4345,-512,-648,-1056,-1306,-2160,-883
4350,-536,-760,-1136,-1280,-2299,-947
4355,-576,-856,-1176,-1240,-2426,-974
4360,-632,-800,-1368,-1164,-2562,-1097
4365,-648,-912,-1432,-1025,-2699,-1214
4370,-648,-944,-1560,-831,-2824,-1325
4375,-640,-936,-1624,-599,-2947,-1439
4380,-504,-848,-1768,-358,-3078,-1543
4385,-472,-696,-1928,-110,-3174,-1618
4390,-504,-544,-2104,155,-3228,-1637
4395,-320,-232,-2136,390,-3271,-1641
4400,-352,-40,-2184,571,-3250,-1624
4405,-352,40,-2096,670,-3232,-1615
4410,-312,80,-2024,683,-3236,-1621
4415,-288,40,-1992,640,-3244,-1634
4420,-256,0,-1976,589,-3245,-1641
4425,-328,-120,-1944,548,-3228,-1630
4430,-336,-216,-1960,531,-3204,-1603
4435,-304,-312,-1944,524,-3164,-1571
4440,-272,-408,-1992,529,-3115,-1543
4445,-304,-392,-1936,556,-3060,-1519
4450,-296,-392,-1848,597,-3023,-1495
4455,-392,-408,-1832,639,-2993,-1468
4460,-432,-352,-1864,684,-2963,-1444
4465,-528,-296,-1872,712,-2930,-1421
4470,-672,-200,-1920,724,-2891,-1396
4475,-736,-64,-1896,718,-2854,-1368
4480,-800,48,-1936,708,-2818,-1334
4485,-816,200,-1984,685,-2780,-1294
4490,-880,288,-2048,646,-2751,-1254
4495,-952,312,-2088,592,-2730,-1213
4500,-896,248,-2160,547,-2712,-1167
4505,-928,224,-2184,505,-2684,-1117
4510,-904,184,-2192,472,-2633,-1057
4515,-912,160,-2192,449,-2579,-996
4520,-968,136,-2256,428,-2539,-936
4525,-1008,144,-2312,406,-2506,-882
4530,-1104,136,-2328,371,-2463,-827
4535,-1224,120,-2328,324,-2413,-776
4540,-1360,80,-2208,262,-2368,-740
4545,-1552,24,-2120,200,-2333,-729
4550,-1776,-136,-2104,175,-2310,-739
4555,-1944,-232,-2128,171,-2270,-736
4560,-2192,-288,-2224,201,-2194,-727
4565,-2568,-384,-2152,260,-2102,-680
4570,-2944,-480,-2048,347,-2059,-601
4575,-3432,-480,-1952,438,-2099,-495
4580,-4000,-408,-1952,505,-2222,-357
4585,-4600,-312,-1808,545,-2417,-182
4590,-4992,-224,-1760,576,-2642,31
4595,-5096,40,-1832,622,-2853,297
4600,-5024,288,-1968,661,-2990,583
4605,-5088,384,-1968,653,-3023,866
4610,-4848,384,-1992,561,-3039,1118
4615,-4552,464,-1936,406,-3039,1331
4620,-4056,544,-1976,264,-3023,1533
4625,-3976,568,-1968,136,-2976,1740
4630,-3968,616,-1816,9,-2922,1948
4635,-4088,752,-1776,-107,-2886,2159
4640,-4776,680,-1472,-224,-2856,2387
4645,-5264,616,-1000,-330,-2917,2608
4650,-5368,488,-992,-395,-3053,2843
4655,-5424,592,-1024,-438,-3117,3145
4660,-5360,512,-992,-557,-3038,3404
4665,-5488,392,-712,-610,-2789,3603
4670,-5256,432,-480,-579,-2532,3706
4675,-5160,1064,-168,-490,-2267,3794
4680,-4760,1600,-240,-477,-2051,3815
4685,-4488,1944,-416,-586,-1871,3707
4690,-4464,1936,-464,-794,-1688,3477
4695,-4120,1528,-592,-1000,-1471,3131
4700,-3816,928,-920,-1056,-1125,2676
4705,-3592,560,-1432,-884,-659,2197
4710,-3040,216,-1688,-545,-104,1745
4715,-2632,-136,-1768,-120,431,1245
4720,-2360,-224,-1784,315,911,688
4725,-1968,8,-1752,642,1329,217
4730,-1856,352,-1424,812,1662,-128
4735,-1584,712,-1096,814,1813,-327
4740,-1336,928,-840,619,1864,-425
4745,-1392,1088,-608,305,1924,-467
4750,-1416,1160,-472,1,1986,-472
4755,-1552,1232,-432,-211,2020,-469
4760,-1576,1216,-520,-306,2030,-438
4765,-1368,1152,-640,-334,2004,-404
4770,-1424,1224,-776,-347,1970,-371
4775,-1600,1216,-816,-370,1951,-344
4780,-1856,1232,-752,-374,1918,-328
4785,-1920,1152,-704,-337,1856,-320
4790,-1960,1088,-720,-277,1792,-330
4795,-1880,968,-712,-225,1729,-344
4800,-1920,840,-664,-202,1663,-369
4805,-2048,560,-640,-191,1570,-398
4810,-1936,440,-536,-181,1461,-436
4815,-1792,168,-424,-158,1352,-472
4820,-1728,40,-392,-142,1253,-513
4825,-1744,24,-312,-96,1137,-543
4830,-1664,-24,-168,-5,1012,-557
4835,-1568,0,-120,82,844,-575
4840,-1440,24,-88,155,665,-591
4845,-1472,88,-64,200,506,-602
4850,-1512,88,-88,235,356,-618
4855,-1544,168,-152,267,235,-620
4860,-1512,112,-128,293,123,-640
4865,-1632,288,-136,365,28,-663
4870,-1608,416,-24,341,-122,-679
4875,-1584,408,-128,295,-249,-707
4880,-1488,456,-64,287,-348,-724
4885,-1384,448,-112,299,-428,-723
4890,-1296,400,-176,324,-494,-709
4895,-1184,392,-256,350,-550,-684
4900,-1032,472,-432,372,-596,-661
4905,-1088,392,-400,372,-615,-636
4910,-1184,488,-512,365,-649,-625
4915,-1256,552,-568,340,-666,-603
4920,-1320,624,-616,309,-698,-597
4925,-1304,704,-672,264,-720,-602
4930,-1384,768,-760,210,-733,-602
4935,-1480,800,-800,151,-742,-606
4940,-1528,776,-896,79,-748,-623
4945,-1696,672,-888,7,-758,-639
4950,-1680,640,-936,-36,-795,-669
4955,-1848,504,-872,-49,-821,-688
4960,-1912,376,-904,-29,-863,-699
4965,-1992,368,-920,-3,-913,-707
4970,-2184,304,-880,26,-967,-700
4975,-2256,264,-824,45,-1029,-684
4980,-2312,304,-840,61,-1090,-664
4985,-2528,208,-880,82,-1140,-634
4990,-2528,208,-968,96,-1184,-606
4995,-2624,192,-1016,105,-1215,-577
5000,-2816,120,-1008,116,-1236,-542
5005,-2728,128,-1064,124,-1257,-510
5010,-2712,136,-1104,134,-1262,-485
5015,-2624,120,-1072,155,-1263,-456
5020,-2512,192,-1048,177,-1264,-440
5025,-2504,248,-984,199,-1247,-410
5030,-2488,240,-928,232,-1243,-371
5035,-2480,264,-840,272,-1245,-325
5040,-2176,384,-936,308,-1236,-286
5045,-2376,208,-640,316,-1154,-198
5050,-2184,168,-784,360,-1167,-178
5055,-2264,224,-736,401,-1158,-170
5060,-2248,192,-616,438,-1124,-145
5065,-2232,184,-640,473,-1111,-124
5070,-2224,248,-592,505,-1091,-95
5075,-2184,264,-520,525,-1059,-65
5080,-2144,328,-544,527,-1034,-44
5085,-2184,232,-472,510,-1005,-29
5090,-2128,216,-512,512,-988,-16
5095,-2080,256,-464,542,-962,-1
5100,-2000,208,-416,562,-915,31
5105,-1976,120,-336,573,-876,45
5110,-1920,120,-336,593,-851,54
5115,-1864,240,-400,613,-814,52
5120,-1984,0,-280,599,-768,77
5125,-1808,96,-376,649,-796,63
5130,-1816,88,-208,683,-747,72
5135,-1808,24,-224,712,-740,78
5140,-1800,16,-240,742,-754,55
5145,-1720,40,-256,757,-750,34
5150,-1744,16,-264,760,-730,19
5155,-1664,256,-504,754,-691,24
5160,-1760,-104,-256,726,-651,18
5165,-1712,48,-288,763,-694,-26
5170,-1632,152,-336,773,-692,-57
5175,-1744,144,-280,734,-676,-77
5180,-1744,80,-224,677,-662,-75
5185,-1720,80,-264,650,-692,-83
5190,-1752,72,-240,652,-700,-97
5195,-1760,16,-248,651,-722,-132
5200,-1816,16,-296,650,-739,-163
5205,-1832,16,-320,643,-742,-183
5210,-1872,-24,-304,636,-738,-198
5215,-1912,-96,-312,638,-735,-211
5220,-1992,-192,-288,658,-735,-221
5225,-1960,-168,-336,702,-744,-243
5230,-2000,-224,-344,743,-743,-265
5235,-2008,-240,-376,781,-729,-280
5240,-2072,184,-384,749,-666,-277
5245,-2064,-472,-296,642,-626,-228
5250,-1968,-344,-376,731,-671,-241
5255,-2104,-184,-320,769,-635,-250
5260,-2032,-296,-320,758,-627,-232
5265,-2008,-240,-328,777,-637,-231
5270,-2008,-224,-280,778,-632,-221
5275,-2040,-184,-304,762,-631,-203
5280,-1984,-160,-264,724,-631,-186
5285,-1944,-104,-312,674,-635,-164
5290,-2000,-64,-320,609,-632,-149
5295,-1784,192,-360,554,-621,-128
5300,-2008,-264,-160,420,-583,-82
5305,-1928,-192,-272,383,-613,-61
5310,-1928,-168,-184,396,-626,-44
5315,-1920,-128,-216,382,-643,-48
5320,-1896,-120,-184,346,-649,-47
5325,-1872,-80,-184,309,-649,-43
5330,-1896,-48,-168,270,-634,-32
5335,-1912,-48,-152,218,-622,-20
5340,-1920,-56,-80,156,-611,-12
5345,-1864,-72,-56,94,-600,-5
5350,-1896,-48,-32,40,-589,-1
5355,-1904,-104,-48,-6,-576,4
5360,-1896,-120,-8,-43,-563,5
5365,-1888,-152,8,-71,-551,6
5370,-1880,-144,24,-92,-543,8
5375,-1920,-176,-8,-109,-535,9
5380,-1896,-240,8,-119,-518,8
5385,-1904,-232,-8,-122,-491,7
5390,-1920,-248,-32,-123,-458,5
5395,-1896,-208,-8,-128,-428,5
5400,-1872,-208,-32,-133,-407,7
5405,-1840,-216,32,-142,-389,9
5410,-1856,-224,56,-152,-374,9
5415,-1832,-200,40,-164,-363,9
5420,-1800,-208,32,-176,-352,12
5425,-1816,-200,64,-186,-340,17
5430,-1832,-184,128,-192,-329,21
5435,-1848,-200,136,-198,-321,26
5440,-1832,-184,136,-204,-311,30
5445,-1864,-176,128,-203,-302,34
5450,-1848,-168,112,-202,-290,38
5455,-1856,-144,120,-202,-272,43
5460,-1904,-232,128,-200,-255,51
5465,-1912,-160,152,-200,-241,54
5470,-1896,-152,136,-202,-228,59
5475,-1888,-176,176,-207,-214,61
5480,-1896,-176,96,-212,-203,60
5485,-1896,-192,168,-213,-193,61
5490,-1904,-224,136,-209,-180,58
5495,-1896,-232,96,-198,-168,55
5500,-1864,-248,96,-179,-161,53
5505,-1872,-256,88,-151,-152,50
5510,-1872,-264,64,-122,-148,45
5515,-1936,-272,40,-91,-141,41
5520,-1912,-240,48,-62,-136,34
5525,-1896,-256,40,-37,-130,27
5530,-1880,-232,32,-15,-122,20
5535,-1888,-208,56,3,-114,14
5540,-1872,-216,32,17,-108,12
5545,-1872,-232,48,27,-100,10
5550,-1856,-200,56,41,-94,11
5555,-1816,-208,32,52,-90,11
5560,-1864,-200,32,65,-88,12
5565,-1856,-216,24,78,-86,10
5570,-1856,-216,24,93,-85,9
5575,-1864,-192,0,107,-85,9
5580,-1872,-208,16,120,-82,6
5585,-1904,-192,40,132,-77,3
5590,-1912,-152,32,139,-73,2
5595,-1912,-144,24,144,-67,1
5600,-1920,-104,48,142,-59,-1
5605,-1928,-112,72,136,-51,-2
5610,-1952,-88,56,124,-44,-3
5615,-1960,-32,64,110,-39,-3
5620,-1984,-32,48,93,-31,-3
5625,-1912,-40,128,71,-26,-3
5630,-1960,-64,88,52,-17,-3
5635,-1960,-72,48,28,-8,-4
5640,-1936,-72,56,6,2,-4
5645,-1920,-96,40,-17,16,-3
5650,-1944,-120,64,-39,32,0
5655,-1920,-112,40,-59,53,5
5660,-1904,-120,56,-77,77,13
5665,-1904,-104,16,-90,102,22
5670,-1880,-128,8,-106,126,34
5675,-1848,-96,48,-122,148,46
5680,-1816,-136,24,-141,167,61
5685,-1840,-40,8,-168,179,72
5690,-1808,-24,32,-197,186,83
5695,-1832,-24,24,-233,190,89
5700,-1824,-56,48,-274,189,93
5705,-1816,-80,96,-318,189,95
5710,-1808,-96,136,-360,189,96
5715,-1816,-120,144,-393,190,100
5720,-1824,-184,192,-421,196,104
5725,-1832,-232,216,-440,200,103
5730,-1832,-232,256,-450,203,104
5735,-1832,-256,160,-451,205,107
5740,-1824,-288,160,-444,208,113
5745,-1816,-304,144,-430,212,121
5750,-1848,-304,120,-409,216,128
5755,-1856,-352,112,-388,220,134
5760,-1856,-328,56,-361,227,139
5765,-1904,-368,48,-329,233,142
5770,-1880,-352,56,-298,244,147
5775,-1912,-312,16,-265,257,150
5780,-1936,-272,0,-235,270,151
5785,-1952,-248,-8,-207,286,152
5790,-1952,-232,0,-181,301,151
5795,-1968,-224,-8,-161,314,151
5800,-1968,-176,-48,-144,326,150
5805,-1984,-160,-40,-134,336,149
5810,-1984,-136,-24,-129,344,148
5815,-1992,-104,-64,-129,349,144
5820,-1968,-128,-56,-130,352,142
5825,-1960,-112,-80,-130,351,140
5830,-1960,-104,-48,-130,351,137
5835,-1976,-80,-112,-129,350,133
5840,-1960,-88,-64,-127,349,130
5845,-1976,-112,-112,-127,348,127
5850,-1960,-112,-72,-124,345,122
5855,-1976,-120,-88,-118,347,120
5860,-1952,-120,-136,-113,345,115
5865,-1936,-120,-88,-107,345,111
5870,-1952,-120,-152,-103,344,111
5875,-1936,-104,-112,-98,343,109
5880,-1944,-112,-112,-94,344,109
5885,-1952,-112,-112,-91,342,107
5890,-1936,-112,-120,-86,342,105
5895,-1968,-72,-136,-86,340,106
5900,-1928,-112,-128,-83,338,105
5905,-1920,-120,-128,-81,336,106
5910,-1928,-104,-144,-79,336,107
5915,-1888,-112,-128,-76,332,108
5920,-1928,-64,-152,-76,331,108
5925,-1920,-96,-152,-79,329,106
5930,-1912,-80,-152,-81,325,107
5935,-1928,-112,-168,-83,322,106
5940,-1920,-80,-168,-83,315,108
5945,-1960,-80,-168,-86,310,107
5950,-1952,-72,-216,-92,308,107
5955,-1952,-40,-168,-103,303,107
5960,-1952,-48,-216,-111,297,109
5965,-1960,-16,-200,-118,294,109
5970,-1960,-56,-168,-124,288,108
5975,-1984,-64,-208,-127,281,109
5980,-1992,-56,-200,-131,276,107
5985,-2000,-40,-200,-140,274,107
5990,-2032,-16,-216,-152,272,104
5995,-2032,-24,-192,-165,268,105
6000,-2016,-16,-232,-178,265,104
6005,-2040,-16,-216,-189,263,104
6010,-2024,-8,-240,-201,255,104
6015,-2048,-24,-272,-213,248,102
6020,-2048,-32,-264,-224,244,99
6025,-2040,-56,-256,-230,240,96
6030,-2032,-64,-272,-236,237,94
6035,-2016,-56,-264,-237,234,92
6040,-2040,-64,-280,-240,230,92
6045,-2032,-48,-296,-241,227,91
6050,-2024,-40,-256,-241,221,89
6055,-2000,-32,-264,-240,214,88
6060,-2040,-32,-272,-239,207,85
6065,-2024,-48,-272,-235,201,81
6070,-2000,-72,-304,-232,193,81
6075,-2008,-80,-264,-226,184,78
6080,-1984,-48,-296,-221,174,76
6085,-1992,-64,-256,-217,165,73
6090,-2000,-64,-272,-210,158,70
6095,-2016,-80,-328,-201,152,67
6100,-1984,-80,-256,-188,144,63
6105,-2016,-40,-344,-184,141,59
6110,-1992,-48,-272,-185,138,56
6115,-2000,-40,-304,-186,135,53
6120,-1992,-8,-248,-186,132,48
6125,-1992,-64,-264,-185,128,45
6130,-1992,-40,-296,-182,124,44
6135,-2000,-24,-280,-180,120,41
6140,-1992,-56,-264,-178,113,40
6145,-2008,-32,-304,-177,107,40
6150,-1968,-56,-296,-176,100,36
6155,-1960,-32,-304,-173,92,32
6160,-1912,-24,-336,-174,84,29
6165,-1984,-24,-264,-176,77,26
6170,-1976,-8,-264,-172,69,26
6175,-1992,8,-304,-169,61,24
6180,-1960,-24,-264,-168,54,21
6185,-1976,-8,-264,-166,46,21
6190,-1984,-32,-280,-169,40,18
6195,-1976,-8,-264,-174,35,17
6200,-2000,0,-232,-177,29,12
6205,-2024,-8,-272,-177,21,8
6210,-1984,-24,-280,-177,15,3
6215,-2008,-32,-248,-176,12,0
6220,-2008,-40,-280,-174,14,-3
6225,-2008,-16,-240,-169,16,-8
6230,-2032,-56,-256,-162,19,-10
6235,-2016,-80,-264,-151,21,-12
6240,-2016,-104,-264,-135,24,-14
6245,-1984,-120,-320,-118,27,-15
6250,-1992,-104,-272,-94,30,-15
6255,-1992,-112,-272,-68,30,-13
6260,-1984,-120,-264,-46,30,-13
6265,-1984,-88,-272,-22,28,-9
6270,-1992,-88,-304,1,25,-7
6275,-1992,-72,-304,20,19,-6
6280,-1968,-72,-328,34,10,-2
6285,-1960,-72,-272,44,4,-1
6290,-1960,-72,-272,53,-4,1
6295,-1960,-40,-288,57,-11,3
6300,-1976,-8,-264,61,-17,2
6305,-1960,-24,-272,63,-22,2
6310,-1960,-40,-232,66,-28,-1
6315,-1944,-24,-264,65,-33,-4
6320,-2008,0,-264,58,-37,-7
6325,-1968,0,-288,49,-40,-11
6330,-1960,-16,-280,40,-41,-15
6335,-1984,-8,-256,32,-42,-21
6340,-1976,0,-248,22,-43,-23
6345,-1976,-8,-240,12,-42,-26
6350,-1992,-8,-232,6,-39,-27
6355,-1960,-40,-224,1,-36,-31
6360,-1960,-48,-200,-3,-33,-29
6365,-2008,-40,-272,-4,-29,-29
6370,-1912,-48,-232,-7,-27,-28
6375,-1976,-24,-240,-8,-24,-28
6380,-1968,-8,-264,-11,-25,-27
6385,-1976,-32,-240,-15,-24,-27
6390,-1984,-32,-216,-21,-24,-27
6395,-1976,-16,-224,-27,-24,-30
6400,-1976,-56,-248,-34,-26,-30
6405,-1952,-88,-256,-39,-25,-31
6410,-1968,-40,-216,-43,-22,-33
6415,-1992,-80,-248,-43,-20,-33
6420,-1976,-48,-248,-44,-20,-31
6425,-2016,-40,-296,-45,-17,-31
6430,-1984,-48,-256,-44,-15,-30
6435,-1952,-88,-248,-43,-13,-28
6440,-1952,-72,-248,-39,-11,-26
6445,-1960,-96,-224,-32,-9,-25
6450,-1992,-104,-232,-22,-11,-26
6455,-1968,-104,-248,-6,-11,-27
6460,-1968,-104,-280,10,-12,-29
6465,-2016,-80,-328,29,-16,-30
6470,-1984,-80,-328,48,-19,-30
6475,-1952,-72,-256,65,-26,-31
6480,-1960,-56,-256,81,-33,-30
6485,-1960,-56,-272,94,-40,-30
6490,-1952,-32,-280,106,-47,-29
6495,-1952,-56,-240,115,-57,-29
6500,-1944,-72,-240,121,-64,-28
6505,-1936,-64,-192,126,-71,-30
6510,-1944,-64,-256,128,-72,-29
6515,-1952,-72,-208,128,-73,-32
6520,-1936,-112,-200,128,-70,-34
6525,-1952,-112,-216,127,-63,-35
6530,-1992,-72,-192,128,-53,-38
6535,-1936,-56,-240,134,-43,-39
6540,-1960,-88,-208,138,-31,-38
6545,-1960,-88,-208,142,-19,-37
6550,-1960,-72,-200,147,-7,-38
6555,-1976,-64,-192,151,6,-38
6560,-1944,-104,-176,155,17,-35
6565,-1960,-80,-216,157,23,-33
6570,-1928,-96,-168,156,27,-32
6575,-1960,-72,-224,155,28,-30
6580,-1856,-56,-280,155,25,-28
6585,-1904,-88,-256,148,31,-25
6590,-2016,-8,-176,145,27,-21
6595,-1936,-64,-272,142,18,-17
6600,-1944,-40,-224,141,14,-14
6605,-1968,-64,-224,140,10,-13
6610,-1952,-8,-224,138,3,-9
6615,-1944,-16,-200,135,-4,-6
6620,-1960,-40,-232,126,-13,-3
6625,-1984,-16,-240,112,-16,-1
6630,-1968,-8,-216,95,-19,-1
6635,-1960,-40,-256,77,-23,0
6640,-2000,-16,-232,63,-23,0
6645,-1976,-16,-224,49,-24,-1
6650,-1952,-24,-240,37,-21,-4
6655,-1952,-24,-208,25,-17,-7
6660,-1984,-32,-240,15,-13,-8
6665,-1976,-48,-216,5,-9,-10
6670,-1960,-48,-192,-1,-4,-11
6675,-1968,-32,-224,-4,2,-13
6680,-1968,-64,-248,-7,6,-15
6685,-1984,-72,-232,-6,10,-16
6690,-2000,-56,-248,-2,10,-16
6695,-1984,-88,-248,3,9,-17
6700,-1976,-64,-224,7,8,-17
6705,-1992,-64,-248,11,4,-17
6710,-1992,-32,-216,14,2,-17
6715,-1960,-48,-240,15,-3,-16
6720,-1968,-56,-256,16,-7,-15
6725,-1984,-48,-248,13,-14,-13
6730,-1984,-32,-256,10,-19,-12
6735,-1984,-24,-208,4,-24,-12
6740,-1960,-40,-240,1,-28,-10
6745,-1952,-16,-160,-5,-32,-12
6750,-1976,-24,-208,-12,-34,-10
6755,-1928,-40,-208,-17,-37,-9
6760,-1984,-56,-192,-20,-36,-10
6765,-1984,-32,-208,-23,-34,-10
6770,-1960,-64,-224,-25,-33,-12
6775,-1944,-72,-192,-27,-30,-14
6780,-1952,-40,-216,-28,-25,-16
6785,-1960,-40,-176,-27,-21,-16
6790,-1968,-72,-208,-26,-17,-18
6795,-2008,-72,-232,-24,-10,-19
6800,-1992,-80,-232,-20,-6,-21
6805,-1960,-56,-200,-19,-2,-22
6810,-1952,-72,-232,-15,1,-24
6815,-1936,-64,-224,-10,4,-24
6820,-1968,-80,-192,-7,7,-24
6825,-1968,-80,-208,-5,6,-28
6830,-1976,-64,-184,0,5,-27
6835,-1968,-64,-216,7,6,-28
6840,-1952,-88,-208,11,7,-30
6845,-1968,-56,-200,18,4,-31
6850,-1984,-96,-224,25,5,-31
6855,-1992,-96,-256,31,4,-31
6860,-1968,-96,-240,39,2,-33
6865,-1976,-104,-248,46,4,-33
6870,-1968,-128,-208,56,2,-33
6875,-1968,-96,-224,65,2,-32
6880,-1968,-112,-232,74,2,-31
6885,-1992,-56,-200,83,1,-28
6890,-1968,-72,-216,89,-1,-26
6895,-1984,-56,-176,93,-3,-23
6900,-1936,-72,-248,96,-4,-22
6905,-1968,-64,-232,96,-6,-17
6910,-1960,-80,-232,98,-8,-15
6915,-1960,-64,-256,100,-9,-12
6920,-1952,-56,-248,99,-10,-9
6925,-1968,-64,-224,97,-8,-7
6930,-1960,-64,-216,93,-13,-5
6935,-1952,-64,-208,84,-15,-4
6940,-1960,-40,-216,78,-20,-3
6945,-1976,-56,-232,71,-24,-3
6950,-1976,-32,-232,64,-25,-2
6955,-1984,-16,-232,57,-25,-1
6960,-2056,-72,-216,52,-27,-1
6965,-1968,-72,-224,50,-30,1
6970,-1984,-56,-232,49,-32,0
6975,-2008,-40,-216,50,-31,-1
6980,-2008,-8,-192,51,-35,-3
6985,-1984,-48,-192,51,-34,-5
6990,-1992,-40,-192,54,-32,-8
6995,-1984,-40,-168,53,-29,-7
7000,-2008,-16,-168,51,-26,-8
7005,-1968,-32,-184,50,-28,-8
7010,-1936,-8,-256,49,-27,-10
7015,-1984,-40,-216,50,-29,-10
7020,-1976,-48,-224,50,-27,-8
7025,-1944,-80,-184,50,-23,-6
7030,-1944,-56,-184,48,-20,-2
7035,-1936,-48,-168,43,-17,1
7040,-1960,-24,-192,38,-19,3
7045,-1936,-80,-168,31,-19,1
7050,-1920,-48,-160,20,-21,0
7055,-1928,-8,-136,9,-22,1
7060,-1952,-8,-176,-3,-21,0
7065,-1992,-40,-160,-14,-22,-1
7070,-1928,-32,-152,-24,-20,-2
7075,-1944,-56,-160,-35,-20,-2
7080,-1944,-16,-168,-46,-16,-3
7085,-1936,-40,-184,-56,-15,-4
7090,-1944,-40,-144,-68,-12,-7
7095,-1960,-16,-152,-82,-8,-6
7100,-1960,-48,-192,-93,-5,-6
7105,-1960,-24,-168,-104,-3,-6
7110,-1936,-32,-120,-115,0,-6
7115,-1928,-24,-176,-126,1,-5
7120,-1960,-32,-120,-135,5,-5
7125,-1936,-48,-184,-143,6,-4
7130,-1928,-80,-168,-150,9,-4
7135,-1936,-72,-152,-153,11,-5
7140,-1952,-72,-136,-154,13,-4
7145,-1928,-80,-168,-154,16,-4
7150,-1936,-80,-168,-149,19,-5
7155,-1968,-104,-168,-140,22,-4
7160,-1976,-88,-176,-133,27,-6
7165,-1936,-72,-144,-125,29,-7
7170,-1968,-104,-176,-116,32,-8
7175,-1928,-80,-200,-108,36,-7
7180,-1960,-72,-184,-101,40,-6
7185,-1968,-80,-152,-94,45,-4
7190,-1936,-56,-168,-91,48,-5
7195,-1952,-64,-160,-87,51,-5
7200,-1952,-88,-168,-82,52,-4
7205,-1984,-80,-192,-79,54,-5
7210,-1984,-88,-184,-76,55,-2
7215,-1992,-88,-192,-68,56,-2
7220,-1984,-104,-176,-59,56,-1
7225,-2000,-72,-160,-51,59,-3
7230,-1960,-96,-168,-44,61,-3
7235,-1952,-80,-184,-37,62,-4
7240,-1960,-88,-208,-29,61,-4
7245,-1960,-80,-168,-23,62,-4
7250,-1952,-96,-208,-17,60,-4
7255,-1960,-104,-160,-14,59,-5
7260,-1976,-88,-224,-8,56,-5
7265,-1960,-80,-184,0,54,-5
7270,-1968,-64,-208,7,51,-6
7275,-1984,-80,-264,17,49,-7
7280,-1952,-56,-200,24,47,-6
7285,-1968,-104,-216,31,41,-7
7290,-1968,-120,-232,41,33,-8
7295,-1968,-112,-232,57,28,-8
7300,-1976,-56,-216,63,25,-7
7305,-2000,-32,-224,59,29,-8
7310,-1984,-64,-232,53,25,-9
7315,-1968,-40,-200,49,26,-6
7320,-1976,-64,-200,45,23,-6
7325,-1952,-56,-232,44,23,-6
7330,-1952,-72,-200,38,22,-4
7335,-1952,-32,-200,36,20,-2
7340,-1976,-72,-224,35,18,-1
7345,-1952,-80,-200,38,11,0
7350,-1968,-72,-208,38,11,1
7355,-1960,-64,-184,40,7,1
7360,-1928,-56,-208,40,6,3
7365,-1944,-72,-208,40,5,3
7370,-1952,-72,-216,37,4,5
7375,-1952,-56,-184,34,4,7
7380,-1952,-48,-200,26,4,10
7385,-1904,-32,-216,16,6,12
7390,-1928,-16,-176,4,8,16
7395,-1920,-16,-192,-12,10,19
7400,-1928,-16,-176,-32,11,21
7405,-1936,0,-176,-53,12,23
7410,-1944,0,-168,-76,15,25
7415,-1920,8,-160,-101,16,26
7420,-1944,16,-136,-125,17,27
7425,-1920,0,-144,-149,16,26
7430,-1928,8,-184,-170,17,25
7435,-1936,-24,-184,-190,18,22
7440,-1984,0,-200,-205,19,18
7445,-1960,-8,-192,-216,19,15
7450,-1960,-32,-184,-222,19,13
7455,-1976,-24,-208,-227,19,10
7460,-1968,-8,-192,-227,20,5
7465,-1992,-32,-200,-225,21,2
7470,-1976,-16,-216,-222,22,-1
7475,-1992,-40,-216,-217,21,-4
7480,-1976,-64,-224,-211,21,-5
7485,-1968,-24,-160,-204,21,-7
7490,-1968,-16,-136,-194,19,-9
7495,-1936,-56,-184,-186,19,-9
7500,-1968,-56,-176,-178,19,-11
7505,-1976,-56,-184,-171,18,-13
7510,-1960,-80,-176,-161,20,-16
7515,-1952,-96,-200,-150,22,-19
7520,-1976,-96,-216,-138,23,-22
7525,-1984,-88,-176,-123,27,-24
7530,-1976,-104,-208,-106,33,-27
7535,-1984,-104,-224,-89,37,-31
7540,-1992,-88,-192,-72,39,-33
7545,-1992,-88,-216,-60,41,-33
7550,-1984,-56,-200,-52,42,-32
7555,-1992,-48,-200,-47,39,-33
7560,-1984,-32,-232,-47,36,-32
7565,-1944,-32,-216,-50,31,-32
7570,-1992,-8,-184,-59,27,-33
7575,-1968,-24,-200,-65,23,-34
7580,-1992,-8,-232,-75,22,-36
7585,-1960,-24,-208,-82,19,-37
7590,-1952,-56,-208,-90,18,-38
7595,-1952,-56,-208,-97,15,-37
7600,-1928,-48,-160,-103,13,-39
7605,-1960,-64,-248,-107,11,-37
7610,-1968,-64,-184,-110,10,-38
7615,-1952,-72,-208,-110,8,-37
7620,-1936,-72,-184,-108,7,-37
7625,-1952,-96,-192,-104,6,-37
7630,-1952,-80,-192,-100,7,-33
7635,-1952,-104,-208,-93,7,-31
7640,-1944,-128,-224,-83,6,-31
7645,-1952,-112,-200,-73,5,-28
7650,-1952,-160,-224,-64,5,-26
7655,-1928,-128,-232,-53,5,-22
7660,-1928,-160,-200,-41,5,-20
7665,-1952,-136,-192,-32,7,-16
7670,-1944,-152,-216,-23,10,-14
7675,-1944,-128,-192,-14,11,-11
7680,-1944,-144,-208,-6,13,-8
7685,-1976,-120,-232,2,14,-2
7690,-1952,-104,-192,9,14,0
7695,-1936,-128,-248,14,15,5
7700,-1952,-120,-216,18,16,9
7705,-1960,-96,-192,23,16,11
7710,-1944,-96,-232,26,16,14
7715,-1968,-104,-208,29,14,17
7720,-1952,-112,-200,31,17,19
7725,-1952,-112,-192,37,18,20
7730,-1976,-96,-168,41,18,21
7735,-1960,-96,-200,49,19,22
7740,-1960,-120,-216,57,23,24
7745,-1976,-96,-184,63,25,26
7750,-1944,-112,-184,71,27,25
7755,-1968,-80,-192,78,29,27
7760,-1920,-104,-224,84,30,29
7765,-1984,-80,-192,91,33,29
7770,-1976,-72,-192,98,34,26
7775,-1968,-80,-208,104,39,29
7780,-1960,-80,-200,107,41,26
7785,-1944,-88,-200,110,45,26
7790,-1960,-32,-208,111,47,27
7795,-1968,-40,-232,109,51,25
7800,-1992,-24,-144,101,51,26
7805,-1952,0,-200,91,50,27
7810,-1960,24,-176,79,45,28
7815,-1992,16,-192,67,40,27
7820,-1968,0,-168,53,33,28
7825,-1952,0,-200,40,26,27
7830,-1920,0,-216,26,19,26
7835,-1968,0,-176,16,14,24
7840,-1984,24,-192,3,9,21
7845,-1936,0,-168,-9,5,20
7850,-1952,8,-200,-21,1,18
7855,-2000,-16,-240,-31,-3,15
7860,-1976,16,-200,-42,-6,12
7865,-1928,-16,-176,-52,-7,9
7870,-1944,0,-192,-62,-6,4
7875,-1992,16,-168,-69,-5,0
7880,-1968,0,-208,-79,-4,-4
7885,-1968,-16,-200,-87,-2,-6
7890,-1976,-16,-168,-96,-3,-9
7895,-1984,0,-192,-105,-2,-13
7900,-1992,-8,-144,-111,-3,-16
7905,-1984,-24,-192,-119,-1,-18
7910,-1976,-8,-184,-124,2,-22
7915,-1968,-24,-184,-129,3,-25
7920,-2008,-72,-168,-135,5,-27
7925,-1976,-16,-160,-139,8,-27
7930,-1968,-40,-160,-142,9,-28
7935,-1968,-32,-168,-141,10,-28
7940,-1960,-72,-168,-138,11,-30
7945,-1968,-48,-216,-136,11,-29
7950,-1960,-56,-184,-131,15,-31
7955,-1968,-96,-176,-128,15,-29
7960,-1944,-56,-160,-123,15,-29
7965,-1968,-64,-176,-120,18,-28
7970,-1976,-64,-208,-120,19,-28
7975,-1952,-72,-184,-117,21,-28
7980,-1936,-72,-200,-114,20,-29
7985,-1944,-88,-192,-113,21,-26
7990,-1952,-72,-208,-111,20,-26
7995,-1944,-96,-200,-108,20,-25
8000,-1952,-104,-216,-98,18,-25
8005,-1968,-152,-216,-87,17,-25
8010,-1952,-96,-200,-74,19,-24
8015,-1968,-112,-200,-61,21,-24
8020,-1952,-128,-176,-49,26,-23
8025,-1952,-136,-216,-41,29,-21
8030,-1944,-128,-184,-37,32,-18
8035,-1944,-88,-208,-35,33,-15
8040,-1936,-88,-216,-35,32,-12
8045,-1944,-88,-216,-34,30,-8
8050,-1928,-80,-200,-33,26,-4
8055,-1952,-104,-208,-33,24,-1
8060,-1928,-88,-160,-32,24,1
8065,-1928,-104,-200,-31,22,4
8070,-1952,-88,-248,-30,19,7
8075,-1936,-72,-192,-32,18,10
8080,-1960,-40,-128,-35,17,12
8085,-1952,-72,-168,-43,17,15
8090,-1952,-16,-192,-53,17,17
8095,-1952,-56,-184,-63,15,17
8100,-1960,-24,-168,-74,17,19
8105,-1952,-48,-192,-83,19,21
8110,-1968,-32,-208,-92,19,21
8115,-1952,-40,-200,-98,22,22
8120,-1976,-72,-208,-106,25,23
8125,-1952,-88,-176,-110,26,24
8130,-1984,-56,-232,-114,28,24
8135,-1976,-80,-144,-119,30,25
8140,-1960,-80,-176,-119,30,26
8145,-1968,-56,-208,-117,33,26
8150,-1952,-72,-168,-117,35,24
8155,-1968,-72,-216,-114,38,25
8160,-1960,-56,-176,-109,42,25
8165,-1944,-80,-208,-105,44,22
8170,-1960,-40,-192,-100,47,22
8175,-1952,-56,-216,-96,47,22
8180,-1944,-64,-208,-94,50,23
8185,-1928,-80,-176,-92,52,20
8190,-1960,-56,-192,-88,52,21
8195,-1992,-8,-192,-86,52,20
8200,-1944,-64,-200,-82,52,19
8205,-1952,-40,-192,-81,51,17
8210,-1944,-64,-216,-78,50,17
8215,-1968,-32,-216,-75,49,14
8220,-1944,-48,-184,-75,49,14
8225,-1952,-40,-208,-73,47,12
8230,-1960,-16,-192,-71,46,11
8235,-1984,-32,-232,-70,46,10
8240,-1992,-40,-144,-70,45,8
8245,-1960,-64,-216,-70,46,7
8250,-1976,-48,-216,-68,45,6
8255,-1960,-32,-200,-66,46,4
8260,-1960,-48,-224,-67,46,2
8265,-1976,-48,-184,-65,48,2
8270,-1984,-24,-200,-65,50,1
8275,-1992,-48,-232,-64,50,-1
8280,-1976,-72,-232,-62,50,-3
8285,-1960,-64,-216,-60,51,-5
8290,-2000,-80,-192,-58,51,-5
8295,-1976,-64,-208,-57,51,-7
8300,-1968,-72,-224,-53,51,-8
8305,-1984,-56,-232,-51,51,-10
8310,-1960,-56,-232,-47,48,-10
8315,-1984,-88,-200,-41,48,-11
8320,-1952,-64,-224,-37,47,-9
8325,-1984,-104,-232,-33,46,-9
8330,-2000,-40,-232,-26,44,-8
8335,-1968,-96,-232,-20,42,-7
8340,-1960,-72,-224,-15,40,-6
8345,-1944,-96,-192,-10,37,-5
8350,-1968,-88,-232,-6,33,-5
8355,-1976,-56,-224,-3,31,-5
8360,-1968,-56,-232,-1,28,-5
8365,-1960,-88,-272,-1,27,-2
8370,-1968,-40,-264,-1,24,-1
8375,-1960,-80,-232,-3,22,0
8380,-1936,-24,-208,-6,21,1
8385,-1944,-72,-224,-12,21,1
8390,-1952,-64,-200,-19,21,3
8395,-1952,-56,-200,-27,24,4
8400,-1968,-24,-160,-38,25,5
8405,-1960,-48,-208,-47,27,3
8410,-1976,-32,-168,-57,29,0
8415,-1952,-56,-200,-66,31,0
8420,-1976,-72,-192,-72,35,-1
8425,-1992,-64,-216,-75,38,0
8430,-1984,-64,-184,-72,44,-3
8435,-2000,-104,-224,-65,50,-3
8440,-1984,-48,-192,-55,60,-4
8445,-2000,-72,-248,-42,67,-3
8450,-1984,-40,-208,-28,74,-3
8455,-1984,-32,-280,-15,78,-3
8460,-2008,-32,-248,-5,79,-2
8465,-1968,-16,-256,2,77,-1
8470,-1984,-8,-232,6,73,0
8475,-1968,0,-224,5,67,-1
8480,-1960,0,-224,3,59,-4
8485,-1952,-40,-248,-5,50,-7
8490,-1960,-8,-240,-12,43,-9
8495,-1952,0,-208,-19,35,-12
8500,-1928,-40,-192,-23,25,-16
8505,-1944,-8,-216,-30,20,-19
8510,-1928,-32,-224,-33,14,-21
8515,-1944,-48,-232,-37,10,-23
8520,-1944,-40,-216,-41,8,-24
8525,-1928,-56,-224,-45,6,-25
8530,-1952,-64,-208,-46,6,-26
8535,-1968,-56,-240,-50,6,-26
8540,-1944,-40,-224,-52,6,-23
8545,-1960,-64,-208,-54,7,-23
8550,-1952,-72,-240,-54,7,-22
8555,-1936,-72,-208,-55,8,-19
8560,-1944,-40,-256,-55,10,-18
8565,-1968,-48,-240,-53,12,-18
8570,-1968,-56,-248,-53,13,-14
8575,-1944,-72,-232,-53,13,-11
8580,-1944,-72,-232,-53,15,-8
8585,-1944,-72,-224,-52,16,-7
8590,-1944,-72,-232,-51,16,-4
8595,-1960,-72,-192,-51,15,-3
8600,-1936,-80,-224,-53,16,-2
8605,-1952,-32,-232,-55,16,-1
8610,-1936,-96,-224,-55,15,0
8615,-1952,-64,-240,-57,15,3
8620,-1952,-56,-208,-61,16,4
8625,-1944,-72,-200,-64,16,6
8630,-1936,-80,-200,-67,15,7
8635,-1944,-56,-200,-73,17,5
8640,-1928,-80,-200,-76,19,6
8645,-1952,-40,-192,-77,21,6
8650,-1944,-72,-208,-78,24,7
8655,-1944,-96,-208,-78,28,6
8660,-1968,-88,-192,-75,32,6
8665,-1984,-96,-208,-68,37,7
8670,-1976,-88,-216,-63,41,7
8675,-1968,-88,-248,-56,46,9
8680,-1992,-96,-216,-49,50,11
8685,-1976,-64,-256,-42,53,14
8690,-1968,-96,-232,-34,55,14
8695,-1968,-56,-232,-29,58,15
8700,-1968,-48,-216,-26,57,17
8705,-1968,-56,-224,-24,57,17
8710,-1992,-40,-264,-23,56,16
8715,-1976,-24,-248,-23,55,16
8720,-2016,-48,-248,-22,53,17
8725,-1992,-24,-216,-22,53,14
8730,-1968,-24,-256,-22,49,12
8735,-1976,-24,-232,-25,48,10
8740,-1968,-8,-256,-24,43,7
8745,-1944,-24,-232,-27,41,7
8750,-1960,-24,-264,-28,38,6
8755,-1960,0,-224,-28,32,5
8760,-1960,-24,-256,-30,28,3
8765,-1968,0,-224,-33,22,2
8770,-1960,-16,-240,-35,17,2
8775,-2008,-16,-224,-36,13,1
8780,-1952,-8,-248,-38,10,1
8785,-1952,-48,-256,-38,6,-1
8790,-1968,-32,-256,-38,2,-1
8795,-1960,-24,-224,-36,-1,-3
8800,-1960,0,-264,-37,-5,-4
8805,-1960,-24,-232,-37,-6,-4
8810,-1976,-48,-208,-34,-9,-3
8815,-1936,-56,-272,-34,-12,-4
8820,-1976,-56,-264,-35,-13,-3
8825,-1984,-56,-296,-35,-14,-3
8830,-1968,-32,-232,-37,-14,-2
8835,-1976,-32,-232,-37,-13,-4
8840,-1976,-48,-272,-38,-14,-3
8845,-2000,-48,-248,-40,-14,-2
8850,-1992,-56,-264,-40,-12,-2
8855,-1984,-64,-232,-40,-11,-4
8860,-1968,-48,-200,-42,-11,-2
8865,-1984,-32,-216,-42,-10,-1
8870,-1992,-72,-232,-43,-8,-2
8875,-1976,-32,-192,-43,-9,-2
8880,-1968,-96,-208,-43,-10,-1
8885,-1976,-32,-224,-43,-10,-2
8890,-1968,-56,-224,-45,-10,-2
8895,-1960,-64,-240,-46,-11,-2
8900,-1952,-64,-208,-48,-12,-2
8905,-1960,-72,-216,-47,-11,-2
8910,-1960,-48,-216,-46,-10,-2
8915,-1968,-48,-232,-41,-8,-2
8920,-1984,-56,-232,-37,-6,-2
8925,-1976,-72,-216,-33,-5,-1
8930,-1960,-40,-208,-29,-3,-1
8935,-1880,-88,-208,-25,-4,-1
8940,-1976,-48,-208,-22,-3,-1
8945,-1968,-40,-224,-18,-1,-1
8950,-1944,-40,-200,-18,0,1
8955,-1960,-56,-192,-20,1,1
8960,-1960,-32,-216,-21,3,2
8965,-1984,-48,-240,-21,1,1
8970,-1952,-48,-208,-21,2,3
8975,-1952,-48,-176,-22,3,3
8980,-1968,-32,-176,-22,5,2
8985,-1968,-24,-224,-20,6,1
8990,-1968,-16,-240,-20,8,1
8995,-1952,-48,-200,-18,7,2
9000,-1968,-8,-224,-17,8,3
9005,-1968,-48,-200,-19,9,1
9010,-1976,-48,-232,-18,9,3
9015,-1960,-32,-208,-16,10,2
9020,-1976,-32,-256,-15,10,4
9025,-1992,-24,-200,-14,9,3
9030,-1960,-40,-240,-15,9,2
9035,-1992,-32,-216,-13,9,2
9040,-1944,-16,-272,-12,11,2
9045,-1952,-48,-216,-8,10,2
9050,-1952,-48,-192,-10,10,0
9055,-1968,-48,-192,-10,10,0
9060,-1960,-32,-168,-11,10,0
9065,-1968,-24,-208,-13,10,0
9070,-1984,-16,-224,-14,9,-1
9075,-1984,-32,-208,-16,12,-3
9080,-1984,0,-200,-18,12,-3
9085,-1976,-8,-216,-20,13,-4
9090,-1960,-40,-216,-26,14,-4
9095,-2000,-24,-176,-27,15,-5
9100,-1968,-48,-216,-32,17,-7
9105,-1960,-32,-232,-35,20,-7
9110,-1968,-32,-224,-37,21,-8
9115,-1984,-40,-264,-41,22,-10
9120,-1968,-32,-232,-44,22,-9
9125,-1960,-32,-200,-45,20,-11
9130,-1968,-8,-216,-46,19,-9
9135,-1944,-16,-192,-50,16,-10
9140,-1992,-24,-232,-50,15,-10
9145,-1936,-16,-224,-51,12,-10
9150,-1968,-40,-208,-53,10,-9
9155,-1968,-32,-240,-54,9,-9
9160,-1952,-48,-208,-56,6,-9
9165,-1960,-32,-224,-56,3,-7
9170,-1952,-40,-224,-55,2,-8
9175,-1976,-48,-224,-56,0,-7
9180,-1952,-16,-232,-54,-2,-7
9185,-1952,-48,-232,-54,-2,-6
9190,-1968,-48,-200,-54,-3,-4
9195,-1944,-40,-224,-53,-4,-5
9200,-1912,-24,-216,-53,-5,-3
9205,-1976,-56,-216,-54,-5,-4
9210,-1960,-32,-208,-53,-5,-3
9215,-1944,-48,-216,-54,-5,-3
9220,-1976,-16,-192,-54,-4,-2
9225,-1952,-40,-224,-58,-2,-2
9230,-1968,-40,-232,-58,-2,-3
9235,-1952,-56,-240,-57,-1,-3
9240,-1984,-32,-184,-56,-1,-4
9245,-1968,-56,-192,-56,0,-3
9250,-1928,-56,-200,-55,0,-4
9255,-1992,-32,-288,-54,1,-4
9260,-1960,-48,-192,-51,2,-4
9265,-1976,-56,-208,-54,3,-4
9270,-1960,-32,-192,-56,2,-3
9275,-1944,-56,-224,-56,3,-5
9280,-1968,-24,-208,-54,2,-4
9285,-1944,-64,-200,-54,3,-4
9290,-1992,-56,-208,-54,3,-4
9295,-1968,-56,-192,-51,4,-4
9300,-1968,-40,-200,-50,6,-5
9305,-1928,-104,-232,-48,6,-5
9310,-1960,-64,-200,-46,8,-4
9315,-1960,-48,-200,-46,9,-4
9320,-1968,-24,-184,-44,11,-3
9325,-1952,-64,-208,-44,13,-3
9330,-1936,-32,-216,-42,12,-2
9335,-1944,-56,-192,-39,13,-3
9340,-1976,-56,-232,-37,15,-3
9345,-1976,-56,-200,-36,15,-3
9350,-1976,-40,-200,-34,16,-3
9355,-1968,-64,-224,-31,17,-3
9360,-1952,-40,-216,-31,17,-4
9365,-1976,-40,-192,-31,18,-2
9370,-1968,-24,-224,-30,18,-1
9375,-1992,-40,-200,-30,18,-2
9380,-1960,-40,-224,-27,17,-2
9385,-1968,-32,-232,-28,15,-1
9390,-1960,-40,-208,-27,16,0
9395,-1936,-40,-200,-27,15,-1
9400,-1968,-32,-232,-28,16,-1
9405,-1968,-40,-208,-30,14,-2
9410,-2000,-16,-208,-28,14,-1
9415,-1936,-16,-208,-29,14,0
9420,-1960,-40,-200,-30,13,0
9425,-1952,-40,-232,-32,12,0
9430,-1952,-16,-232,-36,11,1
9435,-1984,-8,-232,-40,9,1
9440,-1960,-16,-216,-43,9,1
9445,-1960,-40,-200,-47,9,1
9450,-1944,-32,-208,-48,7,0
9455,-1968,-48,-208,-49,6,1
9460,-1960,-48,-216,-51,4,1
9465,-1952,-8,-224,-49,5,-1
9470,-1960,-40,-248,-50,5,0
9475,-1960,-64,-232,-53,3,0
9480,-1952,-64,-224,-52,1,-1
9485,-1976,-24,-224,-51,2,1
9490,-1976,-56,-176,-52,1,0
9495,-1960,-32,-208,-53,-2,2
9500,-1992,-16,-208,-53,-3,1
9505,-1968,-40,-216,-52,-5,1
9510,-1952,-48,-224,-50,-6,2
9515,-1936,-80,-200,-50,-7,2
9520,-1944,-56,-208,-45,-8,1
9525,-1952,-16,-240,-44,-7,2
9530,-1968,-40,-176,-46,-1,2
9535,-1960,-56,-224,-46,1,3
9540,-1960,-32,-168,-45,2,4
9545,-1960,-32,-192,-45,0,4
9550,-1944,-64,-184,-42,-2,4
9555,-1968,-40,-192,-42,-1,4
9560,-1976,-56,-208,-39,1,4
9565,-1944,-64,-224,-36,3,4
9570,-1968,-16,-200,-34,6,5
9575,-1944,-64,-208,-32,4,5
9580,-1968,-48,-192,-30,-1,2
9585,-1968,-48,-192,-30,-1,0
9590,-2000,-40,-200,-29,-1,-1
9595,-1968,-64,-192,-29,-1,-1
9600,-1952,-80,-200,-26,-1,-2
9605,-1960,-48,-216,-23,-1,-1
9610,-1952,-24,-216,-20,-1,-3
9615,-1984,-48,-248,-18,-1,-3
9620,-1944,-48,-216,-17,-1,-2
9625,-1976,0,-200,-15,0,-1
9630,-1952,-64,-200,-13,0,-4
9635,-1968,-16,-184,-12,0,-2
9640,-1976,-40,-208,-11,-2,-3
9645,-2000,-24,-216,-9,-1,-3
9650,-1968,-64,-240,-9,-1,0
9655,-1960,-32,-184,-8,-2,-1
9660,-1976,-32,-208,-6,-2,0
9665,-1984,-24,-224,-7,-2,0
9670,-1968,-48,-200,-5,-1,1
9675,-1960,-40,-184,-5,-1,2
9680,-1992,-48,-208,-6,0,2
9685,-1960,-40,-184,-5,-2,3
9690,-1952,-40,-216,-6,-2,4
9695,-1968,-32,-208,-7,-4,6
9700,-1952,-40,-232,-10,-3,7
9705,-1944,-56,-184,-13,-3,8
9710,-1952,-64,-192,-12,-2,8
9715,-1992,-40,-224,-11,-3,9
9720,-1984,-48,-208,-9,-4,9
9725,-1968,-16,-184,-8,-6,10
9730,-1952,-24,-208,-7,-8,12
9735,-1928,-16,-184,-10,-8,10
9740,-1928,-64,-216,-8,-10,11
9745,-1952,-32,-200,-9,-9,11
9750,-1960,-56,-192,-10,-11,11
9755,-1984,-32,-176,-7,-12,11
9760,-1976,-48,-216,-7,-14,11
9765,-1952,-48,-216,-7,-14,11
9770,-1968,-24,-168,-8,-14,10
9775,-1960,-16,-168,-10,-15,10
9780,-1968,-24,-184,-11,-15,8
9785,-1976,-8,-216,-11,-15,8
9790,-1968,0,-160,-12,-12,8
9795,-1968,-72,-192,-11,-10,8
9800,-1960,0,-184,-11,-8,8
9805,-1960,-40,-192,-11,-8,7
9810,-1960,-48,-200,-12,-6,7
9815,-1952,-32,-208,-14,-6,9
9820,-1944,-40,-192,-16,-5,8
9825,-1944,-64,-200,-15,-3,8
9830,-1968,-40,-176,-12,-3,7
9835,-1960,-24,-192,-14,1,8
9840,-1976,-96,-136,-16,2,9
9845,-1968,-16,-176,-16,3,8
9850,-1968,-24,-152,-18,2,8
9855,-1960,-8,-200,-17,1,7
9860,-1968,0,-208,-18,3,5
9865,-1968,-24,-176,-18,2,4
9870,-1976,-16,-184,-18,3,4
9875,-1976,-24,-176,-17,2,4
9880,-2000,0,-168,-19,3,3
9885,-1960,-8,-168,-18,3,3
9890,-1984,-16,-216,-20,3,3
9895,-1944,-16,-168,-22,2,3
9900,-1968,-24,-176,-23,1,2
9905,-1952,-8,-216,-23,1,3
9910,-1952,-16,-160,-23,-2,3
9915,-1968,-16,-168,-26,0,0
9920,-1960,0,-184,-27,-2,3
9925,-1960,-8,-184,-28,-5,1
9930,-1968,-16,-152,-30,-4,1
9935,-1960,-16,-200,-32,-3,1
9940,-1952,-16,-176,-32,-3,2
9945,-1960,-88,-200,-32,-2,0
9950,-1992,-16,-184,-33,-5,0
9955,-1960,-40,-184,-33,-5,-1
9960,-1952,-48,-168,-32,-5,0
9965,-1952,-48,-200,-33,-5,0
9970,-1968,-16,-176,-33,-7,0
9975,-1944,-8,-168,-33,-8,1
9980,-1952,-40,-192,-34,-7,1
9985,-1952,-40,-176,-35,-6,1
9990,-1968,-8,-200,-35,-6,-1
9995,-1960,-64,-152,-35,-5,1
10000,-1952,-40,-208,-35,-4,1
10005,-1976,-8,-184,-35,-4,0
10010,-1968,-8,-184,-34,-4,1
10015,-1936,-8,-160,-36,-2,1
10020,-1960,0,-144,-34,-3,1
10025,-1952,-40,-200,-34,-2,1
10030,-1976,-48,-184,-32,-3,1
10035,-1960,-16,-176,-33,-4,1
10040,-1960,-24,-200,-33,-4,2
10045,-1976,-24,-168,-31,-4,1
10050,-1968,-48,-176,-31,-2,1
10055,-1944,-24,-168,-29,-3,2
10060,-1952,-48,-200,-30,-3,3
10065,-1968,-16,-192,-26,-5,2
10070,-1944,-32,-168,-27,-4,3
10075,-1968,-40,-176,-24,-5,1
10080,-1936,-32,-168,-23,-6,2
10085,-1952,-32,-200,-23,-4,3
10090,-1976,-24,-168,-20,-5,2
10095,-1960,-8,-176,-19,-7,1
10100,-1968,-8,-168,-23,-6,3
10105,-1960,-48,-200,-26,-5,3
10110,-1944,-40,-200,-28,-5,3
10115,-1952,-8,-160,-28,-3,2
10120,-1984,-8,-192,-26,-1,2
10125,-1952,-48,-176,-25,3,5
10130,-1952,-24,-168,-23,5,6
10135,-1976,-40,-176,-22,7,7
10140,-1968,0,-152,-21,6,5
10145,-1952,-48,-208,-23,5,6
10150,-1944,-48,-168,-21,5,6
10155,-1960,-48,-216,-21,5,5
10160,-1960,-24,-160,-19,6,5
10165,-1960,-32,-216,-19,5,5
10170,-1984,-32,-168,-20,7,4
10175,-1960,-40,-216,-20,8,4
10180,-1984,-24,-160,-18,8,4
10185,-1984,-8,-184,-21,8,4
10190,-1960,-24,-160,-23,6,4
10195,-1968,-8,-152,-24,4,1
10200,-1992,-40,-224,-23,5,1
10205,-1976,-24,-176,-21,3,1
10210,-1960,-56,-160,-23,2,1
10215,-1960,-16,-168,-24,1,0
10220,-1968,0,-168,-27,1,0
10225,-1960,0,-136,-26,0,-1
10230,-1952,-24,-136,-29,-1,-1
10235,-1952,0,-136,-29,-1,-1
10240,-1976,-16,-176,-29,0,-1
10245,-1960,-16,-176,-29,-1,-1
10250,-1944,-40,-160,-30,-1,-4
10255,-1960,-16,-152,-31,-1,-2
10260,-1952,-16,-160,-33,-2,-2
10265,-1968,-32,-152,-33,-2,-2
10270,-1960,8,-184,-35,-3,-3
10275,-1960,-24,-176,-36,-4,-3
10280,-1952,0,-152,-38,-2,-4
10285,-1968,-24,-168,-41,-1,-3
10290,-1976,0,-184,-42,0,-2
10295,-1952,-24,-176,-41,2,-2
10300,-1992,-24,-136,-39,3,-1
10305,-1984,0,-176,-40,1,-2
10310,-1960,-8,-184,-41,3,-2
10315,-1952,-24,-120,-41,2,-2
10320,-1960,-16,-136,-42,2,-1
10325,-1960,-48,-184,-39,3,-2
10330,-1944,-24,-152,-38,4,0
10335,-1968,-32,-152,-37,5,-2
10340,-1960,-56,-184,-39,4,-4
10345,-1968,-8,-144,-37,5,-4
10350,-1960,-16,-192,-38,4,-5
10355,-1992,-32,-160,-38,5,-5
10360,-1976,-32,-208,-37,6,-5
10365,-1960,-8,-136,-39,6,-4
10370,-1936,-16,-144,-38,6,-4
10375,-1952,-24,-176,-38,6,-4
10380,-1944,-24,-136,-39,6,-4
10385,-1936,-40,-144,-37,6,-4
10390,-1976,-8,-184,-35,4,-3
10395,-1952,-48,-144,-34,7,-5
10400,-1960,-48,-168,-31,7,-7
10405,-1936,-24,-160,-31,7,-5
10410,-1952,0,-152,-28,7,-5
10415,-1944,-8,-152,-29,8,-4
10420,-1952,-16,-128,-29,7,-3
10425,-1912,-8,-160,-31,7,-4
10430,-1960,-8,-136,-29,6,-3
10435,-1960,-16,-152,-31,5,-3
10440,-1952,-8,-200,-32,3,-2
10445,-1976,-8,-160,-34,0,-3
10450,-1984,-8,-176,-36,-1,-5
10455,-1960,-24,-144,-35,-1,-3
10460,-1976,0,-128,-36,2,-4
10465,-1968,-40,-200,-34,1,-5
10470,-1960,0,-160,-35,2,-5
10475,-1960,-24,-136,-36,3,-5
10480,-1936,8,-192,-39,4,-4
10485,-1952,-32,-128,-41,6,-4
10490,-1960,-24,-152,-45,6,-4
10495,-1968,-40,-168,-46,6,-4
10500,-1960,-8,-144,-49,8,-4
10505,-1976,-24,-144,-46,10,-6
10510,-1976,-24,-152,-45,11,-3
10515,-1968,-16,-120,-43,10,-3
10520,-1968,-8,-152,-43,13,-4
10525,-1952,-8,-136,-41,12,-2
10530,-1944,-32,-168,-41,13,-3
10535,-1904,0,-144,-40,13,-2
10540,-1944,-40,-160,-36,13,0
10545,-1960,-24,-144,-33,13,-1
10550,-1968,-24,-168,-30,14,-1
10555,-1944,-16,-152,-32,15,-1
10560,-1960,-16,-168,-31,16,-1
10565,-1936,-32,-104,-28,16,-1
10570,-1952,-8,-144,-27,16,-2
10575,-1968,-16,-152,-28,17,-2
10580,-1944,-16,-128,-26,17,-3
10585,-1976,-16,-152,-26,16,-1
10590,-1968,-16,-160,-27,17,-1
10595,-1952,0,-144,-27,16,-1
10600,-1976,-8,-144,-26,16,-3
10605,-1952,-32,-176,-27,15,-3
10610,-1952,0,-136,-26,15,-4
10615,-1952,-16,-120,-25,15,-3
10620,-1968,0,-176,-28,16,-4
10625,-1952,-8,-136,-28,15,-3
10630,-1952,-24,-144,-30,15,-5
10635,-1976,-8,-136,-28,15,-4
10640,-1952,-56,-184,-29,14,-4
10645,-1960,-16,-152,-28,15,-6
10650,-1992,0,-160,-31,14,-5
10655,-1968,-16,-144,-31,13,-6
10660,-1960,-16,-136,-31,13,-5
10665,-1952,-16,-160,-33,13,-5
10670,-1960,0,-168,-32,13,-6
10675,-1960,-24,-144,-35,12,-7
10680,-1960,-8,-128,-36,12,-8
10685,-1992,-40,-152,-38,11,-9
10690,-1960,-40,-136,-40,11,-7
10695,-2008,16,-136,-41,12,-8
10700,-1936,-16,-160,-42,11,-7
10705,-1968,-8,-160,-42,12,-8
10710,-1968,-32,-144,-42,12,-9
10715,-1952,-8,-152,-43,11,-8
10720,-1944,-24,-152,-44,10,-8
10725,-1976,-16,-144,-45,10,-9
10730,-1976,0,-184,-45,11,-10
10735,-1960,-24,-176,-47,11,-9
10740,-1992,-16,-176,-48,10,-9
10745,-1952,0,-120,-48,9,-9
10750,-1944,-32,-176,-49,9,-8
10755,-1960,-40,-160,-53,12,-9
10760,-1952,-16,-152,-52,12,-9
10765,-1960,-8,-168,-51,12,-10
10770,-1952,-40,-144,-52,12,-10
10775,-1968,-8,-152,-51,14,-10
10780,-1952,-40,-152,-50,16,-7
10785,-1992,-24,-160,-49,16,-9
10790,-1976,0,-128,-49,17,-9
10795,-1952,0,-112,-48,20,-7
10800,-1976,0,-120,-47,20,-6
10805,-1960,-32,-152,-48,21,-6
10810,-1968,0,-128,-47,21,-6
10815,-1936,-40,-176,-47,21,-6
10820,-1984,-8,-144,-46,21,-6
10825,-1936,-24,-136,-47,21,-7
10830,-1960,0,-144,-46,21,-6
10835,-1984,-8,-176,-46,23,-6
10840,-1968,-24,-152,-46,23,-5
10845,-1952,-8,-144,-46,24,-6
10850,-1960,-8,-128,-48,24,-6
10855,-1944,-8,-152,-46,25,-6
10860,-1952,-32,-152,-46,25,-7
10865,-1984,-16,-136,-45,24,-8
10870,-1944,-16,-152,-46,25,-5
10875,-1952,0,-136,-45,25,-5
10880,-1936,-32,-120,-45,24,-7
10885,-1968,-8,-160,-46,25,-8
10890,-1952,-24,-152,-48,24,-6
10895,-1944,-16,-152,-49,26,-6
10900,-1952,-16,-160,-49,26,-7
10905,-1952,-8,-144,-51,26,-8
10910,-1968,-32,-168,-50,26,-6
10915,-1968,-24,-128,-51,26,-6
10920,-1960,-16,-136,-51,27,-7
10925,-1960,-16,-152,-52,27,-7
10930,-1960,-8,-160,-52,27,-7
10935,-1968,-8,-176,-53,27,-7
10940,-1976,-8,-120,-53,28,-7
10945,-1968,-32,-160,-53,28,-7
10950,-1976,-24,-144,-54,27,-7
10955,-1952,0,-152,-55,28,-7
10960,-1968,24,-184,-55,27,-7
10965,-1960,-16,-144,-55,28,-8
10970,-1944,-16,-184,-57,28,-7
10975,-1960,-24,-136,-56,29,-7
10980,-1952,-24,-168,-55,29,-7
10985,-1968,-8,-152,-57,30,-8
10990,-1952,-24,-176,-57,30,-8
10995,-1960,-8,-168,-56,28,-7
11000,-1968,0,-168,-56,28,-7
11005,-1952,-40,-184,-55,31,-7
11010,-1968,-40,-168,-57,31,-7
11015,-1992,-40,-144,-55,31,-6
11020,-1968,-40,-152,-54,31,-9
11025,-1968,-16,-168,-53,29,-7
11030,-1952,-8,-160,-53,29,-7
11035,-1952,-40,-192,-53,29,-6
11040,-1944,-32,-184,-51,28,-7
11045,-1936,-48,-160,-52,27,-5
11050,-1944,-8,-160,-53,26,-5
11055,-1992,-48,-192,-53,24,-7
11060,-1960,-24,-168,-53,24,-8
11065,-1976,-24,-120,-52,23,-6
11070,-1952,-8,-136,-52,24,-5
11075,-1952,-48,-176,-53,24,-7
11080,-1984,0,-144,-53,23,-6
11085,-1952,-16,-176,-53,23,-7
11090,-2000,-24,-184,-52,25,-6
11095,-1968,0,-160,-50,24,-7
11100,-1960,-32,-136,-52,22,-6
11105,-1968,0,-136,-53,23,-6
11110,-1928,-32,-144,-55,23,-5
11115,-1960,0,-176,-52,23,-5
11120,-1976,-56,-104,-54,24,-6
11125,-1968,-24,-168,-53,23,-7
11130,-1968,-24,-184,-53,23,-6
11135,-1944,-32,-176,-52,22,-5
11140,-1960,-24,-160,-53,20,-7
11145,-1944,0,-160,-53,19,-6
11150,-1968,-8,-200,-49,20,-7
11155,-1976,-8,-160,-49,19,-7
11160,-1968,-16,-168,-46,19,-8
11165,-1968,-24,-152,-44,20,-8
11170,-1976,-24,-152,-40,19,-9
11175,-1984,-32,-120,-37,18,-10
11180,-1952,-32,-168,-33,18,-9
11185,-1968,-8,-160,-31,17,-9
11190,-1984,-16,-160,-28,19,-8
11195,-1960,-8,-152,-28,19,-8
11200,-1960,0,-168,-28,17,-7
11205,-1960,0,-176,-24,17,-10
11210,-1976,-40,-176,-23,15,-8
11215,-1936,-24,-176,-23,15,-9
11220,-1976,0,-192,-23,13,-7
11225,-1960,-8,-208,-24,13,-8
11230,-1952,0,-160,-26,14,-7
11235,-1976,0,-144,-27,14,-9
11240,-1944,-24,-160,-28,16,-9
11245,-1984,0,-176,-29,15,-9
11250,-1952,-24,-168,-32,18,-9
11255,-1960,0,-152,-35,19,-8
11260,-1960,-40,-144,-40,21,-8
11265,-1968,-32,-160,-43,20,-9
11270,-1952,-56,-168,-47,20,-7
11275,-1960,-48,-160,-49,22,-9
11280,-1928,-32,-160,-49,22,-6
11285,-1952,-56,-160,-46,21,-6
11290,-1952,-16,-168,-44,23,-5
11295,-1952,-32,-184,-44,22,-3
11300,-1976,-16,-160,-44,21,-2
11305,-1992,-8,-184,-41,19,-2
11310,-1960,-8,-192,-42,18,-1
11315,-1944,-8,-136,-40,16,-1
11320,-1984,-32,-208,-40,14,-1
11325,-1952,-24,-176,-38,13,-1
11330,-1968,-24,-152,-39,12,1
11335,-1984,-56,-112,-36,12,-1
11340,-1984,-8,-152,-37,12,-1
11345,-1952,0,-184,-36,12,0
11350,-1968,0,-136,-36,12,-1
11355,-1952,-16,-152,-35,13,-2
11360,-1968,0,-144,-35,15,-2
11365,-1984,0,-160,-36,16,-3
11370,-1984,0,-136,-36,16,-3
11375,-1976,-32,-192,-35,17,-3
11380,-1944,-40,-152,-35,16,-4
11385,-1944,-72,-200,-35,17,-5
11390,-1984,-16,-176,-36,17,-6
11395,-1968,-24,-176,-38,18,-5
11400,-1944,-40,-168,-38,18,-5
11405,-1952,-16,-160,-38,18,-5
11410,-1960,-24,-168,-38,19,-5
11415,-1944,-24,-176,-38,18,-5
11420,-1952,-8,-192,-39,18,-6
11425,-1960,-16,-208,-40,19,-5
11430,-1952,-32,-152,-41,20,-4
11435,-1928,-8,-144,-40,20,-5
11440,-1968,0,-184,-42,19,-6
11445,-1976,0,-176,-42,20,-4
11450,-1968,-16,-176,-43,19,-4
11455,-1960,-32,-152,-43,17,-4
11460,-1976,-8,-160,-42,18,-4
11465,-1968,-16,-184,-43,16,-3
11470,-1968,-16,-176,-44,16,-4
11475,-1960,-24,-160,-44,16,-3
11480,-1952,0,-160,-44,14,-3
11485,-1976,-16,-224,-46,12,-4
11490,-1968,-8,-136,-45,11,-4
11495,-1960,-8,-152,-46,10,-6
11500,-1952,-8,-168,-45,9,-5
11505,-1944,-8,-168,-47,9,-6
11510,-1960,-16,-176,-48,9,-4
11515,-1960,-24,-192,-50,8,-4
11520,-1952,-8,-160,-49,8,-4
11525,-1944,-8,-144,-50,7,-5
11530,-1952,-40,-160,-50,6,-6
11535,-1968,-8,-152,-52,6,-4
11540,-1944,-32,-120,-51,5,-5
11545,-1960,-48,-168,-50,6,-6
11550,-1936,-32,-152,-48,7,-5
11555,-1968,-8,-176,-48,7,-4
11560,-1968,-32,-168,-47,8,-6
11565,-1968,-32,-144,-47,8,-6
11570,-1984,-24,-144,-45,10,-5
11575,-1968,-8,-152,-46,11,-6
11580,-1960,-32,-144,-47,11,-6
11585,-1976,-16,-168,-45,12,-7
11590,-1976,-8,-168,-44,15,-6
11595,-1976,-8,-144,-46,15,-8
11600,-1984,-24,-168,-46,15,-8
11605,-1968,-16,-168,-44,15,-8
11610,-1968,-24,-144,-44,15,-9
11615,-1984,0,-160,-46,16,-8
11620,-1976,0,-192,-46,16,-9
11625,-1968,-8,-160,-45,15,-8
11630,-1960,-32,-160,-46,13,-9
11635,-1952,-8,-168,-45,14,-8
11640,-1944,-8,-152,-45,12,-7
11645,-1944,-16,-152,-47,11,-8
11650,-1976,-16,-168,-46,12,-7
11655,-1944,-8,-152,-45,11,-7
11660,-1944,-32,-160,-43,10,-7
11665,-1944,-40,-144,-42,10,-6
11670,-1976,0,-152,-43,10,-7
11675,-1952,-32,-152,-44,9,-8
11680,-1960,-32,-168,-44,10,-7
11685,-1944,-24,-160,-43,11,-7
11690,-1952,-8,-152,-44,11,-7
11695,-1936,-40,-160,-44,12,-6
11700,-1960,-40,-200,-45,13,-6
11705,-1952,40,-192,-45,14,-5
11710,-1952,-24,-200,-48,14,-5
11715,-1960,-16,-160,-49,15,-4
11720,-1960,-24,-184,-48,15,-4
11725,-1976,-16,-160,-48,16,-2
11730,-1968,-24,-160,-47,15,-4
11735,-1952,-40,-152,-47,17,-5
11740,-1976,-16,-192,-47,16,-4
11745,-1992,-32,-176,-47,17,-3
11750,-1944,-48,-168,-47,16,-3
11755,-1960,0,-160,-46,17,-5
11760,-1960,-8,-72,-46,17,-3
11765,-1968,-32,-184,-44,18,-5
11770,-1968,-16,-152,-43,18,-3
11775,-1960,-16,-184,-41,18,-4
11780,-1952,-32,-184,-41,16,-4
11785,-1968,-40,-152,-42,17,-3
11790,-1960,-24,-176,-40,17,-2
11795,-1984,-24,-184,-41,17,-4
11800,-1936,-8,-160,-43,16,-5
11805,-1968,-48,-144,-42,16,-2
11810,-1968,-40,-160,-41,15,-4
11815,-1952,-8,-128,-41,14,-3
11820,-1968,-32,-152,-42,14,-3
11825,-1968,-32,-128,-42,13,-5
11830,-1936,-8,-144,-42,14,-4
11835,-1952,-24,-152,-43,12,-3
11840,-1952,-24,-192,-42,11,-4
11845,-1976,-32,-160,-45,12,-5
11850,-1960,-16,-160,-44,12,-5
11855,-1984,-8,-160,-45,10,-4
11860,-1968,-32,-176,-45,11,-5
11865,-1968,-24,-160,-46,12,-4
11870,-1968,0,-176,-46,12,-4
11875,-1984,0,-128,-46,11,-4
11880,-1968,0,-144,-46,11,-4
11885,-1960,0,-168,-47,11,-4
11890,-1968,-8,-168,-48,13,-6
11895,-1952,-40,-136,-49,12,-5
11900,-1960,-16,-136,-49,13,-6
11905,-1952,-8,-176,-52,12,-7
11910,-1960,-32,-168,-53,11,-7
11915,-1952,-48,-168,-54,10,-7
11920,-1920,-48,-144,-56,11,-8
11925,-1960,-8,-152,-55,11,-8
11930,-1968,-16,-152,-54,10,-9
11935,-1952,-48,-184,-51,11,-9
11940,-1968,-24,-152,-47,10,-10
11945,-1952,-40,-160,-43,10,-11
11950,-1960,0,-136,-41,11,-11
11955,-1984,-8,-128,-39,11,-11
11960,-1944,-8,-184,-36,11,-9
11965,-1976,-8,-176,-35,10,-8
11970,-1968,-8,-152,-32,8,-8
11975,-1992,64,-144,-30,5,-10
11980,-1960,-8,-160,-28,4,-8
11985,-1976,-24,-176,-26,2,-8
11990,-1968,-32,-160,-25,2,-10
11995,-1944,-24,-168,-26,-1,-11
12000,-1968,0,-144,-27,-1,-11
12005,-1944,-8,-152,-29,1,-11
12010,-1952,-24,-128,-32,-1,-11
12015,-1968,-16,-168,-35,0,-12
12020,-1984,-8,-136,-39,1,-12
12025,-1960,-16,-136,-41,1,-13
12030,-1952,-32,-160,-45,2,-13
12035,-1952,-8,-152,-48,3,-13
12040,-1984,-24,-136,-48,6,-13
12045,-1976,-32,-144,-49,8,-12
12050,-1944,-40,-152,-45,10,-9
12055,-1952,-24,-136,-42,11,-8
12060,-1976,-8,-152,-41,11,-9
12065,-1976,-16,-152,-39,11,-9
12070,-1936,-8,-176,-39,10,-7
12075,-1952,-48,-160,-38,10,-6
12080,-1960,-32,-176,-37,8,-6
12085,-1944,0,-288,-34,7,-7
12090,-1952,-24,-128,-33,6,-4
12095,-1968,-8,-128,-35,7,-4
12100,-1960,-8,-144,-33,7,-3
12105,-1944,-40,-120,-32,8,-2
12110,-1936,-40,-136,-32,8,-2
12115,-1936,-24,-160,-32,7,-2
12120,-1928,-56,-136,-34,11,-3
12125,-1984,-16,-144,-33,11,-2
12130,-1928,-24,-160,-33,12,-2
12135,-1952,0,-184,-34,13,-3
12140,-1968,0,-128,-35,12,-4
12145,-1968,-8,-152,-34,13,-5
12150,-1968,-40,-144,-36,16,-3
12155,-1984,-16,-160,-34,17,-4
12160,-1952,-24,-152,-34,17,-5
12165,-1968,-16,-168,-34,17,-5
12170,-1960,-24,-144,-34,17,-6
12175,-1952,-16,-152,-34,18,-3
12180,-1968,-8,-168,-32,19,-4
12185,-1944,-16,-144,-33,20,-5
12190,-1960,0,-160,-30,19,-4
12195,-1960,-16,-136,-30,20,-5
12200,-1952,-32,-128,-28,20,-4
12205,-1960,-8,-120,-28,20,-5
12210,-1968,-24,-152,-28,20,-6
12215,-1960,0,-152,-27,20,-6
12220,-1944,-24,-160,-26,20,-7
12225,-1968,-8,-128,-27,20,-7
12230,-1952,-16,-152,-27,19,-6
12235,-1976,-8,-160,-27,18,-6
12240,-1960,-24,-200,-28,18,-7
12245,-1960,0,-160,-26,17,-7
12250,-1960,-16,-160,-25,17,-7
12255,-1960,-16,-176,-25,16,-7
12260,-1952,-24,-136,-25,14,-8
12265,-1960,-8,-168,-24,13,-9
12270,-1968,-32,-128,-25,12,-9
12275,-1952,-24,-144,-26,12,-8
12280,-1976,0,-168,-27,10,-10
12285,-1968,-48,-176,-29,10,-9
12290,-1952,-48,-144,-29,7,-7
12295,-1944,-32,-144,-31,5,-8
12300,-1968,-24,-144,-34,3,-10
12305,-1944,-8,-176,-36,3,-11
12310,-1936,-32,-160,-37,1,-10
12315,-1960,0,-152,-37,1,-11
12320,-1944,-40,-168,-38,2,-11
12325,-1952,0,-128,-41,2,-11
12330,-1960,-8,-104,-41,2,-11
12335,-1952,-8,-144,-43,3,-9
12340,-2008,-8,-168,-44,4,-10
12345,-1992,32,-192,-44,6,-10
12350,-1944,-16,-168,-42,7,-9
12355,-1952,-24,-160,-44,7,-10
12360,-1968,-8,-176,-45,7,-11
12365,-1952,-16,-128,-43,7,-11
12370,-1952,-16,-128,-44,8,-8
12375,-1960,-24,-160,-44,9,-11
12380,-1952,-16,-128,-43,11,-10
12385,-1960,-56,-144,-45,10,-8
12390,-1968,-24,-144,-45,10,-10
12395,-1928,-32,-176,-45,10,-9
12400,-1936,-24,-152,-45,11,-10
12405,-1936,-40,-128,-45,11,-10
12410,-1936,-8,-128,-44,12,-9
12415,-1968,-8,-144,-41,14,-9
12420,-1960,-32,-144,-44,13,-8
12425,-1952,-32,-136,-41,14,-8
12430,-1968,-24,-144,-40,15,-6
12435,-1936,-32,-120,-39,16,-6
12440,-1960,-8,-144,-38,16,-7
12445,-1952,-24,-160,-37,16,-5
12450,-1952,-32,-136,-35,16,-4
12455,-1984,0,-128,-35,17,-5
12460,-1952,-8,-136,-33,16,-6
12465,-1968,-32,-144,-31,16,-3
12470,-1968,-8,-176,-29,16,-4
12475,-1928,-16,-136,-28,15,-3
12480,-1944,-40,-136,-27,17,-3
12485,-1960,-16,-136,-25,18,-2
12490,-1944,-40,-128,-25,16,-3
12495,-1960,-8,-136,-23,17,-4
12500,-1936,-16,-144,-22,17,-3
12505,-2032,-24,-104,-23,18,-2
12510,-1944,16,-136,-21,18,-1
12515,-1976,-8,-160,-22,18,-4
12520,-1960,-48,-176,-20,17,-4
12525,-1952,-16,-168,-18,17,-5
12530,-1976,-24,-160,-19,17,-5
12535,-1968,-8,-168,-19,17,-7
12540,-1960,-32,-144,-17,16,-6
12545,-1960,-16,-144,-17,16,-6
12550,-1952,0,-136,-17,15,-6
12555,-1984,-16,-176,-18,14,-5
12560,-1984,-24,-184,-19,13,-7
12565,-1976,-8,-160,-20,14,-9
12570,-1976,-24,-152,-22,14,-8
12575,-1976,-16,-152,-23,12,-7
12580,-1960,-32,-168,-26,11,-8
12585,-1976,0,-144,-29,12,-8
12590,-1952,-16,-136,-32,12,-9
12595,-1960,-32,-168,-34,11,-9
12600,-1960,-16,-144,-38,9,-11
12605,-1968,-8,-144,-40,8,-10
12610,-1968,0,-128,-41,9,-10
12615,-1944,-64,-136,-43,9,-10
12620,-1960,-16,-128,-43,9,-10
12625,-1944,-48,-152,-44,9,-9
12630,-1944,-40,-152,-45,9,-10
12635,-1936,-48,-152,-45,10,-9
12640,-1968,-16,-152,-46,10,-10
12645,-1976,-16,-152,-46,10,-8
12650,-1952,-24,-144,-46,9,-10
12655,-1960,-40,-176,-44,11,-9
12660,-1952,-40,-136,-44,10,-9
12665,-2008,-40,-104,-47,11,-8
12670,-1952,-40,-160,-46,10,-7
12675,-1952,-40,-176,-44,12,-8
12680,-1944,-24,-128,-45,11,-8
12685,-1960,-24,-160,-45,12,-7
12690,-1960,-40,-160,-46,12,-7
12695,-1968,-32,-120,-47,13,-8
12700,-1976,-40,-176,-48,13,-7
12705,-1976,-16,-136,-46,14,-8
12710,-1944,-32,-136,-44,15,-8
12715,-1968,-40,-152,-42,15,-8
12720,-1968,-88,-152,-38,16,-9
12725,-1944,-40,-152,-36,18,-7
12730,-1960,-32,-144,-34,20,-6
12735,-1960,-56,-184,-32,21,-7
12740,-1968,-24,-176,-30,20,-6
12745,-1976,-24,-160,-29,18,-6
12750,-1968,-8,-144,-28,17,-6
12755,-1960,0,-136,-27,15,-5
12760,-1960,16,-144,-27,15,-6
12765,-1936,-48,-120,-26,14,-4
12770,-1936,-8,-104,-24,14,-3
12775,-1960,-40,-184,-24,14,-4
12780,-1952,-40,-144,-24,16,-4
12785,-1944,-40,-168,-22,16,-6
12790,-1952,-32,-160,-23,15,-7
12795,-1944,-24,-144,-23,16,-7
12800,-1960,-24,-128,-22,16,-6
12805,-1936,-24,-152,-23,14,-8
12810,-1936,-64,-152,-23,15,-8
12815,-1952,-16,-144,-23,14,-9
12820,-1968,-32,-96,-23,17,-8
12825,-1992,-32,-168,-19,16,-8
12830,-1944,-32,-152,-13,16,-7
12835,-1960,-24,-184,-9,15,-6
12840,-1952,-40,-144,-6,14,-7
12845,-1976,-32,-152,-2,14,-7
12850,-1960,-24,-144,-2,13,-7
12855,-1952,0,-160,-3,11,-8
12860,-1968,-16,-144,-1,11,-7
12865,-1992,-16,-176,-1,11,-9
12870,-1992,-32,-152,-2,11,-9
12875,-1976,-16,-128,-5,12,-10
12880,-1944,-56,-168,-8,14,-10
12885,-1984,0,-176,-14,14,-12
12890,-1976,0,-128,-18,16,-13
12895,-1968,0,-128,-24,19,-16
12900,-1976,0,-152,-28,23,-17
12905,-1984,-16,-152,-30,26,-19
12910,-1952,-32,-152,-34,29,-20
12915,-1976,0,-200,-37,32,-20
12920,-1960,0,-128,-39,34,-21
12925,-1960,-24,-168,-40,35,-21
12930,-1928,-16,-160,-42,36,-20
12935,-1936,8,-112,-44,35,-20
12940,-1960,0,-144,-46,34,-19
12945,-1952,-32,-152,-46,33,-19
12950,-1936,-16,-160,-47,31,-19
12955,-1944,-32,-128,-51,29,-19
12960,-1944,-40,-160,-52,28,-20
12965,-1920,-40,-136,-54,27,-20
12970,-1952,-16,-176,-56,25,-20
12975,-1952,-16,-144,-58,26,-19
12980,-1952,-32,-144,-61,26,-20
12985,-1984,-16,-128,-63,25,-18
12990,-1952,-48,-128,-65,25,-19
12995,-1976,-24,-144,-66,27,-18
13000,-1968,-24,-152,-69,27,-16
13005,-1960,-8,-160,-68,28,-17
13010,-1944,-56,-136,-68,28,-16
13015,-1952,-48,-152,-69,28,-17
13020,-1968,-24,-152,-70,29,-16
13025,-1960,-24,-160,-70,29,-15
13030,-1944,-32,-152,-68,28,-15
13035,-1960,-32,-168,-67,27,-13
13040,-1976,-24,-160,-65,27,-14
13045,-1952,-16,-168,-65,28,-12
13050,-1952,-40,-152,-66,29,-11
13055,-1976,-16,-152,-65,28,-11
13060,-1944,-48,-184,-66,29,-9
13065,-1928,-40,-144,-65,28,-9
13070,-1952,-72,-168,-65,30,-8
13075,-1968,-48,-144,-62,29,-7
13080,-1952,-24,-160,-60,31,-8
13085,-1952,-16,-160,-59,32,-6
13090,-1936,-32,-144,-60,34,-6
13095,-1960,24,-168,-62,35,-6
13100,-1944,-40,-152,-61,34,-7
13105,-1960,-32,-128,-61,37,-6
13110,-1976,-16,-176,-61,38,-5
13115,-1944,-32,-144,-59,38,-4
13120,-1952,-48,-144,-60,39,-4
13125,-1960,-24,-136,-58,40,-4
13130,-1952,-32,-144,-58,40,-4
13135,-1960,-32,-168,-58,42,-4
13140,-1936,-24,-160,-58,43,-4
13145,-1984,-40,-136,-56,43,-4
13150,-1960,-16,-152,-55,44,-3
13155,-1968,-48,-144,-54,43,-5
13160,-1960,-32,-136,-55,43,-4
13165,-1984,-32,-144,-52,43,-3
13170,-1952,-40,-160,-52,43,-5
13175,-1960,0,-160,-53,44,-5
13180,-1976,-48,-160,-52,43,-7
13185,-1936,-40,-168,-52,44,-6
13190,-1968,-56,-160,-50,44,-6
13195,-1952,-24,-144,-49,44,-7
13200,-1928,-24,-200,-49,44,-6
13205,-1976,-40,-160,-49,42,-7
13210,-1936,-88,-168,-47,42,-7
13215,-1952,-56,-176,-49,42,-7
13220,-1952,-32,-168,-48,41,-5
13225,-1944,-24,-176,-49,41,-6
13230,-1968,-56,-184,-49,40,-7
13235,-1968,-8,-192,-49,40,-5
13240,-1984,-32,-192,-50,39,-6
13245,-1968,-48,-184,-49,39,-5
13250,-1960,-8,-184,-49,40,-7
13255,-1984,-24,-144,-52,38,-6
13260,-1960,-32,-160,-52,37,-6
13265,-1944,-24,-184,-52,38,-7
13270,-1960,-40,-160,-54,36,-7
13275,-1952,-48,-160,-55,35,-7
13280,-1952,-8,-152,-55,34,-7
13285,-1952,-56,-144,-56,33,-7
13290,-1968,-8,-160,-57,32,-8
13295,-1976,-8,-192,-55,33,-8
13300,-1960,-72,-192,-55,32,-8
13305,-1960,-40,-136,-56,33,-9
13310,-1960,-40,-144,-57,31,-9
13315,-1984,-16,-168,-56,32,-10
13320,-1968,-16,-176,-56,32,-10
13325,-1968,-40,-168,-58,33,-9
13330,-1952,-16,-192,-57,34,-10
13335,-1944,-32,-184,-57,32,-9
13340,-1960,-16,-168,-56,32,-10
13345,-1984,-24,-160,-57,32,-10
13350,-1960,-24,-144,-57,33,-10
13355,-1952,-8,-168,-58,33,-10
13360,-1944,-32,-128,-57,33,-9
13365,-1952,-24,-192,-59,33,-9
13370,-1976,-8,-192,-60,33,-10
13375,-1992,-32,-136,-61,35,-11
13380,-1968,-8,-160,-60,34,-10
13385,-1968,-16,-128,-60,35,-10
13390,-1960,-32,-184,-61,35,-12
13395,-1944,-8,-136,-62,38,-11
13400,-1984,-24,-152,-61,39,-11
13405,-1968,-8,-168,-62,39,-11
13410,-1952,-24,-184,-61,39,-10
13415,-1952,-40,-160,-62,40,-11
13420,-1960,-24,-152,-62,40,-10
13425,-1960,-24,-152,-63,40,-11
13430,-1976,-32,-176,-63,41,-9
13435,-1952,-48,-160,-63,43,-9
13440,-1960,-32,-168,-61,44,-8
13445,-1936,-8,-144,-62,43,-9
13450,-1944,-16,-168,-61,43,-8
13455,-1960,-40,-192,-61,43,-9
13460,-1976,-16,-184,-61,45,-8
13465,-1960,-40,-208,-62,44,-8
13470,-1952,-40,-144,-62,42,-8
13475,-1944,-32,-192,-62,42,-8
13480,-1952,-48,-168,-61,42,-8
13485,-1968,-32,-176,-60,41,-8
13490,-1960,-40,-200,-60,41,-9
13495,-1960,-56,-192,-59,41,-10
13500,-1968,-16,-160,-58,40,-9
13505,-1952,-32,-160,-57,39,-7
13510,-1952,-64,-192,-55,39,-9
13515,-1944,-72,-160,-55,39,-8
13520,-1944,-24,-184,-52,38,-10
13525,-1944,-24,-176,-51,37,-10
13530,-1984,-8,-168,-51,36,-6
13535,-1944,-48,-168,-49,35,-6
13540,-1968,-40,-176,-49,34,-7
13545,-1952,-48,-192,-51,33,-4
13550,-1936,-56,-192,-49,33,-4
13555,-1968,-8,-152,-49,34,-5
13560,-1984,-24,-176,-52,34,-4
13565,-1960,-40,-176,-53,33,-6
13570,-1960,-48,-184,-54,32,-5
13575,-1952,-16,-192,-55,29,-5
13580,-1960,-32,-176,-59,29,-6
13585,-1960,-40,-184,-63,28,-4
13590,-1952,-48,-168,-63,29,-6
13595,-1960,-48,-176,-64,28,-5
13600,-1976,-72,-200,-65,29,-5
13605,-1960,-24,-192,-60,30,-2
13610,-1960,-32,-192,-56,30,-2
13615,-1952,-40,-176,-53,29,-3
13620,-1960,-40,-176,-52,29,0
13625,-1960,-24,-216,-48,27,2
13630,-1976,-48,-192,-46,26,1
13635,-1968,-56,-152,-44,23,2
13640,-1960,-24,-216,-43,21,0
13645,-1952,-56,-184,-41,18,0
13650,-1952,-16,-160,-41,18,3
13655,-1960,-24,-184,-39,16,4
13660,-1944,-40,-160,-38,17,4
13665,-1960,-24,-176,-37,17,4
13670,-1928,-32,-168,-36,18,2
13675,-1952,-32,-184,-35,17,2
13680,-1968,-32,-192,-32,16,2
13685,-1960,-16,-160,-32,17,0
13690,-1968,-24,-176,-33,18,-1
13695,-1952,0,-184,-32,19,-1
13700,-1960,-24,-200,-33,19,-1
13705,-1952,-40,-176,-33,20,-2
13710,-1968,-48,-152,-33,20,-3
13715,-1960,-40,-160,-34,20,-3
13720,-1968,0,-152,-34,20,-2
13725,-1960,-40,-168,-32,21,-3
13730,-1976,-48,-192,-31,22,-4
13735,-2000,-8,-176,-31,21,-4
13740,-1960,-16,-184,-31,20,-2
13745,-1960,-16,-152,-32,19,-3
13750,-1976,-24,-200,-34,17,-3
13755,-1984,-24,-176,-35,18,-4
13760,-1952,-24,-192,-36,18,-3
13765,-1936,-8,-176,-37,17,-2
13770,-1944,-24,-160,-39,16,-2
13775,-1960,-16,-176,-40,17,-4
13780,-1944,-24,-152,-42,16,-3
13785,-1976,-72,-208,-44,16,-4
13790,-1984,-24,-120,-43,15,-4
13795,-1984,-24,-192,-45,13,-4
13800,-1976,-16,-208,-43,12,-5
13805,-1960,-48,-176,-42,11,-4
13810,-1936,-48,-208,-41,11,-4
13815,-1960,-32,-208,-41,9,-4
13820,-1968,-64,-192,-41,9,-4
13825,-1944,-16,-200,-43,8,-4
13830,-1952,-24,-200,-45,8,-3
13835,-1992,-32,-184,-45,6,-3
13840,-1984,-16,-160,-43,6,-2
13845,-1976,-32,-200,-45,5,-3
13850,-1928,-40,-168,-47,4,-4
13855,-1952,-48,-184,-48,5,-3
13860,-1968,-32,-168,-48,6,-3
13865,-1952,-48,-160,-48,6,-4
13870,-1960,-16,-200,-50,7,-3
13875,-1944,-32,-176,-50,7,-5
13880,-1952,-48,-208,-48,7,-4
13885,-1976,-48,-200,-48,8,-4
13890,-1992,-56,-208,-45,10,-3
13895,-1944,-16,-160,-46,9,-3
13900,-1968,-40,-184,-44,9,-2
13905,-1960,-56,-184,-43,10,-3
13910,-1960,-32,-184,-43,11,-1
13915,-1960,-32,-192,-43,11,-1
13920,-1952,-48,-168,-43,11,-2
13925,-1968,-32,-176,-42,12,-3
13930,-1992,-24,-168,-43,13,-1
13935,-1968,-8,-160,-42,12,-1
13940,-1952,-64,-176,-43,13,-2
13945,-1920,32,-216,-43,12,0
13950,-1976,-24,-144,-42,13,-1
13955,-1968,0,-152,-42,14,-1
13960,-1960,-32,-152,-43,14,-2
13965,-1976,-40,-184,-42,15,-2
13970,-1944,-56,-192,-42,15,-3
13975,-1968,-40,-144,-41,16,-3
13980,-1944,-8,-176,-41,15,-3
13985,-1936,-56,-192,-44,16,-1
13990,-1944,-16,-152,-45,17,-2
13995,-1968,-24,-176,-45,17,-1
14000,-1976,-40,-184,-46,19,-1
14005,-1968,-16,-184,-48,20,-2
14010,-1968,-16,-160,-49,20,-2
14015,-1960,-24,-176,-48,22,-2
14020,-1968,-24,-152,-50,21,-2
14025,-1976,-8,-176,-51,22,-2
14030,-1960,-32,-168,-52,24,-3
14035,-1976,-8,-160,-53,24,-1
14040,-1976,-32,-176,-54,24,-2
14045,-1976,-32,-200,-54,26,-3
14050,-1976,-8,-160,-55,25,-3
14055,-1968,-16,-168,-56,27,-2
14060,-1960,-8,-168,-55,28,-3
14065,-1944,-16,-160,-55,29,-3
14070,-1984,-24,-144,-55,29,-3
14075,-1952,-40,-176,-56,27,-4
14080,-1976,-40,-192,-56,28,-4
14085,-1960,-16,-144,-55,27,-4
14090,-1968,-56,-184,-54,28,-4
14095,-1952,-24,-136,-53,28,-4
14100,-1976,0,-200,-52,27,-4
14105,-1880,-24,-152,-52,27,-4
14110,-1960,-16,-168,-52,27,-3
14115,-1952,-8,-192,-50,26,-4
14120,-1976,-48,-168,-50,24,-3
14125,-1976,-8,-144,-50,24,-4
14130,-1952,-48,-192,-50,23,-5
14135,-1960,-8,-200,-50,23,-5
14140,-1944,-40,-184,-50,20,-5
14145,-1960,-8,-176,-51,20,-5
14150,-1960,-24,-192,-52,21,-6
14155,-1976,-48,-200,-53,18,-6
14160,-1984,-40,-152,-53,18,-6
14165,-1984,-16,-200,-54,17,-7
14170,-1960,-32,-184,-54,17,-7
14175,-1952,-24,-200,-55,17,-7
14180,-1952,-32,-192,-54,16,-6
14185,-1960,-24,-168,-53,15,-7
14190,-1952,-24,-200,-53,15,-6
14195,-1952,-48,-152,-54,15,-6
14200,-1944,-40,-176,-52,15,-5
14205,-1944,-40,-176,-51,14,-6
14210,-1960,-56,-200,-50,13,-6
14215,-1960,-24,-128,-52,15,-7
14220,-1968,-16,-184,-51,15,-6
14225,-1952,-56,-184,-52,14,-5
14230,-1992,-16,-176,-52,14,-5
14235,-1960,-16,-168,-51,14,-5
14240,-1968,-24,-168,-51,14,-4
14245,-1952,-48,-128,-52,14,-4
14250,-1960,-40,-168,-51,15,-6
14255,-1952,-16,-184,-51,13,-5
14260,-1960,-24,-152,-50,13,-5
14265,-1912,-48,-144,-49,15,-3
14270,-1968,-40,-176,-49,15,-4
14275,-1944,-40,-192,-48,15,-4
14280,-1928,-48,-168,-44,15,-5
14285,-1952,-40,-176,-41,15,-4
14290,-1968,-48,-168,-37,16,-4
14295,-1960,-16,-216,-37,16,-3
14300,-1952,-48,-168,-37,16,-3
14305,-1944,-8,-192,-35,16,-2
14310,-1976,-24,-184,-34,14,-2
14315,-1944,-16,-184,-33,14,-1
14320,-1912,-56,-168,-33,14,-2
14325,-1968,-24,-160,-35,13,-1
14330,-1928,-32,-176,-37,15,-2
14335,-1944,-40,-192,-39,16,-2
14340,-1960,-40,-168,-42,17,-2
14345,-1960,-16,-160,-45,18,-2
14350,-1960,-8,-176,-46,20,-2
14355,-1968,-8,-184,-50,21,-3
14360,-1952,-56,-160,-54,24,-2
14365,-1944,-40,-192,-58,25,-3
14370,-1952,-72,-144,-62,26,-2
14375,-1992,-72,-160,-64,26,-1
14380,-1960,-24,-184,-66,28,-2
14385,-1952,-40,-168,-67,30,1
14390,-1952,-64,-200,-66,31,0
14395,-1968,-40,-200,-62,31,1
14400,-1968,-32,-216,-57,32,1
14405,-1968,-48,-200,-52,33,1
14410,-1960,-80,-192,-49,31,2
14415,-1976,-72,-200,-45,31,2
14420,-1968,-24,-208,-41,30,3
14425,-1984,-64,-192,-38,28,4
14430,-1968,-40,-184,-35,25,4
14435,-1968,-24,-192,-34,24,4
14440,-1952,-32,-200,-32,23,5
14445,-1968,-48,-160,-32,19,5
14450,-1968,0,-192,-30,20,4
14455,-1984,-24,-192,-29,18,2
14460,-1952,-8,-152,-29,18,2
14465,-1968,-48,-192,-30,17,1
14470,-1968,-16,-160,-30,15,-2
14475,-1968,-32,-160,-30,15,-3
14480,-1936,16,-184,-31,15,-3
14485,-1968,-8,-160,-33,13,-3
14490,-1968,0,-168,-34,14,-4
14495,-1960,-8,-208,-36,14,-5
14500,-1944,-24,-168,-37,14,-6
14505,-1960,-8,-200,-40,14,-5
14510,-1960,0,-192,-41,14,-4
14515,-1984,-8,-136,-41,14,-6
14520,-1960,-24,-168,-42,14,-6
14525,-1976,-40,-192,-44,15,-7
14530,-1952,-8,-176,-44,14,-7
14535,-1944,-24,-168,-46,14,-8
14540,-1944,-16,-200,-47,14,-8
14545,-1944,-16,-184,-48,16,-7
14550,-1992,-24,-184,-49,16,-8
14555,-1968,-8,-200,-49,16,-7
14560,-1960,-32,-200,-49,14,-6
14565,-1952,-64,-176,-50,14,-7
14570,-1968,-40,-200,-52,15,-6
14575,-1944,-56,-184,-53,13,-5
14580,-1944,-40,-168,-54,13,-5
14585,-1976,-64,-216,-53,13,-5
14590,-1936,-32,-168,-53,13,-4
14595,-1960,-24,-184,-52,13,-5
14600,-1968,-40,-168,-51,12,-5
14605,-1952,-24,-176,-51,13,-4
14610,-1968,-16,-192,-49,12,-5
14615,-1968,-32,-192,-50,11,-3
14620,-1944,-32,-208,-50,13,-3
14625,-1960,-24,-200,-53,13,-3
14630,-1984,-8,-208,-54,13,-4
14635,-1960,-32,-176,-54,14,-3
14640,-1968,-40,-152,-56,14,-2
14645,-1944,-48,-176,-57,15,-2
14650,-1944,-8,-160,-58,16,-1
14655,-1976,-24,-176,-60,17,-1
14660,-1952,-32,-168,-62,18,0
14665,-1960,0,-184,-64,21,-1
14670,-1968,-24,-192,-65,22,0
14675,-1960,-16,-136,-68,23,1
14680,-1936,-24,-200,-70,25,2
14685,-1952,-48,-144,-71,26,3
14690,-1960,-16,-152,-71,26,2
14695,-1952,-16,-136,-72,26,4
14700,-1960,-40,-176,-72,27,4
14705,-1944,-40,-192,-69,26,4
14710,-1960,-56,-176,-67,24,5
14715,-1952,-32,-184,-64,22,6
14720,-1976,0,-200,-58,23,5
14725,-1944,-16,-192,-53,21,5
14730,-1944,-56,-184,-50,21,6
14735,-1936,-24,-184,-44,20,5
14740,-1984,-24,-208,-40,21,5
14745,-1944,-24,-160,-37,20,4
14750,-1952,0,-200,-35,20,4
14755,-1968,0,-184,-34,20,4
14760,-1968,-16,-184,-31,18,4
14765,-1992,0,-144,-30,18,2
14770,-1968,0,-176,-30,19,1
14775,-1976,-8,-192,-32,17,1
14780,-1968,-16,-192,-33,17,0
14785,-1960,-16,-168,-34,16,-2
14790,-1968,-8,-168,-34,15,-1
14795,-1936,-16,-168,-35,13,-1
14800,-1960,0,-184,-36,13,-3
14805,-1960,-24,-184,-38,13,-3
14810,-1960,0,-184,-37,12,-3
14815,-1976,-32,-208,-38,11,-1
14820,-1968,-8,-184,-40,11,-1
14825,-1944,-16,-152,-41,10,-2
14830,-1944,-16,-184,-41,9,-2
14835,-1968,-8,-184,-44,9,-2
14840,-1968,-56,-232,-46,7,0
14845,-1968,-48,-176,-47,7,0
14850,-1968,-40,-144,-47,7,-1
14855,-1960,-72,-176,-46,6,-1
14860,-1968,-16,-208,-45,5,-1
14865,-1952,-56,-184,-46,5,0
14870,-1952,0,-184,-45,5,-1
14875,-1960,-40,-200,-44,4,0
14880,-1952,-24,-176,-44,5,0
14885,-1976,-40,-168,-43,4,-2
14890,-1960,-32,-152,-43,3,0
14895,-1960,-40,-152,-41,1,-2
14900,-1936,0,-160,-40,1,0
14905,-1976,-64,-168,-38,-1,1
14910,-1960,-48,-184,-39,0,1
14915,-1968,-24,-176,-39,-1,0
14920,-1960,-48,-160,-37,-2,-1
14925,-1960,-32,-176,-36,-3,-1
14930,-1976,-8,-184,-36,-3,-1
14935,-1968,-32,-200,-33,-2,0
14940,-1944,-40,-136,-31,-1,-1
14945,-1952,-24,-176,-30,1,0
14950,-1944,-32,-144,-30,2,-1
14955,-1944,-8,-144,-27,4,0
14960,-1920,-24,-160,-30,4,0
14965,-2000,0,-160,-29,6,-1
14970,-1968,-16,-144,-29,7,-1
14975,-1976,-24,-168,-32,9,-1
14980,-1976,-16,-176,-31,11,-2
14985,-1960,-16,-192,-35,13,-2
14990,-1960,-32,-168,-35,14,-3
14995,-1976,-16,-192,-34,15,-3
