timestamp,accel_x,accel_y,accel_z,gyro_x,gyro_y,gyro_z
0,192,-1992,-544,-41,-26,31
5,200,-2008,-536,-43,-30,27
10,224,-2000,-544,-42,-35,28
15,208,-2008,-568,-47,-39,26
20,168,-2000,-496,-51,-43,27
25,232,-2008,-544,-54,-47,28
30,232,-2000,-512,-58,-48,29
35,200,-1984,-520,-60,-50,31
40,216,-1984,-528,-61,-53,31
45,192,-2016,-512,-62,-56,30
50,224,-2016,-544,-61,-61,31
55,184,-2008,-544,-59,-66,28
60,208,-2032,-568,-58,-72,25
65,224,-1992,-544,-59,-74,22
70,128,-2016,-560,-58,-77,18
75,216,-2008,-560,-59,-77,14
80,216,-1992,-520,-58,-78,11
85,224,-1992,-552,-57,-76,9
90,200,-2008,-536,-56,-76,7
95,240,-2000,-520,-54,-73,2
100,240,-2000,-496,-52,-73,1
105,232,-2008,-552,-49,-70,-1
110,272,-2000,-544,-48,-67,-2
115,248,-2008,-544,-46,-64,-4
120,240,-1992,-552,-46,-62,-6
125,208,-1984,-464,-48,-58,-6
130,248,-1976,-560,-47,-55,-7
135,248,-2008,-584,-49,-51,-8
140,240,-1984,-536,-47,-46,-8
145,232,-1992,-560,-44,-42,-10
150,248,-2008,-560,-40,-40,-12
155,248,-2008,-560,-36,-36,-12
160,248,-2008,-608,-35,-34,-11
165,240,-1992,-600,-35,-32,-13
170,256,-2024,-560,-35,-30,-14
175,256,-2008,-608,-34,-28,-13
180,256,-2008,-568,-33,-25,-11
185,248,-2000,-576,-33,-23,-11
190,256,-2016,-584,-30,-20,-10
195,256,-2000,-576,-33,-18,-9
200,248,-2008,-600,-36,-16,-9
205,264,-2008,-600,-36,-14,-10
210,256,-2008,-528,-38,-13,-9
215,240,-2032,-576,-38,-11,-8
220,264,-2016,-552,-40,-8,-9
225,280,-2032,-552,-40,-6,-9
230,248,-2024,-560,-38,-4,-8
235,256,-2024,-568,-37,-2,-7
240,248,-2032,-568,-35,-1,-6
245,248,-2016,-560,-30,1,-5
250,272,-2000,-536,-30,3,-4
255,240,-2016,-576,-26,5,0
260,240,-2016,-568,-23,8,1
265,240,-2008,-568,-24,11,3
270,224,-1992,-568,-22,12,5
275,216,-1992,-544,-22,14,7
280,208,-2000,-552,-21,17,8
285,216,-1992,-536,-23,20,10
290,224,-1984,-544,-23,21,11
295,192,-1968,-544,-21,22,11
300,200,-1984,-552,-22,22,12
305,200,-1992,-536,-26,21,13
310,208,-1984,-568,-30,19,13
315,176,-1976,-544,-37,15,12
320,176,-2000,-512,-45,10,12
325,168,-1976,-496,-50,2,14
330,168,-1992,-544,-56,-5,13
335,176,-1992,-560,-62,-13,15
340,144,-1992,-504,-66,-24,17
345,64,-2000,-568,-64,-35,20
350,160,-2024,-544,-70,-55,28
355,224,-2008,-528,-68,-68,32
360,200,-1992,-544,-57,-69,33
365,240,-1976,-528,-46,-70,27
370,280,-2008,-576,-35,-72,20
375,264,-2024,-536,-33,-68,13
380,264,-2008,-568,-36,-60,8
385,264,-1984,-552,-44,-47,2
390,280,-2008,-544,-50,-30,-1
395,312,-2000,-536,-59,-14,-6
400,288,-1976,-528,-64,1,-9
405,296,-1984,-472,-72,14,-10
410,336,-1976,-520,-80,24,-12
415,296,-1960,-528,-95,29,-10
420,296,-1944,-512,-121,30,-8
425,272,-1968,-488,-145,28,-5
430,280,-1944,-504,-161,24,-2
435,232,-1976,-536,-171,12,3
440,248,-1960,-496,-177,5,5
445,232,-1992,-520,-183,0,6
450,224,-1984,-520,-189,-5,4
455,208,-1992,-544,-190,-11,3
460,232,-1984,-536,-186,-19,0
465,216,-1992,-528,-187,-23,-2
470,216,-1992,-520,-187,-23,-4
475,216,-1992,-560,-187,-21,-6
480,216,-1992,-576,-187,-15,-9
485,200,-1992,-552,-179,-5,-10
490,184,-1992,-528,-168,5,-11
495,200,-2016,-568,-152,18,-10
500,192,-2040,-584,-138,29,-7
505,192,-2008,-608,-122,37,-4
510,200,-2032,-616,-104,43,-2
515,192,-2032,-592,-88,46,1
520,208,-2016,-648,-71,50,6
525,200,-2016,-624,-54,49,9
530,192,-1992,-608,-37,50,9
535,200,-1992,-648,-23,51,10
540,208,-1992,-608,-15,51,10
545,176,-1976,-608,-14,50,9
550,168,-1984,-624,-19,51,8
555,176,-1984,-600,-23,51,8
560,192,-1984,-624,-28,49,7
565,208,-1984,-592,-32,50,5
570,184,-2000,-568,-39,51,4
575,200,-2024,-576,-42,51,0
580,224,-2024,-584,-43,53,-3
585,240,-2024,-576,-37,56,-5
590,272,-2064,-600,-29,59,-9
595,288,-2088,-576,-17,60,-13
600,288,-2024,-608,-11,66,-15
605,296,-2024,-608,-5,75,-17
610,312,-2032,-576,-5,87,-20
615,304,-1992,-624,-6,97,-20
620,312,-2000,-640,-12,108,-20
625,304,-2000,-600,-17,119,-19
630,296,-1984,-616,-21,131,-19
635,304,-1992,-616,-27,141,-18
640,272,-2000,-624,-33,150,-19
645,288,-1992,-608,-37,160,-19
650,272,-1992,-616,-41,166,-20
655,256,-1992,-632,-45,171,-22
660,248,-1992,-592,-46,173,-24
665,272,-1992,-584,-50,172,-26
670,248,-2000,-592,-53,170,-27
675,240,-2000,-592,-55,165,-30
680,248,-1984,-600,-57,159,-31
685,272,-2000,-608,-56,154,-35
690,296,-1968,-584,-55,151,-38
695,288,-1984,-616,-58,147,-43
700,288,-1968,-592,-59,146,-48
705,288,-1992,-640,-58,144,-51
710,296,-1992,-616,-59,146,-51
715,304,-1992,-624,-60,149,-52
720,312,-1968,-600,-61,154,-53
725,296,-1968,-640,-60,158,-52
730,280,-1968,-600,-61,161,-51
735,264,-1968,-640,-58,164,-49
740,280,-1976,-600,-58,169,-47
745,296,-1968,-624,-57,171,-46
750,288,-1992,-616,-57,176,-44
755,272,-2000,-584,-57,179,-43
760,296,-1968,-576,-56,182,-43
765,280,-1960,-584,-54,185,-43
770,288,-1952,-576,-50,187,-38
775,296,-1960,-584,-46,188,-36
780,320,-1960,-560,-45,189,-32
785,288,-1960,-616,-50,186,-30
790,240,-1984,-568,-59,181,-30
795,224,-2024,-568,-70,178,-33
800,240,-2024,-568,-72,175,-39
805,208,-2008,-536,-68,176,-45
810,216,-2072,-520,-57,180,-45
815,160,-2048,-536,-47,181,-50
820,192,-2080,-512,-41,182,-57
825,208,-2080,-520,-33,180,-70
830,232,-2008,-528,-21,178,-79
835,232,-1984,-552,-6,183,-74
840,240,-1960,-536,-9,192,-59
845,232,-1936,-520,-25,193,-54
850,248,-1944,-544,-30,185,-46
855,264,-1936,-544,-41,182,-35
860,240,-1960,-512,-52,173,-31
865,256,-1976,-504,-56,160,-28
870,232,-1976,-520,-56,143,-24
875,256,-2000,-488,-55,126,-20
880,248,-2016,-488,-63,112,-24
885,232,-2048,-472,-66,100,-30
890,272,-2064,-520,-69,95,-36
895,256,-2040,-512,-64,93,-38
900,272,-2048,-504,-51,96,-38
905,264,-2016,-536,-42,103,-38
910,264,-1976,-536,-37,112,-37
915,248,-1976,-536,-32,122,-34
920,224,-1960,-520,-34,131,-29
925,232,-2000,-552,-42,139,-30
930,248,-2016,-504,-49,145,-33
935,232,-2024,-512,-52,147,-38
940,248,-1968,-504,-46,147,-41
945,240,-1928,-504,-40,146,-38
950,232,-1920,-544,-40,141,-35
955,216,-1920,-520,-55,132,-35
960,216,-1976,-512,-77,122,-31
965,224,-1976,-472,-96,112,-26
970,232,-1984,-520,-109,100,-23
975,256,-1976,-496,-112,91,-16
980,256,-1960,-536,-112,82,-9
985,248,-1992,-536,-110,71,-4
990,264,-1984,-528,-108,59,1
995,280,-2024,-512,-104,48,4
1000,192,-2056,-464,-97,38,6
1005,248,-2024,-536,-92,30,2
1010,272,-2048,-552,-87,24,0
1015,272,-2056,-520,-83,22,-4
1020,232,-2024,-512,-80,18,-7
1025,216,-2040,-496,-76,17,-10
1030,216,-2048,-504,-72,17,-11
1035,192,-2024,-496,-69,17,-14
1040,192,-2032,-512,-63,19,-14
1045,160,-2024,-504,-57,21,-14
1050,232,-2048,-488,-50,25,-12
1055,176,-2112,-544,-42,30,-10
1060,128,-2016,-544,-36,32,-8
1065,168,-2024,-520,-32,31,-8
1070,136,-2000,-560,-32,27,-6
1075,152,-1984,-544,-33,20,-3
1080,160,-1984,-536,-35,8,-4
1085,144,-1976,-560,-43,-5,-4
1090,128,-1968,-536,-55,-19,-6
1095,144,-1984,-560,-63,-37,-7
1100,144,-1976,-512,-73,-53,-7
1105,168,-1976,-432,-78,-68,-9
1110,168,-2008,-552,-83,-83,-7
1115,184,-1976,-552,-85,-95,-5
1120,184,-2024,-504,-88,-108,-2
1125,208,-2000,-520,-88,-118,1
1130,200,-2008,-544,-89,-125,4
1135,192,-2040,-544,-86,-132,7
1140,216,-2024,-528,-82,-137,11
1145,216,-2032,-576,-78,-143,13
1150,184,-2024,-520,-74,-149,15
1155,176,-2032,-520,-71,-153,17
1160,208,-2056,-560,-62,-153,18
1165,208,-2040,-544,-49,-155,18
1170,184,-2016,-528,-37,-154,18
1175,168,-2016,-592,-26,-155,16
1180,192,-1984,-568,-18,-155,15
1185,192,-2000,-600,-16,-154,14
1190,168,-1992,-584,-13,-151,12
1195,240,-2008,-560,-11,-148,11
1200,240,-2008,-584,-10,-145,11
1205,216,-2000,-600,-8,-141,8
1210,240,-2000,-592,-7,-140,6
1215,216,-1976,-632,-8,-139,6
1220,184,-1984,-568,-12,-139,6
1225,248,-1976,-608,-18,-138,6
1230,208,-1976,-608,-23,-136,4
1235,208,-2008,-632,-27,-132,1
1240,208,-2008,-600,-31,-126,2
1245,208,-2008,-616,-34,-122,0
1250,192,-2040,-616,-34,-115,1
1255,224,-2008,-584,-36,-110,0
1260,216,-2016,-592,-33,-107,2
1265,232,-2008,-600,-31,-104,3
1270,248,-2016,-568,-27,-102,3
1275,280,-2024,-608,-20,-99,7
1280,264,-2008,-592,-16,-100,9
1285,280,-2000,-592,-12,-98,9
1290,296,-1992,-592,-5,-96,13
1295,288,-1984,-600,0,-93,16
1300,288,-1976,-568,3,-90,18
1305,280,-1968,-592,2,-84,20
1310,48,-1880,-704,-1,-80,19
1315,344,-2008,-752,-3,-75,21
1320,312,-2008,-584,-8,-69,21
1325,312,-1968,-592,-12,-64,20
1330,288,-1968,-600,-15,-58,16
1335,280,-2008,-600,-18,-52,14
1340,288,-1984,-600,-21,-46,10
1345,256,-1976,-584,-25,-41,8
1350,256,-1992,-600,-28,-35,4
1355,264,-1968,-576,-32,-30,2
1360,240,-1976,-560,-32,-27,1
1365,256,-2008,-592,-33,-24,-1
1370,232,-1984,-568,-36,-24,-2
1375,232,-1984,-552,-35,-26,-4
1380,216,-1992,-544,-36,-28,-6
1385,208,-1984,-576,-36,-33,-7
1390,208,-2024,-568,-33,-36,-9
1395,232,-2000,-576,-33,-42,-11
1400,208,-1992,-552,-32,-47,-11
1405,200,-2008,-544,-33,-53,-15
1410,200,-1984,-584,-32,-57,-14
1415,208,-1992,-576,-34,-61,-15
1420,224,-2000,-568,-33,-64,-15
1425,224,-1992,-560,-34,-66,-14
1430,232,-2008,-568,-37,-66,-15
1435,224,-1992,-568,-38,-65,-15
1440,248,-2016,-584,-37,-64,-15
1445,248,-1984,-600,-37,-63,-14
1450,256,-1992,-592,-37,-62,-14
1455,272,-2000,-576,-39,-59,-14
1460,272,-1976,-584,-42,-57,-14
1465,280,-1976,-608,-46,-57,-13
1470,280,-1984,-600,-48,-57,-13
1475,304,-1992,-584,-51,-56,-13
1480,272,-1992,-592,-53,-54,-11
1485,272,-1984,-584,-52,-52,-10
1490,288,-2008,-568,-53,-49,-9
1495,296,-2000,-584,-55,-46,-9
1500,296,-2008,-576,-52,-42,-10
1505,288,-2008,-544,-52,-37,-9
1510,296,-1992,-584,-48,-33,-9
1515,288,-2016,-584,-46,-27,-11
1520,312,-1992,-560,-43,-21,-9
1525,288,-2016,-568,-42,-17,-9
1530,272,-2000,-600,-40,-12,-10
1535,280,-1976,-584,-39,-7,-9
1540,288,-2000,-592,-39,-3,-7
1545,288,-1984,-592,-40,1,-8
1550,296,-1992,-584,-43,5,-5
1555,248,-1976,-568,-43,6,-6
1560,280,-1992,-576,-44,8,-6
1565,256,-2008,-592,-46,10,-6
1570,280,-1992,-600,-45,11,-4
1575,272,-2000,-600,-43,13,-5
1580,272,-1992,-592,-43,16,-5
1585,256,-1976,-584,-44,20,-7
1590,288,-2016,-600,-45,20,-8
1595,304,-1992,-576,-47,23,-8
1600,264,-1984,-568,-51,26,-9
1605,256,-2016,-576,-54,30,-9
1610,288,-2000,-608,-55,33,-9
1615,280,-2008,-552,-51,35,-7
1620,264,-1992,-552,-50,37,-7
1625,280,-2000,-592,-49,40,-5
1630,288,-1984,-600,-47,42,-4
1635,280,-1984,-592,-48,46,-3
1640,280,-1984,-608,-46,47,-3
1645,280,-1992,-592,-47,48,-5
1650,272,-1992,-576,-50,52,-6
1655,272,-2000,-568,-56,54,-9
1660,280,-1976,-544,-63,57,-11
1665,280,-1976,-560,-70,60,-12
1670,288,-2008,-568,-75,62,-11
1675,272,-1992,-536,-79,63,-9
1680,288,-2008,-560,-83,64,-8
1685,272,-2000,-584,-86,65,-5
1690,280,-2008,-560,-83,64,-2
1695,264,-2008,-600,-81,63,1
1700,264,-2032,-568,-76,61,4
1705,256,-2016,-616,-66,60,5
1710,272,-2008,-600,-59,60,5
1715,288,-2032,-600,-55,60,6
1720,256,-2000,-560,-49,59,6
1725,272,-1992,-600,-50,59,3
1730,256,-1992,-592,-55,61,2
1735,240,-2008,-600,-58,63,1
1740,248,-1992,-576,-64,62,-1
1745,256,-1984,-624,-66,66,-2
1750,248,-2000,-552,-69,70,-5
1755,240,-2000,-568,-69,73,-7
1760,248,-1992,-584,-69,78,-7
1765,208,-1976,-576,-67,81,-6
1770,264,-2000,-568,-65,82,-5
1775,256,-1992,-576,-61,82,-2
1780,256,-2000,-584,-60,83,-2
1785,240,-1992,-600,-56,83,0
1790,248,-2000,-576,-51,80,0
1795,256,-1984,-616,-47,78,1
1800,240,-1984,-592,-43,78,-1
1805,248,-2008,-584,-38,75,2
1810,256,-2000,-584,-36,73,0
1815,248,-2000,-568,-35,72,0
1820,216,-1984,-584,-35,71,0
1825,224,-1976,-568,-35,71,0
1830,224,-1984,-592,-36,71,0
1835,208,-2000,-568,-39,70,0
1840,208,-2000,-560,-40,72,-2
1845,216,-1984,-576,-44,71,-1
1850,224,-1984,-544,-45,66,-1
1855,200,-1976,-560,-45,64,-3
1860,216,-2000,-560,-48,63,-2
1865,240,-1992,-552,-48,62,-3
1870,256,-2008,-568,-48,60,-4
1875,248,-2008,-600,-47,58,-4
1880,232,-2000,-608,-48,57,-4
1885,248,-2008,-568,-47,56,-4
1890,232,-2000,-568,-48,53,-3
1895,248,-1984,-592,-47,53,-3
1900,256,-2000,-584,-50,50,-4
1905,240,-1984,-560,-50,48,-3
1910,280,-2008,-584,-49,45,-3
1915,256,-2000,-584,-49,43,-3
1920,232,-2024,-616,-46,40,-4
1925,248,-2000,-536,-44,38,-2
1930,232,-2024,-592,-42,37,-1
1935,240,-2008,-592,-42,38,-2
1940,248,-2008,-600,-39,35,-2
1945,240,-2000,-592,-39,34,-3
1950,232,-2000,-576,-39,33,-3
1955,232,-2008,-600,-38,31,-3
1960,248,-2000,-592,-39,29,-4
1965,224,-2000,-616,-39,28,-5
1970,216,-1992,-608,-41,27,-7
1975,256,-1984,-592,-44,24,-8
1980,136,-2016,-568,-47,25,-9
1985,240,-1992,-544,-48,24,-8
1990,248,-2000,-616,-49,22,-8
1995,256,-2000,-592,-48,22,-9
2000,248,-2000,-576,-49,22,-9
2005,240,-1992,-584,-48,22,-10
2010,264,-1992,-592,-47,23,-12
2015,264,-1992,-584,-47,23,-12
2020,264,-2000,-568,-48,23,-12
2025,280,-2008,-592,-49,22,-11
2030,280,-1984,-600,-50,24,-10
2035,160,-2008,-528,-48,25,-10
2040,280,-2000,-584,-47,26,-10
2045,272,-1976,-592,-47,28,-11
2050,272,-1984,-600,-47,30,-12
2055,280,-1976,-592,-46,31,-12
2060,272,-1968,-608,-49,32,-13
2065,296,-2000,-592,-51,32,-15
2070,288,-1952,-576,-54,32,-15
2075,264,-1992,-576,-58,31,-18
2080,264,-1984,-608,-61,31,-19
2085,288,-1968,-584,-66,31,-21
2090,272,-1976,-592,-69,33,-19
2095,256,-1944,-592,-71,33,-18
2100,240,-1984,-616,-71,33,-18
2105,272,-1992,-608,-74,32,-19
2110,256,-2000,-584,-74,32,-19
2115,272,-1992,-584,-73,33,-20
2120,264,-2000,-616,-75,32,-21
2125,272,-1992,-600,-77,31,-22
2130,256,-1992,-584,-78,29,-22
2135,288,-1992,-608,-80,29,-22
2140,272,-2016,-616,-83,27,-23
2145,264,-2008,-616,-83,25,-23
2150,296,-2000,-608,-83,27,-23
2155,264,-2008,-616,-83,30,-22
2160,288,-2008,-600,-81,32,-19
2165,264,-1984,-624,-78,34,-19
2170,280,-2000,-600,-74,35,-17
2175,272,-1984,-632,-70,35,-18
2180,296,-1984,-576,-67,38,-16
2185,304,-1984,-640,-68,38,-16
2190,296,-1992,-616,-70,37,-16
2195,288,-1976,-632,-70,37,-16
2200,288,-1976,-608,-74,36,-17
2205,288,-1984,-608,-77,34,-16
2210,296,-1968,-576,-79,35,-15
2215,304,-1984,-568,-79,34,-15
2220,304,-1968,-584,-79,32,-14
2225,312,-1968,-592,-80,34,-15
2230,320,-1984,-632,-82,36,-17
2235,288,-1960,-616,-84,40,-16
2240,304,-1992,-608,-88,40,-17
2245,320,-1984,-632,-94,40,-18
2250,312,-1984,-616,-98,40,-17
2255,312,-1984,-616,-102,42,-17
2260,312,-1984,-608,-103,45,-16
2265,296,-1976,-608,-105,48,-13
2270,296,-1984,-616,-105,51,-10
2275,288,-1984,-592,-106,51,-11
2280,328,-1968,-584,-107,50,-9
2285,296,-1992,-592,-106,48,-6
2290,288,-1968,-632,-104,49,-6
2295,296,-1968,-624,-106,50,-5
2300,304,-1976,-584,-107,52,-3
2305,280,-2000,-600,-109,48,-5
2310,304,-1976,-592,-111,47,-6
2315,288,-1984,-600,-113,45,-5
2320,312,-1992,-632,-114,46,-2
2325,304,-1976,-600,-113,52,-1
2330,296,-1968,-632,-113,56,0
2335,328,-1968,-664,-111,61,2
2340,328,-1968,-624,-112,64,5
2345,312,-1976,-656,-112,63,8
2350,336,-1976,-656,-111,66,10
2355,360,-1984,-648,-112,72,10
2360,320,-1968,-648,-113,78,11
2365,296,-1952,-616,-117,85,12
2370,352,-1976,-624,-123,92,12
2375,336,-1952,-648,-129,95,11
2380,352,-1960,-640,-133,97,11
2385,328,-1944,-608,-140,97,10
2390,328,-1976,-616,-144,98,12
2395,328,-1952,-624,-149,98,14
2400,352,-1976,-624,-147,97,15
2405,320,-1976,-648,-146,94,16
2410,280,-1976,-648,-141,91,19
2415,312,-1992,-632,-133,89,23
2420,320,-1984,-632,-121,86,25
2425,304,-1992,-640,-114,84,25
2430,328,-2008,-648,-108,83,26
2435,280,-1984,-632,-106,77,27
2440,280,-1984,-640,-108,71,30
2445,272,-1976,-584,-111,64,33
2450,264,-1976,-568,-113,55,33
2455,248,-1960,-568,-117,48,36
2460,256,-1960,-600,-122,43,37
2465,232,-1968,-600,-127,33,37
2470,232,-1952,-584,-134,26,39
2475,256,-1960,-592,-143,22,41
2480,232,-1952,-608,-152,19,42
2485,248,-1936,-576,-160,16,47
2490,280,-1952,-608,-169,15,50
2495,288,-1968,-656,-178,13,51
2500,296,-1968,-632,-189,10,54
2505,304,-1968,-648,-198,8,54
2510,304,-1968,-648,-207,8,56
2515,296,-1968,-680,-212,8,56
2520,320,-1976,-664,-217,10,57
2525,336,-1992,-664,-222,11,57
2530,328,-2024,-672,-221,12,56
2535,328,-1984,-696,-220,15,54
2540,344,-2000,-712,-217,18,54
2545,336,-2000,-704,-214,22,54
2550,336,-2008,-712,-209,28,54
2555,320,-1984,-728,-203,32,54
2560,344,-1992,-704,-197,35,57
2565,296,-1976,-728,-192,35,58
2570,296,-1976,-736,-186,37,62
2575,296,-1976,-736,-183,40,62
2580,312,-1968,-696,-182,44,63
2585,288,-1992,-696,-179,49,64
2590,248,-1944,-736,-180,52,67
2595,264,-1936,-704,-186,53,70
2600,264,-1944,-736,-192,54,71
2605,264,-1928,-744,-201,57,73
2610,256,-1928,-728,-208,58,74
2615,264,-1928,-744,-219,57,76
2620,264,-1944,-712,-228,53,78
2625,256,-1952,-712,-237,48,79
2630,264,-1944,-704,-246,43,81
2635,248,-1976,-744,-253,40,85
2640,240,-1960,-728,-256,40,88
2645,248,-1952,-736,-258,39,88
2650,248,-1960,-736,-255,35,88
2655,264,-1968,-736,-255,33,90
2660,264,-1984,-760,-256,31,92
2665,240,-1976,-712,-257,31,94
2670,240,-1960,-776,-259,29,94
2675,200,-1960,-728,-257,26,94
2680,216,-1968,-760,-255,21,94
2685,160,-1920,-720,-255,15,93
2690,168,-1960,-744,-256,10,93
2695,184,-1928,-736,-257,6,93
2700,208,-1952,-744,-260,3,94
2705,192,-1952,-712,-259,0,92
2710,168,-1968,-744,-260,-4,90
2715,192,-1960,-768,-263,-10,90
2720,152,-1944,-768,-269,-16,88
2725,184,-1952,-808,-277,-21,88
2730,160,-1952,-816,-283,-22,88
2735,176,-1936,-792,-290,-22,90
2740,176,-1936,-792,-296,-22,88
2745,184,-1944,-824,-302,-22,87
2750,176,-1920,-800,-305,-22,86
2755,184,-1944,-800,-306,-25,83
2760,184,-1952,-824,-311,-31,83
2765,160,-1944,-824,-315,-37,82
2770,112,-1920,-824,-318,-45,85
2775,152,-1920,-816,-320,-53,85
2780,144,-1952,-824,-322,-60,88
2785,104,-1912,-808,-319,-64,92
2790,128,-1936,-800,-320,-65,94
2795,136,-1912,-792,-319,-69,99
2800,120,-1920,-784,-317,-73,100
2805,136,-1888,-768,-318,-76,100
2810,128,-1880,-760,-318,-78,99
2815,136,-1888,-784,-316,-81,98
2820,120,-1896,-752,-317,-82,96
2825,144,-1904,-736,-318,-83,95
2830,152,-1912,-744,-315,-79,93
2835,144,-1896,-760,-315,-74,91
2840,160,-1928,-752,-315,-63,89
2845,176,-1928,-760,-309,-48,89
2850,184,-1928,-776,-305,-31,88
2855,200,-1960,-800,-300,-14,84
2860,208,-1976,-760,-296,5,80
2865,216,-1968,-776,-293,21,77
2870,232,-1968,-792,-289,38,74
2875,240,-1976,-816,-285,54,70
2880,224,-1968,-776,-283,68,65
2885,240,-1968,-776,-280,85,61
2890,208,-1944,-776,-278,100,62
2895,216,-1952,-800,-275,110,62
2900,192,-1952,-800,-274,121,64
2905,240,-1976,-736,-274,128,66
2910,200,-1968,-808,-272,135,67
2915,184,-1984,-808,-270,138,68
2920,144,-1960,-816,-271,138,72
2925,120,-1960,-840,-273,136,75
2930,120,-1984,-864,-279,132,79
2935,120,-1976,-848,-285,127,83
2940,88,-1952,-848,-292,118,89
2945,80,-1968,-864,-296,110,92
2950,88,-1968,-864,-302,98,94
2955,56,-1936,-872,-306,85,99
2960,112,-1920,-976,-309,75,101
2965,56,-1968,-888,-315,62,102
2970,40,-1968,-912,-320,50,102
2975,40,-1960,-920,-326,37,101
2980,32,-1960,-912,-325,23,100
2985,16,-1960,-904,-324,12,100
2990,16,-1928,-920,-325,2,100
2995,24,-1992,-920,-326,-10,99
3000,8,-1952,-944,-326,-20,100
3005,24,-1952,-928,-325,-27,102
3010,8,-1960,-912,-322,-34,102
3015,-32,-2000,-872,-317,-42,99
3020,-24,-1952,-888,-310,-49,97
3025,-16,-1968,-888,-298,-52,93
3030,16,-1952,-928,-290,-58,88
3035,-16,-1960,-952,-282,-63,82
3040,-24,-1936,-920,-275,-66,77
3045,-104,-1960,-936,-288,-85,89
3050,-24,-1968,-872,-300,-100,98
3055,0,-1904,-904,-287,-100,99
3060,32,-1864,-912,-257,-90,79
3065,48,-1864,-944,-236,-89,66
3070,48,-1832,-944,-234,-84,54
3075,96,-1824,-960,-247,-75,45
3080,88,-1800,-984,-266,-69,42
3085,80,-1792,-976,-282,-65,38
3090,112,-1816,-968,-295,-57,37
3095,120,-1832,-960,-306,-41,37
3100,80,-1832,-960,-314,-26,38
3105,104,-1824,-952,-324,-14,43
3110,88,-1824,-960,-335,-5,50
3115,88,-1848,-976,-348,-7,59
3120,88,-1848,-952,-358,-13,71
3125,8,-1840,-968,-371,-23,80
3130,0,-1840,-960,-391,-35,93
3135,0,-1832,-936,-412,-44,112
3140,8,-1848,-976,-436,-55,128
3145,32,-1864,-968,-454,-68,149
3150,32,-1888,-952,-475,-74,171
3155,40,-1928,-960,-498,-73,203
3160,48,-1936,-912,-529,-72,237
3165,72,-1928,-960,-545,-77,249
3170,56,-1800,-992,-516,-88,222
3175,56,-1808,-1024,-475,-88,198
3180,128,-1872,-984,-474,-65,214
3185,104,-1912,-1024,-492,-34,238
3190,128,-1928,-1016,-505,-18,254
3195,72,-1912,-1040,-511,-10,262
3200,40,-1888,-1072,-498,-13,261
3205,32,-1872,-1104,-480,-8,254
3210,48,-1848,-1120,-465,3,249
3215,0,-1800,-1112,-451,12,232
3220,16,-1800,-1112,-450,19,214
3225,-8,-1760,-1136,-465,24,200
3230,-16,-1784,-1136,-486,21,187
3235,-56,-1776,-1136,-500,15,179
3240,-64,-1776,-1176,-517,6,170
3245,-64,-1760,-1176,-525,2,164
3250,-96,-1760,-1160,-524,2,154
3255,-56,-1816,-1176,-517,6,147
3260,-72,-1832,-1184,-509,18,145
3265,-56,-1832,-1184,-504,29,145
3270,-32,-1848,-1168,-505,41,148
3275,-16,-1856,-1160,-508,48,151
3280,-32,-1824,-1168,-515,51,149
3285,8,-1840,-1176,-521,52,146
3290,56,-1824,-1160,-524,51,142
3295,64,-1824,-1200,-524,52,135
3300,64,-1808,-1168,-522,58,130
3305,96,-1856,-1152,-520,65,123
3310,104,-1816,-1160,-513,71,112
3315,96,-1816,-1192,-499,77,105
3320,88,-1832,-1168,-483,85,102
3325,88,-1872,-1184,-476,96,103
3330,88,-1888,-1152,-468,101,104
3335,64,-1872,-1168,-455,104,107
3340,32,-1904,-1160,-443,103,109
3345,24,-1848,-1160,-431,101,110
3350,-16,-1808,-1176,-419,95,103
3355,16,-1784,-1176,-404,90,98
3360,8,-1776,-1176,-390,89,91
3365,48,-1776,-1160,-380,93,89
3370,56,-1824,-1152,-377,96,88
3375,48,-1816,-1168,-376,99,85
3380,48,-1784,-1160,-380,100,84
3385,40,-1792,-1200,-391,105,82
3390,48,-1808,-1168,-405,118,83
3395,40,-1792,-1168,-417,134,84
3400,8,-1808,-1184,-427,152,86
3405,48,-1824,-1184,-433,168,85
3410,32,-1840,-1160,-438,184,83
3415,24,-1824,-1224,-442,198,77
3420,24,-1840,-1192,-443,211,75
3425,-8,-1832,-1216,-443,219,72
3430,8,-1832,-1224,-442,225,69
3435,-8,-1816,-1240,-445,236,67
3440,0,-1824,-1256,-448,243,65
3445,-32,-1800,-1240,-452,249,63
3450,-24,-1800,-1232,-455,254,60
3455,-32,-1816,-1240,-456,255,60
3460,-24,-1776,-1256,-456,257,60
3465,-32,-1800,-1264,-451,259,61
3470,-40,-1808,-1264,-446,268,62
3475,-32,-1808,-1312,-447,281,65
3480,-16,-1800,-1280,-441,295,67
3485,-24,-1744,-1248,-437,308,70
3490,-8,-1752,-1256,-432,322,72
3495,-16,-1720,-1280,-425,332,72
3500,-16,-1728,-1256,-427,343,71
3505,-40,-1704,-1264,-428,351,70
3510,-40,-1728,-1264,-435,360,68
3515,-16,-1688,-1280,-444,369,63
3520,-32,-1712,-1304,-453,378,63
3525,-32,-1696,-1256,-461,384,63
3530,-16,-1664,-1264,-473,391,63
3535,8,-1688,-1256,-484,397,66
3540,-16,-1688,-1264,-495,398,71
3545,-16,-1688,-1272,-509,400,75
3550,-8,-1728,-1272,-527,400,79
3555,-24,-1704,-1248,-547,395,81
3560,-16,-1712,-1288,-564,383,92
3565,-40,-1752,-1312,-588,372,98
3570,-64,-1752,-1304,-618,362,109
3575,-72,-1776,-1336,-649,352,120
3580,-80,-1784,-1328,-675,348,130
3585,-120,-1768,-1328,-693,349,140
3590,-120,-1760,-1376,-706,352,146
3595,-64,-1744,-1392,-709,363,159
3600,-56,-1728,-1400,-702,378,171
3605,-16,-1704,-1424,-686,393,179
3610,24,-1696,-1416,-666,404,185
3615,32,-1688,-1408,-640,414,190
3620,104,-1632,-1408,-614,425,192
3625,120,-1632,-1440,-589,436,195
3630,168,-1616,-1424,-568,442,194
3635,192,-1576,-1464,-549,447,188
3640,208,-1592,-1432,-530,453,184
3645,160,-1552,-1464,-519,461,178
3650,184,-1568,-1464,-520,470,174
3655,168,-1576,-1432,-526,476,167
3660,152,-1592,-1424,-534,482,160
3665,136,-1592,-1448,-542,488,155
3670,128,-1600,-1424,-550,500,149
3675,88,-1608,-1408,-564,509,144
3680,56,-1592,-1416,-572,517,142
3685,56,-1616,-1416,-583,521,138
3690,56,-1616,-1456,-592,523,135
3695,40,-1600,-1456,-597,524,129
3700,48,-1600,-1512,-599,527,126
3705,56,-1576,-1488,-601,533,121
3710,40,-1568,-1488,-599,540,113
3715,64,-1576,-1496,-594,551,105
3720,104,-1568,-1496,-587,566,96
3725,112,-1544,-1520,-570,582,93
3730,144,-1544,-1536,-555,601,86
3735,200,-1520,-1520,-543,619,77
3740,200,-1512,-1512,-534,635,64
3745,200,-1520,-1488,-530,647,52
3750,224,-1496,-1512,-526,651,37
3755,232,-1480,-1496,-529,642,17
3760,224,-1472,-1520,-535,631,3
3765,224,-1480,-1512,-546,616,-5
3770,208,-1464,-1496,-562,602,-14
3775,208,-1480,-1520,-578,589,-17
3780,152,-1480,-1552,-594,576,-22
3785,176,-1480,-1560,-612,563,-22
3790,128,-1488,-1544,-629,551,-18
3795,152,-1520,-1544,-641,544,-11
3800,120,-1512,-1576,-660,543,-2
3805,120,-1512,-1592,-671,545,6
3810,144,-1528,-1600,-680,555,15
3815,160,-1544,-1656,-689,568,23
3820,192,-1528,-1664,-696,581,30
3825,200,-1488,-1680,-704,595,33
3830,240,-1536,-1704,-709,614,36
3835,288,-1560,-1728,-712,627,35
3840,256,-1544,-1728,-716,635,33
3845,272,-1536,-1752,-715,632,32
3850,280,-1560,-1776,-708,626,32
3855,296,-1544,-1752,-700,621,35
3860,256,-1536,-1808,-685,622,41
3865,264,-1552,-1752,-666,626,47
3870,256,-1544,-1728,-642,632,50
3875,296,-1552,-1768,-619,638,58
3880,304,-1536,-1728,-593,641,69
3885,264,-1528,-1808,-577,643,68
3890,288,-1496,-1736,-575,641,64
3895,248,-1488,-1672,-563,636,74
3900,272,-1472,-1704,-553,632,74
3905,272,-1472,-1696,-546,627,72
3910,296,-1464,-1712,-539,626,74
3915,312,-1464,-1704,-532,626,69
3920,312,-1456,-1744,-528,623,65
3925,312,-1448,-1752,-526,616,61
3930,280,-1400,-1744,-528,602,60
3935,288,-1384,-1736,-534,580,58
3940,304,-1440,-1656,-537,560,59
3945,272,-1376,-1736,-543,541,63
3950,224,-1416,-1752,-552,521,65
3955,256,-1408,-1760,-563,505,71
3960,192,-1392,-1760,-579,488,77
3965,168,-1360,-1776,-596,468,82
3970,176,-1384,-1792,-610,445,84
3975,176,-1408,-1808,-620,420,88
3980,144,-1368,-1800,-628,398,91
3985,128,-1424,-1768,-628,381,93
3990,144,-1416,-1816,-627,367,94
3995,104,-1336,-1704,-622,354,96
4000,144,-1392,-1768,-616,341,90
4005,200,-1424,-1784,-604,327,84
4010,192,-1408,-1784,-591,313,79
4015,232,-1408,-1736,-581,302,76
4020,264,-1392,-1752,-575,298,76
4025,256,-1376,-1752,-579,302,80
4030,288,-1392,-1768,-570,298,70
4035,336,-1360,-1792,-553,293,58
4040,352,-1352,-1760,-538,290,42
4045,368,-1328,-1776,-531,286,27
4050,368,-1288,-1784,-528,276,9
4055,368,-1296,-1776,-528,254,-9
4060,376,-1280,-1752,-523,234,-25
4065,368,-1280,-1736,-518,217,-38
4070,368,-1248,-1712,-513,204,-48
4075,368,-1248,-1720,-508,192,-59
4080,384,-1240,-1728,-505,183,-69
4085,384,-1232,-1728,-508,175,-77
4090,360,-1200,-1720,-517,167,-85
4095,352,-1192,-1720,-533,158,-96
4100,336,-1176,-1672,-545,158,-99
4105,336,-1200,-1680,-549,156,-101
4110,368,-1160,-1664,-554,157,-104
4115,344,-1128,-1640,-558,161,-107
4120,360,-1168,-1640,-563,165,-105
4125,352,-1152,-1672,-567,171,-103
4130,384,-1184,-1664,-571,182,-103
4135,352,-1160,-1704,-575,195,-101
4140,328,-1168,-1712,-579,204,-101
4145,360,-1160,-1704,-582,211,-105
4150,336,-1160,-1696,-588,216,-109
4155,336,-1136,-1736,-591,218,-115
4160,344,-1112,-1744,-589,222,-122
4165,336,-1088,-1768,-580,225,-130
4170,304,-1064,-1744,-571,234,-136
4175,352,-1064,-1776,-568,242,-139
4180,368,-1040,-1760,-566,253,-141
4185,360,-1056,-1752,-565,264,-146
4190,344,-1000,-1696,-561,267,-152
4195,368,-992,-1656,-563,257,-166
4200,344,-992,-1592,-571,236,-179
4205,352,-968,-1544,-573,214,-184
4210,312,-976,-1536,-582,192,-183
4215,296,-952,-1480,-585,175,-181
4220,248,-960,-1488,-585,164,-172
4225,232,-952,-1472,-585,156,-159
4230,192,-944,-1472,-586,147,-141
4235,128,-944,-1472,-594,137,-119
4240,72,-952,-1488,-600,124,-93
4245,64,-960,-1480,-607,111,-63
4250,40,-992,-1472,-615,97,-37
4255,32,-976,-1480,-626,79,-17
4260,8,-960,-1456,-631,62,2
4265,56,-960,-1464,-620,45,20
4270,40,-944,-1472,-592,30,40
4275,104,-960,-1496,-557,27,61
4280,168,-960,-1488,-509,37,82
4285,224,-960,-1488,-451,59,99
4290,288,-968,-1504,-391,91,118
4295,312,-952,-1512,-339,126,129
4300,328,-984,-1528,-299,156,136
4305,376,-976,-1552,-274,174,137
4310,392,-960,-1512,-269,182,127
4315,384,-960,-1520,-277,186,110
4320,352,-936,-1496,-288,176,94
4325,336,-1112,-1520,-299,160,78
4330,336,-880,-1480,-342,136,32
4335,336,-952,-1488,-333,123,51
4340,320,-976,-1488,-304,115,58
4345,264,-1000,-1536,-291,109,60
4350,232,-1032,-1504,-293,105,67
4355,192,-1008,-1552,-298,106,82
4360,144,-1008,-1592,-306,104,101
4365,120,-1040,-1632,-318,106,129
4370,160,-992,-1680,-329,110,158
4375,160,-1040,-1704,-335,115,183
4380,184,-1040,-1704,-333,122,209
4385,208,-1048,-1728,-323,127,234
4390,256,-1048,-1744,-312,132,255
4395,280,-1040,-1768,-301,133,273
4400,336,-1040,-1760,-289,129,285
4405,368,-1024,-1752,-280,124,289
4410,432,-1008,-1760,-272,117,290
4415,472,-1016,-1784,-270,108,289
4420,464,-992,-1848,-277,100,280
4425,496,-984,-1840,-295,88,262
4430,480,-960,-1792,-318,67,247
4435,416,-968,-1736,-344,41,228
4440,384,-960,-1752,-368,12,219
4445,352,-960,-1760,-386,-5,224
4450,320,-984,-1680,-397,-12,241
4455,256,-984,-1680,-409,-13,260
4460,256,-1000,-1688,-416,-19,269
4465,200,-968,-1688,-415,-23,281
4470,184,-936,-1680,-408,-26,300
4475,184,-952,-1624,-397,-29,323
4480,208,-928,-1664,-389,-30,343
4485,216,-952,-1688,-391,-29,361
4490,216,-960,-1672,-396,-28,374
4495,216,-952,-1696,-407,-27,381
4500,224,-928,-1752,-426,-30,381
4505,176,-936,-1776,-451,-40,378
4510,120,-936,-1752,-491,-56,367
4515,80,-936,-1776,-538,-82,353
4520,40,-968,-1760,-581,-114,336
4525,72,-1032,-1776,-616,-151,329
4530,48,-984,-1744,-674,-193,284
4535,-8,-1016,-1728,-687,-227,292
4540,-48,-1072,-1672,-666,-255,306
4545,-32,-1080,-1664,-634,-277,317
4550,-48,-1088,-1688,-598,-296,332
4555,-8,-1072,-1688,-563,-311,342
4560,48,-1056,-1688,-520,-312,340
4565,120,-1024,-1744,-470,-300,340
4570,128,-1000,-1760,-416,-281,345
4575,208,-1000,-1792,-379,-270,354
4580,328,-992,-1808,-363,-263,348
4585,360,-936,-1864,-374,-254,329
4590,440,-904,-1888,-401,-258,306
4595,544,-944,-1872,-444,-263,272
4600,536,-872,-1832,-483,-277,214
4605,624,-816,-1896,-524,-307,167
4610,672,-776,-1824,-600,-329,107
4615,632,-840,-1848,-662,-350,90
4620,576,-888,-1784,-713,-382,71
4625,592,-992,-1736,-767,-426,53
4630,440,-1040,-1720,-819,-487,20
4635,304,-1136,-1656,-844,-554,-2
4640,200,-1088,-1584,-864,-617,-13
4645,112,-1200,-1576,-869,-655,33
4650,-96,-1144,-1504,-851,-671,115
4655,-216,-1224,-1480,-842,-681,188
4660,-392,-1104,-1552,-860,-698,304
4665,-488,-1080,-1600,-843,-708,373
4670,-440,-1008,-1672,-814,-693,407
4675,-424,-1112,-1784,-758,-645,464
4680,-328,-952,-1816,-672,-547,547
4685,-136,-1048,-1960,-576,-421,559
4690,40,-952,-1968,-516,-298,539
4695,176,-944,-1992,-472,-181,543
4700,232,-976,-2024,-469,-69,527
4705,200,-944,-1936,-530,13,489
4710,168,-864,-1864,-608,69,483
4715,80,-832,-1784,-650,108,518
4720,32,-824,-1752,-697,155,542
4725,-40,-680,-1720,-782,212,554
4730,-64,-712,-1768,-861,289,627
4735,-352,-608,-1752,-952,375,691
4740,-424,-592,-1808,-1012,459,745
4745,-448,-560,-1840,-1069,565,801
4750,-472,-664,-1832,-1107,698,869
4755,-584,-704,-1856,-1138,841,894
4760,-456,-696,-1864,-1141,975,852
4765,-368,-760,-1896,-1098,1119,837
4770,-232,-824,-1912,-1047,1268,810
4775,-96,-872,-1928,-1000,1418,769
4780,112,-816,-1872,-958,1572,714
4785,208,-768,-1824,-923,1731,692
4790,256,-632,-1776,-923,1878,654
4795,200,-472,-1752,-967,2004,616
4800,120,-424,-1624,-1053,2111,595
4805,56,-392,-1648,-1144,2192,564
4810,-56,-368,-1712,-1254,2250,505
4815,-128,-440,-1632,-1347,2283,458
4820,-288,-464,-1608,-1414,2301,403
4825,-424,-528,-1560,-1464,2314,363
4830,-528,-648,-1536,-1483,2306,340
4835,-584,-600,-1600,-1473,2291,308
4840,-600,-664,-1560,-1467,2281,276
4845,-504,-728,-1568,-1445,2283,250
4850,-312,-744,-1536,-1444,2293,202
4855,-480,-704,-1480,-1430,2315,137
4860,-544,-728,-1336,-1414,2310,80
4865,-336,-848,-1272,-1394,2284,-1
4870,-168,-928,-1168,-1358,2290,-108
4875,104,-1016,-1008,-1313,2314,-195
4880,248,-1000,-968,-1246,2358,-285
4885,376,-992,-816,-1184,2432,-349
4890,408,-1064,-688,-1065,2530,-365
4895,440,-1128,-632,-914,2659,-416
4900,592,-1216,-632,-766,2851,-457
4905,512,-1216,-744,-660,3077,-515
4910,928,-1304,-1160,-583,3223,-622
4915,1008,-1040,-1600,-595,3160,-845
4920,1264,-1008,-1480,-715,2930,-1068
4925,1312,-1080,-1160,-860,2621,-1164
4930,1312,-1240,-384,-980,2332,-1114
4935,1392,-1376,368,-897,2127,-972
4940,1560,-1512,728,-494,2067,-899
4945,1624,-1280,568,89,2127,-862
4950,1776,-896,0,548,2254,-791
4955,1600,-352,-512,741,2396,-772
4960,1856,56,-976,650,2515,-737
4965,2112,336,-1224,379,2652,-680
4970,2440,568,-1320,90,2878,-649
4975,2896,776,-1272,-91,3089,-714
4980,3304,1040,-1176,-113,3267,-875
4985,3736,1712,-1104,87,3139,-1284
4990,12296,7328,-2352,1285,2158,-2428
4995,3448,5320,-4768,2365,1772,-2938
5000,7000,6752,-5144,1139,1603,-3008
5005,8720,8304,-5704,137,1036,-3393
5010,8120,8096,-6168,-314,857,-3857
5015,3912,6328,-7472,-489,550,-3697
5020,3384,4936,-7416,-1314,657,-2775
5025,5808,3200,-7264,-1681,766,-1664
5030,6840,848,-6296,-1492,1101,-1270
5035,6184,-856,-6136,-1106,1390,-1457
5040,5064,-1192,-6304,-1439,1575,-2250
5045,9352,-104,-3640,-2037,1863,-2983
5050,6000,160,-4320,-2034,1469,-3467
5055,5768,1352,-4000,-2234,1721,-3801
5060,2120,632,-3416,-2235,2141,-4249
5065,768,288,-2304,-2134,2680,-4546
5070,1696,-168,-1672,-1607,2917,-4545
5075,2184,-504,-1400,-1003,3034,-4416
5080,1560,-1328,-496,-563,2871,-4026
5085,1736,-440,-1040,-57,2316,-3338
5090,1840,-480,-568,190,1819,-2603
5095,2064,240,-360,615,1380,-1862
5100,1472,680,56,1042,831,-1335
5105,1104,1336,16,1354,208,-948
5110,632,1864,-128,1403,-307,-760
5115,440,2464,-152,1251,-630,-705
5120,112,3032,-192,947,-876,-726
5125,224,3224,-528,562,-1104,-723
5130,72,3000,-744,162,-1209,-710
5135,328,2776,-984,-193,-1213,-700
5140,576,2080,-912,-495,-1138,-748
5145,968,1312,-664,-612,-1012,-779
5150,1152,696,-560,-519,-880,-840
5155,1256,592,-680,-317,-798,-939
5160,1280,576,-704,-172,-734,-1060
5165,1384,720,-840,-24,-758,-1148
5170,1240,480,-768,71,-836,-1210
5175,1392,616,-664,85,-926,-1315
5180,1720,928,-816,62,-1015,-1412
5185,1448,920,-808,31,-1101,-1487
5190,1768,1224,-968,19,-1159,-1550
5195,1728,1528,-1088,47,-1175,-1655
5200,1672,1672,-1312,74,-1185,-1757
5205,688,1408,-1328,33,-1151,-1790
5210,896,1352,-1312,-45,-1093,-1650
5215,1288,1240,-1328,-63,-1048,-1473
5220,1336,1352,-1392,-14,-1041,-1406
5225,1120,1488,-1480,14,-1064,-1384
5230,1256,1304,-1704,50,-1146,-1289
5235,1128,1496,-1752,105,-1170,-1177
5240,1256,1272,-1808,139,-1176,-1038
5245,1200,1208,-1816,230,-1142,-921
5250,1328,1032,-1760,324,-1119,-859
5255,1568,1536,-1872,377,-1096,-839
5260,1496,1352,-1792,291,-1106,-886
5265,1424,1352,-1920,236,-1142,-895
5270,1480,1128,-1936,275,-1124,-847
5275,1056,1040,-1960,377,-1111,-821
5280,1320,1256,-1992,379,-1053,-834
5285,1024,1360,-1968,296,-1028,-877
5290,1144,1024,-1808,217,-1043,-872
5295,1080,1136,-1872,213,-1030,-896
5300,992,1080,-1848,205,-1022,-884
5305,1064,1088,-1776,204,-1013,-882
5310,904,984,-1744,221,-1027,-869
5315,848,976,-1832,279,-1030,-854
5320,640,776,-1632,370,-1017,-828
5325,1136,1504,-1816,386,-1012,-829
5330,736,1344,-1824,386,-1015,-740
5335,832,1328,-1896,458,-1023,-671
5340,920,1280,-1944,516,-994,-606
5345,896,984,-1912,547,-984,-552
5350,920,1088,-1976,560,-980,-545
5355,960,1112,-1944,548,-968,-515
5360,928,1296,-2000,529,-952,-472
5365,888,1320,-2016,518,-922,-436
5370,744,1248,-2008,525,-877,-443
5375,624,1072,-2072,537,-809,-397
5380,656,1160,-2056,528,-769,-354
5385,832,1224,-2096,557,-769,-362
5390,448,1352,-2136,560,-740,-285
5395,568,1360,-2112,505,-693,-178
5400,928,1576,-2168,482,-659,-103
5405,936,1488,-2176,507,-622,-35
5410,1144,1704,-2328,561,-543,48
5415,1920,3424,-2680,612,-450,144
5420,1800,2784,-2688,893,-404,386
5425,-184,880,-2688,1425,-313,611
5430,-568,-456,-2152,1585,-101,646
5435,1176,1056,-2216,1242,-70,563
5440,1016,928,-2128,993,-182,535
5445,424,248,-1736,734,-172,370
5450,424,-520,-1496,466,-143,165
5455,560,-240,-1712,226,-211,24
5460,584,136,-1864,34,-321,-76
5465,232,256,-1904,-51,-366,-151
5470,24,432,-1848,-102,-363,-199
5475,216,568,-1752,-134,-320,-222
5480,160,424,-1568,-45,-241,-142
5485,792,1088,-1736,211,-147,43
5490,920,1232,-1656,317,-51,60
5495,1248,1184,-1536,390,-36,51
5500,1008,1312,-1552,512,-66,44
5505,832,1240,-1672,613,-134,55
5510,848,1128,-1648,693,-240,61
5515,824,1064,-1720,755,-353,72
5520,808,792,-1728,817,-459,82
5525,776,936,-1824,863,-525,100
5530,680,840,-1792,846,-603,94
5535,640,744,-1824,808,-678,82
5540,472,656,-1952,765,-723,63
5545,568,608,-1904,707,-735,42
5550,504,560,-1960,650,-716,27
5555,552,768,-1872,568,-673,38
5560,544,768,-1968,531,-641,52
5565,608,672,-2024,528,-606,68
5570,552,800,-1888,534,-565,79
5575,544,728,-1984,548,-562,101
5580,560,752,-2032,572,-561,118
5585,528,768,-2064,579,-549,127
5590,600,800,-2136,586,-546,142
5595,504,704,-2224,612,-532,150
5600,600,664,-2224,625,-505,159
5605,608,752,-2280,609,-471,166
5610,576,672,-2280,577,-442,174
5615,600,656,-2288,569,-403,178
5620,512,688,-2352,558,-353,174
5625,528,456,-2272,545,-303,172
5630,592,576,-2408,542,-258,170
5635,688,592,-2424,497,-222,167
5640,728,576,-2424,451,-175,159
5645,616,544,-2448,442,-120,155
5650,736,488,-2552,427,-57,149
5655,800,568,-2544,376,6,133
5660,656,608,-2384,316,54,108
5665,848,584,-2568,301,96,88
5670,720,544,-2768,277,75,78
5675,608,600,-2736,235,84,74
5680,632,576,-2800,199,119,75
5685,616,584,-2768,151,170,78
5690,560,544,-2544,88,221,86
5695,544,568,-2424,50,282,97
5700,544,720,-2304,21,340,99
5705,504,808,-2184,-22,396,95
5710,696,648,-2024,-37,432,88
5715,616,592,-1944,-31,470,85
5720,616,584,-1896,-30,454,75
5725,696,496,-1872,-43,412,55
5730,752,560,-1880,-38,369,37
5735,704,648,-1880,-63,317,21
5740,696,632,-1936,-78,264,10
5745,656,592,-2000,-69,221,9
5750,664,584,-2064,-67,195,8
5755,696,632,-2136,-73,183,13
5760,696,664,-2152,-82,185,16
5765,728,656,-2216,-100,184,15
5770,728,672,-2216,-119,186,15
5775,736,584,-2136,-134,186,13
5780,744,608,-2152,-149,182,11
5785,712,616,-2112,-167,169,8
5790,736,560,-2024,-182,142,7
5795,720,576,-2032,-191,120,4
5800,728,576,-1984,-198,98,2
5805,664,592,-1928,-199,76,-4
5810,696,584,-1968,-199,54,-5
5815,696,592,-1968,-192,36,-6
5820,712,560,-1952,-185,23,-5
5825,704,536,-1960,-173,14,-5
5830,720,592,-2096,-167,2,-8
5835,688,520,-2000,-159,-11,-11
5840,696,528,-2000,-150,-17,-14
5845,696,544,-1992,-136,-23,-16
5850,728,560,-2024,-122,-27,-16
5855,680,576,-2072,-111,-35,-18
5860,712,576,-2056,-101,-36,-18
5865,656,576,-2064,-96,-31,-18
5870,672,592,-2096,-91,-27,-17
5875,672,632,-2080,-86,-22,-17
5880,696,664,-2120,-81,-20,-13
5885,664,712,-2104,-76,-16,-12
5890,696,672,-2152,-74,-14,-11
5895,680,648,-2176,-72,-12,-10
5900,696,656,-2112,-74,-13,-10
5905,696,656,-2176,-75,-12,-9
5910,720,688,-2160,-79,-11,-9
5915,728,688,-2232,-82,-13,-11
5920,736,688,-2200,-86,-17,-12
5925,696,696,-2208,-91,-19,-15
5930,720,688,-2184,-99,-17,-16
5935,744,664,-2160,-107,-13,-18
5940,728,680,-2168,-111,-9,-21
5945,728,664,-2152,-115,-6,-23
5950,712,656,-2136,-118,-3,-26
5955,656,688,-2128,-121,-2,-24
5960,688,664,-2112,-122,0,-27
5965,712,632,-2104,-122,1,-28
5970,704,664,-2120,-119,2,-27
5975,696,680,-2112,-113,2,-28
5980,704,672,-2080,-109,0,-27
5985,704,664,-2064,-108,-2,-28
5990,688,672,-2072,-105,-7,-28
5995,680,664,-2088,-100,-12,-27
6000,680,672,-2096,-91,-17,-26
6005,664,680,-2072,-87,-23,-24
6010,672,680,-2096,-81,-30,-23
6015,672,664,-2080,-76,-35,-22
6020,680,640,-2088,-70,-40,-21
6025,672,640,-2048,-62,-42,-20
6030,664,664,-2072,-54,-44,-16
6035,648,672,-2056,-46,-46,-15
6040,688,632,-2072,-39,-51,-15
6045,632,640,-2080,-34,-53,-13
6050,656,648,-2088,-27,-55,-12
6055,632,680,-2088,-22,-54,-9
6060,664,632,-2080,-15,-55,-8
6065,648,632,-2032,-10,-55,-7
6070,640,640,-2064,-5,-56,-7
6075,632,624,-2056,-3,-54,-5
6080,624,632,-2024,2,-53,-3
6085,672,616,-2088,2,-50,-3
6090,648,608,-2120,6,-48,-2
6095,664,616,-2080,7,-45,0
6100,648,616,-2080,8,-42,1
6105,648,632,-2064,8,-41,0
6110,656,600,-2088,9,-37,1
6115,648,624,-2088,10,-33,1
6120,640,608,-2112,11,-31,4
6125,640,632,-2136,11,-31,5
6130,648,648,-2128,13,-30,8
6135,656,624,-2112,18,-30,8
6140,680,616,-2112,20,-30,8
6145,672,648,-2136,24,-30,11
6150,640,624,-2144,27,-30,11
6155,680,616,-2152,28,-24,10
6160,648,640,-2152,26,-17,12
6165,664,616,-2208,19,-9,12
6170,640,640,-2160,14,-3,11
6175,688,600,-2144,4,4,10
6180,640,640,-2144,-6,8,9
6185,672,616,-2144,-16,9,7
6190,656,616,-2128,-23,11,5
6195,656,600,-2160,-22,14,5
6200,672,632,-2176,-23,17,4
6205,664,640,-2168,-25,17,4
6210,680,616,-2168,-28,15,4
6215,688,640,-2176,-31,15,2
6220,672,616,-2168,-35,16,1
6225,680,640,-2176,-39,20,1
6230,672,608,-2184,-43,30,0
6235,664,648,-2152,-50,35,-1
6240,672,632,-2120,-55,41,-2
6245,680,616,-2112,-59,44,-4
6250,672,616,-2120,-64,47,-5
6255,648,632,-2104,-66,48,-6
6260,664,616,-2128,-74,50,-7
6265,648,624,-2104,-79,50,-7
6270,672,624,-2096,-79,51,-6
6275,672,640,-2112,-79,50,-8
6280,656,608,-2144,-76,50,-7
6285,664,616,-2096,-73,48,-8
6290,672,624,-2056,-71,46,-8
6295,688,616,-2112,-67,42,-7
6300,656,624,-2096,-66,38,-7
6305,648,624,-2096,-68,37,-7
6310,672,608,-2104,-68,37,-7
6315,640,656,-2088,-69,35,-7
6320,672,632,-2088,-71,32,-7
6325,656,632,-2088,-71,29,-7
6330,680,640,-2104,-70,28,-8
6335,664,640,-2104,-70,25,-8
6340,648,616,-2128,-69,22,-8
6345,656,624,-2104,-69,20,-7
6350,632,616,-2104,-66,18,-8
6355,656,640,-2088,-66,17,-7
6360,648,640,-2112,-65,12,-8
6365,664,624,-2096,-66,9,-8
6370,640,640,-2104,-68,9,-8
6375,632,640,-2088,-68,6,-10
6380,680,632,-2112,-65,6,-9
6385,656,640,-2104,-60,5,-8
6390,672,640,-2128,-57,3,-9
6395,672,656,-2120,-53,0,-7
6400,664,656,-2112,-51,-3,-7
6405,672,648,-2136,-48,-6,-8
6410,680,672,-2096,-44,-8,-8
6415,664,640,-2120,-41,-10,-8
6420,664,648,-2096,-41,-10,-6
6425,640,632,-2128,-41,-9,-6
6430,696,632,-2104,-38,-6,-7
6435,680,664,-2112,-36,-3,-8
6440,672,640,-2136,-36,1,-5
6445,672,640,-2120,-35,8,-4
6450,672,632,-2112,-33,13,-4
6455,656,640,-2096,-33,15,-4
6460,672,648,-2120,-33,16,-2
6465,672,632,-2120,-34,14,-2
6470,680,648,-2112,-32,16,-3
6475,664,640,-2120,-34,15,-3
6480,656,648,-2064,-37,14,-2
6485,656,632,-2080,-38,12,-2
6490,656,616,-2128,-37,9,-3
6495,656,624,-2080,-36,6,-3
6500,624,632,-2112,-35,2,-2
6505,664,632,-2112,-33,1,-4
6510,656,632,-2120,-34,1,-4
6515,648,624,-2096,-35,1,-3
6520,648,632,-2112,-35,2,-4
6525,648,632,-2088,-35,3,-4
6530,664,616,-2152,-34,6,-3
6535,664,656,-2120,-36,9,-3
6540,664,624,-2120,-38,12,-3
6545,672,624,-2080,-38,12,-3
6550,640,640,-2128,-36,14,-3
6555,664,648,-2120,-36,15,-2
6560,664,624,-2112,-35,15,-1
6565,664,632,-2120,-34,13,-3
6570,664,616,-2144,-33,14,-4
6575,648,616,-2104,-33,12,-2
6580,656,632,-2104,-35,11,-3
6585,648,640,-2120,-36,10,-2
6590,656,624,-2104,-37,12,-2
6595,672,624,-2088,-38,13,-3
6600,688,624,-2112,-39,14,-3
6605,688,624,-2096,-41,14,-2
6610,656,624,-2120,-41,14,-2
6615,664,648,-2136,-38,15,-3
6620,680,632,-2136,-37,12,-3
6625,672,640,-2104,-39,11,-3
6630,656,616,-2120,-39,13,-1
6635,696,632,-2104,-37,14,-3
6640,640,608,-2128,-33,16,-1
6645,672,640,-2104,-34,18,-2
6650,656,624,-2112,-40,19,-3
6655,648,616,-2096,-45,19,-2
6660,656,592,-2120,-43,23,0
6665,672,616,-2120,-44,26,1
6670,688,608,-2112,-43,26,0
6675,680,600,-2112,-41,23,1
6680,664,632,-2112,-41,20,0
6685,648,656,-2096,-42,16,-1
6690,656,624,-2120,-40,16,2
6695,664,624,-2112,-40,16,1
6700,656,608,-2088,-40,17,3
6705,656,624,-2104,-46,16,2
6710,656,624,-2120,-47,15,2
6715,640,656,-2128,-49,13,1
6720,664,632,-2128,-49,13,2
6725,672,624,-2104,-48,12,2
6730,680,608,-2136,-49,12,2
6735,672,608,-2144,-45,10,1
6740,664,632,-2136,-44,11,2
6745,672,616,-2120,-45,15,1
6750,688,592,-2136,-47,17,-2
6755,672,528,-2096,-50,18,-3
6760,680,616,-2128,-52,20,-3
6765,664,624,-2104,-58,24,-2
6770,656,616,-2120,-60,26,-3
6775,648,640,-2128,-60,26,-3
6780,688,624,-2136,-62,23,-6
6785,688,616,-2112,-60,20,-3
6790,648,664,-2080,-58,18,-4
6795,672,640,-2112,-55,16,-4
6800,672,624,-2128,-50,16,-5
6805,656,640,-2144,-47,17,-4
6810,704,648,-2128,-44,20,-2
6815,648,616,-2112,-44,20,-2
6820,632,640,-2120,-47,20,-3
6825,656,632,-2104,-49,18,-4
6830,664,648,-2096,-48,17,-3
6835,640,640,-2096,-46,16,-1
6840,656,632,-2112,-43,15,-1
6845,664,616,-2080,-42,16,-1
6850,640,648,-2096,-40,15,1
6855,656,632,-2128,-35,15,0
6860,656,616,-2128,-34,15,2
6865,760,656,-2200,-35,13,1
6870,672,616,-2112,-35,12,1
6875,672,616,-2088,-40,11,0
6880,664,632,-2088,-43,11,1
6885,640,624,-2104,-41,11,1
6890,632,640,-2112,-38,10,3
6895,640,632,-2128,-33,8,4
6900,656,624,-2128,-25,6,6
6905,656,640,-2128,-24,5,5
6910,656,632,-2104,-26,3,4
6915,680,624,-2176,-27,4,4
6920,672,640,-2136,-29,7,4
6925,648,632,-2136,-32,11,4
6930,648,616,-2136,-33,14,4
6935,640,640,-2104,-34,17,2
6940,648,640,-2128,-40,15,3
6945,664,608,-2096,-40,19,5
6950,656,632,-2096,-35,23,5
6955,640,616,-2136,-33,24,6
6960,672,624,-2128,-35,26,5
6965,664,640,-2104,-37,25,8
6970,648,616,-2128,-34,24,7
6975,672,600,-2104,-35,24,6
6980,672,632,-2120,-38,23,4
6985,664,624,-2064,-41,20,4
6990,656,648,-2096,-41,18,3
6995,696,624,-2120,-42,16,2
7000,640,640,-2112,-42,15,1
7005,664,624,-2112,-40,17,2
7010,664,632,-2112,-42,16,1
7015,664,632,-2096,-39,17,2
7020,680,592,-2104,-41,18,2
7025,656,640,-2104,-43,16,-1
7030,672,648,-2136,-43,14,-1
7035,664,616,-2112,-42,14,-1
7040,648,640,-2128,-42,13,-1
7045,696,624,-2112,-41,14,0
7050,640,632,-2120,-42,14,-1
7055,664,616,-2128,-41,15,0
7060,656,616,-2112,-44,14,-2
7065,640,616,-2096,-45,17,-2
7070,664,624,-2112,-45,17,-2
7075,664,632,-2080,-45,17,-1
7080,664,640,-2088,-43,18,-1
7085,648,608,-2104,-40,19,0
7090,680,624,-2128,-42,19,-1
7095,648,640,-2128,-44,17,1
7100,656,656,-2112,-43,19,-1
7105,664,600,-2104,-47,18,-2
7110,640,624,-2120,-46,19,-2
7115,680,632,-2096,-46,18,-1
7120,664,608,-2120,-48,20,-2
7125,664,600,-2104,-48,20,-1
7130,664,632,-2104,-46,22,-2
7135,648,624,-2128,-48,22,0
7140,656,624,-2120,-50,22,-2
7145,640,624,-2096,-50,21,-2
7150,664,600,-2152,-48,21,-1
7155,648,624,-2120,-47,19,-1
7160,680,624,-2112,-45,19,-3
7165,664,624,-2120,-45,17,-2
7170,656,640,-2136,-44,16,-2
7175,656,640,-2128,-42,18,-2
7180,656,632,-2120,-39,18,-1
7185,656,632,-2120,-43,18,-1
7190,640,624,-2120,-46,16,-2
7195,672,608,-2104,-46,15,-1
7200,680,608,-2080,-46,15,-2
7205,664,632,-2136,-46,14,-2
7210,672,624,-2112,-48,16,-1
7215,672,608,-2104,-50,16,-3
7220,656,640,-2112,-51,15,-2
7225,656,632,-2144,-50,15,-1
7230,688,616,-2104,-47,15,-1
7235,664,616,-2112,-48,14,-1
7240,664,624,-2120,-45,13,-2
7245,656,608,-2104,-44,13,-1
7250,680,624,-2128,-41,14,-1
7255,656,608,-2120,-41,13,-1
7260,624,632,-2152,-39,14,1
7265,664,600,-2120,-37,15,0
7270,656,624,-2096,-41,16,1
7275,688,624,-2112,-44,17,0
7280,656,616,-2112,-42,16,0
7285,680,624,-2088,-42,17,-1
7290,680,592,-2136,-43,15,-1
7295,680,632,-2104,-45,13,-1
7300,664,624,-2104,-44,14,0
7305,672,616,-2112,-42,13,1
7310,672,608,-2112,-42,12,1
7315,664,592,-2080,-41,14,2
7320,664,616,-2112,-39,16,2
7325,640,632,-2104,-41,16,3
7330,680,624,-2120,-43,13,1
7335,656,624,-2104,-43,13,2
7340,672,632,-2104,-44,12,1
7345,656,632,-2120,-43,10,-1
7350,696,616,-2120,-43,13,-1
7355,656,608,-2128,-43,13,-2
7360,672,608,-2112,-41,13,-1
7365,680,600,-2120,-38,15,-1
7370,656,624,-2112,-41,15,1
7375,672,616,-2152,-43,17,-2
7380,640,648,-2104,-47,16,-2
7385,688,616,-2128,-47,15,-2
7390,648,624,-2104,-46,15,-4
7395,640,624,-2144,-47,15,-1
7400,656,632,-2112,-46,22,0
7405,688,624,-2112,-41,22,1
7410,664,624,-2120,-45,21,0
7415,680,600,-2088,-48,18,0
7420,672,616,-2112,-48,16,-2
7425,680,632,-2112,-46,16,-1
7430,664,640,-2120,-45,16,-1
7435,648,624,-2128,-45,15,1
7440,656,640,-2112,-43,14,-1
7445,696,624,-2104,-43,14,0
7450,656,608,-2096,-37,16,3
7455,648,640,-2088,-36,16,2
7460,656,632,-2120,-38,16,2
7465,640,632,-2128,-40,16,4
7470,640,616,-2120,-38,14,9
7475,672,640,-2120,-33,15,10
7480,640,600,-2104,-36,16,6
7485,688,616,-2104,-39,14,4
7490,664,632,-2144,-45,15,3
7495,688,624,-2128,-45,17,1
7500,664,616,-2104,-43,18,1
7505,664,632,-2128,-40,19,1
7510,656,632,-2128,-37,19,2
7515,680,624,-2112,-38,20,2
7520,648,616,-2104,-39,20,1
7525,664,632,-2136,-43,20,2
7530,664,608,-2152,-45,21,0
7535,648,592,-2112,-44,20,0
7540,664,624,-2112,-51,18,-1
7545,656,616,-2120,-49,20,0
7550,664,624,-2112,-43,20,1
7555,696,624,-2120,-40,23,1
7560,664,624,-2144,-35,25,2
7565,656,632,-2112,-38,28,0
7570,672,608,-2104,-41,25,-1
7575,664,608,-2088,-43,24,1
7580,656,608,-2080,-43,25,1
7585,664,608,-2072,-47,24,0
7590,680,608,-2080,-50,21,0
7595,680,616,-2160,-47,18,2
7600,672,616,-2160,-43,14,1
7605,688,616,-2128,-39,10,3
7610,672,624,-2160,-36,8,4
7615,672,608,-2144,-34,5,6
7620,688,616,-2128,-36,6,4
7625,664,624,-2136,-39,9,3
7630,656,608,-2120,-41,12,2
7635,672,624,-2104,-40,19,2
7640,680,600,-2136,-41,21,2
7645,680,624,-2112,-43,27,2
7650,664,632,-2112,-45,27,3
7655,632,648,-2144,-45,27,3
7660,648,624,-2104,-47,30,2
7665,632,616,-2136,-48,30,1
7670,688,632,-2128,-49,30,1
7675,696,608,-2104,-48,31,2
7680,672,624,-2104,-48,33,2
7685,664,608,-2096,-46,31,2
7690,664,616,-2104,-44,31,2
7695,664,632,-2120,-43,28,1
7700,680,632,-2104,-45,27,1
7705,680,608,-2112,-46,24,1
7710,656,624,-2088,-48,23,1
7715,672,616,-2064,-46,22,1
7720,664,600,-2096,-46,24,2
7725,680,592,-2104,-48,22,2
7730,672,608,-2080,-49,20,2
7735,672,600,-2112,-49,19,3
7740,664,592,-2112,-46,16,3
7745,656,608,-2096,-43,16,4
7750,632,600,-2112,-40,15,3
7755,648,624,-2128,-41,15,2
7760,712,592,-2128,-42,17,0
7765,704,616,-2096,-43,19,0
7770,680,616,-2120,-43,19,1
7775,680,632,-2112,-44,22,2
7780,664,616,-2128,-45,20,0
7785,640,640,-2112,-44,17,-1
7790,616,672,-2192,-42,15,0
7795,624,624,-2136,-40,13,2
7800,656,592,-2128,-38,16,0
7805,664,624,-2120,-42,14,-1
7810,688,616,-2112,-45,14,-1
7815,656,616,-2136,-46,13,-3
7820,664,624,-2136,-48,14,-2
7825,672,640,-2112,-48,17,0
7830,664,632,-2152,-46,21,0
7835,664,616,-2128,-48,22,-1
7840,672,648,-2080,-48,23,-1
7845,720,648,-2176,-50,23,-1
7850,720,608,-2104,-50,22,-2
7855,656,592,-2112,-50,23,-2
7860,680,600,-2120,-49,20,-2
7865,664,608,-2104,-48,18,-1
7870,696,624,-2112,-47,16,-1
7875,672,608,-2144,-43,15,0
7880,680,600,-2112,-44,15,-1
7885,696,616,-2128,-44,14,-1
7890,664,616,-2128,-45,14,-1
7895,688,608,-2128,-46,15,-2
7900,664,624,-2128,-49,16,-3
7905,656,616,-2112,-47,16,-1
7910,672,640,-2112,-49,16,-1
7915,696,592,-2104,-47,15,-2
7920,656,624,-2104,-48,16,-1
7925,656,608,-2120,-43,17,-1
7930,680,600,-2120,-42,19,0
7935,672,608,-2136,-46,18,-1
7940,672,624,-2104,-49,19,0
7945,656,608,-2112,-49,19,0
7950,664,608,-2112,-50,18,-2
7955,688,600,-2096,-48,18,-1
7960,640,616,-2088,-47,19,-2
7965,680,616,-2096,-47,19,-2
7970,680,600,-2104,-46,20,0
7975,688,616,-2104,-45,20,-1
7980,648,632,-2104,-48,21,-3
7985,664,616,-2112,-49,21,-1
7990,656,624,-2088,-50,19,-4
7995,680,600,-2128,-52,18,-4
8000,680,592,-2120,-50,20,-3
8005,680,608,-2104,-47,22,0
8010,680,600,-2096,-47,22,-1
8015,688,592,-2128,-46,20,-2
8020,696,608,-2120,-47,15,-1
8025,656,624,-2136,-47,12,-1
8030,688,616,-2112,-46,9,-2
8035,688,600,-2112,-46,9,-2
8040,672,600,-2104,-43,10,-2
8045,672,616,-2088,-44,11,-2
8050,672,608,-2104,-43,13,-2
8055,672,608,-2104,-45,12,-1
8060,664,608,-2104,-45,11,0
8065,680,616,-2136,-45,12,0
8070,672,608,-2112,-45,11,0
8075,672,608,-2112,-45,13,1
8080,648,624,-2128,-44,15,0
8085,648,624,-2128,-40,17,-1
8090,688,608,-2104,-41,18,1
8095,648,616,-2120,-42,16,1
8100,688,616,-2112,-45,15,1
8105,696,616,-2096,-46,15,0
8110,672,640,-2120,-46,15,0
8115,648,640,-2112,-46,17,-1
8120,672,624,-2136,-46,15,-1
8125,664,616,-2088,-46,15,-1
8130,672,608,-2128,-44,13,-1
8135,680,616,-2144,-43,14,0
8140,672,608,-2128,-44,16,-1
8145,664,624,-2104,-45,16,-2
8150,664,600,-2096,-46,18,-1
8155,680,632,-2104,-45,18,0
8160,664,624,-2152,-46,18,0
8165,688,608,-2136,-46,18,-1
8170,720,608,-2112,-45,17,0
8175,664,624,-2088,-44,17,0
8180,672,616,-2104,-41,19,2
8185,664,616,-2136,-44,20,0
8190,680,624,-2136,-46,18,-1
8195,672,624,-2120,-46,17,0
8200,672,632,-2128,-45,18,1
8205,656,616,-2096,-46,16,-1
8210,656,480,-1960,-47,16,0
8215,784,672,-2240,-44,15,-1
8220,704,600,-2112,-42,13,-1
8225,664,616,-2096,-42,12,-3
8230,680,616,-2120,-42,14,-2
8235,680,632,-2144,-38,17,0
8240,720,592,-2112,-37,20,-1
8245,664,624,-2104,-42,20,0
8250,680,624,-2104,-42,20,0
8255,672,616,-2112,-44,19,0
8260,672,640,-2096,-41,19,1
8265,664,616,-2120,-41,18,-1
8270,672,600,-2136,-38,17,0
8275,688,592,-2096,-37,17,1
8280,656,616,-2120,-34,18,4
8285,672,608,-2112,-33,21,4
8290,672,600,-2120,-35,20,4
8295,680,600,-2120,-35,19,6
8300,664,616,-2072,-38,20,5
8305,656,600,-2120,-38,18,5
8310,688,616,-2112,-37,22,3
8315,688,616,-2136,-36,18,2
8320,672,632,-2136,-34,15,5
8325,680,576,-2120,-32,11,3
8330,672,608,-2104,-35,8,2
8335,656,624,-2112,-37,6,2
8340,656,616,-2112,-38,7,1
8345,688,600,-2112,-39,8,3
8350,640,624,-2128,-40,10,3
8355,664,608,-2104,-39,15,4
8360,656,616,-2128,-35,19,5
8365,664,592,-2088,-36,21,7
8370,632,616,-2144,-38,20,7
8375,672,616,-2112,-42,21,5
8380,704,616,-2144,-44,24,5
8385,696,624,-2136,-44,27,5
8390,672,624,-2112,-43,28,5
8395,656,632,-2112,-42,25,4
8400,656,624,-2152,-41,23,3
8405,672,608,-2120,-42,22,1
8410,672,608,-2096,-43,17,2
8415,688,592,-2112,-44,16,1
8420,696,608,-2072,-43,14,2
8425,672,624,-2104,-43,12,5
8430,664,608,-2080,-41,12,5
8435,720,592,-2136,-40,13,6
8440,680,608,-2112,-36,12,6
8445,688,624,-2128,-34,14,6
8450,632,616,-2128,-36,16,6
8455,664,592,-2120,-39,16,6
8460,688,600,-2112,-40,15,4
8465,656,608,-2104,-40,15,3
8470,656,632,-2112,-40,14,3
8475,696,584,-2128,-39,14,3
8480,664,592,-2112,-37,12,2
8485,664,624,-2112,-37,11,3
8490,664,624,-2096,-38,11,5
8495,688,600,-2120,-40,10,4
8500,688,608,-2120,-39,11,3
8505,680,600,-2120,-41,12,2
8510,696,600,-2120,-40,10,2
8515,656,632,-2128,-41,11,1
8520,688,584,-2136,-42,13,0
8525,664,600,-2128,-43,15,1
8530,688,600,-2128,-44,16,1
8535,656,608,-2088,-45,16,1
8540,688,624,-2104,-45,15,2
8545,672,600,-2144,-42,16,3
8550,656,608,-2120,-42,21,4
8555,672,600,-2120,-43,25,2
8560,696,600,-2128,-46,27,2
8565,696,608,-2120,-48,29,1
8570,688,600,-2080,-48,29,3
8575,672,608,-2104,-47,27,4
8580,648,624,-2088,-45,25,6
8585,688,584,-2112,-42,27,5
8590,664,608,-2120,-43,30,2
8595,672,608,-2128,-45,26,3
8600,664,576,-2112,-46,23,2
8605,688,584,-2096,-47,21,1
8610,696,600,-2104,-48,19,0
8615,680,592,-2136,-49,18,0
8620,680,624,-2112,-49,19,1
8625,680,624,-2136,-50,17,0
8630,680,608,-2056,-50,20,-1
8635,672,608,-2088,-51,20,-1
8640,688,616,-2088,-51,19,0
8645,680,608,-2104,-50,18,-1
8650,680,624,-2120,-51,17,-2
8655,680,592,-2128,-51,17,-3
8660,688,608,-2120,-52,17,-2
8665,664,608,-2144,-49,18,-1
8670,712,616,-2120,-50,16,-2
8675,672,608,-2120,-47,16,-2
8680,664,584,-2128,-48,15,-1
8685,696,600,-2080,-47,14,-1
8690,680,608,-2152,-47,13,-1
8695,664,608,-2120,-47,14,-1
8700,672,608,-2136,-46,14,-1
8705,672,608,-2152,-48,16,0
8710,680,592,-2080,-48,15,-1
8715,616,552,-2056,-47,15,-1
8720,672,648,-2104,-46,14,-1
8725,688,600,-2096,-47,14,-1
8730,688,608,-2104,-48,13,0
8735,672,608,-2112,-48,12,-1
8740,672,600,-2112,-46,11,-1
8745,680,584,-2088,-45,11,0
8750,664,616,-2136,-44,12,-1
8755,656,592,-2104,-44,11,-2
8760,696,600,-2120,-47,9,-2
8765,688,608,-2096,-47,11,-1
8770,608,664,-2168,-47,13,-2
8775,664,608,-2088,-47,12,-1
8780,680,632,-2104,-45,13,-1
8785,696,592,-2120,-45,14,-2
8790,672,600,-2120,-46,14,-1
8795,680,600,-2104,-49,13,-1
8800,680,608,-2104,-48,12,-1
8805,696,624,-2128,-49,14,-1
8810,688,584,-2144,-49,13,0
8815,688,592,-2120,-47,13,-1
8820,680,600,-2128,-45,11,-2
8825,616,656,-2128,-47,11,-3
8830,688,600,-2128,-44,11,-1
8835,656,608,-2120,-45,11,0
8840,688,608,-2112,-45,12,-2
8845,680,608,-2096,-45,13,-2
8850,672,616,-2104,-45,14,-3
8855,680,624,-2096,-46,13,-2
8860,672,600,-2136,-46,14,-2
8865,672,600,-2104,-47,15,-2
8870,696,624,-2096,-47,14,-2
8875,672,608,-2136,-45,14,-2
8880,672,608,-2120,-45,14,-2
8885,688,624,-2120,-46,14,-2
8890,672,584,-2120,-45,14,-2
8895,664,616,-2128,-45,14,-2
8900,680,592,-2104,-43,12,-2
8905,640,624,-2112,-44,11,-2
8910,688,608,-2096,-43,10,-1
8915,696,608,-2128,-43,10,0
8920,688,608,-2152,-40,10,-1
8925,672,608,-2120,-42,11,-2
8930,696,584,-2112,-43,11,-1
8935,688,600,-2088,-44,10,-2
8940,672,600,-2096,-44,11,-2
8945,680,584,-2128,-42,10,-2
8950,672,616,-2096,-41,11,-2
8955,656,616,-2112,-41,10,-1
8960,680,600,-2136,-39,9,-1
8965,656,608,-2128,-41,11,-1
8970,688,608,-2128,-41,11,-1
8975,688,624,-2128,-41,12,-3
8980,696,616,-2112,-43,12,-3
8985,680,608,-2120,-43,12,-3
8990,680,608,-2104,-44,13,-3
8995,672,616,-2104,-42,11,-3
9000,704,616,-2128,-43,9,-3
9005,704,600,-2096,-42,9,-1
9010,672,600,-2136,-41,12,-1
9015,696,592,-2104,-40,12,0
9020,688,592,-2120,-37,14,-1
9025,656,600,-2088,-36,16,-2
9030,680,592,-2104,-36,19,-2
9035,688,600,-2072,-40,19,-2
9040,672,592,-2096,-42,19,-2
9045,696,592,-2104,-45,21,-3
9050,696,592,-2104,-42,19,-3
9055,672,616,-2104,-40,16,-2
9060,688,608,-2112,-40,14,-2
9065,664,616,-2112,-39,10,0
9070,672,608,-2080,-41,7,0
9075,664,600,-2112,-41,7,-1
9080,688,616,-2120,-44,6,-2
9085,664,608,-2152,-45,10,-2
9090,704,608,-2128,-46,16,-2
9095,688,600,-2112,-47,17,-1
9100,648,608,-2168,-46,17,0
9105,680,592,-2128,-44,21,1
9110,688,616,-2120,-46,23,-1
9115,704,600,-2096,-45,23,0
9120,688,616,-2120,-44,22,0
9125,672,600,-2120,-42,18,0
9130,664,608,-2096,-43,17,-1
9135,672,616,-2112,-43,17,0
9140,680,624,-2096,-42,17,-1
9145,656,608,-2120,-37,17,-1
9150,664,616,-2104,-40,19,-2
9155,696,608,-2104,-44,17,-3
9160,696,608,-2120,-46,17,-3
9165,656,632,-2088,-46,17,-2
9170,656,616,-2120,-46,17,-1
9175,672,592,-2088,-46,18,-1
9180,672,616,-2096,-46,17,-2
9185,680,632,-2104,-47,17,-1
9190,656,584,-2096,-44,15,-1
9195,688,624,-2104,-43,14,0
9200,696,608,-2112,-43,16,-1
9205,656,616,-2120,-43,15,-2
9210,672,616,-2120,-42,15,-2
9215,672,608,-2096,-43,12,-2
9220,688,608,-2112,-41,13,-2
9225,688,600,-2120,-42,14,-1
9230,672,616,-2096,-42,11,-2
9235,680,616,-2120,-42,13,-1
9240,680,600,-2136,-43,13,-1
9245,680,600,-2104,-44,14,-1
9250,680,608,-2128,-44,14,-1
9255,688,584,-2120,-43,12,-3
9260,712,592,-2128,-42,12,-1
9265,680,600,-2112,-44,12,-1
9270,672,616,-2120,-44,10,-2
9275,696,608,-2136,-43,10,-2
9280,656,632,-2120,-43,11,-1
9285,664,592,-2112,-41,10,-1
9290,680,608,-2136,-42,11,-2
9295,672,608,-2144,-42,12,-2
9300,680,600,-2136,-43,15,-2
9305,688,624,-2120,-43,16,-1
9310,672,632,-2112,-45,17,-1
9315,664,616,-2104,-44,18,-1
9320,688,584,-2112,-45,17,-2
9325,688,608,-2128,-46,16,-2
9330,672,600,-2104,-46,15,-2
9335,672,616,-2120,-47,14,-2
9340,672,616,-2104,-48,12,-3
9345,680,608,-2104,-47,11,-3
9350,688,624,-2112,-48,10,-2
9355,688,584,-2112,-47,11,-2
9360,688,592,-2136,-46,11,-3
9365,704,608,-2120,-45,12,-2
9370,680,608,-2104,-46,14,-4
9375,672,624,-2128,-48,13,-3
9380,696,600,-2144,-47,13,-4
9385,688,592,-2112,-46,14,-3
9390,672,632,-2144,-46,16,-3
9395,696,584,-2112,-47,17,-4
9400,656,616,-2088,-48,17,-3
9405,704,600,-2120,-49,16,-4
9410,664,600,-2136,-49,16,-4
9415,688,608,-2096,-48,18,-4
9420,680,592,-2120,-49,16,-4
9425,680,600,-2104,-47,17,-3
9430,696,600,-2136,-49,16,-3
9435,696,632,-2128,-48,16,-3
9440,680,592,-2096,-47,16,-2
9445,688,616,-2112,-48,15,-3
9450,664,592,-2112,-47,18,-4
9455,680,608,-2128,-46,17,-3
9460,688,600,-2168,-46,16,-3
9465,696,608,-2104,-45,18,-3
9470,696,600,-2096,-45,17,-4
9475,656,608,-2112,-45,17,-3
9480,680,592,-2096,-45,17,-4
9485,680,608,-2128,-44,16,-3
9490,680,592,-2112,-45,16,-1
9495,672,624,-2064,-43,17,-2
9500,688,584,-2112,-41,13,-3
9505,672,592,-2144,-44,16,-4
9510,664,632,-2088,-47,17,-3
9515,696,624,-2136,-46,19,-3
9520,680,608,-2128,-46,20,-3
9525,704,608,-2120,-45,21,-2
9530,656,624,-2104,-44,21,0
9535,680,600,-2120,-45,22,-1
9540,688,592,-2104,-46,20,-2
9545,688,600,-2080,-47,20,-2
9550,672,600,-2104,-48,19,0
9555,672,616,-2136,-47,19,0
9560,688,608,-2120,-48,18,0
9565,672,600,-2112,-46,17,0
9570,672,600,-2112,-45,18,-2
9575,680,616,-2104,-45,16,-2
9580,672,600,-2136,-45,17,-1
9585,688,632,-2136,-45,17,-1
9590,656,608,-2120,-44,18,-1
9595,696,584,-2104,-46,18,-1
9600,672,600,-2112,-47,19,-2
9605,672,584,-2136,-47,19,-2
9610,656,592,-2120,-46,19,-1
9615,672,608,-2112,-48,19,-3
9620,696,600,-2144,-47,18,-2
9625,672,600,-2128,-47,17,-2
9630,688,608,-2112,-47,17,-2
9635,680,608,-2096,-45,17,-1
9640,696,616,-2088,-46,13,-3
9645,704,584,-2104,-45,14,-3
9650,656,616,-2112,-44,13,-1
9655,680,608,-2144,-42,15,0
9660,680,584,-2096,-43,18,-2
9665,672,592,-2120,-47,14,-2
9670,680,592,-2112,-48,16,-3
9675,680,608,-2120,-47,16,-1
9680,672,616,-2112,-46,17,-1
9685,696,600,-2120,-46,15,-2
9690,680,608,-2136,-43,15,-2
9695,696,608,-2072,-42,16,-3
9700,688,608,-2144,-41,16,-1
9705,696,584,-2120,-41,17,-3
9710,680,584,-2096,-41,17,-1
9715,672,600,-2096,-39,18,-1
9720,688,600,-2112,-39,17,-2
9725,728,592,-2112,-41,19,1
9730,664,592,-2128,-39,16,1
9735,696,624,-2128,-40,21,0
9740,672,584,-2104,-42,20,0
9745,672,592,-2144,-42,19,0
9750,744,552,-2056,-42,22,1
9755,696,584,-2120,-42,22,1
9760,680,608,-2136,-38,26,2
9765,712,592,-2112,-39,26,2
9770,688,608,-2104,-42,29,0
9775,720,576,-2064,-41,28,1
9780,624,616,-2136,-40,22,1
9785,664,608,-2160,-37,23,2
9790,672,600,-2144,-29,31,3
9795,680,584,-2112,-31,29,4
9800,704,600,-2128,-29,24,2
9805,656,608,-2232,-29,23,2
9810,648,608,-2144,-35,19,1
9815,672,592,-2144,-42,21,1
9820,688,600,-2152,-41,24,2
9825,672,592,-2144,-40,26,1
9830,688,592,-2136,-43,29,1
9835,672,600,-2104,-42,28,1
9840,664,576,-2168,-42,28,1
9845,656,592,-2136,-47,35,2
9850,680,592,-2120,-47,32,3
9855,688,608,-2064,-48,29,6
9860,680,600,-2104,-47,30,4
9865,688,600,-2144,-46,32,4
9870,696,584,-2112,-48,30,2
9875,672,624,-2096,-50,28,1
9880,688,608,-2104,-49,26,0
9885,712,592,-2112,-48,23,1
9890,688,608,-2144,-48,21,2
9895,688,616,-2112,-48,20,1
9900,680,600,-2104,-46,20,1
9905,696,616,-2128,-42,17,3
9910,680,600,-2144,-42,17,2
9915,696,600,-2112,-42,17,1
9920,688,592,-2088,-42,18,1
9925,704,600,-2144,-41,16,2
9930,696,608,-2104,-43,16,1
9935,696,584,-2088,-45,15,-1
9940,696,600,-2144,-44,14,1
9945,648,608,-2128,-41,16,3
9950,696,584,-2128,-39,17,2
9955,664,584,-2136,-42,15,0
9960,656,616,-2112,-44,15,0
9965,688,600,-2104,-44,13,3
9970,688,592,-2128,-41,14,2
9975,672,616,-2112,-40,14,3
9980,688,600,-2120,-40,14,2
9985,688,592,-2120,-42,11,2
9990,696,600,-2120,-44,12,2
9995,680,592,-2120,-46,12,2
10000,712,608,-2096,-46,12,1
10005,680,600,-2136,-48,12,1
10010,680,608,-2096,-47,13,0
10015,688,600,-2112,-47,12,2
10020,696,584,-2104,-45,13,1
10025,688,592,-2136,-47,12,0
10030,688,600,-2112,-48,13,1
10035,688,600,-2104,-48,15,0
10040,688,568,-2104,-48,16,0
10045,680,592,-2120,-48,15,-1
10050,696,592,-2136,-47,17,-1
10055,680,584,-2112,-49,17,-1
10060,688,608,-2120,-47,16,0
10065,688,584,-2112,-47,17,-1
10070,688,616,-2104,-48,17,-1
10075,696,592,-2144,-49,16,-1
10080,688,600,-2112,-47,19,0
10085,704,584,-2096,-49,18,-2
10090,712,584,-2080,-47,17,0
10095,664,600,-2096,-45,19,-1
10100,728,584,-2136,-45,22,-1
10105,680,616,-2112,-48,20,-1
10110,704,608,-2128,-50,19,-1
10115,688,584,-2136,-52,18,-3
10120,704,592,-2120,-52,17,-4
10125,656,600,-2120,-50,16,-3
10130,720,600,-2080,-52,19,-2
10135,696,592,-2152,-51,21,-3
10140,688,592,-2104,-50,20,-3
10145,664,624,-2144,-51,20,-4
10150,696,592,-2112,-50,19,-3
10155,672,592,-2120,-51,17,-2
10160,680,592,-2112,-49,20,-4
10165,696,608,-2112,-51,17,-5
10170,688,608,-2112,-50,18,-4
10175,688,608,-2136,-50,16,-5
10180,680,616,-2120,-49,17,-3
10185,696,600,-2104,-50,17,-3
10190,680,584,-2104,-47,17,-3
10195,704,608,-2112,-48,16,-3
10200,680,608,-2088,-47,17,-2
10205,680,584,-2120,-48,14,-3
10210,680,584,-2104,-49,16,-4
10215,680,592,-2136,-50,16,-4
10220,680,608,-2136,-48,16,-4
10225,696,600,-2096,-46,14,-4
10230,688,600,-2112,-46,15,-2
10235,680,608,-2128,-44,14,-3
10240,696,600,-2120,-43,14,-3
10245,680,592,-2120,-44,14,-2
10250,696,592,-2112,-45,14,-2
10255,712,608,-2120,-44,14,-4
10260,672,616,-2096,-43,14,-3
10265,672,600,-2120,-44,17,-2
10270,704,608,-2112,-44,18,-2
10275,672,608,-2112,-45,17,-2
10280,696,608,-2136,-45,17,-3
10285,704,592,-2112,-45,17,-3
10290,704,600,-2080,-47,15,-2
10295,680,600,-2088,-46,15,-2
10300,696,592,-2112,-45,14,-3
10305,680,608,-2136,-44,14,-2
10310,688,592,-2120,-43,15,-2
10315,688,600,-2112,-43,15,-1
10320,704,600,-2144,-44,14,-2
10325,704,600,-2104,-44,16,-3
10330,680,616,-2104,-45,16,-1
10335,704,600,-2136,-45,16,-1
10340,680,592,-2120,-45,17,-1
10345,696,624,-2088,-46,15,-2
10350,688,600,-2104,-48,15,-3
10355,696,600,-2144,-47,15,-2
10360,688,600,-2128,-46,15,-3
10365,696,608,-2112,-44,14,-3
10370,664,624,-2120,-44,14,-2
10375,696,600,-2136,-44,14,-3
10380,688,616,-2120,-44,13,-3
10385,688,592,-2080,-44,15,-3
10390,696,592,-2120,-44,14,-2
10395,704,584,-2088,-44,15,-2
10400,664,624,-2104,-45,17,-3
10405,680,584,-2120,-45,17,-3
10410,688,592,-2144,-45,18,-2
10415,688,600,-2120,-46,17,-3
10420,696,608,-2128,-47,16,-2
10425,688,616,-2112,-45,15,-3
10430,704,608,-2104,-43,16,-4
10435,688,600,-2144,-42,17,-4
10440,680,600,-2152,-43,16,-3
10445,760,592,-2112,-40,18,-2
10450,688,600,-2160,-36,19,-1
10455,680,600,-2136,-39,22,-2
10460,696,592,-2096,-41,22,-3
10465,704,592,-2088,-43,20,-3
10470,664,600,-2096,-43,18,-3
10475,680,584,-2088,-45,18,-2
10480,680,600,-2128,-48,16,-3
10485,696,608,-2104,-46,19,-2
10490,696,608,-2128,-41,21,0
10495,696,584,-2104,-36,22,0
10500,696,600,-2104,-38,28,0
10505,680,584,-2096,-44,28,-2
10510,672,616,-2064,-49,26,-2
10515,688,584,-2136,-41,24,0
10520,680,592,-2144,-36,23,0
10525,720,600,-2144,-34,24,0
10530,688,584,-2136,-33,22,1
10535,704,624,-2136,-35,20,0
10540,672,600,-2120,-38,18,0
10545,696,592,-2136,-39,19,0
10550,704,600,-2112,-42,24,0
10555,688,584,-2120,-46,23,0
10560,712,584,-2088,-49,26,0
10565,688,600,-2120,-49,25,0
10570,664,592,-2104,-50,25,-1
10575,712,600,-2120,-51,21,2
10580,696,600,-2088,-48,21,3
10585,696,600,-2136,-43,23,3
10590,704,608,-2096,-42,22,3
10595,704,608,-2152,-44,21,2
10600,704,600,-2152,-45,25,2
10605,680,600,-2104,-48,21,-1
10610,712,592,-2104,-48,21,-2
10615,696,616,-2080,-50,20,-2
10620,704,600,-2144,-51,18,-3
10625,672,600,-2104,-51,18,-3
10630,696,584,-2080,-51,19,-3
10635,688,584,-2120,-50,19,-1
10640,704,608,-2152,-49,17,-2
10645,680,600,-2128,-48,17,-3
10650,680,624,-2112,-48,16,-3
10655,680,592,-2120,-48,17,-2
10660,680,600,-2080,-48,17,-3
10665,728,592,-2104,-49,16,-3
10670,696,584,-2120,-47,14,-3
10675,608,552,-2040,-47,15,-2
10680,696,608,-2112,-46,15,-2
10685,680,600,-2112,-47,14,-2
10690,688,600,-2104,-46,15,-2
10695,696,592,-2120,-47,12,-3
10700,696,600,-2096,-47,13,-3
10705,720,584,-2120,-47,13,-2
10710,712,592,-2120,-47,15,-3
10715,696,608,-2104,-45,16,-2
10720,720,600,-2120,-46,15,-2
10725,680,600,-2136,-47,15,-2
10730,680,616,-2064,-48,15,-2
10735,680,592,-2104,-49,13,-3
10740,688,616,-2128,-50,12,-5
10745,688,608,-2120,-49,12,-3
10750,680,592,-2136,-49,13,-2
10755,688,592,-2136,-48,12,-1
10760,688,584,-2112,-48,13,-4
10765,672,600,-2056,-49,15,-4
10770,656,600,-2128,-48,14,-2
10775,696,608,-2096,-49,14,-3
10780,688,592,-2104,-49,15,-2
10785,664,672,-2200,-49,16,-2
10790,688,616,-2080,-50,16,-3
10795,696,600,-2112,-50,16,-2
10800,696,616,-2088,-48,17,-2
10805,704,616,-2096,-48,14,-2
10810,688,600,-2136,-51,14,-3
10815,664,608,-2120,-49,14,-2
10820,688,608,-2128,-50,14,-3
10825,704,592,-2120,-50,14,-4
10830,680,600,-2088,-49,14,-1
10835,704,592,-2144,-50,15,-3
10840,672,584,-2120,-50,16,-3
10845,672,616,-2128,-49,18,-4
10850,680,584,-2168,-49,19,-3
10855,696,592,-2136,-50,18,-4
10860,712,616,-2120,-50,18,-4
10865,688,576,-2104,-50,18,-3
10870,688,600,-2144,-49,17,-3
10875,712,576,-2128,-47,18,-3
10880,696,592,-2112,-47,15,-3
10885,712,592,-2104,-47,16,-4
10890,656,608,-2104,-48,16,-3
10895,704,592,-2104,-47,15,-3
10900,704,616,-2128,-47,15,-3
10905,712,592,-2144,-47,15,-4
10910,704,584,-2088,-47,15,-3
10915,672,592,-2112,-48,15,-2
10920,704,600,-2112,-48,16,-3
10925,688,608,-2120,-44,17,-3
10930,696,600,-2120,-43,16,-3
10935,688,624,-2088,-45,14,-3
10940,696,608,-2112,-46,15,-3
10945,688,592,-2104,-44,15,-4
10950,664,616,-2080,-45,14,-3
10955,696,600,-2088,-43,12,-2
10960,680,608,-2104,-47,14,-2
10965,704,592,-2144,-48,11,-1
10970,688,600,-2128,-46,14,-3
10975,696,624,-2072,-44,13,-2
10980,704,600,-2112,-45,13,-4
10985,712,600,-2112,-46,13,-1
10990,680,608,-2112,-49,15,-2
10995,688,616,-2088,-49,14,-3
11000,688,600,-2128,-50,15,-1
11005,696,608,-2096,-49,15,-3
11010,696,592,-2112,-51,14,-3
11015,704,608,-2104,-50,13,-3
11020,704,592,-2104,-50,15,-3
11025,712,584,-2096,-50,15,-4
11030,704,608,-2104,-52,15,-4
11035,688,592,-2112,-51,14,-3
11040,696,608,-2112,-50,12,-4
11045,704,592,-2120,-50,12,-3
11050,696,600,-2096,-48,11,-3
11055,688,600,-2136,-46,12,-3
11060,704,600,-2128,-47,14,-3
11065,680,616,-2112,-45,13,-5
11070,696,608,-2112,-47,14,-4
11075,664,600,-2136,-46,15,-4
11080,696,608,-2112,-46,16,-4
11085,680,584,-2096,-47,17,-4
11090,680,600,-2120,-45,16,-5
11095,712,600,-2104,-47,16,-3
11100,688,592,-2136,-47,14,-4
11105,688,608,-2112,-48,15,-5
11110,696,600,-2120,-47,13,-4
11115,704,608,-2112,-46,13,-3
11120,704,600,-2088,-44,13,-3
11125,688,576,-2144,-45,13,-4
11130,680,592,-2120,-46,13,-5
11135,672,608,-2096,-46,15,-4
11140,704,600,-2112,-47,13,-4
11145,688,600,-2104,-46,12,-5
11150,696,600,-2120,-47,14,-5
11155,712,576,-2112,-47,15,-3
11160,704,592,-2160,-47,14,-5
11165,704,592,-2104,-46,12,-5
11170,680,600,-2112,-44,12,-5
11175,696,608,-2096,-44,12,-4
11180,712,600,-2128,-44,13,-3
11185,712,592,-2120,-45,15,-3
11190,696,616,-2120,-45,14,-2
11195,696,600,-2112,-45,16,-4
11200,712,600,-2104,-44,15,-4
11205,688,616,-2128,-45,15,-3
11210,696,584,-2112,-44,15,-3
11215,712,600,-2112,-44,13,-3
11220,688,600,-2128,-43,12,-4
11225,704,592,-2096,-43,12,-3
11230,696,616,-2128,-42,13,-3
11235,680,608,-2128,-42,15,-2
11240,680,608,-2144,-42,17,-3
11245,696,608,-2088,-45,18,-2
11250,672,592,-2104,-47,19,-1
11255,704,592,-2144,-48,17,-2
11260,688,600,-2136,-46,19,-2
11265,688,608,-2120,-41,16,-2
11270,704,592,-2128,-39,14,-3
11275,696,600,-2144,-38,9,-1
11280,696,584,-2112,-39,7,0
11285,688,608,-2096,-44,7,-1
11290,680,600,-2128,-46,10,-1
11295,688,592,-2152,-46,12,-3
11300,672,600,-2104,-48,15,-1
11305,696,592,-2104,-48,19,-2
11310,704,584,-2120,-49,22,-2
11315,680,600,-2112,-49,23,-2
11320,696,624,-2112,-49,24,-3
11325,688,624,-2168,-50,23,-4
11330,680,616,-2096,-51,22,-3
11335,680,592,-2144,-51,22,-3
11340,712,600,-2120,-49,21,-2
11345,672,624,-2104,-49,20,-3
11350,688,576,-2088,-49,18,-3
11355,664,632,-2080,-50,15,-5
11360,688,608,-2128,-50,15,-3
11365,704,616,-2128,-50,15,-3
11370,712,600,-2096,-51,14,-3
11375,712,584,-2128,-50,15,-5
11380,704,608,-2104,-49,14,-4
11385,656,624,-2080,-49,13,-4
11390,688,592,-2104,-47,14,-4
11395,696,608,-2136,-47,15,-2
11400,720,600,-2096,-48,15,-2
11405,728,600,-2120,-46,15,-3
11410,688,608,-2136,-47,15,-3
11415,696,608,-2112,-47,14,-3
11420,712,584,-2088,-46,14,-3
11425,680,592,-2104,-46,14,-2
11430,704,584,-2104,-47,12,-4
11435,696,592,-2096,-47,11,-3
11440,704,600,-2160,-44,12,-4
11445,680,640,-2088,-44,14,-3
11450,704,600,-2112,-45,16,-2
11455,712,584,-2120,-46,17,-2
11460,704,616,-2104,-47,17,-1
11465,688,608,-2104,-46,14,-3
11470,680,592,-2088,-48,13,-4
11475,696,600,-2088,-48,13,-2
11480,688,592,-2104,-47,11,-3
11485,704,600,-2120,-47,9,-3
11490,696,584,-2096,-47,7,-2
11495,680,600,-2136,-46,6,-2
11500,704,592,-2096,-45,7,-3
11505,672,608,-2112,-45,11,-4
11510,672,576,-2096,-48,12,-4
11515,688,608,-2128,-47,15,-3
11520,680,600,-2112,-47,18,-2
11525,696,600,-2104,-48,19,-2
11530,696,608,-2144,-49,18,-2
11535,680,600,-2120,-49,16,-2
11540,696,592,-2120,-51,15,-3
11545,696,600,-2096,-50,13,-3
11550,704,600,-2120,-49,12,-4
11555,696,608,-2080,-49,11,-4
11560,688,616,-2088,-49,11,-3
11565,696,600,-2120,-50,12,-4
11570,696,600,-2104,-50,14,-6
11575,688,616,-2136,-51,15,-5
11580,704,576,-2128,-50,17,-4
11585,728,576,-2104,-49,17,-4
11590,696,600,-2120,-50,19,-4
11595,696,592,-2112,-50,19,-5
11600,696,600,-2104,-49,18,-4
11605,688,616,-2112,-49,16,-5
11610,688,608,-2112,-49,17,-6
11615,712,592,-2112,-49,16,-5
11620,696,616,-2128,-48,16,-5
11625,680,600,-2128,-47,16,-4
11630,680,592,-2120,-47,15,-4
11635,696,600,-2080,-47,13,-3
11640,704,608,-2112,-45,14,-3
11645,712,624,-2112,-45,13,-5
11650,696,592,-2096,-47,14,-5
11655,704,680,-2200,-44,14,-5
11660,696,584,-2104,-43,13,-4
11665,688,608,-2104,-44,12,-4
11670,712,616,-2112,-43,14,-2
11675,688,608,-2096,-43,14,-3
11680,664,608,-2088,-43,15,-3
11685,704,584,-2104,-44,17,-4
11690,704,592,-2128,-44,16,-2
11695,688,592,-2136,-43,15,-2
11700,704,592,-2120,-45,15,-2
11705,688,600,-2096,-44,14,-4
11710,712,672,-2216,-45,14,-3
11715,696,584,-2120,-46,14,-2
11720,696,584,-2128,-45,12,-2
11725,696,600,-2080,-42,15,-1
11730,688,600,-2112,-42,15,-1
11735,680,576,-2136,-42,15,-3
11740,680,616,-2136,-43,15,-2
11745,696,600,-2112,-45,16,-1
11750,680,592,-2128,-44,17,-1
11755,696,616,-2112,-46,17,-1
11760,680,600,-2104,-44,15,-1
11765,712,664,-2208,-45,17,-2
11770,688,592,-2112,-46,17,-2
11775,720,600,-2128,-46,15,-2
11780,664,616,-2128,-48,13,-2
11785,696,600,-2080,-48,14,-3
11790,720,600,-2088,-49,13,-3
11795,712,584,-2112,-47,14,-3
11800,704,608,-2112,-45,16,-2
11805,688,600,-2112,-45,16,-3
11810,696,584,-2120,-46,16,-3
11815,688,592,-2088,-46,16,-2
11820,640,672,-2088,-46,16,-3
11825,712,600,-2096,-47,17,-4
11830,728,584,-2144,-48,16,-4
11835,704,576,-2120,-48,16,-3
11840,688,600,-2120,-47,16,-3
11845,696,592,-2152,-48,14,-4
11850,696,600,-2088,-49,14,-4
11855,680,592,-2104,-46,14,-3
11860,696,608,-2112,-48,15,-3
11865,688,600,-2120,-46,15,-4
11870,696,592,-2088,-46,16,-3
11875,688,592,-2096,-47,15,-3
11880,672,608,-2096,-48,14,-4
11885,696,608,-2112,-49,15,-4
11890,704,584,-2136,-50,13,-3
11895,704,616,-2136,-47,13,-4
11900,672,624,-2112,-47,13,-3
11905,712,584,-2120,-44,12,-4
11910,712,608,-2104,-45,13,-4
11915,680,616,-2120,-46,13,-4
11920,680,600,-2096,-44,13,-4
11925,696,616,-2120,-45,14,-4
11930,664,640,-2128,-45,14,-3
11935,688,600,-2120,-45,15,-2
11940,720,600,-2112,-46,15,-2
11945,728,584,-2096,-44,14,-2
11950,720,592,-2096,-43,13,-2
11955,712,576,-2096,-43,14,-3
11960,696,584,-2112,-41,14,-2
11965,704,608,-2120,-42,15,-2
11970,704,592,-2120,-43,16,-2
11975,688,600,-2080,-44,17,-2
11980,712,592,-2104,-47,18,-3
11985,696,600,-2096,-47,19,-3
11990,696,600,-2112,-43,19,-2
11995,712,600,-2088,-39,17,-1
12000,680,616,-2120,-38,13,-1
12005,680,592,-2096,-39,10,-1
12010,704,608,-2096,-39,10,0
12015,696,592,-2112,-44,8,-1
12020,696,608,-2104,-45,10,1
12025,656,608,-2080,-46,11,3
12030,720,576,-2128,-43,13,4
12035,704,608,-2120,-45,15,3
12040,712,600,-2088,-47,17,1
12045,696,592,-2104,-50,18,0
12050,680,616,-2104,-51,17,-1
12055,688,584,-2104,-50,16,-2
12060,704,608,-2128,-52,15,-2
12065,728,592,-2128,-53,17,-3
12070,688,616,-2120,-53,16,-3
12075,720,624,-2088,-55,15,-4
12080,704,600,-2072,-54,15,-5
12085,696,616,-2120,-56,15,-3
12090,696,600,-2112,-56,13,-5
12095,704,576,-2104,-56,12,-5
12100,704,616,-2120,-56,10,-4
12105,720,600,-2120,-54,8,-6
12110,712,600,-2104,-54,8,-6
12115,712,592,-2112,-54,7,-7
12120,680,624,-2104,-52,7,-7
12125,704,592,-2120,-52,7,-7
12130,688,600,-2120,-53,5,-6
12135,680,608,-2072,-52,5,-7
12140,712,600,-2112,-51,6,-6
12145,720,592,-2120,-51,7,-6
12150,680,624,-2168,-52,8,-6
12155,688,600,-2112,-51,8,-6
12160,696,592,-2120,-51,8,-6
12165,704,592,-2112,-50,9,-5
12170,696,592,-2120,-49,10,-5
12175,672,600,-2080,-47,10,-6
12180,688,608,-2104,-46,10,-7
12185,704,616,-2088,-48,10,-4
12190,672,592,-2088,-49,9,-5
12195,672,608,-2112,-49,9,-5
12200,696,592,-2104,-47,8,-4
12205,680,624,-2096,-47,7,-5
12210,664,600,-2112,-49,7,-5
12215,648,592,-2104,-48,2,-3
12220,712,608,-2088,-47,3,-4
12225,752,632,-2112,-45,7,-2
12230,736,600,-2088,-46,12,-2
12235,688,608,-2104,-47,12,-2
12240,680,584,-2120,-47,11,-3
12245,712,576,-2096,-46,8,-4
12250,696,600,-2104,-43,5,-4
12255,704,608,-2128,-43,3,-4
12260,704,592,-2120,-42,3,-3
12265,696,600,-2120,-42,2,-2
12270,680,600,-2128,-44,2,-2
12275,672,608,-2144,-45,2,-5
12280,696,592,-2112,-48,2,-4
12285,696,592,-2096,-50,4,-5
12290,688,592,-2112,-49,7,-4
12295,704,592,-2112,-51,10,-5
12300,688,608,-2112,-52,11,-5
12305,672,592,-2104,-54,13,-5
12310,696,608,-2136,-54,14,-5
12315,688,584,-2088,-52,14,-5
12320,696,584,-2152,-50,16,-5
12325,704,608,-2128,-53,15,-5
12330,688,624,-2136,-53,13,-5
12335,696,608,-2080,-52,13,-6
12340,704,592,-2104,-52,13,-5
12345,680,592,-2120,-52,13,-6
12350,712,608,-2104,-51,12,-7
12355,688,600,-2104,-53,12,-6
12360,696,592,-2112,-53,11,-5
12365,688,608,-2096,-50,11,-4
12370,712,576,-2104,-49,11,-5
12375,680,624,-2112,-49,11,-4
12380,680,608,-2104,-50,12,-6
12385,712,584,-2096,-50,12,-5
12390,688,608,-2136,-49,13,-5
12395,672,600,-2064,-50,12,-3
12400,688,616,-2128,-49,11,-5
12405,680,616,-2080,-49,11,-3
12410,704,592,-2112,-47,10,-4
12415,696,576,-2128,-48,11,-4
12420,696,608,-2128,-49,12,-4
12425,664,608,-2128,-48,11,-3
12430,688,592,-2136,-49,10,-3
12435,672,616,-2160,-49,10,-4
12440,688,608,-2120,-49,10,-5
12445,664,600,-2096,-48,11,-4
12450,688,616,-2128,-48,11,-4
12455,680,608,-2128,-48,10,-5
12460,688,600,-2088,-48,11,-4
12465,680,600,-2112,-47,10,-4
12470,688,608,-2096,-45,10,-4
12475,688,624,-2104,-46,11,-4
12480,688,600,-2112,-46,11,-4
12485,712,600,-2112,-44,11,-4
12490,688,600,-2128,-45,13,-3
12495,696,600,-2072,-45,14,-4
12500,680,608,-2120,-45,14,-2
12505,696,592,-2112,-43,13,-3
12510,712,560,-2136,-45,13,-3
12515,680,592,-2104,-47,14,-3
12520,720,592,-2120,-49,15,-4
12525,680,600,-2120,-47,15,-4
12530,688,616,-2104,-49,15,-3
12535,680,616,-2128,-48,13,-4
12540,688,600,-2104,-49,13,-4
12545,712,608,-2120,-48,13,-5
12550,688,608,-2088,-47,12,-5
12555,696,584,-2120,-49,14,-3
12560,672,616,-2096,-47,15,-4
12565,712,584,-2096,-48,15,-3
12570,704,600,-2096,-47,13,-4
12575,688,576,-2104,-47,15,-5
12580,672,584,-2128,-48,14,-6
12585,696,592,-2112,-48,14,-4
12590,688,592,-2128,-51,12,-5
12595,688,608,-2104,-50,10,-5
12600,696,592,-2120,-47,9,-6
12605,672,608,-2152,-48,10,-6
12610,672,616,-2080,-47,10,-5
12615,696,592,-2144,-47,10,-3
12620,680,608,-2120,-46,10,-3
12625,688,616,-2096,-45,12,-4
12630,680,608,-2144,-46,12,-5
12635,664,600,-2208,-43,10,-5
12640,680,576,-2120,-42,12,-3
12645,688,584,-2112,-42,11,-4
12650,688,592,-2144,-40,12,-3
12655,696,600,-2088,-39,12,-1
12660,688,608,-2136,-40,14,-2
12665,688,568,-2096,-41,14,-3
12670,688,600,-2128,-44,14,-3
12675,680,600,-2120,-48,13,-4
12680,720,584,-2072,-52,13,-4
12685,688,600,-2096,-53,12,-4
12690,568,600,-2216,-52,12,-5
12695,704,584,-2112,-49,9,-5
12700,672,616,-2120,-47,7,-4
12705,704,576,-2120,-44,2,-3
12710,672,616,-2128,-44,1,-3
12715,688,600,-2136,-44,2,-3
12720,672,592,-2144,-46,2,-4
12725,680,608,-2112,-48,6,-5
12730,688,608,-2104,-49,12,-5
12735,680,616,-2096,-49,14,-5
12740,680,608,-2120,-52,18,-3
12745,752,656,-2248,-52,18,-5
12750,712,584,-2128,-53,20,-3
12755,688,616,-2112,-54,21,-4
12760,680,608,-2112,-53,18,-5
12765,688,624,-2120,-52,18,-5
12770,688,616,-2104,-53,16,-6
12775,672,624,-2088,-51,14,-7
12780,688,624,-2104,-50,12,-5
12785,696,600,-2104,-50,11,-5
12790,688,592,-2120,-50,9,-6
12795,688,600,-2096,-49,10,-5
12800,696,600,-2128,-49,11,-5
12805,672,624,-2096,-50,10,-6
12810,696,616,-2136,-49,9,-5
12815,720,608,-2112,-49,10,-6
12820,664,616,-2104,-49,9,-6
12825,720,600,-2120,-48,8,-5
12830,672,584,-2112,-49,8,-5
12835,696,608,-2096,-47,8,-6
12840,688,608,-2120,-47,6,-5
12845,696,608,-2120,-46,7,-5
12850,688,616,-2120,-45,6,-3
12855,688,592,-2112,-45,7,-3
12860,688,608,-2168,-46,7,-4
12865,712,600,-2136,-46,8,-3
12870,688,600,-2120,-44,7,-5
12875,680,616,-2104,-45,7,-4
12880,672,608,-2120,-44,7,-4
12885,696,584,-2120,-44,5,-4
12890,656,592,-2104,-46,6,-3
12895,664,608,-2120,-45,6,-3
12900,664,608,-2096,-44,7,-3
12905,680,600,-2120,-44,7,-4
12910,688,592,-2128,-47,8,-4
12915,672,608,-2104,-46,9,-4
12920,688,584,-2136,-46,9,-2
12925,704,600,-2120,-44,12,-3
12930,680,600,-2136,-47,12,-2
12935,672,600,-2136,-45,13,-3
12940,680,584,-2104,-46,13,-4
12945,680,592,-2104,-47,12,-4
12950,688,592,-2104,-47,10,-3
12955,696,616,-2120,-44,10,-3
12960,680,616,-2112,-47,10,-3
12965,672,608,-2136,-46,8,-3
12970,688,608,-2128,-46,8,-3
12975,680,624,-2120,-45,9,-1
12980,696,592,-2112,-47,9,-3
12985,704,616,-2112,-48,9,-4
12990,696,600,-2136,-49,9,-5
12995,672,592,-2152,-51,12,-4
13000,688,600,-2120,-51,12,-4
13005,688,600,-2120,-51,13,-5
13010,696,616,-2096,-50,12,-5
13015,696,608,-2112,-50,13,-5
13020,680,608,-2120,-51,14,-7
13025,656,608,-2096,-52,12,-5
13030,688,624,-2104,-53,13,-6
13035,672,600,-2104,-53,13,-6
13040,704,608,-2112,-53,11,-4
13045,680,600,-2112,-51,12,-4
13050,688,600,-2112,-50,13,-4
13055,680,584,-2104,-49,12,-5
13060,688,600,-2120,-49,11,-5
13065,696,600,-2136,-49,10,-5
13070,704,592,-2096,-48,10,-3
13075,656,584,-2120,-48,10,-4
13080,672,608,-2128,-49,10,-5
13085,688,600,-2112,-48,12,-5
13090,672,616,-2096,-48,12,-4
13095,672,600,-2120,-46,12,-4
13100,688,600,-2120,-47,11,-4
13105,720,632,-2080,-46,12,-4
13110,688,600,-2120,-47,12,-3
13115,688,600,-2112,-46,11,-5
13120,696,600,-2096,-49,12,-5
13125,680,576,-2120,-47,12,-3
13130,656,624,-2128,-47,11,-3
13135,712,600,-2096,-46,12,-3
13140,680,608,-2120,-45,10,-3
13145,704,600,-2096,-47,8,-3
13150,688,616,-2120,-48,10,-3
13155,688,616,-2112,-49,8,-5
13160,704,584,-2104,-48,10,-3
13165,680,608,-2128,-48,10,-4
13170,696,584,-2096,-47,10,-3
13175,688,600,-2112,-46,11,-4
13180,688,584,-2104,-46,11,-2
13185,664,592,-2112,-47,10,-3
13190,664,616,-2152,-48,10,-2
13195,704,592,-2152,-46,11,-3
13200,688,592,-2096,-46,10,-3
13205,680,592,-2120,-46,10,-4
13210,696,592,-2128,-47,10,-4
13215,696,592,-2112,-46,10,-3
13220,664,624,-2128,-47,10,-3
13225,664,600,-2104,-46,12,-2
13230,696,592,-2088,-46,12,-3
13235,696,592,-2112,-46,11,-3
13240,728,608,-2120,-46,11,-5
13245,704,592,-2104,-46,10,-4
13250,688,592,-2112,-46,11,-4
13255,672,616,-2088,-46,11,-4
13260,672,592,-2112,-46,11,-4
13265,672,608,-2120,-44,13,-4
13270,688,608,-2128,-46,13,-4
13275,680,608,-2128,-44,15,-4
13280,664,616,-2128,-43,15,-4
13285,688,592,-2128,-42,18,-4
13290,672,616,-2168,-41,16,-3
13295,704,584,-2136,-40,16,-3
13300,688,608,-2120,-39,19,-1
13305,688,584,-2136,-38,20,-2
13310,688,616,-2120,-39,23,-5
13315,680,608,-2120,-39,24,-3
13320,672,616,-2136,-40,23,-4
13325,680,608,-2104,-40,23,-5
13330,672,624,-2104,-40,22,-3
13335,680,608,-2112,-42,22,-2
13340,696,600,-2104,-43,21,-2
13345,688,616,-2096,-42,20,-2
13350,672,600,-2088,-42,20,-2
13355,672,600,-2112,-41,21,-2
13360,680,600,-2120,-41,21,-3
13365,696,584,-2104,-40,19,-2
13370,720,576,-2112,-42,21,-3
13375,696,592,-2104,-45,21,-3
13380,664,600,-2104,-49,21,-3
13385,672,616,-2088,-52,21,-3
13390,680,616,-2088,-52,19,-4
13395,680,600,-2104,-50,17,-4
13400,696,600,-2128,-45,14,-3
13405,688,600,-2088,-42,10,-3
13410,720,600,-2136,-44,6,-4
13415,680,600,-2104,-43,5,-3
13420,664,592,-2104,-44,6,-3
13425,704,600,-2120,-43,10,-4
13430,680,608,-2136,-45,16,-3
13435,688,584,-2112,-46,19,-3
13440,696,608,-2120,-46,21,-4
13445,696,608,-2160,-49,24,-4
13450,680,592,-2088,-50,25,-4
13455,688,592,-2144,-51,24,-3
13460,688,608,-2088,-51,24,-2
13465,680,624,-2128,-51,24,-5
13470,696,600,-2104,-52,21,-4
13475,696,616,-2120,-51,19,-4
13480,696,624,-2128,-52,19,-5
13485,680,616,-2128,-53,18,-5
13490,704,592,-2104,-50,17,-5
13495,688,592,-2096,-49,16,-5
13500,696,600,-2104,-50,15,-4
13505,672,584,-2088,-49,15,-3
13510,680,608,-2088,-50,13,-5
13515,696,616,-2112,-49,11,-3
13520,672,616,-2096,-48,10,-5
13525,680,600,-2120,-48,10,-5
13530,672,600,-2112,-47,8,-6
13535,704,608,-2104,-47,8,-4
13540,656,600,-2088,-46,8,-4
13545,680,608,-2128,-45,7,-4
13550,680,592,-2120,-44,6,-5
13555,664,624,-2104,-46,7,-4
13560,680,584,-2136,-44,7,-5
13565,648,632,-2112,-45,8,-3
13570,720,600,-2120,-43,9,-4
13575,680,592,-2136,-44,9,-4
13580,680,592,-2112,-44,9,-4
13585,680,624,-2128,-43,9,-3
13590,688,592,-2120,-43,9,-2
13595,704,584,-2104,-43,9,-4
13600,704,632,-2128,-42,10,-3
13605,680,592,-2136,-42,9,-4
13610,680,608,-2120,-41,11,-3
13615,688,712,-2136,-42,11,-1
13620,696,624,-2136,-44,13,-3
13625,688,600,-2096,-45,16,-2
13630,680,616,-2136,-45,16,-2
13635,688,592,-2104,-45,17,-3
13640,664,608,-2120,-46,18,-2
13645,696,592,-2136,-46,18,-3
13650,672,584,-2112,-47,18,-3
13655,696,584,-2120,-48,17,-4
13660,688,600,-2104,-49,16,-3
13665,680,616,-2128,-47,14,-1
13670,664,568,-2024,-46,14,-1
13675,680,600,-2104,-44,14,-3
13680,704,608,-2160,-45,14,-3
13685,688,600,-2112,-46,14,-3
13690,672,624,-2136,-46,14,-5
13695,688,600,-2136,-47,15,-5
13700,688,616,-2128,-50,15,-5
13705,704,616,-2128,-51,15,-4
13710,688,600,-2088,-49,16,-4
13715,696,616,-2104,-51,17,-3
13720,680,592,-2088,-49,16,-4
13725,688,608,-2120,-51,16,-4
13730,688,592,-2144,-51,18,-4
13735,688,608,-2144,-50,19,-3
13740,696,592,-2120,-50,15,-4
13745,696,592,-2080,-49,17,-4
13750,688,600,-2104,-49,17,-4
13755,656,600,-2096,-48,17,-4
13760,696,608,-2128,-49,15,-4
13765,688,592,-2088,-50,15,-5
13770,672,608,-2104,-50,14,-4
13775,680,600,-2128,-50,12,-6
13780,672,600,-2088,-50,12,-4
13785,704,600,-2112,-48,13,-4
13790,680,592,-2136,-48,13,-5
13795,672,616,-2120,-47,12,-4
13800,688,608,-2104,-48,13,-3
13805,672,616,-2120,-46,13,-5
13810,680,592,-2104,-47,11,-4
13815,704,584,-2104,-46,11,-3
13820,696,584,-2104,-47,11,-4
13825,688,600,-2120,-47,12,-3
13830,680,600,-2152,-47,12,-3
13835,680,624,-2112,-48,13,-3
13840,680,600,-2112,-48,15,-4
13845,696,608,-2120,-49,15,-5
13850,688,600,-2088,-51,17,-4
13855,696,616,-2128,-51,16,-4
13860,680,624,-2096,-51,17,-4
13865,680,616,-2104,-50,16,-5
13870,680,616,-2112,-50,15,-5
13875,664,624,-2088,-48,15,-4
13880,688,608,-2128,-45,12,-4
13885,680,592,-2120,-42,13,-2
13890,680,608,-2144,-44,12,-3
13895,688,608,-2088,-44,12,-3
13900,688,592,-2104,-44,14,-3
13905,680,616,-2136,-45,15,-2
13910,704,608,-2128,-44,15,-3
13915,688,592,-2112,-47,15,-5
13920,672,608,-2104,-48,16,-3
13925,672,608,-2120,-46,15,-2
13930,696,624,-2096,-46,13,-3
13935,688,608,-2112,-46,14,-3
13940,680,632,-2088,-45,13,-3
13945,688,624,-2128,-44,12,-4
13950,672,608,-2128,-45,12,-4
13955,672,592,-2120,-46,12,-4
13960,696,584,-2104,-45,11,-2
13965,688,600,-2144,-46,12,-3
13970,688,608,-2104,-47,11,-4
13975,688,592,-2096,-48,13,-3
13980,680,624,-2096,-50,12,-5
13985,696,592,-2112,-49,12,-5
13990,704,584,-2128,-50,11,-4
13995,672,608,-2096,-50,12,-5
14000,680,624,-2120,-49,13,-3
14005,664,608,-2120,-46,13,-4
14010,672,584,-2136,-45,13,-4
14015,672,632,-2096,-44,13,-4
14020,680,600,-2088,-44,15,-3
14025,688,632,-2120,-47,17,-4
14030,696,600,-2112,-46,17,-3
14035,680,616,-2144,-45,16,-3
14040,664,616,-2136,-47,16,-3
14045,672,616,-2136,-45,15,-3
14050,688,600,-2136,-45,14,-3
14055,696,600,-2120,-42,14,-3
14060,688,592,-2120,-41,14,-2
14065,680,592,-2128,-40,16,-3
14070,672,584,-2112,-42,15,-2
14075,696,584,-2112,-46,17,-3
14080,680,592,-2104,-49,16,-3
14085,672,600,-2104,-54,17,-3
14090,688,608,-2104,-53,16,-3
14095,680,608,-2104,-52,15,-3
14100,672,608,-2144,-48,11,-3
14105,688,592,-2136,-45,8,-3
14110,696,632,-2160,-43,5,-3
14115,680,624,-2144,-45,4,-2
14120,664,592,-2112,-45,6,-5
14125,688,576,-2144,-48,9,-4
14130,680,608,-2128,-49,11,-5
14135,672,624,-2120,-47,15,-5
14140,672,592,-2112,-48,19,-3
14145,704,616,-2128,-49,21,-3
14150,688,608,-2128,-49,23,-2
14155,704,616,-2112,-47,24,-4
14160,688,592,-2128,-46,22,-4
14165,688,592,-2144,-45,19,-5
14170,688,616,-2096,-47,17,-5
14175,672,632,-2128,-49,16,-5
14180,696,600,-2136,-49,14,-4
14185,680,600,-2088,-48,15,-4
14190,664,624,-2128,-48,14,-5
14195,688,600,-2128,-48,13,-5
14200,712,608,-2112,-48,14,-4
14205,688,608,-2152,-47,14,-4
14210,680,616,-2096,-46,14,-5
14215,680,616,-2112,-47,13,-4
14220,648,632,-2128,-45,13,-3
14225,712,600,-2128,-45,14,-4
14230,680,584,-2080,-46,12,-4
14235,672,608,-2104,-43,11,-4
14240,688,592,-2112,-44,11,-3
14245,680,608,-2128,-44,11,-4
14250,688,608,-2112,-44,10,-4
14255,696,600,-2104,-42,10,-3
14260,680,600,-2128,-39,9,-3
14265,672,616,-2104,-41,10,-3
14270,664,608,-2112,-43,12,-4
14275,672,592,-2096,-43,13,-2
14280,696,576,-2112,-43,12,-2
14285,704,600,-2088,-44,12,-1
14290,720,616,-2088,-44,12,-1
14295,680,600,-2112,-41,10,-3
14300,704,584,-2104,-42,11,-3
14305,688,568,-2112,-42,9,-4
14310,672,600,-2096,-42,9,-2
14315,680,600,-2128,-43,9,-2
14320,680,592,-2136,-43,10,-2
14325,680,616,-2128,-44,12,-1
14330,656,600,-2136,-45,14,-2
14335,680,592,-2144,-45,15,-2
14340,688,624,-2144,-45,18,-2
14345,696,600,-2120,-47,17,-2
14350,688,608,-2112,-47,19,-3
14355,688,608,-2096,-48,19,-3
14360,704,584,-2104,-48,17,-4
14365,720,592,-2120,-48,16,-4
14370,680,624,-2120,-49,14,-3
14375,688,592,-2120,-49,13,-3
14380,696,616,-2120,-46,13,-4
14385,672,608,-2136,-47,14,-3
14390,704,600,-2128,-48,11,-3
14395,688,592,-2096,-47,13,-5
14400,680,608,-2168,-49,15,-3
14405,688,600,-2120,-47,17,-4
14410,688,608,-2128,-48,18,-3
14415,656,624,-2128,-47,17,-3
14420,696,600,-2120,-47,18,-3
14425,696,600,-2136,-47,18,-4
14430,696,616,-2104,-46,20,-4
14435,688,584,-2104,-47,19,-4
14440,656,616,-2144,-47,19,-4
14445,688,608,-2104,-48,18,-2
14450,688,616,-2104,-46,19,-3
14455,672,616,-2120,-46,17,-4
14460,664,616,-2088,-44,19,-3
14465,656,640,-2120,-43,17,-3
14470,688,608,-2088,-46,17,-4
14475,672,608,-2104,-45,19,-4
14480,696,584,-2112,-46,18,-3
14485,688,600,-2112,-45,17,-3
14490,672,616,-2096,-44,16,-5
14495,696,592,-2128,-45,15,-4
14500,688,608,-2096,-45,14,-3
14505,680,616,-2128,-45,14,-3
14510,696,584,-2096,-44,14,-2
14515,680,608,-2120,-44,14,-2
14520,680,584,-2112,-42,12,-2
14525,696,608,-2128,-41,12,-2
14530,664,608,-2128,-41,14,-1
14535,688,600,-2144,-42,12,-3
14540,688,600,-2128,-42,13,-3
14545,752,664,-2144,-42,14,-3
14550,680,608,-2096,-43,16,-2
14555,680,584,-2120,-43,16,-3
14560,680,600,-2144,-44,15,-2
14565,704,592,-2080,-46,16,-1
14570,696,592,-2112,-46,15,-1
14575,680,632,-2120,-48,16,-1
14580,656,616,-2104,-48,14,-2
14585,688,600,-2136,-46,16,-1
14590,680,592,-2112,-45,16,-2
14595,680,608,-2120,-43,14,-2
14600,712,592,-2072,-45,14,-3
14605,696,616,-2120,-43,13,-3
14610,664,608,-2120,-43,14,-2
14615,656,600,-2088,-42,14,-2
14620,696,592,-2120,-46,14,-1
14625,680,584,-2112,-47,14,-2
14630,680,632,-2136,-47,16,-2
14635,672,608,-2136,-48,16,-4
14640,704,592,-2104,-47,15,-3
14645,672,608,-2136,-47,16,-3
14650,664,648,-2136,-48,16,-1
14655,688,600,-2080,-46,14,-2
14660,672,576,-2080,-46,14,-3
14665,688,616,-2128,-46,14,-3
14670,672,592,-2128,-47,13,-3
14675,672,600,-2096,-44,14,-2
14680,688,592,-2104,-45,15,-2
14685,680,632,-2104,-47,15,-3
14690,688,608,-2096,-49,15,-4
14695,664,600,-2136,-49,15,-3
14700,696,608,-2096,-51,14,-3
14705,680,616,-2120,-50,12,-4
14710,688,600,-2136,-48,13,-4
14715,696,592,-2112,-48,12,-3
14720,672,600,-2128,-46,13,-3
14725,680,616,-2120,-45,13,-2
14730,680,600,-2136,-44,15,-4
14735,696,600,-2120,-43,16,-3
14740,688,624,-2136,-44,18,-2
14745,656,616,-2128,-47,18,-4
14750,672,608,-2112,-46,19,-3
14755,672,616,-2112,-46,18,-3
14760,680,608,-2080,-46,17,-3
14765,696,616,-2112,-48,16,-3
14770,672,608,-2112,-46,16,-4
14775,688,608,-2080,-44,18,-3
14780,704,616,-2120,-38,18,0
14785,680,608,-2104,-39,20,-1
14790,688,592,-2112,-40,21,-3
14795,680,592,-2120,-42,22,-2
14800,688,584,-2096,-48,23,-1
14805,696,576,-2096,-47,23,-1
14810,696,584,-2128,-46,22,-3
14815,688,592,-2112,-43,18,-2
14820,688,600,-2136,-40,15,-2
14825,688,608,-2128,-40,10,-2
14830,688,624,-2120,-39,8,-2
14835,696,576,-2112,-39,9,-1
14840,688,600,-2120,-41,8,-2
14845,680,608,-2104,-42,9,-2
14850,688,584,-2152,-43,12,-2
14855,672,592,-2104,-43,18,-2
14860,696,600,-2128,-43,21,-2
14865,680,600,-2112,-45,23,-1
14870,704,592,-2120,-45,26,-1
14875,688,608,-2144,-46,29,-1
14880,664,608,-2144,-47,27,-1
14885,688,608,-2128,-48,24,-2
14890,680,600,-2104,-50,23,-2
14895,696,624,-2144,-49,21,-5
14900,688,584,-2096,-50,20,-3
14905,688,592,-2096,-49,17,-2
14910,680,616,-2096,-48,18,-3
14915,680,616,-2112,-47,16,-4
14920,672,600,-2112,-49,18,-2
14925,672,576,-2104,-47,17,-3
14930,688,616,-2104,-48,18,-4
14935,696,592,-2144,-47,16,-3
14940,688,592,-2104,-46,16,-3
14945,688,600,-2104,-45,16,-3
14950,680,608,-2112,-45,16,-2
14955,704,592,-2096,-44,15,-3
14960,696,600,-2104,-43,14,-3
14965,704,600,-2088,-43,13,-3
14970,696,608,-2112,-44,14,-2
14975,696,624,-2128,-42,14,-3
14980,696,616,-2120,-41,13,-2
14985,696,600,-2096,-43,13,-3
14990,672,608,-2120,-44,13,-3
14995,680,592,-2112,-43,14,-3
