timestamp,accel_x,accel_y,accel_z,gyro_x,gyro_y,gyro_z
0,280,-2000,-408,-20,6,2
5,272,-1992,-440,-19,5,1
10,264,-2008,-424,-22,-1,0
15,256,-1992,-432,-25,-4,0
20,264,-1984,-432,-27,-8,-2
25,224,-1992,-432,-28,-11,-2
30,256,-1984,-408,-31,-10,-2
35,264,-2000,-424,-35,-11,-3
40,264,-1984,-448,-37,-13,-3
45,256,-2000,-424,-41,-15,-4
50,256,-1992,-432,-44,-17,-3
55,272,-1992,-416,-51,-19,-4
60,256,-1984,-448,-58,-22,-3
65,264,-1992,-424,-68,-25,-2
70,288,-1984,-408,-76,-28,0
75,280,-2008,-448,-81,-29,4
80,296,-2008,-432,-81,-28,6
85,280,-2016,-424,-76,-30,8
90,296,-2024,-440,-69,-30,7
95,272,-2040,-424,-61,-30,8
100,264,-2016,-456,-58,-29,8
105,272,-2016,-456,-53,-29,6
110,288,-2016,-456,-55,-26,2
115,296,-2032,-456,-56,-22,0
120,288,-2008,-432,-56,-20,0
125,272,-2008,-432,-57,-18,-1
130,304,-2032,-440,-59,-16,-1
135,288,-2008,-456,-59,-13,1
140,304,-2024,-488,-62,-11,1
145,272,-2024,-464,-57,-8,1
150,272,-2032,-464,-53,-5,0
155,280,-2032,-456,-48,-4,1
160,272,-2024,-472,-41,0,0
165,288,-2000,-448,-33,4,-1
170,280,-2032,-480,-28,7,-2
175,272,-2008,-456,-27,9,-2
180,304,-2016,-464,-30,8,-3
185,304,-2008,-520,-34,9,-6
190,288,-2008,-448,-38,10,-6
195,304,-2024,-456,-41,14,-8
200,304,-2008,-456,-43,18,-9
205,280,-2016,-448,-45,23,-10
210,312,-2032,-448,-46,29,-10
215,296,-2032,-472,-42,34,-12
220,288,-2016,-448,-38,40,-12
225,288,-2000,-456,-37,46,-12
230,304,-2024,-440,-36,48,-11
235,296,-2008,-432,-38,49,-10
240,296,-2016,-456,-35,50,-11
245,280,-2000,-400,-34,51,-9
250,280,-2000,-440,-32,49,-9
255,296,-2008,-432,-29,49,-9
260,296,-2016,-432,-25,49,-6
265,264,-1992,-456,-23,48,-5
270,304,-2016,-440,-19,47,-4
275,264,-1984,-440,-17,47,-2
280,264,-2000,-440,-16,47,-2
285,248,-1984,-424,-15,46,1
290,272,-1984,-424,-15,44,3
295,272,-1984,-424,-17,44,4
300,256,-1984,-416,-17,45,5
305,272,-1984,-400,-17,45,5
310,288,-1992,-392,-19,43,6
315,272,-1992,-408,-24,41,9
320,288,-1976,-408,-24,39,7
325,264,-1968,-400,-28,38,6
330,280,-1976,-416,-30,36,6
335,280,-1992,-376,-32,33,7
340,296,-1992,-408,-35,31,8
345,272,-1992,-424,-38,29,8
350,272,-1992,-424,-42,28,11
355,280,-1952,-392,-45,29,10
360,264,-1976,-400,-49,26,8
365,272,-1968,-392,-52,24,6
370,256,-1984,-408,-57,21,5
375,264,-1984,-392,-61,18,6
380,272,-1992,-440,-67,15,6
385,264,-1992,-416,-75,13,7
390,272,-1992,-424,-81,11,8
395,280,-1984,-440,-86,10,9
400,264,-1992,-440,-89,9,9
405,272,-1992,-448,-93,7,9
410,256,-1984,-416,-93,6,8
415,272,-2008,-440,-93,3,6
420,264,-2032,-448,-92,3,6
425,272,-2008,-456,-90,2,6
430,264,-2008,-456,-92,0,5
435,280,-2016,-456,-92,0,5
440,272,-1992,-448,-91,3,2
445,280,-1992,-448,-93,6,2
450,280,-2024,-464,-96,7,1
455,272,-2016,-464,-97,11,0
460,304,-2016,-472,-99,14,-1
465,272,-2008,-464,-96,17,-2
470,280,-2016,-424,-97,18,-1
475,272,-2024,-456,-97,16,2
480,264,-2016,-464,-92,18,-1
485,280,-2016,-448,-90,15,-2
490,288,-2000,-448,-90,13,-2
495,280,-2032,-448,-88,7,-3
500,264,-2000,-456,-88,5,-3
505,280,-2000,-432,-84,1,-3
510,272,-1992,-448,-84,-2,-3
515,264,-2008,-464,-83,-5,-1
520,256,-2000,-464,-80,-7,1
525,248,-2000,-464,-78,-7,-1
530,264,-2000,-456,-81,-8,0
535,256,-2000,-464,-81,-9,1
540,248,-2008,-440,-84,-9,0
545,280,-2000,-448,-85,-11,-1
550,240,-2024,-448,-85,-12,-1
555,240,-2000,-456,-84,-14,-2
560,280,-2016,-448,-85,-15,-1
565,256,-2016,-464,-83,-17,-3
570,264,-2008,-472,-80,-18,-4
575,272,-1992,-464,-79,-19,-2
580,288,-2032,-472,-78,-19,-3
585,280,-2024,-472,-75,-17,0
590,272,-2016,-472,-72,-15,1
595,264,-2000,-496,-69,-12,3
600,272,-2000,-464,-65,-10,4
605,312,-2032,-464,-64,-8,4
610,296,-2024,-456,-66,-7,7
615,304,-2016,-488,-59,-1,7
620,312,-1992,-472,-57,3,5
625,312,-2016,-472,-59,6,5
630,304,-2000,-464,-61,7,5
635,288,-2008,-472,-61,8,5
640,312,-2000,-448,-58,9,6
645,296,-2008,-464,-58,11,4
650,280,-2008,-496,-58,9,3
655,280,-2000,-464,-58,6,3
660,280,-2008,-496,-57,5,3
665,264,-1984,-472,-59,2,3
670,280,-2008,-472,-61,0,2
675,288,-2024,-448,-61,-1,3
680,272,-2000,-456,-60,-2,4
685,272,-2032,-456,-60,-1,4
690,272,-2000,-472,-60,0,5
695,280,-2008,-472,-57,1,6
700,256,-2024,-488,-56,0,7
705,256,-2000,-480,-54,2,8
710,272,-2016,-472,-54,3,7
715,272,-2008,-480,-51,3,6
720,272,-2016,-456,-50,3,7
725,280,-2008,-496,-51,3,5
730,280,-2000,-440,-51,1,4
735,272,-1984,-456,-48,1,4
740,288,-2000,-472,-48,0,2
745,256,-1984,-488,-48,-1,2
750,272,-2008,-440,-48,0,2
755,272,-2016,-488,-48,0,2
760,288,-2000,-488,-48,2,0
765,272,-1984,-448,-46,4,-1
770,296,-2000,-456,-49,6,-2
775,288,-2000,-488,-47,8,-4
780,376,-1968,-528,-46,8,-3
785,272,-2008,-480,-44,10,-8
790,280,-2000,-472,-44,10,-7
795,264,-1992,-488,-43,13,-7
800,272,-2008,-512,-45,14,-8
805,264,-2000,-456,-43,15,-9
810,304,-2000,-448,-44,17,-10
815,296,-2000,-496,-42,17,-9
820,304,-2016,-448,-39,17,-10
825,304,-1992,-472,-38,17,-10
830,272,-2000,-464,-37,14,-11
835,280,-1936,-544,-36,13,-11
840,264,-2008,-472,-38,10,-11
845,280,-2024,-464,-40,10,-10
850,280,-1992,-488,-40,10,-10
855,304,-2000,-472,-40,10,-9
860,280,-1992,-464,-41,8,-8
865,280,-1984,-464,-45,9,-7
870,320,-2000,-488,-45,10,-8
875,280,-2000,-464,-47,11,-7
880,304,-1992,-472,-49,12,-8
885,320,-2008,-464,-51,15,-6
890,264,-1936,-448,-50,17,-7
895,328,-2000,-456,-51,19,-6
900,296,-1992,-480,-55,21,-7
905,280,-1992,-472,-55,26,-8
910,320,-1992,-496,-58,28,-9
915,312,-1992,-480,-58,32,-10
920,312,-2008,-456,-62,34,-11
925,304,-2016,-512,-63,35,-12
930,312,-2016,-480,-65,36,-13
935,320,-2008,-464,-66,35,-14
940,296,-2000,-448,-67,34,-16
945,296,-2000,-472,-68,36,-16
950,304,-2008,-464,-69,35,-13
955,288,-2000,-456,-70,34,-13
960,304,-1984,-464,-70,35,-9
965,296,-1976,-464,-71,34,-8
970,280,-1976,-464,-70,33,-6
975,280,-2016,-464,-68,33,-4
980,304,-2024,-456,-64,31,-3
985,280,-1984,-472,-62,31,-5
990,280,-1992,-448,-64,31,-7
995,272,-1984,-456,-67,31,-7
1000,304,-2016,-448,-73,32,-7
1005,280,-1992,-464,-78,31,-7
1010,272,-1984,-448,-80,32,-8
1015,288,-2000,-456,-83,32,-5
1020,296,-2016,-456,-82,32,-4
1025,264,-2008,-456,-81,32,-6
1030,288,-2032,-464,-76,33,-3
1035,296,-2024,-464,-73,33,-2
1040,288,-2032,-488,-67,35,-3
1045,280,-2024,-464,-59,37,-3
1050,304,-2016,-488,-53,39,-2
1055,280,-2000,-456,-47,41,-3
1060,272,-1992,-472,-44,43,-3
1065,272,-1992,-520,-44,44,-3
1070,280,-2000,-464,-45,45,-5
1075,288,-2000,-456,-49,44,-6
1080,272,-2008,-472,-50,43,-8
1085,264,-1992,-448,-54,43,-8
1090,280,-2000,-456,-55,43,-10
1095,248,-2016,-440,-55,44,-12
1100,264,-1992,-480,-51,43,-13
1105,272,-1992,-448,-51,42,-12
1110,288,-2032,-432,-51,40,-12
1115,256,-1992,-472,-51,39,-11
1120,256,-2032,-440,-52,38,-11
1125,256,-1992,-456,-52,35,-7
1130,256,-1984,-472,-52,31,-7
1135,256,-2016,-488,-51,29,-6
1140,256,-2016,-456,-47,26,-5
1145,264,-1992,-448,-46,24,-4
1150,280,-2008,-456,-45,23,-2
1155,296,-2000,-464,-42,22,-1
1160,272,-1984,-464,-42,20,1
1165,272,-1992,-464,-41,19,1
1170,264,-1984,-440,-40,18,3
1175,272,-2000,-448,-40,18,6
1180,240,-1984,-456,-38,18,5
1185,256,-2016,-456,-38,19,3
1190,264,-2016,-456,-37,18,4
1195,264,-2000,-464,-36,15,5
1200,272,-2008,-512,-35,14,4
1205,304,-2032,-496,-36,13,3
1210,264,-2008,-472,-34,14,3
1215,264,-2016,-464,-34,11,1
1220,280,-2024,-472,-35,9,1
1225,272,-1992,-480,-36,9,2
1230,264,-2016,-472,-36,9,0
1235,272,-2016,-472,-34,7,1
1240,264,-1984,-456,-35,7,1
1245,224,-2008,-480,-35,5,1
1250,248,-2000,-464,-35,5,0
1255,264,-2016,-480,-37,4,-1
1260,248,-2024,-504,-38,1,1
1265,272,-2016,-472,-39,0,0
1270,256,-2016,-456,-41,-2,0
1275,256,-2024,-472,-43,-3,-2
1280,264,-2016,-456,-45,-5,-2
1285,272,-2024,-472,-46,-5,0
1290,272,-2040,-464,-47,-6,0
1295,264,-2024,-448,-44,-6,2
1300,264,-2040,-464,-42,-6,0
1305,272,-2016,-480,-36,-6,0
1310,272,-2024,-480,-31,-7,1
1315,264,-2000,-456,-27,-10,1
1320,264,-2000,-456,-23,-12,2
1325,272,-2024,-464,-20,-15,2
1330,272,-2008,-488,-18,-16,2
1335,256,-2016,-472,-19,-18,0
1340,248,-2000,-456,-22,-18,-1
1345,256,-2008,-464,-22,-19,-2
1350,264,-1992,-464,-23,-17,-2
1355,280,-2008,-456,-26,-15,-2
1360,272,-2000,-456,-26,-12,0
1365,256,-2000,-416,-28,-11,0
1370,256,-1992,-416,-29,-9,1
1375,256,-2000,-440,-28,-10,1
1380,264,-2024,-448,-28,-11,1
1385,264,-2000,-448,-29,-12,2
1390,256,-2000,-448,-28,-15,2
1395,248,-2000,-440,-28,-16,1
1400,272,-2016,-472,-28,-19,2
1405,288,-2008,-472,-27,-23,3
1410,288,-2016,-456,-27,-25,2
1415,256,-2008,-456,-28,-26,4
1420,272,-2008,-456,-26,-28,4
1425,256,-1992,-472,-25,-29,3
1430,248,-2008,-448,-24,-31,4
1435,272,-2000,-440,-24,-31,5
1440,272,-2024,-448,-23,-31,4
1445,264,-2032,-432,-23,-32,5
1450,264,-2008,-424,-22,-30,4
1455,240,-1992,-448,-23,-32,3
1460,256,-2000,-448,-23,-32,2
1465,216,-1984,-464,-23,-30,2
1470,256,-1992,-448,-27,-30,2
1475,288,-2016,-432,-31,-28,2
1480,272,-2016,-448,-33,-28,2
1485,264,-2008,-448,-35,-26,3
1490,272,-2016,-432,-35,-26,3
1495,248,-2016,-456,-33,-25,3
1500,280,-2024,-464,-33,-24,3
1505,280,-2008,-440,-32,-22,3
1510,288,-2008,-448,-33,-20,3
1515,296,-2000,-440,-32,-17,2
1520,280,-2000,-456,-33,-14,2
1525,280,-2016,-456,-31,-13,2
1530,296,-2024,-448,-31,-12,2
1535,296,-2032,-456,-32,-10,2
1540,288,-2016,-472,-33,-9,1
1545,304,-2000,-440,-32,-8,0
1550,280,-2024,-448,-33,-7,-1
1555,296,-2008,-440,-32,-5,-2
1560,280,-2024,-440,-32,-5,-1
1565,280,-2008,-496,-33,-6,-1
1570,288,-2016,-464,-32,-5,0
1575,264,-2032,-456,-31,-3,-1
1580,264,-2008,-440,-33,-2,-2
1585,280,-2016,-472,-32,-1,-3
1590,272,-2024,-464,-31,-2,-3
1595,264,-2016,-480,-30,-1,-5
1600,264,-1992,-440,-31,-3,-6
1605,280,-2032,-456,-32,-2,-7
1610,280,-2008,-456,-31,-1,-9
1615,272,-2008,-464,-30,-1,-10
1620,256,-2016,-456,-27,-1,-10
1625,296,-2008,-448,-26,-1,-12
1630,296,-2016,-480,-27,3,-12
1635,272,-2016,-448,-25,4,-11
1640,264,-2008,-440,-24,5,-11
1645,272,-2000,-472,-20,7,-10
1650,248,-2008,-448,-17,9,-11
1655,288,-2048,-432,-11,10,-12
1660,280,-2008,-448,-7,11,-11
1665,280,-2000,-464,-5,14,-11
1670,288,-2008,-456,-4,16,-10
1675,272,-1992,-448,-4,18,-9
1680,288,-2000,-464,-4,23,-12
1685,288,-1992,-432,-8,24,-10
1690,288,-2008,-440,-11,29,-9
1695,288,-1992,-416,-14,29,-7
1700,264,-1984,-448,-18,29,-7
1705,288,-1984,-448,-22,29,-5
1710,304,-2000,-432,-26,29,-3
1715,304,-1992,-432,-32,30,-2
1720,280,-1984,-424,-38,30,-1
1725,288,-1984,-416,-45,29,1
1730,296,-2000,-416,-52,28,3
1735,304,-2016,-432,-54,27,4
1740,280,-2008,-456,-56,27,5
1745,272,-2000,-440,-55,28,7
1750,280,-2000,-424,-59,30,9
1755,280,-2008,-432,-61,30,9
1760,288,-2008,-424,-64,33,10
1765,256,-2008,-440,-69,32,13
1770,264,-1984,-448,-71,34,10
1775,256,-1984,-464,-78,34,10
1780,272,-2000,-432,-82,36,8
1785,240,-2008,-440,-85,36,8
1790,272,-1984,-432,-87,38,8
1795,256,-1984,-440,-88,39,8
1800,280,-2024,-440,-90,39,8
1805,296,-2016,-456,-91,39,12
1810,288,-2016,-440,-92,40,13
1815,232,-2000,-448,-89,40,15
1820,280,-2040,-440,-84,41,16
1825,272,-2032,-448,-81,42,15
1830,272,-2024,-456,-78,43,11
1835,272,-2000,-432,-78,45,9
1840,264,-1984,-440,-80,47,7
1845,280,-2016,-440,-81,50,5
1850,256,-1976,-432,-86,54,5
1855,248,-1992,-440,-91,57,4
1860,280,-2008,-432,-95,60,3
1865,256,-2000,-432,-96,61,4
1870,224,-2040,-344,-96,61,7
1875,272,-2016,-440,-95,60,8
1880,272,-2032,-424,-92,57,9
1885,256,-2016,-440,-88,57,12
1890,288,-2008,-464,-80,55,14
1895,288,-2016,-448,-73,57,12
1900,256,-2032,-472,-65,58,13
1905,264,-1992,-464,-63,57,11
1910,272,-2008,-440,-62,56,10
1915,272,-2008,-456,-66,56,8
1920,264,-1984,-448,-71,55,5
1925,192,-2040,-464,-76,54,3
1930,256,-2008,-440,-79,57,2
1935,264,-2008,-440,-83,60,0
1940,264,-2008,-440,-86,64,1
1945,256,-2016,-448,-86,67,0
1950,272,-2032,-440,-85,69,-1
1955,264,-2024,-440,-85,70,0
1960,296,-2024,-440,-90,71,3
1965,288,-2016,-424,-90,73,3
1970,304,-2040,-448,-90,75,7
1975,304,-2016,-432,-84,78,7
1980,304,-2024,-480,-83,81,11
1985,280,-2016,-464,-80,82,12
1990,280,-2032,-480,-79,82,15
1995,264,-2008,-416,-77,78,16
2000,264,-2008,-456,-75,75,20
2005,272,-2032,-440,-74,69,23
2010,264,-2016,-488,-75,69,25
2015,248,-2016,-432,-74,69,30
2020,240,-2016,-456,-73,72,35
2025,240,-2008,-440,-73,75,43
2030,248,-2000,-456,-76,74,46
2035,296,-2032,-456,-78,72,51
2040,288,-2032,-472,-77,74,52
2045,264,-1992,-448,-76,76,56
2050,248,-2016,-464,-77,77,60
2055,288,-2008,-456,-82,79,66
2060,248,-2000,-464,-88,81,72
2065,256,-2000,-480,-89,83,79
2070,264,-1992,-496,-85,85,85
2075,264,-2008,-512,-81,88,90
2080,240,-2024,-496,-80,92,98
2085,200,-2032,-512,-83,96,105
2090,104,-2056,-504,-97,95,117
2095,192,-2072,-496,-106,81,134
2100,208,-2016,-520,-112,73,134
2105,168,-1984,-536,-113,62,133
2110,216,-2040,-552,-113,48,135
2115,240,-2008,-536,-121,36,136
2120,176,-1976,-544,-129,28,134
2125,136,-1976,-560,-141,25,140
2130,136,-1984,-600,-150,24,147
2135,160,-2040,-600,-165,22,158
2140,104,-2072,-584,-177,15,174
2145,112,-2072,-584,-188,1,186
2150,232,-2056,-576,-188,-15,182
2155,272,-2040,-616,-176,-21,170
2160,320,-2016,-608,-160,-20,157
2165,328,-1984,-600,-148,-12,147
2170,376,-1952,-608,-139,-4,135
2175,352,-1952,-664,-134,10,126
2180,320,-1960,-616,-143,22,135
2185,280,-1976,-640,-152,32,147
2190,280,-1968,-672,-163,38,154
2195,208,-1936,-624,-162,42,148
2200,184,-1968,-672,-151,50,140
2205,160,-1936,-656,-146,58,132
2210,168,-1944,-648,-153,64,135
2215,168,-1968,-656,-158,68,133
2220,152,-1936,-648,-165,68,130
2225,176,-1952,-600,-172,65,132
2230,232,-1920,-640,-170,65,128
2235,272,-1936,-680,-161,63,114
2240,312,-1936,-648,-156,68,107
2245,312,-1952,-640,-160,80,107
2250,240,-1976,-592,-171,95,117
2255,200,-1976,-608,-181,106,138
2260,216,-1984,-600,-189,110,155
2265,168,-1928,-584,-186,107,149
2270,144,-1904,-568,-171,103,134
2275,184,-1904,-576,-161,99,125
2280,176,-1936,-560,-166,95,127
2285,200,-1888,-600,-183,87,124
2290,168,-1896,-600,-198,81,121
2295,152,-1896,-576,-207,76,131
2300,152,-1888,-560,-217,70,136
2305,136,-1896,-600,-218,65,138
2310,128,-1920,-568,-223,65,141
2315,112,-1952,-592,-233,65,148
2320,80,-1944,-584,-242,64,154
2325,96,-1936,-560,-246,61,154
2330,96,-1936,-536,-242,58,146
2335,88,-1936,-560,-240,57,139
2340,104,-1968,-528,-241,58,130
2345,112,-1952,-560,-243,60,120
2350,120,-1968,-512,-248,61,111
2355,136,-1976,-512,-254,65,107
2360,152,-1968,-512,-264,67,100
2365,160,-1984,-528,-272,67,95
2370,152,-2000,-512,-274,67,86
2375,160,-2048,-496,-272,64,76
2380,144,-2024,-528,-270,60,69
2385,136,-2064,-520,-263,54,62
2390,136,-2064,-528,-260,46,58
2395,112,-2048,-528,-254,40,53
2400,128,-2088,-568,-249,35,52
2405,144,-2096,-576,-245,30,49
2410,112,-2080,-600,-245,28,50
2415,112,-2064,-648,-245,28,50
2420,112,-2064,-656,-244,28,54
2425,120,-2064,-696,-245,27,55
2430,120,-2064,-664,-246,27,55
2435,104,-2016,-688,-244,29,55
2440,136,-2000,-736,-242,30,57
2445,144,-1976,-720,-245,36,60
2450,152,-1952,-712,-252,40,62
2455,168,-1952,-720,-258,44,66
2460,184,-1904,-720,-268,46,69
2465,160,-1904,-728,-279,45,73
2470,192,-1904,-672,-294,42,77
2475,152,-1912,-728,-305,36,79
2480,152,-1904,-712,-323,27,83
2485,160,-1888,-704,-333,17,88
2490,112,-1880,-688,-345,5,90
2495,104,-1904,-656,-358,-10,92
2500,96,-1912,-632,-373,-23,94
2505,64,-1944,-672,-388,-37,97
2510,56,-1944,-648,-403,-45,100
2515,72,-1944,-632,-412,-51,102
2520,64,-1928,-632,-416,-60,106
2525,64,-1896,-664,-420,-69,109
2530,64,-1888,-656,-420,-73,112
2535,72,-1800,-680,-420,-75,113
2540,112,-1760,-688,-421,-72,105
2545,120,-1760,-704,-430,-64,102
2550,184,-1800,-728,-447,-47,107
2555,232,-1856,-768,-464,-22,112
2560,272,-1928,-736,-489,-4,118
2565,288,-2000,-760,-524,11,128
2570,296,-2056,-736,-561,25,138
2575,248,-2064,-768,-593,34,146
2580,288,-2008,-784,-604,40,143
2585,264,-2040,-736,-589,49,127
2590,240,-2024,-784,-551,61,114
2595,232,-2064,-784,-513,68,101
2600,232,-2016,-768,-477,70,85
2605,216,-1968,-816,-439,68,62
2610,184,-1936,-840,-407,63,41
2615,160,-1912,-904,-388,61,24
2620,152,-1928,-888,-385,59,14
2625,104,-1920,-896,-388,63,9
2630,88,-1944,-864,-396,65,10
2635,48,-1976,-848,-404,67,14
2640,48,-2024,-880,-412,66,15
2645,32,-1976,-824,-417,62,12
2650,48,-1984,-840,-416,63,10
2655,24,-1992,-848,-407,68,6
2660,104,-2016,-840,-399,75,-3
2665,96,-2016,-848,-392,83,-7
2670,128,-2016,-864,-384,89,-9
2675,128,-2032,-880,-373,95,-11
2680,136,-2024,-880,-361,97,-14
2685,152,-2048,-840,-345,95,-16
2690,136,-2008,-856,-330,93,-19
2695,112,-2024,-880,-314,87,-20
2700,88,-1984,-872,-300,82,-21
2705,72,-1968,-856,-293,73,-24
2710,72,-1984,-864,-286,61,-29
2715,48,-1976,-856,-279,47,-33
2720,24,-1960,-880,-274,33,-36
2725,72,-1936,-928,-273,21,-33
2730,24,-1952,-896,-289,19,-13
2735,32,-1968,-920,-311,9,-4
2740,16,-1952,-936,-307,-15,-19
2745,40,-1944,-920,-292,-35,-31
2750,64,-1912,-928,-279,-44,-37
2755,64,-1920,-904,-278,-45,-41
2760,112,-1872,-864,-288,-40,-45
2765,112,-1888,-896,-308,-37,-50
2770,104,-1864,-880,-325,-36,-53
2775,152,-1888,-872,-338,-37,-58
2780,136,-1880,-808,-351,-35,-59
2785,168,-1864,-856,-357,-31,-64
2790,152,-1880,-880,-369,-25,-67
2795,176,-1848,-800,-384,-16,-69
2800,160,-1880,-864,-401,-9,-69
2805,152,-1872,-888,-417,-4,-67
2810,168,-1896,-880,-434,-1,-64
2815,152,-1904,-872,-450,4,-55
2820,112,-1880,-888,-469,8,-48
2825,144,-1920,-888,-485,13,-38
2830,112,-1928,-896,-502,18,-29
2835,128,-1936,-944,-519,15,-19
2840,120,-1952,-952,-534,10,-10
2845,80,-1928,-952,-546,2,-2
2850,104,-1968,-904,-560,-4,4
2855,80,-1896,-984,-573,-12,8
2860,88,-1912,-1016,-581,-19,11
2865,96,-1896,-1040,-583,-24,9
2870,88,-1880,-1056,-585,-32,7
2875,96,-1840,-1064,-584,-34,7
2880,96,-1848,-1088,-579,-29,5
2885,112,-1848,-1048,-571,-22,2
2890,96,-1848,-1024,-561,-13,0
2895,136,-1848,-1032,-549,-5,-4
2900,120,-1816,-1040,-540,4,-8
2905,144,-1872,-928,-536,12,-9
2910,128,-1848,-976,-535,15,-11
2915,136,-1832,-992,-536,20,-8
2920,160,-1896,-960,-541,26,-5
2925,144,-1888,-1000,-550,35,-1
2930,136,-1896,-1008,-568,46,4
2935,144,-1872,-1000,-588,58,10
2940,168,-1880,-984,-613,71,17
2945,144,-1856,-1008,-641,80,24
2950,144,-1848,-1000,-668,87,30
2955,112,-1824,-1000,-690,92,36
2960,160,-1792,-1120,-711,94,37
2965,128,-1824,-1032,-725,93,39
2970,112,-1824,-1056,-733,91,41
2975,56,-1808,-1040,-748,91,46
2980,48,-1864,-1032,-759,89,47
2985,24,-1864,-1056,-763,84,41
2990,40,-1872,-1056,-759,78,39
2995,24,-1856,-1056,-758,77,40
3000,32,-1864,-1048,-758,73,43
3005,16,-1824,-1112,-756,72,52
3010,16,-1800,-1120,-762,70,61
3015,16,-1784,-1120,-764,66,67
3020,8,-1792,-1144,-749,51,70
3025,32,-1744,-1152,-729,38,69
3030,56,-1768,-1200,-706,28,71
3035,96,-1760,-1192,-685,20,72
3040,64,-1736,-1200,-670,15,72
3045,104,-1728,-1240,-660,15,71
3050,120,-1704,-1216,-650,20,66
3055,168,-1712,-1200,-642,31,59
3060,168,-1720,-1240,-636,42,53
3065,176,-1696,-1192,-636,55,46
3070,144,-1704,-1224,-635,64,39
3075,136,-1712,-1192,-641,73,37
3080,120,-1712,-1216,-646,78,33
3085,104,-1712,-1224,-654,86,32
3090,112,-1712,-1232,-660,92,33
3095,88,-1712,-1216,-671,92,36
3100,48,-1672,-1232,-678,86,40
3105,16,-1720,-1216,-691,74,46
3110,8,-1704,-1232,-705,57,51
3115,8,-1720,-1240,-714,46,58
3120,16,-1728,-1264,-721,41,67
3125,8,-1712,-1280,-725,41,74
3130,24,-1696,-1240,-725,49,79
3135,72,-1680,-1256,-720,61,81
3140,104,-1656,-1256,-710,75,82
3145,112,-1672,-1264,-700,89,83
3150,104,-1680,-1304,-685,99,81
3155,128,-1632,-1304,-669,106,72
3160,136,-1624,-1328,-647,120,68
3165,128,-1616,-1320,-633,133,62
3170,128,-1600,-1304,-620,148,53
3175,144,-1584,-1352,-613,168,50
3180,112,-1568,-1264,-608,186,50
3185,104,-1552,-1320,-592,197,45
3190,104,-1528,-1320,-568,202,37
3195,72,-1496,-1320,-551,204,32
3200,88,-1512,-1336,-539,199,29
3205,40,-1488,-1296,-541,194,35
3210,56,-1504,-1288,-551,180,39
3215,24,-1544,-1264,-560,167,35
3220,24,-1552,-1280,-565,158,31
3225,40,-1576,-1248,-571,158,26
3230,32,-1568,-1296,-574,158,28
3235,72,-1632,-1320,-577,157,34
3240,56,-1600,-1360,-582,159,37
3245,56,-1576,-1376,-587,156,38
3250,80,-1584,-1424,-602,155,39
3255,88,-1616,-1432,-612,152,41
3260,80,-1592,-1440,-610,149,38
3265,88,-1560,-1472,-603,144,34
3270,64,-1544,-1520,-589,139,30
3275,56,-1560,-1512,-567,132,23
3280,64,-1560,-1528,-539,126,15
3285,40,-1560,-1536,-507,124,14
3290,24,-1584,-1568,-483,122,9
3295,48,-1560,-1544,-462,119,7
3300,16,-1536,-1560,-446,115,6
3305,24,-1520,-1552,-429,108,7
3310,-24,-1528,-1600,-418,105,6
3315,16,-1512,-1528,-415,102,3
3320,16,-1496,-1544,-410,98,1
3325,32,-1480,-1552,-404,97,-1
3330,40,-1488,-1576,-400,97,-3
3335,88,-1472,-1552,-400,102,-6
3340,96,-1488,-1560,-407,110,-9
3345,88,-1504,-1608,-416,116,-13
3350,120,-1528,-1592,-428,124,-13
3355,152,-1568,-1600,-439,133,-17
3360,152,-1592,-1584,-448,143,-23
3365,184,-1592,-1584,-459,155,-32
3370,216,-1600,-1632,-462,173,-35
3375,224,-1616,-1624,-458,187,-37
3380,208,-1592,-1624,-448,198,-41
3385,216,-1608,-1648,-422,195,-48
3390,184,-1616,-1688,-394,184,-56
3395,152,-1600,-1664,-367,167,-63
3400,120,-1584,-1648,-345,150,-63
3405,128,-1552,-1664,-334,135,-57
3410,72,-1560,-1664,-343,130,-39
3415,32,-1504,-1672,-345,118,-39
3420,0,-1512,-1688,-335,108,-34
3425,-8,-1464,-1688,-336,99,-30
3430,-8,-1456,-1664,-348,93,-23
3435,8,-1472,-1704,-369,91,-12
3440,0,-1464,-1704,-393,89,-6
3445,16,-1480,-1680,-422,86,-1
3450,48,-1520,-1712,-450,83,-1
3455,104,-1560,-1720,-477,81,-2
3460,112,-1544,-1720,-500,85,-1
3465,128,-1592,-1704,-514,93,-5
3470,184,-1648,-1752,-522,104,-12
3475,200,-1664,-1720,-526,119,-20
3480,248,-1672,-1728,-524,135,-32
3485,240,-1688,-1656,-515,154,-36
3490,240,-1712,-1664,-501,170,-43
3495,224,-1720,-1664,-484,186,-43
3500,232,-1744,-1648,-467,198,-41
3505,224,-1736,-1640,-451,215,-40
3510,272,-1744,-1656,-435,237,-38
3515,192,-1728,-1696,-419,268,-27
3520,224,-1720,-1688,-399,291,-12
3525,264,-1720,-1688,-385,305,0
3530,272,-1712,-1656,-381,312,3
3535,272,-1632,-1680,-367,319,14
3540,288,-1624,-1664,-351,322,25
3545,344,-1616,-1704,-338,317,37
3550,344,-1616,-1712,-335,316,50
3555,336,-1584,-1688,-331,316,66
3560,264,-1544,-1656,-330,317,80
3565,312,-1536,-1704,-324,308,98
3570,296,-1576,-1632,-327,306,109
3575,288,-1600,-1688,-321,307,118
3580,192,-1536,-1640,-321,310,124
3585,192,-1552,-1696,-317,310,127
3590,176,-1512,-1656,-316,310,130
3595,88,-1488,-1592,-325,314,135
3600,96,-1464,-1560,-336,320,143
3605,88,-1464,-1584,-349,327,147
3610,80,-1448,-1592,-364,338,153
3615,56,-1456,-1536,-385,349,162
3620,24,-1432,-1584,-411,358,172
3625,48,-1440,-1576,-440,369,179
3630,-16,-1424,-1560,-472,375,185
3635,24,-1440,-1568,-502,370,191
3640,16,-1496,-1616,-533,361,193
3645,24,-1464,-1688,-566,354,190
3650,80,-1456,-1640,-594,348,190
3655,40,-1464,-1720,-624,344,190
3660,64,-1472,-1736,-650,339,193
3665,112,-1480,-1744,-671,334,199
3670,104,-1456,-1760,-685,331,193
3675,144,-1496,-1672,-682,329,175
3680,128,-1480,-1704,-670,331,159
3685,112,-1456,-1656,-657,338,150
3690,152,-1440,-1624,-651,344,150
3695,176,-1480,-1592,-640,359,146
3700,176,-1440,-1512,-627,377,139
3705,152,-1376,-1504,-622,399,123
3710,160,-1328,-1488,-621,426,107
3715,184,-1296,-1424,-632,452,106
3720,208,-1304,-1424,-641,485,108
3725,248,-1304,-1456,-650,522,128
3730,216,-1336,-1464,-654,566,131
3735,240,-1376,-1504,-661,610,132
3740,240,-1416,-1536,-674,650,132
3745,280,-1432,-1616,-683,684,130
3750,312,-1424,-1704,-693,708,121
3755,280,-1432,-1744,-700,730,113
3760,272,-1416,-1760,-691,735,113
3765,240,-1384,-1816,-676,728,110
3770,232,-1352,-1856,-653,722,103
3775,208,-1312,-1808,-625,713,99
3780,176,-1296,-1864,-585,703,88
3785,192,-1280,-1840,-561,690,79
3790,192,-1216,-1824,-558,667,78
3795,184,-1176,-1840,-549,645,67
3800,168,-1192,-1736,-569,620,56
3805,128,-1064,-1664,-606,589,39
3810,136,-1128,-1720,-641,560,32
3815,112,-968,-1632,-704,516,52
3820,64,-960,-1632,-748,486,33
3825,120,-952,-1648,-798,482,25
3830,120,-968,-1672,-868,492,27
3835,128,-1008,-1736,-949,521,31
3840,160,-1016,-1768,-1037,553,52
3845,192,-1048,-1768,-1113,588,86
3850,232,-1048,-1808,-1175,621,116
3855,240,-1168,-1808,-1224,642,144
3860,304,-1136,-1832,-1275,668,145
3865,328,-1224,-1880,-1288,692,173
3870,352,-1248,-1896,-1310,703,184
3875,368,-1272,-1840,-1320,709,186
3880,384,-1304,-1864,-1304,722,180
3885,432,-1224,-1920,-1293,723,162
3890,304,-1488,-1872,-1278,724,144
3895,408,-1200,-1864,-1326,711,112
3900,384,-1192,-1880,-1307,710,92
3905,384,-1200,-1832,-1270,702,80
3910,384,-1184,-1864,-1239,699,56
3915,384,-1184,-1872,-1215,685,40
3920,352,-1112,-1880,-1214,669,35
3925,296,-1096,-1824,-1191,662,29
3930,328,-1040,-1808,-1180,656,-6
3935,272,-976,-1920,-1187,654,1
3940,248,-1032,-1784,-1184,637,16
3945,232,-984,-1728,-1163,626,24
3950,240,-968,-1800,-1124,627,33
3955,168,-976,-1736,-1098,622,33
3960,272,-976,-1776,-1075,622,38
3965,240,-944,-1728,-1097,610,43
3970,216,-888,-1680,-1101,593,49
3975,232,-912,-1696,-1086,579,51
3980,240,-824,-1624,-1096,558,57
3985,328,-1000,-1672,-1141,515,90
3990,312,-712,-1656,-1214,471,38
3995,352,-720,-1680,-1254,433,39
4000,296,-728,-1680,-1277,390,30
4005,352,-720,-1704,-1314,345,15
4010,368,-752,-1736,-1391,285,11
4015,392,-768,-1752,-1464,228,13
4020,400,-824,-1808,-1520,184,8
4025,336,-888,-1848,-1576,153,-25
4030,488,-728,-1840,-1630,126,-44
4035,512,-808,-1904,-1610,108,-25
4040,344,-896,-1968,-1611,98,-28
4045,456,-664,-1856,-1625,87,-22
4050,456,-720,-1952,-1569,71,-45
4055,488,-768,-2008,-1530,69,-68
4060,344,-800,-2008,-1522,61,-128
4065,384,-616,-1936,-1512,41,-150
4070,328,-568,-1912,-1436,5,-125
4075,280,-584,-1952,-1377,-20,-135
4080,232,-592,-1960,-1353,-50,-148
4085,248,-552,-1880,-1374,-90,-153
4090,184,-568,-1784,-1370,-134,-140
4095,200,-536,-1824,-1379,-196,-128
4100,32,-632,-1800,-1412,-249,-187
4105,136,-448,-1680,-1460,-297,-221
4110,144,-416,-1664,-1421,-358,-186
4115,232,-424,-1688,-1377,-418,-166
4120,240,-384,-1648,-1367,-466,-167
4125,328,-432,-1736,-1379,-517,-169
4130,280,-848,-1744,-1397,-563,-182
4135,416,-376,-1808,-1449,-598,-264
4140,512,-240,-1848,-1400,-597,-237
4145,568,-344,-1904,-1279,-587,-204
4150,600,-368,-1920,-1228,-582,-204
4155,624,-384,-1904,-1223,-586,-201
4160,688,-400,-1952,-1207,-582,-198
4165,704,-344,-1976,-1207,-573,-197
4170,632,-320,-1968,-1214,-553,-200
4175,552,-288,-1968,-1228,-533,-210
4180,576,-296,-2016,-1263,-503,-210
4185,480,-304,-1904,-1287,-459,-235
4190,272,-504,-1944,-1274,-417,-252
4195,368,-176,-1928,-1320,-395,-311
4200,240,-176,-1856,-1294,-356,-280
4205,152,-160,-1872,-1270,-329,-248
4210,80,-104,-1912,-1256,-299,-224
4215,80,-88,-1936,-1247,-265,-201
4220,88,-96,-2000,-1242,-234,-176
4225,40,-40,-2072,-1239,-208,-157
4230,24,0,-2048,-1228,-177,-132
4235,104,64,-2176,-1213,-166,-100
4240,-24,-48,-2240,-1218,-162,-87
4245,176,176,-2256,-1245,-155,-93
4250,168,112,-2264,-1246,-142,-36
4255,160,112,-2240,-1268,-142,6
4260,192,112,-2328,-1270,-167,23
4265,208,144,-2360,-1267,-190,20
4270,280,144,-2352,-1289,-218,19
4275,240,152,-2352,-1319,-243,25
4280,224,152,-2312,-1350,-270,45
4285,264,136,-2344,-1378,-296,68
4290,288,176,-2296,-1411,-319,96
4295,224,168,-2288,-1440,-318,124
4300,232,160,-2248,-1453,-311,170
4305,288,152,-2224,-1446,-304,211
4310,296,112,-2328,-1410,-294,252
4315,320,120,-2408,-1367,-270,295
4320,312,152,-2432,-1346,-237,332
4325,296,112,-2456,-1358,-217,365
4330,296,168,-2512,-1395,-208,380
4335,304,192,-2544,-1432,-211,400
4340,240,168,-2552,-1466,-218,420
4345,72,216,-2560,-1516,-241,465
4350,184,280,-2552,-1512,-253,416
4355,120,304,-2560,-1497,-287,415
4360,24,288,-2592,-1504,-336,396
4365,0,296,-2608,-1525,-392,379
4370,24,320,-2600,-1572,-451,380
4375,-32,320,-2640,-1647,-508,387
4380,-224,280,-2592,-1716,-551,388
4385,-152,440,-2656,-1780,-584,406
4390,-240,536,-2696,-1810,-598,408
4395,-136,568,-2768,-1823,-590,452
4400,-136,584,-2824,-1852,-551,522
4405,48,560,-2848,-1887,-492,589
4410,256,536,-2872,-1937,-412,646
4415,384,448,-2848,-2019,-321,675
4420,472,408,-2944,-2084,-225,665
4425,416,256,-2992,-2117,-127,627
4430,368,264,-2976,-2121,-28,583
4435,296,176,-3008,-2113,68,528
4440,352,224,-2952,-2112,162,476
4445,248,304,-2920,-2095,238,457
4450,160,312,-2840,-2058,293,462
4455,80,256,-2864,-2051,319,476
4460,-160,168,-2776,-2086,303,489
4465,-216,160,-2760,-2135,253,470
4470,-296,160,-2752,-2156,208,471
4475,-400,160,-2680,-2167,139,451
4480,-904,-32,-2616,-2172,35,391
4485,-488,168,-2696,-2170,-113,281
4490,-576,104,-2744,-2160,-179,292
4495,-408,136,-2824,-2168,-287,247
4500,-432,72,-2776,-2180,-326,272
4505,-312,128,-2832,-2194,-368,268
4510,-304,-16,-2752,-2218,-362,328
4515,-528,48,-2656,-2253,-387,360
4520,-392,152,-2664,-2277,-401,384
4525,-296,176,-2640,-2284,-368,451
4530,-320,104,-2544,-2274,-319,515
4535,-200,232,-2496,-2275,-268,548
4540,-160,328,-2464,-2287,-176,610
4545,-256,440,-2336,-2302,-37,697
4550,-40,408,-2320,-2309,89,750
4555,-128,416,-2304,-2303,236,817
4560,-232,248,-2240,-2305,370,886
4565,-232,128,-2112,-2297,500,949
4570,-112,160,-2064,-2276,629,1042
4575,-304,-128,-1824,-2262,785,1104
4580,-184,-128,-1680,-2254,918,1168
4585,-136,-336,-1408,-2168,1061,1279
4590,-32,-376,-1168,-2034,1139,1368
4595,40,-392,-928,-1913,1182,1478
4600,208,-448,-800,-1765,1190,1599
4605,184,-80,-784,-1661,1167,1677
4610,264,40,-864,-1576,1163,1854
4615,144,32,-792,-1553,1152,2022
4620,8,48,-760,-1564,1092,2140
4625,144,56,-600,-1638,1013,2269
4630,312,-176,-472,-1697,943,2446
4635,248,-496,-408,-1661,873,2610
4640,80,-648,-376,-1529,834,2675
4645,256,-1200,-232,-1270,919,2730
4650,816,-1840,-296,-881,1074,2810
4655,760,-2008,-472,-381,1164,2831
4660,488,-1544,-536,193,1277,2754
4665,368,-936,-592,744,1556,2659
4670,328,-584,-704,1169,1890,2573
4675,328,-56,-864,1311,2159,2535
4680,320,200,-832,1196,2322,2544
4685,232,96,-632,954,2372,2509
4690,80,8,-560,782,2341,2405
4695,400,-24,-560,774,2253,2403
4700,656,72,-592,835,2135,2403
4705,736,296,-520,833,2020,2408
4710,592,456,-400,730,1901,2432
4715,536,480,-232,646,1782,2402
4720,536,344,-32,584,1751,2408
4725,520,320,32,559,1776,2430
4730,696,248,40,538,1853,2463
4735,776,168,-32,509,1949,2512
4740,872,152,-48,503,2051,2555
4745,1008,128,-168,505,2134,2601
4750,1224,184,-296,509,2201,2666
4755,1264,416,-280,477,2260,2728
4760,1256,712,-288,372,2308,2765
4765,1416,976,-368,234,2344,2789
4770,1784,1064,-440,72,2368,2854
4775,2384,1176,-408,-115,2403,2958
4780,3160,1616,-504,-251,2382,3056
4785,4280,2608,-544,-450,2379,3160
4790,4600,3368,-600,-801,2516,3257
4795,5744,3816,-1112,-950,2398,3426
4800,6360,4336,-920,-796,2336,3423
4805,7520,4808,-352,-683,2429,3292
4810,8184,5120,-192,-882,2553,3021
4815,9112,6416,-456,-1100,2575,2866
4820,9952,5816,-1184,-1055,2521,3216
4825,12192,5256,-1856,-1010,2330,3577
4830,14488,4720,-2680,-892,2181,3688
4835,17104,6944,-3720,-746,2251,3463
4840,17280,9912,-4208,-597,2678,2887
4845,16272,11192,-3688,-639,3386,2313
4850,12872,9648,-2280,-964,4006,1935
4855,8904,6600,-664,-1362,4220,1629
4860,5208,3168,552,-1383,4117,1367
4865,2280,184,1064,-963,3837,1167
4870,112,-2200,1112,-298,3308,997
4875,-1656,-3776,1384,426,2555,740
4880,-3064,-4536,1560,1077,1629,357
4885,-3368,-4456,1336,1508,596,-37
4890,-3232,-3800,1032,1678,-437,-311
4895,-2968,-2552,592,1661,-1359,-331
4900,-2496,-904,176,1460,-2078,-213
4905,-1584,512,-168,1140,-2495,-58
4910,-944,1472,-400,850,-2619,13
4915,-40,1824,-504,628,-2538,-63
4920,608,1656,-472,464,-2251,-261
4925,1320,1256,-464,356,-1870,-491
4930,1904,592,-448,378,-1469,-695
4935,2216,128,-512,470,-1115,-791
4940,2400,-304,-512,513,-887,-757
4945,2304,-632,-408,523,-751,-649
4950,2144,-816,-408,527,-680,-477
4955,1840,-872,-304,537,-662,-294
4960,1488,-736,-184,568,-670,-135
4965,1128,-568,-24,591,-686,-28
4970,960,-344,40,601,-694,34
4975,792,-176,64,603,-672,53
4980,728,-24,128,591,-628,25
4985,816,40,80,558,-570,-24
4990,968,0,152,522,-499,-73
4995,1192,-56,136,491,-421,-118
5000,1208,-168,96,474,-350,-136
5005,1056,-280,8,443,-308,-105
5010,1016,-400,-40,406,-317,-62
5015,1016,-520,-72,389,-349,-52
5020,1176,-496,-168,404,-390,-77
5025,1288,-448,-288,437,-419,-129
5030,1480,-296,-400,455,-447,-170
5035,1696,-192,-472,447,-473,-198
5040,1960,-64,-544,426,-483,-213
5045,2312,24,-584,397,-461,-212
5050,2560,88,-616,357,-398,-205
5055,2816,176,-632,320,-280,-190
5060,2968,264,-648,293,-119,-172
5065,3056,344,-696,247,59,-143
5070,3088,376,-712,204,230,-114
5075,2944,384,-760,169,384,-94
5080,2744,392,-776,133,491,-67
5085,2496,368,-792,79,533,-53
5090,2256,320,-712,26,531,-45
5095,2064,200,-728,-6,485,-64
5100,2032,128,-760,-19,394,-99
5105,2208,16,-648,-17,317,-125
5110,2280,-32,-672,-6,248,-152
5115,2432,-16,-632,3,183,-174
5120,2552,72,-688,13,120,-193
5125,2512,136,-648,23,66,-226
5130,2704,184,-648,34,26,-254
5135,2720,320,-680,33,-20,-319
5140,2616,456,-672,-19,-66,-351
5145,2456,560,-632,-105,-129,-378
5150,2296,600,-600,-193,-207,-400
5155,2224,592,-600,-265,-300,-415
5160,2136,608,-624,-323,-405,-428
5165,2232,608,-664,-377,-518,-434
5170,2184,552,-760,-418,-629,-433
5175,2168,472,-832,-445,-738,-420
5180,2376,464,-968,-454,-843,-406
5185,2208,312,-1040,-433,-943,-417
5190,2224,208,-1104,-405,-1033,-392
5195,2288,376,-1168,-377,-1101,-388
5200,2272,336,-1240,-320,-1143,-405
5205,2128,328,-1272,-282,-1140,-357
5210,2184,528,-1320,-262,-1141,-337
5215,2088,440,-1264,-223,-1128,-330
5220,2080,448,-1216,-185,-1110,-278
5225,2096,608,-1264,-170,-1095,-255
5230,1968,656,-1200,-176,-1076,-268
5235,2144,512,-1168,-148,-1033,-220
5240,2136,480,-1224,-122,-979,-199
5245,2136,560,-1320,-99,-936,-195
5250,1936,568,-1304,-85,-867,-214
5255,1960,440,-1296,-71,-814,-206
5260,1976,464,-1232,-48,-768,-216
5265,2072,552,-1304,-31,-724,-223
5270,1936,608,-1240,-59,-669,-245
5275,1864,592,-1216,-112,-624,-262
5280,1912,552,-1280,-109,-573,-270
5285,1888,616,-1368,-136,-502,-284
5290,1760,600,-1312,-177,-433,-289
5295,1728,560,-1264,-180,-364,-289
5300,1752,544,-1248,-174,-297,-291
5305,1720,528,-1248,-168,-234,-294
5310,1728,576,-1200,-154,-184,-294
5315,1784,568,-1240,-149,-150,-295
5320,1720,560,-1264,-134,-123,-291
5325,1704,528,-1216,-117,-110,-285
5330,1744,512,-1272,-95,-110,-280
5335,1728,496,-1312,-76,-103,-280
5340,1736,512,-1344,-57,-98,-280
5345,1696,528,-1368,-35,-93,-285
5350,1648,536,-1376,-12,-92,-292
5355,1680,544,-1376,10,-98,-300
5360,1648,568,-1440,29,-100,-308
5365,1616,576,-1424,38,-107,-315
5370,1600,552,-1440,42,-120,-320
5375,1592,560,-1448,47,-133,-324
5380,1568,536,-1456,53,-156,-327
5385,1424,512,-1488,67,-186,-331
5390,1496,552,-1456,86,-226,-341
5395,1504,592,-1504,85,-249,-338
5400,1584,632,-1480,67,-267,-331
5405,1608,680,-1496,41,-277,-318
5410,1736,688,-1528,19,-275,-303
5415,1768,680,-1528,-10,-268,-297
5420,1744,696,-1552,-40,-249,-287
5425,1736,696,-1560,-74,-222,-275
5430,1720,664,-1536,-107,-191,-263
5435,1736,712,-1520,-138,-154,-250
5440,1728,696,-1528,-159,-113,-233
5445,1784,704,-1544,-175,-70,-215
5450,1768,712,-1504,-186,-25,-198
5455,1824,736,-1584,-195,16,-178
5460,1808,736,-1496,-204,59,-158
5465,1840,744,-1528,-209,96,-132
5470,1856,744,-1472,-212,128,-111
5475,1856,768,-1456,-214,153,-94
5480,1840,760,-1464,-213,176,-74
5485,1816,776,-1432,-208,193,-54
5490,1832,784,-1424,-198,211,-33
5495,1832,816,-1408,-187,233,-8
5500,1856,808,-1408,-178,253,16
5505,1904,800,-1384,-166,272,43
5510,1856,808,-1352,-156,283,62
5515,1856,776,-1304,-149,293,75
5520,1864,768,-1288,-141,299,85
5525,1880,752,-1280,-131,302,92
5530,1880,704,-1240,-124,303,96
5535,1816,696,-1232,-112,305,97
5540,1816,696,-1176,-103,305,92
5545,1808,672,-1176,-95,302,88
5550,1808,680,-1144,-89,302,85
5555,1808,664,-1120,-81,301,83
5560,1768,688,-1112,-78,305,84
5565,1792,672,-1104,-76,308,84
5570,1752,656,-1088,-75,310,82
5575,1784,632,-1088,-70,311,79
5580,1768,624,-1096,-68,312,77
5585,1776,616,-1072,-65,310,72
5590,1776,616,-1064,-58,308,65
5595,1768,640,-1104,-51,306,60
5600,1768,648,-1088,-38,304,55
5605,1784,680,-1104,-23,302,50
5610,1832,680,-1104,-7,302,48
5615,1840,664,-1120,8,301,44
5620,1848,696,-1136,24,296,40
5625,1864,680,-1120,40,288,36
5630,1808,664,-1112,59,274,30
5635,1848,688,-1072,77,259,28
5640,1880,656,-1056,95,245,22
5645,1856,648,-1056,109,226,15
5650,1824,664,-1096,122,206,10
5655,1872,616,-1048,136,186,3
5660,1824,624,-1072,144,170,-1
5665,1864,632,-1072,148,160,-10
5670,1784,624,-1056,148,152,-16
5675,1800,632,-1040,143,149,-25
5680,1784,632,-1056,133,146,-32
5685,1808,648,-1064,120,142,-41
5690,1776,568,-1064,107,139,-46
5695,1792,616,-1064,98,136,-51
5700,1832,608,-1080,91,130,-56
5705,1824,616,-1104,83,122,-60
5710,1808,616,-1136,77,114,-63
5715,1816,592,-1144,70,105,-65
5720,1832,608,-1128,67,93,-68
5725,1856,608,-1144,59,78,-71
5730,1856,592,-1128,54,66,-73
5735,1864,616,-1152,49,51,-74
5740,1888,608,-1128,46,38,-74
5745,1856,600,-1128,43,28,-75
5750,1872,600,-1152,40,21,-78
5755,1872,624,-1160,35,14,-81
5760,1864,648,-1176,31,11,-82
5765,1856,672,-1176,27,10,-80
5770,1856,648,-1176,23,11,-77
5775,1840,656,-1184,19,13,-74
5780,1856,648,-1168,16,16,-71
5785,1856,640,-1192,14,18,-65
5790,1856,656,-1200,15,21,-58
5795,1864,648,-1192,15,26,-55
5800,1872,648,-1200,11,27,-56
5805,1864,632,-1176,11,28,-55
5810,1864,664,-1184,9,30,-53
5815,1848,680,-1168,5,31,-51
5820,1832,656,-1168,5,32,-47
5825,1872,656,-1160,1,30,-45
5830,1856,656,-1152,0,28,-42
5835,1840,656,-1152,0,24,-41
5840,1864,664,-1136,1,20,-36
5845,1832,672,-1160,-1,15,-34
5850,1832,672,-1136,-5,7,-32
5855,1816,656,-1144,-14,1,-33
5860,1832,680,-1128,-26,-5,-35
5865,1832,648,-1144,-35,-9,-36
5870,1832,616,-1064,-43,-10,-40
5875,1824,640,-1144,-50,-12,-41
5880,1816,656,-1144,-56,-9,-43
5885,1840,656,-1120,-56,-7,-41
5890,1808,672,-1168,-53,-3,-38
5895,1832,632,-1160,-46,-1,-36
5900,1824,640,-1152,-40,2,-32
5905,1808,632,-1176,-32,4,-29
5910,1784,632,-1208,-22,4,-27
5915,1840,656,-1168,-12,2,-24
5920,1832,680,-1168,-11,5,-26
5925,1840,624,-1104,-14,4,-26
5930,1832,688,-1160,-15,5,-24
5935,1800,720,-1152,-19,4,-24
5940,1816,688,-1152,-23,3,-21
5945,1808,680,-1112,-29,2,-23
5950,1800,696,-1136,-39,2,-24
5955,1824,632,-1144,-43,0,-25
5960,1808,672,-1160,-47,2,-27
5965,1816,600,-1136,-47,5,-29
5970,1808,648,-1112,-42,9,-32
5975,1808,616,-1160,-36,14,-35
5980,1800,632,-1184,-28,18,-37
5985,1800,672,-1152,-21,21,-36
5990,1696,688,-1152,-15,24,-35
5995,1856,656,-1192,-10,32,-29
6000,1856,656,-1168,-9,29,-34
6005,1824,656,-1168,-9,26,-34
6010,1856,680,-1144,-6,25,-33
6015,1824,688,-1168,-3,22,-28
6020,1824,680,-1128,-5,21,-26
6025,1832,680,-1184,-7,21,-26
6030,1824,648,-1184,-9,21,-25
6035,1824,656,-1152,-10,21,-23
6040,1816,672,-1184,-14,23,-22
6045,1848,672,-1176,-18,24,-21
6050,1824,664,-1168,-19,26,-20
6055,1824,648,-1216,-23,26,-18
6060,1848,632,-1176,-25,26,-19
6065,1840,672,-1176,-28,26,-19
6070,1840,648,-1160,-32,28,-19
6075,1856,648,-1144,-32,30,-17
6080,1848,664,-1184,-32,32,-15
6085,1856,640,-1192,-33,34,-14
6090,1848,648,-1208,-29,36,-13
6095,1848,648,-1176,-26,37,-10
6100,1840,608,-1176,-24,39,-8
6105,1848,664,-1184,-21,40,-9
6110,1848,648,-1184,-18,48,-8
6115,1864,648,-1168,-20,52,-7
6120,1824,672,-1200,-22,53,-5
6125,1864,632,-1136,-25,54,-3
6130,1840,632,-1176,-25,53,-3
6135,1840,616,-1160,-24,53,-2
6140,1864,672,-1176,-22,53,-2
6145,1856,648,-1152,-23,57,-1
6150,1856,632,-1184,-26,57,-2
6155,1848,648,-1168,-27,57,1
6160,1832,672,-1176,-25,55,4
6165,1840,648,-1184,-24,52,4
6170,1840,648,-1176,-16,47,5
6175,1832,656,-1176,-12,48,6
6180,1840,640,-1176,-12,48,8
6185,1808,624,-1144,-10,48,8
6190,1824,648,-1144,-9,47,6
6195,1848,648,-1152,-11,50,6
6200,1856,640,-1136,-11,52,6
6205,1840,608,-1168,-10,51,3
6210,1832,656,-1144,-5,51,5
6215,1856,648,-1184,2,53,3
6220,1864,648,-1152,9,54,2
6225,1872,656,-1160,17,53,3
6230,1872,648,-1152,24,51,3
6235,1824,664,-1160,22,50,0
6240,1824,696,-1136,18,49,0
6245,1832,664,-1144,16,48,3
6250,1816,648,-1128,11,48,3
6255,1832,656,-1128,6,46,1
6260,1848,648,-1096,3,47,-3
6265,1832,640,-1160,3,47,-3
6270,1832,648,-1160,6,45,-4
6275,1840,640,-1128,11,44,-3
6280,1832,640,-1160,15,44,-4
6285,1848,600,-1160,16,44,-3
6290,1848,616,-1144,18,38,-2
6295,1832,640,-1104,13,38,-4
6300,1864,656,-1152,3,34,-5
6305,1840,632,-1128,-9,30,-7
6310,1848,648,-1144,-18,28,-8
6315,1848,648,-1144,-24,28,-9
6320,1840,656,-1144,-29,27,-8
6325,1864,624,-1112,-32,27,-7
6330,1840,640,-1152,-37,28,-7
6335,1880,616,-1184,-41,29,-5
6340,1864,640,-1176,-42,31,-5
6345,1872,632,-1160,-42,35,-6
6350,1856,648,-1176,-40,37,-8
6355,1864,648,-1152,-33,40,-8
6360,1896,656,-1184,-28,40,-7
6365,1816,600,-1152,-28,43,-6
6370,1872,656,-1144,-18,40,-5
6375,1856,656,-1120,-21,47,-6
6380,1848,664,-1144,-25,47,-9
6385,1856,664,-1144,-24,48,-9
6390,1856,648,-1176,-24,49,-11
6395,1848,648,-1096,-23,47,-10
6400,1864,640,-1136,-24,49,-10
6405,1840,648,-1120,-29,47,-11
6410,1848,664,-1112,-31,47,-12
6415,1824,664,-1144,-37,45,-12
6420,1840,664,-1152,-41,45,-10
6425,1848,656,-1160,-46,44,-7
6430,1832,664,-1168,-50,44,-5
6435,1832,656,-1136,-55,44,-4
6440,1824,632,-1128,-59,46,-3
6445,1840,624,-1120,-63,45,-1
6450,1824,632,-1136,-64,46,-2
6455,1832,624,-1120,-63,43,-3
6460,1832,608,-1104,-60,40,-5
6465,1824,632,-1112,-58,39,-8
6470,1824,624,-1112,-56,39,-10
6475,1832,648,-1120,-56,38,-11
6480,1840,640,-1112,-52,38,-12
6485,1848,664,-1152,-49,38,-14
6490,1816,632,-1160,-50,35,-14
6495,1832,640,-1160,-48,33,-15
6500,1864,648,-1128,-49,35,-12
6505,1856,632,-1152,-46,36,-15
6510,1856,656,-1128,-44,34,-14
6515,1848,656,-1128,-38,33,-11
6520,1840,672,-1112,-36,33,-10
6525,1864,624,-1136,-31,30,-9
6530,1832,648,-1104,-27,29,-7
6535,1864,656,-1152,-28,26,-5
6540,1840,656,-1120,-27,24,-4
6545,1848,640,-1160,-18,20,-5
6550,1792,584,-1152,-12,22,-6
6555,1840,688,-1128,-2,19,-8
6560,1872,656,-1136,-4,27,-6
6565,1840,624,-1120,-8,33,-9
6570,1840,640,-1168,-6,35,-7
6575,1832,648,-1160,-7,37,-6
6580,1864,648,-1144,-7,39,-6
6585,1848,640,-1128,-7,43,-5
6590,1832,608,-1144,-10,41,-6
6595,1872,560,-1160,-9,37,-4
6600,1856,640,-1160,-6,37,-5
6605,1808,640,-1176,-6,39,-5
6610,1856,632,-1128,2,38,-5
6615,1864,632,-1152,0,35,-8
6620,1840,640,-1136,-6,31,-8
6625,1848,656,-1120,-9,28,-7
6630,1840,648,-1104,-11,23,-9
6635,1864,632,-1120,-15,17,-9
6640,1840,632,-1120,-17,11,-9
6645,1816,640,-1112,-19,6,-10
6650,1832,640,-1128,-17,3,-11
6655,1824,648,-1120,-18,1,-13
6660,1832,648,-1120,-22,4,-14
6665,1832,648,-1152,-23,5,-16
6670,1832,664,-1144,-25,6,-14
6675,1840,640,-1128,-27,9,-14
6680,1848,656,-1088,-29,9,-13
6685,1864,656,-1144,-30,11,-13
6690,1832,632,-1144,-29,11,-12
6695,1872,632,-1112,-32,9,-12
6700,1872,624,-1160,-33,9,-12
6705,1856,640,-1128,-31,7,-11
6710,1840,624,-1120,-32,7,-10
6715,1840,640,-1160,-31,6,-12
6720,1880,624,-1128,-31,6,-14
6725,1824,640,-1128,-36,5,-15
6730,1856,624,-1112,-37,2,-16
6735,1840,616,-1120,-40,3,-18
6740,1840,640,-1128,-39,3,-18
6745,1832,640,-1120,-41,4,-18
6750,1840,624,-1144,-42,4,-20
6755,1848,648,-1144,-40,5,-19
6760,1824,640,-1104,-41,5,-18
6765,1848,632,-1128,-40,4,-20
6770,1832,648,-1160,-40,5,-20
6775,1832,672,-1136,-39,5,-20
6780,1856,616,-1176,-39,4,-22
6785,1840,640,-1152,-37,4,-22
6790,1848,632,-1152,-36,7,-22
6795,1864,648,-1168,-36,8,-24
6800,1848,544,-1104,-38,10,-24
6805,1840,648,-1184,-39,9,-23
6810,1856,624,-1176,-39,10,-22
6815,1856,648,-1144,-38,8,-23
6820,1856,648,-1152,-37,7,-22
6825,1848,640,-1192,-37,6,-19
6830,1840,640,-1152,-39,8,-20
6835,1856,672,-1144,-39,6,-20
6840,1832,640,-1160,-39,7,-18
6845,1856,624,-1184,-36,5,-17
6850,1808,544,-1016,-31,6,-18
6855,1880,640,-1152,-18,1,-18
6860,1864,672,-1176,-14,9,-18
6865,1864,648,-1136,-22,11,-16
6870,1848,632,-1120,-26,13,-14
6875,1840,624,-1160,-29,16,-16
6880,1848,632,-1128,-28,19,-14
6885,1808,672,-1152,-26,22,-16
6890,1832,664,-1160,-25,28,-14
6895,1824,648,-1136,-30,26,-11
6900,1840,632,-1120,-33,23,-11
6905,1824,616,-1112,-33,20,-9
6910,1848,640,-1144,-35,17,-10
6915,1848,640,-1144,-33,16,-9
6920,1856,632,-1144,-29,12,-9
6925,1848,640,-1136,-26,9,-10
6930,1848,648,-1160,-26,9,-11
6935,1832,648,-1120,-29,10,-12
6940,1808,664,-1136,-31,10,-13
6945,1840,664,-1168,-33,10,-14
6950,1848,608,-1120,-29,12,-13
6955,1864,624,-1160,-25,14,-10
6960,1896,552,-1208,-17,15,-9
6965,1840,616,-1160,-13,16,-10
6970,1832,648,-1152,-4,17,-10
6975,1888,592,-1200,6,17,-9
6980,1840,688,-1144,18,23,-12
6985,1816,720,-1136,19,29,-10
6990,1896,664,-1168,16,36,-3
6995,1864,648,-1176,17,38,-11
7000,1848,640,-1160,17,38,-8
7005,1848,656,-1144,16,39,-7
7010,1848,608,-1144,20,40,-7
7015,1864,584,-1144,32,40,-7
7020,1832,600,-1112,40,48,-9
7025,1880,632,-1152,56,49,-10
7030,1816,624,-1152,57,53,-14
7035,1864,600,-1112,68,54,-24
7040,1840,592,-1120,64,52,-21
7045,1840,624,-1136,56,46,-21
7050,1872,640,-1200,48,41,-21
7055,1824,664,-1120,43,44,-25
7060,1848,680,-1144,35,41,-24
7065,1864,680,-1152,28,39,-24
7070,1848,656,-1152,25,40,-21
7075,1824,664,-1160,23,41,-16
7080,1832,640,-1136,17,42,-20
7085,1840,616,-1136,12,40,-23
7090,1888,592,-1128,14,34,-19
7095,1832,624,-1144,18,34,-22
7100,1824,664,-1168,20,38,-23
7105,1856,656,-1168,19,42,-27
7110,1848,648,-1136,21,40,-25
7115,1856,640,-1120,17,38,-24
7120,1848,656,-1128,11,37,-23
7125,1864,632,-1152,4,35,-24
7130,1808,648,-1112,-2,38,-26
7135,1856,632,-1128,-8,37,-25
7140,1856,648,-1144,-13,33,-26
7145,1848,632,-1080,-16,31,-28
7150,1832,648,-1112,-16,27,-27
7155,1840,656,-1136,-17,25,-28
7160,1848,632,-1112,-21,21,-27
7165,1856,648,-1112,-26,17,-26
7170,1832,624,-1120,-31,11,-27
7175,1856,624,-1160,-38,8,-28
7180,1840,632,-1136,-40,4,-28
7185,1840,648,-1112,-42,4,-28
7190,1840,648,-1112,-42,3,-27
7195,1840,608,-1104,-41,1,-25
7200,1856,616,-1160,-41,1,-24
7205,1840,632,-1168,-40,2,-24
7210,1856,624,-1152,-39,2,-23
7215,1864,624,-1160,-41,3,-23
7220,1864,640,-1144,-39,2,-22
7225,1864,640,-1128,-40,3,-19
7230,1880,640,-1176,-40,7,-17
7235,1832,640,-1176,-39,10,-15
7240,1832,664,-1144,-40,12,-14
7245,1856,640,-1152,-44,14,-14
7250,1872,648,-1144,-44,16,-13
7255,1848,656,-1144,-45,16,-11
7260,1832,648,-1144,-44,16,-10
7265,1848,672,-1176,-46,15,-8
7270,1824,648,-1160,-45,16,-5
7275,1808,648,-1160,-46,14,-4
7280,1864,640,-1136,-46,13,-3
7285,1856,624,-1144,-47,14,-3
7290,1848,632,-1128,-49,17,-5
7295,1840,640,-1152,-49,20,-6
7300,1880,624,-1152,-47,22,-5
7305,1848,616,-1152,-43,24,-4
7310,1832,640,-1136,-40,28,-4
7315,1856,616,-1144,-36,31,-3
7320,1840,624,-1128,-30,30,-5
7325,1864,624,-1136,-28,30,-6
7330,1832,648,-1096,-29,27,-7
7335,1832,624,-1112,-29,28,-9
7340,1840,640,-1128,-33,25,-10
7345,1832,624,-1128,-34,23,-10
7350,1800,608,-1128,-36,21,-12
7355,1872,616,-1128,-22,12,-12
7360,1856,656,-1144,-17,16,-15
7365,1864,664,-1144,-27,17,-14
7370,1840,656,-1136,-35,15,-13
7375,1856,640,-1168,-36,15,-14
7380,1864,648,-1144,-39,13,-13
7385,1872,640,-1112,-41,11,-12
7390,1840,640,-1128,-39,11,-13
7395,1840,640,-1144,-37,10,-12
7400,1856,632,-1144,-39,11,-13
7405,1832,640,-1144,-37,13,-13
7410,1840,648,-1144,-37,17,-15
7415,1840,632,-1136,-39,17,-14
7420,1848,648,-1152,-38,20,-14
7425,1864,632,-1160,-36,20,-12
7430,1848,648,-1144,-35,20,-10
7435,1872,632,-1160,-36,20,-9
7440,1840,632,-1160,-32,17,-9
7445,1864,632,-1144,-33,15,-8
7450,1832,640,-1136,-31,15,-7
7455,1856,648,-1136,-32,14,-7
7460,1848,640,-1120,-30,11,-7
7465,1840,640,-1144,-29,10,-7
7470,1824,656,-1184,-25,8,-11
7475,1848,664,-1104,-22,8,-9
7480,1840,616,-1128,-24,8,-9
7485,1816,640,-1144,-25,8,-8
7490,1848,640,-1120,-24,7,-9
7495,1832,656,-1120,-24,8,-10
7500,1848,664,-1128,-29,11,-9
7505,1848,616,-1144,-31,13,-9
7510,1840,608,-1112,-31,14,-8
7515,1872,632,-1120,-30,17,-9
7520,1856,624,-1144,-31,18,-8
7525,1840,616,-1144,-34,18,-5
7530,1856,640,-1128,-35,19,-6
7535,1848,632,-1136,-38,17,-6
7540,1840,624,-1120,-42,16,-5
7545,1864,632,-1176,-43,16,-5
7550,1864,648,-1120,-46,13,-6
7555,1840,624,-1128,-50,13,-7
7560,1840,616,-1136,-50,11,-6
7565,1848,616,-1136,-53,9,-6
7570,1824,648,-1160,-52,9,-7
7575,1856,632,-1136,-54,8,-8
7580,1848,640,-1144,-53,8,-9
7585,1856,608,-1120,-54,7,-9
7590,1824,624,-1144,-55,5,-9
7595,1824,672,-1144,-54,5,-11
7600,1840,624,-1168,-55,6,-12
7605,1840,600,-1152,-56,6,-13
7610,1848,616,-1144,-55,6,-12
7615,1832,648,-1176,-53,5,-13
7620,1832,648,-1136,-51,8,-13
7625,1856,640,-1144,-52,8,-12
7630,1848,656,-1136,-50,9,-10
7635,1840,640,-1144,-47,6,-11
7640,1840,640,-1152,-48,7,-10
7645,1872,632,-1136,-44,7,-11
7650,1840,648,-1144,-44,7,-11
7655,1856,648,-1144,-42,7,-10
7660,1848,672,-1144,-39,7,-11
7665,1848,632,-1168,-38,7,-10
7670,1840,664,-1152,-37,11,-11
7675,1864,648,-1152,-39,10,-13
7680,1856,640,-1168,-41,10,-12
7685,1832,648,-1144,-44,13,-13
7690,1856,632,-1168,-45,14,-11
7695,1824,648,-1128,-44,14,-12
7700,1832,648,-1144,-43,12,-11
7705,1848,648,-1128,-44,11,-11
7710,1848,632,-1136,-42,10,-9
7715,1840,632,-1136,-41,7,-11
7720,1848,648,-1128,-41,7,-12
7725,1856,648,-1152,-43,6,-13
7730,1864,632,-1152,-45,6,-14
7735,1848,648,-1168,-46,9,-13
7740,1856,616,-1120,-42,11,-10
7745,1856,648,-1144,-36,12,-9
7750,1832,640,-1152,-33,13,-7
7755,1840,648,-1184,-29,15,-8
7760,1848,656,-1152,-27,16,-9
7765,1816,632,-1168,-25,19,-9
7770,1856,656,-1160,-20,19,-8
7775,1760,592,-1112,-18,23,-9
7780,1856,648,-1144,-7,15,-9
7785,1856,688,-1168,-7,29,-8
7790,1840,664,-1152,-19,31,-4
7795,1848,656,-1176,-25,32,-1
7800,1880,640,-1176,-25,35,2
7805,1840,592,-1152,-21,37,4
7810,1856,632,-1160,-23,40,2
7815,1808,584,-1136,-21,41,2
7820,1840,648,-1120,-13,39,1
7825,1728,632,-1160,-14,40,1
7830,1816,664,-1152,-9,38,9
7835,1856,632,-1112,0,27,-2
7840,1840,664,-1136,-7,24,-9
7845,1840,672,-1144,-21,20,-10
7850,1840,688,-1152,-33,17,-10
7855,1856,664,-1160,-43,16,-7
7860,1840,632,-1144,-49,17,-5
7865,1848,640,-1168,-53,21,-4
7870,1840,656,-1160,-57,25,-2
7875,1848,648,-1128,-58,30,-1
7880,1864,616,-1144,-57,35,1
7885,1880,536,-1088,-55,39,1
7890,1848,616,-1120,-49,41,-1
7895,1888,632,-1176,-44,41,-2
7900,1864,640,-1192,-38,42,-1
7905,1872,656,-1144,-34,42,0
7910,1792,648,-1128,-34,44,1
7915,1896,624,-1160,-20,52,6
7920,1864,656,-1168,-25,48,3
7925,1848,632,-1128,-31,40,1
7930,1856,640,-1112,-30,38,0
7935,1848,632,-1128,-28,33,0
7940,1856,728,-1192,-27,30,0
7945,1832,632,-1120,-25,25,-1
7950,1816,656,-1088,-22,21,-1
7955,1848,632,-1136,-22,17,-2
7960,1824,648,-1144,-24,14,-3
7965,1848,648,-1144,-26,12,-2
7970,1824,640,-1120,-29,9,-3
7975,1816,632,-1120,-30,8,-2
7980,1816,640,-1128,-30,8,-3
7985,1832,648,-1144,-31,7,-4
7990,1848,624,-1120,-30,7,-4
7995,1832,608,-1176,-31,8,-4
8000,1840,632,-1168,-31,8,-5
8005,1848,616,-1152,-31,9,-5
8010,1856,616,-1136,-32,10,-5
8015,1848,608,-1176,-35,7,-5
8020,1864,624,-1160,-38,7,-5
8025,1848,640,-1168,-38,8,-7
8030,1824,640,-1136,-39,5,-5
8035,1864,608,-1128,-40,5,-7
8040,1832,624,-1144,-43,6,-8
8045,1816,640,-1128,-47,4,-9
8050,1840,632,-1144,-46,4,-8
8055,1840,640,-1128,-49,8,-8
8060,1832,624,-1144,-48,8,-7
8065,1824,640,-1160,-50,10,-10
8070,1832,624,-1160,-51,10,-10
8075,1848,632,-1120,-52,11,-9
8080,1840,624,-1160,-54,14,-10
8085,1808,656,-1136,-53,13,-10
8090,1840,640,-1120,-49,15,-10
8095,1832,624,-1144,-48,16,-11
8100,1848,608,-1160,-47,19,-9
8105,1832,632,-1144,-46,18,-9
8110,1856,632,-1136,-47,17,-10
8115,1848,640,-1144,-47,17,-13
8120,1840,632,-1144,-47,17,-14
8125,1824,584,-1136,-47,13,-14
8130,1872,648,-1152,-45,11,-17
8135,1848,664,-1136,-51,14,-18
8140,1848,648,-1160,-57,15,-20
8145,1848,616,-1168,-57,15,-19
8150,1864,616,-1160,-57,15,-18
8155,1856,640,-1184,-58,16,-17
8160,1864,632,-1136,-58,16,-18
8165,1856,648,-1120,-56,15,-18
8170,1848,648,-1168,-53,16,-16
8175,1864,616,-1136,-47,14,-15
8180,1864,656,-1160,-42,17,-17
8185,1840,648,-1112,-47,17,-16
8190,1784,592,-1168,-38,5,-12
8195,1904,664,-1120,-25,3,-15
8200,1824,712,-1152,-32,14,-16
8205,1872,664,-1112,-44,11,-11
8210,1848,680,-1128,-44,13,-9
8215,1832,640,-1136,-46,12,-6
8220,1832,648,-1136,-49,12,-6
8225,1832,640,-1128,-49,11,-7
8230,1848,648,-1128,-49,9,-5
8235,1832,672,-1112,-48,10,-4
8240,1856,624,-1128,-45,10,-4
8245,1856,656,-1144,-44,8,-2
8250,1848,632,-1144,-43,7,-1
8255,1840,648,-1120,-41,8,-1
8260,1840,648,-1144,-42,8,-1
8265,1832,648,-1128,-41,8,-1
8270,1840,632,-1160,-41,6,-2
8275,1848,648,-1208,-45,5,-1
8280,1848,632,-1136,-43,5,-1
8285,1848,632,-1120,-42,4,-2
8290,1856,624,-1152,-41,2,-3
8295,1816,640,-1168,-40,5,-4
8300,1816,648,-1120,-42,7,-5
8305,1880,640,-1176,-43,9,-4
8310,1824,616,-1144,-41,14,-3
8315,1816,648,-1136,-41,12,-3
8320,1848,640,-1160,-38,12,-4
8325,1848,624,-1160,-38,11,-5
8330,1840,632,-1136,-40,11,-6
8335,1864,648,-1160,-39,11,-7
8340,1832,648,-1176,-38,12,-6
8345,1864,648,-1160,-38,13,-7
8350,1856,648,-1160,-39,12,-9
8355,1848,648,-1152,-39,10,-7
8360,1872,632,-1128,-41,12,-8
8365,1848,616,-1168,-41,10,-8
8370,1856,632,-1128,-39,12,-7
8375,1848,640,-1144,-40,12,-8
8380,1824,640,-1144,-43,15,-7
8385,1848,648,-1160,-42,14,-6
8390,1848,616,-1160,-41,17,-4
8395,1864,640,-1176,-41,18,-4
8400,1864,648,-1128,-42,18,-4
8405,1840,640,-1160,-42,17,-3
8410,1864,632,-1152,-41,19,-2
8415,1856,632,-1152,-44,21,-3
8420,1856,632,-1136,-42,21,-1
8425,1840,624,-1152,-40,23,-1
8430,1824,640,-1136,-42,23,-2
8435,1832,648,-1144,-42,24,-2
8440,1832,640,-1160,-45,22,-4
8445,1800,640,-1136,-45,23,-3
8450,1832,624,-1144,-46,24,-4
8455,1856,632,-1136,-44,24,-5
8460,1840,640,-1136,-42,26,-7
8465,1840,624,-1160,-41,26,-6
8470,1856,600,-1128,-41,28,-8
8475,1848,624,-1160,-38,32,-10
8480,1824,640,-1152,-35,33,-9
8485,1840,648,-1136,-34,34,-11
8490,1832,640,-1128,-33,36,-11
8495,1824,640,-1128,-32,35,-11
8500,1848,640,-1120,-34,31,-12
8505,1840,632,-1136,-37,30,-13
8510,1840,648,-1120,-39,28,-12
8515,1832,640,-1136,-41,26,-12
8520,1848,616,-1104,-41,22,-12
8525,1872,640,-1152,-43,19,-11
8530,1856,632,-1144,-45,17,-11
8535,1848,648,-1152,-48,12,-12
8540,1832,648,-1160,-49,11,-14
8545,1864,648,-1152,-51,9,-14
8550,1856,632,-1152,-53,10,-15
8555,1840,640,-1152,-54,10,-16
8560,1848,648,-1128,-54,11,-14
8565,1856,624,-1144,-52,12,-14
8570,1864,648,-1160,-49,15,-13
8575,1872,632,-1152,-46,14,-12
8580,1856,600,-1176,-38,13,-13
8585,1840,672,-1152,-31,12,-12
8590,1840,656,-1152,-35,16,-11
8595,1848,672,-1184,-37,15,-10
8600,1800,680,-1160,-37,16,-11
8605,1856,648,-1144,-35,17,-10
8610,1840,664,-1144,-37,17,-9
8615,1832,648,-1152,-37,17,-9
8620,1848,648,-1128,-35,18,-7
8625,1856,624,-1128,-31,19,-6
8630,1848,640,-1168,-26,20,-4
8635,1856,616,-1160,-21,22,-3
8640,1864,600,-1184,-17,22,-5
8645,1856,640,-1176,-12,26,-9
8650,1840,632,-1144,-18,29,-11
8655,1824,616,-1144,-24,27,-14
8660,1872,568,-1176,-16,15,-12
8665,1808,672,-1128,-1,18,-20
8670,1832,688,-1144,-12,18,-18
8675,1832,648,-1120,-22,13,-19
8680,1840,664,-1152,-26,12,-16
8685,1848,656,-1152,-31,13,-14
8690,1816,656,-1168,-34,13,-12
8695,1832,640,-1144,-37,15,-11
8700,1832,632,-1136,-38,18,-9
8705,1856,648,-1144,-39,20,-9
8710,1864,648,-1176,-36,23,-7
8715,1880,632,-1192,-32,24,-7
8720,1848,648,-1160,-29,24,-5
8725,1832,664,-1144,-27,24,-2
8730,1848,664,-1176,-25,24,-2
8735,1840,608,-1152,-21,22,1
8740,1840,648,-1136,-14,19,3
8745,1832,656,-1144,-16,23,7
8750,1872,624,-1152,-18,25,11
8755,1832,648,-1160,-19,23,7
8760,1848,656,-1168,-22,23,6
8765,1832,656,-1152,-26,24,6
8770,1840,648,-1136,-28,24,6
8775,1848,640,-1144,-32,25,4
8780,1832,672,-1152,-36,23,4
8785,1840,640,-1104,-36,25,4
8790,1856,656,-1144,-36,25,5
8795,1832,640,-1160,-35,24,5
8800,1896,632,-1144,-32,24,9
8805,1840,608,-1136,-30,27,9
8810,1832,640,-1160,-35,24,8
8815,1840,616,-1168,-36,23,5
8820,1848,632,-1152,-35,21,4
8825,1856,624,-1144,-33,18,1
8830,1848,616,-1160,-31,17,1
8835,1856,616,-1144,-30,16,-1
8840,1808,648,-1136,-29,14,-4
8845,1864,616,-1160,-24,14,-3
8850,1816,616,-1152,-31,16,-1
8855,1832,656,-1152,-31,22,2
8860,1848,632,-1152,-22,27,-1
8865,1832,624,-1152,-30,23,-4
8870,1848,632,-1168,-30,19,-3
8875,1840,624,-1112,-32,21,-3
8880,1848,608,-1136,-35,22,-2
8885,1856,632,-1144,-38,23,0
8890,1864,640,-1160,-38,24,1
8895,1840,624,-1144,-37,24,1
8900,1848,648,-1152,-40,21,1
8905,1824,648,-1128,-42,18,1
8910,1856,600,-1160,-43,19,0
8915,1848,608,-1168,-43,20,-1
8920,1896,632,-1136,-41,23,0
8925,1840,616,-1136,-37,25,-3
8930,1856,640,-1152,-30,27,-6
8935,1856,624,-1128,-31,23,-4
8940,1840,624,-1176,-27,19,-5
8945,1832,624,-1128,-28,20,-6
8950,1824,608,-1152,-30,18,-7
8955,1864,624,-1160,-25,13,-6
8960,1856,648,-1168,-25,16,-10
8965,1848,648,-1160,-35,18,-10
8970,1848,640,-1144,-40,17,-11
8975,1928,664,-1208,-39,18,-11
8980,1840,632,-1136,-37,20,-11
8985,1816,584,-1144,-32,18,-11
8990,1840,568,-1184,-12,5,-9
8995,1872,680,-1176,8,4,-16
9000,1896,680,-1184,5,13,-14
9005,1872,640,-1128,-4,18,-15
9010,1848,632,-1144,-9,17,-6
9015,1864,616,-1160,-11,18,-6
9020,1888,640,-1152,-11,18,-11
9025,1848,624,-1160,-10,17,-12
9030,1848,624,-1144,-14,18,-11
9035,1856,648,-1152,-20,20,-7
9040,1856,600,-1144,-23,21,-6
9045,1840,632,-1144,-24,23,-6
9050,1848,624,-1144,-23,20,-6
9055,1856,616,-1136,-22,23,-7
9060,1840,640,-1128,-18,22,-5
9065,1848,632,-1136,-14,21,-4
9070,1792,592,-1152,-3,18,-3
9075,1776,568,-1176,22,8,3
9080,1872,664,-1144,44,14,-4
9085,1880,672,-1176,58,30,-9
9090,1800,672,-1112,40,30,1
9095,1848,656,-1168,33,29,4
9100,1856,632,-1112,28,26,6
9105,1856,664,-1160,23,19,5
9110,1832,632,-1184,23,24,9
9115,1856,640,-1160,39,30,28
9120,1792,616,-1136,43,27,29
9125,1864,608,-1112,18,25,17
9130,1864,608,-1160,-4,28,13
9135,1856,616,-1144,-17,26,9
9140,1848,616,-1144,-23,25,9
9145,1848,600,-1144,-26,26,7
9150,1840,624,-1120,-20,30,5
9155,1864,632,-1128,-25,22,4
9160,1864,624,-1144,-34,20,5
9165,1864,608,-1144,-37,19,4
9170,1832,600,-1160,-38,17,6
9175,1848,608,-1152,-40,18,4
9180,1872,632,-1160,-39,19,6
9185,1856,592,-1120,-35,20,8
9190,1856,600,-1192,-29,20,10
9195,1744,568,-1144,-22,22,8
9200,1824,560,-1160,-2,12,11
9205,1904,656,-1168,7,16,6
9210,1888,672,-1176,1,28,3
9215,1880,640,-1168,-9,31,5
9220,1832,624,-1208,-12,34,7
9225,1840,632,-1168,-14,36,8
9230,1848,608,-1144,-13,39,7
9235,1856,600,-1128,-10,37,5
9240,1832,608,-1152,-11,36,4
9245,1832,600,-1136,-6,39,2
9250,1856,616,-1128,-5,38,2
9255,1824,600,-1128,-9,34,3
9260,1880,592,-1168,-1,25,6
9265,1840,624,-1136,0,27,3
9270,1856,624,-1152,-4,25,0
9275,1864,632,-1128,-8,26,-2
9280,1848,656,-1152,-19,25,1
9285,1848,608,-1136,-27,26,0
9290,1872,600,-1168,-31,23,-1
9295,1864,616,-1152,-32,21,-2
9300,1848,608,-1144,-34,21,-2
9305,1840,624,-1152,-37,21,-3
9310,1848,616,-1136,-39,23,-2
9315,1816,616,-1128,-42,23,-2
9320,1848,624,-1112,-46,21,-2
9325,1864,616,-1136,-46,20,-2
9330,1856,608,-1144,-50,18,-3
9335,1856,592,-1152,-51,16,-2
9340,1864,632,-1136,-52,12,-2
9345,1848,608,-1136,-53,13,-3
9350,1856,624,-1120,-51,11,-4
9355,1840,608,-1136,-50,9,-6
9360,1832,608,-1136,-49,9,-7
9365,1856,600,-1168,-50,10,-7
9370,1864,624,-1136,-48,10,-9
9375,1856,624,-1168,-48,10,-10
9380,1824,640,-1152,-49,13,-10
9385,1880,624,-1128,-50,14,-9
9390,1856,632,-1152,-50,14,-9
9395,1856,608,-1136,-49,13,-8
9400,1840,640,-1088,-49,13,-7
9405,1864,608,-1160,-50,11,-6
9410,1840,616,-1176,-50,10,-5
9415,1856,624,-1152,-51,8,-5
9420,1848,600,-1152,-50,8,-5
9425,1824,624,-1152,-50,6,-4
9430,1856,624,-1152,-52,5,-4
9435,1872,624,-1152,-52,7,-5
9440,1864,608,-1152,-51,8,-6
9445,1848,608,-1104,-51,10,-1
9450,1856,608,-1160,-47,9,-2
9455,1872,600,-1144,-46,11,-2
9460,1848,632,-1160,-43,11,-3
9465,1856,608,-1152,-42,11,-2
9470,1824,640,-1144,-42,13,-2
9475,1856,624,-1152,-43,13,-2
9480,1864,616,-1144,-45,15,-1
9485,1840,632,-1120,-46,15,-2
9490,1840,624,-1128,-44,18,0
9495,1840,616,-1144,-42,18,0
9500,1856,592,-1152,-38,19,1
9505,1856,600,-1120,-35,22,1
9510,1840,592,-1152,-34,23,2
9515,1856,600,-1168,-33,24,2
9520,1856,600,-1104,-32,26,1
9525,1840,600,-1160,-33,26,-1
9530,1808,616,-1160,-32,27,-4
9535,1824,624,-1160,-32,26,-5
9540,1848,584,-1144,-34,23,-8
9545,1824,624,-1168,-34,19,-8
9550,1848,632,-1176,-37,15,-12
9555,1840,624,-1128,-39,12,-10
9560,1848,616,-1152,-44,12,-9
9565,1856,608,-1152,-46,15,-9
9570,1832,608,-1152,-49,15,-10
9575,1864,608,-1136,-53,17,-9
9580,1848,608,-1184,-52,20,-9
9585,1848,632,-1184,-48,23,-10
9590,1848,616,-1160,-45,25,-10
9595,1848,648,-1144,-39,28,-10
9600,1848,632,-1168,-32,27,-10
9605,1856,616,-1152,-28,28,-8
9610,1872,616,-1160,-21,23,-6
9615,1864,648,-1152,-21,26,-7
9620,1848,648,-1144,-27,28,-6
9625,1864,616,-1168,-28,26,-5
9630,1856,640,-1168,-29,25,-4
9635,1840,616,-1168,-28,22,-3
9640,1880,608,-1144,-25,22,-4
9645,1832,584,-1128,-24,21,-4
9650,1904,576,-1120,-5,10,0
9655,1864,656,-1168,-1,18,-7
9660,1856,656,-1136,-14,20,-5
9665,1832,608,-1160,-22,18,-3
9670,1856,616,-1120,-26,18,-1
9675,1832,624,-1152,-31,17,-3
9680,1856,608,-1160,-34,16,-6
9685,1864,600,-1152,-35,17,-5
9690,1848,600,-1128,-40,15,-4
9695,1848,608,-1160,-42,17,-4
9700,1856,632,-1144,-45,18,-4
9705,1840,616,-1144,-47,17,-5
9710,1856,592,-1152,-46,17,-4
9715,1856,600,-1144,-45,18,-3
9720,1840,600,-1144,-46,17,-6
9725,1872,608,-1152,-48,17,-4
9730,1856,616,-1168,-48,15,-4
9735,1856,616,-1144,-47,14,-2
9740,1832,632,-1152,-50,12,-5
9745,1856,624,-1176,-51,12,-4
9750,1848,608,-1160,-52,12,-4
9755,1848,632,-1168,-53,13,-3
9760,1840,608,-1160,-54,12,-2
9765,1848,632,-1168,-53,13,-1
9770,1848,632,-1136,-53,15,-2
9775,1840,600,-1128,-55,14,0
9780,1872,616,-1128,-53,16,-1
9785,1840,624,-1136,-48,20,1
9790,1864,600,-1168,-51,18,3
9795,1880,592,-1160,-52,18,4
9800,1848,608,-1168,-48,20,4
9805,1856,592,-1144,-42,22,5
9810,1824,608,-1160,-42,23,4
9815,1848,600,-1152,-41,22,1
9820,1832,600,-1152,-38,23,-1
9825,1840,616,-1136,-35,20,-1
9830,1840,616,-1136,-37,17,-1
9835,1872,608,-1144,-42,14,-1
9840,1832,616,-1136,-43,13,-1
9845,1864,584,-1136,-46,13,-2
9850,1872,608,-1024,-47,14,-2
9855,1856,600,-1128,-47,15,-2
9860,1856,592,-1128,-47,16,-2
9865,1848,616,-1136,-46,16,-2
9870,1864,616,-1152,-34,11,-1
9875,1880,608,-1160,-33,21,-2
9880,1856,640,-1144,-41,23,-3
9885,1872,616,-1136,-36,25,0
9890,1848,608,-1152,-43,21,-1
9895,1848,616,-1144,-44,20,-3
9900,1864,736,-1200,-39,19,-5
9905,1792,576,-1096,-37,19,-6
9910,1896,600,-1128,-15,6,-2
9915,1880,664,-1136,-16,17,-9
9920,1840,632,-1144,-31,20,-6
9925,1840,616,-1104,-37,17,-4
9930,1864,624,-1120,-37,17,-3
9935,1848,608,-1120,-36,17,-2
9940,1824,632,-1120,-32,18,-4
9945,1848,632,-1144,-30,20,-2
9950,1832,616,-1136,-32,17,-1
9955,1824,720,-1200,-31,17,0
9960,1856,616,-1144,-31,16,1
9965,1856,624,-1136,-34,16,0
9970,1864,600,-1168,-36,15,0
9975,1848,608,-1144,-33,16,-2
9980,1880,608,-1144,-29,19,-1
9985,1832,608,-1144,-34,15,0
9990,1856,616,-1160,-39,13,0
9995,1856,600,-1112,-39,12,2
10000,1856,592,-1160,-37,11,3
10005,1856,584,-1128,-39,13,1
10010,1792,560,-1176,-39,14,0
10015,1848,616,-1144,-42,14,1
10020,1864,592,-1144,-43,13,0
10025,1840,616,-1144,-41,14,-1
10030,1848,616,-1152,-42,14,0
10035,1864,608,-1176,-42,17,0
10040,1856,616,-1160,-44,17,0
10045,1832,600,-1120,-45,16,0
10050,1872,600,-1176,-46,15,0
10055,1840,624,-1128,-48,16,-1
10060,1832,616,-1160,-50,16,1
10065,1848,608,-1160,-50,17,0
10070,1872,600,-1120,-50,16,-1
10075,1880,568,-1128,-49,18,-2
10080,1856,592,-1152,-46,16,-2
10085,1864,616,-1152,-45,16,-1
10090,1848,624,-1144,-45,15,-3
10095,1864,608,-1152,-45,16,-2
10100,1864,576,-1160,-45,14,-3
10105,1856,616,-1160,-45,15,-3
10110,1840,624,-1136,-46,16,-3
10115,1856,592,-1144,-48,14,-5
10120,1872,608,-1144,-49,13,-4
10125,1864,616,-1176,-47,13,-5
10130,1856,600,-1168,-46,10,-4
10135,1856,600,-1120,-46,10,-3
10140,1856,616,-1144,-48,9,-5
10145,1840,624,-1176,-42,10,-5
10150,1848,616,-1112,-45,9,-5
10155,1848,600,-1136,-47,6,-5
10160,1856,608,-1136,-47,8,-5
10165,1864,600,-1152,-48,8,-6
10170,1856,632,-1184,-49,8,-6
10175,1872,600,-1120,-48,9,-7
10180,1848,632,-1136,-49,10,-9
10185,1864,624,-1144,-47,8,-7
10190,1872,592,-1176,-46,9,-7
10195,1832,584,-1112,-46,10,-7
10200,1848,592,-1144,-46,8,-8
10205,1832,592,-1136,-46,10,-8
10210,1864,608,-1160,-46,10,-7
10215,1848,592,-1152,-44,10,-8
10220,1856,584,-1136,-45,12,-7
10225,1872,600,-1160,-44,12,-7
10230,1848,632,-1168,-44,12,-7
10235,1840,600,-1168,-43,11,-6
10240,1864,616,-1152,-43,13,-5
10245,1856,624,-1144,-44,13,-5
10250,1872,608,-1144,-44,13,-5
10255,1864,616,-1144,-41,13,-3
10260,1856,632,-1176,-38,13,-2
10265,1864,616,-1176,-36,13,-1
10270,1848,608,-1160,-33,13,-1
10275,1872,600,-1152,-31,14,0
10280,1856,616,-1136,-28,17,2
10285,1832,600,-1160,-25,19,1
10290,1864,592,-1144,-23,22,1
10295,1896,592,-1176,-13,17,3
10300,1864,624,-1136,-17,20,0
10305,1864,632,-1152,-34,20,1
10310,1864,624,-1128,-39,19,0
10315,1880,600,-1120,-39,19,1
10320,1824,624,-1152,-42,17,1
10325,1856,616,-1144,-43,15,4
10330,1864,616,-1168,-42,16,4
10335,1856,600,-1168,-41,13,6
10340,1856,584,-1136,-39,13,6
10345,1760,536,-1112,-27,9,10
10350,1888,576,-1160,-4,1,10
10355,1824,656,-1168,-10,8,4
10360,1848,640,-1152,-25,13,7
10365,1888,568,-1176,-24,8,10
10370,1832,632,-1192,-15,12,7
10375,1864,600,-1128,-23,15,7
10380,1872,624,-1104,-23,13,7
10385,1848,640,-1120,-28,13,7
10390,1848,616,-1136,-35,12,6
10395,1816,608,-1136,-39,11,4
10400,1832,624,-1144,-41,13,2
10405,1832,608,-1152,-42,14,2
10410,1848,624,-1144,-42,13,1
10415,1840,608,-1136,-41,15,1
10420,1848,632,-1136,-41,17,3
10425,1840,608,-1168,-38,19,2
10430,1864,592,-1112,-34,21,2
10435,1848,592,-1144,-34,22,1
10440,1840,592,-1152,-31,25,2
10445,1864,568,-1152,-30,27,0
10450,1856,592,-1144,-28,30,0
10455,1840,584,-1152,-27,29,-3
10460,1824,584,-1136,-26,28,-5
10465,1872,584,-1128,-25,24,-8
10470,1832,592,-1128,-23,18,-9
10475,1856,592,-1160,-18,11,-9
10480,1840,640,-1152,-20,10,-13
10485,1848,624,-1176,-30,8,-10
10490,1832,600,-1160,-38,10,-10
10495,1856,608,-1160,-42,12,-11
10500,1848,608,-1168,-46,11,-11
10505,1848,616,-1176,-47,12,-11
10510,1856,600,-1160,-47,15,-10
10515,1848,592,-1152,-46,18,-10
10520,1848,600,-1176,-44,19,-10
10525,1848,616,-1152,-39,22,-9
10530,1864,608,-1168,-34,20,-8
10535,1872,616,-1184,-33,21,-9
10540,1856,576,-1176,-31,14,-5
10545,1888,616,-1152,-16,11,-7
10550,1872,680,-1160,-21,18,-8
10555,1880,624,-1160,-34,17,-5
10560,1840,632,-1176,-38,17,-2
10565,1872,592,-1136,-38,15,-3
10570,1856,592,-1184,-37,16,-5
10575,1840,624,-1128,-39,14,-6
10580,1848,600,-1136,-40,14,-6
10585,1864,624,-1168,-39,13,-4
10590,1856,592,-1120,-38,14,-5
10595,1848,608,-1152,-37,15,-5
10600,1784,616,-1168,-40,13,-4
10605,1864,600,-1176,-40,12,-1
10610,1856,608,-1112,-40,13,-1
10615,1848,624,-1144,-37,13,-1
10620,1848,576,-1144,-36,12,-1
10625,1832,600,-1168,-37,13,0
10630,1848,600,-1184,-36,13,-1
10635,1848,600,-1168,-36,14,-1
10640,1824,608,-1152,-36,13,-1
10645,1856,600,-1136,-37,12,-1
10650,1872,608,-1168,-38,13,1
10655,1864,584,-1144,-39,14,0
10660,1864,608,-1136,-38,15,-2
10665,1848,608,-1128,-39,16,-1
10670,1848,584,-1184,-41,14,-1
10675,1824,584,-1160,-43,13,-1
10680,1848,600,-1168,-42,15,0
10685,1848,600,-1152,-41,16,-1
10690,1856,600,-1160,-40,15,-1
10695,1832,600,-1144,-40,15,1
10700,1808,616,-1144,-42,15,-1
10705,1848,624,-1184,-40,13,-2
10710,1888,584,-1128,-36,14,0
10715,1880,576,-1160,-38,16,1
10720,1872,608,-1176,-38,17,2
10725,1848,592,-1160,-36,20,2
10730,1840,600,-1152,-36,22,1
10735,1864,616,-1160,-34,21,2
10740,1872,592,-1152,-36,22,0
10745,1824,608,-1144,-37,21,-3
10750,1824,616,-1128,-38,19,-5
10755,1848,600,-1136,-41,19,-6
10760,1840,584,-1168,-44,22,-7
10765,1848,600,-1136,-45,22,-8
10770,1856,600,-1136,-46,20,-9
10775,1840,584,-1144,-43,20,-7
10780,1840,592,-1168,-44,22,-8
10785,1864,584,-1136,-48,22,-6
10790,1840,616,-1168,-45,23,-8
10795,1864,600,-1152,-42,22,-7
10800,1872,592,-1168,-42,20,-6
10805,1840,568,-1144,-41,19,-6
10810,1856,616,-1144,-33,16,-4
10815,1864,616,-1184,-36,19,-6
10820,1856,616,-1144,-43,19,-8
10825,1848,608,-1160,-44,19,-7
10830,1848,600,-1120,-45,16,-7
10835,1840,600,-1120,-49,16,-7
10840,1856,600,-1160,-48,15,-7
10845,1832,600,-1136,-49,17,-6
10850,1864,608,-1136,-46,19,-9
10855,1872,600,-1136,-44,19,-8
10860,1848,608,-1144,-47,16,-6
10865,1848,592,-1152,-48,15,-5
10870,1856,608,-1160,-48,14,-5
10875,1856,584,-1136,-48,12,-7
10880,1848,600,-1128,-49,12,-6
10885,1800,560,-1128,-50,11,-5
10890,1864,608,-1128,-51,9,-5
10895,1864,616,-1120,-51,10,-6
10900,1856,616,-1144,-51,10,-6
10905,1840,624,-1144,-53,10,-7
10910,1856,584,-1168,-54,9,-5
10915,1856,600,-1168,-54,8,-4
10920,1864,592,-1144,-52,6,-5
10925,1840,600,-1128,-53,6,-3
10930,1864,616,-1176,-52,5,-4
10935,1856,600,-1112,-51,5,-3
10940,1880,616,-1160,-50,6,-4
10945,1840,624,-1176,-49,7,-4
10950,1840,600,-1152,-48,9,-3
10955,1864,600,-1144,-46,10,-2
10960,1864,600,-1136,-46,13,-2
10965,1872,600,-1152,-46,15,-2
10970,1856,600,-1136,-44,15,-2
10975,1872,616,-1160,-45,15,-2
10980,1856,600,-1128,-48,14,0
10985,1840,608,-1152,-47,13,1
10990,1848,656,-1272,-47,12,-1
10995,1864,600,-1152,-49,12,-1
11000,1880,600,-1144,-49,11,-2
11005,1872,576,-1120,-48,10,-1
11010,1848,600,-1144,-49,9,-2
11015,1840,600,-1136,-48,10,-3
11020,1864,600,-1152,-46,10,-2
11025,1840,584,-1208,-45,11,-2
11030,1848,600,-1160,-45,12,-4
11035,1856,616,-1128,-44,11,-5
11040,1872,592,-1176,-44,11,-4
11045,1840,608,-1176,-45,9,-5
11050,1848,592,-1128,-47,12,-4
11055,1864,576,-1120,-44,10,-4
11060,1856,584,-1160,-46,11,-6
11065,1848,600,-1136,-48,10,-6
11070,1856,592,-1144,-47,10,-5
11075,1840,616,-1152,-46,11,-5
11080,1864,592,-1144,-47,11,-6
11085,1872,600,-1160,-47,10,-6
11090,1856,616,-1136,-48,9,-6
11095,1832,608,-1144,-46,11,-5
11100,1848,608,-1168,-46,12,-5
11105,1856,608,-1160,-47,11,-5
11110,1856,624,-1176,-47,12,-5
11115,1872,592,-1160,-46,11,-6
11120,1856,600,-1152,-47,12,-6
11125,1832,624,-1120,-47,12,-6
11130,1832,616,-1144,-46,12,-5
11135,1880,552,-1152,-47,11,-4
11140,1848,584,-1176,-45,12,-5
11145,1856,608,-1160,-45,13,-4
11150,1856,584,-1152,-43,12,-2
11155,1840,624,-1160,-42,12,-3
11160,1848,608,-1168,-43,13,-4
11165,1856,600,-1152,-43,14,-4
11170,1864,592,-1136,-42,15,-4
11175,1872,600,-1160,-42,15,-5
11180,1840,592,-1144,-43,16,-6
11185,1840,608,-1152,-43,16,-6
11190,1848,600,-1136,-44,15,-7
11195,1848,608,-1208,-46,16,-7
11200,1872,688,-1016,-47,15,-6
11205,1840,624,-1144,-46,15,-4
11210,1872,584,-1184,-46,14,-4
11215,1832,608,-1168,-46,12,-5
11220,1856,584,-1144,-46,14,-4
11225,1872,624,-1192,-46,13,-5
11230,1848,616,-1120,-48,13,-4
11235,1840,584,-1168,-49,12,-4
11240,1872,616,-1144,-49,13,-4
11245,1856,608,-1160,-50,14,-4
11250,1880,592,-1160,-47,11,-4
11255,1872,600,-1168,-42,12,-2
11260,1856,592,-1184,-42,13,-1
11265,1840,592,-1144,-43,13,0
11270,1856,592,-1136,-44,13,0
11275,1856,608,-1144,-44,12,-2
11280,1880,608,-1160,-43,10,-3
11285,1864,624,-1160,-45,10,-4
11290,1808,616,-1128,-49,10,-3
11295,1848,608,-1136,-49,11,-3
11300,1864,600,-1160,-50,12,-2
11305,1864,600,-1120,-47,15,1
11310,1856,592,-1160,-44,17,0
11315,1864,592,-1184,-41,19,2
11320,1856,584,-1184,-40,21,1
11325,1856,584,-1168,-38,23,2
11330,1840,584,-1128,-38,25,1
11335,1840,600,-1120,-38,25,1
11340,1848,584,-1120,-39,23,-1
11345,1824,584,-1112,-42,20,-4
11350,1840,584,-1144,-44,17,-6
11355,1856,592,-1136,-48,12,-8
11360,1880,608,-1160,-51,9,-9
11365,1856,600,-1160,-53,8,-9
11370,1824,592,-1160,-57,9,-7
11375,1864,600,-1152,-59,11,-6
11380,1856,600,-1192,-57,13,-7
11385,1864,576,-1176,-54,16,-7
11390,1864,608,-1152,-53,18,-7
11395,1864,608,-1168,-53,22,-8
11400,1848,616,-1168,-49,24,-8
11405,1856,600,-1168,-48,25,-6
11410,1856,624,-1152,-47,25,-6
11415,1872,592,-1168,-48,24,-5
11420,1856,616,-1168,-45,21,-4
11425,1880,608,-1136,-47,19,-5
11430,1848,608,-1168,-48,19,-5
11435,1848,608,-1160,-50,17,-4
11440,1840,616,-1128,-48,14,-5
11445,1864,600,-1136,-46,13,-5
11450,1848,600,-1152,-47,14,-5
11455,1840,624,-1112,-45,13,-5
11460,1856,592,-1144,-46,13,-3
11465,1848,624,-1144,-43,13,-4
11470,1856,608,-1136,-45,12,-6
11475,1848,584,-1136,-45,12,-4
11480,1848,584,-1160,-46,11,-4
11485,1848,616,-1144,-47,13,-3
11490,1856,608,-1176,-46,12,-3
11495,1872,600,-1152,-44,12,-3
11500,1848,608,-1168,-44,12,-4
11505,1848,600,-1176,-44,13,-4
11510,1864,592,-1144,-45,13,-2
11515,1864,608,-1160,-44,14,-3
11520,1832,608,-1184,-45,13,-2
11525,1856,608,-1168,-45,14,-1
11530,1848,592,-1168,-46,14,-3
11535,1856,600,-1152,-47,16,-3
11540,1864,600,-1152,-47,15,-3
11545,1816,600,-1168,-46,16,-3
11550,1848,600,-1168,-46,16,-2
11555,1856,608,-1160,-49,16,-2
11560,1864,608,-1152,-47,17,-3
11565,1856,624,-1128,-48,17,0
11570,1808,632,-1160,-47,15,0
11575,1864,608,-1128,-49,14,1
11580,1848,616,-1160,-49,14,2
11585,1856,584,-1152,-49,14,1
11590,1864,600,-1136,-51,12,2
11595,1856,600,-1144,-51,14,1
11600,1840,600,-1128,-48,14,1
11605,1856,576,-1160,-47,17,2
11610,1848,584,-1136,-45,17,1
11615,1848,624,-1152,-44,19,1
11620,1848,592,-1152,-44,19,1
11625,1848,616,-1152,-44,19,-1
11630,1840,584,-1128,-44,18,-1
11635,1848,608,-1136,-45,17,-4
11640,1872,584,-1144,-48,16,-4
11645,1856,600,-1136,-49,15,-5
11650,1864,576,-1144,-54,12,-4
11655,1864,584,-1152,-54,15,-7
11660,1856,600,-1176,-52,15,-6
11665,1872,568,-1160,-49,13,-5
11670,1872,592,-1168,-51,15,-6
11675,1856,608,-1160,-50,17,-4
11680,1864,616,-1176,-51,16,-5
11685,1872,584,-1152,-50,15,-4
11690,1856,608,-1160,-49,15,-5
11695,1848,624,-1152,-47,14,-5
11700,1848,616,-1160,-47,12,-5
11705,1856,624,-1152,-47,12,-5
11710,1840,608,-1144,-50,11,-6
11715,1824,600,-1120,-53,10,-5
11720,1856,600,-1176,-52,10,-5
11725,1848,600,-1136,-54,10,-4
11730,1856,608,-1160,-52,9,-3
11735,1832,624,-1144,-53,8,-2
11740,1856,584,-1112,-51,7,-2
11745,1856,608,-1160,-47,7,-3
11750,1848,600,-1144,-49,6,-1
11755,1856,616,-1152,-48,7,0
11760,1864,600,-1152,-45,8,1
11765,1864,592,-1176,-44,8,2
11770,1840,608,-1120,-44,8,3
11775,1856,584,-1136,-45,7,6
11780,1848,624,-1136,-45,7,7
11785,1848,600,-1136,-44,7,7
11790,1848,600,-1128,-48,4,7
11795,1848,608,-1144,-51,4,9
11800,1840,600,-1136,-52,1,10
11805,1864,600,-1144,-52,1,10
11810,1832,608,-1080,-53,-2,9
11815,1888,568,-1152,-56,-2,10
11820,1864,584,-1168,-53,1,8
11825,1856,616,-1160,-53,3,6
11830,1848,616,-1176,-54,5,4
11835,1856,592,-1128,-52,6,5
11840,1840,608,-1184,-52,6,5
11845,1840,608,-1144,-49,9,4
11850,1856,600,-1152,-48,11,4
11855,1856,576,-1160,-47,11,4
11860,1856,576,-1136,-47,11,5
11865,1872,544,-1088,-45,12,1
11870,1864,608,-1160,-46,10,0
11875,1848,600,-1136,-46,10,1
11880,1848,584,-1160,-47,10,0
11885,1848,576,-1160,-48,10,-1
11890,1848,592,-1144,-49,10,-3
11895,1864,592,-1192,-49,10,-2
11900,1872,592,-1160,-49,11,-4
11905,1848,616,-1136,-47,11,-5
11910,1864,608,-1152,-48,11,-4
11915,1840,600,-1136,-48,12,-6
11920,1832,560,-1112,-47,13,-6
11925,1864,600,-1152,-48,15,-6
11930,1848,600,-1168,-47,13,-8
11935,1856,592,-1128,-45,14,-6
11940,1856,584,-1168,-45,14,-8
11945,1864,608,-1136,-43,14,-8
11950,1856,600,-1184,-44,13,-9
11955,1848,592,-1144,-44,13,-10
11960,1872,592,-1160,-45,14,-9
11965,1848,600,-1136,-45,11,-8
11970,1824,672,-1248,-47,10,-7
11975,1848,608,-1136,-47,11,-10
11980,1848,600,-1072,-47,11,-8
11985,1848,624,-1144,-46,9,-8
11990,1848,616,-1128,-46,8,-8
11995,1840,600,-1160,-45,9,-7
12000,1856,600,-1128,-45,8,-7
12005,1840,600,-1168,-45,11,-6
12010,1840,608,-1144,-44,10,-8
12015,1832,600,-1184,-44,12,-8
12020,1840,592,-1152,-44,13,-8
12025,1840,592,-1152,-45,11,-8
12030,1832,608,-1136,-45,11,-8
12035,1856,584,-1136,-46,15,-8
12040,1864,608,-1136,-47,15,-8
12045,1864,616,-1152,-47,16,-7
12050,1856,600,-1168,-45,15,-5
12055,1856,592,-1128,-46,16,-5
12060,1840,624,-1120,-47,17,-5
12065,1848,608,-1144,-46,16,-5
12070,1864,616,-1160,-49,15,-6
12075,1872,616,-1168,-47,16,-5
12080,1872,600,-1160,-49,17,-5
12085,1872,592,-1168,-49,17,-6
12090,1848,608,-1168,-50,19,-5
12095,1856,600,-1160,-47,21,-3
12100,1856,608,-1136,-45,20,-2
12105,1864,616,-1152,-41,20,-1
12110,1872,592,-1160,-39,18,-1
12115,1848,624,-1152,-40,15,-1
12120,1848,624,-1152,-40,15,-2
12125,1856,640,-1160,-40,15,-2
12130,1848,632,-1136,-40,15,0
12135,1832,608,-1144,-39,15,1
12140,1856,592,-1144,-37,16,3
12145,1848,608,-1144,-33,17,4
12150,1832,592,-1168,-29,15,3
12155,1856,592,-1144,-26,17,5
12160,1848,608,-1144,-20,20,3
12165,1824,584,-1152,-16,22,3
12170,1872,584,-1136,-17,25,2
12175,1832,576,-1128,-17,28,1
12180,1864,592,-1152,-22,27,1
12185,1864,584,-1168,-24,27,-4
12190,1880,576,-1120,-24,24,-5
12195,1816,576,-1144,-31,23,-12
12200,1856,608,-1128,-33,17,-10
12205,1832,584,-1144,-31,15,-12
12210,1848,608,-1136,-34,11,-14
12215,1808,600,-1144,-38,14,-14
12220,1832,616,-1152,-44,14,-12
12225,1848,592,-1120,-48,14,-12
12230,1848,608,-1168,-45,15,-13
12235,1872,592,-1168,-46,16,-13
12240,1856,616,-1168,-47,17,-12
12245,1864,600,-1144,-46,18,-13
12250,1856,592,-1080,-40,20,-11
12255,1864,584,-1176,-29,16,-10
12260,1864,616,-1192,-24,22,-12
12265,1856,608,-1152,-34,24,-9
12270,1848,608,-1152,-38,21,-9
12275,1856,600,-1184,-40,18,-9
12280,1864,608,-1168,-42,21,-10
12285,1880,600,-1120,-45,22,-11
12290,1832,632,-1176,-42,22,-11
12295,1784,656,-1184,-40,21,-10
12300,1800,632,-1152,-39,18,-8
12305,1840,568,-1136,-38,18,-3
12310,1864,536,-1152,-36,18,1
12315,1904,568,-1144,-36,18,0
12320,1888,600,-1152,-35,16,-6
12325,1840,656,-1152,-38,13,-11
12330,1848,640,-1160,-42,8,-14
12335,1856,600,-1200,-46,6,-14
12340,1848,592,-1160,-51,7,-12
12345,1872,584,-1144,-53,10,-8
12350,1864,600,-1160,-53,13,-3
12355,1840,576,-1168,-47,16,-1
12360,1872,608,-1200,-44,16,-1
12365,1848,592,-1160,-42,19,-1
12370,1840,608,-1128,-43,20,-2
12375,1856,608,-1144,-44,21,-3
12380,1848,608,-1176,-46,22,-4
12385,1840,632,-1168,-47,20,-5
12390,1840,592,-1160,-47,18,-6
12395,1880,624,-1160,-50,15,-5
12400,1824,616,-1128,-55,15,-5
12405,1848,592,-1160,-56,13,-5
12410,1856,600,-1168,-55,12,-6
12415,1856,600,-1144,-55,12,-3
12420,1864,584,-1144,-52,12,-1
12425,1840,608,-1144,-54,11,-4
12430,1848,600,-1120,-56,11,-4
12435,1848,584,-1136,-54,11,-4
12440,1872,608,-1136,-54,12,-4
12445,1840,592,-1160,-56,13,-4
12450,1856,584,-1176,-52,16,-2
12455,1864,616,-1152,-52,18,-3
12460,1856,592,-1152,-51,19,-4
12465,1832,616,-1144,-50,20,-3
12470,1848,600,-1152,-50,19,-5
12475,1832,608,-1184,-51,17,-6
12480,1864,576,-1136,-52,17,-6
12485,1856,592,-1136,-57,17,-8
12490,1872,584,-1160,-55,15,-8
12495,1848,592,-1160,-57,14,-8
12500,1872,592,-1192,-55,13,-8
12505,1840,616,-1160,-54,12,-9
12510,1848,608,-1176,-54,12,-9
12515,1864,592,-1144,-51,12,-8
12520,1872,608,-1176,-50,13,-8
12525,1864,584,-1192,-51,13,-9
12530,1864,600,-1184,-52,13,-8
12535,1856,616,-1128,-52,14,-8
12540,1864,616,-1128,-51,15,-8
12545,1848,600,-1152,-51,14,-9
12550,1848,584,-1152,-48,16,-9
12555,1840,600,-1120,-49,16,-8
12560,1856,600,-1160,-48,17,-8
12565,1840,608,-1144,-48,17,-9
12570,1864,584,-1144,-46,18,-8
12575,1832,600,-1128,-48,16,-7
12580,1848,624,-1136,-47,15,-7
12585,1880,600,-1144,-47,14,-6
12590,1864,624,-1144,-46,13,-6
12595,1840,592,-1160,-45,13,-6
12600,1848,608,-1152,-45,11,-5
12605,1856,600,-1144,-45,12,-6
12610,1856,624,-1152,-45,12,-6
12615,1856,608,-1184,-44,13,-5
12620,1848,600,-1136,-45,13,-4
12625,1832,616,-1112,-45,13,-4
12630,1856,592,-1160,-46,13,-3
12635,1848,608,-1136,-46,14,-3
12640,1848,600,-1168,-45,13,-3
12645,1840,592,-1152,-45,13,-2
12650,1848,608,-1176,-47,12,-3
12655,1856,624,-1136,-46,11,-2
12660,1880,592,-1168,-47,10,-2
12665,1848,576,-1160,-47,13,-5
12670,1864,624,-1184,-45,14,-5
12675,1832,616,-1160,-46,15,-3
12680,1856,592,-1144,-45,16,-3
12685,1840,616,-1160,-46,17,-3
12690,1872,584,-1168,-47,16,-4
12695,1872,584,-1152,-47,15,-3
12700,1832,608,-1152,-48,16,-4
12705,1848,608,-1128,-47,14,-4
12710,1864,608,-1152,-48,16,-3
12715,1840,592,-1160,-47,14,-3
12720,1856,608,-1176,-49,13,-4
12725,1848,592,-1160,-50,13,-3
12730,1856,600,-1152,-49,13,-3
12735,1872,592,-1144,-48,14,-3
12740,1872,584,-1136,-47,15,-4
12745,1856,608,-1152,-47,15,-4
12750,1856,584,-1168,-47,17,-4
12755,1856,600,-1168,-48,16,-3
12760,1840,608,-1144,-46,16,-3
12765,1856,600,-1160,-46,16,-4
12770,1848,592,-1112,-46,16,-3
12775,1856,616,-1160,-46,15,-4
12780,1864,592,-1144,-48,13,-4
12785,1864,592,-1152,-45,13,-5
12790,1832,600,-1160,-47,12,-4
12795,1840,600,-1176,-48,12,-5
12800,1848,600,-1136,-48,11,-5
12805,1848,600,-1160,-48,9,-6
12810,1840,600,-1128,-48,10,-6
12815,1840,616,-1176,-46,9,-5
12820,1872,600,-1152,-46,8,-6
12825,1840,600,-1152,-44,9,-5
12830,1864,600,-1160,-44,9,-5
12835,1872,608,-1152,-43,9,-4
12840,1864,592,-1136,-42,10,-5
12845,1808,648,-1168,-43,10,-4
12850,1864,584,-1152,-41,11,-6
12855,1848,616,-1160,-41,13,-3
12860,1840,600,-1152,-40,13,-6
12865,1864,600,-1168,-42,15,-7
12870,1872,592,-1136,-41,15,-7
12875,1816,624,-1144,-43,16,-8
12880,1872,608,-1128,-45,15,-7
12885,1864,592,-1144,-45,15,-8
12890,1848,624,-1136,-46,13,-7
12895,1864,608,-1176,-48,13,-7
12900,1816,640,-1200,-47,13,-6
12905,1816,592,-1160,-47,13,-7
12910,1856,624,-1184,-49,13,-6
12915,1856,608,-1152,-49,13,-6
12920,1848,592,-1168,-49,13,-7
12925,1856,616,-1144,-50,16,-6
12930,1872,584,-1136,-50,17,-6
12935,1872,592,-1152,-51,18,-5
12940,1848,624,-1128,-48,18,-5
12945,1864,608,-1176,-44,18,-6
12950,1920,648,-1264,-43,17,-3
12955,1872,624,-1152,-43,18,-5
12960,1832,616,-1160,-44,17,-5
12965,1848,640,-1128,-45,16,-4
12970,1840,624,-1144,-44,15,-4
12975,1872,600,-1136,-45,15,-4
12980,1864,600,-1152,-44,16,-2
12985,1864,608,-1160,-42,16,-1
12990,1856,592,-1152,-42,17,-2
12995,1840,608,-1144,-38,17,-3
13000,1848,608,-1152,-35,19,-4
13005,1856,600,-1128,-32,21,-4
13010,1856,576,-1168,-33,22,-6
13015,1848,584,-1160,-31,26,-7
13020,1872,568,-1152,-29,27,-8
13025,1832,584,-1176,-27,26,-10
13030,1864,576,-1168,-22,22,-8
13035,1832,616,-1128,-22,23,-12
13040,1816,600,-1152,-31,22,-13
13045,1840,600,-1128,-33,17,-12
13050,1848,600,-1144,-34,14,-12
13055,1856,616,-1168,-37,12,-10
13060,1856,608,-1160,-43,13,-11
13065,1864,608,-1168,-46,14,-10
13070,1816,584,-1160,-45,16,-9
13075,1912,576,-1200,-19,0,-8
13080,1912,640,-1192,-17,11,-12
13085,1848,680,-1160,-28,21,-12
13090,1864,640,-1176,-32,21,-10
13095,1864,616,-1144,-33,24,-7
13100,1856,624,-1120,-38,24,-8
13105,1856,624,-1128,-40,24,-7
13110,1864,616,-1136,-42,21,-8
13115,1856,640,-1192,-44,19,-6
13120,1848,624,-1144,-44,18,-6
13125,1856,624,-1144,-43,18,-6
13130,1848,616,-1168,-44,16,-6
13135,1856,608,-1184,-41,15,-5
13140,1832,600,-1144,-39,14,-6
13145,1856,608,-1144,-38,13,-6
13150,1856,592,-1128,-41,12,-5
13155,1856,608,-1168,-39,10,-6
13160,1840,600,-1128,-39,11,-4
13165,1832,592,-1168,-37,10,-5
13170,1856,592,-1128,-37,11,-5
13175,1856,600,-1176,-37,13,-6
13180,1856,608,-1184,-35,14,-5
13185,1856,608,-1128,-35,14,-4
13190,1856,600,-1192,-35,15,-5
13195,1840,608,-1160,-36,15,-4
13200,1832,600,-1176,-38,13,-6
13205,1872,592,-1152,-40,14,-3
13210,1856,584,-1152,-41,16,-3
13215,1856,592,-1168,-42,17,-3
13220,1856,624,-1120,-43,15,-2
13225,1864,600,-1152,-44,14,-2
13230,1784,608,-1184,-44,14,-3
13235,1856,608,-1152,-47,12,-1
13240,1864,592,-1176,-47,13,-2
13245,1816,616,-1152,-48,13,-2
13250,1864,600,-1176,-48,15,-2
13255,1856,584,-1176,-48,15,1
13260,1864,584,-1152,-48,14,-1
13265,1848,616,-1176,-45,15,-4
13270,1848,608,-1144,-43,16,-5
13275,1872,600,-1144,-47,15,-1
13280,1848,616,-1160,-47,15,1
13285,1880,592,-1184,-48,16,-1
13290,1880,600,-1136,-46,19,0
13295,1840,592,-1128,-44,20,0
13300,1848,608,-1152,-43,22,-2
13305,1864,600,-1160,-43,24,-2
13310,1880,600,-1160,-41,23,-3
13315,1856,624,-1152,-43,22,-3
13320,1856,592,-1168,-44,21,-5
13325,1848,600,-1096,-45,18,-6
13330,1880,592,-1160,-50,16,-7
13335,1864,608,-1120,-52,15,-7
13340,1840,600,-1176,-53,14,-8
13345,1840,584,-1176,-53,13,-7
13350,1872,592,-1144,-53,14,-8
13355,1840,608,-1144,-52,14,-8
13360,1856,608,-1136,-51,14,-8
13365,1864,608,-1144,-52,16,-9
13370,1848,600,-1144,-50,16,-10
13375,1832,624,-1144,-50,16,-9
13380,1880,616,-1160,-50,17,-10
13385,1856,592,-1144,-49,17,-9
13390,1864,616,-1136,-48,14,-9
13395,1840,616,-1136,-48,15,-7
13400,1840,608,-1152,-48,15,-7
13405,1832,600,-1176,-48,16,-8
13410,1848,608,-1136,-49,15,-8
13415,1856,616,-1104,-50,14,-7
13420,1848,608,-1168,-49,14,-6
13425,1848,608,-1160,-49,13,-6
13430,1848,616,-1152,-46,12,-6
13435,1840,592,-1152,-44,13,-6
13440,1840,624,-1152,-44,13,-6
13445,1864,600,-1152,-43,12,-6
13450,1856,624,-1168,-43,13,-6
13455,1840,608,-1160,-43,12,-6
13460,1840,616,-1160,-43,12,-7
13465,1848,600,-1144,-42,12,-6
13470,1840,600,-1160,-43,12,-6
13475,1848,600,-1136,-45,11,-5
13480,1824,616,-1168,-47,11,-5
13485,1864,584,-1104,-47,9,-5
13490,1848,600,-1160,-48,9,-4
13495,1856,608,-1160,-47,7,-4
13500,1848,616,-1152,-48,8,-5
13505,1848,600,-1176,-48,7,-5
13510,1832,616,-1136,-47,6,-5
13515,1840,584,-1168,-47,8,-4
13520,1800,632,-1104,-46,10,-5
13525,1832,600,-1176,-48,11,-4
13530,1832,616,-1128,-48,12,-5
13535,1864,608,-1144,-47,12,-5
13540,1872,600,-1136,-48,13,-5
13545,1848,616,-1144,-48,13,-4
13550,1856,592,-1168,-48,14,-4
13555,1840,616,-1184,-49,15,-4
13560,1872,632,-1224,-49,14,-5
13565,1864,584,-1152,-50,13,-5
13570,1872,608,-1160,-49,13,-3
13575,1864,648,-1184,-48,14,-3
13580,1864,592,-1168,-49,12,-4
13585,1880,536,-1096,-48,12,-4
13590,1840,608,-1176,-48,13,-5
13595,1856,584,-1184,-48,13,-5
13600,1840,600,-1160,-48,14,-4
13605,1872,608,-1152,-48,14,-4
13610,1856,592,-1160,-49,14,-5
13615,1856,592,-1168,-49,13,-5
13620,1840,592,-1136,-48,12,-5
13625,1888,520,-1160,-48,12,-6
13630,1840,616,-1176,-49,11,-4
13635,1840,616,-1168,-49,11,-6
13640,1848,624,-1160,-49,11,-6
13645,1848,632,-1120,-48,10,-6
13650,1848,608,-1144,-47,9,-5
13655,1856,600,-1168,-44,8,-6
13660,1864,616,-1152,-43,7,-7
13665,1880,600,-1184,-43,8,-6
13670,1856,616,-1144,-42,9,-6
13675,1864,608,-1160,-42,8,-7
13680,1848,592,-1184,-42,11,-6
13685,1864,608,-1160,-42,12,-6
13690,1848,608,-1152,-41,12,-7
13695,1880,568,-1144,-41,13,-7
13700,1856,600,-1168,-41,14,-6
13705,1840,600,-1168,-41,12,-7
13710,1856,584,-1160,-43,13,-10
13715,1856,624,-1152,-44,14,-9
13720,1872,624,-1160,-45,15,-7
13725,1864,592,-1160,-45,15,-8
13730,1832,632,-1152,-46,14,-6
13735,1864,592,-1160,-45,15,-5
13740,1848,592,-1128,-44,15,-4
13745,1880,592,-1120,-45,13,-5
13750,1840,600,-1176,-44,14,-6
13755,1856,584,-1152,-46,15,-5
13760,1840,608,-1152,-46,14,-6
13765,1864,592,-1160,-47,16,-4
13770,1880,608,-1160,-45,17,-5
13775,1848,616,-1192,-45,18,-4
13780,1856,600,-1184,-40,16,-5
13785,1864,600,-1136,-40,14,-4
13790,1832,616,-1192,-36,15,-4
13795,1856,592,-1168,-34,12,-4
13800,1856,648,-1152,-26,13,-6
13805,1840,648,-1128,-34,17,-4
13810,1864,592,-1120,-39,16,-3
13815,1856,600,-1136,-37,18,-3
13820,1864,608,-1128,-35,18,-3
13825,1872,512,-1056,-34,20,-2
13830,1848,608,-1144,-29,21,-1
13835,1872,600,-1152,-28,23,-1
13840,1856,600,-1152,-25,25,-2
13845,1856,584,-1152,-24,25,-3
13850,1856,592,-1160,-24,28,-2
13855,1856,592,-1144,-22,27,-4
13860,1864,584,-1136,-16,27,-5
13865,1864,576,-1160,-11,23,-6
13870,1832,592,-1136,-10,21,-9
13875,1848,592,-1168,-18,19,-12
13880,1912,648,-1248,-23,17,-12
13885,1816,568,-1208,-15,11,-14
13890,1896,600,-1184,4,1,-13
13895,1880,680,-1160,2,12,-18
13900,1824,616,-1152,-19,15,-14
13905,1896,592,-1160,-31,8,-8
13910,1880,624,-1160,-28,16,-10
13915,1832,672,-1184,-33,20,-10
13920,1848,600,-1136,-42,22,-9
13925,1856,600,-1136,-39,22,-7
13930,1840,592,-1168,-38,25,-6
13935,1872,632,-1064,-40,25,-4
13940,1872,592,-1152,-40,23,-4
13945,1880,600,-1160,-41,22,-8
13950,1864,592,-1168,-42,21,-9
13955,1888,624,-1200,-44,19,-11
13960,1840,632,-1160,-48,21,-12
13965,1840,632,-1136,-51,14,-12
13970,1872,616,-1176,-48,13,-10
13975,1856,616,-1168,-46,14,-9
13980,1856,608,-1168,-44,12,-5
13985,1848,584,-1176,-43,13,-5
13990,1864,592,-1176,-39,12,-5
13995,1864,584,-1152,-39,12,-4
14000,1856,592,-1120,-39,10,-3
14005,1832,608,-1120,-40,8,-4
14010,1880,592,-1152,-39,9,-5
14015,1824,616,-1144,-37,11,-6
14020,1880,592,-1168,-39,11,-5
14025,1848,624,-1008,-41,10,-5
14030,1856,608,-1136,-42,11,-4
14035,1864,600,-1144,-44,10,-3
14040,1840,624,-1144,-44,9,-2
14045,1840,592,-1152,-44,9,-2
14050,1864,608,-1144,-45,8,-2
14055,1856,592,-1128,-45,8,-3
14060,1856,584,-1136,-46,8,-1
14065,1824,600,-1160,-45,8,-2
14070,1864,592,-1168,-47,6,-2
14075,1840,600,-1168,-49,7,-4
14080,1856,592,-1136,-51,7,-2
14085,1824,616,-1168,-52,8,0
14090,1840,608,-1184,-53,8,-1
14095,1880,600,-1192,-53,8,-1
14100,1840,616,-1136,-55,9,-2
14105,1824,632,-1168,-54,11,-1
14110,1840,600,-1160,-55,10,0
14115,1840,608,-1160,-55,11,-1
14120,1872,616,-1192,-51,13,0
14125,1856,600,-1160,-48,14,1
14130,1880,600,-1192,-48,17,1
14135,1880,592,-1160,-46,21,-1
14140,1824,624,-1152,-43,21,-1
14145,1856,616,-1136,-43,22,-2
14150,1856,592,-1152,-48,22,-3
14155,1824,608,-1128,-49,19,-4
14160,1848,600,-1176,-51,18,-5
14165,1856,608,-1152,-53,19,-5
14170,1872,592,-1152,-53,17,-3
14175,1840,584,-1136,-55,18,-5
14180,1856,608,-1176,-53,19,-6
14185,1848,624,-1160,-52,19,-6
14190,1880,608,-1144,-50,19,-6
14195,1840,608,-1160,-49,19,-5
14200,1840,600,-1176,-48,18,-5
14205,1848,616,-1160,-49,21,-6
14210,1872,608,-1168,-48,20,-7
14215,1848,592,-1128,-47,19,-6
14220,1856,600,-1144,-49,18,-7
14225,1848,608,-1144,-49,18,-7
14230,1840,632,-1160,-46,16,-7
14235,1848,608,-1168,-49,16,-7
14240,1840,584,-1160,-48,17,-6
14245,1840,608,-1168,-47,16,-7
14250,1864,600,-1152,-45,17,-5
14255,1840,592,-1152,-45,16,-5
14260,1848,608,-1144,-43,16,-4
14265,1864,600,-1184,-45,15,-4
14270,1840,608,-1144,-45,14,-3
14275,1856,608,-1112,-46,13,-3
14280,1848,592,-1184,-45,12,-4
14285,1856,600,-1200,-47,11,-4
14290,1864,592,-1176,-46,10,-3
14295,1840,592,-1168,-46,10,-4
14300,1856,600,-1136,-46,11,-4
14305,1856,600,-1136,-45,10,-3
14310,1848,624,-1176,-48,10,-5
14315,1848,608,-1144,-46,11,-5
14320,1840,592,-1152,-47,12,-3
14325,1840,584,-1152,-47,11,-3
14330,1840,608,-1160,-45,12,-3
14335,1840,616,-1144,-45,12,-2
14340,1840,624,-1168,-46,13,-3
14345,1840,608,-1160,-45,12,-3
14350,1848,592,-1168,-45,13,-2
14355,1864,592,-1144,-43,15,-3
14360,1864,624,-1168,-43,16,-2
14365,1856,608,-1184,-45,16,-2
14370,1840,608,-1152,-45,16,-2
14375,1832,592,-1160,-45,16,-1
14380,1864,624,-1160,-47,15,-2
14385,1856,608,-1168,-46,13,-1
14390,1856,608,-1144,-48,14,-1
14395,1840,600,-1168,-48,11,-2
14400,1864,600,-1192,-50,12,-1
14405,1840,616,-1152,-49,10,-2
14410,1864,608,-1144,-48,10,0
14415,1840,608,-1152,-50,11,-2
14420,1848,592,-1136,-49,11,-1
14425,1848,600,-1136,-47,11,0
14430,1872,576,-1144,-47,12,0
14435,1840,592,-1168,-46,12,-1
14440,1848,592,-1168,-47,12,-2
14445,1888,592,-1144,-45,13,-3
14450,1840,592,-1176,-45,13,-3
14455,1816,624,-1112,-47,13,-3
14460,1848,608,-1176,-48,11,-3
14465,1840,616,-1168,-47,11,-3
14470,1840,592,-1184,-48,10,-5
14475,1856,592,-1152,-46,10,-3
14480,1848,600,-1168,-47,9,-4
14485,1872,624,-1184,-46,9,-3
14490,1864,584,-1160,-46,8,-2
14495,1848,600,-1152,-47,8,-3
14500,1856,632,-1168,-43,8,-3
14505,1840,592,-1128,-42,10,-4
14510,1848,584,-1136,-40,11,-4
14515,1856,600,-1144,-42,12,-5
14520,1856,624,-1176,-42,12,-4
14525,1864,608,-1168,-41,11,-6
14530,1848,592,-1152,-41,12,-5
14535,1848,592,-1152,-43,14,-6
14540,1848,592,-1168,-44,13,-7
14545,1856,624,-1160,-46,13,-6
14550,1864,608,-1152,-46,12,-6
14555,1848,616,-1136,-46,13,-6
14560,1864,600,-1144,-47,12,-5
14565,1848,608,-1168,-46,11,-4
14570,1832,592,-1160,-46,10,-3
14575,1864,592,-1176,-46,10,-4
14580,1848,600,-1168,-47,10,-5
14585,1848,608,-1136,-49,11,-5
14590,1856,600,-1128,-48,13,-4
14595,1848,608,-1152,-48,13,-3
14600,1856,624,-1168,-49,15,-2
14605,1856,616,-1176,-47,14,-3
14610,1872,600,-1152,-44,14,-1
14615,1880,600,-1152,-44,14,-2
14620,1864,616,-1168,-44,13,-4
14625,1848,616,-1144,-42,12,-4
14630,1856,608,-1152,-43,11,-4
14635,1840,608,-1136,-44,13,-3
14640,1848,592,-1152,-45,13,-1
14645,1856,600,-1160,-43,14,0
14650,1840,600,-1144,-42,15,-1
14655,1848,640,-1176,-40,17,-1
14660,1872,584,-1152,-38,18,0
14665,1872,576,-1168,-37,18,-1
14670,1856,576,-1128,-35,22,-2
14675,1872,576,-1192,-34,22,-2
14680,1848,592,-1152,-33,23,-5
14685,1872,568,-1184,-34,25,-7
14690,1832,576,-1168,-33,24,-7
14695,1832,592,-1136,-36,23,-9
14700,1848,592,-1144,-37,21,-10
14705,1848,592,-1120,-36,16,-13
14710,1848,608,-1184,-40,12,-12
14715,1856,592,-1152,-44,10,-13
14720,1832,608,-1168,-47,11,-12
14725,1864,608,-1152,-50,12,-11
14730,1880,576,-1184,-55,12,-9
14735,1872,600,-1160,-54,15,-8
14740,1840,616,-1144,-54,16,-9
14745,1840,616,-1168,-53,18,-9
14750,1936,664,-1200,-52,18,-10
14755,1856,616,-1184,-49,19,-9
14760,1864,608,-1160,-47,19,-7
14765,1864,616,-1176,-48,16,-8
14770,1856,624,-1128,-49,15,-6
14775,1864,624,-1144,-47,15,-7
14780,1872,600,-1192,-49,14,-7
14785,1872,584,-1176,-48,12,-5
14790,1840,584,-1144,-47,12,-5
14795,1848,608,-1112,-46,12,-5
14800,1864,608,-1200,-45,12,-6
14805,1816,552,-1064,-47,12,-6
14810,1856,600,-1152,-46,12,-6
14815,1856,568,-1176,-46,12,-6
14820,1848,616,-1168,-44,10,-5
14825,1840,608,-1160,-46,11,-4
14830,1832,616,-1144,-45,9,-4
14835,1848,608,-1144,-43,10,-4
14840,1832,592,-1144,-46,10,-3
14845,1856,624,-1176,-46,10,-3
14850,1840,600,-1136,-44,11,-3
14855,1856,624,-1152,-44,12,-3
14860,1912,608,-1240,-46,12,-2
14865,1848,608,-1176,-45,12,-2
14870,1832,608,-1160,-44,12,-2
14875,1856,568,-1136,-45,12,-3
14880,1864,608,-1144,-46,12,-2
14885,1848,600,-1176,-45,13,0
14890,1840,632,-1160,-45,12,-1
14895,1840,608,-1168,-45,11,-2
14900,1848,624,-1184,-47,10,-1
14905,1848,632,-1168,-47,11,-1
14910,1832,600,-1176,-50,11,-1
14915,1848,600,-1168,-51,13,0
14920,1880,600,-1144,-49,12,2
14925,1856,608,-1160,-49,12,3
14930,1848,608,-1152,-49,12,4
14935,1856,592,-1184,-49,11,3
14940,1872,592,-1192,-50,11,3
14945,1856,592,-1168,-49,12,4
14950,1840,592,-1152,-48,14,3
14955,1856,592,-1160,-46,16,2
14960,1840,632,-1168,-43,18,4
14965,1824,616,-1160,-41,20,3
14970,1856,608,-1176,-40,19,3
14975,1848,592,-1136,-43,19,2
14980,1856,608,-1168,-45,19,2
14985,1872,608,-1136,-46,19,0
14990,1840,624,-1160,-48,18,0
14995,1864,600,-1144,-48,19,1
