timestamp,accel_x,accel_y,accel_z,gyro_x,gyro_y,gyro_z
0,-72,-2120,120,-132,75,-82
5,-96,-2144,160,-117,99,-85
10,-80,-2168,152,-101,119,-92
15,-120,-2176,168,-84,135,-92
20,-184,-2152,248,-66,149,-94
25,-216,-2176,208,-45,161,-89
30,-240,-2136,208,-31,166,-87
35,-152,-2224,192,-16,167,-80
40,-240,-2200,368,-3,167,-77
45,-272,-2160,216,9,161,-69
50,-296,-2160,240,21,156,-66
55,-288,-2144,256,30,151,-61
60,-296,-2104,240,36,144,-60
65,-312,-2088,248,41,139,-54
70,-312,-2080,256,46,137,-56
75,-328,-2064,248,50,135,-52
80,-328,-2064,248,52,134,-52
85,-312,-2024,264,52,133,-48
90,-296,-1968,224,51,132,-52
95,-344,-1976,240,49,132,-50
100,-264,-1880,264,45,130,-51
105,-264,-1824,200,42,127,-49
110,-256,-1968,272,37,121,-52
115,-256,-1920,272,33,114,-48
120,-224,-1912,288,29,104,-51
125,-248,-1912,272,24,93,-48
130,-248,-1904,264,20,80,-50
135,-216,-1896,248,18,67,-46
140,-200,-1912,256,16,56,-46
145,-224,-1944,232,14,46,-41
150,-200,-1944,272,15,38,-41
155,-224,-1960,272,18,31,-35
160,-224,-2008,280,22,27,-34
165,-216,-2024,264,26,25,-28
170,-200,-2056,248,31,23,-24
175,-256,-2048,280,36,24,-17
180,-232,-2080,280,42,26,-15
185,-256,-2072,232,46,24,-8
190,-232,-2080,240,52,23,-5
195,-232,-2096,248,55,18,0
200,-232,-2096,224,59,16,1
205,-248,-2080,192,61,13,5
210,-240,-2080,224,60,9,5
215,-248,-2072,208,62,3,7
220,-240,-2064,200,64,-1,6
225,-224,-2072,200,64,-5,10
230,-248,-2040,216,68,-8,9
235,-216,-2040,184,71,-10,12
240,-216,-2032,192,75,-12,13
245,-232,-1992,184,80,-13,18
250,-224,-2000,176,86,-14,18
255,-232,-1984,168,91,-14,24
260,-216,-1960,192,97,-13,24
265,-192,-1992,176,101,-14,32
270,-184,-1992,200,105,-15,34
275,-160,-2000,184,110,-20,40
280,-168,-1976,176,115,-26,42
285,-168,-1976,192,118,-31,47
290,-128,-1960,184,119,-37,48
295,-144,-1976,136,119,-41,52
300,-176,-1960,144,118,-45,51
305,-160,-2008,144,116,-49,54
310,-144,-1984,160,113,-51,51
315,-152,-1992,176,110,-54,51
320,-176,-2000,152,107,-55,45
325,-176,-1992,168,104,-56,45
330,-192,-2000,160,101,-58,40
335,-168,-2024,168,94,-57,38
340,-184,-2000,168,90,-57,33
345,-184,-1992,168,84,-55,32
350,-160,-2000,192,78,-54,27
355,-152,-2000,176,73,-52,26
360,-120,-2000,152,72,-46,22
365,-160,-1992,184,70,-42,23
370,-128,-1960,216,72,-36,18
375,-112,-1976,192,71,-28,18
380,-120,-1984,208,73,-19,14
385,-96,-1968,208,76,-12,13
390,-88,-1976,216,80,-3,10
395,-64,-1976,208,83,3,11
400,-88,-1968,200,84,9,9
405,-96,-1960,184,85,14,12
410,-88,-1984,184,81,16,10
415,-96,-1984,208,76,19,14
420,-96,-1976,216,71,18,13
425,-104,-1968,224,65,19,16
430,-112,-1976,224,56,18,16
435,-96,-1952,224,48,19,18
440,-112,-2000,224,41,20,17
445,-128,-1968,224,35,19,18
450,-104,-1984,208,27,21,17
455,-136,-1984,240,23,22,18
460,-128,-1984,240,19,26,16
465,-144,-1976,224,16,28,16
470,-144,-1976,224,13,32,13
475,-144,-1992,208,10,35,11
480,-128,-1976,200,8,37,10
485,-136,-2000,208,4,40,8
490,-152,-1992,216,0,43,5
495,-136,-1992,208,-2,46,2
500,-152,-1992,200,-5,50,-1
505,-104,-2000,208,-8,53,-3
510,-144,-1976,232,-10,58,-7
515,-144,-1984,224,-9,62,-9
520,-120,-1992,256,-11,66,-12
525,-160,-1976,192,-11,70,-14
530,-152,-1976,256,-11,73,-17
535,-128,-2008,264,-13,74,-19
540,-120,-2000,272,-16,75,-22
545,-136,-2000,208,-18,74,-23
550,-168,-1976,232,-23,76,-26
555,-144,-1984,232,-28,77,-28
560,-152,-1992,216,-32,77,-31
565,-144,-2000,216,-37,80,-35
570,-128,-2032,216,-41,82,-38
575,-144,-2000,216,-45,86,-41
580,-152,-2024,240,-48,90,-46
585,-144,-2024,224,-51,93,-50
590,-144,-2040,232,-52,95,-54
595,-136,-2024,240,-51,96,-56
600,-120,-2032,208,-50,97,-58
605,-144,-2032,216,-45,98,-59
610,-112,-2032,224,-45,97,-61
615,-128,-2016,232,-42,97,-62
620,-144,-2008,208,-41,94,-63
625,-128,-2024,224,-39,91,-62
630,-168,-2008,184,-38,87,-63
635,-152,-2024,216,-38,84,-63
640,-160,-2000,216,-39,80,-59
645,-160,-2032,232,-41,75,-60
650,-168,-2016,208,-40,71,-60
655,-168,-2024,200,-41,67,-59
660,-176,-2016,216,-42,62,-55
665,-176,-2016,192,-42,61,-54
670,-176,-2000,264,-43,58,-52
675,-192,-2016,232,-42,56,-51
680,-168,-2008,240,-40,54,-49
685,-200,-2008,248,-38,52,-46
690,-192,-2008,232,-35,52,-43
695,-192,-2008,264,-34,52,-42
700,-152,-2032,240,-31,53,-39
705,-160,-2016,248,-29,53,-37
710,-160,-2016,240,-28,55,-33
715,-152,-2000,232,-24,56,-33
720,-168,-2024,232,-22,56,-31
725,-160,-2024,216,-22,58,-30
730,-168,-2008,248,-22,58,-28
735,-160,-2008,248,-22,58,-29
740,-152,-2016,232,-24,57,-29
745,-168,-2008,216,-28,57,-29
750,-176,-1992,240,-29,57,-28
755,-144,-2024,224,-28,57,-29
760,-152,-2000,216,-27,58,-28
765,-144,-2016,216,-26,59,-26
770,-112,-2032,240,-24,59,-25
775,-128,-2016,232,-21,63,-24
780,-128,-2008,232,-19,68,-19
785,-136,-2016,240,-17,72,-19
790,-120,-2024,224,-13,76,-16
795,-104,-2016,248,-11,80,-15
800,-104,-2024,224,-10,83,-13
805,-88,-2024,240,-12,85,-13
810,-96,-2016,216,-13,86,-14
815,-96,-2016,248,-13,87,-16
820,-96,-2000,248,-13,86,-16
825,-112,-2024,224,-11,87,-18
830,-104,-2000,224,-10,88,-19
835,-128,-1992,232,-9,87,-23
840,-120,-2008,248,-7,89,-22
845,-120,-2008,256,-4,92,-25
850,-144,-2016,272,-3,95,-23
855,-128,-2016,224,-4,97,-23
860,-176,-2000,256,-1,99,-21
865,-168,-2016,240,0,99,-22
870,-160,-2016,248,0,97,-20
875,-152,-2032,256,0,97,-21
880,-176,-1984,216,-2,95,-18
885,-176,-2024,224,-2,94,-19
890,-168,-1992,232,-4,94,-16
895,-168,-1984,208,-4,94,-16
900,-152,-2024,264,-3,93,-15
905,-168,-2000,232,-4,93,-17
910,-160,-1992,232,-3,94,-17
915,-160,-2008,256,0,94,-18
920,-168,-2000,232,2,95,-17
925,-160,-2008,264,3,95,-18
930,-160,-2008,248,6,97,-16
935,-136,-1992,240,10,97,-17
940,-168,-2008,232,10,95,-15
945,-160,-2016,232,10,93,-17
950,-152,-2008,232,9,93,-14
955,-168,-2024,240,8,91,-18
960,-152,-2008,216,6,92,-16
965,-152,-2000,200,3,91,-19
970,-136,-2016,240,0,90,-17
975,-136,-1992,240,-1,90,-20
980,-136,-1984,232,-1,88,-17
985,-168,-1984,248,-1,85,-21
990,-168,-1976,240,0,85,-16
995,-144,-2024,232,0,84,-17
1000,-152,-2008,248,5,84,-13
1005,-176,-2008,256,5,82,-14
1010,-168,-2000,256,7,82,-11
1015,-184,-1992,232,8,81,-12
1020,-200,-1960,272,8,78,-8
1025,-176,-1976,240,5,77,-9
1030,-176,-1968,264,4,73,-6
1035,-168,-1968,272,2,72,-8
1040,-184,-1976,272,0,71,-4
1045,-168,-1968,248,0,68,-6
1050,-184,-1976,248,-1,65,-3
1055,-160,-2016,240,-3,63,-4
1060,-176,-2000,256,-6,58,-3
1065,-152,-1984,256,-8,57,-4
1070,-152,-2000,240,-10,55,-2
1075,-168,-2008,232,-10,52,-4
1080,-160,-2000,200,-15,51,-1
1085,-152,-2008,256,-16,50,-3
1090,-192,-1984,200,-21,49,1
1095,-160,-2024,224,-22,49,-1
1100,-192,-1992,208,-25,49,1
1105,-160,-1960,200,-26,50,-1
1110,-128,-1992,224,-26,51,2
1115,-144,-2000,216,-29,51,-2
1120,-168,-1976,208,-29,51,2
1125,-104,-2008,200,-31,52,-1
1130,-104,-2024,192,-31,49,2
1135,-128,-2016,240,-35,46,-1
1140,-112,-2000,184,-36,44,0
1145,-104,-2008,192,-38,42,-4
1150,-152,-2008,192,-41,40,-3
1155,-144,-2008,192,-43,37,-5
1160,-136,-2008,192,-44,33,-2
1165,-152,-1992,232,-47,30,-4
1170,-160,-2024,240,-48,26,1
1175,-144,-2016,224,-48,22,0
1180,-168,-2024,200,-49,17,4
1185,-160,-2016,240,-47,13,5
1190,-144,-2032,240,-45,10,7
1195,-184,-2008,216,-45,7,5
1200,-192,-1992,208,-44,4,7
1205,-192,-2008,216,-40,2,6
1210,-176,-1992,184,-38,1,6
1215,-152,-2032,232,-36,-1,4
1220,-168,-2008,224,-34,-2,5
1225,-168,-2008,224,-33,-3,2
1230,-160,-2032,224,-31,-5,2
1235,-152,-2000,240,-25,-4,0
1240,-112,-2024,240,-24,-5,0
1245,-104,-2040,248,-20,-5,-3
1250,-144,-2024,200,-17,-6,-3
1255,-128,-2040,240,-16,-8,-6
1260,-104,-2040,216,-15,-8,-5
1265,-128,-2048,232,-14,-10,-8
1270,-136,-2024,240,-13,-11,-9
1275,-120,-2040,232,-14,-9,-12
1280,-104,-2048,224,-15,-10,-12
1285,-144,-2016,232,-14,-10,-14
1290,-152,-1992,264,-15,-9,-13
1295,-112,-2000,240,-14,-8,-15
1300,-104,-2008,232,-16,-6,-14
1305,-136,-2000,256,-15,-7,-15
1310,-144,-1984,240,-14,-5,-13
1315,-104,-2000,232,-14,-5,-14
1320,-120,-1992,232,-14,-5,-10
1325,-144,-1976,240,-16,-6,-11
1330,-144,-2024,240,-19,-12,-8
1335,-128,-1992,192,-23,-14,-8
1340,-136,-1992,200,-25,-18,-7
1345,-152,-1968,208,-29,-22,-7
1350,-160,-1984,232,-29,-27,-5
1355,-168,-2008,224,-31,-30,-5
1360,-160,-1992,208,-29,-33,-4
1365,-160,-2016,224,-28,-38,-6
1370,-160,-2008,232,-28,-42,-6
1375,-168,-2008,232,-27,-45,-8
1380,-176,-2008,232,-25,-48,-8
1385,-160,-1992,208,-21,-49,-10
1390,-144,-2008,240,-16,-51,-12
1395,-144,-2032,224,-13,-50,-17
1400,-128,-2016,224,-9,-48,-18
1405,-136,-1992,248,-7,-44,-22
1410,-136,-2000,232,-8,-39,-24
1415,-112,-2016,240,-8,-37,-28
1420,-96,-2024,216,-9,-33,-27
1425,-96,-2032,216,-11,-28,-31
1430,-96,-2032,216,-11,-22,-29
1435,-96,-2056,264,-13,-16,-30
1440,-80,-2032,232,-9,-8,-29
1445,-88,-2032,224,-8,-1,-28
1450,-80,-2032,232,-5,5,-24
1455,-88,-2056,256,0,13,-24
1460,-96,-2040,248,7,20,-21
1465,-64,-2048,248,12,25,-22
1470,-80,-2040,240,17,31,-20
1475,-72,-2040,232,21,32,-21
1480,-96,-2024,224,26,35,-21
1485,-88,-2032,272,29,39,-22
1490,-96,-2040,232,32,40,-23
1495,-96,-2040,232,34,40,-23
1500,-80,-2056,264,34,41,-26
1505,-96,-2016,216,34,42,-28
1510,-96,-2008,224,34,42,-27
1515,-128,-2008,232,32,41,-29
1520,-120,-1984,232,32,39,-30
1525,-128,-2016,200,32,39,-28
1530,-120,-2016,232,30,36,-28
1535,-152,-2024,224,30,35,-26
1540,-144,-2008,232,29,34,-25
1545,-160,-2024,232,28,30,-21
1550,-168,-2032,240,27,29,-22
1555,-176,-1992,232,27,26,-19
1560,-176,-2000,240,27,23,-18
1565,-176,-2000,240,27,21,-15
1570,-160,-2008,208,31,17,-13
1575,-152,-2008,224,33,17,-13
1580,-176,-1976,248,35,14,-12
1585,-152,-1992,232,34,11,-12
1590,-120,-2024,224,35,13,-11
1595,-144,-2000,248,34,10,-10
1600,-144,-1976,232,31,10,-10
1605,-136,-1992,232,29,10,-9
1610,-128,-1992,208,28,11,-9
1615,-128,-1976,264,26,10,-8
1620,-136,-1992,256,23,10,-8
1625,-120,-1976,272,21,10,-6
1630,-112,-2000,240,19,9,-7
1635,-96,-1984,248,17,9,-5
1640,-104,-1976,248,15,7,-8
1645,-96,-2016,232,17,6,-6
1650,-120,-1984,224,15,5,-10
1655,-112,-2008,232,14,5,-10
1660,-112,-2000,232,13,5,-12
1665,-96,-2016,240,14,4,-14
1670,-112,-2000,216,12,6,-14
1675,-96,-2024,208,10,6,-15
1680,-96,-2016,232,8,6,-17
1685,-88,-2016,200,10,8,-17
1690,-96,-2008,224,10,9,-18
1695,-96,-2008,232,11,10,-16
1700,-96,-1984,264,13,13,-17
1705,-96,-2016,248,14,15,-16
1710,-96,-2024,232,15,18,-17
1715,-96,-2024,256,15,20,-15
1720,-88,-2032,256,17,21,-15
1725,-96,-2000,248,16,24,-14
1730,-96,-2008,248,17,27,-15
1735,-96,-2008,256,15,30,-14
1740,-88,-2024,240,13,34,-16
1745,-88,-2016,280,14,37,-14
1750,-104,-2008,264,14,39,-15
1755,-80,-2032,248,12,42,-16
1760,-88,-2016,232,12,45,-17
1765,-96,-2008,240,12,46,-17
1770,-96,-2008,240,12,49,-20
1775,-72,-2032,256,14,53,-20
1780,-96,-2024,264,13,55,-24
1785,-64,-2032,272,16,57,-21
1790,-88,-2024,256,17,58,-24
1795,-88,-2032,232,15,61,-24
1800,-88,-2016,240,14,64,-28
1805,-96,-2016,256,11,65,-26
1810,-112,-2000,256,9,67,-29
1815,-96,-2016,248,8,70,-25
1820,-112,-1992,240,6,73,-27
1825,-96,-1984,232,3,77,-23
1830,-96,-1984,280,2,77,-25
1835,-128,-1976,280,0,78,-20
1840,-96,-2000,280,-3,79,-22
1845,-112,-1984,272,-5,80,-18
1850,-112,-2000,264,-8,78,-19
1855,-120,-2000,288,-11,78,-14
1860,-112,-1976,256,-14,78,-15
1865,-96,-2008,264,-18,78,-10
1870,-128,-1992,288,-21,79,-10
1875,-120,-1992,232,-24,80,-5
1880,-120,-2016,288,-24,82,-8
1885,-96,-2016,264,-22,82,-2
1890,-104,-1984,232,-21,84,-3
1895,-96,-1992,256,-20,86,1
1900,-96,-2008,256,-17,86,-1
1905,-104,-2008,264,-15,84,-1
1910,-88,-2016,248,-12,85,-6
1915,-96,-2008,240,-9,85,-4
1920,-120,-1984,240,-8,87,-7
1925,-112,-2024,264,-4,87,-6
1930,-104,-2008,248,-3,88,-8
1935,-96,-2016,256,-1,88,-7
1940,-104,-2000,240,-2,88,-11
1945,-96,-2008,280,-2,89,-9
1950,-104,-2016,256,-3,89,-10
1955,-96,-2016,272,-5,91,-7
1960,-88,-2008,264,-7,91,-9
1965,-112,-2000,256,-8,91,-7
1970,-96,-2008,272,-9,94,-9
1975,-120,-1992,280,-9,93,-5
1980,-96,-2008,256,-10,94,-9
1985,-96,-2008,232,-9,95,-6
1990,-88,-2016,232,-9,93,-9
1995,-96,-2008,264,-10,95,-7
2000,-96,-2016,272,-8,94,-9
2005,-104,-2016,256,-8,94,-8
2010,-96,-2000,232,-6,93,-10
2015,-96,-2008,248,-4,92,-8
2020,-96,-2008,272,-1,91,-11
2025,-96,-2008,224,0,91,-10
2030,-112,-2000,264,2,90,-11
2035,-104,-2016,256,3,90,-8
2040,-112,-2000,256,4,90,-11
2045,-120,-1992,256,4,90,-8
2050,-104,-2016,240,4,93,-10
2055,-120,-1992,280,5,91,-8
2060,-104,-2000,272,5,91,-11
2065,-96,-2016,272,7,92,-6
2070,-112,-2008,280,8,93,-8
2075,-112,-2016,264,7,95,-5
2080,-96,-2000,264,7,97,-9
2085,-104,-2000,256,5,98,-5
2090,-96,-1984,272,4,99,-7
2095,-96,-1960,272,1,99,-3
2100,-96,-1992,256,1,101,-8
2105,-96,-1984,248,0,101,-6
2110,-96,-1984,240,-2,99,-9
2115,-96,-1992,240,-5,99,-6
2120,-96,-1992,248,-5,97,-10
2125,-104,-1976,216,-6,95,-10
2130,-88,-2008,224,-9,96,-15
2135,-96,-2024,224,-10,97,-17
2140,-88,-2016,232,-10,98,-22
2145,-96,-2016,248,-11,102,-23
2150,-80,-2016,240,-12,104,-27
2155,-104,-2040,272,-12,106,-28
2160,-88,-2072,240,-13,109,-31
2165,-96,-2008,256,-12,114,-30
2170,-96,-2024,232,-12,117,-33
2175,-96,-2024,264,-10,119,-32
2180,-96,-2024,264,-9,121,-33
2185,-112,-2016,272,-8,123,-31
2190,-104,-1992,240,-7,122,-34
2195,-96,-2016,264,-8,122,-32
2200,-96,-2000,272,-8,122,-36
2205,-96,-1992,256,-7,120,-35
2210,-96,-2008,248,-7,119,-37
2215,-96,-1984,216,-7,118,-37
2220,-104,-2008,248,-7,117,-38
2225,-104,-2008,224,-8,115,-38
2230,-88,-2000,256,-7,115,-40
2235,-96,-2008,248,-4,114,-39
2240,-96,-2000,256,-2,113,-41
2245,-96,-2008,280,-1,114,-38
2250,-128,-1976,280,2,111,-40
2255,-96,-2008,272,4,111,-37
2260,-96,-1976,248,6,110,-37
2265,-96,-2024,272,7,110,-35
2270,-96,-2000,280,5,110,-35
2275,-96,-2008,240,6,108,-32
2280,-96,-2000,272,5,107,-31
2285,-96,-2016,256,5,106,-30
2290,-96,-2008,280,3,106,-30
2295,-112,-2016,256,3,105,-27
2300,-104,-2008,264,2,108,-26
2305,-96,-1984,256,1,107,-23
2310,-96,-2016,264,0,108,-23
2315,-96,-2000,248,1,109,-22
2320,-104,-2008,272,1,109,-20
2325,-112,-2000,272,3,110,-17
2330,-104,-2016,280,7,111,-16
2335,-96,-1976,256,11,112,-14
2340,-120,-1992,264,13,112,-12
2345,-104,-2016,280,15,112,-11
2350,-112,-1976,296,16,110,-11
2355,-96,-1992,280,18,109,-8
2360,-120,-1984,272,18,107,-7
2365,-96,-1984,280,20,107,-7
2370,-96,-1984,264,19,104,-6
2375,-96,-1984,256,19,104,-5
2380,-96,-1976,240,18,101,-4
2385,-104,-1976,296,15,99,-4
2390,-96,-1984,272,12,97,-4
2395,-96,-2000,264,9,96,-1
2400,-112,-1992,280,3,95,0
2405,-96,-2000,256,-2,95,4
2410,-96,-2008,264,-9,96,8
2415,-96,-1984,256,-15,97,11
2420,-96,-2024,256,-19,97,12
2425,-104,-1984,256,-23,97,13
2430,-96,-2008,240,-24,96,13
2435,-112,-2008,240,-25,94,12
2440,-96,-2024,256,-23,93,11
2445,-104,-2008,256,-19,89,8
2450,-104,-2000,280,-15,87,4
2455,-144,-1992,288,-10,86,0
2460,-120,-2016,296,-5,86,-2
2465,-144,-2008,280,-2,85,-6
2470,-128,-2032,248,1,85,-8
2475,-104,-2016,272,1,86,-8
2480,-104,-2008,240,1,87,-8
2485,-104,-2000,296,-2,88,-9
2490,-128,-2008,288,-4,89,-6
2495,-112,-2000,272,-7,89,-6
2500,-96,-2024,248,-11,88,-5
2505,-96,-2016,272,-15,86,-5
2510,-96,-2000,296,-19,81,-3
2515,-128,-1984,272,-24,80,-5
2520,-120,-1992,304,-26,78,-5
2525,-128,-2000,296,-29,75,-6
2530,-96,-1992,264,-28,73,-5
2535,-96,-2008,280,-29,69,-7
2540,-120,-1992,304,-29,68,-8
2545,-120,-1984,272,-29,65,-9
2550,-104,-2000,296,-28,61,-8
2555,-112,-1968,256,-27,57,-10
2560,-96,-1984,280,-28,50,-10
2565,-128,-1992,264,-28,45,-11
2570,-104,-2008,240,-30,38,-10
2575,-104,-2008,248,-29,33,-11
2580,-152,-1992,248,-28,25,-10
2585,-144,-1984,256,-28,18,-10
2590,-152,-2008,280,-28,11,-9
2595,-128,-2008,272,-27,6,-10
2600,-144,-1984,248,-24,1,-8
2605,-128,-1992,264,-24,-2,-7
2610,-128,-2000,272,-24,-8,-5
2615,-152,-2000,256,-24,-7,-5
2620,-96,-2000,272,-25,-7,-2
2625,-112,-1992,240,-25,-8,-3
2630,-96,-1976,264,-25,-8,1
2635,-96,-2008,256,-26,-9,-1
2640,-112,-1984,264,-26,-10,2
2645,-112,-1992,248,-25,-11,1
2650,-96,-2016,264,-27,-15,4
2655,-120,-2000,296,-26,-17,4
2660,-104,-2000,264,-25,-19,7
2665,-112,-1992,248,-23,-20,6
2670,-80,-2008,280,-23,-22,10
2675,-96,-1976,248,-22,-21,7
2680,-80,-1976,272,-19,-20,9
2685,-96,-1976,272,-16,-18,7
2690,-96,-1992,296,-13,-15,11
2695,-96,-2008,256,-11,-15,10
2700,-88,-2016,288,-9,-11,10
2705,-88,-2008,264,-7,-10,8
2710,-88,-2024,272,-5,-8,10
2715,-72,-2016,288,-4,-4,7
2720,-80,-2024,320,-3,-3,8
2725,-80,-2016,264,-1,0,6
2730,-80,-2008,320,0,4,7
2735,-80,-2000,272,1,4,4
2740,-48,-2016,296,2,7,5
2745,-88,-2016,288,4,9,3
2750,-88,-2016,256,3,12,6
2755,-80,-2000,320,4,14,2
2760,-72,-2016,272,3,15,4
2765,-80,-2016,272,3,16,2
2770,-88,-2008,296,2,17,3
2775,-88,-2000,288,0,18,2
2780,-96,-1984,288,-2,17,5
2785,-64,-2016,280,-3,17,3
2790,-88,-2000,288,-3,14,5
2795,-96,-2000,296,-7,16,4
2800,-96,-2000,264,-9,17,7
2805,-96,-1976,296,-11,18,6
2810,-96,-2016,304,-12,19,9
2815,-80,-2000,288,-12,22,9
2820,-96,-2000,280,-12,23,11
2825,-88,-2008,272,-14,24,9
2830,-104,-2024,280,-14,27,13
2835,-96,-1992,288,-12,26,11
2840,-120,-1984,288,-12,26,14
2845,-112,-1992,312,-10,25,11
2850,-96,-1992,256,-9,24,14
2855,-112,-2008,272,-6,24,11
2860,-112,-2008,280,-6,25,14
2865,-104,-2008,296,-2,24,13
2870,-112,-2024,280,0,24,15
2875,-112,-2016,264,2,23,13
2880,-104,-2016,272,6,22,15
2885,-120,-2024,272,8,23,12
2890,-96,-2000,232,9,23,14
2895,-104,-2008,288,11,21,12
2900,-88,-2032,296,12,21,13
2905,-104,-2008,280,15,22,12
2910,-88,-2000,304,16,23,16
2915,-96,-2000,288,16,24,13
2920,-80,-2008,272,17,27,17
2925,-96,-2000,280,16,28,16
2930,-88,-2000,296,16,29,21
2935,-96,-2008,264,15,30,20
2940,-96,-2008,304,12,32,24
2945,-104,-1992,280,10,33,23
2950,-96,-1984,288,7,35,25
2955,-96,-1984,272,3,35,24
2960,-88,-1984,264,4,37,26
2965,-88,-2000,240,4,38,23
2970,-96,-1976,264,3,37,23
2975,-80,-1992,288,4,36,19
2980,-96,-1992,272,5,37,19
2985,-104,-2000,280,6,38,14
2990,-96,-2024,280,6,40,13
2995,-96,-2016,296,6,40,9
3000,-96,-1992,280,8,43,6
3005,-96,-2016,288,11,45,1
3010,-96,-2016,288,10,48,1
3015,-96,-2032,288,10,51,-3
3020,-96,-2008,256,9,53,-3
3025,-96,-2000,240,8,56,-5
3030,-96,-2008,304,5,59,-4
3035,-88,-2008,280,6,63,-6
3040,-96,-2008,280,6,67,-4
3045,-96,-2016,264,5,70,-6
3050,-56,-2032,264,6,72,-5
3055,-88,-2008,264,6,75,-6
3060,-64,-2016,264,6,77,-6
3065,-80,-2008,304,5,78,-6
3070,-88,-1984,264,5,79,-5
3075,-96,-1984,296,4,81,-7
3080,-64,-2008,320,3,83,-6
3085,-88,-1992,304,2,87,-10
3090,-96,-1992,280,2,89,-10
3095,-96,-1984,280,2,93,-12
3100,-96,-1984,264,2,98,-13
3105,-80,-2008,272,2,102,-16
3110,-96,-1992,304,2,105,-16
3115,-88,-1976,288,0,111,-18
3120,-96,-1992,280,1,113,-19
3125,-120,-1936,360,1,114,-21
3130,-176,-2032,312,3,116,-20
3135,-96,-1984,368,4,119,-23
3140,-88,-2000,328,3,122,-22
3145,0,-1976,248,3,125,-22
3150,-112,-2032,288,1,125,-25
3155,-56,-2024,496,1,126,-24
3160,-88,-2016,320,-1,127,-24
3165,-88,-2016,288,-4,127,-25
3170,-88,-2008,304,-5,128,-23
3175,-96,-2008,264,-7,129,-24
3180,-96,-1992,288,-8,130,-23
3185,-96,-1992,280,-10,130,-23
3190,-96,-2000,280,-12,130,-22
3195,-96,-1960,304,-14,131,-21
3200,-96,-2000,280,-15,130,-22
3205,-88,-2000,280,-15,129,-21
3210,-112,-1984,280,-14,129,-20
3215,-96,-2000,280,-14,130,-19
3220,-104,-2000,256,-13,128,-19
3225,-96,-2008,312,-10,127,-18
3230,-112,-1992,320,-8,127,-16
3235,-96,-1976,280,-8,127,-16
3240,-96,-2000,264,-8,126,-16
3245,-104,-1992,296,-7,124,-13
3250,-128,-2008,288,-7,122,-13
3255,-96,-1992,296,-5,120,-12
3260,-104,-2008,296,-4,119,-13
3265,-96,-2016,264,-4,117,-11
3270,-96,-1992,288,-4,117,-10
3275,-96,-2008,280,-3,116,-11
3280,-112,-2024,280,-2,115,-10
3285,-96,-2024,296,-1,115,-8
3290,-96,-2024,272,-1,114,-8
3295,-88,-1992,296,-3,114,-6
3300,-96,-2024,280,-4,112,-5
3305,-96,-2008,312,-5,110,-3
3310,-96,-1992,296,-5,110,-3
3315,-112,-2000,288,-6,109,-1
3320,-96,-1992,280,-9,107,-2
3325,-80,-2000,296,-10,106,0
3330,-104,-1984,288,-10,106,1
3335,-96,-2008,272,-9,106,0
3340,-104,-1984,304,-8,105,1
3345,-96,-1992,280,-8,105,1
3350,-96,-1976,280,-6,106,-1
3355,-96,-2000,288,-5,107,1
3360,-88,-2000,280,-5,107,-1
3365,-96,-1992,264,-3,109,2
3370,-96,-2000,304,-3,109,1
3375,-96,-1992,280,-3,109,2
3380,-96,-2032,272,-2,109,2
3385,-96,-2016,264,0,110,3
3390,-104,-1976,304,0,109,1
3395,-96,-1992,288,1,110,3
3400,-88,-2000,288,1,108,1
3405,-112,-2016,304,2,110,3
3410,-96,-2000,272,2,110,1
3415,-120,-2024,312,3,112,2
3420,-96,-1992,272,3,111,-2
3425,-88,-2024,296,3,112,-3
3430,-104,-1992,304,3,113,-5
3435,-96,-2000,288,4,114,-2
3440,-112,-2000,256,5,114,-5
3445,-112,-1992,288,4,115,-3
3450,-96,-1992,272,5,115,-3
3455,-96,-2008,288,4,116,0
3460,-104,-2000,272,4,115,0
3465,-112,-2008,304,5,116,3
3470,-96,-1984,304,1,116,3
3475,-120,-1984,256,-1,116,7
3480,-104,-1992,280,-2,115,7
3485,-96,-2000,288,-5,114,10
3490,-96,-1984,304,-7,115,7
3495,-96,-1976,272,-8,114,11
3500,-96,-1976,296,-10,113,7
3505,-128,-1968,272,-12,112,9
3510,-128,-1992,304,-14,111,6
3515,-104,-2008,256,-16,110,6
3520,-136,-1976,288,-16,109,2
3525,-104,-2000,296,-17,110,2
3530,-120,-1984,304,-16,109,1
3535,-96,-1992,304,-14,108,4
3540,-104,-2000,288,-13,107,2
3545,-128,-2000,304,-12,106,4
3550,-112,-2000,248,-12,106,2
3555,-120,-2000,304,-13,105,6
3560,-112,-2024,296,-14,103,6
3565,-120,-1984,288,-15,101,10
3570,-136,-1976,272,-16,99,9
3575,-144,-1976,272,-19,96,13
3580,-144,-1984,288,-20,93,13
3585,-128,-2000,264,-24,94,15
3590,-96,-2008,288,-24,90,14
3595,-120,-1984,304,-26,88,18
3600,-128,-1992,296,-26,86,16
3605,-136,-2008,272,-26,85,19
3610,-144,-1992,280,-25,83,17
3615,-128,-1984,272,-25,83,20
3620,-152,-2000,296,-23,82,16
3625,-128,-2016,264,-20,81,20
3630,-144,-1984,304,-19,79,19
3635,-136,-1968,304,-21,77,21
3640,-136,-1976,280,-21,75,20
3645,-144,-1976,280,-22,74,23
3650,-136,-1992,280,-22,71,20
3655,-128,-1976,272,-24,68,20
3660,-120,-2016,264,-24,66,18
3665,-112,-2008,320,-23,64,20
3670,-144,-2000,280,-25,64,18
3675,-112,-2000,280,-26,64,17
3680,-112,-2008,256,-27,62,14
3685,-128,-2000,280,-28,62,16
3690,-120,-2000,304,-30,63,14
3695,-136,-1984,280,-30,63,16
3700,-112,-2008,288,-29,64,13
3705,-112,-2016,320,-29,62,16
3710,-96,-1992,248,-29,63,15
3715,-136,-1992,272,-29,61,18
3720,-96,-2000,296,-30,60,16
3725,-144,-2008,280,-31,58,19
3730,-144,-1992,264,-32,59,17
3735,-120,-1992,272,-33,58,19
3740,-96,-2008,272,-33,57,16
3745,-152,-1984,312,-32,56,19
3750,-128,-2008,272,-32,55,18
3755,-120,-1984,296,-31,57,20
3760,-128,-1992,272,-30,56,17
3765,-112,-1992,296,-30,57,19
3770,-128,-1984,280,-30,57,18
3775,-128,-1992,264,-29,56,19
3780,-128,-1992,296,-29,57,17
3785,-104,-2000,304,-28,57,18
3790,-136,-1984,280,-29,56,15
3795,-112,-2008,288,-29,55,16
3800,-104,-2016,264,-30,55,15
3805,-128,-2008,256,-32,54,14
3810,-120,-1976,304,-33,52,11
3815,-112,-1984,296,-36,51,11
3820,-112,-2000,280,-37,49,9
3825,-112,-2024,272,-39,50,8
3830,-128,-2016,280,-40,50,6
3835,-120,-2024,272,-41,50,6
3840,-104,-2008,248,-39,52,3
3845,-96,-2032,256,-38,54,3
3850,-136,-2008,304,-37,57,0
3855,-96,-2032,304,-37,57,2
3860,-128,-2032,256,-34,59,1
3865,-128,-2024,272,-32,61,3
3870,-120,-2024,264,-27,62,2
3875,-112,-2024,240,-26,63,6
3880,-120,-2008,288,-23,63,5
3885,-112,-2016,256,-19,64,9
3890,-112,-2024,264,-14,63,9
3895,-120,-1992,256,-10,65,12
3900,-152,-2000,288,-8,64,11
3905,-168,-1992,288,-4,65,13
3910,-168,-1984,288,-1,64,12
3915,-168,-1992,296,1,63,15
3920,-160,-1992,280,2,62,15
3925,-144,-1984,280,2,61,14
3930,-152,-1968,304,2,61,12
3935,-136,-1984,296,0,55,12
3940,-152,-1952,264,-2,53,10
3945,-136,-1984,280,-6,51,8
3950,-104,-1976,288,-8,47,8
3955,-136,-1968,280,-11,44,7
3960,-128,-1992,288,-13,42,6
3965,-104,-1992,280,-16,41,7
3970,-128,-2008,288,-19,38,4
3975,-120,-2008,304,-21,38,3
3980,-144,-2008,280,-23,38,5
3985,-96,-2016,288,-25,39,6
3990,-168,-1976,296,-26,37,8
3995,-144,-2016,304,-27,38,11
4000,-152,-2008,312,-27,40,15
4005,-112,-2008,312,-27,42,17
4010,-152,-2000,320,-27,42,17
4015,-160,-1984,280,-24,42,20
4020,-112,-1992,304,-23,45,21
4025,-104,-2000,288,-20,45,20
4030,-144,-1984,256,-17,46,20
4035,-160,-1992,256,-13,46,19
4040,-120,-1984,296,-11,44,17
4045,-136,-1992,296,-9,43,13
4050,-112,-2008,272,-8,44,11
4055,-80,-2064,312,-6,45,7
4060,-104,-1984,280,-7,44,6
4065,-144,-2000,296,-9,43,1
4070,-128,-1992,288,-11,42,1
4075,-112,-2008,296,-13,42,1
4080,-128,-2016,280,-16,43,0
4085,-136,-1992,280,-18,43,0
4090,-112,-1984,304,-20,43,0
4095,-152,-1984,288,-21,43,-1
4100,-128,-1968,288,-23,43,-1
4105,-128,-2000,288,-24,42,-2
4110,-96,-2000,288,-25,43,0
4115,-112,-2016,256,-28,42,-1
4120,-112,-2000,264,-30,42,1
4125,-144,-1984,280,-30,43,0
4130,-144,-1992,272,-30,44,1
4135,-120,-2000,288,-30,45,-1
4140,-112,-2032,296,-31,46,0
4145,-136,-2000,272,-29,47,-1
4150,-128,-2000,296,-27,49,1
4155,-144,-2000,272,-27,49,0
4160,-152,-1984,320,-24,50,1
4165,-136,-2008,280,-24,50,1
4170,-144,-1984,264,-24,49,2
4175,-128,-1992,272,-23,49,-2
4180,-144,-2008,280,-21,49,-1
4185,-144,-2000,288,-20,48,-2
4190,-136,-1984,296,-20,49,-1
4195,-152,-2024,280,-21,49,-3
4200,-136,-1992,312,-22,50,-3
4205,-112,-2016,288,-23,50,-4
4210,-144,-2000,272,-23,52,-3
4215,-136,-2008,272,-22,52,-5
4220,-128,-2008,272,-19,53,-2
4225,-112,-2000,256,-19,54,-3
4230,-128,-2008,280,-16,53,-2
4235,-120,-1976,240,-15,53,-3
4240,-104,-2016,264,-16,52,-1
4245,-160,-2000,296,-16,52,-1
4250,-136,-1984,280,-16,52,0
4255,-128,-1968,320,-16,51,-1
4260,-112,-1984,280,-18,49,1
4265,-160,-1968,304,-18,48,-1
4270,-152,-1960,312,-18,47,2
4275,-168,-1960,280,-17,46,2
4280,-160,-1976,288,-16,45,5
4285,-152,-1992,264,-14,44,3
4290,-160,-1984,280,-15,45,4
4295,-152,-1992,256,-14,44,2
4300,-128,-1968,312,-14,45,6
4305,-176,-2000,264,-15,44,3
4310,-128,-2000,296,-14,43,5
4315,-152,-1984,288,-14,42,1
4320,-104,-2008,296,-16,41,4
4325,-112,-1984,288,-16,40,0
4330,-160,-1984,288,-16,37,1
4335,-136,-2008,288,-16,37,-1
4340,-112,-2000,248,-14,33,-1
4345,-112,-2000,288,-15,33,-3
4350,-112,-2000,264,-15,32,-3
4355,-112,-2000,296,-15,32,-7
4360,-120,-2008,288,-15,33,-5
4365,-112,-1992,288,-15,33,-9
4370,-96,-2016,264,-15,34,-9
4375,-112,-2008,280,-15,36,-11
4380,-120,-1992,296,-15,36,-10
4385,-144,-2000,280,-12,39,-16
4390,-128,-2008,272,-13,37,-13
4395,-128,-2008,264,-13,39,-17
4400,-120,-1992,288,-12,40,-16
4405,-136,-1984,264,-12,41,-18
4410,-104,-2016,272,-12,42,-16
4415,-112,-2008,272,-13,42,-19
4420,-112,-1976,288,-12,45,-18
4425,-120,-1992,280,-11,46,-21
4430,-136,-1984,288,-8,46,-21
4435,-144,-2000,296,-8,46,-24
4440,-120,-2000,296,-7,47,-22
4445,-152,-1984,280,-6,46,-27
4450,-144,-2016,256,-7,45,-25
4455,-112,-2008,296,-8,45,-29
4460,-136,-2000,264,-11,43,-29
4465,-120,-2000,272,-13,41,-33
4470,-104,-2008,272,-15,40,-31
4475,-104,-1992,288,-17,39,-34
4480,-112,-2008,296,-18,39,-33
4485,-112,-2008,264,-20,39,-37
4490,-120,-2008,256,-21,37,-35
4495,-112,-2000,296,-20,38,-38
4500,-112,-2016,296,-22,43,-35
4505,-112,-1992,296,-23,45,-36
4510,-136,-2000,312,-23,46,-32
4515,-104,-1992,312,-22,48,-31
4520,-104,-2000,312,-22,49,-26
4525,-120,-2000,272,-22,49,-28
4530,-112,-1984,304,-22,50,-22
4535,-112,-1984,272,-20,52,-21
4540,-104,-1968,280,-19,50,-17
4545,-96,-2000,272,-15,50,-17
4550,-104,-1984,256,-16,48,-16
4555,-96,-1968,248,-14,47,-19
4560,-104,-2000,280,-14,45,-18
4565,-112,-2024,256,-12,44,-20
4570,-104,-1984,272,-11,43,-19
4575,-112,-1992,272,-9,42,-23
4580,-120,-1984,296,-8,41,-21
4585,-120,-2008,288,-9,41,-24
4590,-120,-2016,224,-8,41,-22
4595,-96,-2008,296,-10,42,-24
4600,-112,-2000,256,-12,42,-22
4605,-112,-2008,288,-12,45,-22
4610,-104,-2008,288,-14,46,-18
4615,-104,-2000,296,-13,45,-18
4620,-104,-1984,328,-13,47,-15
4625,-96,-1992,296,-14,47,-15
4630,-96,-2024,288,-14,48,-12
4635,-96,-2008,272,-11,49,-11
4640,-96,-2008,256,-10,50,-8
4645,-128,-1984,296,-8,50,-7
4650,-128,-1992,256,-7,49,-4
4655,-104,-2016,304,-6,49,-6
4660,-112,-2008,272,-3,49,-5
4665,-96,-2000,288,-4,48,-8
4670,-112,-1984,304,-3,47,-5
4675,-104,-1992,288,-2,47,-7
4680,-112,-1976,288,-4,47,-6
4685,-112,-2000,280,-6,44,-9
4690,-120,-1984,288,-7,42,-9
4695,-128,-1968,280,-8,40,-11
4700,-104,-1992,280,-8,38,-11
4705,-112,-1992,272,-10,36,-14
4710,-112,-1968,280,-12,34,-14
4715,-104,-1976,272,-14,33,-14
4720,-112,-1984,296,-14,32,-13
4725,-96,-1984,280,-17,29,-15
4730,-104,-1984,272,-21,29,-13
4735,-96,-2000,248,-21,30,-14
4740,-96,-1984,240,-22,30,-16
4745,-96,-1984,272,-22,29,-17
4750,-96,-1984,264,-23,31,-19
4755,-96,-2024,272,-24,31,-21
4760,-88,-2016,232,-25,31,-23
4765,-96,-2008,256,-27,32,-25
4770,-112,-2032,248,-30,31,-27
4775,-88,-2040,280,-29,30,-30
4780,-88,-2024,256,-32,28,-31
4785,-88,-2048,240,-35,26,-32
4790,-96,-2016,248,-36,26,-37
4795,-104,-2016,248,-37,23,-38
4800,-112,-2016,240,-39,21,-39
4805,-104,-2024,232,-38,20,-39
4810,-96,-2024,256,-38,19,-41
4815,-96,-2008,248,-36,18,-44
4820,-120,-2008,272,-36,18,-44
4825,-96,-2008,272,-34,19,-48
4830,-88,-2016,224,-33,18,-49
4835,-96,-2008,224,-30,17,-50
4840,-96,-2000,232,-27,18,-51
4845,-96,-2000,256,-25,18,-51
4850,-112,-1976,240,-25,17,-53
4855,-96,-2008,232,-23,19,-54
4860,-96,-2000,256,-23,17,-54
4865,-96,-2016,248,-22,17,-54
4870,-96,-1992,248,-23,16,-54
4875,-104,-1992,272,-23,13,-55
4880,-96,-1992,248,-24,10,-55
4885,-96,-2000,256,-23,9,-54
4890,-96,-2000,248,-23,7,-55
4895,-80,-2032,248,-24,5,-52
4900,-88,-2016,256,-23,3,-52
4905,-96,-2032,216,-20,1,-49
4910,-96,-2024,240,-18,1,-49
4915,-96,-2048,256,-14,0,-47
4920,-96,-2024,224,-11,-1,-47
4925,-96,-2016,216,-8,1,-47
4930,-88,-2000,224,-2,3,-48
4935,-80,-2032,224,2,7,-47
4940,-88,-2048,240,8,10,-49
4945,-80,-2016,200,10,15,-47
4950,-88,-2048,224,15,16,-48
4955,-96,-2016,224,19,20,-48
4960,-88,-2016,216,21,24,-50
4965,-96,-2024,200,24,23,-49
4970,-96,-2040,224,25,22,-50
4975,-88,-2024,200,24,19,-47
4980,-80,-2040,224,20,14,-47
4985,-80,-2008,224,15,11,-43
4990,-88,-2000,208,11,8,-42
4995,-88,-1984,184,7,4,-37
5000,-88,-2008,208,-1,2,-37
5005,-80,-1976,200,-6,-2,-32
5010,-80,-2000,232,-12,-3,-31
5015,-96,-1992,248,-17,-4,-29
5020,-64,-2008,232,-23,-3,-27
5025,-80,-1992,224,-30,-3,-22
5030,-96,-1968,216,-35,-4,-24
5035,-80,-1984,224,-43,-1,-20
5040,-72,-1976,216,-49,2,-22
5045,-64,-2000,216,-56,5,-20
5050,-64,-1976,216,-63,9,-24
5055,-80,-1976,240,-67,14,-24
5060,-80,-1984,208,-72,16,-27
5065,-64,-1960,200,-76,18,-26
5070,-80,-1992,216,-80,22,-30
5075,-64,-1992,216,-84,26,-29
5080,-56,-1992,208,-89,28,-33
5085,-72,-2000,216,-90,32,-31
5090,-96,-1992,232,-95,35,-32
5095,-80,-2008,224,-98,39,-28
5100,-88,-2016,192,-101,40,-30
5105,-88,-2008,184,-105,44,-27
5110,-96,-2000,224,-110,47,-28
5115,-96,-2008,184,-116,49,-23
5120,-96,-1976,208,-124,50,-21
5125,-88,-2008,184,-128,50,-15
5130,-96,-2000,176,-134,49,-14
5135,-112,-2024,176,-141,46,-8
5140,-88,-2024,176,-146,43,-8
5145,-96,-2016,208,-148,41,-3
5150,-96,-1984,184,-150,37,-1
5155,-96,-1992,176,-152,32,4
5160,-104,-1976,176,-154,26,5
5165,-88,-1992,184,-157,21,13
5170,-96,-1968,176,-161,15,14
5175,-88,-1984,168,-166,8,19
5180,-88,-1992,136,-171,3,19
5185,-96,-1976,144,-180,-5,24
5190,-104,-1976,120,-187,-12,25
5195,-88,-1968,160,-197,-16,31
5200,-96,-1960,136,-208,-22,34
5205,-96,-1960,104,-218,-27,40
5210,-88,-1976,112,-228,-32,42
5215,-96,-1960,120,-239,-39,47
5220,-88,-1976,128,-247,-43,49
5225,-104,-1984,120,-254,-44,54
5230,-104,-2000,128,-261,-45,57
5235,-96,-1984,120,-268,-46,61
5240,-88,-1984,128,-274,-48,61
5245,-96,-1968,120,-284,-45,67
5250,-96,-1960,152,-293,-45,68
5255,-88,-1944,128,-303,-44,72
5260,-80,-1928,128,-315,-43,74
5265,-88,-1904,112,-329,-39,78
5270,-96,-1920,112,-341,-36,79
5275,-96,-1896,120,-354,-35,83
5280,-88,-1896,120,-367,-33,83
5285,-88,-1896,120,-379,-33,86
5290,-72,-1904,88,-389,-35,85
5295,-96,-1904,80,-399,-38,89
5300,-96,-1928,104,-406,-42,89
5305,-88,-1928,88,-412,-49,96
5310,-72,-1920,64,-415,-57,99
5315,-80,-1952,80,-416,-64,104
5320,-96,-1944,64,-416,-72,109
5325,-96,-1992,88,-416,-80,117
5330,-80,-1968,64,-417,-85,122
5335,-96,-1960,64,-418,-88,132
5340,-128,-1976,56,-421,-93,140
5345,-96,-1976,40,-427,-97,149
5350,-128,-1960,16,-433,-100,158
5355,-96,-1992,24,-439,-102,171
5360,-136,-1976,-8,-449,-108,181
5365,-152,-1960,-8,-458,-109,195
5370,-160,-1952,0,-466,-112,207
5375,-160,-1968,-8,-477,-115,221
5380,-168,-1960,16,-487,-119,234
5385,-168,-1952,-16,-496,-122,249
5390,-160,-1976,-16,-507,-124,261
5395,-160,-1976,-24,-515,-124,278
5400,-128,-1992,-16,-522,-123,290
5405,-112,-1992,-8,-524,-119,308
5410,-96,-2024,-24,-522,-115,322
5415,-112,-2000,0,-520,-109,336
5420,-96,-1984,-48,-519,-103,345
5425,-112,-1992,8,-518,-96,356
5430,-88,-2008,8,-517,-89,365
5435,-96,-2008,-24,-516,-83,373
5440,-88,-2040,-24,-518,-78,374
5445,-96,-2024,-8,-521,-73,380
5450,-96,-2032,-40,-521,-68,377
5455,-120,-2000,-40,-520,-66,375
5460,-144,-2000,32,-520,-65,372
5465,-136,-2016,-16,-523,-69,371
5470,-200,-1992,-8,-527,-74,367
5475,-216,-2000,-48,-529,-80,363
5480,-216,-2016,-16,-528,-86,358
5485,-248,-1992,-40,-526,-94,358
5490,-264,-1984,-48,-522,-104,357
5495,-296,-1984,-40,-517,-117,364
5500,-320,-1984,-56,-509,-131,364
5505,-312,-1960,-72,-501,-148,367
5510,-360,-1936,-112,-498,-164,368
5515,-392,-1960,-136,-497,-177,372
5520,-368,-1968,-152,-495,-189,372
5525,-400,-2000,-136,-494,-198,372
5530,-408,-1960,-216,-495,-210,372
5535,-424,-1960,-176,-499,-225,374
5540,-432,-1976,-192,-506,-238,375
5545,-448,-1992,-208,-513,-242,372
5550,-392,-2000,-224,-520,-239,364
5555,-400,-2032,-248,-527,-227,357
5560,-360,-2056,-288,-537,-211,351
5565,-320,-2032,-272,-543,-182,340
5570,-304,-2032,-240,-550,-150,330
5575,-272,-1984,-264,-562,-122,322
5580,-248,-1960,-256,-578,-93,310
5585,-232,-1968,-240,-592,-55,297
5590,-176,-1952,-200,-608,-16,281
5595,-136,-1944,-216,-616,23,265
5600,-144,-1912,-208,-615,64,255
5605,-104,-1912,-240,-615,97,241
5610,-88,-1864,-240,-625,127,233
5615,-64,-1840,-264,-646,154,230
5620,-48,-1808,-256,-668,179,229
5625,-72,-1792,-232,-689,201,227
5630,-48,-1808,-280,-700,220,227
5635,-64,-1824,-264,-708,233,228
5640,-96,-1824,-296,-716,239,233
5645,-88,-1840,-288,-724,231,237
5650,-112,-1856,-264,-731,213,249
5655,-160,-1904,-296,-731,187,257
5660,-168,-1944,-336,-728,147,271
5665,-240,-1928,-384,-722,102,282
5670,-288,-1960,-376,-715,48,293
5675,-360,-1952,-376,-707,-12,304
5680,-448,-1968,-376,-699,-74,317
5685,-512,-1976,-416,-695,-136,325
5690,-576,-1984,-424,-693,-197,337
5695,-616,-2016,-416,-694,-261,348
5700,-640,-1992,-448,-699,-300,359
5705,-672,-1992,-448,-705,-329,365
5710,-688,-1976,-448,-716,-341,372
5715,-688,-1976,-456,-730,-342,376
5720,-696,-1976,-456,-746,-328,381
5725,-704,-1952,-440,-762,-305,385
5730,-656,-1968,-432,-771,-275,388
5735,-648,-1920,-448,-779,-234,386
5740,-592,-1896,-432,-780,-190,388
5745,-576,-1872,-432,-780,-136,384
5750,-536,-1840,-432,-776,-91,383
5755,-504,-1816,-448,-772,-51,376
5760,-448,-1808,-456,-772,-10,374
5765,-424,-1768,-448,-773,32,369
5770,-384,-1752,-432,-779,72,367
5775,-360,-1760,-464,-783,113,366
5780,-360,-1728,-432,-785,151,366
5785,-352,-1744,-480,-783,179,364
5790,-352,-1728,-488,-782,203,366
5795,-336,-1720,-488,-786,225,371
5800,-320,-1736,-496,-793,241,381
5805,-312,-1704,-520,-802,247,385
5810,-320,-1728,-560,-815,251,393
5815,-320,-1776,-616,-834,256,396
5820,-336,-1792,-648,-854,257,406
5825,-352,-1776,-680,-873,260,408
5830,-328,-1784,-688,-890,259,415
5835,-344,-1784,-736,-903,261,417
5840,-336,-1760,-776,-921,266,416
5845,-360,-1720,-816,-940,278,408
5850,-376,-1624,-864,-965,294,403
5855,-384,-1552,-888,-999,316,394
5860,-400,-1472,-928,-1045,343,389
5865,-408,-1376,-896,-1098,372,379
5870,-392,-1304,-912,-1152,399,370
5875,-360,-1200,-944,-1210,420,349
5880,-432,-1128,-888,-1271,435,312
5885,-416,-1048,-920,-1325,426,221
5890,-344,-920,-912,-1402,448,169
5895,-288,-872,-912,-1463,492,169
5900,-280,-792,-904,-1512,535,192
5905,-280,-808,-888,-1561,588,220
5910,-344,-824,-800,-1606,625,234
5915,-400,-856,-816,-1627,635,205
5920,-408,-912,-784,-1634,628,179
5925,-440,-1024,-768,-1626,617,149
5930,-448,-1088,-776,-1599,597,116
5935,-512,-1176,-800,-1561,567,81
5940,-536,-1248,-816,-1526,536,72
5945,-536,-1352,-888,-1495,502,71
5950,-536,-1480,-928,-1471,460,74
5955,-560,-1568,-960,-1449,414,64
5960,-552,-1592,-1008,-1434,368,51
5965,-584,-1656,-1032,-1420,328,35
5970,-576,-1696,-1040,-1409,293,20
5975,-592,-1752,-1112,-1399,272,1
5980,-584,-1784,-1128,-1388,263,-17
5985,-576,-1808,-1208,-1377,264,-37
5990,-568,-1800,-1224,-1371,277,-52
5995,-592,-1848,-1256,-1360,297,-70
6000,-600,-1848,-1320,-1347,323,-76
6005,-608,-1864,-1384,-1332,354,-80
6010,-592,-1864,-1424,-1315,386,-71
6015,-576,-1928,-1456,-1295,423,-62
6020,-568,-1936,-1456,-1277,466,-42
6025,-576,-1952,-1472,-1259,509,-21
6030,-536,-1984,-1488,-1239,559,6
6035,-520,-2008,-1480,-1200,597,23
6040,-520,-1968,-1488,-1160,625,35
6045,-504,-1976,-1456,-1125,648,41
6050,-520,-1928,-1504,-1086,654,41
6055,-464,-1888,-1512,-1031,661,40
6060,-440,-1888,-1536,-970,665,47
6065,-440,-1784,-1496,-905,663,47
6070,-528,-1680,-1536,-837,653,50
6075,-600,-1648,-1472,-766,635,42
6080,-456,-1608,-1528,-677,602,39
6085,-504,-1624,-1392,-606,579,33
6090,-496,-1624,-1336,-542,567,54
6095,-496,-1616,-1384,-480,546,74
6100,-504,-1656,-1400,-419,519,84
6105,-512,-1664,-1360,-357,488,86
6110,-504,-1696,-1344,-292,447,84
6115,-504,-1816,-1392,-224,409,59
6120,-440,-1696,-1344,-153,374,56
6125,-288,-1784,-1360,-90,329,67
6130,-384,-1792,-1280,8,319,3
6135,-400,-1792,-1432,97,308,19
6140,-328,-1728,-1480,159,304,128
6145,-312,-1800,-1408,209,316,194
6150,-240,-1840,-1400,266,318,211
6155,-256,-1824,-1384,342,327,186
6160,-272,-1784,-1392,421,338,156
6165,-280,-1768,-1352,498,351,135
6170,-280,-1720,-1328,571,351,113
6175,-280,-1728,-1280,642,346,75
6180,-296,-1696,-1224,693,340,33
6185,-272,-1600,-1208,741,322,-27
6190,-224,-1568,-1192,775,300,-75
6195,-184,-1592,-1152,841,313,-78
6200,-224,-1576,-1120,925,329,-76
6205,-232,-1544,-1080,1007,329,-101
6210,-256,-1496,-1056,1075,319,-114
6215,-272,-1464,-1048,1144,298,-136
6220,-304,-1400,-1080,1211,277,-172
6225,-296,-1336,-1104,1279,261,-198
6230,-280,-1304,-1136,1314,262,-213
6235,-304,-1224,-1088,1345,276,-225
6240,-328,-1192,-1096,1367,296,-240
6245,-328,-1104,-1064,1365,308,-298
6250,-256,-1000,-1048,1360,336,-374
6255,-232,-840,-1064,1383,411,-387
6260,-264,-720,-1080,1411,492,-368
6265,-280,-600,-1056,1428,554,-372
6270,-320,-520,-976,1435,609,-397
6275,-328,-496,-952,1438,636,-410
6280,-360,-424,-864,1445,640,-407
6285,-408,-416,-808,1453,625,-398
6290,-432,-424,-800,1457,596,-386
6295,-416,-456,-808,1450,558,-373
6300,-408,-528,-720,1443,512,-355
6305,-432,-552,-728,1446,464,-338
6310,-448,-632,-752,1456,411,-323
6315,-464,-680,-728,1477,358,-302
6320,-440,-752,-712,1513,298,-289
6325,-448,-808,-744,1550,259,-277
6330,-440,-848,-736,1595,233,-271
6335,-440,-840,-784,1636,220,-270
6340,-384,-832,-744,1664,205,-279
6345,-352,-792,-776,1697,211,-280
6350,-328,-736,-800,1732,223,-267
6355,-304,-648,-744,1750,235,-250
6360,-288,-600,-704,1756,242,-233
6365,-248,-584,-632,1753,229,-205
6370,-216,-584,-584,1746,205,-177
6375,-208,-576,-552,1739,162,-150
6380,-240,-568,-488,1727,100,-129
6385,-240,-640,-488,1716,29,-111
6390,-256,-696,-448,1705,-56,-101
6395,-296,-784,-440,1697,-147,-107
6400,-312,-880,-448,1691,-244,-126
6405,-336,-1040,-464,1689,-343,-153
6410,-400,-1136,-512,1692,-437,-198
6415,-368,-1264,-568,1702,-544,-241
6420,-344,-1344,-616,1713,-625,-295
6425,-288,-1448,-624,1729,-696,-349
6430,-232,-1536,-648,1753,-757,-411
6435,-208,-1608,-664,1788,-811,-469
6440,-152,-1648,-664,1830,-855,-530
6445,-120,-1680,-680,1879,-886,-585
6450,-88,-1696,-680,1946,-907,-633
6455,-64,-1720,-632,2029,-919,-667
6460,-56,-1728,-640,2131,-926,-686
6465,-72,-1720,-640,2273,-923,-678
6470,-64,-1720,-600,2402,-914,-656
6475,-88,-1744,-624,2532,-902,-614
6480,-72,-1736,-616,2660,-886,-569
6485,-96,-1712,-624,2783,-871,-520
6490,-64,-1704,-640,2890,-850,-478
6495,-24,-1712,-648,2983,-825,-444
6500,-64,-1656,-656,3063,-802,-425
6505,-48,-1592,-648,3123,-782,-408
6510,-16,-1600,-608,3188,-758,-409
6515,-16,-1616,-488,3249,-743,-415
6520,-16,-1768,-344,3329,-737,-433
6525,-48,-1968,-248,3425,-745,-458
6530,-72,-2224,-160,3535,-772,-495
6535,-80,-2576,-64,3648,-811,-544
6540,-88,-2920,88,3774,-858,-606
6545,-88,-3328,176,3919,-903,-679
6550,-120,-3856,288,4066,-939,-750
6555,-296,-4440,360,4229,-987,-822
6560,-432,-4992,336,4434,-1036,-862
6565,-536,-5576,408,4607,-1093,-873
6570,-512,-6416,648,4790,-1152,-867
6575,-360,-6920,616,4991,-1210,-856
6580,176,-7600,712,5117,-1198,-870
6585,-112,-8200,992,5142,-1072,-909
6590,-368,-8720,1280,5031,-845,-832
6595,-128,-8880,1832,4814,-642,-675
6600,-240,-8792,2312,4641,-471,-564
6605,24,-8400,2552,4460,-255,-330
6610,608,-7520,2664,4216,-130,-87
6615,768,-6664,2680,3935,-3,51
6620,832,-5392,2608,3655,58,82
6625,680,-4296,2456,3387,63,41
6630,512,-3480,2256,3131,53,-95
6635,224,-3096,2096,2897,49,-300
6640,24,-2848,2104,2732,87,-546
6645,8,-2376,2384,2693,173,-757
6650,-8,-1888,2592,2802,278,-879
6655,-88,-1040,2616,2974,372,-842
6660,-64,-232,2680,2989,432,-757
6665,-184,528,2704,2899,486,-651
6670,-232,1144,2664,2742,511,-535
6675,-280,1512,2488,2512,503,-406
6680,-232,1504,2432,2201,448,-284
6685,-256,1192,2432,1897,354,-172
6690,-272,888,2416,1718,225,-70
6695,-280,480,2240,1687,76,8
6700,-312,104,2040,1792,-66,62
6705,-304,-216,1880,2042,-141,93
6710,-344,-440,1624,2297,-184,109
6715,-320,-616,1432,2530,-201,130
6720,-264,-768,1304,2710,-207,145
6725,-216,-848,1200,2830,-211,177
6730,-184,-920,1120,2895,-229,212
6735,-112,-944,1032,2925,-278,236
6740,-96,-992,936,2915,-352,249
6745,-120,-1000,808,2878,-454,235
6750,-128,-1048,752,2790,-599,198
6755,-104,-1104,648,2714,-737,171
6760,-104,-1168,600,2654,-884,148
6765,-120,-1216,552,2621,-1021,127
6770,-112,-1312,520,2635,-1126,96
6775,-104,-1344,456,2703,-1190,67
6780,-88,-1424,448,2821,-1224,29
6785,-160,-1440,440,2980,-1240,-5
6790,-120,-1408,360,3133,-1267,-58
6795,-56,-1312,312,3250,-1290,-150
6800,-128,-1144,352,3339,-1295,-218
6805,8,-936,280,3371,-1299,-247
6810,128,-648,232,3334,-1282,-270
6815,256,-312,320,3242,-1266,-339
6820,432,88,384,3147,-1257,-415
6825,624,352,440,3084,-1229,-453
6830,848,544,536,3052,-1192,-475
6835,984,688,616,3048,-1139,-483
6840,1168,696,656,3061,-1073,-492
6845,1408,680,808,3081,-971,-518
6850,1464,632,944,3125,-862,-583
6855,1392,528,1112,3189,-752,-669
6860,1136,400,1200,3272,-657,-748
6865,1056,344,1328,3360,-587,-799
6870,1128,320,1520,3436,-526,-822
6875,1080,328,1552,3498,-451,-832
6880,1000,368,1712,3522,-351,-856
6885,928,392,1744,3510,-256,-871
6890,736,336,1784,3466,-162,-841
6895,512,288,1840,3383,-73,-826
6900,408,296,1928,3290,-9,-818
6905,520,320,2008,3191,53,-779
6910,760,416,2112,3096,132,-740
6915,864,480,2208,3011,261,-724
6920,864,632,2232,2926,420,-726
6925,792,776,2256,2830,583,-725
6930,792,944,2168,2715,724,-698
6935,784,1120,2096,2559,845,-635
6940,776,1360,1960,2357,932,-513
6945,744,1536,1824,2064,973,-373
6950,864,1704,1736,1774,975,-216
6955,936,1960,1736,1434,989,-79
6960,992,2272,1856,1072,1009,27
6965,920,2464,2152,701,1021,117
6970,928,2776,2400,361,987,211
6975,856,2936,2616,63,902,315
6980,936,3032,2736,-196,779,444
6985,1432,3272,3048,-415,646,508
6990,1424,3392,3104,-512,559,386
6995,1136,3856,2912,-515,496,350
7000,1200,3960,2536,-524,391,437
7005,1080,4064,2112,-590,265,532
7010,1160,3904,1880,-758,171,640
7015,1552,3384,1816,-959,146,662
7020,1440,2952,1760,-1062,210,484
7025,1360,2512,1696,-1064,304,280
7030,1224,1920,1496,-983,397,117
7035,992,1472,1328,-848,560,-63
7040,720,1096,1296,-690,736,-215
7045,400,944,1160,-562,837,-363
7050,208,768,1160,-427,935,-442
7055,48,536,1200,-291,1028,-445
7060,-56,144,1240,-153,1114,-418
7065,-96,136,1144,-40,1160,-465
7070,-208,8,1128,-24,1194,-453
7075,-344,-152,1208,-83,1200,-352
7080,-392,-304,1320,-181,1145,-246
7085,-448,-320,1392,-299,1038,-148
7090,-488,-320,1560,-432,869,-78
7095,-544,-160,1632,-551,701,-8
7100,-464,-40,1648,-667,531,69
7105,-360,96,1688,-764,392,149
7110,-256,288,1696,-828,276,207
7115,-152,464,1688,-873,197,245
7120,-80,584,1648,-909,155,282
7125,-80,736,1680,-934,144,301
7130,-56,856,1704,-936,140,312
7135,-8,928,1760,-915,133,302
7140,24,992,1784,-844,130,267
7145,-32,1048,1824,-741,133,218
7150,-32,1104,1864,-594,140,177
7155,-88,1160,1928,-403,153,123
7160,-160,1240,1904,-166,169,80
7165,-240,1304,1880,85,182,64
7170,-272,1376,1872,330,196,77
7175,-264,1368,1888,562,219,102
7180,-288,1360,1896,770,243,127
7185,-256,1344,1928,951,261,145
7190,-96,1248,1976,1048,276,146
7195,-152,1240,1952,1098,295,124
7200,-112,1184,2024,1073,310,128
7205,-96,1104,2056,983,318,140
7210,-8,952,2112,843,317,145
7215,-24,856,2104,688,314,121
7220,-40,752,2104,527,308,96
7225,-16,704,2040,350,307,84
7230,24,528,2056,138,313,86
7235,8,352,2016,-98,313,86
7240,-64,200,2024,-259,298,91
7245,-16,96,1920,-386,270,105
7250,16,-24,1816,-488,262,124
7255,-80,-264,1896,-542,267,115
7260,-72,-296,1888,-515,247,102
7265,-64,-360,1904,-447,214,82
7270,-64,-312,1816,-346,171,33
7275,-88,-240,1808,-245,122,-21
7280,-96,-128,1768,-138,65,-70
7285,-144,80,1728,-35,17,-86
7290,-176,200,1712,7,-38,-70
7295,-64,192,1624,17,-80,-67
7300,-80,288,1680,15,-90,-100
7305,-80,344,1744,9,-93,-141
7310,-128,456,1800,11,-96,-171
7315,-120,472,1840,16,-102,-186
7320,-144,496,1896,25,-106,-189
7325,-120,456,1904,38,-108,-192
7330,-96,440,1912,64,-98,-195
7335,-112,440,1960,90,-81,-206
7340,-96,432,1992,103,-63,-203
7345,-32,344,2000,96,-35,-207
7350,-24,264,2000,97,11,-223
7355,-24,224,1984,92,63,-243
7360,-24,160,2048,68,105,-241
7365,-16,104,2016,26,129,-231
7370,40,8,2016,-26,132,-211
7375,96,64,1960,-77,125,-203
7380,120,56,1936,-188,116,-191
7385,168,-32,2024,-290,101,-189
7390,168,-72,1984,-364,83,-196
7395,168,-96,1968,-425,73,-206
7400,184,-224,2048,-469,64,-192
7405,184,-232,2008,-469,48,-183
7410,168,-288,2024,-458,32,-162
7415,192,-304,2024,-458,11,-134
7420,216,-360,2072,-457,-9,-105
7425,168,-352,2048,-414,-35,-90
7430,160,-376,2056,-358,-53,-70
7435,168,-368,2040,-293,-69,-61
7440,184,-336,2016,-228,-80,-52
7445,192,-296,1976,-179,-83,-51
7450,176,-240,1920,-150,-79,-43
7455,240,-224,1912,-136,-69,-40
7460,232,-144,1872,-134,-56,-38
7465,256,-56,1848,-141,-39,-46
7470,264,8,1840,-160,-20,-51
7475,296,40,1824,-192,14,-58
7480,296,160,1792,-222,47,-60
7485,304,184,1792,-251,78,-63
7490,328,264,1760,-275,101,-61
7495,328,288,1760,-290,113,-60
7500,328,312,1720,-302,118,-53
7505,320,368,1704,-306,118,-52
7510,320,368,1744,-305,118,-44
7515,296,416,1736,-296,113,-42
7520,304,424,1760,-282,106,-31
7525,288,424,1768,-260,99,-26
7530,272,440,1792,-242,91,-19
7535,240,464,1808,-224,83,-18
7540,224,448,1848,-204,77,-15
7545,216,448,1888,-187,74,-10
7550,200,456,1880,-170,76,-1
7555,200,448,1896,-155,82,5
7560,200,432,1920,-142,87,16
7565,184,456,1920,-133,92,19
7570,176,440,1920,-128,96,22
7575,160,448,1936,-128,100,17
7580,136,424,1968,-130,107,15
7585,144,424,1944,-131,115,9
7590,128,408,1952,-135,121,5
7595,128,400,2008,-138,129,-1
7600,128,400,1968,-138,136,0
7605,144,368,2008,-139,143,-4
7610,136,400,1984,-136,148,-3
7615,136,376,1976,-131,154,-1
7620,144,376,1968,-126,155,3
7625,128,384,1968,-118,156,5
7630,120,392,1976,-108,157,8
7635,176,376,1944,-101,159,6
7640,144,392,1936,-88,172,-1
7645,48,472,1936,-80,184,-5
7650,128,456,1968,-81,163,9
7655,96,472,1904,-77,143,14
7660,144,448,1904,-67,126,25
7665,128,472,1904,-52,116,26
7670,120,480,1928,-36,107,26
7675,104,472,1920,-22,101,25
7680,104,472,1912,-11,94,24
7685,120,448,1944,3,86,19
7690,80,472,1912,17,80,16
7695,96,456,1928,30,72,14
7700,72,456,1920,44,67,13
7705,56,456,1912,58,63,10
7710,48,424,1936,70,56,10
7715,72,432,1944,83,54,9
7720,72,408,1936,91,48,6
7725,64,400,1944,99,44,5
7730,56,360,1904,106,40,5
7735,32,368,1928,109,36,3
7740,64,360,1928,111,34,3
7745,40,336,1952,110,32,3
7750,32,320,1920,107,32,4
7755,32,296,1944,102,32,2
7760,40,272,1920,96,34,1
7765,32,272,1896,90,34,2
7770,16,264,1912,82,36,1
7775,0,256,1928,74,35,0
7780,-8,240,1888,67,34,-1
7785,0,240,1904,57,32,0
7790,0,224,1896,49,29,-2
7795,32,192,1904,41,29,-1
7800,0,200,1896,35,25,-1
7805,16,184,1872,26,24,-5
7810,16,200,1880,18,25,-8
7815,24,184,1904,12,26,-9
7820,48,192,1904,7,29,-11
7825,24,192,1904,4,34,-9
7830,32,176,1888,4,38,-11
7835,24,192,1872,1,42,-10
7840,48,152,1880,1,48,-10
7845,32,176,1912,3,54,-9
7850,64,152,1864,6,60,-9
7855,80,152,1864,7,65,-8
7860,72,168,1888,10,67,-10
7865,64,168,1888,11,67,-10
7870,40,176,1880,11,65,-13
7875,88,184,1880,10,64,-12
7880,72,176,1888,7,63,-14
7885,72,184,1912,5,62,-14
7890,120,176,1872,2,63,-14
7895,96,200,1888,-1,66,-12
7900,88,232,1912,-7,68,-13
7905,96,240,1880,-12,74,-9
7910,128,224,1888,-17,78,-10
7915,104,256,1904,-23,80,-5
7920,112,216,1896,-30,83,-6
7925,128,256,1904,-36,82,-5
7930,96,264,1888,-44,81,-8
7935,120,272,1928,-49,80,-9
7940,120,272,1888,-54,78,-12
7945,112,288,1904,-57,81,-12
7950,96,296,1880,-58,81,-12
7955,112,320,1944,-57,82,-10
7960,120,328,1944,-56,82,-12
7965,104,312,1912,-54,82,-11
7970,104,336,1880,-53,78,-14
7975,120,320,1904,-52,74,-12
7980,96,304,1872,-51,70,-15
7985,120,320,1864,-50,66,-15
7990,112,312,1872,-47,60,-19
7995,104,328,1872,-48,56,-16
8000,104,312,1872,-49,52,-19
8005,104,336,1904,-49,49,-16
8010,120,312,1920,-49,47,-18
8015,112,336,1912,-49,47,-14
8020,128,304,1904,-51,46,-15
8025,112,344,1912,-52,47,-12
8030,112,328,1896,-50,50,-12
8035,120,344,1904,-48,52,-9
8040,136,336,1904,-45,56,-11
8045,120,344,1888,-42,57,-7
8050,136,344,1920,-37,60,-9
8055,120,336,1936,-34,61,-6
8060,128,344,1896,-30,60,-8
8065,120,336,1944,-25,62,-4
8070,120,336,1904,-21,63,-8
8075,96,336,1920,-15,64,-4
8080,120,352,1912,-9,62,-5
8085,128,344,1896,-6,61,-2
8090,136,336,1912,-1,59,-3
8095,128,336,1912,6,57,0
8100,112,352,1920,8,54,-1
8105,136,312,1912,13,51,0
8110,144,320,1904,16,48,-1
8115,104,328,1896,18,46,2
8120,136,304,1936,20,46,0
8125,104,336,1904,22,44,3
8130,128,288,1936,23,42,-1
8135,112,312,1904,24,41,3
8140,120,304,1920,22,44,3
8145,96,280,1920,19,44,7
8150,96,272,1912,18,46,4
8155,96,304,1936,14,47,7
8160,120,280,1960,12,48,5
8165,112,288,1912,9,51,8
8170,80,280,1888,6,55,5
8175,128,296,1920,4,57,7
8180,96,272,1896,3,58,4
8185,80,288,1912,1,61,6
8190,88,264,1912,1,60,4
8195,96,264,1928,3,63,6
8200,104,272,1888,3,64,3
8205,104,264,1888,3,65,5
8210,128,248,1904,4,64,2
8215,80,232,1888,3,67,2
8220,120,264,1904,2,65,0
8225,96,264,1888,2,65,1
8230,72,264,1888,1,66,-2
8235,88,248,1896,-1,65,-2
8240,16,224,1880,-4,64,-4
8245,88,232,1856,-7,65,-5
8250,80,256,1904,-9,64,-7
8255,64,256,1904,-15,64,-6
8260,64,248,1912,-16,62,-10
8265,96,256,1912,-19,63,-9
8270,72,264,1912,-22,61,-11
8275,48,264,1872,-25,62,-8
8280,64,280,1912,-27,61,-8
8285,64,256,1864,-28,62,-6
8290,80,264,1896,-30,63,-9
8295,88,288,1896,-33,64,-9
8300,112,272,1904,-34,65,-11
8305,88,280,1880,-34,66,-8
8310,72,304,1896,-33,67,-10
8315,88,288,1888,-31,67,-6
8320,80,272,1904,-28,68,-8
8325,88,280,1880,-25,68,-4
8330,88,304,1912,-23,67,-2
8335,96,288,1944,-19,67,-1
8340,88,296,1920,-17,66,0
8345,88,312,1888,-15,64,2
8350,96,304,1912,-15,64,2
8355,72,320,1904,-14,60,3
8360,104,296,1904,-16,56,1
8365,72,336,1904,-16,55,2
8370,72,304,1920,-16,52,0
8375,104,304,1896,-16,50,3
8380,88,344,1896,-16,47,2
8385,72,312,1904,-17,45,3
8390,104,288,1896,-18,46,4
8395,104,296,1920,-21,46,5
8400,120,312,1904,-22,50,3
8405,112,312,1904,-22,53,5
8410,112,312,1920,-23,55,4
8415,112,312,1904,-22,57,3
8420,120,288,1920,-23,57,-1
8425,112,304,1904,-26,57,-6
8430,88,296,1936,-27,57,-9
8435,104,272,1952,-28,57,-12
8440,80,272,1928,-28,58,-16
8445,80,296,1920,-26,60,-19
8450,88,288,1912,-24,62,-22
8455,104,272,1912,-23,63,-25
8460,64,312,1904,-21,61,-30
8465,72,296,1880,-18,59,-29
8470,72,272,1888,-16,57,-30
8475,72,296,1904,-15,51,-33
8480,64,288,1864,-15,48,-35
8485,56,280,1880,-13,45,-36
8490,72,264,1920,-12,44,-39
8495,72,296,1904,-13,43,-40
8500,64,288,1912,-13,45,-39
8505,112,248,1888,-15,49,-39
8510,80,272,1880,-16,53,-36
8515,96,296,1888,-16,60,-34
8520,104,272,1888,-16,70,-27
8525,104,280,1904,-13,79,-22
8530,112,296,1904,-11,85,-15
8535,120,280,1904,-7,89,-11
8540,120,304,1856,-3,90,-3
8545,136,296,1904,1,93,0
8550,144,272,1880,5,94,6
8555,120,296,1896,8,92,10
8560,136,288,1880,9,91,15
8565,128,280,1896,11,88,19
8570,152,296,1936,13,83,24
8575,128,320,1896,15,80,25
8580,120,296,1904,17,76,28
8585,128,272,1896,18,73,29
8590,120,296,1904,20,68,33
8595,136,296,1888,23,65,33
8600,136,288,1896,25,61,35
8605,128,296,1896,26,60,35
8610,128,280,1856,29,57,36
8615,128,296,1872,31,55,34
8620,112,304,1888,31,54,34
8625,112,304,1896,29,53,30
8630,120,296,1904,28,53,31
8635,112,280,1856,26,54,28
8640,104,280,1880,24,56,30
8645,120,296,1904,22,59,28
8650,120,280,1888,18,61,29
8655,104,280,1896,13,63,27
8660,136,296,1912,11,66,27
8665,128,304,1904,8,69,23
8670,136,304,1904,6,73,25
8675,104,280,1920,4,75,20
8680,120,304,1896,3,76,20
8685,128,288,1912,1,77,16
8690,128,304,1896,4,78,15
8695,120,304,1904,4,78,11
8700,120,312,1888,4,79,10
8705,120,288,1888,5,79,8
8710,88,320,1888,9,80,8
8715,96,304,1920,9,81,2
8720,120,296,1912,11,80,2
8725,104,296,1912,14,80,-1
8730,96,320,1904,17,77,-2
8735,88,320,1936,18,76,-5
8740,96,312,1928,18,73,-6
8745,88,312,1896,20,71,-11
8750,64,328,1904,21,70,-10
8755,64,312,1896,19,68,-13
8760,80,280,1896,19,66,-14
8765,72,304,1912,17,64,-17
8770,48,304,1880,16,62,-16
8775,64,320,1912,13,62,-19
8780,56,320,1896,12,61,-18
8785,80,280,1880,12,60,-22
8790,56,304,1872,12,61,-18
8795,48,336,1904,9,60,-20
8800,64,312,1912,10,60,-18
8805,56,312,1896,9,59,-21
8810,48,328,1928,7,57,-21
8815,64,312,1888,6,57,-24
8820,48,320,1904,6,56,-22
8825,48,328,1896,6,55,-24
8830,48,336,1912,6,53,-24
8835,56,320,1912,7,53,-25
8840,56,304,1920,9,54,-20
8845,64,312,1912,13,54,-19
8850,80,304,1896,14,54,-16
8855,48,312,1880,17,53,-18
8860,48,336,1888,21,53,-14
8865,72,304,1912,22,52,-18
8870,64,320,1872,23,53,-15
8875,72,304,1888,25,53,-17
8880,64,312,1896,27,55,-12
8885,88,312,1896,29,55,-13
8890,72,312,1936,27,56,-10
8895,40,312,1968,26,54,-13
8900,96,312,1912,24,55,-11
8905,104,448,1880,26,54,-10
8910,72,256,1968,27,55,-7
8915,40,304,1912,24,55,-6
8920,64,352,1912,22,55,-4
8925,88,312,1880,22,56,-5
8930,80,328,1928,20,52,-2
8935,80,336,1912,18,53,-4
8940,88,312,1936,17,53,-1
8945,96,320,1872,17,53,-1
8950,96,328,1880,16,52,2
8955,96,320,1912,14,52,1
8960,88,344,1912,12,52,4
8965,96,328,1896,12,53,3
8970,112,320,1912,11,52,5
8975,104,328,1904,12,51,5
8980,104,320,1904,10,50,9
8985,104,320,1912,11,50,6
8990,128,296,1912,10,49,7
8995,120,328,1920,9,50,3
9000,120,344,1896,7,49,4
9005,120,320,1888,6,47,3
9010,128,328,1896,8,49,3
9015,112,328,1920,8,50,1
9020,120,336,1920,8,52,2
9025,96,344,1920,9,54,1
9030,120,328,1912,11,57,2
9035,128,336,1904,13,59,1
9040,96,320,1872,12,62,2
9045,120,352,1888,12,62,1
9050,128,328,1920,12,62,2
9055,120,320,1888,11,61,1
9060,120,344,1920,12,62,1
9065,112,320,1936,13,64,0
9070,104,336,1896,13,65,1
9075,128,320,1880,15,63,0
9080,120,328,1880,15,63,1
9085,112,368,1920,16,64,0
9090,120,336,1880,16,64,2
9095,128,344,1904,17,62,4
9100,96,344,1888,18,60,6
9105,152,304,1896,17,61,6
9110,120,360,1880,17,61,6
9115,104,344,1904,14,57,6
9120,120,344,1896,12,56,5
9125,120,344,1912,8,55,3
9130,96,336,1928,6,55,5
9135,88,344,1904,3,54,4
9140,112,336,1888,-1,53,5
9145,104,360,1912,-8,52,4
9150,88,344,1896,-13,53,4
9155,112,336,1904,-20,54,2
9160,104,344,1928,-25,55,0
9165,112,344,1944,-31,54,-1
9170,104,336,1896,-36,55,-2
9175,120,336,1888,-40,57,-3
9180,104,296,1888,-43,59,-4
9185,112,304,1928,-46,60,-4
9190,104,328,1920,-46,61,-4
9195,88,320,1936,-47,65,-5
9200,96,336,1936,-45,67,-6
9205,96,320,1912,-45,67,-5
9210,80,352,1920,-45,70,-4
9215,88,320,1928,-42,72,-3
9220,104,320,1912,-39,73,-4
9225,88,320,1904,-36,74,-3
9230,72,320,1920,-34,75,-3
9235,80,328,1928,-31,75,0
9240,80,344,1920,-27,77,0
9245,96,328,1904,-27,76,2
9250,88,336,1912,-23,75,0
9255,88,336,1920,-22,72,2
9260,80,336,1896,-22,71,1
9265,80,328,1896,-23,67,3
9270,80,320,1904,-22,64,0
9275,88,336,1912,-25,62,1
9280,80,328,1912,-24,60,0
9285,88,344,1864,-24,57,1
9290,72,360,1896,-24,59,0
9295,72,336,1896,-22,61,3
9300,88,328,1896,-22,60,2
9305,80,352,1888,-21,60,3
9310,88,328,1888,-25,61,0
9315,64,328,1912,-26,62,1
9320,88,328,1904,-31,62,-3
9325,104,312,1928,-36,64,-3
9330,88,320,1944,-41,68,-4
9335,80,304,1960,-43,74,-3
9340,72,328,1912,-42,84,-5
9345,72,304,1920,-38,92,-2
9350,96,304,1928,-36,99,-4
9355,64,312,1928,-35,102,-4
9360,72,312,1904,-35,103,-6
9365,72,296,1872,-37,103,-4
9370,88,304,1888,-36,99,-6
9375,72,312,1888,-35,94,-5
9380,72,304,1864,-34,88,-7
9385,56,328,1832,-31,83,-4
9390,56,328,1864,-26,78,-8
9395,80,320,1856,-24,72,-4
9400,72,320,1904,-25,67,-5
9405,88,328,1880,-26,64,-4
9410,88,336,1872,-28,61,-5
9415,104,320,1912,-30,59,-1
9420,112,304,1920,-33,59,-2
9425,80,336,1880,-33,57,0
9430,120,344,1880,-32,56,-1
9435,96,320,1880,-30,58,1
9440,120,328,1912,-29,59,-2
9445,112,344,1928,-27,59,-1
9450,96,328,1904,-22,62,-3
9455,120,320,1904,-23,63,-2
9460,96,336,1896,-21,64,-3
9465,104,320,1896,-18,65,-1
9470,80,312,1904,-17,65,-4
9475,104,312,1888,-18,65,-3
9480,96,344,1912,-18,63,-6
9485,88,328,1912,-17,62,-1
9490,88,312,1920,-18,61,-4
9495,112,320,1912,-19,61,-4
9500,96,344,1912,-20,60,-5
9505,104,320,1896,-21,60,-3
9510,96,312,1904,-22,60,-5
9515,104,320,1896,-22,60,-3
9520,120,296,1896,-25,61,-6
9525,120,304,1896,-27,61,-2
9530,88,312,1920,-28,62,-5
9535,96,304,1872,-28,64,-4
9540,80,312,1896,-29,65,-5
9545,104,304,1920,-30,64,-2
9550,88,304,1904,-30,65,-3
9555,104,312,1936,-29,66,0
9560,72,296,1920,-30,67,-2
9565,104,328,1904,-29,68,1
9570,96,304,1896,-29,68,0
9575,96,304,1872,-29,67,3
9580,96,296,1896,-28,65,0
9585,96,288,1896,-28,66,1
9590,104,320,1888,-28,65,-2
9595,80,312,1904,-27,66,-2
9600,88,320,1880,-26,68,-4
9605,80,320,1888,-25,68,-4
9610,80,328,1856,-25,69,-7
9615,80,320,1912,-24,68,-5
9620,88,296,1904,-23,68,-8
9625,88,296,1904,-23,70,-6
9630,72,288,1880,-23,71,-7
9635,72,312,1920,-23,71,-6
9640,72,304,1896,-24,70,-7
9645,96,312,1912,-23,69,-6
9650,80,304,1944,-22,70,-9
9655,88,312,1880,-23,71,-6
9660,72,328,1912,-22,72,-9
9665,72,320,1896,-24,73,-6
9670,104,288,1912,-26,75,-7
9675,112,320,1912,-28,75,-6
9680,96,328,1880,-30,75,-7
9685,64,320,1928,-32,76,-5
9690,64,304,1912,-32,76,-7
9695,80,304,1920,-34,77,-5
9700,88,320,1896,-38,78,-5
9705,104,296,1896,-36,78,-3
9710,80,328,1912,-36,77,-4
9715,72,320,1912,-37,74,-2
9720,80,312,1896,-35,74,-4
9725,72,336,1920,-33,72,-2
9730,96,312,1896,-32,72,-4
9735,96,320,1896,-31,69,-2
9740,96,312,1904,-31,69,-2
9745,88,320,1888,-30,67,-1
9750,88,328,1928,-31,66,-4
9755,72,304,1896,-30,64,-1
9760,88,312,1904,-31,61,-3
9765,104,296,1920,-29,61,-2
9770,104,304,1920,-28,63,-2
9775,96,304,1872,-27,63,-1
9780,56,320,1912,-27,64,-3
9785,72,304,1920,-27,64,-2
9790,88,304,1896,-27,66,-1
9795,112,312,1968,-25,65,-1
9800,80,312,1912,-24,66,-2
9805,72,304,1896,-24,65,-2
9810,64,304,1872,-23,62,-1
9815,88,320,1904,-22,63,-1
9820,80,336,1896,-21,61,0
9825,80,304,1912,-20,60,0
9830,56,344,1880,-20,59,-1
9835,88,296,1904,-20,58,-1
9840,88,296,1928,-19,58,0
9845,104,272,1888,-21,58,0
9850,88,296,1888,-21,57,0
9855,88,288,1888,-23,59,0
9860,72,296,1888,-23,59,1
9865,96,296,1920,-24,59,0
9870,104,280,1888,-22,60,0
9875,88,320,1880,-23,60,-1
9880,72,304,1896,-22,59,-1
9885,72,288,1872,-21,59,-2
9890,88,312,1912,-20,59,-1
9895,80,304,1912,-20,57,-4
9900,80,312,1880,-19,57,-3
9905,56,312,1896,-20,57,-2
9910,80,296,1904,-20,56,-3
9915,96,312,1904,-20,57,-3
9920,88,320,1904,-21,56,-1
9925,72,320,1888,-21,60,-1
9930,96,304,1896,-21,61,2
9935,104,312,1904,-20,62,1
9940,96,312,1896,-21,64,2
9945,88,296,1928,-23,62,3
9950,96,296,1904,-25,63,3
9955,88,288,1920,-26,61,3
9960,96,280,1904,-29,63,4
9965,88,304,1896,-28,62,1
9970,104,304,1896,-30,60,2
9975,88,328,1904,-30,60,0
9980,96,320,1912,-28,61,2
9985,96,312,1920,-27,63,-1
9990,104,328,1864,-23,63,0
9995,104,320,1888,-21,64,-1
10000,96,328,1912,-19,63,1
10005,80,304,1896,-15,64,-1
10010,96,336,1888,-13,64,0
10015,80,304,1896,-12,64,-4
10020,88,320,1912,-12,63,-4
10025,72,312,1928,-13,62,-8
10030,88,296,1936,-15,60,-7
10035,88,304,1944,-19,60,-10
10040,80,304,1912,-20,63,-9
10045,80,288,1912,-19,67,-10
10050,72,328,1912,-17,72,-8
10055,88,296,1912,-16,78,-9
10060,72,296,1896,-16,82,-7
10065,80,304,1920,-16,83,-9
10070,96,280,1896,-16,84,-7
10075,88,272,1888,-16,80,-8
10080,80,304,1872,-16,78,-6
10085,80,296,1880,-13,74,-7
10090,88,296,1848,-12,70,-5
10095,104,312,1880,-9,66,-8
10100,96,304,1872,-8,63,-4
10105,80,312,1864,-7,57,-5
10110,88,288,1880,-7,54,-3
10115,72,320,1880,-6,50,-4
10120,80,312,1888,-6,49,-2
10125,88,304,1896,-4,47,-3
10130,80,288,1912,-3,47,-1
10135,88,304,1880,0,45,-4
10140,80,296,1920,1,45,-2
10145,72,320,1928,2,45,-3
10150,80,304,1896,3,47,-2
10155,80,280,1920,4,48,-5
10160,120,280,1912,4,52,-2
10165,104,296,1904,2,54,-5
10170,80,312,1912,1,57,-2
10175,88,296,1928,1,60,-4
10180,88,304,1920,0,60,-2
10185,88,296,1904,-1,58,-5
10190,88,296,1904,-3,62,-1
10195,88,296,1920,-4,60,-3
10200,80,312,1904,-4,60,-2
10205,88,312,1864,-4,60,-4
10210,80,280,1888,-4,58,-2
10215,96,296,1912,-6,57,-5
10220,88,296,1856,-4,57,-2
10225,80,312,1888,-4,57,-5
10230,72,304,1880,-3,57,-3
10235,88,304,1888,-4,57,-4
10240,72,296,1880,-3,57,-3
10245,88,320,1896,-2,56,-5
10250,80,296,1912,-3,55,-2
10255,80,296,1888,-2,53,-4
10260,88,288,1888,-2,54,-2
10265,88,296,1920,-1,53,-1
10270,112,288,1896,0,52,0
10275,88,296,1896,-3,52,-1
10280,96,304,1880,-2,53,1
10285,112,272,1904,-4,52,-2
10290,88,304,1896,-4,52,-3
10295,96,304,1912,-4,54,-6
10300,120,304,1888,-4,54,-5
10305,48,312,1896,-4,54,-6
10310,88,296,1888,-2,54,-4
10315,80,312,1904,-1,55,-6
10320,96,312,1904,0,55,-4
10325,88,296,1920,2,56,-6
10330,104,288,1896,3,56,-5
10335,80,328,1904,3,56,-7
10340,104,328,1920,2,57,-5
10345,72,320,1904,2,56,-6
10350,88,320,1904,2,57,-5
10355,72,320,1896,3,58,-5
10360,80,320,1896,4,57,-2
10365,88,312,1920,4,58,-7
10370,80,312,1904,0,59,-5
10375,80,312,1872,-2,58,-7
10380,96,304,1888,-5,57,-6
10385,80,344,1912,-7,58,-6
10390,80,328,1904,-8,58,-7
10395,88,328,1896,-9,61,-7
10400,104,296,1888,-10,61,-6
10405,80,320,1904,-10,63,-7
10410,96,328,1904,-10,64,-6
10415,64,328,1888,-9,64,-7
10420,104,320,1872,-9,64,-5
10425,104,344,1888,-7,64,-5
10430,96,304,1904,-6,64,-5
10435,80,328,1920,-7,63,-5
10440,88,312,1872,-4,60,-5
10445,112,320,1928,-3,58,-4
10450,88,280,1920,-2,55,-3
10455,96,336,1888,-1,55,-3
10460,80,328,1872,-1,53,-3
10465,72,328,1936,-1,51,-3
10470,80,312,1904,-2,51,-3
10475,88,304,1904,-3,51,-2
10480,96,304,1936,-5,51,-1
10485,112,296,1888,-7,52,-1
10490,72,312,1904,-7,53,-1
10495,104,312,1904,-8,54,-1
10500,80,304,1896,-7,54,1
10505,96,304,1888,-7,56,1
10510,80,296,1896,-7,57,-1
10515,88,320,1888,-7,56,-1
10520,96,320,1896,-6,56,-1
10525,88,296,1920,-3,55,0
10530,104,320,1912,-4,56,-1
10535,80,304,1896,-3,56,0
10540,80,296,1888,-2,55,-1
10545,88,336,1872,-3,54,1
10550,112,296,1920,-1,57,0
10555,80,304,1896,-1,55,0
10560,104,304,1936,-2,55,1
10565,104,320,1888,-3,55,2
10570,80,296,1912,-4,56,0
10575,96,304,1904,-3,55,2
10580,88,312,1896,-5,55,-1
10585,88,312,1888,-6,56,0
10590,104,312,1912,-7,57,-1
10595,88,320,1888,-6,56,0
10600,80,328,1928,-6,58,-2
10605,96,320,1904,-8,60,-1
10610,72,336,1880,-8,58,-1
10615,80,304,1896,-8,59,1
10620,88,312,1912,-8,59,-2
10625,80,328,1888,-7,58,0
10630,96,320,1880,-7,58,-1
10635,88,312,1888,-6,60,0
10640,88,320,1888,-5,62,-1
10645,88,320,1928,-5,62,3
10650,72,320,1904,-5,63,0
10655,104,312,1928,-3,64,1
10660,72,312,1912,-3,65,1
10665,88,328,1904,-1,64,2
10670,88,304,1896,-2,62,1
10675,88,320,1920,-3,62,1
10680,96,288,1912,-4,59,0
10685,88,320,1888,-5,57,1
10690,88,304,1912,-6,56,-2
10695,88,320,1904,-7,54,-1
10700,96,328,1896,-9,53,-3
10705,88,320,1920,-8,51,-4
10710,80,328,1928,-8,50,-8
10715,88,328,1888,-8,53,-3
10720,104,328,1872,-8,55,-6
10725,120,296,1888,-8,56,-4
10730,120,328,1912,-8,58,-7
10735,88,312,1912,-9,61,-4
10740,88,336,1896,-12,62,-6
10745,104,320,1920,-15,62,-6
10750,96,312,1936,-17,63,-10
10755,80,304,1928,-19,65,-8
10760,96,296,1936,-22,69,-10
10765,88,304,1904,-22,72,-8
10770,96,304,1936,-20,77,-9
10775,96,288,1896,-18,84,-7
10780,64,328,1912,-15,86,-9
10785,96,288,1920,-15,90,-6
10790,80,304,1872,-15,91,-7
10795,80,304,1904,-15,90,-3
10800,80,296,1920,-16,87,-6
10805,88,320,1880,-14,82,-3
10810,88,304,1888,-10,78,-6
10815,88,320,1856,-6,72,-3
10820,72,320,1880,-3,68,-4
10825,104,320,1872,0,64,-2
10830,72,344,1896,1,59,-5
10835,88,304,1872,2,58,0
10840,64,336,1872,1,54,-3
10845,128,312,1920,0,52,2
10850,120,336,1880,1,51,1
10855,88,360,1896,-1,50,4
10860,88,336,1896,-1,51,0
10865,96,344,1896,2,50,3
10870,88,320,1928,3,50,0
10875,104,328,1928,4,53,3
10880,104,328,1888,4,53,0
10885,104,312,1920,4,55,2
10890,96,336,1912,5,57,-2
10895,104,328,1880,6,57,0
10900,88,328,1920,6,57,-3
10905,88,320,1920,4,54,-2
10910,88,312,1872,4,55,-4
10915,96,328,1896,4,53,-2
10920,96,328,1888,3,54,-5
10925,80,296,1888,3,53,-3
10930,72,304,1896,2,51,-5
10935,96,312,1896,1,50,-4
10940,104,336,1904,0,50,-6
10945,72,296,1904,-1,52,-3
10950,96,296,1920,-4,54,-6
10955,88,336,1936,-6,53,-3
10960,88,312,1904,-5,55,-5
10965,72,312,1896,-6,56,-3
10970,80,312,1896,-6,58,-5
10975,80,296,1880,-8,58,-2
10980,80,304,1880,-9,58,-4
10985,112,304,1904,-9,58,-1
10990,80,312,1888,-8,57,-2
10995,96,320,1912,-10,56,2
11000,104,320,1912,-8,56,0
11005,104,312,1904,-9,57,1
11010,96,344,1904,-9,57,0
11015,80,344,1880,-9,57,1
11020,104,320,1872,-7,56,0
11025,104,312,1920,-7,56,-1
11030,88,328,1904,-7,55,-4
11035,80,328,1920,-6,57,-2
11040,72,328,1896,-2,57,-4
11045,104,320,1920,-2,56,-5
11050,104,312,1904,0,58,-5
11055,96,320,1912,-2,57,-4
11060,120,328,1912,-1,57,-6
11065,80,344,1872,0,57,-5
11070,104,328,1912,-2,56,-5
11075,96,312,1928,-2,57,-5
11080,104,328,1904,-2,56,-7
11085,104,328,1888,-2,57,-5
11090,96,304,1896,-2,57,-1
11095,80,352,1864,-2,59,-1
11100,64,328,1928,-3,60,-1
11105,88,328,1880,-8,59,-2
11110,96,336,1912,-11,60,-4
11115,88,320,1888,-13,61,-5
11120,96,336,1896,-14,63,-6
11125,88,344,1872,-14,64,-6
11130,80,336,1928,-15,66,-6
11135,80,312,1904,-16,68,-6
11140,104,320,1904,-16,69,-4
11145,104,328,1912,-16,67,-5
11150,72,320,1912,-15,67,-6
11155,96,320,1912,-14,65,-6
11160,104,328,1896,-14,64,-5
11165,96,336,1912,-15,63,-5
11170,96,336,1896,-15,59,-7
11175,72,336,1904,-14,58,-7
11180,88,336,1880,-13,55,-7
11185,88,344,1896,-13,56,-9
11190,96,336,1896,-11,54,-10
11195,80,360,1920,-10,54,-11
11200,96,336,1896,-9,53,-3
11205,88,304,1888,-9,54,-4
11210,80,328,1904,-10,52,-5
11215,96,328,1896,-12,51,-7
11220,72,320,1904,-12,52,-7
11225,96,336,1888,-12,55,-8
11230,96,312,1904,-12,54,-5
11235,88,320,1920,-12,56,-6
11240,104,320,1896,-11,56,-4
11245,104,328,1904,-12,58,-7
11250,88,312,1888,-13,56,-5
11255,104,336,1912,-13,56,-6
11260,104,344,1920,-11,57,-3
11265,88,336,1904,-12,58,-4
11270,96,336,1896,-12,59,-1
11275,120,304,1920,-12,59,-2
11280,64,336,1888,-12,58,-1
11285,104,304,1920,-12,60,-1
11290,104,296,1896,-13,61,1
11295,104,344,1896,-12,60,0
11300,112,312,1904,-13,62,2
11305,104,328,1896,-11,61,1
11310,88,336,1920,-12,62,3
11315,88,320,1880,-13,62,1
11320,96,312,1896,-11,62,2
11325,96,336,1912,-13,61,2
11330,96,336,1872,-15,64,4
11335,80,320,1912,-14,64,3
11340,104,320,1888,-14,63,3
11345,96,328,1912,-15,62,1
11350,88,344,1888,-15,62,3
11355,96,328,1912,-13,60,1
11360,72,328,1864,-14,60,4
11365,96,328,1896,-15,58,1
11370,88,304,1856,-17,58,3
11375,88,312,1888,-16,56,1
11380,96,320,1896,-16,57,3
11385,88,328,1880,-18,55,-2
11390,72,336,1912,-18,55,1
11395,104,312,1896,-18,56,-1
11400,88,320,1928,-17,57,1
11405,96,320,1888,-18,58,-1
11410,96,328,1880,-17,58,0
11415,96,336,1872,-16,58,-2
11420,104,344,1904,-15,58,-1
11425,120,280,1880,-15,58,-3
11430,96,304,1904,-14,59,0
11435,104,320,1912,-13,59,-3
11440,104,320,1896,-12,61,-1
11445,88,344,1904,-12,62,-4
11450,96,312,1880,-12,63,-1
11455,88,336,1864,-10,65,-3
11460,88,320,1912,-8,66,-1
11465,88,320,1912,-8,67,-2
11470,88,320,1920,-11,66,0
11475,96,328,1888,-12,63,-2
11480,80,336,1912,-12,61,-1
11485,104,328,1880,-14,59,-5
11490,96,304,1920,-13,57,-2
11495,96,320,1880,-15,54,-6
11500,80,336,1896,-16,51,-4
11505,96,320,1896,-16,50,-6
11510,80,320,1912,-16,51,-6
11515,104,344,1904,-17,53,-8
11520,88,312,1888,-15,55,-4
11525,96,336,1896,-14,58,-6
11530,104,328,1896,-13,62,-2
11535,88,328,1912,-13,63,-5
11540,120,328,1912,-14,66,-3
11545,80,344,1888,-17,65,-6
11550,80,328,1928,-19,65,-5
11555,104,312,1920,-21,67,-8
11560,80,312,1936,-23,69,-6
11565,80,304,1936,-25,74,-8
11570,96,304,1912,-24,81,-6
11575,88,312,1912,-21,84,-8
11580,72,320,1928,-20,89,-4
11585,80,296,1888,-19,92,-5
11590,80,320,1888,-18,94,-3
11595,96,304,1944,-18,92,-5
11600,88,312,1880,-17,88,-3
11605,80,320,1880,-15,85,-5
11610,104,288,1960,-15,81,-4
11615,64,360,1872,-11,76,-4
11620,8,264,1928,-8,72,-3
11625,128,304,1736,-7,69,-4
11630,56,184,1904,-6,66,0
11635,24,304,1896,-6,62,-1
11640,32,376,1888,-6,61,1
11645,80,328,1920,-5,59,-2
11650,96,328,1912,-5,58,1
11655,112,328,1912,-4,56,0
11660,112,336,1896,-1,52,0
11665,96,336,1880,-1,53,0
11670,88,360,1896,0,54,0
11675,88,352,1904,2,54,-1
11680,120,320,1880,3,54,0
11685,112,328,1872,8,49,-1
11690,128,336,1920,3,52,-2
11695,96,320,1880,4,54,-4
11700,112,304,1888,2,55,-3
11705,64,344,1912,2,56,-2
11710,96,328,1904,-1,56,-3
11715,88,336,1896,-3,55,-1
11720,88,344,1920,-2,54,-2
11725,80,328,1912,-4,56,-4
11730,96,336,1864,-8,57,-4
11735,88,352,1928,-9,59,-4
11740,80,328,1872,-11,59,-3
11745,88,320,1920,-12,61,-3
11750,80,336,1888,-14,62,-1
11755,104,304,1896,-14,63,-2
11760,96,320,1904,-14,64,-2
11765,104,336,1904,-14,63,-3
11770,96,304,1896,-15,62,-3
11775,88,312,1888,-14,60,-3
11780,88,336,1880,-15,61,-3
11785,96,320,1904,-16,62,-2
11790,88,336,1912,-17,61,0
11795,104,320,1904,-16,62,1
11800,112,320,1904,-15,61,1
11805,96,336,1920,-16,61,2
11810,80,328,1880,-15,61,0
11815,88,320,1896,-15,63,0
11820,88,320,1896,-14,62,-1
11825,72,328,1904,-14,62,-1
11830,88,336,1888,-13,62,-3
11835,80,352,1888,-11,62,-3
11840,80,344,1912,-11,61,-4
11845,88,328,1904,-11,61,-3
11850,80,320,1888,-11,59,-7
11855,80,312,1912,-11,57,-6
11860,88,336,1904,-11,57,-6
11865,96,344,1904,-11,56,-6
11870,96,328,1904,-11,57,-7
11875,96,344,1912,-12,58,-5
11880,88,304,1928,-11,60,-6
11885,96,336,1896,-10,64,-5
11890,104,320,1904,-11,66,-6
11895,88,320,1920,-11,68,-4
11900,96,304,1928,-13,70,-5
11905,64,320,1880,-14,72,-5
11910,80,296,1896,-15,74,-6
11915,104,328,1896,-14,75,-1
11920,104,328,1888,-16,75,-3
11925,80,328,1912,-19,75,-3
11930,88,328,1896,-17,75,-5
11935,80,352,1912,-16,74,-4
11940,88,320,1888,-15,75,-4
11945,96,320,1888,-14,72,-2
11950,120,336,1912,-13,71,-3
11955,64,320,1904,-12,70,-2
11960,88,368,1880,-12,68,-4
11965,80,320,1880,-10,66,-1
11970,104,320,1896,-11,62,-3
11975,80,328,1888,-12,61,-2
11980,88,336,1880,-14,58,-4
11985,88,304,1944,-14,58,-2
11990,88,336,1904,-17,56,-3
11995,80,320,1904,-17,56,-1
12000,88,344,1888,-17,57,-3
12005,104,312,1904,-20,59,-1
12010,80,312,1920,-21,58,-3
12015,104,320,1912,-23,60,0
12020,64,328,1912,-24,61,-3
12025,96,320,1896,-25,62,-2
12030,64,352,1896,-26,63,-2
12035,80,296,1920,-26,66,-1
12040,80,344,1880,-26,67,-2
12045,80,352,1872,-26,68,0
12050,80,312,1912,-24,67,-2
12055,96,328,1928,-24,69,-1
12060,96,320,1912,-23,70,-3
12065,96,328,1896,-21,70,0
12070,88,336,1912,-21,70,-1
12075,104,296,1904,-20,69,1
12080,88,312,1888,-21,70,-2
12085,96,312,1912,-20,69,1
12090,104,328,1896,-18,69,-2
12095,88,344,1912,-19,68,1
12100,88,328,1920,-19,68,-1
12105,72,320,1904,-19,66,3
12110,96,336,1872,-19,67,0
12115,104,288,1904,-19,67,2
12120,104,336,1896,-20,67,0
12125,88,320,1920,-21,67,2
12130,88,312,1888,-20,67,1
12135,88,312,1880,-20,66,2
12140,96,320,1888,-20,67,0
12145,96,312,1888,-21,69,2
12150,80,312,1896,-21,70,-1
12155,88,328,1888,-20,69,1
12160,80,312,1944,-20,69,-1
12165,80,328,1896,-21,70,2
12170,104,320,1920,-20,69,-1
12175,96,328,1904,-19,70,1
12180,88,320,1872,-18,70,-2
12185,72,344,1912,-18,69,0
12190,96,320,1904,-19,69,-2
12195,72,328,1888,-17,69,0
12200,88,296,1904,-17,69,-2
12205,88,344,1888,-19,69,0
12210,104,304,1888,-18,71,-2
12215,80,312,1904,-20,69,-1
12220,88,320,1912,-20,70,-4
12225,72,328,1880,-21,69,-1
12230,88,328,1904,-20,68,-2
12235,80,328,1896,-23,68,-2
12240,72,336,1904,-24,68,-3
12245,96,304,1912,-25,68,-2
12250,80,320,1912,-25,67,-3
12255,80,336,1888,-26,67,-1
12260,104,312,1872,-26,66,-1
12265,96,312,1872,-29,66,0
12270,80,336,1920,-30,66,-3
12275,88,320,1896,-32,66,-1
12280,88,336,1896,-32,66,-3
12285,96,328,1888,-32,66,-1
12290,88,352,1912,-34,66,-3
12295,96,304,1904,-33,67,-2
12300,88,312,1912,-34,65,-2
12305,96,320,1864,-32,67,0
12310,88,320,1920,-32,66,-1
12315,88,312,1880,-30,66,0
12320,72,328,1928,-30,67,0
12325,80,312,1880,-29,68,1
12330,112,320,1912,-28,70,1
12335,104,320,1904,-27,72,0
12340,104,304,1912,-26,73,2
12345,88,336,1904,-24,74,2
12350,88,296,1872,-24,75,4
12355,104,312,1888,-24,75,4
12360,80,312,1904,-27,76,2
12365,88,304,1904,-29,76,2
12370,104,304,1896,-31,75,0
12375,96,320,1896,-32,73,0
12380,64,360,1856,-35,72,-1
12385,88,336,1904,-36,70,-2
12390,88,296,1896,-34,66,-2
12395,104,320,1904,-32,62,0
12400,80,328,1896,-34,62,0
12405,96,312,1912,-35,60,-1
12410,96,312,1896,-36,60,-1
12415,96,328,1920,-35,62,-1
12420,104,320,1904,-35,63,0
12425,80,304,1888,-36,63,-1
12430,80,304,1928,-39,63,-3
12435,80,304,1912,-40,65,-5
12440,104,272,1904,-43,65,-6
12445,64,328,1920,-46,67,-8
12450,104,288,1920,-50,67,-9
12455,64,312,1944,-54,72,-11
12460,72,288,1912,-56,77,-10
12465,72,312,1920,-55,86,-8
12470,48,280,1912,-52,93,-8
12475,72,288,1888,-48,99,-7
12480,40,288,1912,-46,103,-4
12485,80,288,1880,-45,102,-5
12490,56,296,1856,-42,101,-3
12495,72,304,1904,-40,97,-5
12500,56,296,1880,-37,92,-4
12505,96,296,1896,-32,88,-5
12510,80,312,1896,-28,84,-2
12515,56,312,1856,-25,78,-3
12520,88,312,1848,-21,73,-1
12525,72,304,1872,-22,69,-2
12530,88,320,1896,-22,64,0
12535,72,304,1856,-22,61,-1
12540,64,328,1896,-22,58,2
12545,104,328,1896,-22,56,1
12550,80,328,1912,-22,55,1
12555,64,320,1896,-21,55,-1
12560,96,312,1904,-21,55,0
12565,80,304,1896,-18,56,-2
12570,88,304,1944,-18,57,-1
12575,72,296,1912,-17,57,-3
12580,80,328,1920,-16,57,0
12585,88,320,1896,-16,58,-3
12590,80,312,1888,-15,58,-2
12595,104,296,1888,-14,57,-3
12600,88,312,1920,-13,58,-1
12605,88,304,1928,-13,57,-3
12610,88,312,1904,-13,58,0
12615,80,272,1896,-13,56,-4
12620,88,288,1904,-14,56,-1
12625,64,320,1888,-16,57,-4
12630,80,312,1896,-18,57,-1
12635,72,312,1880,-20,57,-3
12640,88,288,1904,-21,56,0
12645,72,288,1928,-23,57,-4
12650,80,304,1904,-26,57,0
12655,88,304,1896,-26,60,-2
12660,88,288,1912,-29,60,0
12665,88,296,1920,-29,61,-2
12670,80,288,1904,-30,60,-1
12675,96,304,1880,-29,60,-3
12680,72,304,1904,-28,61,-1
12685,80,280,1904,-27,60,-3
12690,88,288,1888,-26,61,-1
12695,80,280,1856,-24,61,-2
12700,72,296,1880,-22,63,2
12705,104,304,1880,-18,63,-1
12710,72,296,1896,-17,63,1
12715,96,288,1896,-13,62,-3
12720,88,296,1888,-11,61,-2
12725,80,288,1896,-9,63,-6
12730,96,288,1896,-7,63,-3
12735,80,280,1936,-7,62,-6
12740,64,312,1888,-6,61,-5
12745,72,304,1936,-5,62,-8
12750,80,272,1888,-6,60,-6
12755,80,304,1912,-4,59,-8
12760,64,288,1896,-4,59,-6
12765,96,272,1904,-4,60,-9
12770,96,280,1912,-3,59,-8
12775,96,288,1912,-6,60,-10
12780,80,280,1888,-7,62,-8
12785,64,296,1896,-8,63,-11
12790,88,280,1912,-9,63,-9
12795,72,312,1912,-10,65,-11
12800,64,304,1888,-11,66,-10
12805,80,304,1888,-11,66,-12
12810,72,304,1920,-13,65,-7
12815,104,296,1896,-14,66,-10
12820,80,328,1912,-14,66,-8
12825,72,288,1888,-16,68,-9
12830,96,320,1896,-15,67,-8
12835,80,296,1904,-15,67,-10
12840,88,312,1904,-14,67,-7
12845,80,312,1888,-13,67,-8
12850,72,296,1896,-11,65,-5
12855,88,304,1896,-9,64,-7
12860,96,304,1904,-8,62,-4
12865,88,304,1896,-7,60,-6
12870,56,328,1872,-7,60,-3
12875,72,312,1872,-7,59,-5
12880,80,304,1912,-6,58,-2
12885,88,304,1920,-5,55,-5
12890,56,320,1912,-4,55,-3
12895,72,304,1912,-6,53,-3
12900,88,312,1888,-6,53,-3
12905,104,296,1896,-8,54,-2
12910,56,320,1896,-9,53,-1
12915,96,296,1912,-9,53,0
12920,80,312,1920,-9,53,2
12925,64,296,1896,-10,53,-1
12930,80,312,1896,-12,52,2
12935,80,296,1912,-13,53,-2
12940,72,312,1880,-14,54,-1
12945,88,296,1920,-14,54,-1
12950,72,288,1872,-14,55,0
12955,88,288,1904,-14,58,-2
12960,80,288,1904,-14,59,1
12965,72,304,1896,-12,58,-1
12970,96,288,1896,-13,60,1
12975,96,296,1912,-15,62,0
12980,72,296,1888,-14,61,1
12985,88,304,1888,-14,63,1
12990,104,304,1896,-14,61,1
12995,64,280,1896,-14,62,0
13000,64,296,1888,-13,62,2
13005,88,288,1912,-12,61,3
13010,88,288,1896,-13,60,2
13015,80,296,1936,-13,59,2
13020,104,312,1864,-13,59,2
13025,80,304,1904,-12,59,1
13030,96,304,1872,-11,58,4
13035,88,280,1888,-12,56,2
13040,72,328,1920,-12,56,1
13045,80,304,1888,-10,56,2
13050,72,296,1904,-10,56,1
13055,88,320,1936,-10,55,2
13060,96,304,1864,-11,55,1
13065,96,312,1920,-12,54,1
13070,80,304,1928,-12,54,0
13075,64,288,1896,-11,55,0
13080,72,312,1904,-11,56,-2
13085,64,312,1904,-12,56,-1
13090,88,288,1888,-12,56,-2
13095,64,296,1896,-14,55,-1
13100,72,304,1904,-15,56,-2
13105,72,280,1896,-15,56,0
13110,88,272,1904,-17,57,-1
13115,96,296,1920,-17,58,-1
13120,72,296,1872,-16,60,-1
13125,96,288,1904,-16,60,-2
13130,96,312,1880,-15,60,-3
13135,104,280,1880,-16,59,-2
13140,88,312,1888,-15,58,-3
13145,80,304,1912,-13,58,-2
13150,80,312,1920,-13,57,-3
13155,96,288,1888,-12,58,-1
13160,80,312,1904,-11,57,-3
13165,96,288,1888,-10,59,-1
13170,80,304,1880,-11,60,-1
13175,88,280,1928,-11,59,1
13180,80,312,1912,-9,61,-1
13185,104,288,1888,-10,62,1
13190,64,304,1888,-9,61,-1
13195,64,336,1880,-11,60,2
13200,72,288,1856,-12,58,0
13205,80,288,1912,-13,55,1
13210,80,320,1912,-14,54,-1
13215,64,320,1912,-16,53,-1
13220,96,288,1920,-16,51,-3
13225,56,320,1904,-18,51,-1
13230,88,312,1912,-16,52,-4
13235,64,320,1912,-15,52,-1
13240,88,304,1888,-14,53,-4
13245,88,296,1880,-13,55,-2
13250,88,296,1920,-11,57,-4
13255,96,304,1904,-10,59,0
13260,96,296,1904,-8,61,-3
13265,80,312,1912,-8,61,-1
13270,80,304,1904,-6,62,-5
13275,72,312,1912,-10,63,-5
13280,80,296,1944,-13,63,-6
13285,72,304,1896,-15,63,-6
13290,80,296,1928,-16,66,-8
13295,96,288,1936,-17,69,-6
13300,64,296,1944,-16,75,-8
13305,80,280,1904,-14,78,-5
13310,80,296,1912,-14,84,-7
13315,72,320,1912,-13,87,-4
13320,80,296,1880,-14,87,-6
13325,80,304,1896,-12,85,-4
13330,88,304,1888,-11,83,-7
13335,64,312,1880,-10,79,-4
13340,64,272,1904,-9,76,-7
13345,96,280,1904,-6,73,-5
13350,64,296,1888,-5,68,-6
13355,96,296,1888,-2,64,-3
13360,88,312,1896,-4,61,-5
13365,64,336,1880,-2,60,-2
13370,96,328,1896,-2,56,-3
13375,64,304,1904,-1,56,-2
13380,96,312,1904,-1,53,-3
13385,64,312,1904,1,52,0
13390,80,312,1896,1,53,-3
13395,104,312,1904,2,51,-1
13400,96,336,1904,3,53,-3
13405,96,312,1904,4,53,-1
13410,88,320,1912,3,53,-3
13415,88,328,1920,2,54,-2
13420,80,296,1920,4,56,-4
13425,88,296,1904,4,57,-2
13430,104,304,1896,2,58,-4
13435,80,280,1904,3,59,-4
13440,80,288,1912,3,57,-5
13445,56,312,1888,3,58,-3
13450,80,312,1920,1,58,-3
13455,80,304,1880,2,57,-3
13460,64,320,1912,1,57,-4
13465,80,312,1904,1,57,-2
13470,80,296,1888,-1,55,-4
13475,80,320,1912,-1,55,-2
13480,72,304,1904,1,55,-3
13485,80,336,1896,-1,54,-1
13490,104,328,1888,-1,53,-2
13495,80,296,1864,0,54,-1
13500,64,312,1896,-2,52,-4
13505,64,320,1888,-3,52,-1
13510,96,280,1904,-5,52,-2
13515,88,280,1896,-5,50,-1
13520,72,312,1920,-6,50,0
13525,80,288,1888,-6,50,0
13530,80,288,1880,-7,51,0
13535,80,328,1904,-7,51,3
13540,88,304,1888,-10,52,0
13545,88,304,1896,-11,52,2
13550,104,304,1920,-13,51,-1
13555,112,288,1872,-11,53,-1
13560,96,304,1880,-10,54,-3
13565,80,272,1912,-10,54,-4
13570,88,320,1896,-8,54,-6
13575,88,304,1904,-8,56,-5
13580,80,320,1912,-7,57,-7
13585,88,304,1912,-6,58,-5
13590,72,328,1920,-6,57,-7
13595,72,312,1912,-6,58,-4
13600,88,320,1896,-4,59,-6
13605,72,320,1912,-5,59,-7
13610,96,304,1880,-4,59,-6
13615,72,320,1928,-5,60,-6
13620,72,328,1896,-4,62,-7
13625,72,312,1904,-5,62,-8
13630,88,312,1912,-5,64,-7
13635,80,320,1880,-7,65,-7
13640,96,304,1888,-7,64,-8
13645,88,328,1896,-7,66,-3
13650,72,328,1888,-6,67,-5
13655,96,320,1912,-10,66,-6
13660,80,336,1896,-12,66,-6
13665,72,312,1896,-10,66,-6
13670,96,328,1888,-8,64,-6
13675,96,320,1904,-7,63,-6
13680,88,304,1888,-6,64,-4
13685,96,328,1904,-7,62,-5
13690,88,320,1896,-4,59,-4
13695,104,288,1904,-2,60,-4
13700,96,328,1888,-1,57,-2
13705,112,296,1872,0,57,-3
13710,88,320,1896,0,54,-4
13715,88,312,1912,1,53,-5
13720,96,312,1880,2,52,-3
13725,80,304,1896,0,49,-4
13730,72,328,1872,1,49,-2
13735,72,304,1896,1,50,-3
13740,112,328,1928,0,49,-2
13745,88,304,1896,0,49,-2
13750,64,288,1896,-1,50,-1
13755,72,312,1912,0,50,-3
13760,80,344,1888,-1,50,1
13765,96,320,1896,-1,51,0
13770,64,328,1920,-2,51,-1
13775,72,320,1888,-1,51,-2
13780,80,312,1912,-1,52,0
13785,88,328,1936,-1,53,-2
13790,88,312,1912,0,54,-1
13795,96,304,1904,0,55,0
13800,112,304,1896,1,56,0
13805,96,312,1888,2,57,-1
13810,96,328,1880,2,56,1
13815,72,320,1928,2,58,-1
13820,96,312,1888,3,58,1
13825,88,320,1872,6,58,1
13830,88,312,1888,4,57,2
13835,96,288,1896,3,58,2
13840,80,320,1904,2,55,4
13845,72,320,1912,2,56,1
13850,96,320,1880,-1,54,2
13855,88,304,1928,-3,54,0
13860,96,288,1888,-5,52,1
13865,96,328,1904,-6,52,0
13870,88,296,1912,-7,53,2
13875,96,312,1920,-6,53,1
13880,104,328,1864,-5,55,2
13885,88,328,1896,-5,54,2
13890,88,336,1872,-6,55,3
13895,96,312,1896,-6,55,0
13900,88,320,1904,-6,56,0
13905,80,312,1920,-5,57,-2
13910,104,304,1904,-4,58,0
13915,80,304,1904,-5,58,-1
13920,112,320,1904,-5,58,0
13925,96,320,1880,-4,56,-3
13930,48,336,1928,-3,56,0
13935,104,328,1912,5,46,-2
13940,88,328,1880,-3,54,-2
13945,72,336,1920,-1,56,-4
13950,96,312,1896,0,57,-1
13955,72,304,1912,0,56,-4
13960,80,344,1872,-1,57,-2
13965,80,312,1888,-1,55,-4
13970,112,304,1896,-1,56,-2
13975,88,344,1896,-2,55,-4
13980,88,304,1896,-2,56,-2
13985,96,320,1896,-3,58,-4
13990,88,320,1904,-3,57,-2
13995,96,344,1904,-2,61,-2
14000,96,312,1912,-2,65,3
14005,88,304,1896,-3,66,2
14010,80,352,1920,-3,66,2
14015,96,320,1920,-3,66,0
14020,88,328,1896,-5,66,2
14025,96,312,1936,-2,63,0
14030,104,304,1920,-2,63,2
14035,88,320,1904,-4,61,0
14040,80,328,1896,-7,61,2
14045,88,336,1904,-10,58,-1
14050,96,312,1912,-13,57,2
14055,104,312,1880,-17,57,-1
14060,88,320,1888,-18,57,1
14065,96,312,1904,-20,57,0
14070,96,296,1904,-22,55,2
14075,72,312,1880,-24,56,0
14080,112,320,1920,-24,55,2
14085,104,312,1904,-25,55,0
14090,88,312,1920,-24,56,0
14095,80,320,1880,-24,57,-1
14100,96,320,1952,-21,58,0
14105,96,304,1880,-20,58,-3
14110,96,328,1896,-19,60,-1
14115,112,336,1912,-17,61,-4
14120,112,312,1880,-16,62,-2
14125,96,296,1904,-14,62,-4
14130,88,328,1888,-11,61,-3
14135,88,336,1904,-10,62,-4
14140,80,320,1904,-6,64,-2
14145,104,304,1888,-6,64,-3
14150,88,304,1912,-5,64,-2
14155,88,312,1896,-4,65,-3
14160,88,336,1920,-2,64,-1
14165,96,320,1896,-2,63,-2
14170,104,312,1888,-5,62,0
14175,88,312,1880,-5,60,-1
14180,80,336,1888,-9,58,-1
14185,96,312,1888,-12,57,-1
14190,96,336,1880,-13,55,-2
14195,72,296,1888,-16,53,-4
14200,88,320,1896,-16,50,-2
14205,56,336,1920,-17,49,-3
14210,104,312,1888,-17,50,-2
14215,120,336,1896,-16,51,-3
14220,88,328,1912,-14,54,-2
14225,88,312,1928,-13,58,-3
14230,96,336,1904,-12,60,-3
14235,96,328,1896,-11,61,-6
14240,88,328,1944,-13,63,-6
14245,112,296,1912,-15,65,-8
14250,88,288,1904,-15,67,-8
14255,80,320,1912,-17,71,-9
14260,88,320,1928,-19,77,-5
14265,104,296,1920,-18,83,-6
14270,104,296,1944,-14,90,-5
14275,88,304,1888,-13,95,-3
14280,120,336,1984,-10,98,-3
14285,96,304,1840,-12,101,-3
14290,120,352,1896,-13,97,-3
14295,72,344,1712,-13,96,-4
14300,80,264,1840,-12,90,-4
14305,120,344,1784,-9,85,-4
14310,16,312,1888,-7,78,-5
14315,40,296,1792,-5,71,-5
14320,80,328,1880,-3,66,-4
14325,88,328,1880,-3,65,-3
14330,120,312,1880,-1,61,-3
14335,72,320,1888,-2,57,-1
14340,104,304,1928,-3,56,-1
14345,96,344,1912,-2,55,0
14350,88,352,1888,-2,54,-1
14355,88,344,1896,-3,53,-1
14360,96,336,1888,-2,51,-2
14365,96,344,1912,-1,51,-2
14370,104,344,1888,-1,53,-4
14375,88,320,1888,-2,53,-3
14380,96,312,1920,-1,55,-3
14385,96,336,1928,0,55,-2
14390,88,320,1888,1,55,-2
14395,88,336,1888,2,57,-2
14400,88,328,1904,2,55,-4
14405,80,344,1888,0,56,-2
14410,104,336,1904,-2,57,-4
14415,72,304,1904,-2,58,-1
14420,88,336,1880,-3,58,-3
14425,88,320,1896,-5,57,-1
14430,72,328,1920,-8,57,-4
14435,80,328,1904,-10,57,-4
14440,72,328,1888,-10,55,-5
14445,72,312,1912,-10,56,-3
14450,88,336,1880,-11,57,-5
14455,96,304,1904,-13,57,-2
14460,112,312,1912,-14,58,-3
14465,88,328,1896,-16,57,-1
14470,80,320,1912,-17,57,-3
14475,72,320,1888,-18,57,-1
14480,72,320,1872,-19,59,-3
14485,96,296,1920,-19,59,-2
14490,104,328,1912,-18,58,-2
14495,72,320,1896,-19,58,2
14500,104,328,1896,-20,59,1
14505,88,320,1904,-19,59,3
14510,96,328,1888,-19,60,1
14515,96,344,1920,-17,61,2
14520,88,336,1880,-18,61,-1
14525,64,336,1880,-17,59,1
14530,80,320,1896,-17,60,-3
14535,72,336,1888,-17,62,-1
14540,88,336,1936,-16,62,-6
14545,104,344,1912,-15,63,-4
14550,80,312,1928,-13,63,-6
14555,72,328,1896,-13,62,-4
14560,80,320,1904,-14,61,-6
14565,96,336,1880,-16,62,-4
14570,72,320,1928,-17,61,-7
14575,96,304,1912,-19,63,-3
14580,72,344,1912,-19,63,-4
14585,96,320,1904,-21,64,-4
14590,104,344,1920,-21,67,-6
14595,80,344,1912,-23,68,-4
14600,80,320,1896,-24,69,-7
14605,72,328,1888,-27,70,-6
14610,80,328,1912,-27,71,-6
14615,88,328,1880,-31,73,-4
14620,104,320,1904,-31,75,-6
14625,96,320,1904,-34,75,-4
14630,80,328,1920,-35,74,-8
14635,88,344,1880,-34,74,-5
14640,80,336,1896,-31,74,-7
14645,80,320,1920,-32,72,-5
14650,80,352,1888,-31,73,-7
14655,88,312,1880,-31,71,-4
14660,80,336,1904,-30,69,-5
14665,96,312,1912,-28,68,-3
14670,88,312,1912,-28,66,-4
14675,104,288,1912,-27,64,-3
14680,80,320,1920,-27,64,-5
14685,72,320,1888,-27,64,-2
14690,104,344,1912,-28,63,-4
14695,88,320,1904,-27,63,-2
14700,64,344,1912,-27,63,-4
14705,72,312,1888,-29,61,-1
14710,96,312,1936,-30,59,-4
14715,56,312,1888,-31,62,-1
14720,80,312,1872,-29,61,-4
14725,80,312,1912,-31,62,-3
14730,72,328,1912,-33,62,-4
14735,96,320,1904,-32,61,-1
14740,104,288,1920,-32,64,-3
14745,104,312,1888,-33,65,-1
14750,88,328,1904,-33,66,-3
14755,72,312,1912,-32,69,-1
14760,80,312,1912,-31,67,-1
14765,80,320,1920,-31,68,0
14770,96,304,1896,-30,68,-3
14775,88,304,1896,-31,68,-1
14780,64,312,1912,-31,68,0
14785,88,312,1904,-30,67,1
14790,88,320,1920,-30,68,-1
14795,96,320,1912,-29,69,2
14800,104,336,1888,-30,68,1
14805,104,312,1904,-30,67,2
14810,88,312,1896,-29,67,2
14815,88,320,1888,-30,66,4
14820,96,312,1896,-31,65,2
14825,104,328,1904,-32,63,3
14830,72,320,1880,-33,64,1
14835,80,328,1888,-34,65,3
14840,96,312,1896,-36,64,1
14845,88,320,1920,-36,66,2
14850,88,312,1920,-37,65,2
14855,96,312,1872,-36,65,2
14860,88,304,1912,-38,66,2
14865,112,288,1896,-38,65,1
14870,112,304,1896,-39,66,0
14875,88,328,1880,-39,64,1
14880,80,312,1912,-38,63,-1
14885,64,312,1912,-40,62,1
14890,80,328,1896,-39,63,-1
14895,88,328,1904,-39,66,0
14900,112,312,1920,-38,65,-1
14905,88,312,1904,-38,66,-2
14910,80,312,1896,-38,65,-2
14915,48,312,1920,-38,65,-1
14920,104,312,1888,-37,67,-2
14925,80,296,1912,-35,66,-2
14930,104,312,1920,-36,68,-2
14935,104,304,1904,-36,68,-2
14940,96,312,1904,-35,68,-1
14945,72,288,1912,-34,69,-2
14950,112,320,1880,-34,69,-1
14955,88,296,1912,-33,67,-3
14960,88,296,1920,-34,67,-2
14965,72,320,1920,-32,68,-4
14970,88,304,1888,-33,68,-3
14975,64,312,1896,-33,67,-3
14980,88,288,1904,-34,66,-3
14985,72,312,1904,-33,67,-2
14990,64,320,1904,-31,65,0
