timestamp,accel_x,accel_y,accel_z,gyro_x,gyro_y,gyro_z
0,56,-1928,-520,56,10,-13
5,80,-1944,-488,56,11,-11
10,72,-1936,-520,55,12,-13
15,72,-1912,-528,53,13,-13
20,88,-1944,-480,51,12,-13
25,80,-1904,-496,47,13,-12
30,72,-1936,-496,44,13,-14
35,48,-1920,-520,43,13,-13
40,64,-1912,-480,42,11,-13
45,48,-1928,-504,43,11,-15
50,48,-1920,-472,45,9,-16
55,72,-1920,-512,50,8,-14
60,32,-1920,-504,56,8,-13
65,80,-1944,-544,59,5,-13
70,56,-1896,-520,62,4,-14
75,88,-1920,-504,61,4,-13
80,48,-1912,-512,59,4,-12
85,80,-1912,-520,57,5,-13
90,64,-1912,-480,54,5,-13
95,88,-1912,-496,52,7,-12
100,88,-1912,-496,49,7,-11
105,88,-1920,-488,49,7,-12
110,96,-1952,-512,49,8,-11
115,56,-1928,-504,51,10,-10
120,96,-1920,-504,53,10,-10
125,88,-1928,-512,57,12,-10
130,72,-1936,-560,61,13,-12
135,80,-1936,-512,64,15,-11
140,56,-1928,-496,65,15,-11
145,64,-1928,-488,66,15,-12
150,72,-1936,-488,67,16,-11
155,56,-1936,-512,66,17,-11
160,56,-1912,-512,65,17,-10
165,64,-1936,-504,64,19,-11
170,96,-1928,-496,60,19,-11
175,80,-1928,-496,58,18,-12
180,64,-1912,-496,55,18,-10
185,72,-1944,-488,55,18,-10
190,64,-1960,-504,52,17,-10
195,56,-1928,-504,50,17,-10
200,72,-1928,-512,51,16,-10
205,72,-1952,-504,51,14,-10
210,72,-1920,-496,51,14,-10
215,64,-1928,-512,53,13,-10
220,80,-1936,-504,55,13,-8
225,80,-1936,-512,55,15,-9
230,72,-1912,-512,58,13,-10
235,64,-1936,-496,59,13,-10
240,48,-1920,-512,59,14,-10
245,72,-1944,-520,61,14,-10
250,56,-1912,-496,63,16,-8
255,56,-1920,-488,62,17,-9
260,64,-1888,-504,61,17,-10
265,56,-1888,-512,61,16,-9
270,80,-1912,-504,61,17,-12
275,80,-1920,-512,60,16,-12
280,64,-1928,-512,60,14,-14
285,56,-1936,-488,59,12,-12
290,56,-1912,-504,59,11,-12
295,72,-1952,-488,58,10,-13
300,72,-1928,-512,57,10,-12
305,32,-1904,-528,59,9,-13
310,56,-1920,-464,58,10,-11
315,88,-1936,-488,56,10,-12
320,56,-1904,-520,55,8,-10
325,72,-1904,-496,53,8,-12
330,64,-1936,-512,51,8,-10
335,56,-1920,-528,49,6,-12
340,72,-1920,-464,49,6,-11
345,112,-1960,-512,48,6,-10
350,40,-1968,-536,50,6,-12
355,80,-1944,-504,53,6,-12
360,48,-1928,-504,55,8,-11
365,64,-1936,-512,57,8,-11
370,80,-1920,-496,58,9,-10
375,64,-1920,-504,60,9,-11
380,72,-1920,-496,61,9,-10
385,56,-1904,-488,63,10,-10
390,72,-1904,-504,65,10,-11
395,64,-1920,-504,64,10,-11
400,56,-1904,-496,64,11,-11
405,96,-1888,-520,62,11,-12
410,64,-1912,-512,62,12,-11
415,80,-1920,-520,61,12,-12
420,72,-1928,-504,60,11,-11
425,56,-1912,-480,60,11,-11
430,88,-1928,-496,58,12,-11
435,72,-1912,-512,57,11,-12
440,64,-1944,-480,57,10,-11
445,80,-1920,-512,54,10,-10
450,72,-1904,-488,54,11,-10
455,80,-1936,-448,53,10,-10
460,136,-1936,-496,55,11,-10
465,72,-1912,-496,56,11,-10
470,72,-1920,-504,58,11,-10
475,72,-1928,-496,61,12,-9
480,48,-1912,-528,62,14,-10
485,96,-1920,-504,64,13,-12
490,72,-1920,-488,64,12,-12
495,64,-1920,-496,64,11,-11
500,48,-1904,-496,62,10,-12
505,56,-1920,-496,62,9,-11
510,72,-1944,-496,61,9,-10
515,88,-1944,-504,61,10,-11
520,32,-1920,-528,60,10,-13
525,88,-1936,-496,60,11,-14
530,56,-1904,-496,60,10,-13
535,48,-1904,-480,60,10,-12
540,48,-1936,-504,60,11,-11
545,56,-1936,-488,58,10,-12
550,80,-1920,-504,60,10,-13
555,40,-1904,-496,61,8,-12
560,48,-1920,-520,61,7,-13
565,32,-1968,-480,61,7,-12
570,72,-1952,-480,63,8,-12
575,48,-1920,-472,63,7,-12
580,48,-1928,-512,65,6,-12
585,64,-1936,-488,67,5,-12
590,80,-1936,-504,69,6,-12
595,64,-1912,-496,71,6,-11
600,88,-1928,-512,72,5,-12
605,64,-1912,-496,73,3,-12
610,64,-1904,-488,74,5,-10
615,80,-1904,-520,73,5,-12
620,64,-1888,-480,73,6,-11
625,80,-1920,-488,73,5,-11
630,64,-1896,-480,73,6,-11
635,64,-1904,-496,71,7,-13
640,40,-1912,-512,68,8,-12
645,88,-1912,-504,64,8,-14
650,80,-1912,-520,61,9,-15
655,64,-1928,-480,59,8,-15
660,56,-1912,-488,56,8,-15
665,88,-1920,-496,54,7,-16
670,80,-1960,-480,55,7,-15
675,48,-1944,-456,56,8,-14
680,56,-1944,-488,59,8,-14
685,56,-1968,-464,61,8,-15
690,56,-1944,-464,62,7,-14
695,72,-1960,-480,63,9,-14
700,72,-1968,-496,63,9,-14
705,56,-1944,-488,64,8,-15
710,88,-1928,-472,65,7,-14
715,80,-1960,-488,66,4,-14
720,48,-1928,-488,70,2,-13
725,80,-1928,-520,73,1,-13
730,56,-1960,-504,79,-1,-12
735,64,-1944,-496,82,-2,-12
740,40,-1928,-520,84,-2,-11
745,72,-1896,-496,84,-2,-12
750,56,-1904,-496,82,-3,-12
755,56,-1896,-504,77,-2,-13
760,80,-1896,-488,74,-2,-15
765,48,-1920,-480,67,-2,-15
770,72,-1904,-528,64,0,-14
775,72,-1912,-496,61,0,-13
780,80,-1920,-456,60,0,-14
785,56,-1968,-480,59,2,-13
790,56,-1928,-496,60,3,-12
795,72,-1920,-520,63,5,-13
800,80,-1944,-488,63,6,-12
805,64,-1936,-488,64,8,-11
810,56,-1920,-480,64,8,-11
815,80,-1944,-480,65,10,-11
820,40,-1920,-496,64,11,-10
825,64,-1928,-504,64,10,-12
830,88,-1936,-536,62,10,-12
835,72,-1904,-480,60,10,-12
840,56,-1912,-464,58,10,-13
845,48,-1912,-480,57,9,-14
850,64,-1912,-520,55,9,-15
855,56,-1936,-480,54,9,-15
860,80,-1928,-472,53,9,-15
865,80,-1944,-496,53,9,-13
870,80,-1920,-464,54,9,-14
875,64,-1920,-488,55,10,-14
880,64,-1928,-496,56,9,-12
885,48,-1928,-488,57,10,-12
890,40,-1936,-472,58,9,-12
895,48,-1912,-472,60,10,-12
900,64,-1928,-488,61,8,-13
905,72,-1928,-448,60,10,-11
910,64,-1936,-472,59,10,-13
915,72,-1920,-496,60,10,-12
920,56,-1960,-496,60,10,-11
925,56,-1920,-480,62,10,-12
930,64,-1944,-488,62,11,-12
935,48,-1928,-464,65,11,-11
940,48,-1944,-488,68,11,-12
945,72,-1952,-488,71,11,-13
950,88,-1928,-464,73,10,-13
955,64,-1904,-472,75,10,-15
960,72,-1912,-496,73,10,-13
965,48,-1888,-472,74,10,-12
970,64,-1904,-472,71,9,-12
975,56,-1904,-472,68,8,-13
980,64,-1928,-488,64,6,-13
985,64,-1896,-480,62,4,-13
990,64,-1912,-504,57,3,-13
995,80,-1928,-480,52,3,-12
1000,72,-1936,-496,49,3,-11
1005,48,-1952,-512,46,3,-12
1010,48,-1904,-504,42,2,-13
1015,72,-1944,-488,41,1,-13
1020,56,-1928,-480,39,2,-12
1025,80,-1936,-504,39,2,-12
1030,88,-1936,-488,41,2,-12
1035,64,-1920,-480,40,2,-11
1040,64,-1952,-488,43,4,-12
1045,72,-1936,-504,47,4,-12
1050,64,-1944,-480,50,4,-12
1055,64,-1944,-512,53,4,-12
1060,56,-1928,-504,56,6,-12
1065,72,-1952,-488,59,7,-12
1070,80,-1944,-504,62,7,-13
1075,64,-1944,-512,62,9,-13
1080,80,-1952,-488,64,9,-11
1085,56,-1936,-488,63,10,-12
1090,96,-1912,-456,61,8,-13
1095,88,-1904,-472,60,9,-13
1100,80,-1920,-488,60,10,-11
1105,72,-1904,-440,58,12,-11
1110,40,-1880,-480,59,12,-11
1115,72,-1920,-496,57,11,-11
1120,96,-1912,-488,57,9,-11
1125,88,-1936,-480,56,10,-11
1130,72,-1936,-488,56,10,-11
1135,72,-1928,-480,56,9,-11
1140,64,-1928,-488,57,10,-11
1145,80,-1912,-488,58,9,-12
1150,48,-1920,-440,59,9,-14
1155,72,-1928,-488,58,11,-12
1160,48,-1912,-472,57,8,-12
1165,88,-1952,-520,57,9,-13
1170,56,-1928,-464,56,8,-13
1175,64,-1928,-488,57,9,-11
1180,80,-1912,-472,56,8,-11
1185,72,-1920,-472,55,11,-12
1190,64,-1928,-488,55,10,-13
1195,88,-1936,-504,55,11,-12
1200,64,-1920,-456,55,12,-12
1205,88,-1944,-480,55,12,-13
1210,56,-1920,-472,55,13,-13
1215,56,-1936,-480,55,13,-12
1220,40,-1912,-512,53,13,-12
1225,56,-1928,-496,51,14,-12
1230,80,-1920,-480,49,14,-12
1235,64,-1936,-496,48,14,-12
1240,72,-1928,-480,45,13,-11
1245,80,-1944,-512,46,14,-12
1250,72,-1936,-496,44,15,-11
1255,80,-1920,-496,43,15,-12
1260,80,-1920,-480,43,14,-10
1265,80,-1928,-504,44,17,-9
1270,56,-1904,-504,45,16,-9
1275,64,-1936,-480,45,16,-8
1280,72,-1912,-488,44,16,-10
1285,64,-1928,-472,45,16,-12
1290,64,-1928,-480,45,16,-10
1295,72,-1920,-504,44,16,-10
1300,88,-1952,-472,45,16,-10
1305,64,-1936,-480,46,15,-10
1310,48,-1952,-440,47,17,-12
1315,88,-1936,-504,48,16,-10
1320,88,-1968,-488,49,15,-10
1325,64,-1896,-488,49,15,-11
1330,56,-1936,-464,47,14,-12
1335,80,-1928,-504,47,14,-12
1340,64,-1936,-480,44,16,-11
1345,64,-1936,-504,43,15,-12
1350,48,-1920,-488,42,14,-10
1355,80,-1920,-512,42,12,-12
1360,56,-1944,-496,41,12,-13
1365,56,-1912,-488,42,10,-13
1370,72,-1920,-504,40,11,-12
1375,72,-1928,-480,41,12,-12
1380,48,-1928,-472,39,12,-12
1385,88,-1904,-472,37,10,-13
1390,48,-1912,-480,36,9,-14
1395,64,-1952,-472,33,8,-13
1400,64,-1936,-472,35,6,-13
1405,48,-1912,-496,38,4,-13
1410,48,-1912,-488,43,3,-12
1415,72,-1920,-528,49,3,-13
1420,64,-1912,-520,51,3,-14
1425,72,-1904,-480,52,3,-14
1430,72,-1896,-520,50,1,-15
1435,80,-1904,-496,46,2,-13
1440,96,-1936,-504,41,4,-13
1445,64,-1904,-488,38,4,-13
1450,88,-1904,-496,32,4,-12
1455,88,-1928,-472,29,3,-11
1460,56,-1936,-512,26,4,-12
1465,88,-1944,-456,28,5,-11
1470,56,-1944,-488,30,7,-11
1475,48,-1920,-520,32,6,-11
1480,72,-1944,-512,33,6,-10
1485,80,-1960,-464,37,8,-10
1490,32,-1936,-520,42,7,-10
1495,24,-1936,-472,45,10,-11
1500,56,-1944,-488,48,9,-12
1505,56,-1936,-488,52,8,-12
1510,64,-1912,-504,54,8,-14
1515,56,-1912,-464,56,9,-15
1520,56,-1912,-480,57,8,-14
1525,64,-1920,-488,58,7,-15
1530,72,-1936,-488,56,7,-14
1535,64,-1912,-496,53,6,-12
1540,64,-1920,-488,49,8,-10
1545,80,-1928,-504,45,5,-10
1550,88,-1888,-480,40,6,-12
1555,80,-1912,-496,38,7,-11
1560,88,-1912,-496,36,8,-10
1565,72,-1912,-480,34,9,-9
1570,72,-1896,-504,33,9,-8
1575,64,-1936,-488,33,9,-6
1580,96,-1912,-464,34,9,-5
1585,80,-1920,-496,34,8,-6
1590,64,-1920,-456,33,9,-6
1595,72,-1920,-504,33,11,-5
1600,96,-1936,-488,35,11,-5
1605,64,-1944,-472,35,12,-4
1610,64,-1920,-464,34,13,-7
1615,88,-1928,-496,36,13,-9
1620,88,-1928,-488,37,13,-10
1625,56,-1936,-496,39,13,-10
1630,80,-1928,-496,41,13,-9
1635,48,-1936,-472,43,11,-11
1640,72,-1960,-512,45,8,-11
1645,56,-1952,-496,45,8,-10
1650,32,-1912,-512,45,8,-10
1655,16,-1944,-488,44,4,-10
1660,48,-1912,-480,44,2,-9
1665,48,-1920,-480,44,1,-10
1670,72,-1952,-464,43,-1,-10
1675,64,-1920,-480,44,-1,-11
1680,48,-1920,-456,44,-2,-9
1685,80,-1944,-488,43,-2,-8
1690,72,-1928,-488,42,-2,-9
1695,72,-1928,-496,42,-3,-10
1700,64,-1928,-488,42,-4,-9
1705,96,-1936,-496,42,-3,-9
1710,48,-1936,-472,42,-3,-11
1715,56,-1944,-472,42,-3,-11
1720,72,-1936,-464,44,-2,-11
1725,56,-1936,-504,46,-2,-11
1730,72,-1944,-496,49,0,-12
1735,56,-1928,-496,51,2,-13
1740,96,-1928,-504,53,1,-11
1745,64,-1944,-504,54,2,-12
1750,40,-1920,-496,53,1,-11
1755,56,-1912,-496,54,0,-13
1760,80,-1944,-488,53,-1,-12
1765,48,-1904,-504,52,-2,-11
1770,56,-1920,-504,52,-2,-13
1775,56,-1944,-488,53,-3,-12
1780,72,-1920,-480,53,-2,-11
1785,64,-1920,-496,52,-2,-14
1790,88,-1944,-488,52,-2,-15
1795,48,-1912,-496,51,1,-14
1800,64,-1920,-536,51,0,-15
1805,48,-1912,-464,50,1,-14
1810,72,-1928,-520,52,2,-13
1815,80,-1920,-536,53,2,-14
1820,72,-1928,-520,55,2,-14
1825,48,-1936,-512,56,5,-15
1830,88,-1936,-496,56,6,-15
1835,88,-1912,-472,55,6,-14
1840,72,-1912,-496,55,6,-13
1845,88,-1904,-480,52,7,-15
1850,72,-1896,-496,51,7,-15
1855,72,-1928,-496,48,8,-15
1860,48,-1904,-504,47,9,-14
1865,64,-1936,-456,46,9,-14
1870,88,-1936,-488,45,12,-14
1875,24,-1896,-536,46,13,-13
1880,80,-1936,-496,45,12,-14
1885,64,-1912,-520,44,14,-12
1890,80,-1928,-496,43,15,-12
1895,72,-1904,-480,44,14,-12
1900,80,-1928,-480,44,14,-12
1905,104,-1936,-504,44,14,-11
1910,88,-1936,-512,43,14,-11
1915,80,-1936,-504,43,14,-10
1920,72,-1920,-480,45,15,-11
1925,88,-1928,-544,46,15,-12
1930,136,-1952,-400,46,16,-9
1935,72,-1928,-496,48,17,-10
1940,56,-1904,-528,51,18,-9
1945,72,-1928,-496,52,18,-9
1950,48,-1904,-496,53,16,-8
1955,96,-1920,-488,53,15,-8
1960,64,-1928,-472,52,15,-8
1965,48,-1944,-488,52,15,-8
1970,96,-1936,-504,52,16,-7
1975,64,-1936,-472,52,17,-7
1980,64,-1920,-504,49,17,-8
1985,72,-1896,-528,49,20,-8
1990,64,-1936,-488,49,21,-6
1995,64,-1920,-512,49,23,-7
2000,56,-1936,-512,48,24,-9
2005,72,-1888,-504,47,25,-8
2010,64,-1904,-496,48,25,-9
2015,72,-1920,-512,49,26,-8
2020,88,-1928,-504,49,26,-7
2025,88,-1936,-480,49,25,-8
2030,80,-1920,-464,48,25,-8
2035,104,-1928,-448,49,25,-8
2040,56,-1912,-496,49,26,-9
2045,80,-1904,-512,51,25,-9
2050,64,-1904,-512,51,25,-9
2055,56,-1920,-520,49,25,-11
2060,80,-1928,-504,46,24,-10
2065,72,-1912,-512,43,21,-12
2070,40,-1928,-512,41,20,-10
2075,48,-1920,-512,40,20,-10
2080,72,-1920,-480,41,19,-10
2085,48,-1912,-520,42,19,-10
2090,40,-1944,-504,45,20,-10
2095,64,-1920,-520,45,20,-9
2100,64,-1928,-504,46,19,-9
2105,56,-1928,-512,45,18,-10
2110,72,-1944,-512,45,18,-9
2115,64,-1920,-472,43,18,-9
2120,56,-1936,-488,41,19,-10
2125,56,-1920,-456,41,18,-9
2130,48,-1920,-472,43,20,-9
2135,64,-1952,-496,47,19,-8
2140,48,-1944,-512,51,19,-7
2145,40,-1864,-512,56,20,-8
2150,64,-1912,-512,60,21,-10
2155,40,-1920,-512,64,20,-11
2160,56,-1928,-488,66,19,-11
2165,48,-1888,-504,66,20,-12
2170,56,-1912,-520,66,19,-14
2175,56,-1928,-512,63,18,-13
2180,56,-1896,-496,61,17,-14
2185,40,-1904,-496,56,15,-14
2190,56,-1912,-520,51,15,-13
2195,40,-1920,-512,45,14,-14
2200,56,-1944,-464,41,12,-13
2205,56,-1896,-488,39,11,-14
2210,64,-1904,-544,34,8,-10
2215,56,-1912,-528,31,6,-12
2220,24,-1888,-504,32,5,-12
2225,64,-1912,-488,30,3,-13
2230,40,-1920,-496,29,0,-12
2235,48,-1904,-504,30,0,-13
2240,56,-1912,-520,33,0,-12
2245,72,-1928,-528,35,-2,-13
2250,64,-1912,-504,38,-1,-14
2255,56,-1912,-560,41,-2,-14
2260,64,-1928,-496,44,-1,-15
2265,56,-1912,-488,45,0,-16
2270,48,-1920,-504,48,0,-20
2275,72,-1936,-496,50,0,-21
2280,40,-1944,-504,49,0,-22
2285,40,-1920,-520,50,-1,-24
2290,40,-1912,-488,52,-2,-23
2295,24,-1920,-496,52,-1,-26
2300,64,-1904,-536,54,-2,-28
2305,48,-1928,-488,55,-2,-28
2310,8,-1896,-512,56,-2,-28
2315,24,-1904,-520,58,-4,-28
2320,40,-1912,-504,58,-5,-30
2325,64,-1904,-504,58,-5,-29
2330,48,-1904,-504,58,-6,-27
2335,40,-1920,-504,57,-6,-26
2340,48,-1912,-504,55,-8,-25
2345,24,-1920,-544,55,-11,-24
2350,72,-1912,-528,54,-12,-24
2355,64,-1912,-496,53,-14,-22
2360,72,-1920,-512,52,-11,-18
2365,64,-1880,-568,52,-12,-18
2370,64,-1944,-512,51,-11,-17
2375,48,-1936,-536,51,-11,-17
2380,56,-1920,-488,52,-9,-17
2385,56,-1952,-504,53,-9,-16
2390,64,-1952,-512,55,-8,-15
2395,64,-1928,-504,59,-9,-14
2400,64,-1936,-496,62,-9,-17
2405,48,-1928,-504,65,-9,-16
2410,40,-1896,-520,66,-9,-15
2415,40,-1920,-528,69,-11,-14
2420,72,-1944,-536,69,-12,-16
2425,24,-1912,-512,70,-12,-16
2430,24,-1928,-512,71,-13,-18
2435,32,-1912,-520,70,-14,-19
2440,24,-1880,-520,69,-14,-18
2445,40,-1920,-520,67,-15,-18
2450,32,-1936,-544,66,-15,-18
2455,32,-1904,-536,66,-14,-19
2460,32,-1896,-544,66,-14,-18
2465,8,-1896,-520,66,-16,-19
2470,56,-1912,-552,68,-16,-19
2475,64,-1880,-536,69,-16,-19
2480,32,-1872,-560,71,-16,-18
2485,32,-1904,-576,72,-15,-18
2490,56,-1904,-568,74,-15,-15
2495,48,-1904,-584,76,-13,-13
2500,56,-1880,-568,77,-11,-11
2505,32,-1872,-560,80,-8,-9
2510,88,-1920,-576,84,-6,-6
2515,80,-1912,-584,87,-5,-4
2520,80,-1928,-544,91,-2,0
2525,40,-1872,-600,95,1,1
2530,56,-1888,-528,97,4,4
2535,80,-1880,-592,96,7,8
2540,56,-1848,-552,94,8,10
2545,40,-1848,-576,90,11,14
2550,56,-1832,-568,84,11,18
2555,32,-1808,-576,77,12,22
2560,40,-1824,-568,71,11,28
2565,56,-1808,-560,65,12,31
2570,56,-1776,-528,59,13,36
2575,32,-1792,-520,52,12,40
2580,8,-1720,-496,45,12,45
2585,8,-1784,-544,43,8,49
2590,16,-1776,-536,43,1,54
2595,0,-1776,-544,42,-5,58
2600,0,-1800,-568,38,-12,62
2605,0,-1784,-568,32,-17,65
2610,-40,-1752,-592,24,-20,69
2615,0,-1776,-600,15,-25,73
2620,-24,-1768,-616,5,-27,80
2625,-24,-1720,-624,-8,-27,84
2630,-32,-1704,-648,-27,-26,90
2635,-56,-1688,-640,-50,-25,95
2640,-16,-1672,-616,-75,-22,100
2645,-8,-1672,-632,-99,-20,106
2650,-16,-1648,-640,-122,-13,113
2655,0,-1640,-648,-141,-8,121
2660,-8,-1608,-648,-158,1,132
2665,0,-1624,-624,-170,8,145
2670,16,-1576,-592,-178,16,155
2675,16,-1568,-568,-179,22,165
2680,24,-1624,-544,-175,29,174
2685,32,-1576,-504,-164,33,185
2690,64,-1632,-456,-147,37,194
2695,80,-1624,-440,-128,42,204
2700,80,-1616,-408,-110,46,213
2705,56,-1664,-384,-95,49,225
2710,48,-1648,-392,-84,47,238
2715,48,-1696,-384,-78,41,252
2720,40,-1736,-408,-78,32,268
2725,40,-1736,-400,-80,23,285
2730,48,-1776,-488,-86,13,299
2735,56,-1824,-464,-93,2,311
2740,32,-1848,-496,-101,-10,323
2745,48,-1880,-504,-110,-21,332
2750,0,-1944,-544,-119,-33,341
2755,-16,-1976,-576,-130,-43,350
2760,-40,-1984,-608,-141,-50,361
2765,-72,-2016,-592,-152,-51,372
2770,-72,-2056,-600,-159,-51,380
2775,-96,-2056,-592,-160,-49,388
2780,-88,-2072,-584,-158,-46,392
2785,-112,-2064,-552,-154,-44,398
2790,-56,-2104,-520,-150,-43,402
2795,-72,-2120,-504,-145,-41,402
2800,-72,-2096,-496,-138,-39,399
2805,-56,-2160,-456,-128,-41,394
2810,-56,-2192,-480,-114,-42,385
2815,-64,-2192,-496,-100,-42,374
2820,-32,-2208,-528,-86,-42,359
2825,-24,-2224,-552,-75,-37,342
2830,-40,-2224,-552,-63,-32,324
2835,-48,-2192,-568,-50,-25,304
2840,-24,-2184,-568,-36,-20,281
2845,-56,-2160,-568,-30,-16,258
2850,-32,-2168,-560,-26,-14,235
2855,-64,-2152,-632,-31,-15,211
2860,-72,-2128,-560,-38,-17,192
2865,-80,-2120,-624,-49,-21,171
2870,-104,-2080,-648,-66,-23,150
2875,-96,-2088,-632,-79,-25,130
2880,-104,-2048,-640,-91,-27,111
2885,-48,-2064,-664,-98,-28,95
2890,-96,-2008,-664,-102,-27,80
2895,-72,-1968,-640,-108,-22,64
2900,-80,-1968,-624,-113,-17,52
2905,-48,-1952,-528,-117,-12,38
2910,-64,-1912,-592,-123,-6,27
2915,-56,-1888,-600,-131,-2,16
2920,-56,-1848,-576,-139,-1,6
2925,-80,-1840,-552,-146,-2,-4
2930,-56,-1848,-528,-150,-8,-10
2935,-64,-1824,-552,-152,-15,-16
2940,-80,-1792,-528,-150,-24,-17
2945,-56,-1784,-512,-147,-30,-20
2950,-32,-1784,-576,-144,-37,-20
2955,-72,-1760,-576,-140,-44,-19
2960,-88,-1744,-528,-136,-51,-19
2965,-40,-1720,-576,-130,-62,-18
2970,-64,-1704,-600,-122,-74,-18
2975,-40,-1704,-600,-115,-86,-17
2980,-72,-1704,-632,-110,-99,-17
2985,-88,-1680,-608,-111,-111,-17
2990,-88,-1736,-656,-115,-126,-17
2995,-112,-1688,-608,-123,-141,-13
3000,-160,-1688,-632,-129,-153,-10
3005,-128,-1728,-624,-133,-165,-5
3010,-96,-1744,-624,-136,-176,1
3015,-152,-1752,-712,-133,-185,6
3020,-112,-1736,-664,-131,-193,14
3025,-104,-1760,-680,-129,-198,25
3030,-128,-1776,-712,-133,-202,36
3035,-112,-1776,-728,-133,-205,47
3040,-112,-1776,-752,-130,-209,57
3045,-88,-1800,-768,-122,-215,65
3050,-96,-1832,-760,-112,-218,67
3055,-112,-1776,-792,-96,-221,69
3060,-104,-1800,-800,-83,-223,67
3065,-120,-1784,-784,-70,-224,62
3070,-112,-1784,-760,-57,-224,57
3075,-128,-1776,-752,-45,-225,51
3080,-104,-1792,-816,-36,-225,44
3085,-104,-1768,-768,-30,-222,35
3090,-96,-1736,-768,-29,-218,24
3095,-96,-1736,-816,-31,-212,13
3100,-128,-1704,-800,-42,-205,3
3105,-96,-1680,-800,-59,-201,-6
3110,-80,-1672,-848,-79,-196,-14
3115,-128,-1600,-784,-96,-193,-19
3120,-120,-1608,-752,-111,-192,-22
3125,-96,-1560,-744,-125,-193,-24
3130,-120,-1552,-712,-145,-192,-22
3135,-96,-1544,-656,-166,-188,-17
3140,-104,-1536,-680,-194,-181,-11
3145,-56,-1520,-632,-229,-173,1
3150,-40,-1528,-632,-266,-160,9
3155,-24,-1520,-648,-303,-144,17
3160,-8,-1528,-624,-335,-129,25
3165,0,-1560,-632,-369,-118,32
3170,0,-1616,-632,-396,-110,43
3175,-48,-1616,-688,-422,-111,54
3180,-72,-1664,-712,-442,-118,67
3185,-56,-1696,-704,-454,-128,80
3190,-88,-1736,-728,-460,-142,93
3195,-104,-1752,-728,-463,-152,108
3200,-96,-1800,-792,-464,-165,123
3205,-112,-1824,-808,-466,-174,136
3210,-128,-1856,-840,-469,-183,150
3215,-168,-1864,-832,-477,-191,164
3220,-152,-1904,-848,-482,-196,177
3225,-216,-1936,-808,-484,-199,190
3230,-184,-1952,-824,-479,-204,198
3235,-200,-1952,-832,-468,-205,202
3240,-232,-2032,-816,-459,-201,208
3245,-208,-2040,-872,-450,-191,208
3250,-216,-2064,-824,-445,-177,205
3255,-248,-2064,-808,-438,-166,196
3260,-232,-2080,-848,-421,-152,186
3265,-232,-2040,-848,-393,-138,187
3270,-256,-1984,-928,-360,-119,197
3275,-216,-1928,-1048,-334,-95,209
3280,-216,-1856,-1136,-325,-57,234
3285,-184,-1760,-1320,-346,-5,260
3290,-136,-1768,-1216,-397,49,274
3295,-112,-1800,-1128,-471,92,265
3300,-88,-1864,-968,-537,112,228
3305,-88,-1896,-848,-572,105,189
3310,-48,-1920,-768,-560,76,160
3315,-24,-1944,-760,-521,49,140
3320,-40,-1984,-776,-479,38,121
3325,-72,-2016,-776,-440,44,110
3330,-72,-2048,-816,-403,63,95
3335,-136,-2080,-800,-372,82,69
3340,-240,-2096,-800,-350,96,33
3345,-248,-2152,-752,-322,107,-1
3350,-288,-2120,-752,-284,115,-32
3355,-328,-2104,-712,-235,118,-62
3360,-384,-2120,-704,-180,115,-89
3365,-424,-2088,-680,-121,103,-111
3370,-432,-2088,-680,-65,91,-133
3375,-440,-2048,-720,-12,75,-150
3380,-456,-2056,-736,39,59,-168
3385,-432,-2032,-744,88,39,-184
3390,-464,-1968,-752,133,16,-203
3395,-448,-1944,-768,171,-14,-217
3400,-448,-1928,-832,204,-48,-228
3405,-440,-1880,-848,231,-86,-236
3410,-432,-1800,-880,246,-126,-241
3415,-456,-1752,-928,251,-169,-240
3420,-448,-1736,-952,240,-214,-240
3425,-416,-1680,-928,217,-261,-241
3430,-408,-1664,-888,188,-305,-248
3435,-392,-1656,-904,157,-346,-255
3440,-384,-1640,-896,129,-382,-268
3445,-320,-1616,-872,104,-414,-282
3450,-296,-1608,-872,82,-442,-298
3455,-336,-1552,-944,59,-466,-314
3460,-304,-1512,-1000,32,-480,-329
3465,-288,-1480,-1056,-1,-486,-345
3470,-216,-1488,-1128,-41,-479,-361
3475,-216,-1424,-1200,-86,-465,-380
3480,-208,-1424,-1264,-133,-441,-398
3485,-176,-1400,-1312,-179,-411,-415
3490,-160,-1328,-1296,-222,-377,-427
3495,-152,-1320,-1344,-265,-336,-434
3500,-128,-1280,-1288,-304,-292,-429
3505,-56,-1296,-1256,-335,-239,-409
3510,0,-1256,-1272,-358,-184,-382
3515,48,-1272,-1272,-380,-136,-347
3520,96,-1304,-1272,-413,-108,-308
3525,136,-1344,-1336,-463,-102,-270
3530,168,-1440,-1312,-532,-109,-240
3535,176,-1528,-1328,-608,-120,-220
3540,176,-1640,-1296,-683,-120,-213
3545,192,-1784,-1232,-742,-102,-218
3550,136,-1904,-1144,-776,-67,-241
3555,56,-2056,-1088,-776,-11,-279
3560,-64,-2152,-1088,-737,62,-327
3565,-136,-2192,-1104,-661,136,-365
3570,-200,-2128,-1184,-592,204,-393
3575,-272,-2032,-1320,-525,242,-411
3580,-320,-1920,-1408,-465,235,-415
3585,-328,-1784,-1480,-428,200,-399
3590,-216,-1784,-1464,-423,171,-346
3595,-64,-1744,-1408,-436,141,-273
3600,16,-1696,-1384,-434,100,-215
3605,80,-1592,-1296,-420,44,-191
3610,104,-1576,-1256,-418,-9,-188
3615,200,-1608,-1192,-443,-40,-196
3620,232,-1600,-1080,-488,-45,-208
3625,200,-1608,-976,-540,-24,-216
3630,216,-1688,-912,-588,13,-224
3635,200,-1768,-832,-621,61,-223
3640,168,-1864,-744,-630,120,-211
3645,152,-1936,-688,-601,177,-196
3650,80,-2008,-720,-536,222,-177
3655,-32,-2040,-712,-442,249,-159
3660,-104,-2088,-720,-322,264,-141
3665,-160,-2072,-808,-184,272,-123
3670,-248,-2056,-824,-46,277,-102
3675,-272,-2016,-904,79,267,-82
3680,-304,-1944,-952,176,252,-64
3685,-312,-1896,-984,239,237,-45
3690,-336,-1808,-1032,256,231,-23
3695,-312,-1784,-1080,226,229,3
3700,-296,-1768,-1096,159,234,33
3705,-288,-1792,-1104,56,256,62
3710,-248,-1808,-1096,-22,287,94
3715,-240,-1808,-1048,-71,324,123
3720,-264,-1864,-1104,-95,360,149
3725,-192,-1824,-1088,-107,387,169
3730,-168,-1832,-1128,-118,408,183
3735,-168,-1784,-1144,-129,424,192
3740,-168,-1776,-1216,-141,437,189
3745,-112,-1784,-1232,-149,453,176
3750,-80,-1792,-1272,-146,475,152
3755,-56,-1784,-1296,-133,495,119
3760,-56,-1792,-1400,-112,515,78
3765,-112,-1776,-1472,-88,530,27
3770,-128,-1752,-1488,-65,536,-33
3775,-248,-1736,-1504,-48,529,-107
3780,-296,-1744,-1488,-40,509,-185
3785,-416,-1752,-1416,-35,483,-261
3790,-544,-1736,-1360,-27,459,-328
3795,-664,-1632,-1288,-11,441,-375
3800,-728,-1576,-1288,6,419,-397
3805,-800,-1528,-1288,11,379,-398
3810,-832,-1472,-1344,-4,309,-385
3815,-832,-1360,-1512,-41,225,-350
3820,-656,-1280,-1648,-89,155,-281
3825,-560,-1200,-1752,-148,99,-184
3830,-328,-1176,-1688,-220,53,-72
3835,-168,-1296,-1592,-287,13,47
3840,0,-1384,-1472,-341,-34,163
3845,120,-1512,-1296,-382,-98,256
3850,200,-1576,-1184,-421,-185,303
3855,256,-1640,-1136,-439,-272,312
3860,360,-1680,-1144,-420,-323,308
3865,416,-1664,-1144,-367,-322,286
3870,496,-1648,-1096,-289,-270,245
3875,496,-1584,-1096,-190,-186,189
3880,528,-1480,-1016,-86,-78,113
3885,512,-1344,-1024,13,40,22
3890,512,-1232,-960,87,158,-71
3895,480,-1144,-928,135,270,-155
3900,432,-1096,-864,157,367,-217
3905,352,-1040,-824,158,439,-256
3910,336,-1064,-768,143,485,-278
3915,224,-1072,-688,124,504,-286
3920,208,-1080,-624,114,492,-285
3925,144,-1104,-624,120,451,-276
3930,104,-1112,-600,143,389,-267
3935,56,-1104,-568,174,313,-263
3940,8,-1104,-656,202,234,-261
3945,-56,-1056,-728,225,157,-259
3950,-168,-1064,-752,243,88,-254
3955,-200,-1048,-808,251,21,-252
3960,-264,-1032,-824,251,-41,-250
3965,-264,-1032,-896,237,-100,-249
3970,-256,-1048,-920,213,-152,-248
3975,-280,-1088,-976,182,-196,-246
3980,-296,-1088,-1016,147,-228,-244
3985,-264,-1128,-1016,114,-253,-242
3990,-224,-1160,-1016,87,-272,-241
3995,-216,-1144,-1048,65,-286,-242
4000,-176,-1168,-1112,48,-302,-242
4005,-112,-1208,-1104,28,-323,-242
4010,-40,-1232,-1144,5,-347,-244
4015,16,-1264,-1136,-10,-362,-248
4020,88,-1352,-1144,-13,-372,-258
4025,128,-1392,-1112,2,-378,-270
4030,192,-1440,-1096,34,-383,-290
4035,216,-1480,-1088,84,-389,-312
4040,216,-1520,-1056,143,-397,-334
4045,256,-1504,-1000,214,-409,-354
4050,256,-1496,-992,283,-422,-373
4055,264,-1456,-1000,353,-430,-392
4060,248,-1376,-984,388,-433,-410
4065,240,-1320,-1016,399,-435,-424
4070,176,-1216,-1080,385,-434,-442
4075,160,-1096,-1176,352,-434,-458
4080,88,-976,-1320,310,-438,-474
4085,32,-896,-1472,259,-445,-487
4090,8,-840,-1568,203,-454,-498
4095,-48,-792,-1688,150,-466,-506
4100,-72,-760,-1744,103,-476,-510
4105,-16,-888,-1656,69,-484,-514
4110,0,-976,-1600,47,-491,-523
4115,32,-1088,-1520,39,-496,-540
4120,40,-1216,-1400,43,-497,-567
4125,88,-1368,-1280,58,-497,-605
4130,96,-1520,-1232,80,-488,-659
4135,112,-1576,-1264,105,-470,-719
4140,120,-1608,-1304,126,-441,-775
4145,112,-1696,-1456,135,-393,-829
4150,120,-1752,-1544,137,-345,-873
4155,208,-1728,-1640,129,-311,-895
4160,208,-1696,-1688,120,-290,-905
4165,224,-1600,-1776,107,-287,-904
4170,264,-1496,-1816,90,-296,-890
4175,288,-1400,-1792,70,-312,-862
4180,312,-1288,-1752,54,-355,-820
4185,336,-1248,-1784,40,-414,-778
4190,400,-1200,-1728,24,-484,-740
4195,384,-1208,-1696,3,-553,-715
4200,376,-1232,-1672,-19,-608,-708
4205,352,-1272,-1640,-38,-645,-716
4210,328,-1344,-1568,-54,-659,-741
4215,264,-1376,-1616,-69,-655,-767
4220,248,-1400,-1608,-82,-642,-794
4225,200,-1408,-1576,-89,-616,-823
4230,128,-1408,-1576,-86,-577,-849
4235,64,-1384,-1560,-81,-531,-866
4240,56,-1360,-1552,-83,-475,-883
4245,24,-1304,-1552,-99,-413,-893
4250,64,-1328,-1544,-126,-352,-901
4255,56,-1304,-1544,-159,-302,-902
4260,112,-1280,-1480,-190,-268,-901
4265,120,-1216,-1352,-209,-247,-897
4270,176,-1168,-1248,-214,-241,-889
4275,176,-1072,-1160,-212,-249,-887
4280,128,-1080,-1080,-208,-267,-892
4285,72,-1016,-992,-200,-292,-900
4290,72,-1000,-840,-189,-314,-911
4295,64,-968,-784,-166,-332,-928
4300,40,-960,-696,-130,-336,-946
4305,32,-944,-672,-80,-335,-965
4310,24,-920,-632,-23,-324,-982
4315,40,-872,-632,32,-310,-996
4320,104,-848,-648,83,-291,-1003
4325,112,-840,-656,135,-264,-1015
4330,96,-824,-688,194,-241,-1026
4335,112,-840,-720,257,-222,-1044
4340,136,-864,-736,320,-207,-1062
4345,104,-872,-720,383,-193,-1079
4350,160,-896,-656,449,-176,-1088
4355,128,-928,-616,522,-160,-1088
4360,128,-960,-616,604,-155,-1078
4365,136,-992,-544,696,-167,-1059
4370,112,-1008,-536,790,-191,-1026
4375,136,-1040,-480,873,-230,-990
4380,104,-1016,-440,941,-279,-952
4385,80,-984,-416,989,-344,-923
4390,56,-960,-376,1020,-402,-903
4395,56,-920,-336,1029,-457,-895
4400,0,-832,-328,1021,-503,-892
4405,16,-776,-328,1007,-528,-890
4410,8,-720,-312,992,-524,-890
4415,32,-608,-328,981,-493,-884
4420,32,-576,-328,975,-446,-870
4425,96,-520,-328,972,-384,-854
4430,112,-512,-312,969,-315,-840
4435,136,-520,-208,962,-247,-834
4440,152,-528,-176,955,-180,-840
4445,152,-504,-168,944,-118,-857
4450,136,-496,-112,935,-58,-881
4455,216,-560,-64,934,-9,-901
4460,200,-632,8,942,46,-922
4465,208,-704,8,960,89,-956
4470,224,-776,8,981,129,-985
4475,256,-872,40,994,171,-1007
4480,312,-960,64,994,216,-1008
4485,328,-968,128,984,268,-1008
4490,368,-976,152,979,313,-991
4495,392,-1008,160,978,348,-953
4500,328,-944,232,987,369,-905
4505,320,-928,272,1011,366,-880
4510,320,-984,288,1038,358,-851
4515,96,-880,448,1059,354,-807
4520,176,-960,424,1068,353,-796
4525,264,-960,496,1062,359,-772
4530,232,-992,552,1026,380,-744
4535,264,-1056,536,974,404,-729
4540,272,-1048,552,915,436,-675
4545,288,-1104,584,832,491,-653
4550,456,-1152,528,742,551,-611
4555,360,-1224,512,644,631,-543
4560,624,-1496,424,575,706,-483
4565,568,-1752,336,589,781,-346
4570,840,-2032,112,741,862,-248
4575,824,-2416,-80,1086,934,-124
4580,1256,-2864,-168,1610,1014,-91
4585,1272,-2848,-152,2252,1134,-36
4590,1456,-3144,-272,2913,1297,-94
4595,1696,-3504,-712,3588,1389,-137
4600,1648,-3840,-1112,4198,1408,-120
4605,1600,-4040,-1416,4669,1346,-156
4610,1392,-4192,-1488,4897,1203,-172
4615,1056,-4192,-1560,4806,1022,-121
4620,896,-4416,-1560,4438,906,-129
4625,840,-4944,-1440,3961,823,-100
4630,1128,-5576,-1160,3526,795,-91
4635,1896,-6192,-984,3238,808,-86
4640,2832,-6984,-872,3142,885,-92
4645,3720,-7576,-1112,3251,1015,-177
4650,4792,-8072,-1328,3513,1194,-256
4655,5808,-8632,-1240,3782,1416,-366
4660,6768,-8912,-912,3878,1678,-509
4665,7072,-8968,-240,3718,1962,-723
4670,7056,-8648,216,3340,2106,-1076
4675,6576,-8040,280,2802,2055,-1384
4680,5264,-7600,200,2156,1871,-1586
4685,3672,-6784,-128,1453,1639,-1901
4690,2000,-5904,-256,933,1432,-2129
4695,776,-4888,-272,668,1337,-2327
4700,-344,-3992,-200,690,1397,-2467
4705,-808,-3392,-216,939,1496,-2535
4710,-1032,-2848,-184,1303,1546,-2579
4715,-1128,-2352,-96,1742,1555,-2639
4720,-1136,-1968,32,2199,1508,-2616
4725,-1072,-1672,32,2615,1392,-2530
4730,-880,-1464,-24,2980,1248,-2416
4735,-552,-1104,-72,3265,1138,-2248
4740,-280,-856,-72,3436,1029,-2064
4745,40,-552,-104,3524,908,-1878
4750,304,-392,-112,3524,756,-1702
4755,432,-272,-96,3451,600,-1568
4760,536,-264,16,3320,442,-1451
4765,584,-376,224,3171,308,-1346
4770,528,-448,416,3017,236,-1271
4775,520,-496,520,2859,214,-1228
4780,464,-568,632,2688,225,-1211
4785,416,-656,696,2547,244,-1195
4790,176,-760,712,2399,233,-1207
4795,96,-808,728,2263,209,-1183
4800,128,-1000,760,2160,196,-1135
4805,112,-1104,632,2084,184,-1078
4810,144,-1216,552,2032,182,-1014
4815,152,-1304,560,2012,193,-951
4820,240,-1336,616,2019,212,-863
4825,344,-1368,704,2039,229,-760
4830,424,-1456,888,2094,248,-669
4835,440,-1448,880,2188,265,-609
4840,368,-1416,896,2278,263,-578
4845,240,-1336,904,2347,232,-548
4850,168,-1328,1008,2397,161,-517
4855,32,-1216,1120,2454,54,-498
4860,16,-1192,1144,2520,-60,-504
4865,8,-1144,1256,2583,-151,-528
4870,40,-1096,1328,2633,-215,-560
4875,72,-1024,1328,2668,-276,-589
4880,264,-968,1320,2692,-356,-606
4885,456,-824,1256,2705,-441,-618
4890,760,-752,1232,2718,-531,-625
4895,992,-656,1256,2746,-609,-634
4900,1240,-616,1296,2797,-650,-649
4905,1544,-520,1256,2856,-652,-659
4910,1816,-456,1296,2900,-616,-671
4915,2040,-336,1184,2923,-540,-678
4920,2096,-248,1160,2926,-442,-680
4925,2168,-152,1160,2910,-352,-684
4930,2224,-16,1224,2889,-290,-697
4935,2176,24,1248,2867,-253,-718
4940,2088,8,1288,2846,-241,-745
4945,1976,88,1208,2824,-252,-767
4950,1816,184,1128,2802,-279,-783
4955,1808,232,1208,2793,-303,-794
4960,1816,304,1224,2801,-321,-793
4965,1792,296,1280,2818,-339,-779
4970,1728,424,1280,2818,-364,-754
4975,1640,616,1176,2778,-407,-715
4980,1544,736,1104,2695,-434,-663
4985,1504,880,1112,2592,-439,-605
4990,1512,944,1176,2491,-430,-541
4995,1424,1040,1272,2394,-422,-463
5000,1472,1040,1280,2307,-435,-367
5005,1576,1032,1304,2229,-474,-262
5010,1872,1080,1296,2167,-525,-153
5015,1968,1104,1280,2106,-541,-49
5020,2048,1208,1272,2032,-523,55
5025,2200,1360,1416,1922,-478,151
5030,2272,1472,1528,1773,-435,237
5035,2368,1544,1624,1587,-402,317
5040,2584,1568,1656,1371,-370,395
5045,2760,1528,1712,1156,-331,468
5050,2832,1408,1616,972,-287,539
5055,2728,1288,1504,826,-255,594
5060,2624,1208,1424,704,-235,638
5065,2528,1024,1392,609,-212,657
5070,2344,856,1416,543,-175,672
5075,2080,712,1328,494,-117,695
5080,1880,528,1384,453,-52,712
5085,1680,408,1352,416,21,719
5090,1448,264,1304,385,92,733
5095,1328,120,1224,376,160,740
5100,1160,48,1160,379,222,735
5105,1088,0,1152,386,270,725
5110,1040,-32,1144,396,291,707
5115,1048,-88,1240,404,289,688
5120,1056,-88,1304,398,271,667
5125,1048,-8,1296,369,246,641
5130,1080,16,1352,307,225,601
5135,1088,80,1424,211,199,558
5140,1136,184,1360,100,182,520
5145,1168,208,1312,-21,183,491
5150,1168,240,1160,-136,205,467
5155,1152,248,1064,-220,232,445
5160,1136,320,960,-265,256,418
5165,1128,440,896,-282,273,387
5170,1136,504,920,-290,286,357
5175,1200,616,952,-298,293,329
5180,1144,624,896,-312,308,303
5185,1352,648,960,-341,329,292
5190,1584,704,1040,-383,337,267
5195,1808,712,1112,-433,351,242
5200,2024,720,1232,-489,366,226
5205,2168,704,1256,-548,370,220
5210,2296,632,1296,-603,376,234
5215,2240,568,1264,-650,387,258
5220,2160,512,1264,-680,391,289
5225,2128,504,1224,-693,379,314
5230,2104,384,1304,-687,346,328
5235,2136,320,1256,-665,315,331
5240,2200,232,1344,-639,296,319
5245,2312,192,1464,-603,292,291
5250,2400,144,1504,-558,308,252
5255,2376,88,1464,-510,359,213
5260,2224,32,1432,-466,441,192
5265,1920,-40,1344,-433,542,188
5270,1512,-112,1304,-419,628,203
5275,1248,-200,1328,-407,661,223
5280,1056,-352,1384,-384,634,219
5285,960,-504,1496,-347,575,178
5290,952,-592,1576,-298,525,112
5295,1008,-816,1632,-247,510,38
5300,1024,-896,1664,-199,538,-35
5305,1064,-1000,1688,-166,601,-101
5310,1104,-1040,1728,-157,669,-168
5315,1136,-1072,1768,-167,728,-233
5320,1176,-1088,1792,-198,765,-298
5325,1160,-1144,1784,-256,772,-358
5330,1144,-1208,1728,-330,739,-416
5335,1152,-1224,1704,-402,667,-461
5340,1176,-1248,1632,-453,578,-488
5345,1144,-1168,1584,-476,493,-492
5350,1184,-1168,1552,-475,416,-480
5355,1184,-1104,1496,-448,342,-454
5360,1184,-1024,1480,-413,277,-416
5365,1208,-944,1488,-379,223,-373
5370,1240,-952,1512,-350,181,-326
5375,1216,-880,1520,-330,154,-281
5380,1176,-808,1504,-321,146,-238
5385,1120,-816,1504,-328,150,-199
5390,1056,-784,1496,-342,159,-167
5395,984,-744,1440,-357,170,-139
5400,984,-768,1488,-366,178,-115
5405,936,-752,1440,-366,188,-93
5410,912,-744,1480,-354,201,-77
5415,880,-712,1472,-330,212,-60
5420,920,-736,1496,-298,212,-43
5425,960,-776,1448,-259,202,-28
5430,1000,-784,1424,-215,191,-14
5435,1024,-808,1384,-162,179,-1
5440,1024,-808,1376,-123,161,18
5445,1056,-816,1352,-88,142,36
5450,1104,-816,1296,-61,121,55
5455,1064,-816,1248,-46,94,71
5460,1168,-848,1248,-43,61,83
5465,1208,-856,1240,-53,28,96
5470,1256,-864,1272,-67,13,106
5475,1240,-904,1240,-81,11,109
5480,1240,-920,1264,-93,11,103
5485,1232,-968,1264,-99,10,90
5490,1248,-1016,1304,-100,13,78
5495,1192,-1008,1280,-95,20,65
5500,1216,-1008,1296,-89,33,58
5505,1280,-1024,1320,-83,46,52
5510,1272,-1024,1352,-74,60,48
5515,1304,-992,1344,-65,69,51
5520,1328,-984,1344,-57,70,56
5525,1328,-984,1328,-46,66,59
5530,1344,-928,1336,-33,60,65
5535,1352,-920,1328,-17,52,67
5540,1376,-872,1320,0,45,65
5545,1384,-880,1328,19,41,64
5550,1376,-816,1344,41,42,67
5555,1344,-832,1336,61,44,68
5560,1344,-800,1344,76,47,66
5565,1352,-768,1320,90,50,64
5570,1312,-768,1368,101,51,62
5575,1304,-760,1400,110,53,64
5580,1296,-768,1376,120,53,65
5585,1304,-752,1384,127,50,66
5590,1296,-760,1392,131,47,64
5595,1288,-736,1416,135,45,66
5600,1336,-760,1424,136,42,64
5605,1360,-760,1408,136,38,62
5610,1336,-768,1384,135,38,57
5615,1352,-776,1392,133,40,53
5620,1360,-736,1384,132,48,47
5625,1352,-736,1392,134,58,43
5630,1360,-744,1392,140,65,41
5635,1312,-712,1432,149,66,36
5640,1352,-704,1416,154,61,31
5645,1352,-672,1456,157,55,25
5650,1344,-664,1416,159,49,18
5655,1384,-664,1440,161,42,12
5660,1392,-664,1464,161,37,11
5665,1368,-624,1432,163,33,11
5670,1296,-616,1400,164,27,13
5675,1368,-592,1488,163,24,12
5680,1352,-576,1464,159,22,12
5685,1368,-568,1440,154,21,13
5690,1368,-536,1472,148,25,9
5695,1352,-512,1528,138,32,1
5700,1336,-520,1504,129,42,-4
5705,1336,-520,1512,121,54,-11
5710,1304,-520,1504,112,65,-17
5715,1312,-512,1456,106,72,-25
5720,1328,-512,1512,104,79,-30
5725,1272,-448,1408,108,85,-34
5730,1304,-512,1480,115,85,-38
5735,1280,-488,1528,125,83,-43
5740,1320,-512,1504,135,79,-48
5745,1320,-488,1488,146,77,-51
5750,1312,-496,1536,152,73,-53
5755,1296,-504,1544,155,70,-56
5760,1288,-472,1536,155,66,-63
5765,1264,-472,1504,155,64,-68
5770,1296,-480,1512,153,70,-70
5775,1264,-448,1528,152,78,-70
5780,1272,-480,1536,150,84,-70
5785,1320,-472,1552,151,91,-65
5790,1328,-472,1568,153,96,-61
5795,1288,-480,1560,157,96,-58
5800,1296,-480,1560,160,94,-55
5805,1264,-464,1568,166,95,-48
5810,1288,-464,1528,172,93,-47
5815,1248,-448,1536,175,95,-42
5820,1280,-408,1520,175,97,-38
5825,1288,-464,1520,175,101,-33
5830,1248,-416,1504,174,106,-28
5835,1264,-440,1488,176,110,-21
5840,1232,-432,1512,173,113,-18
5845,1224,-424,1496,170,114,-13
5850,1224,-424,1480,166,115,-11
5855,1200,-424,1504,163,117,-10
5860,1200,-400,1520,162,118,-8
5865,1200,-408,1504,162,119,-8
5870,1208,-400,1536,161,119,-7
5875,1232,-440,1560,158,117,-6
5880,1240,-440,1552,153,118,-4
5885,1240,-400,1560,147,117,-2
5890,1200,-392,1552,140,117,-2
5895,1264,-408,1624,135,114,2
5900,1232,-424,1568,131,112,5
5905,1224,-376,1560,130,109,10
5910,1216,-416,1552,128,108,13
5915,1224,-424,1536,124,106,19
5920,1208,-408,1560,119,104,23
5925,1216,-456,1544,113,105,27
5930,1224,-472,1552,106,107,31
5935,1216,-464,1560,97,111,32
5940,1224,-480,1560,89,114,35
5945,1208,-504,1496,83,119,36
5950,1208,-512,1544,77,122,37
5955,1200,-560,1536,73,121,40
5960,1192,-528,1536,73,116,40
5965,1192,-552,1536,75,110,42
5970,1192,-544,1520,81,100,43
5975,1216,-584,1520,87,90,47
5980,1160,-568,1504,94,81,49
5985,1184,-552,1528,102,71,52
5990,1200,-552,1488,108,64,55
5995,1200,-536,1512,114,59,56
6000,1120,-584,1504,119,55,58
6005,1192,-528,1520,121,54,58
6010,1176,-552,1512,121,58,59
6015,1184,-536,1520,118,63,61
6020,1216,-560,1512,118,71,64
6025,1208,-544,1520,119,81,67
6030,1200,-520,1512,116,91,71
6035,1208,-528,1552,109,98,76
6040,1192,-544,1496,103,103,81
6045,1176,-544,1552,94,101,81
6050,1176,-536,1568,84,98,81
6055,1216,-536,1592,73,96,80
6060,1208,-560,1544,65,94,79
6065,1176,-552,1560,61,91,76
6070,1184,-568,1520,60,89,74
6075,1184,-608,1536,62,88,73
6080,1184,-560,1536,67,87,70
6085,1168,-576,1544,73,89,67
6090,1184,-560,1504,78,94,67
6095,1184,-584,1512,81,96,66
6100,1168,-576,1528,82,101,65
6105,1128,-624,1520,81,101,64
6110,1184,-592,1536,81,101,63
6115,1176,-608,1528,78,99,62
6120,1168,-600,1528,78,95,62
6125,1160,-568,1528,76,87,63
6130,1160,-552,1528,74,77,65
6135,1200,-600,1512,74,73,64
6140,1168,-560,1528,74,68,63
6145,1192,-568,1552,75,68,62
6150,1176,-592,1536,77,66,60
6155,1160,-584,1528,80,67,60
6160,1168,-592,1536,82,67,57
6165,1176,-576,1512,82,69,56
6170,1224,-560,1520,82,74,52
6175,1224,-584,1528,80,78,46
6180,1208,-568,1520,79,79,40
6185,1216,-552,1536,78,81,35
6190,1224,-536,1544,74,84,29
6195,1176,-528,1528,67,83,25
6200,1176,-568,1544,62,80,21
6205,1208,-560,1544,56,77,17
6210,1192,-560,1528,53,73,15
6215,1176,-600,1536,50,70,16
6220,1184,-560,1536,48,67,14
6225,1200,-568,1536,45,63,12
6230,1224,-576,1536,42,59,10
6235,1176,-544,1536,43,55,10
6240,1216,-568,1544,44,50,5
6245,1176,-528,1520,47,48,2
6250,1208,-560,1504,48,47,-2
6255,1168,-552,1520,51,48,-4
6260,1184,-536,1512,53,49,-7
6265,1176,-544,1544,54,50,-11
6270,1160,-552,1544,51,50,-16
6275,1200,-536,1536,52,47,-20
6280,1192,-520,1544,52,48,-24
6285,1192,-544,1536,50,49,-25
6290,1184,-528,1560,50,50,-28
6295,1192,-544,1536,51,48,-29
6300,1200,-536,1576,51,46,-28
6305,1176,-536,1568,51,45,-31
6310,1160,-528,1560,52,43,-31
6315,1160,-528,1552,53,40,-33
6320,1184,-552,1576,52,39,-35
6325,1152,-552,1560,50,38,-39
6330,1176,-552,1560,49,38,-41
6335,1168,-544,1576,44,39,-40
6340,1176,-568,1576,37,41,-41
6345,1168,-560,1552,30,43,-41
6350,1160,-552,1584,25,44,-41
6355,1168,-544,1552,21,45,-42
6360,1168,-528,1544,16,45,-41
6365,1152,-512,1552,16,43,-40
6370,1200,-528,1536,19,42,-36
6375,1184,-528,1544,23,38,-36
6380,1136,-488,1512,27,33,-34
6385,1152,-504,1552,30,29,-31
6390,1184,-520,1544,34,23,-27
6395,1152,-520,1560,35,18,-26
6400,1176,-544,1560,36,17,-27
6405,1184,-544,1552,37,18,-24
6410,1184,-536,1560,36,18,-22
6415,1152,-552,1584,31,21,-21
6420,1192,-544,1544,26,25,-19
6425,1176,-536,1560,22,25,-16
6430,1160,-568,1536,20,24,-13
6435,1160,-536,1552,21,21,-12
6440,1152,-544,1544,22,19,-10
6445,1176,-536,1536,26,19,-11
6450,1152,-544,1536,28,19,-8
6455,1152,-528,1560,32,20,-10
6460,1152,-544,1552,35,23,-11
6465,1144,-528,1544,37,25,-7
6470,1168,-528,1536,38,29,-7
6475,1160,-544,1544,37,30,-5
6480,1168,-544,1560,36,31,-5
6485,1176,-528,1544,33,32,-3
6490,1128,-504,1544,30,34,-2
6495,1176,-536,1560,26,34,-1
6500,1184,-512,1536,23,35,-1
6505,1176,-512,1536,18,34,-1
6510,1176,-520,1536,15,35,0
6515,1168,-520,1536,13,35,0
6520,1168,-528,1536,13,35,2
6525,1144,-528,1584,12,37,4
6530,1160,-528,1544,13,38,4
6535,1152,-528,1560,15,39,4
6540,1152,-536,1552,16,40,3
6545,1152,-520,1536,16,39,-1
6550,1152,-536,1544,17,41,-1
6555,1176,-520,1528,16,43,-3
6560,1184,-528,1560,15,47,-2
6565,1160,-536,1560,11,49,-1
6570,1176,-536,1576,10,49,-1
6575,1192,-536,1560,8,46,-2
6580,1160,-536,1560,6,41,-3
6585,1144,-536,1552,5,39,-4
6590,1160,-528,1512,5,38,-3
6595,1168,-552,1536,3,35,-4
6600,1168,-592,1568,5,33,-4
6605,1144,-528,1576,5,34,-4
6610,1168,-568,1536,6,32,-3
6615,1152,-552,1552,7,32,-3
6620,1160,-560,1544,7,33,-1
6625,1152,-568,1552,8,33,-1
6630,1200,-568,1544,10,35,-1
6635,1152,-568,1552,12,35,0
6640,1160,-568,1544,13,35,0
6645,1176,-600,1512,16,31,0
6650,1152,-552,1528,20,29,-1
6655,1152,-584,1568,21,28,2
6660,1144,-544,1536,21,28,2
6665,1176,-592,1536,21,27,0
6670,1168,-552,1568,23,26,-2
6675,1152,-560,1544,22,25,-2
6680,1160,-560,1544,20,24,-2
6685,1152,-584,1560,19,24,-5
6690,1176,-560,1584,17,25,-8
6695,1168,-560,1544,14,29,-9
6700,1184,-584,1560,11,33,-10
6705,1176,-576,1584,11,38,-12
6710,1168,-584,1544,10,39,-11
6715,1168,-576,1552,10,40,-12
6720,1152,-576,1576,14,38,-10
6725,1144,-560,1536,16,35,-11
6730,1168,-568,1536,20,33,-9
6735,1176,-592,1528,23,31,-9
6740,1184,-584,1576,24,28,-7
6745,1160,-592,1512,26,27,-7
6750,1176,-592,1536,26,25,-9
6755,1176,-584,1576,30,24,-8
6760,1160,-576,1544,30,24,-8
6765,1144,-584,1544,32,24,-10
6770,1168,-576,1544,33,26,-9
6775,1144,-584,1560,35,25,-11
6780,1160,-568,1552,38,25,-11
6785,1184,-592,1552,39,24,-13
6790,1168,-576,1544,41,24,-12
6795,1168,-608,1544,45,24,-12
6800,1136,-560,1568,49,25,-12
6805,1152,-576,1528,53,26,-11
6810,1128,-552,1560,54,26,-10
6815,1168,-560,1512,56,23,-10
6820,1168,-576,1536,59,21,-9
6825,1152,-536,1560,61,20,-10
6830,1152,-576,1536,62,19,-10
6835,1160,-584,1544,66,19,-9
6840,1160,-560,1536,68,18,-10
6845,1168,-568,1536,71,16,-7
6850,1160,-568,1536,73,15,-5
6855,1152,-568,1528,75,15,-4
6860,1160,-568,1544,78,14,-4
6865,1144,-584,1536,79,15,-5
6870,1096,-536,1504,80,15,-3
6875,1176,-536,1520,81,17,-2
6880,1176,-568,1560,83,17,-3
6885,1176,-576,1536,86,20,-4
6890,1152,-568,1544,89,21,-2
6895,1160,-552,1512,93,21,0
6900,1152,-560,1536,95,20,0
6905,1160,-560,1552,96,19,1
6910,1144,-544,1544,98,20,2
6915,1144,-592,1552,98,20,2
6920,1160,-576,1576,100,21,2
6925,1144,-552,1584,99,20,1
6930,1144,-552,1560,98,21,2
6935,1168,-560,1552,97,21,2
6940,1128,-560,1544,97,22,3
6945,1160,-552,1560,97,20,4
6950,1152,-560,1560,96,18,4
6955,1176,-552,1552,98,16,3
6960,1152,-528,1544,99,13,2
6965,1168,-576,1536,99,11,3
6970,1144,-560,1576,98,11,2
6975,1144,-568,1560,97,13,-1
6980,1152,-544,1568,96,19,-1
6985,1152,-520,1552,91,22,1
6990,1168,-544,1544,89,24,2
6995,1144,-544,1568,87,26,0
7000,1152,-528,1560,85,27,1
7005,1152,-552,1552,84,28,4
7010,1160,-544,1568,85,27,5
7015,1136,-528,1576,86,26,4
7020,1128,-552,1544,86,23,7
7025,1136,-528,1568,85,22,5
7030,1184,-552,1608,82,20,6
7035,1136,-560,1560,79,19,5
7040,1096,-592,1640,76,19,5
7045,1120,-536,1552,72,17,5
7050,1160,-560,1568,74,14,6
7055,1152,-560,1568,74,10,6
7060,1168,-552,1552,77,4,4
7065,1144,-552,1520,80,0,6
7070,1160,-592,1552,85,-2,4
7075,1128,-552,1552,89,-2,5
7080,1144,-576,1560,93,-2,6
7085,1136,-552,1544,95,0,6
7090,1168,-600,1592,97,1,6
7095,1128,-544,1568,98,4,7
7100,1136,-544,1528,96,5,9
7105,1128,-544,1560,94,10,8
7110,1152,-536,1544,91,12,9
7115,1160,-528,1560,88,13,9
7120,1144,-528,1536,85,12,10
7125,1160,-544,1568,81,11,6
7130,1168,-560,1584,80,10,5
7135,1168,-544,1544,77,12,4
7140,1120,-568,1536,80,12,3
7145,1144,-528,1552,81,13,2
7150,1144,-560,1552,82,14,1
7155,1168,-512,1576,81,17,0
7160,1128,-512,1568,83,19,-1
7165,1144,-536,1568,83,22,1
7170,1160,-528,1592,84,23,0
7175,1152,-560,1560,84,21,2
7180,1144,-536,1544,85,20,4
7185,1176,-560,1560,84,20,6
7190,1200,-544,1560,83,20,8
7195,1192,-520,1576,85,19,8
7200,1152,-520,1552,85,17,10
7205,1144,-544,1520,85,16,10
7210,1160,-568,1560,89,13,10
7215,1152,-528,1560,92,12,8
7220,1152,-560,1568,95,12,8
7225,1152,-568,1560,98,11,7
7230,1152,-552,1552,99,12,5
7235,1144,-536,1552,99,14,4
7240,1144,-544,1576,98,17,4
7245,1128,-552,1576,96,20,2
7250,1152,-552,1624,93,22,4
7255,1128,-552,1576,91,23,4
7260,1144,-552,1568,90,26,3
7265,1144,-544,1568,89,28,2
7270,1136,-536,1544,88,29,4
7275,1152,-536,1576,85,29,4
7280,1136,-528,1552,85,28,3
7285,1136,-536,1544,84,24,4
7290,1144,-560,1552,84,21,4
7295,1144,-544,1528,86,18,4
7300,1144,-528,1536,87,13,4
7305,1104,-560,1536,86,11,3
7310,1176,-544,1544,85,11,3
7315,1136,-560,1560,84,11,3
7320,1160,-544,1584,84,14,5
7325,1152,-544,1552,82,16,1
7330,1144,-528,1536,80,20,0
7335,1136,-528,1552,78,22,-1
7340,1160,-536,1568,74,24,-1
7345,1120,-528,1584,71,26,0
7350,1128,-520,1568,68,26,0
7355,1160,-552,1624,65,27,-1
7360,1096,-536,1576,63,28,-1
7365,1144,-528,1584,62,26,0
7370,1152,-528,1560,62,25,-1
7375,1152,-544,1552,63,22,-2
7380,1144,-520,1560,63,20,-2
7385,1144,-544,1576,64,19,-4
7390,1168,-560,1560,67,18,-3
7395,1144,-560,1560,68,17,-3
7400,1144,-528,1552,69,18,-3
7405,1160,-552,1600,69,18,-2
7410,1112,-528,1592,69,18,-1
7415,1136,-560,1592,67,17,0
7420,1152,-560,1584,66,16,-1
7425,1144,-536,1560,66,14,-4
7430,1176,-552,1584,63,15,-6
7435,1144,-544,1568,60,16,-5
7440,1128,-544,1576,58,20,-5
7445,1144,-528,1568,55,21,-5
7450,1152,-520,1568,55,22,-7
7455,1144,-528,1552,54,22,-6
7460,1120,-520,1552,54,22,-7
7465,1128,-520,1560,54,21,-6
7470,1152,-560,1544,56,20,-5
7475,1152,-536,1568,58,16,-3
7480,1136,-536,1568,59,14,-4
7485,1152,-544,1536,60,9,-6
7490,1168,-544,1560,62,7,-5
7495,1128,-544,1544,64,5,-4
7500,1136,-520,1552,66,3,-3
7505,1152,-552,1576,66,3,-5
7510,1120,-560,1600,67,5,-5
7515,1152,-520,1560,65,4,-4
7520,1136,-552,1608,64,7,-8
7525,1160,-544,1576,64,12,-7
7530,1144,-520,1600,63,18,-7
7535,1152,-544,1560,61,21,-7
7540,1144,-536,1576,61,23,-6
7545,1152,-552,1560,62,21,-5
7550,1144,-512,1568,63,18,-6
7555,1160,-536,1552,65,16,-6
7560,1128,-512,1520,66,13,-7
7565,1136,-528,1560,70,10,-7
7570,1136,-536,1568,70,8,-6
7575,1120,-560,1536,71,7,-7
7580,1128,-528,1584,71,8,-4
7585,1152,-536,1568,71,6,-5
7590,1136,-560,1560,71,7,-7
7595,1136,-552,1568,69,6,-5
7600,1136,-552,1592,68,7,-5
7605,1144,-552,1584,66,7,-5
7610,1152,-544,1544,65,7,-7
7615,1136,-520,1576,64,7,-7
7620,1176,-544,1592,62,6,-9
7625,1128,-536,1544,61,8,-9
7630,1120,-528,1544,62,11,-10
7635,1160,-560,1552,63,13,-11
7640,1144,-512,1560,64,16,-10
7645,1160,-536,1568,64,18,-10
7650,1152,-528,1568,63,20,-10
7655,1168,-528,1544,62,20,-10
7660,1160,-528,1552,60,20,-10
7665,1144,-520,1560,60,19,-7
7670,1152,-528,1608,59,19,-7
7675,1152,-560,1616,60,17,-5
7680,1136,-544,1616,60,14,-6
7685,1120,-536,1552,60,11,-8
7690,1152,-528,1592,58,7,-6
7695,1160,-528,1568,56,7,-7
7700,1168,-552,1576,56,9,-5
7705,1136,-536,1544,55,10,-3
7710,1152,-552,1576,56,12,-3
7715,1144,-536,1568,58,12,-2
7720,1152,-544,1560,63,12,-2
7725,1184,-560,1544,69,10,-2
7730,1144,-520,1528,76,7,-1
7735,1160,-544,1576,84,4,-1
7740,1152,-576,1584,90,1,-1
7745,1144,-544,1560,92,-1,-1
7750,1144,-528,1568,93,-1,1
7755,1136,-520,1568,91,-2,0
7760,1136,-552,1544,88,-1,1
7765,1136,-528,1552,84,4,-1
7770,1144,-544,1552,78,6,-1
7775,1136,-536,1568,73,9,-3
7780,1144,-560,1592,69,12,-3
7785,1160,-536,1552,66,12,-5
7790,1144,-536,1584,65,14,-6
7795,1144,-568,1544,66,15,-7
7800,1152,-512,1584,66,16,-6
7805,1168,-528,1560,68,17,-6
7810,1144,-520,1584,71,17,-7
7815,1152,-520,1560,75,19,-8
7820,1144,-512,1576,77,18,-6
7825,1152,-520,1560,78,18,-7
7830,1144,-520,1568,77,20,-5
7835,1136,-512,1576,77,20,-6
7840,1136,-536,1552,75,18,-7
7845,1152,-528,1560,73,20,-8
7850,1152,-496,1560,70,19,-8
7855,1136,-528,1576,65,19,-8
7860,1152,-520,1552,62,19,-7
7865,1136,-544,1552,58,21,-8
7870,1136,-528,1576,57,21,-6
7875,1144,-520,1576,58,21,-5
7880,1152,-552,1552,59,20,-6
7885,1120,-528,1576,59,21,-6
7890,1128,-528,1576,62,23,-3
7895,1136,-528,1544,63,24,-5
7900,1144,-528,1568,68,24,-3
7905,1160,-552,1536,72,23,-3
7910,1144,-528,1552,78,22,-4
7915,1160,-528,1584,83,20,-3
7920,1120,-512,1568,85,19,-2
7925,1144,-536,1576,88,19,-4
7930,1120,-520,1560,89,20,-5
7935,1136,-512,1552,90,20,-3
7940,1152,-552,1576,92,19,-4
7945,1120,-520,1560,91,21,-3
7950,1112,-512,1584,90,22,-2
7955,1096,-504,1584,85,21,-1
7960,1088,-528,1592,82,21,-2
7965,1128,-512,1576,79,20,-2
7970,1136,-528,1560,73,22,-1
7975,1128,-504,1592,67,24,-1
7980,1136,-512,1584,61,27,-2
7985,1144,-536,1592,57,28,-4
7990,1128,-528,1560,54,29,-3
7995,1160,-528,1616,54,27,-2
8000,1152,-536,1576,52,27,-2
8005,1128,-520,1584,51,24,-2
8010,1160,-536,1568,52,22,-2
8015,1136,-528,1528,51,22,-2
8020,1128,-520,1592,49,20,-3
8025,1136,-544,1592,47,20,-3
8030,1120,-528,1584,46,19,-5
8035,1136,-528,1544,47,21,-5
8040,1152,-520,1560,48,23,-6
8045,1136,-512,1576,47,23,-5
8050,1088,-520,1568,49,25,-5
8055,1112,-528,1576,48,23,-6
8060,1136,-528,1608,46,22,-7
8065,1112,-520,1576,46,20,-7
8070,1128,-552,1552,46,19,-7
8075,1120,-536,1552,46,19,-7
8080,1144,-528,1552,46,20,-9
8085,1152,-536,1592,47,20,-11
8090,1152,-536,1576,46,21,-13
8095,1128,-544,1584,48,21,-12
8100,1120,-528,1568,46,22,-13
8105,1152,-544,1584,47,20,-13
8110,1144,-544,1608,47,20,-12
8115,1152,-568,1568,46,20,-11
8120,1160,-552,1576,45,20,-11
8125,1128,-512,1560,43,19,-12
8130,1128,-528,1584,40,17,-12
8135,1136,-536,1576,38,15,-12
8140,1136,-520,1576,38,12,-12
8145,1152,-536,1568,39,11,-12
8150,1144,-536,1600,41,9,-13
8155,1128,-528,1576,40,8,-14
8160,1160,-544,1576,40,9,-17
8165,1160,-544,1616,39,13,-16
8170,1120,-528,1592,38,17,-15
8175,1112,-512,1544,37,21,-16
8180,1136,-536,1576,36,23,-14
8185,1152,-512,1576,32,23,-16
8190,1128,-512,1576,32,23,-13
8195,1160,-520,1552,32,23,-13
8200,1152,-520,1560,33,22,-13
8205,1120,-528,1576,35,19,-11
8210,1136,-536,1568,34,18,-12
8215,1136,-512,1584,34,16,-13
8220,1128,-504,1576,36,16,-12
8225,1120,-520,1568,37,15,-14
8230,1120,-536,1544,38,14,-12
8235,1120,-512,1544,40,15,-13
8240,1136,-536,1576,41,15,-13
8245,1136,-520,1560,42,15,-11
8250,1136,-528,1560,41,15,-12
8255,1144,-528,1560,41,17,-11
8260,1144,-536,1576,41,18,-10
8265,1128,-520,1576,39,17,-11
8270,1136,-528,1576,38,17,-10
8275,1144,-552,1584,35,19,-11
8280,1144,-536,1584,35,17,-11
8285,1112,-552,1576,35,17,-10
8290,1136,-536,1600,34,17,-12
8295,1136,-536,1584,33,17,-13
8300,1112,-536,1560,32,17,-13
8305,1104,-544,1576,30,18,-14
8310,1112,-536,1568,27,21,-17
8315,1112,-520,1584,25,23,-14
8320,1136,-568,1568,25,26,-16
8325,1128,-560,1576,25,28,-14
8330,1136,-528,1568,22,29,-14
8335,1168,-536,1560,21,29,-15
8340,1096,-528,1544,19,27,-12
8345,1136,-528,1576,17,25,-13
8350,1152,-536,1544,15,24,-12
8355,1128,-528,1560,15,21,-14
8360,1160,-536,1568,13,20,-13
8365,1136,-528,1576,15,20,-14
8370,1136,-528,1576,13,20,-16
8375,1128,-520,1576,13,19,-16
8380,1168,-528,1584,11,22,-18
8385,1104,-520,1576,11,24,-19
8390,1136,-520,1576,10,26,-17
8395,1120,-544,1536,12,26,-17
8400,1120,-528,1592,14,26,-16
8405,1152,-536,1568,17,27,-15
8410,1128,-560,1576,21,27,-15
8415,1112,-528,1624,21,26,-16
8420,1136,-544,1568,20,27,-15
8425,1144,-536,1576,18,26,-17
8430,1112,-544,1576,16,26,-17
8435,1136,-552,1592,14,24,-15
8440,1160,-544,1552,14,22,-14
8445,1112,-520,1536,17,20,-12
8450,1208,-552,1592,20,17,-11
8455,1152,-568,1560,24,13,-11
8460,1128,-552,1560,28,9,-10
8465,1128,-536,1544,33,6,-9
8470,1128,-552,1568,35,1,-9
8475,1120,-536,1584,38,-2,-10
8480,1120,-544,1600,40,0,-9
8485,1136,-560,1552,42,2,-10
8490,1104,-536,1568,42,3,-10
8495,1112,-536,1584,40,7,-9
8500,1104,-520,1560,38,11,-8
8505,1096,-520,1544,36,13,-11
8510,1144,-544,1584,33,16,-15
8515,1136,-544,1584,31,16,-15
8520,1160,-528,1592,29,17,-18
8525,1120,-528,1568,29,15,-18
8530,1136,-544,1568,29,16,-22
8535,1136,-536,1560,28,17,-22
8540,1112,-528,1592,27,19,-22
8545,1152,-544,1552,27,20,-22
8550,1144,-520,1568,25,20,-21
8555,1160,-536,1576,25,18,-20
8560,1144,-512,1568,26,18,-21
8565,1112,-520,1568,26,18,-21
8570,1128,-528,1592,24,15,-19
8575,1160,-544,1576,22,16,-17
8580,1112,-544,1560,23,13,-15
8585,1104,-552,1576,23,14,-16
8590,1136,-528,1544,23,13,-17
8595,1104,-520,1560,25,13,-15
8600,1080,-536,1576,29,16,-14
8605,1096,-544,1552,32,18,-14
8610,1120,-560,1592,35,19,-15
8615,1160,-600,1552,37,19,-14
8620,1128,-560,1584,40,20,-15
8625,1120,-552,1584,40,22,-17
8630,1128,-544,1560,42,23,-14
8635,1112,-560,1576,44,22,-15
8640,1144,-560,1584,44,22,-14
8645,1152,-568,1560,45,20,-13
8650,1112,-504,1544,43,19,-14
8655,1152,-592,1560,42,17,-13
8660,1144,-568,1544,42,17,-13
8665,1168,-560,1536,44,16,-13
8670,1128,-536,1552,43,15,-11
8675,1144,-536,1560,42,16,-10
8680,1120,-536,1568,42,17,-12
8685,1128,-536,1600,41,17,-11
8690,1128,-536,1544,40,18,-10
8695,1136,-552,1552,38,18,-9
8700,1120,-560,1584,39,20,-9
8705,1152,-584,1584,39,22,-9
8710,1144,-560,1584,41,22,-12
8715,1144,-560,1560,42,24,-11
8720,1136,-536,1560,45,27,-10
8725,1144,-568,1560,47,25,-9
8730,1128,-544,1560,49,25,-10
8735,1136,-536,1576,50,23,-10
8740,1152,-560,1560,50,21,-10
8745,1136,-560,1552,52,21,-13
8750,1144,-536,1560,53,19,-12
8755,1112,-536,1576,52,21,-10
8760,1128,-536,1576,52,19,-9
8765,1120,-552,1544,53,18,-8
8770,1136,-552,1584,54,17,-7
8775,1080,-544,1584,54,16,-5
8780,1168,-576,1536,55,17,-4
8785,1112,-544,1568,55,16,-4
8790,1128,-560,1560,57,17,-5
8795,1136,-544,1576,57,15,-2
8800,1128,-544,1560,58,16,-4
8805,1120,-544,1576,58,17,-6
8810,1144,-552,1600,60,19,-6
8815,1136,-544,1576,61,22,-4
8820,1120,-552,1552,63,23,-5
8825,1104,-520,1568,64,24,-5
8830,1160,-560,1584,65,23,-5
8835,1144,-552,1560,65,23,-7
8840,1120,-544,1584,66,21,-7
8845,1136,-544,1592,68,19,-6
8850,1144,-520,1552,69,18,-5
8855,1096,-520,1560,69,17,-4
8860,1128,-528,1544,69,16,-5
8865,1128,-552,1568,70,16,-5
8870,1136,-544,1600,69,16,-5
8875,1136,-528,1584,69,14,-5
8880,1128,-536,1552,69,14,-3
8885,1104,-544,1544,69,13,-4
8890,1144,-528,1568,70,13,-5
8895,1120,-552,1568,71,15,-5
8900,1096,-528,1608,72,18,-4
8905,1128,-544,1568,72,20,-5
8910,1136,-560,1560,71,22,-4
8915,1128,-536,1600,71,23,-5
8920,1120,-536,1584,71,23,-6
8925,1144,-536,1568,70,24,-4
8930,1112,-528,1552,71,23,-6
8935,1152,-552,1600,73,22,-4
8940,1112,-536,1560,72,20,-6
8945,1136,-552,1576,73,17,-5
8950,1144,-560,1576,73,17,-5
8955,1136,-528,1576,74,14,-4
8960,1128,-544,1576,75,13,-5
8965,1136,-552,1576,76,11,-5
8970,1128,-544,1568,76,12,-5
8975,1144,-528,1584,76,11,-4
8980,1128,-544,1584,77,9,-4
8985,1144,-528,1592,77,11,-3
8990,1104,-536,1568,77,12,-4
8995,1160,-560,1552,77,14,-3
9000,1128,-536,1592,75,15,-3
9005,1128,-528,1576,75,18,-3
9010,1128,-536,1568,75,18,-5
9015,1128,-528,1560,75,19,-4
9020,1112,-520,1600,74,20,-7
9025,1120,-512,1632,73,21,-6
9030,1128,-536,1576,72,20,-4
9035,1144,-536,1552,72,22,-3
9040,1112,-528,1608,72,20,-1
9045,1128,-568,1592,72,18,-2
9050,1120,-560,1592,71,16,-1
9055,1136,-544,1576,73,15,1
9060,1120,-520,1560,73,14,-1
9065,1160,-568,1568,73,13,-1
9070,1112,-536,1560,73,13,-1
9075,1144,-544,1560,75,13,0
9080,1120,-536,1568,77,13,-1
9085,1136,-544,1552,79,14,0
9090,1112,-536,1584,80,16,-1
9095,1136,-536,1568,80,15,-1
9100,1120,-536,1584,82,17,-1
9105,1104,-600,1560,82,15,0
9110,1136,-536,1576,82,17,-1
9115,1128,-544,1568,81,17,-1
9120,1144,-552,1552,81,18,-2
9125,1152,-560,1568,79,17,-1
9130,1128,-536,1568,79,17,0
9135,1112,-520,1592,79,16,2
9140,1112,-552,1584,78,15,2
9145,1128,-528,1576,79,14,2
9150,1136,-536,1552,77,14,3
9155,1136,-512,1568,76,13,1
9160,1168,-552,1600,76,11,0
9165,1112,-528,1560,75,10,-1
9170,1136,-568,1576,75,11,0
9175,1136,-576,1592,74,11,1
9180,1112,-528,1568,76,12,-1
9185,1128,-544,1600,78,13,0
9190,1136,-552,1576,80,14,-2
9195,1112,-544,1560,82,15,-1
9200,1104,-520,1560,82,17,1
9205,1120,-528,1576,81,16,-1
9210,1112,-552,1608,78,17,-2
9215,1120,-512,1560,76,17,-2
9220,1120,-528,1584,73,18,-5
9225,1136,-528,1592,71,17,-5
9230,1120,-528,1584,68,18,-6
9235,1136,-544,1592,65,18,-8
9240,1144,-528,1600,62,20,-8
9245,1128,-520,1576,60,21,-7
9250,1136,-520,1608,58,21,-8
9255,1136,-560,1560,58,21,-8
9260,1144,-520,1584,58,23,-8
9265,1112,-512,1568,59,25,-7
9270,1136,-528,1584,61,24,-7
9275,1112,-520,1600,62,23,-8
9280,1136,-552,1592,65,19,-8
9285,1120,-528,1584,66,15,-9
9290,1112,-552,1576,66,14,-10
9295,1120,-544,1568,66,12,-12
9300,1104,-528,1600,62,14,-13
9305,1120,-520,1592,60,18,-13
9310,1128,-520,1576,58,20,-11
9315,1112,-536,1584,58,19,-11
9320,1144,-568,1568,61,18,-9
9325,1128,-552,1560,64,14,-5
9330,1128,-536,1568,71,12,-4
9335,1128,-536,1584,80,6,-1
9340,1136,-536,1568,86,2,-2
9345,1128,-536,1568,90,-1,0
9350,1104,-528,1568,92,-4,-1
9355,1112,-528,1632,95,-7,-1
9360,1112,-536,1600,95,-6,2
9365,1136,-544,1600,92,-3,1
9370,1120,-528,1584,88,1,-1
9375,1096,-464,1568,85,7,-2
9380,1112,-528,1576,83,13,-3
9385,1144,-520,1584,81,16,-4
9390,1128,-520,1600,79,17,-4
9395,1128,-496,1592,78,16,-5
9400,1112,-520,1576,77,19,-6
9405,1120,-520,1600,77,17,-5
9410,1128,-504,1568,79,18,-7
9415,1144,-528,1592,80,17,-6
9420,1128,-520,1576,80,17,-5
9425,1096,-496,1576,82,18,-4
9430,1144,-528,1568,81,15,-4
9435,1120,-512,1568,80,15,-5
9440,1120,-536,1584,79,13,-4
9445,1120,-520,1552,79,15,-3
9450,1128,-512,1592,77,15,-4
9455,1120,-536,1576,75,16,-2
9460,1120,-512,1560,73,15,-1
9465,1120,-536,1584,70,15,-3
9470,1128,-536,1584,69,14,-1
9475,1128,-520,1600,67,14,-4
9480,1112,-512,1608,68,15,-4
9485,1104,-528,1600,68,15,-2
9490,1120,-528,1568,67,17,-2
9495,1120,-528,1616,66,17,-1
9500,1104,-520,1576,65,17,-1
9505,1144,-528,1592,66,18,-1
9510,1120,-536,1600,65,18,-2
9515,1104,-520,1592,65,18,-2
9520,1112,-496,1576,68,18,-2
9525,1088,-520,1608,68,16,-3
9530,1112,-536,1560,71,15,-2
9535,1096,-512,1560,74,15,-1
9540,1136,-464,1568,74,14,0
9545,1128,-528,1552,75,14,0
9550,1128,-520,1568,78,12,2
9555,1120,-528,1592,78,12,2
9560,1104,-504,1560,78,12,2
9565,1144,-536,1576,78,12,1
9570,1128,-512,1560,76,13,0
9575,1136,-536,1584,75,17,0
9580,1120,-520,1592,72,21,-3
9585,1120,-528,1600,69,23,-1
9590,1104,-528,1592,67,26,-3
9595,1144,-512,1632,65,26,-2
9600,1104,-512,1584,64,25,-3
9605,1120,-528,1584,64,27,-5
9610,1120,-520,1584,64,26,-4
9615,1080,-528,1608,64,23,-4
9620,1128,-520,1568,61,20,-6
9625,1104,-512,1576,60,20,-5
9630,1136,-536,1576,61,20,-6
9635,1144,-544,1560,62,19,-5
9640,1136,-528,1608,64,19,-7
9645,1120,-528,1576,66,19,-7
9650,1088,-536,1552,68,20,-6
9655,1128,-512,1592,71,21,-4
9660,1120,-520,1584,73,22,-4
9665,1128,-520,1592,75,22,-3
9670,1104,-520,1576,77,23,-2
9675,1088,-520,1584,76,24,-2
9680,1136,-536,1624,74,22,-2
9685,1120,-544,1592,73,21,-1
9690,1144,-544,1600,74,20,-1
9695,1144,-528,1664,70,17,-3
9700,1128,-592,1576,70,16,-5
9705,1144,-536,1592,68,15,-5
9710,1120,-528,1576,68,14,-6
9715,1112,-528,1560,66,11,-6
9720,1112,-544,1592,67,10,-6
9725,1112,-528,1568,68,10,-7
9730,1112,-512,1592,68,9,-6
9735,1104,-520,1568,67,10,-6
9740,1096,-504,1608,67,10,-7
9745,1120,-536,1608,69,11,-6
9750,1112,-520,1576,67,12,-8
9755,1144,-520,1584,67,13,-8
9760,1104,-520,1600,69,11,-8
9765,1112,-504,1600,68,11,-7
9770,1112,-512,1592,68,10,-9
9775,1096,-536,1600,67,10,-7
9780,1104,-520,1584,66,10,-6
9785,1120,-496,1576,65,11,-6
9790,1128,-536,1632,64,11,-7
9795,1120,-520,1600,63,10,-7
9800,1120,-512,1584,62,10,-7
9805,1104,-520,1616,62,10,-7
9810,1096,-520,1592,64,9,-6
9815,1112,-512,1600,64,9,-6
9820,1096,-512,1584,65,11,-7
9825,1128,-528,1568,67,12,-7
9830,1096,-528,1584,69,12,-6
9835,1120,-520,1568,70,13,-6
9840,1104,-520,1560,74,14,-7
9845,1096,-504,1600,76,14,-8
9850,1128,-544,1576,75,14,-6
9855,1144,-504,1568,75,14,-7
9860,1104,-512,1608,76,13,-6
9865,1088,-528,1552,75,14,-5
9870,1112,-496,1584,74,16,-5
9875,1112,-504,1568,72,15,-5
9880,1128,-520,1632,71,14,-4
9885,1128,-528,1608,69,14,-4
9890,1128,-536,1592,68,14,-5
9895,1104,-512,1576,67,13,-5
9900,1120,-512,1592,70,13,-5
9905,1128,-536,1592,69,15,-5
9910,1136,-536,1616,68,16,-6
9915,1120,-520,1608,70,18,-8
9920,1088,-520,1552,70,19,-8
9925,1088,-512,1600,72,20,-5
9930,1120,-512,1576,71,21,-4
9935,1112,-544,1592,71,21,-5
9940,1112,-528,1608,71,21,-4
9945,1136,-520,1568,70,21,-6
9950,1112,-520,1584,71,21,-5
9955,1128,-536,1608,69,20,-5
9960,1104,-496,1632,69,21,-3
9965,1104,-512,1576,69,21,-3
9970,1136,-528,1576,67,19,-2
9975,1120,-504,1576,65,18,-2
9980,1104,-512,1568,64,19,-3
9985,1144,-520,1568,62,18,-2
9990,1104,-488,1600,60,18,-2
9995,1128,-528,1608,57,17,-3
10000,1136,-504,1608,57,19,-2
10005,1128,-520,1592,56,19,-2
10010,1112,-496,1608,56,18,-3
10015,1120,-512,1608,56,18,-3
10020,1104,-520,1576,56,19,-4
10025,1152,-528,1624,58,18,-4
10030,1128,-544,1568,61,18,-4
10035,1096,-504,1592,61,18,-3
10040,1120,-512,1632,62,17,-2
10045,1112,-528,1584,63,17,-4
10050,1128,-536,1576,63,14,-2
10055,1120,-528,1600,65,13,-3
10060,1128,-504,1600,65,14,-2
10065,1144,-512,1632,66,14,-3
10070,1136,-520,1592,66,13,-3
10075,1088,-512,1592,66,12,-3
10080,1120,-496,1576,65,15,-4
10085,1072,-528,1592,64,13,-3
10090,1112,-512,1576,64,14,-4
10095,1136,-512,1552,64,13,-5
10100,1104,-512,1616,63,13,-7
10105,1120,-504,1616,63,15,-7
10110,1112,-512,1560,63,16,-6
10115,1104,-512,1560,66,18,-4
10120,1104,-504,1584,66,18,-4
10125,1144,-528,1608,66,18,-4
10130,1104,-504,1624,64,18,-6
10135,1112,-512,1616,63,15,-5
10140,1120,-536,1616,63,12,-8
10145,1104,-520,1608,60,11,-8
10150,1128,-512,1624,59,10,-10
10155,1128,-512,1584,57,11,-11
10160,1104,-512,1600,53,12,-12
10165,1120,-504,1592,50,16,-11
10170,1120,-504,1608,47,19,-13
10175,1120,-512,1616,46,20,-12
10180,1112,-520,1624,43,23,-13
10185,1104,-504,1592,43,24,-15
10190,1144,-504,1616,43,25,-14
10195,1072,-488,1560,43,25,-12
10200,1104,-512,1568,46,24,-11
10205,1128,-512,1624,48,22,-10
10210,1112,-512,1600,51,22,-9
10215,1104,-504,1584,52,22,-9
10220,1104,-480,1608,50,20,-10
10225,1080,-504,1600,46,19,-11
10230,1104,-520,1568,41,19,-10
10235,1104,-528,1568,38,18,-10
10240,1112,-528,1632,36,16,-9
10245,1096,-560,1640,35,15,-10
10250,1128,-536,1600,37,14,-8
10255,1136,-528,1592,41,11,-9
10260,1128,-528,1600,46,7,-9
10265,1112,-504,1592,50,3,-10
10270,1104,-528,1600,53,-1,-10
10275,1104,-520,1584,54,-2,-8
10280,1120,-528,1592,56,-2,-10
10285,1080,-512,1584,54,-1,-9
10290,1096,-520,1624,52,1,-10
10295,1096,-512,1584,49,3,-10
10300,1136,-520,1560,47,5,-10
10305,1112,-520,1608,44,9,-11
10310,1120,-504,1592,43,12,-12
10315,1120,-512,1600,43,15,-11
10320,1104,-512,1592,41,18,-13
10325,1120,-488,1608,40,19,-13
10330,1128,-504,1592,40,21,-13
10335,1120,-488,1616,40,20,-16
10340,1112,-504,1608,39,20,-16
10345,1128,-528,1616,39,18,-16
10350,1112,-512,1624,38,18,-16
10355,1144,-504,1576,37,19,-17
10360,1136,-496,1592,36,21,-17
10365,1120,-496,1600,33,21,-17
10370,1120,-512,1608,31,20,-13
10375,1104,-512,1600,29,19,-15
10380,1128,-504,1600,26,16,-15
10385,1120,-512,1608,24,16,-16
10390,1120,-512,1600,23,14,-13
10395,1080,-488,1608,21,15,-14
10400,1088,-528,1568,21,17,-14
10405,1112,-488,1576,20,17,-13
10410,1080,-496,1600,17,16,-14
10415,1112,-528,1576,17,17,-15
10420,1120,-520,1600,16,16,-16
10425,1096,-520,1592,17,15,-17
10430,1096,-512,1592,18,16,-19
10435,1104,-520,1584,19,17,-16
10440,1104,-512,1600,22,18,-18
10445,1088,-536,1608,23,20,-20
10450,1088,-512,1624,22,23,-21
10455,1120,-520,1576,23,25,-21
10460,1136,-520,1616,24,26,-18
10465,1104,-528,1576,25,24,-18
10470,1112,-520,1568,23,22,-19
10475,1120,-512,1576,23,21,-18
10480,1112,-520,1584,22,19,-18
10485,1112,-520,1624,21,19,-18
10490,1120,-520,1584,20,18,-18
10495,1104,-512,1616,17,17,-17
10500,1120,-520,1552,15,18,-19
10505,1112,-544,1576,11,20,-19
10510,1112,-512,1592,9,25,-20
10515,1104,-544,1560,9,26,-20
10520,1096,-536,1616,8,28,-20
10525,1112,-520,1584,8,30,-21
10530,1128,-528,1584,10,29,-21
10535,1128,-512,1568,12,28,-21
10540,1120,-512,1568,11,29,-21
10545,1112,-520,1576,13,29,-21
10550,1096,-536,1584,13,28,-22
10555,1104,-512,1576,12,27,-21
10560,1128,-528,1568,10,25,-23
10565,1104,-536,1568,7,23,-23
10570,1128,-520,1656,4,20,-24
10575,1088,-584,1528,2,17,-26
10580,1120,-528,1600,-2,16,-26
10585,1104,-528,1616,-5,12,-25
10590,1096,-512,1608,-7,10,-25
10595,1112,-544,1584,-7,9,-27
10600,1112,-512,1584,-9,9,-25
10605,1104,-544,1600,-9,10,-25
10610,1112,-544,1608,-7,11,-24
10615,1112,-568,1592,-5,9,-25
10620,1088,-520,1576,-1,8,-26
10625,1096,-544,1608,2,9,-28
10630,1104,-536,1632,4,10,-29
10635,1120,-528,1600,6,10,-29
10640,1112,-536,1616,7,10,-30
10645,1104,-528,1608,8,9,-32
10650,1128,-544,1608,7,11,-32
10655,1096,-528,1592,5,13,-32
10660,1112,-544,1616,4,15,-32
10665,1112,-552,1584,4,15,-32
10670,1128,-528,1560,4,16,-31
10675,1120,-552,1552,5,16,-30
10680,1136,-528,1584,7,14,-29
10685,1088,-504,1560,9,14,-29
10690,1128,-520,1568,11,14,-27
10695,1128,-536,1568,13,13,-28
10700,1128,-520,1568,14,14,-26
10705,1096,-520,1576,16,13,-26
10710,1112,-528,1584,18,13,-27
10715,1152,-544,1600,21,12,-27
10720,1120,-520,1584,21,14,-30
10725,1120,-560,1576,21,16,-28
10730,1152,-528,1600,19,20,-28
10735,1128,-520,1576,17,19,-28
10740,1120,-544,1592,15,21,-29
10745,1112,-544,1608,13,21,-27
10750,1128,-552,1600,11,23,-26
10755,1104,-560,1584,12,23,-27
10760,1088,-552,1560,11,22,-25
10765,1104,-528,1576,13,22,-25
10770,1112,-528,1600,12,21,-25
10775,1104,-520,1560,12,22,-24
10780,1112,-536,1592,12,21,-23
10785,1136,-560,1592,11,19,-23
10790,1080,-544,1600,11,17,-22
10795,1136,-512,1576,11,16,-24
10800,1120,-544,1568,11,14,-25
10805,1128,-536,1544,9,13,-25
10810,1120,-528,1576,7,13,-25
10815,1120,-520,1600,3,15,-26
10820,1112,-520,1560,1,15,-26
10825,1112,-536,1584,-3,16,-27
10830,1112,-536,1592,-4,14,-27
10835,1120,-568,1584,-6,12,-28
10840,1104,-544,1592,-6,11,-27
10845,1080,-560,1560,-4,11,-28
10850,1072,-536,1664,-3,12,-29
10855,1072,-544,1528,-2,15,-27
10860,1080,-496,1648,-1,15,-27
10865,1104,-520,1536,-3,13,-29
10870,1120,-544,1568,-5,10,-31
10875,984,-544,1608,-12,-1,-34
10880,1088,-504,1520,-57,-54,-44
10885,1216,-504,1600,-89,-58,-51
10890,1232,-624,1560,-76,-11,-43
10895,1176,-608,1536,-49,18,-36
10900,1096,-544,1552,-21,25,-33
10905,1112,-560,1640,3,25,-31
10910,1072,-608,1560,17,21,-28
10915,1144,-560,1592,25,19,-28
10920,1056,-616,1584,29,19,-27
10925,1112,-520,1528,29,18,-25
10930,1088,-584,1584,32,19,-25
10935,1224,-536,1552,33,20,-23
10940,1128,-536,1496,30,22,-23
10945,1088,-448,1568,26,25,-22
10950,1160,-584,1648,21,26,-23
10955,1096,-560,1568,15,27,-22
10960,1152,-624,1616,9,28,-21
10965,1136,-528,1600,2,28,-21
10970,1136,-600,1560,-5,28,-22
10975,1136,-568,1552,-12,23,-21
10980,1136,-568,1600,-16,20,-22
10985,1128,-536,1592,-19,18,-21
10990,1096,-536,1632,-19,19,-20
10995,1104,-536,1600,-19,18,-21
11000,1128,-536,1600,-18,17,-22
11005,1104,-552,1592,-15,16,-20
11010,1104,-544,1592,-14,15,-21
11015,1144,-584,1536,-8,15,-19
11020,1104,-584,1568,-7,14,-18
11025,1128,-600,1560,-2,10,-17
11030,1120,-544,1552,1,8,-18
11035,1096,-560,1592,5,7,-17
11040,1120,-520,1600,8,7,-17
11045,1112,-560,1560,10,6,-17
11050,1120,-576,1568,12,7,-18
11055,1096,-568,1560,11,8,-19
11060,1104,-576,1576,9,8,-18
11065,1128,-600,1680,7,8,-19
11070,1112,-536,1592,4,10,-21
11075,1104,-560,1584,0,8,-23
11080,1088,-552,1592,-7,-1,-21
11085,1112,-552,1544,-20,-15,-21
11090,1096,-576,1552,-25,-16,-20
11095,1160,-592,1520,-26,-17,-17
11100,1128,-576,1568,-14,-9,-14
11105,1112,-608,1560,4,-4,-12
11110,1104,-616,1560,20,-4,-10
11115,1136,-616,1576,33,-3,-9
11120,1056,-544,1552,41,-2,-10
11125,1120,-592,1544,46,-1,-9
11130,1120,-560,1584,47,2,-8
11135,1112,-560,1552,47,4,-9
11140,1120,-568,1568,44,4,-11
11145,1128,-560,1560,42,4,-14
11150,1128,-560,1592,40,3,-15
11155,1112,-560,1568,37,3,-17
11160,1104,-528,1568,32,0,-19
11165,1128,-552,1576,23,-6,-19
11170,1128,-568,1576,18,0,-20
11175,1120,-584,1576,16,3,-20
11180,1112,-552,1584,18,5,-21
11185,1144,-568,1536,22,7,-22
11190,1128,-560,1560,30,14,-21
11195,1112,-584,1544,38,17,-19
11200,1128,-584,1560,41,16,-19
11205,1112,-528,1560,41,13,-20
11210,1112,-584,1576,36,8,-18
11215,1120,-536,1552,32,10,-17
11220,1120,-592,1552,31,11,-19
11225,1112,-544,1552,30,10,-19
11230,1104,-568,1568,30,12,-19
11235,1120,-560,1568,29,10,-20
11240,1128,-552,1568,27,11,-21
11245,1120,-584,1560,25,13,-21
11250,1136,-560,1568,21,14,-23
11255,1128,-576,1568,18,14,-22
11260,1128,-600,1592,13,14,-22
11265,1072,-544,1560,11,16,-22
11270,1128,-584,1576,2,7,-23
11275,1152,-592,1544,-1,11,-21
11280,1104,-608,1592,7,18,-21
11285,1144,-584,1568,16,18,-19
11290,1128,-584,1560,27,17,-16
11295,1104,-552,1544,36,17,-16
11300,1152,-584,1520,44,17,-14
11305,1112,-560,1552,50,15,-13
11310,1088,-568,1560,50,8,-12
11315,1168,-600,1584,43,-2,-11
11320,1128,-560,1536,45,6,-10
11325,1144,-576,1560,52,12,-7
11330,1136,-584,1528,57,13,-7
11335,1144,-584,1592,58,15,-6
11340,1120,-560,1584,60,17,-8
11345,1136,-568,1568,61,18,-7
11350,1128,-568,1552,59,19,-8
11355,1120,-592,1560,61,19,-7
11360,1128,-584,1560,63,19,-7
11365,1120,-584,1568,66,18,-6
11370,1144,-600,1560,69,17,-5
11375,1096,-568,1544,73,15,-4
11380,1112,-608,1520,75,14,-2
11385,1112,-584,1576,79,15,-4
11390,1096,-576,1568,84,16,-3
11395,1120,-552,1576,89,18,-1
11400,1080,-584,1552,94,21,0
11405,1120,-560,1544,99,25,-1
11410,1080,-584,1552,102,26,2
11415,1120,-576,1560,105,26,0
11420,1120,-568,1592,108,24,2
11425,1096,-584,1584,112,19,2
11430,1112,-560,1576,115,17,2
11435,1120,-568,1536,120,14,1
11440,1096,-552,1552,123,13,1
11445,1152,-616,1520,125,12,4
11450,1128,-568,1560,125,14,3
11455,1120,-560,1568,126,14,6
11460,1128,-560,1560,129,15,7
11465,1120,-576,1568,131,14,4
11470,1136,-552,1584,133,12,5
11475,1104,-568,1552,134,11,7
11480,1120,-544,1584,136,11,6
11485,1120,-576,1552,133,10,6
11490,1136,-560,1592,131,9,8
11495,1160,-552,1608,127,7,9
11500,1128,-616,1608,122,7,7
11505,1104,-552,1584,116,6,4
11510,1128,-560,1568,111,9,2
11515,1112,-560,1592,105,10,1
11520,1112,-528,1600,100,14,-1
11525,1120,-528,1568,95,17,-1
11530,1112,-560,1568,89,20,-3
11535,1112,-544,1568,84,23,-3
11540,1096,-544,1600,78,26,-5
11545,1120,-536,1600,75,29,-8
11550,1152,-528,1608,71,28,-8
11555,1112,-560,1600,69,29,-9
11560,1096,-520,1592,66,29,-9
11565,1136,-544,1592,65,30,-7
11570,1128,-544,1592,63,30,-7
11575,1128,-544,1584,62,29,-6
11580,1120,-544,1584,60,27,-6
11585,1120,-544,1576,59,26,-5
11590,1120,-544,1576,56,25,-6
11595,1144,-568,1592,56,25,-4
11600,1096,-512,1576,57,25,-3
11605,1112,-568,1568,57,22,-2
11610,1112,-592,1568,56,22,-2
11615,1120,-552,1576,56,18,-3
11620,1120,-552,1584,58,16,-1
11625,1136,-552,1592,61,14,-2
11630,1128,-568,1592,61,14,-2
11635,1112,-544,1544,63,14,1
11640,1104,-552,1560,65,12,0
11645,1144,-552,1552,69,13,1
11650,1112,-560,1584,73,13,0
11655,1120,-560,1568,74,12,1
11660,1144,-544,1584,78,10,-1
11665,1112,-600,1576,79,9,-1
11670,1120,-544,1552,80,8,-2
11675,1112,-536,1600,81,10,-1
11680,1128,-552,1552,81,12,-1
11685,1088,-536,1568,82,13,-1
11690,1112,-552,1568,82,13,-1
11695,1088,-552,1584,81,15,0
11700,1096,-560,1592,80,15,1
11705,1104,-552,1560,80,14,1
11710,1096,-560,1592,81,15,2
11715,1104,-568,1584,81,14,1
11720,1112,-592,1608,83,14,1
11725,1112,-560,1568,86,11,0
11730,1104,-568,1560,91,10,0
11735,1112,-560,1552,95,11,0
11740,1112,-560,1552,100,12,1
11745,1112,-544,1576,103,12,3
11750,1104,-544,1568,109,10,3
11755,1096,-536,1600,112,8,4
11760,1104,-560,1568,112,6,3
11765,1112,-560,1592,113,7,2
11770,1104,-576,1592,114,10,4
11775,1104,-568,1576,112,13,4
11780,1112,-552,1576,111,14,7
11785,1104,-568,1600,111,16,8
11790,1112,-560,1624,110,18,7
11795,1104,-568,1592,110,18,6
11800,1112,-536,1600,107,17,5
11805,1128,-552,1616,103,16,6
11810,1120,-528,1584,100,14,9
11815,1136,-560,1592,97,13,6
11820,1128,-584,1560,98,11,7
11825,1120,-544,1576,103,12,7
11830,1152,-552,1560,112,17,12
11835,1144,-544,1544,121,19,15
11840,1128,-544,1536,131,19,19
11845,1120,-520,1560,138,19,21
11850,1144,-528,1568,139,18,24
11855,1120,-520,1544,142,17,26
11860,1136,-496,1528,142,18,28
11865,1112,-528,1560,142,18,31
11870,1104,-528,1568,142,17,33
11875,1160,-504,1560,141,14,31
11880,1104,-512,1552,140,13,30
11885,1104,-520,1584,139,12,29
11890,1120,-528,1584,134,8,27
11895,1104,-536,1592,129,7,28
11900,1136,-528,1600,123,5,26
11905,1096,-536,1592,116,3,26
11910,1104,-552,1600,112,1,25
11915,1120,-520,1584,109,-1,25
11920,1144,-552,1592,111,-5,23
11925,1088,-520,1576,112,-9,21
11930,1136,-536,1592,115,-11,22
11935,1112,-576,1592,122,-15,21
11940,1136,-544,1568,127,-19,22
11945,1120,-552,1568,132,-19,22
11950,1128,-536,1592,133,-18,21
11955,1112,-544,1592,135,-17,20
11960,1120,-552,1592,136,-13,19
11965,1104,-544,1608,136,-8,18
11970,1128,-552,1632,133,-2,19
11975,1096,-528,1600,130,3,18
11980,1128,-536,1592,126,8,15
11985,1104,-520,1552,124,11,14
11990,1096,-536,1552,122,15,12
11995,1136,-520,1552,120,19,12
12000,1128,-528,1592,119,21,9
12005,1104,-512,1568,119,20,10
12010,1120,-520,1616,120,20,8
12015,1104,-504,1592,120,18,7
12020,1104,-480,1592,118,18,6
12025,1096,-504,1600,118,17,6
12030,1096,-512,1576,116,16,6
12035,1088,-496,1568,113,12,6
12040,1136,-536,1624,111,11,7
12045,1088,-520,1568,109,11,6
12050,1112,-512,1608,104,10,6
12055,1128,-536,1600,101,11,8
12060,1112,-528,1624,99,13,6
12065,1112,-512,1592,96,14,7
12070,1120,-520,1608,97,13,9
12075,1120,-528,1624,99,12,8
12080,1072,-504,1600,100,10,9
12085,1096,-512,1616,102,9,11
12090,1104,-512,1608,103,11,10
12095,1136,-528,1600,105,12,10
12100,1064,-576,1536,103,15,10
12105,1104,-520,1592,102,15,11
12110,1104,-536,1568,99,17,10
12115,1096,-536,1584,98,15,10
12120,1072,-512,1584,99,15,11
12125,1096,-536,1584,99,15,12
12130,1120,-520,1576,101,15,12
12135,1080,-512,1576,103,13,12
12140,1112,-528,1584,104,12,15
12145,1104,-504,1552,106,11,16
12150,1088,-520,1600,107,8,18
12155,1064,-512,1552,104,7,18
12160,1088,-480,1616,103,4,18
12165,1112,-512,1608,100,4,17
12170,1104,-496,1592,97,7,18
12175,1104,-488,1616,96,9,18
12180,1104,-520,1616,94,11,17
12185,1112,-512,1592,88,15,15
12190,1088,-504,1624,85,16,14
12195,1136,-520,1624,80,15,11
12200,1080,-520,1648,77,17,9
12205,1136,-512,1640,73,18,7
12210,1096,-504,1608,70,19,5
12215,1104,-504,1592,68,19,4
12220,1104,-528,1640,66,18,2
12225,1104,-512,1640,65,17,-1
12230,1120,-504,1624,62,17,-2
12235,1080,-512,1624,60,16,-2
12240,1120,-520,1576,59,15,-2
12245,1080,-520,1632,57,13,-4
12250,1096,-512,1592,55,12,-3
12255,1096,-520,1616,56,12,-5
12260,1088,-512,1576,57,9,-5
12265,1104,-536,1632,58,7,-6
12270,1104,-496,1576,61,7,-5
12275,1088,-520,1576,60,10,-6
12280,1120,-512,1576,60,11,-6
12285,1088,-512,1600,57,11,-7
12290,1104,-512,1616,54,12,-8
12295,1112,-528,1600,52,12,-10
12300,1096,-496,1560,50,14,-11
12305,1088,-544,1592,47,13,-11
12310,1120,-512,1592,45,14,-12
12315,1096,-512,1584,44,14,-13
12320,1088,-496,1592,44,13,-11
12325,1112,-512,1616,43,12,-12
12330,1112,-520,1592,40,11,-12
12335,1096,-512,1624,39,9,-13
12340,1144,-520,1640,39,6,-13
12345,1120,-528,1600,38,6,-14
12350,1112,-536,1600,37,9,-13
12355,1104,-512,1600,36,11,-16
12360,1128,-536,1648,35,11,-17
12365,1120,-504,1624,33,14,-19
12370,1072,-504,1576,32,17,-19
12375,1088,-504,1600,32,18,-19
12380,1088,-512,1592,31,22,-19
12385,1088,-496,1584,32,23,-17
12390,1104,-528,1568,31,24,-19
12395,1096,-504,1608,33,22,-18
12400,1096,-512,1576,35,22,-18
12405,1072,-512,1552,36,20,-17
12410,1088,-520,1592,36,17,-18
12415,1104,-528,1592,36,14,-20
12420,1120,-520,1608,37,11,-21
12425,1104,-576,1632,34,7,-22
12430,1096,-536,1608,32,5,-23
12435,1144,-512,1592,30,2,-26
12440,1112,-504,1592,27,3,-28
12445,1104,-520,1592,23,3,-29
12450,1120,-520,1584,18,4,-28
12455,1128,-512,1608,13,6,-28
12460,1144,-528,1600,9,8,-31
12465,1128,-528,1632,3,11,-32
12470,1112,-520,1616,-2,16,-30
12475,1104,-520,1632,-6,20,-30
12480,1136,-608,1576,-10,21,-29
12485,1096,-528,1640,-14,20,-26
12490,1088,-504,1624,-16,18,-26
12495,1128,-536,1576,-15,16,-26
12500,1120,-512,1600,-14,13,-24
12505,1112,-528,1584,-11,11,-25
12510,1120,-504,1592,-6,6,-25
12515,1112,-528,1568,-2,1,-25
12520,1120,-528,1576,0,0,-24
12525,1128,-504,1552,1,-1,-23
12530,1120,-544,1592,3,-2,-23
12535,1104,-528,1632,2,-2,-23
12540,1128,-512,1576,1,-2,-24
12545,1104,-544,1600,0,1,-24
12550,1096,-512,1608,-1,4,-25
12555,1112,-520,1576,-2,9,-26
12560,1104,-504,1592,-3,12,-25
12565,1104,-528,1576,-5,15,-25
12570,1104,-536,1600,-6,16,-26
12575,1080,-528,1584,-6,16,-28
12580,1088,-520,1600,-6,17,-27
12585,1112,-520,1568,-7,17,-25
12590,1088,-552,1624,-6,17,-24
12595,1112,-512,1576,-5,18,-23
12600,1088,-512,1616,-6,19,-22
12605,1080,-536,1608,-5,17,-22
12610,1120,-560,1608,-5,16,-21
12615,1104,-544,1576,-4,14,-21
12620,1128,-544,1576,-4,16,-20
12625,1112,-528,1608,-2,16,-19
12630,1112,-544,1600,0,16,-19
12635,1112,-536,1568,1,18,-18
12640,1112,-520,1608,0,19,-17
12645,1104,-544,1616,-1,18,-19
12650,1136,-544,1608,-5,19,-19
12655,1104,-544,1560,-6,17,-15
12660,1112,-536,1568,-9,16,-14
12665,1104,-528,1608,-11,13,-17
12670,1112,-544,1592,-9,9,-19
12675,1112,-544,1600,-9,10,-18
12680,1160,-552,1576,-12,12,-19
12685,1112,-560,1584,-13,15,-19
12690,1104,-552,1568,-15,19,-16
12695,1128,-520,1632,-17,20,-15
12700,1112,-520,1576,-20,20,-12
12705,1120,-544,1568,-22,17,-13
12710,1096,-520,1576,-24,14,-14
12715,1080,-536,1560,-24,12,-13
12720,1112,-528,1560,-21,10,-13
12725,1112,-544,1584,-17,10,-11
12730,1104,-544,1568,-14,8,-10
12735,1088,-544,1632,-10,8,-10
12740,1112,-552,1592,-9,4,-12
12745,1080,-520,1584,-6,2,-11
12750,1088,-552,1576,-5,4,-12
12755,1128,-568,1568,-4,5,-12
12760,1104,-528,1584,-1,8,-12
12765,1120,-552,1576,0,11,-10
12770,1120,-560,1576,3,10,-11
12775,1136,-552,1560,7,8,-11
12780,1152,-536,1592,11,3,-10
12785,1144,-544,1584,17,0,-8
12790,1136,-576,1584,23,-5,-8
12795,1136,-560,1560,27,-7,-7
12800,1080,-544,1560,28,-10,-6
12805,1104,-568,1560,29,-9,-6
12810,1112,-560,1568,29,-9,-6
12815,1112,-560,1592,27,-7,-8
12820,1104,-560,1576,26,-5,-11
12825,1088,-552,1544,25,-2,-11
12830,1104,-544,1600,24,2,-12
12835,1128,-536,1552,23,7,-13
12840,1120,-560,1600,22,9,-16
12845,1120,-552,1584,21,11,-18
12850,1128,-568,1552,20,14,-19
12855,1096,-552,1608,18,15,-20
12860,1120,-520,1560,18,20,-20
12865,1104,-544,1608,17,19,-19
12870,1128,-520,1576,16,21,-20
12875,1112,-552,1608,14,22,-19
12880,1120,-528,1568,13,22,-19
12885,1104,-536,1576,13,22,-17
12890,1112,-544,1592,12,23,-18
12895,1096,-552,1584,10,22,-17
12900,1088,-536,1592,8,19,-17
12905,1112,-568,1576,8,18,-18
12910,1120,-552,1576,8,19,-15
12915,1136,-536,1632,7,20,-16
12920,1120,-552,1576,7,19,-18
12925,1128,-552,1560,10,18,-17
12930,1128,-592,1568,10,17,-19
12935,1112,-552,1584,11,18,-17
12940,1104,-568,1560,13,19,-19
12945,1128,-592,1576,14,20,-20
12950,1096,-544,1576,16,20,-21
12955,1104,-576,1576,17,21,-20
12960,1104,-576,1568,19,22,-18
12965,1104,-552,1568,19,23,-17
12970,1096,-576,1560,21,23,-17
12975,1104,-552,1552,21,24,-16
12980,1104,-544,1560,22,24,-18
12985,1096,-536,1576,22,23,-18
12990,1112,-568,1576,21,23,-18
12995,1096,-536,1584,21,22,-18
13000,1104,-576,1560,19,18,-19
13005,1112,-560,1560,18,15,-19
13010,1120,-568,1568,16,11,-18
13015,1120,-576,1576,14,10,-19
13020,1112,-560,1600,12,10,-19
13025,1120,-552,1552,11,11,-17
13030,1136,-560,1592,9,13,-20
13035,1128,-568,1592,9,16,-19
13040,1112,-568,1552,9,18,-19
13045,1088,-544,1584,5,15,-21
13050,1096,-568,1568,-7,5,-24
13055,1136,-552,1576,-9,6,-24
13060,1120,-552,1600,-6,13,-23
13065,1096,-576,1592,-1,16,-23
13070,1120,-584,1568,5,16,-20
13075,1120,-584,1544,8,14,-20
13080,1104,-592,1576,11,12,-21
13085,1112,-584,1552,13,12,-22
13090,1112,-576,1576,12,14,-23
13095,1104,-568,1560,15,14,-22
13100,1096,-552,1552,13,15,-21
13105,1120,-576,1584,12,17,-21
13110,1120,-576,1584,12,16,-20
13115,1136,-600,1576,12,16,-19
13120,1120,-584,1552,12,16,-18
13125,1104,-560,1568,12,14,-19
13130,1128,-560,1584,13,14,-19
13135,1088,-504,1552,14,14,-18
13140,1112,-568,1584,12,13,-19
13145,1128,-568,1576,11,13,-21
13150,1104,-560,1560,11,15,-20
13155,1112,-560,1576,9,15,-21
13160,1112,-568,1576,0,6,-18
13165,1136,-584,1576,-7,3,-19
13170,1144,-592,1576,-6,7,-21
13175,1120,-592,1584,-2,9,-22
13180,1128,-552,1584,2,8,-22
13185,1120,-568,1552,6,10,-22
13190,1112,-624,1600,7,12,-21
13195,1096,-560,1552,8,13,-20
13200,1112,-552,1544,8,14,-21
13205,1112,-552,1552,8,13,-20
13210,1104,-544,1600,6,14,-20
13215,1128,-608,1552,4,12,-18
13220,1128,-568,1584,4,13,-17
13225,1120,-560,1552,5,15,-14
13230,1096,-576,1568,4,15,-12
13235,1112,-568,1568,0,11,-12
13240,1120,-592,1576,1,7,-12
13245,1120,-592,1544,1,6,-12
13250,1104,-584,1552,2,8,-15
13255,1120,-592,1552,2,13,-17
13260,1144,-576,1568,2,13,-17
13265,1112,-584,1600,2,11,-17
13270,1120,-584,1576,3,13,-18
13275,1120,-592,1584,5,16,-18
13280,1120,-576,1568,7,17,-16
13285,1080,-592,1568,6,16,-16
13290,1144,-584,1576,5,13,-15
13295,1096,-616,1544,5,12,-15
13300,1120,-592,1544,6,12,-14
13305,1120,-584,1576,6,10,-15
13310,1136,-600,1576,8,10,-15
13315,1128,-592,1568,14,8,-14
13320,1128,-584,1528,17,8,-11
13325,1112,-600,1560,22,11,-12
13330,1088,-584,1560,26,15,-12
13335,1112,-568,1568,28,16,-13
13340,1104,-592,1584,28,17,-13
13345,1112,-544,1568,26,14,-14
13350,1144,-552,1544,20,9,-12
13355,1120,-592,1560,14,6,-12
13360,1128,-584,1576,16,7,-10
13365,1144,-600,1560,18,8,-9
13370,1120,-568,1576,25,9,-8
13375,1120,-592,1560,32,12,-8
13380,1128,-600,1544,39,11,-7
13385,1112,-576,1560,44,8,-6
13390,1136,-632,1584,45,4,-4
13395,1120,-608,1568,42,1,-3
13400,1120,-592,1576,44,4,-3
13405,1152,-584,1560,50,6,-4
13410,1136,-616,1552,55,8,-3
13415,1104,-600,1560,63,7,-1
13420,1120,-584,1560,66,7,0
13425,1104,-552,1544,67,7,-1
13430,1120,-608,1552,71,6,0
13435,1096,-592,1560,74,6,3
13440,1104,-584,1536,78,7,3
13445,1136,-592,1512,81,8,4
13450,1120,-592,1552,84,8,2
13455,1136,-592,1512,83,8,3
13460,1072,-608,1520,86,9,1
13465,1112,-584,1536,89,10,0
13470,1136,-584,1544,89,13,1
13475,1120,-592,1544,87,14,1
13480,1120,-608,1576,85,14,3
13485,1128,-584,1576,81,14,1
13490,1136,-584,1592,79,14,2
13495,1112,-584,1568,79,13,0
13500,1128,-600,1536,78,13,0
13505,1136,-616,1544,79,14,0
13510,1096,-576,1536,83,14,-1
13515,1136,-568,1568,86,15,0
13520,1112,-600,1568,89,16,1
13525,1128,-568,1536,93,16,0
13530,1104,-576,1552,96,16,1
13535,1128,-584,1544,98,15,1
13540,1112,-584,1560,102,16,3
13545,1120,-576,1576,106,16,3
13550,1096,-576,1568,109,16,3
13555,1112,-560,1560,111,16,2
13560,1096,-576,1592,112,15,1
13565,1104,-552,1568,112,16,1
13570,1096,-592,1560,109,16,2
13575,1104,-568,1584,105,15,3
13580,1112,-592,1552,102,13,1
13585,1104,-568,1568,99,12,2
13590,1120,-608,1584,96,11,3
13595,1120,-592,1552,95,10,4
13600,1104,-560,1560,94,9,3
13605,1112,-576,1568,96,7,4
13610,1136,-584,1568,98,6,5
13615,1120,-584,1544,99,5,5
13620,1112,-576,1552,102,3,7
13625,1080,-584,1576,105,3,9
13630,1120,-600,1576,105,3,8
13635,1128,-576,1584,105,1,6
13640,1096,-592,1576,105,2,5
13645,1104,-576,1560,103,4,6
13650,1112,-584,1576,101,7,4
13655,1120,-552,1576,99,11,4
13660,1112,-584,1568,97,14,4
13665,1104,-552,1584,96,15,5
13670,1120,-592,1544,97,15,5
13675,1128,-544,1592,99,13,5
13680,1120,-528,1552,102,12,5
13685,1120,-576,1552,103,11,6
13690,1112,-552,1568,105,10,7
13695,1112,-560,1576,106,11,5
13700,1136,-584,1552,105,12,5
13705,1120,-568,1584,106,10,5
13710,1096,-592,1568,105,10,5
13715,1128,-568,1560,102,13,4
13720,1128,-608,1576,100,14,2
13725,1088,-576,1624,98,16,2
13730,1120,-552,1592,96,18,-1
13735,1112,-600,1568,97,18,1
13740,1112,-560,1568,98,20,-1
13745,1120,-584,1576,101,21,-1
13750,1104,-560,1584,105,21,2
13755,1112,-568,1568,108,19,1
13760,1088,-552,1560,112,17,0
13765,1096,-592,1608,117,15,0
13770,1120,-576,1552,123,14,1
13775,1120,-560,1560,126,13,4
13780,1136,-576,1552,131,12,2
13785,1128,-560,1568,133,11,3
13790,1120,-568,1544,136,10,3
13795,1128,-576,1560,137,10,3
13800,1112,-568,1584,138,10,2
13805,1096,-552,1576,137,10,2
13810,1112,-520,1560,138,11,1
13815,1128,-568,1584,135,13,3
13820,1088,-536,1552,130,16,3
13825,1144,-560,1584,124,17,4
13830,1096,-552,1568,120,16,5
13835,1144,-552,1560,116,14,5
13840,1136,-544,1600,112,10,5
13845,1104,-544,1584,110,9,6
13850,1128,-544,1568,108,8,6
13855,1120,-552,1584,108,9,5
13860,1128,-552,1568,108,9,6
13865,1088,-568,1592,109,12,6
13870,1104,-560,1560,110,14,7
13875,1112,-560,1616,113,14,7
13880,1112,-560,1560,117,15,6
13885,1136,-560,1576,119,15,5
13890,1120,-560,1552,120,14,3
13895,1136,-528,1536,121,16,2
13900,1104,-536,1568,120,16,3
13905,1112,-560,1600,118,14,1
13910,1128,-568,1592,114,11,0
13915,1120,-552,1560,111,10,-2
13920,1120,-552,1584,106,10,-3
13925,1104,-576,1600,101,10,-3
13930,1112,-552,1576,98,12,-7
13935,1120,-568,1616,95,11,-5
13940,1120,-568,1568,92,13,-3
13945,1120,-528,1576,91,18,-4
13950,1104,-528,1592,90,19,-3
13955,1120,-552,1592,91,20,-5
13960,1104,-528,1560,89,20,-4
13965,1104,-528,1584,88,18,-1
13970,1104,-528,1616,87,17,-1
13975,1120,-536,1560,88,17,0
13980,1120,-536,1600,88,16,2
13985,1128,-544,1584,87,13,3
13990,1104,-528,1592,85,12,4
13995,1128,-536,1608,85,10,4
14000,1160,-528,1576,84,10,4
14005,1104,-536,1592,82,8,4
14010,1064,-528,1608,82,7,5
14015,1112,-544,1592,82,9,4
14020,1128,-552,1568,80,10,2
14025,1136,-536,1592,78,9,1
14030,1096,-544,1592,76,10,0
14035,1112,-552,1576,75,11,0
14040,1104,-520,1584,74,11,-1
14045,1112,-504,1584,74,14,-3
14050,1136,-536,1584,76,14,-4
14055,1104,-520,1616,76,17,-2
14060,1064,-568,1624,78,17,-2
14065,1112,-512,1608,78,17,-3
14070,1112,-520,1592,78,17,-2
14075,1104,-536,1584,81,15,-1
14080,1104,-544,1592,81,13,-2
14085,1120,-544,1584,82,11,-2
14090,1072,-520,1608,83,9,-4
14095,1104,-544,1584,81,8,-4
14100,1096,-528,1568,83,7,-3
14105,1120,-560,1616,82,6,-3
14110,1080,-536,1584,83,6,-2
14115,1096,-512,1624,85,4,-2
14120,1104,-560,1584,88,4,-2
14125,1112,-536,1568,91,4,-4
14130,1104,-544,1584,92,6,-3
14135,1104,-528,1576,94,7,-3
14140,1120,-520,1616,96,10,-5
14145,1104,-552,1608,97,13,-7
14150,1112,-560,1600,99,14,-8
14155,1112,-536,1576,99,13,-9
14160,1104,-544,1576,101,10,-8
14165,1104,-528,1624,100,9,-7
14170,1112,-544,1624,100,9,-7
14175,1096,-528,1600,101,8,-5
14180,1112,-536,1592,102,8,-6
14185,1088,-520,1600,103,9,-5
14190,1112,-512,1568,103,10,-4
14195,1120,-536,1616,102,10,-4
14200,1120,-552,1576,101,7,-2
14205,1104,-528,1616,101,7,-1
14210,1096,-520,1608,100,5,-1
14215,1112,-512,1576,99,4,-1
14220,1128,-552,1568,99,3,-1
14225,1088,-528,1608,99,2,-3
14230,1104,-512,1592,99,3,-2
14235,1112,-512,1608,99,3,-3
14240,1104,-528,1616,99,2,-3
14245,1096,-512,1600,96,1,-4
14250,1104,-512,1600,94,1,-3
14255,1088,-536,1568,92,2,-4
14260,1112,-560,1608,90,5,-4
14265,1136,-544,1624,88,6,-4
14270,1104,-528,1624,86,7,-6
14275,1120,-536,1584,85,8,-6
14280,1080,-568,1600,83,12,-9
14285,1104,-528,1584,81,14,-9
14290,1120,-528,1592,82,14,-8
14295,1096,-512,1584,81,14,-6
14300,1088,-512,1584,81,14,-6
14305,1120,-520,1568,82,12,-4
14310,1120,-528,1600,84,11,-3
14315,1104,-528,1600,84,9,-1
14320,1136,-544,1592,86,8,-3
14325,1128,-528,1584,86,9,-3
14330,1104,-544,1560,85,11,-5
14335,1120,-520,1616,83,12,-4
14340,1120,-520,1600,79,12,-4
14345,1136,-520,1600,74,12,-6
14350,1120,-520,1592,70,13,-5
14355,1120,-512,1624,66,15,-6
14360,1096,-504,1584,63,14,-5
14365,1080,-504,1592,63,15,-7
14370,1104,-496,1592,62,17,-8
14375,1088,-536,1600,64,17,-7
14380,1128,-528,1576,65,18,-8
14385,1112,-544,1608,68,18,-8
14390,1080,-512,1624,69,18,-6
14395,1112,-536,1568,72,19,-8
14400,1128,-512,1560,75,19,-8
14405,1112,-520,1584,76,20,-7
14410,1096,-536,1592,80,19,-6
14415,1096,-512,1600,82,17,-4
14420,1136,-528,1592,88,16,-1
14425,1088,-528,1584,91,11,1
14430,1144,-536,1560,97,7,2
14435,1112,-512,1576,100,1,4
14440,1080,-536,1592,105,-6,5
14445,1112,-528,1592,107,-11,4
14450,1144,-504,1584,107,-13,3
14455,1128,-520,1608,105,-14,2
14460,1120,-520,1592,102,-13,0
14465,1080,-528,1592,97,-11,0
14470,1112,-520,1584,93,-9,-1
14475,1096,-504,1600,90,-2,-1
14480,1104,-520,1592,87,2,-1
14485,1096,-520,1616,86,6,-2
14490,1104,-512,1640,88,8,-3
14495,1144,-504,1600,92,11,-2
14500,1104,-512,1584,95,13,-2
14505,1112,-504,1608,97,13,-2
14510,1104,-512,1592,100,15,-3
14515,1104,-504,1568,103,13,-3
14520,1096,-504,1592,104,13,-3
14525,1104,-496,1592,103,14,-4
14530,1096,-520,1624,103,15,-4
14535,1112,-520,1616,99,14,-4
14540,1088,-504,1568,95,15,-3
14545,1112,-512,1592,92,17,-5
14550,1112,-552,1608,87,18,-4
14555,1096,-504,1592,83,19,-4
14560,1112,-520,1608,78,20,-4
14565,1120,-512,1624,75,19,-2
14570,1104,-520,1664,74,16,-3
14575,1112,-512,1584,73,13,-4
14580,1096,-512,1608,73,9,-3
14585,1104,-512,1616,73,6,-4
14590,1136,-504,1640,73,2,-4
14595,1112,-520,1608,74,0,-4
14600,1120,-520,1616,76,0,-4
14605,1088,-504,1568,79,2,-5
14610,1128,-520,1600,80,2,-6
14615,1096,-504,1592,80,3,-6
14620,1104,-512,1560,81,4,-7
14625,1112,-504,1600,81,3,-8
14630,1080,-512,1592,82,6,-6
14635,1112,-512,1608,82,8,-7
14640,1128,-488,1608,82,9,-5
14645,1128,-520,1576,82,8,-2
14650,1112,-496,1640,83,8,-3
14655,1104,-528,1616,82,8,-5
14660,1096,-488,1608,80,10,-5
14665,1128,-520,1600,76,10,-7
14670,1120,-512,1600,73,12,-6
14675,1112,-520,1608,70,16,-7
14680,1112,-504,1600,68,20,-6
14685,1104,-520,1624,66,22,-7
14690,1120,-512,1624,62,24,-6
14695,1136,-512,1600,59,25,-6
14700,1136,-520,1584,56,26,-10
14705,1128,-504,1592,56,25,-8
14710,1088,-504,1568,58,24,-10
14715,1096,-512,1616,59,25,-10
14720,1096,-496,1560,63,26,-10
14725,1096,-488,1584,66,24,-10
14730,1120,-496,1592,70,24,-7
14735,1128,-504,1592,74,22,-8
14740,1088,-496,1584,77,21,-7
14745,1104,-496,1576,79,17,-7
14750,1120,-520,1616,79,13,-6
14755,1096,-480,1584,77,11,-5
14760,1112,-512,1600,74,10,-6
14765,1096,-512,1632,68,12,-6
14770,1104,-480,1592,61,13,-5
14775,1144,-504,1592,57,14,-5
14780,1112,-504,1600,52,15,-5
14785,1112,-512,1616,49,15,-6
14790,1104,-504,1616,50,17,-4
14795,1112,-528,1616,51,17,-4
14800,1096,-512,1560,52,16,-5
14805,1136,-520,1584,55,15,-6
14810,1104,-520,1584,59,15,-8
14815,1128,-496,1624,63,15,-9
14820,1136,-504,1552,65,14,-7
14825,1120,-504,1576,68,15,-7
14830,1128,-536,1624,69,15,-7
14835,1112,-504,1624,68,12,-8
14840,1112,-504,1616,64,11,-8
14845,1104,-512,1648,59,10,-9
14850,1120,-504,1608,53,11,-9
14855,1112,-512,1632,45,13,-9
14860,1128,-520,1656,38,14,-9
14865,1096,-496,1616,32,16,-12
14870,1112,-512,1648,28,15,-13
14875,1128,-504,1608,24,18,-13
14880,1096,-504,1592,22,20,-13
14885,1104,-496,1632,21,21,-12
14890,1128,-520,1584,22,21,-13
14895,1096,-512,1568,24,23,-13
14900,1096,-496,1616,25,24,-11
14905,1096,-504,1616,26,22,-13
14910,1128,-520,1624,28,22,-14
14915,1096,-504,1616,29,20,-17
14920,1104,-520,1600,28,20,-16
14925,1112,-536,1624,27,20,-17
14930,1096,-536,1616,25,19,-19
14935,1104,-512,1576,21,19,-19
14940,1112,-520,1592,20,17,-18
14945,1128,-504,1608,15,17,-20
14950,1104,-496,1616,11,19,-20
14955,1120,-520,1584,10,19,-19
14960,1112,-520,1576,9,18,-20
14965,1112,-512,1568,9,20,-20
14970,1112,-504,1592,9,21,-19
14975,1104,-504,1576,8,22,-19
14980,1112,-504,1584,8,23,-18
14985,1096,-552,1624,8,21,-18
14990,1096,-512,1592,7,20,-21
