timestamp,accel_x,accel_y,accel_z,gyro_x,gyro_y,gyro_z
0,-96,-1936,-400,48,15,-6
5,-64,-1912,-392,47,18,-5
10,-56,-1928,-408,45,17,-5
15,-64,-1936,-400,42,17,-7
20,-48,-1960,-416,40,17,-6
25,-72,-1960,-408,39,19,-6
30,-72,-1952,-384,39,21,-6
35,-80,-1968,-408,41,22,-5
40,-88,-1936,-376,44,22,-7
45,-80,-1952,-392,45,23,-9
50,-72,-1944,-424,47,25,-7
55,-64,-1952,-392,46,24,-5
60,-112,-1944,-408,45,26,-5
65,-80,-1912,-400,43,25,-5
70,-88,-1928,-384,41,25,-5
75,-72,-1952,-400,40,25,-3
80,-88,-1936,-448,38,25,-6
85,-104,-1952,-384,38,25,-6
90,-64,-1936,-448,39,23,-5
95,-104,-1960,-400,41,24,-6
100,-80,-1968,-416,42,24,-6
105,-96,-1920,-416,43,23,-6
110,-80,-1944,-408,45,23,-5
115,-80,-1944,-448,48,22,-6
120,-88,-1960,-424,48,22,-7
125,-96,-1952,-416,47,20,-6
130,-96,-1936,-416,45,19,-7
135,-80,-1944,-400,43,19,-8
140,-96,-1920,-392,43,17,-7
145,-72,-1968,-416,42,17,-9
150,-96,-1968,-424,43,15,-8
155,-80,-1928,-416,44,15,-7
160,-88,-1944,-440,46,14,-8
165,-72,-1944,-408,47,13,-8
170,-104,-1944,-416,48,12,-8
175,-88,-1944,-432,50,8,-7
180,-112,-1944,-416,52,8,-8
185,-112,-1968,-408,53,7,-8
190,-88,-1952,-392,55,7,-9
195,-88,-1928,-448,56,6,-9
200,-72,-1944,-416,58,5,-10
205,-72,-1944,-416,57,6,-12
210,-88,-1912,-392,56,6,-12
215,-24,-1928,-440,54,6,-12
220,-80,-1928,-432,52,6,-12
225,-64,-1936,-416,51,6,-10
230,-72,-1920,-432,48,7,-10
235,-80,-1960,-408,49,7,-10
240,-48,-1928,-424,48,7,-10
245,-80,-1928,-400,49,7,-10
250,-80,-1928,-400,49,7,-9
255,-72,-1936,-408,48,7,-9
260,-64,-1944,-384,47,8,-9
265,-64,-1944,-432,48,9,-8
270,-40,-1928,-408,46,10,-9
275,-72,-1944,-416,45,12,-12
280,-88,-1920,-384,45,11,-10
285,-72,-1920,-416,46,10,-10
290,-96,-1944,-456,47,11,-10
295,-80,-1952,-424,48,13,-10
300,-80,-1960,-416,48,14,-10
305,-56,-1936,-416,47,13,-11
310,-64,-1944,-400,45,14,-11
315,-88,-1928,-400,45,13,-9
320,-64,-1936,-384,47,13,-9
325,-96,-1952,-424,48,14,-9
330,-64,-1968,-416,49,14,-8
335,-72,-1960,-432,50,14,-7
340,-80,-1944,-432,49,12,-6
345,-72,-1912,-392,49,13,-7
350,-96,-1936,-432,50,13,-7
355,-88,-1952,-424,51,15,-8
360,-96,-1920,-384,49,17,-8
365,-80,-1952,-408,51,15,-10
370,-80,-1952,-368,51,15,-10
375,-88,-1928,-408,52,15,-11
380,-80,-1952,-392,53,14,-13
385,-80,-1928,-408,52,14,-13
390,-88,-1944,-408,51,13,-14
395,-80,-1952,-416,49,14,-12
400,-96,-1928,-416,45,13,-14
405,-72,-1920,-400,44,12,-13
410,-72,-1944,-416,42,11,-13
415,-88,-1928,-424,42,11,-13
420,-88,-1944,-416,43,11,-12
425,-64,-1952,-408,42,10,-11
430,-96,-1920,-416,42,10,-11
435,-88,-1936,-432,41,10,-9
440,-72,-1928,-392,43,11,-9
445,-72,-1936,-408,45,13,-10
450,-80,-1944,-400,48,11,-7
455,-72,-1904,-424,49,13,-8
460,-72,-1920,-416,49,14,-9
465,-88,-1936,-416,47,14,-9
470,-96,-1920,-408,43,13,-8
475,-88,-1928,-416,39,13,-9
480,-48,-1936,-416,36,13,-11
485,-80,-1936,-440,33,13,-9
490,-64,-1944,-416,32,12,-10
495,-104,-1936,-416,31,12,-10
500,-96,-1944,-424,31,14,-12
505,-96,-1936,-408,32,13,-13
510,-88,-1944,-408,34,15,-11
515,-96,-1928,-400,36,15,-10
520,-112,-1952,-416,39,14,-10
525,-80,-1968,-424,41,12,-9
530,-88,-1936,-432,43,13,-8
535,-80,-1928,-432,43,13,-9
540,-80,-1944,-456,42,11,-10
545,-96,-1928,-416,40,10,-11
550,-96,-1968,-440,39,9,-12
555,-80,-1936,-424,38,10,-12
560,-104,-1944,-432,37,10,-13
565,-96,-1960,-424,36,10,-14
570,-104,-1920,-424,37,12,-13
575,-64,-1952,-416,35,13,-13
580,-88,-1944,-408,35,13,-12
585,-88,-1944,-416,34,14,-13
590,-104,-1952,-432,35,13,-12
595,-88,-1920,-392,38,11,-12
600,-64,-1904,-456,41,11,-13
605,-88,-1944,-384,44,13,-9
610,-96,-1928,-432,46,15,-9
615,-88,-1920,-416,49,16,-10
620,-80,-1944,-424,51,15,-10
625,-88,-1944,-400,52,14,-10
630,-88,-1912,-432,52,13,-11
635,-96,-1928,-432,51,14,-11
640,-88,-1936,-408,49,14,-12
645,-72,-1968,-424,45,13,-12
650,-88,-1944,-408,43,10,-13
655,-104,-1912,-424,41,8,-12
660,-96,-1928,-400,40,8,-13
665,-96,-1928,-440,41,8,-12
670,-96,-1928,-424,43,9,-11
675,-64,-1944,-424,43,8,-13
680,-88,-1904,-408,41,8,-11
685,-80,-1944,-424,41,8,-9
690,-88,-1960,-432,41,8,-9
695,-88,-1960,-408,44,9,-10
700,-88,-1952,-432,45,8,-11
705,-88,-1928,-408,48,9,-12
710,-88,-1928,-432,50,8,-13
715,-88,-1936,-432,48,7,-13
720,-88,-1928,-432,50,7,-14
725,-64,-1984,-352,50,7,-14
730,-72,-1928,-440,50,6,-13
735,-104,-1912,-448,49,6,-13
740,-88,-1936,-416,48,6,-14
745,-96,-1904,-432,46,7,-13
750,-80,-1936,-440,46,7,-12
755,-88,-1920,-408,45,5,-12
760,-80,-1944,-408,44,3,-11
765,-88,-1920,-440,44,1,-11
770,-88,-1928,-416,43,1,-13
775,-88,-1968,-416,44,-2,-11
780,-80,-1928,-392,44,-2,-13
785,-80,-1936,-448,45,0,-10
790,-80,-1928,-440,46,2,-10
795,-80,-1936,-384,47,4,-10
800,-88,-1928,-432,47,4,-10
805,-88,-1928,-392,48,3,-9
810,-96,-1944,-408,47,3,-10
815,-104,-1928,-424,46,1,-10
820,-96,-1960,-424,47,1,-12
825,-72,-1952,-416,48,1,-11
830,-80,-1936,-416,52,2,-12
835,-112,-1944,-408,54,0,-15
840,-104,-1944,-408,58,0,-16
845,-88,-1960,-416,60,-1,-15
850,-104,-1936,-376,60,0,-13
855,-112,-1928,-384,60,-1,-15
860,-80,-1952,-424,61,-2,-14
865,-104,-1920,-400,61,-4,-13
870,-104,-1920,-416,60,-6,-13
875,-88,-1960,-392,58,-7,-12
880,-96,-1920,-440,56,-7,-12
885,-88,-1920,-440,54,-7,-9
890,-56,-1928,-408,51,-8,-8
895,-88,-1928,-432,50,-7,-9
900,-48,-1944,-448,48,-5,-9
905,-80,-1928,-424,45,-3,-10
910,-48,-1920,-376,42,-1,-11
915,-72,-1944,-392,39,1,-10
920,-80,-1928,-424,36,2,-12
925,-72,-1928,-408,35,3,-11
930,-88,-1928,-416,34,5,-12
935,-72,-1936,-400,33,7,-9
940,-104,-1976,-328,34,6,-11
945,-64,-1928,-392,36,6,-11
950,-72,-1976,-408,38,7,-12
955,-104,-1944,-408,41,8,-10
960,-80,-1952,-392,44,8,-10
965,-96,-1944,-376,45,8,-9
970,-64,-1944,-408,46,9,-8
975,-80,-1944,-432,48,10,-6
980,-72,-1936,-424,50,11,-7
985,-72,-1952,-448,54,11,-7
990,-48,-1960,-432,54,11,-6
995,-96,-1944,-424,57,12,-4
1000,-80,-1936,-448,58,12,-6
1005,-88,-1960,-416,57,12,-8
1010,-88,-1936,-408,58,12,-8
1015,-64,-1952,-424,57,13,-8
1020,-80,-1944,-416,56,14,-9
1025,-64,-1912,-448,55,14,-8
1030,-64,-1944,-392,54,13,-10
1035,-72,-1944,-408,53,12,-11
1040,-96,-1968,-432,53,13,-11
1045,-80,-1936,-408,55,14,-11
1050,-88,-1960,-416,57,14,-12
1055,-80,-1968,-392,58,14,-12
1060,-88,-1952,-424,61,14,-11
1065,-80,-1944,-424,61,11,-10
1070,-88,-1920,-408,61,9,-8
1075,-96,-1928,-448,58,9,-8
1080,-96,-1920,-432,58,11,-7
1085,-64,-1912,-432,56,11,-8
1090,-96,-1912,-416,57,10,-8
1095,-96,-1904,-400,57,9,-10
1100,-112,-1928,-432,54,7,-10
1105,-96,-1912,-408,54,7,-9
1110,-80,-1912,-424,50,8,-10
1115,-96,-1896,-416,47,7,-10
1120,-72,-1944,-440,43,6,-10
1125,-80,-1928,-392,39,5,-10
1130,-88,-1912,-400,36,4,-11
1135,-72,-1944,-416,36,4,-10
1140,-112,-1928,-448,36,5,-10
1145,-56,-1976,-424,37,5,-11
1150,-88,-1952,-408,36,6,-11
1155,-72,-1952,-432,38,8,-10
1160,-96,-1944,-432,39,7,-10
1165,-72,-1928,-440,37,7,-11
1170,-80,-1968,-424,36,8,-10
1175,-80,-1968,-448,34,8,-10
1180,-80,-1968,-416,38,9,-9
1185,-64,-1960,-448,43,9,-10
1190,-88,-1936,-416,50,10,-10
1195,-72,-1936,-408,55,10,-9
1200,-56,-1952,-392,56,12,-10
1205,-64,-1944,-432,56,12,-10
1210,-96,-1928,-408,56,12,-10
1215,-88,-1936,-480,58,11,-9
1220,-72,-1944,-416,59,13,-10
1225,-64,-1952,-400,62,13,-8
1230,-96,-1928,-416,65,15,-10
1235,-72,-1944,-416,68,14,-8
1240,-88,-1936,-416,66,14,-7
1245,-88,-1936,-400,62,14,-9
1250,-88,-1944,-408,55,13,-10
1255,-96,-1952,-408,49,12,-10
1260,-72,-1952,-432,48,11,-9
1265,-88,-1936,-432,48,13,-9
1270,-80,-1944,-424,49,14,-10
1275,-120,-1960,-440,50,13,-10
1280,-88,-1896,-432,52,13,-9
1285,-88,-1936,-424,53,13,-8
1290,-104,-1944,-416,54,14,-10
1295,-88,-1928,-392,55,15,-9
1300,-88,-1944,-408,56,15,-9
1305,-80,-1928,-440,57,15,-10
1310,-80,-1936,-440,57,15,-12
1315,-80,-1944,-440,58,16,-12
1320,-64,-1976,-448,58,15,-11
1325,-96,-1936,-416,58,16,-11
1330,-80,-1928,-416,56,16,-11
1335,-80,-1920,-408,53,15,-11
1340,-96,-1944,-392,54,15,-9
1345,-88,-1952,-416,55,16,-8
1350,-56,-1936,-440,54,15,-9
1355,-80,-1944,-440,54,14,-11
1360,-80,-1944,-384,52,14,-10
1365,-104,-1904,-416,50,13,-9
1370,-80,-1936,-416,48,11,-10
1375,-88,-1944,-376,48,10,-11
1380,-80,-1936,-408,48,12,-12
1385,-88,-1944,-432,45,11,-13
1390,-80,-1952,-448,44,11,-13
1395,-104,-1936,-392,44,10,-13
1400,-64,-1952,-400,45,10,-13
1405,-88,-1936,-408,45,11,-14
1410,-56,-1952,-440,48,10,-13
1415,-72,-1944,-408,51,11,-14
1420,-88,-1912,-424,55,11,-13
1425,-112,-1912,-424,57,11,-15
1430,-80,-1920,-432,57,10,-14
1435,-64,-1928,-440,55,10,-14
1440,-64,-1928,-440,54,8,-13
1445,-88,-1944,-440,52,8,-13
1450,-96,-1976,-424,52,9,-13
1455,-72,-1952,-424,52,10,-12
1460,-96,-1944,-440,54,11,-11
1465,-80,-1952,-400,55,11,-11
1470,-72,-1960,-384,56,11,-9
1475,-88,-1952,-408,58,12,-9
1480,-80,-1960,-408,60,11,-11
1485,-72,-1960,-368,61,13,-11
1490,-80,-1944,-408,60,12,-12
1495,-72,-1928,-400,60,13,-13
1500,-64,-1920,-416,61,14,-13
1505,-64,-1936,-408,61,14,-13
1510,-64,-1928,-384,62,15,-14
1515,-72,-1936,-408,62,16,-15
1520,-72,-1928,-408,59,16,-13
1525,-80,-1960,-424,57,15,-12
1530,-80,-1912,-424,55,15,-13
1535,-80,-1944,-416,52,16,-12
1540,-88,-1928,-392,49,17,-14
1545,-64,-1960,-424,47,16,-14
1550,-80,-1944,-424,46,16,-14
1555,-72,-1952,-440,48,16,-13
1560,-72,-1952,-408,49,16,-11
1565,-72,-1952,-400,51,16,-11
1570,-80,-1928,-408,52,19,-12
1575,-64,-1944,-392,51,21,-10
1580,-80,-1912,-416,52,22,-9
1585,-104,-1928,-400,51,22,-9
1590,-80,-1944,-432,48,22,-10
1595,-56,-1952,-424,45,22,-11
1600,-80,-1960,-416,39,22,-11
1605,-80,-1952,-424,36,22,-12
1610,-72,-1936,-408,34,22,-11
1615,-80,-1920,-424,35,21,-10
1620,-72,-1960,-392,38,22,-12
1625,-104,-1960,-416,40,22,-11
1630,-64,-1960,-408,40,22,-11
1635,-96,-1936,-416,43,23,-11
1640,-72,-1936,-424,44,23,-12
1645,-88,-1928,-424,46,23,-9
1650,-104,-1952,-416,45,23,-9
1655,-88,-1928,-400,45,22,-10
1660,-88,-1928,-424,45,23,-12
1665,-72,-1944,-384,45,23,-12
1670,-80,-1912,-424,46,22,-11
1675,-88,-1936,-432,43,22,-10
1680,-64,-1928,-432,43,21,-10
1685,-72,-1928,-416,41,22,-10
1690,-88,-1920,-432,41,22,-10
1695,-72,-1952,-400,42,22,-9
1700,-64,-1888,-456,44,22,-9
1705,-88,-1928,-432,46,21,-7
1710,-80,-1936,-448,47,20,-8
1715,-104,-1928,-416,47,20,-6
1720,-88,-1912,-408,45,20,-7
1725,-72,-1960,-440,44,18,-9
1730,-64,-1928,-416,43,18,-8
1735,-72,-1936,-408,43,20,-8
1740,-56,-1928,-432,42,20,-9
1745,-72,-1936,-400,39,21,-10
1750,-104,-1904,-432,38,22,-10
1755,-64,-1928,-432,35,22,-9
1760,-64,-1928,-432,35,23,-9
1765,-64,-1944,-416,35,22,-8
1770,-80,-1952,-456,38,25,-9
1775,-72,-1928,-424,40,26,-8
1780,-72,-1952,-400,41,27,-8
1785,-64,-1936,-432,42,26,-7
1790,-88,-1952,-432,42,25,-8
1795,-80,-1936,-432,42,26,-6
1800,-64,-1944,-432,43,29,-8
1805,-80,-1928,-416,44,27,-8
1810,-80,-1952,-448,46,29,-10
1815,-88,-1920,-416,46,28,-8
1820,-72,-1944,-416,47,26,-7
1825,-88,-1936,-416,47,26,-8
1830,-96,-1936,-408,48,26,-7
1835,-96,-1928,-400,49,25,-9
1840,-120,-1920,-448,47,26,-9
1845,-96,-1936,-432,45,24,-11
1850,-96,-1928,-424,41,23,-10
1855,-64,-1928,-440,38,21,-11
1860,-88,-1944,-416,33,18,-10
1865,-80,-1936,-448,30,17,-9
1870,-96,-1944,-416,31,16,-11
1875,-88,-1944,-416,33,14,-11
1880,-80,-1944,-456,35,14,-11
1885,-88,-1944,-400,38,12,-11
1890,-96,-1920,-424,40,12,-12
1895,-80,-1944,-448,42,13,-12
1900,-104,-1936,-440,43,12,-12
1905,-96,-1936,-448,43,12,-12
1910,-80,-1936,-440,43,10,-11
1915,-72,-1944,-440,42,9,-13
1920,-96,-1912,-424,42,10,-13
1925,-64,-1928,-424,43,11,-13
1930,-80,-1936,-432,42,10,-14
1935,-48,-1936,-456,41,9,-14
1940,-32,-1944,-448,40,8,-13
1945,-88,-1936,-432,39,8,-14
1950,-72,-1952,-448,39,8,-14
1955,-72,-1952,-448,39,7,-14
1960,-88,-1952,-424,41,6,-14
1965,-88,-1952,-424,42,7,-14
1970,-88,-1944,-456,43,7,-12
1975,-80,-1960,-424,46,8,-12
1980,-104,-1944,-408,48,7,-12
1985,-56,-1936,-424,49,7,-11
1990,-80,-1936,-432,50,8,-10
1995,-72,-1928,-432,50,8,-11
2000,-72,-1936,-456,48,8,-12
2005,-56,-1920,-416,48,9,-13
2010,-72,-1912,-432,46,9,-13
2015,-72,-1936,-424,45,10,-14
2020,-80,-1944,-448,45,10,-12
2025,-80,-1920,-432,44,10,-11
2030,-64,-1936,-440,43,11,-10
2035,-72,-1936,-448,44,11,-11
2040,-64,-1936,-448,47,13,-11
2045,-80,-1936,-440,48,11,-10
2050,-96,-1928,-424,48,13,-11
2055,-88,-1928,-424,50,13,-10
2060,-48,-1952,-440,51,12,-10
2065,-80,-1960,-432,51,13,-11
2070,-88,-1920,-432,52,13,-10
2075,-80,-1920,-432,52,14,-12
2080,-72,-1936,-424,50,14,-10
2085,-72,-1952,-416,50,15,-10
2090,-96,-1920,-440,49,15,-12
2095,-80,-1944,-440,49,14,-12
2100,-104,-1944,-424,47,14,-14
2105,-80,-1952,-416,47,14,-14
2110,-72,-1952,-424,47,13,-13
2115,-72,-1952,-448,49,14,-12
2120,-64,-1928,-440,51,14,-12
2125,-96,-1952,-424,53,15,-10
2130,-96,-1960,-456,58,15,-9
2135,-112,-1952,-432,60,13,-8
2140,-104,-1928,-432,62,13,-9
2145,-88,-1936,-448,63,13,-11
2150,-80,-1896,-432,64,13,-10
2155,-88,-1920,-424,62,13,-8
2160,-80,-1928,-440,60,13,-10
2165,-72,-1904,-456,58,13,-9
2170,-80,-1920,-448,56,13,-8
2175,-72,-1920,-424,54,13,-10
2180,-56,-1928,-480,55,14,-9
2185,-88,-1928,-440,56,17,-9
2190,-72,-1952,-440,55,17,-8
2195,-56,-1960,-472,54,18,-7
2200,-80,-1928,-416,53,17,-7
2205,-64,-1928,-416,53,17,-8
2210,-80,-1936,-456,55,15,-7
2215,-56,-1944,-424,54,15,-7
2220,-72,-1960,-440,56,18,-7
2225,-80,-1928,-440,56,19,-8
2230,-72,-1952,-424,56,19,-8
2235,-72,-1928,-472,58,19,-9
2240,-64,-1928,-448,58,19,-8
2245,-72,-1896,-480,58,20,-10
2250,-40,-1928,-456,57,21,-9
2255,-56,-1912,-424,57,22,-8
2260,-72,-1944,-440,58,22,-9
2265,-72,-1944,-440,57,23,-10
2270,-80,-1944,-448,56,22,-8
2275,-96,-1920,-424,56,22,-7
2280,-80,-1952,-440,57,23,-7
2285,-96,-1936,-424,58,23,-6
2290,-72,-1944,-440,59,22,-5
2295,-88,-1936,-432,58,21,-9
2300,-72,-1968,-464,57,20,-7
2305,-48,-1960,-432,58,19,-7
2310,-64,-1960,-440,56,18,-11
2315,-64,-1976,-440,58,20,-10
2320,-80,-1944,-464,61,21,-11
2325,-88,-1920,-432,60,21,-11
2330,-80,-1920,-408,62,22,-13
2335,-88,-1928,-376,61,22,-12
2340,-80,-1920,-440,60,22,-11
2345,-104,-1912,-456,60,21,-12
2350,-104,-1920,-448,62,19,-12
2355,-104,-1936,-408,62,18,-12
2360,-80,-1904,-456,62,18,-13
2365,-64,-1952,-432,61,19,-12
2370,-88,-1928,-472,57,17,-12
2375,-88,-1944,-424,55,16,-12
2380,-72,-1944,-456,53,16,-12
2385,-80,-1976,-384,55,17,-11
2390,-88,-1952,-448,56,18,-11
2395,-88,-1960,-400,61,17,-12
2400,-88,-1960,-424,66,17,-12
2405,-120,-1936,-440,71,15,-12
2410,-96,-1928,-440,75,16,-13
2415,-104,-1952,-448,77,14,-11
2420,-104,-1936,-432,77,13,-12
2425,-88,-1920,-456,76,12,-14
2430,-88,-1912,-464,75,10,-12
2435,-88,-1936,-424,73,12,-10
2440,-72,-1912,-440,69,10,-9
2445,-80,-1936,-432,65,7,-9
2450,-96,-1944,-416,62,7,-8
2455,-80,-1928,-440,61,6,-7
2460,-56,-1928,-424,59,6,-8
2465,-56,-1952,-424,57,5,-9
2470,-80,-1936,-408,57,4,-9
2475,-80,-1952,-424,58,4,-10
2480,-40,-1936,-424,59,5,-10
2485,-88,-1960,-440,60,4,-9
2490,-96,-1944,-456,63,5,-11
2495,-56,-1960,-416,65,5,-13
2500,-72,-1928,-408,68,5,-12
2505,-80,-1968,-440,69,6,-12
2510,-96,-1944,-432,70,5,-12
2515,-40,-1912,-456,69,4,-14
2520,-88,-1968,-432,67,4,-11
2525,-80,-1944,-416,65,3,-11
2530,-88,-1920,-448,61,4,-10
2535,-88,-1928,-424,57,3,-10
2540,-80,-1928,-432,53,2,-10
2545,-112,-1904,-448,50,2,-11
2550,-88,-1920,-440,47,2,-12
2555,-72,-1944,-456,46,1,-12
2560,-88,-1920,-432,43,2,-12
2565,-88,-1936,-432,41,2,-10
2570,-88,-1936,-448,41,2,-10
2575,-88,-1944,-432,43,2,-10
2580,-96,-1952,-456,47,1,-8
2585,-64,-1936,-432,49,2,-11
2590,-96,-1928,-432,53,0,-10
2595,-80,-1944,-432,56,1,-9
2600,-72,-1912,-456,56,2,-11
2605,-96,-1936,-440,55,1,-12
2610,-72,-1928,-432,53,1,-13
2615,-96,-1912,-416,51,1,-14
2620,-96,-1912,-448,47,2,-13
2625,0,-1952,-328,44,2,-15
2630,-80,-1944,-424,41,1,-14
2635,-80,-1920,-432,37,0,-12
2640,-88,-1944,-408,35,0,-14
2645,-88,-1952,-416,35,1,-14
2650,-80,-1952,-408,36,1,-14
2655,-88,-1928,-432,37,1,-15
2660,-72,-1928,-448,40,0,-12
2665,-72,-1960,-440,41,-1,-13
2670,-96,-1944,-408,44,-2,-14
2675,-104,-1936,-416,44,-2,-16
2680,-104,-1936,-440,46,-1,-14
2685,-72,-1968,-432,46,-2,-14
2690,-88,-1936,-424,46,-3,-14
2695,-104,-1904,-432,45,-2,-12
2700,-96,-1928,-416,47,-1,-13
2705,-80,-1968,-432,49,0,-11
2710,-96,-1944,-408,49,1,-10
2715,-104,-1928,-432,51,2,-11
2720,-72,-1968,-432,51,0,-11
2725,-80,-1960,-408,52,0,-10
2730,-80,-1952,-400,52,-2,-10
2735,-80,-1944,-400,54,-2,-10
2740,-72,-1944,-432,57,-1,-11
2745,-72,-1936,-384,59,-2,-13
2750,-104,-1920,-432,61,-1,-13
2755,-88,-1912,-424,59,-3,-14
2760,-80,-1928,-440,58,-3,-14
2765,-80,-1928,-424,55,-2,-14
2770,-56,-1928,-416,51,-1,-14
2775,-64,-1928,-440,47,0,-13
2780,-48,-1920,-456,43,0,-13
2785,-64,-1936,-448,39,1,-14
2790,-88,-1920,-320,39,1,-12
2795,-72,-1960,-416,37,2,-12
2800,-72,-1952,-432,36,1,-12
2805,-88,-1920,-408,39,3,-11
2810,-64,-1928,-448,43,4,-13
2815,-96,-1936,-408,45,6,-14
2820,-64,-1968,-424,47,7,-13
2825,-96,-1928,-464,48,8,-13
2830,-64,-1960,-408,48,7,-13
2835,-80,-1968,-440,48,8,-12
2840,-88,-1936,-424,53,9,-14
2845,-64,-1952,-448,57,10,-13
2850,-104,-1936,-416,59,9,-11
2855,-72,-1944,-464,61,10,-11
2860,-96,-1912,-464,60,9,-10
2865,-88,-1936,-432,58,10,-9
2870,-80,-1920,-464,55,10,-9
2875,-64,-1928,-432,50,8,-9
2880,-64,-1944,-416,46,6,-11
2885,-72,-1936,-424,41,4,-10
2890,-64,-1968,-400,38,3,-12
2895,-72,-1952,-416,36,4,-16
2900,-80,-1928,-440,33,5,-13
2905,-80,-1952,-416,35,4,-13
2910,-64,-1936,-448,35,5,-13
2915,-64,-1960,-416,37,4,-13
2920,-56,-1944,-424,39,7,-14
2925,-112,-1944,-416,40,8,-13
2930,-80,-1944,-424,43,10,-13
2935,-88,-1944,-432,48,8,-11
2940,-80,-1968,-400,53,8,-10
2945,-80,-1952,-416,57,8,-10
2950,-64,-1928,-440,61,8,-8
2955,-64,-1936,-440,62,6,-9
2960,-72,-1936,-440,61,6,-11
2965,-96,-1928,-416,59,5,-11
2970,-80,-1920,-408,57,5,-12
2975,-72,-1936,-440,57,5,-10
2980,-64,-1896,-408,58,5,-11
2985,-80,-1936,-416,58,4,-11
2990,-80,-1928,-424,60,4,-12
2995,-80,-1912,-416,60,4,-11
3000,-72,-1928,-416,62,4,-11
3005,-96,-1968,-400,62,3,-12
3010,-72,-1928,-400,63,3,-12
3015,-96,-1952,-408,64,2,-10
3020,-104,-1936,-416,63,3,-11
3025,-64,-1944,-432,62,1,-11
3030,-64,-1944,-424,60,1,-11
3035,-96,-1944,-416,60,2,-10
3040,-80,-1976,-424,61,0,-11
3045,-96,-1968,-416,61,0,-11
3050,-80,-1952,-448,66,-1,-12
3055,-96,-1944,-448,71,-1,-11
3060,-56,-1952,-424,73,0,-12
3065,-88,-1920,-424,73,1,-11
3070,-72,-1904,-408,72,1,-10
3075,-96,-1912,-424,72,0,-12
3080,-88,-1928,-408,69,1,-12
3085,-72,-1912,-424,67,3,-11
3090,-64,-1944,-400,64,4,-12
3095,-72,-1928,-408,61,5,-12
3100,-80,-1920,-408,57,7,-12
3105,-88,-1920,-424,56,10,-12
3110,-80,-1944,-424,50,9,-11
3115,-56,-1944,-416,46,9,-9
3120,-72,-1944,-424,44,8,-10
3125,-64,-1936,-456,43,10,-10
3130,-72,-1960,-424,46,12,-11
3135,-56,-1928,-424,47,14,-10
3140,-96,-1928,-432,46,14,-12
3145,-96,-1920,-432,46,15,-11
3150,-104,-1928,-440,43,15,-12
3155,-64,-1944,-448,39,15,-14
3160,-72,-1944,-448,38,16,-11
3165,-96,-1928,-416,38,15,-13
3170,-72,-1896,-464,38,16,-13
3175,-80,-1928,-424,40,16,-12
3180,-72,-1936,-440,40,15,-11
3185,-80,-1936,-424,39,14,-11
3190,-80,-1992,-440,41,15,-10
3195,-72,-1952,-432,43,14,-12
3200,-112,-1944,-448,49,13,-13
3205,-88,-1952,-456,52,13,-12
3210,-80,-1936,-456,54,13,-13
3215,-64,-1944,-432,59,15,-12
3220,-88,-1936,-424,61,16,-12
3225,-88,-1920,-440,62,16,-11
3230,-72,-1872,-456,58,17,-12
3235,-72,-1936,-408,53,15,-11
3240,-96,-1920,-432,49,13,-12
3245,-80,-1904,-432,45,12,-13
3250,-88,-1936,-424,42,13,-13
3255,-48,-1920,-376,38,12,-12
3260,-88,-1904,-392,37,9,-13
3265,-104,-1920,-424,38,8,-14
3270,-80,-1904,-408,36,7,-14
3275,-88,-1936,-424,34,4,-14
3280,-88,-1928,-408,32,1,-16
3285,-72,-1944,-424,30,2,-15
3290,-72,-1928,-440,30,2,-15
3295,-72,-1944,-408,32,1,-17
3300,-64,-1928,-448,36,2,-17
3305,-64,-1944,-440,39,3,-16
3310,-88,-1920,-424,43,3,-17
3315,-64,-1920,-416,42,4,-17
3320,-80,-1912,-440,41,4,-18
3325,-80,-1920,-424,41,5,-15
3330,-88,-1944,-440,37,6,-15
3335,-88,-1888,-296,32,5,-16
3340,-64,-1944,-440,31,6,-16
3345,-96,-1928,-400,33,6,-15
3350,-88,-1944,-432,36,5,-14
3355,-88,-1960,-400,39,6,-13
3360,-104,-1944,-432,42,6,-11
3365,-96,-1944,-416,42,4,-13
3370,-96,-1912,-432,42,4,-12
3375,-64,-1960,-424,43,3,-13
3380,-56,-1952,-424,43,4,-10
3385,-80,-1952,-432,43,4,-9
3390,-64,-1952,-432,46,4,-10
3395,-80,-1928,-440,50,6,-9
3400,-72,-1944,-464,53,7,-9
3405,-88,-1944,-432,57,7,-8
3410,-88,-1944,-448,63,8,-9
3415,-64,-1952,-432,66,11,-8
3420,-48,-1928,-480,68,13,-7
3425,-104,-1920,-440,69,14,-8
3430,-80,-1936,-424,68,14,-7
3435,-72,-1936,-424,67,15,-6
3440,-88,-1928,-424,64,16,-5
3445,-72,-1920,-424,61,17,-6
3450,-64,-1920,-464,57,14,-5
3455,-64,-1952,-432,53,15,-6
3460,-80,-1944,-440,52,16,-6
3465,-72,-1936,-400,52,18,-4
3470,-64,-1952,-448,53,18,-6
3475,-64,-1936,-432,55,19,-6
3480,-96,-1912,-408,56,21,-7
3485,-80,-1928,-448,56,23,-5
3490,-96,-1896,-408,55,24,-5
3495,-64,-1920,-408,55,24,-6
3500,-80,-1920,-408,53,25,-8
3505,-64,-1936,-424,51,26,-8
3510,-104,-1920,-432,51,26,-9
3515,-88,-1920,-424,51,24,-9
3520,-88,-1944,-432,53,24,-8
3525,-88,-1920,-472,55,24,-9
3530,-80,-1936,-472,56,24,-8
3535,-112,-2000,-256,59,24,-6
3540,-16,-1968,-496,63,24,-7
3545,-80,-1952,-464,66,25,-7
3550,-72,-1960,-360,68,24,-7
3555,-96,-1952,-424,70,25,-7
3560,-72,-1928,-440,72,23,-7
3565,-104,-1952,-448,74,22,-8
3570,-72,-1920,-432,76,22,-7
3575,-80,-1920,-480,76,19,-8
3580,-96,-1912,-432,74,20,-8
3585,-112,-1912,-424,70,20,-9
3590,-112,-1928,-432,63,18,-8
3595,-88,-1904,-408,58,14,-8
3600,-80,-1944,-416,51,12,-10
3605,-88,-1928,-424,45,10,-9
3610,-48,-1944,-448,43,10,-8
3615,-80,-1968,-432,44,8,-7
3620,-72,-1952,-416,46,6,-9
3625,-120,-1928,-448,47,5,-10
3630,-88,-1936,-416,49,6,-10
3635,-80,-1952,-432,49,6,-11
3640,-88,-1920,-448,48,7,-11
3645,-72,-1952,-424,47,7,-11
3650,-80,-1968,-416,48,6,-11
3655,-80,-1944,-416,49,6,-10
3660,-72,-1944,-440,49,7,-9
3665,-88,-1952,-456,49,7,-10
3670,-88,-1928,-408,46,9,-10
3675,-72,-1960,-432,46,6,-11
3680,-120,-1928,-408,46,5,-12
3685,-72,-1936,-448,46,5,-12
3690,-80,-1968,-432,49,4,-13
3695,-64,-1960,-456,52,4,-13
3700,-64,-1928,-440,53,5,-12
3705,-64,-1928,-440,56,7,-15
3710,-64,-1944,-456,58,7,-15
3715,-80,-1920,-408,59,7,-16
3720,-72,-1936,-456,62,8,-15
3725,-72,-1912,-424,64,10,-15
3730,-72,-1928,-408,64,11,-13
3735,-96,-1912,-448,60,11,-12
3740,-80,-1928,-416,56,8,-11
3745,-80,-1936,-440,51,6,-9
3750,-88,-1928,-424,48,7,-11
3755,-88,-1952,-416,47,10,-10
3760,-80,-1920,-408,48,10,-10
3765,-40,-1976,-432,48,9,-10
3770,-104,-1936,-432,49,8,-10
3775,-88,-1936,-424,49,9,-10
3780,-72,-1944,-424,50,9,-9
3785,-72,-1936,-440,55,10,-10
3790,-72,-1952,-416,57,11,-12
3795,-64,-1912,-416,61,12,-12
3800,-72,-1952,-400,61,14,-10
3805,-64,-1912,-448,60,14,-10
3810,-80,-1936,-432,59,14,-11
3815,-88,-1928,-448,55,14,-13
3820,-80,-1912,-448,51,15,-11
3825,-72,-1944,-440,47,14,-9
3830,-96,-1936,-456,43,14,-10
3835,-88,-1936,-456,43,13,-10
3840,-72,-1928,-432,41,14,-9
3845,-88,-1944,-440,40,13,-10
3850,-80,-1968,-408,43,12,-8
3855,-96,-1936,-432,45,13,-10
3860,-88,-1952,-456,49,13,-8
3865,-96,-1952,-432,55,12,-6
3870,-80,-1928,-432,58,12,-9
3875,-64,-1960,-424,62,15,-9
3880,-80,-1936,-416,64,15,-11
3885,-80,-1944,-416,66,13,-12
3890,-88,-1904,-384,66,14,-11
3895,-96,-1952,-400,66,13,-11
3900,-96,-1936,-456,65,12,-11
3905,-112,-1920,-432,65,13,-12
3910,-80,-1936,-456,63,13,-10
3915,-104,-1928,-432,60,12,-13
3920,-80,-1936,-424,60,12,-13
3925,-104,-1928,-432,59,11,-12
3930,-72,-1976,-512,57,12,-12
3935,-16,-1912,-400,58,11,-9
3940,-88,-1960,-408,58,11,-9
3945,-80,-1952,-432,56,10,-8
3950,-96,-1936,-456,56,10,-5
3955,-80,-1952,-432,56,11,-5
3960,-104,-1936,-432,61,9,-6
3965,-64,-1944,-408,63,9,-6
3970,-80,-1944,-424,66,9,-6
3975,-64,-1936,-448,65,10,-6
3980,-64,-1936,-408,65,10,-8
3985,-56,-1944,-400,64,10,-9
3990,-72,-1928,-400,64,12,-9
3995,-72,-1904,-424,62,12,-9
4000,-64,-1920,-416,62,14,-11
4005,-72,-1952,-448,61,14,-11
4010,-72,-1952,-448,62,15,-12
4015,-80,-1944,-432,58,15,-9
4020,-72,-1920,-440,56,14,-11
4025,-72,-1936,-432,53,14,-9
4030,-88,-1936,-440,51,13,-9
4035,-72,-1944,-448,50,12,-9
4040,-96,-1920,-440,49,11,-8
4045,-80,-1944,-424,48,9,-9
4050,-104,-1928,-448,48,10,-8
4055,-64,-1912,-432,49,9,-12
4060,-80,-1936,-432,51,10,-11
4065,-88,-1936,-432,52,10,-12
4070,-80,-1952,-408,52,10,-12
4075,-104,-1944,-424,51,10,-12
4080,-88,-1912,-416,52,11,-14
4085,-88,-1896,-408,49,11,-15
4090,-80,-1920,-384,49,10,-15
4095,-24,-1968,-416,49,11,-15
4100,-64,-1928,-424,49,12,-14
4105,-72,-1920,-448,46,12,-13
4110,-88,-1912,-424,44,11,-14
4115,-80,-1912,-456,42,10,-12
4120,-104,-1952,-440,41,10,-13
4125,-64,-1952,-440,43,11,-10
4130,-104,-1960,-432,46,11,-9
4135,-88,-1944,-416,50,12,-8
4140,-80,-1952,-424,56,11,-8
4145,-96,-1936,-432,62,11,-8
4150,-88,-1976,-400,64,10,-9
4155,-56,-1936,-448,66,10,-9
4160,-88,-1928,-424,64,10,-8
4165,-88,-1888,-416,60,10,-9
4170,-56,-1936,-424,56,10,-10
4175,-72,-1896,-440,52,11,-10
4180,-80,-1928,-400,48,12,-10
4185,-72,-1936,-440,44,11,-11
4190,-72,-1928,-456,41,10,-10
4195,-72,-1944,-424,39,11,-9
4200,-96,-1936,-392,37,11,-8
4205,-96,-1936,-424,38,11,-9
4210,-56,-1944,-432,37,11,-11
4215,-80,-1936,-392,39,12,-10
4220,-88,-1920,-400,41,13,-10
4225,-72,-1920,-424,41,12,-9
4230,-80,-1904,-440,45,14,-9
4235,-88,-1936,-424,45,15,-10
4240,-88,-1904,-472,46,14,-9
4245,-72,-1952,-424,46,14,-12
4250,-96,-1896,-424,45,14,-10
4255,-80,-1936,-408,45,14,-10
4260,-104,-1928,-448,42,14,-10
4265,-80,-1936,-424,41,15,-9
4270,-80,-1952,-424,40,13,-11
4275,-88,-1944,-408,40,14,-11
4280,-72,-1936,-424,39,13,-10
4285,-56,-1952,-448,39,14,-9
4290,-104,-1928,-432,38,16,-9
4295,-72,-1920,-416,38,12,-8
4300,-80,-1920,-408,38,12,-8
4305,-88,-1936,-440,39,12,-8
4310,-64,-1968,-336,40,11,-10
4315,-72,-1928,-456,40,12,-9
4320,-88,-1912,-432,41,11,-9
4325,-56,-1920,-464,43,12,-10
4330,-80,-1920,-424,44,14,-8
4335,-88,-1936,-424,43,15,-9
4340,-72,-1936,-408,43,14,-10
4345,-48,-1952,-424,43,15,-11
4350,-96,-1944,-432,42,15,-12
4355,-72,-1928,-440,41,16,-12
4360,-64,-1912,-408,39,15,-13
4365,-72,-1912,-432,37,15,-14
4370,-72,-1920,-440,37,15,-14
4375,-64,-1952,-424,38,15,-15
4380,-56,-1944,-456,38,15,-15
4385,-80,-1920,-432,36,15,-14
4390,-88,-1928,-416,36,15,-14
4395,-88,-1936,-448,35,14,-13
4400,-80,-1928,-440,35,15,-10
4405,-80,-1944,-440,37,14,-10
4410,-104,-1928,-408,38,16,-9
4415,-104,-1936,-440,40,16,-8
4420,-104,-1936,-416,43,15,-7
4425,-96,-1936,-480,45,16,-6
4430,-80,-1952,-448,48,16,-5
4435,-64,-1944,-424,51,16,-4
4440,-56,-1928,-448,53,19,-4
4445,-80,-1928,-464,52,19,-6
4450,-48,-1952,-440,51,21,-8
4455,-64,-1912,-416,49,22,-10
4460,-48,-1936,-456,48,22,-11
4465,-72,-1952,-456,47,22,-11
4470,-40,-1944,-464,47,23,-12
4475,-24,-1960,-392,46,24,-11
4480,-80,-1912,-408,48,25,-10
4485,-96,-1928,-448,47,26,-9
4490,-88,-1944,-432,46,26,-7
4495,-88,-1944,-432,47,25,-8
4500,-96,-1952,-432,47,25,-7
4505,-96,-1928,-416,49,24,-8
4510,-88,-1936,-448,48,24,-8
4515,-80,-1936,-432,48,24,-7
4520,-96,-1904,-456,47,24,-8
4525,-80,-1920,-448,45,24,-9
4530,-88,-1936,-424,44,24,-8
4535,-88,-1920,-448,42,24,-10
4540,-80,-1920,-456,42,26,-9
4545,-64,-1936,-440,40,27,-7
4550,-40,-1920,-424,39,25,-5
4555,-56,-1944,-472,36,24,-6
4560,-96,-1928,-464,38,23,-7
4565,-48,-1936,-440,39,24,-8
4570,-56,-1952,-480,41,25,-10
4575,-104,-1904,-440,44,24,-9
4580,-104,-1944,-440,47,23,-9
4585,-96,-1920,-432,49,23,-9
4590,-96,-1936,-440,48,23,-8
4595,-88,-1936,-432,48,21,-7
4600,-88,-1952,-440,47,20,-8
4605,-96,-1920,-416,48,20,-7
4610,-104,-1912,-432,47,20,-8
4615,-96,-1928,-440,46,18,-9
4620,-104,-1936,-464,44,16,-10
4625,-96,-1928,-464,39,15,-8
4630,-96,-1944,-432,37,13,-8
4635,-96,-1944,-448,35,12,-10
4640,-88,-1952,-440,33,11,-12
4645,-96,-1944,-416,35,11,-10
4650,-80,-1952,-440,39,11,-12
4655,-56,-1952,-432,43,10,-12
4660,-64,-1952,-440,48,10,-12
4665,-72,-1928,-448,50,8,-12
4670,-80,-1920,-432,52,7,-13
4675,-88,-1912,-456,53,7,-12
4680,-72,-1920,-432,52,9,-10
4685,-80,-1896,-440,51,8,-12
4690,-104,-1920,-416,49,7,-10
4695,-96,-1920,-424,47,6,-9
4700,-56,-1928,-456,47,6,-10
4705,-80,-1944,-472,47,8,-8
4710,-80,-1944,-440,45,9,-8
4715,-88,-1936,-416,45,11,-8
4720,-72,-1920,-424,44,13,-9
4725,-88,-1928,-432,43,12,-9
4730,-80,-1936,-440,44,13,-10
4735,-112,-1936,-448,45,13,-10
4740,-80,-1920,-424,46,12,-11
4745,-88,-1936,-440,46,13,-11
4750,-88,-1912,-432,47,11,-11
4755,-72,-1912,-424,46,11,-9
4760,-80,-1944,-440,44,11,-9
4765,-72,-1944,-456,42,11,-7
4770,-72,-1920,-456,40,12,-8
4775,-80,-1944,-440,39,12,-9
4780,-80,-1944,-440,40,12,-9
4785,-72,-1936,-440,39,13,-9
4790,-72,-1936,-416,39,12,-9
4795,-80,-1960,-440,39,11,-9
4800,-72,-1936,-448,40,12,-9
4805,-80,-1968,-456,42,13,-9
4810,-80,-1936,-464,44,14,-8
4815,-96,-1888,-456,44,14,-9
4820,-80,-1928,-456,47,13,-7
4825,-96,-1920,-456,48,14,-11
4830,-72,-1928,-456,48,13,-11
4835,-88,-1912,-440,51,14,-10
4840,-48,-1960,-496,52,13,-11
4845,-112,-1848,-472,51,13,-10
4850,16,-1856,-472,49,14,-10
4855,-56,-1904,-512,47,13,-10
4860,-176,-1936,-472,45,13,-11
4865,-160,-1920,-448,42,12,-12
4870,-136,-1984,-360,43,12,-10
4875,-32,-1936,-512,44,13,-11
4880,-16,-1992,-288,46,12,-11
4885,-104,-1976,-504,47,13,-11
4890,-56,-1960,-472,48,10,-10
4895,-80,-1968,-480,47,10,-11
4900,-56,-1880,-472,49,12,-10
4905,-104,-1904,-432,48,11,-10
4910,-88,-1920,-456,51,10,-9
4915,-80,-1928,-432,53,10,-8
4920,-72,-1944,-464,54,9,-10
4925,-72,-1928,-432,55,10,-10
4930,-64,-1944,-472,55,9,-8
4935,-88,-1920,-496,53,8,-9
4940,-80,-1928,-464,51,8,-9
4945,-88,-1928,-424,49,6,-10
4950,-88,-1920,-472,46,7,-9
4955,-80,-1928,-448,44,5,-11
4960,-72,-1952,-440,42,4,-14
4965,-104,-1952,-424,42,3,-13
4970,-96,-1936,-488,44,1,-12
4975,-112,-1928,-440,46,2,-13
4980,-88,-1928,-448,49,2,-13
4985,-88,-1952,-464,48,2,-14
4990,-72,-1936,-472,50,0,-12
4995,-88,-1936,-488,50,1,-12
5000,-80,-1928,-472,51,0,-12
5005,-88,-1936,-472,49,0,-14
5010,-104,-1920,-480,49,-1,-12
5015,-72,-1928,-464,48,-2,-13
5020,-80,-1928,-456,48,-4,-13
5025,-96,-1936,-472,45,-5,-13
5030,-104,-1936,-488,42,-5,-14
5035,-80,-1936,-416,41,-6,-12
5040,-96,-1952,-488,42,-7,-13
5045,-88,-1976,-464,45,-8,-13
5050,-96,-1944,-472,48,-11,-13
5055,-88,-1936,-464,53,-12,-14
5060,-96,-1928,-440,57,-14,-14
5065,-104,-1928,-464,59,-16,-14
5070,-88,-1928,-448,60,-18,-15
5075,-88,-1904,-448,61,-20,-18
5080,-80,-1896,-464,59,-20,-18
5085,-96,-1920,-448,58,-22,-18
5090,-80,-1896,-432,56,-23,-19
5095,-72,-1920,-464,54,-23,-21
5100,-80,-1928,-464,52,-22,-21
5105,-72,-1912,-480,47,-22,-20
5110,-88,-1928,-432,43,-23,-20
5115,-88,-1928,-448,41,-22,-20
5120,-96,-1968,-488,37,-23,-19
5125,-104,-1920,-448,36,-22,-21
5130,-80,-1952,-472,35,-23,-22
5135,-88,-1960,-472,37,-21,-20
5140,-72,-1944,-464,39,-21,-18
5145,-80,-1952,-456,41,-19,-20
5150,-48,-1936,-448,46,-20,-20
5155,-64,-1928,-456,48,-18,-19
5160,-80,-1920,-456,50,-17,-20
5165,-80,-1928,-448,51,-16,-20
5170,-64,-1944,-456,52,-11,-18
5175,-48,-1928,-456,53,-8,-19
5180,-64,-1928,-424,53,-5,-17
5185,-80,-1928,-472,53,-3,-17
5190,-88,-1936,-448,52,0,-17
5195,-56,-1928,-440,50,2,-15
5200,-80,-1920,-440,47,4,-14
5205,-80,-1936,-432,45,5,-14
5210,-56,-1968,-488,44,6,-16
5215,-80,-1952,-472,45,7,-13
5220,-72,-1952,-456,45,11,-16
5225,-72,-1936,-456,50,13,-15
5230,-88,-1960,-488,54,16,-15
5235,-88,-1920,-464,58,19,-13
5240,-72,-1952,-472,61,23,-11
5245,-40,-1960,-424,62,26,-11
5250,-64,-1944,-432,67,28,-11
5255,-64,-1952,-432,74,31,-10
5260,-80,-1960,-456,80,36,-7
5265,-64,-1936,-456,85,39,-6
5270,-64,-1920,-464,88,42,-7
5275,-104,-1920,-448,88,44,-2
5280,-64,-1928,-448,90,46,-3
5285,-48,-1920,-472,88,48,-3
5290,-72,-1896,-432,89,52,-3
5295,-56,-1928,-424,89,56,-2
5300,-80,-1896,-432,89,60,-4
5305,-80,-1920,-456,87,63,-2
5310,-72,-1928,-432,84,65,-3
5315,-72,-1920,-416,85,67,-2
5320,-80,-1944,-432,86,70,-2
5325,-88,-1920,-424,87,72,-2
5330,-72,-1928,-456,87,74,-2
5335,-72,-1928,-440,86,77,-2
5340,-88,-1904,-472,85,79,0
5345,-72,-1912,-448,81,79,-1
5350,-32,-1944,-432,78,81,-1
5355,-56,-1952,-448,76,83,-2
5360,-48,-1936,-440,73,83,-2
5365,-64,-1904,-456,71,85,0
5370,-32,-1920,-448,69,86,0
5375,-96,-1936,-456,68,88,0
5380,-88,-1912,-448,68,89,0
5385,-48,-1936,-456,68,88,-1
5390,-64,-1944,-456,69,89,0
5395,-80,-1904,-472,68,91,0
5400,-88,-1928,-432,67,89,-1
5405,-72,-1912,-448,67,88,0
5410,-104,-1944,-408,66,88,1
5415,-72,-1912,-448,66,86,1
5420,-104,-1936,-424,64,85,2
5425,-96,-1920,-448,63,83,1
5430,-88,-1952,-456,63,80,1
5435,-96,-1928,-440,59,77,0
5440,-96,-1944,-456,61,75,0
5445,-104,-1928,-416,60,72,-2
5450,-80,-1912,-456,60,68,-2
5455,-112,-1928,-432,59,65,-5
5460,-96,-1920,-432,59,61,-3
5465,-96,-1944,-464,59,58,-4
5470,-96,-1912,-440,56,55,-5
5475,-112,-1944,-448,55,49,-3
5480,-112,-1912,-416,56,46,-4
5485,-72,-1928,-448,55,42,-6
5490,-80,-1936,-416,53,37,-4
5495,-112,-1912,-416,52,33,-5
5500,-96,-1936,-408,51,29,-7
5505,-112,-1928,-408,50,25,-9
5510,-88,-1936,-448,48,22,-9
5515,-96,-1936,-432,46,18,-11
5520,-112,-1920,-448,46,14,-12
5525,-80,-1936,-456,45,10,-11
5530,-80,-1928,-432,46,5,-11
5535,-88,-1952,-456,45,3,-12
5540,-80,-1928,-408,46,0,-11
5545,-96,-1944,-456,47,-3,-13
5550,-104,-1920,-456,47,-5,-14
5555,-72,-1928,-448,46,-7,-13
5560,-72,-1920,-456,45,-9,-14
5565,-104,-1944,-440,47,-10,-15
5570,-72,-1936,-440,47,-12,-17
5575,-80,-1936,-416,47,-12,-18
5580,-56,-1936,-440,47,-13,-19
5585,-72,-1944,-424,49,-14,-19
5590,-72,-1928,-424,50,-15,-20
5595,-80,-1936,-408,52,-16,-21
5600,-80,-1936,-448,52,-16,-20
5605,-80,-1912,-440,54,-16,-20
5610,-80,-1920,-440,56,-15,-21
5615,-104,-1816,-400,56,-16,-23
5620,-48,-1952,-448,57,-15,-22
5625,-56,-1952,-448,57,-14,-22
5630,-88,-1944,-456,58,-9,-20
5635,-88,-1944,-480,58,-9,-20
5640,-48,-1952,-440,59,-6,-19
5645,-40,-1960,-448,60,-5,-18
5650,-48,-1952,-456,62,-4,-19
5655,-48,-1944,-448,64,0,-19
5660,-64,-1920,-464,67,2,-19
5665,-56,-1944,-432,69,6,-18
5670,-56,-1936,-440,71,8,-19
5675,-32,-1936,-456,73,11,-19
5680,-80,-1936,-464,73,14,-20
5685,-80,-1928,-448,74,18,-19
5690,-64,-1936,-448,73,20,-18
5695,-64,-1936,-440,72,24,-17
5700,-64,-1928,-464,72,26,-16
5705,-40,-1928,-432,69,28,-15
5710,-72,-1920,-448,69,30,-13
5715,-80,-1920,-472,68,33,-15
5720,-64,-1928,-456,67,35,-14
5725,-64,-1944,-448,64,39,-13
5730,-64,-1920,-456,65,40,-13
5735,-56,-1944,-456,65,42,-12
5740,-64,-1920,-432,65,43,-12
5745,-24,-1920,-448,66,45,-10
5750,-88,-1928,-440,65,45,-12
5755,-72,-1936,-472,66,48,-11
5760,-40,-1928,-488,67,48,-9
5765,-80,-1920,-480,69,51,-10
5770,-80,-1920,-472,69,53,-8
5775,-96,-1912,-424,72,54,-6
5780,-56,-1944,-368,72,55,-5
5785,-72,-1944,-432,71,54,-6
5790,-72,-1912,-464,69,55,-5
5795,-64,-1944,-456,64,54,-7
5800,-80,-1928,-456,61,53,-10
5805,-80,-1936,-440,56,53,-10
5810,-80,-1912,-464,55,53,-10
5815,-72,-1920,-472,53,53,-11
5820,-88,-1920,-448,52,53,-10
5825,-80,-1928,-456,49,55,-11
5830,-64,-1936,-464,49,55,-11
5835,-56,-1928,-448,48,56,-10
5840,-56,-1944,-456,49,57,-10
5845,-88,-1928,-416,50,56,-9
5850,-72,-1936,-448,51,57,-9
5855,-72,-1928,-472,54,56,-10
5860,-56,-1928,-456,56,55,-9
5865,-72,-1928,-424,58,56,-9
5870,-64,-1920,-440,59,55,-11
5875,-64,-1928,-456,57,54,-12
5880,-72,-1928,-432,57,53,-11
5885,-72,-1936,-432,55,51,-11
5890,-80,-1952,-448,54,50,-12
5895,-80,-1928,-440,53,49,-13
5900,-72,-1928,-464,50,47,-14
5905,-72,-1960,-440,48,46,-13
5910,-80,-1944,-432,48,45,-13
5915,-80,-1912,-464,49,44,-13
5920,-88,-1936,-456,50,42,-12
5925,-64,-1936,-440,53,42,-13
5930,-72,-1936,-464,53,40,-13
5935,-104,-1936,-440,53,37,-12
5940,-80,-1944,-464,54,36,-13
5945,-80,-1920,-456,55,36,-15
5950,-80,-1920,-456,55,36,-13
5955,-40,-1936,-464,56,35,-13
5960,-80,-1936,-432,56,32,-12
5965,-56,-1920,-432,56,28,-14
5970,-64,-1904,-440,55,31,-15
5975,-88,-1928,-440,55,31,-16
5980,-88,-1936,-448,57,32,-16
5985,-80,-1936,-456,58,31,-14
5990,-64,-1936,-464,59,29,-16
5995,-80,-1920,-448,59,30,-17
6000,-64,-1896,-488,59,31,-18
6005,-96,-1944,-448,59,30,-18
6010,-96,-1944,-432,58,29,-19
6015,-64,-1952,-464,58,27,-19
6020,-88,-1936,-448,57,25,-19
6025,-88,-1952,-432,56,23,-20
6030,-80,-1968,-448,53,22,-21
6035,-104,-1912,-448,53,22,-21
6040,-80,-1928,-432,54,20,-21
6045,-88,-1936,-440,54,18,-21
6050,-64,-1912,-448,52,14,-23
6055,-88,-1904,-424,51,14,-22
6060,-56,-1912,-440,49,13,-21
6065,-104,-1920,-448,47,14,-20
6070,-80,-1904,-440,45,12,-20
6075,-96,-1920,-448,41,10,-20
6080,-64,-1928,-448,40,9,-19
6085,-96,-1928,-432,39,7,-18
6090,-104,-1912,-440,38,9,-17
6095,-80,-1936,-416,38,6,-17
6100,-80,-1960,-440,38,3,-17
6105,-88,-1936,-424,41,2,-17
6110,-72,-1944,-432,41,2,-16
6115,-56,-1944,-424,42,-3,-17
6120,-56,-1936,-448,42,-5,-18
6125,-72,-1920,-432,42,-5,-20
6130,-56,-1944,-424,44,-7,-21
6135,-72,-1944,-432,45,-7,-19
6140,-48,-1936,-432,46,-7,-20
6145,-72,-1944,-424,45,-9,-22
6150,-40,-1912,-448,46,-8,-22
6155,-72,-1936,-448,46,-10,-20
6160,-64,-1888,-328,45,-11,-19
6165,-64,-1936,-432,44,-11,-18
6170,-48,-1968,-440,44,-11,-19
6175,-48,-1944,-456,44,-12,-20
6180,-72,-1928,-440,47,-11,-20
6185,-72,-1928,-448,49,-11,-21
6190,-64,-1960,-448,51,-10,-21
6195,-48,-1944,-432,52,-10,-21
6200,-96,-1912,-448,53,-9,-23
6205,-64,-1960,-448,54,-8,-22
6210,-32,-1928,-424,56,-6,-21
6215,-64,-1952,-440,57,-7,-24
6220,-16,-1936,-456,56,-7,-25
6225,-48,-1944,-424,53,-3,-24
6230,-64,-1952,-440,52,-1,-24
6235,-56,-1944,-424,52,1,-24
6240,-64,-1944,-400,51,1,-26
6245,-64,-1960,-456,51,1,-25
6250,-72,-1920,-424,51,3,-26
6255,-72,-1936,-440,50,3,-25
6260,-56,-1928,-432,47,2,-25
6265,-72,-1920,-424,46,3,-25
6270,-96,-1920,-424,44,4,-26
6275,-32,-1920,-456,46,5,-26
6280,-56,-1936,-464,45,5,-24
6285,-80,-1928,-440,45,6,-22
6290,-56,-1952,-448,45,4,-21
6295,-72,-1904,-432,46,4,-20
6300,-72,-1912,-440,46,3,-19
6305,-64,-1944,-440,48,4,-20
6310,-56,-1944,-440,49,3,-19
6315,-56,-1960,-424,48,2,-20
6320,-64,-1920,-408,48,3,-19
6325,-72,-1920,-384,48,2,-20
6330,-48,-1936,-464,45,2,-21
6335,-32,-1936,-440,47,1,-22
6340,-8,-1944,-448,47,1,-22
6345,-40,-1968,-424,50,3,-22
6350,-40,-1968,-432,52,4,-23
6355,-32,-1968,-432,58,5,-22
6360,-64,-1960,-432,63,7,-21
6365,-64,-1936,-416,68,10,-21
6370,-40,-1968,-424,68,10,-20
6375,-56,-1952,-432,67,10,-21
6380,-48,-1960,-464,66,10,-22
6385,-64,-1952,-448,69,9,-21
6390,-56,-1960,-448,70,8,-21
6395,-72,-1928,-424,72,9,-22
6400,-32,-1944,-464,74,8,-23
6405,-48,-1928,-416,77,9,-24
6410,-32,-1960,-456,80,10,-27
6415,-56,-1960,-432,82,12,-27
6420,-64,-1952,-464,86,14,-28
6425,-48,-1968,-440,93,14,-29
6430,-64,-1984,-432,100,13,-30
6435,-64,-1976,-416,107,12,-32
6440,-40,-1968,-440,113,12,-34
6445,-48,-1968,-432,117,11,-35
6450,-24,-1952,-472,119,11,-35
6455,-24,-1960,-472,122,12,-35
6460,-40,-1952,-456,124,12,-35
6465,-64,-1936,-432,127,10,-33
6470,-64,-1936,-464,131,10,-33
6475,-64,-1936,-448,132,10,-35
6480,-72,-1936,-472,132,9,-35
6485,-48,-1936,-472,132,11,-36
6490,-56,-1952,-440,132,11,-35
6495,-8,-1952,-448,134,11,-36
6500,-48,-1952,-464,134,11,-36
6505,-8,-1952,-432,132,12,-37
6510,-48,-1920,-448,131,11,-39
6515,-56,-1952,-424,130,13,-39
6520,-56,-1920,-424,130,12,-40
6525,-40,-1952,-432,128,12,-40
6530,-56,-1952,-440,130,12,-40
6535,-16,-1928,-472,129,11,-41
6540,-40,-1888,-456,129,10,-41
6545,-56,-1944,-520,129,11,-41
6550,-24,-1928,-456,128,11,-40
6555,-64,-1904,-448,127,13,-41
6560,-48,-1912,-464,124,14,-40
6565,-40,-1920,-448,123,15,-40
6570,-16,-1920,-464,119,14,-41
6575,-32,-1928,-456,117,12,-39
6580,-56,-1872,-440,114,11,-38
6585,-56,-1904,-440,110,10,-37
6590,-24,-1936,-440,106,10,-37
6595,-16,-1920,-432,101,10,-38
6600,-48,-1912,-464,93,11,-39
6605,-16,-1904,-464,89,11,-43
6610,-16,-1920,-440,85,11,-41
6615,-16,-1928,-424,81,13,-39
6620,0,-1920,-424,80,15,-39
6625,-8,-1920,-440,77,17,-38
6630,-32,-1920,-472,74,19,-37
6635,0,-1912,-424,69,19,-39
6640,-40,-1928,-456,64,20,-38
6645,-56,-1928,-424,57,18,-35
6650,-32,-1928,-440,52,20,-32
6655,-40,-1904,-440,46,19,-31
6660,-24,-1920,-440,41,19,-28
6665,-16,-1920,-440,38,20,-27
6670,0,-1904,-464,36,21,-25
6675,-16,-1912,-432,36,23,-23
6680,-48,-1928,-456,39,24,-22
6685,-32,-1904,-432,42,26,-20
6690,-40,-1920,-440,46,27,-17
6695,-32,-1928,-432,50,27,-15
6700,-48,-1928,-440,52,27,-15
6705,-32,-1952,-400,54,27,-14
6710,-32,-1936,-456,55,29,-13
6715,-32,-1952,-440,56,31,-11
6720,-40,-1928,-432,59,35,-8
6725,0,-1936,-440,63,38,-6
6730,-16,-1936,-456,63,39,-2
6735,-16,-1936,-456,64,43,-1
6740,-56,-1912,-424,65,45,-2
6745,-32,-1936,-448,65,47,-1
6750,-8,-1936,-456,66,46,-3
6755,-16,-1952,-448,66,46,-2
6760,-24,-1928,-424,67,46,-2
6765,0,-1936,-440,67,48,-1
6770,0,-1952,-416,69,51,-2
6775,-24,-1928,-392,70,57,-1
6780,0,-1912,-456,69,62,1
6785,0,-1928,-464,66,64,2
6790,-8,-1904,-472,64,68,0
6795,0,-1872,-440,61,72,-1
6800,-8,-1904,-456,59,76,0
6805,0,-1872,-440,58,78,2
6810,0,-1888,-424,54,80,3
6815,0,-1912,-432,48,83,1
6820,0,-1872,-432,40,84,-1
6825,-8,-1896,-448,32,85,-2
6830,-24,-1912,-424,26,86,-2
6835,-16,-1896,-424,18,87,1
6840,-8,-1920,-424,12,87,1
6845,-24,-1928,-432,7,89,1
6850,0,-1936,-440,0,90,2
6855,-8,-1928,-440,-4,91,2
6860,0,-1976,-408,-6,89,2
6865,-32,-1928,-432,-6,89,3
6870,-32,-1944,-416,-6,85,1
6875,-24,-1944,-432,-2,81,0
6880,-72,-1936,-448,-1,80,-1
6885,-64,-1912,-400,1,80,-2
6890,-72,-1896,-424,1,80,-1
6895,-64,-1904,-440,0,77,0
6900,-48,-1920,-440,-2,73,2
6905,-80,-1920,-448,-7,68,3
6910,-72,-1904,-440,-13,63,4
6915,-72,-1904,-440,-18,57,4
6920,-48,-1920,-424,-23,55,5
6925,-64,-1928,-440,-26,51,4
6930,-56,-1912,-432,-28,46,4
6935,-56,-1944,-432,-28,43,4
6940,-48,-1936,-432,-26,41,0
6945,-80,-1976,-424,-21,38,-2
6950,-72,-1968,-448,-17,33,-3
6955,-80,-1960,-384,-14,29,-2
6960,-56,-1928,-408,-10,24,1
6965,-72,-1944,-432,-8,20,6
6970,-72,-1944,-448,-7,18,8
6975,-40,-1936,-400,-6,17,13
6980,-40,-1944,-448,-5,15,16
6985,-16,-1920,-416,-3,12,19
6990,0,-1928,-440,-2,11,23
6995,-24,-1936,-408,-4,11,29
7000,-8,-1944,-424,-2,13,32
7005,8,-1944,-408,0,16,35
7010,0,-1952,-400,2,20,37
7015,0,-1968,-416,5,23,38
7020,0,-1960,-400,8,24,39
7025,-8,-1984,-384,12,24,40
7030,0,-1968,-400,20,23,41
7035,-24,-1976,-408,30,22,42
7040,-16,-1984,-416,42,22,42
7045,-24,-2000,-400,56,24,43
7050,-8,-1984,-424,69,25,44
7055,-8,-1992,-408,81,27,42
7060,-16,-1976,-376,92,27,40
7065,0,-1952,-432,99,27,36
7070,0,-1976,-424,103,29,35
7075,-8,-1960,-408,105,28,33
7080,-24,-1952,-424,106,28,30
7085,-24,-1944,-288,107,24,30
7090,-32,-1928,-400,108,19,29
7095,-40,-1928,-408,109,14,29
7100,-40,-1936,-408,111,9,30
7105,-72,-1896,-432,111,8,33
7110,-40,-1928,-416,109,4,33
7115,-72,-1904,-408,105,1,34
7120,-104,-1872,-416,103,-4,33
7125,-80,-1880,-408,98,-9,34
7130,-96,-1904,-424,89,-16,34
7135,-88,-1896,-416,78,-23,34
7140,-88,-1880,-440,65,-28,34
7145,-80,-1880,-416,52,-36,34
7150,-88,-1920,-408,41,-38,31
7155,-80,-1920,-440,34,-42,32
7160,-80,-1952,-416,31,-46,32
7165,-72,-1968,-384,31,-50,31
7170,-88,-1952,-408,34,-57,27
7175,-80,-1952,-408,37,-64,25
7180,-40,-1968,-432,42,-72,24
7185,-80,-1968,-400,47,-76,22
7190,-32,-1952,-448,54,-77,22
7195,-72,-1928,-456,64,-82,26
7200,-96,-1960,-456,70,-79,21
7205,-88,-1936,-408,71,-80,18
7210,-72,-1960,-440,74,-89,20
7215,-56,-1960,-472,74,-99,18
7220,-56,-1928,-456,75,-102,18
7225,-64,-1912,-456,75,-104,16
7230,-64,-1944,-424,76,-108,16
7235,-80,-1912,-448,74,-114,15
7240,-64,-1928,-440,73,-119,12
7245,-64,-1920,-480,71,-123,10
7250,-104,-1912,-472,69,-124,8
7255,-96,-1912,-472,66,-125,7
7260,-120,-1912,-416,65,-127,6
7265,-120,-1904,-448,59,-133,2
7270,-136,-1912,-456,52,-137,0
7275,-136,-1920,-464,43,-141,-3
7280,-120,-1920,-456,37,-146,-3
7285,-88,-1960,-432,35,-149,-3
7290,-120,-1928,-448,38,-149,-4
7295,-104,-1928,-448,46,-152,-4
7300,-96,-1968,-328,50,-155,-3
7305,-112,-1928,-440,53,-158,-2
7310,-80,-1936,-456,51,-162,-6
7315,-96,-1936,-464,49,-167,-9
7320,-64,-1888,-464,48,-170,-11
7325,-72,-1928,-472,47,-171,-11
7330,-80,-1912,-456,50,-169,-10
7335,-96,-1912,-480,55,-168,-9
7340,-80,-1920,-472,58,-166,-7
7345,-88,-1896,-472,60,-162,-6
7350,-96,-1896,-488,63,-160,-4
7355,-104,-1928,-464,62,-161,-4
7360,-104,-1904,-464,58,-162,-4
7365,-72,-1904,-448,59,-163,-9
7370,-96,-1904,-432,60,-162,-12
7375,-64,-1928,-464,62,-161,-13
7380,-96,-1928,-464,65,-160,-13
7385,-104,-1928,-456,69,-161,-14
7390,-72,-1928,-472,72,-162,-15
7395,-72,-1920,-464,75,-162,-14
7400,-80,-1928,-480,78,-165,-17
7405,-80,-1880,-448,81,-166,-12
7410,-48,-1896,-424,82,-162,-8
7415,-80,-1864,-448,80,-155,-3
7420,-88,-1872,-432,77,-149,1
7425,-96,-1848,-408,67,-144,3
7430,-112,-1904,-432,50,-144,1
7435,-120,-1888,-448,35,-147,1
7440,-136,-1896,-432,19,-151,-1
7445,-112,-1912,-408,7,-156,-2
7450,-104,-1944,-440,0,-157,-2
7455,-104,-1912,-448,1,-157,1
7460,-112,-1920,-488,5,-155,1
7465,-104,-1936,-472,12,-153,1
7470,-96,-1952,-448,17,-152,3
7475,-96,-1952,-488,18,-152,-1
7480,-104,-1944,-496,17,-151,-2
7485,-80,-1952,-456,18,-151,-4
7490,-96,-1952,-472,22,-148,-6
7495,-96,-1960,-448,28,-148,-6
7500,-128,-1936,-424,33,-145,-2
7505,-120,-1952,-416,37,-139,0
7510,-104,-1896,-432,44,-130,3
7515,-88,-1912,-424,49,-122,7
7520,-96,-1904,-408,53,-116,8
7525,-88,-1864,-416,52,-113,9
7530,-80,-1864,-440,47,-111,11
7535,-24,-1824,-440,38,-110,11
7540,-8,-1872,-456,26,-103,11
7545,16,-1848,-456,15,-91,10
7550,24,-1896,-448,4,-82,13
7555,16,-1872,-472,-10,-72,13
7560,16,-1856,-504,-25,-64,14
7565,8,-1872,-520,-36,-55,16
7570,0,-1888,-512,-48,-44,19
7575,0,-1880,-480,-60,-36,19
7580,-40,-1864,-520,-71,-27,20
7585,-48,-1872,-512,-84,-20,24
7590,-72,-1888,-512,-95,-13,25
7595,-88,-1904,-496,-107,-9,25
7600,-80,-1952,-496,-118,-3,25
7605,-88,-1952,-464,-121,2,26
7610,-104,-1976,-456,-115,6,23
7615,-104,-1984,-392,-100,11,18
7620,-128,-2024,-376,-81,13,15
7625,-136,-1976,-360,-55,16,4
7630,-128,-1968,-352,-28,15,-6
7635,-136,-1984,-344,0,11,-15
7640,-160,-1960,-336,28,9,-24
7645,-168,-1888,-384,49,10,-34
7650,-192,-1896,-392,64,10,-41
7655,-160,-1824,-432,74,13,-47
7660,-160,-1848,-424,78,17,-52
7665,-176,-1816,-440,81,26,-52
7670,-184,-1792,-424,76,35,-51
7675,-176,-1760,-440,70,41,-46
7680,-104,-1784,-408,61,43,-41
7685,-136,-1784,-448,48,42,-34
7690,-120,-1792,-456,31,45,-24
7695,-168,-1800,-448,10,53,-16
7700,-136,-1840,-416,-5,61,-8
7705,-104,-1872,-456,-13,70,1
7710,-96,-1872,-440,-17,74,6
7715,-80,-1936,-472,-18,77,11
7720,-96,-1960,-480,-14,84,15
7725,-56,-2032,-480,10,88,18
7730,-72,-2064,-488,43,91,18
7735,-80,-2040,-488,80,97,19
7740,-112,-2040,-512,120,105,17
7745,-104,-2008,-528,161,110,14
7750,-120,-1968,-520,195,110,9
7755,-136,-1936,-520,225,113,4
7760,-184,-1848,-520,255,116,-1
7765,-192,-1784,-536,278,121,-2
7770,-240,-1736,-504,282,123,-3
7775,-272,-1688,-512,271,124,-5
7780,-264,-1648,-528,244,115,-7
7785,-248,-1632,-552,204,104,-8
7790,-248,-1624,-568,158,94,-8
7795,-232,-1648,-584,109,94,-9
7800,-224,-1680,-600,57,98,-8
7805,-192,-1704,-528,13,101,0
7810,-184,-1744,-512,-19,99,10
7815,-128,-1776,-504,-40,96,15
7820,-120,-1808,-488,-47,90,15
7825,-144,-1832,-512,-47,91,12
7830,-136,-1832,-504,-44,93,2
7835,-128,-1832,-504,-43,96,-10
7840,-128,-1848,-536,-44,94,-17
7845,-128,-1840,-544,-48,91,-20
7850,-104,-1848,-568,-55,85,-23
7855,-96,-1832,-552,-61,76,-26
7860,-128,-1832,-520,-67,75,-34
7865,-112,-1816,-520,-66,83,-38
7870,-136,-1808,-536,-62,98,-37
7875,-168,-1800,-504,-57,109,-34
7880,-144,-1816,-496,-56,111,-28
7885,-160,-1816,-496,-63,111,-23
7890,-184,-1832,-472,-82,106,-18
7895,-160,-1824,-448,-101,100,-13
7900,-144,-1864,-472,-117,92,-7
7905,-160,-1872,-424,-123,88,1
7910,-160,-1872,-424,-118,86,7
7915,-160,-1872,-416,-107,86,14
7920,-168,-1848,-416,-89,85,19
7925,-208,-1832,-440,-73,85,21
7930,-200,-1824,-432,-58,85,22
7935,-240,-1784,-432,-50,84,19
7940,-224,-1760,-456,-53,83,11
7945,-224,-1736,-440,-67,81,6
7950,-224,-1744,-456,-90,74,-1
7955,-208,-1744,-480,-120,63,-5
7960,-232,-1752,-480,-153,50,-5
7965,-192,-1760,-504,-180,35,-2
7970,-200,-1784,-496,-209,20,1
7975,-208,-1832,-520,-240,12,-2
7980,-208,-1896,-544,-267,5,-10
7985,-200,-1968,-512,-281,0,-16
7990,-208,-1992,-504,-279,0,-14
7995,-176,-2000,-504,-259,2,-5
8000,-152,-2008,-496,-227,9,8
8005,-112,-2032,-440,-187,17,24
8010,-72,-2040,-400,-133,22,37
8015,-40,-2024,-384,-71,22,43
8020,-24,-2032,-400,-6,17,46
8025,-32,-1976,-424,47,9,39
8030,-16,-1920,-448,78,6,26
8035,-40,-1888,-488,99,10,20
8040,-40,-1880,-496,122,20,16
8045,-40,-1840,-520,142,31,16
8050,-8,-1808,-560,148,41,19
8055,-32,-1792,-616,137,53,18
8060,-24,-1736,-568,117,70,15
8065,-64,-1752,-544,102,82,14
8070,-88,-1744,-536,98,87,22
8075,-104,-1720,-560,91,87,35
8080,-96,-1736,-576,84,86,48
8085,-88,-1744,-520,80,88,60
8090,-104,-1744,-552,74,91,75
8095,-120,-1760,-504,66,89,84
8100,-144,-1776,-504,55,80,87
8105,-160,-1784,-504,37,68,78
8110,-136,-1792,-496,21,60,59
8115,-160,-1800,-496,10,55,37
8120,-144,-1856,-480,9,50,16
8125,-160,-1832,-488,21,42,-2
8130,-144,-1872,-472,46,33,-18
8135,-136,-1816,-504,70,21,-32
8140,-152,-1816,-472,96,11,-41
8145,-136,-1800,-544,118,0,-48
8150,-128,-1824,-552,135,-7,-52
8155,-104,-1776,-624,144,-12,-46
8160,-112,-1800,-664,140,-15,-42
8165,-112,-1808,-640,128,-16,-39
8170,-120,-1808,-664,115,-16,-33
8175,-160,-1800,-672,105,-13,-29
8180,-184,-1824,-640,95,-10,-21
8185,-176,-1832,-632,85,-9,-13
8190,-136,-1848,-616,74,-13,-6
8195,-168,-1864,-568,64,-18,-5
8200,-120,-1864,-584,51,-22,-8
8205,-144,-1864,-528,41,-25,-14
8210,-160,-1872,-504,38,-30,-10
8215,-136,-1872,-496,43,-41,-1
8220,-128,-1896,-440,52,-56,1
8225,-128,-1880,-400,75,-63,2
8230,-104,-1904,-472,110,-65,-1
8235,-96,-1880,-464,149,-60,-8
8240,-56,-1864,-480,188,-56,-9
8245,-64,-1792,-528,213,-56,-10
8250,-40,-1768,-560,220,-60,-9
8255,0,-1776,-624,219,-60,-7
8260,8,-1744,-592,216,-58,-8
8265,32,-1712,-648,217,-51,-2
8270,40,-1720,-632,226,-35,6
8275,-8,-1704,-600,234,-11,10
8280,-32,-1680,-616,238,12,17
8285,-64,-1592,-648,229,28,24
8290,-112,-1696,-568,201,41,28
8295,-160,-1728,-528,158,40,32
8300,-184,-1800,-552,107,35,35
8305,-240,-1824,-496,64,23,38
8310,-256,-1928,-504,37,10,40
8315,-280,-1952,-504,32,-2,36
8320,-256,-1960,-496,47,-11,29
8325,-304,-1968,-472,81,-20,29
8330,-288,-1952,-448,136,-28,38
8335,-240,-1880,-408,198,-40,49
8340,-216,-1792,-400,258,-55,60
8345,-136,-1744,-392,311,-66,66
8350,-120,-1640,-424,349,-74,72
8355,-80,-1584,-408,363,-78,77
8360,-48,-1520,-408,364,-79,83
8365,16,-1512,-456,357,-84,86
8370,0,-1472,-464,344,-84,94
8375,40,-1472,-472,332,-77,105
8380,88,-1480,-480,317,-64,114
8385,64,-1496,-488,305,-41,114
8390,32,-1520,-480,299,-15,111
8395,0,-1504,-384,299,13,102
8400,8,-1512,-368,306,42,97
8405,-56,-1496,-296,320,57,94
8410,-56,-1472,-256,346,50,95
8415,-64,-1456,-312,374,29,87
8420,-56,-1432,-336,402,37,70
8425,-48,-1384,-344,435,61,56
8430,-152,-1320,-328,476,68,48
8435,-96,-1232,-360,525,59,41
8440,-64,-1136,-360,567,47,31
8445,-48,-1096,-400,599,51,22
8450,-96,-976,-320,619,71,6
8455,-112,-896,-232,631,90,9
8460,-168,-832,-192,635,85,16
8465,-176,-824,-176,638,64,25
8470,-160,-824,-176,637,48,38
8475,-168,-824,-184,632,35,51
8480,-136,-888,-216,623,28,63
8485,-144,-896,-184,616,25,71
8490,-176,-904,-168,613,30,85
8495,-176,-912,-112,618,29,105
8500,-104,-960,-104,632,22,121
8505,-136,-928,-112,653,37,137
8510,-104,-1032,-48,678,58,160
8515,-32,-1080,-88,702,49,178
8520,-96,-1112,-48,737,28,195
8525,200,-1288,-152,764,3,210
8530,112,-1264,-144,801,38,175
8535,64,-1328,-120,851,76,152
8540,48,-1320,-88,903,82,150
8545,8,-1320,-104,947,88,141
8550,-8,-1272,-128,978,94,134
8555,-104,-1848,-232,917,100,161
8560,88,-424,344,798,85,196
8565,-128,-1064,-416,1018,78,114
8570,-200,-1144,-424,997,125,132
8575,-328,-1296,-424,918,115,136
8580,-272,-1424,-440,874,76,153
8585,-344,-1448,-400,855,48,161
8590,-352,-1568,-360,855,25,175
8595,-368,-1688,-360,875,-4,186
8600,-360,-1736,-272,911,-31,196
8605,-304,-1720,-224,961,-43,202
8610,-256,-1800,-272,1003,-73,202
8615,-224,-1752,-240,1046,-84,195
8620,-168,-1800,-240,1071,-94,176
8625,-72,-1888,-312,1079,-95,157
8630,-72,-1872,-328,1093,-90,137
8635,-32,-1936,-424,1127,-74,126
8640,-96,-1920,-448,1172,-44,120
8645,-96,-1872,-520,1213,-14,130
8650,-136,-1856,-504,1232,8,155
8655,-168,-1920,-408,1227,17,185
8660,-192,-1920,-320,1215,22,206
8665,-192,-1920,-320,1194,28,206
8670,-240,-1904,-280,1169,36,202
8675,-160,-1872,-272,1150,51,186
8680,-152,-1776,-232,1137,75,161
8685,-24,-1792,-288,1121,111,144
8690,0,-1776,-328,1109,154,134
8695,8,-1856,-336,1104,188,129
8700,-80,-1872,-248,1114,214,128
8705,-128,-1888,-272,1129,229,123
8710,-184,-1904,-264,1152,226,124
8715,-280,-1920,-224,1181,222,123
8720,-280,-1920,-208,1211,214,126
8725,-304,-2000,-176,1247,209,134
8730,-312,-1944,-184,1302,182,144
8735,-352,-1904,-152,1354,156,156
8740,-400,-1832,-128,1397,124,171
8745,-408,-1792,-152,1403,89,177
8750,-328,-1824,-144,1382,64,160
8755,-336,-1816,-144,1362,46,128
8760,-248,-1800,-200,1348,24,79
8765,-192,-1904,-168,1338,14,44
8770,-160,-1984,-64,1340,11,23
8775,-168,-2016,-16,1372,9,15
8780,-168,-1992,64,1422,-8,8
8785,-248,-1896,152,1483,-32,2
8790,-264,-1872,272,1548,-63,0
8795,-288,-1784,280,1614,-88,-3
8800,-272,-1696,304,1663,-107,-3
8805,-272,-1552,352,1689,-122,5
8810,-280,-1400,376,1681,-129,23
8815,-240,-1288,424,1641,-136,47
8820,168,-912,808,1506,-126,83
8825,-56,-744,488,1329,-157,93
8830,-96,-720,728,1078,-121,144
8835,-40,-464,824,700,-115,163
8840,-104,-368,984,170,-98,181
8845,-136,-672,1112,-490,-96,206
8850,-192,-1072,1120,-1123,-89,243
8855,-480,-1576,1376,-1517,-86,292
8860,-376,-1912,1576,-1570,-84,347
8865,-496,-2200,1696,-1330,-110,364
8870,-472,-2568,1504,-983,-165,365
8875,-280,-2592,976,-571,-245,343
8880,-48,-2856,448,-35,-324,291
8885,-96,-3088,72,427,-409,236
8890,-24,-3232,48,798,-498,134
8895,-96,-3272,216,1123,-572,-4
8900,-264,-3504,528,1423,-588,-135
8905,-328,-3936,784,1735,-537,-225
8910,-232,-4088,1192,2087,-475,-328
8915,-1008,-5272,1120,2552,-421,-404
8920,-1272,-6712,1640,2999,-238,-452
8925,-1536,-9792,3264,3435,-100,-527
8930,-2136,-13480,6040,3977,77,-605
8935,-2608,-14704,6976,4351,464,-637
8940,-2456,-12064,3584,4158,495,-814
8945,-960,-8912,1776,3468,-477,-1141
8950,576,-6864,504,3029,-1372,-1340
8955,1112,-4736,1320,3130,-1349,-1339
8960,792,-2560,2328,3733,-533,-1217
8965,296,-1144,2768,4477,392,-1162
8970,-272,88,2704,4947,892,-1241
8975,-552,800,2568,4855,882,-1366
8980,-768,1120,2264,4249,521,-1417
8985,-856,920,1896,3400,91,-1279
8990,-704,768,1592,2573,-160,-962
8995,-536,1144,1144,1968,-94,-660
9000,-888,1312,1168,1325,126,-605
9005,-1224,1024,1560,553,271,-656
9010,-1224,-152,1240,-28,170,-629
9015,-840,-976,952,-319,-157,-469
9020,-168,-1576,440,-197,-504,-368
9025,336,-1776,256,110,-515,-328
9030,288,-1992,680,432,-165,-283
9035,96,-2072,1048,741,165,-228
9040,-176,-2016,1360,1009,229,-211
9045,-312,-1712,1352,1246,135,-222
9050,-232,-1368,1096,1468,1,-213
9055,-72,-912,808,1653,-135,-209
9060,-72,-560,600,1758,-250,-246
9065,-112,-224,432,1762,-317,-303
9070,-104,-88,392,1699,-324,-328
9075,-152,-120,608,1603,-277,-317
9080,-176,-320,872,1506,-203,-295
9085,-40,-568,1096,1413,-198,-267
9090,-8,-864,1288,1354,-261,-243
9095,264,-1152,1560,1367,-305,-208
9100,400,-1384,1688,1446,-294,-155
9105,528,-1432,1832,1569,-218,-108
9110,584,-1408,1888,1726,-126,-81
9115,568,-1296,1944,1893,-52,-81
9120,616,-1152,1872,2030,-1,-104
9125,520,-1000,1792,2108,44,-138
9130,528,-952,1904,2122,105,-168
9135,432,-1000,1992,2081,189,-195
9140,248,-1104,2240,2041,252,-219
9145,56,-1240,2256,2034,247,-239
9150,-64,-1352,2216,2036,195,-268
9155,-128,-1368,2168,2037,153,-291
9160,-104,-1312,2112,2023,134,-285
9165,-128,-1224,2064,1993,138,-277
9170,-80,-1112,2040,1960,139,-282
9175,-8,-968,1944,1927,117,-314
9180,16,-800,1880,1894,78,-348
9185,8,-640,1768,1840,50,-386
9190,-120,-512,1680,1774,48,-409
9195,-184,-488,1688,1705,70,-391
9200,-152,-480,1608,1646,93,-341
9205,-200,-488,1792,1596,99,-286
9210,-248,-520,1760,1548,81,-243
9215,-288,-512,1768,1485,35,-206
9220,-208,-544,1784,1407,-36,-174
9225,-160,-592,1768,1321,-109,-156
9230,-72,-640,1768,1242,-150,-157
9235,-56,-672,1816,1182,-149,-167
9240,-32,-776,1880,1150,-127,-166
9245,16,-832,1888,1141,-108,-153
9250,8,-880,1920,1146,-105,-136
9255,88,-920,1896,1161,-118,-122
9260,232,-952,1800,1171,-138,-113
9265,368,-968,1752,1171,-153,-109
9270,448,-968,1608,1155,-145,-114
9275,464,-976,1576,1134,-101,-127
9280,376,-904,1520,1122,-23,-139
9285,240,-784,1504,1111,74,-143
9290,80,-688,1616,1094,169,-141
9295,-144,-480,1728,1078,237,-158
9300,-280,-368,1824,1050,258,-184
9305,-392,-272,1896,999,213,-207
9310,-424,-208,1872,928,99,-213
9315,-352,-256,1840,835,-39,-202
9320,-248,-288,1864,746,-138,-182
9325,-104,-400,1888,663,-165,-158
9330,-80,-512,1896,604,-163,-124
9335,-16,-656,1840,567,-159,-92
9340,48,-768,1872,540,-166,-60
9345,128,-848,1872,547,-168,-35
9350,112,-864,1872,585,-145,-25
9355,80,-912,1888,627,-104,-39
9360,-40,-824,1912,652,-75,-57
9365,-160,-832,1912,654,-83,-57
9370,-200,-856,1912,649,-107,-46
9375,-240,-872,1896,653,-140,-30
9380,-160,-856,1904,692,-165,-17
9385,-64,-792,1912,741,-173,-19
9390,-32,-704,1920,766,-165,-29
9395,8,-704,1920,779,-163,-30
9400,104,-592,1896,801,-168,-25
9405,184,-512,1800,808,-169,-23
9410,200,-424,1776,785,-147,-20
9415,240,-408,1768,748,-108,-16
9420,240,-392,1808,717,-73,-29
9425,152,-344,1800,688,-35,-52
9430,56,-328,1832,659,-2,-65
9435,8,-320,1824,619,8,-62
9440,-16,-336,1888,559,1,-40
9445,-8,-384,1904,514,-17,-9
9450,56,-400,1944,489,-40,15
9455,112,-448,1952,483,-59,28
9460,192,-488,1952,482,-73,25
9465,152,-496,1912,465,-94,10
9470,144,-512,1968,435,-105,-2
9475,216,-536,1968,433,-110,-5
9480,256,-512,2008,456,-100,-17
9485,256,-496,2016,491,-60,-39
9490,216,-480,2000,515,-29,-58
9495,168,-424,2008,528,-19,-68
9500,200,-352,1976,527,-17,-63
9505,184,-312,1928,504,-28,-51
9510,224,-296,1912,480,-30,-33
9515,272,-256,1904,448,-20,-26
9520,264,-256,1944,414,-11,-31
9525,264,-176,1944,413,3,-32
9530,256,-128,1920,416,31,-33
9535,264,-88,1848,398,56,-35
9540,200,-120,1896,349,59,-33
9545,168,-112,1944,305,64,-16
9550,128,-144,2000,257,80,0
9555,88,-208,2008,214,83,-3
9560,88,-256,2048,184,69,-14
9565,32,-336,2032,166,52,-26
9570,16,-392,2040,154,36,-34
9575,48,-432,1992,149,26,-41
9580,56,-496,1864,152,22,-45
9585,16,-480,1968,164,22,-47
9590,32,-496,1992,187,20,-42
9595,80,-488,1952,213,19,-37
9600,96,-472,1976,233,23,-32
9605,120,-448,2000,254,23,-30
9610,136,-368,1920,274,27,-28
9615,184,-320,1984,283,40,-26
9620,208,-280,1984,275,54,-23
9625,168,-224,1952,258,57,-23
9630,184,-240,1960,234,52,-22
9635,168,-232,1920,203,57,-27
9640,152,-232,1944,171,67,-33
9645,112,-208,2000,139,77,-36
9650,104,-232,2040,106,86,-39
9655,80,-248,2016,75,82,-38
9660,80,-296,1952,50,72,-40
9665,64,-312,1944,39,60,-39
9670,40,-344,1920,36,58,-40
9675,40,-344,1952,35,60,-37
9680,32,-328,1968,33,69,-34
9685,8,-328,1952,30,71,-27
9690,8,-368,1928,26,61,-21
9695,16,-360,1960,25,53,-16
9700,8,-376,1976,21,57,-15
9705,8,-352,1992,14,62,-13
9710,0,-368,1992,6,62,-12
9715,-8,-360,1952,-6,51,-11
9720,-32,-352,1952,-17,41,-7
9725,-24,-360,1920,-28,33,0
9730,-32,-376,1912,-37,32,8
9735,-8,-400,1888,-46,30,16
9740,24,-384,1944,-52,26,25
9745,48,-400,1904,-56,22,34
9750,96,-424,1904,-57,18,40
9755,144,-424,1904,-55,18,42
9760,152,-408,1896,-52,29,39
9765,152,-400,1968,-58,49,40
9770,136,-424,1984,-67,64,36
9775,128,-432,1936,-74,72,33
9780,112,-464,1976,-77,77,30
9785,120,-504,1952,-79,81,26
9790,72,-472,2032,-86,93,19
9795,48,-480,2024,-94,98,15
9800,56,-488,2032,-102,87,10
9805,48,-512,1976,-109,67,9
9810,96,-504,1952,-107,46,10
9815,96,-512,1904,-100,39,13
9820,112,-496,1960,-95,49,12
9825,104,-488,1944,-91,66,12
9830,48,-480,1944,-89,74,12
9835,32,-448,1936,-88,71,14
9840,40,-464,1920,-87,69,17
9845,32,-472,1896,-89,68,19
9850,8,-440,1896,-91,70,20
9855,24,-456,1904,-94,73,23
9860,16,-480,1896,-97,74,26
9865,24,-488,1880,-100,74,31
9870,24,-496,1936,-102,73,36
9875,48,-528,1904,-101,70,43
9880,56,-560,1936,-94,65,50
9885,40,-560,1936,-83,66,53
9890,40,-576,1944,-73,76,57
9895,32,-584,1968,-62,86,59
9900,24,-600,1968,-52,85,60
9905,32,-608,1896,-30,72,61
9910,64,-624,1920,-1,61,59
9915,24,-544,1936,25,64,54
9920,16,-512,1952,39,73,47
9925,32,-488,1920,43,74,42
9930,0,-472,1936,39,63,38
9935,16,-456,1896,34,48,38
9940,16,-424,1904,29,38,39
9945,16,-448,1880,26,36,43
9950,16,-448,1856,20,36,46
9955,24,-480,1944,11,38,47
9960,40,-504,1960,2,34,48
9965,8,-472,1944,-5,26,49
9970,16,-496,1992,-9,17,47
9975,8,-504,1960,-12,13,47
9980,16,-496,2000,-13,13,48
9985,24,-512,1976,-17,10,47
9990,24,-520,1968,-24,1,51
9995,40,-544,1968,-25,-13,55
10000,56,-544,1928,-16,-27,58
10005,104,-552,1888,-5,-32,58
10010,64,-544,1864,0,-22,55
10015,56,-544,1936,-1,-5,50
10020,32,-552,1944,-4,4,47
10025,48,-536,1936,-3,-4,48
10030,48,-536,1944,2,-18,50
10035,64,-552,1904,12,-24,50
10040,56,-528,1888,24,-14,48
10045,32,-528,1936,31,3,47
10050,32,-504,1944,29,9,47
10055,16,-544,1952,25,-5,49
10060,48,-536,1904,27,-21,50
10065,80,-528,1928,30,-22,54
10070,80,-512,1968,28,-15,53
10075,88,-488,1928,23,-9,52
10080,88,-512,1944,16,-11,49
10085,96,-504,1936,9,-11,46
10090,72,-528,1936,4,-3,40
10095,96,-528,1912,6,6,36
10100,88,-592,1952,11,15,37
10105,40,-568,1944,20,21,35
10110,40,-600,1944,28,28,32
10115,24,-584,1976,38,33,31
10120,16,-576,1944,50,33,30
10125,88,-576,1960,65,25,30
10130,24,-512,1904,76,24,28
10135,32,-480,1952,79,37,31
10140,16,-464,1992,74,47,32
10145,0,-456,1936,63,43,32
10150,16,-440,1904,48,27,31
10155,32,-424,1904,28,18,30
10160,32,-472,1856,9,19,29
10165,40,-520,1824,-4,22,28
10170,0,-456,1888,-11,23,27
10175,8,-496,1880,-11,17,26
10180,8,-552,1920,-7,16,24
10185,8,-544,1920,2,21,25
10190,8,-552,1928,14,25,26
10195,8,-552,1960,23,25,28
10200,16,-544,1984,28,23,28
10205,0,-536,1960,30,17,25
10210,16,-544,1896,31,8,17
10215,0,-560,1856,31,-5,11
10220,24,-560,1896,32,-3,3
10225,-8,-544,1944,32,9,0
10230,-8,-536,1936,33,14,0
10235,-24,-536,1928,38,3,0
10240,-32,-512,1888,43,-9,2
10245,-8,-512,1880,45,-17,1
10250,0,-496,1864,49,-21,1
10255,16,-496,1912,52,-24,0
10260,40,-496,1888,57,-25,2
10265,72,-472,1928,60,-19,1
10270,72,-464,1904,62,-8,3
10275,40,-496,1936,60,0,4
10280,48,-496,1984,53,1,3
10285,32,-456,1976,44,1,1
10290,32,-480,2024,30,-4,1
10295,40,-496,1984,13,-11,-2
10300,24,-496,1920,1,-16,-6
10305,24,-512,1936,-6,-21,-12
10310,16,-512,1928,-12,-19,-17
10315,-16,-504,1952,-21,-19,-22
10320,-40,-504,1984,-33,-24,-25
10325,-32,-488,1984,-40,-34,-24
10330,-56,-480,1912,-43,-47,-23
10335,-56,-496,1864,-41,-55,-18
10340,-32,-480,1872,-36,-56,-14
10345,-40,-480,1904,-31,-51,-11
10350,0,-488,1888,-29,-48,-8
10355,0,-504,1944,-31,-53,-4
10360,8,-496,1936,-36,-63,1
10365,16,-496,1928,-44,-69,5
10370,64,-528,1920,-47,-69,9
10375,64,-520,1912,-52,-63,11
10380,80,-544,1912,-60,-51,12
10385,72,-528,1960,-68,-44,16
10390,64,-560,1936,-72,-41,18
10395,80,-552,1936,-67,-42,21
10400,96,-552,1960,-59,-42,22
10405,136,-568,1928,-51,-38,24
10410,136,-568,1944,-43,-32,27
10415,152,-544,1936,-37,-31,28
10420,184,-536,1920,-31,-36,28
10425,200,-536,1880,-27,-35,25
10430,216,-552,1880,-22,-21,22
10435,200,-552,1936,-19,-1,18
10440,184,-536,1936,-20,22,15
10445,128,-512,1944,-25,37,12
10450,80,-496,1920,-32,40,11
10455,88,-488,1952,-39,37,12
10460,64,-512,1944,-49,34,14
10465,48,-504,1944,-63,33,17
10470,56,-488,1960,-76,34,19
10475,48,-496,1968,-88,33,20
10480,88,-528,1912,-96,27,22
10485,72,-528,1896,-100,16,20
10490,88,-552,1880,-96,15,19
10495,96,-568,1848,-89,23,17
10500,112,-600,1904,-82,38,17
10505,96,-584,1904,-76,49,16
10510,48,-560,1896,-65,51,19
10515,48,-600,1904,-53,48,21
10520,56,-544,1904,-43,45,24
10525,48,-560,1904,-39,52,24
10530,64,-568,1920,-43,65,25
10535,48,-544,1936,-51,66,26
10540,80,-536,1944,-59,62,26
10545,48,-536,1936,-66,60,24
10550,64,-520,1928,-74,63,23
10555,64,-536,1960,-80,63,23
10560,40,-568,1944,-83,63,24
10565,48,-568,1928,-87,64,24
10570,16,-552,1920,-91,60,23
10575,32,-584,1880,-96,59,25
10580,32,-592,1888,-99,59,26
10585,32,-592,1840,-100,61,24
10590,48,-560,1840,-100,62,26
10595,48,-608,1832,-94,64,24
10600,56,-592,1888,-88,70,29
10605,72,-560,1888,-86,82,32
10610,32,-576,1912,-80,95,32
10615,64,-592,1920,-72,102,33
10620,64,-608,1896,-69,99,33
10625,16,-576,1928,-75,93,30
10630,24,-568,1976,-88,93,26
10635,16,-576,1984,-106,96,23
10640,8,-600,1968,-122,95,18
10645,0,-600,1928,-132,86,19
10650,0,-592,1912,-141,74,17
10655,8,-608,1912,-147,71,15
10660,16,-608,1880,-151,73,16
10665,0,-616,1888,-153,74,18
10670,48,-608,1880,-152,75,20
10675,24,-592,1872,-150,75,21
10680,8,-600,1888,-150,78,21
10685,24,-592,1880,-154,79,20
10690,16,-584,1872,-158,78,20
10695,24,-584,1936,-161,78,20
10700,8,-616,1904,-160,77,21
10705,16,-608,1896,-157,77,23
10710,32,-632,1888,-153,79,25
10715,40,-648,1896,-151,82,22
10720,40,-624,1912,-155,84,18
10725,16,-624,1872,-161,86,13
10730,8,-640,1888,-170,87,7
10735,0,-640,1896,-179,92,4
10740,-16,-640,1872,-186,95,4
10745,-8,-616,1944,-188,95,5
10750,-32,-616,1864,-189,94,4
10755,-56,-664,1912,-189,86,6
10760,-16,-664,1872,-187,73,10
10765,-24,-664,1888,-181,57,11
10770,0,-696,1832,-174,48,11
10775,8,-680,1824,-168,50,11
10780,8,-664,1872,-165,55,9
10785,24,-656,1864,-168,61,5
10790,16,-656,1920,-173,67,-1
10795,8,-640,1864,-178,69,-4
10800,16,-672,1864,-185,66,-10
10805,-16,-640,1840,-193,65,-10
10810,-24,-664,1832,-193,69,-10
10815,0,-656,1848,-196,79,-9
10820,-24,-672,1840,-197,86,-9
10825,-48,-672,1848,-200,86,-10
10830,-64,-704,1848,-202,77,-10
10835,-40,-680,1856,-197,58,-12
10840,-8,-712,1824,-188,48,-11
10845,0,-712,1832,-178,48,-11
10850,0,-712,1848,-172,54,-7
10855,-8,-728,1864,-166,61,-4
10860,0,-704,1888,-164,63,-5
10865,16,-728,1896,-164,60,-6
10870,0,-704,1888,-165,54,-9
10875,16,-728,1832,-168,47,-10
10880,0,-712,1856,-172,48,-13
10885,-8,-712,1856,-176,54,-15
10890,-8,-704,1832,-181,56,-15
10895,-48,-736,1856,-182,55,-14
10900,-40,-752,1848,-179,50,-13
10905,-24,-744,1840,-173,43,-12
10910,-64,-752,1824,-168,34,-12
10915,-32,-776,1824,-162,27,-13
10920,-24,-720,1832,-160,17,-14
10925,-8,-752,1824,-159,11,-17
10930,0,-744,1832,-160,7,-19
10935,16,-736,1840,-162,8,-22
10940,16,-744,1856,-166,15,-24
10945,32,-752,1832,-170,24,-23
10950,8,-776,1856,-169,27,-22
10955,24,-792,1872,-166,25,-22
10960,0,-768,1880,-161,22,-24
10965,8,-784,1864,-157,16,-25
10970,8,-760,1840,-154,9,-26
10975,8,-768,1800,-154,4,-25
10980,16,-800,1792,-151,4,-27
10985,8,-776,1776,-150,11,-30
10990,8,-760,1760,-152,16,-33
10995,0,-768,1824,-155,24,-36
11000,-8,-784,1840,-158,28,-34
11005,0,-816,1840,-158,28,-31
11010,-32,-808,1824,-157,27,-29
11015,0,-840,1840,-150,28,-28
11020,-32,-816,1880,-143,30,-26
11025,-8,-856,1840,-138,27,-26
11030,-24,-824,1816,-134,21,-24
11035,0,-808,1792,-132,15,-21
11040,0,-832,1792,-133,16,-20
11045,-32,-816,1816,-132,19,-15
11050,-24,-816,1792,-128,20,-9
11055,-64,-848,1840,-124,19,-3
11060,-40,-864,1832,-115,16,0
11065,-8,-856,1816,-105,17,5
11070,0,-840,1824,-99,21,6
11075,0,-824,1840,-98,23,5
11080,0,-808,1832,-102,23,6
11085,0,-800,1848,-109,20,7
11090,8,-824,1776,-111,20,8
11095,16,-840,1768,-115,26,9
11100,8,-872,1768,-116,33,7
11105,-8,-872,1800,-117,40,3
11110,0,-856,1824,-116,43,-3
11115,-40,-880,1800,-115,41,-6
11120,-56,-920,1808,-112,37,-6
11125,-32,-904,1800,-106,30,-2
11130,-24,-928,1752,-92,28,4
11135,-16,-912,1760,-70,33,9
11140,-16,-912,1760,-53,41,9
11145,-24,-864,1816,-46,45,9
11150,-8,-840,1832,-43,43,10
11155,0,-848,1832,-44,37,15
11160,0,-808,1824,-49,32,17
11165,16,-832,1800,-62,31,20
11170,8,-840,1744,-73,26,19
11175,24,-880,1744,-77,23,19
11180,16,-888,1760,-77,28,17
11185,8,-880,1792,-75,41,16
11190,16,-888,1816,-71,49,19
11195,0,-880,1848,-66,50,20
11200,-8,-888,1800,-64,45,21
11205,-8,-912,1752,-57,40,23
11210,0,-920,1784,-52,41,25
11215,16,-888,1720,-49,45,23
11220,8,-912,1784,-46,49,21
11225,0,-912,1800,-42,49,22
11230,0,-880,1800,-34,48,21
11235,0,-880,1808,-32,47,20
11240,0,-872,1752,-31,51,17
11245,0,-864,1776,-36,55,17
11250,-32,-848,1760,-43,59,15
11255,0,-856,1784,-49,62,15
11260,-16,-856,1800,-52,62,16
11265,-24,-848,1768,-49,61,18
11270,-16,-896,1768,-46,60,25
11275,-8,-880,1760,-46,60,30
11280,24,-864,1800,-49,63,35
11285,8,-896,1784,-52,67,38
11290,-16,-880,1776,-55,72,38
11295,0,-880,1824,-60,76,35
11300,-40,-856,1816,-66,75,33
11305,-16,-848,1792,-72,71,31
11310,-48,-832,1824,-80,67,29
11315,-32,-848,1776,-90,64,25
11320,-24,-864,1784,-99,61,23
11325,-40,-880,1768,-104,59,20
11330,-40,-904,1776,-104,57,20
11335,-16,-928,1752,-95,58,23
11340,0,-920,1744,-83,63,27
11345,-24,-936,1744,-78,69,29
11350,-16,-944,1744,-75,68,28
11355,-24,-936,1728,-70,63,27
11360,0,-944,1720,-61,58,24
11365,8,-936,1736,-51,56,24
11370,0,-952,1752,-44,57,24
11375,-32,-960,1752,-35,58,23
11380,-32,-912,1776,-30,60,24
11385,-32,-888,1784,-27,62,20
11390,-72,-896,1784,-27,64,18
11395,-40,-912,1736,-24,58,19
11400,-64,-896,1720,-19,52,17
11405,0,-944,1752,-20,50,14
11410,-24,-920,1736,-25,50,11
11415,-72,-920,1768,-29,50,11
11420,-64,-912,1752,-32,47,13
11425,-48,-928,1760,-34,45,13
11430,-112,-920,1648,-39,44,13
11435,-72,-904,1768,-43,41,11
11440,-104,-904,1744,-44,39,6
11445,-80,-896,1736,-46,39,6
11450,-88,-920,1784,-52,39,9
11455,-96,-928,1776,-54,38,12
11460,-48,-936,1784,-55,36,14
11465,-56,-960,1776,-52,36,17
11470,-48,-1000,1752,-46,34,19
11475,-40,-1000,1760,-39,34,19
11480,-56,-1000,1736,-34,34,17
11485,-88,-1000,1760,-29,32,13
11490,-56,-1000,1736,-23,29,10
11495,-48,-952,1744,-16,29,8
11500,-80,-952,1728,-9,28,9
11505,-96,-936,1752,-5,30,9
11510,-72,-928,1760,-5,28,7
11515,-56,-912,1736,-8,25,6
11520,0,-896,1760,-13,23,7
11525,-56,-904,1752,-17,24,4
11530,-32,-904,1760,-25,26,4
11535,-40,-936,1760,-33,28,2
11540,-40,-920,1744,-38,25,3
11545,-32,-928,1760,-38,23,1
11550,-48,-928,1728,-36,23,-1
11555,-40,-936,1728,-33,24,-2
11560,-40,-936,1720,-34,26,-5
11565,-56,-936,1768,-36,26,-6
11570,-56,-896,1760,-35,29,-6
11575,-56,-928,1760,-36,32,-7
11580,-96,-928,1768,-40,31,-7
11585,-72,-936,1752,-43,28,-9
11590,-80,-944,1768,-46,23,-12
11595,-104,-944,1840,-49,22,-15
11600,-72,-968,1784,-52,18,-18
11605,-96,-936,1744,-54,16,-20
11610,-88,-960,1760,-52,16,-21
11615,-96,-952,1712,-49,16,-20
11620,-104,-952,1736,-46,14,-17
11625,-80,-936,1736,-47,10,-14
11630,-104,-952,1728,-49,9,-12
11635,-80,-944,1728,-51,7,-12
11640,-72,-968,1704,-52,3,-14
11645,-96,-952,1768,-50,2,-16
11650,-96,-952,1784,-50,0,-18
11655,-96,-952,1728,-49,-1,-18
11660,-80,-968,1720,-48,0,-18
11665,-88,-992,1720,-43,1,-19
11670,-64,-984,1728,-37,-2,-18
11675,-64,-984,1728,-33,-2,-18
11680,-80,-1000,1712,-31,-5,-19
11685,-88,-1008,1736,-25,-7,-22
11690,-112,-1000,1728,-22,-10,-22
11695,-88,-1000,1728,-19,-10,-23
11700,-72,-984,1736,-14,-10,-21
11705,-40,-1000,1712,-7,-11,-20
11710,-24,-1000,1760,-2,-15,-19
11715,-40,-936,1712,1,-15,-19
11720,-48,-984,1680,6,-15,-17
11725,-56,-952,1696,3,-14,-17
11730,-56,-968,1736,-4,-10,-16
11735,-64,-992,1768,-12,-9,-16
11740,-48,-992,1728,-13,-14,-14
11745,-56,-992,1776,-10,-22,-16
11750,-64,-984,1680,-5,-24,-17
11755,-64,-1024,1712,1,-25,-16
11760,-8,-1040,1744,3,-27,-18
11765,-8,-1040,1592,3,-28,-19
11770,-72,-952,1736,0,-27,-20
11775,-80,-968,1768,0,-24,-20
11780,-56,-952,1736,3,-28,-18
11785,-56,-984,1720,5,-35,-15
11790,-64,-968,1704,9,-41,-12
11795,-8,-976,1712,10,-42,-11
11800,0,-936,1712,8,-36,-8
11805,0,-952,1784,-4,-28,-9
11810,0,-928,1760,-17,-31,-10
11815,-8,-968,1720,-23,-37,-9
11820,0,-992,1728,-24,-36,-9
11825,0,-992,1736,-26,-29,-7
11830,16,-1016,1728,-21,-26,1
11835,0,-1056,1704,-18,-22,-3
11840,8,-1048,1688,-13,-14,-2
11845,8,-1048,1704,-5,-5,-4
11850,0,-1008,1728,4,-5,-2
11855,0,-1008,1744,13,-6,-4
11860,0,-976,1744,14,-5,-8
11865,-8,-944,1712,11,-6,-8
11870,-8,-928,1720,5,-8,-9
11875,0,-960,1712,0,-10,-12
11880,-24,-976,1696,-8,-7,-13
11885,0,-968,1688,-13,-4,-11
11890,-8,-968,1712,-19,-2,-11
11895,0,-1008,1704,-26,1,-12
11900,-16,-1032,1696,-25,5,-12
11905,-16,-1032,1720,-21,13,-11
11910,-32,-1024,1736,-16,19,-7
11915,-48,-1016,1760,-9,20,-8
11920,-40,-1016,1736,-3,14,-9
11925,-56,-1024,1720,0,10,-13
11930,-72,-1008,1680,3,7,-14
11935,-64,-984,1704,3,6,-15
11940,-24,-976,1696,3,9,-14
11945,-48,-984,1704,1,9,-13
11950,-32,-968,1720,-3,11,-8
11955,-48,-1000,1720,-8,12,-6
11960,-32,-1000,1744,-11,12,-6
11965,-40,-1000,1736,-13,7,-8
11970,-48,-1000,1704,-16,5,-10
11975,-16,-928,1520,-20,6,-12
11980,-32,-1008,1728,-20,8,-11
11985,-56,-1016,1696,-17,5,-11
11990,-56,-1016,1704,-10,6,-11
11995,-72,-1016,1680,-1,5,-10
12000,-48,-1024,1656,6,1,-11
12005,-32,-1016,1696,9,0,-12
12010,-32,-1016,1704,13,0,-11
12015,-48,-1008,1736,20,4,-13
12020,-72,-1024,1752,24,5,-15
12025,-56,-992,1768,24,2,-20
12030,-64,-1000,1696,22,-3,-24
12035,-88,-992,1720,16,-6,-24
12040,-96,-968,1752,12,-5,-23
12045,-64,-952,1720,6,1,-25
12050,-96,-968,1760,-2,1,-21
12055,-88,-976,1744,-7,-7,-18
12060,-80,-960,1744,-14,-15,-16
12065,-96,-960,1704,-19,-22,-16
12070,-72,-1000,1704,-26,-24,-16
12075,-88,-984,1712,-34,-25,-19
12080,-88,-1008,1696,-39,-25,-19
12085,-56,-1048,1712,-38,-28,-18
12090,-40,-1040,1696,-35,-28,-17
12095,-40,-1056,1696,-30,-27,-16
12100,-32,-1080,1704,-20,-25,-15
12105,-24,-1064,1712,-9,-24,-14
12110,-48,-1040,1720,0,-25,-12
12115,-32,-1024,1704,6,-29,-15
12120,-16,-1000,1680,6,-31,-15
12125,0,-1008,1720,4,-30,-14
12130,0,-968,1704,1,-34,-10
12135,16,-1000,1688,-5,-38,-8
12140,64,-1040,1712,-7,-38,-9
12145,24,-992,1656,-8,-40,-12
12150,16,-1016,1680,-13,-37,-17
12155,24,-1048,1720,-18,-31,-21
12160,32,-1040,1672,-20,-28,-23
12165,16,-1040,1696,-19,-26,-25
12170,8,-1048,1688,-12,-23,-25
12175,0,-1040,1704,-6,-18,-22
12180,0,-1048,1680,-1,-14,-24
12185,0,-1040,1696,1,-6,-23
12190,0,-1032,1704,0,-1,-19
12195,0,-1048,1704,-4,2,-15
12200,0,-1040,1688,-5,4,-12
12205,16,-1024,1712,0,4,-11
12210,-16,-1032,1672,4,3,-12
12215,-24,-1032,1704,5,0,-13
12220,-32,-1016,1696,1,-3,-15
12225,-24,-1040,1728,-3,-4,-15
12230,-16,-1024,1680,-3,-6,-13
12235,0,-1024,1664,-2,-6,-12
12240,-40,-1032,1688,1,-3,-8
12245,0,-1040,1688,6,-2,-8
12250,-40,-1040,1656,11,-2,-7
12255,0,-1048,1640,16,-1,-7
12260,-16,-1048,1648,18,4,-5
12265,-16,-1032,1712,22,8,-6
12270,-16,-1048,1696,24,11,-8
12275,-56,-1056,1696,25,11,-11
12280,-56,-1040,1680,26,9,-11
12285,-64,-1048,1736,27,7,-10
12290,-32,-1072,1704,34,5,-6
12295,-32,-1040,1688,36,5,-3
12300,-32,-1032,1704,37,5,-4
12305,-48,-1048,1816,41,6,-2
12310,-8,-1024,1664,47,6,-1
12315,0,-1040,1672,50,1,-1
12320,8,-1024,1696,53,-2,-2
12325,0,-1032,1712,53,-2,-1
12330,0,-1024,1688,53,1,1
12335,0,-1048,1680,52,0,2
12340,-8,-1056,1664,55,-1,1
12345,0,-1048,1696,61,0,0
12350,0,-1040,1696,64,3,-1
12355,-16,-1024,1704,66,4,-1
12360,0,-1016,1688,64,5,1
12365,-8,-1008,1672,58,5,4
12370,0,-1008,1704,53,8,4
12375,-16,-1016,1704,49,10,8
12380,-8,-1048,1720,47,7,10
12385,8,-1008,1720,46,6,9
12390,0,-1032,1680,42,6,5
12395,-24,-1024,1712,41,8,2
12400,-24,-1048,1712,40,11,0
12405,-16,-1048,1704,42,13,-1
12410,-24,-1040,1696,46,13,0
12415,-48,-1048,1680,53,16,-3
12420,-48,-1064,1672,59,15,-5
12425,-64,-1032,1656,61,13,-6
12430,-32,-1048,1648,60,12,-7
12435,-72,-1040,1648,61,14,-3
12440,-56,-1032,1696,59,15,1
12445,-32,-1024,1680,58,14,6
12450,-24,-1024,1672,57,10,8
12455,-32,-1032,1696,54,5,9
12460,-48,-1056,1672,52,-1,8
12465,0,-1056,1664,53,-7,7
12470,0,-1056,1680,59,-6,5
12475,8,-1040,1664,64,0,5
12480,8,-1024,1712,64,7,4
12485,-8,-1016,1712,59,6,0
12490,0,-1008,1712,56,4,2
12495,0,-1024,1688,55,3,1
12500,0,-1016,1664,50,7,1
12505,8,-1048,1704,42,14,3
12510,8,-1016,1720,38,16,3
12515,0,-1040,1688,37,14,5
12520,16,-1040,1640,38,13,5
12525,8,-1048,1680,40,14,5
12530,0,-1032,1712,41,16,4
12535,8,-1032,1736,39,18,2
12540,0,-1032,1744,36,20,1
12545,-48,-1016,1696,34,22,1
12550,-32,-1040,1672,35,21,-1
12555,-24,-1048,1672,37,22,-1
12560,-48,-1024,1656,40,21,-2
12565,-32,-1024,1656,43,23,-5
12570,-56,-1056,1648,42,26,-1
12575,-56,-1032,1680,44,28,3
12580,-24,-1032,1704,46,30,7
12585,-48,-1032,1696,47,29,8
12590,-24,-1048,1704,46,25,4
12595,0,-1032,1704,45,21,0
12600,-48,-1008,1712,44,22,0
12605,-16,-1000,1688,46,27,0
12610,0,-992,1696,47,27,-1
12615,-32,-992,1704,44,25,-3
12620,0,-968,1696,38,24,-4
12625,-24,-960,1672,31,27,-6
12630,-48,-1016,1664,23,27,-6
12635,-24,-1016,1712,15,28,-6
12640,-16,-1016,1704,9,30,-4
12645,16,-1008,1656,6,32,-2
12650,-16,-1032,1688,5,30,-2
12655,0,-1032,1704,5,33,-4
12660,0,-1024,1680,4,35,-6
12665,0,-1016,1688,3,36,-9
12670,-32,-1016,1712,-1,40,-9
12675,-32,-1024,1688,-4,46,-7
12680,-40,-1016,1728,-3,47,-5
12685,-32,-1128,1648,-5,45,-8
12690,-32,-1024,1680,-6,48,-8
12695,-72,-1016,1736,-9,46,-10
12700,-40,-1032,1720,-16,39,-8
12705,-24,-1032,1728,-25,34,-6
12710,0,-1032,1688,-29,35,-6
12715,-24,-1040,1696,-32,34,-7
12720,-16,-1048,1664,-32,35,-7
12725,-32,-1040,1712,-32,32,-6
12730,-40,-1056,1672,-31,31,-6
12735,-8,-1088,1664,-28,30,-7
12740,-32,-1072,1648,-18,34,-5
12745,0,-1056,1664,-6,38,-5
12750,-48,-1048,1688,0,35,-7
12755,-40,-1040,1656,3,34,-9
12760,-8,-1064,1672,1,34,-10
12765,-40,-1032,1688,-2,32,-11
12770,-32,-1064,1640,-2,29,-11
12775,-96,-1048,1640,-1,28,-13
12780,-56,-1064,1664,1,26,-9
12785,-80,-1056,1656,-1,21,-9
12790,-80,-1048,1664,-5,17,-9
12795,-40,-1072,1648,-9,17,-12
12800,-40,-1080,1672,-10,18,-13
12805,-40,-1088,1688,-6,20,-11
12810,-32,-1112,1680,-2,18,-12
12815,-40,-1088,1632,3,19,-14
12820,-32,-1080,1664,6,20,-16
12825,-40,-1064,1664,9,19,-15
12830,-72,-1080,1672,11,19,-14
12835,-56,-1056,1680,13,15,-15
12840,-72,-1072,1672,16,13,-16
12845,-48,-1064,1656,17,11,-14
12850,-64,-1072,1792,17,9,-14
12855,-32,-1064,1680,18,9,-13
12860,-56,-1048,1672,16,9,-9
12865,-8,-1072,1688,15,10,-8
12870,-56,-1056,1696,14,11,-6
12875,-16,-1056,1664,13,10,-3
12880,0,-1056,1696,15,6,-4
12885,0,-1088,1632,18,5,-2
12890,-8,-1080,1648,18,8,1
12895,0,-1064,1648,16,10,4
12900,-24,-1056,1576,14,12,5
12905,0,-1080,1672,18,13,4
12910,0,-1064,1664,22,12,1
12915,-16,-1056,1640,26,12,1
12920,0,-1064,1640,28,13,-2
12925,-8,-1032,1648,27,13,-5
12930,-8,-1048,1656,24,13,-6
12935,-16,-1048,1656,20,16,-6
12940,-16,-1072,1704,19,18,-5
12945,-24,-1064,1648,21,16,-4
12950,-32,-1056,1656,25,16,-4
12955,-24,-1056,1640,28,15,-3
12960,-16,-1064,1656,28,17,-3
12965,0,-1088,1648,27,18,-5
12970,-24,-1064,1680,25,19,-5
12975,-8,-1040,1688,24,17,-6
12980,-16,-1040,1648,27,16,-5
12985,-8,-1072,1656,27,16,-3
12990,0,-1080,1656,26,20,-6
12995,-32,-1064,1656,24,23,-4
13000,-40,-1032,1688,22,24,-4
13005,-32,-1048,1664,20,22,-3
13010,-8,-1072,1632,16,20,-4
13015,-8,-1072,1680,16,21,-5
13020,-16,-1072,1688,19,23,-3
13025,-56,-1096,1672,22,23,-6
13030,-40,-1096,1680,29,22,-7
13035,-32,-1104,1664,32,20,-10
13040,0,-1080,1632,37,18,-12
13045,-32,-1064,1648,42,18,-14
13050,-32,-1056,1640,46,21,-15
13055,-24,-1080,1616,47,24,-17
13060,-56,-1048,1672,46,25,-19
13065,-56,-992,1640,41,24,-18
13070,-32,-1048,1672,36,25,-15
13075,-64,-1056,1680,32,27,-14
13080,-80,-1040,1680,29,27,-12
13085,-56,-1064,1672,29,26,-9
13090,-56,-1056,1664,30,24,-3
13095,-72,-1072,1680,29,20,-4
13100,-72,-1056,1648,28,15,-7
13105,-56,-1032,1680,23,12,-7
13110,-48,-1048,1696,17,10,-8
13115,-48,-1056,1664,13,11,-8
13120,-32,-1080,1640,9,9,-6
13125,-40,-1080,1640,6,7,-5
13130,-16,-1088,1648,4,8,-7
13135,-32,-1096,1648,3,10,-6
13140,-16,-1112,1648,5,13,-5
13145,-16,-1128,1640,7,15,-5
13150,-40,-1112,1648,11,14,-4
13155,-40,-1128,1648,20,14,-3
13160,-48,-1096,1664,30,16,0
13165,-48,-1104,1680,34,19,4
13170,-32,-1096,1704,37,18,8
13175,-16,-1080,1672,40,16,8
13180,0,-1064,1664,44,13,7
13185,0,-1072,1640,47,12,3
13190,-8,-1040,1640,44,12,-2
13195,-16,-1056,1648,38,11,-5
13200,-48,-1080,1648,32,10,-7
13205,-24,-1056,1664,25,12,-5
13210,-40,-1088,1656,23,16,-4
13215,-48,-1080,1648,22,20,-3
13220,-64,-1072,1648,19,18,-4
13225,-56,-1096,1704,19,17,-4
13230,-64,-1056,1744,20,15,-4
13235,-48,-1104,1672,21,10,-5
13240,-80,-1088,1648,26,7,-5
13245,-72,-1080,1648,31,8,-3
13250,-64,-1064,1680,33,8,-3
13255,-40,-1064,1672,33,7,0
13260,-32,-1056,1632,29,4,-2
13265,-24,-1064,1608,26,2,-1
13270,-48,-1056,1656,24,5,-1
13275,-64,-1072,1672,26,5,-4
13280,-88,-1096,1656,32,3,-1
13285,-56,-1064,1696,37,1,0
13290,-24,-1080,1656,41,-2,3
13295,0,-1048,1672,38,-3,4
13300,-56,-1072,1664,29,-2,2
13305,0,-1064,1648,25,-1,-1
13310,0,-1080,1648,24,-2,-3
13315,-40,-1064,1656,23,-2,-2
13320,-8,-1056,1656,20,-3,-1
13325,0,-1072,1656,18,-4,2
13330,0,-1088,1664,18,-1,1
13335,8,-1072,1640,19,1,1
13340,0,-1072,1616,21,2,0
13345,0,-1104,1632,24,0,-3
13350,-32,-1096,1632,30,1,-1
13355,-24,-1088,1640,33,7,-1
13360,-16,-1104,1632,34,10,1
13365,0,-1112,1664,36,10,2
13370,-24,-1112,1624,39,10,2
13375,-24,-1096,1608,43,11,2
13380,-24,-1112,1656,47,13,1
13385,-24,-1112,1616,51,13,-1
13390,-48,-1080,1680,54,12,-4
13395,-48,-1072,1656,52,14,0
13400,-40,-1056,1640,47,14,-1
13405,-64,-1064,1688,41,12,1
13410,-40,-1072,1656,35,10,0
13415,-72,-1064,1640,31,8,-2
13420,-48,-1064,1632,29,6,-2
13425,-72,-1072,1656,28,5,-4
13430,-40,-1072,1656,26,4,-2
13435,-56,-1048,1656,21,3,0
13440,-40,-1080,1664,16,2,-1
13445,-56,-1072,1664,11,1,-2
13450,-56,-1104,1656,9,-1,-3
13455,-24,-1152,1640,10,-3,-5
13460,-48,-1112,1624,18,-6,-4
13465,-40,-1144,1640,22,-5,-4
13470,-8,-1136,1640,25,-4,-4
13475,-32,-1112,1672,28,-2,-6
13480,-16,-1120,1624,31,0,-6
13485,-24,-1072,1664,34,1,-7
13490,-32,-1096,1624,37,2,-9
13495,-40,-1104,1680,38,1,-8
13500,-48,-1096,1632,36,1,-9
13505,32,-1072,1632,31,0,-7
13510,-88,-1064,1648,25,-1,-7
13515,-56,-1096,1648,21,-4,-7
13520,-80,-1080,1640,15,-5,-10
13525,-48,-1136,1648,14,-5,-10
13530,-16,-1128,1616,21,-3,-8
13535,-48,-1128,1608,30,-3,-5
13540,-24,-1088,1632,37,-5,-4
13545,-8,-1112,1608,42,-5,-6
13550,-16,-1088,1640,45,-5,-4
13555,0,-1120,1648,47,-2,-6
13560,-16,-1112,1624,47,0,-7
13565,-48,-1072,1616,49,2,-9
13570,-48,-1104,1640,50,3,-12
13575,-48,-1088,1632,52,4,-14
13580,-48,-1104,1648,53,2,-19
13585,-32,-1112,1632,52,0,-18
13590,0,-1104,1664,52,0,-21
13595,-48,-1104,1648,54,1,-19
13600,-32,-1104,1664,52,4,-15
13605,-32,-1088,1608,51,3,-13
13610,-56,-1048,1624,48,2,-10
13615,-16,-1088,1664,44,-2,-10
13620,-8,-1064,1656,42,-2,-8
13625,0,-1096,1656,41,-1,-11
13630,0,-1080,1656,39,1,-12
13635,0,-1112,1664,40,3,-11
13640,8,-1112,1640,42,7,-12
13645,0,-1096,1648,40,11,-12
13650,8,-1104,1632,38,12,-13
13655,0,-1120,1600,34,10,-16
13660,-16,-1112,1624,32,11,-20
13665,-48,-1128,1672,32,13,-23
13670,-40,-1096,1672,34,15,-20
13675,-40,-1096,1672,40,15,-16
13680,-32,-1128,1640,46,14,-13
13685,-8,-1104,1616,49,13,-13
13690,-8,-1080,1624,53,13,-12
13695,0,-1112,1608,56,14,-11
13700,0,-1080,1616,55,15,-10
13705,-8,-1104,1640,56,17,-8
13710,-24,-1080,1656,57,18,-6
13715,-8,-1080,1624,52,17,-6
13720,-8,-1088,1640,48,16,-5
13725,-32,-1088,1640,41,16,-4
13730,0,-1104,1648,37,17,-5
13735,-24,-1096,1640,34,18,-5
13740,-16,-1112,1648,36,20,-4
13745,-8,-1112,1664,39,18,-4
13750,-8,-1120,1672,40,18,-5
13755,-8,-1120,1632,41,20,-7
13760,-8,-1096,1656,42,21,-8
13765,-16,-1096,1624,46,21,-6
13770,0,-1112,1608,50,23,-8
13775,48,-1080,1608,53,25,-11
13780,-16,-1080,1608,54,27,-14
13785,-24,-1104,1608,54,26,-15
13790,-56,-1088,1640,49,26,-15
13795,-64,-1056,1624,44,26,-13
13800,-40,-1072,1648,41,25,-9
13805,-40,-1056,1640,41,24,-8
13810,-40,-1104,1672,38,23,-8
13815,-32,-1072,1640,39,24,-6
13820,-24,-1128,1624,38,23,-8
13825,-72,-1096,1656,38,20,-8
13830,-56,-1080,1648,38,18,-7
13835,-64,-1072,1664,38,18,-9
13840,-32,-1080,1648,39,20,-9
13845,-72,-1088,1656,41,21,-11
13850,-32,-1112,1664,40,19,-13
13855,-24,-1096,1616,39,20,-16
13860,-40,-1112,1624,37,19,-19
13865,-80,-1096,1624,37,18,-18
13870,-56,-1128,1632,38,17,-20
13875,-56,-1112,1616,41,20,-19
13880,-72,-1080,1656,41,23,-16
13885,-80,-1072,1648,36,21,-15
13890,-56,-1072,1664,30,18,-16
13895,-48,-1096,1608,28,12,-17
13900,-24,-1056,1672,25,10,-17
13905,-48,-1056,1656,17,10,-17
13910,0,-1080,1656,11,11,-14
13915,-40,-1128,1632,10,11,-11
13920,-32,-1120,1616,14,11,-6
13925,0,-1160,1608,20,12,-7
13930,-16,-1136,1640,25,13,-10
13935,0,-1112,1656,31,13,-12
13940,8,-1104,1648,33,14,-11
13945,-8,-1120,1672,32,15,-11
13950,-24,-1080,1640,34,16,-11
13955,-8,-1104,1584,36,14,-9
13960,0,-1112,1608,45,12,-9
13965,-24,-1112,1624,48,13,-10
13970,-48,-1120,1632,48,11,-12
13975,0,-1120,1608,50,10,-14
13980,-32,-1096,1640,49,9,-15
13985,-40,-1112,1640,44,10,-14
13990,-48,-1120,1632,42,11,-11
13995,-24,-1120,1680,45,12,-7
14000,-40,-1104,1680,49,10,-6
14005,-48,-1080,1640,49,8,-9
14010,-24,-1104,1632,47,7,-11
14015,-64,-1096,1640,45,5,-14
14020,-32,-1064,1640,42,7,-13
14025,-64,-1088,1632,38,10,-12
14030,-16,-1104,1632,34,8,-11
14035,-32,-1088,1624,32,9,-8
14040,-32,-1080,1656,34,8,-7
14045,8,-1136,1624,32,12,-8
14050,0,-1120,1632,34,13,-7
14055,-16,-1104,1624,35,14,-6
14060,-8,-1088,1616,35,12,-5
14065,0,-1128,1632,36,12,-4
14070,0,-1136,1624,37,13,-4
14075,0,-1088,1632,38,13,-2
14080,0,-1120,1632,41,17,-1
14085,8,-1112,1648,43,19,0
14090,-8,-1104,1648,45,22,-1
14095,-40,-1080,1688,43,22,-4
14100,0,-1112,1624,39,22,-6
14105,0,-1096,1632,34,21,-11
14110,-24,-1096,1624,31,20,-13
14115,-56,-1088,1624,30,24,-10
14120,-16,-1104,1648,30,25,-10
14125,0,-1112,1640,29,27,-7
14130,-32,-1112,1648,28,28,-9
14135,-8,-1112,1648,28,26,-11
14140,-16,-1152,1592,29,24,-12
14145,-48,-1128,1624,32,26,-13
14150,-56,-1136,1608,35,30,-13
14155,-80,-1088,1648,38,33,-13
14160,-64,-1112,1632,40,33,-11
14165,-48,-1112,1640,41,34,-10
14170,-24,-1128,1632,40,31,-9
14175,-24,-1160,1656,41,31,-9
14180,-56,-1112,1640,44,28,-9
14185,-56,-1120,1632,49,26,-9
14190,-48,-1128,1656,50,24,-9
14195,-40,-1096,1664,48,24,-9
14200,-40,-1096,1640,43,23,-10
14205,-32,-1096,1608,35,23,-6
14210,-40,-1104,1616,28,23,-3
14215,0,-1080,1616,23,24,-1
14220,-16,-1112,1624,22,27,-2
14225,-32,-1096,1640,22,27,0
14230,-16,-1096,1616,22,26,-1
14235,0,-1104,1664,20,26,-2
14240,-16,-1112,1648,18,26,-5
14245,-24,-1128,1640,18,25,-6
14250,-8,-1112,1648,17,26,-7
14255,-16,-1152,1664,18,26,-7
14260,-32,-1144,1640,20,26,-11
14265,-56,-1128,1648,23,28,-13
14270,-72,-1112,1656,25,30,-12
14275,-48,-1104,1640,26,28,-11
14280,-56,-1112,1600,27,26,-10
14285,-32,-1096,1608,26,27,-10
14290,-56,-1128,1632,24,26,-7
14295,-56,-1088,1608,22,25,-4
14300,-56,-1120,1632,20,22,-5
14305,-56,-1120,1640,21,20,-5
14310,-56,-1128,1632,23,17,-7
14315,-96,-1104,1616,26,17,-8
14320,-16,-1040,1512,26,16,-9
14325,-16,-1120,1616,28,16,-9
14330,-56,-1104,1616,30,17,-9
14335,-56,-1120,1656,27,18,-10
14340,-56,-1112,1624,25,20,-13
14345,-64,-1112,1632,25,19,-14
14350,-72,-1136,1624,26,18,-14
14355,-48,-1088,1616,25,16,-17
14360,-32,-1128,1616,23,14,-15
14365,-48,-1128,1624,22,14,-15
14370,-48,-1112,1632,24,13,-16
14375,-64,-1112,1616,24,11,-15
14380,-56,-1152,1600,25,10,-15
14385,-32,-1128,1616,27,11,-15
14390,-24,-1152,1600,31,11,-16
14395,-40,-1144,1640,34,13,-14
14400,-32,-1160,1624,35,12,-11
14405,-24,-1168,1624,38,11,-10
14410,-40,-1144,1624,46,11,-11
14415,-48,-1128,1616,52,10,-9
14420,-48,-1128,1608,58,9,-10
14425,-16,-1144,1632,59,7,-11
14430,-40,-1128,1616,59,5,-11
14435,-8,-1128,1608,59,6,-13
14440,-48,-1088,1624,58,8,-13
14445,-64,-1112,1608,58,10,-14
14450,-64,-1120,1632,55,9,-15
14455,-72,-1128,1616,53,10,-16
14460,-40,-1136,1608,51,12,-16
14465,-40,-1128,1640,50,13,-15
14470,-40,-1120,1624,49,13,-13
14475,-48,-1120,1616,49,14,-13
14480,-48,-1120,1640,49,11,-13
14485,-48,-1104,1624,48,11,-13
14490,-64,-1112,1616,45,10,-16
14495,-72,-1104,1616,42,11,-18
14500,-32,-1136,1632,39,9,-19
14505,-40,-1136,1608,38,8,-16
14510,-24,-1128,1624,39,10,-14
14515,-32,-1104,1632,39,14,-12
14520,-56,-1144,1608,39,14,-13
14525,-24,-1120,1632,38,12,-14
14530,-32,-1144,1640,37,11,-15
14535,-32,-1096,1600,35,12,-14
14540,-16,-1144,1592,31,10,-15
14545,-16,-1136,1632,27,6,-14
14550,0,-1160,1600,28,4,-16
14555,-8,-1176,1624,33,4,-19
14560,-16,-1168,1584,43,7,-17
14565,-40,-1136,1584,50,12,-17
14570,-32,-1152,1656,54,16,-17
14575,-24,-1136,1616,58,15,-17
14580,-24,-1096,1608,63,14,-14
14585,-56,-1096,1616,61,17,-14
14590,0,-1120,1640,53,18,-12
14595,0,-1144,1624,47,16,-11
14600,-32,-1144,1632,48,15,-10
14605,-40,-1136,1632,51,15,-11
14610,-24,-1168,1576,56,15,-10
14615,-64,-1136,1648,59,14,-11
14620,-32,-1144,1624,61,13,-11
14625,-64,-1112,1616,59,14,-12
14630,-40,-1112,1640,55,14,-12
14635,-32,-1128,1656,53,14,-10
14640,-32,-1136,1632,54,13,-9
14645,-24,-1152,1600,58,10,-9
14650,-48,-1120,1608,65,11,-9
14655,-32,-1136,1600,65,13,-8
14660,-32,-1128,1600,66,16,-5
14665,-48,-1120,1616,64,19,-2
14670,-64,-1120,1664,62,22,-3
14675,-56,-1120,1656,63,22,-6
14680,-64,-1120,1656,67,22,-4
14685,-24,-1128,1632,68,22,-4
14690,-16,-1120,1624,70,20,-6
14695,-24,-1112,1608,68,23,-6
14700,-48,-1192,1592,65,22,-5
14705,-24,-1096,1632,64,24,-5
14710,-40,-1112,1640,62,23,-8
14715,-40,-1120,1656,60,21,-7
14720,-56,-1120,1664,61,22,-6
14725,-64,-1112,1640,61,22,-3
14730,-32,-1104,1648,62,21,-4
14735,-40,-1096,1656,62,20,-4
14740,-8,-1112,1632,59,20,-5
14745,-40,-1112,1640,57,18,-4
14750,-40,-1112,1656,55,18,-6
14755,-24,-1112,1616,53,18,-5
14760,-48,-1088,1624,52,17,-4
14765,-8,-1072,1616,47,16,-2
14770,-24,-1096,1632,42,14,-2
14775,-16,-1104,1616,39,12,-2
14780,-24,-1112,1624,35,14,0
14785,0,-1128,1640,32,13,-1
14790,0,-1128,1608,31,12,-3
14795,-16,-1176,1640,32,10,-4
14800,-8,-1128,1608,33,9,-7
14805,-8,-1136,1608,38,11,-11
14810,-32,-1152,1640,45,12,-10
14815,-32,-1144,1624,50,13,-11
14820,-32,-1120,1584,55,14,-13
14825,-32,-1128,1608,57,16,-14
14830,-32,-1152,1624,60,18,-14
14835,-56,-1112,1632,62,21,-13
14840,-72,-1120,1624,64,20,-11
14845,-24,-1128,1608,64,21,-10
14850,-48,-1128,1624,64,22,-11
14855,-40,-1144,1592,63,21,-12
14860,-56,-1128,1592,62,19,-12
14865,-40,-1128,1544,62,17,-13
14870,-48,-1128,1608,65,16,-11
14875,-64,-1112,1624,67,13,-12
14880,-48,-1128,1624,70,12,-11
14885,-24,-1136,1608,70,13,-8
14890,-48,-1120,1632,72,14,-7
14895,-32,-1144,1632,73,13,-7
14900,-56,-1136,1600,73,13,-7
14905,-8,-1160,1600,77,13,-7
14910,-40,-1160,1616,78,13,-6
14915,-16,-1136,1632,78,15,-4
14920,-24,-1128,1632,80,15,-3
14925,-24,-1120,1640,81,15,-4
14930,-72,-1144,1608,81,14,-6
14935,-8,-1104,1624,79,15,-8
14940,-64,-1104,1592,78,16,-7
14945,-32,-1120,1624,77,16,-6
14950,-40,-1128,1584,75,18,-6
14955,-56,-1112,1608,74,18,-5
14960,-32,-1128,1608,75,17,-6
14965,-48,-1120,1624,76,19,-7
14970,-48,-1144,1640,78,20,-9
14975,-48,-1112,1624,80,17,-8
14980,-32,-1128,1608,81,15,-10
14985,-56,-1144,1616,84,13,-10
14990,-72,-1096,1608,85,16,-11
14995,-40,-1136,1616,87,17,-9
