timestamp,accel_x,accel_y,accel_z,gyro_x,gyro_y,gyro_z
0,-144,-2000,-520,-9,73,1
5,-152,-2008,-544,-9,72,1
10,-144,-2016,-536,-9,71,1
15,-128,-2016,-536,-10,71,1
20,-152,-1984,-552,-11,72,2
25,-160,-1992,-536,-11,74,3
30,-144,-2000,-520,-12,73,1
35,-144,-1992,-536,-12,73,0
40,-136,-2008,-536,-11,75,1
45,-176,-1984,-512,-11,75,-1
50,-120,-2032,-536,-11,78,-2
55,-152,-2000,-504,-11,75,-2
60,-136,-2016,-520,-12,76,-2
65,-152,-1984,-560,-13,76,-3
70,-136,-1992,-544,-14,76,-2
75,-128,-1984,-544,-14,76,-4
80,-144,-2016,-552,-16,75,-3
85,-160,-2008,-528,-17,75,-3
90,-152,-1992,-544,-18,74,-4
95,-144,-2000,-552,-19,74,-4
100,-160,-2000,-552,-19,75,-4
105,-136,-2024,-552,-18,75,-4
110,-136,-2040,-552,-19,74,-3
115,-152,-1992,-544,-18,73,-4
120,-160,-2024,-576,-18,72,-4
125,-152,-2016,-536,-17,71,-3
130,-112,-2056,-584,-18,69,-4
135,-168,-2000,-536,-17,70,-4
140,-176,-1992,-536,-17,68,-5
145,-152,-2008,-536,-15,68,-4
150,-168,-2000,-528,-14,67,-5
155,-160,-2000,-584,-14,67,-6
160,-152,-2024,-584,-14,67,-6
165,-160,-1992,-544,-15,67,-6
170,-136,-2008,-544,-15,66,-5
175,-160,-2008,-576,-15,67,-5
180,-152,-2000,-552,-16,67,-5
185,-152,-2008,-528,-15,65,-5
190,-144,-2016,-528,-16,65,-7
195,-136,-2000,-528,-17,65,-6
200,-152,-2000,-552,-18,65,-6
205,-152,-2016,-512,-20,66,-6
210,-144,-2008,-528,-20,65,-5
215,-136,-2008,-552,-20,65,-5
220,-176,-2008,-568,-21,65,-6
225,-160,-2008,-560,-19,64,-5
230,-160,-1992,-552,-20,64,-6
235,-160,-1992,-544,-17,66,-5
240,-176,-2008,-576,-17,65,-5
245,-136,-2032,-560,-18,66,-5
250,-160,-2000,-544,-16,64,-7
255,-144,-2024,-528,-15,63,-6
260,-160,-1992,-520,-16,63,-6
265,-152,-2000,-568,-14,62,-5
270,-160,-2008,-552,-15,62,-4
275,-168,-2008,-512,-15,62,-5
280,-144,-1984,-544,-14,61,-4
285,-168,-2000,-528,-15,61,-4
290,-168,-1992,-512,-14,61,-4
295,-160,-2008,-520,-14,62,-4
300,-160,-2016,-552,-14,63,-3
305,-160,-2016,-520,-14,62,-3
310,-136,-1992,-560,-14,63,-3
315,-160,-2000,-568,-16,64,-3
320,-144,-1984,-552,-16,64,-5
325,-160,-1984,-520,-16,65,-4
330,-136,-2016,-544,-16,64,-3
335,-152,-1984,-528,-16,64,-3
340,-136,-1992,-528,-16,64,-3
345,-136,-2016,-552,-17,65,-1
350,-144,-2016,-560,-14,64,-1
355,-136,-2008,-536,-13,63,-1
360,-128,-2016,-568,-12,65,0
365,-136,-2000,-528,-11,64,1
370,-168,-2000,-544,-13,65,1
375,-128,-2008,-552,-16,67,0
380,-136,-2008,-560,-17,68,-1
385,-152,-1992,-528,-18,69,-1
390,-160,-2000,-552,-19,70,-2
395,-144,-2000,-560,-21,71,-4
400,-168,-2000,-504,-21,72,-2
405,-160,-2008,-568,-22,73,-3
410,-168,-2000,-520,-19,71,-4
415,-168,-2000,-576,-18,72,-3
420,-136,-2024,-528,-17,72,-4
425,-152,-2016,-568,-16,73,-2
430,-112,-1984,-600,-16,72,-2
435,-168,-2016,-560,-16,71,-1
440,-152,-2008,-544,-15,72,-2
445,-160,-2008,-536,-15,71,1
450,-128,-1992,-552,-15,70,2
455,-112,-2016,-544,-16,68,2
460,-136,-2008,-560,-17,69,2
465,-128,-2008,-544,-17,69,2
470,-128,-2000,-528,-15,70,2
475,-144,-1992,-520,-13,68,2
480,-144,-2000,-512,-12,70,2
485,-152,-2008,-544,-12,70,0
490,-136,-2024,-544,-11,71,0
495,-144,-2008,-560,-10,70,-1
500,-144,-2000,-520,-10,70,-2
505,-120,-2008,-544,-9,72,-3
510,-128,-2024,-520,-11,71,-3
515,-144,-2024,-544,-14,73,-4
520,-136,-1992,-552,-16,73,-5
525,-136,-2008,-544,-18,76,-4
530,-160,-2000,-528,-19,75,-4
535,-144,-2000,-552,-20,74,-3
540,-136,-1992,-544,-20,73,-3
545,-136,-1992,-536,-20,75,-2
550,-152,-2008,-512,-18,74,-2
555,-152,-2008,-520,-18,73,-2
560,-168,-2008,-544,-18,72,-1
565,-120,-1976,-504,-19,71,-1
570,-136,-2008,-544,-16,69,0
575,-136,-2016,-544,-16,69,0
580,-136,-2024,-536,-15,68,-1
585,-160,-2000,-544,-15,68,0
590,-160,-1984,-552,-15,67,-1
595,-152,-1984,-568,-16,68,-1
600,-136,-2008,-520,-17,68,-1
605,-136,-1992,-560,-18,69,-2
610,-136,-2008,-560,-17,69,-3
615,-144,-1992,-592,-19,70,-3
620,-160,-2008,-552,-19,70,-3
625,-160,-2008,-560,-21,72,-5
630,-160,-2008,-544,-22,72,-5
635,-160,-1992,-552,-23,71,-4
640,-168,-1992,-552,-23,71,-3
645,-144,-1992,-544,-23,72,-4
650,-152,-2000,-552,-22,70,-2
655,-144,-2024,-576,-22,72,-3
660,-160,-1992,-568,-20,69,-2
665,-144,-1992,-536,-20,68,-3
670,-136,-2016,-568,-19,67,-4
675,-152,-2024,-528,-17,67,-5
680,-144,-2000,-552,-16,68,-4
685,-144,-1984,-552,-16,67,-3
690,-152,-2000,-528,-14,68,-3
695,-128,-2008,-536,-14,68,-2
700,-152,-2016,-528,-13,68,-3
705,-128,-2016,-552,-13,68,-3
710,-160,-2016,-544,-13,67,-4
715,-120,-2008,-544,-12,65,-3
720,-136,-2000,-560,-12,68,-6
725,-144,-2024,-536,-11,70,-5
730,-152,-2000,-552,-12,68,-5
735,-152,-1992,-528,-13,67,-5
740,-136,-1992,-560,-14,69,-5
745,-144,-2016,-552,-16,69,-4
750,-168,-1976,-576,-15,68,-4
755,-152,-1984,-544,-17,69,-5
760,-160,-2000,-544,-18,69,-4
765,-152,-1984,-544,-18,70,-6
770,-152,-2016,-544,-18,68,-4
775,-144,-1968,-520,-18,69,-4
780,-160,-2032,-528,-19,67,-4
785,-152,-2008,-528,-19,68,-5
790,-120,-2024,-552,-18,68,-3
795,-136,-2016,-560,-18,66,-3
800,-160,-2016,-536,-18,65,-3
805,-120,-2008,-528,-15,65,-4
810,-144,-2000,-560,-14,65,-4
815,-176,-1992,-568,-14,65,-5
820,-160,-2016,-552,-14,64,-4
825,-128,-2000,-576,-14,64,-6
830,-160,-2016,-552,-14,63,-4
835,-136,-1992,-584,-16,62,-4
840,-136,-1984,-560,-17,63,-5
845,-152,-1992,-568,-17,63,-5
850,-144,-2016,-544,-18,63,-5
855,-168,-1984,-536,-19,63,-5
860,-152,-1992,-552,-18,63,-6
865,-144,-2008,-552,-18,63,-6
870,-160,-1992,-560,-19,64,-6
875,-128,-2008,-544,-19,64,-6
880,-160,-1984,-552,-19,64,-6
885,-144,-2000,-552,-18,65,-4
890,-144,-2008,-552,-17,66,-5
895,-152,-1984,-520,-17,66,-5
900,-152,-2008,-528,-16,66,-5
905,-152,-2000,-536,-16,67,-5
910,-144,-2016,-560,-15,68,-4
915,-128,-2008,-552,-16,69,-4
920,-152,-2000,-568,-16,70,-4
925,-144,-2000,-568,-17,70,-4
930,-136,-2024,-568,-18,71,-3
935,-136,-1992,-560,-18,70,-2
940,-152,-1976,-568,-17,71,-3
945,-112,-2000,-552,-17,72,-2
950,-136,-1992,-544,-18,71,-2
955,-120,-2016,-560,-19,69,-2
960,-152,-2008,-560,-21,69,-3
965,-128,-2000,-544,-22,71,-2
970,-144,-1984,-576,-23,71,-3
975,-136,-1992,-584,-24,71,-3
980,-144,-2008,-536,-24,71,-4
985,-144,-2032,-584,-24,72,-1
990,-128,-2016,-544,-25,71,-3
995,-152,-2008,-552,-24,71,-2
1000,-144,-2000,-544,-23,71,-1
1005,-136,-2000,-544,-23,71,-3
1010,-136,-2016,-560,-23,73,-3
1015,-152,-2000,-528,-21,73,-3
1020,-160,-2000,-552,-20,73,-2
1025,-160,-2008,-584,-19,71,-2
1030,-160,-2000,-544,-19,69,-3
1035,-120,-2016,-560,-18,68,-2
1040,-144,-2000,-560,-19,68,-3
1045,-152,-2000,-536,-17,66,-1
1050,-168,-2000,-560,-15,66,-1
1055,-152,-2000,-528,-13,66,-1
1060,-136,-1992,-536,-15,65,0
1065,-152,-1976,-536,-17,65,0
1070,-160,-1984,-552,-19,67,0
1075,-152,-1992,-544,-21,69,-2
1080,-152,-2000,-560,-24,70,-3
1085,-144,-2008,-544,-25,70,-5
1090,-136,-1984,-544,-25,71,-5
1095,-144,-2008,-544,-23,71,-6
1100,-152,-1992,-552,-22,72,-7
1105,-168,-1968,-536,-21,72,-6
1110,-144,-1984,-528,-20,71,-7
1115,-152,-2000,-552,-19,71,-6
1120,-160,-2000,-568,-19,70,-4
1125,-144,-2000,-544,-18,68,-2
1130,-152,-1984,-560,-16,69,-2
1135,-160,-1992,-560,-17,68,-1
1140,-144,-1984,-568,-17,67,-1
1145,-160,-2008,-560,-18,68,1
1150,-144,-2000,-560,-20,66,3
1155,-160,-2008,-576,-18,68,3
1160,-144,-2008,-560,-17,66,3
1165,-144,-2008,-576,-15,67,2
1170,-144,-1992,-544,-12,68,2
1175,-144,-1992,-552,-11,70,2
1180,-144,-1992,-592,-7,70,1
1185,-136,-2008,-576,-6,71,-1
1190,-128,-2000,-552,-4,71,-3
1195,-144,-2008,-560,-5,71,-3
1200,-128,-2016,-568,-7,72,-3
1205,-144,-1992,-576,-8,72,-3
1210,-184,-1976,-552,-11,75,-3
1215,-176,-2000,-592,-12,75,-2
1220,-160,-2000,-552,-15,76,-2
1225,-152,-1992,-536,-13,75,-1
1230,-160,-1984,-552,-13,75,0
1235,-152,-1992,-560,-11,75,1
1240,-144,-2008,-568,-11,74,1
1245,-168,-2016,-552,-8,73,1
1250,-160,-2000,-568,-8,72,1
1255,-160,-2008,-560,-6,69,0
1260,-152,-2008,-560,-6,68,2
1265,-144,-2024,-568,-4,68,1
1270,-152,-1992,-568,-4,66,0
1275,-152,-2008,-584,-3,64,-1
1280,-152,-2016,-552,-2,66,1
1285,-152,-1984,-544,-2,65,-2
1290,-128,-2008,-568,-3,67,-1
1295,-128,-2000,-536,-3,67,-1
1300,-152,-2000,-584,-5,69,-2
1305,-152,-1992,-568,-5,69,-1
1310,-136,-2000,-552,-6,70,-3
1315,-144,-2016,-576,-7,70,-2
1320,-144,-2008,-568,-7,70,-3
1325,-152,-2000,-552,-8,69,-4
1330,-200,-2016,-544,-7,67,-2
1335,-168,-2000,-560,-6,68,-3
1340,-144,-2016,-544,-7,67,-3
1345,-160,-2000,-544,-5,66,-2
1350,-184,-2000,-560,-5,65,-4
1355,-152,-2016,-552,-4,64,-3
1360,-160,-1992,-576,-2,63,-4
1365,-144,-2016,-576,-2,61,-4
1370,-152,-2016,-536,-4,63,-4
1375,-160,-2000,-600,-6,62,-5
1380,-168,-2008,-544,-7,61,-4
1385,-168,-1968,-576,-6,63,-4
1390,-136,-1984,-544,-7,62,-3
1395,-136,-2000,-568,-7,62,-4
1400,-136,-1984,-552,-8,63,-3
1405,-168,-2000,-544,-8,64,-6
1410,-152,-2008,-560,-9,65,-6
1415,-152,-2008,-536,-12,65,-5
1420,-144,-1992,-552,-14,64,-6
1425,-136,-1992,-544,-15,66,-6
1430,-128,-2008,-552,-16,66,-6
1435,-144,-2008,-544,-16,66,-6
1440,-152,-1984,-568,-17,67,-6
1445,-168,-2000,-568,-18,66,-7
1450,-136,-2008,-560,-21,65,-7
1455,-128,-2000,-560,-22,67,-6
1460,-152,-2008,-544,-21,66,-7
1465,-168,-1984,-544,-20,66,-6
1470,-152,-1992,-552,-18,66,-6
1475,-144,-2008,-536,-17,66,-6
1480,-128,-2000,-544,-17,65,-6
1485,-128,-2000,-560,-17,64,-5
1490,-136,-2016,-576,-15,63,-7
1495,-144,-2000,-568,-15,63,-6
1500,-144,-1992,-544,-15,64,-6
1505,-128,-2016,-584,-15,64,-7
1510,-152,-2008,-576,-16,63,-9
1515,-160,-2016,-544,-18,64,-8
1520,-160,-1984,-544,-19,65,-8
1525,-160,-2000,-552,-19,66,-8
1530,-160,-1992,-552,-18,65,-8
1535,-144,-1984,-560,-18,65,-8
1540,-120,-2016,-576,-20,66,-8
1545,-144,-2000,-552,-19,67,-8
1550,-160,-2024,-560,-20,66,-8
1555,-144,-1992,-560,-20,66,-9
1560,-152,-2008,-576,-20,66,-7
1565,-144,-2016,-552,-21,65,-7
1570,-128,-2016,-552,-22,66,-7
1575,-136,-2008,-552,-23,65,-8
1580,-152,-2000,-552,-21,64,-6
1585,-160,-1984,-536,-22,63,-7
1590,-136,-2008,-560,-20,66,-6
1595,-152,-2008,-544,-21,65,-5
1600,-144,-2000,-576,-20,66,-5
1605,-144,-2008,-576,-18,66,-5
1610,-168,-2000,-560,-17,67,-4
1615,-144,-2016,-560,-18,66,-3
1620,-136,-2008,-584,-17,68,-3
1625,-128,-2016,-584,-17,69,-4
1630,-152,-1984,-592,-19,69,-2
1635,-136,-2008,-576,-18,68,-3
1640,-144,-1984,-568,-19,67,-2
1645,-136,-1992,-560,-21,69,-3
1650,-152,-1992,-584,-22,70,-4
1655,-160,-2016,-584,-22,71,-4
1660,-176,-2008,-568,-24,71,-3
1665,-152,-1984,-576,-25,73,-2
1670,-128,-2008,-552,-27,73,-4
1675,-144,-1984,-544,-26,74,-3
1680,-144,-1992,-544,-26,74,-5
1685,-160,-1992,-576,-27,74,-4
1690,-160,-2016,-552,-27,75,-3
1695,-160,-2000,-592,-27,76,-2
1700,-144,-2008,-576,-26,77,-3
1705,-176,-2008,-512,-26,76,-3
1710,-160,-1984,-568,-26,77,-3
1715,-144,-2016,-560,-25,77,-3
1720,-144,-2024,-584,-23,76,-3
1725,-144,-2000,-568,-22,75,-4
1730,-160,-2008,-552,-21,72,-3
1735,-144,-2032,-560,-22,70,-2
1740,-152,-2016,-552,-19,69,-2
1745,-160,-1992,-568,-19,67,-1
1750,-144,-2032,-560,-18,67,-2
1755,-136,-1992,-576,-16,66,-2
1760,-152,-1992,-576,-16,67,-3
1765,-144,-2024,-544,-17,67,-3
1770,-160,-2000,-568,-19,68,-5
1775,-152,-2008,-552,-20,68,-5
1780,-160,-1984,-568,-22,68,-4
1785,-152,-1984,-552,-22,71,-5
1790,-144,-1992,-560,-21,71,-6
1795,-144,-2016,-584,-19,71,-6
1800,-128,-2008,-592,-18,71,-5
1805,-152,-1984,-576,-17,71,-4
1810,-144,-2000,-544,-17,72,-4
1815,-136,-2008,-576,-16,72,-4
1820,-144,-2000,-536,-16,71,-2
1825,-144,-2016,-592,-15,71,-1
1830,-144,-2008,-552,-16,71,-2
1835,-120,-2008,-608,-17,70,0
1840,-136,-2000,-576,-18,70,0
1845,-136,-2008,-568,-20,68,1
1850,-160,-1992,-576,-19,70,0
1855,-136,-2000,-576,-20,71,1
1860,-152,-2008,-536,-20,71,2
1865,-128,-2008,-576,-18,72,2
1870,-136,-2016,-568,-17,73,1
1875,-152,-1968,-552,-14,75,0
1880,-160,-1984,-608,-13,77,0
1885,-176,-2000,-552,-12,77,-2
1890,-136,-1992,-576,-11,77,-2
1895,-168,-1992,-544,-12,78,-3
1900,-152,-2016,-576,-13,78,-4
1905,-144,-1992,-560,-15,78,-4
1910,-152,-2000,-568,-15,79,-2
1915,-168,-1992,-576,-14,80,-1
1920,-160,-2000,-544,-13,80,-3
1925,-160,-2008,-576,-11,80,-2
1930,-144,-2008,-576,-9,78,-2
1935,-120,-2008,-552,-8,76,-1
1940,-184,-1992,-576,-7,73,0
1945,-152,-1976,-552,-6,71,0
1950,-184,-2000,-576,-5,68,0
1955,-160,-2008,-560,-4,68,-1
1960,-152,-1984,-568,-5,66,1
1965,-128,-2008,-544,-4,65,-1
1970,-128,-2008,-568,-4,63,-1
1975,-144,-2016,-560,-6,62,-1
1980,-160,-1992,-584,-7,61,0
1985,-184,-1984,-560,-8,63,-1
1990,-152,-2000,-544,-8,63,-2
1995,-136,-2016,-576,-7,64,-3
2000,-120,-2016,-576,-9,65,-4
2005,-120,-1984,-568,-10,67,-4
2010,-160,-2008,-568,-12,69,-5
2015,-168,-2000,-528,-12,69,-5
2020,-120,-2024,-552,-11,68,-4
2025,-128,-2024,-576,-12,68,-4
2030,-152,-1976,-544,-10,67,-4
2035,-168,-2000,-560,-10,69,-3
2040,-152,-1992,-576,-11,68,-3
2045,-136,-1992,-560,-9,67,-4
2050,-144,-1992,-568,-8,66,-4
2055,-144,-2008,-568,-8,66,-4
2060,-152,-2008,-552,-7,65,-4
2065,-152,-2000,-576,-6,63,-4
2070,-152,-1992,-592,-4,62,-4
2075,-144,-2008,-552,-4,63,-2
2080,-144,-1992,-568,-3,63,-3
2085,-136,-2008,-576,-4,64,-3
2090,-136,-1984,-584,-5,64,-3
2095,-152,-1992,-560,-7,64,-5
2100,-128,-2000,-576,-5,65,-3
2105,-120,-2008,-568,-6,64,-2
2110,-152,-2016,-560,-8,66,-4
2115,-152,-1984,-568,-10,66,-6
2120,-152,-1992,-560,-13,66,-6
2125,-192,-1984,-568,-14,67,-5
2130,-160,-2000,-560,-15,66,-7
2135,-144,-1992,-568,-15,67,-6
2140,-136,-1992,-552,-16,66,-6
2145,-144,-1992,-576,-15,68,-5
2150,-152,-2000,-560,-17,65,-5
2155,-136,-1992,-544,-16,65,-5
2160,-144,-2024,-576,-15,66,-7
2165,-144,-2008,-568,-16,65,-7
2170,-160,-2008,-584,-17,64,-4
2175,-136,-2000,-536,-17,64,-4
2180,-128,-1992,-568,-16,63,-6
2185,-128,-2024,-552,-17,63,-5
2190,-136,-2024,-584,-17,63,-5
2195,-144,-2016,-560,-17,64,-5
2200,-144,-2008,-552,-17,63,-4
2205,-136,-1992,-560,-16,63,-5
2210,-136,-2000,-552,-16,63,-5
2215,-136,-2008,-576,-14,63,-5
2220,-128,-2000,-576,-14,64,-5
2225,-152,-1992,-576,-15,64,-7
2230,-136,-1984,-568,-14,65,-6
2235,-160,-1976,-576,-13,67,-5
2240,-128,-1992,-576,-12,67,-5
2245,-144,-2016,-584,-12,67,-5
2250,-136,-1984,-552,-13,66,-6
2255,-128,-2008,-560,-12,67,-4
2260,-152,-2000,-576,-13,68,-4
2265,-152,-2000,-576,-13,68,-5
2270,-128,-2016,-536,-12,68,-4
2275,-136,-2000,-568,-12,67,-3
2280,-152,-1976,-552,-12,67,-3
2285,-168,-2008,-568,-13,68,-4
2290,-128,-1984,-568,-11,68,-4
2295,-136,-1984,-544,-11,69,-4
2300,-144,-2000,-536,-11,70,-3
2305,-136,-2008,-544,-11,70,-2
2310,-184,-2016,-536,-8,69,-2
2315,-152,-2000,-584,-9,70,-3
2320,-152,-1976,-568,-10,70,-2
2325,-152,-1984,-560,-11,69,-3
2330,-144,-2008,-552,-11,69,-3
2335,-152,-2008,-568,-11,70,-3
2340,-168,-2024,-552,-11,70,0
2345,-144,-1992,-568,-10,70,-2
2350,-152,-1984,-552,-11,71,-2
2355,-168,-1992,-568,-11,71,-2
2360,-144,-2000,-552,-11,72,-2
2365,-144,-2000,-584,-11,71,-2
2370,-144,-1984,-552,-12,72,-2
2375,-136,-1992,-568,-13,72,-1
2380,-160,-1984,-560,-12,70,-2
2385,-144,-1968,-560,-13,71,-3
2390,-120,-1992,-584,-13,70,-3
2395,-152,-2000,-584,-13,70,-3
2400,-136,-2008,-560,-13,70,-3
2405,-144,-2016,-584,-13,70,-4
2410,-112,-1992,-560,-12,69,-4
2415,-144,-2000,-592,-13,71,-3
2420,-136,-2000,-536,-12,69,-4
2425,-152,-2008,-584,-11,69,-3
2430,-160,-1992,-544,-11,68,-3
2435,-120,-2000,-568,-10,69,-1
2440,-152,-1984,-576,-10,70,-1
2445,-144,-1968,-544,-9,70,-1
2450,-144,-1992,-544,-10,70,0
2455,-136,-2000,-568,-11,71,-2
2460,-160,-1984,-576,-13,71,-3
2465,-128,-1992,-552,-12,71,-4
2470,-144,-2008,-592,-15,72,-3
2475,-160,-2000,-592,-15,73,-4
2480,-136,-1992,-552,-14,75,-5
2485,-152,-1976,-576,-15,75,-7
2490,-152,-1992,-584,-13,75,-5
2495,-160,-1984,-544,-11,74,-6
2500,-144,-1992,-592,-9,73,-7
2505,-144,-2000,-552,-8,72,-5
2510,-144,-1984,-560,-9,73,-5
2515,-152,-2008,-592,-9,74,-3
2520,-128,-2008,-576,-9,73,-3
2525,-104,-2008,-576,-10,72,-3
2530,-136,-2016,-608,-10,71,-2
2535,-152,-1992,-592,-12,70,-1
2540,-144,-2016,-576,-11,70,-1
2545,-160,-2008,-568,-12,69,1
2550,-144,-2000,-552,-11,68,1
2555,-136,-2016,-552,-12,68,-1
2560,-144,-2000,-584,-10,70,1
2565,-128,-1968,-552,-9,70,0
2570,-136,-2016,-536,-8,71,-2
2575,-144,-1976,-568,-7,71,-2
2580,-152,-1992,-568,-6,71,-3
2585,-144,-1992,-544,-7,72,-3
2590,-136,-1976,-568,-7,75,-5
2595,-144,-2008,-552,-7,73,-4
2600,-136,-1992,-592,-8,76,-4
2605,-160,-1984,-544,-10,75,-5
2610,-144,-2000,-544,-10,75,-4
2615,-152,-2016,-568,-10,75,-3
2620,-160,-2000,-544,-11,75,-1
2625,-128,-1992,-560,-10,75,-1
2630,-152,-2008,-584,-9,74,-2
2635,-216,-2016,-576,-8,71,-1
2640,-136,-2000,-584,-7,70,0
2645,-144,-2000,-552,-7,69,0
2650,-160,-1992,-592,-5,67,-3
2655,-144,-2016,-560,-4,65,-1
2660,-136,-2016,-592,-6,63,-2
2665,-144,-1992,-568,-6,64,-1
2670,-152,-1984,-552,-6,64,-3
2675,-136,-2016,-536,-6,64,-2
2680,-160,-1984,-576,-6,63,-5
2685,-144,-2000,-552,-7,63,-4
2690,-152,-1992,-544,-6,64,-3
2695,-136,-2008,-576,-7,64,-4
2700,-144,-2000,-568,-7,65,-5
2705,-136,-1992,-552,-9,65,-4
2710,-152,-1992,-568,-9,66,-5
2715,-136,-2008,-552,-9,66,-3
2720,-136,-2016,-576,-9,66,-5
2725,-144,-2008,-544,-9,66,-5
2730,-152,-2008,-584,-10,65,-5
2735,-152,-1984,-552,-10,64,-6
2740,-136,-1992,-576,-9,64,-4
2745,-160,-1984,-584,-10,63,-4
2750,-152,-1976,-592,-9,63,-4
2755,-128,-2000,-576,-8,61,-4
2760,-152,-1984,-560,-7,61,-4
2765,-144,-2008,-584,-8,58,-4
2770,-144,-1968,-576,-8,60,-4
2775,-136,-1976,-576,-8,60,-3
2780,-144,-1992,-536,-8,61,-3
2785,-136,-1984,-552,-7,61,-4
2790,-136,-2008,-576,-8,62,-4
2795,-144,-1992,-560,-7,62,-5
2800,-136,-2000,-576,-7,63,-4
2805,-144,-1984,-560,-7,63,-4
2810,-136,-1992,-552,-9,65,-6
2815,-152,-2016,-584,-10,66,-6
2820,-160,-2000,-560,-11,66,-6
2825,-136,-1992,-552,-12,65,-6
2830,-160,-1984,-536,-14,66,-7
2835,-152,-1984,-568,-15,67,-5
2840,-152,-1968,-560,-16,68,-5
2845,-136,-2016,-552,-17,66,-6
2850,-128,-2024,-560,-16,66,-5
2855,-168,-1992,-584,-16,65,-6
2860,-136,-2008,-560,-15,66,-6
2865,-160,-1992,-584,-14,67,-6
2870,-144,-2000,-592,-15,66,-5
2875,-152,-2024,-584,-14,66,-6
2880,-120,-2008,-568,-15,65,-4
2885,-136,-2000,-560,-14,65,-5
2890,-160,-1984,-576,-13,65,-4
2895,-128,-2000,-576,-12,65,-6
2900,-136,-1992,-576,-12,66,-4
2905,-160,-2008,-576,-11,64,-4
2910,-144,-2008,-568,-11,67,-5
2915,-168,-2008,-576,-12,66,-4
2920,-168,-1984,-560,-11,66,-5
2925,-152,-2000,-552,-12,67,-5
2930,-136,-2000,-560,-11,67,-6
2935,-144,-1984,-560,-11,66,-6
2940,-120,-2000,-552,-11,66,-7
2945,-144,-2000,-552,-11,68,-4
2950,-152,-2000,-560,-11,67,-4
2955,-152,-1992,-544,-11,68,-3
2960,-152,-2008,-544,-12,67,-4
2965,-152,-1952,-496,-11,67,-5
2970,-128,-1992,-584,-11,68,-4
2975,-160,-1992,-576,-10,69,-2
2980,-160,-2016,-560,-10,69,-2
2985,-144,-2000,-560,-11,71,-2
2990,-136,-2000,-560,-12,73,-2
2995,-152,-2008,-576,-12,75,-2
3000,-152,-2008,-560,-12,74,-2
3005,-160,-1992,-568,-13,75,-2
3010,-144,-2000,-552,-12,75,-1
3015,-152,-1992,-576,-12,75,-2
3020,-160,-1976,-584,-13,75,-3
3025,-160,-2000,-568,-14,76,-3
3030,-136,-2008,-568,-14,75,-3
3035,-136,-1984,-576,-14,74,-4
3040,-144,-2000,-568,-15,77,-2
3045,-136,-2000,-568,-15,75,-2
3050,-128,-2000,-576,-16,75,-3
3055,-136,-1992,-568,-16,75,-4
3060,-160,-2000,-552,-16,74,-3
3065,-152,-2008,-552,-17,77,-1
3070,-176,-1960,-568,-16,75,-2
3075,-152,-1976,-592,-16,74,-1
3080,-136,-2048,-576,-17,75,-2
3085,-168,-2008,-560,-16,75,-1
3090,-120,-2024,-576,-15,75,-1
3095,-160,-2000,-552,-15,76,-3
3100,-152,-2000,-544,-15,76,-2
3105,-136,-1976,-552,-14,75,-1
3110,-152,-2008,-584,-13,76,-2
3115,-160,-1984,-536,-12,76,-2
3120,-136,-1992,-568,-13,74,-2
3125,-168,-2000,-592,-12,73,0
3130,-160,-1984,-576,-13,72,1
3135,-128,-2008,-576,-10,70,1
3140,-128,-2016,-576,-10,71,0
3145,-144,-1984,-608,-9,70,0
3150,-128,-2000,-576,-8,69,0
3155,-128,-1992,-584,-8,68,1
3160,-128,-1976,-584,-9,70,0
3165,-152,-2000,-552,-11,70,-2
3170,-144,-1984,-560,-13,71,-2
3175,-136,-2016,-560,-14,73,-2
3180,-168,-1992,-584,-16,73,-4
3185,-136,-1992,-560,-17,71,-5
3190,-160,-1984,-568,-15,72,-5
3195,-176,-1984,-568,-14,73,-6
3200,-144,-2008,-576,-13,74,-4
3205,-136,-2016,-592,-13,74,-6
3210,-136,-1984,-568,-10,73,-3
3215,-160,-2000,-600,-12,71,-4
3220,-176,-2000,-592,-12,71,-3
3225,-152,-2016,-552,-11,71,-2
3230,-144,-2008,-584,-13,70,-1
3235,-152,-2008,-568,-14,68,0
3240,-152,-2000,-592,-13,67,1
3245,-152,-1984,-584,-13,68,1
3250,-144,-1992,-592,-12,66,1
3255,-128,-2024,-584,-11,67,2
3260,-152,-1968,-568,-10,69,2
3265,-152,-1976,-568,-9,70,2
3270,-144,-1984,-560,-8,72,1
3275,-120,-1992,-568,-7,71,-1
3280,-144,-1984,-576,-5,72,-3
3285,-136,-1984,-536,-6,74,-3
3290,-192,-2000,-608,-7,74,-3
3295,-120,-2024,-576,-9,76,-3
3300,-136,-1984,-568,-10,79,-3
3305,-128,-1984,-536,-12,79,-2
3310,-136,-1984,-560,-13,81,-3
3315,-120,-2008,-584,-14,82,-2
3320,-128,-2008,-544,-15,80,-3
3325,-136,-1992,-560,-13,79,0
3330,-144,-2000,-544,-13,79,0
3335,-136,-2008,-584,-12,76,0
3340,-160,-2016,-560,-11,75,1
3345,-144,-2008,-560,-9,72,2
3350,-152,-1992,-552,-8,70,2
3355,-152,-1984,-592,-9,69,2
3360,-152,-1976,-600,-8,71,1
3365,-144,-1992,-552,-8,68,1
3370,-144,-1984,-576,-8,66,0
3375,-136,-1992,-576,-8,65,2
3380,-160,-1984,-576,-10,65,0
3385,-152,-1992,-560,-11,65,-1
3390,-136,-1968,-552,-9,64,-1
3395,-144,-1976,-584,-9,65,-1
3400,-160,-2024,-616,-10,65,-1
3405,-152,-2016,-560,-11,66,-2
3410,-152,-1984,-552,-11,66,-3
3415,-144,-1984,-536,-14,66,-2
3420,-152,-1984,-576,-14,67,-2
3425,-136,-2000,-600,-15,66,-1
3430,-152,-2000,-576,-14,66,-3
3435,-152,-1960,-560,-12,65,1
3440,-176,-2000,-584,-11,64,0
3445,-160,-2008,-552,-9,63,-2
3450,-152,-2016,-560,-8,61,-2
3455,-144,-2008,-552,-7,61,-2
3460,-152,-2000,-584,-6,60,-1
3465,-152,-1992,-600,-7,60,0
3470,-136,-2000,-584,-6,58,-1
3475,-136,-2008,-568,-6,59,-1
3480,-144,-1992,-576,-6,60,0
3485,-144,-2000,-584,-8,59,0
3490,-128,-1992,-568,-8,62,-1
3495,-136,-1976,-568,-9,63,0
3500,-144,-1984,-560,-10,63,0
3505,-152,-1968,-584,-10,65,-1
3510,-136,-2008,-536,-9,66,0
3515,-144,-1992,-584,-11,68,0
3520,-144,-1984,-592,-13,69,-1
3525,-144,-2008,-576,-13,68,0
3530,-144,-2016,-592,-13,69,0
3535,-136,-1984,-576,-15,71,-1
3540,-152,-1984,-576,-13,72,1
3545,-136,-2008,-584,-13,74,3
3550,-152,-2008,-544,-13,76,2
3555,-128,-2000,-584,-14,80,3
3560,-128,-2008,-576,-14,83,3
3565,-152,-2016,-568,-14,88,4
3570,-136,-2000,-568,-18,92,3
3575,-160,-1976,-592,-20,98,3
3580,-152,-1984,-600,-25,102,3
3585,-136,-1976,-616,-33,107,1
3590,-128,-1992,-600,-43,108,0
3595,-136,-1960,-608,-55,107,-1
3600,-144,-1960,-624,-68,104,-5
3605,-128,-1976,-624,-82,97,-6
3610,-136,-1936,-608,-93,92,-9
3615,-168,-1984,-608,-99,85,-12
3620,-144,-1960,-648,-104,81,-16
3625,-144,-1952,-624,-106,77,-20
3630,-160,-1928,-616,-110,75,-21
3635,-152,-1944,-632,-113,75,-23
3640,-136,-1976,-624,-116,74,-24
3645,-152,-1976,-656,-118,76,-27
3650,-160,-1984,-648,-120,80,-25
3655,-136,-1992,-648,-122,81,-25
3660,-136,-1984,-616,-124,84,-25
3665,-176,-1976,-664,-124,87,-25
3670,-136,-1984,-648,-123,87,-23
3675,-144,-2008,-640,-121,88,-23
3680,-128,-1992,-688,-118,85,-22
3685,-160,-1952,-672,-115,85,-20
3690,-152,-1968,-680,-114,85,-18
3695,-152,-1952,-688,-116,83,-15
3700,-136,-1960,-688,-120,80,-18
3705,-152,-1944,-664,-127,79,-20
3710,-120,-1928,-688,-139,77,-20
3715,-128,-1928,-696,-150,73,-19
3720,-136,-1904,-680,-163,69,-23
3725,-152,-1904,-720,-179,68,-25
3730,-136,-1912,-704,-195,63,-25
3735,-128,-1880,-688,-209,61,-26
3740,-120,-1896,-664,-223,60,-27
3745,-128,-1896,-704,-243,58,-29
3750,-128,-1904,-672,-259,58,-28
3755,-152,-1896,-696,-276,55,-32
3760,-160,-1896,-712,-292,51,-34
3765,-136,-1888,-656,-309,50,-34
3770,-144,-1888,-696,-324,48,-39
3775,-176,-1896,-704,-339,44,-42
3780,-136,-1872,-688,-350,40,-43
3785,-136,-1904,-712,-362,38,-45
3790,-144,-1896,-696,-373,36,-49
3795,-120,-1896,-720,-384,37,-53
3800,-128,-1912,-712,-394,36,-56
3805,-144,-1912,-736,-404,35,-57
3810,-152,-1912,-744,-411,34,-60
3815,-160,-1912,-736,-417,33,-63
3820,-136,-1888,-712,-419,32,-64
3825,-136,-1920,-728,-423,35,-64
3830,-152,-1904,-800,-430,35,-67
3835,-144,-1888,-808,-440,38,-72
3840,-160,-1864,-744,-458,40,-76
3845,-120,-1880,-808,-478,40,-73
3850,-144,-1888,-792,-492,41,-75
3855,-112,-1880,-808,-498,43,-73
3860,-152,-1872,-768,-513,45,-76
3865,-144,-1856,-792,-519,46,-84
3870,-104,-1896,-792,-520,45,-89
3875,-128,-1856,-760,-504,43,-95
3880,-144,-1848,-784,-486,41,-96
3885,-112,-1856,-752,-477,38,-99
3890,-128,-1864,-768,-462,33,-100
3895,-136,-1824,-784,-437,25,-93
3900,-128,-1840,-832,-430,20,-94
3905,-136,-1816,-840,-435,13,-102
3910,-152,-1848,-792,-454,8,-114
3915,-136,-1784,-824,-464,1,-120
3920,-136,-1808,-800,-485,-3,-125
3925,-112,-1864,-800,-487,-10,-117
3930,-120,-1832,-816,-452,-19,-103
3935,-144,-1848,-832,-434,-22,-89
3940,-128,-1880,-800,-418,-21,-80
3945,-152,-1880,-880,-404,-23,-81
3950,-120,-1816,-848,-397,-24,-83
3955,-120,-1800,-832,-409,-22,-87
3960,-88,-1832,-816,-422,-24,-86
3965,-152,-1800,-848,-433,-26,-92
3970,-104,-1792,-864,-446,-34,-87
3975,-152,-1792,-840,-465,-31,-88
3980,-112,-1856,-824,-490,-30,-82
3985,-144,-1848,-824,-499,-32,-80
3990,-152,-1856,-824,-487,-38,-84
3995,-136,-1840,-816,-469,-50,-86
4000,-152,-1856,-848,-438,-65,-87
4005,-136,-1840,-872,-407,-74,-84
4010,-104,-1848,-864,-401,-82,-82
4015,-112,-1832,-872,-406,-78,-84
4020,-112,-1840,-864,-426,-77,-84
4025,-152,-1848,-848,-447,-78,-81
4030,-120,-1848,-840,-453,-79,-84
4035,-160,-1808,-848,-438,-86,-84
4040,-120,-1824,-880,-430,-94,-80
4045,-152,-1808,-864,-438,-100,-78
4050,-152,-1824,-904,-444,-102,-73
4055,-112,-1792,-952,-451,-107,-64
4060,-120,-1808,-880,-456,-113,-62
4065,-136,-1800,-920,-450,-114,-63
4070,-112,-1800,-936,-451,-112,-64
4075,-128,-1784,-944,-458,-112,-65
4080,-128,-1768,-928,-468,-113,-67
4085,-104,-1784,-896,-478,-117,-67
4090,-112,-1768,-928,-485,-119,-67
4095,-88,-1800,-920,-493,-122,-70
4100,-104,-1792,-936,-494,-119,-74
4105,-120,-1792,-952,-496,-112,-76
4110,-96,-1768,-928,-500,-105,-79
4115,-104,-1776,-936,-503,-93,-83
4120,-120,-1760,-960,-496,-84,-84
4125,-104,-1760,-992,-487,-77,-87
4130,-104,-1744,-1008,-489,-68,-85
4135,-96,-1728,-1008,-494,-59,-86
4140,-88,-1736,-1016,-494,-54,-85
4145,-56,-1752,-1008,-487,-50,-83
4150,-88,-1704,-1008,-479,-46,-84
4155,-80,-1688,-1024,-480,-43,-84
4160,-72,-1704,-1016,-487,-41,-86
4165,-88,-1704,-1016,-481,-41,-88
4170,-80,-1664,-1024,-475,-38,-89
4175,-80,-1688,-968,-477,-34,-87
4180,-72,-1680,-976,-471,-29,-89
4185,-40,-1648,-1032,-461,-22,-95
4190,-64,-1624,-1024,-464,-13,-100
4195,-64,-1624,-1024,-467,1,-105
4200,-56,-1600,-1032,-465,12,-107
4205,-64,-1584,-1032,-466,18,-105
4210,-88,-1608,-1040,-473,19,-101
4215,-40,-1592,-1040,-474,20,-100
4220,-64,-1592,-1056,-482,18,-99
4225,-88,-1600,-1032,-489,13,-99
4230,-104,-1576,-1032,-496,8,-102
4235,-40,-1592,-1032,-505,1,-99
4240,-40,-1600,-1048,-514,-1,-96
4245,-56,-1616,-1024,-511,6,-89
4250,-80,-1600,-1040,-499,14,-85
4255,-80,-1600,-1040,-491,27,-83
4260,-48,-1584,-1088,-496,38,-77
4265,-56,-1576,-1072,-515,52,-69
4270,-80,-1592,-1200,-532,67,-67
4275,-72,-1672,-1104,-547,82,-63
4280,-56,-1560,-1248,-557,94,-58
4285,-56,-1536,-1056,-562,104,-57
4290,-120,-1560,-1368,-571,111,-51
4295,-16,-1560,-1232,-576,113,-46
4300,-48,-1568,-1176,-580,113,-40
4305,-24,-1552,-1160,-579,108,-36
4310,-80,-1576,-1128,-583,95,-30
4315,0,-1576,-1160,-587,82,-25
4320,-80,-1544,-1184,-588,67,-21
4325,-72,-1568,-1136,-589,55,-20
4330,-88,-1584,-1112,-592,45,-17
4335,-96,-1592,-1096,-586,40,-18
4340,-136,-1624,-1112,-584,33,-19
4345,-128,-1552,-1232,-583,26,-17
4350,-256,-1592,-1168,-586,23,-17
4355,-112,-1608,-1128,-596,23,-19
4360,-232,-1480,-1192,-619,32,-23
4365,-184,-1560,-1272,-649,36,-25
4370,-192,-1560,-1200,-671,41,-27
4375,-136,-1488,-1208,-690,41,-30
4380,-160,-1608,-1144,-695,34,-29
4385,-152,-1528,-1144,-690,27,-29
4390,-104,-1568,-1120,-681,17,-23
4395,-208,-1640,-1128,-669,0,-22
4400,-104,-1560,-1176,-651,-20,-24
4405,-80,-1568,-1144,-635,-41,-29
4410,-72,-1552,-1152,-619,-58,-33
4415,-96,-1576,-1176,-611,-70,-41
4420,-120,-1584,-1104,-601,-80,-47
4425,-96,-1584,-1200,-590,-84,-53
4430,-136,-1584,-1224,-592,-80,-59
4435,-216,-1568,-1216,-597,-68,-68
4440,-232,-1544,-1280,-601,-55,-73
4445,-192,-1624,-1304,-596,-41,-81
4450,-120,-1528,-1360,-595,-24,-89
4455,-120,-1528,-1360,-599,-12,-93
4460,-128,-1472,-1400,-605,-3,-93
4465,-88,-1448,-1376,-607,4,-90
4470,-88,-1488,-1392,-596,7,-87
4475,-80,-1480,-1344,-568,3,-86
4480,-56,-1456,-1264,-527,-5,-88
4485,-56,-1456,-1264,-485,-21,-90
4490,-16,-1440,-1272,-450,-43,-87
4495,104,-1456,-1200,-427,-65,-87
4500,-24,-1432,-1280,-414,-80,-86
4505,-24,-1520,-1400,-415,-90,-87
4510,-104,-1528,-1272,-424,-95,-85
4515,-64,-1400,-1344,-441,-93,-85
4520,-144,-1608,-1240,-456,-87,-84
4525,-80,-1536,-1328,-475,-76,-81
4530,-64,-1416,-1416,-502,-60,-76
4535,-104,-1456,-1360,-536,-46,-70
4540,-48,-1440,-1288,-565,-38,-60
4545,-136,-1464,-1432,-593,-32,-52
4550,-104,-1424,-1432,-609,-28,-44
4555,-72,-1416,-1432,-607,-26,-33
4560,-40,-1416,-1416,-594,-27,-25
4565,-32,-1368,-1400,-579,-31,-21
4570,-48,-1456,-1336,-559,-38,-21
4575,-40,-1312,-1400,-532,-44,-24
4580,-40,-1272,-1344,-515,-47,-26
4585,-64,-1192,-1384,-504,-52,-32
4590,-8,-1248,-1336,-502,-49,-37
4595,-32,-1232,-1360,-506,-42,-45
4600,-72,-1216,-1368,-509,-37,-46
4605,-88,-1208,-1376,-518,-31,-45
4610,-96,-1184,-1392,-526,-23,-42
4615,-152,-1232,-1408,-546,-11,-40
4620,8,-1240,-1568,-578,2,-37
4625,-144,-1208,-1528,-610,14,-37
4630,-88,-1264,-1472,-643,20,-34
4635,-88,-1272,-1472,-680,24,-25
4640,-88,-1288,-1464,-706,30,-16
4645,-96,-1296,-1464,-711,26,-9
4650,-80,-1296,-1472,-707,20,-3
4655,-24,-1424,-1504,-698,18,3
4660,-88,-1376,-1496,-683,19,1
4665,-184,-1200,-1592,-658,21,-5
4670,-80,-1264,-1520,-632,24,-15
4675,-224,-1128,-1488,-606,26,-20
4680,-136,-1160,-1488,-590,34,-24
4685,-144,-1208,-1400,-583,40,-26
4690,-160,-1112,-1640,-570,47,-28
4695,-168,-1112,-1512,-561,53,-24
4700,-232,-1048,-1488,-563,53,-22
4705,-184,-1096,-1496,-567,50,-14
4710,-200,-1120,-1488,-585,47,-6
4715,-176,-1128,-1520,-620,38,0
4720,-168,-1160,-1520,-667,32,4
4725,-136,-1112,-1480,-709,27,11
4730,-152,-1176,-1528,-736,24,16
4735,-152,-1208,-1512,-746,20,16
4740,-136,-1200,-1632,-738,13,9
4745,-128,-1240,-1552,-721,6,0
4750,-160,-1160,-1568,-708,-3,-26
4755,-128,-1136,-1568,-691,-4,-38
4760,-136,-1096,-1584,-672,-5,-49
4765,-184,-1080,-1640,-662,-5,-64
4770,-168,-1048,-1672,-663,-4,-76
4775,-200,-1024,-1680,-671,-2,-83
4780,-200,-1024,-1712,-683,2,-87
4785,-232,-1008,-1728,-693,9,-83
4790,-240,-920,-1592,-703,20,-73
4795,-240,-1024,-1712,-711,29,-62
4800,-200,-984,-1680,-714,40,-45
4805,-152,-1000,-1664,-712,56,-21
4810,-144,-1016,-1688,-715,72,4
4815,-120,-1040,-1664,-709,87,12
4820,-96,-1048,-1656,-695,102,17
4825,-88,-1064,-1664,-678,110,23
4830,-64,-1072,-1656,-662,114,27
4835,-40,-1072,-1648,-647,113,27
4840,-16,-1064,-1664,-640,110,31
4845,-48,-1008,-1600,-631,107,30
4850,-64,-1000,-1616,-615,100,22
4855,-80,-976,-1616,-600,93,17
4860,-104,-928,-1608,-585,85,9
4865,-112,-944,-1672,-582,74,6
4870,-128,-912,-1616,-594,56,4
4875,-160,-856,-1584,-591,44,7
4880,-184,-856,-1648,-594,39,14
4885,-240,-800,-1656,-617,32,17
4890,-224,-784,-1640,-658,19,25
4895,-232,-752,-1672,-694,8,43
4900,-224,-712,-1664,-727,0,60
4905,-248,-720,-1664,-755,-11,72
4910,-232,-744,-1664,-777,-22,87
4915,-216,-760,-1696,-793,-31,96
4920,-216,-776,-1672,-803,-37,95
4925,-176,-760,-1640,-812,-43,92
4930,-248,-768,-1664,-818,-50,75
4935,-200,-768,-1680,-809,-46,73
4940,-184,-784,-1696,-800,-37,72
4945,-216,-768,-1704,-803,-33,67
4950,-208,-776,-1664,-797,-30,58
4955,-224,-736,-1672,-786,-25,51
4960,-200,-720,-1664,-780,-22,47
4965,-208,-664,-1664,-780,-22,45
4970,-200,-640,-1696,-777,-26,45
4975,-176,-584,-1696,-787,-29,40
4980,-144,-568,-1728,-796,-27,57
4985,-120,-560,-1760,-811,-18,78
4990,-136,-544,-1808,-826,-11,95
4995,-104,-536,-1784,-841,-3,104
5000,-88,-552,-1784,-849,4,109
5005,-64,-544,-1784,-858,8,111
5010,-104,-520,-1752,-867,11,97
5015,-24,-528,-1784,-881,19,98
5020,-16,-512,-1776,-879,32,109
5025,-56,-528,-1760,-882,46,112
5030,-72,-496,-1728,-875,66,112
5035,-160,-520,-1752,-864,86,116
5040,-80,-480,-1712,-848,100,119
5045,-88,-448,-1760,-833,111,124
5050,-96,-400,-1712,-828,115,119
5055,-104,-392,-1744,-814,110,133
5060,-72,-336,-1752,-794,111,148
5065,-56,-288,-1720,-780,119,166
5070,-40,-256,-1864,-768,133,180
5075,-24,-224,-1824,-797,146,179
5080,-24,-184,-1840,-827,172,189
5085,-120,-192,-1808,-837,197,214
5090,-24,-152,-1600,-841,212,226
5095,-32,-136,-1760,-823,217,213
5100,-72,-176,-1680,-864,204,196
5105,-16,-56,-1552,-911,179,185
5110,-48,-24,-1568,-938,159,189
5115,-48,-48,-1456,-988,132,187
5120,-56,-64,-1472,-1036,104,185
5125,-56,-136,-1424,-1083,70,173
5130,-56,-56,-1360,-1142,31,159
5135,-48,-56,-1336,-1195,1,160
5140,-48,-144,-1312,-1251,-17,158
5145,-64,-96,-1288,-1295,-33,127
5150,-120,-120,-1304,-1317,-47,111
5155,-72,-184,-1320,-1352,-66,90
5160,-104,-16,-1408,-1401,-89,60
5165,-40,-72,-1512,-1442,-89,60
5170,-56,-40,-1512,-1505,-89,63
5175,8,-32,-1536,-1582,-104,48
5180,-24,-24,-1456,-1670,-110,33
5185,40,-16,-1432,-1759,-113,35
5190,96,-24,-1376,-1835,-112,36
5195,16,-56,-1408,-1914,-96,16
5200,40,-144,-1352,-1984,-73,-5
5205,56,-360,-1448,-1998,-36,-28
5210,-104,-192,-1320,-1997,-13,-89
5215,-88,-248,-1352,-1980,12,-94
5220,-208,-216,-1304,-1934,78,-128
5225,-184,-280,-1360,-1831,138,-151
5230,-328,-128,-1336,-1722,196,-207
5235,-360,-72,-1328,-1651,258,-229
5240,-376,-240,-1368,-1625,299,-225
5245,-528,-152,-1312,-1622,345,-246
5250,-568,-144,-1272,-1609,391,-257
5255,-496,-256,-1272,-1586,467,-240
5260,-552,-328,-1296,-1531,511,-197
5265,-496,-312,-1240,-1475,510,-149
5270,-416,-256,-1144,-1435,447,-155
5275,-296,-312,-1016,-1355,353,-128
5280,-312,-280,-1064,-1267,230,-108
5285,-208,-312,-1032,-1189,115,-119
5290,-216,-208,-1064,-1116,36,-114
5295,-112,-216,-1048,-1082,-23,-136
5300,-88,-168,-1048,-1036,-64,-129
5305,8,-112,-1088,-948,-110,-139
5310,104,-176,-1120,-835,-143,-143
5315,80,96,-1136,-720,-133,-183
5320,152,80,-1200,-613,-99,-160
5325,120,0,-1200,-494,-52,-104
5330,128,-8,-1176,-383,-10,-78
5335,104,16,-1216,-294,15,-39
5340,80,56,-1264,-156,13,-28
5345,128,56,-1272,-31,33,17
5350,-8,96,-1216,94,91,90
5355,-64,80,-1192,183,120,137
5360,-128,104,-1200,273,153,184
5365,-216,40,-1280,355,164,213
5370,-80,248,-1288,437,194,229
5375,-136,192,-1304,511,200,272
5380,-64,192,-1328,575,208,293
5385,-80,248,-1328,615,200,308
5390,-128,272,-1256,640,181,318
5395,-48,208,-1344,639,154,332
5400,-152,232,-1240,639,141,337
5405,-184,184,-1208,666,132,349
5410,-136,104,-1352,684,71,351
5415,-304,64,-1376,712,20,335
5420,-344,-40,-1368,735,-21,291
5425,-408,144,-1488,790,-68,241
5430,-464,48,-1544,863,-98,216
5435,-456,144,-1536,960,-154,169
5440,-328,96,-1552,1099,-187,110
5445,-16,176,-1664,1219,-233,69
5450,0,168,-1576,1327,-240,67
5455,200,200,-1616,1416,-251,72
5460,224,208,-1632,1497,-240,109
5465,272,232,-1696,1568,-251,154
5470,48,152,-1680,1644,-249,218
5475,64,160,-1656,1708,-272,259
5480,-8,104,-1656,1782,-266,290
5485,-176,-16,-1744,1884,-262,321
5490,-192,-48,-1736,1987,-273,338
5495,-168,-96,-1832,2094,-315,353
5500,-192,-168,-1920,2226,-355,347
5505,-176,-176,-2016,2357,-401,324
5510,-152,-160,-2024,2504,-438,291
5515,-128,-224,-2024,2638,-469,259
5520,-176,-344,-2040,2763,-500,232
5525,-280,-416,-2072,2880,-527,208
5530,-296,-464,-2096,2994,-545,184
5535,-240,-512,-2056,3117,-559,160
5540,-56,-608,-2032,3248,-584,140
5545,24,-784,-2120,3374,-624,129
5550,304,-1008,-2264,3487,-672,140
5555,424,-992,-2552,3574,-714,154
5560,448,-1104,-2576,3668,-697,169
5565,400,-1144,-2504,3801,-624,183
5570,48,-984,-2536,3961,-513,167
5575,-248,-968,-2568,4113,-398,124
5580,-304,-1096,-2568,4244,-277,76
5585,-264,-1336,-2640,4360,-182,21
5590,-304,-1424,-2984,4477,-124,-46
5595,-232,-1472,-3032,4515,-114,-90
5600,-32,-1496,-3048,4490,-135,-120
5605,32,-1656,-3048,4454,-153,-123
5610,208,-1704,-3072,4438,-144,-107
5615,56,-1712,-3176,4435,-92,-100
5620,-64,-1768,-3304,4458,-10,-85
5625,-184,-1760,-3320,4486,104,-84
5630,-304,-1640,-3360,4502,247,-81
5635,-488,-1472,-3424,4477,389,-63
5640,-680,-1376,-3296,4389,509,-21
5645,-768,-1448,-3176,4300,595,38
5650,-928,-1528,-3240,4213,634,92
5655,-912,-1632,-3144,4113,640,140
5660,-1096,-1680,-2984,4032,630,192
5665,-1040,-1968,-2736,3952,555,285
5670,-1152,-1992,-2552,3898,447,353
5675,-1440,-2040,-2280,3831,314,428
5680,-1440,-2248,-2072,3706,136,513
5685,-1624,-2312,-1832,3566,-56,573
5690,-1776,-2424,-1632,3465,-232,612
5695,-1904,-2616,-1456,3403,-363,637
5700,-1920,-2960,-1368,3374,-470,655
5705,-1896,-3232,-1328,3344,-567,642
5710,-1824,-3448,-1352,3319,-646,612
5715,-1784,-3568,-1368,3307,-691,568
5720,-1752,-3696,-1312,3330,-722,518
5725,-1544,-3808,-1224,3399,-742,465
5730,-1488,-3872,-944,3533,-742,411
5735,-1400,-3848,-568,3721,-743,340
5740,-1280,-3704,-192,3962,-773,256
5745,-1056,-3464,72,4201,-803,169
5750,-888,-3264,392,4410,-819,114
5755,-616,-2880,640,4574,-827,97
5760,-384,-2544,696,4695,-818,107
5765,-176,-2264,736,4745,-816,129
5770,16,-2056,752,4717,-839,166
5775,216,-1920,696,4669,-863,227
5780,288,-1832,616,4593,-886,266
5785,336,-1768,408,4511,-853,314
5790,344,-1856,320,4433,-778,375
5795,152,-1936,232,4403,-663,419
5800,96,-2048,264,4403,-580,448
5805,224,-2096,240,4430,-527,463
5810,168,-2056,136,4479,-479,459
5815,200,-2016,136,4486,-433,436
5820,96,-1896,168,4448,-374,410
5825,32,-1832,208,4377,-311,401
5830,-64,-1816,272,4285,-263,394
5835,-160,-1760,400,4189,-223,382
5840,-184,-1664,504,4103,-190,396
5845,-160,-1768,520,4035,-157,405
5850,-376,-1752,536,3974,-80,390
5855,-424,-1672,504,3905,-18,394
5860,-480,-1664,568,3746,-30,405
5865,-504,-1712,552,3572,-39,398
5870,-544,-1648,584,3424,-32,387
5875,-528,-1760,544,3330,-5,399
5880,-552,-1736,512,3264,14,410
5885,-504,-1744,496,3202,16,425
5890,-528,-1792,544,3152,-4,430
5895,-512,-1872,664,3148,-51,449
5900,-672,-1880,536,3153,-106,463
5905,-696,-1896,584,3143,-165,481
5910,-672,-1880,672,3133,-223,496
5915,-616,-1824,712,3130,-280,503
5920,-616,-1848,712,3115,-337,500
5925,-600,-1832,768,3064,-381,477
5930,-592,-1832,784,2992,-402,453
5935,-648,-1584,864,2925,-415,425
5940,-680,-1768,824,2859,-418,411
5945,-640,-1800,880,2797,-431,368
5950,-712,-1776,1000,2766,-444,300
5955,-712,-1784,1040,2752,-467,218
5960,-728,-1736,1104,2750,-486,132
5965,-712,-1712,1232,2730,-498,49
5970,-744,-1640,1368,2685,-493,-54
5975,-808,-1520,1488,2626,-473,-155
5980,-864,-1368,1600,2551,-451,-234
5985,-896,-1176,1672,2453,-438,-296
5990,-896,-1000,1720,2327,-444,-356
5995,-832,-824,1832,2185,-468,-410
6000,-648,-648,1936,2046,-497,-463
6005,-736,-544,2088,1915,-474,-506
6010,-456,-416,1976,1766,-436,-503
6015,-560,-384,2256,1500,-333,-464
6020,-512,-432,2264,1239,-275,-382
6025,-560,-544,2272,1007,-270,-267
6030,-440,-632,2216,802,-299,-178
6035,-384,-816,2208,581,-288,-105
6040,-312,-960,2160,355,-255,-39
6045,-280,-1120,2112,117,-223,14
6050,-264,-1264,2056,-124,-211,44
6055,-304,-1336,1976,-358,-206,52
6060,-400,-1320,1888,-595,-203,47
6065,-432,-1328,1792,-825,-191,37
6070,-512,-1280,1752,-1030,-155,20
6075,-536,-1240,1728,-1177,-105,10
6080,-584,-1216,1728,-1268,-44,10
6085,-632,-1208,1776,-1301,12,12
6090,-688,-1200,1768,-1286,54,12
6095,-712,-1264,1808,-1226,76,17
6100,-632,-1264,1736,-1127,82,21
6105,-640,-1288,1664,-1024,83,20
6110,-656,-1248,1568,-931,68,9
6115,-584,-1264,1584,-855,53,-6
6120,-552,-1248,1504,-804,46,-21
6125,-536,-1240,1472,-788,46,-23
6130,-536,-1176,1448,-765,45,-34
6135,-616,-1184,1512,-738,38,-35
6140,-464,-1192,1448,-684,5,-39
6145,-448,-1168,1432,-639,-23,-34
6150,-512,-1168,1424,-585,-52,-24
6155,-392,-1208,1424,-507,-78,-25
6160,-400,-1272,1472,-441,-88,-20
6165,-432,-1296,1520,-387,-96,-19
6170,-472,-1328,1584,-313,-103,-17
6175,-504,-1384,1688,-220,-114,-12
6180,-448,-1416,1720,-120,-143,-10
6185,-392,-1304,1664,-48,-162,-7
6190,-360,-1328,1712,-8,-156,4
6195,-352,-1312,1712,35,-138,0
6200,-320,-1344,1704,72,-111,-10
6205,-320,-1312,1704,99,-83,-24
6210,-288,-1288,1688,125,-60,-41
6215,-280,-1208,1616,146,-36,-57
6220,-336,-1192,1592,166,-3,-64
6225,-328,-1160,1600,201,21,-74
6230,-328,-1144,1664,236,38,-83
6235,-376,-1128,1712,265,50,-85
6240,-400,-1160,1776,284,55,-81
6245,-448,-1144,1760,297,57,-72
6250,-424,-1160,1808,299,56,-62
6255,-448,-1176,1816,287,54,-51
6260,-456,-1192,1840,271,46,-37
6265,-480,-1280,1864,240,35,-26
6270,-488,-1288,1824,201,23,-23
6275,-488,-1304,1744,156,23,-22
6280,-504,-1328,1696,104,27,-28
6285,-504,-1304,1680,43,39,-39
6290,-504,-1328,1664,-13,51,-54
6295,-504,-1344,1616,-62,68,-71
6300,-496,-1336,1592,-104,87,-79
6305,-512,-1304,1544,-136,112,-88
6310,-520,-1280,1544,-163,131,-95
6315,-536,-1288,1584,-179,144,-96
6320,-528,-1296,1544,-186,158,-95
6325,-520,-1312,1568,-182,170,-90
6330,-544,-1328,1560,-171,177,-84
6335,-544,-1416,1560,-153,180,-75
6340,-584,-1432,1544,-135,175,-68
6345,-584,-1480,1568,-118,169,-61
6350,-584,-1480,1536,-108,159,-54
6355,-568,-1504,1536,-98,148,-51
6360,-568,-1528,1544,-85,137,-46
6365,-568,-1568,1552,-64,128,-43
6370,-584,-1616,1560,-33,124,-32
6375,-584,-1656,1536,5,118,-17
6380,-536,-1672,1528,45,110,-7
6385,-584,-1696,1520,88,107,1
6390,-600,-1672,1512,125,98,14
6395,-696,-1664,1520,162,82,33
6400,-624,-1648,1528,208,58,53
6405,-528,-1664,1544,258,35,59
6410,-528,-1656,1520,313,28,61
6415,-544,-1640,1504,372,20,75
6420,-528,-1592,1512,429,7,90
6425,-592,-1584,1544,495,-5,103
6430,-488,-1592,1592,572,-18,116
6435,-440,-1584,1608,665,-18,113
6440,-520,-1640,1672,757,-16,108
6445,-344,-1568,1528,828,-30,91
6450,-448,-1448,1528,840,-34,51
6455,-408,-1440,1536,843,-26,34
6460,-344,-1528,1560,872,-11,23
6465,-384,-1560,1608,909,-3,-1
6470,-448,-1616,1696,956,2,-20
6475,-408,-1656,1712,1023,3,-40
6480,-296,-1656,1744,1094,-4,-74
6485,-192,-1600,1728,1164,-4,-119
6490,-104,-1552,1752,1232,12,-160
6495,-16,-1440,1712,1282,34,-202
6500,56,-1328,1688,1288,65,-253
6505,144,-1272,1688,1267,117,-305
6510,240,-1248,1688,1235,176,-362
6515,184,-1192,1704,1201,237,-419
6520,136,-1120,1776,1173,281,-455
6525,88,-1032,1816,1154,297,-468
6530,24,-968,1856,1143,306,-468
6535,32,-992,1816,1136,319,-459
6540,-64,-920,1848,1120,348,-441
6545,-144,-896,1856,1089,370,-419
6550,-88,-880,1848,1043,395,-390
6555,-144,-856,1768,973,457,-343
6560,-312,-872,1800,902,512,-313
6565,-312,-888,1736,846,537,-315
6570,-328,-864,1640,798,551,-349
6575,-368,-824,1600,748,589,-371
6580,-392,-832,1568,691,606,-352
6585,-376,-856,1416,627,596,-338
6590,-432,-888,1448,532,600,-346
6595,-488,-944,1424,421,602,-335
6600,-488,-952,1312,312,582,-310
6605,-624,-1104,1464,186,572,-274
6610,-648,-1168,1456,125,511,-258
6615,-688,-1256,1440,83,452,-265
6620,-728,-1328,1424,40,426,-243
6625,-760,-1384,1464,-18,407,-206
6630,-752,-1424,1448,-84,394,-171
6635,-800,-1424,1464,-157,380,-143
6640,-800,-1456,1488,-226,359,-120
6645,-832,-1456,1528,-275,336,-98
6650,-848,-1432,1552,-312,307,-73
6655,-888,-1416,1568,-336,274,-49
6660,-904,-1456,1584,-340,240,-23
6665,-936,-1488,1616,-334,206,0
6670,-960,-1488,1640,-318,170,26
6675,-952,-1488,1616,-300,133,54
6680,-960,-1496,1584,-280,99,81
6685,-960,-1480,1560,-262,68,108
6690,-936,-1512,1528,-251,42,131
6695,-920,-1512,1536,-255,17,153
6700,-920,-1520,1504,-252,-4,175
6705,-864,-1544,1488,-252,-22,193
6710,-864,-1512,1464,-254,-36,210
6715,-792,-1592,1480,-246,-43,234
6720,-744,-1600,1472,-240,-51,241
6725,-712,-1616,1512,-231,-60,249
6730,-656,-1640,1512,-213,-74,253
6735,-592,-1664,1496,-202,-88,254
6740,-560,-1656,1512,-192,-97,250
6745,-504,-1624,1504,-178,-104,242
6750,-488,-1624,1480,-167,-110,231
6755,-456,-1592,1528,-162,-106,216
6760,-392,-1560,1512,-160,-105,199
6765,-352,-1544,1520,-159,-98,179
6770,-328,-1520,1528,-159,-88,158
6775,-312,-1488,1520,-159,-76,138
6780,-256,-1456,1496,-155,-63,116
6785,-256,-1408,1496,-154,-47,91
6790,-216,-1384,1536,-146,-32,67
6795,-208,-1376,1568,-133,-13,45
6800,-200,-1344,1584,-105,8,25
6805,-200,-1360,1632,-67,30,3
6810,-192,-1392,1632,-18,54,-19
6815,-152,-1384,1632,34,76,-42
6820,-200,-1424,1632,85,100,-64
6825,-216,-1408,1624,131,123,-84
6830,-208,-1384,1616,166,141,-102
6835,-200,-1368,1632,195,158,-114
6840,-224,-1368,1664,213,171,-122
6845,-248,-1344,1680,224,184,-121
6850,-224,-1352,1672,231,193,-120
6855,-272,-1328,1648,231,201,-115
6860,-320,-1328,1696,229,209,-109
6865,-336,-1280,1704,219,213,-98
6870,-384,-1296,1672,204,217,-89
6875,-448,-1272,1752,191,222,-77
6880,-400,-1280,1672,181,227,-53
6885,-424,-1256,1704,179,233,-50
6890,-496,-1232,1696,176,234,-44
6895,-504,-1224,1696,171,233,-38
6900,-544,-1176,1720,165,231,-28
6905,-576,-1136,1712,161,226,-18
6910,-592,-1104,1696,162,224,-13
6915,-600,-1088,1704,160,221,-4
6920,-608,-1080,1744,153,217,3
6925,-584,-1080,1712,143,213,12
6930,-592,-1072,1728,133,208,21
6935,-568,-1072,1760,117,203,33
6940,-592,-1040,1744,98,195,43
6945,-544,-1088,1704,75,185,59
6950,-568,-1056,1760,42,176,66
6955,-584,-1104,1736,4,167,72
6960,-560,-1128,1752,-34,154,77
6965,-576,-1104,1752,-66,142,80
6970,-560,-1104,1720,-93,132,82
6975,-592,-1104,1736,-111,123,86
6980,-584,-1144,1728,-120,118,83
6985,-608,-1152,1712,-125,114,84
6990,-624,-1128,1696,-121,111,83
6995,-624,-1120,1720,-111,109,82
7000,-608,-1128,1720,-99,105,81
7005,-624,-1144,1728,-90,101,81
7010,-664,-1128,1736,-82,94,84
7015,-616,-1152,1712,-73,87,86
7020,-640,-1128,1752,-68,79,91
7025,-664,-1152,1728,-65,73,94
7030,-600,-1136,1776,-64,65,95
7035,-632,-1144,1752,-67,61,95
7040,-616,-1144,1704,-70,55,97
7045,-640,-1136,1736,-72,52,97
7050,-640,-1176,1736,-74,50,96
7055,-608,-1176,1744,-72,47,95
7060,-624,-1200,1728,-70,43,91
7065,-632,-1192,1728,-65,40,89
7070,-576,-1192,1760,-55,39,87
7075,-584,-1184,1712,-44,38,83
7080,-608,-1192,1712,-34,36,79
7085,-552,-1208,1712,-25,36,76
7090,-560,-1192,1680,-15,37,70
7095,-584,-1176,1712,-8,40,64
7100,-568,-1176,1688,-1,43,58
7105,-544,-1216,1664,5,50,53
7110,-528,-1192,1680,8,55,48
7115,-528,-1176,1672,10,64,44
7120,-512,-1208,1696,10,68,42
7125,-528,-1200,1688,12,70,39
7130,-512,-1216,1680,14,73,37
7135,-520,-1224,1704,20,74,33
7140,-504,-1208,1680,30,76,30
7145,-512,-1208,1680,40,77,25
7150,-512,-1240,1640,48,75,19
7155,-512,-1240,1656,57,73,12
7160,-512,-1248,1656,65,73,6
7165,-536,-1240,1648,72,74,-2
7170,-512,-1240,1640,70,76,-10
7175,-512,-1232,1632,60,79,-20
7180,-544,-1216,1664,43,82,-29
7185,-536,-1200,1648,21,82,-40
7190,-544,-1200,1672,3,81,-48
7195,-560,-1168,1624,-8,82,-54
7200,-520,-1144,1616,-15,82,-59
7205,-536,-1192,1632,-19,81,-61
7210,-552,-1176,1656,-21,79,-62
7215,-544,-1208,1616,-21,76,-62
7220,-560,-1200,1632,-19,72,-59
7225,-552,-1216,1640,-18,67,-58
7230,-552,-1248,1640,-17,64,-55
7235,-552,-1264,1656,-13,59,-53
7240,-544,-1272,1680,-12,56,-47
7245,-536,-1288,1656,-10,55,-42
7250,-552,-1304,1640,-11,55,-38
7255,-560,-1280,1704,-13,55,-32
7260,-552,-1304,1648,-18,58,-27
7265,-568,-1288,1664,-24,62,-22
7270,-576,-1288,1656,-30,69,-18
7275,-576,-1312,1616,-38,77,-16
7280,-576,-1288,1648,-43,84,-12
7285,-560,-1288,1656,-46,91,-7
7290,-584,-1288,1656,-51,98,-4
7295,-592,-1280,1672,-52,101,-1
7300,-576,-1264,1624,-52,101,4
7305,-584,-1272,1632,-51,99,10
7310,-568,-1272,1632,-47,96,14
7315,-560,-1264,1616,-43,90,16
7320,-544,-1296,1616,-40,85,18
7325,-560,-1296,1640,-36,79,19
7330,-552,-1296,1624,-31,71,19
7335,-536,-1288,1600,-26,67,16
7340,-528,-1280,1656,-20,63,14
7345,-544,-1256,1632,-16,58,9
7350,-520,-1280,1624,-12,56,6
7355,-520,-1288,1624,-12,52,1
7360,-512,-1272,1616,-12,48,-4
7365,-520,-1264,1632,-13,46,-8
7370,-536,-1272,1632,-11,48,-11
7375,-544,-1264,1624,-8,52,-15
7380,-536,-1256,1616,-5,54,-18
7385,-512,-1264,1648,1,58,-18
7390,-504,-1280,1656,8,60,-18
7395,-504,-1256,1680,10,63,-17
7400,-512,-1264,1632,12,66,-16
7405,-528,-1248,1664,12,67,-13
7410,-528,-1264,1672,13,66,-14
7415,-528,-1272,1664,13,66,-13
7420,-536,-1272,1648,11,66,-11
7425,-512,-1264,1656,10,68,-12
7430,-520,-1272,1696,13,70,-12
7435,-528,-1272,1672,14,72,-12
7440,-536,-1264,1664,14,74,-11
7445,-528,-1240,1656,12,73,-8
7450,-528,-1216,1656,13,74,-6
7455,-536,-1232,1656,12,75,-5
7460,-552,-1200,1640,12,74,-2
7465,-536,-1216,1656,12,73,0
7470,-528,-1216,1664,10,71,4
7475,-544,-1232,1656,6,68,10
7480,-528,-1216,1648,1,63,13
7485,-528,-1216,1688,-4,61,16
7490,-544,-1216,1664,-7,56,16
7495,-536,-1240,1664,-8,54,16
7500,-544,-1232,1680,-10,51,17
7505,-552,-1248,1648,-11,50,16
7510,-536,-1240,1672,-16,49,14
7515,-544,-1192,1680,-21,52,11
7520,-544,-1216,1656,-23,56,7
7525,-528,-1232,1664,-30,61,5
7530,-560,-1184,1672,-36,67,6
7535,-536,-1200,1656,-39,71,6
7540,-536,-1224,1664,-44,76,7
7545,-536,-1184,1664,-46,82,9
7550,-536,-1168,1640,-48,87,12
7555,-544,-1200,1688,-53,94,17
7560,-536,-1208,1664,-54,93,19
7565,-536,-1216,1656,-53,93,24
7570,-520,-1240,1688,-49,92,26
7575,-528,-1240,1672,-47,89,26
7580,-520,-1256,1704,-47,87,27
7585,-528,-1232,1696,-47,84,26
7590,-520,-1232,1656,-47,80,23
7595,-536,-1240,1704,-45,79,23
7600,-528,-1248,1648,-41,78,20
7605,-560,-1248,1672,-38,78,17
7610,-528,-1240,1648,-32,79,15
7615,-544,-1256,1648,-26,82,13
7620,-552,-1264,1664,-20,84,14
7625,-544,-1264,1664,-11,89,14
7630,-544,-1224,1688,-2,94,14
7635,-520,-1280,1688,8,96,17
7640,-552,-1224,1664,13,96,19
7645,-544,-1216,1648,18,97,21
7650,-544,-1232,1688,20,98,22
7655,-528,-1216,1656,22,96,24
7660,-560,-1240,1656,21,92,22
7665,-568,-1232,1680,21,91,22
7670,-560,-1216,1672,21,89,20
7675,-560,-1256,1664,20,88,17
7680,-560,-1208,1648,21,90,12
7685,-552,-1200,1640,20,90,10
7690,-552,-1192,1664,16,91,7
7695,-528,-1248,1632,10,90,5
7700,-560,-1184,1664,3,90,3
7705,-560,-1192,1640,-1,89,2
7710,-560,-1208,1656,-7,88,2
7715,-552,-1208,1664,-12,87,3
7720,-560,-1200,1688,-15,86,1
7725,-592,-1232,1656,-19,84,0
7730,-552,-1232,1648,-22,83,-1
7735,-560,-1248,1696,-26,82,-1
7740,-552,-1224,1664,-30,82,-3
7745,-560,-1248,1632,-33,82,-6
7750,-584,-1232,1632,-38,84,-4
7755,-560,-1256,1656,-41,81,-6
7760,-560,-1248,1648,-44,82,-7
7765,-552,-1232,1632,-46,84,-7
7770,-560,-1264,1632,-48,86,-6
7775,-560,-1240,1656,-51,90,-5
7780,-552,-1240,1632,-56,93,-2
7785,-552,-1224,1640,-64,94,0
7790,-536,-1208,1648,-72,94,1
7795,-552,-1240,1656,-77,93,5
7800,-576,-1240,1704,-77,94,8
7805,-528,-1264,1656,-72,95,11
7810,-536,-1256,1672,-69,98,13
7815,-536,-1256,1664,-66,100,16
7820,-552,-1264,1648,-61,102,15
7825,-552,-1288,1648,-57,107,14
7830,-568,-1272,1608,-51,110,12
7835,-552,-1264,1672,-47,108,10
7840,-536,-1264,1632,-40,104,9
7845,-544,-1272,1648,-37,102,8
7850,-536,-1272,1632,-33,102,10
7855,-552,-1248,1640,-32,100,11
7860,-560,-1256,1616,-30,98,16
7865,-536,-1248,1640,-30,93,19
7870,-552,-1264,1656,-30,90,19
7875,-560,-1256,1648,-30,87,21
7880,-552,-1232,1632,-28,85,21
7885,-544,-1264,1624,-25,84,22
7890,-544,-1248,1648,-21,84,21
7895,-552,-1248,1648,-18,84,23
7900,-568,-1264,1640,-13,86,20
7905,-560,-1248,1648,-8,88,19
7910,-568,-1224,1640,-1,88,17
7915,-576,-1256,1616,5,87,16
7920,-560,-1248,1632,16,89,14
7925,-584,-1232,1648,22,87,14
7930,-560,-1248,1640,30,88,13
7935,-568,-1248,1656,35,86,14
7940,-544,-1256,1664,41,85,13
7945,-576,-1232,1664,44,83,13
7950,-576,-1232,1664,43,83,13
7955,-568,-1240,1640,40,79,11
7960,-568,-1216,1640,38,77,11
7965,-584,-1232,1616,32,74,9
7970,-560,-1232,1672,26,71,8
7975,-592,-1216,1664,21,70,7
7980,-592,-1240,1656,17,68,5
7985,-576,-1240,1648,14,69,2
7990,-600,-1224,1656,13,69,-2
7995,-568,-1264,1624,12,70,-4
8000,-600,-1216,1624,13,69,-5
8005,-592,-1240,1664,14,71,-6
8010,-560,-1240,1648,13,72,-4
8015,-568,-1208,1648,11,71,-2
8020,-592,-1224,1616,8,70,0
8025,-560,-1208,1664,6,68,4
8030,-560,-1224,1664,4,68,8
8035,-552,-1256,1672,2,69,11
8040,-560,-1216,1704,-5,68,14
8045,-560,-1208,1688,-10,67,13
8050,-576,-1232,1672,-16,68,14
8055,-584,-1216,1680,-21,71,13
8060,-568,-1224,1672,-27,74,11
8065,-584,-1224,1648,-31,78,8
8070,-560,-1240,1648,-34,81,6
8075,-552,-1216,1632,-33,85,3
8080,-560,-1240,1632,-31,90,-1
8085,-568,-1240,1624,-26,92,0
8090,-568,-1216,1656,-22,96,0
8095,-568,-1240,1648,-18,98,1
8100,-552,-1232,1680,-14,98,4
8105,-544,-1240,1640,-9,98,7
8110,-576,-1240,1640,-4,97,8
8115,-536,-1224,1640,1,96,12
8120,-568,-1192,1664,3,94,14
8125,-552,-1232,1656,4,92,16
8130,-576,-1232,1648,3,91,17
8135,-544,-1248,1672,3,89,17
8140,-568,-1208,1664,5,86,15
8145,-552,-1256,1632,5,84,14
8150,-592,-1232,1648,6,83,11
8155,-592,-1224,1640,6,83,8
8160,-584,-1216,1664,4,84,5
8165,-576,-1224,1624,3,86,2
8170,-608,-1216,1640,2,88,0
8175,-584,-1224,1656,3,87,-4
8180,-624,-1192,1560,1,90,-6
8185,-576,-1224,1624,1,93,-6
8190,-600,-1216,1664,1,96,-5
8195,-576,-1192,1656,2,96,-3
8200,-552,-1224,1656,2,95,-2
8205,-544,-1224,1648,1,94,0
8210,-560,-1248,1672,-1,91,3
8215,-576,-1232,1656,-1,90,3
8220,-584,-1240,1680,-4,87,3
8225,-584,-1248,1656,-5,86,3
8230,-576,-1248,1664,-6,84,2
8235,-584,-1224,1656,-5,84,0
8240,-584,-1240,1656,-6,83,-4
8245,-592,-1248,1664,-6,82,-5
8250,-592,-1248,1648,-7,84,-6
8255,-600,-1232,1624,-6,88,-6
8260,-568,-1248,1680,-5,90,-5
8265,-592,-1232,1632,-5,90,-4
8270,-576,-1232,1664,-3,92,-1
8275,-584,-1240,1656,0,93,1
8280,-576,-1240,1648,2,93,4
8285,-600,-1256,1680,6,94,6
8290,-624,-1272,1672,5,93,8
8295,-592,-1240,1672,6,93,8
8300,-576,-1232,1656,4,91,10
8305,-576,-1240,1656,1,88,9
8310,-576,-1248,1640,-5,88,7
8315,-584,-1224,1640,-8,87,5
8320,-576,-1240,1640,-10,85,3
8325,-576,-1256,1656,-12,86,0
8330,-592,-1248,1608,-12,89,-1
8335,-584,-1240,1608,-12,92,-1
8340,-584,-1224,1672,-9,94,-1
8345,-600,-1240,1664,-6,95,-2
8350,-584,-1208,1672,1,99,1
8355,-568,-1232,1664,4,100,3
8360,-568,-1216,1648,7,100,5
8365,-584,-1232,1664,10,98,9
8370,-584,-1232,1656,13,95,12
8375,-584,-1216,1648,15,93,14
8380,-576,-1256,1672,17,90,17
8385,-600,-1224,1648,20,85,18
8390,-592,-1240,1648,22,82,19
8395,-608,-1240,1656,23,80,18
8400,-592,-1256,1624,22,79,16
8405,-584,-1216,1608,18,77,13
8410,-600,-1224,1632,17,81,11
8415,-584,-1224,1640,10,82,9
8420,-584,-1216,1632,4,83,6
8425,-584,-1208,1640,0,86,5
8430,-600,-1208,1648,-2,87,5
8435,-600,-1232,1656,0,88,6
8440,-584,-1208,1680,1,88,6
8445,-576,-1248,1664,4,87,10
8450,-584,-1232,1672,4,88,11
8455,-592,-1216,1648,4,84,14
8460,-568,-1232,1696,4,83,15
8465,-560,-1224,1648,4,78,15
8470,-576,-1240,1656,4,76,15
8475,-592,-1240,1672,2,73,12
8480,-584,-1240,1640,-1,69,9
8485,-616,-1232,1640,-3,67,8
8490,-608,-1232,1648,-5,66,6
8495,-584,-1216,1664,-7,63,4
8500,-600,-1224,1624,-8,65,4
8505,-600,-1224,1648,-10,68,0
8510,-592,-1144,1656,-10,71,0
8515,-584,-1216,1632,-9,74,0
8520,-608,-1192,1664,-7,78,2
8525,-592,-1216,1648,-6,82,4
8530,-608,-1216,1640,-4,85,5
8535,-576,-1240,1656,-2,86,5
8540,-608,-1216,1680,1,84,7
8545,-592,-1216,1648,2,81,7
8550,-608,-1216,1664,2,81,7
8555,-600,-1240,1672,-1,77,7
8560,-600,-1216,1696,-3,75,5
8565,-584,-1232,1656,-2,75,2
8570,-552,-1224,1632,-5,76,0
8575,-592,-1240,1640,-4,72,-1
8580,-576,-1224,1648,-3,75,-3
8585,-584,-1208,1624,-2,76,-5
8590,-576,-1216,1632,0,77,-7
8595,-608,-1208,1648,1,79,-7
8600,-592,-1232,1640,3,81,-6
8605,-608,-1224,1624,5,83,-5
8610,-576,-1232,1640,6,86,-4
8615,-584,-1216,1664,8,89,-2
8620,-592,-1240,1680,8,89,0
8625,-576,-1240,1688,7,92,1
8630,-600,-1208,1648,7,91,2
8635,-600,-1224,1672,8,92,3
8640,-592,-1232,1656,8,94,2
8645,-600,-1216,1680,6,94,2
8650,-616,-1208,1680,6,94,3
8655,-600,-1232,1648,6,91,1
8660,-616,-1184,1664,6,91,0
8665,-592,-1224,1672,4,91,-1
8670,-592,-1208,1648,3,91,-2
8675,-624,-1200,1640,2,91,-2
8680,-584,-1216,1632,1,91,-2
8685,-592,-1208,1648,-2,91,-4
8690,-616,-1232,1616,-6,90,-5
8695,-584,-1224,1640,-9,90,-5
8700,-616,-1232,1648,-9,90,-5
8705,-584,-1232,1664,-6,90,-5
8710,-584,-1216,1640,-3,89,-6
8715,-576,-1232,1640,1,89,-5
8720,-600,-1248,1712,7,89,-5
8725,-584,-1232,1656,12,87,-5
8730,-600,-1224,1680,17,85,-3
8735,-592,-1232,1664,21,83,-4
8740,-608,-1216,1664,19,82,-3
8745,-600,-1208,1688,12,82,-2
8750,-616,-1192,1672,3,83,-2
8755,-584,-1192,1656,-4,85,-3
8760,-624,-1192,1648,-12,85,-2
8765,-592,-1216,1656,-17,86,-2
8770,-608,-1216,1648,-18,87,-2
8775,-600,-1216,1672,-18,90,-2
8780,-608,-1200,1648,-18,89,1
8785,-600,-1224,1680,-17,87,2
8790,-616,-1224,1640,-16,86,1
8795,-584,-1224,1648,-14,82,1
8800,-584,-1240,1648,-14,80,3
8805,-600,-1248,1656,-15,77,5
8810,-600,-1216,1664,-17,75,6
8815,-608,-1224,1648,-22,73,6
8820,-592,-1208,1648,-24,73,6
8825,-608,-1208,1672,-27,72,4
8830,-600,-1224,1640,-29,70,4
8835,-576,-1248,1664,-31,70,1
8840,-592,-1208,1624,-32,70,-1
8845,-616,-1216,1664,-31,70,-2
8850,-592,-1232,1624,-27,71,-4
8855,-600,-1224,1648,-25,71,-6
8860,-576,-1256,1632,-21,71,-5
8865,-608,-1216,1640,-18,72,-4
8870,-608,-1232,1656,-12,73,-4
8875,-624,-1224,1608,-9,74,-2
8880,-592,-1232,1632,-8,74,0
8885,-584,-1216,1632,-5,76,2
8890,-576,-1232,1672,-5,77,4
8895,-600,-1216,1648,-3,76,5
8900,-616,-1240,1656,-2,76,7
8905,-592,-1232,1656,0,74,9
8910,-568,-1232,1688,0,75,10
8915,-608,-1208,1664,-2,75,11
8920,-624,-1216,1680,-3,74,11
8925,-624,-1192,1664,-7,73,9
8930,-608,-1216,1656,-8,72,7
8935,-624,-1200,1648,-10,72,4
8940,-600,-1216,1632,-9,73,3
8945,-584,-1208,1680,-7,73,1
8950,-616,-1184,1672,-3,74,1
8955,-600,-1208,1624,-2,74,-2
8960,-608,-1208,1656,0,74,-1
8965,-592,-1216,1640,2,76,0
8970,-608,-1208,1688,2,77,1
8975,-608,-1192,1648,2,77,1
8980,-632,-1216,1640,1,78,1
8985,-600,-1232,1696,0,79,1
8990,-592,-1216,1656,-3,78,2
8995,-600,-1216,1656,-4,78,0
9000,-608,-1208,1672,-5,78,-2
9005,-616,-1200,1656,-6,78,-3
9010,-616,-1216,1664,-5,76,-6
9015,-616,-1200,1688,-7,76,-6
9020,-600,-1208,1672,-9,76,-7
9025,-608,-1208,1656,-9,75,-10
9030,-600,-1200,1648,-14,76,-7
9035,-616,-1216,1672,-18,76,-8
9040,-584,-1224,1664,-20,77,-3
9045,-584,-1240,1640,-21,78,1
9050,-624,-1184,1656,-18,81,5
9055,-584,-1224,1640,-16,81,8
9060,-600,-1208,1616,-13,83,11
9065,-584,-1232,1616,-11,85,15
9070,-608,-1200,1592,-11,87,17
9075,-592,-1216,1664,-10,89,19
9080,-608,-1224,1640,-13,92,19
9085,-600,-1208,1616,-16,94,18
9090,-584,-1224,1632,-15,91,15
9095,-600,-1232,1648,-14,91,15
9100,-592,-1232,1648,-12,89,15
9105,-592,-1224,1672,-6,91,17
9110,-592,-1224,1680,-3,93,17
9115,-600,-1216,1664,-2,98,17
9120,-600,-1216,1624,-2,100,16
9125,-648,-1208,1616,2,100,7
9130,-600,-1248,1640,11,99,4
9135,-608,-1232,1680,13,99,10
9140,-608,-1224,1656,5,100,13
9145,-600,-1216,1680,-3,97,12
9150,-608,-1208,1632,-10,93,11
9155,-584,-1224,1648,-16,90,10
9160,-648,-1200,1560,-18,85,11
9165,-616,-1192,1648,-18,81,11
9170,-600,-1208,1624,-17,78,12
9175,-624,-1224,1624,-15,76,12
9180,-632,-1208,1624,-11,77,11
9185,-624,-1216,1648,-6,78,10
9190,-608,-1232,1640,-2,82,10
9195,-632,-1224,1640,0,86,9
9200,-632,-1216,1632,3,88,9
9205,-616,-1216,1672,4,88,7
9210,-624,-1224,1656,5,90,6
9215,-624,-1224,1664,3,92,4
9220,-632,-1216,1656,2,96,3
9225,-608,-1216,1648,-1,98,2
9230,-592,-1232,1656,-3,97,1
9235,-600,-1216,1648,-2,98,0
9240,-632,-1200,1648,-1,96,1
9245,-608,-1224,1648,1,95,-1
9250,-632,-1208,1664,2,93,0
9255,-608,-1208,1648,0,92,1
9260,-616,-1200,1672,-1,92,1
9265,-624,-1192,1672,0,90,1
9270,-616,-1176,1672,0,89,-1
9275,-640,-1168,1680,-1,88,-2
9280,-608,-1216,1648,-4,88,-2
9285,-648,-1200,1672,-6,87,-3
9290,-648,-1200,1664,-8,87,-2
9295,-600,-1200,1616,-8,85,0
9300,-608,-1200,1648,-9,84,-2
9305,-624,-1192,1648,-13,83,-1
9310,-616,-1208,1656,-17,81,-1
9315,-624,-1208,1672,-21,80,0
9320,-616,-1232,1664,-22,79,0
9325,-608,-1208,1648,-24,79,1
9330,-592,-1200,1648,-24,80,1
9335,-624,-1200,1640,-23,84,0
9340,-600,-1208,1640,-21,86,1
9345,-600,-1216,1640,-20,87,0
9350,-584,-1216,1648,-18,91,0
9355,-600,-1200,1640,-19,95,1
9360,-624,-1224,1672,-20,96,3
9365,-632,-1216,1664,-22,95,4
9370,-624,-1216,1656,-24,92,6
9375,-608,-1208,1688,-23,90,9
9380,-608,-1216,1656,-21,87,10
9385,-632,-1224,1664,-17,84,11
9390,-616,-1200,1664,-14,84,11
9395,-624,-1232,1648,-13,84,11
9400,-608,-1248,1640,-8,80,12
9405,-632,-1200,1648,-5,75,11
9410,-632,-1200,1664,-4,71,9
9415,-616,-1200,1640,-5,69,6
9420,-640,-1208,1624,-6,70,7
9425,-632,-1200,1632,-8,69,7
9430,-632,-1168,1632,-12,72,8
9435,-648,-1160,1648,-17,74,7
9440,-648,-1176,1632,-21,77,7
9445,-648,-1176,1648,-24,78,7
9450,-632,-1160,1664,-29,81,9
9455,-640,-1200,1632,-31,82,9
9460,-632,-1176,1696,-34,85,11
9465,-600,-1184,1648,-34,86,11
9470,-624,-1216,1664,-36,85,12
9475,-608,-1224,1688,-35,84,12
9480,-632,-1200,1648,-34,82,13
9485,-640,-1240,1688,-30,80,13
9490,-608,-1272,1584,-24,78,10
9495,-640,-1224,1640,-19,78,11
9500,-624,-1232,1648,-12,76,11
9505,-640,-1224,1632,-6,76,9
9510,-632,-1240,1656,-3,75,7
9515,-632,-1216,1656,1,75,6
9520,-624,-1208,1624,5,74,6
9525,-672,-1192,1624,7,75,5
9530,-632,-1208,1640,10,76,5
9535,-624,-1208,1648,14,77,6
9540,-632,-1200,1640,13,78,7
9545,-640,-1232,1656,14,77,9
9550,-632,-1216,1640,12,77,10
9555,-656,-1216,1648,11,76,10
9560,-600,-1248,1632,8,75,9
9565,-640,-1208,1664,8,74,8
9570,-616,-1240,1648,7,72,7
9575,-632,-1232,1640,6,71,8
9580,-640,-1216,1648,6,72,3
9585,-624,-1240,1648,5,73,0
9590,-632,-1208,1616,8,72,-2
9595,-600,-1240,1656,8,74,-5
9600,-616,-1216,1616,8,75,-6
9605,-616,-1208,1680,8,77,-5
9610,-640,-1208,1616,6,78,-6
9615,-624,-1216,1656,4,79,-6
9620,-624,-1192,1648,4,81,-7
9625,-648,-1208,1664,4,83,-7
9630,-624,-1208,1648,4,84,-7
9635,-624,-1216,1648,3,83,-6
9640,-632,-1232,1648,3,85,-7
9645,-632,-1224,1648,0,84,-7
9650,-648,-1216,1680,-2,83,-8
9655,-616,-1240,1656,-3,82,-7
9660,-632,-1232,1656,-1,81,-7
9665,-624,-1208,1632,0,79,-8
9670,-640,-1192,1640,-1,78,-8
9675,-616,-1200,1648,-3,77,-7
9680,-640,-1224,1632,-7,75,-8
9685,-632,-1192,1656,-7,75,-6
9690,-624,-1208,1656,-8,75,-5
9695,-624,-1216,1648,-9,75,-3
9700,-640,-1216,1656,-11,76,-3
9705,-624,-1208,1616,-11,76,-2
9710,-640,-1208,1632,-11,76,-1
9715,-624,-1192,1680,-12,76,-1
9720,-632,-1216,1640,-11,78,-1
9725,-624,-1224,1664,-11,77,0
9730,-640,-1208,1656,-11,77,2
9735,-632,-1224,1664,-11,76,1
9740,-648,-1208,1648,-10,77,0
9745,-656,-1184,1680,-12,77,-1
9750,-624,-1208,1640,-15,78,0
9755,-632,-1208,1624,-18,78,-2
9760,-640,-1224,1632,-20,81,-1
9765,-640,-1208,1640,-22,83,-1
9770,-632,-1208,1664,-21,82,-2
9775,-648,-1216,1656,-21,82,-2
9780,-640,-1200,1632,-22,81,-4
9785,-600,-1216,1664,-25,77,-4
9790,-632,-1216,1656,-31,76,-3
9795,-632,-1216,1704,-38,74,-3
9800,-632,-1208,1640,-46,73,-7
9805,-632,-1216,1696,-54,70,-6
9810,-640,-1208,1696,-59,69,-8
9815,-600,-1184,1656,-60,68,-8
9820,-664,-1176,1664,-57,68,-11
9825,-664,-1192,1656,-56,70,-12
9830,-640,-1192,1616,-52,77,-15
9835,-648,-1192,1648,-46,83,-14
9840,-640,-1192,1624,-36,88,-16
9845,-656,-1176,1640,-26,93,-13
9850,-616,-1208,1648,-20,99,-13
9855,-640,-1184,1656,-14,102,-9
9860,-616,-1184,1664,-11,106,-5
9865,-624,-1208,1664,-11,107,-1
9870,-656,-1200,1640,-14,107,1
9875,-648,-1192,1648,-19,106,3
9880,-632,-1216,1632,-23,103,6
9885,-640,-1224,1608,-24,99,7
9890,-648,-1208,1632,-25,94,9
9895,-632,-1216,1632,-23,91,11
9900,-632,-1232,1656,-22,85,10
9905,-624,-1224,1616,-19,81,10
9910,-624,-1240,1640,-15,77,7
9915,-624,-1224,1624,-14,75,9
9920,-640,-1208,1616,-12,72,9
9925,-600,-1272,1616,-10,71,7
9930,-632,-1216,1624,-11,70,6
9935,-640,-1208,1640,-10,70,8
9940,-640,-1216,1616,-10,73,9
9945,-640,-1176,1632,-10,73,10
9950,-648,-1184,1648,-7,76,8
9955,-640,-1216,1616,-8,78,8
9960,-608,-1216,1632,-11,80,9
9965,-648,-1216,1656,-12,80,9
9970,-648,-1208,1640,-12,79,8
9975,-672,-1200,1672,-12,78,7
9980,-656,-1200,1608,-14,77,8
9985,-664,-1232,1648,-16,74,6
9990,-664,-1224,1632,-16,73,5
9995,-664,-1232,1664,-13,72,3
10000,-672,-1208,1632,-12,72,0
10005,-664,-1240,1640,-8,73,-2
10010,-664,-1208,1640,-5,73,-4
10015,-648,-1216,1648,-4,73,-4
10020,-640,-1208,1624,-2,72,-6
10025,-640,-1224,1624,-4,71,-8
10030,-672,-1200,1640,-7,70,-7
10035,-672,-1192,1672,-11,68,-7
10040,-648,-1200,1640,-19,68,-5
10045,-640,-1208,1664,-24,69,-4
10050,-648,-1216,1672,-31,67,-2
10055,-640,-1216,1664,-33,67,0
10060,-672,-1200,1656,-35,67,1
10065,-656,-1192,1688,-38,68,2
10070,-664,-1248,1640,-40,65,3
10075,-656,-1168,1632,-43,64,3
10080,-656,-1200,1672,-43,63,2
10085,-656,-1192,1656,-43,61,1
10090,-656,-1184,1672,-42,60,1
10095,-640,-1184,1696,-37,59,0
10100,-640,-1184,1616,-31,57,1
10105,-640,-1216,1656,-23,58,2
10110,-624,-1224,1640,-17,59,3
10115,-656,-1240,1640,-9,61,3
10120,-632,-1200,1600,-5,62,5
10125,-616,-1232,1632,1,63,5
10130,-608,-1240,1616,6,64,6
10135,-624,-1264,1648,11,67,7
10140,-616,-1248,1616,15,70,7
10145,-640,-1232,1600,17,70,8
10150,-616,-1232,1616,20,70,9
10155,-616,-1224,1648,24,70,8
10160,-632,-1216,1616,28,70,8
10165,-640,-1240,1616,33,71,7
10170,-656,-1216,1656,37,69,7
10175,-640,-1224,1608,38,67,3
10180,-656,-1224,1632,39,67,0
10185,-616,-1232,1632,39,67,-2
10190,-648,-1192,1640,40,69,-4
10195,-632,-1224,1640,40,70,-7
10200,-632,-1240,1688,39,73,-8
10205,-600,-1240,1616,37,73,-8
10210,-640,-1224,1632,34,74,-8
10215,-632,-1200,1616,29,77,-8
10220,-632,-1208,1624,24,79,-8
10225,-648,-1208,1648,20,79,-6
10230,-632,-1216,1632,15,79,-3
10235,-632,-1216,1640,10,82,1
10240,-656,-1216,1656,7,81,1
10245,-640,-1184,1640,5,82,0
10250,-672,-1256,1568,5,79,1
10255,-648,-1216,1656,4,78,2
10260,-640,-1208,1648,6,76,2
10265,-648,-1216,1632,6,76,1
10270,-656,-1176,1688,5,75,1
10275,-648,-1192,1648,1,73,1
10280,-640,-1184,1656,-5,74,-1
10285,-656,-1200,1632,-14,74,-2
10290,-688,-1200,1656,-24,74,-4
10295,-656,-1200,1640,-35,77,-3
10300,-640,-1184,1640,-45,80,-7
10305,-656,-1176,1656,-52,82,-7
10310,-648,-1200,1624,-58,83,-8
10315,-656,-1200,1648,-60,86,-7
10320,-632,-1200,1656,-60,87,-8
10325,-656,-1208,1648,-55,87,-9
10330,-664,-1208,1640,-49,87,-9
10335,-664,-1224,1672,-41,86,-9
10340,-672,-1232,1632,-28,87,-9
10345,-672,-1232,1656,-17,86,-10
10350,-664,-1240,1648,-5,84,-9
10355,-648,-1216,1648,5,84,-9
10360,-672,-1224,1656,12,83,-9
10365,-648,-1208,1600,18,82,-8
10370,-640,-1216,1640,21,84,-8
10375,-704,-1184,1648,23,83,-8
10380,-760,-1192,1640,22,84,5
10385,-584,-1248,1648,22,92,13
10390,-608,-1240,1640,26,97,-1
10395,-640,-1224,1648,29,91,-4
10400,-656,-1216,1640,29,82,-6
10405,-632,-1224,1624,30,72,-8
10410,-664,-1192,1656,31,65,-7
10415,-648,-1216,1672,32,60,-8
10420,-624,-1208,1616,30,59,-8
10425,-648,-1184,1624,28,56,-7
10430,-624,-1176,1624,24,53,-6
10435,-616,-1168,1624,21,53,-7
10440,-616,-1184,1632,19,53,-6
10445,-632,-1168,1616,19,52,-6
10450,-640,-1184,1648,21,52,-5
10455,-648,-1160,1624,21,52,-5
10460,-640,-1160,1664,22,52,-5
10465,-608,-1176,1648,22,52,-4
10470,-624,-1176,1680,20,53,-2
10475,-656,-1168,1640,15,53,-1
10480,-632,-1184,1688,10,55,2
10485,-648,-1184,1656,7,56,5
10490,-648,-1200,1664,4,56,8
10495,-648,-1176,1664,4,57,9
10500,-656,-1200,1640,4,57,12
10505,-640,-1200,1648,4,60,13
10510,-664,-1168,1680,3,62,15
10515,-672,-1184,1680,-1,64,16
10520,-672,-1192,1664,-7,66,16
10525,-648,-1152,1624,-14,67,17
10530,-632,-1184,1656,-19,69,17
10535,-632,-1208,1656,-23,71,17
10540,-664,-1192,1664,-23,73,16
10545,-664,-1192,1632,-22,75,14
10550,-656,-1184,1664,-22,78,11
10555,-648,-1200,1632,-19,81,11
10560,-648,-1208,1632,-16,83,11
10565,-648,-1192,1648,-14,82,10
10570,-656,-1184,1632,-12,82,10
10575,-624,-1208,1640,-14,81,11
10580,-656,-1192,1632,-16,81,13
10585,-640,-1224,1640,-18,80,12
10590,-648,-1208,1640,-21,78,13
10595,-656,-1208,1656,-21,76,15
10600,-648,-1224,1664,-23,75,13
10605,-664,-1200,1656,-24,72,12
10610,-640,-1216,1632,-22,72,10
10615,-640,-1216,1656,-21,71,8
10620,-648,-1216,1672,-20,74,6
10625,-648,-1208,1616,-16,74,3
10630,-640,-1192,1648,-14,74,1
10635,-640,-1224,1648,-13,74,1
10640,-624,-1248,1632,-14,75,-1
10645,-656,-1216,1624,-13,74,-1
10650,-664,-1216,1648,-12,74,1
10655,-640,-1224,1656,-16,74,0
10660,-648,-1200,1624,-21,76,1
10665,-648,-1192,1640,-26,76,1
10670,-664,-1192,1624,-33,75,3
10675,-640,-1168,1656,-40,74,5
10680,-632,-1200,1712,-47,75,5
10685,-664,-1184,1656,-52,75,6
10690,-656,-1192,1656,-56,74,6
10695,-656,-1184,1648,-57,73,6
10700,-632,-1200,1672,-58,74,7
10705,-640,-1176,1648,-58,76,4
10710,-656,-1192,1648,-56,78,5
10715,-656,-1240,1664,-53,80,5
10720,-672,-1200,1632,-50,81,6
10725,-632,-1200,1648,-46,86,7
10730,-648,-1216,1640,-42,87,7
10735,-664,-1224,1616,-38,88,6
10740,-656,-1224,1648,-35,89,8
10745,-648,-1240,1624,-33,89,9
10750,-656,-1208,1648,-29,88,9
10755,-648,-1232,1640,-24,89,9
10760,-664,-1232,1608,-20,87,9
10765,-672,-1232,1648,-13,86,8
10770,-640,-1240,1632,-8,84,8
10775,-648,-1224,1640,-1,84,6
10780,-640,-1200,1624,3,84,4
10785,-632,-1224,1600,8,83,5
10790,-640,-1208,1664,11,81,4
10795,-656,-1176,1576,10,79,4
10800,-648,-1200,1672,12,77,3
10805,-640,-1208,1640,14,74,2
10810,-632,-1192,1648,16,73,4
10815,-656,-1208,1616,17,71,5
10820,-656,-1192,1616,18,69,5
10825,-648,-1192,1640,17,68,4
10830,-648,-1208,1632,14,67,4
10835,-664,-1216,1632,11,66,4
10840,-664,-1216,1632,7,65,2
10845,-680,-1256,1672,6,64,1
10850,-680,-1208,1648,7,63,-2
10855,-640,-1208,1648,8,64,-1
10860,-648,-1216,1656,7,67,-3
10865,-648,-1184,1640,5,71,-2
10870,-672,-1176,1632,3,73,-3
10875,-648,-1184,1632,2,75,-2
10880,-656,-1184,1656,2,79,-1
10885,-624,-1208,1656,0,78,2
10890,-656,-1208,1648,-3,79,4
10895,-648,-1184,1672,-6,77,6
10900,-648,-1200,1656,-7,77,8
10905,-664,-1200,1656,-9,78,9
10910,-648,-1200,1656,-10,77,12
10915,-640,-1176,1640,-13,78,11
10920,-656,-1200,1624,-17,76,11
10925,-648,-1184,1632,-21,75,11
10930,-672,-1200,1632,-23,74,11
10935,-656,-1200,1624,-26,72,9
10940,-672,-1200,1664,-28,73,9
10945,-672,-1200,1600,-28,75,8
10950,-664,-1216,1664,-25,75,6
10955,-640,-1232,1600,-19,76,5
10960,-656,-1224,1648,-13,77,4
10965,-656,-1200,1592,-9,77,4
10970,-664,-1200,1648,-7,78,3
10975,-648,-1200,1656,-6,77,4
10980,-648,-1168,1656,-9,80,5
10985,-656,-1208,1640,-11,79,6
10990,-656,-1200,1688,-14,77,6
10995,-648,-1208,1672,-14,75,7
11000,-664,-1192,1640,-14,73,5
11005,-664,-1208,1624,-12,72,4
11010,-688,-1176,1648,-9,73,1
11015,-688,-1192,1616,-8,74,-2
11020,-664,-1200,1632,-7,74,-4
11025,-688,-1192,1624,-5,74,-6
11030,-680,-1192,1632,-2,76,-9
11035,-680,-1144,1624,0,74,-7
11040,-704,-1168,1600,3,73,-4
11045,-680,-1168,1672,4,73,-4
11050,-672,-1192,1640,7,72,-5
11055,-664,-1184,1656,8,75,-3
11060,-672,-1184,1648,8,75,0
11065,-680,-1168,1672,10,75,1
11070,-648,-1192,1656,10,74,1
11075,-640,-1160,1624,11,75,3
11080,-672,-1200,1632,13,74,2
11085,-664,-1208,1640,16,72,3
11090,-672,-1224,1648,18,71,1
11095,-656,-1232,1640,20,70,0
11100,-672,-1208,1656,20,70,-1
11105,-664,-1224,1656,24,69,-2
11110,-656,-1224,1632,25,68,-1
11115,-664,-1208,1608,27,67,-2
11120,-664,-1224,1608,28,69,-1
11125,-656,-1224,1608,29,69,0
11130,-664,-1184,1624,27,68,0
11135,-672,-1192,1648,24,69,2
11140,-656,-1208,1648,21,68,4
11145,-656,-1184,1656,20,69,5
11150,-672,-1160,1640,16,70,5
11155,-656,-1184,1672,13,70,5
11160,-656,-1192,1640,10,72,4
11165,-648,-1192,1648,8,72,6
11170,-640,-1200,1672,5,72,5
11175,-680,-1208,1664,2,73,4
11180,-656,-1192,1648,-1,74,3
11185,-664,-1192,1632,-4,76,3
11190,-648,-1216,1640,-7,75,3
11195,-656,-1200,1640,-7,73,2
11200,-656,-1208,1640,-5,73,1
11205,-664,-1192,1664,-2,73,2
11210,-656,-1200,1664,-1,73,1
11215,-640,-1200,1680,-2,72,3
11220,-664,-1176,1648,-4,71,4
11225,-648,-1184,1640,-8,71,5
11230,-632,-1176,1648,-15,71,4
11235,-656,-1192,1664,-21,70,5
11240,-648,-1160,1656,-24,72,5
11245,-672,-1200,1656,-23,74,6
11250,-656,-1176,1632,-21,75,5
11255,-648,-1200,1640,-17,73,5
11260,-664,-1208,1640,-11,77,4
11265,-672,-1208,1640,-6,80,3
11270,-680,-1184,1632,-1,80,3
11275,-672,-1224,1632,5,81,2
11280,-680,-1200,1632,8,83,3
11285,-672,-1184,1640,9,81,4
11290,-672,-1176,1664,6,79,5
11295,-672,-1184,1672,3,77,5
11300,-664,-1184,1648,-2,73,7
11305,-648,-1168,1656,-8,68,8
11310,-688,-1160,1656,-15,64,8
11315,-672,-1168,1664,-21,60,9
11320,-680,-1168,1696,-25,57,8
11325,-688,-1184,1664,-29,57,8
11330,-688,-1184,1624,-31,55,7
11335,-680,-1192,1640,-33,56,5
11340,-688,-1200,1632,-29,56,2
11345,-664,-1208,1616,-24,55,-2
11350,-680,-1200,1632,-17,56,-4
11355,-680,-1176,1648,-10,57,-5
11360,-688,-1200,1616,-6,58,-6
11365,-672,-1176,1632,-2,59,-4
11370,-648,-1184,1624,1,60,-5
11375,-664,-1168,1632,2,63,-4
11380,-632,-1192,1640,5,64,-4
11385,-672,-1168,1640,4,66,-3
11390,-648,-1192,1664,4,67,-1
11395,-656,-1168,1632,4,69,0
11400,-688,-1184,1656,4,69,1
11405,-656,-1200,1632,4,68,3
11410,-680,-1184,1648,5,68,5
11415,-680,-1192,1648,7,68,7
11420,-680,-1200,1640,10,67,7
11425,-648,-1208,1664,14,66,7
11430,-672,-1192,1656,13,64,7
11435,-664,-1208,1640,12,65,4
11440,-664,-1208,1616,12,65,4
11445,-656,-1176,1664,9,67,4
11450,-696,-1232,1656,5,69,4
11455,-640,-1184,1648,3,70,5
11460,-648,-1176,1648,-3,70,6
11465,-640,-1168,1664,-7,70,4
11470,-648,-1192,1672,-9,71,4
11475,-648,-1176,1648,-11,73,5
11480,-640,-1176,1672,-11,74,4
11485,-680,-1184,1664,-11,75,3
11490,-664,-1160,1656,-10,74,2
11495,-624,-1208,1632,-7,76,2
11500,-648,-1176,1640,-5,78,0
11505,-664,-1200,1632,-4,79,0
11510,-664,-1192,1632,-1,80,1
11515,-656,-1184,1656,-4,80,3
11520,-672,-1176,1656,-7,80,2
11525,-640,-1184,1648,-12,80,2
11530,-648,-1184,1656,-15,82,1
11535,-664,-1192,1632,-17,84,1
11540,-688,-1168,1664,-14,83,0
11545,-672,-1184,1664,-14,83,2
11550,-664,-1184,1648,-13,82,2
11555,-672,-1184,1664,-13,82,0
11560,-648,-1160,1680,-14,83,-1
11565,-672,-1184,1624,-15,84,0
11570,-648,-1168,1632,-14,82,0
11575,-672,-1192,1632,-13,80,2
11580,-664,-1192,1624,-12,77,2
11585,-704,-1184,1664,-7,76,5
11590,-648,-1160,1680,-5,74,4
11595,-656,-1168,1656,-4,74,2
11600,-672,-1184,1664,-3,76,4
11605,-680,-1184,1656,-2,83,5
11610,-688,-1184,1632,-3,84,7
11615,-672,-1168,1640,-3,84,8
11620,-664,-1208,1648,-3,84,10
11625,-664,-1200,1648,-4,82,11
11630,-672,-1192,1648,-5,80,12
11635,-656,-1232,1632,-5,79,14
11640,-680,-1184,1656,-4,79,14
11645,-672,-1224,1664,-4,77,14
11650,-672,-1176,1640,-3,75,16
11655,-688,-1176,1672,-3,73,16
11660,-656,-1168,1672,-3,72,17
11665,-680,-1224,1632,-5,72,17
11670,-672,-1176,1656,-7,73,18
11675,-680,-1168,1664,-11,72,13
11680,-672,-1176,1648,-15,72,11
11685,-696,-1168,1648,-19,72,10
11690,-656,-1192,1632,-22,73,9
11695,-656,-1184,1640,-25,75,7
11700,-680,-1192,1640,-27,76,7
11705,-680,-1176,1656,-27,78,6
11710,-664,-1184,1664,-27,78,7
11715,-656,-1200,1648,-25,79,8
11720,-664,-1184,1688,-23,81,8
11725,-656,-1208,1600,-21,82,6
11730,-672,-1224,1664,-19,83,8
11735,-664,-1208,1648,-19,85,7
11740,-672,-1192,1640,-18,85,7
11745,-688,-1200,1616,-17,85,8
11750,-664,-1184,1640,-15,85,5
11755,-656,-1176,1648,-15,83,5
11760,-664,-1184,1640,-13,81,5
11765,-656,-1176,1616,-10,81,7
11770,-656,-1168,1632,-8,80,7
11775,-656,-1216,1632,-5,79,8
11780,-672,-1200,1640,-5,78,9
11785,-664,-1192,1656,-2,76,9
11790,-680,-1168,1656,-1,74,10
11795,-680,-1184,1656,0,72,9
11800,-688,-1176,1648,0,73,6
11805,-688,-1192,1680,1,71,6
11810,-680,-1176,1656,2,70,5
11815,-672,-1184,1656,2,68,2
11820,-664,-1184,1640,0,69,1
11825,-688,-1192,1656,-3,71,0
11830,-680,-1184,1672,-5,73,1
11835,-656,-1200,1648,-7,71,-3
11840,-672,-1176,1648,-9,72,-2
11845,-680,-1176,1648,-10,74,-3
11850,-680,-1184,1632,-8,75,-2
11855,-688,-1184,1664,-8,77,-2
11860,-688,-1176,1656,-6,76,0
11865,-688,-1176,1616,-4,77,-1
11870,-664,-1184,1664,-3,79,1
11875,-664,-1168,1664,-3,80,2
11880,-688,-1184,1656,-6,79,2
11885,-664,-1168,1672,-7,80,3
11890,-680,-1176,1696,-8,81,3
11895,-672,-1160,1632,-9,83,3
11900,-696,-1176,1656,-11,82,3
11905,-680,-1160,1672,-10,83,5
11910,-696,-1176,1632,-10,83,4
11915,-680,-1184,1648,-10,83,3
11920,-672,-1192,1648,-9,84,2
11925,-680,-1184,1616,-11,85,3
11930,-672,-1176,1664,-12,85,4
11935,-680,-1184,1648,-13,82,3
11940,-656,-1184,1632,-14,83,2
11945,-672,-1160,1656,-14,83,2
11950,-640,-1200,1656,-13,81,3
11955,-672,-1208,1672,-9,82,5
11960,-688,-1176,1640,-2,81,4
11965,-672,-1176,1640,2,80,5
11970,-664,-1200,1648,2,77,6
11975,-672,-1192,1664,3,77,5
11980,-680,-1192,1656,0,76,6
11985,-680,-1168,1672,-2,77,6
11990,-656,-1184,1680,-6,77,5
11995,-680,-1176,1648,-8,79,2
12000,-672,-1144,1664,-6,80,2
12005,-688,-1176,1648,-5,82,1
12010,-672,-1168,1632,-4,84,-1
12015,-688,-1168,1608,-3,85,-2
12020,-704,-1176,1648,-1,87,-3
12025,-720,-1152,1632,1,88,-5
12030,-688,-1176,1640,4,88,-5
12035,-688,-1192,1664,7,88,-3
12040,-688,-1192,1640,6,89,-1
12045,-664,-1184,1656,5,87,0
12050,-664,-1176,1664,0,85,1
12055,-688,-1192,1672,-3,83,1
12060,-688,-1152,1656,-10,82,3
12065,-704,-1184,1648,-15,78,5
12070,-672,-1160,1656,-18,77,4
12075,-680,-1176,1640,-19,75,4
12080,-672,-1176,1656,-18,74,4
12085,-688,-1144,1632,-17,74,3
12090,-688,-1192,1624,-13,76,2
12095,-664,-1192,1632,-10,75,0
12100,-688,-1192,1632,-6,76,0
12105,-688,-1160,1648,0,76,0
12110,-664,-1192,1616,6,76,0
12115,-680,-1200,1624,14,75,-1
12120,-688,-1176,1632,20,76,1
12125,-656,-1160,1616,23,78,2
12130,-696,-1176,1648,22,77,3
12135,-672,-1152,1640,22,76,5
12140,-688,-1168,1640,18,76,4
12145,-680,-1168,1664,13,75,4
12150,-696,-1152,1648,6,74,5
12155,-704,-1168,1648,-1,74,5
12160,-680,-1176,1664,-5,72,4
12165,-704,-1160,1672,-9,71,2
12170,-688,-1184,1640,-10,72,1
12175,-680,-1200,1664,-10,74,-2
12180,-688,-1200,1656,-7,74,-3
12185,-680,-1224,1632,-3,75,-3
12190,-688,-1200,1648,-1,74,-3
12195,-696,-1176,1632,4,77,-2
12200,-696,-1184,1656,6,78,-1
12205,-704,-1168,1616,7,79,2
12210,-712,-1184,1624,7,81,4
12215,-680,-1160,1680,9,81,5
12220,-688,-1168,1632,7,80,6
12225,-680,-1192,1680,5,81,9
12230,-680,-1160,1664,3,80,10
12235,-680,-1192,1672,2,79,12
12240,-696,-1168,1656,-2,78,13
12245,-688,-1184,1664,-2,74,12
12250,-680,-1160,1648,-5,72,9
12255,-672,-1192,1656,-4,74,7
12260,-688,-1176,1656,-4,74,4
12265,-704,-1160,1648,-2,74,0
12270,-688,-1176,1656,-1,73,-2
12275,-704,-1168,1640,3,75,-4
12280,-704,-1192,1632,7,73,-7
12285,-696,-1160,1632,11,74,-9
12290,-672,-1184,1648,16,74,-10
12295,-696,-1168,1656,22,76,-12
12300,-696,-1176,1648,24,78,-11
12305,-680,-1184,1672,26,79,-12
12310,-688,-1192,1656,26,81,-11
12315,-664,-1128,1632,21,81,-12
12320,-688,-1184,1640,17,84,-11
12325,-696,-1208,1624,15,85,-10
12330,-680,-1200,1640,14,88,-10
12335,-696,-1192,1656,14,89,-9
12340,-696,-1208,1640,19,88,-12
12345,-696,-1184,1648,25,87,-13
12350,-688,-1216,1640,32,85,-16
12355,-736,-1192,1616,40,83,-16
12360,-688,-1176,1616,46,79,-19
12365,-704,-1168,1632,51,77,-20
12370,-696,-1176,1640,57,75,-24
12375,-720,-1144,1632,58,73,-27
12380,-672,-1144,1632,58,72,-25
12385,-696,-1144,1648,56,72,-28
12390,-712,-1136,1648,47,69,-26
12395,-688,-1152,1672,38,69,-23
12400,-688,-1128,1664,28,67,-21
12405,-696,-1160,1680,19,65,-19
12410,-696,-1136,1704,8,63,-17
12415,-720,-1152,1664,-1,63,-13
12420,-696,-1184,1672,-10,61,-11
12425,-680,-1128,1696,-18,61,-9
12430,-680,-1096,1664,-23,61,-5
12435,-680,-1128,1680,-28,62,-3
12440,-696,-1136,1680,-31,63,0
12445,-672,-1144,1640,-33,64,0
12450,-688,-1152,1664,-35,65,1
12455,-688,-1152,1656,-36,67,4
12460,-664,-1144,1640,-34,66,7
12465,-664,-1160,1672,-29,64,8
12470,-672,-1144,1672,-25,65,8
12475,-664,-1144,1648,-20,64,11
12480,-664,-1160,1616,-15,63,11
12485,-656,-1192,1648,-10,64,9
12490,-688,-1144,1672,-7,65,9
12495,-704,-1168,1672,-3,63,7
12500,-688,-1168,1696,1,62,5
12505,-688,-1160,1696,5,62,4
12510,-680,-1144,1672,9,62,2
12515,-656,-1176,1640,13,60,-1
12520,-656,-1168,1664,17,63,-1
12525,-672,-1184,1656,20,66,-1
12530,-672,-1168,1656,23,68,-1
12535,-672,-1152,1632,22,73,-1
12540,-656,-1152,1688,23,76,-2
12545,-688,-1168,1640,24,79,0
12550,-680,-1152,1648,23,81,0
12555,-688,-1168,1664,19,80,2
12560,-664,-1168,1680,15,78,3
12565,-672,-1160,1664,10,77,4
12570,-680,-1168,1664,4,74,5
12575,-672,-1176,1664,-3,72,7
12580,-664,-1176,1632,-9,69,10
12585,-648,-1176,1664,-13,67,9
12590,-688,-1160,1688,-15,66,10
12595,-680,-1184,1664,-15,62,10
12600,-664,-1168,1664,-15,61,10
12605,-696,-1160,1648,-14,58,7
12610,-696,-1152,1648,-15,58,7
12615,-688,-1152,1672,-17,60,8
12620,-688,-1152,1640,-19,64,8
12625,-704,-1144,1648,-21,68,5
12630,-672,-1160,1624,-24,73,6
12635,-688,-1136,1680,-27,76,7
12640,-712,-1144,1672,-29,79,7
12645,-696,-1152,1656,-33,82,10
12650,-704,-1136,1688,-33,84,12
12655,-696,-1144,1664,-34,84,14
12660,-688,-1176,1656,-35,84,14
12665,-672,-1152,1680,-33,83,14
12670,-688,-1160,1672,-31,82,13
12675,-696,-1184,1648,-26,79,14
12680,-712,-1160,1640,-22,77,14
12685,-688,-1160,1648,-20,76,13
12690,-696,-1168,1664,-17,76,12
12695,-688,-1168,1656,-13,75,10
12700,-704,-1160,1656,-13,75,8
12705,-712,-1184,1624,-10,75,3
12710,-720,-1176,1632,-8,77,2
12715,-696,-1160,1624,-7,80,0
12720,-680,-1192,1648,-4,81,-4
12725,-696,-1184,1624,-1,83,-5
12730,-688,-1176,1672,3,84,-4
12735,-696,-1200,1632,9,82,-3
12740,-704,-1216,1624,15,79,-4
12745,-704,-1176,1648,24,77,-5
12750,-712,-1192,1640,35,77,-5
12755,-704,-1136,1584,42,74,-5
12760,-704,-1184,1632,48,73,-8
12765,-712,-1168,1672,51,75,-11
12770,-688,-1160,1656,50,74,-13
12775,-696,-1168,1640,48,76,-14
12780,-712,-1136,1656,48,79,-16
12785,-720,-1152,1656,49,80,-18
12790,-704,-1144,1648,48,81,-25
12795,-704,-1152,1624,44,83,-29
12800,-672,-1176,1664,40,84,-32
12805,-696,-1160,1624,38,86,-34
12810,-696,-1176,1632,38,88,-39
12815,-696,-1176,1656,40,89,-39
12820,-696,-1216,1640,44,90,-39
12825,-688,-1216,1632,45,91,-37
12830,-688,-1184,1664,48,89,-35
12835,-688,-1184,1664,48,88,-33
12840,-704,-1160,1656,44,88,-31
12845,-712,-1160,1640,37,90,-29
12850,-688,-1136,1672,27,91,-26
12855,-696,-1144,1656,14,93,-23
12860,-704,-1128,1648,4,93,-21
12865,-672,-1136,1648,-6,95,-18
12870,-696,-1112,1688,-14,98,-15
12875,-696,-1112,1664,-21,95,-10
12880,-664,-1128,1696,-27,92,-7
12885,-704,-1120,1664,-33,89,-6
12890,-712,-1128,1688,-37,86,-3
12895,-672,-1128,1656,-41,85,-2
12900,-696,-1120,1664,-43,80,-2
12905,-680,-1136,1656,-45,76,-1
12910,-672,-1136,1680,-45,74,-2
12915,-680,-1168,1696,-43,74,-1
12920,-688,-1128,1704,-38,74,0
12925,-680,-1152,1680,-33,74,-1
12930,-672,-1152,1672,-31,75,-1
12935,-704,-1152,1688,-27,79,0
12940,-664,-1168,1688,-24,78,0
12945,-672,-1160,1680,-21,79,-1
12950,-688,-1160,1688,-18,80,-1
12955,-688,-1160,1680,-17,81,1
12960,-664,-1152,1712,-16,82,0
12965,-680,-1160,1672,-13,82,1
12970,-712,-1152,1704,-10,84,1
12975,-664,-1168,1664,-7,84,4
12980,-712,-1144,1672,-6,83,2
12985,-688,-1160,1680,-1,85,1
12990,-712,-1168,1688,5,87,1
12995,-688,-1176,1688,11,87,1
13000,-688,-1168,1648,19,88,0
13005,-696,-1136,1680,25,89,2
13010,-688,-1168,1664,29,89,0
13015,-720,-1160,1640,33,90,2
13020,-712,-1136,1648,36,91,-1
13025,-680,-1152,1632,37,92,1
13030,-696,-1152,1656,37,91,1
13035,-704,-1144,1672,34,89,2
13040,-672,-1120,1696,29,89,1
13045,-704,-1152,1616,30,86,-8
13050,-712,-1136,1672,23,87,3
13055,-704,-1144,1664,12,84,4
13060,-704,-1128,1640,3,81,3
13065,-696,-1136,1672,-3,77,4
13070,-704,-1176,1664,-5,77,3
13075,-696,-1176,1672,-3,76,2
13080,-696,-1192,1664,-2,77,-1
13085,-768,-1128,1656,0,78,-3
13090,-728,-1192,1656,-1,81,-3
13095,-712,-1184,1656,-3,85,-5
13100,-704,-1168,1640,-9,88,-5
13105,-696,-1160,1640,-17,92,-6
13110,-712,-1144,1640,-27,94,-7
13115,-736,-1144,1648,-32,94,-5
13120,-712,-1136,1640,-36,94,-5
13125,-720,-1144,1616,-36,93,-4
13130,-720,-1136,1640,-35,92,-1
13135,-744,-1128,1640,-31,91,1
13140,-736,-1152,1680,-29,91,1
13145,-712,-1136,1704,-26,88,3
13150,-704,-1120,1672,-23,85,5
13155,-696,-1120,1688,-21,83,5
13160,-680,-1144,1672,-21,82,5
13165,-688,-1144,1680,-24,79,6
13170,-696,-1160,1640,-26,77,8
13175,-712,-1152,1672,-26,79,7
13180,-720,-1152,1680,-29,79,8
13185,-704,-1168,1656,-32,78,6
13190,-704,-1176,1664,-35,80,5
13195,-704,-1152,1672,-37,82,4
13200,-704,-1168,1656,-36,87,3
13205,-688,-1176,1648,-33,91,1
13210,-696,-1168,1656,-29,92,0
13215,-720,-1168,1624,-23,93,-1
13220,-704,-1168,1680,-17,93,-1
13225,-720,-1160,1672,-10,90,-2
13230,-704,-1152,1656,-2,86,-1
13235,-688,-1200,1656,3,82,-2
13240,-688,-1200,1680,7,81,0
13245,-680,-1152,1648,9,80,-2
13250,-696,-1168,1672,13,79,-5
13255,-664,-1192,1672,16,78,-5
13260,-680,-1192,1680,24,75,-8
13265,-680,-1216,1656,33,72,-11
13270,-680,-1200,1672,42,68,-16
13275,-696,-1176,1656,48,68,-19
13280,-696,-1184,1648,51,73,-22
13285,-680,-1152,1640,53,77,-23
13290,-680,-1168,1648,57,84,-28
13295,-664,-1128,1688,56,92,-24
13300,-840,-1168,1696,69,97,-24
13305,-672,-1200,1672,81,104,-4
13310,-656,-1160,1704,84,105,-10
13315,-688,-1152,1656,80,94,-15
13320,-736,-1120,1664,71,85,-17
13325,-688,-1144,1680,60,83,-15
13330,-704,-1144,1688,50,80,-16
13335,-744,-1128,1672,45,79,-14
13340,-744,-1136,1664,39,83,-7
13345,-696,-1136,1672,36,89,-7
13350,-696,-1136,1664,33,90,-14
13355,-720,-1120,1656,34,91,-15
13360,-712,-1136,1632,30,94,-13
13365,-720,-1136,1632,32,95,-14
13370,-736,-1136,1616,32,100,-13
13375,-760,-1120,1640,32,102,-13
13380,-768,-1096,1640,34,103,-5
13385,-680,-1120,1632,34,103,-2
13390,-704,-1112,1616,31,104,-2
13395,-736,-1096,1648,25,103,0
13400,-680,-1104,1656,24,98,9
13405,-680,-1104,1664,23,94,5
13410,-752,-1088,1600,21,91,2
13415,-728,-1120,1656,18,88,4
13420,-736,-1096,1672,19,85,6
13425,-752,-1136,1704,22,81,5
13430,-736,-1136,1680,25,77,3
13435,-712,-1144,1656,28,72,2
13440,-736,-1136,1680,26,69,-4
13445,-704,-1136,1664,21,71,-8
13450,-720,-1136,1672,21,76,-9
13455,-784,-1144,1656,23,79,-10
13460,-744,-1136,1640,25,88,-6
13465,-712,-1144,1648,25,93,-5
13470,-728,-1120,1664,25,98,-3
13475,-704,-1144,1656,22,99,-3
13480,-696,-1120,1664,19,99,-1
13485,-696,-1128,1672,17,99,-2
13490,-720,-1088,1656,17,100,-2
13495,-728,-1112,1688,18,102,1
13500,-720,-1120,1680,15,104,8
13505,-704,-1120,1688,16,105,7
13510,-728,-1128,1656,16,101,4
13515,-744,-1104,1664,17,97,4
13520,-760,-1128,1680,18,92,7
13525,-720,-1128,1680,19,90,6
13530,-696,-1144,1640,20,86,-1
13535,-736,-1112,1664,24,81,-3
13540,-720,-1128,1664,26,78,2
13545,-728,-1144,1632,30,80,6
13550,-728,-1128,1640,36,81,7
13555,-712,-1136,1672,40,83,12
13560,-688,-1096,1656,43,86,12
13565,-664,-1112,1680,43,86,6
13570,-696,-1112,1616,40,82,3
13575,-704,-1096,1648,33,81,4
13580,-712,-1072,1656,24,84,3
13585,-720,-1080,1656,16,86,6
13590,-744,-1056,1664,10,84,5
13595,-736,-1064,1704,7,83,5
13600,-744,-1072,1680,6,82,5
13605,-704,-1128,1664,6,80,5
13610,-720,-1112,1656,5,77,6
13615,-720,-1136,1664,5,73,4
13620,-728,-1128,1664,6,72,2
13625,-720,-1136,1648,3,72,1
13630,-696,-1120,1720,-2,76,0
13635,-712,-1144,1672,-7,77,-2
13640,-728,-1144,1664,-12,81,-2
13645,-720,-1136,1664,-15,81,-3
13650,-712,-1120,1648,-19,82,-5
13655,-712,-1112,1688,-20,85,-3
13660,-704,-1136,1680,-19,87,-3
13665,-696,-1144,1640,-17,89,-1
13670,-704,-1128,1648,-17,89,-1
13675,-712,-1120,1664,-17,88,-2
13680,-752,-1120,1664,-16,83,-2
13685,-720,-1128,1656,-11,82,-1
13690,-736,-1120,1664,-9,82,1
13695,-736,-1128,1656,-8,82,1
13700,-728,-1128,1664,-5,80,1
13705,-704,-1112,1640,-3,79,1
13710,-736,-1128,1640,-2,78,1
13715,-744,-1128,1664,-2,78,0
13720,-704,-1128,1656,-3,79,-2
13725,-744,-1104,1648,-1,79,-4
13730,-728,-1120,1688,0,79,-6
13735,-744,-1096,1664,0,80,-8
13740,-688,-1136,1720,1,81,-9
13745,-720,-1120,1672,1,80,-11
13750,-720,-1112,1696,1,82,-12
13755,-728,-1088,1672,3,84,-11
13760,-704,-1128,1688,5,85,-8
13765,-712,-1080,1656,9,84,-7
13770,-720,-1112,1672,8,83,-3
13775,-736,-1104,1680,6,82,2
13780,-720,-1136,1664,5,82,5
13785,-704,-1128,1688,3,81,7
13790,-704,-1136,1688,1,80,10
13795,-728,-1136,1656,-2,79,10
13800,-728,-1104,1656,-6,78,11
13805,-704,-1088,1680,-10,77,9
13810,-720,-1104,1680,-12,79,9
13815,-728,-1096,1656,-14,81,7
13820,-696,-1136,1664,-15,85,6
13825,-752,-1112,1656,-16,87,6
13830,-704,-1104,1640,-17,89,7
13835,-720,-1104,1680,-17,89,9
13840,-728,-1088,1640,-17,90,10
13845,-704,-1112,1680,-15,91,12
13850,-712,-1112,1688,-16,90,16
13855,-728,-1112,1640,-14,88,16
13860,-696,-1112,1664,-8,87,21
13865,-704,-1136,1680,-4,86,22
13870,-728,-1136,1664,-2,84,24
13875,-720,-1128,1680,-1,81,23
13880,-744,-1128,1656,0,79,22
13885,-720,-1136,1664,5,75,20
13890,-736,-1136,1648,10,73,19
13895,-744,-1152,1680,20,69,15
13900,-736,-1160,1664,28,66,13
13905,-728,-1144,1664,34,65,10
13910,-744,-1120,1672,35,63,9
13915,-744,-1104,1632,35,64,7
13920,-744,-1136,1648,34,66,7
13925,-728,-1104,1664,32,67,7
13930,-720,-1104,1664,30,68,8
13935,-736,-1104,1672,28,71,8
13940,-744,-1096,1688,24,73,9
13945,-744,-1072,1688,20,77,10
13950,-736,-1104,1704,16,78,11
13955,-752,-1064,1656,12,81,11
13960,-720,-1096,1656,8,81,10
13965,-736,-1104,1664,3,83,10
13970,-728,-1112,1680,-2,85,11
13975,-808,-1088,1696,-5,86,10
13980,-632,-1152,1672,-6,82,17
13985,-712,-1120,1640,-12,85,3
13990,-760,-1104,1640,-20,88,9
13995,-744,-1080,1696,-13,86,9
14000,-768,-1112,1672,-6,85,9
14005,-752,-1144,1672,-3,87,12
14010,-760,-1096,1680,-1,87,12
14015,-752,-1128,1648,-2,87,14
14020,-760,-1080,1680,-7,86,16
14025,-776,-1088,1680,-14,84,20
14030,-744,-1112,1680,-18,84,20
14035,-752,-1088,1688,-21,84,19
14040,-720,-1112,1672,-21,84,18
14045,-728,-1096,1680,-19,84,17
14050,-736,-1104,1664,-18,84,15
14055,-688,-1096,1664,-17,83,15
14060,-704,-1112,1680,-17,82,14
14065,-720,-1104,1680,-14,83,12
14070,-720,-1112,1704,-11,83,10
14075,-712,-1112,1688,-7,82,7
14080,-696,-1112,1672,-5,82,5
14085,-704,-1120,1672,-4,83,5
14090,-712,-1096,1672,-3,83,2
14095,-744,-1112,1656,1,86,1
14100,-704,-1120,1672,7,87,1
14105,-712,-1136,1672,13,88,0
14110,-688,-1104,1688,17,89,2
14115,-736,-1112,1648,23,93,3
14120,-728,-1096,1664,29,93,4
14125,-736,-1128,1656,31,96,5
14130,-752,-1128,1688,34,95,6
14135,-744,-1112,1664,35,96,7
14140,-760,-1112,1648,35,97,9
14145,-768,-1112,1672,35,98,10
14150,-792,-1096,1664,37,97,9
14155,-768,-1080,1680,35,96,10
14160,-768,-1088,1664,33,95,8
14165,-768,-1088,1624,32,93,6
14170,-776,-1048,1672,28,93,5
14175,-752,-1072,1656,26,92,3
14180,-760,-1088,1656,21,93,5
14185,-752,-1072,1640,15,91,6
14190,-760,-1064,1688,6,90,7
14195,-752,-1072,1640,0,88,8
14200,-776,-1080,1696,-6,87,9
14205,-760,-1072,1672,-10,85,11
14210,-760,-1080,1672,-14,85,12
14215,-752,-1088,1672,-18,84,13
14220,-760,-1096,1696,-17,83,14
14225,-752,-1088,1688,-17,83,13
14230,-768,-1104,1704,-17,81,13
14235,-768,-1112,1696,-15,81,9
14240,-768,-1096,1656,-12,80,7
14245,-744,-1144,1640,-8,78,4
14250,-744,-1128,1640,-7,79,1
14255,-744,-1120,1640,-4,80,-1
14260,-744,-1112,1656,-3,82,-3
14265,-752,-1128,1632,-3,86,-5
14270,-728,-1104,1672,-4,89,-3
14275,-736,-1112,1640,-3,91,-3
14280,-736,-1088,1704,-2,93,-1
14285,-728,-1096,1672,1,94,2
14290,-728,-1112,1648,4,93,6
14295,-712,-1112,1688,8,95,9
14300,-736,-1120,1688,10,94,11
14305,-728,-1104,1688,10,95,12
14310,-744,-1080,1720,6,93,14
14315,-728,-1128,1680,1,94,14
14320,-728,-1096,1672,-5,92,13
14325,-728,-1104,1664,-7,90,11
14330,-744,-1112,1680,-8,87,10
14335,-728,-1104,1696,-5,86,6
14340,-736,-1080,1640,-2,87,4
14345,-776,-1088,1640,0,88,3
14350,-752,-1112,1680,1,92,1
14355,-744,-1104,1640,-1,93,-1
14360,-712,-1120,1664,-2,98,-3
14365,-776,-1088,1656,0,101,-3
14370,-768,-1088,1648,0,101,-1
14375,-752,-1088,1672,0,102,-1
14380,-752,-1104,1688,-2,100,1
14385,-768,-1120,1688,-3,99,5
14390,-760,-1104,1656,-5,98,8
14395,-744,-1120,1672,-8,96,10
14400,-768,-1120,1672,-9,93,11
14405,-768,-1112,1656,-10,93,11
14410,-744,-1104,1664,-10,91,9
14415,-752,-1088,1688,-9,93,9
14420,-752,-1072,1640,-10,94,6
14425,-792,-1072,1688,-7,93,7
14430,-776,-1064,1672,-3,90,9
14435,-760,-1112,1680,1,88,6
14440,-784,-1088,1664,2,87,3
14445,-792,-1088,1648,3,86,5
14450,-768,-1088,1656,6,86,5
14455,-776,-1096,1648,9,86,5
14460,-752,-1080,1632,9,86,5
14465,-776,-1080,1688,7,86,3
14470,-776,-1072,1672,6,84,5
14475,-768,-1080,1672,2,87,4
14480,-792,-1104,1624,0,88,3
14485,-792,-1088,1664,-4,89,4
14490,-776,-1128,1696,-5,89,3
14495,-792,-1120,1624,-1,90,2
14500,-784,-1096,1648,2,87,1
14505,-792,-1112,1656,9,88,1
14510,-792,-1096,1672,13,86,0
14515,-776,-1088,1648,16,84,1
14520,-768,-1128,1624,19,83,2
14525,-784,-1120,1664,20,82,4
14530,-800,-1080,1672,21,83,8
14535,-760,-1112,1656,20,82,10
14540,-760,-1112,1672,21,84,12
14545,-760,-1120,1720,21,85,14
14550,-744,-1088,1664,22,85,15
14555,-752,-1096,1680,22,84,16
14560,-744,-1064,1680,20,82,16
14565,-768,-1080,1680,18,82,15
14570,-752,-1080,1704,17,80,14
14575,-744,-1096,1680,18,78,14
14580,-784,-1104,1664,19,75,14
14585,-760,-1104,1688,20,73,13
14590,-760,-1072,1688,25,73,12
14595,-752,-1104,1704,30,72,12
14600,-760,-1096,1656,33,72,12
14605,-760,-1120,1680,36,71,10
14610,-744,-1048,1712,38,70,9
14615,-784,-1104,1656,42,70,9
14620,-776,-1088,1680,45,71,6
14625,-784,-1088,1672,52,75,5
14630,-768,-1112,1656,52,79,4
14635,-760,-1120,1672,50,81,2
14640,-800,-1056,1696,44,84,-1
14645,-768,-1072,1688,37,84,-2
14650,-752,-1088,1680,30,87,-3
14655,-776,-1072,1656,23,90,-3
14660,-736,-1080,1664,17,91,-1
14665,-768,-1080,1688,12,92,-1
14670,-752,-1072,1664,7,89,1
14675,-768,-1080,1696,6,87,3
14680,-760,-1064,1696,7,86,5
14685,-752,-1088,1688,5,86,5
14690,-768,-1072,1672,4,84,7
14695,-760,-1072,1688,0,84,6
14700,-768,-1064,1680,-4,84,6
14705,-776,-1088,1656,-8,85,6
14710,-776,-1072,1672,-10,86,5
14715,-760,-1072,1688,-12,85,6
14720,-768,-1064,1688,-14,87,6
14725,-760,-1080,1712,-15,87,6
14730,-768,-1064,1680,-15,90,6
14735,-760,-1088,1704,-16,93,7
14740,-784,-1080,1688,-16,96,8
14745,-784,-1080,1680,-16,97,9
14750,-752,-1048,1688,-16,98,10
14755,-784,-1072,1680,-15,98,10
14760,-776,-1088,1704,-12,101,9
14765,-800,-1040,1680,-9,99,11
14770,-784,-1080,1672,-9,99,12
14775,-752,-1088,1664,-7,98,12
14780,-784,-1088,1672,-5,98,13
14785,-784,-1080,1656,-2,97,11
14790,-744,-1096,1664,2,95,13
14795,-776,-1096,1672,6,92,12
14800,-784,-1096,1656,12,89,12
14805,-776,-1088,1680,15,86,10
14810,-800,-1080,1680,19,86,8
14815,-784,-1088,1664,21,85,7
14820,-784,-1064,1696,23,85,6
14825,-800,-1032,1680,23,84,6
14830,-768,-1072,1696,22,84,5
14835,-808,-1072,1696,21,81,4
14840,-776,-1056,1672,20,81,5
14845,-784,-1048,1696,19,79,4
14850,-792,-1072,1680,18,79,3
14855,-784,-1048,1672,17,78,0
14860,-784,-1072,1672,15,76,-1
14865,-792,-1032,1664,12,77,-3
14870,-784,-1056,1672,10,77,-5
14875,-776,-1056,1656,10,79,-5
14880,-792,-1048,1680,10,81,-6
14885,-784,-1056,1656,8,83,-6
14890,-1240,-960,1608,2,85,0
14895,-872,-1056,1672,-17,104,63
14900,-696,-1088,1696,-21,121,76
14905,-648,-1120,1680,-15,126,42
14910,-768,-1088,1672,-3,117,15
14915,-792,-1080,1688,3,102,8
14920,-776,-1080,1672,1,88,6
14925,-760,-1088,1688,-3,83,5
14930,-784,-1056,1704,-6,83,4
14935,-760,-1112,1688,-8,82,2
14940,-784,-1056,1696,-9,84,3
14945,-768,-1064,1656,-10,84,2
14950,-776,-1064,1664,-14,86,1
14955,-752,-1056,1648,-15,86,1
14960,-792,-1056,1664,-16,85,1
14965,-760,-1056,1648,-16,86,2
14970,-768,-1048,1648,-16,86,3
14975,-768,-1064,1680,-14,88,5
14980,-760,-1048,1664,-13,89,10
14985,-784,-1064,1656,-11,90,12
14990,-760,-1064,1696,-11,91,14
14995,-784,-1088,1704,-13,93,14
