timestamp,accel_x,accel_y,accel_z,gyro_x,gyro_y,gyro_z
0,144,-2104,-312,-56,-3,-3
5,120,-2080,-296,-58,-2,-3
10,112,-2096,-320,-57,-2,-3
15,120,-2096,-312,-58,-1,-3
20,120,-2080,-304,-58,1,-3
25,88,-2112,-312,-59,2,-4
30,128,-2128,-288,-60,3,-4
35,128,-2088,-312,-58,5,-4
40,136,-2104,-272,-58,6,-4
45,120,-2080,-288,-58,7,-7
50,120,-2104,-304,-58,9,-5
55,96,-2064,-328,-57,9,-5
60,112,-2088,-352,-57,10,-6
65,104,-2104,-320,-56,10,-6
70,152,-2112,-320,-55,11,-7
75,104,-2112,-248,-53,11,-6
80,168,-2088,-320,-53,12,-4
85,104,-2072,-304,-53,13,-5
90,128,-2096,-328,-52,14,-5
95,112,-2080,-312,-52,14,-5
100,136,-2096,-288,-52,16,-6
105,128,-2104,-296,-50,16,-3
110,144,-2104,-368,-49,17,-4
115,128,-2096,-344,-48,17,-6
120,136,-2088,-336,-47,18,-5
125,112,-2096,-336,-48,18,-5
130,144,-2032,-280,-48,20,-5
135,120,-2104,-328,-44,19,-5
140,128,-2088,-280,-44,20,-4
145,104,-2064,-296,-43,20,-4
150,120,-2088,-304,-41,20,-4
155,120,-2064,-312,-42,21,-3
160,112,-2096,-320,-42,22,-5
165,112,-2088,-288,-43,20,-5
170,128,-2096,-288,-41,21,-4
175,152,-2088,-288,-41,22,-5
180,128,-2112,-360,-41,21,-6
185,104,-2072,-304,-41,22,-5
190,144,-2112,-320,-38,22,-5
195,128,-2088,-304,-40,21,-5
200,120,-2080,-328,-40,21,-5
205,112,-2104,-320,-42,21,-5
210,104,-2080,-304,-43,21,-5
215,128,-2072,-312,-41,19,-6
220,120,-2088,-328,-42,20,-6
225,152,-2104,-320,-41,18,-7
230,136,-2104,-296,-43,21,-5
235,168,-2096,-280,-43,19,-5
240,144,-2096,-328,-43,18,-5
245,128,-2104,-320,-44,19,-5
250,136,-2104,-304,-43,18,-4
255,128,-2096,-312,-43,18,-3
260,104,-2080,-328,-44,17,-4
265,104,-2080,-320,-44,16,-4
270,112,-2080,-344,-44,18,-4
275,120,-2080,-288,-45,19,-5
280,136,-2064,-312,-45,18,-5
285,144,-2104,-280,-44,19,-5
290,176,-2104,-288,-42,18,-7
295,128,-2088,-288,-41,18,-5
300,136,-2080,-328,-41,19,-5
305,128,-2072,-288,-42,17,-5
310,120,-2080,-336,-43,18,-6
315,136,-2096,-336,-44,17,-7
320,144,-2112,-328,-46,17,-7
325,128,-2096,-328,-47,18,-7
330,120,-2080,-352,-50,18,-7
335,128,-2080,-328,-50,18,-7
340,136,-2112,-344,-51,19,-7
345,96,-2064,-320,-48,19,-8
350,152,-2096,-296,-48,19,-8
355,136,-2072,-304,-48,20,-6
360,144,-2064,-312,-47,19,-6
365,128,-2088,-320,-49,19,-8
370,144,-2096,-304,-51,20,-6
375,128,-2080,-344,-52,20,-7
380,168,-2072,-312,-53,19,-6
385,152,-2080,-296,-51,20,-6
390,128,-2096,-320,-51,19,-6
395,120,-2096,-312,-49,20,-6
400,144,-2072,-312,-47,19,-6
405,136,-2112,-344,-48,19,-5
410,136,-2088,-336,-49,20,-6
415,112,-2096,-352,-49,20,-5
420,136,-2104,-336,-49,19,-5
425,136,-2096,-312,-49,20,-4
430,136,-2128,-360,-47,20,-5
435,128,-2080,-312,-47,20,-4
440,136,-2104,-320,-45,20,-3
445,120,-2112,-352,-44,20,-3
450,128,-2048,-352,-43,19,-4
455,120,-2088,-320,-42,19,-4
460,112,-2096,-336,-41,19,-3
465,136,-2112,-328,-40,19,-4
470,136,-2104,-328,-40,17,-4
475,136,-2104,-328,-40,18,-4
480,120,-2088,-336,-39,17,-4
485,120,-2088,-344,-38,18,-5
490,136,-2104,-328,-36,18,-4
495,128,-2088,-352,-38,18,-3
500,128,-2112,-344,-37,18,-2
505,144,-2088,-288,-36,18,-2
510,144,-2080,-328,-34,18,-3
515,136,-2088,-336,-34,18,-3
520,120,-2064,-328,-34,19,-4
525,152,-2096,-344,-35,19,-3
530,120,-2096,-320,-34,18,-4
535,128,-2096,-344,-36,18,-3
540,104,-2088,-352,-34,17,-4
545,128,-2080,-304,-33,18,-4
550,120,-2112,-312,-34,16,-4
555,136,-2088,-320,-34,15,-3
560,168,-2128,-288,-35,15,-3
565,144,-2104,-320,-36,15,-3
570,120,-2096,-328,-35,13,-3
575,120,-2072,-304,-35,14,-2
580,120,-2096,-328,-33,14,-2
585,120,-2072,-296,-34,15,-3
590,144,-2104,-328,-34,16,-4
595,120,-2080,-304,-35,17,-3
600,144,-2104,-312,-36,16,-4
605,128,-2096,-360,-36,17,-4
610,128,-2064,-328,-37,18,-3
615,96,-2120,-304,-38,17,-4
620,144,-2080,-320,-36,17,-3
625,144,-2096,-344,-38,17,-3
630,120,-2104,-304,-38,17,-3
635,144,-2088,-304,-36,16,-3
640,144,-2088,-296,-38,17,-3
645,120,-2104,-312,-38,18,-2
650,112,-2096,-320,-39,17,-4
655,136,-2072,-256,-39,19,-3
660,160,-2112,-304,-41,20,-3
665,112,-2072,-288,-41,20,-4
670,120,-2064,-336,-41,22,-4
675,120,-2088,-312,-45,24,-5
680,136,-2088,-312,-44,24,-5
685,144,-2112,-304,-46,24,-4
690,128,-2096,-312,-45,24,-5
695,128,-2096,-336,-44,25,-5
700,120,-2064,-320,-44,25,-6
705,112,-2072,-320,-44,26,-5
710,160,-2104,-312,-45,27,-5
715,136,-2096,-312,-46,27,-6
720,112,-2080,-296,-47,28,-5
725,120,-2072,-312,-49,29,-6
730,128,-2096,-296,-46,30,-5
735,120,-2088,-312,-46,29,-6
740,136,-2096,-312,-45,30,-5
745,120,-2088,-320,-45,32,-6
750,152,-2096,-320,-46,32,-6
755,128,-2072,-328,-46,32,-6
760,136,-2104,-320,-44,34,-7
765,136,-2096,-312,-44,34,-5
770,96,-2088,-352,-43,34,-5
775,120,-2064,-304,-43,35,-6
780,128,-2080,-320,-40,36,-5
785,120,-2096,-320,-41,36,-7
790,112,-2096,-328,-41,37,-7
795,128,-2080,-312,-41,38,-7
800,136,-2120,-320,-40,38,-6
805,104,-2064,-304,-41,37,-6
810,144,-2120,-320,-41,37,-7
815,112,-2120,-320,-39,37,-8
820,120,-2104,-280,-39,38,-6
825,96,-2080,-312,-38,36,-7
830,120,-2096,-328,-38,37,-6
835,136,-2104,-296,-36,36,-5
840,128,-2088,-296,-35,37,-5
845,136,-2104,-288,-34,35,-6
850,104,-2080,-312,-34,36,-5
855,96,-2104,-304,-34,34,-5
860,120,-2104,-296,-31,34,-5
865,112,-2112,-320,-32,34,-5
870,128,-2096,-312,-29,33,-5
875,112,-2072,-312,-29,32,-5
880,104,-2080,-336,-29,31,-5
885,112,-2104,-288,-29,29,-4
890,104,-2088,-296,-30,29,-3
895,120,-2088,-320,-27,27,-3
900,112,-2112,-304,-29,27,-4
905,136,-2088,-288,-27,25,-3
910,144,-2112,-296,-29,24,-5
915,128,-2112,-272,-30,24,-3
920,128,-2088,-320,-30,24,-4
925,128,-2112,-304,-30,23,-4
930,112,-2088,-288,-29,23,-5
935,152,-2112,-288,-27,23,-4
940,136,-2088,-320,-27,21,-4
945,120,-2104,-328,-27,21,-4
950,112,-2088,-320,-26,21,-3
955,104,-2080,-296,-26,22,-2
960,128,-2080,-296,-26,20,-3
965,120,-2064,-320,-27,20,-3
970,96,-2072,-280,-26,21,-2
975,128,-2088,-320,-26,19,-3
980,128,-2104,-288,-28,19,-3
985,120,-2088,-296,-30,19,-2
990,96,-2080,-344,-30,17,-3
995,136,-2112,-296,-29,19,-2
1000,96,-2080,-296,-30,19,-2
1005,128,-2104,-328,-29,20,-4
1010,152,-2104,-288,-30,22,-4
1015,120,-2064,-320,-29,23,-5
1020,128,-2104,-296,-31,25,-4
1025,120,-2112,-296,-28,25,-5
1030,144,-2112,-296,-28,27,-4
1035,112,-2088,-280,-28,28,-4
1040,104,-2120,-328,-26,28,-5
1045,120,-2088,-296,-28,30,-6
1050,128,-2088,-288,-26,30,-7
1055,128,-2072,-320,-27,31,-6
1060,136,-2096,-328,-31,32,-7
1065,128,-2088,-304,-32,33,-7
1070,136,-2096,-304,-34,35,-7
1075,88,-2088,-296,-33,36,-7
1080,136,-2088,-312,-33,38,-8
1085,128,-2104,-304,-34,40,-9
1090,104,-2072,-312,-35,41,-9
1095,112,-2072,-264,-34,43,-9
1100,120,-2072,-264,-33,43,-9
1105,120,-2072,-312,-36,43,-10
1110,144,-2072,-296,-40,44,-9
1115,136,-2080,-264,-43,46,-9
1120,128,-2096,-280,-45,46,-9
1125,136,-2104,-304,-47,44,-8
1130,128,-2096,-312,-47,45,-10
1135,112,-2072,-272,-46,45,-10
1140,104,-2072,-304,-47,46,-10
1145,72,-2072,-296,-47,45,-11
1150,120,-2072,-336,-48,44,-11
1155,112,-2072,-304,-49,44,-10
1160,112,-2112,-288,-49,44,-10
1165,112,-2088,-320,-50,43,-10
1170,120,-2096,-288,-49,43,-11
1175,112,-2088,-296,-50,43,-10
1180,104,-2072,-296,-50,40,-10
1185,120,-2080,-304,-50,41,-11
1190,96,-2112,-312,-49,40,-12
1195,112,-2104,-296,-48,39,-10
1200,128,-2112,-296,-47,38,-10
1205,128,-2160,-296,-47,36,-8
1210,112,-2080,-328,-45,36,-9
1215,96,-2088,-296,-45,34,-10
1220,120,-2096,-304,-44,33,-9
1225,104,-2096,-272,-41,32,-9
1230,112,-2080,-312,-40,31,-10
1235,128,-2088,-320,-38,31,-9
1240,120,-2104,-304,-37,29,-8
1245,120,-2080,-320,-39,27,-8
1250,104,-2072,-304,-39,25,-7
1255,112,-2104,-328,-39,25,-7
1260,88,-2112,-264,-39,24,-6
1265,96,-2080,-328,-39,22,-6
1270,120,-2088,-296,-39,21,-5
1275,144,-2080,-288,-42,20,-6
1280,128,-2104,-312,-40,19,-7
1285,128,-2088,-320,-41,18,-8
1290,104,-2096,-328,-41,18,-7
1295,136,-2096,-304,-40,17,-5
1300,112,-2088,-328,-40,15,-6
1305,112,-2080,-296,-41,14,-5
1310,120,-2080,-344,-42,13,-5
1315,120,-2112,-336,-43,13,-5
1320,144,-2144,-320,-41,11,-5
1325,96,-2088,-280,-40,10,-4
1330,112,-2104,-320,-39,8,-4
1335,112,-2104,-296,-38,9,-4
1340,128,-2096,-296,-36,6,-5
1345,120,-2096,-264,-35,8,-4
1350,128,-2064,-288,-35,7,-5
1355,152,-2096,-336,-35,5,-3
1360,120,-2104,-312,-35,5,-4
1365,128,-2048,-336,-37,6,-4
1370,112,-2080,-264,-36,4,-3
1375,128,-2088,-272,-38,4,-3
1380,104,-2096,-304,-38,4,-2
1385,128,-2112,-296,-38,4,-4
1390,112,-2096,-312,-38,4,-3
1395,120,-2080,-312,-36,4,-4
1400,96,-2064,-288,-37,4,-2
1405,120,-2080,-272,-37,4,-2
1410,112,-2088,-328,-38,4,-2
1415,136,-2088,-304,-37,3,-2
1420,176,-2096,-288,-37,4,-3
1425,120,-2080,-304,-36,3,-3
1430,112,-2088,-280,-36,3,-2
1435,136,-2096,-304,-37,4,-2
1440,120,-2096,-296,-37,4,-3
1445,120,-2088,-312,-38,3,-4
1450,128,-2080,-296,-40,3,-4
1455,136,-2096,-272,-43,2,-4
1460,120,-2080,-304,-43,2,-4
1465,128,-2080,-288,-44,2,-3
1470,128,-2096,-320,-43,2,-3
1475,168,-2088,-256,-43,2,-3
1480,144,-2088,-272,-43,1,-3
1485,112,-2072,-280,-43,2,-3
1490,120,-2088,-296,-44,1,-4
1495,120,-2072,-280,-44,1,-3
1500,120,-2096,-288,-46,0,-3
1505,112,-2080,-288,-46,0,-4
1510,120,-2080,-280,-46,-2,-4
1515,104,-2080,-296,-46,-3,-4
1520,96,-2096,-288,-48,-4,-5
1525,120,-2080,-256,-47,-5,-3
1530,96,-2080,-312,-47,-6,-4
1535,112,-2064,-280,-48,-7,-2
1540,112,-2096,-304,-49,-7,-2
1545,128,-2104,-280,-51,-9,-1
1550,112,-2080,-288,-50,-10,0
1555,112,-2080,-312,-51,-11,-1
1560,120,-2072,-264,-51,-12,-1
1565,112,-2104,-280,-51,-14,0
1570,128,-2112,-312,-50,-13,0
1575,104,-2072,-288,-51,-13,-1
1580,144,-2096,-288,-49,-14,0
1585,120,-2080,-304,-49,-16,-2
1590,112,-2096,-296,-48,-16,0
1595,104,-2088,-288,-48,-15,-2
1600,128,-2080,-288,-48,-17,-1
1605,128,-2072,-296,-47,-16,-1
1610,144,-2104,-312,-45,-15,-1
1615,104,-2080,-272,-45,-15,-3
1620,112,-2072,-304,-45,-14,-2
1625,120,-2072,-344,-46,-16,-2
1630,104,-2096,-272,-46,-16,-2
1635,128,-2120,-296,-46,-15,-3
1640,120,-2080,-320,-47,-15,-3
1645,144,-2096,-280,-47,-15,-1
1650,136,-2096,-288,-46,-15,-2
1655,120,-2096,-296,-47,-15,-1
1660,136,-2088,-304,-47,-14,-2
1665,112,-2080,-264,-48,-13,-2
1670,120,-2096,-296,-49,-13,-2
1675,144,-2080,-296,-49,-14,-3
1680,112,-2096,-320,-49,-12,-2
1685,120,-2104,-320,-49,-11,0
1690,136,-2072,-304,-50,-10,-1
1695,120,-2080,-288,-51,-9,-2
1700,144,-2096,-312,-52,-8,-1
1705,120,-2096,-288,-53,-7,-2
1710,152,-2096,-288,-50,-5,-2
1715,136,-2080,-288,-51,-6,-2
1720,128,-2096,-312,-52,-5,-1
1725,128,-2080,-296,-53,-3,-2
1730,120,-2112,-296,-54,-1,-2
1735,144,-2112,-296,-54,-1,-3
1740,152,-2056,-344,-53,1,-3
1745,128,-2112,-296,-53,0,-3
1750,128,-2056,-304,-55,2,-3
1755,120,-2088,-312,-57,4,-4
1760,128,-2080,-296,-58,4,-3
1765,104,-2080,-312,-57,5,-4
1770,136,-2096,-296,-57,6,-4
1775,144,-2088,-304,-59,6,-4
1780,144,-2120,-296,-58,9,-5
1785,136,-2096,-312,-60,11,-4
1790,128,-2112,-264,-60,11,-5
1795,144,-2088,-352,-60,13,-5
1800,120,-2104,-296,-59,14,-5
1805,136,-2072,-304,-59,13,-6
1810,120,-2072,-280,-60,14,-5
1815,120,-2080,-320,-60,14,-5
1820,144,-2088,-280,-62,14,-3
1825,128,-2088,-360,-64,15,-3
1830,128,-2104,-344,-66,18,-5
1835,152,-2096,-344,-66,18,-6
1840,120,-2096,-312,-66,19,-6
1845,128,-2088,-296,-66,20,-4
1850,120,-2072,-288,-64,22,-5
1855,128,-2096,-344,-64,23,-6
1860,136,-2088,-296,-63,24,-5
1865,128,-2096,-304,-62,24,-6
1870,128,-2104,-312,-61,25,-5
1875,136,-2088,-304,-62,24,-5
1880,128,-2096,-304,-63,24,-5
1885,136,-2112,-336,-65,25,-5
1890,104,-2096,-312,-67,25,-6
1895,128,-2104,-312,-66,26,-6
1900,120,-2080,-296,-66,26,-7
1905,88,-2080,-336,-65,26,-7
1910,152,-2104,-320,-64,26,-7
1915,120,-2096,-304,-63,26,-8
1920,144,-2088,-304,-64,27,-6
1925,128,-2088,-304,-63,27,-6
1930,120,-2080,-304,-64,27,-6
1935,128,-2080,-312,-64,28,-7
1940,128,-2080,-344,-64,28,-6
1945,128,-2088,-304,-65,30,-5
1950,136,-2096,-304,-65,28,-7
1955,152,-2064,-312,-66,28,-7
1960,112,-2088,-280,-66,28,-7
1965,144,-2096,-288,-64,29,-6
1970,128,-2096,-344,-65,28,-6
1975,120,-2096,-320,-62,28,-6
1980,112,-2096,-312,-64,29,-4
1985,144,-2104,-296,-63,28,-6
1990,128,-2080,-320,-62,29,-4
1995,136,-2088,-328,-61,29,-6
2000,104,-2096,-336,-61,29,-4
2005,96,-2088,-328,-61,30,-5
2010,144,-2096,-248,-60,29,-5
2015,112,-2088,-312,-61,30,-7
2020,128,-2088,-320,-59,29,-7
2025,128,-2080,-280,-58,29,-6
2030,112,-2096,-312,-59,29,-7
2035,112,-2112,-320,-58,30,-7
2040,112,-2104,-304,-57,30,-7
2045,136,-2088,-344,-55,30,-7
2050,136,-2112,-312,-54,30,-9
2055,112,-2096,-336,-55,30,-7
2060,152,-2088,-304,-56,31,-7
2065,120,-2096,-264,-55,31,-8
2070,104,-2072,-336,-56,30,-7
2075,120,-2096,-328,-56,29,-8
2080,120,-2080,-312,-57,30,-7
2085,136,-2088,-328,-59,29,-8
2090,120,-2072,-312,-61,28,-7
2095,128,-2104,-336,-61,27,-6
2100,96,-2096,-304,-62,27,-6
2105,112,-2104,-288,-61,27,-6
2110,136,-2096,-312,-62,26,-7
2115,120,-2096,-312,-62,26,-5
2120,184,-2104,-336,-63,25,-6
2125,120,-2080,-360,-64,25,-6
2130,128,-2104,-328,-64,24,-6
2135,128,-2072,-320,-64,24,-5
2140,136,-2080,-360,-63,24,-4
2145,136,-2112,-304,-65,22,-5
2150,112,-2088,-304,-62,22,-5
2155,112,-2080,-312,-61,22,-6
2160,136,-2080,-344,-60,21,-4
2165,128,-2096,-312,-58,22,-5
2170,152,-2152,-328,-58,21,-6
2175,136,-2104,-344,-58,20,-4
2180,128,-2088,-328,-57,20,-4
2185,136,-2104,-360,-58,22,-5
2190,112,-2096,-336,-58,20,-5
2195,104,-2104,-336,-57,21,-5
2200,128,-2112,-328,-56,21,-6
2205,120,-2104,-272,-56,21,-6
2210,128,-2112,-320,-55,21,-7
2215,128,-2104,-328,-56,20,-6
2220,136,-2088,-296,-54,21,-5
2225,152,-2104,-272,-53,21,-4
2230,128,-2096,-320,-53,21,-5
2235,112,-2080,-312,-52,20,-6
2240,136,-2080,-336,-52,21,-5
2245,120,-2096,-320,-51,21,-4
2250,120,-2096,-360,-50,22,-5
2255,128,-2096,-304,-50,20,-4
2260,128,-2104,-328,-49,22,-6
2265,128,-2104,-320,-49,21,-5
2270,128,-2072,-312,-47,22,-4
2275,136,-2112,-328,-49,23,-3
2280,160,-2104,-320,-50,23,-5
2285,112,-2080,-312,-50,23,-5
2290,104,-2072,-328,-49,22,-6
2295,120,-2096,-328,-48,24,-5
2300,112,-2088,-288,-48,25,-5
2305,128,-2104,-320,-47,25,-4
2310,128,-2080,-336,-47,24,-3
2315,128,-2088,-328,-46,24,-4
2320,128,-2120,-312,-45,24,-5
2325,152,-2096,-328,-47,24,-5
2330,136,-2088,-296,-45,25,-5
2335,128,-2080,-296,-45,26,-4
2340,136,-2088,-288,-44,27,-5
2345,136,-2088,-312,-44,26,-4
2350,104,-2072,-296,-45,26,-5
2355,128,-2096,-312,-46,26,-5
2360,136,-2080,-312,-46,28,-5
2365,144,-2120,-312,-45,28,-6
2370,120,-2088,-352,-45,29,-5
2375,128,-2096,-336,-47,30,-6
2380,120,-2112,-320,-47,31,-6
2385,136,-2088,-320,-47,30,-5
2390,136,-2096,-344,-47,33,-6
2395,112,-2096,-336,-48,32,-6
2400,144,-2080,-320,-46,33,-5
2405,136,-2072,-328,-47,33,-5
2410,128,-2104,-336,-47,32,-5
2415,120,-2080,-296,-47,34,-5
2420,112,-2088,-304,-45,35,-5
2425,104,-2088,-320,-44,34,-6
2430,152,-2096,-328,-44,34,-5
2435,96,-2064,-336,-44,34,-5
2440,104,-2096,-376,-43,36,-6
2445,120,-2088,-352,-41,37,-6
2450,104,-2080,-328,-41,37,-7
2455,120,-2104,-336,-40,37,-8
2460,136,-2088,-304,-40,38,-8
2465,128,-2104,-312,-39,39,-9
2470,120,-2096,-336,-40,40,-9
2475,136,-2120,-288,-38,41,-8
2480,112,-2064,-328,-37,41,-7
2485,120,-2104,-344,-35,41,-7
2490,128,-2080,-344,-35,40,-9
2495,96,-2096,-328,-34,41,-8
2500,120,-2096,-320,-35,39,-8
2505,120,-2088,-328,-34,39,-9
2510,128,-2112,-312,-35,39,-7
2515,144,-2080,-328,-35,40,-6
2520,144,-2104,-328,-35,38,-6
2525,112,-2064,-328,-35,39,-7
2530,112,-2096,-344,-38,41,-6
2535,120,-2096,-328,-39,40,-7
2540,104,-2088,-296,-41,40,-8
2545,120,-2112,-376,-41,39,-8
2550,120,-2080,-288,-42,39,-8
2555,104,-2088,-304,-43,39,-7
2560,112,-2080,-304,-44,37,-8
2565,112,-2104,-320,-44,35,-6
2570,128,-2104,-296,-45,33,-7
2575,112,-2080,-336,-48,32,-7
2580,128,-2088,-320,-50,29,-5
2585,136,-2104,-320,-52,27,-5
2590,96,-2088,-336,-54,27,-5
2595,120,-2080,-328,-54,26,-5
2600,136,-2096,-360,-53,25,-7
2605,136,-2096,-328,-52,25,-6
2610,120,-2080,-320,-53,25,-6
2615,128,-2096,-344,-51,25,-5
2620,112,-2104,-312,-49,24,-4
2625,128,-2088,-344,-48,24,-5
2630,120,-2096,-312,-49,23,-5
2635,128,-2112,-320,-49,23,-5
2640,136,-2096,-336,-50,23,-5
2645,128,-2112,-328,-51,23,-4
2650,144,-2112,-296,-51,25,-5
2655,136,-2112,-344,-48,25,-5
2660,136,-2112,-328,-47,25,-6
2665,120,-2088,-328,-48,25,-5
2670,120,-2096,-312,-50,24,-5
2675,112,-2096,-296,-49,25,-3
2680,120,-2112,-288,-50,26,-5
2685,120,-2072,-304,-50,25,-5
2690,112,-2112,-320,-48,27,-10
2695,152,-2048,-344,-51,18,-6
2700,144,-2096,-320,-51,25,-5
2705,128,-2080,-312,-55,25,-4
2710,128,-2136,-304,-54,25,-3
2715,120,-2096,-352,-50,23,-1
2720,120,-2088,-328,-47,23,-2
2725,120,-2096,-336,-47,23,-3
2730,120,-2088,-312,-47,23,-3
2735,120,-2112,-328,-47,24,-2
2740,136,-2104,-344,-48,24,-3
2745,120,-2104,-336,-48,25,-3
2750,120,-2104,-312,-49,25,-4
2755,152,-2120,-344,-49,25,-3
2760,128,-2080,-280,-48,26,-3
2765,112,-2080,-336,-46,27,-3
2770,112,-2096,-320,-44,27,-4
2775,112,-2088,-320,-43,29,-3
2780,128,-2088,-320,-43,30,-2
2785,112,-2080,-288,-42,29,-3
2790,112,-2096,-304,-39,30,-4
2795,128,-2080,-288,-39,32,-4
2800,104,-2112,-320,-39,29,-4
2805,104,-2080,-304,-38,31,-4
2810,112,-2072,-320,-37,31,-3
2815,112,-2096,-360,-37,31,-4
2820,120,-2096,-352,-36,28,-4
2825,120,-2096,-328,-36,28,-5
2830,120,-2104,-328,-34,27,-3
2835,128,-2080,-312,-34,26,-3
2840,96,-2072,-312,-35,27,-4
2845,120,-2088,-320,-33,27,-5
2850,128,-2104,-336,-31,27,-4
2855,120,-2080,-312,-31,26,-4
2860,136,-2096,-344,-31,26,-3
2865,120,-2088,-312,-31,25,-3
2870,152,-2080,-280,-30,25,-3
2875,104,-2064,-328,-32,25,-5
2880,112,-2080,-344,-30,25,-5
2885,104,-2072,-344,-32,24,-4
2890,112,-2080,-352,-30,22,-3
2895,120,-2088,-296,-31,22,-2
2900,120,-2104,-296,-32,20,-4
2905,120,-2096,-304,-31,18,-4
2910,104,-2080,-304,-31,18,-3
2915,136,-2112,-288,-34,18,-4
2920,144,-2088,-288,-34,16,-3
2925,112,-2064,-312,-35,17,-4
2930,112,-2088,-312,-35,16,-4
2935,112,-2088,-304,-34,14,-3
2940,128,-2080,-312,-37,14,-4
2945,120,-2096,-312,-35,12,-3
2950,128,-2072,-336,-36,12,-4
2955,136,-2096,-296,-36,11,-4
2960,128,-2112,-344,-37,10,-4
2965,144,-2096,-368,-36,11,-4
2970,144,-2088,-296,-35,11,-5
2975,168,-2096,-288,-36,12,-4
2980,144,-2088,-328,-34,12,-4
2985,136,-2096,-320,-35,14,-5
2990,136,-2104,-304,-35,14,-6
2995,152,-2104,-320,-34,15,-4
3000,160,-2088,-328,-35,17,-4
3005,144,-2088,-336,-33,18,-4
3010,168,-2112,-320,-31,20,-5
3015,176,-2120,-320,-31,22,-6
3020,160,-2080,-344,-31,23,-7
3025,152,-2104,-328,-32,25,-9
3030,144,-2112,-344,-33,26,-9
3035,152,-2104,-312,-32,27,-9
3040,160,-2080,-320,-32,27,-9
3045,160,-2072,-312,-31,27,-8
3050,152,-2088,-312,-30,26,-8
3055,168,-2120,-328,-29,27,-6
3060,128,-2104,-352,-30,26,-6
3065,152,-2112,-280,-30,26,-6
3070,128,-2112,-344,-30,26,-6
3075,160,-2096,-328,-28,27,-5
3080,176,-2112,-328,-26,29,-5
3085,192,-2144,-352,-26,29,-8
3090,152,-2120,-368,-24,30,-8
3095,136,-2096,-360,-24,31,-9
3100,168,-2120,-336,-21,33,-10
3105,168,-2128,-352,-20,35,-11
3110,136,-2104,-336,-18,36,-10
3115,184,-2128,-336,-16,36,-11
3120,160,-2112,-376,-11,38,-11
3125,160,-2128,-384,-8,39,-10
3130,152,-2104,-344,-7,39,-11
3135,184,-2120,-336,-5,42,-10
3140,152,-2080,-312,-2,42,-11
3145,152,-2088,-320,-2,42,-11
3150,152,-2088,-328,-3,44,-10
3155,168,-2088,-328,-4,46,-9
3160,160,-2080,-328,-3,47,-8
3165,144,-2072,-336,-5,49,-9
3170,152,-2088,-336,-6,51,-8
3175,192,-2128,-328,-5,52,-9
3180,152,-2056,-344,-8,55,-8
3185,152,-2088,-328,-9,56,-8
3190,128,-2080,-384,-12,58,-10
3195,152,-2056,-360,-14,59,-9
3200,160,-2096,-344,-19,62,-10
3205,144,-2072,-328,-21,64,-10
3210,160,-2088,-312,-24,65,-10
3215,144,-2072,-328,-27,65,-10
3220,152,-2056,-320,-31,67,-11
3225,144,-2056,-320,-36,68,-11
3230,160,-2064,-384,-40,69,-12
3235,184,-2064,-304,-45,70,-12
3240,176,-2064,-328,-50,72,-13
3245,128,-2064,-304,-54,73,-12
3250,152,-2064,-344,-58,74,-13
3255,160,-2056,-352,-63,75,-14
3260,160,-2080,-344,-69,76,-15
3265,168,-2056,-320,-75,77,-17
3270,176,-2056,-328,-81,78,-17
3275,168,-2056,-368,-88,79,-16
3280,152,-2064,-304,-95,80,-17
3285,160,-2064,-304,-96,79,-16
3290,184,-2072,-320,-99,78,-17
3295,168,-2104,-352,-103,78,-16
3300,152,-2080,-328,-106,79,-15
3305,176,-2128,-344,-106,77,-15
3310,176,-2088,-304,-109,75,-15
3315,160,-2072,-320,-112,74,-15
3320,152,-2080,-320,-114,74,-15
3325,152,-2072,-296,-114,73,-17
3330,152,-2104,-312,-116,72,-15
3335,176,-2104,-352,-117,71,-15
3340,192,-2088,-344,-118,72,-16
3345,144,-2080,-336,-117,73,-15
3350,144,-2088,-320,-114,71,-13
3355,152,-2152,-344,-112,74,-13
3360,144,-2088,-304,-111,76,-12
3365,160,-2072,-320,-112,78,-12
3370,160,-2088,-320,-112,81,-11
3375,160,-2088,-320,-110,82,-13
3380,176,-2112,-336,-109,84,-13
3385,192,-2096,-344,-108,84,-15
3390,176,-2104,-288,-107,84,-14
3395,152,-2104,-304,-104,85,-15
3400,160,-2080,-360,-103,87,-17
3405,168,-2040,-360,-102,88,-18
3410,168,-2104,-312,-100,90,-20
3415,184,-2104,-320,-99,91,-23
3420,184,-2088,-336,-98,93,-22
3425,184,-2096,-360,-97,95,-24
3430,176,-2112,-312,-95,100,-26
3435,168,-2104,-360,-95,103,-28
3440,176,-2088,-360,-94,105,-31
3445,176,-2112,-336,-93,110,-31
3450,184,-2072,-376,-91,115,-32
3455,192,-2136,-368,-91,120,-32
3460,208,-2104,-368,-89,124,-31
3465,192,-2120,-336,-88,130,-30
3470,192,-2096,-328,-85,134,-29
3475,192,-2104,-344,-84,141,-31
3480,176,-2096,-360,-80,147,-31
3485,208,-2112,-336,-77,153,-31
3490,224,-2128,-384,-76,161,-32
3495,192,-2088,-352,-74,169,-32
3500,216,-2088,-328,-74,176,-33
3505,216,-2088,-336,-75,183,-33
3510,224,-2088,-360,-76,189,-33
3515,296,-2096,-360,-78,195,-34
3520,208,-2056,-352,-79,199,-35
3525,248,-2080,-376,-82,205,-34
3530,232,-2104,-360,-83,209,-33
3535,216,-2104,-328,-83,213,-33
3540,224,-2088,-376,-81,216,-30
3545,232,-2096,-368,-79,218,-29
3550,216,-2080,-352,-78,220,-29
3555,208,-2096,-376,-76,222,-27
3560,200,-2080,-344,-77,223,-25
3565,232,-2112,-360,-73,223,-23
3570,248,-2096,-336,-69,226,-21
3575,216,-2096,-360,-65,227,-17
3580,232,-2080,-336,-61,228,-13
3585,200,-2056,-320,-60,229,-10
3590,200,-2048,-320,-58,225,-4
3595,216,-2080,-328,-58,225,1
3600,192,-2056,-328,-58,221,8
3605,192,-2096,-304,-59,216,15
3610,152,-2080,-328,-59,209,22
3615,176,-2072,-232,-57,200,29
3620,144,-2064,-312,-58,190,35
3625,144,-2080,-320,-58,177,40
3630,120,-2088,-296,-59,167,45
3635,96,-2064,-280,-60,155,50
3640,104,-2096,-280,-60,143,56
3645,80,-2080,-296,-60,132,59
3650,80,-2112,-296,-59,119,62
3655,64,-2104,-296,-60,106,63
3660,56,-2104,-320,-61,95,65
3665,64,-2128,-288,-61,82,66
3670,120,-2120,-296,-58,69,66
3675,96,-2104,-264,-56,57,61
3680,80,-2120,-312,-56,44,59
3685,64,-2096,-280,-59,32,58
3690,64,-2128,-288,-57,18,56
3695,64,-2128,-320,-56,5,53
3700,72,-2128,-288,-54,-8,51
3705,72,-2112,-312,-55,-20,49
3710,88,-2088,-288,-55,-32,47
3715,72,-2120,-280,-51,-46,46
3720,48,-2120,-336,-50,-58,42
3725,88,-2088,-304,-49,-70,42
3730,64,-2096,-368,-47,-83,41
3735,88,-2112,-336,-43,-95,41
3740,72,-2120,-360,-41,-105,40
3745,72,-2080,-328,-40,-117,38
3750,72,-2072,-320,-39,-130,36
3755,88,-2112,-352,-38,-141,36
3760,80,-2104,-368,-37,-153,34
3765,88,-2080,-336,-37,-166,34
3770,80,-2096,-320,-36,-177,34
3775,72,-2080,-336,-35,-190,34
3780,64,-2080,-368,-35,-202,35
3785,128,-2096,-368,-32,-214,37
3790,64,-2064,-392,-30,-226,37
3795,48,-2064,-392,-30,-237,37
3800,64,-2072,-384,-30,-247,38
3805,72,-2080,-368,-31,-258,40
3810,72,-2120,-384,-32,-267,40
3815,64,-2080,-376,-36,-276,38
3820,64,-2080,-408,-33,-285,38
3825,64,-2088,-416,-31,-290,38
3830,88,-2088,-384,-31,-295,37
3835,48,-2080,-448,-28,-304,37
3840,56,-2072,-424,-27,-312,34
3845,72,-2088,-424,-27,-320,33
3850,72,-2072,-400,-28,-327,31
3855,40,-2056,-408,-28,-332,27
3860,48,-2048,-424,-29,-339,24
3865,32,-2032,-432,-29,-344,22
3870,48,-2016,-392,-30,-351,18
3875,40,-2008,-440,-38,-359,16
3880,40,-2056,-408,-42,-367,13
3885,48,-2032,-416,-46,-371,10
3890,48,-1992,-432,-46,-373,5
3895,16,-2048,-384,-51,-371,1
3900,24,-2048,-376,-60,-373,-3
3905,16,-2064,-360,-69,-374,-10
3910,16,-2040,-384,-68,-376,-24
3915,16,-2072,-344,-75,-371,-34
3920,0,-2088,-336,-84,-361,-36
3925,32,-2120,-336,-86,-354,-37
3930,56,-2120,-328,-77,-347,-42
3935,80,-2120,-304,-69,-332,-50
3940,88,-2104,-320,-63,-315,-55
3945,72,-2120,-304,-60,-300,-60
3950,80,-2096,-312,-58,-284,-56
3955,128,-2096,-320,-59,-274,-54
3960,96,-2104,-304,-58,-263,-54
3965,136,-2112,-304,-55,-254,-53
3970,136,-2112,-312,-54,-241,-54
3975,152,-2056,-344,-54,-228,-55
3980,144,-2064,-328,-58,-211,-57
3985,136,-2048,-296,-68,-193,-57
3990,136,-2080,-320,-77,-174,-57
3995,136,-2088,-304,-85,-158,-54
4000,136,-2088,-384,-94,-141,-52
4005,120,-2080,-328,-100,-126,-50
4010,104,-2088,-288,-106,-113,-46
4015,64,-2096,-320,-110,-100,-43
4020,96,-2120,-328,-115,-86,-42
4025,80,-2120,-320,-118,-68,-38
4030,88,-2128,-328,-124,-51,-36
4035,72,-2144,-336,-125,-35,-34
4040,64,-2152,-360,-123,-18,-30
4045,80,-2168,-360,-120,-1,-29
4050,72,-2136,-328,-118,15,-28
4055,96,-2176,-280,-117,30,-24
4060,48,-2120,-312,-117,44,-20
4065,40,-2120,-336,-120,57,-15
4070,64,-2120,-376,-125,69,-11
4075,16,-2112,-336,-130,85,-3
4080,32,-2112,-352,-133,94,2
4085,40,-2112,-328,-132,105,4
4090,8,-2088,-368,-131,120,7
4095,32,-2120,-368,-132,132,11
4100,-8,-2120,-368,-127,142,16
4105,0,-2072,-360,-116,149,16
4110,-40,-2096,-368,-105,156,12
4115,-48,-2064,-360,-97,164,7
4120,-48,-2088,-352,-99,170,3
4125,-56,-2064,-392,-103,174,-1
4130,-88,-2080,-376,-104,177,-4
4135,-96,-2072,-392,-103,178,-7
4140,-136,-2072,-384,-101,180,-10
4145,-112,-2064,-384,-101,179,-14
4150,-136,-2064,-400,-102,177,-19
4155,-144,-2064,-392,-103,175,-25
4160,-112,-2064,-384,-105,171,-29
4165,-128,-2056,-408,-108,166,-35
4170,-160,-2040,-424,-106,158,-43
4175,-160,-2032,-376,-108,151,-50
4180,-152,-2064,-392,-110,143,-58
4185,-176,-2040,-376,-113,133,-63
4190,-160,-2056,-376,-114,123,-69
4195,-144,-2048,-360,-117,112,-77
4200,-168,-2048,-424,-120,100,-82
4205,-136,-2056,-400,-123,90,-89
4210,-144,-2024,-424,-126,81,-94
4215,-144,-2024,-360,-133,70,-100
4220,-144,-2048,-432,-141,58,-105
4225,-160,-2040,-448,-149,47,-108
4230,-144,-2040,-424,-155,36,-113
4235,-128,-2056,-440,-160,26,-118
4240,-136,-2056,-456,-163,14,-120
4245,-112,-2056,-480,-165,4,-123
4250,-120,-2056,-456,-170,-5,-129
4255,-80,-2104,-448,-174,-14,-130
4260,-64,-2080,-448,-173,-23,-132
4265,-56,-2064,-488,-171,-30,-133
4270,-120,-2056,-504,-173,-37,-133
4275,-40,-2112,-472,-176,-47,-135
4280,-8,-2088,-504,-177,-57,-136
4285,-8,-2088,-504,-174,-68,-137
4290,0,-2104,-504,-169,-77,-137
4295,-8,-2104,-512,-166,-86,-138
4300,0,-2104,-488,-162,-95,-138
4305,-16,-2096,-544,-157,-103,-138
4310,0,-2112,-520,-153,-107,-138
4315,8,-2096,-512,-152,-113,-137
4320,8,-2128,-512,-150,-117,-135
4325,16,-2152,-504,-149,-116,-132
4330,40,-2096,-512,-152,-115,-128
4335,56,-2136,-544,-156,-113,-123
4340,64,-2120,-536,-155,-112,-116
4345,96,-2136,-544,-161,-109,-108
4350,72,-2128,-528,-167,-106,-98
4355,104,-2136,-528,-170,-106,-87
4360,128,-2160,-568,-171,-104,-76
4365,88,-2136,-544,-175,-105,-65
4370,168,-2128,-536,-173,-106,-52
4375,144,-2096,-544,-168,-101,-36
4380,112,-2096,-560,-163,-95,-20
4385,152,-2056,-536,-160,-90,-7
4390,200,-2096,-552,-152,-84,5
4395,168,-2008,-576,-148,-78,14
4400,232,-1984,-472,-143,-68,23
4405,192,-1992,-552,-139,-55,25
4410,160,-1976,-464,-136,-40,26
4415,128,-1968,-496,-135,-23,25
4420,184,-1976,-576,-132,-4,22
4425,240,-1976,-600,-128,16,18
4430,216,-1976,-552,-132,40,14
4435,224,-1944,-504,-136,65,10
4440,200,-1976,-536,-141,88,9
4445,264,-1912,-624,-150,111,6
4450,224,-1944,-544,-160,132,6
4455,248,-2016,-536,-171,151,7
4460,224,-2008,-608,-187,168,12
4465,240,-2008,-608,-203,185,16
4470,264,-1984,-584,-218,199,21
4475,248,-2008,-592,-235,209,29
4480,240,-1976,-520,-250,224,39
4485,256,-1872,-672,-264,236,50
4490,264,-1880,-520,-274,246,62
4495,264,-1928,-544,-284,254,72
4500,264,-1920,-584,-295,259,79
4505,232,-1888,-520,-310,263,88
4510,248,-1912,-584,-326,265,95
4515,256,-1912,-544,-341,267,100
4520,248,-1928,-544,-356,273,105
4525,248,-1912,-520,-372,276,104
4530,256,-1960,-504,-386,283,109
4535,248,-1976,-480,-399,285,111
4540,248,-1976,-456,-412,285,110
4545,264,-1992,-512,-421,283,112
4550,264,-2032,-432,-430,279,113
4555,240,-2048,-440,-438,272,112
4560,272,-2040,-480,-446,265,111
4565,232,-2088,-488,-447,257,112
4570,232,-2088,-432,-448,243,114
4575,256,-2152,-496,-446,228,116
4580,208,-2144,-440,-443,209,118
4585,208,-2136,-480,-441,190,120
4590,232,-2152,-472,-435,168,120
4595,224,-2128,-488,-434,143,120
4600,216,-2136,-504,-436,116,117
4605,176,-2120,-520,-438,89,115
4610,152,-2152,-576,-439,60,110
4615,136,-2136,-544,-439,30,107
4620,144,-2136,-544,-442,-6,102
4625,120,-2144,-560,-448,-37,97
4630,104,-2184,-616,-455,-60,92
4635,96,-2224,-624,-463,-88,82
4640,120,-2216,-584,-472,-115,65
4645,104,-2272,-592,-470,-138,55
4650,128,-2304,-536,-459,-152,39
4655,128,-2288,-520,-440,-163,20
4660,152,-2312,-512,-411,-169,-3
4665,176,-2304,-504,-376,-170,-25
4670,184,-2240,-504,-339,-171,-47
4675,192,-2184,-504,-302,-172,-71
4680,240,-2088,-560,-273,-170,-90
4685,248,-2040,-584,-253,-162,-101
4690,264,-2016,-536,-238,-152,-110
4695,296,-1896,-600,-234,-144,-116
4700,328,-1880,-592,-240,-139,-117
4705,376,-1816,-616,-253,-134,-117
4710,416,-1784,-624,-275,-131,-112
4715,448,-1800,-632,-304,-127,-109
4720,448,-1784,-632,-341,-126,-106
4725,480,-1800,-632,-381,-131,-100
4730,488,-1800,-616,-414,-140,-93
4735,512,-1856,-656,-446,-150,-85
4740,520,-1896,-632,-474,-159,-76
4745,528,-1928,-608,-497,-169,-66
4750,520,-1952,-672,-516,-178,-60
4755,504,-2000,-664,-528,-188,-53
4760,512,-2000,-656,-532,-196,-45
4765,480,-2032,-632,-534,-200,-41
4770,480,-2024,-688,-532,-200,-41
4775,456,-2040,-664,-533,-203,-41
4780,424,-2056,-656,-530,-203,-45
4785,440,-2048,-624,-521,-205,-49
4790,432,-2040,-656,-513,-205,-51
4795,384,-2032,-616,-498,-201,-53
4800,344,-2040,-680,-484,-199,-58
4805,360,-2032,-672,-478,-197,-64
4810,360,-2040,-688,-476,-192,-68
4815,360,-1992,-720,-476,-187,-69
4820,360,-2000,-712,-479,-186,-70
4825,360,-1992,-736,-484,-184,-70
4830,352,-1976,-704,-487,-178,-72
4835,336,-1960,-720,-489,-174,-73
4840,352,-1952,-720,-488,-170,-76
4845,376,-1936,-704,-483,-166,-74
4850,376,-1960,-736,-476,-160,-73
4855,368,-1928,-736,-468,-152,-73
4860,376,-1968,-752,-461,-146,-74
4865,384,-1968,-816,-462,-139,-71
4870,392,-1928,-800,-468,-122,-66
4875,416,-1920,-808,-478,-104,-62
4880,440,-1936,-864,-489,-80,-57
4885,440,-1912,-904,-502,-54,-55
4890,456,-1928,-896,-513,-30,-54
4895,480,-1944,-928,-526,-5,-54
4900,504,-1976,-920,-539,20,-57
4905,496,-1952,-912,-546,48,-60
4910,456,-1952,-936,-553,75,-68
4915,496,-1992,-904,-557,102,-75
4920,480,-2016,-920,-553,127,-82
4925,424,-1984,-872,-545,149,-92
4930,408,-2000,-880,-530,166,-102
4935,368,-1968,-888,-511,177,-110
4940,312,-1960,-880,-491,186,-115
4945,280,-1984,-872,-473,195,-118
4950,256,-1960,-856,-457,199,-118
4955,232,-1936,-880,-444,203,-116
4960,208,-1936,-888,-431,207,-112
4965,184,-1928,-888,-424,208,-106
4970,152,-1912,-928,-416,203,-98
4975,192,-1920,-936,-415,199,-84
4980,184,-1872,-944,-418,195,-72
4985,136,-1848,-920,-420,187,-67
4990,176,-1840,-968,-422,175,-50
4995,144,-1832,-976,-425,172,-39
5000,152,-1856,-944,-423,167,-27
5005,136,-1848,-984,-423,160,-17
5010,112,-1824,-968,-426,154,-13
5015,136,-1824,-928,-434,147,-11
5020,64,-1808,-944,-442,139,-8
5025,72,-1856,-960,-451,131,-4
5030,72,-1832,-960,-461,121,0
5035,56,-1848,-952,-477,111,7
5040,72,-1880,-944,-489,102,10
5045,80,-1864,-952,-495,92,12
5050,72,-1936,-1000,-503,84,14
5055,72,-1896,-1016,-511,79,17
5060,88,-1952,-992,-518,74,23
5065,48,-1944,-1000,-526,68,28
5070,48,-1928,-1024,-533,64,36
5075,120,-2008,-1032,-534,58,47
5080,168,-1928,-1104,-536,56,53
5085,136,-2008,-1072,-536,51,51
5090,160,-2032,-1064,-528,47,51
5095,176,-2024,-1128,-509,46,51
5100,200,-2032,-1080,-485,46,51
5105,160,-2024,-1104,-461,42,51
5110,136,-2016,-1096,-434,40,51
5115,40,-1968,-1064,-393,28,64
5120,256,-2024,-1072,-344,-3,84
5125,272,-1992,-1112,-321,-6,78
5130,232,-2000,-1088,-334,12,75
5135,280,-1992,-1184,-347,22,68
5140,296,-2048,-1128,-369,39,34
5145,232,-2008,-1128,-386,62,4
5150,168,-2016,-1096,-395,85,4
5155,216,-1992,-1048,-395,90,-2
5160,208,-1976,-1096,-386,93,-1
5165,160,-1968,-1088,-369,99,6
5170,176,-1936,-1112,-350,100,5
5175,168,-1936,-1144,-343,97,5
5180,192,-1928,-1104,-343,94,10
5185,192,-1872,-1128,-349,90,12
5190,104,-1872,-1128,-357,84,17
5195,144,-1864,-1096,-364,74,25
5200,112,-1824,-1112,-363,64,21
5205,104,-1816,-1088,-363,56,19
5210,88,-1840,-1144,-371,49,21
5215,40,-1824,-1104,-389,45,29
5220,32,-1792,-1104,-407,33,37
5225,56,-1784,-1144,-418,23,33
5230,64,-1744,-1176,-428,15,27
5235,120,-1808,-1200,-442,14,29
5240,120,-1792,-1216,-475,19,16
5245,120,-1752,-1168,-503,18,7
5250,144,-1768,-1152,-526,10,3
5255,176,-1768,-1200,-532,7,7
5260,160,-1760,-1232,-533,7,4
5265,240,-1672,-1144,-536,3,3
5270,192,-1816,-1272,-524,-5,8
5275,200,-1864,-1304,-547,-3,-2
5280,216,-1816,-1328,-571,-3,-21
5285,192,-1784,-1344,-582,-1,-33
5290,208,-1792,-1352,-576,7,-37
5295,160,-1776,-1376,-568,17,-35
5300,200,-1840,-1328,-555,27,-30
5305,152,-1768,-1336,-541,44,-21
5310,112,-1760,-1376,-503,53,-2
5315,120,-1816,-1320,-449,63,30
5320,112,-1904,-1352,-467,90,37
5325,96,-1800,-1264,-501,116,19
5330,136,-1800,-1216,-496,122,7
5335,144,-1760,-1104,-475,127,-8
5340,136,-1720,-1080,-449,125,-32
5345,96,-1728,-1112,-396,115,-60
5350,72,-1880,-1160,-332,101,-80
5355,64,-1824,-1008,-378,116,-124
5360,40,-1712,-1056,-390,114,-169
5365,16,-1680,-1032,-384,113,-199
5370,-8,-1640,-1048,-382,110,-219
5375,-40,-1592,-1048,-392,105,-228
5380,0,-1576,-1040,-411,104,-230
5385,8,-1560,-1064,-449,104,-227
5390,24,-1584,-1056,-496,107,-214
5395,24,-1576,-1072,-552,107,-196
5400,88,-1568,-1104,-609,110,-180
5405,104,-1600,-1072,-669,111,-162
5410,72,-1632,-1096,-729,109,-140
5415,176,-1640,-1112,-782,105,-118
5420,224,-1688,-1128,-834,114,-103
5425,224,-1792,-1152,-883,121,-90
5430,256,-1848,-1208,-929,130,-73
5435,296,-1936,-1256,-954,156,-50
5440,264,-1992,-1264,-966,194,-39
5445,272,-2048,-1248,-966,221,-33
5450,280,-2032,-1280,-949,253,-23
5455,248,-2024,-1304,-906,279,-20
5460,344,-2056,-1296,-834,298,-10
5465,248,-1952,-1296,-761,322,-14
5470,320,-1936,-1352,-688,311,-20
5475,368,-1880,-1336,-604,301,-17
5480,352,-1832,-1328,-516,304,-6
5485,320,-1736,-1320,-434,304,-20
5490,328,-1696,-1344,-361,292,-27
5495,304,-1640,-1344,-308,279,-26
5500,288,-1584,-1352,-281,265,-17
5505,232,-1544,-1360,-266,254,-20
5510,240,-1504,-1400,-256,229,-11
5515,216,-1504,-1384,-261,223,-7
5520,216,-1520,-1368,-276,216,-2
5525,152,-1544,-1344,-301,212,10
5530,160,-1504,-1400,-330,194,-6
5535,208,-1536,-1424,-344,169,4
5540,160,-1592,-1424,-345,170,17
5545,136,-1560,-1416,-345,165,28
5550,136,-1648,-1424,-331,147,34
5555,168,-1648,-1424,-303,136,46
5560,176,-1648,-1440,-267,128,54
5565,160,-1664,-1432,-222,133,64
5570,112,-1672,-1440,-167,135,68
5575,160,-1688,-1496,-109,135,75
5580,176,-1656,-1512,-71,133,78
5585,192,-1656,-1480,-42,137,77
5590,168,-1704,-1504,-3,135,69
5595,200,-1624,-1512,36,125,52
5600,240,-1672,-1528,79,121,48
5605,240,-1624,-1496,121,128,38
5610,216,-1640,-1480,161,138,34
5615,224,-1616,-1448,204,133,23
5620,216,-1600,-1496,247,128,12
5625,176,-1672,-1400,286,127,2
5630,208,-1616,-1472,316,123,-16
5635,280,-1576,-1472,339,107,-36
5640,248,-1568,-1496,369,103,-35
5645,256,-1544,-1488,403,107,-34
5650,280,-1592,-1480,424,119,-32
5655,232,-1568,-1488,440,135,-35
5660,240,-1544,-1472,465,130,-39
5665,288,-1576,-1472,498,126,-49
5670,280,-1544,-1480,523,123,-60
5675,272,-1544,-1480,545,122,-68
5680,304,-1536,-1448,570,123,-73
5685,296,-1536,-1448,595,128,-74
5690,296,-1504,-1416,614,140,-78
5695,272,-1504,-1432,628,148,-76
5700,248,-1504,-1408,641,151,-79
5705,272,-1488,-1400,655,155,-82
5710,256,-1448,-1376,664,156,-93
5715,240,-1480,-1320,677,149,-87
5720,272,-1416,-1384,701,150,-83
5725,232,-1384,-1304,720,162,-77
5730,224,-1400,-1296,738,168,-73
5735,232,-1384,-1248,757,165,-69
5740,264,-1344,-1280,769,170,-67
5745,248,-1360,-1240,770,177,-66
5750,224,-1312,-1272,778,175,-72
5755,240,-1288,-1232,782,167,-76
5760,232,-1280,-1216,781,169,-82
5765,176,-1280,-1152,778,172,-83
5770,104,-1272,-1136,778,169,-85
5775,232,-1280,-1208,786,141,-87
5780,144,-1256,-1080,783,153,-91
5785,216,-1216,-1256,789,145,-89
5790,312,-1296,-1248,780,155,-85
5795,264,-1288,-1192,771,153,-82
5800,280,-1232,-1192,766,141,-83
5805,240,-1264,-1096,761,148,-84
5810,248,-1232,-1088,767,132,-85
5815,320,-1256,-1144,777,106,-86
5820,280,-1248,-1032,775,108,-92
5825,232,-1272,-1072,779,118,-97
5830,248,-1304,-992,782,123,-104
5835,248,-1320,-992,789,131,-108
5840,176,-1344,-968,800,157,-110
5845,128,-1296,-896,831,138,-117
5850,192,-1312,-912,867,111,-122
5855,168,-1280,-904,899,98,-123
5860,176,-1344,-872,908,110,-125
5865,200,-1304,-896,911,127,-129
5870,128,-1344,-792,902,141,-132
5875,192,-1344,-800,898,131,-127
5880,160,-1400,-768,883,129,-119
5885,88,-1384,-672,890,114,-110
5890,152,-1408,-760,900,81,-97
5895,120,-1408,-736,892,66,-90
5900,152,-1520,-688,885,29,-74
5905,232,-1360,-752,870,-7,-69
5910,200,-1360,-792,829,-32,-72
5915,304,-1320,-768,776,-50,-67
5920,272,-1392,-736,718,-71,-70
5925,88,-1504,-448,658,-77,-56
5930,336,-1528,-776,657,-178,-21
5935,536,-1528,-888,612,-217,3
5940,392,-1704,-744,516,-120,19
5945,464,-1704,-888,460,-123,43
5950,560,-1808,-880,410,-98,78
5955,552,-1960,-1136,391,-117,134
5960,440,-2040,-872,375,-158,147
5965,776,-2192,-1240,425,-214,156
5970,584,-2176,-1200,490,-196,139
5975,688,-2360,-1240,617,-182,189
5980,784,-2432,-1272,764,-172,224
5985,688,-2640,-1280,921,-113,255
5990,808,-2624,-1344,1098,-97,253
5995,848,-2768,-1320,1286,-29,293
6000,984,-2704,-1376,1493,48,327
6005,1008,-3112,-984,1729,93,354
6010,632,-3032,-1320,1970,165,388
6015,832,-3112,-1128,2192,227,421
6020,616,-3072,-1024,2373,300,448
6025,472,-3096,-928,2507,325,471
6030,384,-3152,-872,2596,333,491
6035,272,-3168,-864,2635,346,510
6040,200,-3152,-952,2624,361,534
6045,144,-3088,-1072,2557,364,553
6050,96,-3152,-1304,2478,374,553
6055,24,-3232,-1496,2391,360,549
6060,120,-3464,-1688,2267,288,544
6065,72,-3600,-1808,2170,213,534
6070,88,-3680,-1912,2140,135,540
6075,200,-3824,-1968,2150,43,534
6080,248,-3904,-1912,2222,-9,550
6085,304,-3992,-1792,2315,-51,564
6090,376,-4112,-1656,2425,-87,594
6095,376,-4360,-1512,2570,-101,630
6100,352,-4648,-1480,2760,-114,671
6105,320,-4888,-1368,2987,-118,704
6110,304,-5224,-1296,3250,-127,746
6115,264,-5424,-1064,3571,-139,782
6120,328,-5616,-864,3908,-143,811
6125,264,-5704,-648,4183,-149,800
6130,256,-5696,-432,4361,-152,747
6135,200,-5720,-128,4448,-141,652
6140,160,-5592,104,4495,-124,537
6145,32,-5200,336,4539,-102,412
6150,-24,-4672,552,4634,-83,326
6155,72,-3992,680,4772,-46,282
6160,-16,-3296,832,4867,6,264
6165,0,-2584,904,4892,13,280
6170,136,-2080,1160,4865,-27,343
6175,120,-1648,1208,4820,-54,401
6180,120,-1352,1120,4756,-83,470
6185,296,-1072,920,4683,-117,546
6190,384,-888,632,4602,-120,583
6195,344,-696,432,4503,-69,595
6200,464,-512,200,4378,7,590
6205,408,-392,72,4199,68,582
6210,512,-432,32,4004,112,553
6215,320,-520,-16,3804,152,507
6220,280,-760,64,3621,189,485
6225,200,-984,-88,3522,219,460
6230,32,-1120,-144,3519,241,455
6235,64,-1176,-280,3603,224,445
6240,56,-1128,-416,3693,217,396
6245,104,-1080,-416,3772,234,340
6250,24,-968,-344,3845,265,275
6255,24,-856,-208,3900,268,219
6260,8,-776,-56,3927,250,160
6265,8,-680,-80,3927,246,132
6270,-40,-632,80,3890,258,140
6275,-112,-616,240,3846,269,150
6280,-208,-688,336,3810,278,173
6285,-304,-712,528,3790,263,187
6290,-328,-760,720,3753,200,222
6295,-136,-776,944,3729,123,290
6300,-272,-880,960,3740,75,345
6305,-360,-984,1024,3743,53,407
6310,-160,-1056,1192,3756,-6,446
6315,-232,-1064,1368,3782,-35,455
6320,-376,-1032,1512,3805,-26,482
6325,-376,-920,1592,3828,-36,508
6330,-408,-816,1584,3824,-62,518
6335,-488,-632,1704,3792,-84,515
6340,-560,-440,1792,3758,-100,496
6345,-512,-256,1864,3716,-149,485
6350,-392,-96,1944,3664,-183,472
6355,-368,24,1952,3594,-174,458
6360,-264,128,1944,3527,-173,440
6365,-240,240,1912,3492,-198,410
6370,-136,296,1976,3492,-218,377
6375,-88,344,1992,3505,-238,334
6380,-88,424,2056,3502,-235,296
6385,-80,472,2064,3467,-217,268
6390,-96,432,2032,3410,-202,260
6395,-136,432,2168,3338,-188,262
6400,-160,456,2208,3266,-188,267
6405,-168,496,2312,3200,-191,272
6410,-200,552,2496,3149,-192,276
6415,-64,688,2568,3098,-249,283
6420,-64,856,2560,3020,-319,286
6425,-8,1112,2528,2923,-390,292
6430,-104,1416,2480,2808,-460,289
6435,32,1728,2456,2669,-486,269
6440,24,2024,2496,2480,-475,238
6445,48,2296,2464,2249,-431,205
6450,112,2496,2504,1991,-397,171
6455,72,2664,2480,1690,-361,142
6460,56,2696,2352,1348,-311,132
6465,72,2648,2032,989,-267,120
6470,296,2408,1752,642,-227,119
6475,488,2064,1536,348,-179,135
6480,512,1784,1480,135,-67,152
6485,432,1504,1440,-24,51,165
6490,504,1328,1312,-146,129,185
6495,392,1128,1160,-225,205,193
6500,328,944,1072,-268,267,206
6505,216,760,1016,-282,294,207
6510,88,584,1040,-310,291,178
6515,8,496,992,-331,261,109
6520,-72,480,976,-334,204,49
6525,8,480,872,-319,121,-9
6530,64,456,824,-303,41,-71
6535,72,576,824,-309,-1,-115
6540,128,600,808,-328,8,-138
6545,96,632,808,-377,16,-155
6550,80,728,776,-457,19,-168
6555,8,752,792,-553,24,-163
6560,16,784,744,-643,2,-142
6565,56,776,712,-743,-41,-117
6570,48,792,688,-840,-87,-108
6575,32,736,648,-926,-113,-114
6580,-32,736,584,-984,-137,-124
6585,-80,672,576,-1014,-165,-123
6590,-40,616,616,-1030,-193,-126
6595,-64,624,704,-1020,-225,-138
6600,-56,600,760,-996,-254,-140
6605,-32,600,808,-973,-267,-135
6610,-8,584,848,-935,-276,-121
6615,-32,520,952,-890,-264,-110
6620,0,440,1040,-834,-254,-90
6625,80,304,1240,-774,-255,-78
6630,136,272,1480,-694,-262,-65
6635,168,200,1664,-600,-226,-48
6640,184,104,1912,-487,-174,-26
6645,160,64,2248,-372,-158,-15
6650,168,56,2432,-212,-146,-12
6655,104,168,2632,-43,-134,-4
6660,144,328,2752,132,-142,7
6665,168,440,2880,307,-156,14
6670,152,584,2936,464,-167,2
6675,152,792,2968,564,-194,-32
6680,112,1016,2832,642,-186,-71
6685,112,1128,2832,671,-161,-78
6690,120,1232,2712,659,-150,-86
6695,96,1288,2640,616,-132,-94
6700,136,1288,2568,547,-138,-93
6705,144,1280,2472,465,-146,-85
6710,144,1272,2448,369,-132,-94
6715,88,1160,2320,265,-102,-104
6720,136,1064,2200,147,-89,-99
6725,104,984,2120,13,-83,-95
6730,104,856,2000,-120,-76,-86
6735,144,752,1840,-250,-73,-84
6740,144,632,1792,-376,-61,-96
6745,104,528,1656,-475,-53,-102
6750,120,448,1576,-552,-62,-96
6755,112,400,1432,-607,-78,-97
6760,128,304,1368,-639,-90,-103
6765,128,248,1272,-662,-98,-112
6770,104,216,1232,-666,-99,-113
6775,144,176,1192,-647,-100,-103
6780,152,128,1184,-616,-92,-94
6785,136,72,1216,-578,-83,-89
6790,120,72,1216,-529,-68,-79
6795,184,16,1240,-473,-50,-64
6800,136,16,1232,-413,-33,-48
6805,208,-16,1368,-358,-13,-25
6810,280,-40,1384,-302,8,1
6815,264,-56,1448,-257,33,-4
6820,184,-32,1480,-223,58,-10
6825,192,-56,1536,-193,82,-20
6830,200,-64,1640,-180,108,-35
6835,192,-72,1704,-154,120,-44
6840,128,-80,1784,-133,121,-52
6845,120,-88,1768,-119,116,-57
6850,112,-128,1808,-133,122,-65
6855,32,-64,1824,-163,142,-90
6860,-16,-72,1888,-183,157,-115
6865,-104,-80,1944,-182,157,-107
6870,-80,-80,1944,-189,132,-75
6875,-16,-104,1920,-216,108,-60
6880,-32,-128,1880,-259,103,-62
6885,24,-168,1856,-309,96,-60
6890,80,-232,1792,-369,102,-60
6895,72,-296,1776,-430,117,-61
6900,112,-368,1720,-485,132,-66
6905,104,-464,1728,-523,142,-74
6910,80,-528,1736,-526,145,-75
6915,120,-616,1720,-502,136,-74
6920,88,-616,1736,-453,119,-77
6925,112,-608,1712,-386,99,-76
6930,112,-576,1696,-309,83,-78
6935,104,-544,1664,-226,68,-78
6940,120,-488,1648,-157,57,-80
6945,144,-472,1640,-102,48,-78
6950,136,-408,1592,-68,41,-80
6955,128,-392,1584,-47,37,-79
6960,144,-392,1576,-31,35,-76
6965,152,-392,1576,-10,32,-72
6970,152,-376,1552,12,29,-73
6975,136,-368,1528,33,28,-71
6980,144,-312,1536,54,25,-69
6985,88,-312,1568,77,23,-65
6990,176,-288,1568,97,22,-55
6995,128,-296,1496,111,20,-52
7000,64,-240,1552,119,26,-59
7005,56,-208,1528,121,15,-56
7010,64,-208,1536,128,1,-50
7015,8,-184,1544,133,-13,-42
7020,56,-144,1544,137,-37,-32
7025,24,-112,1552,139,-51,-39
7030,-16,-104,1576,134,-44,-37
7035,16,-104,1544,136,-56,-27
7040,24,-72,1592,137,-78,-24
7045,16,-40,1624,133,-84,-23
7050,16,-40,1640,139,-81,-18
7055,24,-56,1632,148,-78,-11
7060,32,-40,1656,156,-72,-8
7065,40,-40,1648,163,-63,-6
7070,40,-88,1712,174,-56,-3
7075,56,-32,1680,191,-51,2
7080,80,-16,1664,206,-40,5
7085,96,-24,1640,217,-18,5
7090,64,24,1704,227,2,1
7095,32,0,1760,248,14,7
7100,56,16,1712,277,5,22
7105,64,88,1672,291,-9,30
7110,80,56,1688,298,-11,28
7115,40,136,1744,298,-1,24
7120,80,128,1752,301,-3,33
7125,72,176,1720,302,-9,38
7130,48,208,1760,298,-15,38
7135,120,240,1728,292,-20,39
7140,96,264,1672,278,-15,33
7145,80,232,1728,261,-5,27
7150,64,312,1696,252,-9,25
7155,88,304,1752,241,-11,24
7160,88,344,1704,228,-13,19
7165,64,368,1688,212,-10,14
7170,80,352,1728,197,-9,11
7175,80,400,1776,186,-15,11
7180,64,392,1720,173,-22,11
7185,72,392,1720,158,-19,14
7190,88,392,1680,139,-19,10
7195,80,368,1688,117,-16,5
7200,96,376,1704,91,-4,-2
7205,72,384,1712,74,0,-4
7210,56,368,1688,60,-3,0
7215,80,384,1688,49,-12,2
7220,112,384,1704,33,-16,2
7225,96,376,1704,19,-10,-4
7230,96,352,1696,5,-9,-3
7235,144,328,1672,-1,-5,0
7240,112,352,1720,-10,12,-7
7245,64,320,1712,-11,11,-5
7250,144,312,1680,-20,-2,-3
7255,152,352,1640,-34,-5,-5
7260,120,288,1720,-52,3,-7
7265,120,272,1720,-62,6,-8
7270,120,304,1712,-65,3,-7
7275,112,304,1712,-72,1,-5
7280,120,296,1752,-82,2,-3
7285,104,256,1720,-91,3,4
7290,112,232,1728,-95,12,-2
7295,120,224,1720,-99,19,-6
7300,112,224,1656,-96,14,-11
7305,120,216,1704,-95,17,-9
7310,104,176,1720,-98,23,-7
7315,104,184,1704,-100,26,-7
7320,128,184,1688,-101,25,-9
7325,112,168,1728,-98,20,-13
7330,128,176,1704,-92,20,-16
7335,128,184,1672,-88,25,-18
7340,120,168,1704,-90,30,-22
7345,112,168,1704,-85,31,-20
7350,88,176,1656,-82,36,-19
7355,120,120,1704,-86,36,-23
7360,120,128,1696,-88,30,-24
7365,128,136,1712,-94,27,-25
7370,104,168,1720,-95,28,-29
7375,96,128,1680,-92,30,-25
7380,104,152,1672,-91,27,-23
7385,72,152,1672,-88,24,-24
7390,72,152,1656,-85,26,-20
7395,96,120,1648,-87,23,-15
7400,80,104,1640,-93,19,-15
7405,48,96,1656,-102,18,-17
7410,72,80,1656,-110,17,-23
7415,64,88,1664,-110,9,-22
7420,96,48,1624,-105,3,-20
7425,64,80,1656,-103,-3,-22
7430,72,56,1664,-91,-5,-22
7435,88,48,1672,-81,-7,-22
7440,56,40,1632,-72,-12,-21
7445,96,32,1680,-63,-16,-21
7450,72,56,1648,-50,-19,-15
7455,88,40,1672,-41,-19,-10
7460,80,56,1664,-37,-19,-11
7465,64,88,1616,-34,-19,-10
7470,64,48,1632,-28,-20,-8
7475,64,64,1640,-23,-22,-5
7480,96,64,1656,-15,-23,-5
7485,128,48,1656,-13,-22,-10
7490,112,56,1656,-6,-20,-12
7495,72,80,1704,0,-12,-13
7500,88,80,1704,13,-16,-7
7505,72,88,1656,19,-28,-3
7510,112,112,1648,19,-28,-5
7515,96,112,1656,20,-24,-6
7520,80,104,1712,22,-23,-4
7525,64,168,1632,24,-25,-4
7530,96,112,1648,26,-27,-2
7535,120,136,1672,28,-26,-1
7540,104,128,1672,28,-24,0
7545,120,136,1680,28,-25,2
7550,128,136,1640,32,-29,3
7555,184,136,1624,33,-27,2
7560,128,144,1648,25,-12,-4
7565,112,168,1704,19,0,-10
7570,80,160,1720,24,-8,-10
7575,136,160,1688,39,-28,-2
7580,120,168,1680,42,-35,5
7585,112,224,1704,34,-35,8
7590,136,208,1680,31,-36,9
7595,160,208,1664,23,-36,10
7600,168,192,1656,11,-30,9
7605,128,232,1680,-6,-18,6
7610,104,192,1720,-15,0,2
7615,160,192,1720,-8,-9,5
7620,160,192,1664,-4,-11,4
7625,160,192,1704,-3,-13,5
7630,152,184,1696,-7,-12,3
7635,112,208,1704,-9,-8,1
7640,160,192,1688,-10,-4,0
7645,144,208,1688,-12,1,-2
7650,152,192,1680,-13,3,-3
7655,136,184,1672,-13,3,-3
7660,144,192,1696,-15,4,-5
7665,168,216,1648,-14,5,-7
7670,176,208,1688,-15,8,-9
7675,160,200,1688,-14,11,-10
7680,144,184,1672,-14,11,-10
7685,144,200,1672,-10,12,-10
7690,136,200,1712,-5,12,-9
7695,144,200,1680,-5,10,-11
7700,120,216,1688,-4,11,-11
7705,152,208,1672,-2,14,-13
7710,160,208,1648,-7,21,-14
7715,128,200,1680,-14,34,-18
7720,136,192,1720,-12,36,-16
7725,168,208,1688,-15,37,-18
7730,80,176,1712,-17,44,-21
7735,136,176,1696,-20,37,-20
7740,136,176,1672,-33,34,-34
7745,96,136,1744,-41,36,-42
7750,128,152,1624,-54,47,-46
7755,104,200,1720,-60,51,-57
7760,136,232,1672,-30,45,-48
7765,136,200,1672,-11,41,-34
7770,120,224,1712,-18,41,-31
7775,120,208,1696,-25,37,-25
7780,144,208,1648,-30,30,-21
7785,144,200,1688,-42,36,-23
7790,120,152,1680,-53,42,-24
7795,112,176,1712,-64,42,-26
7800,128,152,1784,-67,43,-28
7805,88,152,1696,-61,40,-24
7810,120,144,1696,-57,37,-21
7815,96,168,1656,-55,39,-20
7820,80,160,1680,-52,38,-19
7825,96,168,1656,-47,32,-18
7830,88,152,1688,-40,35,-20
7835,136,136,1632,-38,32,-20
7840,88,168,1688,-45,36,-23
7845,80,168,1672,-42,33,-22
7850,56,200,1680,-38,31,-21
7855,96,168,1648,-32,23,-15
7860,96,144,1656,-34,24,-17
7865,72,176,1664,-33,24,-15
7870,128,152,1648,-43,28,-19
7875,72,160,1728,-62,45,-31
7880,80,160,1752,-51,42,-31
7885,104,160,1664,-29,22,-17
7890,80,168,1704,-18,14,-11
7895,104,176,1664,-17,11,-7
7900,96,168,1688,-21,11,-6
7905,96,160,1704,-22,15,-10
7910,64,144,1632,-20,15,-11
7915,128,176,1672,-22,14,-11
7920,104,184,1672,-24,19,-11
7925,56,184,1704,-24,21,-7
7930,96,192,1696,-19,12,-2
7935,120,168,1712,-18,5,-1
7940,120,176,1640,-17,5,-3
7945,128,160,1648,-24,13,-6
7950,112,168,1672,-33,22,-9
7955,72,200,1648,-32,25,-10
7960,80,176,1720,-37,30,-15
7965,96,208,1664,-21,20,-9
7970,128,184,1640,-11,6,-3
7975,112,200,1696,-15,13,-6
7980,96,184,1688,-15,21,-9
7985,112,192,1696,-14,11,-10
7990,128,192,1664,-9,3,-8
7995,104,200,1688,-11,5,-7
8000,112,200,1656,-10,5,-4
8005,88,176,1704,-13,5,-3
8010,80,192,1696,-14,1,-5
8015,112,192,1696,-13,-1,-8
8020,112,192,1672,-10,-3,-9
8025,112,208,1664,-15,0,-13
8030,120,192,1688,-25,10,-17
8035,104,176,1696,-24,10,-17
8040,112,216,1696,-16,1,-15
8045,144,240,1592,-15,-2,-15
8050,104,216,1720,-29,12,-18
8055,80,208,1720,-25,7,-14
8060,120,184,1664,-18,-5,-6
8065,144,216,1664,-18,-7,-6
8070,128,216,1752,-30,5,-8
8075,88,200,1704,-30,11,-8
8080,120,208,1680,-28,2,-5
8085,120,192,1680,-30,2,-5
8090,120,200,1688,-36,7,-4
8095,112,184,1672,-34,6,-3
8100,112,184,1656,-35,-1,-3
8105,128,176,1656,-41,2,-9
8110,104,184,1664,-50,10,-15
8115,128,184,1704,-46,11,-11
8120,96,176,1680,-34,5,-6
8125,120,184,1744,-32,-4,-5
8130,128,208,1696,-27,-6,-5
8135,160,192,1608,-32,-1,-4
8140,88,240,1680,-57,21,-12
8145,96,184,1712,-61,26,-14
8150,96,192,1704,-54,12,-9
8155,88,184,1688,-51,4,-9
8160,104,216,1688,-45,-3,-8
8165,112,208,1672,-44,-4,-9
8170,104,192,1680,-44,-4,-8
8175,112,176,1688,-39,-8,-5
8180,144,208,1760,-38,-8,-7
8185,112,200,1648,-36,-4,-8
8190,128,184,1672,-41,-1,-6
8195,136,200,1664,-42,-1,-5
8200,144,168,1656,-42,-4,-2
8205,96,184,1696,-48,-3,-3
8210,144,176,1664,-46,-2,-3
8215,120,152,1680,-46,1,-3
8220,144,184,1712,-46,1,-4
8225,168,176,1664,-43,2,-3
8230,128,184,1696,-40,3,-2
8235,120,208,1672,-38,4,-3
8240,112,208,1672,-38,6,-4
8245,144,192,1680,-42,7,-2
8250,128,184,1672,-43,5,-2
8255,168,200,1664,-44,5,-2
8260,120,208,1680,-46,4,0
8265,128,216,1696,-46,5,-1
8270,136,192,1664,-49,4,-1
8275,128,192,1696,-50,4,-1
8280,112,192,1672,-51,5,-1
8285,120,200,1696,-52,6,-1
8290,152,184,1640,-55,7,-3
8295,128,192,1680,-56,9,-3
8300,120,216,1664,-58,10,-4
8305,152,184,1680,-60,10,-5
8310,144,200,1696,-60,8,-4
8315,120,208,1680,-63,9,-7
8320,128,208,1688,-64,11,-8
8325,144,208,1672,-65,11,-10
8330,176,184,1672,-67,11,-10
8335,112,184,1680,-64,16,-11
8340,136,184,1720,-62,16,-12
8345,120,224,1712,-58,18,-13
8350,136,176,1672,-54,19,-13
8355,112,200,1648,-48,19,-13
8360,144,192,1696,-47,20,-13
8365,120,176,1672,-46,20,-14
8370,104,216,1664,-47,22,-13
8375,136,192,1640,-49,22,-13
8380,128,200,1680,-52,21,-13
8385,128,176,1672,-47,22,-11
8390,112,192,1664,-44,22,-11
8395,128,184,1640,-40,21,-10
8400,112,176,1664,-40,20,-10
8405,112,216,1680,-43,20,-8
8410,96,224,1656,-43,20,-9
8415,120,200,1712,-46,20,-9
8420,112,208,1680,-47,18,-8
8425,104,208,1680,-51,16,-9
8430,104,192,1720,-52,17,-7
8435,120,176,1704,-52,13,-7
8440,112,184,1680,-53,10,-6
8445,120,208,1680,-56,10,-5
8450,120,168,1704,-57,7,-6
8455,88,200,1672,-59,4,-4
8460,120,192,1688,-62,0,-4
8465,136,168,1680,-61,-3,-2
8470,120,192,1688,-61,-5,-3
8475,96,224,1680,-62,-8,-2
8480,96,208,1696,-60,-10,-2
8485,128,184,1704,-60,-11,-3
8490,72,208,1672,-62,-12,-3
8495,112,200,1696,-63,-11,-2
8500,96,192,1664,-64,-12,-3
8505,120,184,1600,-63,-12,-3
8510,104,168,1696,-63,-11,-2
8515,112,168,1688,-61,-11,-3
8520,136,176,1696,-59,-11,-2
8525,144,168,1704,-59,-10,-2
8530,120,160,1664,-59,-6,-3
8535,144,168,1648,-57,-3,-3
8540,112,184,1656,-57,-4,-1
8545,128,168,1656,-57,-1,-1
8550,152,192,1656,-57,0,-2
8555,112,184,1656,-58,3,-2
8560,144,152,1672,-55,3,-1
8565,152,192,1688,-54,5,0
8570,152,168,1696,-53,7,-2
8575,144,160,1648,-53,9,-2
8580,160,176,1688,-51,8,-2
8585,152,192,1648,-52,11,-4
8590,152,200,1696,-54,15,-4
8595,144,216,1704,-53,15,-4
8600,144,184,1664,-55,18,-2
8605,152,176,1672,-56,22,-4
8610,152,184,1712,-56,24,-5
8615,128,192,1664,-58,27,-5
8620,152,184,1696,-57,30,-5
8625,136,192,1680,-58,31,-4
8630,152,184,1696,-60,32,-3
8635,144,184,1664,-61,32,-3
8640,136,192,1680,-57,34,-5
8645,152,152,1680,-59,33,-5
8650,160,184,1712,-56,33,-5
8655,144,184,1688,-57,31,-7
8660,128,184,1704,-54,29,-7
8665,128,184,1672,-53,30,-7
8670,144,184,1648,-53,30,-8
8675,136,200,1680,-53,30,-9
8680,128,216,1664,-54,30,-8
8685,136,192,1656,-55,32,-10
8690,136,184,1704,-55,32,-9
8695,120,192,1672,-55,30,-11
8700,128,208,1672,-55,31,-10
8705,160,200,1696,-53,30,-12
8710,96,200,1664,-51,30,-11
8715,96,184,1648,-50,27,-10
8720,120,192,1680,-53,26,-9
8725,128,208,1720,-51,24,-9
8730,112,192,1640,-52,23,-9
8735,112,216,1680,-54,22,-7
8740,104,184,1672,-56,22,-4
8745,120,200,1688,-55,20,-7
8750,104,192,1664,-56,20,-6
8755,104,192,1656,-57,19,-8
8760,120,200,1688,-58,17,-9
8765,112,208,1704,-58,16,-8
8770,144,192,1704,-58,16,-8
8775,104,184,1672,-60,17,-7
8780,152,144,1704,-62,16,-7
8785,120,168,1680,-63,16,-5
8790,136,184,1680,-61,17,-6
8795,104,184,1672,-60,17,-6
8800,120,168,1680,-60,18,-6
8805,128,168,1696,-62,17,-6
8810,112,184,1656,-60,18,-6
8815,104,176,1664,-59,17,-5
8820,120,184,1680,-57,16,-5
8825,104,184,1704,-55,17,-5
8830,136,152,1664,-56,17,-5
8835,112,160,1576,-53,17,-7
8840,104,176,1672,-53,18,-9
8845,104,184,1696,-51,17,-8
8850,112,192,1680,-53,17,-10
8855,112,152,1672,-52,15,-10
8860,104,168,1672,-53,13,-10
8865,104,160,1680,-52,11,-11
8870,120,184,1672,-53,10,-13
8875,104,168,1680,-54,7,-12
8880,128,192,1664,-53,7,-13
8885,128,184,1680,-55,7,-12
8890,176,192,1624,-54,8,-11
8895,128,160,1688,-54,10,-10
8900,120,176,1696,-56,11,-9
8905,112,168,1680,-54,12,-9
8910,144,168,1680,-53,14,-8
8915,136,160,1656,-51,14,-8
8920,120,168,1656,-49,14,-9
8925,144,176,1672,-46,14,-9
8930,128,176,1664,-45,12,-7
8935,120,184,1656,-46,12,-6
8940,104,200,1688,-46,13,-6
8945,144,184,1664,-45,11,-5
8950,136,176,1672,-45,9,-5
8955,120,176,1672,-46,10,-5
8960,120,192,1696,-48,8,-3
8965,104,176,1648,-50,9,-4
8970,112,184,1640,-53,7,-2
8975,112,176,1680,-56,6,-2
8980,120,168,1664,-56,7,0
8985,120,184,1680,-56,8,2
8990,136,168,1664,-57,7,3
8995,120,192,1656,-57,7,1
9000,112,144,1712,-55,7,0
9005,144,168,1688,-52,6,-1
9010,136,168,1672,-50,5,0
9015,136,176,1680,-48,5,-1
9020,152,168,1688,-48,5,-1
9025,152,208,1664,-47,4,-1
9030,144,168,1680,-45,6,-1
9035,152,168,1640,-44,5,-2
9040,176,184,1728,-43,6,-3
9045,152,160,1656,-43,7,-4
9050,128,168,1760,-45,7,-5
9055,128,184,1704,-45,7,-6
9060,152,152,1680,-47,8,-5
9065,152,176,1672,-45,10,-5
9070,136,152,1688,-46,11,-8
9075,136,160,1680,-41,11,-7
9080,152,160,1704,-39,12,-5
9085,152,184,1656,-36,12,-5
9090,112,168,1680,-36,12,-5
9095,144,128,1640,-37,12,-7
9100,120,160,1672,-35,10,-7
9105,120,192,1640,-34,8,-6
9110,96,192,1672,-32,8,-7
9115,136,168,1680,-31,5,-5
9120,128,208,1664,-28,5,-6
9125,120,192,1648,-31,4,-7
9130,128,176,1672,-30,5,-9
9135,120,192,1672,-33,6,-9
9140,128,176,1656,-33,6,-11
9145,136,184,1664,-35,7,-11
9150,136,216,1672,-37,7,-12
9155,136,184,1664,-37,8,-10
9160,120,176,1696,-38,9,-11
9165,136,168,1688,-40,10,-8
9170,144,192,1688,-39,7,-7
9175,136,176,1704,-40,8,-9
9180,128,200,1720,-43,10,-10
9185,136,208,1688,-45,12,-10
9190,136,176,1688,-46,15,-9
9195,128,160,1696,-48,16,-8
9200,136,152,1664,-46,18,-7
9205,136,168,1704,-46,17,-7
9210,112,184,1640,-44,19,-6
9215,152,136,1696,-45,21,-5
9220,120,176,1696,-46,24,-3
9225,136,184,1664,-46,23,-2
9230,128,144,1704,-48,23,-1
9235,168,168,1672,-50,25,0
9240,136,168,1680,-51,28,0
9245,128,168,1680,-52,30,-1
9250,128,168,1696,-48,24,1
9255,144,160,1680,-46,23,0
9260,144,160,1688,-45,27,1
9265,160,168,1680,-48,27,0
9270,136,176,1640,-47,27,1
9275,128,160,1688,-45,23,4
9280,152,168,1632,-43,25,4
9285,128,176,1672,-48,34,4
9290,160,152,1704,-48,35,4
9295,128,192,1672,-41,32,1
9300,136,200,1664,-40,33,0
9305,144,160,1656,-41,33,3
9310,128,208,1704,-45,33,0
9315,144,192,1704,-44,35,-4
9320,160,144,1672,-43,35,-3
9325,176,168,1664,-41,35,-5
9330,136,184,1688,-42,37,-9
9335,112,184,1664,-42,38,-10
9340,152,184,1664,-42,40,-11
9345,168,176,1656,-44,43,-13
9350,144,176,1672,-43,41,-12
9355,160,176,1664,-44,42,-15
9360,128,176,1656,-43,44,-17
9365,160,176,1688,-44,44,-15
9370,136,176,1680,-42,43,-16
9375,112,208,1688,-42,46,-14
9380,104,184,1632,-41,47,-15
9385,144,176,1656,-41,48,-16
9390,128,200,1680,-43,50,-14
9395,128,200,1688,-43,51,-15
9400,120,192,1688,-41,52,-13
9405,128,192,1680,-40,49,-14
9410,104,176,1688,-38,48,-14
9415,88,192,1680,-36,46,-13
9420,112,200,1704,-35,46,-15
9425,104,184,1688,-34,46,-15
9430,96,176,1672,-31,46,-14
9435,96,200,1688,-30,45,-13
9440,136,184,1688,-28,36,-11
9445,112,208,1688,-25,37,-12
9450,120,200,1664,-28,41,-14
9455,152,208,1632,-34,42,-14
9460,160,192,1664,-51,55,-17
9465,88,160,1696,-64,74,-20
9470,152,144,1696,-56,64,-18
9475,104,176,1688,-49,61,-18
9480,112,184,1720,-40,54,-17
9485,120,176,1752,-40,43,-15
9490,80,208,1664,-42,41,-16
9495,128,200,1680,-45,42,-15
9500,96,176,1688,-49,44,-15
9505,104,160,1680,-50,43,-13
9510,112,176,1672,-47,38,-11
9515,112,152,1688,-47,38,-11
9520,120,184,1728,-48,36,-9
9525,128,192,1696,-48,34,-9
9530,112,216,1672,-50,33,-7
9535,128,200,1632,-52,32,-8
9540,88,128,1704,-60,41,-10
9545,88,192,1704,-58,39,-8
9550,112,128,1672,-50,29,-5
9555,112,168,1664,-44,29,-7
9560,96,200,1680,-42,33,-6
9565,112,192,1672,-43,33,-5
9570,104,184,1648,-45,29,-3
9575,96,192,1672,-48,29,-4
9580,104,176,1664,-51,28,-3
9585,104,168,1688,-51,26,-3
9590,96,184,1680,-51,22,-1
9595,88,168,1656,-50,22,-3
9600,96,176,1672,-51,25,-1
9605,96,184,1688,-52,26,-1
9610,104,160,1656,-49,20,0
9615,104,200,1656,-46,20,-2
9620,88,160,1672,-46,21,-3
9625,104,184,1680,-45,18,-3
9630,112,192,1656,-44,17,-1
9635,112,144,1680,-43,16,-4
9640,104,184,1664,-42,13,-2
9645,104,168,1712,-41,12,-2
9650,56,176,1648,-44,10,-3
9655,104,160,1696,-46,11,-3
9660,96,200,1688,-47,12,-2
9665,112,176,1720,-50,13,-3
9670,128,176,1720,-46,12,-3
9675,104,176,1688,-44,8,-3
9680,120,176,1664,-43,8,-3
9685,96,184,1688,-44,6,-3
9690,104,192,1648,-43,8,-1
9695,104,168,1696,-43,9,-2
9700,120,224,1696,-44,10,-1
9705,144,208,1632,-47,8,-3
9710,120,200,1696,-50,9,-2
9715,112,200,1696,-50,9,-1
9720,112,192,1672,-51,5,-2
9725,104,192,1696,-51,4,-1
9730,128,184,1680,-54,3,-2
9735,112,176,1680,-54,2,-1
9740,128,168,1696,-54,2,-2
9745,104,184,1664,-50,1,-1
9750,104,184,1672,-49,0,-1
9755,128,192,1712,-49,3,0
9760,136,152,1720,-50,6,0
9765,88,192,1664,-51,3,2
9770,144,168,1664,-53,4,8
9775,104,184,1672,-49,7,3
9780,112,168,1672,-45,11,1
9785,136,144,1648,-45,12,0
9790,120,176,1664,-50,15,-2
9795,120,144,1720,-56,21,-2
9800,128,144,1704,-51,19,-3
9805,120,136,1696,-46,19,-3
9810,120,160,1688,-44,18,-4
9815,144,80,1720,-40,19,-6
9820,112,152,1656,-34,18,-5
9825,112,160,1656,-32,17,-6
9830,144,176,1664,-32,18,-6
9835,96,176,1672,-34,19,-7
9840,136,168,1648,-32,20,-6
9845,128,160,1688,-32,21,-8
9850,112,192,1688,-28,20,-8
9855,144,176,1664,-24,19,-8
9860,120,168,1664,-23,23,-8
9865,120,176,1688,-21,24,-9
9870,128,208,1664,-17,25,-10
9875,112,168,1656,-20,30,-13
9880,128,200,1656,-16,29,-12
9885,120,192,1680,-17,27,-11
9890,112,184,1672,-19,30,-10
9895,120,168,1672,-19,23,-7
9900,136,192,1688,-18,22,-2
9905,136,200,1664,-18,29,-7
9910,136,168,1672,-21,34,-7
9915,128,208,1712,-25,33,-5
9920,136,200,1664,-23,32,-6
9925,104,248,1656,-32,37,-3
9930,48,168,1696,-60,44,1
9935,128,192,1704,-53,37,2
9940,128,200,1680,-16,31,5
9945,136,200,1624,-5,30,4
9950,128,232,1688,-14,33,8
9955,136,208,1664,-15,31,5
9960,112,232,1720,-21,34,-4
9965,80,248,1704,-22,36,-5
9970,112,200,1704,-33,29,-3
9975,96,192,1640,-43,27,-4
9980,80,200,1680,-52,27,-7
9985,64,184,1664,-48,28,-8
9990,120,176,1696,-43,24,-6
9995,96,176,1672,-44,24,-8
10000,112,176,1672,-40,25,-5
10005,104,208,1672,-34,22,-2
10010,104,176,1640,-36,20,-2
10015,136,200,1672,-41,20,-2
10020,104,176,1712,-40,18,-2
10025,120,160,1696,-36,15,-1
10030,112,184,1696,-34,14,0
10035,80,200,1696,-38,17,1
10040,120,152,1680,-42,20,-1
10045,120,176,1704,-37,22,-4
10050,104,184,1696,-30,20,-3
10055,88,184,1672,-25,15,0
10060,88,176,1640,-28,16,7
10065,120,168,1656,-33,17,7
10070,96,224,1688,-26,15,4
10075,104,184,1656,-24,15,6
10080,96,160,1664,-32,19,7
10085,104,112,1720,-33,19,11
10090,128,184,1696,-37,22,8
10095,120,184,1696,-24,21,8
10100,152,192,1688,-15,15,10
10105,136,216,1664,-17,17,3
10110,120,208,1688,-30,20,2
10115,112,208,1688,-38,20,1
10120,104,208,1712,-45,17,2
10125,120,200,1688,-47,14,-1
10130,120,168,1728,-49,13,0
10135,144,176,1680,-51,14,-2
10140,152,184,1632,-48,13,-2
10145,96,184,1672,-48,11,-1
10150,96,200,1672,-44,9,-4
10155,120,176,1688,-41,10,-2
10160,128,176,1648,-42,10,-3
10165,96,184,1648,-40,13,0
10170,112,184,1704,-38,14,-1
10175,120,192,1704,-37,13,-1
10180,136,168,1656,-35,12,-3
10185,128,200,1672,-32,10,-3
10190,120,216,1632,-33,12,-3
10195,96,160,1640,-30,13,-3
10200,136,176,1664,-30,14,-2
10205,104,224,1696,-29,18,-3
10210,96,216,1672,-31,20,-3
10215,120,184,1696,-30,19,-3
10220,120,200,1648,-33,21,-4
10225,128,208,1712,-32,22,-3
10230,120,192,1704,-33,24,-3
10235,128,192,1672,-31,24,-2
10240,96,224,1640,-32,23,-1
10245,96,216,1696,-35,22,-1
10250,152,168,1696,-34,23,-3
10255,136,176,1672,-35,24,-4
10260,120,184,1656,-39,31,-5
10265,96,216,1672,-39,33,-5
10270,80,224,1680,-37,31,-6
10275,112,208,1664,-37,28,-6
10280,104,208,1704,-39,26,-5
10285,128,216,1704,-42,26,-7
10290,104,200,1704,-46,24,-9
10295,136,168,1688,-43,22,-10
10300,120,200,1680,-42,25,-9
10305,120,208,1752,-43,25,-9
10310,120,184,1680,-45,25,-10
10315,128,192,1680,-46,23,-9
10320,128,200,1712,-47,27,-11
10325,72,160,1664,-51,26,-11
10330,96,176,1696,-54,31,-12
10335,112,184,1696,-40,24,-8
10340,128,232,1688,-19,10,-3
10345,104,208,1696,-11,11,-4
10350,112,216,1712,-16,14,-4
10355,120,208,1680,-25,16,-4
10360,112,200,1728,-33,17,-7
10365,112,216,1688,-40,19,-9
10370,120,192,1696,-47,22,-9
10375,88,184,1664,-50,23,-9
10380,80,200,1704,-49,24,-8
10385,96,200,1640,-45,22,-7
10390,96,216,1648,-43,21,-7
10395,112,184,1704,-42,21,-6
10400,120,176,1664,-41,22,-6
10405,120,168,1680,-42,21,-4
10410,80,208,1680,-45,23,-5
10415,136,192,1664,-43,24,-4
10420,80,224,1664,-44,22,-4
10425,80,216,1688,-45,20,-4
10430,96,200,1696,-46,19,-3
10435,96,216,1696,-45,17,-3
10440,88,200,1664,-50,17,-4
10445,128,176,1672,-51,17,-3
10450,96,144,1648,-50,16,-3
10455,112,192,1688,-50,17,-4
10460,120,168,1648,-49,18,-3
10465,104,216,1632,-48,19,-2
10470,160,200,1640,-43,19,-3
10475,128,176,1664,-40,21,-3
10480,88,192,1672,-37,21,-3
10485,96,208,1656,-37,20,-2
10490,112,192,1680,-34,21,-4
10495,96,208,1648,-32,22,-4
10500,120,176,1656,-35,22,-5
10505,112,176,1712,-35,27,-8
10510,104,152,1720,-34,28,-6
10515,96,168,1688,-33,27,-8
10520,144,200,1688,-36,27,-9
10525,104,184,1680,-38,28,-10
10530,112,184,1704,-37,29,-10
10535,96,184,1680,-35,28,-11
10540,104,168,1680,-32,26,-9
10545,104,184,1656,-33,24,-10
10550,96,200,1688,-34,25,-11
10555,88,192,1680,-33,24,-9
10560,112,184,1688,-29,23,-9
10565,104,168,1672,-28,22,-7
10570,112,216,1688,-26,23,-8
10575,96,200,1680,-25,24,-9
10580,112,184,1584,-22,22,-8
10585,96,208,1664,-21,23,-8
10590,88,232,1672,-21,23,-7
10595,120,200,1648,-24,24,-6
10600,96,200,1680,-25,25,-5
10605,88,240,1720,-21,17,-6
10610,96,192,1656,-18,18,-5
10615,88,240,1672,-21,24,-4
10620,112,200,1656,-28,26,-6
10625,104,184,1688,-40,31,-13
10630,56,200,1672,-46,36,-18
10635,24,152,1672,-55,37,-15
10640,144,200,1720,-66,35,0
10645,128,184,1720,-25,23,3
10650,136,240,1696,6,14,6
10655,120,232,1680,16,13,1
10660,120,232,1664,0,21,-5
10665,96,264,1696,-12,25,-11
10670,112,232,1664,-21,22,-8
10675,120,248,1712,-33,17,-6
10680,120,232,1688,-45,15,-3
10685,136,208,1648,-48,14,-1
10690,104,216,1648,-43,10,-2
10695,112,208,1672,-43,11,-2
10700,120,224,1664,-45,11,-4
10705,112,200,1664,-46,12,-5
10710,104,224,1664,-47,13,-6
10715,128,200,1712,-45,12,-7
10720,112,208,1680,-45,11,-8
10725,72,216,1656,-42,11,-8
10730,104,192,1704,-43,14,-7
10735,80,192,1688,-45,13,-7
10740,96,128,1688,-43,13,-8
10745,88,216,1664,-42,12,-7
10750,88,200,1696,-42,13,-6
10755,88,200,1688,-40,12,-6
10760,80,208,1680,-39,11,-5
10765,96,176,1640,-40,11,-4
10770,88,192,1664,-37,10,-5
10775,120,184,1664,-38,11,-4
10780,112,208,1664,-37,10,-5
10785,88,192,1704,-38,13,-5
10790,112,184,1680,-39,15,-5
10795,88,160,1728,-39,17,-4
10800,96,216,1656,-40,17,-5
10805,112,184,1696,-39,18,-4
10810,104,208,1680,-39,17,-4
10815,104,176,1712,-40,18,-4
10820,88,200,1688,-39,19,-4
10825,104,176,1688,-39,18,-5
10830,96,184,1664,-39,18,-3
10835,112,200,1688,-39,18,-3
10840,88,200,1664,-39,17,-3
10845,112,184,1696,-38,16,-3
10850,144,232,1736,-40,16,-1
10855,128,176,1672,-40,18,0
10860,112,208,1664,-41,18,-2
10865,120,192,1672,-42,18,-2
10870,120,176,1664,-42,17,-1
10875,96,200,1656,-39,16,-2
10880,128,200,1680,-36,16,-2
10885,120,208,1664,-32,16,-3
10890,112,176,1656,-32,16,-3
10895,128,176,1672,-31,18,-5
10900,120,192,1648,-29,17,-5
10905,96,232,1720,-29,17,-6
10910,136,192,1680,-29,16,-6
10915,136,200,1680,-29,18,-7
10920,120,216,1688,-30,20,-7
10925,112,200,1688,-30,21,-7
10930,96,216,1688,-26,20,-7
10935,96,248,1664,-27,21,-7
10940,96,208,1648,-31,21,-8
10945,112,216,1688,-33,21,-9
10950,112,232,1672,-34,20,-11
10955,104,200,1688,-33,22,-14
10960,120,240,1664,-32,19,-10
10965,104,216,1696,-28,16,-8
10970,96,232,1680,-26,13,-8
10975,96,216,1680,-28,13,-7
10980,88,208,1664,-33,12,-6
10985,88,216,1680,-36,14,-6
10990,96,216,1648,-38,11,-6
10995,72,200,1640,-39,11,-5
11000,104,216,1680,-39,9,-4
11005,104,192,1680,-40,8,-6
11010,136,216,1672,-39,9,-6
11015,104,152,1688,-38,9,-7
11020,112,208,1672,-35,7,-4
11025,120,200,1680,-30,4,-4
11030,120,208,1688,-28,9,-4
11035,104,216,1648,-29,11,-5
11040,104,208,1680,-33,15,-7
11045,120,224,1680,-35,17,-8
11050,96,200,1664,-38,17,-6
11055,112,232,1664,-38,16,-7
11060,80,248,1664,-36,17,-7
11065,112,200,1712,-36,16,-6
11070,96,216,1680,-37,17,-4
11075,104,176,1672,-36,14,-3
11080,112,208,1672,-36,16,-5
11085,96,232,1656,-39,20,-7
11090,112,232,1696,-43,22,-7
11095,120,208,1680,-44,21,-6
11100,120,192,1704,-45,22,-6
11105,128,232,1680,-44,21,-5
11110,104,232,1680,-44,20,-5
11115,104,224,1672,-42,21,-5
11120,72,208,1680,-43,19,-5
11125,104,216,1664,-46,18,-4
11130,88,208,1664,-45,18,-5
11135,104,216,1672,-45,17,-4
11140,112,224,1680,-45,17,-3
11145,104,208,1680,-44,15,-3
11150,104,224,1696,-44,13,-3
11155,112,224,1680,-46,12,-3
11160,128,184,1640,-46,12,-4
11165,80,168,1688,-49,6,2
11170,128,200,1696,-56,12,4
11175,96,200,1632,-35,12,-5
11180,96,208,1648,-27,13,-6
11185,128,216,1672,-32,11,-2
11190,128,232,1648,-28,10,-4
11195,88,256,1672,-26,13,-5
11200,112,224,1664,-32,13,-7
11205,104,272,1696,-40,14,-6
11210,144,216,1664,-43,13,-4
11215,144,232,1680,-43,10,-5
11220,120,184,1688,-46,13,-6
11225,120,216,1704,-54,16,-7
11230,136,176,1664,-55,18,-9
11235,104,192,1712,-55,19,-9
11240,120,176,1656,-50,18,-7
11245,112,192,1640,-47,18,-8
11250,104,192,1648,-45,18,-7
11255,104,240,1672,-43,19,-7
11260,104,192,1664,-41,20,-7
11265,144,216,1680,-38,21,-6
11270,104,200,1680,-35,21,-5
11275,96,200,1640,-32,21,-5
11280,88,248,1704,-30,20,-6
11285,160,176,1656,-30,20,-6
11290,120,208,1648,-30,19,-5
11295,112,232,1664,-30,19,-6
11300,120,224,1656,-30,19,-7
11305,112,240,1672,-31,16,-6
11310,112,208,1680,-34,17,-5
11315,120,216,1672,-36,16,-7
11320,104,232,1656,-37,17,-6
11325,120,240,1696,-39,18,-7
11330,120,216,1688,-39,18,-6
11335,104,224,1680,-41,18,-5
11340,120,224,1688,-43,19,-4
11345,88,208,1656,-42,20,-4
11350,96,232,1648,-43,22,-5
11355,88,232,1696,-46,22,-5
11360,96,232,1664,-47,23,-4
11365,112,200,1688,-48,25,-6
11370,104,208,1696,-51,28,-10
11375,120,216,1704,-46,30,-9
11380,88,208,1688,-42,29,-6
11385,120,216,1680,-41,29,-4
11390,48,232,1648,-41,29,-3
11395,112,192,1664,-43,28,-4
11400,120,200,1656,-43,29,-3
11405,104,208,1656,-45,30,-4
11410,96,216,1696,-44,31,-4
11415,120,184,1688,-45,33,-3
11420,112,216,1672,-44,32,-2
11425,88,224,1672,-46,34,-1
11430,120,200,1616,-46,33,-2
11435,128,200,1696,-49,34,-3
11440,104,224,1656,-50,32,-3
11445,112,208,1704,-49,32,-2
11450,80,208,1648,-48,31,-2
11455,112,200,1688,-46,29,-3
11460,80,240,1688,-44,26,-3
11465,104,208,1704,-44,25,-3
11470,96,208,1688,-45,23,-5
11475,120,224,1664,-43,22,-4
11480,88,208,1664,-42,21,-5
11485,88,232,1704,-42,18,-4
11490,112,248,1696,-41,19,-5
11495,104,232,1672,-43,18,-5
11500,96,232,1680,-46,18,-6
11505,88,200,1712,-48,17,-6
11510,96,208,1680,-48,16,-6
11515,104,208,1704,-44,14,-7
11520,104,216,1656,-45,12,-6
11525,88,240,1672,-44,11,-5
11530,104,200,1680,-45,12,-6
11535,104,248,1672,-47,12,-6
11540,80,232,1648,-49,11,-4
11545,104,240,1688,-51,12,-3
11550,104,200,1640,-54,12,-2
11555,96,216,1680,-54,12,-2
11560,120,168,1712,-57,11,-1
11565,112,224,1688,-56,14,-1
11570,104,208,1656,-56,13,-2
11575,96,224,1656,-58,14,-2
11580,120,216,1648,-58,14,-3
11585,120,200,1688,-56,15,-2
11590,120,216,1664,-56,17,-4
11595,120,192,1632,-54,17,-4
11600,112,176,1680,-54,19,-5
11605,112,224,1624,-57,20,-6
11610,64,160,1672,-58,21,-4
11615,112,216,1680,-58,21,-5
11620,120,200,1664,-56,22,-5
11625,112,200,1672,-56,24,-4
11630,104,200,1656,-55,25,-3
11635,96,192,1688,-52,27,-2
11640,96,200,1672,-51,29,-2
11645,104,192,1624,-50,29,-1
11650,104,192,1656,-47,30,-2
11655,112,216,1712,-46,30,-1
11660,96,216,1672,-45,32,-1
11665,104,168,1704,-46,33,-2
11670,120,216,1664,-47,34,0
11675,88,208,1672,-47,35,-2
11680,96,232,1688,-48,34,-2
11685,88,224,1696,-51,33,-2
11690,96,232,1656,-53,33,-3
11695,96,216,1688,-53,32,-2
11700,128,200,1672,-56,32,-2
11705,72,248,1664,-60,31,-2
11710,96,208,1664,-60,29,-1
11715,88,224,1656,-60,29,1
11720,96,216,1680,-61,26,1
11725,104,216,1680,-62,25,1
11730,96,232,1688,-62,22,2
11735,104,200,1688,-60,18,2
11740,72,224,1656,-59,17,2
11745,104,216,1680,-58,16,3
11750,80,208,1656,-55,15,2
11755,104,200,1688,-53,13,3
11760,104,192,1680,-54,13,2
11765,96,216,1680,-54,14,0
11770,120,184,1680,-56,15,1
11775,128,240,1624,-53,16,1
11780,112,200,1680,-54,17,-1
11785,112,208,1672,-53,15,-1
11790,96,200,1680,-54,15,-2
11795,104,208,1704,-54,16,-2
11800,72,216,1672,-54,15,-2
11805,96,232,1672,-56,15,-4
11810,104,184,1672,-56,16,-2
11815,120,224,1664,-57,16,-3
11820,104,200,1664,-58,15,-3
11825,104,208,1680,-59,16,-4
11830,128,208,1624,-58,17,-3
11835,104,184,1664,-58,18,-3
11840,112,200,1656,-57,20,-3
11845,120,216,1664,-58,20,-4
11850,128,184,1672,-57,20,-3
11855,104,200,1680,-57,20,-3
11860,112,216,1672,-57,21,-2
11865,104,216,1688,-58,21,-2
11870,120,184,1688,-57,20,-3
11875,104,200,1680,-56,20,-2
11880,96,192,1656,-57,18,-3
11885,96,256,1760,-56,18,-2
11890,104,216,1696,-56,17,-3
11895,96,208,1704,-56,17,-3
11900,104,200,1672,-57,18,-3
11905,80,232,1680,-57,19,-3
11910,112,216,1688,-58,20,-2
11915,104,200,1680,-60,21,-3
11920,120,224,1688,-62,22,-3
11925,72,216,1664,-65,24,-3
11930,104,216,1664,-65,25,-4
11935,128,184,1688,-67,27,-4
11940,88,192,1664,-65,30,-3
11945,96,184,1720,-66,31,-5
11950,104,192,1696,-62,33,-4
11955,96,176,1680,-61,33,-4
11960,96,216,1632,-57,34,-3
11965,112,192,1672,-54,33,-2
11970,96,208,1664,-52,32,0
11975,112,208,1696,-54,31,-1
11980,120,168,1640,-54,29,1
11985,80,184,1656,-53,27,0
11990,96,208,1664,-50,24,-1
11995,56,216,1704,-46,20,0
12000,88,200,1656,-42,19,0
12005,96,208,1664,-41,19,-1
12010,96,232,1680,-36,18,-1
12015,96,216,1672,-35,20,-2
12020,72,208,1680,-33,20,-4
12025,88,224,1664,-34,19,-5
12030,72,200,1672,-34,20,-5
12035,120,224,1696,-37,21,-5
12040,120,200,1696,-40,21,-6
12045,80,208,1696,-44,19,-5
12050,88,152,1656,-44,16,-4
12055,104,216,1680,-47,15,-3
12060,120,200,1688,-48,13,-5
12065,104,208,1664,-49,11,-6
12070,88,200,1672,-50,11,-3
12075,120,200,1680,-52,10,-3
12080,96,192,1688,-54,9,-3
12085,80,176,1656,-54,9,-3
12090,72,232,1648,-55,10,-5
12095,96,216,1680,-55,11,-5
12100,112,184,1656,-54,13,-6
12105,112,192,1696,-49,14,-6
12110,80,192,1712,-49,15,-7
12115,88,216,1664,-48,15,-7
12120,104,192,1664,-48,17,-7
12125,104,200,1664,-46,18,-8
12130,104,208,1648,-46,19,-8
12135,112,208,1680,-46,18,-8
12140,104,176,1664,-46,19,-8
12145,80,232,1664,-47,19,-7
12150,136,184,1704,-45,18,-7
12155,96,184,1664,-45,18,-7
12160,96,208,1648,-45,17,-7
12165,96,200,1656,-47,17,-6
12170,96,200,1696,-48,17,-5
12175,88,200,1672,-48,16,-5
12180,96,192,1656,-46,16,-4
12185,104,200,1696,-45,15,-4
12190,112,192,1704,-44,15,-4
12195,96,192,1664,-44,15,-5
12200,72,224,1656,-44,16,-5
12205,104,192,1664,-44,17,-5
12210,72,232,1672,-44,16,-6
12215,96,168,1704,-44,18,-7
12220,96,208,1656,-44,18,-7
12225,88,216,1720,-42,19,-6
12230,96,192,1688,-41,18,-6
12235,80,200,1672,-38,18,-7
12240,112,200,1680,-39,17,-6
12245,104,232,1664,-40,16,-7
12250,80,192,1672,-42,17,-5
12255,72,200,1664,-42,16,-6
12260,120,192,1664,-42,14,-7
12265,176,240,1696,-43,15,-6
12270,96,216,1704,-44,16,-4
12275,104,200,1656,-44,15,-4
12280,104,192,1680,-45,14,-4
12285,88,216,1672,-43,15,-5
12290,104,208,1664,-42,16,-7
12295,80,208,1648,-40,17,-5
12300,112,216,1664,-39,16,-6
12305,96,184,1664,-40,17,-8
12310,64,192,1680,-40,17,-6
12315,88,184,1664,-40,16,-5
12320,112,216,1744,-39,16,-6
12325,96,200,1680,-40,16,-6
12330,112,208,1680,-40,15,-6
12335,72,216,1672,-39,15,-6
12340,96,192,1624,-40,16,-6
12345,104,200,1672,-41,15,-7
12350,96,200,1672,-41,15,-5
12355,88,192,1648,-40,15,-5
12360,128,168,1656,-39,15,-6
12365,104,184,1704,-42,15,-6
12370,112,184,1680,-43,15,-5
12375,88,232,1656,-43,16,-6
12380,112,176,1672,-43,16,-7
12385,104,200,1664,-43,16,-5
12390,96,192,1664,-43,16,-6
12395,104,192,1680,-43,16,-5
12400,96,200,1688,-45,17,-7
12405,104,208,1688,-45,17,-6
12410,96,216,1632,-44,17,-6
12415,80,216,1640,-44,18,-7
12420,88,184,1640,-43,18,-6
12425,120,200,1672,-44,16,-8
12430,72,200,1656,-43,16,-6
12435,88,216,1688,-43,16,-5
12440,136,192,1680,-41,15,-6
12445,104,208,1688,-42,14,-6
12450,96,216,1680,-43,13,-5
12455,80,224,1680,-41,14,-4
12460,96,176,1672,-40,13,-5
12465,80,208,1680,-42,14,-6
12470,104,208,1688,-43,13,-7
12475,88,232,1696,-42,13,-7
12480,72,208,1640,-44,15,-6
12485,112,240,1648,-43,14,-5
12490,104,216,1696,-44,14,-7
12495,96,200,1680,-46,13,-7
12500,88,208,1664,-44,14,-6
12505,104,192,1632,-46,14,-6
12510,96,200,1664,-44,14,-5
12515,112,208,1664,-45,14,-7
12520,120,192,1672,-46,14,-6
12525,112,176,1688,-45,15,-5
12530,128,200,1688,-43,15,-5
12535,112,184,1712,-42,15,-5
12540,112,192,1656,-43,15,-5
12545,120,208,1656,-43,15,-4
12550,104,216,1688,-42,15,-5
12555,96,208,1648,-43,16,-6
12560,104,200,1672,-44,17,-5
12565,88,216,1656,-46,17,-5
12570,96,216,1680,-45,17,-5
12575,96,208,1656,-46,18,-5
12580,120,200,1680,-46,16,-4
12585,88,216,1664,-49,15,-5
12590,88,224,1664,-49,14,-5
12595,112,200,1648,-50,14,-5
12600,96,200,1640,-51,12,-5
12605,112,200,1680,-51,10,-5
12610,88,208,1672,-51,11,-6
12615,96,224,1664,-51,11,-5
12620,80,200,1704,-48,11,-5
12625,120,224,1664,-46,11,-6
12630,120,192,1672,-47,13,-6
12635,96,208,1664,-44,12,-7
12640,120,200,1656,-43,13,-5
12645,128,208,1680,-44,14,-6
12650,112,216,1648,-43,14,-6
12655,120,168,1688,-46,16,-8
12660,96,192,1688,-48,17,-9
12665,96,184,1672,-48,18,-9
12670,112,176,1688,-49,20,-9
12675,104,184,1680,-49,22,-10
12680,112,192,1696,-48,24,-10
12685,80,200,1680,-48,27,-10
12690,104,192,1664,-44,27,-11
12695,104,200,1672,-40,27,-8
12700,88,144,1624,-37,26,-6
12705,96,200,1664,-36,23,-6
12710,112,216,1672,-36,22,-5
12715,80,216,1672,-37,21,-6
12720,96,200,1648,-38,21,-7
12725,80,200,1664,-37,20,-6
12730,96,216,1696,-34,19,-4
12735,120,192,1680,-33,18,-5
12740,104,216,1672,-31,18,-3
12745,80,200,1672,-32,19,-5
12750,128,208,1648,-30,20,-5
12755,136,256,1744,-29,19,-6
12760,88,208,1656,-29,20,-6
12765,88,224,1664,-31,20,-7
12770,104,216,1680,-33,18,-7
12775,96,192,1672,-33,17,-6
12780,96,208,1680,-36,17,-7
12785,104,184,1704,-36,16,-6
12790,80,216,1672,-37,15,-5
12795,104,232,1664,-37,13,-5
12800,112,224,1656,-38,13,-6
12805,104,232,1688,-39,13,-6
12810,120,160,1728,-38,12,-7
12815,96,232,1664,-39,13,-6
12820,104,200,1712,-40,12,-6
12825,88,208,1688,-41,13,-6
12830,120,208,1672,-41,13,-5
12835,104,224,1656,-43,13,-6
12840,88,192,1680,-43,12,-7
12845,88,216,1680,-45,14,-5
12850,112,192,1688,-45,15,-7
12855,88,224,1672,-44,15,-5
12860,96,184,1648,-45,16,-7
12865,144,160,1712,-46,17,-10
12870,128,184,1656,-46,18,-11
12875,96,200,1656,-45,20,-13
12880,96,224,1680,-41,19,-10
12885,120,192,1680,-40,15,-8
12890,120,200,1656,-40,15,-8
12895,104,216,1672,-40,14,-7
12900,96,200,1696,-39,13,-6
12905,96,184,1664,-39,14,-6
12910,88,192,1688,-39,12,-5
12915,120,216,1664,-39,11,-5
12920,88,200,1648,-38,11,-5
12925,104,192,1640,-36,10,-5
12930,88,224,1656,-39,10,-6
12935,104,208,1648,-40,12,-6
12940,88,216,1656,-41,12,-7
12945,104,208,1672,-40,16,-9
12950,96,216,1680,-40,17,-8
12955,104,176,1624,-42,18,-10
12960,112,192,1664,-39,17,-9
12965,128,176,1696,-40,17,-9
12970,72,216,1688,-38,14,-7
12975,88,176,1624,-38,7,0
12980,120,144,1648,-38,8,5
12985,112,200,1688,-39,7,-3
12990,112,216,1688,-26,7,-4
12995,88,208,1656,-20,7,-4
13000,96,224,1688,-30,11,-3
13005,120,232,1680,-37,12,-6
13010,112,232,1704,-44,13,-6
13015,112,192,1680,-46,15,-6
13020,88,216,1680,-47,14,-6
13025,72,216,1648,-47,14,-6
13030,112,200,1632,-46,15,-6
13035,112,192,1680,-45,16,-6
13040,120,208,1656,-43,13,-7
13045,80,208,1672,-41,14,-7
13050,96,216,1640,-40,14,-8
13055,96,224,1632,-40,14,-10
13060,96,200,1656,-44,17,-11
13065,112,184,1680,-42,18,-12
13070,104,240,1664,-36,16,-8
13075,120,216,1704,-34,15,-7
13080,112,200,1664,-35,15,-6
13085,144,240,1656,-37,14,-7
13090,128,216,1696,-39,15,-6
13095,96,232,1688,-40,16,-8
13100,96,224,1672,-39,17,-8
13105,104,216,1688,-40,16,-8
13110,112,200,1664,-38,16,-9
13115,104,216,1640,-38,14,-7
13120,80,232,1656,-36,15,-8
13125,104,216,1680,-40,14,-8
13130,120,184,1688,-41,17,-10
13135,120,224,1656,-42,19,-11
13140,128,224,1704,-40,18,-10
13145,96,240,1688,-35,16,-8
13150,112,232,1728,-34,15,-8
13155,64,216,1640,-42,12,-6
13160,104,200,1704,-45,17,-6
13165,128,192,1680,-32,11,-5
13170,112,208,1664,-21,9,-4
13175,128,216,1672,-22,12,-5
13180,120,216,1704,-29,13,-7
13185,96,240,1648,-34,13,-6
13190,136,176,1680,-36,14,-4
13195,120,216,1704,-37,12,-3
13200,104,216,1672,-39,13,-4
13205,80,216,1672,-39,12,-4
13210,120,200,1680,-37,11,-3
13215,96,216,1672,-36,10,-3
13220,112,208,1704,-38,12,-4
13225,104,224,1648,-37,12,-4
13230,88,240,1672,-41,12,-4
13235,120,200,1664,-40,12,-6
13240,80,200,1632,-40,12,-6
13245,88,256,1728,-41,12,-6
13250,112,192,1672,-42,12,-6
13255,88,216,1664,-43,12,-4
13260,80,208,1680,-42,12,-3
13265,104,208,1672,-38,5,0
13270,104,216,1696,-34,5,-3
13275,96,256,1656,-35,10,-3
13280,136,208,1664,-37,13,-4
13285,128,192,1672,-40,13,-4
13290,112,200,1672,-41,13,-4
13295,128,192,1696,-41,12,-4
13300,88,232,1656,-42,13,-5
13305,104,216,1688,-43,13,-5
13310,120,208,1664,-43,13,-6
13315,80,208,1688,-43,14,-5
13320,96,216,1664,-44,13,-5
13325,104,200,1688,-44,14,-5
13330,96,216,1672,-44,14,-5
13335,112,200,1648,-45,13,-5
13340,96,232,1680,-46,14,-5
13345,104,208,1672,-46,16,-5
13350,80,256,1664,-47,15,-6
13355,128,224,1664,-45,15,-5
13360,112,208,1664,-44,14,-5
13365,88,224,1664,-46,13,-6
13370,112,208,1688,-47,14,-5
13375,112,216,1648,-47,13,-6
13380,104,232,1688,-48,15,-6
13385,80,216,1680,-48,14,-7
13390,112,232,1664,-46,15,-7
13395,88,208,1688,-46,16,-8
13400,112,208,1680,-44,20,-9
13405,88,208,1672,-41,18,-7
13410,96,200,1648,-38,17,-8
13415,96,232,1648,-38,16,-6
13420,88,216,1648,-37,16,-6
13425,88,248,1664,-38,17,-7
13430,88,208,1680,-39,17,-7
13435,96,208,1696,-41,17,-7
13440,96,216,1672,-42,18,-9
13445,104,200,1648,-43,16,-9
13450,72,224,1656,-45,18,-8
13455,96,232,1680,-47,19,-8
13460,128,176,1672,-49,20,-8
13465,104,224,1712,-48,22,-10
13470,112,200,1720,-50,21,-9
13475,104,200,1688,-51,22,-9
13480,112,192,1688,-48,22,-7
13485,104,200,1656,-44,21,-7
13490,96,208,1664,-42,21,-6
13495,104,200,1648,-41,21,-6
13500,112,200,1624,-41,21,-6
13505,88,208,1664,-42,21,-6
13510,88,240,1696,-41,19,-5
13515,88,184,1688,-37,19,-5
13520,96,224,1648,-35,20,-4
13525,120,216,1656,-31,20,-4
13530,72,232,1688,-28,19,-4
13535,104,200,1664,-28,18,-5
13540,96,248,1672,-26,19,-6
13545,104,232,1672,-27,19,-5
13550,128,216,1656,-29,17,-7
13555,112,240,1664,-32,17,-6
13560,112,232,1680,-32,18,-6
13565,104,248,1680,-35,18,-7
13570,120,224,1696,-36,20,-6
13575,120,248,1672,-36,18,-6
13580,120,240,1680,-39,16,-4
13585,104,232,1680,-40,15,-3
13590,104,216,1696,-41,16,-4
13595,112,208,1704,-41,15,-4
13600,104,232,1680,-43,14,-3
13605,96,240,1656,-43,16,-3
13610,96,224,1640,-43,17,-4
13615,104,240,1680,-42,18,-7
13620,136,224,1672,-45,21,-7
13625,88,216,1696,-46,22,-7
13630,136,216,1664,-48,24,-8
13635,112,224,1640,-47,26,-10
13640,104,192,1648,-46,26,-11
13645,120,200,1672,-46,26,-14
13650,120,216,1664,-43,28,-15
13655,112,224,1656,-40,26,-15
13660,96,224,1656,-37,24,-14
13665,64,184,1696,-35,18,-10
13670,104,224,1672,-31,9,-7
13675,112,192,1672,-29,13,-11
13680,64,192,1664,-25,15,-10
13685,104,216,1672,-20,13,-10
13690,64,248,1696,-24,12,-9
13695,64,208,1664,-33,12,-3
13700,88,208,1664,-43,12,-4
13705,104,192,1688,-37,10,0
13710,120,208,1664,-20,4,2
13715,104,248,1672,-11,1,2
13720,88,240,1696,-14,4,2
13725,128,224,1664,-22,4,3
13730,96,256,1656,-29,6,0
13735,120,208,1696,-36,10,-2
13740,88,208,1680,-40,12,-4
13745,96,216,1664,-44,14,-4
13750,104,216,1664,-47,14,-4
13755,112,216,1680,-47,12,-5
13760,96,216,1680,-46,12,-4
13765,88,200,1648,-44,10,-5
13770,88,224,1712,-44,11,-5
13775,72,216,1656,-45,9,-5
13780,96,240,1696,-45,10,-5
13785,104,232,1664,-44,11,-4
13790,112,256,1672,-45,10,-3
13795,120,224,1688,-47,9,-2
13800,104,208,1688,-45,10,-2
13805,128,208,1656,-43,11,-2
13810,112,208,1656,-44,10,-1
13815,112,216,1672,-45,10,-2
13820,96,208,1680,-46,11,-2
13825,112,240,1680,-43,13,-2
13830,96,232,1656,-43,15,-2
13835,112,216,1696,-42,15,-3
13840,112,248,1640,-41,17,-4
13845,88,200,1616,-40,19,-4
13850,112,216,1640,-41,19,-5
13855,128,216,1704,-41,22,-5
13860,112,240,1672,-39,22,-5
13865,112,216,1656,-39,22,-8
13870,112,224,1656,-39,22,-7
13875,96,232,1688,-41,22,-6
13880,96,264,1664,-41,20,-7
13885,104,224,1656,-42,18,-7
13890,88,232,1648,-40,18,-7
13895,56,240,1664,-41,18,-7
13900,88,240,1672,-41,12,-4
13905,112,224,1688,-36,9,-5
13910,104,232,1680,-37,15,-6
13915,112,232,1680,-39,13,-3
13920,96,240,1688,-43,12,-3
13925,112,232,1672,-47,13,-5
13930,96,216,1680,-45,13,-6
13935,112,192,1680,-47,13,-6
13940,120,208,1680,-46,14,-8
13945,112,216,1672,-45,14,-7
13950,128,216,1672,-45,13,-6
13955,104,216,1688,-43,15,-6
13960,56,208,1616,-41,15,-6
13965,104,216,1664,-40,16,-6
13970,120,200,1648,-39,15,-6
13975,88,224,1648,-39,14,-6
13980,88,224,1680,-38,12,-6
13985,96,216,1656,-40,12,-5
13990,80,256,1664,-40,12,-5
13995,104,216,1664,-41,13,-6
14000,88,224,1672,-42,12,-4
14005,104,224,1672,-42,13,-6
14010,104,232,1688,-43,13,-5
14015,88,232,1672,-43,14,-4
14020,120,216,1680,-43,14,-4
14025,104,232,1680,-44,13,-3
14030,112,208,1704,-45,13,-4
14035,112,208,1672,-45,15,-3
14040,72,224,1656,-43,15,-4
14045,104,240,1672,-43,16,-4
14050,112,192,1704,-44,16,-2
14055,120,200,1696,-45,17,-4
14060,96,240,1672,-46,17,-2
14065,120,176,1616,-46,17,-1
14070,112,224,1672,-46,18,-3
14075,128,216,1688,-45,17,-2
14080,104,240,1672,-46,18,-3
14085,88,240,1664,-44,17,-3
14090,112,232,1664,-45,17,-3
14095,104,224,1672,-45,15,-4
14100,120,208,1664,-44,15,-4
14105,88,224,1696,-46,14,-4
14110,96,240,1680,-44,15,-4
14115,120,224,1664,-44,15,-4
14120,80,216,1672,-44,15,-4
14125,88,232,1648,-44,16,-4
14130,112,240,1664,-44,16,-4
14135,112,240,1688,-45,15,-3
14140,104,224,1648,-44,14,-5
14145,104,240,1688,-46,13,-4
14150,112,240,1680,-49,15,-3
14155,128,232,1672,-50,15,-2
14160,112,232,1680,-53,16,-2
14165,128,224,1672,-55,18,-4
14170,160,216,1736,-56,19,-3
14175,120,216,1688,-57,18,-3
14180,128,200,1704,-57,18,-4
14185,96,224,1688,-55,19,-4
14190,104,224,1664,-55,17,-6
14195,112,232,1688,-53,16,-5
14200,96,216,1672,-54,16,-6
14205,120,224,1656,-53,14,-7
14210,96,216,1704,-51,14,-6
14215,112,224,1672,-49,15,-7
14220,112,200,1624,-48,14,-8
14225,120,224,1696,-45,14,-8
14230,80,224,1648,-45,14,-7
14235,80,216,1672,-41,14,-7
14240,104,256,1672,-39,16,-8
14245,104,224,1696,-37,16,-7
14250,88,232,1680,-36,17,-7
14255,104,248,1648,-38,18,-6
14260,112,248,1648,-41,17,-5
14265,128,200,1672,-44,19,-4
14270,104,224,1680,-49,20,-4
14275,88,232,1688,-52,20,-4
14280,104,176,1656,-54,20,-4
14285,104,208,1704,-58,21,-5
14290,104,208,1680,-60,21,-5
14295,112,216,1680,-59,23,-5
14300,104,200,1688,-59,23,-5
14305,112,192,1696,-55,24,-6
14310,112,200,1648,-52,24,-5
14315,112,192,1672,-49,23,-5
14320,120,184,1640,-45,24,-6
14325,88,232,1672,-44,24,-5
14330,88,208,1648,-44,25,-4
14335,48,168,1632,-43,25,-4
14340,96,224,1640,-40,26,-6
14345,104,224,1664,-38,24,-4
14350,88,240,1640,-36,22,-5
14355,96,224,1680,-30,22,-4
14360,104,232,1648,-27,20,-4
14365,80,240,1680,-28,20,-4
14370,144,232,1656,-29,19,-5
14375,112,248,1656,-30,19,-6
14380,88,240,1616,-34,19,-5
14385,128,224,1712,-37,20,-6
14390,128,256,1744,-39,20,-6
14395,104,232,1664,-40,19,-5
14400,112,232,1656,-42,19,-5
14405,104,264,1664,-45,18,-5
14410,104,232,1704,-46,18,-6
14415,104,232,1672,-45,16,-5
14420,104,216,1672,-44,15,-4
14425,104,232,1712,-45,15,-4
14430,104,240,1648,-46,15,-4
14435,112,232,1696,-46,15,-4
14440,88,256,1680,-49,14,-4
14445,80,240,1696,-47,14,-5
14450,96,232,1664,-48,14,-6
14455,112,216,1672,-49,17,-5
14460,104,232,1648,-52,18,-5
14465,104,216,1656,-53,18,-5
14470,104,224,1704,-53,19,-4
14475,104,224,1688,-54,19,-5
14480,80,208,1664,-55,19,-4
14485,104,200,1680,-54,20,-5
14490,112,208,1648,-54,20,-4
14495,112,184,1720,-55,19,-4
14500,104,240,1720,-56,20,-5
14505,88,232,1672,-55,19,-4
14510,104,208,1672,-51,18,-3
14515,112,216,1672,-52,19,-4
14520,104,224,1664,-50,16,-3
14525,88,240,1656,-49,17,-3
14530,104,224,1680,-48,18,-4
14535,120,232,1712,-48,18,-2
14540,120,232,1680,-46,21,-2
14545,128,216,1696,-46,20,-2
14550,104,200,1664,-45,19,-3
14555,128,240,1720,-45,20,-2
14560,104,216,1656,-46,19,-3
14565,88,224,1688,-48,21,-2
14570,80,232,1680,-50,22,-3
14575,104,224,1672,-53,23,-3
14580,104,216,1648,-54,23,-2
14585,112,224,1672,-53,23,-2
14590,88,232,1664,-53,21,-2
14595,88,240,1664,-52,18,-1
14600,96,200,1680,-51,16,-2
14605,104,232,1704,-49,15,-3
14610,64,224,1664,-48,14,-4
14615,104,216,1696,-49,12,-4
14620,104,216,1688,-49,12,-3
14625,112,200,1664,-52,12,-3
14630,112,208,1672,-53,14,-3
14635,128,184,1664,-53,13,-3
14640,112,200,1688,-50,12,-3
14645,104,216,1680,-48,14,-2
14650,96,200,1640,-45,15,-4
14655,96,200,1688,-41,13,-3
14660,120,240,1672,-37,11,-3
14665,120,248,1704,-35,9,-3
14670,120,232,1672,-33,8,-5
14675,96,248,1680,-35,11,-4
14680,112,248,1648,-37,8,-4
14685,136,240,1656,-41,8,-2
14690,128,240,1672,-44,13,-4
14695,120,232,1656,-46,13,-4
14700,96,240,1664,-44,13,-3
14705,104,208,1664,-43,13,-2
14710,88,256,1680,-42,12,-2
14715,64,224,1672,-42,12,-3
14720,120,240,1672,-43,12,-4
14725,112,232,1672,-46,10,-3
14730,112,232,1688,-47,13,-3
14735,88,240,1688,-49,14,-4
14740,96,248,1680,-50,13,-2
14745,96,232,1688,-49,13,-3
14750,104,240,1672,-50,13,-3
14755,120,216,1672,-51,13,-3
14760,104,240,1664,-52,13,-4
14765,88,240,1640,-52,15,-5
14770,112,240,1696,-51,16,-4
14775,96,232,1696,-51,16,-5
14780,112,208,1664,-51,17,-6
14785,112,200,1696,-49,18,-7
14790,128,200,1680,-48,18,-6
14795,112,200,1656,-49,17,-5
14800,96,200,1680,-47,19,-7
14805,112,224,1664,-48,19,-6
14810,72,248,1656,-48,19,-4
14815,104,192,1672,-47,20,-5
14820,96,184,1680,-48,20,-4
14825,96,224,1720,-48,20,-4
14830,112,200,1688,-48,20,-4
14835,120,208,1672,-48,21,-4
14840,96,208,1648,-47,20,-4
14845,104,224,1688,-46,22,-4
14850,88,216,1648,-48,21,-3
14855,88,232,1648,-47,21,-5
14860,96,192,1624,-46,22,-3
14865,80,208,1688,-45,23,-3
14870,112,208,1664,-43,22,-4
14875,136,200,1656,-40,22,-3
14880,144,224,1680,-40,22,-4
14885,136,184,1656,-37,21,-5
14890,96,208,1664,-35,21,-5
14895,96,176,1672,-30,24,-3
14900,96,184,1632,-30,21,-5
14905,112,200,1696,-28,20,-4
14910,112,200,1664,-23,21,-4
14915,136,192,1632,-23,19,-4
14920,128,216,1680,-22,17,-3
14925,120,208,1680,-21,16,-3
14930,112,216,1672,-23,15,-3
14935,216,184,1632,-25,14,-2
14940,120,248,1688,-25,13,-3
14945,128,248,1696,-27,12,-2
14950,120,232,1680,-27,12,-2
14955,112,224,1680,-28,11,-3
14960,136,232,1664,-32,9,-2
14965,112,240,1696,-33,10,-3
14970,144,232,1688,-34,10,-3
14975,104,240,1680,-35,9,-4
14980,120,232,1696,-33,9,-4
14985,96,232,1680,-32,11,-4
14990,120,208,1624,-30,10,-4
14995,80,256,1696,-30,10,-4
