timestamp,accel_x,accel_y,accel_z,gyro_x,gyro_y,gyro_z
0,-144,-2008,-568,-13,71,-6
5,-160,-2000,-576,-10,70,-5
10,-136,-2000,-568,-10,70,-7
15,-136,-1984,-560,-10,69,-5
20,-128,-2008,-560,-9,69,-5
25,-112,-1952,-640,-10,68,-2
30,-160,-2000,-560,-9,69,-3
35,-144,-2000,-536,-8,70,-4
40,-128,-1992,-544,-7,71,-4
45,-144,-2008,-560,-7,72,-4
50,-144,-2000,-560,-6,73,-5
55,-136,-1984,-552,-8,72,-4
60,-144,-2016,-552,-9,73,-5
65,-144,-1976,-568,-10,75,-5
70,-120,-2008,-560,-11,77,-5
75,-144,-2000,-576,-11,77,-3
80,-152,-1992,-544,-11,78,-3
85,-160,-1968,-584,-11,77,-5
90,-144,-1992,-568,-11,77,-4
95,-128,-2008,-568,-12,78,-4
100,-136,-2000,-568,-12,77,-4
105,-144,-2008,-552,-11,78,-4
110,-136,-2016,-552,-9,78,-3
115,-144,-2008,-568,-8,77,-4
120,-152,-1992,-544,-9,77,-3
125,-144,-2032,-560,-9,77,-3
130,-128,-2000,-576,-8,76,-4
135,-128,-2016,-560,-8,77,-3
140,-144,-2016,-544,-6,76,-3
145,-160,-1976,-560,-6,76,-4
150,-112,-2016,-568,-4,75,-3
155,-152,-2016,-552,-4,75,-3
160,-144,-1992,-568,-5,76,-3
165,-136,-2000,-584,-5,76,-4
170,-144,-2016,-528,-4,76,-3
175,-152,-1984,-528,-3,76,-3
180,-128,-2016,-568,-4,77,-5
185,-144,-2008,-552,-4,77,-3
190,-152,-2000,-584,-4,77,-4
195,-144,-1992,-560,-4,78,-3
200,-160,-1992,-528,-4,80,-3
205,-144,-2016,-544,-4,78,-4
210,-152,-1992,-544,-5,77,-2
215,-136,-2008,-552,-5,78,-1
220,-136,-2000,-536,-5,80,-3
225,-128,-2024,-552,-5,80,-4
230,-120,-2000,-544,-5,79,-2
235,-168,-1992,-560,-4,80,-3
240,-112,-1992,-536,-4,79,-1
245,-128,-2024,-528,-3,78,-2
250,-152,-2008,-552,-3,79,-2
255,-144,-2016,-552,-3,80,-2
260,-152,-2000,-552,-3,81,-1
265,-152,-2008,-528,-2,81,-3
270,-136,-1992,-552,-1,79,-2
275,-128,-1976,-552,-1,79,-3
280,-160,-1992,-568,1,78,-3
285,-152,-2032,-528,2,77,-1
290,-152,-2024,-552,2,76,-2
295,-136,-2016,-568,4,75,0
300,-136,-2008,-568,5,76,-1
305,-152,-1992,-568,5,77,1
310,-144,-1984,-560,3,77,0
315,-160,-2008,-552,1,76,0
320,-144,-1992,-560,1,77,-2
325,-160,-2008,-560,0,79,-1
330,-136,-1992,-560,-4,80,-1
335,-144,-2016,-568,-5,79,-3
340,-128,-2008,-560,-7,79,-4
345,-152,-2024,-544,-5,78,-3
350,-240,-2024,-504,-4,78,-4
355,-160,-2008,-528,-4,78,-6
360,-144,-2000,-544,-2,76,-6
365,-160,-2008,-552,-2,76,-5
370,-152,-2000,-560,-2,75,-4
375,-160,-1992,-560,-1,76,-3
380,-152,-2000,-544,-3,74,-2
385,-152,-1968,-536,-3,73,-2
390,-120,-2008,-536,-4,73,-2
395,-144,-2000,-568,-4,73,1
400,-160,-1984,-560,-4,73,3
405,-144,-1984,-544,-5,73,2
410,-152,-2008,-528,-4,74,3
415,-144,-1976,-560,-2,72,2
420,-136,-1992,-528,-1,73,0
425,-136,-1984,-528,0,73,0
430,-128,-2024,-536,1,74,-2
435,-128,-1992,-560,0,74,-4
440,-144,-2000,-544,-2,74,-5
445,-120,-2024,-528,-4,73,-7
450,-136,-1992,-536,-5,75,-6
455,-128,-2032,-536,-6,76,-5
460,-144,-1976,-552,-8,77,-5
465,-160,-2000,-528,-8,77,-5
470,-152,-1992,-560,-9,76,-4
475,-176,-2016,-560,-9,77,-3
480,-144,-2016,-544,-7,76,-3
485,-152,-2008,-544,-6,73,-3
490,-152,-1984,-536,-5,73,-2
495,-152,-2008,-544,-4,72,-1
500,-176,-2000,-528,-1,69,-1
505,-128,-2032,-536,-3,67,-1
510,-144,-2000,-544,-2,67,-2
515,-176,-1976,-568,-2,65,-2
520,-144,-1992,-552,0,63,-3
525,-144,-2016,-544,-2,64,-4
530,-144,-2000,-536,-2,64,-4
535,-144,-2008,-560,-2,65,-4
540,-120,-2016,-528,-2,65,-4
545,-120,-2024,-544,-4,65,-5
550,-144,-1992,-552,-5,67,-5
555,-144,-2024,-552,-5,67,-5
560,-112,-2000,-552,-5,67,-4
565,-200,-2016,-592,-5,67,-5
570,-152,-2032,-528,-5,67,-4
575,-128,-2016,-528,-4,69,-6
580,-152,-2008,-544,-4,68,-6
585,-136,-2008,-512,-4,68,-6
590,-136,-2000,-544,-4,68,-8
595,-144,-2024,-568,-3,66,-5
600,-144,-2000,-536,-3,65,-7
605,-152,-2016,-560,-2,65,-6
610,-160,-2016,-544,-1,66,-4
615,-168,-2008,-552,-2,64,-4
620,-136,-1984,-576,-3,64,-5
625,-176,-1984,-568,-2,64,-4
630,-152,-1984,-576,-3,63,-3
635,-136,-2000,-536,-4,63,-5
640,-160,-2008,-552,-5,63,-5
645,-128,-2016,-528,-6,64,-6
650,-128,-1984,-544,-7,64,-6
655,-160,-1992,-528,-7,64,-7
660,-144,-1992,-536,-8,64,-7
665,-144,-2008,-552,-8,64,-8
670,-160,-2008,-560,-8,65,-8
675,-168,-1992,-568,-8,65,-7
680,-136,-2008,-552,-9,64,-6
685,-144,-2008,-552,-9,64,-6
690,-152,-2016,-568,-9,65,-5
695,-152,-1992,-536,-10,65,-6
700,-152,-2000,-528,-9,64,-5
705,-160,-2008,-544,-9,65,-4
710,-176,-2016,-544,-9,64,-3
715,-144,-2024,-568,-9,62,-4
720,-144,-2000,-552,-8,60,-5
725,-128,-2000,-552,-8,60,-5
730,-128,-1992,-552,-7,60,-5
735,-144,-2008,-520,-6,60,-6
740,-144,-2000,-528,-7,60,-4
745,-128,-2008,-544,-8,60,-6
750,-144,-2000,-544,-7,59,-7
755,-152,-1992,-568,-7,59,-6
760,-168,-1992,-552,-9,57,-7
765,-136,-2008,-544,-9,57,-7
770,-144,-2008,-536,-10,59,-7
775,-152,-2016,-568,-9,58,-8
780,-168,-1992,-528,-10,58,-7
785,-136,-1992,-536,-12,57,-10
790,-128,-2008,-544,-13,56,-9
795,-128,-2000,-552,-15,57,-8
800,-128,-2000,-528,-15,57,-8
805,-152,-2024,-536,-14,56,-8
810,-144,-1992,-552,-14,58,-7
815,-144,-2008,-560,-14,57,-6
820,-144,-1992,-552,-14,58,-7
825,-120,-2016,-544,-13,58,-7
830,-136,-2024,-552,-12,59,-7
835,-160,-1992,-560,-13,58,-8
840,-144,-1992,-552,-12,59,-6
845,-128,-2008,-536,-12,57,-5
850,-136,-2008,-560,-12,57,-7
855,-144,-2008,-568,-12,59,-7
860,-128,-2032,-552,-13,58,-8
865,-128,-2000,-536,-13,60,-7
870,-120,-2008,-552,-12,60,-7
875,-136,-2016,-536,-12,59,-6
880,-128,-2016,-552,-12,59,-6
885,-152,-2000,-544,-13,60,-6
890,-120,-2008,-552,-11,58,-4
895,-160,-2024,-472,-9,59,-4
900,-128,-2008,-520,-8,58,-3
905,-144,-2024,-536,-7,58,-2
910,-128,-2008,-536,-8,60,-3
915,-144,-1992,-536,-9,59,-3
920,-136,-2000,-552,-10,61,-5
925,-136,-2000,-592,-11,61,-5
930,-152,-2008,-528,-11,63,-5
935,-128,-2008,-504,-12,64,-6
940,-136,-2016,-528,-12,64,-7
945,-136,-2008,-560,-11,65,-7
950,-136,-2016,-528,-9,64,-8
955,-120,-2008,-536,-8,66,-8
960,-136,-2000,-560,-7,66,-7
965,-136,-2008,-552,-8,65,-5
970,-144,-2008,-544,-7,66,-4
975,-168,-1992,-536,-9,65,-2
980,-152,-1992,-544,-9,64,-2
985,-128,-2008,-536,-11,63,-1
990,-136,-1992,-552,-12,61,-1
995,-128,-1992,-528,-12,62,1
1000,-144,-2008,-568,-12,62,3
1005,-88,-1960,-536,-12,62,2
1010,-104,-2016,-528,-13,62,1
1015,-104,-2016,-544,-11,63,1
1020,-104,-2008,-560,-9,62,-1
1025,-128,-2000,-520,-8,63,-1
1030,-136,-2024,-552,-8,65,-2
1035,-144,-1984,-512,-7,65,-4
1040,-152,-2000,-536,-10,66,-5
1045,-128,-2016,-536,-10,67,-5
1050,-128,-2016,-552,-11,68,-5
1055,-152,-1992,-544,-13,70,-5
1060,-160,-2000,-544,-12,70,-5
1065,-144,-2016,-528,-13,69,-5
1070,-152,-2000,-560,-14,69,-4
1075,-176,-2000,-536,-12,68,-5
1080,-168,-2016,-512,-11,68,-3
1085,-136,-2000,-536,-7,67,-1
1090,-144,-2000,-560,-6,66,0
1095,-136,-1992,-560,-4,64,-1
1100,-160,-2016,-520,-3,61,0
1105,-152,-2000,-536,-1,59,-2
1110,-136,-1992,-520,0,58,-1
1115,-160,-1992,-544,-1,58,-2
1120,-128,-2016,-568,0,57,-2
1125,-136,-2016,-560,-1,58,-2
1130,-152,-2000,-568,-3,58,-3
1135,-144,-2016,-544,-4,60,-2
1140,-144,-2000,-560,-7,61,-2
1145,-128,-2008,-536,-8,62,-4
1150,-136,-1992,-544,-11,63,-4
1155,-168,-2000,-536,-13,65,-4
1160,-160,-1976,-568,-13,65,-4
1165,-136,-1992,-576,-15,65,-4
1170,-144,-2000,-536,-14,64,-3
1175,-160,-1992,-552,-14,64,-5
1180,-144,-2000,-560,-13,64,-5
1185,-160,-1992,-552,-13,64,-4
1190,-144,-2008,-536,-14,62,-6
1195,-144,-2016,-544,-12,61,-4
1200,-136,-2000,-576,-13,62,-3
1205,-144,-2008,-544,-11,62,-4
1210,-120,-2000,-536,-9,60,-3
1215,-144,-2008,-528,-9,60,-1
1220,-136,-1992,-536,-7,61,-3
1225,-144,-2008,-544,-6,62,-1
1230,-120,-1992,-528,-7,62,-2
1235,-120,-2008,-552,-7,63,-1
1240,-160,-2000,-536,-8,65,-2
1245,-136,-2008,-552,-7,64,-1
1250,-136,-2008,-520,-9,67,-1
1255,-152,-1984,-544,-11,66,-2
1260,-136,-2000,-552,-11,67,-1
1265,-120,-2016,-536,-12,68,-3
1270,-152,-2000,-560,-14,68,-3
1275,-152,-1992,-552,-14,70,-2
1280,-152,-2008,-536,-14,71,-2
1285,-136,-2032,-560,-15,71,-1
1290,-152,-2016,-536,-15,70,-2
1295,-128,-2000,-584,-14,71,-1
1300,-136,-2008,-584,-12,70,-2
1305,-136,-1992,-536,-11,70,-3
1310,-136,-2008,-544,-10,69,-1
1315,-128,-2000,-552,-10,70,-1
1320,-144,-2000,-520,-8,69,-1
1325,-136,-2016,-544,-6,67,-1
1330,-192,-2008,-520,-6,66,-1
1335,-136,-2000,-536,-6,66,-1
1340,-136,-1992,-536,-4,65,-1
1345,-128,-2016,-528,-5,65,-1
1350,-160,-2016,-536,-4,65,-2
1355,-144,-2016,-536,-5,66,-1
1360,-160,-1976,-560,-6,67,1
1365,-160,-1984,-552,-5,66,-1
1370,-128,-2016,-568,-5,67,0
1375,-136,-1992,-552,-5,69,0
1380,-144,-2024,-520,-6,68,0
1385,-152,-2000,-568,-5,67,1
1390,-144,-2008,-528,-7,67,0
1395,-136,-1992,-536,-6,68,-1
1400,-168,-1984,-552,-7,67,0
1405,-128,-1992,-536,-7,67,-2
1410,-144,-2016,-552,-5,68,-1
1415,-136,-2016,-568,-5,69,-1
1420,-136,-2024,-536,-5,68,-1
1425,-136,-2008,-536,-4,69,-1
1430,-136,-2000,-544,-4,69,0
1435,-128,-2000,-520,-4,69,0
1440,-136,-2048,-520,-3,71,0
1445,-144,-1984,-560,-5,70,0
1450,-152,-2000,-552,-3,70,1
1455,-144,-2024,-544,-4,70,3
1460,-160,-2024,-536,-3,72,1
1465,-152,-2016,-528,-3,71,1
1470,-136,-2008,-544,-5,70,1
1475,-120,-2008,-544,-5,71,0
1480,-152,-1992,-536,-4,70,0
1485,-136,-2016,-544,-4,70,0
1490,-152,-1984,-536,-3,70,0
1495,-136,-2040,-520,-1,69,2
1500,-160,-1984,-568,0,67,-1
1505,-160,-2016,-520,1,68,0
1510,-152,-1992,-544,1,68,0
1515,-160,-2000,-528,2,66,2
1520,-152,-2024,-536,5,67,3
1525,-168,-2016,-536,4,65,2
1530,-160,-1992,-560,3,67,1
1535,-136,-2000,-560,0,69,1
1540,-136,-2016,-528,-2,69,2
1545,-144,-1968,-552,-4,70,-1
1550,-72,-1920,-512,-8,71,-2
1555,-136,-2008,-536,-8,70,-2
1560,-152,-2016,-528,-10,72,-3
1565,-152,-2008,-536,-10,70,-4
1570,-160,-2000,-528,-8,71,-3
1575,-152,-2024,-568,-7,68,-3
1580,-152,-2016,-544,-6,67,-2
1585,-144,-2040,-560,-5,67,-1
1590,-160,-1992,-520,-3,66,1
1595,-144,-2000,-552,-6,65,1
1600,-96,-2000,-544,-6,64,3
1605,-152,-2000,-536,-6,62,4
1610,-144,-2008,-528,-8,61,4
1615,-136,-2008,-544,-10,61,3
1620,-144,-2008,-528,-10,61,3
1625,-144,-2024,-528,-11,60,5
1630,-152,-2000,-544,-11,59,4
1635,-136,-2000,-536,-10,59,3
1640,-144,-2000,-528,-9,59,2
1645,-152,-2008,-544,-9,61,1
1650,-160,-1984,-528,-10,60,-1
1655,-176,-2024,-528,-8,61,-2
1660,-136,-2080,-608,-8,64,-3
1665,-152,-2000,-504,-10,63,-3
1670,-176,-2032,-552,-10,66,-4
1675,-152,-2056,-536,-12,65,-3
1680,-168,-2016,-528,-12,65,-2
1685,-184,-2000,-584,-12,66,-1
1690,-200,-2048,-528,-10,66,-1
1695,-120,-2024,-544,-10,65,0
1700,-176,-1992,-552,-9,65,1
1705,-192,-2008,-504,-6,62,1
1710,-168,-2008,-520,-6,61,2
1715,-168,-2016,-536,-4,60,3
1720,-152,-2024,-552,-2,59,2
1725,-128,-2008,-528,-1,57,2
1730,-112,-1960,-488,-1,56,2
1735,-104,-2024,-584,-1,56,3
1740,-80,-1984,-488,-2,55,2
1745,-160,-1992,-536,-2,54,1
1750,-128,-2000,-496,-4,55,0
1755,-112,-2016,-496,-5,56,-1
1760,-168,-1960,-552,-7,57,-3
1765,-168,-1992,-520,-8,59,-2
1770,-160,-2040,-560,-10,60,-3
1775,-112,-2016,-560,-10,62,-3
1780,-136,-1984,-544,-9,63,-3
1785,-128,-2000,-528,-8,62,-4
1790,-136,-2016,-528,-9,63,-5
1795,-168,-2016,-504,-6,62,-5
1800,-152,-2040,-536,-5,61,-3
1805,-104,-1920,-616,-3,60,-5
1810,-168,-2024,-552,-1,59,-6
1815,-184,-2016,-608,1,58,-4
1820,-160,-1968,-584,2,58,-3
1825,-184,-1984,-664,2,56,-4
1830,-168,-2024,-512,3,54,-2
1835,-176,-2024,-512,3,54,-2
1840,-136,-2000,-544,4,52,-3
1845,-168,-1992,-536,5,52,-3
1850,-176,-2024,-536,6,52,-3
1855,-160,-1976,-656,7,54,-3
1860,-168,-1992,-568,6,55,-6
1865,-136,-2008,-528,5,54,-6
1870,-152,-2016,-520,4,55,-5
1875,-176,-2000,-528,2,54,-7
1880,-152,-2032,-504,0,56,-7
1885,-120,-1976,-536,-2,56,-7
1890,-88,-1968,-552,-2,57,-8
1895,-168,-2000,-512,-4,57,-7
1900,-168,-2032,-600,-4,58,-7
1905,-88,-2032,-448,-5,60,-8
1910,-144,-2008,-512,-4,59,-7
1915,-200,-2024,-512,-3,58,-7
1920,-152,-1936,-520,-3,59,-7
1925,-144,-2016,-576,-2,59,-8
1930,-96,-2024,-552,-1,59,-6
1935,-128,-2008,-536,0,59,-5
1940,-152,-2000,-536,2,58,-5
1945,-168,-2008,-512,2,57,-5
1950,-160,-2000,-544,2,57,-5
1955,-160,-1936,-576,0,57,-6
1960,-192,-2056,-528,1,57,-5
1965,-104,-2008,-584,1,58,-4
1970,-184,-1976,-560,1,56,-6
1975,-120,-1984,-632,0,57,-6
1980,-128,-2032,-496,-1,58,-5
1985,-128,-2048,-632,-1,59,-5
1990,-176,-2048,-504,-3,61,-4
1995,-112,-2064,-488,-3,61,-5
2000,-168,-2048,-432,-4,62,-4
2005,-144,-1960,-472,-5,63,-3
2010,-120,-1992,-568,-7,63,-6
2015,-152,-2000,-536,-7,63,-6
2020,-176,-2008,-544,-9,64,-5
2025,-152,-2000,-544,-10,64,-7
2030,-136,-2024,-536,-10,65,-8
2035,-72,-2144,-360,-10,65,-6
2040,-112,-2000,-480,-11,64,-6
2045,-128,-2024,-568,-11,61,-7
2050,-120,-1968,-616,-11,63,-7
2055,-240,-2024,-592,-10,61,-7
2060,-88,-2024,-584,-9,60,-6
2065,-232,-1960,-560,-10,60,-4
2070,-104,-1984,-496,-10,60,-4
2075,-144,-2016,-480,-11,61,-2
2080,-96,-1992,-376,-10,61,-2
2085,-144,-1984,-544,-10,60,-2
2090,-144,-2016,-520,-10,59,-2
2095,-152,-2000,-544,-11,59,-1
2100,-160,-2008,-512,-11,59,-1
2105,-136,-1976,-592,-13,59,-4
2110,-144,-2008,-520,-15,59,-3
2115,-176,-2016,-512,-15,58,-2
2120,-168,-2008,-520,-13,58,-1
2125,-168,-2024,-576,-12,58,-2
2130,-216,-1976,-576,-11,59,-2
2135,-168,-2000,-536,-6,58,-1
2140,-152,-2000,-488,-7,57,0
2145,-168,-1992,-520,-7,56,-1
2150,-168,-1992,-544,-9,57,-2
2155,-176,-2008,-576,-7,59,-1
2160,-160,-2008,-544,-7,59,-1
2165,-168,-2000,-520,-7,58,-2
2170,-152,-1976,-544,-9,60,-2
2175,-152,-1992,-520,-11,62,-3
2180,-216,-2088,-504,-13,64,-5
2185,-144,-2000,-528,-14,66,-7
2190,-160,-2000,-536,-13,67,-8
2195,-152,-2000,-520,-13,65,-7
2200,-160,-1992,-576,-15,65,-9
2205,-152,-2008,-496,-14,66,-7
2210,-168,-2032,-520,-14,64,-6
2215,-152,-2016,-528,-13,63,-6
2220,-160,-2008,-536,-13,64,-6
2225,-160,-2000,-528,-13,62,-4
2230,-168,-2024,-528,-14,62,-4
2235,-168,-1992,-560,-18,62,-4
2240,-144,-2016,-504,-21,62,-2
2245,-160,-2000,-544,-21,62,-2
2250,-168,-2008,-528,-22,62,-4
2255,-144,-2000,-528,-22,62,-4
2260,-152,-2016,-536,-22,60,-4
2265,-160,-2000,-512,-23,63,-4
2270,-128,-2032,-520,-22,64,-4
2275,-152,-2008,-552,-20,66,-5
2280,-152,-2016,-528,-17,68,-5
2285,-128,-2024,-528,-16,69,-4
2290,-152,-2000,-536,-13,72,-5
2295,-136,-2008,-520,-13,75,-5
2300,-136,-2024,-536,-13,75,-4
2305,-152,-2008,-520,-13,76,-3
2310,-160,-1992,-520,-14,77,-2
2315,-144,-2008,-536,-14,79,-2
2320,-168,-2008,-520,-12,79,-1
2325,-160,-1992,-544,-10,78,1
2330,-152,-2032,-528,-10,79,0
2335,-168,-2008,-536,-11,78,1
2340,-176,-1984,-536,-11,77,2
2345,-152,-1992,-520,-11,76,2
2350,-152,-1992,-544,-12,72,2
2355,-176,-2016,-536,-12,70,0
2360,-168,-2008,-536,-14,69,-2
2365,-128,-2024,-528,-15,67,-1
2370,-144,-2000,-520,-15,66,-1
2375,-136,-2008,-520,-17,66,-4
2380,-152,-2000,-544,-20,64,-4
2385,-144,-2024,-528,-21,66,-6
2390,-152,-2008,-520,-21,67,-7
2395,-152,-2008,-536,-20,68,-7
2400,-160,-2024,-520,-20,68,-5
2405,-144,-2000,-520,-20,69,-5
2410,-176,-2000,-528,-18,70,-3
2415,-152,-2008,-520,-17,68,-4
2420,-144,-2024,-544,-15,68,-3
2425,-160,-2000,-544,-13,68,-3
2430,-128,-2016,-528,-14,67,-4
2435,-176,-2008,-552,-12,67,-4
2440,-160,-2016,-520,-11,66,-2
2445,-144,-2024,-520,-9,66,-1
2450,-136,-2024,-536,-7,64,-3
2455,-168,-1992,-520,-5,65,-3
2460,-160,-2008,-520,-3,63,-4
2465,-152,-2008,-520,-4,62,-2
2470,-176,-2000,-520,-5,63,-3
2475,-144,-2008,-536,-6,62,-3
2480,-144,-1992,-552,-6,63,-3
2485,-136,-2032,-536,-6,62,-3
2490,-152,-1992,-520,-5,62,-4
2495,-152,-2024,-528,-6,60,-4
2500,-184,-2000,-520,-8,63,-6
2505,-176,-1984,-520,-11,64,-5
2510,-152,-2008,-528,-12,66,-5
2515,-152,-2008,-504,-12,67,-6
2520,-160,-1984,-528,-13,67,-6
2525,-168,-2016,-560,-15,68,-5
2530,-112,-1976,-512,-16,68,-4
2535,-160,-2024,-528,-16,69,-3
2540,-160,-2000,-536,-16,68,-3
2545,-152,-2016,-536,-17,69,-4
2550,-136,-2040,-512,-15,69,-3
2555,-144,-2024,-552,-16,70,-3
2560,-176,-2008,-536,-16,69,-3
2565,-136,-2008,-528,-14,69,-3
2570,-136,-2024,-552,-14,67,-4
2575,-128,-2016,-552,-14,66,-2
2580,-144,-2016,-528,-15,65,-4
2585,-152,-2000,-552,-17,65,-5
2590,-136,-2008,-528,-17,64,-4
2595,-136,-2000,-536,-18,64,-4
2600,-144,-2032,-544,-16,65,-5
2605,-160,-2000,-528,-17,65,-5
2610,-160,-2008,-528,-17,64,-5
2615,-144,-2016,-552,-18,63,-5
2620,-152,-2000,-520,-17,64,-6
2625,-144,-2008,-536,-18,65,-6
2630,-120,-2016,-520,-19,64,-6
2635,-200,-2016,-504,-20,64,-6
2640,-160,-2008,-568,-20,64,-5
2645,-152,-2016,-560,-20,63,-5
2650,-152,-2016,-528,-21,64,-5
2655,-120,-2008,-536,-19,64,-5
2660,-160,-2008,-536,-19,64,-6
2665,-144,-1976,-512,-19,64,-6
2670,-144,-2000,-544,-17,64,-5
2675,-160,-2008,-544,-17,64,-5
2680,-144,-2024,-536,-18,66,-4
2685,-152,-2000,-536,-16,66,-4
2690,-136,-2008,-520,-16,66,-3
2695,-144,-2016,-504,-14,66,-3
2700,-136,-2016,-528,-14,66,-3
2705,-144,-2008,-528,-13,66,-4
2710,-120,-2016,-544,-14,66,-3
2715,-144,-2032,-528,-13,66,-2
2720,-152,-2016,-520,-13,66,-2
2725,-136,-2016,-528,-13,66,-2
2730,-128,-2016,-536,-14,66,-3
2735,-160,-2024,-528,-13,67,-3
2740,-152,-2008,-544,-14,68,-2
2745,-160,-1984,-504,-15,69,-1
2750,-152,-2008,-536,-16,69,0
2755,-152,-2016,-528,-16,70,-2
2760,-160,-2000,-552,-15,69,-1
2765,-152,-2000,-544,-14,69,-2
2770,-144,-2016,-528,-14,67,0
2775,-144,-1992,-520,-12,68,-1
2780,-184,-2016,-528,-14,66,-1
2785,-152,-2008,-544,-15,66,0
2790,-160,-1976,-552,-14,67,-1
2795,-144,-2016,-512,-14,66,-1
2800,-136,-2008,-552,-14,68,-2
2805,-144,-2000,-536,-17,70,-4
2810,-176,-2000,-536,-19,70,-3
2815,-176,-1992,-560,-22,71,-5
2820,-152,-2016,-536,-21,72,-5
2825,-160,-1992,-528,-21,74,-6
2830,-128,-2008,-536,-19,74,-5
2835,-160,-2000,-536,-17,75,-6
2840,-136,-2024,-536,-15,74,-5
2845,-136,-2016,-536,-15,73,-3
2850,-152,-2000,-528,-14,72,-3
2855,-288,-2088,-472,-13,71,-4
2860,-184,-2008,-552,-14,70,-3
2865,-136,-2016,-536,-15,69,-2
2870,-160,-2016,-544,-16,67,-1
2875,-184,-1992,-528,-18,67,0
2880,-136,-1984,-520,-18,65,-3
2885,-152,-2008,-528,-20,65,-2
2890,-144,-2016,-544,-21,66,-3
2895,-176,-1992,-568,-22,67,-2
2900,-136,-1984,-528,-22,67,-2
2905,-136,-2000,-520,-22,68,-4
2910,-128,-2016,-520,-20,67,-5
2915,-136,-2016,-560,-21,68,-6
2920,-136,-2016,-536,-21,70,-6
2925,-144,-1992,-528,-22,69,-7
2930,-152,-2008,-528,-22,70,-8
2935,-152,-2008,-544,-24,70,-10
2940,-152,-2024,-544,-24,72,-8
2945,-144,-1992,-552,-23,73,-7
2950,-152,-2000,-520,-22,73,-8
2955,-152,-2008,-536,-22,72,-7
2960,-160,-1976,-528,-19,71,-6
2965,-120,-2000,-504,-17,70,-6
2970,-144,-2032,-544,-16,68,-5
2975,-152,-2016,-544,-14,67,-4
2980,-136,-2008,-520,-11,63,-5
2985,-128,-1992,-528,-12,63,-4
2990,-160,-1992,-528,-11,61,-4
2995,-152,-2016,-536,-10,61,-6
3000,-144,-2000,-544,-11,59,-5
3005,-152,-2000,-544,-10,58,-6
3010,-168,-2016,-544,-13,59,-6
3015,-136,-2008,-536,-15,58,-5
3020,-152,-2008,-552,-16,59,-7
3025,-160,-2008,-552,-19,62,-7
3030,-136,-2016,-536,-21,62,-8
3035,-136,-2016,-560,-23,64,-9
3040,-128,-1984,-528,-24,65,-11
3045,-128,-2032,-528,-25,66,-11
3050,-136,-2016,-536,-24,66,-11
3055,-160,-2008,-544,-23,67,-11
3060,-160,-1992,-576,-23,66,-10
3065,-160,-2000,-560,-21,65,-9
3070,-152,-1984,-576,-20,64,-9
3075,-120,-2016,-520,-18,63,-11
3080,-144,-2008,-560,-17,64,-11
3085,-160,-2000,-520,-16,63,-11
3090,-144,-2016,-528,-15,62,-10
3095,-160,-2008,-552,-15,60,-11
3100,-136,-2032,-560,-14,60,-10
3105,-152,-1992,-544,-14,59,-10
3110,-144,-1984,-544,-14,59,-10
3115,-152,-2016,-552,-16,58,-10
3120,-160,-2008,-544,-17,59,-10
3125,-136,-2016,-544,-17,58,-10
3130,-128,-1992,-544,-18,59,-10
3135,-152,-2016,-544,-18,61,-10
3140,-136,-2000,-560,-19,63,-9
3145,-144,-1976,-520,-20,62,-11
3150,-152,-2016,-544,-21,63,-11
3155,-144,-2008,-552,-20,64,-11
3160,-144,-1992,-552,-22,65,-10
3165,-144,-2000,-528,-22,65,-11
3170,-152,-2008,-560,-22,65,-10
3175,-160,-2016,-528,-24,64,-10
3180,-152,-2048,-496,-22,65,-10
3185,-144,-1984,-520,-23,65,-12
3190,-176,-2000,-568,-23,66,-10
3195,-128,-2016,-544,-21,66,-10
3200,-128,-2016,-536,-21,65,-10
3205,-160,-1992,-528,-22,66,-9
3210,-152,-2000,-536,-22,65,-9
3215,-144,-2008,-536,-21,64,-9
3220,-152,-1992,-520,-21,62,-9
3225,-144,-1984,-576,-21,62,-9
3230,-120,-2008,-536,-22,62,-10
3235,-152,-1992,-544,-23,61,-9
3240,-160,-2024,-528,-24,63,-8
3245,-144,-2024,-552,-24,62,-10
3250,-136,-1992,-520,-23,63,-11
3255,-160,-1984,-536,-22,62,-11
3260,-160,-2000,-560,-22,63,-10
3265,-128,-2032,-552,-22,63,-11
3270,-160,-2000,-584,-22,64,-11
3275,-168,-1984,-552,-22,63,-11
3280,-168,-2016,-536,-21,61,-10
3285,-144,-2008,-560,-22,60,-10
3290,-88,-2016,-496,-22,62,-9
3295,-144,-2008,-536,-22,61,-9
3300,-136,-2008,-536,-23,62,-10
3305,-144,-2008,-568,-24,62,-10
3310,-168,-2008,-552,-24,61,-9
3315,-144,-1992,-544,-23,62,-8
3320,-144,-2016,-568,-25,62,-8
3325,-136,-2032,-528,-24,60,-9
3330,-160,-2000,-536,-23,59,-8
3335,-160,-1992,-536,-23,59,-9
3340,-128,-2000,-520,-23,60,-9
3345,-160,-1992,-576,-22,60,-9
3350,-168,-2000,-584,-22,60,-9
3355,-152,-1992,-552,-20,60,-9
3360,-160,-2000,-528,-19,60,-9
3365,-160,-2000,-536,-19,61,-8
3370,-168,-1984,-536,-19,62,-8
3375,-144,-2008,-528,-20,61,-9
3380,-136,-1984,-568,-20,63,-9
3385,-120,-2000,-536,-20,63,-8
3390,-144,-2000,-544,-20,64,-8
3395,-136,-1992,-520,-22,64,-7
3400,-112,-2008,-488,-22,62,-7
3405,-160,-1992,-528,-22,63,-8
3410,-144,-2000,-544,-19,62,-9
3415,-112,-2024,-552,-20,61,-8
3420,-144,-2000,-544,-20,60,-8
3425,-152,-1992,-560,-20,60,-6
3430,-152,-1992,-536,-17,59,-5
3435,-128,-2024,-536,-14,59,-4
3440,-144,-2008,-552,-15,60,-3
3445,-144,-2000,-552,-15,61,-3
3450,-152,-1992,-576,-16,61,-5
3455,-144,-1992,-576,-18,63,-5
3460,-136,-1992,-560,-21,63,-6
3465,-152,-2000,-552,-23,65,-7
3470,-144,-2008,-544,-25,67,-8
3475,-136,-2000,-528,-25,67,-9
3480,-128,-2000,-576,-25,67,-9
3485,-136,-1992,-528,-23,66,-9
3490,-120,-2024,-544,-21,67,-9
3495,-144,-2008,-568,-21,67,-7
3500,-152,-1984,-528,-19,67,-7
3505,-152,-2000,-576,-19,65,-7
3510,-80,-2032,-560,-18,66,-6
3515,-152,-2000,-544,-20,65,-4
3520,-144,-1984,-552,-20,66,-4
3525,-136,-1976,-552,-20,66,-2
3530,-152,-2008,-560,-21,64,-1
3535,-152,-1984,-544,-20,63,0
3540,-128,-2008,-552,-20,64,0
3545,-128,-2000,-552,-19,66,-1
3550,-136,-2000,-560,-17,65,-1
3555,-136,-1984,-552,-13,65,-2
3560,-152,-1960,-568,-11,66,-4
3565,-128,-2032,-552,-11,67,-4
3570,-152,-2008,-536,-9,68,-5
3575,-144,-2000,-568,-10,68,-5
3580,-144,-2000,-568,-9,69,-4
3585,-144,-2008,-560,-10,70,-4
3590,-160,-2000,-536,-10,68,-6
3595,-120,-2000,-560,-11,68,-6
3600,-152,-1968,-536,-11,69,-6
3605,-152,-2016,-544,-10,69,-6
3610,-160,-2008,-528,-10,67,-5
3615,-160,-2016,-552,-10,67,-4
3620,-160,-2008,-560,-10,68,-3
3625,-152,-2008,-536,-9,65,-4
3630,-152,-2000,-544,-9,65,-3
3635,-168,-1984,-560,-10,65,-2
3640,-136,-2016,-536,-10,62,-2
3645,-128,-2000,-544,-9,63,-2
3650,-144,-1984,-560,-7,60,-3
3655,-144,-2016,-584,-7,60,-2
3660,-152,-1992,-544,-8,60,-2
3665,-136,-2000,-576,-8,60,-2
3670,-136,-2016,-544,-8,59,-3
3675,-136,-2016,-568,-8,61,-2
3680,-152,-2000,-552,-9,61,-3
3685,-168,-2000,-552,-9,61,-3
3690,-128,-2000,-552,-10,62,-3
3695,-144,-2000,-544,-10,63,-4
3700,-160,-2016,-528,-8,64,-4
3705,-160,-2000,-576,-6,64,-4
3710,-152,-2016,-568,-4,63,-4
3715,-152,-2032,-568,-4,65,-4
3720,-104,-2024,-560,-2,65,-5
3725,-136,-2016,-536,-2,64,-4
3730,-144,-2000,-544,-1,63,-5
3735,-136,-2008,-544,-1,63,-3
3740,-136,-2016,-552,0,64,-3
3745,-120,-1984,-552,0,62,-2
3750,-120,-2008,-536,-1,63,-2
3755,-120,-2016,-544,-2,65,-1
3760,-144,-1984,-552,-3,67,0
3765,-152,-2040,-552,-4,66,0
3770,-136,-2000,-560,-5,69,-1
3775,-136,-2016,-544,-6,69,0
3780,-160,-1984,-568,-6,70,-2
3785,-160,-1992,-576,-7,73,-2
3790,-144,-2008,-544,-10,75,-1
3795,-128,-1992,-544,-13,79,-2
3800,-152,-2008,-576,-17,81,-2
3805,-128,-2000,-536,-23,86,-2
3810,-160,-2000,-552,-30,92,-1
3815,-128,-2000,-552,-34,98,-2
3820,-152,-2016,-592,-36,101,-3
3825,-152,-2016,-568,-38,105,-3
3830,-128,-2016,-576,-38,107,-5
3835,-136,-2000,-600,-38,108,-8
3840,-152,-2008,-568,-36,108,-8
3845,-136,-2000,-592,-32,106,-11
3850,-160,-2000,-592,-27,103,-11
3855,-136,-2008,-584,-26,100,-12
3860,-128,-1992,-584,-25,96,-13
3865,-128,-1984,-584,-27,90,-14
3870,-120,-1992,-576,-30,87,-12
3875,-144,-1984,-616,-34,83,-13
3880,-152,-1992,-608,-38,79,-13
3885,-176,-1960,-592,-42,75,-12
3890,-168,-1968,-592,-46,71,-12
3895,-152,-1992,-600,-50,67,-11
3900,-152,-1968,-624,-57,64,-11
3905,-160,-1976,-576,-62,61,-11
3910,-152,-1976,-608,-70,58,-13
3915,-152,-1968,-600,-77,55,-13
3920,-144,-1976,-600,-84,52,-13
3925,-160,-1952,-600,-91,49,-13
3930,-168,-1976,-616,-99,46,-14
3935,-168,-1952,-584,-108,43,-13
3940,-152,-1944,-600,-116,40,-14
3945,-184,-2024,-592,-124,36,-15
3950,-152,-1984,-608,-131,33,-15
3955,-160,-1960,-624,-140,31,-16
3960,-152,-1984,-608,-147,27,-15
3965,-144,-1944,-616,-152,25,-17
3970,-136,-1960,-640,-159,23,-16
3975,-144,-1960,-592,-162,21,-18
3980,-144,-1960,-624,-165,18,-21
3985,-160,-1968,-616,-167,16,-21
3990,-160,-1976,-632,-171,15,-21
3995,-136,-1976,-632,-172,13,-22
4000,-120,-1984,-648,-173,13,-23
4005,-144,-1960,-616,-175,10,-22
4010,-152,-1952,-656,-178,12,-22
4015,-136,-1952,-656,-181,14,-20
4020,-112,-1976,-624,-181,14,-22
4025,-136,-1952,-656,-182,13,-23
4030,-136,-1976,-664,-183,10,-24
4035,-136,-1952,-672,-183,8,-23
4040,-144,-1968,-688,-183,8,-24
4045,-112,-1976,-648,-187,4,-24
4050,-136,-1960,-680,-189,4,-25
4055,-136,-1928,-720,-188,4,-26
4060,-168,-1944,-688,-191,3,-27
4065,-128,-1928,-648,-195,3,-27
4070,-128,-1968,-688,-197,6,-26
4075,-136,-1952,-696,-200,6,-26
4080,-144,-1912,-712,-201,4,-27
4085,-152,-1928,-712,-205,2,-24
4090,-104,-1928,-720,-208,1,-24
4095,-128,-1936,-704,-211,0,-23
4100,-128,-1904,-728,-215,-1,-22
4105,-120,-1904,-736,-219,-3,-23
4110,-128,-1944,-744,-223,-5,-21
4115,-136,-1904,-728,-230,-5,-22
4120,-88,-1928,-760,-239,-8,-19
4125,-128,-1904,-752,-249,-9,-18
4130,-112,-1912,-752,-263,-8,-18
4135,-128,-1896,-776,-276,-8,-20
4140,-112,-1880,-760,-292,-7,-18
4145,-112,-1864,-760,-308,-7,-19
4150,-120,-1872,-768,-325,-9,-20
4155,-112,-1880,-800,-340,-11,-20
4160,-120,-1848,-840,-355,-12,-18
4165,-88,-1864,-784,-366,-12,-18
4170,-128,-1864,-808,-378,-10,-20
4175,-136,-1856,-800,-392,-10,-21
4180,-112,-1864,-816,-410,-11,-22
4185,-128,-1848,-816,-426,-10,-23
4190,-136,-1864,-816,-441,-8,-23
4195,-112,-1848,-840,-455,-8,-24
4200,-104,-1864,-856,-464,-8,-20
4205,-120,-1912,-816,-471,-6,-21
4210,-112,-1888,-856,-471,-5,-16
4215,-112,-1864,-880,-471,-4,-12
4220,-112,-1856,-856,-468,1,-6
4225,-104,-1832,-888,-462,4,-5
4230,-128,-1824,-848,-466,8,-14
4235,-112,-1824,-864,-471,12,-18
4240,-128,-1832,-856,-476,13,-23
4245,-104,-1816,-856,-479,11,-24
4250,-128,-1824,-832,-479,10,-22
4255,-112,-1848,-840,-467,10,-21
4260,-144,-1800,-872,-460,12,-30
4265,-144,-1768,-848,-469,10,-44
4270,-240,-1768,-872,-506,10,-60
4275,-184,-1720,-816,-527,8,-62
4280,-152,-1728,-864,-530,4,-55
4285,-184,-1728,-856,-538,9,-63
4290,-176,-1736,-824,-547,11,-70
4295,-160,-1752,-824,-548,13,-69
4300,-176,-1712,-840,-554,17,-69
4305,-168,-1768,-824,-556,18,-70
4310,-184,-1832,-736,-529,17,-76
4315,-152,-1768,-816,-453,9,-71
4320,-152,-1800,-856,-427,9,-73
4325,-144,-1768,-856,-433,17,-91
4330,-168,-1784,-800,-456,16,-102
4335,-144,-1768,-840,-459,6,-111
4340,-144,-1752,-816,-452,-2,-114
4345,-160,-1728,-864,-461,-4,-113
4350,-144,-1696,-864,-474,-14,-110
4355,-152,-1688,-912,-492,-19,-114
4360,-144,-1672,-896,-525,-11,-114
4365,-144,-1656,-944,-577,-13,-112
4370,-176,-1680,-904,-636,-12,-111
4375,-152,-1704,-928,-682,-11,-110
4380,-232,-1728,-936,-711,-9,-115
4385,-160,-1744,-944,-701,-10,-116
4390,-184,-1800,-856,-687,-14,-117
4395,-152,-1792,-912,-672,-31,-111
4400,-128,-1840,-912,-647,-42,-112
4405,-160,-1784,-920,-626,-42,-120
4410,-136,-1768,-912,-628,-48,-124
4415,-112,-1792,-936,-631,-48,-130
4420,-112,-1784,-968,-638,-45,-134
4425,-104,-1776,-1000,-647,-42,-133
4430,-104,-1752,-992,-646,-37,-140
4435,-80,-1712,-1032,-647,-35,-142
4440,-120,-1696,-1016,-668,-28,-143
4445,-128,-1720,-1016,-691,-31,-139
4450,-128,-1696,-1008,-691,-33,-143
4455,-136,-1704,-1024,-697,-27,-150
4460,-152,-1712,-984,-702,-20,-151
4465,-128,-1720,-992,-701,-19,-151
4470,-136,-1688,-1024,-684,-17,-151
4475,-168,-1688,-1024,-669,-8,-156
4480,-104,-1696,-1024,-661,-4,-156
4485,-168,-1640,-1024,-657,7,-164
4490,-72,-1600,-992,-656,9,-165
4495,-144,-1640,-1016,-662,8,-165
4500,-144,-1664,-1032,-670,2,-162
4505,-160,-1632,-1024,-666,3,-161
4510,-120,-1624,-1016,-665,0,-158
4515,-136,-1616,-1016,-668,-8,-155
4520,-96,-1600,-1016,-672,-17,-147
4525,-136,-1568,-1064,-679,-24,-138
4530,-104,-1616,-1040,-688,-29,-134
4535,-104,-1624,-1080,-684,-30,-131
4540,-112,-1592,-1096,-680,-26,-132
4545,-88,-1568,-1120,-682,-16,-131
4550,-96,-1576,-1136,-683,-1,-132
4555,-96,-1560,-1120,-687,9,-136
4560,-64,-1544,-1120,-702,19,-140
4565,-72,-1544,-1112,-705,31,-139
4570,-48,-1584,-1136,-711,37,-134
4575,-40,-1544,-1144,-707,44,-141
4580,-24,-1536,-1120,-715,55,-137
4585,0,-1560,-1136,-725,65,-133
4590,0,-1584,-1176,-715,80,-137
4595,8,-1560,-1208,-696,93,-137
4600,0,-1552,-1224,-688,101,-135
4605,0,-1544,-1216,-683,98,-133
4610,-16,-1528,-1192,-668,98,-128
4615,0,-1512,-1216,-660,94,-123
4620,-8,-1488,-1216,-655,85,-121
4625,-16,-1496,-1168,-654,78,-115
4630,-64,-1488,-1184,-647,72,-111
4635,-80,-1480,-1176,-639,72,-106
4640,-72,-1496,-1152,-624,71,-96
4645,-96,-1488,-1144,-616,75,-86
4650,-112,-1512,-1144,-612,84,-79
4655,-88,-1512,-1160,-615,87,-72
4660,-56,-1512,-1184,-628,90,-63
4665,-72,-1528,-1184,-650,94,-65
4670,-56,-1536,-1224,-665,94,-68
4675,-80,-1520,-1248,-683,95,-70
4680,-64,-1528,-1280,-711,95,-66
4685,-32,-1496,-1304,-735,95,-64
4690,-24,-1472,-1360,-756,91,-70
4695,-48,-1432,-1336,-777,85,-87
4700,-40,-1440,-1368,-779,86,-84
4705,-32,-1416,-1384,-768,88,-81
4710,-64,-1416,-1368,-748,92,-81
4715,-72,-1368,-1328,-724,95,-75
4720,-96,-1384,-1288,-703,102,-66
4725,-120,-1408,-1296,-665,107,-63
4730,-96,-1424,-1272,-628,112,-57
4735,-104,-1448,-1224,-600,113,-48
4740,-72,-1456,-1232,-587,117,-44
4745,-48,-1464,-1248,-580,122,-37
4750,-32,-1488,-1296,-577,122,-38
4755,-24,-1448,-1328,-582,126,-35
4760,0,-1416,-1400,-609,125,-35
4765,0,-1416,-1424,-649,119,-33
4770,-8,-1416,-1464,-687,109,-38
4775,0,-1368,-1520,-722,101,-39
4780,-8,-1344,-1528,-754,94,-36
4785,-16,-1368,-1552,-776,89,-37
4790,-24,-1320,-1528,-788,77,-46
4795,-16,-1312,-1488,-768,70,-33
4800,-72,-1296,-1464,-735,59,-26
4805,-56,-1344,-1424,-681,46,-26
4810,-96,-1296,-1392,-620,33,-21
4815,-128,-1384,-1368,-563,23,-15
4820,-80,-1336,-1360,-527,12,-10
4825,-64,-1352,-1328,-499,-2,-7
4830,-56,-1352,-1368,-478,-13,-6
4835,-56,-1336,-1392,-471,-15,-12
4840,-48,-1264,-1448,-494,-12,-22
4845,-56,-1280,-1448,-524,-13,-30
4850,-56,-1288,-1504,-559,-13,-37
4855,-64,-1288,-1520,-583,-13,-46
4860,-96,-1288,-1536,-587,-5,-61
4865,-88,-1272,-1560,-569,-1,-69
4870,-88,-1264,-1544,-557,-2,-80
4875,-112,-1304,-1544,-534,-1,-86
4880,-104,-1216,-1528,-503,-5,-94
4885,-104,-1160,-1472,-468,-4,-84
4890,-104,-1184,-1424,-442,-11,-76
4895,-64,-1128,-1384,-416,-25,-69
4900,-72,-1136,-1384,-382,-35,-58
4905,-8,-1080,-1360,-347,-52,-48
4910,-32,-1080,-1320,-338,-64,-43
4915,-8,-1064,-1344,-343,-72,-39
4920,8,-1040,-1328,-363,-72,-35
4925,8,-1048,-1328,-390,-65,-33
4930,16,-1024,-1392,-422,-54,-31
4935,24,-1000,-1400,-460,-46,-29
4940,8,-1000,-1432,-513,-31,-32
4945,24,-976,-1464,-567,-11,-32
4950,0,-976,-1512,-617,12,-30
4955,96,-1088,-1552,-656,38,-20
4960,24,-1000,-1576,-688,57,-26
4965,32,-1024,-1560,-706,75,-14
4970,40,-1056,-1544,-702,83,0
4975,56,-1080,-1576,-674,86,10
4980,72,-1056,-1544,-631,85,22
4985,56,-1040,-1528,-594,81,35
4990,56,-1056,-1520,-556,74,44
4995,48,-1056,-1456,-516,70,51
5000,72,-1032,-1456,-472,64,56
5005,40,-1016,-1432,-441,59,61
5010,56,-1008,-1400,-421,58,76
5015,8,-1000,-1408,-415,66,87
5020,24,-952,-1392,-411,76,89
5025,8,-920,-1472,-416,91,92
5030,0,-896,-1472,-432,108,97
5035,-48,-896,-1456,-459,124,96
5040,-24,-896,-1528,-496,131,89
5045,-64,-864,-1544,-544,138,79
5050,-56,-864,-1600,-602,139,86
5055,-56,-888,-1592,-648,135,110
5060,-80,-888,-1616,-665,114,116
5065,-88,-904,-1616,-671,89,113
5070,-48,-888,-1640,-659,65,118
5075,-112,-880,-1616,-623,48,126
5080,-96,-872,-1592,-571,36,132
5085,-88,-888,-1552,-506,24,138
5090,-72,-840,-1616,-445,16,140
5095,-80,-840,-1496,-405,3,136
5100,-88,-808,-1464,-362,-14,141
5105,-64,-760,-1416,-317,-24,149
5110,-24,-680,-1432,-297,-29,159
5115,-16,-600,-1448,-314,-26,162
5120,0,-544,-1432,-360,-18,177
5125,0,-496,-1480,-430,3,199
5130,32,-488,-1488,-529,19,219
5135,40,-432,-1544,-643,32,221
5140,96,-432,-1560,-765,49,237
5145,96,-488,-1592,-885,55,256
5150,112,-424,-1552,-995,57,268
5155,128,-464,-1648,-1086,44,270
5160,144,-496,-1568,-1207,14,273
5165,176,-528,-1528,-1297,-14,275
5170,152,-536,-1424,-1314,-24,275
5175,112,-544,-1416,-1285,-24,264
5180,32,-528,-1352,-1260,-23,262
5185,56,-520,-1256,-1228,-12,264
5190,0,-480,-1248,-1160,7,277
5195,-32,-480,-1232,-1081,30,289
5200,0,-472,-1248,-1031,41,301
5205,-16,-480,-1160,-1011,82,318
5210,0,-440,-1128,-992,126,327
5215,8,-368,-1144,-975,165,336
5220,0,-344,-1120,-1007,206,334
5225,-8,-288,-1056,-1062,245,326
5230,0,-256,-1088,-1144,273,318
5235,24,-256,-1064,-1264,281,309
5240,32,-296,-1112,-1415,266,303
5245,72,-328,-1072,-1547,255,295
5250,32,-200,-1128,-1641,247,285
5255,88,-328,-1144,-1740,228,277
5260,40,-312,-1136,-1838,214,274
5265,40,-312,-1080,-1880,206,264
5270,40,-376,-1032,-1869,171,265
5275,64,-272,-1072,-1815,152,266
5280,40,-272,-912,-1822,153,227
5285,40,-296,-968,-1816,156,240
5290,72,-272,-976,-1759,180,254
5295,72,-304,-1008,-1748,197,249
5300,48,-272,-1032,-1768,225,212
5305,-40,-320,-848,-1848,306,227
5310,-24,-240,-856,-1890,349,228
5315,8,-376,-808,-1823,359,268
5320,16,-360,-768,-1705,352,294
5325,-64,-216,-784,-1565,343,311
5330,64,-200,-760,-1473,332,365
5335,16,-256,-720,-1433,314,405
5340,8,-272,-720,-1388,262,416
5345,88,-320,-776,-1327,227,409
5350,32,-272,-784,-1240,217,370
5355,8,-392,-816,-1137,185,362
5360,-16,-520,-1040,-1001,129,348
5365,48,-656,-992,-877,116,322
5370,16,-656,-1048,-717,112,252
5375,16,-680,-1088,-552,126,196
5380,-32,-744,-1208,-420,155,182
5385,-144,-808,-1240,-307,195,172
5390,-152,-784,-1320,-181,228,156
5395,-224,-792,-1368,-41,270,161
5400,-336,-864,-1416,115,287,175
5405,-400,-880,-1424,297,260,180
5410,-472,-944,-1416,490,192,187
5415,-600,-984,-1440,675,88,190
5420,-696,-1024,-1360,852,-53,174
5425,-648,-1016,-1288,1033,-209,131
5430,-584,-960,-1280,1193,-359,89
5435,-608,-968,-1304,1293,-513,57
5440,-496,-984,-1336,1350,-662,20
5445,-448,-880,-1440,1380,-797,-33
5450,-376,-872,-1552,1379,-885,-85
5455,-288,-792,-1528,1342,-970,-136
5460,-216,-704,-1584,1291,-1040,-189
5465,-208,-720,-1568,1258,-1083,-223
5470,-216,-752,-1728,1251,-1095,-234
5475,-248,-800,-1840,1283,-1081,-224
5480,-192,-888,-1992,1344,-1063,-197
5485,-248,-880,-2088,1431,-1034,-142
5490,-288,-768,-2104,1501,-1013,-53
5495,-288,-720,-2192,1586,-1004,27
5500,-256,-784,-2296,1717,-1011,88
5505,-248,-800,-2352,1910,-1055,118
5510,-184,-792,-2400,2150,-1125,191
5515,-192,-864,-2360,2410,-1197,263
5520,-208,-888,-2384,2674,-1266,319
5525,-208,-904,-2416,2913,-1318,382
5530,-224,-928,-2384,3131,-1351,450
5535,-256,-880,-2312,3344,-1366,529
5540,-352,-800,-2336,3562,-1383,593
5545,-320,-736,-2344,3755,-1382,664
5550,-264,-696,-2384,3920,-1367,739
5555,-360,-712,-2464,4079,-1347,819
5560,-696,-768,-2368,4252,-1332,887
5565,-304,-1024,-2488,4428,-1348,944
5570,-432,-1072,-2584,4581,-1319,990
5575,-584,-976,-2696,4672,-1287,1039
5580,-576,-1128,-2736,4718,-1266,1111
5585,-464,-1128,-2904,4728,-1232,1115
5590,-352,-1320,-3048,4680,-1158,1120
5595,-296,-1512,-3384,4619,-1066,1081
5600,-312,-1712,-3624,4578,-942,1045
5605,-376,-2056,-3816,4591,-818,1075
5610,-752,-2368,-3984,4636,-711,1131
5615,-1024,-2776,-4104,4662,-607,1208
5620,-1296,-3344,-4272,4645,-529,1262
5625,-1720,-4008,-4352,4572,-522,1288
5630,-1728,-4424,-4720,4497,-558,1243
5635,-1680,-4624,-5136,4389,-535,1150
5640,-1864,-4896,-5232,4288,-474,1064
5645,-2280,-5200,-4864,4314,-396,1021
5650,-2808,-5344,-4560,4584,-333,924
5655,-2768,-5288,-4448,5034,-300,690
5660,-2720,-5080,-4024,5512,-267,413
5665,-2288,-4848,-3576,5988,-187,177
5670,-1864,-3944,-3120,6406,-120,-63
5675,-1464,-3216,-2368,6777,-73,-214
5680,-1224,-2672,-1744,7202,-44,-316
5685,-1216,-2224,-1096,7552,-50,-414
5690,-1024,-1920,-728,7671,-79,-501
5695,-928,-1776,-456,7630,-76,-582
5700,-864,-1488,-320,7477,-41,-691
5705,-976,-1008,-152,7267,5,-769
5710,-968,-560,-232,7035,15,-730
5715,-872,-280,-192,6827,8,-580
5720,-984,-144,-240,6619,-34,-404
5725,-1056,-176,-168,6356,-107,-221
5730,-1056,-192,0,6005,-193,-37
5735,-1152,-136,160,5560,-256,178
5740,-1288,-328,416,5007,-350,457
5745,-888,-440,600,4478,-515,747
5750,-496,-304,528,3958,-724,979
5755,-368,-488,696,3360,-843,1222
5760,-368,-376,560,2833,-959,1366
5765,-312,-328,520,2377,-1026,1528
5770,-424,-408,472,1992,-1022,1678
5775,-504,-456,464,1699,-979,1815
5780,-712,-512,512,1484,-894,1999
5785,-944,-632,576,1339,-756,2198
5790,-992,-784,752,1277,-607,2377
5795,-1128,-904,880,1295,-547,2482
5800,-1288,-976,960,1365,-599,2509
5805,-1328,-1080,1008,1445,-722,2473
5810,-1416,-1208,1136,1521,-867,2386
5815,-1400,-1408,1056,1617,-1027,2269
5820,-1176,-1592,1016,1819,-1093,2164
5825,-1232,-1608,1080,2021,-1136,2048
5830,-1136,-1544,1056,2118,-1216,1947
5835,-1024,-1560,1160,2060,-1282,1839
5840,-1064,-1536,1376,1904,-1331,1705
5845,-752,-1560,1472,1753,-1398,1582
5850,-1032,-1456,1472,1626,-1462,1443
5855,-848,-1384,1552,1479,-1546,1324
5860,-768,-1304,1632,1363,-1593,1221
5865,-592,-1304,1656,1308,-1583,1157
5870,-552,-1304,1728,1270,-1551,1084
5875,-720,-1304,1792,1256,-1503,1005
5880,-616,-1304,1752,1261,-1447,961
5885,-632,-1488,1920,1250,-1392,926
5890,-712,-1504,1944,1251,-1353,864
5895,-600,-1360,1920,1253,-1305,812
5900,-784,-1304,2064,1206,-1235,760
5905,-784,-1144,2160,1119,-1210,677
5910,-832,-1056,2288,1002,-1179,574
5915,-880,-944,2472,874,-1123,472
5920,-904,-840,2560,755,-1064,377
5925,-896,-792,2648,648,-1035,258
5930,-808,-760,2696,564,-1023,116
5935,-664,-728,2488,504,-1008,-20
5940,-824,-648,2640,402,-963,-110
5945,-952,-600,2448,336,-932,-203
5950,-1152,-640,2280,305,-905,-273
5955,-1088,-712,2168,330,-900,-380
5960,-1064,-776,2048,415,-878,-491
5965,-1040,-792,2104,524,-819,-561
5970,-992,-896,2160,648,-730,-556
5975,-1096,-952,2232,794,-596,-479
5980,-1224,-1056,2232,878,-493,-392
5985,-1152,-1016,2176,904,-372,-300
5990,-1424,-1152,2280,795,-240,-176
5995,-1264,-1232,2104,724,-243,-118
6000,-1272,-1256,1912,640,-264,-87
6005,-1200,-1216,1792,505,-285,-75
6010,-1240,-1104,1704,324,-299,-63
6015,-1296,-1040,1520,158,-301,-45
6020,-1408,-928,1400,29,-275,-40
6025,-1592,-840,1424,-74,-261,-59
6030,-1408,-680,1312,-171,-281,-101
6035,-1512,-648,1280,-263,-280,-138
6040,-1536,-680,1264,-322,-290,-164
6045,-1608,-840,1416,-347,-338,-192
6050,-1280,-752,1264,-332,-414,-247
6055,-1360,-776,1312,-338,-448,-265
6060,-1392,-880,1352,-329,-506,-275
6065,-1120,-968,1344,-313,-603,-297
6070,-1032,-1064,1328,-333,-667,-303
6075,-1112,-1128,1264,-351,-725,-303
6080,-1072,-1216,1224,-354,-798,-309
6085,-880,-1216,1096,-376,-839,-306
6090,-912,-1232,1024,-400,-847,-293
6095,-1016,-1304,1096,-392,-852,-274
6100,-928,-1368,1096,-364,-880,-260
6105,-888,-1456,1152,-329,-891,-243
6110,-808,-1344,1160,-267,-910,-222
6115,-824,-1288,1080,-229,-924,-202
6120,-912,-1296,1184,-177,-932,-187
6125,-920,-1248,1208,-126,-951,-174
6130,-944,-1192,1232,-89,-962,-155
6135,-944,-1160,1296,-59,-967,-142
6140,-944,-1096,1304,-33,-971,-134
6145,-936,-1120,1336,-16,-975,-129
6150,-920,-1072,1384,-5,-968,-121
6155,-928,-1064,1456,7,-957,-118
6160,-944,-1160,1440,24,-943,-118
6165,-848,-1152,1504,46,-925,-117
6170,-784,-1248,1496,71,-914,-127
6175,-720,-1256,1512,103,-905,-139
6180,-680,-1328,1528,149,-898,-151
6185,-640,-1424,1568,209,-888,-162
6190,-560,-1528,1600,298,-875,-166
6195,-512,-1568,1632,398,-852,-165
6200,-464,-1584,1592,487,-831,-163
6205,-408,-1584,1592,552,-807,-165
6210,-368,-1552,1648,589,-777,-155
6215,-312,-1528,1648,600,-755,-148
6220,-304,-1536,1672,606,-727,-144
6225,-248,-1544,1752,609,-704,-137
6230,-256,-1536,1736,619,-688,-128
6235,-248,-1496,1728,642,-667,-115
6240,-288,-1464,1664,672,-630,-109
6245,-280,-1480,1672,696,-582,-113
6250,-296,-1448,1656,714,-526,-124
6255,-320,-1448,1696,734,-476,-139
6260,-320,-1440,1704,751,-426,-161
6265,-336,-1432,1672,764,-377,-191
6270,-312,-1440,1696,773,-329,-225
6275,-304,-1392,1688,778,-282,-257
6280,-288,-1408,1648,774,-237,-288
6285,-296,-1400,1624,758,-197,-316
6290,-272,-1360,1544,732,-163,-344
6295,-272,-1344,1568,703,-135,-368
6300,-280,-1296,1576,669,-107,-384
6305,-256,-1328,1584,637,-83,-392
6310,-248,-1312,1600,611,-64,-398
6315,-264,-1296,1592,592,-51,-400
6320,-304,-1264,1632,585,-42,-395
6325,-216,-1184,1592,586,-37,-385
6330,-216,-1208,1616,590,-34,-369
6335,-216,-1208,1696,603,-32,-349
6340,-200,-1256,1776,636,-25,-323
6345,-224,-1280,1800,677,-17,-296
6350,-200,-1296,1840,719,-8,-264
6355,-208,-1312,1840,757,4,-232
6360,-208,-1344,1832,794,18,-197
6365,-224,-1328,1768,823,28,-162
6370,-224,-1312,1736,837,32,-127
6375,-288,-1312,1696,845,34,-87
6380,-280,-1312,1712,856,37,-45
6385,-360,-1288,1688,889,38,-5
6390,-352,-1312,1624,936,26,43
6395,-344,-1208,1616,992,9,83
6400,-336,-1136,1608,1050,-16,112
6405,-328,-1096,1640,1111,-41,138
6410,-320,-1056,1696,1184,-67,158
6415,-376,-1048,1784,1263,-85,183
6420,-336,-1080,1904,1352,-91,208
6425,-472,-1064,1944,1457,-101,235
6430,-360,-1048,2024,1550,-122,244
6435,-440,-992,2136,1621,-139,237
6440,-440,-1032,2096,1681,-149,264
6445,-448,-1000,2072,1728,-159,259
6450,-544,-1008,2064,1758,-158,234
6455,-464,-1000,2048,1770,-136,256
6460,-480,-952,1976,1754,-113,255
6465,-544,-872,1864,1705,-105,254
6470,-480,-816,1768,1633,-98,265
6475,-592,-696,1760,1547,-106,269
6480,-424,-728,1800,1478,-111,257
6485,-496,-752,1888,1418,-122,236
6490,-624,-648,1936,1371,-139,238
6495,-600,-608,1904,1328,-144,249
6500,-536,-584,1936,1268,-148,250
6505,-544,-504,2064,1201,-146,233
6510,-576,-520,2296,1154,-137,208
6515,-560,-536,2464,1146,-116,186
6520,-584,-528,2496,1155,-82,158
6525,-560,-440,2448,1127,-53,107
6530,-528,-360,2384,1041,-32,55
6535,-568,-304,2224,920,2,-6
6540,-616,-216,2160,763,64,-69
6545,-720,-96,2032,592,125,-128
6550,-560,-136,2016,438,169,-168
6555,-504,-88,1944,323,220,-212
6560,-536,-88,1952,213,268,-249
6565,-432,-88,1896,108,282,-282
6570,-416,-128,1976,24,284,-322
6575,-608,-224,2056,-42,228,-360
6580,-544,-376,2184,-58,109,-390
6585,-584,-368,2136,-16,-23,-430
6590,-512,-384,2184,25,-152,-474
6595,-320,-424,2080,49,-257,-535
6600,-472,-312,2144,32,-321,-616
6605,-328,-360,2176,3,-355,-670
6610,-304,-400,2264,-41,-351,-723
6615,-248,-488,2304,-79,-350,-778
6620,-168,-504,2240,-114,-346,-824
6625,-240,-488,2232,-149,-336,-847
6630,-160,-448,2144,-177,-334,-844
6635,-160,-416,2088,-229,-338,-872
6640,-128,-496,2072,-275,-326,-928
6645,56,-464,2008,-296,-291,-967
6650,72,-400,1928,-299,-241,-959
6655,48,-456,1928,-307,-172,-921
6660,152,-408,1872,-273,-93,-867
6665,200,-424,1824,-251,-6,-818
6670,200,-408,1784,-250,86,-813
6675,192,-416,1744,-227,180,-758
6680,152,-392,1672,-196,254,-663
6685,40,-472,1672,-179,300,-582
6690,-152,-496,1696,-131,300,-495
6695,-200,-496,1656,-24,233,-423
6700,-176,-536,1608,74,149,-392
6705,-184,-440,1592,110,99,-356
6710,-72,-528,1648,61,97,-296
6715,-200,-632,1664,10,125,-228
6720,-208,-776,1760,-22,145,-152
6725,-200,-912,1792,-9,137,-113
6730,-192,-984,1832,18,98,-137
6735,-240,-1056,1904,44,61,-173
6740,-264,-1136,1984,73,34,-165
6745,-264,-1240,2056,86,6,-166
6750,-352,-1296,2104,114,-36,-195
6755,-408,-1320,2168,148,-80,-184
6760,-480,-1384,2112,179,-114,-142
6765,-464,-1368,2168,192,-123,-98
6770,-512,-1336,2208,179,-104,-52
6775,-560,-1296,2200,171,-87,-32
6780,-568,-1272,2200,194,-79,-24
6785,-616,-1184,2144,221,-67,-14
6790,-632,-1080,2064,224,-49,-1
6795,-664,-1024,2064,188,-23,13
6800,-664,-952,2040,111,6,28
6805,-664,-872,2000,13,31,43
6810,-648,-840,1968,-79,53,62
6815,-640,-800,1976,-156,68,81
6820,-624,-832,1888,-221,83,99
6825,-576,-792,1872,-274,100,115
6830,-592,-832,1840,-317,111,130
6835,-568,-848,1816,-360,119,143
6840,-536,-856,1800,-397,121,155
6845,-520,-872,1776,-428,121,165
6850,-496,-880,1792,-449,116,176
6855,-472,-920,1752,-460,111,183
6860,-456,-896,1760,-456,101,187
6865,-448,-920,1792,-436,89,187
6870,-400,-904,1816,-400,76,187
6875,-416,-896,1792,-352,59,184
6880,-376,-912,1800,-304,37,182
6885,-360,-904,1816,-258,10,175
6890,-328,-920,1840,-215,-18,171
6895,-304,-888,1856,-176,-43,167
6900,-296,-904,1848,-138,-65,160
6905,-280,-888,1880,-104,-89,152
6910,-304,-840,1936,-69,-113,144
6915,-280,-792,1928,-40,-135,140
6920,-272,-728,1944,-15,-153,137
6925,-216,-712,1928,20,-172,143
6930,-264,-640,2000,63,-182,140
6935,-240,-664,2016,99,-194,125
6940,-256,-600,2016,139,-211,99
6945,-216,-568,2048,175,-224,72
6950,-192,-528,2064,205,-230,47
6955,-192,-504,2112,226,-226,24
6960,-136,-464,2088,246,-215,12
6965,-128,-480,2104,266,-205,5
6970,-128,-448,2104,271,-192,-11
6975,-96,-448,2120,262,-175,-25
6980,-24,-432,2176,247,-161,-37
6985,-48,-464,2168,229,-149,-50
6990,-72,-392,2208,213,-140,-59
6995,-8,-480,2168,206,-130,-56
7000,-16,-504,2160,197,-116,-66
7005,-16,-512,2152,187,-103,-84
7010,-40,-512,2168,172,-87,-98
7015,-48,-520,2160,157,-69,-110
7020,-72,-520,2136,140,-52,-117
7025,-72,-528,2112,118,-31,-120
7030,-64,-576,2136,100,-10,-113
7035,-104,-560,2128,73,8,-114
7040,-112,-608,2104,40,23,-114
7045,-152,-656,2096,3,31,-118
7050,-152,-680,2088,-26,36,-134
7055,-168,-688,2088,-56,44,-142
7060,-136,-728,2048,-81,53,-142
7065,-152,-704,2048,-112,69,-131
7070,-136,-744,2064,-140,83,-119
7075,-160,-800,2040,-162,95,-108
7080,-200,-776,2016,-184,108,-96
7085,-184,-792,2032,-199,119,-82
7090,-208,-784,2032,-213,126,-70
7095,-224,-832,2024,-222,130,-59
7100,-224,-840,2008,-224,134,-50
7105,-208,-864,2000,-226,136,-39
7110,-232,-848,1992,-228,138,-27
7115,-232,-864,1952,-227,140,-16
7120,-224,-912,1976,-220,139,-8
7125,-216,-912,1960,-213,137,1
7130,-232,-880,1968,-201,134,9
7135,-272,-896,1896,-185,130,15
7140,-256,-920,1928,-170,124,20
7145,-264,-896,1936,-157,116,24
7150,-264,-912,1904,-146,110,26
7155,-256,-888,1920,-137,104,32
7160,-272,-920,1896,-126,97,34
7165,-264,-912,1912,-116,94,36
7170,-280,-896,1904,-108,92,36
7175,-256,-896,1952,-97,93,36
7180,-256,-896,1936,-90,93,36
7185,-296,-896,1912,-80,94,35
7190,-256,-872,1928,-70,98,35
7195,-272,-888,1904,-58,100,34
7200,-256,-872,1936,-45,103,31
7205,-288,-824,1920,-31,105,28
7210,-280,-816,1912,-21,106,26
7215,-288,-784,1936,-10,108,25
7220,-288,-792,1912,-1,107,23
7225,-304,-792,1920,6,108,23
7230,-304,-768,1960,13,110,23
7235,-312,-744,1936,21,110,23
7240,-304,-752,1920,30,109,23
7245,-336,-760,1928,39,109,24
7250,-328,-704,1944,50,107,24
7255,-320,-712,1912,61,105,24
7260,-344,-704,1944,72,105,25
7265,-344,-712,1960,80,102,25
7270,-368,-656,1992,86,98,23
7275,-352,-712,1960,89,97,21
7280,-336,-688,1984,88,93,19
7285,-328,-680,2008,86,88,16
7290,-328,-680,2024,83,85,11
7295,-312,-712,2000,79,84,8
7300,-296,-704,2008,71,82,6
7305,-320,-688,2000,64,81,3
7310,-304,-664,1984,58,81,2
7315,-272,-680,2000,54,77,0
7320,-256,-712,2016,52,74,-1
7325,-280,-704,2016,57,75,2
7330,-264,-712,2000,58,71,-1
7335,-280,-696,2024,58,65,-6
7340,-296,-720,2048,60,57,-15
7345,-272,-728,2032,62,52,-19
7350,-264,-776,2040,64,48,-22
7355,-248,-752,2040,62,44,-21
7360,-280,-720,2024,58,42,-24
7365,-280,-760,2040,57,40,-38
7370,-240,-752,2040,51,42,-40
7375,-216,-752,2040,45,53,-34
7380,-232,-760,2008,34,68,-23
7385,-240,-768,2032,24,87,-14
7390,-240,-736,2016,7,96,-18
7395,-240,-760,2032,-11,101,-26
7400,-248,-744,2000,-28,104,-30
7405,-256,-720,2016,-40,108,-32
7410,-224,-768,2016,-48,107,-31
7415,-256,-728,2032,-51,102,-29
7420,-240,-744,2000,-50,94,-26
7425,-240,-744,2000,-47,85,-26
7430,-240,-736,2000,-43,75,-24
7435,-264,-720,2008,-40,68,-23
7440,-256,-728,1984,-34,61,-21
7445,-240,-728,1968,-31,54,-21
7450,-264,-720,1984,-27,49,-19
7455,-240,-752,2000,-23,44,-20
7460,-256,-744,2000,-18,40,-19
7465,-248,-760,2032,-16,39,-17
7470,-232,-760,2008,-14,38,-18
7475,-240,-712,1984,-11,36,-20
7480,-264,-736,1976,-11,33,-18
7485,-272,-752,1968,-9,31,-17
7490,-288,-712,1976,-7,29,-15
7495,-264,-752,1984,-2,25,-15
7500,-280,-752,1992,2,21,-12
7505,-296,-728,2008,8,15,-12
7510,-280,-744,2008,14,9,-9
7515,-296,-744,1984,17,4,-7
7520,-296,-744,2000,19,-1,-3
7525,-272,-752,2016,20,-2,0
7530,-296,-728,1984,19,-4,1
7535,-272,-752,1976,15,-2,3
7540,-296,-744,1976,12,-1,6
7545,-272,-744,2024,7,0,7
7550,-272,-744,2024,7,2,8
7555,-288,-736,2016,5,3,7
7560,-264,-728,1984,3,1,7
7565,-280,-720,1992,5,2,3
7570,-256,-752,2000,8,1,0
7575,-248,-744,2016,11,0,-1
7580,-264,-752,2000,12,2,-4
7585,-248,-720,1984,14,6,-5
7590,-240,-736,2016,15,8,-6
7595,-248,-736,1952,14,13,-10
7600,-256,-720,1992,16,17,-12
7605,-256,-728,2000,16,23,-14
7610,-216,-704,1992,16,29,-16
7615,-216,-744,1984,18,33,-15
7620,-224,-728,1984,18,37,-17
7625,-224,-712,1992,21,40,-18
7630,-216,-720,1992,24,44,-18
7635,-200,-720,1976,27,44,-14
7640,-216,-744,2008,34,49,-6
7645,-232,-744,1992,36,51,-6
7650,-224,-720,2000,37,51,-10
7655,-224,-720,1992,36,51,-15
7660,-216,-760,2016,35,54,-17
7665,-184,-736,2000,33,59,-16
7670,-224,-720,2016,30,66,-15
7675,-232,-720,1992,30,72,-17
7680,-192,-736,2008,35,73,-31
7685,-200,-728,1976,39,78,-31
7690,-192,-736,1984,40,82,-20
7695,-208,-744,1992,37,89,-11
7700,-208,-728,2008,34,96,-5
7705,-240,-728,1960,30,101,-3
7710,-216,-744,2000,28,102,0
7715,-224,-744,1984,26,104,2
7720,-224,-728,2040,26,104,2
7725,-240,-728,2024,27,103,3
7730,-248,-712,2024,28,103,4
7735,-248,-744,2008,29,101,4
7740,-208,-672,1952,29,100,6
7745,-224,-728,2008,30,100,6
7750,-232,-712,2000,32,99,6
7755,-232,-712,1992,33,101,4
7760,-216,-712,2000,35,103,4
7765,-224,-720,2032,38,103,5
7770,-232,-720,2008,39,104,5
7775,-224,-728,2016,38,104,3
7780,-240,-704,2000,37,104,0
7785,-240,-712,1992,36,101,-1
7790,-232,-712,2000,34,100,-3
7795,-216,-728,1992,30,100,-4
7800,-240,-712,2008,26,101,2
7805,-224,-728,1992,23,99,4
7810,-272,-720,2008,19,96,1
7815,-256,-720,2008,19,92,-12
7820,-240,-712,2000,18,88,-12
7825,-248,-728,2000,17,87,-6
7830,-240,-736,1960,17,85,2
7835,-256,-736,1992,19,82,6
7840,-248,-728,2008,24,82,8
7845,-264,-704,2008,30,79,7
7850,-232,-672,2080,35,78,7
7855,-256,-720,2024,40,77,4
7860,-264,-704,2024,43,75,4
7865,-248,-704,1992,45,72,4
7870,-240,-688,2000,53,78,21
7875,-288,-736,2008,66,87,41
7880,-288,-728,1992,62,84,33
7885,-288,-736,2016,54,80,15
7890,-240,-752,1992,43,81,6
7895,-272,-712,1976,36,82,2
7900,-280,-688,2016,29,81,3
7905,-272,-688,1968,29,80,5
7910,-256,-720,2024,35,75,5
7915,-248,-712,2000,41,68,4
7920,-280,-680,2016,51,62,3
7925,-256,-728,2000,61,58,2
7930,-272,-680,1992,69,55,-2
7935,-240,-704,2000,75,55,-4
7940,-264,-688,1992,80,56,-5
7945,-248,-688,1992,81,58,-7
7950,-256,-680,2024,80,60,-8
7955,-248,-672,2040,78,63,-10
7960,-240,-656,1952,74,67,-11
7965,-256,-664,2024,68,70,-12
7970,-240,-664,2032,68,72,-19
7975,-240,-696,2024,77,79,-4
7980,-264,-720,2008,79,84,0
7985,-264,-704,2032,64,83,-3
7990,-256,-704,2032,48,85,-9
7995,-256,-688,2024,35,86,-10
8000,-232,-680,2016,21,85,-10
8005,-248,-688,2032,9,86,-8
8010,-240,-680,2048,0,84,-8
8015,-248,-696,2040,-3,82,-8
8020,-272,-680,2000,-4,82,-7
8025,-256,-696,2008,-4,81,-5
8030,-240,-680,2000,-5,77,-4
8035,-232,-696,2040,-6,80,-4
8040,-240,-664,2008,-7,79,-6
8045,-248,-672,2016,-8,80,-6
8050,-280,-680,2000,-10,81,-6
8055,-256,-672,2016,-13,79,-6
8060,-240,-680,2016,-17,81,-6
8065,-240,-680,2008,-19,78,-6
8070,-248,-704,2008,-23,79,-4
8075,-264,-688,2024,-27,80,-4
8080,-264,-688,2032,-29,81,-3
8085,-256,-688,2016,-30,80,0
8090,-264,-688,2000,-31,78,2
8095,-280,-672,1992,-30,77,3
8100,-272,-680,2016,-30,76,0
8105,-264,-696,2032,-29,75,2
8110,-248,-696,2000,-29,74,4
8115,-272,-680,2016,-27,72,5
8120,-272,-696,2016,-26,73,5
8125,-248,-688,2008,-26,75,5
8130,-240,-704,2000,-28,77,5
8135,-248,-696,2016,-29,78,4
8140,-264,-680,1976,-29,77,3
8145,-264,-696,2000,-29,77,3
8150,-240,-704,1992,-27,76,2
8155,-280,-704,1992,-24,77,1
8160,-248,-704,2024,-22,76,0
8165,-264,-680,2000,-18,74,-1
8170,-248,-680,1992,-14,75,-2
8175,-224,-664,2016,-10,72,-2
8180,-248,-696,2016,-6,72,-3
8185,-280,-680,2008,-2,72,-5
8190,-232,-704,2008,0,72,-5
8195,-248,-696,2000,1,71,-6
8200,-248,-664,2040,1,72,-7
8205,-256,-688,2048,1,73,-7
8210,-272,-696,1992,0,74,-6
8215,-248,-688,2016,-2,74,-4
8220,-256,-664,1984,-3,73,-4
8225,-264,-664,2000,-4,74,-5
8230,-272,-680,2016,-6,74,-6
8235,-248,-696,2032,-6,72,-6
8240,-272,-680,2016,-7,69,-6
8245,-248,-704,1992,-9,70,-5
8250,-280,-704,2016,-11,68,-7
8255,-272,-680,2024,-11,66,-6
8260,-280,-680,2008,-11,64,-7
8265,-264,-704,2024,-12,64,-6
8270,-248,-688,2032,-16,60,-6
8275,-264,-680,2000,-16,59,-6
8280,-256,-696,1984,-19,60,-6
8285,-240,-680,2048,-20,61,-7
8290,-248,-688,2032,-22,64,-5
8295,-272,-688,2024,-22,65,-4
8300,-232,-696,2016,-23,67,-5
8305,-264,-704,2016,-24,64,-3
8310,-264,-680,2000,-22,64,-2
8315,-264,-664,1992,-20,65,-2
8320,-272,-696,2016,-20,62,-1
8325,-280,-680,2032,-18,62,-1
8330,-272,-688,2024,-16,61,-1
8335,-256,-680,2024,-14,62,-2
8340,-264,-712,2024,-14,63,-1
8345,-280,-688,2024,-13,62,-3
8350,-264,-688,2008,-13,63,-2
8355,-240,-688,2008,-13,64,-3
8360,-256,-704,2016,-13,65,-3
8365,-256,-696,2040,-14,66,-4
8370,-272,-680,2008,-14,67,-4
8375,-272,-664,1984,-15,68,-3
8380,-256,-680,2000,-14,71,-2
8385,-248,-704,2032,-15,72,-2
8390,-264,-672,2008,-17,73,-2
8395,-248,-632,2016,-20,72,-2
8400,-248,-680,2016,-21,74,-1
8405,-256,-680,2024,-24,75,1
8410,-224,-696,2008,-28,75,-1
8415,-256,-704,2000,-28,73,-1
8420,-240,-696,1984,-28,71,0
8425,-256,-696,2032,-26,70,-3
8430,-232,-696,1968,-24,68,-2
8435,-224,-688,1984,-19,67,-2
8440,-272,-680,2008,-12,67,-3
8445,-240,-704,2000,-7,69,-3
8450,-256,-680,2008,-3,71,-5
8455,-256,-688,1992,0,72,-5
8460,-256,-728,2000,3,73,-4
8465,-248,-712,2016,5,73,-5
8470,-264,-720,1984,4,73,-5
8475,-256,-712,2000,1,74,-3
8480,-256,-696,1992,-1,75,-4
8485,-224,-712,2000,-2,75,-1
8490,-248,-704,2000,-3,75,1
8495,-248,-696,2008,-3,75,2
8500,-256,-704,2000,1,73,3
8505,-264,-712,1984,8,67,5
8510,-272,-680,1992,16,64,4
8515,-248,-704,2016,25,58,4
8520,-264,-680,2008,36,52,3
8525,-272,-688,2040,45,49,3
8530,-256,-672,1976,52,45,5
8535,-240,-664,2016,57,45,4
8540,-256,-672,2024,59,45,1
8545,-240,-672,2016,59,45,1
8550,-240,-680,2040,57,49,2
8555,-240,-648,1992,52,50,2
8560,-256,-664,2048,45,53,0
8565,-264,-688,2024,39,54,-2
8570,-240,-688,2008,30,54,-4
8575,-280,-656,2024,21,57,-6
8580,-256,-696,2016,12,59,-5
8585,-248,-704,2024,6,62,-4
8590,-248,-696,1992,0,64,-4
8595,-248,-688,2008,-4,65,-2
8600,-240,-688,2024,-6,67,-2
8605,-248,-680,2040,-6,67,-2
8610,-272,-680,2016,-8,66,-1
8615,-264,-672,2016,-9,65,-2
8620,-256,-680,2008,-9,65,-1
8625,-248,-672,2024,-7,63,0
8630,-264,-656,2008,-6,62,-2
8635,-264,-672,2024,-5,59,-1
8640,-232,-696,2024,-5,58,-2
8645,-240,-672,2024,-6,58,-3
8650,-248,-664,2024,-7,58,-3
8655,-248,-704,2040,-10,60,-3
8660,-256,-664,2032,-12,59,-3
8665,-248,-688,2000,-15,61,-3
8670,-248,-696,1984,-18,62,-4
8675,-264,-680,2024,-20,64,-5
8680,-256,-688,2032,-22,65,-5
8685,-240,-680,2000,-24,66,-4
8690,-256,-680,2024,-26,68,-3
8695,-248,-680,2016,-26,69,-2
8700,-256,-712,2000,-24,67,-3
8705,-256,-680,2032,-23,66,-3
8710,-240,-688,2032,-23,67,-3
8715,-256,-696,2008,-23,65,-4
8720,-256,-680,2008,-24,65,-5
8725,-248,-688,2000,-25,65,-6
8730,-216,-704,2000,-26,67,-5
8735,-240,-688,2040,-27,70,-4
8740,-264,-688,2000,-29,69,-4
8745,-248,-672,2016,-31,71,-4
8750,-256,-672,2008,-30,73,-4
8755,-232,-688,2008,-29,73,-4
8760,-248,-704,2024,-28,74,-4
8765,-256,-704,2032,-26,75,-5
8770,-256,-704,2016,-21,74,-3
8775,-256,-680,2008,-15,74,-3
8780,-240,-696,1984,-10,74,-3
8785,-248,-720,2000,-4,74,-4
8790,-232,-680,2024,0,74,-3
8795,-248,-696,2008,3,73,-2
8800,-264,-664,2000,6,72,-3
8805,-232,-688,2000,8,70,-4
8810,-264,-672,2000,6,69,-2
8815,-248,-696,2024,6,69,-2
8820,-264,-672,2000,4,68,-2
8825,-240,-680,1976,3,69,-2
8830,-248,-672,2008,1,68,-3
8835,-264,-672,2016,-1,68,-1
8840,-248,-672,2016,-2,68,-2
8845,-256,-680,1992,-3,67,-4
8850,-256,-672,2008,-3,66,-5
8855,-240,-688,2024,-4,66,-4
8860,-232,-688,2024,-4,65,-6
8865,-248,-680,2032,-5,64,-7
8870,-248,-680,2024,-6,65,-7
8875,-248,-680,2024,-6,64,-7
8880,-256,-696,2032,-7,64,-8
8885,-264,-688,2000,-7,65,-7
8890,-232,-696,2032,-7,67,-4
8895,-240,-712,1992,-8,69,-5
8900,-224,-696,2016,-9,70,-4
8905,-240,-704,2008,-9,71,-2
8910,-256,-672,2016,-9,71,-1
8915,-248,-680,2016,-9,71,-2
8920,-232,-696,2048,-9,68,-2
8925,-248,-672,2016,-10,68,-1
8930,-248,-672,2000,-8,67,-1
8935,-248,-672,2008,-8,67,-2
8940,-264,-624,2032,-9,64,-1
8945,-240,-704,2008,-8,64,-1
8950,-280,-656,2000,-9,66,-3
8955,-256,-680,2024,-10,64,-4
8960,-232,-680,2016,-11,65,-3
8965,-256,-688,2032,-12,66,-6
8970,-272,-672,2024,-13,66,-5
8975,-264,-664,2032,-13,67,-5
8980,-240,-704,2016,-15,68,-4
8985,-256,-688,2008,-14,69,-4
8990,-232,-672,2008,-14,70,-5
8995,-248,-680,2032,-13,69,-4
9000,-248,-696,1992,-13,69,-3
9005,-264,-672,2024,-12,68,-5
9010,-264,-688,2016,-10,67,-4
9015,-240,-688,2024,-9,67,-3
9020,-240,-704,2016,-9,67,-3
9025,-232,-696,2016,-7,67,-2
9030,-256,-696,2024,-6,67,-3
9035,-240,-704,2008,-6,68,-2
9040,-256,-688,2016,-6,68,-2
9045,-264,-688,2016,-4,68,0
9050,-272,-672,2024,-5,70,-2
9055,-264,-704,2032,-5,70,-2
9060,-248,-696,2000,-5,71,-1
9065,-240,-688,1992,-8,72,-2
9070,-248,-696,2000,-11,72,-1
9075,-256,-672,2016,-14,72,0
9080,-208,-672,2000,-17,73,0
9085,-240,-680,2032,-20,73,-1
9090,-256,-680,1992,-22,74,-1
9095,-232,-664,2016,-23,73,-1
9100,-264,-680,2032,-24,74,-1
9105,-240,-680,1992,-23,73,-2
9110,-248,-688,2032,-20,72,-2
9115,-224,-688,2024,-15,71,-4
9120,-216,-680,2000,-9,71,-4
9125,-240,-680,2008,-4,72,-6
9130,-232,-704,2008,1,72,-4
9135,-264,-688,2024,4,74,-5
9140,-240,-712,2024,4,72,-6
9145,-264,-664,2048,5,71,-8
9150,-264,-688,2000,3,72,-8
9155,-256,-712,1992,1,71,-6
9160,-264,-680,1984,-2,74,-4
9165,-256,-696,1976,-2,75,-2
9170,-264,-680,1992,0,77,1
9175,-248,-664,1992,3,77,1
9180,-256,-672,1992,9,75,2
9185,-256,-680,2000,19,70,3
9190,-248,-672,1992,28,65,4
9195,-240,-704,1984,41,61,4
9200,-256,-672,2016,54,57,4
9205,-264,-656,1984,62,55,6
9210,-248,-672,2008,68,54,4
9215,-264,-656,2016,71,54,4
9220,-232,-656,2008,72,54,6
9225,-240,-648,2024,70,55,6
9230,-224,-648,2024,63,57,5
9235,-232,-680,2040,56,58,4
9240,-248,-680,2040,47,60,3
9245,-248,-672,2064,37,61,2
9250,-240,-616,2016,30,62,3
9255,-200,-656,2040,46,76,39
9260,-280,-656,2000,61,81,55
9265,-280,-712,2128,61,77,42
9270,-256,-712,2040,49,71,13
9275,-248,-672,2040,30,69,-2
9280,-240,-664,2040,9,70,-6
9285,-248,-664,2040,-8,69,-2
9290,-224,-672,2048,-17,69,0
9295,-256,-680,2032,-20,67,-3
9300,-264,-648,2024,-20,65,-6
9305,-216,-696,2024,-14,61,-15
9310,-216,-680,2032,-7,62,-13
9315,-256,-664,2040,-5,64,-6
9320,-256,-688,2008,-7,65,-1
9325,-248,-672,2016,-10,65,-2
9330,-240,-672,2000,-13,64,-3
9335,-256,-656,2008,-19,66,-3
9340,-264,-656,2024,-20,66,-6
9345,-248,-672,2024,-22,67,-5
9350,-248,-688,2032,-23,70,-6
9355,-232,-664,2024,-22,68,-8
9360,-240,-672,2000,-23,69,-6
9365,-248,-672,2008,-24,72,-5
9370,-256,-688,2008,-25,71,-4
9375,-256,-688,2024,-25,70,-4
9380,-256,-664,1984,-23,69,-4
9385,-248,-672,2024,-22,68,-4
9390,-248,-680,2016,-23,64,-3
9395,-264,-656,2016,-23,64,-4
9400,-264,-656,2040,-26,64,-5
9405,-240,-688,2016,-26,65,-5
9410,-264,-672,2040,-28,65,-4
9415,-264,-672,2016,-29,65,-5
9420,-248,-672,2024,-30,67,-5
9425,-264,-672,2008,-31,65,-5
9430,-248,-640,2024,-31,68,-5
9435,-256,-680,2024,-30,70,-5
9440,-264,-680,2016,-28,71,-4
9445,-264,-688,2024,-24,71,-3
9450,-256,-672,2008,-20,71,-4
9455,-256,-672,2008,-15,72,-4
9460,-272,-656,2008,-9,73,-4
9465,-240,-672,1984,-4,73,-4
9470,-264,-672,2024,-1,73,-5
9475,-256,-680,2024,2,74,-4
9480,-224,-672,2000,5,73,-4
9485,-240,-664,2008,6,73,-3
9490,-240,-648,2008,6,73,-1
9495,-272,-664,2048,4,73,-3
9500,-256,-656,2000,2,72,-3
9505,-248,-656,2024,0,73,-2
9510,-248,-640,2032,-2,74,-1
9515,-256,-656,2016,-3,72,-3
9520,-280,-672,2000,-7,71,-3
9525,-248,-656,2032,-9,70,-4
9530,-256,-648,2024,-10,69,-5
9535,-264,-664,2024,-12,67,-5
9540,-256,-672,2024,-12,66,-5
9545,-264,-696,2008,-14,65,-7
9550,-248,-672,2000,-15,66,-6
9555,-248,-664,2008,-15,63,-5
9560,-256,-656,2016,-15,65,-5
9565,-248,-672,1984,-15,66,-5
9570,-256,-664,2024,-16,65,-5
9575,-256,-656,2000,-17,66,-4
9580,-272,-672,2040,-18,67,-4
9585,-248,-672,2008,-17,67,-4
9590,-248,-656,2104,-18,67,-1
9595,-240,-664,2032,-18,68,-3
9600,-264,-672,2016,-17,66,-3
9605,-240,-656,2016,-16,66,-4
9610,-232,-696,2016,-14,66,-4
9615,-256,-664,2008,-14,65,-3
9620,-264,-664,2024,-14,66,-2
9625,-264,-664,2016,-14,66,-3
9630,-272,-688,2000,-12,67,-3
9635,-248,-672,2040,-12,65,-4
9640,-248,-704,2024,-11,67,-3
9645,-256,-656,2032,-12,67,-4
9650,-272,-656,2016,-12,66,-3
9655,-232,-680,2008,-13,67,-5
9660,-256,-656,2016,-13,68,-5
9665,-264,-656,2016,-14,66,-3
9670,-272,-656,1984,-14,69,-4
9675,-264,-640,2024,-14,68,-3
9680,-264,-672,2032,-13,69,-3
9685,-256,-688,2032,-13,67,-3
9690,-240,-672,2032,-12,67,-3
9695,-240,-680,2032,-12,69,-4
9700,-264,-648,2000,-11,68,-3
9705,-240,-648,2000,-11,67,-4
9710,-240,-680,2024,-10,68,-3
9715,-248,-664,2048,-9,69,-3
9720,-240,-664,1992,-9,68,-3
9725,-232,-688,2024,-8,70,-3
9730,-240,-688,2040,-8,68,-3
9735,-256,-672,2000,-8,69,-3
9740,-248,-656,2032,-8,70,-4
9745,-240,-664,2008,-7,69,-4
9750,-248,-672,2032,-8,69,-3
9755,-248,-664,1992,-10,69,-5
9760,-232,-672,2032,-10,69,-4
9765,-240,-664,2024,-11,69,-4
9770,-256,-680,1992,-11,68,-2
9775,-272,-680,2048,-12,69,-2
9780,-248,-688,2008,-12,69,-2
9785,-256,-688,2024,-13,68,-2
9790,-248,-648,2016,-13,69,-3
9795,-256,-680,2032,-12,68,-3
9800,-296,-648,2008,-12,68,-2
9805,-248,-648,2024,-11,70,-3
9810,-256,-664,2000,-9,70,-4
9815,-232,-664,2016,-8,69,-3
9820,-256,-672,1984,-7,70,-3
9825,-248,-648,2024,-4,70,-3
9830,-256,-664,2016,-5,71,-3
9835,-248,-672,2024,-5,72,-3
9840,-240,-656,2016,-4,72,-3
9845,-248,-664,2032,-4,73,-3
9850,-248,-680,2024,-4,73,-3
9855,-256,-672,2000,-3,74,-3
9860,-248,-664,2056,-4,74,-2
9865,-240,-664,2032,-4,73,-3
9870,-232,-672,2016,-5,74,-2
9875,-256,-672,1992,-10,73,-2
9880,-264,-648,2000,-13,71,-1
9885,-256,-672,2032,-17,73,-1
9890,-232,-656,2024,-20,72,-1
9895,-256,-648,2032,-21,71,-1
9900,-240,-680,2032,-22,68,-3
9905,-240,-632,2016,-21,66,-3
9910,-264,-648,2000,-18,65,-3
9915,-256,-672,2008,-12,63,-4
9920,-256,-656,2016,-7,65,-2
9925,-264,-656,2000,-1,67,-4
9930,-256,-656,2016,3,67,-4
9935,-240,-664,2016,7,68,-5
9940,-256,-680,2000,8,69,-6
9945,-256,-664,2040,8,71,-6
9950,-248,-696,2032,6,72,-7
9955,-264,-688,2024,2,74,-7
9960,-232,-680,1992,-1,75,-5
9965,-248,-672,1968,-4,76,-5
9970,-272,-656,1984,-6,80,-2
9975,-240,-672,2016,-7,80,0
9980,-240,-656,1984,-3,80,-1
9985,-240,-656,1992,6,77,2
9990,-272,-672,2008,15,73,2
9995,-248,-680,2016,28,68,3
10000,-256,-648,2032,39,63,5
10005,-248,-656,2008,47,59,4
10010,-264,-632,2024,56,58,4
10015,-264,-648,2032,62,56,3
10020,-240,-648,2032,65,55,3
10025,-248,-648,2032,63,54,1
10030,-264,-632,2024,59,52,3
10035,-264,-664,2032,54,52,1
10040,-272,-648,2024,44,52,1
10045,-248,-664,2040,35,54,-2
10050,-248,-664,2040,26,55,-5
10055,-232,-672,2048,18,57,-5
10060,-208,-664,2040,9,61,-5
10065,-264,-648,2024,2,65,-3
10070,-240,-648,2032,-4,67,-3
10075,-248,-640,2032,-9,69,-4
10080,-256,-656,2032,-11,71,-4
10085,-248,-648,2016,-12,71,-4
10090,-224,-648,2024,-10,71,-3
10095,-240,-648,2032,-11,70,-1
10100,-256,-672,2008,-10,70,-1
10105,-240,-664,2040,-10,68,0
10110,-264,-656,2016,-9,66,0
10115,-232,-680,2024,-8,64,-2
10120,-240,-656,2040,-9,63,-2
10125,-232,-672,2016,-8,61,-2
10130,-264,-656,2040,-8,62,-3
10135,-264,-680,2024,-10,62,-4
10140,-248,-672,2040,-13,63,-5
10145,-256,-656,2040,-14,63,-5
10150,-240,-664,2032,-16,63,-6
10155,-264,-664,2016,-19,65,-6
10160,-248,-640,2024,-22,66,-6
10165,-240,-664,2024,-24,66,-5
10170,-264,-672,2040,-26,66,-4
10175,-232,-656,2000,-27,67,-6
10180,-240,-680,2024,-27,66,-4
10185,-248,-664,2032,-26,65,-5
10190,-248,-672,2008,-26,65,-6
10195,-240,-656,2032,-26,67,-5
10200,-240,-656,2000,-26,66,-4
10205,-248,-672,2016,-25,66,-4
10210,-256,-656,2024,-27,66,-5
10215,-248,-664,2024,-28,67,-6
10220,-256,-664,2032,-29,69,-5
10225,-224,-664,2008,-29,70,-5
10230,-232,-672,2016,-30,70,-4
10235,-240,-656,2024,-31,72,-4
10240,-256,-664,2016,-29,73,-4
10245,-272,-696,2072,-26,74,-4
10250,-272,-656,2008,-21,73,-4
10255,-264,-664,2000,-17,73,-4
10260,-248,-672,2024,-11,74,-5
10265,-256,-688,2008,-7,75,-4
10270,-280,-656,1992,-4,74,-4
10275,-248,-672,2032,-2,72,-4
10280,-264,-656,2016,2,73,-4
10285,-240,-672,2008,2,73,-4
10290,-240,-640,2024,2,72,-3
10295,-256,-640,2024,2,70,-4
10300,-272,-648,2032,1,71,-5
10305,-240,-664,2032,-1,70,-4
10310,-248,-640,2016,-1,68,-3
10315,-256,-648,2040,-3,69,-2
10320,-256,-656,2032,-7,68,-2
10325,-240,-688,2024,-7,68,-4
10330,-256,-648,2008,-9,67,-3
10335,-248,-664,2016,-10,67,-4
10340,-264,-648,2032,-10,65,-2
10345,-272,-648,2032,-11,64,-5
10350,-240,-648,2016,-13,63,-5
10355,-224,-632,2056,-14,64,-5
10360,-264,-640,2024,-16,64,-5
10365,-264,-672,2032,-17,66,-6
10370,-264,-648,2024,-18,67,-4
10375,-272,-632,1992,-17,68,-3
10380,-240,-664,2024,-19,67,-3
10385,-248,-648,2024,-19,69,-4
10390,-264,-632,2000,-18,69,-3
10395,-232,-664,2016,-19,68,-2
10400,-256,-640,2008,-20,67,-1
10405,-240,-680,2000,-17,67,0
10410,-272,-656,2024,-16,67,-2
10415,-256,-632,2016,-15,65,-2
10420,-232,-656,2016,-14,64,0
10425,-240,-688,2040,-14,64,-2
10430,-264,-648,2016,-13,64,-3
10435,-224,-664,2016,-13,64,-4
10440,-240,-664,2016,-14,63,-4
10445,-224,-656,2032,-16,66,-5
10450,-240,-656,2032,-15,67,-5
10455,-240,-656,2024,-15,68,-5
10460,-232,-672,2032,-15,67,-5
10465,-256,-656,2008,-16,69,-4
10470,-248,-648,2040,-16,69,-6
10475,-264,-656,2008,-17,68,-4
10480,-224,-640,2024,-16,68,-4
10485,-256,-656,2040,-16,69,-3
10490,-264,-632,2016,-16,69,-2
10495,-232,-672,2024,-15,67,-2
10500,-256,-648,2000,-15,66,-3
10505,-264,-664,2016,-16,67,-1
10510,-264,-656,2016,-16,66,-1
10515,-256,-656,2024,-17,67,-2
10520,-248,-672,2032,-15,68,-2
10525,-264,-648,2000,-14,67,-4
10530,-240,-664,2008,-14,68,-3
10535,-272,-656,2024,-12,68,-4
10540,-240,-672,2024,-12,67,-2
10545,-280,-656,2040,-12,69,-4
10550,-256,-648,2000,-11,69,-3
10555,-240,-672,2008,-12,70,-3
10560,-248,-656,2016,-11,70,-2
10565,-248,-648,2024,-12,70,-4
10570,-240,-656,2008,-13,71,-4
10575,-256,-672,2024,-12,70,-3
10580,-232,-656,2000,-14,68,-3
10585,-272,-664,2016,-13,67,-3
10590,-272,-664,2040,-13,68,-3
10595,-256,-648,2024,-13,66,-4
10600,-248,-680,2008,-14,66,-4
10605,-224,-696,2048,-15,68,-4
10610,-248,-664,2024,-15,67,-2
10615,-272,-672,2016,-15,67,-3
10620,-264,-648,2040,-14,67,-3
10625,-248,-632,2008,-15,68,-2
10630,-248,-648,2024,-15,67,-2
10635,-264,-664,2008,-14,67,-2
10640,-240,-688,2008,-13,66,-1
10645,-224,-680,2048,-13,66,-1
10650,-248,-672,2016,-12,66,-2
10655,-248,-664,2040,-11,67,-2
10660,-256,-680,2000,-10,67,-2
10665,-240,-664,2016,-9,67,-2
10670,-264,-664,2008,-8,68,-2
10675,-248,-656,2016,-9,68,-2
10680,-232,-648,2016,-8,67,-3
10685,-264,-680,2016,-8,68,-3
10690,-240,-664,2008,-8,69,-2
10695,-264,-656,2032,-7,70,-4
10700,-232,-672,2048,-7,70,-2
10705,-264,-656,1992,-8,71,-2
10710,-248,-656,1992,-6,71,-1
10715,-240,-672,2024,-7,71,-2
10720,-256,-672,2024,-10,70,-4
10725,-248,-680,2040,-12,69,-2
10730,-248,-664,2040,-17,68,-1
10735,-248,-648,2032,-18,70,-1
10740,-232,-656,2008,-21,70,-1
10745,-256,-664,1984,-21,71,0
10750,-256,-656,2024,-22,70,-3
10755,-248,-672,2016,-20,70,-3
10760,-240,-664,2032,-17,66,-4
10765,-256,-680,2024,-13,66,-4
10770,-240,-704,2024,-8,67,-3
10775,-248,-672,1992,-2,67,-4
10780,-256,-680,2000,3,68,-5
10785,-240,-672,2016,7,69,-6
10790,-320,-648,1968,8,70,-7
10795,-256,-680,1992,8,73,-6
10800,-256,-680,2016,6,71,-7
10805,-240,-672,2040,3,73,-7
10810,-248,-680,2016,-1,74,-7
10815,-272,-664,1992,-5,76,-6
10820,-264,-656,2008,-7,77,-5
10825,-248,-664,2024,-7,78,-2
10830,-248,-648,1992,-6,76,1
10835,-240,-672,2000,0,73,1
10840,-256,-672,2008,7,68,1
10845,-256,-656,1992,15,63,1
10850,-232,-688,2016,24,57,0
10855,-232,-688,2008,31,55,0
10860,-256,-632,2008,37,52,-1
10865,-272,-648,2032,43,52,-1
10870,-256,-656,2032,45,52,-1
10875,-224,-656,2040,43,53,-2
10880,-264,-648,2000,40,54,-1
10885,-224,-664,2032,36,54,-3
10890,-232,-640,2000,30,55,-3
10895,-248,-656,2040,23,55,-5
10900,-264,-672,2048,15,59,-4
10905,-232,-648,2024,9,60,-4
10910,-232,-664,2016,4,60,-4
10915,-248,-664,2040,-3,63,-3
10920,-256,-664,2024,-5,67,-3
10925,-240,-648,2024,-8,69,-1
10930,-240,-656,2040,-11,71,-2
10935,-256,-656,2016,-11,71,-1
10940,-240,-664,2016,-11,71,0
10945,-248,-688,2008,-12,70,-1
10950,-256,-632,2024,-13,68,0
10955,-248,-664,2040,-14,64,-2
10960,-248,-648,2040,-14,63,-2
10965,-248,-656,2040,-14,62,-1
10970,-224,-672,2024,-14,61,-2
10975,-240,-680,2032,-14,60,-2
10980,-224,-672,2016,-14,63,-3
10985,-232,-680,2016,-15,61,-5
10990,-248,-648,2032,-16,63,-6
10995,-256,-672,2008,-17,64,-7
11000,-272,-664,2040,-18,64,-4
11005,-256,-640,2032,-20,64,-5
11010,-240,-640,2024,-23,67,-6
11015,-256,-656,2032,-24,67,-5
11020,-248,-648,1992,-26,68,-5
11025,-240,-624,2000,-27,69,-3
11030,-264,-648,2024,-28,68,-3
11035,-232,-656,2032,-26,69,-3
11040,-256,-672,2000,-25,67,-3
11045,-248,-672,2048,-25,66,-2
11050,-240,-656,2032,-24,65,-3
11055,-224,-648,2048,-23,65,-1
11060,-272,-664,2032,-25,65,-2
11065,-248,-648,2016,-28,65,-3
11070,-248,-632,2016,-31,68,-4
11075,-248,-664,2024,-31,67,-4
11080,-232,-672,2024,-31,67,-4
11085,-272,-648,2016,-32,70,-6
11090,-272,-648,2032,-31,71,-6
11095,-232,-680,2024,-29,72,-5
11100,-248,-672,2016,-26,72,-4
11105,-264,-672,2024,-21,74,-4
11110,-248,-640,2008,-15,75,-5
11115,-280,-688,2024,-11,74,-5
11120,-256,-664,2016,-6,73,-5
11125,-256,-656,1992,-1,73,-5
11130,-264,-656,2000,3,72,-5
11135,-256,-656,2040,6,71,-4
11140,-272,-656,2008,6,70,-3
11145,-264,-656,2024,7,71,-3
11150,-248,-648,2008,4,69,-3
11155,-264,-640,2000,1,70,-3
11160,-224,-664,2024,0,69,-3
11165,-248,-624,2024,-4,70,-3
11170,-248,-664,2032,-5,71,-2
11175,-256,-640,2016,-6,67,-2
11180,-248,-632,2024,-8,66,-3
11185,-232,-680,2040,-9,66,-4
11190,-248,-664,2040,-10,65,-5
11195,-272,-640,2016,-12,65,-4
11200,-256,-640,2032,-12,65,-5
11205,-232,-648,2024,-14,64,-6
11210,-232,-656,2008,-14,64,-5
11215,-232,-656,2024,-14,64,-7
11220,-240,-648,2024,-15,64,-6
11225,-256,-672,2016,-16,66,-5
11230,-240,-664,2008,-17,66,-3
11235,-224,-664,2040,-17,68,-5
11240,-232,-664,2032,-17,68,-3
11245,-256,-648,2016,-18,69,-2
11250,-248,-656,2008,-17,67,-2
11255,-240,-648,2024,-16,67,-1
11260,-240,-640,2016,-16,67,-2
11265,-240,-656,2016,-16,66,-1
11270,-240,-656,2024,-16,67,-1
11275,-248,-648,2016,-15,65,-3
11280,-256,-640,2016,-13,65,-2
11285,-248,-656,2024,-14,66,-2
11290,-272,-632,2016,-15,66,-2
11295,-240,-656,2016,-13,67,-3
11300,-248,-648,2032,-14,65,-4
11305,-248,-672,2024,-15,67,-5
11310,-256,-672,2000,-15,67,-5
11315,-232,-648,2048,-14,67,-3
11320,-256,-672,2016,-15,67,-3
11325,-224,-656,2024,-15,67,-4
11330,-248,-672,2016,-16,67,-4
11335,-256,-648,2024,-16,67,-3
11340,-264,-648,2016,-17,65,-4
11345,-232,-672,2024,-17,65,-3
11350,-256,-640,2016,-16,66,-3
11355,-256,-632,2024,-17,69,-3
11360,-248,-672,2008,-16,68,-1
11365,-264,-664,2008,-16,68,-2
11370,-256,-656,2032,-16,67,-3
11375,-232,-664,2024,-15,67,-4
11380,-288,-632,2008,-15,66,-4
11385,-224,-672,2024,-14,68,-3
11390,-256,-656,2024,-14,69,-2
11395,-256,-672,2024,-12,68,-1
11400,-232,-648,2008,-13,68,-1
11405,-240,-672,2008,-13,70,-1
11410,-248,-640,2016,-12,70,-4
11415,-240,-648,2008,-12,70,-3
11420,-248,-656,2048,-12,69,-2
11425,-240,-656,2024,-11,69,-1
11430,-248,-664,2024,-11,67,-3
11435,-248,-664,2016,-10,68,-2
11440,-256,-648,2032,-10,68,-2
11445,-216,-664,2024,-9,69,-2
11450,-256,-664,2048,-9,68,-2
11455,-256,-664,2024,-10,68,-3
11460,-272,-656,2032,-9,70,-2
11465,-264,-656,2008,-9,69,-4
11470,-248,-648,2016,-10,70,-3
11475,-256,-672,2048,-9,67,-4
11480,-248,-624,2024,-10,67,-3
11485,-232,-672,2016,-11,67,-2
11490,-256,-656,2016,-11,66,-4
11495,-232,-640,2008,-10,67,-4
11500,-248,-664,2040,-11,68,-4
11505,-256,-648,2032,-12,68,-4
11510,-248,-672,2032,-13,67,-4
11515,-248,-664,2040,-13,68,-4
11520,-264,-664,2032,-13,67,-3
11525,-264,-656,2024,-13,67,-3
11530,-224,-648,1992,-13,67,-4
11535,-224,-648,2024,-12,67,-3
11540,-264,-648,2008,-10,66,-2
11545,-232,-656,2016,-10,67,-2
11550,-248,-664,2008,-9,68,-3
11555,-280,-640,2024,-8,67,-3
11560,-256,-656,2008,-7,68,-2
11565,-272,-640,2008,-6,69,-3
11570,-256,-664,2016,-6,70,-3
11575,-232,-664,2000,-5,71,-4
11580,-240,-672,2008,-5,71,-5
11585,-240,-664,2032,-4,71,-3
11590,-264,-648,2040,-3,70,-3
11595,-248,-672,2000,-2,71,-3
11600,-232,-664,2032,-4,71,-3
11605,-224,-656,1992,-4,72,-1
11610,-224,-656,2048,-6,72,-4
11615,-224,-664,2024,-8,71,-3
11620,-248,-648,2032,-10,70,-1
11625,-256,-640,2032,-14,70,0
11630,-232,-680,2024,-18,70,1
11635,-248,-664,2016,-19,69,-1
11640,-232,-656,2032,-19,71,-1
11645,-240,-672,2032,-19,70,-1
11650,-248,-656,2016,-19,68,-3
11655,-248,-632,2040,-16,66,-2
11660,-272,-632,2040,-12,67,-4
11665,-256,-656,2032,-7,67,-5
11670,-240,-664,2008,-2,69,-4
11675,-264,-656,2032,4,70,-6
11680,-232,-672,2000,7,71,-7
11685,-256,-648,2016,9,71,-6
11690,-256,-648,1992,9,72,-7
11695,-240,-656,2016,6,72,-8
11700,-232,-680,2016,2,74,-8
11705,-256,-656,1992,-2,73,-6
11710,-248,-680,2008,-4,73,-4
11715,-232,-656,2016,-5,75,-2
11720,-224,-664,2008,-4,74,0
11725,-264,-656,2000,0,74,2
11730,-224,-680,2032,5,72,2
11735,-240,-664,2008,14,69,3
11740,-240,-664,2024,23,64,2
11745,-272,-656,2032,32,59,2
11750,-232,-648,2008,37,57,2
11755,-256,-648,2032,42,56,0
11760,-264,-640,2024,44,56,0
11765,-240,-632,2016,45,55,0
11770,-272,-664,2040,42,56,0
11775,-272,-624,2040,37,57,-1
11780,-264,-640,2032,31,57,-2
11785,-256,-632,2024,24,58,-2
11790,-240,-656,2032,16,60,-5
11795,-232,-656,2024,9,63,-5
11800,-256,-656,2048,3,64,-5
11805,-232,-672,2040,-4,66,-4
11810,-232,-640,2040,-9,69,-4
11815,-240,-648,2040,-12,70,-4
11820,-240,-656,2016,-14,72,-3
11825,-248,-648,2008,-12,72,-2
11830,-232,-656,2040,-13,72,-2
11835,-248,-664,2032,-11,73,-1
11840,-248,-640,2024,-10,71,0
11845,-248,-656,2016,-8,69,2
11850,-256,-648,2008,-8,67,0
11855,-264,-640,2000,-8,65,0
11860,-264,-656,2016,-7,64,-1
11865,-248,-664,2032,-6,63,-2
11870,-240,-656,2016,-6,63,0
11875,-248,-640,2024,-7,63,-3
11880,-240,-680,2056,-8,64,-3
11885,-224,-640,2040,-11,65,-3
11890,-240,-656,2040,-13,64,-4
11895,-256,-632,2016,-16,64,-5
11900,-264,-640,2040,-20,63,-5
11905,-240,-648,2024,-22,65,-4
11910,-240,-640,2032,-25,65,-5
11915,-240,-648,2024,-27,67,-5
11920,-248,-656,2048,-28,67,-4
11925,-240,-664,2024,-29,68,-3
11930,-240,-648,2024,-28,65,-4
11935,-224,-656,2024,-27,64,-4
11940,-256,-648,2024,-27,64,-4
11945,-248,-656,2032,-28,66,-4
11950,-240,-648,2024,-28,65,-3
11955,-256,-656,2024,-28,65,-4
11960,-232,-640,2024,-30,66,-4
11965,-240,-632,2024,-31,68,-4
11970,-256,-640,2032,-32,69,-4
11975,-256,-672,2016,-33,70,-5
11980,-232,-640,2016,-34,72,-5
11985,-240,-664,2040,-32,74,-5
11990,-240,-672,2024,-30,74,-6
11995,-240,-672,2048,-26,76,-5
12000,-256,-664,2008,-23,75,-6
12005,-248,-632,2024,-17,75,-5
12010,-248,-656,1976,-12,75,-4
12015,-256,-640,2032,-7,76,-5
12020,-240,-664,2016,-2,74,-4
12025,-232,-640,2016,1,73,-3
12030,-256,-664,2016,3,74,-4
12035,-264,-640,2024,5,72,-3
12040,-248,-656,2016,3,71,-2
12045,-264,-648,2016,1,70,-3
12050,-248,-656,2016,-1,70,-2
12055,-248,-640,2016,-3,69,-3
12060,-232,-640,2032,-6,70,-3
12065,-272,-632,2024,-8,69,-3
12070,-248,-656,2024,-9,68,-3
12075,-240,-640,2008,-11,67,-4
12080,-240,-648,1984,-11,66,-3
12085,-264,-656,2032,-11,65,-5
12090,-240,-672,2016,-13,65,-4
12095,-272,-640,2024,-13,64,-5
12100,-208,-664,2016,-14,64,-6
12105,-232,-656,2008,-14,65,-5
12110,-248,-640,2000,-15,65,-4
12115,-256,-656,2016,-16,66,-6
12120,-264,-640,2000,-16,67,-6
12125,-232,-656,2024,-17,69,-7
12130,-248,-648,2040,-18,69,-4
12135,-248,-656,2016,-18,68,-4
12140,-248,-632,2016,-18,69,-3
12145,-240,-616,2032,-18,68,-3
12150,-240,-664,2016,-17,67,-2
12155,-232,-656,2024,-17,66,-2
12160,-248,-664,2032,-17,67,-3
12165,-256,-656,2016,-14,66,-3
12170,-248,-640,2040,-15,65,-2
12175,-248,-664,2008,-15,66,-2
12180,-248,-640,2024,-13,67,-1
12185,-248,-640,2024,-14,66,-3
12190,-248,-640,2016,-13,66,-3
12195,-256,-656,2040,-13,68,-3
12200,-232,-648,2024,-13,68,-3
12205,-248,-664,2040,-13,67,-4
12210,-264,-648,2000,-13,68,-4
12215,-232,-648,2032,-14,68,-5
12220,-248,-656,2040,-15,67,-3
12225,-248,-672,2008,-16,68,-4
12230,-232,-632,2016,-17,67,-4
12235,-240,-672,2024,-18,67,-4
12240,-248,-664,2000,-19,67,-3
12245,-256,-648,2040,-18,66,-2
12250,-232,-672,2016,-18,67,-2
12255,-232,-640,2016,-17,65,-2
12260,-248,-640,2024,-17,67,-2
12265,-256,-664,2024,-17,66,-3
12270,-232,-656,2040,-16,66,-4
12275,-256,-656,2024,-15,67,-4
12280,-232,-672,2024,-16,68,-3
12285,-240,-648,2032,-15,68,-2
12290,-248,-648,2040,-15,68,-4
12295,-248,-648,2016,-15,67,-4
12300,-256,-632,1992,-14,67,-3
12305,-232,-664,2024,-14,66,-1
12310,-232,-624,1984,-13,67,-2
12315,-264,-648,2032,-13,67,-3
12320,-232,-656,2000,-14,68,-2
12325,-272,-656,2040,-13,67,-4
12330,-248,-664,2016,-14,68,-5
12335,-232,-664,2024,-14,68,-4
12340,-248,-648,2032,-15,67,-4
12345,-256,-664,2048,-15,69,-4
12350,-224,-680,2032,-17,68,-5
12355,-240,-664,2040,-15,67,-4
12360,-256,-640,2000,-16,68,-5
12365,-256,-664,2024,-16,66,-5
12370,-232,-640,2024,-16,67,-4
12375,-240,-656,1992,-15,67,-3
12380,-240,-648,2000,-15,67,-3
12385,-256,-640,1992,-16,67,-5
12390,-248,-656,2040,-15,67,-4
12395,-248,-648,2024,-15,67,-4
12400,-248,-656,2032,-15,68,-4
12405,-272,-624,2016,-14,68,-4
12410,-256,-656,2040,-13,67,-3
12415,-240,-664,2008,-13,67,-3
12420,-248,-664,2000,-14,66,-2
12425,-264,-688,2024,-12,68,-1
12430,-248,-664,1992,-12,68,-3
12435,-264,-640,2024,-12,68,-3
12440,-264,-632,2016,-10,68,-2
12445,-248,-656,1992,-9,69,-3
12450,-264,-640,2016,-8,69,-4
12455,-248,-656,2016,-8,71,-3
12460,-232,-648,2016,-7,70,-4
12465,-240,-656,2016,-7,70,-3
12470,-264,-656,2008,-8,70,-4
12475,-256,-672,2032,-7,70,-4
12480,-264,-640,1992,-6,69,-4
12485,-256,-656,2016,-6,69,-4
12490,-248,-648,2024,-6,71,-2
12495,-248,-664,2032,-7,70,-3
12500,-248,-656,2032,-11,69,-2
12505,-224,-664,2008,-14,69,-1
12510,-240,-648,2024,-17,70,-1
12515,-248,-664,2024,-20,71,-1
12520,-248,-656,2008,-20,71,0
12525,-224,-664,2008,-21,69,0
12530,-248,-656,1992,-21,69,-3
12535,-256,-624,2032,-21,69,-3
12540,-240,-648,2024,-20,68,-3
12545,-248,-680,2032,-16,67,-5
12550,-240,-656,2040,-10,67,-5
12555,-248,-648,2024,-5,67,-6
12560,-248,-656,2008,1,68,-6
12565,-264,-672,2000,6,71,-5
12570,-256,-656,2008,8,71,-7
12575,-232,-648,2000,8,72,-6
12580,-256,-672,2016,7,72,-6
12585,-264,-672,2000,4,73,-7
12590,-256,-656,2032,1,73,-6
12595,-256,-656,2008,-4,73,-5
12600,-248,-656,2008,-6,72,-4
12605,-232,-648,2024,-7,71,-1
12610,-256,-672,2008,-4,72,0
12615,-240,-648,2024,1,72,1
12620,-248,-672,2000,5,68,1
12625,-240,-672,2024,14,64,1
12630,-240,-664,2024,22,61,2
12635,-256,-664,2032,29,58,2
12640,-232,-640,2024,33,56,1
12645,-240,-632,2016,36,55,1
12650,-240,-624,2032,36,53,-1
12655,-248,-640,2048,34,54,-3
12660,-240,-656,2016,28,54,-3
12665,-256,-608,2040,22,55,-3
12670,-240,-632,2008,14,57,-4
12675,-264,-624,2032,3,59,-4
12680,-256,-640,2040,-1,62,-6
12685,-256,-632,2040,-8,64,-5
12690,-224,-648,2024,-12,67,-6
12695,-248,-640,2032,-14,69,-6
12700,-232,-640,2016,-16,71,-4
12705,-232,-640,2040,-16,71,-6
12710,-248,-656,2024,-15,72,-3
12715,-248,-648,2008,-13,74,-2
12720,-224,-656,2024,-12,72,-1
12725,-248,-664,2016,-11,71,0
12730,-224,-640,2032,-12,70,-2
12735,-256,-656,2024,-12,67,-2
12740,-256,-656,2016,-10,66,-1
12745,-240,-656,2040,-9,64,-1
12750,-240,-664,2024,-9,62,-2
12755,-256,-624,2040,-9,63,-1
12760,-256,-656,2024,-10,63,-3
12765,-264,-648,2024,-10,63,-5
12770,-280,-640,2032,-12,63,-6
12775,-240,-656,2016,-16,63,-6
12780,-256,-640,2032,-17,65,-5
12785,-256,-664,2040,-21,67,-5
12790,-240,-656,2008,-23,67,-6
12795,-240,-656,2040,-25,69,-5
12800,-224,-656,2032,-28,69,-6
12805,-256,-632,2016,-29,71,-4
12810,-256,-640,2032,-31,70,-3
12815,-248,-648,2040,-30,69,-3
12820,-248,-640,2024,-28,68,-4
12825,-248,-648,2000,-26,67,-3
12830,-232,-640,2040,-24,66,-3
12835,-280,-632,2040,-23,67,-2
12840,-240,-664,2000,-22,67,-4
12845,-256,-664,2040,-25,68,-4
12850,-248,-664,2040,-26,67,-4
12855,-248,-640,2032,-28,69,-4
12860,-248,-648,2008,-30,69,-5
12865,-240,-632,2024,-30,70,-5
12870,-248,-640,2040,-32,71,-5
12875,-240,-672,2000,-29,73,-4
12880,-248,-640,2024,-28,72,-4
12885,-248,-680,2032,-24,75,-4
12890,-272,-656,2016,-19,75,-2
12895,-232,-680,2000,-14,74,-2
12900,-264,-656,2024,-8,75,-3
12905,-248,-672,2024,-3,76,-4
12910,-256,-656,2016,1,74,-3
12915,-240,-616,2032,3,74,-3
12920,-240,-656,2008,5,73,-1
12925,-232,-664,2024,5,73,-3
12930,-240,-656,2040,3,72,-3
12935,-256,-648,2008,0,70,-2
12940,-248,-640,1992,-2,71,-3
12945,-232,-640,2040,-4,70,-3
12950,-256,-656,2040,-5,70,-4
12955,-272,-648,2040,-7,70,-3
12960,-232,-680,2016,-7,68,-3
12965,-232,-640,2024,-10,67,-3
12970,-288,-624,2040,-11,68,-4
12975,-248,-664,2024,-12,66,-5
12980,-256,-624,2016,-13,66,-5
12985,-256,-640,2032,-14,64,-6
12990,-248,-664,2016,-14,64,-6
12995,-240,-656,2024,-16,64,-6
13000,-240,-640,2008,-16,65,-6
13005,-240,-648,2016,-16,67,-6
13010,-264,-656,1992,-18,68,-5
13015,-232,-664,2016,-17,69,-4
13020,-232,-680,2040,-19,69,-5
13025,-224,-656,2024,-17,69,-4
13030,-232,-664,2040,-18,69,-2
13035,-240,-656,2016,-16,69,-3
13040,-232,-640,1992,-15,68,-3
13045,-256,-664,2048,-14,67,-3
13050,-264,-640,2040,-13,68,-1
13055,-232,-664,2008,-12,68,-2
13060,-264,-656,2016,-12,66,-2
13065,-248,-672,2016,-11,64,-3
13070,-200,-664,2040,-10,66,-3
13075,-248,-656,2024,-10,65,-3
13080,-264,-648,2072,-10,66,-3
13085,-256,-640,2024,-11,67,-5
13090,-240,-656,2040,-13,68,-4
13095,-232,-664,2024,-14,68,-4
13100,-248,-648,2024,-15,69,-4
13105,-240,-672,2016,-15,68,-5
13110,-240,-656,2024,-16,68,-4
13115,-240,-640,2040,-16,66,-3
13120,-232,-664,2056,-18,67,-3
13125,-272,-632,2048,-18,67,-3
13130,-248,-680,1992,-20,67,-3
13135,-224,-680,2000,-18,67,-3
13140,-280,-640,2008,-18,65,-2
13145,-256,-632,2016,-18,66,-2
13150,-256,-672,2016,-16,66,-2
13155,-264,-664,2016,-16,67,-2
13160,-248,-664,2016,-14,67,-3
13165,-240,-640,2040,-13,66,-2
13170,-224,-648,2032,-14,66,-1
13175,-256,-664,2032,-13,68,-2
13180,-248,-672,2000,-11,68,-3
13185,-240,-672,2016,-11,70,-2
13190,-256,-664,2040,-11,70,-4
13195,-264,-672,2024,-11,68,-4
13200,-224,-648,2024,-13,69,-3
13205,-240,-664,1984,-12,68,-3
13210,-232,-648,2032,-11,68,-2
13215,-240,-672,2024,-11,69,-2
13220,-264,-624,2008,-11,70,-2
13225,-240,-648,2032,-11,69,-3
13230,-240,-656,2048,-12,70,-2
13235,-248,-664,2040,-11,70,-3
13240,-232,-648,2040,-11,69,-2
13245,-248,-640,2048,-10,69,-2
13250,-248,-632,2040,-9,68,-2
13255,-256,-640,2000,-10,68,-2
13260,-232,-656,2024,-10,69,-2
13265,-240,-632,2008,-11,68,-4
13270,-232,-664,2024,-10,69,-3
13275,-264,-648,2024,-10,68,-4
13280,-240,-648,2024,-10,69,-3
13285,-240,-664,2040,-10,69,-2
13290,-248,-656,2000,-12,69,-3
13295,-248,-640,2000,-13,67,-2
13300,-232,-656,2032,-12,68,-2
13305,-224,-680,2024,-12,67,-4
13310,-248,-656,2008,-14,68,-3
13315,-248,-672,2048,-14,68,-2
13320,-232,-640,2024,-15,68,-2
13325,-256,-640,2032,-14,68,-1
13330,-240,-672,2000,-14,68,-1
13335,-240,-632,2024,-13,69,-2
13340,-248,-664,2016,-12,68,-2
13345,-248,-640,2016,-11,69,-3
13350,-216,-672,1992,-9,69,-1
13355,-240,-672,2016,-7,70,-2
13360,-256,-648,2024,-6,69,-3
13365,-232,-664,2040,-6,69,-2
13370,-248,-648,2016,-4,71,-3
13375,-240,-640,2032,-4,71,-2
13380,-240,-648,2024,-4,70,-2
13385,-248,-648,2024,-3,72,-2
13390,-232,-656,2008,-3,71,-3
13395,-256,-664,2016,-5,71,-2
13400,-248,-640,2032,-7,70,-1
13405,-280,-592,2016,-9,68,-3
13410,-256,-672,2016,-11,69,-2
13415,-248,-632,2016,-15,70,-1
13420,-272,-664,2024,-18,71,-1
13425,-256,-640,2008,-22,70,-2
13430,-216,-656,2024,-23,72,0
13435,-256,-648,2024,-23,70,-1
13440,-256,-656,2016,-21,69,-2
13445,-232,-672,2024,-22,68,-2
13450,-248,-648,2016,-20,66,-3
13455,-248,-664,2024,-16,66,-5
13460,-240,-656,2016,-9,67,-5
13465,-248,-688,2016,-2,68,-5
13470,-256,-664,2016,2,69,-5
13475,-248,-656,2032,5,71,-5
13480,-232,-640,2040,7,72,-6
13485,-240,-672,2016,7,72,-8
13490,-264,-664,2008,6,71,-8
13495,-256,-640,2032,0,73,-8
13500,-256,-648,2016,-4,73,-5
13505,-256,-664,2024,-8,73,-4
13510,-248,-688,2032,-8,73,-2
13515,-224,-680,1992,-8,72,-1
13520,-240,-664,2024,-5,72,2
13525,-240,-656,2008,0,70,1
13530,-224,-672,2024,6,67,1
13535,-240,-656,2008,14,64,2
13540,-264,-648,1992,21,60,1
13545,-256,-664,2016,27,58,1
13550,-264,-624,2000,30,55,-1
13555,-240,-648,2032,31,55,-2
13560,-240,-656,2024,31,54,-1
13565,-240,-616,2000,29,55,-1
13570,-248,-632,2032,23,57,-3
13575,-240,-632,2040,15,58,-4
13580,-248,-640,2048,9,59,-6
13585,-240,-632,2024,2,60,-7
13590,-248,-624,2048,-5,63,-6
13595,-224,-632,2040,-11,65,-6
13600,-256,-632,2024,-14,68,-5
13605,-248,-656,2032,-14,69,-4
13610,-248,-664,2040,-16,71,-5
13615,-248,-664,2016,-17,71,-3
13620,-240,-656,2016,-17,72,-3
13625,-240,-640,1992,-16,74,-3
13630,-248,-656,2032,-14,70,-1
13635,-240,-664,2048,-14,69,-1
13640,-232,-656,2032,-12,68,-1
13645,-240,-672,2040,-9,66,0
13650,-240,-680,2024,-8,65,0
13655,-248,-656,2016,-6,63,-1
13660,-232,-672,2024,-5,63,-3
13665,-264,-648,2040,-3,62,-3
13670,-240,-640,2000,-3,63,-4
13675,-256,-640,2040,-3,62,-3
13680,-232,-656,2032,-5,63,-4
13685,-256,-656,1992,-7,65,-5
13690,-256,-648,2000,-10,65,-4
13695,-240,-648,2032,-13,66,-4
13700,-272,-640,2024,-13,67,-6
13705,-264,-648,2024,-18,67,-6
13710,-264,-632,2008,-20,67,-3
13715,-248,-632,2008,-23,68,-3
13720,-232,-648,2048,-26,67,-2
13725,-224,-664,2032,-27,68,-1
13730,-240,-648,2048,-28,67,-1
13735,-256,-648,2032,-28,67,0
13740,-240,-632,2032,-28,64,0
13745,-248,-648,2040,-26,63,-1
13750,-224,-672,2040,-26,65,-3
13755,-232,-648,2048,-25,66,-2
13760,-264,-632,2024,-25,69,-3
13765,-240,-656,2016,-26,70,-2
13770,-232,-656,2040,-27,73,-2
13775,-216,-672,2000,-26,74,-2
13780,-264,-640,2024,-26,75,-2
13785,-256,-664,2016,-23,74,-1
13790,-248,-688,1976,-21,75,0
13795,-224,-672,1984,-13,77,0
13800,-232,-680,1992,-6,77,0
13805,-224,-696,2024,2,77,0
13810,-216,-688,2024,9,72,0
13815,-248,-672,2016,16,71,-1
13820,-240,-656,2016,23,69,-1
13825,-248,-664,2000,28,65,0
13830,-232,-640,2008,32,63,-1
13835,-240,-632,2016,34,62,-2
13840,-256,-648,2032,35,59,-3
13845,-232,-648,2024,35,57,-3
13850,-248,-648,2032,34,56,-4
13855,-248,-624,2016,33,57,-4
13860,-248,-632,2040,29,58,-5
13865,-248,-640,2024,25,58,-8
13870,-248,-640,2040,23,56,-8
13875,-248,-632,2016,20,57,-10
13880,-256,-632,2024,17,58,-11
13885,-240,-648,2032,16,56,-11
13890,-256,-664,2024,14,56,-11
13895,-248,-656,2040,13,56,-10
13900,-240,-640,2048,11,57,-13
13905,-256,-624,2016,10,57,-14
13910,-224,-672,2008,10,57,-17
13915,-256,-648,2008,13,57,-23
13920,-248,-632,2040,17,58,-31
13925,-216,-640,2024,19,62,-26
13930,-248,-632,2032,16,68,-19
13935,-240,-648,2056,12,70,-13
13940,-248,-632,2056,5,72,-9
13945,-248,-656,2032,-3,73,-7
13950,-224,-632,2048,-10,73,-6
13955,-240,-664,2040,-12,73,-7
13960,-256,-624,2032,-11,72,-7
13965,-232,-640,2048,-10,69,-5
13970,-224,-656,2000,-8,67,-4
13975,-240,-624,2040,-9,67,-5
13980,-240,-632,2056,-7,66,-5
13985,-224,-648,2024,-5,64,-5
13990,-248,-624,2016,-5,64,-6
13995,-248,-632,2040,-3,65,-7
14000,-256,-624,1992,-2,64,-7
14005,-224,-664,2024,4,63,-16
14010,-240,-632,2024,10,62,-17
14015,-240,-624,2016,9,63,-13
14020,-248,-640,2040,6,64,-8
14025,-224,-648,2032,1,64,-5
14030,-200,-656,2024,-3,64,-5
14035,-224,-640,2008,-10,67,-5
14040,-248,-632,2032,-14,66,-3
14045,-208,-640,2040,-13,67,-3
14050,-240,-648,2008,-16,67,-2
14055,-232,-640,2008,-16,68,-2
14060,-232,-632,2016,-16,66,0
14065,-240,-640,2032,-15,68,-1
14070,-224,-640,2024,-11,66,0
14075,-264,-648,2032,-8,67,-1
14080,-280,-648,2040,-7,67,-1
14085,-240,-648,2024,-4,65,-1
14090,-224,-640,2032,-3,66,0
14095,-232,-624,2024,-2,67,-1
14100,-248,-648,2016,2,67,1
14105,-240,-640,2000,3,66,0
14110,-224,-648,2024,5,65,-1
14115,-224,-648,2008,5,64,-1
14120,-240,-664,2032,7,64,-1
14125,-224,-656,2008,7,63,-1
14130,-256,-640,1992,7,63,-1
14135,-224,-640,2024,6,64,-2
14140,-232,-648,2024,4,64,-1
14145,-248,-640,2048,2,64,-2
14150,-240,-624,2024,0,64,-2
14155,-264,-616,2040,-2,64,-2
14160,-248,-672,2040,-3,62,-4
14165,-248,-640,2048,-1,63,-5
14170,-248,-632,2016,0,65,-6
14175,-240,-640,2032,0,67,-6
14180,-264,-624,2032,1,66,-6
14185,-232,-648,2024,1,66,-8
14190,-248,-640,2000,1,65,-7
14195,-248,-632,2024,2,65,-6
14200,-256,-616,2040,1,67,-8
14205,-240,-648,2024,-1,67,-7
14210,-264,-600,2016,-1,67,-6
14215,-232,-656,1992,-1,68,-6
14220,-232,-648,2040,-1,67,-5
14225,-248,-624,2016,-1,67,-4
14230,-248,-608,2040,-2,67,-5
14235,-224,-648,2032,-1,66,-5
14240,-248,-640,2040,-1,67,-4
14245,-216,-656,2024,0,67,-3
14250,-232,-600,2024,0,67,-3
14255,-224,-648,2048,0,67,-4
14260,-216,-648,2040,1,67,-4
14265,-224,-632,2040,3,68,-2
14270,-232,-624,2024,2,67,-3
14275,-232,-640,2024,3,65,-4
14280,-240,-648,2016,3,68,-3
14285,-232,-640,2048,1,68,-3
14290,-256,-648,2048,1,68,-3
14295,-248,-640,2000,1,69,-3
14300,-232,-640,2040,-1,71,-1
14305,-240,-640,2024,-3,70,-4
14310,-232,-632,2024,-5,69,-3
14315,-232,-640,2040,-9,69,-2
14320,-232,-632,2024,-11,69,-2
14325,-248,-640,2080,-16,70,-2
14330,-240,-640,2024,-19,70,-2
14335,-224,-648,2032,-22,70,-1
14340,-248,-640,2032,-25,69,-2
14345,-224,-624,2040,-23,70,-1
14350,-232,-632,2000,-23,68,0
14355,-232,-616,2040,-19,67,-1
14360,-248,-624,2040,-17,65,-2
14365,-224,-632,2032,-13,65,-2
14370,-256,-616,2024,-8,67,-4
14375,-240,-616,2040,-6,68,-4
14380,-232,-632,2032,-2,69,-5
14385,-224,-632,2000,-1,69,-5
14390,-256,-632,2040,-1,68,-7
14395,-232,-648,2024,-2,68,-8
14400,-240,-656,2048,-5,69,-7
14405,-224,-648,2024,-9,68,-7
14410,-248,-648,2016,-13,70,-6
14415,-232,-672,2016,-15,70,-4
14420,-256,-640,1992,-18,71,-3
14425,-240,-648,2032,-17,72,-1
14430,-248,-640,2032,-13,72,0
14435,-232,-656,2008,-9,72,-1
14440,-232,-680,2024,-2,69,-1
14445,-240,-656,2024,4,68,-1
14450,-256,-624,2016,10,65,-3
14455,-240,-632,2008,14,62,-1
14460,-280,-624,2032,17,64,-2
14465,-232,-616,2032,18,66,-2
14470,-248,-640,2032,17,66,-2
14475,-232,-600,2056,15,67,-3
14480,-240,-616,2048,10,68,-3
14485,-248,-632,2032,5,67,-4
14490,-232,-632,2072,-2,68,-3
14495,-216,-624,2048,-9,68,-6
14500,-264,-624,2008,-14,69,-5
14505,-256,-600,2040,-19,70,-4
14510,-224,-648,2000,-22,71,-4
14515,-240,-648,2040,-27,72,-3
14520,-232,-656,2016,-28,73,-2
14525,-232,-640,2048,-29,73,-2
14530,-240,-592,2024,-30,74,-3
14535,-232,-632,2032,-31,73,-2
14540,-256,-640,2024,-31,72,-3
14545,-232,-624,2032,-29,71,-2
14550,-216,-648,2024,-28,70,-3
14555,-248,-632,2008,-28,69,-3
14560,-248,-616,2056,-29,68,-3
14565,-248,-648,2040,-29,68,-2
14570,-224,-640,2016,-28,69,-1
14575,-232,-640,2048,-32,68,-3
14580,-216,-656,2024,-34,68,-3
14585,-232,-624,2048,-36,69,-3
14590,-216,-640,2016,-40,69,-3
14595,-248,-624,2024,-45,68,-5
14600,-224,-624,2032,-49,70,-4
14605,-208,-640,2056,-55,70,-5
14610,-256,-624,2016,-59,69,-5
14615,-216,-656,2032,-61,70,-3
14620,-256,-624,2000,-65,71,-2
14625,-240,-632,2056,-67,69,-1
14630,-248,-648,2048,-68,70,-2
14635,-240,-656,2024,-66,69,-2
14640,-264,-632,2024,-65,68,-3
14645,-216,-640,2008,-63,67,-3
14650,-264,-648,2048,-62,65,-3
14655,-288,-648,2016,-63,66,-4
14660,-248,-656,2032,-63,67,-6
14665,-232,-648,2048,-64,69,-5
14670,-256,-664,2032,-65,72,-5
14675,-248,-648,2008,-67,72,-6
14680,-240,-640,2040,-68,74,-6
14685,-248,-672,2008,-67,75,-5
14690,-248,-664,2024,-68,77,-5
14695,-240,-648,2024,-64,76,-6
14700,-240,-672,2008,-60,76,-7
14705,-248,-688,2032,-55,76,-5
14710,-264,-664,2008,-47,77,-4
14715,-240,-680,2008,-40,78,-4
14720,-248,-656,2008,-31,76,-3
14725,-232,-656,2016,-25,76,-4
14730,-232,-664,2024,-19,77,-5
14735,-240,-632,2016,-15,78,-4
14740,-240,-664,2032,-11,79,-3
14745,-256,-648,1992,-9,78,-4
14750,-256,-656,2032,-8,77,-3
14755,-232,-656,2024,-8,76,-2
14760,-240,-656,2024,-10,77,-3
14765,-240,-656,2000,-12,77,-3
14770,-240,-640,2016,-15,77,-4
14775,-240,-640,2032,-17,74,-5
14780,-232,-640,2040,-18,73,-4
14785,-240,-672,2040,-21,71,-4
14790,-232,-640,2040,-22,68,-6
14795,-256,-640,2032,-22,68,-6
14800,-248,-656,2040,-25,67,-8
14805,-224,-656,2032,-27,67,-7
14810,-232,-624,2016,-28,65,-9
14815,-224,-648,2024,-31,66,-10
14820,-232,-672,2032,-33,68,-9
14825,-248,-640,2040,-34,69,-8
14830,-264,-640,2016,-35,69,-8
14835,-248,-664,2040,-35,71,-6
14840,-240,-640,1992,-36,72,-5
14845,-256,-632,2040,-39,74,-6
14850,-232,-664,2024,-41,75,-3
14855,-248,-648,2016,-42,75,-2
14860,-248,-640,2016,-44,75,-4
14865,-216,-640,2024,-46,74,-3
14870,-240,-664,2048,-46,73,-3
14875,-224,-664,2032,-46,73,-1
14880,-248,-656,2040,-47,74,-1
14885,-272,-664,2032,-46,71,-2
14890,-264,-664,2016,-47,71,-3
14895,-256,-664,2032,-46,70,-3
14900,-248,-656,2024,-45,69,-5
14905,-256,-648,2024,-44,70,-3
14910,-256,-664,2016,-42,69,-4
14915,-256,-656,2000,-42,69,-3
14920,-248,-688,2032,-42,70,-3
14925,-240,-656,2000,-43,70,-3
14930,-232,-688,2008,-43,70,-4
14935,-256,-648,2008,-45,72,-4
14940,-240,-672,2024,-47,72,-4
14945,-248,-664,2016,-47,71,-4
14950,-248,-672,2024,-47,70,-5
14955,-248,-680,2008,-47,70,-3
14960,-248,-672,2024,-48,69,-3
14965,-240,-680,2008,-48,70,-3
14970,-240,-680,2016,-49,71,-2
14975,-280,-664,2000,-49,70,-2
14980,-240,-656,1992,-48,72,-2
14985,-232,-688,2024,-50,72,-2
14990,-248,-672,2000,-49,73,-1
14995,-256,-640,2024,-50,74,0
