timestamp,accel_x,accel_y,accel_z,gyro_x,gyro_y,gyro_z
0,8,-2032,-320,-8,68,-1
5,0,-2016,-336,-9,69,-2
10,0,-2032,-280,-7,70,0
15,0,-2016,-352,-8,69,-1
20,16,-2032,-336,-10,69,0
25,8,-1968,-360,-11,68,0
30,0,-2024,-312,-14,67,1
35,8,-2040,-312,-16,68,2
40,8,-2016,-320,-17,69,2
45,0,-2032,-352,-18,70,1
50,16,-2016,-344,-20,71,2
55,8,-2040,-328,-22,71,1
60,8,-2016,-352,-23,73,0
65,0,-2016,-336,-24,74,0
70,-8,-2040,-336,-26,75,1
75,48,-1992,-408,-26,77,0
80,0,-2016,-344,-26,77,0
85,8,-2016,-368,-27,75,-1
90,0,-2024,-328,-27,76,-1
95,0,-2032,-376,-27,75,-1
100,0,-2032,-352,-28,74,-2
105,0,-2024,-336,-29,74,-1
110,0,-2024,-320,-31,74,-1
115,0,-2024,-320,-31,73,-2
120,8,-2032,-344,-32,72,-2
125,0,-2032,-320,-33,72,-2
130,0,-2048,-344,-34,73,-2
135,-8,-2016,-336,-32,72,-1
140,-8,-2064,-328,-31,72,-1
145,8,-2024,-328,-32,72,-2
150,8,-2048,-336,-32,71,-2
155,8,-2024,-344,-31,72,-2
160,8,-2040,-336,-31,73,-3
165,0,-2032,-320,-31,72,-3
170,-16,-2008,-360,-32,70,-4
175,0,-2024,-360,-34,70,-4
180,16,-2000,-336,-37,71,-5
185,40,-2000,-304,-38,72,-6
190,8,-2016,-360,-39,74,-4
195,0,-2016,-344,-41,74,-5
200,8,-2024,-336,-44,75,-6
205,8,-2024,-360,-46,74,-4
210,0,-2048,-344,-45,74,-4
215,0,-2032,-336,-45,74,-5
220,-16,-2024,-344,-46,72,-7
225,0,-2032,-376,-48,70,-5
230,0,-2032,-344,-49,71,-5
235,0,-2040,-328,-50,71,-5
240,0,-2032,-368,-52,71,-5
245,-16,-2008,-320,-52,71,-5
250,0,-2048,-344,-53,70,-4
255,0,-2032,-360,-53,70,-5
260,8,-2016,-352,-53,70,-6
265,0,-2040,-360,-53,70,-7
270,0,-2008,-336,-52,69,-7
275,0,-2016,-344,-52,70,-5
280,8,-2024,-344,-53,70,-6
285,0,-2048,-376,-53,70,-7
290,16,-2024,-352,-53,69,-7
295,8,-2072,-320,-53,70,-6
300,0,-2056,-320,-52,70,-7
305,0,-2024,-336,-51,68,-5
310,0,-2024,-352,-50,71,-5
315,0,-2024,-352,-49,72,-7
320,0,-2032,-320,-50,71,-5
325,0,-2048,-328,-51,71,-4
330,0,-2032,-360,-47,69,-1
335,8,-2040,-384,-47,67,-3
340,0,-2032,-368,-47,68,-1
345,0,-2024,-336,-47,64,0
350,0,-2024,-360,-45,63,-1
355,0,-2024,-352,-46,62,1
360,-8,-2024,-376,-46,61,-1
365,0,-2016,-376,-46,58,-2
370,0,-2016,-360,-47,57,-3
375,0,-2040,-384,-48,58,-3
380,0,-2032,-376,-49,58,-3
385,0,-2016,-360,-51,58,-4
390,0,-2032,-376,-51,60,-3
395,0,-2064,-392,-52,61,-3
400,0,-2032,-360,-51,62,-4
405,0,-2080,-384,-53,62,-3
410,8,-2016,-384,-54,64,-3
415,0,-2040,-400,-56,64,-3
420,8,-2024,-376,-55,66,-2
425,0,-2024,-376,-56,65,-4
430,-16,-2024,-392,-57,66,-3
435,16,-2024,-352,-57,64,-3
440,8,-1992,-376,-57,64,-4
445,16,-2024,-376,-57,65,-4
450,0,-2000,-384,-57,64,-4
455,-8,-2016,-376,-57,66,-3
460,8,-2040,-392,-58,65,-2
465,0,-2032,-392,-59,66,-3
470,0,-2016,-384,-62,66,-2
475,16,-2040,-384,-64,66,-1
480,8,-2032,-392,-64,65,-1
485,0,-2048,-400,-67,65,-2
490,32,-2008,-376,-69,65,-2
495,8,-2000,-368,-71,63,-3
500,0,-2032,-384,-71,64,-6
505,8,-2024,-368,-73,62,-7
510,8,-2008,-368,-73,60,-6
515,-8,-2008,-416,-75,58,-7
520,16,-2032,-368,-75,56,-8
525,-8,-2024,-368,-75,57,-9
530,0,-2016,-408,-74,56,-8
535,-16,-2008,-344,-73,56,-9
540,16,-2048,-368,-74,55,-8
545,0,-2032,-392,-74,54,-9
550,0,-2032,-392,-73,54,-10
555,8,-2016,-432,-73,54,-11
560,16,-2016,-400,-74,55,-12
565,8,-2000,-384,-75,57,-14
570,0,-2008,-400,-76,58,-14
575,8,-2000,-424,-77,60,-14
580,8,-2048,-408,-78,61,-15
585,0,-2008,-392,-78,61,-16
590,0,-2016,-408,-80,61,-17
595,16,-2032,-400,-81,60,-19
600,24,-2024,-392,-83,59,-21
605,8,-2016,-408,-83,58,-21
610,16,-2024,-368,-84,60,-24
615,48,-2000,-400,-83,62,-23
620,16,-2032,-360,-82,62,-23
625,24,-2016,-408,-80,62,-23
630,24,-2000,-400,-78,65,-22
635,24,-2000,-384,-77,68,-22
640,8,-2016,-400,-78,69,-20
645,16,-2024,-392,-78,71,-20
650,32,-2048,-376,-80,72,-20
655,8,-2024,-400,-80,73,-19
660,16,-2024,-400,-81,74,-19
665,8,-2016,-432,-79,76,-19
670,32,-2008,-400,-79,77,-17
675,8,-2032,-376,-75,77,-18
680,32,-2040,-424,-72,77,-16
685,8,-2008,-392,-67,77,-16
690,8,-2000,-392,-62,77,-12
695,8,-2008,-408,-59,77,-10
700,32,-2024,-400,-54,75,-10
705,16,-2008,-408,-50,72,-6
710,0,-1992,-416,-48,68,-6
715,24,-2024,-368,-45,66,-5
720,0,-2008,-400,-43,64,-5
725,8,-2016,-408,-39,60,-3
730,0,-2048,-368,-39,56,-3
735,0,-2040,-408,-36,52,-3
740,0,-2040,-408,-33,50,-2
745,-16,-2032,-416,-30,48,-2
750,0,-2040,-424,-27,46,-3
755,-8,-2040,-424,-23,45,-2
760,16,-2056,-416,-17,43,-2
765,0,-2040,-392,-16,44,-3
770,0,-2016,-464,-15,45,-4
775,0,-2032,-416,-13,45,-4
780,0,-2024,-464,-11,45,-5
785,8,-2016,-408,-8,47,-4
790,8,-2016,-432,-6,47,-4
795,16,-2024,-424,-3,50,-5
800,8,-2024,-432,-1,51,-6
805,8,-2040,-424,2,49,-8
810,0,-2032,-424,1,48,-9
815,8,-2000,-424,3,48,-8
820,0,-2016,-424,5,48,-9
825,8,-2024,-440,6,49,-10
830,8,-2008,-424,9,49,-11
835,0,-2000,-416,8,51,-10
840,16,-2008,-400,8,53,-10
845,8,-1992,-408,7,56,-11
850,0,-2008,-424,4,56,-11
855,8,-2032,-416,1,56,-11
860,0,-1992,-432,-1,59,-11
865,8,-2000,-424,-4,59,-10
870,0,-2024,-440,-7,58,-10
875,24,-2008,-432,-9,59,-9
880,0,-2000,-416,-10,60,-9
885,16,-2016,-432,-9,60,-9
890,0,-2024,-448,-9,59,-9
895,0,-2024,-424,-10,60,-9
900,0,-2008,-416,-13,60,-10
905,8,-2016,-440,-14,61,-10
910,-16,-2008,-448,-17,61,-12
915,-8,-1984,-440,-20,63,-12
920,0,-1992,-400,-22,64,-12
925,0,-2000,-400,-25,66,-12
930,0,-1992,-400,-28,67,-11
935,-8,-2000,-440,-30,69,-10
940,8,-2000,-432,-33,68,-12
945,-16,-2000,-400,-35,67,-11
950,-8,-2024,-400,-36,67,-10
955,8,-2032,-440,-39,66,-10
960,0,-2008,-432,-41,67,-11
965,8,-2016,-456,-42,66,-11
970,8,-2016,-400,-42,68,-10
975,8,-2000,-464,-42,67,-10
980,0,-2008,-424,-42,65,-12
985,8,-2032,-440,-42,67,-12
990,0,-2000,-440,-42,69,-12
995,0,-2024,-416,-44,70,-10
1000,16,-2008,-440,-43,71,-11
1005,8,-1992,-464,-43,73,-9
1010,24,-2008,-432,-44,72,-9
1015,8,-2000,-432,-44,72,-11
1020,16,-2000,-416,-45,72,-10
1025,0,-2008,-424,-44,70,-10
1030,8,-2016,-408,-43,69,-12
1035,-8,-2016,-440,-41,67,-11
1040,16,-2016,-448,-40,66,-8
1045,0,-2024,-440,-36,65,-9
1050,8,-2008,-424,-34,64,-9
1055,16,-2032,-408,-31,66,-6
1060,0,-2016,-432,-28,68,-5
1065,8,-2032,-464,-27,68,-3
1070,0,-1992,-456,-26,68,-2
1075,8,-2024,-448,-24,69,-1
1080,0,-2024,-416,-23,65,0
1085,0,-2016,-424,-20,64,1
1090,0,-2048,-464,-18,63,3
1095,0,-2016,-432,-15,63,3
1100,0,-2008,-416,-13,62,2
1105,0,-2008,-424,-12,65,1
1110,0,-2032,-448,-11,66,1
1115,0,-2000,-432,-11,68,2
1120,8,-2016,-416,-9,67,2
1125,0,-2024,-432,-8,70,3
1130,24,-2040,-432,-7,72,2
1135,0,-2000,-440,-6,73,3
1140,0,-2008,-408,-4,75,3
1145,-8,-2016,-384,-2,74,4
1150,0,-2000,-416,-1,75,4
1155,0,-2016,-408,0,75,4
1160,8,-2016,-424,0,75,3
1165,56,-2000,-384,0,74,5
1170,0,-2016,-424,1,74,4
1175,0,-2016,-432,1,73,6
1180,8,-2008,-416,1,74,6
1185,0,-2008,-416,3,75,8
1190,0,-2000,-400,3,78,7
1195,0,-2016,-400,4,77,8
1200,0,-2016,-400,2,78,8
1205,-8,-2016,-384,3,77,8
1210,0,-2016,-400,2,76,8
1215,0,-2040,-368,4,78,8
1220,0,-2032,-408,4,75,7
1225,-8,-2024,-400,5,74,7
1230,0,-2008,-392,6,74,5
1235,0,-2024,-416,5,74,6
1240,0,-2000,-400,5,74,5
1245,-16,-2016,-416,8,76,7
1250,8,-2032,-424,7,75,5
1255,0,-2024,-424,7,77,4
1260,0,-2016,-448,8,74,6
1265,-8,-2016,-408,9,72,6
1270,0,-2008,-408,11,70,7
1275,16,-2016,-496,12,69,8
1280,0,-2008,-408,12,71,8
1285,0,-2016,-432,13,69,9
1290,-16,-2008,-440,13,69,9
1295,-24,-2000,-440,14,69,8
1300,16,-2024,-440,15,69,9
1305,8,-2016,-424,17,70,9
1310,-8,-2024,-400,17,72,8
1315,8,-2032,-440,18,73,7
1320,8,-2056,-408,18,74,6
1325,0,-2024,-448,18,74,6
1330,16,-2032,-440,22,77,7
1335,16,-2032,-424,25,76,8
1340,0,-2008,-416,28,78,9
1345,8,-2008,-408,29,81,10
1350,16,-2000,-440,30,84,11
1355,8,-1992,-432,30,86,12
1360,16,-2000,-424,31,87,12
1365,8,-1992,-384,30,88,13
1370,8,-2016,-424,28,89,13
1375,32,-2008,-424,28,92,13
1380,0,-2016,-416,28,92,13
1385,0,-2016,-416,28,94,13
1390,8,-2016,-416,29,94,14
1395,8,-2000,-392,27,92,14
1400,24,-2024,-376,27,92,13
1405,16,-2024,-408,25,90,14
1410,8,-2032,-400,24,88,13
1415,0,-2016,-400,21,86,12
1420,16,-2016,-416,16,85,13
1425,8,-2008,-424,14,82,12
1430,0,-2016,-384,11,81,10
1435,0,-2032,-416,8,79,10
1440,-32,-2024,-384,6,75,11
1445,0,-2016,-400,4,72,7
1450,-8,-2024,-416,3,69,7
1455,-8,-2040,-400,2,67,7
1460,0,-2024,-400,1,65,4
1465,-24,-2008,-408,1,63,3
1470,0,-2008,-400,1,62,3
1475,-16,-2008,-440,2,60,3
1480,0,-2016,-408,2,59,1
1485,-16,-2000,-392,4,59,1
1490,8,-2000,-400,5,59,-1
1495,-24,-2096,-416,7,58,-1
1500,0,-2024,-424,8,59,-3
1505,16,-2008,-408,6,60,-2
1510,0,-2000,-400,7,59,-3
1515,8,-2008,-424,5,58,-4
1520,24,-2008,-384,3,57,-5
1525,8,-2024,-376,1,55,-4
1530,16,-2016,-392,1,55,-4
1535,0,-2024,-400,2,52,-5
1540,0,-2008,-400,4,50,-5
1545,0,-2024,-392,6,48,-4
1550,0,-2024,-360,8,46,-5
1555,-8,-2016,-384,10,43,-4
1560,8,-2008,-408,13,41,-4
1565,8,-2032,-392,13,39,-3
1570,0,-2016,-392,11,40,-2
1575,16,-2032,-392,12,40,0
1580,8,-2024,-400,11,40,-2
1585,0,-2024,-424,11,41,-2
1590,8,-2016,-408,12,40,-2
1595,0,-2040,-368,12,43,-1
1600,8,-2048,-368,12,42,-1
1605,16,-2032,-384,13,44,-1
1610,0,-2024,-376,13,44,0
1615,16,-2016,-384,13,46,0
1620,0,-2032,-392,14,49,-1
1625,8,-2024,-416,15,50,0
1630,0,-2024,-384,16,52,0
1635,8,-2040,-376,16,54,1
1640,8,-2024,-408,16,55,0
1645,0,-2016,-392,15,55,0
1650,8,-2016,-368,15,57,0
1655,8,-2000,-400,15,58,1
1660,16,-2040,-376,15,59,1
1665,16,-2016,-376,12,58,-1
1670,0,-2016,-392,11,59,1
1675,8,-2016,-376,11,58,1
1680,0,-2016,-408,12,58,2
1685,0,-2032,-416,12,59,3
1690,8,-2040,-408,12,59,2
1695,0,-2040,-384,13,60,3
1700,8,-2024,-376,14,61,1
1705,-16,-2048,-400,13,61,1
1710,-24,-2016,-376,13,61,2
1715,8,-2016,-400,12,63,2
1720,8,-2016,-384,13,63,3
1725,0,-2000,-416,11,65,4
1730,16,-2040,-400,11,65,4
1735,0,-2000,-400,11,66,4
1740,8,-2024,-408,10,65,4
1745,24,-2024,-408,10,66,4
1750,24,-2016,-384,10,66,3
1755,0,-2008,-408,11,68,2
1760,16,-2024,-400,14,67,2
1765,8,-2016,-408,15,67,3
1770,8,-2008,-368,16,68,2
1775,24,-2032,-400,17,65,3
1780,-8,-2024,-400,18,68,3
1785,0,-2032,-408,18,68,3
1790,-8,-2024,-400,18,66,2
1795,0,-2016,-384,18,65,2
1800,0,-2040,-376,18,64,4
1805,-24,-2024,-392,18,62,4
1810,0,-2024,-384,18,60,3
1815,0,-2024,-400,20,59,5
1820,8,-2016,-376,21,57,5
1825,0,-2016,-376,21,55,4
1830,0,-2024,-368,23,55,5
1835,8,-2032,-400,23,54,5
1840,0,-2024,-400,24,51,5
1845,-8,-2032,-376,24,50,4
1850,0,-2016,-384,24,50,5
1855,0,-2024,-384,23,49,3
1860,0,-2024,-368,23,49,5
1865,0,-2024,-392,23,48,5
1870,8,-2008,-408,22,51,4
1875,0,-2008,-376,22,51,4
1880,0,-2016,-384,22,52,4
1885,0,-2008,-400,20,54,4
1890,0,-2032,-384,18,55,2
1895,8,-2016,-392,17,56,1
1900,16,-2032,-416,15,56,0
1905,0,-2024,-400,11,58,0
1910,0,-2008,-392,9,61,-1
1915,8,-2016,-368,7,63,-1
1920,8,-2016,-392,6,67,-1
1925,8,-2008,-376,4,66,-1
1930,-64,-2024,-456,3,69,-1
1935,8,-2032,-400,2,69,-2
1940,24,-2024,-384,0,72,-1
1945,8,-2008,-368,-1,75,0
1950,8,-2040,-360,-1,76,1
1955,24,-2008,-416,-3,75,0
1960,8,-2000,-368,-3,74,1
1965,0,-2008,-368,-4,74,1
1970,8,-2016,-384,-1,74,1
1975,0,-2016,-368,-1,72,3
1980,0,-2016,-392,1,71,2
1985,0,-2040,-360,0,71,2
1990,0,-2024,-384,0,68,3
1995,0,-2008,-408,-3,68,3
2000,-8,-2032,-360,-8,68,4
2005,0,-2016,-384,-11,67,5
2010,-8,-2024,-392,-13,67,4
2015,-16,-2048,-400,-13,66,4
2020,-8,-2040,-368,-15,63,3
2025,0,-2048,-384,-14,63,3
2030,0,-2040,-392,-14,60,2
2035,-16,-2008,-400,-13,60,2
2040,-48,-2064,-400,-11,60,1
2045,0,-2000,-384,-10,61,0
2050,24,-2016,-368,-9,61,-1
2055,-8,-2040,-368,-9,64,-1
2060,-32,-2016,-376,-9,65,-2
2065,0,-2016,-368,-8,66,-2
2070,16,-2048,-360,-6,69,-1
2075,-8,-2024,-400,-5,70,-2
2080,0,-2032,-416,-4,71,-2
2085,16,-2008,-384,-5,70,-1
2090,0,-2040,-344,-5,70,-1
2095,0,-2008,-392,-6,69,-2
2100,0,-2008,-368,-5,68,-2
2105,8,-2032,-392,-6,66,-2
2110,0,-2024,-376,-6,65,-1
2115,8,-2024,-352,-7,61,0
2120,8,-2024,-376,-8,61,-1
2125,16,-2008,-344,-10,60,-2
2130,16,-2048,-368,-10,60,-2
2135,8,-2024,-344,-10,58,-3
2140,0,-2016,-352,-10,59,-3
2145,24,-2016,-296,-10,58,-3
2150,0,-2024,-360,-11,58,-2
2155,8,-2024,-392,-10,59,-1
2160,8,-2000,-344,-10,61,-2
2165,16,-2032,-368,-12,61,-2
2170,8,-2024,-392,-15,61,-2
2175,8,-2040,-368,-15,60,-3
2180,-8,-2048,-336,-15,61,-4
2185,0,-2016,-376,-16,62,-4
2190,8,-2016,-368,-16,62,-4
2195,24,-2032,-360,-18,63,-4
2200,0,-2016,-384,-18,64,-5
2205,0,-2008,-360,-19,64,-1
2210,0,-2024,-360,-18,64,-2
2215,0,-2016,-392,-17,65,-2
2220,0,-2040,-352,-17,63,-1
2225,0,-2008,-352,-17,61,-2
2230,8,-2008,-336,-19,61,-3
2235,0,-2016,-376,-21,60,-4
2240,0,-2032,-376,-21,60,-4
2245,16,-2008,-368,-23,61,-5
2250,0,-2024,-376,-24,60,-6
2255,0,-2072,-400,-27,62,-7
2260,0,-1984,-376,-30,61,-6
2265,0,-2008,-360,-32,61,-7
2270,8,-2016,-376,-35,62,-7
2275,-16,-2024,-352,-37,65,-5
2280,0,-2024,-368,-37,64,-5
2285,8,-2016,-392,-36,66,-5
2290,0,-2032,-376,-36,67,-4
2295,0,-2032,-376,-34,68,-3
2300,8,-2032,-384,-34,67,-2
2305,-16,-2008,-376,-33,68,-3
2310,8,-2032,-360,-33,70,-4
2315,0,-2024,-376,-34,68,-5
2320,16,-2024,-368,-35,69,-6
2325,8,-2016,-376,-36,69,-7
2330,0,-2016,-360,-35,68,-8
2335,0,-1992,-384,-35,69,-6
2340,0,-2032,-352,-36,69,-7
2345,8,-2008,-368,-37,70,-8
2350,8,-2016,-368,-39,71,-7
2355,0,-2008,-392,-38,72,-7
2360,-16,-2008,-376,-41,72,-7
2365,16,-2024,-408,-43,74,-5
2370,0,-2016,-368,-43,75,-5
2375,8,-2016,-368,-44,76,-4
2380,0,-2024,-352,-44,76,-4
2385,0,-2032,-392,-43,76,-6
2390,0,-2032,-392,-42,74,-4
2395,0,-2040,-384,-42,75,-5
2400,0,-2048,-392,-41,74,-4
2405,0,-2016,-392,-40,73,-4
2410,-8,-2024,-384,-38,70,-6
2415,0,-2008,-400,-36,70,-5
2420,0,-2000,-368,-32,66,-4
2425,0,-2048,-376,-33,64,-5
2430,0,-1992,-368,-32,65,-5
2435,-8,-1992,-384,-33,63,-5
2440,-8,-2024,-384,-33,63,-4
2445,-40,-2000,-368,-33,61,-3
2450,0,-2032,-368,-34,61,-3
2455,-24,-2016,-368,-34,60,-3
2460,8,-2008,-392,-35,60,-2
2465,8,-2032,-408,-36,60,-1
2470,0,-2032,-360,-37,59,-2
2475,8,-2048,-448,-39,57,-2
2480,8,-2032,-392,-39,56,-2
2485,0,-2024,-416,-39,55,-2
2490,0,-2048,-392,-38,54,-1
2495,0,-2048,-400,-39,53,-1
2500,16,-2048,-400,-38,51,0
2505,-8,-2032,-392,-38,51,-2
2510,-16,-2024,-400,-35,49,-2
2515,16,-2008,-384,-33,50,0
2520,8,-2032,-392,-32,51,-1
2525,-8,-2040,-368,-33,51,1
2530,0,-1992,-344,-33,50,1
2535,0,-2016,-384,-34,50,2
2540,0,-2000,-400,-35,50,1
2545,0,-2024,-392,-36,49,0
2550,0,-2008,-376,-36,48,0
2555,-16,-2024,-352,-38,49,0
2560,-8,-2016,-384,-39,49,-1
2565,0,-2016,-360,-40,50,-2
2570,-16,-2000,-416,-43,50,-2
2575,-24,-2024,-376,-43,51,-3
2580,0,-2016,-384,-43,50,-3
2585,0,-2016,-448,-44,50,-4
2590,16,-2016,-376,-44,48,-3
2595,0,-2024,-416,-45,49,-5
2600,-8,-2000,-384,-45,49,-5
2605,0,-2032,-392,-45,48,-4
2610,8,-2008,-408,-46,48,-6
2615,0,-2016,-392,-46,49,-7
2620,16,-2016,-392,-49,50,-6
2625,0,-2016,-424,-49,50,-6
2630,-16,-2016,-408,-51,51,-6
2635,0,-2008,-464,-52,51,-6
2640,0,-2016,-384,-53,53,-6
2645,8,-2024,-408,-55,55,-5
2650,0,-2032,-400,-57,55,-5
2655,0,-2016,-408,-55,56,-5
2660,8,-2024,-376,-54,55,-5
2665,0,-2024,-416,-53,53,-5
2670,0,-2024,-416,-52,52,-6
2675,0,-2016,-408,-51,51,-4
2680,0,-2024,-392,-52,51,-5
2685,0,-2024,-408,-49,50,-6
2690,-24,-2072,-416,-48,51,-6
2695,-16,-2032,-424,-47,51,-6
2700,-16,-1992,-408,-47,52,-6
2705,-8,-2016,-400,-46,53,-7
2710,0,-2008,-392,-49,52,-5
2715,-8,-2016,-416,-50,53,-5
2720,-16,-1992,-416,-52,53,-4
2725,8,-2000,-416,-52,52,-6
2730,0,-2032,-408,-55,52,-6
2735,0,-2000,-416,-54,50,-5
2740,0,-2000,-392,-54,49,-5
2745,16,-2016,-416,-55,45,-6
2750,-8,-2008,-392,-56,45,-6
2755,-8,-2016,-400,-55,43,-8
2760,8,-2008,-432,-56,41,-7
2765,-8,-2024,-416,-55,39,-8
2770,0,-2024,-416,-54,38,-9
2775,16,-2008,-416,-54,38,-10
2780,-24,-2016,-432,-54,37,-10
2785,0,-2016,-448,-56,36,-11
2790,0,-2032,-432,-56,36,-13
2795,-16,-2008,-424,-59,36,-14
2800,0,-2080,-456,-62,36,-15
2805,-16,-2008,-448,-62,36,-18
2810,0,-1992,-424,-62,38,-17
2815,0,-2032,-392,-59,38,-18
2820,8,-2016,-440,-57,38,-18
2825,8,-2032,-424,-53,40,-17
2830,8,-2024,-424,-49,43,-15
2835,0,-2008,-392,-45,43,-13
2840,16,-2008,-400,-45,46,-12
2845,8,-2008,-416,-44,49,-11
2850,16,-2016,-448,-46,50,-11
2855,16,-2000,-424,-47,52,-10
2860,16,-2024,-416,-48,53,-11
2865,8,-2016,-392,-50,52,-11
2870,24,-2064,-440,-51,54,-12
2875,-16,-2016,-440,-51,54,-12
2880,32,-2000,-424,-50,54,-12
2885,0,-2024,-424,-48,53,-12
2890,-8,-2016,-440,-47,53,-11
2895,0,-2000,-432,-47,53,-10
2900,0,-2016,-432,-47,54,-9
2905,8,-2016,-392,-49,53,-9
2910,8,-2032,-352,-49,54,-9
2915,0,-2000,-456,-48,52,-7
2920,16,-2032,-432,-49,50,-6
2925,0,-2008,-432,-50,51,-7
2930,0,-2016,-432,-50,50,-8
2935,8,-2000,-440,-53,51,-8
2940,0,-2024,-440,-53,51,-8
2945,0,-1992,-440,-55,53,-10
2950,16,-2000,-448,-56,55,-11
2955,8,-2008,-416,-58,57,-12
2960,0,-2024,-464,-59,56,-13
2965,8,-2016,-432,-59,56,-13
2970,-8,-2032,-448,-59,56,-14
2975,-16,-2024,-456,-57,55,-14
2980,0,-2016,-464,-55,56,-14
2985,8,-2040,-432,-52,55,-15
2990,0,-2016,-440,-50,54,-14
2995,-24,-2024,-432,-48,53,-13
3000,0,-1984,-456,-46,53,-12
3005,0,-2000,-432,-45,53,-13
3010,-16,-2008,-440,-46,52,-13
3015,-16,-2000,-440,-47,53,-13
3020,32,-2008,-472,-47,51,-13
3025,0,-2032,-472,-50,50,-13
3030,0,-2016,-448,-51,52,-12
3035,0,-2016,-424,-53,52,-12
3040,0,-2000,-480,-55,52,-12
3045,0,-2000,-440,-57,53,-15
3050,0,-2008,-440,-59,53,-14
3055,8,-2016,-448,-61,52,-14
3060,-8,-2000,-448,-62,50,-16
3065,0,-2000,-464,-63,48,-15
3070,8,-2000,-448,-65,48,-16
3075,-8,-2008,-432,-65,48,-17
3080,0,-1992,-480,-68,46,-18
3085,0,-2032,-472,-69,48,-18
3090,-8,-2016,-472,-70,47,-17
3095,0,-2024,-472,-71,50,-18
3100,-32,-2000,-464,-73,48,-19
3105,0,-1992,-496,-76,48,-18
3110,-16,-1984,-504,-78,47,-18
3115,0,-1968,-496,-81,46,-19
3120,-16,-1968,-496,-83,44,-18
3125,-40,-1984,-480,-87,42,-17
3130,-8,-1992,-488,-90,41,-17
3135,-24,-1992,-488,-95,37,-17
3140,0,-2008,-520,-99,36,-16
3145,0,-1992,-528,-103,32,-14
3150,-48,-1976,-536,-108,30,-13
3155,-8,-1992,-560,-115,27,-11
3160,-24,-1992,-552,-122,23,-12
3165,-40,-1984,-552,-128,19,-11
3170,-56,-1992,-544,-132,16,-12
3175,-40,-2008,-536,-132,15,-12
3180,-16,-2008,-576,-135,14,-11
3185,-16,-1992,-584,-134,15,-13
3190,0,-1976,-568,-136,16,-12
3195,0,-2000,-576,-136,18,-12
3200,8,-1976,-520,-139,14,-11
3205,-16,-1984,-560,-142,8,-11
3210,0,-1976,-536,-144,4,-12
3215,-16,-1976,-528,-142,-2,-12
3220,-16,-1920,-528,-143,-5,-15
3225,8,-1960,-520,-141,-5,-16
3230,16,-1984,-504,-139,-3,-15
3235,-8,-2016,-512,-137,0,-15
3240,0,-1984,-560,-139,4,-14
3245,0,-1984,-584,-143,8,-12
3250,0,-1984,-568,-149,11,-11
3255,0,-1984,-584,-159,13,-9
3260,0,-1968,-560,-170,15,-9
3265,0,-2000,-592,-182,16,-7
3270,0,-1960,-592,-192,16,-6
3275,0,-1960,-560,-203,15,-5
3280,0,-1960,-568,-214,14,-3
3285,0,-1920,-616,-226,11,-5
3290,-24,-1912,-600,-239,9,-4
3295,0,-1928,-624,-251,8,-4
3300,8,-1920,-624,-263,6,-3
3305,0,-1904,-616,-274,4,0
3310,0,-1896,-608,-284,4,3
3315,-16,-1896,-608,-294,1,6
3320,0,-1864,-632,-302,0,8
3325,0,-1864,-640,-310,-1,11
3330,0,-1856,-648,-318,0,11
3335,0,-1904,-664,-330,2,11
3340,0,-1856,-672,-341,4,10
3345,24,-1848,-712,-351,6,14
3350,0,-1880,-648,-359,7,15
3355,-40,-1872,-656,-366,6,16
3360,-40,-1864,-640,-371,7,18
3365,-8,-1880,-680,-376,8,19
3370,-16,-1896,-680,-382,12,21
3375,-40,-1872,-656,-387,16,23
3380,-40,-1840,-656,-395,16,22
3385,-48,-1856,-680,-398,15,21
3390,-40,-1848,-672,-401,16,20
3395,-56,-1824,-672,-404,16,21
3400,-48,-1832,-672,-407,16,20
3405,-8,-1856,-696,-410,16,20
3410,-8,-1856,-664,-413,17,19
3415,-24,-1848,-680,-417,17,18
3420,-16,-1856,-704,-423,17,15
3425,0,-1824,-688,-430,16,13
3430,-16,-1800,-712,-437,16,10
3435,-8,-1760,-688,-447,14,8
3440,0,-1768,-736,-458,15,6
3445,0,-1760,-728,-470,8,6
3450,-16,-1728,-728,-482,2,2
3455,-24,-1688,-688,-494,-3,0
3460,-24,-1728,-704,-506,-8,-4
3465,-8,-1744,-728,-518,-12,-7
3470,-40,-1696,-752,-530,-16,-13
3475,-48,-1728,-720,-542,-22,-20
3480,-80,-1744,-728,-550,-29,-28
3485,-96,-1784,-720,-555,-37,-37
3490,-96,-1808,-712,-557,-48,-44
3495,-104,-1776,-688,-557,-58,-54
3500,-128,-1776,-752,-559,-66,-63
3505,-120,-1768,-712,-560,-73,-73
3510,-136,-1784,-696,-562,-83,-83
3515,-168,-1744,-688,-566,-96,-92
3520,-208,-1736,-680,-568,-110,-103
3525,-192,-1728,-696,-572,-121,-109
3530,-216,-1720,-688,-576,-126,-113
3535,-184,-1736,-680,-576,-125,-111
3540,-176,-1776,-688,-575,-116,-108
3545,-128,-1816,-680,-575,-100,-105
3550,-112,-1784,-688,-582,-71,-104
3555,-64,-1800,-720,-597,-39,-104
3560,-16,-1816,-704,-615,-7,-102
3565,24,-1896,-672,-637,29,-101
3570,24,-1896,-728,-661,62,-97
3575,24,-1888,-744,-687,95,-88
3580,32,-1904,-720,-714,133,-79
3585,48,-1920,-768,-736,169,-68
3590,56,-1928,-768,-752,204,-60
3595,64,-1936,-776,-762,233,-51
3600,32,-1912,-792,-768,258,-45
3605,24,-1936,-816,-767,274,-43
3610,16,-1920,-840,-761,287,-41
3615,0,-1896,-848,-753,298,-34
3620,-24,-1920,-848,-744,305,-27
3625,-48,-1912,-848,-733,309,-18
3630,-56,-1904,-872,-723,306,-7
3635,-88,-1912,-896,-716,299,-2
3640,-96,-1872,-880,-707,283,8
3645,-104,-1880,-864,-694,264,16
3650,-152,-1872,-888,-673,239,27
3655,-128,-1856,-840,-647,212,45
3660,-176,-1832,-816,-621,187,59
3665,-144,-1832,-840,-596,160,72
3670,-152,-1848,-824,-572,134,83
3675,-176,-1784,-824,-555,105,89
3680,-168,-1768,-816,-542,74,92
3685,-168,-1776,-856,-534,43,92
3690,-160,-1808,-864,-534,20,91
3695,-176,-1792,-880,-542,-2,96
3700,-192,-1816,-912,-555,-23,100
3705,-184,-1816,-936,-566,-43,95
3710,-152,-1824,-944,-574,-58,89
3715,-152,-1832,-944,-573,-63,86
3720,-152,-1824,-960,-572,-58,82
3725,-136,-1832,-960,-569,-43,77
3730,-128,-1832,-1008,-568,-19,64
3735,-112,-1808,-1024,-571,8,49
3740,-104,-1832,-1008,-575,38,33
3745,-120,-1808,-984,-573,63,19
3750,-144,-1776,-1024,-568,88,9
3755,-96,-1768,-1024,-562,113,2
3760,-96,-1744,-1016,-560,140,0
3765,-64,-1720,-976,-566,177,-7
3770,-48,-1712,-952,-568,214,-12
3775,-56,-1704,-992,-565,249,-10
3780,-8,-1712,-936,-567,280,-5
3785,-16,-1736,-976,-577,315,-3
3790,8,-1704,-1032,-590,343,3
3795,8,-1728,-1024,-607,362,7
3800,-16,-1720,-1040,-621,372,11
3805,-32,-1688,-1040,-625,374,16
3810,-24,-1688,-1096,-620,366,22
3815,-64,-1712,-1096,-616,353,26
3820,-56,-1696,-1096,-612,339,28
3825,-88,-1704,-1112,-611,326,34
3830,-72,-1736,-1136,-614,310,39
3835,-64,-1776,-1112,-622,297,33
3840,-200,-1768,-1104,-623,280,22
3845,-192,-1816,-1104,-613,249,27
3850,-232,-1848,-1048,-595,219,32
3855,-232,-1880,-1128,-582,197,32
3860,-248,-1912,-1152,-576,188,25
3865,-232,-1888,-1144,-578,197,18
3870,-232,-1896,-1160,-576,212,19
3875,-176,-1848,-1168,-563,223,28
3880,-112,-1816,-1160,-545,231,33
3885,-64,-1736,-1136,-522,234,39
3890,-96,-1688,-1176,-497,237,49
3895,0,-1680,-1112,-479,242,58
3900,16,-1640,-1128,-469,247,65
3905,16,-1624,-1120,-469,254,75
3910,16,-1632,-1136,-471,256,82
3915,8,-1680,-1128,-479,257,83
3920,8,-1648,-1120,-490,262,82
3925,0,-1680,-1136,-503,268,78
3930,0,-1696,-1136,-517,274,66
3935,-32,-1688,-1136,-531,277,52
3940,48,-1696,-1208,-548,280,38
3945,64,-1672,-1248,-583,296,10
3950,-80,-1720,-1184,-628,317,-12
3955,-104,-1744,-1128,-635,302,-9
3960,-24,-1744,-1232,-606,268,-1
3965,0,-1768,-1240,-572,252,12
3970,8,-1744,-1256,-548,257,21
3975,8,-1712,-1264,-528,270,32
3980,56,-1680,-1240,-504,290,46
3985,64,-1672,-1240,-484,305,53
3990,72,-1624,-1216,-474,313,60
3995,80,-1608,-1192,-461,314,69
4000,56,-1624,-1160,-447,308,75
4005,64,-1616,-1184,-430,300,79
4010,8,-1624,-1184,-412,296,78
4015,0,-1648,-1184,-394,295,76
4020,-48,-1624,-1160,-381,292,70
4025,-120,-1624,-1192,-373,289,62
4030,-144,-1608,-1208,-375,282,52
4035,-176,-1624,-1224,-384,271,44
4040,-192,-1640,-1248,-396,251,43
4045,-240,-1640,-1232,-410,233,44
4050,-200,-1672,-1272,-419,219,44
4055,-200,-1672,-1248,-430,215,44
4060,-152,-1616,-1280,-432,216,47
4065,-136,-1640,-1248,-427,223,55
4070,-104,-1664,-1248,-407,230,60
4075,-64,-1664,-1232,-386,240,63
4080,-24,-1608,-1232,-364,251,60
4085,16,-1592,-1264,-345,267,52
4090,8,-1584,-1280,-333,283,42
4095,0,-1600,-1248,-320,302,31
4100,0,-1576,-1224,-308,321,18
4105,-56,-1584,-1248,-290,337,17
4110,-88,-1584,-1280,-274,350,13
4115,-136,-1600,-1296,-266,358,6
4120,-160,-1608,-1328,-263,369,0
4125,-232,-1584,-1336,-259,376,-6
4130,-248,-1632,-1336,-258,375,-8
4135,-256,-1608,-1336,-256,371,-10
4140,-280,-1576,-1344,-249,362,-13
4145,-256,-1536,-1304,-234,344,-12
4150,-256,-1536,-1328,-215,327,-11
4155,-192,-1520,-1304,-196,311,-8
4160,-184,-1528,-1312,-181,305,-7
4165,-152,-1472,-1296,-165,311,-10
4170,-120,-1472,-1296,-145,323,-7
4175,-32,-1456,-1312,-141,339,-8
4180,-8,-1472,-1320,-140,355,2
4185,16,-1464,-1320,-148,369,6
4190,24,-1456,-1296,-171,389,2
4195,48,-1512,-1304,-196,404,-1
4200,40,-1472,-1336,-224,423,-7
4205,24,-1480,-1360,-249,440,-14
4210,16,-1496,-1392,-265,455,-20
4215,64,-1512,-1312,-278,471,-28
4220,-8,-1528,-1408,-282,481,-38
4225,-32,-1520,-1424,-282,480,-42
4230,-72,-1504,-1440,-279,476,-47
4235,-104,-1480,-1424,-273,473,-50
4240,-96,-1488,-1408,-268,477,-56
4245,-104,-1448,-1360,-258,484,-65
4250,-104,-1400,-1376,-237,489,-70
4255,-120,-1360,-1312,-210,492,-73
4260,-96,-1360,-1328,-178,490,-65
4265,-96,-1344,-1320,-153,486,-57
4270,-88,-1352,-1296,-140,482,-49
4275,-40,-1352,-1320,-139,481,-45
4280,-56,-1344,-1312,-153,483,-44
4285,-72,-1384,-1336,-174,488,-48
4290,0,-1384,-1384,-195,495,-55
4295,8,-1384,-1368,-220,511,-66
4300,-8,-1416,-1408,-247,529,-81
4305,0,-1456,-1408,-274,550,-96
4310,-8,-1416,-1448,-307,567,-113
4315,0,-1384,-1440,-336,585,-129
4320,8,-1400,-1464,-354,600,-130
4325,48,-1360,-1416,-368,611,-136
4330,0,-1352,-1448,-380,621,-138
4335,0,-1320,-1480,-388,622,-138
4340,-16,-1288,-1472,-389,629,-135
4345,-32,-1296,-1440,-380,631,-129
4350,-32,-1280,-1432,-366,630,-125
4355,-64,-1264,-1408,-352,628,-120
4360,-48,-1248,-1400,-337,625,-116
4365,-24,-1248,-1384,-327,623,-111
4370,-32,-1240,-1360,-321,622,-109
4375,-24,-1208,-1352,-322,625,-109
4380,8,-1208,-1328,-327,625,-108
4385,8,-1216,-1320,-334,623,-107
4390,16,-1208,-1272,-344,625,-112
4395,0,-1216,-1264,-359,628,-107
4400,64,-1272,-1240,-375,637,-101
4405,48,-1176,-1224,-401,656,-107
4410,96,-1208,-1256,-420,676,-92
4415,144,-1184,-1256,-443,694,-88
4420,160,-1160,-1248,-464,713,-89
4425,200,-1144,-1248,-479,733,-92
4430,240,-1112,-1264,-483,748,-98
4435,200,-1128,-1160,-481,766,-104
4440,240,-1088,-1232,-477,778,-106
4445,232,-1072,-1240,-469,781,-101
4450,232,-1064,-1240,-457,779,-101
4455,200,-1080,-1272,-447,779,-100
4460,168,-1080,-1224,-439,779,-91
4465,136,-1096,-1256,-430,780,-82
4470,128,-1112,-1240,-421,782,-74
4475,104,-1168,-1216,-409,784,-66
4480,88,-1160,-1184,-391,788,-63
4485,104,-1200,-1184,-373,796,-64
4490,104,-1224,-1192,-356,806,-67
4495,136,-1192,-1184,-342,822,-67
4500,136,-1168,-1200,-333,848,-66
4505,208,-1136,-1200,-329,884,-68
4510,256,-1152,-1224,-326,924,-58
4515,344,-1168,-1232,-324,964,-41
4520,392,-1152,-1224,-323,1005,-40
4525,464,-1144,-1200,-318,1050,-47
4530,480,-1168,-1168,-303,1093,-55
4535,448,-1184,-1152,-275,1130,-62
4540,432,-1152,-1120,-234,1158,-71
4545,384,-1224,-1184,-187,1186,-77
4550,352,-1160,-1120,-137,1213,-83
4555,352,-1168,-1168,-92,1241,-86
4560,304,-1168,-1168,-62,1272,-93
4565,288,-1176,-1208,-47,1307,-97
4570,272,-1160,-1216,-45,1340,-101
4575,248,-1144,-1248,-40,1373,-99
4580,288,-1104,-1200,-31,1404,-96
4585,280,-1112,-1208,-16,1431,-98
4590,280,-1024,-1192,3,1463,-102
4595,232,-976,-1152,17,1494,-114
4600,240,-960,-1136,28,1536,-107
4605,232,-920,-1104,41,1571,-102
4610,208,-856,-1088,49,1608,-94
4615,208,-864,-1040,56,1641,-83
4620,224,-880,-968,62,1669,-79
4625,184,-872,-840,76,1690,-77
4630,168,-880,-864,92,1706,-70
4635,184,-880,-808,110,1711,-65
4640,184,-896,-728,133,1712,-70
4645,88,-888,-704,154,1710,-76
4650,24,-960,-664,177,1700,-77
4655,80,-936,-672,193,1681,-83
4660,72,-944,-688,202,1659,-102
4665,40,-952,-712,199,1639,-115
4670,72,-944,-728,188,1618,-121
4675,48,-936,-768,177,1605,-129
4680,104,-936,-792,168,1597,-135
4685,200,-896,-816,174,1612,-123
4690,344,-880,-872,193,1654,-121
4695,464,-824,-864,226,1706,-136
4700,592,-848,-952,268,1764,-153
4705,528,-840,-960,304,1817,-168
4710,568,-840,-976,335,1860,-172
4715,544,-840,-920,361,1904,-199
4720,544,-936,-968,390,1938,-209
4725,544,-976,-952,422,1979,-221
4730,416,-984,-896,452,2019,-252
4735,352,-1064,-800,489,2049,-281
4740,232,-1088,-792,548,2075,-300
4745,144,-1096,-768,615,2099,-305
4750,80,-1160,-720,664,2135,-277
4755,0,-1216,-664,706,2143,-275
4760,-24,-1208,-656,765,2116,-297
4765,-88,-1240,-656,834,2070,-325
4770,-56,-1208,-688,911,2018,-356
4775,-16,-1168,-704,992,1992,-370
4780,48,-1144,-712,1071,1985,-378
4785,152,-1128,-712,1168,1991,-377
4790,288,-1152,-736,1297,2008,-373
4795,392,-1176,-680,1472,2029,-368
4800,464,-1168,-680,1699,2046,-370
4805,560,-1032,-696,1935,2060,-369
4810,584,-880,-720,2121,2065,-378
4815,552,-768,-720,2224,2063,-400
4820,488,-736,-648,2232,2049,-409
4825,432,-744,-576,2181,2009,-399
4830,328,-664,-560,2108,1945,-384
4835,288,-640,-544,2017,1888,-353
4840,376,-656,-560,1911,1860,-306
4845,512,-696,-544,1808,1883,-266
4850,616,-752,-560,1707,1928,-264
4855,616,-736,-664,1596,1961,-294
4860,680,-912,-816,1473,1948,-332
4865,904,-1080,-936,1324,1927,-380
4870,1000,-1208,-952,1205,1960,-446
4875,1280,-1416,-904,1148,2010,-519
4880,1528,-1416,-952,1095,2031,-585
4885,2336,-1408,-952,1055,2103,-653
4890,3304,-1400,-800,1091,2290,-790
4895,4024,-1600,-544,1220,2574,-905
4900,4680,-1928,-536,1314,2831,-949
4905,4992,-2064,-688,1271,2989,-999
4910,5240,-2176,-888,1098,3088,-1058
4915,5680,-2624,-936,967,3154,-1128
4920,6192,-3184,-1088,980,3252,-1222
4925,7440,-3896,-928,1193,3383,-1322
4930,8544,-4464,-136,1657,3514,-1523
4935,10624,-4768,288,2259,3586,-1856
4940,10752,-4336,448,2681,3582,-2329
4945,11432,-4280,944,2678,3683,-2737
4950,9736,-4432,1720,2363,3895,-3045
4955,5688,-4464,1832,2242,3920,-3427
4960,3432,-4424,1288,2416,3714,-3408
4965,2032,-4064,776,2783,3431,-3256
4970,952,-3576,776,3142,3231,-3228
4975,304,-2928,936,3476,2948,-3335
4980,0,-2432,1256,3701,2624,-3449
4985,104,-2000,1768,3755,2377,-3504
4990,352,-1544,2168,3630,2214,-3579
4995,504,-984,2216,3325,2075,-3672
5000,776,-440,1744,2853,1898,-3717
5005,1088,24,1160,2300,1742,-3680
5010,1416,296,992,1763,1627,-3595
5015,1376,328,1008,1401,1492,-3476
5020,1336,136,864,1301,1225,-3321
5025,1344,-136,552,1397,903,-3118
5030,1064,-488,464,1553,649,-2875
5035,832,-952,456,1746,508,-2541
5040,656,-1360,552,1924,458,-2184
5045,672,-1720,352,2005,496,-1910
5050,816,-1872,392,1954,598,-1799
5055,816,-1832,624,1837,693,-1849
5060,1000,-1464,712,1788,702,-1983
5065,1176,-928,720,1793,655,-2165
5070,1304,-272,776,1827,645,-2302
5075,1536,464,776,1882,669,-2285
5080,1768,1592,704,1884,663,-2140
5085,1952,2088,984,1746,613,-1860
5090,2376,2192,1176,1573,500,-1507
5095,2512,2208,1240,1535,329,-1215
5100,2512,2392,1312,1545,116,-1049
5105,2672,2568,1432,1518,-8,-911
5110,2752,2632,1768,1384,22,-715
5115,2768,2584,1912,1156,81,-459
5120,3016,2576,1856,882,45,-243
5125,3072,2424,1784,539,28,-103
5130,2784,2080,1840,206,83,57
5135,2440,1608,1608,-42,142,239
5140,2128,1256,1352,-220,229,422
5145,1728,920,960,-316,359,559
5150,1528,752,920,-344,524,624
5155,1352,624,856,-277,668,622
5160,1352,528,888,-142,734,603
5165,1456,376,952,-3,753,575
5170,1536,320,1168,84,744,526
5175,1584,280,1376,118,698,455
5180,1584,248,1432,106,578,377
5185,1520,416,1272,93,495,278
5190,1440,616,1088,17,501,220
5195,1248,832,1056,-162,608,204
5200,1160,952,968,-359,745,161
5205,1176,904,888,-477,889,114
5210,1104,896,856,-474,1019,85
5215,1112,880,784,-435,1126,88
5220,1088,896,816,-391,1222,107
5225,1096,856,880,-346,1311,131
5230,1120,832,920,-304,1393,150
5235,1120,776,952,-283,1461,173
5240,1136,768,992,-289,1508,203
5245,1208,712,1048,-327,1538,223
5250,1224,704,1160,-375,1557,234
5255,1288,608,1288,-408,1554,232
5260,1384,552,1328,-414,1516,213
5265,1536,520,1384,-409,1452,187
5270,1672,504,1376,-393,1381,162
5275,1784,488,1360,-375,1329,154
5280,1800,488,1416,-374,1302,173
5285,1760,488,1416,-380,1284,210
5290,1728,440,1416,-386,1261,253
5295,1616,408,1384,-388,1236,294
5300,1600,264,1384,-375,1225,331
5305,1608,296,1408,-343,1229,361
5310,1704,200,1384,-309,1242,382
5315,1760,136,1408,-270,1254,396
5320,1768,104,1384,-232,1264,407
5325,1808,72,1376,-190,1264,422
5330,1808,64,1360,-147,1256,440
5335,1832,24,1312,-106,1231,463
5340,1840,-8,1360,-68,1202,486
5345,1800,-48,1416,-25,1160,510
5350,1792,-72,1448,33,1108,525
5355,1744,-24,1424,93,1069,525
5360,1648,-24,1416,142,1045,532
5365,1560,-32,1416,169,1037,547
5370,1456,-64,1424,175,1019,577
5375,1408,-104,1424,178,993,603
5380,1368,-168,1408,192,966,627
5385,1304,-248,1368,216,952,640
5390,1224,-240,1376,233,953,642
5395,1080,-304,1400,241,960,638
5400,1056,-336,1600,250,950,621
5405,1088,-440,1736,282,903,600
5410,1152,-496,1896,336,832,571
5415,1160,-504,1816,384,751,532
5420,1120,-464,1776,391,685,494
5425,1112,-408,1712,357,639,472
5430,1136,-416,1688,310,627,463
5435,1152,-424,1672,262,636,446
5440,1144,-424,1712,221,649,418
5445,1104,-416,1656,203,633,399
5450,1048,-400,1648,202,589,393
5455,976,-336,1624,220,528,399
5460,1016,-360,1592,247,469,416
5465,912,-304,1560,266,424,431
5470,880,-280,1496,266,381,449
5475,872,-288,1440,261,350,469
5480,992,-368,1400,253,338,476
5485,872,-368,1432,234,348,442
5490,848,-400,1472,213,343,399
5495,864,-432,1512,197,313,367
5500,832,-440,1584,183,274,332
5505,824,-424,1576,170,230,296
5510,824,-344,1616,141,189,268
5515,808,-360,1664,98,136,255
5520,776,-336,1744,60,80,250
5525,928,-352,1800,29,29,251
5530,976,-344,1792,-1,-15,246
5535,984,-344,1808,-30,-54,251
5540,1024,-408,1784,-51,-89,263
5545,1032,-392,1736,-66,-117,275
5550,1040,-408,1648,-70,-143,290
5555,1048,-448,1616,-72,-170,310
5560,1056,-456,1576,-71,-199,330
5565,1056,-480,1584,-66,-225,337
5570,1032,-528,1568,-52,-253,333
5575,1040,-496,1552,-32,-280,324
5580,1032,-480,1576,-19,-306,306
5585,1024,-456,1592,-14,-329,291
5590,1032,-440,1568,-17,-350,279
5595,1080,-400,1544,-26,-374,267
5600,1128,-400,1576,-36,-386,247
5605,1144,-392,1576,-45,-393,223
5610,1136,-416,1576,-42,-402,207
5615,1208,-408,1568,-30,-415,196
5620,1248,-392,1496,-18,-424,186
5625,1312,-376,1536,-17,-425,171
5630,1352,-304,1448,-35,-409,147
5635,1360,-352,1512,-58,-391,132
5640,1320,-376,1432,-46,-395,120
5645,1272,-416,1392,-34,-403,104
5650,1280,-432,1400,-18,-411,95
5655,1288,-400,1376,-7,-406,89
5660,1296,-376,1376,1,-393,83
5665,1352,-392,1392,3,-384,75
5670,1368,-368,1408,-2,-383,56
5675,1368,-328,1376,1,-388,40
5680,1376,-360,1408,2,-392,30
5685,1360,-336,1384,3,-397,38
5690,1392,-336,1376,-19,-390,50
5695,1400,-336,1360,-12,-377,50
5700,1424,-328,1344,-6,-357,38
5705,1472,-336,1360,-8,-333,18
5710,1504,-304,1344,-21,-307,-6
5715,1504,-296,1376,-36,-281,-27
5720,1504,-320,1336,-28,-272,-31
5725,1520,-320,1344,-22,-272,-33
5730,1528,-256,1344,-26,-268,-33
5735,1504,-352,1360,-28,-263,-18
5740,1536,-400,1280,-2,-262,1
5745,1544,-408,1248,22,-250,-1
5750,1544,-408,1224,34,-230,-11
5755,1528,-384,1248,29,-216,-17
5760,1528,-328,1232,26,-215,-19
5765,1536,-352,1304,31,-227,-21
5770,1536,-312,1304,41,-246,-29
5775,1576,-320,1320,55,-262,-34
5780,1584,-312,1312,69,-264,-39
5785,1608,-288,1288,80,-257,-44
5790,1608,-264,1296,87,-241,-51
5795,1648,-272,1272,93,-219,-60
5800,1656,-288,1232,96,-197,-71
5805,1656,-256,1240,94,-174,-79
5810,1664,-304,1184,86,-152,-81
5815,1632,-280,1192,78,-131,-86
5820,1656,-288,1216,66,-116,-92
5825,1648,-320,1200,55,-109,-95
5830,1632,-304,1208,52,-107,-99
5835,1600,-312,1224,53,-112,-102
5840,1584,-264,1176,48,-119,-96
5845,1624,-328,1216,33,-125,-85
5850,1624,-280,1128,17,-119,-83
5855,1592,-248,1160,2,-110,-90
5860,1616,-264,1128,-15,-106,-91
5865,1608,-264,1192,-26,-101,-91
5870,1672,-280,1200,-26,-92,-87
5875,1648,-272,1152,-19,-85,-85
5880,1664,-280,1160,-7,-71,-85
5885,1640,-264,1168,2,-54,-89
5890,1632,-248,1144,1,-37,-91
5895,1664,-288,1152,-6,-16,-82
5900,1664,-248,1128,-13,11,-73
5905,1632,-240,1112,-24,38,-69
5910,1704,-272,1128,-35,66,-62
5915,1712,-272,1152,-28,97,-57
5920,1712,-272,1176,-13,122,-52
5925,1688,-256,1184,-3,143,-56
5930,1704,-296,1184,-9,155,-54
5935,1672,-248,1176,-16,162,-52
5940,1656,-240,1224,-25,163,-50
5945,1648,-232,1192,-37,159,-48
5950,1624,-240,1208,-52,156,-45
5955,1648,-200,1216,-69,152,-41
5960,1568,-232,1200,-80,150,-36
5965,1568,-216,1256,-86,150,-31
5970,1568,-240,1232,-90,150,-26
5975,1552,-216,1200,-94,153,-22
5980,1528,-224,1240,-100,156,-19
5985,1544,-240,1224,-103,162,-16
5990,1520,-256,1256,-106,171,-14
5995,1528,-232,1224,-110,180,-12
6000,1528,-296,1232,-116,190,-10
6005,1520,-248,1240,-120,202,-7
6010,1496,-272,1216,-121,216,-5
6015,1528,-256,1224,-122,235,-3
6020,1512,-288,1264,-120,248,0
6025,1512,-256,1296,-117,257,2
6030,1504,-272,1288,-112,259,6
6035,1472,-280,1320,-107,261,11
6040,1480,-280,1288,-100,261,16
6045,1464,-280,1336,-92,262,19
6050,1456,-264,1344,-86,262,23
6055,1464,-288,1376,-79,257,26
6060,1456,-304,1368,-74,248,29
6065,1304,-248,1264,-67,240,30
6070,1384,-216,1368,-60,229,31
6075,1328,-344,1400,-53,219,31
6080,1408,-320,1416,-45,211,30
6085,1456,-288,1464,-42,203,30
6090,1416,-264,1392,-41,199,30
6095,1424,-288,1440,-43,190,29
6100,1400,-296,1360,-47,185,26
6105,1440,-256,1392,-49,177,23
6110,1408,-288,1384,-50,171,21
6115,1360,-368,1384,-51,168,21
6120,1408,-288,1384,-49,164,19
6125,1432,-304,1384,-47,165,20
6130,1400,-288,1368,-45,167,19
6135,1392,-312,1360,-44,167,20
6140,1320,-288,1400,-43,164,21
6145,1392,-344,1488,-44,159,23
6150,1376,-320,1384,-44,156,25
6155,1376,-352,1464,-42,148,26
6160,1288,-280,1464,-36,138,25
6165,1528,-272,1416,-28,126,23
6170,1400,-272,1456,-26,116,22
6175,1320,-464,1400,-25,106,19
6180,1328,-344,1192,-28,100,19
6185,1320,-304,1216,-30,96,19
6190,1360,-232,1328,-33,95,17
6195,1384,-304,1368,-36,93,14
6200,1400,-296,1384,-39,90,13
6205,1392,-288,1392,-40,87,12
6210,1432,-288,1384,-40,86,10
6215,1408,-280,1360,-39,85,8
6220,1408,-240,1400,-40,82,6
6225,1432,-328,1384,-43,79,4
6230,1488,-272,1376,-44,80,4
6235,1488,-264,1328,-46,79,5
6240,1568,-264,1448,-49,78,2
6245,1392,-288,1184,-52,75,1
6250,1472,-288,1352,-54,70,0
6255,1376,-400,1344,-58,62,-2
6260,1440,-344,1464,-59,56,-4
6265,1496,-304,1456,-60,53,-3
6270,1504,-384,1408,-60,50,-4
6275,1440,-288,1360,-62,49,-4
6280,1480,-288,1336,-67,47,-3
6285,1456,-304,1360,-69,46,-1
6290,1448,-304,1336,-67,47,1
6295,1464,-320,1344,-64,47,1
6300,1512,-280,1408,-61,45,1
6305,1480,-256,1360,-60,45,-1
6310,1424,-256,1288,-64,44,-1
6315,1432,-304,1280,-67,40,0
6320,1544,-272,1336,-68,40,1
6325,1552,-272,1384,-68,43,-1
6330,1456,-304,1368,-70,47,-2
6335,1448,-176,1136,-71,51,-4
6340,1472,-240,1376,-70,55,-5
6345,1512,-336,1328,-69,57,-5
6350,1512,-320,1296,-70,60,-4
6355,1504,-320,1320,-70,65,0
6360,1496,-320,1320,-69,67,1
6365,1496,-312,1368,-66,67,1
6370,1480,-352,1176,-64,67,1
6375,1520,-536,1456,-61,65,1
6380,1456,-320,1352,-57,63,0
6385,1528,-360,1344,-54,60,-2
6390,1496,-376,1336,-52,54,-2
6395,1392,-360,1280,-51,48,0
6400,1424,-440,1424,-51,44,0
6405,1552,-384,1368,-50,42,1
6410,1488,-488,1352,-47,39,1
6415,1616,-352,1328,-43,39,4
6420,1544,-280,1360,-41,43,2
6425,1416,-352,1416,-40,49,0
6430,1480,-320,1312,-40,53,-2
6435,1464,-328,1320,-43,59,-3
6440,1472,-328,1320,-45,64,-5
6445,1488,-368,1336,-44,69,-6
6450,1424,-464,1360,-40,73,-7
6455,1480,-328,1312,-38,75,-6
6460,1552,-240,1280,-36,77,-5
6465,1480,-312,1352,-32,75,-5
6470,1448,-336,1360,-30,71,-3
6475,1464,-376,1376,-29,66,-4
6480,1496,-264,1256,-28,61,-3
6485,1488,-248,1384,-30,56,-4
6490,1440,-344,1312,-34,53,-1
6495,1448,-384,1360,-37,50,0
6500,1488,-304,1304,-36,49,2
6505,1480,-344,1336,-34,48,1
6510,1456,-320,1320,-32,46,3
6515,1464,-304,1328,-30,46,3
6520,1416,-352,1312,-28,45,3
6525,1472,-296,1328,-28,47,4
6530,1472,-320,1424,-30,52,2
6535,1448,-328,1352,-35,57,1
6540,1528,-376,1456,-40,63,1
6545,1456,-304,1328,-43,68,1
6550,1472,-296,1368,-45,71,-2
6555,1488,-344,1336,-45,72,-3
6560,1512,-328,1344,-47,70,-6
6565,1464,-328,1280,-50,70,-6
6570,1496,-304,1320,-53,71,-6
6575,1488,-336,1336,-54,72,-8
6580,1488,-328,1352,-52,73,-8
6585,1480,-344,1368,-50,69,-8
6590,1448,-320,1344,-50,64,-9
6595,1472,-336,1336,-49,61,-10
6600,1448,-336,1328,-48,61,-6
6605,1472,-328,1320,-47,63,-6
6610,1464,-344,1304,-48,63,-5
6615,1472,-312,1192,-47,65,-5
6620,1464,-336,1312,-47,67,-6
6625,1480,-312,1320,-46,69,-6
6630,1480,-328,1320,-45,71,-4
6635,1472,-312,1304,-42,75,-4
6640,1512,-280,1352,-43,82,-5
6645,1472,-320,1328,-45,86,-4
6650,1496,-328,1320,-50,92,-5
6655,1488,-328,1328,-54,96,-5
6660,1464,-328,1304,-57,100,-4
6665,1488,-360,1344,-57,100,-5
6670,1472,-328,1304,-56,99,-1
6675,1480,-328,1320,-54,98,-2
6680,1472,-352,1336,-52,97,-1
6685,1496,-344,1320,-51,98,-2
6690,1472,-328,1328,-51,101,-1
6695,1488,-344,1344,-52,102,-1
6700,1440,-352,1336,-52,101,0
6705,1448,-344,1336,-54,101,-2
6710,1464,-328,1368,-55,100,-3
6715,1424,-296,1384,-57,99,-3
6720,1440,-328,1336,-59,97,-4
6725,1432,-336,1336,-61,94,-5
6730,1448,-352,1360,-59,91,-3
6735,1448,-344,1344,-56,91,-4
6740,1448,-352,1320,-50,94,-4
6745,1448,-344,1352,-43,96,-4
6750,1456,-320,1344,-40,98,-3
6755,1456,-344,1368,-38,100,-2
6760,1424,-344,1352,-39,100,-4
6765,1440,-336,1328,-39,101,-4
6770,1440,-352,1328,-38,103,-3
6775,1448,-368,1336,-36,103,-3
6780,1432,-360,1352,-35,97,-3
6785,1448,-368,1328,-33,93,-4
6790,1416,-392,1344,-32,89,-3
6795,1440,-368,1368,-29,84,-4
6800,1432,-360,1360,-26,79,-4
6805,1416,-360,1352,-24,75,-6
6810,1440,-368,1376,-24,73,-6
6815,1456,-360,1368,-27,70,-8
6820,1448,-360,1360,-29,65,-6
6825,1408,-448,1376,-30,60,-7
6830,1432,-360,1344,-28,56,-7
6835,1432,-352,1312,-25,56,-7
6840,1464,-352,1288,-19,56,-6
6845,1440,-344,1320,-16,58,-7
6850,1448,-320,1304,-13,62,-8
6855,1456,-336,1304,-14,64,-7
6860,1472,-328,1312,-15,67,-7
6865,1472,-344,1320,-13,69,-7
6870,1472,-320,1336,-11,69,-8
6875,1456,-344,1336,-8,69,-6
6880,1464,-344,1336,-3,64,-5
6885,1456,-328,1320,1,63,-4
6890,1496,-312,1320,3,64,-2
6895,1456,-320,1336,6,63,-1
6900,1448,-328,1336,7,61,1
6905,1456,-344,1344,7,60,2
6910,1456,-328,1352,8,62,2
6915,1448,-344,1328,10,63,2
6920,1464,-328,1352,12,64,2
6925,1464,-328,1328,14,64,4
6930,1472,-352,1312,16,65,3
6935,1464,-368,1304,18,68,6
6940,1472,-336,1336,18,72,7
6945,1440,-296,1320,19,76,9
6950,1456,-296,1312,21,79,11
6955,1472,-336,1328,25,82,13
6960,1488,-344,1312,27,84,13
6965,1464,-336,1304,27,86,15
6970,1464,-336,1328,27,88,16
6975,1480,-312,1336,26,90,18
6980,1456,-296,1360,26,89,18
6985,1480,-336,1320,27,89,18
6990,1480,-312,1336,26,87,18
6995,1464,-344,1304,27,85,18
7000,1472,-312,1288,28,86,19
7005,1464,-336,1328,29,87,20
7010,1456,-312,1344,29,88,18
7015,1456,-336,1312,28,91,19
7020,1496,-352,1336,27,94,19
7025,1488,-320,1312,27,99,17
7030,1464,-312,1328,24,101,15
7035,1480,-320,1288,24,102,16
7040,1488,-352,1328,25,101,18
7045,1440,-424,1360,28,102,21
7050,1480,-368,1328,31,103,21
7055,1464,-360,1328,37,106,23
7060,1488,-352,1328,41,111,23
7065,1472,-352,1328,45,111,22
7070,1464,-352,1360,49,114,23
7075,1432,-320,1360,52,113,18
7080,1472,-352,1352,52,115,16
7085,1448,-344,1344,47,116,14
7090,1456,-344,1352,39,116,14
7095,1448,-320,1336,32,114,13
7100,1472,-344,1328,28,114,13
7105,1440,-328,1344,24,112,12
7110,1440,-336,1376,21,113,13
7115,1448,-328,1312,20,113,12
7120,1456,-352,1344,17,113,14
7125,1440,-312,1328,15,111,12
7130,1416,-320,1352,11,109,12
7135,1464,-336,1344,6,107,12
7140,1448,-336,1360,2,103,11
7145,1448,-336,1320,2,103,10
7150,1480,-360,1360,0,101,9
7155,1440,-336,1376,1,101,8
7160,1440,-352,1352,0,99,6
7165,1448,-352,1352,3,98,8
7170,1408,-320,1368,3,99,6
7175,1432,-328,1384,4,100,5
7180,1432,-320,1368,4,101,5
7185,1440,-328,1360,5,100,6
7190,1440,-328,1352,6,101,6
7195,1440,-352,1360,6,100,8
7200,1456,-360,1368,9,101,8
7205,1424,-312,1392,13,100,10
7210,1424,-344,1376,17,98,14
7215,1440,-344,1376,20,96,16
7220,1464,-344,1368,23,92,15
7225,1440,-336,1312,24,89,14
7230,1456,-320,1344,26,88,13
7235,1448,-320,1352,23,89,12
7240,1448,-328,1368,21,88,11
7245,1424,-320,1376,20,90,13
7250,1424,-352,1368,22,89,14
7255,1408,-312,1360,23,90,16
7260,1432,-320,1336,24,90,15
7265,1440,-328,1344,24,91,14
7270,1440,-360,1376,27,93,15
7275,1416,-336,1368,27,92,14
7280,1424,-336,1384,28,90,14
7285,1432,-312,1376,29,85,13
7290,1424,-344,1336,28,83,13
7295,1416,-320,1360,27,82,12
7300,1432,-304,1376,24,82,12
7305,1432,-328,1368,24,84,14
7310,1440,-336,1344,23,86,14
7315,1424,-320,1352,22,88,14
7320,1440,-312,1368,22,90,15
7325,1424,-320,1360,21,93,13
7330,1456,-328,1360,19,93,13
7335,1464,-304,1368,15,94,12
7340,1456,-328,1376,13,98,11
7345,1464,-312,1352,9,98,11
7350,1464,-320,1368,5,99,12
7355,1456,-336,1344,5,100,13
7360,1424,-296,1328,3,101,13
7365,1440,-320,1320,2,102,13
7370,1456,-312,1392,0,104,13
7375,1440,-336,1360,-1,104,13
7380,1432,-344,1352,0,102,13
7385,1464,-344,1352,1,100,14
7390,1440,-320,1344,1,101,14
7395,1440,-328,1360,1,103,12
7400,1440,-296,1368,1,104,11
7405,1416,-312,1352,-1,102,10
7410,1424,-320,1352,-1,100,11
7415,1456,-328,1376,-3,100,12
7420,1448,-312,1360,-3,101,10
7425,1432,-328,1376,-1,102,12
7430,1432,-320,1352,0,100,10
7435,1432,-320,1360,1,99,11
7440,1448,-328,1368,3,96,9
7445,1432,-320,1360,3,94,9
7450,1456,-352,1368,0,94,11
7455,1440,-336,1368,-3,92,10
7460,1440,-304,1400,-5,91,9
7465,1448,-328,1368,-5,88,8
7470,1424,-336,1368,-5,86,7
7475,1424,-336,1376,-4,83,6
7480,1464,-360,1408,-5,84,7
7485,1400,-328,1360,-6,84,6
7490,1408,-328,1360,-6,86,4
7495,1432,-320,1392,-6,88,4
7500,1432,-352,1360,-6,89,6
7505,1408,-320,1376,-5,90,5
7510,1408,-344,1352,-4,88,5
7515,1400,-328,1376,-4,91,4
7520,1416,-328,1360,-3,91,6
7525,1408,-344,1368,-4,92,5
7530,1416,-352,1376,-1,91,6
7535,1432,-352,1392,1,90,7
7540,1416,-336,1408,4,88,7
7545,1400,-328,1376,8,88,5
7550,1408,-328,1360,10,87,6
7555,1416,-328,1368,11,85,8
7560,1400,-312,1384,12,82,7
7565,1408,-344,1384,11,80,8
7570,1400,-336,1408,11,79,8
7575,1408,-344,1384,9,80,8
7580,1416,-336,1384,9,78,8
7585,1416,-344,1384,12,77,6
7590,1384,-336,1296,17,75,6
7595,1408,-328,1368,22,76,7
7600,1408,-344,1344,27,80,9
7605,1416,-328,1360,31,86,11
7610,1408,-320,1384,29,93,10
7615,1424,-320,1384,26,98,14
7620,1400,-328,1408,22,99,13
7625,1408,-304,1400,21,95,16
7630,1416,-328,1376,22,91,16
7635,1424,-312,1376,25,87,17
7640,1408,-312,1368,31,84,18
7645,1408,-304,1392,36,84,22
7650,1416,-352,1344,39,84,24
7655,1440,-328,1352,44,88,25
7660,1416,-328,1368,44,91,24
7665,1424,-304,1376,43,91,24
7670,1416,-304,1376,40,93,23
7675,1416,-328,1392,37,90,21
7680,1416,-296,1392,29,84,20
7685,1416,-296,1400,23,80,17
7690,1432,-328,1384,15,79,16
7695,1368,-344,1416,10,77,13
7700,1432,-328,1376,8,77,9
7705,1456,-328,1376,7,76,5
7710,1440,-328,1344,10,76,4
7715,1400,-312,1352,13,81,4
7720,1416,-336,1344,13,88,5
7725,1456,-336,1360,13,93,8
7730,1440,-328,1352,13,98,7
7735,1416,-328,1352,13,100,7
7740,1456,-304,1392,15,103,8
7745,1456,-328,1368,15,102,7
7750,1432,-304,1392,14,103,6
7755,1432,-312,1344,11,102,5
7760,1440,-304,1376,10,101,8
7765,1424,-328,1400,8,101,8
7770,1416,-296,1368,6,101,8
7775,1424,-320,1360,5,99,8
7780,1424,-312,1376,2,95,6
7785,1400,-344,1408,-1,92,7
7790,1392,-336,1392,-3,89,7
7795,1408,-328,1376,-6,88,7
7800,1408,-344,1376,-10,86,6
7805,1384,-336,1376,-13,85,6
7810,1392,-312,1384,-16,86,6
7815,1400,-304,1400,-17,89,5
7820,1408,-336,1392,-19,92,5
7825,1400,-328,1376,-19,93,5
7830,1408,-344,1384,-18,94,4
7835,1408,-336,1400,-18,94,3
7840,1400,-352,1384,-19,93,1
7845,1400,-320,1400,-21,91,0
7850,1424,-336,1392,-23,89,-1
7855,1400,-328,1424,-25,86,-1
7860,1400,-328,1392,-26,82,0
7865,1376,-312,1392,-28,78,2
7870,1384,-320,1392,-29,74,1
7875,1376,-320,1392,-31,70,0
7880,1392,-344,1376,-31,67,-1
7885,1376,-312,1392,-33,64,-1
7890,1400,-304,1408,-33,62,-1
7895,1408,-320,1384,-33,61,-2
7900,1400,-304,1384,-33,61,-4
7905,1376,-288,1392,-36,63,-4
7910,1408,-296,1384,-38,65,-6
7915,1368,-328,1424,-41,68,-7
7920,1424,-304,1384,-44,70,-5
7925,1440,-312,1384,-46,71,-5
7930,1424,-312,1392,-45,69,-4
7935,1432,-304,1376,-40,66,-3
7940,1448,-336,1368,-38,63,-3
7945,1408,-352,1360,-36,63,-4
7950,1424,-320,1400,-40,65,-6
7955,1408,-320,1400,-48,69,-7
7960,1408,-304,1408,-55,71,-10
7965,1392,-288,1416,-62,70,-11
7970,1376,-352,1424,-64,67,-13
7975,1416,-336,1400,-65,64,-15
7980,1408,-328,1376,-64,62,-16
7985,1424,-344,1368,-61,60,-15
7990,1408,-352,1384,-59,59,-17
7995,1392,-312,1376,-57,60,-15
8000,1432,-360,1352,-57,62,-14
8005,1408,-344,1376,-56,66,-13
8010,1408,-336,1344,-55,66,-14
8015,1416,-328,1384,-53,66,-12
8020,1400,-320,1392,-53,65,-12
8025,1408,-280,1288,-51,63,-12
8030,1400,-336,1376,-52,61,-10
8035,1400,-336,1400,-52,61,-8
8040,1384,-328,1408,-52,57,-7
8045,1400,-360,1384,-51,59,-8
8050,1400,-336,1368,-52,58,-8
8055,1392,-336,1392,-50,57,-7
8060,1424,-320,1368,-51,59,-9
8065,1400,-344,1400,-53,58,-10
8070,1392,-312,1384,-51,57,-11
8075,1408,-360,1376,-49,57,-11
8080,1440,-328,1368,-50,57,-11
8085,1400,-344,1368,-50,55,-13
8090,1408,-320,1384,-49,55,-11
8095,1408,-344,1376,-48,54,-11
8100,1408,-352,1376,-46,55,-11
8105,1408,-352,1376,-43,54,-11
8110,1400,-344,1360,-42,55,-11
8115,1400,-336,1368,-40,55,-10
8120,1408,-312,1368,-39,54,-10
8125,1416,-320,1360,-39,53,-10
8130,1416,-352,1392,-40,57,-9
8135,1456,-344,1376,-38,58,-8
8140,1424,-336,1376,-38,58,-7
8145,1400,-336,1376,-36,56,-6
8150,1392,-336,1376,-35,53,-6
8155,1392,-336,1376,-34,51,-5
8160,1400,-328,1352,-35,49,-5
8165,1416,-328,1368,-35,48,-5
8170,1408,-344,1368,-36,48,-7
8175,1408,-328,1392,-36,48,-6
8180,1416,-328,1368,-36,48,-6
8185,1400,-312,1360,-38,51,-5
8190,1408,-336,1368,-39,57,-4
8195,1416,-328,1376,-38,63,-5
8200,1416,-328,1384,-38,66,-5
8205,1408,-336,1376,-38,68,-6
8210,1416,-336,1368,-37,68,-7
8215,1424,-320,1360,-34,66,-7
8220,1448,-336,1376,-35,64,-8
8225,1432,-336,1384,-34,62,-6
8230,1424,-328,1392,-33,59,-6
8235,1432,-336,1376,-33,56,-6
8240,1520,-328,1304,-33,55,-7
8245,1432,-328,1376,-32,56,-7
8250,1416,-320,1368,-33,58,-8
8255,1432,-320,1376,-34,60,-9
8260,1408,-320,1384,-35,63,-9
8265,1416,-360,1368,-36,65,-10
8270,1408,-336,1368,-36,67,-10
8275,1408,-328,1408,-38,67,-9
8280,1400,-336,1384,-39,66,-10
8285,1408,-320,1384,-39,66,-9
8290,1400,-344,1376,-39,65,-9
8295,1416,-336,1392,-40,62,-9
8300,1424,-320,1368,-39,60,-9
8305,1432,-336,1352,-40,57,-9
8310,1408,-336,1384,-40,57,-9
8315,1432,-320,1376,-41,56,-11
8320,1408,-344,1392,-44,57,-11
8325,1392,-344,1344,-44,59,-9
8330,1432,-336,1368,-45,62,-11
8335,1416,-360,1376,-45,61,-10
8340,1416,-336,1360,-44,61,-10
8345,1424,-352,1376,-42,58,-9
8350,1464,-296,1392,-42,59,-10
8355,1416,-336,1368,-41,59,-9
8360,1432,-344,1352,-40,59,-7
8365,1392,-336,1376,-40,61,-6
8370,1416,-328,1376,-39,65,-5
8375,1408,-336,1368,-38,62,-6
8380,1400,-360,1376,-37,61,-5
8385,1424,-376,1368,-37,60,-7
8390,1416,-352,1360,-36,55,-9
8395,1424,-344,1360,-37,52,-9
8400,1424,-352,1368,-37,51,-8
8405,1424,-352,1360,-39,52,-7
8410,1392,-344,1344,-41,56,-10
8415,1408,-344,1360,-42,58,-10
8420,1384,-344,1376,-41,60,-9
8425,1400,-352,1352,-40,62,-10
8430,1424,-352,1360,-37,62,-11
8435,1424,-352,1376,-37,63,-11
8440,1400,-360,1384,-36,63,-10
8445,1424,-328,1376,-34,64,-9
8450,1416,-360,1368,-35,64,-8
8455,1424,-336,1384,-36,64,-6
8460,1432,-344,1328,-33,65,-6
8465,1424,-352,1360,-31,63,-7
8470,1408,-344,1352,-31,62,-6
8475,1408,-344,1360,-31,59,-5
8480,1432,-360,1368,-30,56,-4
8485,1416,-344,1368,-30,54,-5
8490,1392,-320,1392,-28,51,-6
8495,1416,-344,1376,-27,51,-6
8500,1392,-360,1368,-28,53,-4
8505,1416,-344,1384,-27,55,-4
8510,1424,-352,1352,-27,60,-5
8515,1416,-376,1368,-25,62,-6
8520,1432,-392,1368,-22,62,-7
8525,1448,-352,1376,-20,61,-6
8530,1416,-376,1376,-16,61,-5
8535,1424,-360,1376,-12,60,-5
8540,1432,-368,1368,-12,57,-5
8545,1432,-368,1360,-11,57,-6
8550,1440,-344,1344,-11,57,-5
8555,1440,-344,1360,-11,57,-5
8560,1400,-336,1360,-13,58,-3
8565,1448,-344,1360,-17,58,-2
8570,1480,-352,1400,-20,56,-2
8575,1432,-328,1360,-22,57,-3
8580,1448,-352,1352,-27,57,-4
8585,1448,-360,1368,-30,56,-5
8590,1432,-344,1344,-29,56,-6
8595,1432,-360,1360,-26,57,-5
8600,1432,-392,1344,-23,60,-5
8605,1416,-352,1328,-21,65,-3
8610,1432,-336,1360,-19,69,-3
8615,1416,-352,1336,-19,71,-2
8620,1424,-344,1376,-17,72,-2
8625,1424,-328,1336,-15,73,-3
8630,1424,-376,1376,-14,74,-4
8635,1424,-352,1376,-12,73,-2
8640,1432,-368,1360,-8,74,-3
8645,1424,-360,1344,-6,75,-2
8650,1432,-352,1344,-4,76,-3
8655,1392,-344,1360,-4,76,-3
8660,1400,-336,1368,-3,77,-2
8665,1424,-344,1392,-6,77,-1
8670,1416,-376,1368,-10,77,-1
8675,1456,-304,1488,-14,75,-3
8680,1400,-368,1400,-18,73,-2
8685,1424,-368,1384,-16,67,-1
8690,1424,-376,1360,-10,64,-1
8695,1416,-384,1320,-4,63,-1
8700,1440,-368,1336,0,64,1
8705,1432,-352,1312,2,68,2
8710,1424,-352,1336,3,72,2
8715,1448,-352,1368,2,78,2
8720,1456,-352,1352,2,79,3
8725,1432,-344,1352,4,80,4
8730,1448,-376,1368,6,79,4
8735,1448,-368,1392,8,76,2
8740,1448,-344,1360,10,71,3
8745,1440,-344,1392,14,65,4
8750,1432,-352,1376,16,62,5
8755,1424,-360,1384,18,59,6
8760,1448,-360,1392,19,56,5
8765,1416,-344,1360,19,56,5
8770,1416,-352,1360,19,56,5
8775,1400,-352,1360,19,57,4
8780,1424,-344,1376,20,59,3
8785,1360,-312,1344,20,61,3
8790,1424,-328,1360,19,64,1
8795,1424,-360,1352,19,66,2
8800,1392,-360,1368,19,69,2
8805,1400,-360,1344,19,72,0
8810,1392,-336,1376,20,74,0
8815,1416,-344,1384,19,75,1
8820,1392,-344,1360,20,73,1
8825,1432,-368,1368,22,74,2
8830,1432,-344,1368,22,69,3
8835,1432,-344,1360,21,68,4
8840,1416,-312,1352,20,65,6
8845,1416,-328,1368,17,65,6
8850,1416,-320,1400,13,65,6
8855,1400,-344,1368,11,68,6
8860,1408,-328,1376,9,72,7
8865,1424,-352,1392,9,74,7
8870,1432,-360,1376,9,73,7
8875,1400,-320,1376,9,72,6
8880,1432,-360,1344,10,73,6
8885,1408,-344,1352,10,72,7
8890,1424,-352,1368,12,73,7
8895,1432,-368,1320,13,73,7
8900,1424,-344,1376,15,74,9
8905,1416,-336,1376,10,74,11
8910,1408,-320,1368,7,73,10
8915,1424,-336,1352,5,73,10
8920,1424,-320,1360,6,74,12
8925,1424,-344,1376,10,73,13
8930,1408,-336,1376,14,73,14
8935,1432,-352,1368,17,73,12
8940,1408,-344,1360,19,74,10
8945,1408,-320,1368,19,75,9
8950,1416,-352,1392,14,77,8
8955,1408,-344,1384,10,76,7
8960,1432,-344,1384,5,74,6
8965,1416,-352,1384,4,71,4
8970,1408,-328,1368,4,70,5
8975,1424,-320,1384,7,68,3
8980,1400,-336,1384,7,68,2
8985,1440,-344,1368,8,69,3
8990,1432,-368,1376,8,67,5
8995,1432,-336,1360,7,66,5
9000,1416,-368,1344,6,67,5
9005,1472,-328,1408,7,70,6
9010,1408,-344,1384,5,72,7
9015,1432,-336,1360,4,76,5
9020,1432,-360,1368,4,76,3
9025,1424,-344,1360,2,76,3
9030,1432,-344,1376,1,77,3
9035,1416,-328,1384,1,74,2
9040,1424,-368,1400,0,74,2
9045,1424,-344,1376,-3,76,2
9050,1416,-328,1384,-4,77,1
9055,1424,-336,1360,-3,75,0
9060,1408,-336,1336,-1,72,0
9065,1408,-352,1368,1,71,-1
9070,1408,-336,1352,3,72,0
9075,1400,-328,1400,2,74,1
9080,1408,-352,1376,4,78,1
9085,1416,-344,1368,8,77,1
9090,1400,-336,1360,11,78,1
9095,1416,-368,1376,13,77,0
9100,1400,-344,1376,15,79,1
9105,1440,-344,1376,15,81,2
9110,1408,-344,1352,11,82,1
9115,1400,-328,1360,8,83,0
9120,1400,-328,1368,6,80,0
9125,1432,-312,1360,4,79,3
9130,1416,-352,1392,3,78,2
9135,1416,-344,1376,2,77,2
9140,1448,-352,1368,3,76,1
9145,1400,-352,1376,1,78,2
9150,1408,-344,1368,1,77,2
9155,1432,-352,1376,0,79,1
9160,1424,-328,1376,1,81,1
9165,1408,-328,1376,1,80,3
9170,1416,-336,1368,2,79,3
9175,1432,-360,1376,2,78,4
9180,1424,-352,1368,2,79,4
9185,1400,-320,1392,1,78,4
9190,1416,-328,1368,0,78,4
9195,1408,-336,1360,-1,77,3
9200,1424,-336,1376,-4,78,3
9205,1392,-328,1368,-4,78,3
9210,1432,-352,1368,-5,76,4
9215,1408,-344,1376,-6,79,5
9220,1408,-304,1336,-5,81,5
9225,1392,-336,1376,-4,82,6
9230,1408,-320,1384,-3,84,5
9235,1384,-328,1384,-4,81,7
9240,1392,-328,1376,-3,79,6
9245,1416,-344,1384,0,77,6
9250,1424,-328,1376,2,77,6
9255,1392,-344,1384,2,76,6
9260,1400,-336,1392,4,78,4
9265,1416,-344,1368,5,79,5
9270,1432,-344,1376,5,78,3
9275,1424,-344,1384,8,77,4
9280,1416,-336,1368,8,77,5
9285,1408,-328,1376,9,76,6
9290,1376,-304,1360,9,75,4
9295,1424,-344,1344,7,75,6
9300,1400,-328,1376,7,74,6
9305,1440,-352,1368,6,74,7
9310,1392,-344,1384,7,72,8
9315,1400,-336,1360,7,74,8
9320,1416,-344,1368,6,73,10
9325,1384,-336,1360,6,75,8
9330,1408,-384,1424,5,75,9
9335,1352,-336,1408,6,73,7
9340,1416,-344,1368,5,76,6
9345,1424,-352,1376,6,73,5
9350,1392,-344,1376,5,74,6
9355,1384,-328,1376,3,75,6
9360,1416,-344,1400,2,74,4
9365,1392,-352,1384,1,73,2
9370,1408,-352,1376,-1,74,2
9375,1416,-328,1384,-3,73,1
9380,1392,-344,1384,-5,72,-1
9385,1376,-376,1384,-7,72,-2
9390,1408,-328,1368,-8,74,-4
9395,1424,-344,1376,-11,73,-4
9400,1416,-328,1352,-12,75,-6
9405,1424,-336,1376,-14,74,-8
9410,1416,-368,1392,-14,73,-7
9415,1400,-352,1392,-13,72,-9
9420,1432,-360,1392,-12,67,-9
9425,1424,-336,1376,-13,67,-10
9430,1400,-328,1368,-15,69,-10
9435,1424,-320,1376,-16,68,-9
9440,1424,-344,1376,-17,67,-8
9445,1400,-328,1384,-18,65,-9
9450,1400,-336,1384,-17,64,-9
9455,1392,-336,1384,-15,65,-7
9460,1400,-328,1400,-15,65,-8
9465,1400,-336,1376,-14,65,-8
9470,1400,-328,1376,-15,64,-7
9475,1408,-328,1392,-13,63,-8
9480,1392,-336,1384,-12,63,-8
9485,1416,-352,1376,-10,62,-8
9490,1440,-344,1392,-11,61,-8
9495,1424,-320,1352,-11,60,-8
9500,1400,-328,1376,-9,61,-6
9505,1424,-336,1368,-7,64,-5
9510,1424,-328,1368,-4,63,-3
9515,1440,-336,1392,-3,63,-1
9520,1408,-304,1360,-2,61,0
9525,1400,-344,1352,0,62,0
9530,1424,-336,1368,-1,62,1
9535,1432,-336,1392,2,67,1
9540,1416,-352,1376,5,67,1
9545,1416,-352,1376,6,68,2
9550,1400,-368,1392,7,71,3
9555,1424,-344,1392,7,71,4
9560,1416,-328,1360,6,73,6
9565,1424,-328,1384,5,74,4
9570,1408,-312,1376,4,75,5
9575,1440,-336,1368,3,71,6
9580,1432,-344,1376,2,68,8
9585,1424,-352,1376,0,66,7
9590,1408,-320,1384,-3,66,6
9595,1432,-336,1376,-6,68,7
9600,1416,-328,1392,-6,69,5
9605,1408,-312,1376,-6,73,3
9610,1424,-344,1376,-5,74,3
9615,1400,-336,1336,-4,79,2
9620,1416,-336,1360,-7,83,1
9625,1440,-328,1368,-10,86,2
9630,1408,-336,1384,-11,89,3
9635,1424,-328,1368,-12,89,3
9640,1440,-352,1392,-11,88,7
9645,1432,-344,1384,-8,84,9
9650,1408,-336,1360,-6,81,10
9655,1400,-352,1352,-2,81,10
9660,1376,-296,1368,0,80,9
9665,1408,-360,1360,0,83,10
9670,1416,-352,1368,-2,84,10
9675,1400,-336,1368,-2,85,8
9680,1392,-328,1400,-6,83,6
9685,1392,-352,1392,-14,80,4
9690,1392,-344,1384,-20,76,1
9695,1392,-344,1400,-25,73,0
9700,1392,-336,1432,-29,67,-2
9705,1384,-344,1384,-27,60,-4
9710,1392,-376,1376,-23,56,-5
9715,1408,-352,1368,-19,54,-4
9720,1368,-328,1352,-18,56,-3
9725,1392,-360,1368,-17,59,-5
9730,1416,-352,1352,-16,61,-4
9735,1400,-320,1368,-13,62,-5
9740,1424,-360,1392,-12,63,-6
9745,1424,-344,1384,-9,64,-8
9750,1432,-352,1392,-8,65,-8
9755,1400,-320,1400,-8,66,-9
9760,1424,-336,1376,-10,66,-9
9765,1440,-296,1344,-12,65,-10
9770,1416,-320,1384,-14,62,-11
9775,1424,-304,1384,-18,62,-11
9780,1408,-320,1400,-23,61,-12
9785,1416,-336,1408,-26,61,-12
9790,1408,-320,1392,-28,59,-11
9795,1384,-328,1392,-30,58,-10
9800,1416,-336,1392,-31,58,-10
9805,1424,-336,1384,-33,56,-12
9810,1424,-328,1384,-35,56,-10
9815,1416,-320,1360,-37,56,-11
9820,1392,-336,1360,-39,57,-12
9825,1408,-328,1384,-40,56,-11
9830,1400,-312,1376,-41,55,-11
9835,1408,-320,1376,-43,53,-10
9840,1392,-328,1392,-42,55,-11
9845,1392,-312,1384,-42,56,-11
9850,1408,-344,1376,-42,57,-11
9855,1432,-344,1384,-41,56,-11
9860,1408,-296,1392,-40,55,-10
9865,1416,-368,1384,-40,54,-9
9870,1408,-344,1352,-41,52,-11
9875,1352,-344,1392,-43,52,-10
9880,1416,-336,1392,-46,53,-9
9885,1416,-328,1376,-45,55,-10
9890,1392,-320,1376,-46,55,-10
9895,1416,-320,1360,-45,54,-9
9900,1408,-344,1384,-46,53,-11
9905,1400,-336,1368,-45,53,-10
9910,1432,-344,1360,-46,51,-9
9915,1408,-336,1352,-48,52,-8
9920,1448,-352,1384,-51,54,-9
9925,1440,-328,1384,-55,56,-8
9930,1408,-328,1392,-58,56,-7
9935,1424,-336,1360,-59,56,-5
9940,1432,-368,1384,-56,54,-4
9945,1408,-352,1376,-51,52,-4
9950,1392,-344,1384,-44,50,-5
9955,1424,-368,1320,-39,51,-3
9960,1424,-328,1352,-39,54,-5
9965,1408,-352,1360,-41,56,-6
9970,1416,-344,1424,-45,58,-7
9975,1408,-328,1360,-49,55,-8
9980,1408,-336,1384,-53,55,-9
9985,1384,-376,1408,-55,52,-9
9990,1408,-352,1368,-55,52,-10
9995,1416,-360,1360,-57,52,-10
10000,1408,-376,1360,-60,50,-12
10005,1432,-376,1376,-61,48,-15
10010,1392,-360,1384,-61,48,-14
10015,1408,-352,1352,-60,47,-14
10020,1424,-352,1368,-57,48,-13
10025,1416,-376,1368,-58,47,-12
10030,1424,-344,1360,-59,51,-12
10035,1392,-352,1384,-59,51,-13
10040,1424,-360,1360,-58,49,-12
10045,1440,-352,1384,-58,48,-14
10050,1416,-344,1368,-57,48,-14
10055,1416,-336,1360,-58,47,-16
10060,1392,-344,1368,-58,48,-16
10065,1424,-352,1368,-57,51,-16
10070,1400,-360,1384,-58,53,-15
10075,1440,-376,1392,-55,53,-16
10080,1424,-328,1376,-54,52,-16
10085,1424,-336,1360,-53,53,-16
10090,1424,-344,1360,-53,53,-16
10095,1448,-336,1408,-55,54,-15
10100,1408,-360,1368,-53,53,-16
10105,1424,-336,1368,-55,56,-14
10110,1416,-376,1384,-53,57,-15
10115,1424,-368,1368,-53,57,-15
10120,1440,-360,1376,-51,58,-15
10125,1424,-344,1336,-50,57,-16
10130,1416,-368,1344,-51,56,-17
10135,1432,-360,1384,-50,56,-17
10140,1408,-352,1360,-49,55,-17
10145,1424,-344,1376,-47,54,-17
10150,1416,-352,1360,-48,52,-16
10155,1424,-352,1376,-45,53,-15
10160,1440,-368,1368,-42,52,-13
10165,1408,-352,1336,-40,52,-13
10170,1424,-344,1360,-37,51,-11
10175,1416,-368,1360,-37,53,-11
10180,1416,-344,1352,-36,55,-12
10185,1416,-344,1368,-38,57,-11
10190,1424,-360,1376,-37,59,-12
10195,1432,-336,1360,-38,59,-11
10200,1432,-288,1368,-39,59,-12
10205,1400,-296,1360,-38,62,-11
10210,1416,-336,1368,-39,63,-10
10215,1432,-360,1344,-39,62,-12
10220,1448,-376,1384,-40,62,-11
10225,1408,-360,1368,-38,61,-10
10230,1432,-344,1344,-39,60,-12
10235,1456,-336,1360,-38,59,-10
10240,1432,-344,1360,-38,59,-10
10245,1432,-344,1360,-40,59,-11
10250,1440,-368,1368,-40,58,-10
10255,1424,-360,1368,-38,56,-9
10260,1440,-368,1352,-37,58,-8
10265,1432,-360,1336,-37,60,-6
10270,1424,-352,1368,-38,62,-8
10275,1408,-352,1368,-38,62,-8
10280,1448,-368,1360,-35,62,-8
10285,1424,-384,1360,-35,60,-8
10290,1408,-352,1360,-32,61,-9
10295,1424,-352,1352,-31,60,-7
10300,1432,-392,1352,-30,60,-6
10305,1416,-368,1352,-27,60,-7
10310,1344,-312,1288,-29,61,-8
10315,1416,-376,1376,-28,64,-7
10320,1424,-352,1344,-26,62,-6
10325,1440,-368,1336,-25,61,-5
10330,1416,-360,1392,-26,61,-6
10335,1432,-384,1368,-25,61,-5
10340,1424,-360,1368,-25,60,-7
10345,1424,-384,1368,-24,61,-6
10350,1432,-368,1344,-24,59,-9
10355,1416,-352,1368,-23,61,-10
10360,1424,-352,1328,-23,62,-9
10365,1432,-360,1344,-23,65,-10
10370,1400,-344,1336,-23,66,-9
10375,1432,-368,1368,-19,68,-8
10380,1432,-360,1352,-19,67,-8
10385,1440,-352,1352,-17,64,-9
10390,1424,-360,1368,-17,64,-8
10395,1408,-368,1352,-15,62,-6
10400,1416,-352,1360,-16,64,-6
10405,1440,-384,1376,-16,65,-6
10410,1416,-360,1344,-15,66,-5
10415,1432,-384,1368,-13,65,-5
10420,1448,-328,1328,-13,66,-5
10425,1424,-352,1344,-13,67,-5
10430,1424,-368,1352,-11,67,-5
10435,1424,-360,1352,-10,69,-6
10440,1424,-328,1344,-9,69,-4
10445,1416,-360,1368,-10,72,-4
10450,1416,-368,1320,-11,73,-4
10455,1424,-376,1344,-9,73,-2
10460,1432,-376,1352,-10,76,-4
10465,1440,-376,1352,-9,74,-4
10470,1432,-384,1328,-8,73,-5
10475,1432,-376,1384,-8,74,-3
10480,1440,-360,1352,-9,71,-4
10485,1424,-384,1360,-8,71,-4
10490,1456,-352,1376,-9,69,-4
10495,1424,-360,1360,-9,68,-3
10500,1424,-336,1344,-7,68,-2
10505,1424,-368,1376,-7,68,0
10510,1432,-336,1360,-7,69,1
10515,1424,-344,1336,-7,69,1
10520,1440,-368,1384,-8,69,-1
10525,1432,-344,1344,-10,70,-1
10530,1464,-232,1360,-12,73,-1
10535,1416,-352,1368,-13,74,0
10540,1432,-368,1344,-14,75,0
10545,1432,-368,1360,-14,76,-1
10550,1432,-344,1376,-15,77,-1
10555,1416,-368,1368,-16,78,-2
10560,1440,-368,1360,-16,78,-3
10565,1424,-376,1360,-15,76,-3
10570,1416,-376,1344,-11,75,-2
10575,1440,-392,1376,-9,74,-1
10580,1424,-360,1344,-5,74,-1
10585,1416,-352,1352,-3,74,2
10590,1408,-352,1360,0,73,1
10595,1448,-368,1368,2,73,2
10600,1424,-344,1384,1,74,3
10605,1416,-360,1360,0,77,4
10610,1424,-344,1344,-4,77,4
10615,1408,-368,1344,-3,78,4
10620,1416,-376,1384,-3,78,4
10625,1400,-360,1368,-3,79,4
10630,1408,-360,1360,-1,78,4
10635,1424,-352,1360,0,78,4
10640,1472,-328,1384,3,79,5
10645,1416,-368,1360,5,78,6
10650,1432,-368,1344,7,79,5
10655,1424,-352,1352,9,78,6
10660,1440,-360,1368,10,79,7
10665,1416,-360,1384,10,80,6
10670,1416,-368,1376,10,80,5
10675,1448,-368,1376,8,79,6
10680,1416,-352,1376,5,76,5
10685,1440,-344,1368,3,74,5
10690,1408,-384,1360,2,72,4
10695,1416,-368,1384,0,69,2
10700,1416,-344,1368,3,67,3
10705,1440,-392,1352,3,69,3
10710,1440,-376,1352,7,70,3
10715,1416,-352,1336,8,76,3
10720,1440,-352,1368,8,80,3
10725,1424,-352,1328,9,84,3
10730,1392,-344,1352,9,85,3
10735,1424,-352,1384,7,86,7
10740,1416,-352,1352,8,87,6
10745,1448,-376,1384,9,86,8
10750,1432,-376,1352,14,84,7
10755,1424,-360,1368,17,83,8
10760,1408,-376,1344,20,81,9
10765,1424,-368,1352,22,81,8
10770,1384,-360,1360,22,80,7
10775,1376,-352,1376,19,78,7
10780,1416,-384,1376,15,80,4
10785,1400,-376,1360,8,78,5
10790,1408,-352,1368,0,77,3
10795,1400,-352,1408,-5,74,2
10800,1424,-368,1384,-9,68,0
10805,1400,-384,1392,-10,63,-1
10810,1408,-400,1336,-7,59,-3
10815,1432,-384,1344,-4,58,-2
10820,1432,-344,1352,-1,63,-2
10825,1424,-360,1352,0,67,-2
10830,1416,-352,1368,-3,70,-1
10835,1424,-376,1360,-3,72,-2
10840,1440,-344,1360,0,72,-2
10845,1448,-376,1336,1,73,-4
10850,1416,-368,1368,5,73,-4
10855,1464,-320,1376,6,73,-3
10860,1416,-344,1368,8,72,-2
10865,1416,-344,1376,9,71,1
10870,1416,-320,1384,9,70,-1
10875,1424,-352,1392,9,70,0
10880,1424,-336,1376,9,69,1
10885,1432,-360,1368,8,69,1
10890,1448,-352,1368,8,67,1
10895,1432,-352,1376,9,65,3
10900,1408,-352,1376,7,63,4
10905,1400,-344,1328,6,63,4
10910,1416,-352,1352,5,65,4
10915,1408,-368,1368,4,66,4
10920,1392,-360,1336,4,70,5
10925,1408,-352,1360,5,72,4
10930,1408,-368,1344,5,74,4
10935,1440,-352,1352,4,76,5
10940,1400,-336,1368,3,79,4
10945,1408,-344,1376,1,81,6
10950,1400,-344,1376,0,81,5
10955,1408,-344,1376,1,81,4
10960,1400,-352,1392,-1,80,5
10965,1488,-312,1344,-2,79,3
10970,1440,-336,1376,-4,77,2
10975,1424,-336,1368,-4,78,3
10980,1448,-352,1392,-4,78,5
10985,1408,-368,1368,-1,79,5
10990,1440,-376,1352,2,79,6
10995,1408,-344,1376,2,79,7
11000,1432,-360,1360,3,78,7
11005,1440,-352,1368,3,79,6
11010,1424,-360,1376,1,77,6
11015,1424,-352,1384,-1,77,5
11020,1416,-360,1384,-1,77,4
11025,1416,-352,1368,-1,81,6
11030,1432,-352,1352,-4,83,6
11035,1408,-336,1376,-5,85,8
11040,1432,-352,1360,-7,86,10
11045,1432,-376,1368,-6,85,10
11050,1424,-360,1384,-1,82,10
11055,1408,-376,1368,3,80,10
11060,1392,-360,1360,7,79,9
11065,1424,-360,1368,9,80,9
11070,1432,-360,1368,8,81,8
11075,1440,-384,1408,6,81,8
11080,1400,-352,1400,2,79,7
11085,1408,-376,1400,1,77,6
11090,1408,-360,1368,1,76,3
11095,1400,-376,1368,2,75,3
11100,1392,-368,1360,2,75,2
11105,1400,-376,1368,2,75,0
11110,1424,-368,1384,0,78,1
11115,1424,-392,1376,-2,80,1
11120,1424,-368,1336,-2,83,-1
11125,1400,-360,1368,-3,85,0
11130,1376,-344,1376,-3,85,2
11135,1408,-344,1392,0,85,1
11140,1400,-352,1376,1,83,1
11145,1392,-352,1352,3,82,0
11150,1408,-352,1376,5,80,0
11155,1416,-344,1368,6,80,-2
11160,1376,-328,1384,5,77,-5
11165,1384,-336,1376,4,78,-4
11170,1392,-336,1360,3,78,-2
11175,1400,-344,1368,0,80,-3
11180,1416,-336,1360,0,83,-3
11185,1472,-280,1464,-2,86,-3
11190,1408,-336,1384,-3,87,-4
11195,1392,-368,1384,-3,86,-2
11200,1416,-352,1368,-1,86,-2
11205,1448,-352,1376,0,86,-2
11210,1424,-344,1384,4,86,0
11215,1416,-336,1344,7,84,-2
11220,1440,-368,1376,10,80,-1
11225,1424,-344,1384,11,75,2
11230,1424,-344,1384,13,71,1
11235,1416,-328,1376,13,69,2
11240,1440,-360,1368,14,67,3
11245,1408,-352,1376,12,67,5
11250,1432,-352,1400,11,67,6
11255,1416,-336,1376,10,66,6
11260,1416,-352,1368,10,68,7
11265,1432,-312,1352,9,66,7
11270,1424,-368,1352,8,66,5
11275,1432,-336,1336,7,67,5
11280,1416,-344,1368,4,70,6
11285,1408,-344,1368,4,74,5
11290,1464,-312,1400,4,75,4
11295,1408,-336,1360,3,77,5
11300,1416,-376,1392,-1,79,5
11305,1400,-352,1392,-1,84,5
11310,1408,-352,1368,-4,85,5
11315,1424,-360,1360,-6,86,5
11320,1408,-360,1392,-7,87,5
11325,1432,-368,1392,-9,86,5
11330,1432,-344,1392,-11,83,5
11335,1416,-360,1376,-11,79,4
11340,1408,-352,1400,-10,78,5
11345,1400,-336,1384,-11,76,5
11350,1424,-368,1400,-11,75,4
11355,1424,-360,1376,-10,73,5
11360,1400,-368,1376,-8,72,5
11365,1384,-376,1376,-6,71,2
11370,1408,-328,1368,-7,72,1
11375,1392,-352,1368,-7,74,1
11380,1400,-344,1376,-8,78,2
11385,1384,-360,1392,-7,77,2
11390,1408,-360,1384,-6,77,3
11395,1432,-376,1368,-5,77,2
11400,1480,-272,1376,-4,74,2
11405,1392,-320,1384,-4,75,2
11410,1392,-344,1376,-4,75,1
11415,1408,-336,1360,-4,75,2
11420,1416,-344,1400,-3,72,4
11425,1424,-360,1384,-2,71,4
11430,1408,-344,1376,1,69,4
11435,1408,-384,1368,2,68,2
11440,1392,-368,1384,3,68,2
11445,1408,-328,1368,3,66,3
11450,1424,-352,1368,2,67,2
11455,1408,-352,1360,2,67,0
11460,1416,-352,1392,6,68,2
11465,1408,-352,1376,7,67,2
11470,1400,-336,1376,8,68,1
11475,1400,-328,1376,9,70,2
11480,1424,-360,1384,9,72,1
11485,1408,-360,1376,7,73,2
11490,1392,-360,1376,6,73,1
11495,1392,-360,1384,7,72,2
11500,1416,-344,1368,7,71,2
11505,1400,-352,1384,6,70,1
11510,1392,-336,1400,5,70,1
11515,1416,-336,1376,3,69,1
11520,1400,-368,1368,2,70,3
11525,1416,-344,1384,0,70,1
11530,1408,-336,1376,-1,71,2
11535,1424,-352,1384,0,70,1
11540,1416,-360,1368,1,67,0
11545,1408,-352,1384,4,67,3
11550,1424,-344,1368,5,67,4
11555,1384,-328,1384,4,67,4
11560,1416,-336,1368,3,69,5
11565,1400,-320,1376,1,71,4
11570,1400,-312,1376,-1,73,4
11575,1432,-344,1376,-2,74,2
11580,1416,-360,1376,-3,74,3
11585,1400,-344,1376,-4,71,4
11590,1384,-320,1384,-4,70,4
11595,1400,-336,1368,-4,72,5
11600,1416,-336,1384,-3,72,5
11605,1400,-312,1384,-3,72,5
11610,1416,-360,1376,-4,72,5
11615,1392,-336,1328,-3,74,4
11620,1416,-376,1464,-3,75,3
11625,1440,-352,1392,-4,76,2
11630,1416,-360,1392,-5,74,2
11635,1416,-352,1408,-5,72,2
11640,1400,-344,1384,-6,72,1
11645,1408,-336,1384,-6,69,0
11650,1392,-312,1352,-7,69,-1
11655,1424,-320,1336,-8,68,-1
11660,1424,-368,1384,-7,71,1
11665,1408,-352,1368,-7,74,3
11670,1400,-320,1384,-6,77,4
11675,1416,-344,1384,-4,79,5
11680,1408,-336,1360,-4,81,5
11685,1408,-352,1384,-4,83,5
11690,1408,-336,1368,-4,83,5
11695,1416,-344,1368,-6,82,6
11700,1400,-360,1400,-5,81,7
11705,1400,-360,1392,-7,80,5
11710,1392,-352,1400,-7,77,4
11715,1400,-352,1360,-8,76,3
11720,1416,-344,1376,-9,75,3
11725,1384,-336,1392,-8,74,3
11730,1416,-368,1360,-8,74,3
11735,1400,-352,1384,-5,74,3
11740,1400,-368,1376,-2,76,4
11745,1392,-344,1384,0,75,4
11750,1400,-376,1344,1,76,3
11755,1392,-336,1376,-2,78,5
11760,1408,-336,1392,-3,79,4
11765,1416,-344,1360,-6,80,5
11770,1416,-344,1360,-8,81,5
11775,1408,-336,1368,-9,79,6
11780,1400,-336,1352,-8,79,6
11785,1400,-360,1352,-6,78,8
11790,1416,-352,1384,-5,77,8
11795,1400,-360,1392,-4,77,10
11800,1400,-352,1360,-3,74,10
11805,1416,-376,1384,-2,74,8
11810,1400,-352,1376,-1,75,9
11815,1400,-344,1400,1,76,9
11820,1392,-328,1376,0,76,7
11825,1424,-344,1368,-2,78,8
11830,1384,-344,1400,-2,79,7
11835,1384,-336,1368,-2,78,7
11840,1392,-360,1392,-2,77,8
11845,1416,-368,1376,-5,80,6
11850,1400,-352,1392,-5,80,6
11855,1400,-336,1384,-7,79,5
11860,1400,-360,1392,-7,78,5
11865,1400,-360,1376,-6,76,6
11870,1392,-352,1376,-5,74,7
11875,1424,-360,1384,-3,72,5
11880,1432,-368,1368,-2,70,4
11885,1432,-352,1400,-2,70,3
11890,1408,-336,1376,-4,71,2
11895,1384,-336,1400,-3,71,3
11900,1400,-336,1416,-4,70,2
11905,1408,-336,1392,-5,68,2
11910,1416,-328,1400,-7,68,-1
11915,1424,-328,1384,-10,68,0
11920,1416,-352,1384,-14,68,-2
11925,1416,-336,1400,-14,65,-1
11930,1424,-368,1384,-14,64,-1
11935,1432,-360,1344,-12,60,-2
11940,1408,-352,1360,-7,60,-2
11945,1432,-312,1320,-5,66,-2
11950,1408,-312,1368,-7,72,-3
11955,1384,-328,1360,-10,79,-3
11960,1400,-352,1360,-12,83,-2
11965,1400,-312,1368,-15,85,0
11970,1424,-336,1384,-16,87,1
11975,1424,-368,1400,-16,84,1
11980,1400,-352,1384,-12,84,1
11985,1408,-368,1384,-7,82,2
11990,1384,-360,1376,0,82,3
11995,1400,-376,1400,4,80,4
12000,1368,-352,1384,5,78,3
12005,1424,-368,1360,7,81,3
12010,1408,-352,1384,3,81,2
12015,1392,-344,1392,-3,82,1
12020,1376,-336,1392,-9,81,1
12025,1384,-328,1416,-15,80,1
12030,1400,-376,1392,-20,79,-1
12035,1384,-360,1400,-21,75,-4
12040,1368,-392,1384,-19,72,-4
12045,1408,-400,1376,-15,67,-5
12050,1400,-352,1384,-10,67,-5
12055,1408,-320,1280,-9,69,-4
12060,1408,-344,1376,-5,68,-6
12065,1424,-368,1368,-3,69,-5
12070,1424,-352,1368,-1,70,-4
12075,1416,-360,1392,2,72,-4
12080,1400,-360,1344,5,73,-3
12085,1424,-336,1368,8,75,-2
12090,1408,-336,1408,10,74,-2
12095,1432,-328,1376,10,74,-3
12100,1408,-352,1400,7,72,-3
12105,1400,-352,1392,6,72,-2
12110,1408,-336,1384,3,73,-4
12115,1416,-344,1376,2,70,-4
12120,1392,-336,1400,-1,69,-3
12125,1400,-344,1408,-1,65,-2
12130,1408,-344,1376,-1,62,-1
12135,1416,-344,1392,-1,60,-1
12140,1392,-336,1384,-2,59,1
12145,1392,-336,1392,-2,59,4
12150,1400,-344,1392,-1,60,5
12155,1416,-328,1384,0,62,9
12160,1408,-336,1384,2,61,10
12165,1360,-304,1336,5,57,9
12170,1416,-320,1376,9,55,10
12175,1400,-336,1376,10,53,11
12180,1400,-336,1368,9,54,8
12185,1408,-360,1384,6,54,7
12190,1392,-328,1376,-1,56,5
12195,1408,-336,1392,-6,58,4
12200,1392,-336,1392,-13,66,2
12205,1408,-336,1392,-17,69,1
12210,1368,-320,1392,-22,70,1
12215,1408,-336,1400,-23,70,2
12220,1376,-344,1384,-26,71,0
12225,1384,-336,1392,-25,72,-1
12230,1392,-360,1416,-24,73,0
12235,1392,-344,1376,-22,72,1
12240,1392,-360,1344,-19,71,1
12245,1384,-376,1392,-17,69,2
12250,1384,-352,1408,-15,67,-1
12255,1424,-376,1368,-14,67,0
12260,1400,-328,1384,-16,67,0
12265,1424,-344,1392,-18,66,0
12270,1336,-360,1416,-20,67,1
12275,1408,-352,1376,-21,67,1
12280,1376,-344,1400,-16,65,2
12285,1400,-384,1376,-11,61,2
12290,1416,-376,1376,-3,61,1
12295,1392,-336,1384,-2,61,0
12300,1392,-344,1400,-7,65,0
12305,1392,-360,1384,-11,67,0
12310,1384,-344,1400,-13,66,-1
12315,1400,-352,1400,-17,63,-1
12320,1384,-352,1384,-19,62,-2
12325,1392,-368,1400,-20,61,-3
12330,1392,-344,1376,-20,62,-7
12335,1400,-360,1384,-22,61,-7
12340,1400,-360,1376,-25,64,-9
12345,1400,-376,1376,-25,68,-9
12350,1392,-344,1392,-24,70,-10
12355,1384,-376,1408,-23,71,-10
12360,1392,-360,1384,-22,70,-9
12365,1408,-360,1392,-20,69,-9
12370,1416,-360,1384,-19,67,-12
12375,1408,-320,1424,-17,65,-13
12380,1416,-320,1392,-18,64,-14
12385,1416,-368,1392,-21,62,-13
12390,1400,-336,1376,-23,62,-14
12395,1408,-328,1368,-24,62,-14
12400,1416,-344,1376,-27,63,-12
12405,1400,-344,1368,-28,65,-12
12410,1408,-328,1400,-30,67,-12
12415,1408,-344,1376,-33,67,-13
12420,1384,-344,1376,-34,67,-12
12425,1432,-376,1376,-34,69,-11
12430,1432,-352,1400,-32,72,-9
12435,1400,-344,1368,-29,74,-9
12440,1400,-352,1376,-28,72,-9
12445,1432,-360,1360,-26,70,-10
12450,1416,-344,1360,-27,68,-9
12455,1400,-320,1384,-28,67,-10
12460,1416,-320,1368,-27,66,-8
12465,1424,-344,1384,-28,67,-6
12470,1408,-368,1376,-31,68,-6
12475,1408,-368,1384,-31,69,-6
12480,1408,-320,1384,-32,71,-6
12485,1400,-368,1376,-32,72,-7
12490,1416,-304,1352,-33,73,-6
12495,1384,-352,1392,-35,74,-6
12500,1416,-352,1384,-35,74,-5
12505,1400,-352,1384,-34,72,-3
12510,1400,-336,1384,-33,70,-4
12515,1424,-376,1368,-31,66,-3
12520,1408,-352,1384,-31,61,-4
12525,1368,-344,1392,-30,59,-5
12530,1392,-360,1392,-30,59,-3
12535,1400,-352,1384,-28,58,-3
12540,1400,-312,1400,-28,59,-4
12545,1400,-344,1384,-30,62,-4
12550,1400,-360,1400,-31,64,-4
12555,1384,-344,1352,-33,64,-5
12560,1392,-368,1360,-35,65,-6
12565,1392,-352,1376,-35,65,-6
12570,1392,-352,1360,-37,64,-6
12575,1416,-392,1384,-36,63,-6
12580,1416,-344,1384,-36,62,-7
12585,1408,-368,1384,-35,62,-8
12590,1384,-352,1392,-34,62,-6
12595,1416,-368,1368,-33,64,-8
12600,1416,-392,1328,-31,65,-6
12605,1384,-344,1384,-28,65,-7
12610,1392,-336,1368,-27,64,-7
12615,1384,-360,1376,-27,64,-6
12620,1408,-360,1376,-25,64,-8
12625,1392,-360,1408,-24,65,-7
12630,1408,-376,1360,-25,66,-6
12635,1408,-376,1376,-22,66,-6
12640,1416,-368,1368,-22,66,-6
12645,1416,-344,1392,-22,63,-8
12650,1408,-360,1360,-20,61,-9
12655,1392,-344,1360,-18,59,-9
12660,1416,-368,1360,-16,60,-10
12665,1408,-360,1344,-15,61,-8
12670,1424,-352,1368,-13,62,-8
12675,1400,-344,1368,-12,65,-8
12680,1424,-344,1392,-12,66,-9
12685,1408,-376,1376,-13,66,-8
12690,1416,-360,1368,-12,66,-7
12695,1424,-344,1368,-17,66,-8
12700,1400,-344,1384,-24,65,-9
12705,1408,-328,1376,-29,64,-9
12710,1384,-360,1376,-34,64,-10
12715,1384,-344,1392,-35,61,-12
12720,1392,-352,1392,-37,59,-11
12725,1408,-352,1376,-39,59,-11
12730,1400,-360,1376,-39,61,-10
12735,1424,-368,1368,-38,61,-11
12740,1408,-352,1376,-36,59,-11
12745,1408,-352,1384,-35,58,-11
12750,1392,-344,1392,-34,57,-12
12755,1408,-336,1400,-33,55,-12
12760,1416,-336,1376,-31,56,-12
12765,1416,-368,1392,-33,61,-11
12770,1400,-344,1400,-35,61,-12
12775,1400,-344,1384,-38,65,-11
12780,1392,-352,1384,-41,63,-12
12785,1424,-360,1416,-46,64,-12
12790,1408,-368,1360,-53,70,-12
12795,1376,-376,1368,-58,73,-12
12800,1392,-352,1368,-61,77,-14
12805,1400,-376,1416,-63,78,-12
12810,1408,-384,1384,-63,79,-12
12815,1472,-344,1416,-59,77,-12
12820,1384,-344,1376,-57,78,-12
12825,1376,-344,1376,-53,76,-11
12830,1360,-352,1384,-53,74,-11
12835,1408,-376,1376,-53,72,-10
12840,1376,-352,1376,-54,70,-11
12845,1400,-368,1384,-52,69,-9
12850,1400,-384,1344,-49,70,-8
12855,1408,-376,1376,-48,71,-7
12860,1384,-352,1368,-46,71,-5
12865,1400,-360,1384,-46,71,-6
12870,1424,-376,1408,-45,70,-7
12875,1400,-376,1416,-46,68,-6
12880,1424,-376,1392,-46,65,-8
12885,1416,-384,1384,-44,64,-7
12890,1408,-352,1392,-43,61,-7
12895,1384,-352,1384,-41,58,-6
12900,1400,-368,1376,-42,57,-6
12905,1408,-352,1376,-41,56,-6
12910,1432,-384,1392,-39,57,-7
12915,1392,-360,1368,-37,57,-7
12920,1384,-384,1360,-34,57,-6
12925,1392,-360,1424,-31,57,-5
12930,1400,-384,1376,-26,55,-5
12935,1408,-376,1352,-21,52,-6
12940,1400,-352,1368,-21,53,-5
12945,1384,-344,1360,-20,55,-3
12950,1376,-360,1352,-21,58,-3
12955,1384,-352,1368,-20,62,-3
12960,1384,-368,1376,-20,63,-3
12965,1408,-368,1368,-23,62,-3
12970,1416,-360,1384,-23,62,-3
12975,1408,-384,1360,-24,60,-4
12980,1400,-376,1400,-26,60,-3
12985,1392,-336,1368,-25,60,-5
12990,1408,-376,1376,-26,59,-5
12995,1424,-376,1376,-27,62,-4
13000,1400,-360,1384,-27,63,-6
13005,1408,-360,1368,-28,65,-5
13010,1400,-384,1368,-28,66,-5
13015,1400,-376,1360,-27,68,-5
13020,1392,-376,1368,-25,68,-4
13025,1400,-352,1384,-23,70,-4
13030,1376,-368,1376,-23,69,-3
13035,1392,-368,1376,-20,66,-4
13040,1416,-376,1384,-17,65,-3
13045,1408,-360,1360,-16,66,-3
13050,1408,-360,1368,-18,67,-4
13055,1416,-360,1376,-18,70,-3
13060,1408,-376,1352,-21,70,-3
13065,1432,-384,1384,-22,71,-4
13070,1408,-384,1400,-22,70,-4
13075,1400,-368,1376,-22,68,-5
13080,1408,-384,1376,-24,67,-6
13085,1400,-384,1376,-25,65,-6
13090,1416,-368,1384,-27,64,-5
13095,1408,-352,1392,-26,62,-6
13100,1416,-360,1352,-25,60,-6
13105,1416,-384,1376,-23,60,-7
13110,1432,-376,1360,-20,61,-6
13115,1400,-368,1384,-18,63,-7
13120,1408,-360,1368,-17,67,-4
13125,1408,-336,1376,-16,69,-3
13130,1400,-352,1360,-16,72,-3
13135,1416,-360,1368,-13,74,-2
13140,1392,-368,1368,-13,75,-2
13145,1312,-368,1488,-10,76,-1
13150,1432,-400,1360,-8,79,-1
13155,1400,-376,1360,-6,79,0
13160,1400,-368,1384,-3,78,0
13165,1400,-392,1368,-2,76,2
13170,1400,-360,1392,-1,76,0
13175,1400,-360,1360,-1,76,0
13180,1392,-384,1376,-2,77,0
13185,1368,-360,1368,-4,76,-1
13190,1384,-368,1384,-8,73,0
13195,1400,-392,1400,-11,69,-1
13200,1400,-408,1384,-16,68,0
13205,1416,-392,1376,-16,65,-1
13210,1400,-368,1392,-15,64,-1
13215,1400,-400,1368,-10,66,-1
13220,1400,-392,1352,-4,68,0
13225,1408,-392,1360,-3,70,-1
13230,1448,-376,1360,-4,75,0
13235,1416,-360,1344,-5,75,-1
13240,1440,-368,1360,-7,75,-1
13245,1440,-368,1384,-9,78,-2
13250,1416,-352,1400,-10,76,-3
13255,1432,-384,1368,-11,74,-4
13260,1400,-352,1408,-9,72,-3
13265,1408,-392,1376,-8,71,-3
13270,1408,-352,1392,-9,71,-3
13275,1400,-344,1368,-9,70,-3
13280,1408,-360,1400,-9,70,-2
13285,1416,-328,1408,-12,70,-3
13290,1400,-336,1384,-15,69,-4
13295,1416,-360,1432,-18,68,-5
13300,1392,-376,1384,-24,65,-5
13305,1400,-376,1376,-27,64,-5
13310,1368,-336,1392,-27,62,-5
13315,1392,-392,1384,-27,61,-8
13320,1400,-376,1384,-25,61,-7
13325,1384,-344,1384,-22,59,-8
13330,1408,-360,1368,-17,60,-8
13335,1416,-360,1352,-15,63,-8
13340,1400,-344,1392,-12,65,-6
13345,1408,-368,1376,-10,68,-4
13350,1400,-376,1368,-6,70,-3
13355,1424,-392,1384,-4,74,-3
13360,1256,-440,1352,0,74,-1
13365,1400,-376,1368,3,73,1
13370,1416,-384,1368,6,70,1
13375,1416,-360,1384,7,67,1
13380,1392,-368,1360,9,64,2
13385,1408,-352,1360,10,62,4
13390,1392,-352,1376,11,60,3
13395,1392,-352,1360,11,62,4
13400,1400,-360,1368,9,63,5
13405,1408,-384,1352,9,65,3
13410,1400,-384,1376,7,67,3
13415,1416,-376,1376,8,69,3
13420,1384,-360,1376,8,71,1
13425,1432,-400,1368,7,73,1
13430,1400,-376,1344,7,76,1
13435,1416,-360,1360,7,77,3
13440,1416,-344,1376,6,79,5
13445,1416,-368,1360,6,79,5
13450,1408,-368,1376,7,79,6
13455,1400,-360,1376,9,79,8
13460,1408,-392,1376,12,77,7
13465,1408,-368,1352,14,77,6
13470,1400,-384,1376,16,77,5
13475,1424,-376,1392,15,77,4
13480,1400,-376,1352,13,77,2
13485,1384,-376,1384,8,77,1
13490,1392,-360,1384,3,77,0
13495,1408,-352,1368,0,74,-1
13500,1392,-360,1384,1,73,-1
13505,1400,-336,1384,1,74,1
13510,1400,-368,1392,2,73,2
13515,1384,-376,1384,2,73,1
13520,1392,-384,1384,-1,75,1
13525,1408,-368,1376,-2,78,0
13530,1392,-368,1384,-3,80,0
13535,1392,-352,1384,-6,83,0
13540,1384,-344,1368,-6,83,-1
13545,1416,-368,1376,-7,83,-2
13550,1416,-392,1360,-8,81,-3
13555,1416,-352,1368,-7,77,-3
13560,1400,-376,1376,-8,76,-3
13565,1416,-368,1384,-8,74,-2
13570,1392,-336,1392,-8,72,-1
13575,1384,-352,1384,-9,73,-1
13580,1440,-480,1280,-10,74,-1
13585,1400,-352,1368,-11,76,0
13590,1392,-360,1408,-11,77,0
13595,1392,-352,1392,-11,77,-1
13600,1408,-368,1376,-8,76,-2
13605,1400,-368,1392,-6,74,0
13610,1392,-368,1408,-5,73,0
13615,1408,-376,1376,-4,73,0
13620,1384,-352,1376,-5,73,0
13625,1400,-352,1384,-5,72,-1
13630,1408,-360,1376,-9,73,-1
13635,1408,-360,1352,-12,70,-1
13640,1392,-352,1408,-11,72,-2
13645,1400,-360,1384,-14,71,0
13650,1384,-352,1392,-14,70,-1
13655,1416,-352,1384,-15,67,-3
13660,1416,-368,1400,-16,68,-4
13665,1416,-384,1384,-16,67,-4
13670,1416,-368,1384,-16,67,-3
13675,1400,-392,1376,-15,68,-3
13680,1392,-376,1384,-13,68,-2
13685,1392,-352,1384,-14,70,-1
13690,1320,-392,1368,-14,70,0
13695,1384,-352,1368,-15,72,0
13700,1400,-376,1376,-18,73,1
13705,1384,-360,1376,-16,74,0
13710,1408,-360,1376,-17,72,0
13715,1384,-392,1376,-16,69,1
13720,1392,-368,1352,-15,67,-2
13725,1400,-376,1376,-14,65,-4
13730,1384,-328,1384,-14,64,-3
13735,1384,-360,1376,-13,64,-1
13740,1400,-368,1408,-13,65,-2
13745,1400,-376,1344,-9,64,-1
13750,1432,-376,1376,-9,65,-1
13755,1424,-376,1400,-7,65,-2
13760,1408,-384,1384,-5,67,-1
13765,1424,-352,1384,-5,69,0
13770,1408,-376,1400,-4,70,-1
13775,1400,-360,1384,-5,69,-1
13780,1408,-376,1400,-4,68,1
13785,1408,-368,1376,-3,67,0
13790,1384,-344,1360,-3,66,1
13795,1448,-344,1384,-3,65,0
13800,1392,-376,1392,-3,67,-1
13805,1408,-352,1384,-2,66,-1
13810,1424,-368,1384,-1,65,0
13815,1368,-360,1360,-1,65,0
13820,1376,-360,1376,-1,64,0
13825,1376,-352,1384,1,65,0
13830,1400,-368,1376,3,69,0
13835,1400,-376,1384,5,70,2
13840,1408,-376,1376,7,69,3
13845,1392,-360,1360,9,68,3
13850,1400,-368,1360,7,67,3
13855,1392,-352,1360,3,67,1
13860,1408,-344,1368,-1,69,1
13865,1416,-360,1368,-7,73,-1
13870,1400,-368,1392,-8,76,-2
13875,1384,-368,1392,-8,78,-3
13880,1392,-368,1384,-8,75,-4
13885,1424,-376,1376,-8,73,-3
13890,1424,-352,1376,-5,70,-6
13895,1392,-352,1368,-5,70,-5
13900,1408,-368,1360,-4,70,-4
13905,1448,-344,1376,-3,72,-4
13910,1384,-352,1376,-5,73,-2
13915,1408,-376,1376,-5,71,-2
13920,1376,-360,1384,-5,72,-1
13925,1408,-352,1376,-5,72,-4
13930,1408,-376,1384,-4,75,-2
13935,1392,-352,1352,-3,74,-3
13940,1408,-368,1392,-3,76,-2
13945,1384,-368,1368,-3,77,-1
13950,1408,-360,1384,-2,76,1
13955,1416,-360,1384,0,77,-1
13960,1408,-336,1360,0,77,0
13965,1392,-344,1376,0,78,1
13970,1392,-360,1384,-1,76,1
13975,1400,-360,1376,-1,74,1
13980,1392,-360,1384,-3,72,3
13985,1408,-376,1376,-2,72,2
13990,1400,-368,1400,-5,72,1
13995,1408,-368,1376,-5,73,0
14000,1392,-352,1376,-6,73,1
14005,1392,-352,1376,-6,73,2
14010,1392,-360,1376,-7,76,2
14015,1504,-352,1352,-5,78,3
14020,1408,-336,1368,-4,80,2
14025,1400,-352,1376,-4,80,2
14030,1392,-384,1376,-3,80,1
14035,1392,-368,1368,-3,78,2
14040,1400,-400,1392,-2,75,2
14045,1392,-360,1384,-1,72,3
14050,1408,-376,1376,-1,71,1
14055,1392,-352,1376,0,70,0
14060,1384,-352,1376,2,69,0
14065,1392,-360,1384,2,68,2
14070,1392,-344,1368,3,69,1
14075,1392,-360,1384,4,72,2
14080,1384,-344,1368,5,75,5
14085,1384,-352,1384,4,78,7
14090,1384,-360,1384,2,82,7
14095,1400,-344,1384,2,83,7
14100,1392,-352,1368,2,85,6
14105,1408,-368,1376,1,85,6
14110,1392,-368,1400,0,85,6
14115,1392,-360,1376,1,82,5
14120,1408,-360,1376,0,81,5
14125,1328,-336,1432,2,82,5
14130,1376,-344,1376,4,81,6
14135,1416,-344,1384,3,80,6
14140,1408,-360,1376,2,78,7
14145,1400,-368,1376,1,79,7
14150,1400,-344,1384,2,77,6
14155,1408,-360,1400,1,76,6
14160,1368,-344,1376,1,75,6
14165,1376,-344,1376,2,74,4
14170,1376,-360,1392,0,74,4
14175,1392,-336,1400,-1,73,3
14180,1408,-368,1384,0,71,3
14185,1400,-352,1376,-2,69,2
14190,1384,-336,1384,-5,67,0
14195,1368,-344,1376,-11,67,-1
14200,1408,-368,1376,-17,68,-3
14205,1392,-360,1392,-18,69,-4
14210,1392,-376,1392,-19,69,-1
14215,1400,-360,1392,-17,67,-1
14220,1384,-360,1392,-15,67,-3
14225,1376,-368,1408,-13,69,-1
14230,1392,-368,1376,-11,70,0
14235,1408,-328,1416,-10,70,0
14240,1384,-344,1384,-8,70,-1
14245,1416,-352,1384,-9,70,-1
14250,1392,-384,1408,-10,70,-1
14255,1400,-352,1384,-11,70,0
14260,1432,-384,1392,-11,70,-1
14265,1392,-360,1384,-13,68,-2
14270,1392,-368,1368,-16,65,-3
14275,1368,-344,1384,-16,63,-2
14280,1384,-376,1392,-16,62,-1
14285,1408,-368,1360,-14,63,0
14290,1400,-360,1368,-9,66,-3
14295,1408,-360,1368,-6,67,-2
14300,1384,-352,1352,-2,74,-2
14305,1384,-344,1360,-2,78,-2
14310,1376,-344,1376,-2,82,-1
14315,1400,-352,1400,-3,84,0
14320,1392,-336,1376,-5,85,1
14325,1400,-360,1400,-5,84,3
14330,1408,-360,1376,-3,81,2
14335,1400,-360,1368,2,78,3
14340,1432,-456,1368,6,75,5
14345,1384,-384,1376,12,75,5
14350,1408,-368,1368,16,72,5
14355,1400,-376,1360,18,73,5
14360,1400,-344,1376,18,76,5
14365,1384,-360,1368,16,79,5
14370,1408,-344,1400,11,82,4
14375,1368,-376,1408,5,85,5
14380,1376,-360,1408,-2,85,4
14385,1392,-376,1416,-7,82,4
14390,1368,-376,1408,-9,78,4
14395,1384,-360,1400,-6,72,4
14400,1392,-360,1376,1,66,2
14405,1368,-376,1376,7,62,2
14410,1384,-336,1360,12,63,3
14415,1408,-368,1368,14,66,2
14420,1392,-352,1376,16,69,5
14425,1392,-376,1392,17,71,5
14430,1408,-368,1368,18,70,6
14435,1408,-352,1384,19,69,4
14440,1408,-360,1384,19,71,3
14445,1416,-344,1384,19,71,2
14450,1448,-328,1328,17,72,4
14455,1408,-320,1400,15,71,2
14460,1416,-360,1408,14,72,2
14465,1384,-360,1376,14,72,2
14470,1384,-336,1384,15,72,0
14475,1392,-360,1376,13,73,1
14480,1368,-336,1376,10,75,-1
14485,1400,-368,1392,7,77,1
14490,1376,-336,1392,5,79,1
14495,1392,-344,1384,3,78,2
14500,1400,-336,1384,3,75,2
14505,1392,-344,1392,4,74,3
14510,1424,-376,1384,4,74,0
14515,1392,-368,1400,3,74,1
14520,1368,-344,1384,2,73,1
14525,1400,-328,1384,3,73,1
14530,1408,-376,1376,3,74,1
14535,1376,-328,1392,2,75,3
14540,1384,-336,1384,0,76,3
14545,1368,-336,1384,0,76,3
14550,1400,-376,1368,-1,77,3
14555,1376,-360,1384,-1,79,4
14560,1344,-360,1320,-1,79,3
14565,1408,-376,1384,-3,78,4
14570,1392,-344,1384,-3,78,4
14575,1384,-352,1376,-2,76,3
14580,1400,-392,1376,1,74,6
14585,1408,-360,1424,0,74,5
14590,1416,-336,1376,0,74,4
14595,1408,-360,1384,0,75,5
14600,1384,-368,1376,1,75,4
14605,1392,-344,1400,3,74,5
14610,1392,-344,1408,3,74,3
14615,1384,-328,1360,2,76,4
14620,1392,-344,1416,0,77,5
14625,1400,-368,1392,-5,81,5
14630,1384,-352,1392,-9,82,3
14635,1400,-360,1384,-9,81,5
14640,1400,-376,1384,-10,80,6
14645,1384,-376,1408,-9,76,6
14650,1400,-376,1408,-2,73,5
14655,1376,-360,1376,3,71,4
14660,1368,-360,1376,7,71,2
14665,1384,-336,1384,5,72,-1
14670,1368,-408,1464,-2,75,-4
14675,1376,-360,1392,-10,77,-4
14680,1384,-376,1408,-10,76,2
14685,1368,-368,1408,-8,76,2
14690,1384,-368,1416,-7,75,1
14695,1400,-360,1392,-8,74,-1
14700,1400,-376,1408,-6,72,-3
14705,1408,-368,1376,-6,71,-3
14710,1392,-352,1384,-8,70,-3
14715,1384,-376,1376,-8,76,-1
14720,1368,-360,1408,-6,80,-1
14725,1376,-352,1384,-5,83,-1
14730,1392,-368,1392,-3,85,-2
14735,1392,-344,1400,-3,84,0
14740,1392,-368,1400,-2,82,1
14745,1416,-336,1400,-6,80,-3
14750,1376,-352,1408,-7,78,-2
14755,1400,-328,1408,-5,76,0
14760,1376,-336,1408,-4,72,1
14765,1400,-336,1376,-5,71,0
14770,1392,-352,1400,-7,70,1
14775,1376,-344,1392,-8,69,-1
14780,1328,-312,1312,-9,68,-2
14785,1384,-352,1392,-10,66,-3
14790,1376,-368,1384,-12,65,-2
14795,1376,-344,1392,-11,64,-2
14800,1352,-344,1368,-9,66,-3
14805,1384,-360,1376,-6,70,-4
14810,1384,-352,1376,-6,74,-1
14815,1408,-368,1376,-5,76,-2
14820,1376,-344,1376,-3,78,-1
14825,1408,-368,1384,-1,77,-2
14830,1408,-376,1400,-1,77,-3
14835,1400,-352,1376,-1,78,-1
14840,1392,-360,1392,-2,79,-2
14845,1392,-344,1400,-3,79,-2
14850,1392,-368,1400,-6,77,-2
14855,1376,-328,1392,-7,77,-2
14860,1384,-344,1376,-8,76,-1
14865,1376,-352,1400,-8,73,-1
14870,1384,-336,1400,-9,71,1
14875,1400,-368,1416,-8,68,2
14880,1384,-368,1392,-8,66,2
14885,1360,-392,1336,-7,66,2
14890,1376,-360,1384,-7,65,2
14895,1368,-336,1384,-8,65,2
14900,1368,-336,1376,-8,65,0
14905,1360,-336,1392,-7,65,1
14910,1384,-328,1384,-7,67,2
14915,1376,-352,1392,-5,67,2
14920,1376,-344,1384,-5,67,1
14925,1368,-344,1384,-5,70,2
14930,1384,-360,1408,-7,73,1
14935,1384,-344,1376,-7,74,0
14940,1408,-344,1376,-8,72,-1
14945,1392,-376,1384,-8,73,0
14950,1408,-360,1392,-9,73,-1
14955,1384,-320,1384,-10,72,-1
14960,1384,-352,1400,-10,69,-1
14965,1408,-336,1400,-11,68,-3
14970,1376,-352,1392,-12,70,-2
14975,1376,-344,1384,-11,69,-1
14980,1368,-352,1424,-11,67,0
14985,1352,-344,1384,-9,65,-1
14990,1400,-368,1400,-8,64,-1
14995,1456,-352,1432,-7,65,-2
