timestamp,accel_x,accel_y,accel_z,gyro_x,gyro_y,gyro_z
0,120,-1992,-320,51,5,-11
5,120,-1992,-312,51,6,-10
10,136,-1968,-312,52,7,-9
15,136,-2000,-320,53,7,-10
20,120,-1984,-336,55,9,-10
25,120,-1976,-320,56,10,-10
30,128,-1968,-312,58,10,-9
35,152,-1984,-336,58,10,-10
40,136,-1976,-336,58,11,-11
45,128,-1992,-304,59,8,-10
50,128,-1960,-328,57,9,-9
55,136,-1968,-304,55,9,-9
60,120,-1960,-312,55,10,-9
65,144,-1984,-304,52,9,-7
70,96,-1984,-312,50,9,-7
75,152,-1976,-328,50,10,-8
80,152,-2000,-320,48,10,-7
85,128,-1968,-328,48,10,-6
90,128,-1968,-280,47,10,-5
95,160,-1992,-320,48,9,-4
100,152,-1976,-336,48,9,-5
105,136,-1960,-336,49,10,-5
110,128,-1976,-320,47,12,-5
115,128,-1968,-320,47,11,-4
120,144,-1992,-328,47,12,-4
125,160,-1960,-344,47,13,-5
130,152,-1968,-328,47,14,-5
135,136,-1976,-328,46,16,-6
140,120,-1984,-312,45,16,-6
145,128,-1976,-320,46,18,-7
150,136,-1968,-312,47,19,-8
155,136,-1976,-312,47,19,-7
160,144,-1984,-312,48,19,-7
165,152,-1992,-328,46,19,-6
170,136,-1992,-336,48,19,-7
175,144,-1968,-344,47,19,-7
180,152,-2016,-352,47,20,-6
185,128,-1976,-328,46,18,-5
190,152,-2000,-328,45,19,-6
195,136,-1968,-328,44,17,-6
200,120,-2024,-336,44,18,-7
205,120,-1968,-304,44,17,-5
210,112,-1984,-328,45,17,-6
215,112,-1960,-328,44,16,-4
220,136,-1976,-344,46,17,-5
225,144,-1968,-320,44,17,-5
230,136,-1976,-344,45,18,-5
235,128,-1968,-312,44,17,-6
240,144,-1952,-312,43,18,-6
245,144,-1968,-344,43,18,-6
250,136,-2008,-320,43,18,-7
255,144,-1976,-328,42,18,-7
260,136,-1968,-328,43,18,-4
265,144,-1968,-320,42,17,-6
270,136,-1984,-328,42,19,-5
275,144,-1968,-312,42,19,-6
280,96,-1984,-304,43,18,-7
285,136,-1976,-344,42,18,-6
290,136,-1976,-336,43,16,-7
295,120,-1968,-312,44,16,-7
300,152,-1984,-320,45,17,-7
305,136,-1984,-320,44,17,-7
310,136,-1968,-304,45,16,-5
315,144,-1968,-336,43,15,-6
320,144,-2000,-328,44,15,-8
325,136,-1968,-320,44,13,-8
330,144,-1968,-312,43,14,-7
335,144,-1984,-328,44,13,-7
340,144,-1984,-320,44,14,-7
345,128,-1976,-328,44,13,-8
350,128,-1968,-320,43,15,-8
355,128,-1944,-320,43,14,-9
360,128,-1984,-328,43,15,-8
365,128,-1976,-296,44,15,-8
370,144,-2000,-328,44,15,-8
375,152,-1968,-344,44,16,-9
380,112,-1984,-320,44,14,-10
385,104,-1968,-296,46,14,-8
390,144,-1952,-328,45,13,-9
395,136,-1968,-352,45,13,-9
400,120,-1968,-312,46,14,-9
405,104,-1960,-288,44,14,-11
410,128,-1976,-336,43,13,-11
415,128,-1960,-336,41,14,-10
420,120,-1960,-344,41,13,-10
425,152,-2000,-336,40,13,-9
430,128,-1928,-336,39,13,-10
435,144,-1992,-312,37,13,-10
440,144,-1968,-344,37,13,-10
445,136,-1984,-312,37,11,-9
450,152,-2000,-352,37,12,-9
455,128,-1952,-304,38,10,-9
460,104,-1976,-336,38,10,-9
465,112,-1968,-328,37,10,-8
470,136,-1968,-336,36,10,-8
475,112,-1968,-344,35,11,-9
480,136,-1968,-336,34,10,-8
485,144,-1968,-344,32,8,-7
490,120,-1984,-296,32,6,-8
495,128,-1968,-312,33,6,-9
500,120,-1968,-320,33,5,-9
505,136,-1976,-320,33,4,-9
510,136,-1960,-296,35,3,-10
515,136,-1960,-328,39,1,-9
520,120,-1976,-336,41,3,-13
525,120,-1968,-344,42,2,-12
530,136,-1968,-376,42,1,-13
535,112,-1984,-352,39,0,-13
540,120,-1960,-368,38,0,-12
545,112,-1976,-336,36,1,-12
550,136,-1968,-304,35,2,-12
555,104,-1872,-264,37,4,-13
560,144,-1984,-336,37,3,-12
565,136,-1976,-360,36,3,-11
570,152,-2008,-320,37,2,-13
575,120,-1984,-352,36,2,-13
580,136,-1952,-360,35,0,-11
585,136,-1968,-336,35,1,-11
590,136,-2000,-320,35,0,-11
595,104,-1984,-312,35,2,-10
600,120,-1976,-304,35,1,-10
605,144,-1904,-368,37,1,-12
610,136,-1960,-296,39,2,-10
615,128,-1976,-320,36,2,-12
620,128,-1968,-328,36,2,-11
625,128,-1968,-328,36,1,-11
630,136,-1976,-344,33,2,-12
635,136,-1984,-344,34,3,-11
640,120,-1968,-320,34,3,-12
645,120,-1984,-296,34,1,-12
650,144,-1992,-312,36,2,-9
655,112,-1976,-312,37,1,-11
660,120,-2000,-328,38,-1,-12
665,112,-1976,-320,38,0,-12
670,120,-1984,-352,39,0,-11
675,128,-1984,-336,37,0,-13
680,128,-1992,-344,36,-2,-12
685,144,-1968,-336,37,-3,-10
690,128,-1968,-352,36,-3,-11
695,144,-2016,-336,36,-3,-10
700,104,-1968,-336,37,-3,-11
705,128,-1968,-344,39,-2,-12
710,136,-1976,-344,40,-2,-10
715,112,-1960,-352,41,0,-10
720,120,-1960,-344,41,1,-13
725,128,-1976,-344,43,1,-13
730,136,-1976,-320,41,3,-13
735,144,-1960,-328,41,5,-12
740,128,-1952,-328,39,4,-13
745,128,-1952,-328,37,4,-12
750,144,-1992,-336,36,4,-11
755,144,-1984,-296,36,6,-11
760,112,-1976,-352,35,7,-11
765,136,-1984,-328,36,9,-11
770,152,-1984,-352,36,9,-11
775,112,-1960,-336,36,10,-10
780,120,-1984,-344,38,10,-10
785,120,-1944,-352,38,11,-11
790,144,-1984,-352,37,11,-10
795,128,-1968,-328,37,11,-8
800,152,-1968,-304,37,13,-9
805,128,-1984,-336,36,13,-9
810,160,-1992,-304,37,14,-9
815,128,-2000,-344,36,15,-10
820,144,-1952,-336,34,16,-8
825,120,-1976,-344,33,15,-8
830,112,-1976,-344,34,16,-8
835,120,-1992,-344,33,17,-9
840,136,-1944,-368,33,18,-9
845,136,-1960,-336,32,19,-8
850,120,-2008,-368,31,19,-8
855,120,-1968,-336,31,18,-7
860,144,-2000,-328,32,18,-7
865,112,-1976,-352,31,18,-7
870,104,-1976,-368,31,17,-8
875,112,-1992,-360,32,18,-8
880,128,-1960,-336,32,18,-8
885,128,-1952,-344,32,19,-9
890,136,-1992,-352,32,17,-6
895,136,-1976,-328,31,16,-6
900,112,-1968,-344,31,16,-7
905,112,-1960,-312,32,16,-7
910,136,-1968,-328,31,16,-6
915,128,-1960,-360,32,16,-6
920,112,-1976,-304,32,15,-6
925,104,-1944,-352,31,14,-5
930,128,-1960,-360,32,14,-5
935,128,-1960,-360,33,13,-3
940,104,-1944,-360,32,15,-4
945,120,-1960,-352,33,14,-5
950,144,-1976,-360,35,14,-4
955,112,-1960,-376,35,13,-6
960,120,-1968,-352,35,13,-6
965,136,-1984,-320,34,13,-5
970,152,-1976,-336,32,12,-7
975,112,-1968,-368,33,13,-6
980,96,-1984,-312,33,13,-8
985,136,-1984,-360,34,12,-8
990,120,-1960,-344,34,11,-9
995,128,-1984,-360,35,10,-7
1000,128,-1976,-368,36,10,-9
1005,120,-1984,-344,35,9,-10
1010,128,-1968,-336,35,8,-9
1015,112,-1976,-336,34,7,-9
1020,120,-1960,-360,34,7,-11
1025,128,-1976,-360,34,7,-11
1030,120,-1968,-336,33,7,-11
1035,152,-1984,-384,33,6,-12
1040,128,-1960,-352,33,7,-13
1045,144,-1976,-336,34,8,-13
1050,128,-1984,-336,33,9,-14
1055,136,-1976,-344,35,11,-16
1060,120,-1968,-368,34,11,-16
1065,136,-1952,-360,35,12,-17
1070,136,-1968,-360,35,11,-19
1075,136,-1984,-360,35,11,-19
1080,128,-1976,-360,34,11,-19
1085,88,-1960,-384,36,11,-18
1090,128,-1976,-368,36,11,-20
1095,104,-1952,-360,36,12,-16
1100,144,-1960,-344,34,11,-19
1105,120,-1968,-384,34,11,-18
1110,128,-1968,-368,35,11,-17
1115,120,-1960,-352,34,11,-17
1120,136,-1992,-368,35,9,-15
1125,136,-1960,-384,33,11,-14
1130,136,-1968,-360,32,9,-14
1135,136,-1960,-360,32,10,-14
1140,152,-1944,-304,30,11,-12
1145,96,-1936,-392,31,13,-12
1150,128,-1992,-360,30,13,-12
1155,136,-1984,-352,31,14,-12
1160,128,-1984,-360,31,15,-10
1165,104,-1992,-368,31,14,-13
1170,144,-1992,-328,32,14,-13
1175,120,-2000,-376,33,14,-13
1180,112,-1952,-344,36,13,-13
1185,128,-1968,-368,38,14,-15
1190,120,-1944,-392,39,15,-14
1195,112,-1952,-360,39,12,-14
1200,144,-1976,-336,39,12,-14
1205,128,-1976,-376,40,11,-13
1210,128,-1952,-360,40,10,-13
1215,152,-1976,-392,39,10,-13
1220,144,-1960,-344,38,9,-15
1225,96,-1960,-336,37,8,-13
1230,152,-1968,-368,36,8,-13
1235,112,-1960,-376,35,8,-11
1240,104,-1928,-352,33,9,-12
1245,136,-1960,-376,33,7,-12
1250,136,-1960,-360,32,7,-13
1255,120,-1976,-376,30,6,-13
1260,128,-1976,-368,28,5,-12
1265,136,-1992,-360,27,4,-12
1270,120,-1952,-352,28,2,-11
1275,112,-1976,-360,27,1,-11
1280,104,-1976,-368,30,0,-11
1285,120,-1984,-360,33,0,-13
1290,120,-1984,-360,38,0,-10
1295,128,-1968,-352,41,0,-11
1300,128,-1992,-392,44,-3,-12
1305,128,-1968,-392,44,-5,-12
1310,120,-1952,-384,43,-4,-10
1315,136,-1968,-368,41,-3,-12
1320,136,-1976,-376,41,-2,-11
1325,136,-1960,-352,41,0,-12
1330,136,-1968,-360,44,-2,-11
1335,128,-1960,-336,47,-3,-12
1340,120,-1984,-352,50,-2,-12
1345,128,-1984,-352,53,-1,-12
1350,120,-1968,-352,54,0,-12
1355,120,-1984,-368,56,0,-12
1360,144,-1976,-360,57,0,-13
1365,144,-1976,-360,56,-1,-13
1370,128,-1952,-360,54,-2,-13
1375,120,-1968,-352,52,-1,-14
1380,136,-1960,-336,50,0,-12
1385,120,-1944,-368,49,0,-13
1390,144,-1968,-368,47,-1,-11
1395,136,-1968,-344,46,-2,-11
1400,144,-1968,-360,44,0,-10
1405,144,-1968,-384,45,-1,-9
1410,144,-1976,-368,42,-1,-6
1415,136,-1992,-344,41,1,-7
1420,136,-1976,-376,41,1,-6
1425,128,-1960,-392,41,2,-6
1430,136,-1944,-376,40,2,-5
1435,120,-1984,-400,37,3,-5
1440,160,-1976,-368,36,4,-4
1445,152,-1960,-360,34,3,-3
1450,128,-1952,-376,32,4,-2
1455,128,-1952,-352,31,4,-2
1460,128,-1984,-376,31,5,-2
1465,136,-1968,-360,30,4,-3
1470,136,-1952,-384,31,4,-4
1475,144,-1960,-376,32,4,-5
1480,104,-1968,-384,32,5,-4
1485,128,-1976,-392,34,7,-6
1490,120,-1960,-360,34,8,-9
1495,136,-1992,-352,35,9,-8
1500,104,-1992,-344,36,9,-7
1505,112,-1944,-376,37,11,-9
1510,136,-2000,-352,38,10,-9
1515,136,-2000,-360,39,10,-10
1520,128,-1984,-376,40,8,-9
1525,112,-1952,-360,40,9,-5
1530,136,-1960,-344,40,6,-7
1535,128,-1960,-328,41,5,-7
1540,136,-1992,-344,43,4,-5
1545,120,-1976,-368,43,4,-5
1550,120,-1960,-360,44,2,-5
1555,104,-1944,-376,43,0,-5
1560,112,-1960,-376,43,1,-5
1565,112,-1944,-360,41,1,-5
1570,136,-1960,-384,41,2,-4
1575,128,-1960,-352,40,1,-7
1580,136,-1976,-360,39,0,-6
1585,136,-1952,-384,40,1,-5
1590,128,-1952,-352,39,0,-7
1595,112,-1960,-368,41,0,-8
1600,120,-1968,-336,42,-1,-6
1605,128,-1984,-352,43,-1,-6
1610,136,-1968,-368,44,-1,-8
1615,112,-1976,-352,46,-2,-7
1620,120,-1976,-376,47,-2,-8
1625,128,-1968,-344,46,-1,-7
1630,112,-1968,-392,46,-1,-7
1635,112,-1992,-344,45,-1,-6
1640,136,-1992,-344,43,-1,-8
1645,112,-1976,-352,41,-1,-7
1650,128,-1976,-384,40,0,-7
1655,120,-1976,-360,39,0,-6
1660,128,-1960,-360,38,-2,-6
1665,152,-1984,-352,38,-2,-5
1670,144,-1976,-360,38,0,-6
1675,136,-1968,-392,38,-1,-5
1680,96,-1960,-360,39,1,-5
1685,112,-1968,-416,38,2,-4
1690,144,-1976,-360,38,0,-4
1695,112,-1968,-344,40,1,-4
1700,120,-1952,-368,41,3,-3
1705,120,-1968,-344,41,4,-3
1710,136,-2000,-336,41,5,-4
1715,128,-1960,-368,43,6,-3
1720,128,-1976,-344,43,6,-3
1725,136,-1960,-392,43,9,-4
1730,104,-1944,-352,41,9,-3
1735,112,-1960,-344,41,10,-3
1740,128,-1952,-336,41,10,-5
1745,112,-1968,-360,40,11,-4
1750,120,-1960,-336,40,12,-4
1755,120,-1944,-336,41,11,-6
1760,120,-1960,-360,42,11,-4
1765,112,-1992,-360,41,11,-4
1770,120,-1968,-368,41,11,-4
1775,120,-1952,-376,39,11,-4
1780,152,-1992,-344,39,12,-4
1785,104,-1952,-360,40,12,-4
1790,112,-1944,-376,42,12,-5
1795,128,-1960,-352,40,10,-6
1800,96,-1952,-408,41,10,-5
1805,104,-1944,-392,40,9,-5
1810,128,-1984,-376,39,9,-5
1815,136,-1960,-392,39,10,-4
1820,120,-1968,-376,39,10,-4
1825,128,-1984,-376,38,8,-6
1830,136,-1952,-376,39,10,-7
1835,128,-1976,-352,36,9,-5
1840,112,-1952,-336,37,9,-5
1845,104,-1944,-376,35,9,-3
1850,112,-1912,-376,34,9,-5
1855,120,-1960,-360,35,10,-5
1860,120,-1952,-384,34,9,-4
1865,128,-1968,-384,33,11,-6
1870,128,-1960,-360,33,12,-5
1875,152,-1976,-368,33,13,-6
1880,144,-1968,-384,35,12,-8
1885,120,-1976,-400,35,12,-7
1890,104,-1968,-376,34,13,-7
1895,112,-1960,-376,35,13,-7
1900,120,-1976,-344,33,14,-8
1905,168,-1960,-352,33,15,-7
1910,128,-1968,-392,34,14,-6
1915,120,-1952,-384,34,14,-5
1920,136,-1992,-368,35,16,-7
1925,136,-1976,-368,37,15,-7
1930,160,-1992,-376,41,17,-8
1935,136,-1968,-360,42,19,-9
1940,112,-1976,-384,45,20,-9
1945,136,-1976,-368,48,19,-9
1950,152,-1968,-392,52,21,-10
1955,136,-1944,-400,54,21,-9
1960,120,-1968,-368,54,20,-9
1965,144,-1960,-360,56,21,-9
1970,136,-1968,-392,57,23,-9
1975,128,-1992,-368,58,23,-10
1980,128,-1968,-400,59,24,-11
1985,128,-1952,-384,57,23,-11
1990,120,-1976,-384,58,23,-11
1995,136,-1952,-384,59,24,-12
2000,104,-1976,-328,57,25,-11
2005,112,-1952,-376,57,25,-11
2010,136,-1960,-392,56,24,-12
2015,112,-1952,-368,55,25,-11
2020,104,-1960,-368,54,25,-11
2025,128,-1944,-376,54,25,-10
2030,112,-1960,-384,54,23,-10
2035,136,-1984,-360,53,24,-13
2040,104,-1960,-392,55,24,-12
2045,120,-1960,-352,55,24,-12
2050,104,-1968,-400,55,25,-12
2055,104,-1984,-416,55,24,-14
2060,112,-1968,-376,54,24,-14
2065,120,-1952,-376,54,24,-15
2070,96,-1968,-376,51,22,-16
2075,120,-1976,-360,51,22,-16
2080,104,-1944,-352,49,22,-16
2085,128,-1984,-392,48,21,-17
2090,120,-1960,-368,49,21,-16
2095,120,-1968,-360,51,21,-18
2100,120,-1976,-368,52,23,-19
2105,112,-1960,-392,55,22,-18
2110,120,-1976,-408,57,22,-20
2115,104,-1936,-384,57,20,-19
2120,104,-1968,-392,54,18,-19
2125,128,-1968,-384,53,19,-18
2130,104,-1968,-368,54,22,-17
2135,128,-1944,-360,54,22,-17
2140,120,-1936,-368,56,21,-20
2145,120,-1968,-352,58,21,-19
2150,128,-1976,-376,59,20,-19
2155,104,-1984,-360,62,20,-18
2160,128,-1984,-368,64,20,-17
2165,120,-1976,-368,66,19,-18
2170,104,-1984,-376,67,20,-18
2175,120,-1968,-360,67,19,-20
2180,152,-1992,-344,66,19,-20
2185,160,-1976,-368,66,19,-21
2190,144,-1976,-352,64,20,-20
2195,160,-1960,-352,62,21,-19
2200,128,-1960,-360,60,21,-18
2205,120,-1960,-360,58,21,-19
2210,128,-1968,-368,56,21,-18
2215,112,-1960,-360,54,21,-19
2220,152,-1944,-344,54,21,-17
2225,160,-1960,-344,55,20,-17
2230,136,-1952,-352,54,21,-19
2235,152,-1984,-344,54,22,-19
2240,112,-1984,-392,54,21,-19
2245,120,-1952,-376,54,22,-17
2250,128,-1960,-352,55,22,-20
2255,136,-1976,-360,55,24,-19
2260,136,-1984,-392,56,23,-18
2265,120,-1960,-392,53,23,-18
2270,136,-1936,-384,53,23,-16
2275,144,-1984,-360,52,24,-17
2280,112,-1944,-400,51,25,-20
2285,128,-1976,-368,53,25,-20
2290,112,-1936,-352,53,24,-18
2295,136,-1952,-368,55,25,-18
2300,128,-1976,-352,56,24,-19
2305,128,-1936,-384,56,24,-18
2310,136,-1960,-344,56,24,-17
2315,120,-1960,-368,56,23,-19
2320,128,-1968,-328,56,22,-18
2325,96,-1976,-368,57,22,-18
2330,152,-2000,-336,58,23,-17
2335,88,-1960,-376,59,23,-15
2340,112,-1960,-352,59,21,-18
2345,128,-1960,-384,61,20,-18
2350,128,-1976,-368,61,20,-17
2355,136,-1984,-360,64,19,-17
2360,120,-1968,-352,64,18,-16
2365,128,-1968,-400,64,17,-16
2370,152,-1960,-360,65,16,-14
2375,128,-1968,-352,65,17,-14
2380,120,-1952,-400,65,16,-14
2385,128,-1976,-352,66,16,-15
2390,168,-2024,-312,67,17,-14
2395,144,-1960,-360,66,17,-13
2400,128,-1960,-376,66,16,-14
2405,128,-1952,-376,65,17,-13
2410,144,-1984,-360,64,18,-12
2415,120,-1944,-336,64,18,-12
2420,112,-1952,-360,64,17,-9
2425,112,-1944,-376,63,15,-9
2430,120,-1976,-360,63,17,-10
2435,144,-1968,-352,63,18,-9
2440,128,-2000,-328,63,19,-8
2445,128,-1992,-360,63,20,-9
2450,136,-1960,-376,61,19,-7
2455,136,-1968,-368,61,20,-6
2460,144,-1984,-360,59,20,-8
2465,136,-1984,-384,60,19,-7
2470,120,-1968,-376,61,19,-6
2475,112,-1960,-376,60,18,-7
2480,128,-1976,-400,58,18,-5
2485,152,-1968,-400,58,18,-6
2490,120,-1968,-368,56,18,-7
2495,128,-1976,-352,57,17,-4
2500,96,-1936,-368,57,16,-5
2505,120,-1952,-376,58,16,-4
2510,136,-1968,-352,59,15,-3
2515,152,-1976,-360,58,15,-5
2520,168,-1976,-368,58,15,-5
2525,120,-1976,-360,61,17,-4
2530,120,-1960,-384,62,15,-2
2535,120,-1960,-352,63,15,-2
2540,120,-1952,-360,63,15,-3
2545,120,-1984,-384,64,15,-4
2550,144,-1968,-352,63,13,-4
2555,144,-1984,-360,63,13,-4
2560,144,-1984,-336,63,13,-3
2565,136,-1960,-360,63,12,-3
2570,120,-1968,-384,63,12,-3
2575,120,-1952,-344,63,11,-2
2580,128,-1944,-360,63,10,-4
2585,128,-1944,-352,63,10,-5
2590,128,-1968,-376,62,9,-2
2595,120,-1960,-384,60,8,-4
2600,144,-1968,-336,60,9,-4
2605,144,-1984,-352,58,8,-6
2610,144,-1968,-352,59,9,-5
2615,136,-1960,-376,58,9,-5
2620,112,-1944,-360,58,8,-4
2625,152,-1952,-368,58,9,-4
2630,128,-1952,-336,58,9,-5
2635,128,-1944,-336,58,9,-5
2640,128,-1960,-352,57,10,-3
2645,136,-1968,-408,57,9,-5
2650,144,-1968,-376,57,11,-3
2655,136,-1976,-376,56,11,-3
2660,128,-1968,-368,55,10,-3
2665,120,-1976,-376,55,10,-5
2670,128,-1976,-352,57,11,-3
2675,128,-1952,-344,56,9,-4
2680,136,-1968,-376,58,11,-5
2685,144,-1960,-352,58,11,-5
2690,160,-1968,-376,57,10,-4
2695,136,-1960,-352,58,10,-5
2700,136,-1968,-344,57,11,-5
2705,136,-1968,-320,56,10,-6
2710,136,-1960,-376,56,11,-6
2715,120,-1952,-368,56,11,-5
2720,152,-1984,-352,57,9,-5
2725,128,-1952,-360,57,10,-4
2730,120,-1952,-360,58,8,-2
2735,136,-1960,-360,58,9,-3
2740,120,-1968,-352,58,9,-5
2745,136,-1952,-336,59,7,-4
2750,128,-1984,-352,60,8,-4
2755,144,-1976,-336,60,7,-5
2760,128,-1968,-344,60,7,-6
2765,144,-1976,-328,58,6,-5
2770,120,-1952,-328,59,7,-7
2775,136,-1968,-344,59,6,-6
2780,136,-1968,-360,60,7,-7
2785,152,-1992,-328,59,7,-7
2790,136,-1960,-368,60,6,-9
2795,136,-1960,-344,60,5,-8
2800,144,-1952,-360,59,7,-7
2805,120,-1936,-376,57,7,-8
2810,128,-1968,-352,58,8,-7
2815,136,-1976,-368,56,7,-6
2820,120,-1944,-344,55,7,-6
2825,136,-1976,-376,53,7,-8
2830,136,-1952,-360,51,8,-9
2835,128,-1952,-328,53,7,-6
2840,120,-1952,-344,51,8,-5
2845,144,-1976,-368,51,9,-5
2850,136,-1976,-376,52,10,-5
2855,128,-1976,-352,52,8,-5
2860,136,-1968,-352,52,9,-5
2865,144,-1968,-328,52,9,-6
2870,152,-1968,-344,51,10,-4
2875,144,-1960,-360,51,11,-4
2880,112,-1960,-352,53,11,-5
2885,128,-1968,-344,52,10,-5
2890,128,-1960,-360,51,10,-4
2895,136,-1992,-360,53,10,-5
2900,152,-1968,-376,54,11,-4
2905,136,-1936,-376,54,11,-6
2910,136,-1968,-368,54,12,-6
2915,152,-1968,-376,54,10,-3
2920,136,-1952,-368,53,10,-4
2925,136,-1960,-352,52,11,-3
2930,128,-1968,-360,52,9,-4
2935,128,-1968,-352,51,8,-4
2940,120,-1968,-360,51,8,-3
2945,120,-1960,-336,49,7,-3
2950,136,-1984,-368,51,6,-5
2955,128,-1984,-344,51,6,-6
2960,120,-1976,-368,52,4,-5
2965,120,-1984,-360,53,3,-7
2970,128,-1984,-352,54,3,-7
2975,112,-1968,-400,51,2,-8
2980,120,-1968,-352,50,2,-8
2985,112,-1976,-360,50,-2,-8
2990,120,-1976,-336,48,-2,-10
2995,96,-1952,-352,49,-2,-8
3000,136,-1984,-344,46,-3,-8
3005,120,-1968,-344,44,-5,-11
3010,128,-1992,-320,44,-6,-11
3015,128,-1936,-368,45,-6,-11
3020,112,-1960,-344,47,-7,-12
3025,120,-1968,-328,50,-6,-11
3030,104,-1944,-344,50,-6,-8
3035,104,-1936,-344,47,-8,-10
3040,112,-1944,-392,43,-8,-8
3045,136,-1976,-360,41,-8,-8
3050,128,-1968,-352,41,-6,-8
3055,120,-1960,-344,42,-4,-9
3060,112,-1976,-368,41,-4,-6
3065,144,-1968,-368,41,-4,-7
3070,128,-1976,-352,41,-3,-8
3075,136,-1984,-352,44,-4,-6
3080,144,-1992,-376,44,-1,-6
3085,104,-1968,-336,45,-3,-8
3090,104,-1984,-368,46,-2,-9
3095,80,-2056,-448,48,-2,-9
3100,128,-2000,-344,48,-2,-9
3105,128,-1984,-360,48,-2,-8
3110,104,-1952,-368,49,-3,-8
3115,112,-1968,-352,48,-4,-9
3120,120,-1968,-376,49,-3,-9
3125,120,-1976,-376,48,-5,-7
3130,136,-1968,-368,50,-3,-6
3135,120,-1944,-368,50,-4,-7
3140,120,-1968,-384,50,-4,-8
3145,80,-1968,-352,50,-2,-7
3150,120,-1984,-376,51,-2,-6
3155,112,-1968,-344,54,-2,-8
3160,128,-1960,-368,54,-2,-10
3165,120,-1968,-344,56,-2,-8
3170,96,-1960,-344,56,-1,-8
3175,120,-1952,-352,56,-2,-7
3180,128,-1968,-360,57,-3,-8
3185,120,-1976,-400,58,-5,-8
3190,144,-1984,-368,59,-6,-7
3195,104,-1968,-336,60,-5,-7
3200,128,-1968,-360,61,-6,-7
3205,128,-1960,-368,61,-8,-7
3210,136,-1976,-368,61,-7,-7
3215,96,-1944,-368,61,-7,-4
3220,112,-1976,-376,63,-7,-6
3225,112,-1936,-352,65,-9,-5
3230,120,-1976,-376,66,-8,-5
3235,120,-1960,-376,67,-8,-5
3240,136,-1952,-376,67,-10,-6
3245,120,-1960,-368,65,-11,-5
3250,152,-2016,-344,63,-11,-3
3255,104,-1952,-360,62,-12,-6
3260,120,-1960,-376,61,-12,-6
3265,128,-1976,-344,62,-13,-6
3270,120,-1960,-368,61,-13,-5
3275,144,-1952,-368,63,-13,-6
3280,112,-1976,-344,63,-13,-6
3285,112,-1952,-328,64,-13,-6
3290,120,-1960,-352,63,-11,-7
3295,112,-1984,-376,62,-12,-5
3300,128,-1976,-336,62,-13,-7
3305,136,-1984,-320,61,-11,-8
3310,112,-1968,-376,58,-10,-9
3315,112,-1960,-360,58,-11,-8
3320,112,-1944,-376,56,-10,-10
3325,144,-1960,-376,54,-9,-10
3330,152,-1960,-336,55,-9,-9
3335,104,-1976,-304,54,-9,-8
3340,136,-1968,-328,54,-7,-8
3345,112,-1976,-352,53,-6,-8
3350,136,-1968,-352,53,-7,-8
3355,144,-2008,-328,52,-6,-9
3360,144,-1976,-384,51,-6,-11
3365,136,-1952,-352,50,-5,-9
3370,136,-1968,-360,48,-6,-7
3375,96,-1968,-376,46,-5,-8
3380,120,-1960,-360,45,-5,-9
3385,112,-1944,-368,44,-5,-7
3390,112,-1992,-368,42,-5,-6
3395,120,-1976,-368,42,-6,-5
3400,104,-1968,-344,41,-7,-5
3405,96,-2000,-336,39,-7,-5
3410,120,-1992,-344,39,-8,-5
3415,104,-1992,-368,39,-8,-7
3420,120,-2000,-352,39,-7,-6
3425,160,-1984,-376,41,-7,-5
3430,144,-1984,-392,42,-7,-5
3435,128,-1960,-360,43,-6,-7
3440,136,-1976,-352,43,-4,-5
3445,128,-1976,-344,43,-3,-4
3450,112,-1976,-384,44,-3,-4
3455,120,-1968,-392,43,1,-3
3460,128,-1992,-344,44,2,-5
3465,120,-2000,-384,44,5,-5
3470,120,-1824,-392,43,5,-2
3475,128,-1976,-360,44,7,-3
3480,120,-1960,-360,45,8,-2
3485,128,-1992,-360,45,10,-3
3490,112,-1976,-376,46,10,-3
3495,112,-1976,-392,45,9,-1
3500,120,-1968,-360,46,9,-1
3505,96,-1944,-360,44,9,0
3510,136,-1968,-376,43,9,0
3515,96,-1976,-368,42,7,0
3520,104,-1984,-328,42,7,2
3525,96,-1960,-376,41,6,1
3530,112,-1976,-352,40,6,3
3535,120,-1936,-408,39,8,4
3540,88,-1952,-360,37,7,4
3545,120,-1968,-392,37,7,3
3550,96,-1960,-360,35,7,3
3555,104,-1960,-352,35,6,1
3560,96,-1960,-360,36,4,2
3565,88,-1960,-368,33,5,3
3570,104,-1968,-360,34,5,4
3575,104,-1984,-376,32,7,4
3580,104,-1984,-328,32,8,2
3585,120,-1976,-384,30,7,4
3590,120,-1960,-352,31,8,2
3595,96,-1976,-376,30,7,3
3600,96,-1984,-328,29,6,3
3605,104,-1968,-360,29,7,2
3610,80,-1968,-344,28,7,3
3615,120,-1960,-384,27,6,4
3620,88,-2000,-360,28,6,3
3625,120,-1976,-376,27,6,3
3630,128,-1944,-352,27,6,4
3635,80,-1928,-360,29,6,5
3640,72,-1960,-344,28,6,3
3645,104,-1968,-352,25,6,3
3650,72,-1960,-376,25,7,3
3655,96,-1976,-344,25,7,3
3660,104,-1992,-336,24,8,3
3665,120,-1968,-352,23,8,1
3670,112,-1960,-352,24,10,2
3675,112,-1984,-352,24,10,0
3680,120,-1960,-328,25,11,-3
3685,112,-1960,-328,25,11,-2
3690,96,-1952,-328,25,10,-3
3695,96,-1976,-344,25,11,-2
3700,112,-1944,-352,23,9,-2
3705,104,-1944,-368,22,9,-2
3710,88,-1936,-336,20,9,-2
3715,96,-1960,-336,18,9,-2
3720,96,-1928,-328,15,9,0
3725,104,-1968,-376,12,9,0
3730,128,-1968,-360,11,8,0
3735,96,-1984,-320,9,9,-1
3740,128,-1960,-336,9,8,-1
3745,112,-1976,-336,8,9,-1
3750,144,-1960,-336,7,9,-2
3755,112,-1984,-376,7,9,-3
3760,128,-1992,-336,7,10,-4
3765,136,-1968,-368,6,11,-4
3770,128,-1976,-352,9,12,-3
3775,136,-1984,-336,9,13,-4
3780,128,-1944,-336,10,15,-4
3785,136,-1992,-352,14,16,-6
3790,104,-1960,-368,15,19,-4
3795,128,-1984,-344,17,19,-2
3800,136,-1936,-368,17,20,-2
3805,144,-1960,-368,16,21,-1
3810,104,-1960,-384,16,21,0
3815,136,-1976,-360,16,23,0
3820,128,-1992,-400,16,24,1
3825,120,-1960,-376,15,24,1
3830,144,-1960,-384,12,25,2
3835,144,-1968,-368,10,26,3
3840,136,-1952,-360,8,25,1
3845,144,-1976,-376,6,27,1
3850,120,-1936,-360,2,28,1
3855,144,-1968,-352,-4,29,0
3860,144,-1944,-344,-8,28,-2
3865,136,-1944,-368,-14,29,-2
3870,144,-1928,-368,-21,27,-3
3875,120,-1928,-400,-31,26,-3
3880,128,-1952,-408,-40,24,-5
3885,128,-1952,-392,-49,24,-5
3890,136,-1968,-376,-59,21,-5
3895,112,-1920,-392,-68,20,-6
3900,120,-1920,-408,-80,18,-6
3905,128,-1936,-392,-88,15,-8
3910,128,-1952,-384,-99,13,-10
3915,128,-1952,-408,-110,12,-11
3920,160,-1952,-392,-119,8,-11
3925,144,-1928,-424,-128,2,-13
3930,144,-1936,-400,-140,-5,-14
3935,152,-1944,-392,-148,-8,-15
3940,112,-1920,-424,-157,-15,-15
3945,128,-1928,-432,-162,-21,-17
3950,144,-1936,-400,-167,-26,-16
3955,144,-1952,-440,-174,-32,-17
3960,144,-1936,-440,-178,-33,-18
3965,152,-1944,-440,-179,-35,-18
3970,152,-1952,-440,-177,-34,-20
3975,160,-1952,-448,-172,-33,-20
3980,136,-1952,-440,-164,-30,-20
3985,144,-1960,-464,-155,-29,-23
3990,136,-1984,-456,-143,-33,-29
3995,160,-1984,-456,-131,-34,-33
4000,128,-1944,-456,-121,-33,-35
4005,128,-1944,-488,-114,-32,-38
4010,136,-1976,-520,-109,-31,-41
4015,144,-1944,-472,-104,-26,-44
4020,128,-1952,-480,-101,-21,-46
4025,152,-1960,-480,-95,-17,-51
4030,176,-1952,-480,-89,-13,-54
4035,152,-1944,-512,-84,-8,-56
4040,192,-1944,-504,-80,-5,-60
4045,152,-1928,-512,-78,0,-58
4050,192,-1952,-472,-76,5,-60
4055,160,-1936,-480,-75,9,-62
4060,176,-1952,-488,-76,12,-58
4065,184,-1904,-488,-79,18,-53
4070,176,-1928,-496,-84,25,-47
4075,168,-1928,-480,-90,32,-37
4080,144,-1920,-464,-93,28,-39
4085,152,-1896,-480,-103,24,-39
4090,152,-1920,-448,-111,24,-40
4095,160,-1888,-456,-116,27,-37
4100,168,-1896,-472,-120,28,-34
4105,136,-1904,-464,-125,30,-30
4110,160,-1912,-496,-131,31,-28
4115,152,-1904,-440,-136,33,-25
4120,128,-1880,-464,-138,33,-24
4125,152,-1880,-472,-142,33,-22
4130,160,-1864,-472,-144,29,-21
4135,160,-1920,-488,-145,28,-20
4140,136,-1888,-472,-145,26,-19
4145,136,-1920,-464,-143,27,-19
4150,152,-1928,-456,-142,25,-17
4155,128,-1904,-464,-137,22,-20
4160,144,-1928,-456,-133,20,-18
4165,152,-1960,-440,-127,15,-20
4170,136,-1944,-448,-120,9,-22
4175,120,-1944,-424,-113,3,-23
4180,128,-1944,-448,-106,-2,-24
4185,136,-1968,-456,-99,-6,-21
4190,136,-1960,-432,-93,-8,-21
4195,136,-1936,-464,-87,-13,-23
4200,120,-1944,-456,-82,-17,-23
4205,120,-1944,-432,-76,-27,-26
4210,136,-1952,-448,-70,-37,-27
4215,128,-1952,-448,-66,-49,-34
4220,120,-1968,-464,-63,-63,-39
4225,136,-1952,-464,-62,-72,-42
4230,160,-1944,-464,-65,-76,-46
4235,136,-1944,-464,-68,-80,-49
4240,136,-1928,-448,-70,-88,-54
4245,144,-1912,-496,-70,-98,-62
4250,152,-1936,-456,-73,-104,-64
4255,160,-1936,-480,-76,-116,-73
4260,160,-1952,-472,-75,-123,-81
4265,160,-1888,-496,-75,-128,-86
4270,160,-1928,-472,-72,-135,-88
4275,160,-1920,-488,-67,-145,-93
4280,208,-1960,-488,-64,-156,-100
4285,216,-1920,-512,-59,-165,-103
4290,184,-1904,-504,-56,-173,-105
4295,208,-1904,-512,-57,-180,-106
4300,208,-1912,-512,-61,-184,-110
4305,200,-1904,-528,-64,-188,-112
4310,208,-1880,-488,-68,-191,-112
4315,240,-1920,-520,-71,-192,-113
4320,200,-1880,-504,-74,-191,-112
4325,216,-1896,-504,-73,-192,-113
4330,224,-1880,-512,-74,-191,-113
4335,208,-1872,-552,-76,-191,-115
4340,216,-1880,-536,-77,-191,-116
4345,208,-1888,-536,-81,-191,-116
4350,232,-1864,-536,-84,-191,-118
4355,224,-1888,-552,-87,-193,-120
4360,216,-1896,-560,-91,-192,-122
4365,232,-1880,-544,-95,-193,-122
4370,224,-1872,-584,-99,-192,-121
4375,256,-1888,-544,-104,-193,-118
4380,224,-1880,-552,-109,-192,-118
4385,232,-1920,-552,-110,-192,-120
4390,232,-1888,-552,-111,-194,-120
4395,200,-1880,-560,-115,-195,-121
4400,216,-1896,-552,-117,-196,-120
4405,192,-1888,-552,-118,-198,-117
4410,208,-1888,-592,-117,-202,-117
4415,208,-1896,-600,-116,-202,-119
4420,184,-1896,-576,-123,-199,-119
4425,184,-1888,-584,-124,-201,-121
4430,208,-1864,-584,-125,-207,-123
4435,192,-1864,-624,-125,-210,-126
4440,208,-1864,-624,-134,-207,-125
4445,200,-1864,-592,-148,-194,-119
4450,144,-1888,-592,-148,-200,-121
4455,144,-1856,-592,-139,-221,-135
4460,168,-1880,-600,-134,-240,-146
4465,160,-1872,-584,-133,-247,-148
4470,152,-1888,-592,-123,-259,-156
4475,136,-1880,-632,-113,-273,-161
4480,176,-1880,-616,-106,-280,-162
4485,152,-1888,-608,-103,-288,-159
4490,152,-1864,-584,-99,-295,-158
4495,144,-1872,-616,-95,-300,-156
4500,192,-1856,-624,-89,-304,-156
4505,176,-1880,-520,-82,-309,-160
4510,216,-1872,-592,-71,-318,-165
4515,200,-1888,-568,-59,-332,-175
4520,176,-1896,-592,-50,-341,-183
4525,152,-1896,-600,-49,-345,-189
4530,120,-1880,-552,-45,-353,-194
4535,128,-1872,-608,-44,-364,-191
4540,128,-1880,-600,-43,-362,-189
4545,120,-1848,-592,-35,-366,-195
4550,184,-1856,-616,-23,-374,-211
4555,72,-1824,-648,-12,-377,-233
4560,56,-1816,-688,-12,-364,-230
4565,88,-1840,-624,-23,-345,-212
4570,128,-1848,-672,-21,-353,-216
4575,152,-1816,-680,-15,-364,-218
4580,192,-1816,-688,-12,-373,-224
4585,192,-1800,-672,-14,-377,-235
4590,336,-1824,-640,-19,-381,-250
4595,96,-1792,-688,-26,-393,-269
4600,200,-1840,-664,-49,-379,-236
4605,208,-1832,-640,-79,-362,-211
4610,264,-1816,-656,-106,-352,-203
4615,240,-1808,-664,-120,-344,-197
4620,272,-1832,-648,-130,-339,-189
4625,256,-1832,-616,-132,-336,-177
4630,264,-1808,-632,-130,-326,-169
4635,384,-1848,-608,-127,-318,-170
4640,208,-1808,-696,-105,-333,-220
4645,48,-1848,-720,-98,-320,-210
4650,144,-1864,-696,-105,-280,-154
4655,240,-1856,-704,-105,-258,-136
4660,224,-1864,-672,-99,-243,-131
4665,216,-1872,-736,-90,-235,-128
4670,256,-1904,-672,-79,-224,-126
4675,256,-1880,-712,-71,-210,-131
4680,360,-1840,-704,-56,-210,-155
4685,-8,-1880,-736,-49,-211,-170
4690,136,-1888,-736,-63,-180,-125
4695,168,-1864,-744,-75,-159,-111
4700,160,-1848,-712,-84,-151,-106
4705,184,-1864,-688,-91,-147,-102
4710,128,-1840,-688,-95,-146,-100
4715,136,-1856,-712,-98,-147,-96
4720,144,-1872,-728,-103,-147,-92
4725,144,-1864,-696,-106,-147,-87
4730,120,-1872,-688,-106,-147,-83
4735,224,-1832,-680,-107,-149,-82
4740,48,-1808,-728,-92,-172,-121
4745,-56,-1872,-728,-89,-183,-125
4750,56,-1832,-712,-100,-156,-75
4755,96,-1816,-736,-100,-145,-59
4760,88,-1816,-728,-100,-149,-53
4765,72,-1816,-768,-96,-153,-55
4770,80,-1816,-776,-94,-158,-54
4775,96,-1824,-744,-92,-162,-54
4780,72,-1800,-776,-96,-163,-54
4785,64,-1784,-776,-99,-161,-55
4790,128,-1816,-752,-100,-166,-57
4795,144,-1728,-808,-84,-191,-91
4800,-144,-1824,-824,-87,-205,-108
4805,56,-1840,-768,-105,-190,-56
4810,48,-1808,-792,-112,-189,-42
4815,40,-1792,-816,-114,-197,-37
4820,56,-1808,-832,-110,-204,-34
4825,32,-1776,-816,-105,-213,-31
4830,48,-1792,-816,-100,-221,-28
4835,24,-1776,-800,-95,-228,-24
4840,48,-1808,-824,-88,-235,-24
4845,40,-1792,-848,-79,-244,-22
4850,64,-1816,-856,-69,-254,-19
4855,232,-1712,-816,-53,-270,-38
4860,-136,-1856,-912,-20,-322,-71
4865,-32,-1848,-880,-43,-309,-24
4870,8,-1760,-848,-49,-312,-13
4875,0,-1752,-832,-44,-328,-10
4880,-16,-1744,-872,-41,-346,-11
4885,-16,-1736,-816,-38,-359,-14
4890,8,-1696,-784,-35,-374,-18
4895,120,-1616,-752,-19,-395,-40
4900,-104,-1768,-816,-17,-431,-62
4905,8,-1768,-792,-52,-416,-39
4910,24,-1712,-776,-67,-403,-41
4915,48,-1728,-776,-80,-400,-47
4920,40,-1720,-776,-93,-402,-54
4925,216,-1640,-680,-103,-410,-62
4930,-24,-1744,-832,-85,-441,-99
4935,0,-1784,-832,-116,-447,-91
4940,96,-1736,-760,-142,-433,-86
4945,104,-1728,-776,-150,-424,-97
4950,72,-1704,-768,-150,-423,-104
4955,104,-1704,-776,-150,-427,-111
4960,224,-1648,-736,-147,-437,-118
4965,80,-1728,-872,-117,-465,-156
4970,16,-1792,-840,-143,-467,-152
4975,80,-1744,-808,-183,-446,-138
4980,112,-1720,-784,-193,-437,-134
4985,120,-1696,-776,-198,-436,-143
4990,264,-1584,-640,-196,-445,-156
4995,80,-1720,-824,-159,-476,-195
5000,88,-1776,-824,-181,-478,-197
5005,104,-1784,-760,-222,-457,-179
5010,192,-1776,-760,-235,-435,-177
5015,328,-1616,-664,-225,-430,-188
5020,88,-1816,-888,-179,-460,-216
5025,112,-1888,-864,-207,-452,-202
5030,168,-1848,-800,-240,-423,-178
5035,160,-1776,-776,-248,-411,-181
5040,304,-1664,-736,-243,-427,-194
5045,96,-1864,-920,-209,-454,-230
5050,144,-1832,-848,-242,-455,-215
5055,184,-1800,-800,-272,-436,-208
5060,184,-1768,-816,-273,-429,-212
5065,280,-1736,-760,-264,-432,-217
5070,232,-1704,-832,-221,-440,-242
5075,88,-1832,-960,-197,-451,-263
5080,120,-1840,-856,-248,-439,-247
5085,136,-1800,-824,-271,-428,-239
5090,136,-1752,-736,-266,-429,-244
5095,112,-1728,-816,-243,-442,-254
5100,32,-1768,-848,-215,-466,-260
5105,64,-1760,-792,-232,-479,-258
5110,80,-1776,-808,-239,-488,-257
5115,88,-1744,-824,-232,-495,-260
5120,88,-1696,-792,-228,-509,-267
5125,136,-1656,-776,-221,-537,-276
5130,72,-1760,-888,-211,-561,-285
5135,120,-1776,-840,-251,-567,-277
5140,120,-1712,-864,-267,-567,-277
5145,104,-1680,-880,-267,-571,-280
5150,144,-1640,-848,-259,-581,-283
5155,152,-1632,-880,-245,-583,-300
5160,144,-1672,-872,-243,-586,-311
5165,160,-1672,-896,-249,-590,-314
5170,184,-1656,-832,-252,-591,-319
5175,160,-1632,-824,-244,-592,-323
5180,192,-1592,-840,-236,-602,-329
5185,184,-1608,-896,-218,-612,-337
5190,168,-1640,-920,-219,-623,-341
5195,176,-1656,-920,-243,-627,-340
5200,176,-1656,-904,-258,-629,-340
5205,200,-1656,-864,-254,-632,-340
5210,168,-1600,-920,-246,-638,-343
5215,152,-1592,-904,-247,-640,-354
5220,168,-1664,-960,-254,-649,-356
5225,168,-1664,-920,-276,-652,-354
5230,192,-1640,-936,-290,-655,-355
5235,192,-1704,-952,-297,-658,-352
5240,184,-1672,-952,-302,-658,-352
5245,192,-1672,-960,-314,-657,-358
5250,208,-1704,-976,-325,-658,-358
5255,216,-1720,-976,-337,-655,-350
5260,192,-1728,-976,-339,-653,-341
5265,224,-1712,-968,-331,-644,-333
5270,216,-1736,-992,-318,-631,-330
5275,248,-1704,-1040,-300,-618,-326
5280,232,-1720,-1016,-287,-602,-323
5285,240,-1704,-1032,-283,-593,-314
5290,304,-1664,-1024,-289,-583,-307
5295,280,-1640,-1048,-293,-567,-306
5300,312,-1616,-984,-295,-553,-303
5305,288,-1608,-1008,-293,-541,-301
5310,288,-1624,-1048,-286,-532,-296
5315,240,-1656,-1072,-291,-520,-289
5320,232,-1608,-1048,-302,-518,-277
5325,248,-1640,-1040,-311,-515,-278
5330,240,-1664,-1072,-312,-510,-271
5335,256,-1648,-1080,-314,-502,-266
5340,232,-1688,-1080,-316,-493,-264
5345,248,-1680,-1088,-317,-483,-255
5350,264,-1712,-1080,-309,-472,-248
5355,248,-1704,-1064,-295,-450,-244
5360,240,-1680,-1080,-285,-430,-243
5365,240,-1688,-1128,-283,-424,-245
5370,248,-1696,-1088,-285,-423,-239
5375,208,-1648,-1056,-283,-418,-242
5380,248,-1656,-1072,-280,-405,-245
5385,248,-1688,-1096,-277,-398,-243
5390,256,-1672,-1096,-273,-384,-241
5395,280,-1672,-1048,-261,-369,-240
5400,280,-1704,-1112,-250,-359,-234
5405,256,-1672,-1112,-239,-344,-232
5410,232,-1648,-1120,-228,-332,-232
5415,248,-1696,-1136,-223,-322,-231
5420,248,-1680,-1128,-221,-312,-230
5425,200,-1664,-1136,-220,-303,-225
5430,224,-1648,-1152,-216,-298,-213
5435,192,-1648,-1128,-217,-287,-217
5440,192,-1640,-1160,-212,-289,-215
5445,192,-1648,-1160,-207,-286,-208
5450,208,-1672,-1208,-204,-284,-201
5455,168,-1672,-1144,-199,-282,-199
5460,144,-1648,-1232,-195,-285,-185
5465,152,-1680,-1192,-194,-278,-183
5470,176,-1648,-1192,-190,-272,-178
5475,168,-1688,-1200,-184,-265,-174
5480,160,-1656,-1168,-174,-257,-168
5485,192,-1672,-1176,-169,-251,-160
5490,192,-1648,-1200,-166,-249,-146
5495,160,-1624,-1200,-172,-240,-141
5500,184,-1664,-1216,-171,-235,-132
5505,168,-1640,-1192,-168,-229,-124
5510,168,-1624,-1224,-163,-221,-113
5515,152,-1624,-1192,-155,-212,-103
5520,192,-1608,-1176,-148,-204,-93
5525,192,-1624,-1224,-136,-191,-85
5530,232,-1632,-1144,-126,-181,-73
5535,168,-1584,-1184,-123,-169,-66
5540,184,-1544,-1312,-120,-151,-59
5545,184,-1584,-1184,-118,-138,-50
5550,168,-1568,-1184,-113,-126,-44
5555,176,-1592,-1176,-107,-114,-36
5560,120,-1560,-1176,-102,-108,-27
5565,136,-1568,-1184,-94,-101,-19
5570,120,-1560,-1192,-88,-92,-8
5575,120,-1568,-1176,-85,-83,0
5580,112,-1544,-1176,-82,-76,9
5585,136,-1560,-1200,-79,-72,24
5590,120,-1536,-1168,-77,-62,27
5595,120,-1576,-1168,-69,-55,37
5600,88,-1568,-1136,-60,-49,46
5605,96,-1544,-1168,-49,-44,56
5610,96,-1552,-1160,-43,-38,67
5615,104,-1560,-1160,-37,-32,75
5620,96,-1528,-1184,-30,-26,87
5625,88,-1544,-1176,-22,-18,98
5630,128,-1544,-1176,-14,-11,106
5635,104,-1552,-1168,-7,-5,126
5640,72,-1552,-1152,-3,3,131
5645,112,-1544,-1152,6,5,137
5650,112,-1560,-1144,14,8,145
5655,56,-1520,-1184,23,4,153
5660,56,-1488,-1176,33,0,159
5665,32,-1488,-1200,42,-4,165
5670,16,-1480,-1200,47,-9,169
5675,-16,-1456,-1216,51,-14,173
5680,-24,-1456,-1200,52,-18,176
5685,0,-1472,-1216,55,-21,177
5690,8,-1480,-1216,58,-25,176
5695,48,-1480,-1192,65,-29,174
5700,40,-1528,-1208,72,-30,171
5705,120,-1408,-1240,80,-34,167
5710,72,-1520,-1216,85,-33,164
5715,96,-1536,-1232,89,-32,163
5720,88,-1496,-1240,93,-31,159
5725,80,-1456,-1224,97,-28,155
5730,96,-1480,-1216,103,-28,154
5735,72,-1456,-1224,107,-30,150
5740,72,-1440,-1224,111,-32,147
5745,72,-1464,-1232,115,-37,143
5750,48,-1432,-1200,122,-42,140
5755,56,-1432,-1224,129,-46,136
5760,56,-1456,-1200,139,-50,131
5765,56,-1448,-1216,148,-57,130
5770,64,-1424,-1224,156,-66,124
5775,56,-1432,-1224,162,-74,122
5780,72,-1424,-1224,168,-78,120
5785,104,-1480,-1208,179,-78,117
5790,80,-1440,-1200,192,-75,113
5795,112,-1432,-1152,211,-68,107
5800,152,-1440,-1184,227,-53,99
5805,176,-1448,-1152,245,-37,91
5810,192,-1424,-1128,266,-15,83
5815,200,-1456,-1144,288,7,75
5820,232,-1424,-1152,313,31,71
5825,232,-1392,-1120,339,48,71
5830,264,-1352,-1120,362,64,72
5835,272,-1328,-1072,377,79,74
5840,296,-1304,-1080,388,92,79
5845,288,-1304,-1016,396,104,86
5850,296,-1288,-1048,401,109,105
5855,280,-1296,-960,403,121,107
5860,240,-1288,-960,411,130,119
5865,224,-1280,-968,418,136,133
5870,176,-1256,-960,423,139,151
5875,168,-1280,-976,427,136,176
5880,136,-1232,-968,432,127,199
5885,88,-1216,-968,436,111,223
5890,88,-1240,-968,439,95,247
5895,80,-1224,-944,441,80,269
5900,104,-1208,-912,442,66,289
5905,72,-1184,-936,441,55,308
5910,80,-1200,-888,440,34,348
5915,80,-1192,-792,436,35,347
5920,112,-1216,-768,442,33,360
5925,192,-1208,-744,452,30,375
5930,280,-1208,-712,465,31,387
5935,352,-1184,-640,479,42,399
5940,440,-1184,-616,496,61,401
5945,464,-1160,-608,513,85,401
5950,456,-1120,-648,531,107,397
5955,480,-1144,-680,556,121,402
5960,376,-1032,-752,581,119,416
5965,416,-992,-760,599,133,402
5970,464,-952,-848,606,150,397
5975,480,-912,-904,598,176,394
5980,512,-896,-896,578,212,396
5985,568,-920,-920,552,255,394
5990,560,-912,-896,534,294,391
5995,488,-920,-856,526,316,388
6000,512,-968,-912,536,304,404
6005,240,-896,-848,552,278,398
6010,280,-936,-848,565,247,375
6015,232,-936,-816,570,208,371
6020,176,-968,-800,569,164,380
6025,176,-1000,-744,560,119,393
6030,200,-1024,-728,551,82,403
6035,232,-1016,-720,542,57,409
6040,264,-1048,-672,531,42,413
6045,304,-1040,-640,523,39,419
6050,312,-1056,-664,521,42,421
6055,360,-1056,-680,529,49,422
6060,376,-1048,-680,542,65,416
6065,408,-1032,-752,553,86,407
6070,424,-1016,-744,560,107,398
6075,400,-968,-824,558,118,389
6080,352,-976,-800,555,119,383
6085,376,-976,-800,561,109,382
6090,424,-968,-752,577,91,385
6095,296,-944,-760,603,45,432
6100,216,-936,-752,617,17,431
6105,264,-936,-784,626,-14,422
6110,272,-960,-776,640,-52,428
6115,256,-952,-768,656,-95,440
6120,216,-960,-808,674,-134,453
6125,128,-952,-792,698,-171,472
6130,80,-1000,-800,731,-217,523
6135,-24,-920,-792,759,-254,541
6140,-56,-968,-792,789,-296,568
6145,-120,-992,-784,813,-331,606
6150,-216,-1024,-800,843,-365,649
6155,-280,-1072,-744,871,-399,691
6160,-400,-1152,-720,908,-433,732
6165,-536,-1248,-688,954,-472,777
6170,-616,-1248,-632,1013,-513,825
6175,-664,-1256,-648,1080,-552,879
6180,-712,-1224,-632,1151,-588,933
6185,-720,-1208,-632,1221,-626,983
6190,-776,-1200,-656,1284,-667,1032
6195,-768,-1168,-720,1336,-712,1083
6200,-768,-1192,-768,1378,-765,1131
6205,-800,-1160,-904,1410,-816,1182
6210,-824,-1232,-1032,1432,-867,1232
6215,-896,-1280,-1112,1450,-911,1280
6220,-896,-1416,-1264,1475,-951,1331
6225,-928,-1504,-1328,1515,-981,1368
6230,-1000,-1608,-1456,1568,-990,1392
6235,-968,-1704,-1568,1640,-979,1409
6240,-944,-1880,-1688,1714,-937,1418
6245,-904,-2032,-1760,1774,-864,1415
6250,-792,-2128,-1752,1816,-755,1397
6255,-680,-2296,-1736,1847,-613,1367
6260,-560,-2448,-1696,1875,-453,1351
6265,-472,-2632,-1536,1912,-305,1307
6270,-432,-2760,-1376,1958,-180,1250
6275,-480,-2816,-1128,2031,-98,1183
6280,-456,-2824,-960,2141,-75,1112
6285,-520,-2832,-768,2267,-72,1068
6290,-688,-2720,-544,2415,-103,1041
6295,-752,-2576,-560,2582,-165,1018
6300,-856,-2376,-480,2750,-229,994
6305,-1048,-2096,-456,2891,-292,977
6310,-1104,-1784,-440,2998,-380,965
6315,-1280,-1432,-448,3080,-464,985
6320,-1288,-1256,-400,3129,-539,1042
6325,-1336,-1000,-488,3142,-614,1115
6330,-1392,-792,-480,3079,-678,1219
6335,-1392,-640,-496,2933,-755,1313
6340,-1328,-576,-408,2734,-849,1408
6345,-1312,-664,-280,2549,-977,1510
6350,-1352,-768,-136,2402,-1143,1593
6355,-1320,-1048,-24,2281,-1327,1663
6360,-1416,-1464,200,2220,-1495,1725
6365,-1528,-1752,328,2243,-1615,1803
6370,-1680,-2336,560,2308,-1711,1870
6375,-1808,-2864,752,2399,-1817,1907
6380,-1984,-3472,1016,2488,-1901,1943
6385,-2160,-4128,1320,2588,-1979,1979
6390,-2480,-4384,1552,2744,-2060,1955
6395,-2896,-4784,1592,2993,-2166,1982
6400,-3352,-5376,1592,3168,-2287,2011
6405,-4008,-5664,1688,3264,-2374,2033
6410,-4720,-5912,1688,3341,-2396,2140
6415,-5104,-5968,1600,3417,-2369,2257
6420,-5152,-5920,1552,3477,-2293,2345
6425,-4688,-5544,1632,3555,-2146,2345
6430,-4080,-4832,1776,3671,-1913,2313
6435,-3784,-4256,1920,3793,-1692,2347
6440,-3288,-3704,2104,3874,-1572,2364
6445,-2400,-3216,1984,3885,-1530,2257
6450,-1504,-2904,1768,3827,-1528,2052
6455,-800,-2552,1624,3738,-1556,1816
6460,-32,-2352,1288,3674,-1589,1621
6465,224,-2088,1136,3614,-1548,1497
6470,240,-1944,1072,3552,-1474,1485
6475,-136,-1888,1184,3495,-1401,1570
6480,-240,-1960,1080,3456,-1395,1683
6485,-160,-1888,912,3399,-1362,1758
6490,-384,-1784,1024,3338,-1289,1794
6495,-552,-1672,1008,3280,-1304,1791
6500,-672,-1568,1080,3221,-1342,1763
6505,-768,-1512,1016,3184,-1343,1697
6510,-888,-1440,912,3147,-1279,1605
6515,-1088,-1272,848,3081,-1161,1520
6520,-1160,-1136,864,2979,-1007,1466
6525,-1240,-960,920,2877,-838,1416
6530,-1256,-936,1016,2815,-701,1373
6535,-1232,-888,1072,2766,-632,1308
6540,-1232,-888,1128,2693,-625,1208
6545,-1192,-792,1152,2597,-627,1092
6550,-960,-696,1160,2536,-592,1028
6555,-912,-664,1376,2547,-535,1011
6560,-1088,-536,1560,2644,-567,1005
6565,-1248,-424,1600,2800,-670,1042
6570,-1232,-152,1512,2941,-785,1118
6575,-824,32,1488,3026,-835,1221
6580,-616,256,1472,3075,-817,1262
6585,-584,480,1608,3102,-760,1238
6590,-584,808,1912,3108,-743,1193
6595,-1056,1152,2280,3090,-773,1147
6600,-1240,1392,2352,3050,-821,1167
6605,-1408,1600,2280,2976,-883,1233
6610,-1504,1896,2176,2825,-917,1290
6615,-1360,1944,2304,2606,-917,1314
6620,-1504,2008,2544,2423,-924,1229
6625,-1584,2088,2352,2290,-924,1129
6630,-1736,2096,2360,2125,-871,1034
6635,-1808,2048,2352,1926,-779,901
6640,-1720,1880,2200,1680,-622,753
6645,-1680,1688,2216,1485,-451,566
6650,-1664,1512,2152,1311,-352,307
6655,-1832,1344,2040,1200,-285,60
6660,-2024,1192,1904,1119,-241,-131
6665,-2144,976,1792,1082,-169,-249
6670,-1848,840,1824,1061,-79,-316
6675,-1640,752,1880,1020,-43,-453
6680,-1488,632,1872,973,-75,-577
6685,-1176,568,1832,930,-140,-627
6690,-744,480,1696,888,-233,-604
6695,-552,496,1576,838,-363,-573
6700,-304,528,1384,779,-494,-510
6705,-176,576,1176,708,-609,-429
6710,-32,632,1080,633,-701,-358
6715,0,736,1016,566,-758,-302
6720,-32,832,912,513,-760,-226
6725,96,952,944,472,-711,-137
6730,136,984,976,455,-644,-98
6735,152,1048,968,448,-558,-83
6740,40,1080,1008,432,-442,-89
6745,-8,1096,1160,420,-316,-70
6750,72,1040,1272,432,-189,-31
6755,56,944,1328,460,-76,-27
6760,-56,856,1408,490,30,-46
6765,-208,752,1496,511,146,-49
6770,-456,592,1616,548,283,-29
6775,-536,536,1712,561,350,-19
6780,-584,440,1736,508,400,-14
6785,-624,336,1712,438,451,-23
6790,-736,240,1720,361,476,-54
6795,-800,168,1744,274,474,-81
6800,-880,136,1768,186,439,-80
6805,-656,128,1728,108,382,-69
6810,-632,96,1736,60,326,-126
6815,-808,168,1744,53,263,-186
6820,-1136,288,1752,62,182,-204
6825,-1096,344,1880,49,109,-151
6830,-1120,384,1968,44,-23,-137
6835,-1304,448,1976,40,-197,-170
6840,-1296,520,2040,44,-346,-162
6845,-1128,520,2144,57,-466,-125
6850,-1040,512,2160,85,-570,-98
6855,-912,544,2168,125,-647,-85
6860,-928,568,2128,147,-675,-95
6865,-896,584,2016,149,-688,-108
6870,-760,552,1968,112,-648,-74
6875,-368,488,1992,53,-584,-82
6880,-464,552,1912,16,-537,-225
6885,-616,584,1904,-2,-455,-325
6890,-648,576,1968,-10,-359,-351
6895,-752,512,1984,-24,-257,-360
6900,-904,456,2016,-47,-169,-378
6905,-944,408,1992,-72,-101,-404
6910,-960,368,1992,-95,-33,-403
6915,-936,368,1992,-105,15,-391
6920,-920,384,1984,-112,66,-381
6925,-872,360,1952,-119,112,-375
6930,-864,376,1944,-130,152,-369
6935,-1048,400,1888,-149,178,-367
6940,-752,376,1872,-186,205,-342
6945,-696,384,1840,-210,201,-356
6950,-728,392,1768,-233,190,-366
6955,-720,360,1744,-258,187,-365
6960,-728,344,1744,-282,184,-353
6965,-712,336,1688,-303,182,-331
6970,-1032,320,1528,-328,187,-301
6975,-472,248,1672,-371,225,-227
6980,-616,272,1608,-384,220,-246
6985,-648,264,1640,-383,218,-242
6990,-656,200,1632,-388,232,-231
6995,-656,192,1632,-401,248,-216
7000,-672,192,1616,-426,265,-200
7005,-664,144,1592,-458,284,-175
7010,-688,120,1616,-488,305,-146
7015,-704,176,1592,-516,323,-117
7020,-704,200,1536,-543,348,-98
7025,-792,304,1608,-564,386,-85
7030,-840,392,1680,-576,447,-80
7035,-880,456,1784,-577,517,-83
7040,-856,472,1864,-577,591,-85
7045,-880,416,1968,-588,666,-75
7050,-960,376,1944,-606,731,-50
7055,-704,200,2048,-635,794,-12
7060,-776,128,2072,-639,809,-35
7065,-792,48,2048,-636,818,-38
7070,-856,16,2008,-634,814,-38
7075,-992,-8,1944,-635,809,-34
7080,-960,8,1880,-640,819,-16
7085,-992,-8,1872,-648,838,-24
7090,-1056,8,1840,-651,841,-73
7095,-1056,-24,1816,-647,845,-114
7100,-1128,-72,1840,-627,848,-136
7105,-1104,-144,1784,-587,843,-155
7110,-1192,-168,1800,-531,851,-182
7115,-1264,-288,1856,-467,865,-195
7120,-1184,-280,1792,-389,861,-181
7125,-1216,-344,1752,-332,849,-190
7130,-1264,-400,1696,-305,835,-218
7135,-1272,-496,1736,-293,836,-232
7140,-1304,-504,1688,-290,844,-241
7145,-1400,-536,1712,-284,851,-259
7150,-1488,-576,1712,-267,861,-275
7155,-1504,-592,1680,-246,863,-287
7160,-1552,-552,1584,-222,861,-304
7165,-1696,-576,1608,-203,828,-331
7170,-1504,-544,1512,-164,796,-374
7175,-1512,-528,1504,-124,797,-403
7180,-1424,-480,1448,-77,796,-432
7185,-1400,-456,1440,-29,825,-462
7190,-1392,-408,1432,18,861,-476
7195,-1416,-384,1472,60,883,-485
7200,-1416,-288,1488,102,885,-498
7205,-1440,-280,1432,145,900,-484
7210,-1480,-288,1512,171,888,-461
7215,-1448,-288,1512,183,868,-460
7220,-1472,-344,1496,186,865,-444
7225,-1552,-352,1512,186,881,-395
7230,-1576,-440,1608,186,878,-325
7235,-1560,-480,1552,204,876,-261
7240,-1856,-536,1616,219,900,-197
7245,-1824,-576,1624,240,837,-153
7250,-1728,-680,1624,273,783,-132
7255,-1720,-744,1632,300,767,-110
7260,-1664,-768,1616,321,763,-70
7265,-1752,-768,1512,308,762,-24
7270,-1600,-760,1640,260,732,18
7275,-1480,-728,1544,251,733,4
7280,-1320,-632,1464,234,745,-28
7285,-1208,-520,1432,200,763,-70
7290,-1224,-408,1336,137,759,-106
7295,-1256,-216,1344,56,721,-107
7300,-1328,-104,1352,-27,680,-91
7305,-1344,-8,1328,-110,649,-93
7310,-1520,152,1288,-180,644,-55
7315,-1528,200,1352,-246,662,18
7320,-1552,256,1368,-308,696,101
7325,-1528,240,1440,-358,739,153
7330,-1480,224,1392,-396,778,199
7335,-1504,176,1440,-426,822,233
7340,-1600,224,1448,-445,848,258
7345,-1488,104,1496,-456,858,317
7350,-1296,-32,1384,-484,872,350
7355,-1368,-104,1512,-543,912,345
7360,-1456,-184,1552,-583,942,372
7365,-1376,-336,1464,-596,935,433
7370,-1304,-560,1352,-613,901,510
7375,-1312,-680,1272,-661,857,553
7380,-1504,-872,1208,-724,813,599
7385,-1688,-968,1304,-742,765,655
7390,-1736,-1192,1280,-689,700,723
7395,-1776,-1336,1320,-634,612,742
7400,-1816,-1280,1296,-563,511,745
7405,-1680,-1368,1224,-454,428,761
7410,-1576,-1336,1152,-342,382,732
7415,-1568,-1280,1088,-230,369,681
7420,-1576,-1168,1096,-113,377,626
7425,-1728,-1040,1096,13,401,556
7430,-1888,-912,1128,144,424,498
7435,-1872,-808,1136,249,424,456
7440,-1792,-672,1112,305,402,411
7445,-1816,-568,1104,327,382,373
7450,-1800,-440,1088,324,377,343
7455,-1784,-336,1080,297,387,314
7460,-1800,-224,1088,269,400,299
7465,-1760,-168,1048,233,407,285
7470,-1712,-96,1064,187,408,267
7475,-1672,-32,1064,136,406,247
7480,-1624,-48,1064,81,399,231
7485,-1624,-48,1048,29,389,212
7490,-1600,-24,992,-21,377,200
7495,-1568,-80,992,-66,363,187
7500,-1480,-176,976,-104,349,174
7505,-1576,-160,1032,-136,345,163
7510,-1600,-208,1032,-149,332,152
7515,-1528,-256,976,-149,308,142
7520,-1536,-312,984,-145,290,135
7525,-1600,-344,1016,-132,293,131
7530,-1728,-320,1056,-108,307,129
7535,-1784,-304,1088,-70,300,118
7540,-1752,-328,1128,-29,276,105
7545,-1720,-344,1128,7,246,101
7550,-1696,-344,1176,40,230,102
7555,-1744,-328,1152,68,234,103
7560,-1736,-264,1224,96,246,87
7565,-1744,-256,1216,116,256,96
7570,-1664,-248,1208,127,266,108
7575,-1640,-208,1232,134,285,124
7580,-1680,-168,1272,137,316,141
7585,-1784,-120,1240,140,351,157
7590,-1880,-72,1328,142,374,172
7595,-1880,-16,1352,144,365,188
7600,-1840,0,1368,133,333,207
7605,-1776,8,1328,114,300,223
7610,-1776,48,1312,87,277,256
7615,-1752,16,1320,55,271,288
7620,-1528,0,1256,30,282,313
7625,-1472,-80,1248,1,316,306
7630,-1560,-64,1272,-34,399,298
7635,-1648,-48,1344,-55,463,290
7640,-1680,-48,1328,-50,500,273
7645,-1776,0,1352,-38,504,260
7650,-1800,56,1320,-11,486,260
7655,-1760,96,1232,12,451,267
7660,-1704,64,1264,10,422,257
7665,-1616,32,1192,-6,415,253
7670,-1592,16,1192,-32,433,243
7675,-1504,0,1136,-65,464,227
7680,-1320,-40,1008,-109,515,205
7685,-1384,-72,1008,-163,617,179
7690,-1656,-56,1064,-188,735,156
7695,-1800,-48,1104,-174,803,126
7700,-1896,-32,1176,-143,800,100
7705,-1976,0,1232,-114,749,89
7710,-1832,0,1136,-93,679,87
7715,-1760,0,1072,-97,637,83
7720,-1704,16,1016,-118,631,75
7725,-1736,-24,984,-145,644,59
7730,-1760,-32,976,-176,661,45
7735,-1816,-40,984,-207,676,38
7740,-1800,-120,928,-231,681,30
7745,-1848,-160,920,-242,680,20
7750,-1872,-168,928,-237,676,10
7755,-1872,-208,880,-217,665,0
7760,-1920,-208,904,-180,644,-7
7765,-1944,-224,848,-131,617,-12
7770,-1944,-224,840,-79,585,-16
7775,-1984,-216,792,-28,560,-14
7780,-2008,-232,800,20,535,-16
7785,-2016,-224,768,64,515,-17
7790,-2024,-216,768,102,498,-19
7795,-2048,-232,712,137,484,-22
7800,-2024,-232,744,169,469,-25
7805,-2016,-224,736,201,456,-30
7810,-2032,-216,728,230,438,-33
7815,-2040,-200,768,259,415,-38
7820,-1984,-288,656,282,392,-40
7825,-2072,-176,760,304,370,-39
7830,-2048,-120,768,321,343,-40
7835,-2040,-136,760,328,316,-39
7840,-2048,-136,776,325,289,-39
7845,-2072,-112,800,317,266,-34
7850,-2024,-120,784,304,247,-34
7855,-2024,-96,760,281,234,-32
7860,-2040,-80,768,251,226,-28
7865,-2008,-104,752,218,220,-25
7870,-2024,-128,752,184,219,-22
7875,-1920,-136,736,150,220,-21
7880,-1992,-104,768,114,241,-18
7885,-2040,-136,744,87,254,-11
7890,-2032,-120,760,66,242,-13
7895,-1992,-160,784,47,221,-7
7900,-1992,-136,784,30,201,-4
7905,-1944,-144,720,13,191,-3
7910,-1960,-200,760,5,187,-3
7915,-1952,-200,816,4,176,-1
7920,-1936,-224,752,5,159,3
7925,-1944,-184,776,10,139,6
7930,-1944,-192,776,19,117,10
7935,-1944,-184,784,33,97,15
7940,-1952,-160,792,48,76,21
7945,-1944,-184,816,61,58,27
7950,-1952,-160,784,72,41,30
7955,-1944,-152,776,78,25,33
7960,-1936,-144,792,79,9,35
7965,-1928,-128,824,78,-4,38
7970,-1952,-136,824,76,-17,41
7975,-1952,-128,816,73,-29,41
7980,-1960,-120,840,75,-39,39
7985,-1984,-104,840,76,-47,36
7990,-1960,-128,840,80,-56,34
7995,-1952,-128,872,83,-58,25
8000,-1944,-104,816,90,-57,21
8005,-1968,-104,816,93,-52,25
8010,-1976,-128,848,93,-46,26
8015,-1976,-104,840,91,-50,17
8020,-1952,-112,840,83,-53,11
8025,-1912,-112,856,74,-54,7
8030,-1952,-88,832,63,-52,1
8035,-1936,-104,832,56,-50,-1
8040,-1936,-104,848,50,-49,-2
8045,-1912,-104,848,42,-49,-3
8050,-1904,-120,832,35,-47,-4
8055,-1928,-128,816,27,-50,-6
8060,-1912,-96,840,21,-54,-5
8065,-1920,-96,832,15,-56,-2
8070,-1912,-104,864,8,-61,-1
8075,-1888,-104,864,1,-66,1
8080,-1912,-128,896,-4,-69,0
8085,-1912,-120,824,-9,-74,3
8090,-1920,-112,856,-12,-76,5
8095,-1896,-120,840,-13,-80,5
8100,-1880,-96,888,-13,-82,3
8105,-1888,-120,872,-11,-86,2
8110,-1872,-120,896,-9,-89,0
8115,-1904,-136,880,-4,-90,-3
8120,-1864,-120,864,1,-91,-3
8125,-1880,-136,848,5,-93,-7
8130,-1896,-144,864,11,-94,-7
8135,-1888,-160,856,16,-95,-8
8140,-1896,-136,864,21,-96,-10
8145,-1896,-112,864,27,-98,-13
8150,-1880,-120,880,34,-99,-14
8155,-1936,-104,904,39,-102,-17
8160,-1888,-128,888,44,-104,-18
8165,-1880,-136,912,49,-105,-20
8170,-1880,-120,864,54,-103,-25
8175,-1896,-112,920,57,-101,-23
8180,-1880,-136,904,59,-102,-26
8185,-1888,-128,888,58,-101,-26
8190,-1888,-128,880,57,-103,-29
8195,-1856,-184,736,57,-104,-29
8200,-1896,-112,912,53,-106,-29
8205,-1896,-144,896,50,-109,-29
8210,-1896,-104,904,47,-110,-31
8215,-1904,-120,912,47,-113,-33
8220,-1872,-104,912,46,-116,-32
8225,-1872,-120,896,46,-117,-33
8230,-1872,-112,880,46,-114,-34
8235,-1840,-136,888,46,-114,-35
8240,-1872,-152,896,44,-114,-35
8245,-1904,-136,864,45,-116,-34
8250,-1848,-176,912,45,-119,-34
8255,-1848,-144,880,49,-121,-31
8260,-1840,-144,904,50,-124,-27
8265,-1880,-144,904,53,-127,-27
8270,-1880,-152,888,55,-131,-27
8275,-1848,-144,912,57,-136,-27
8280,-1848,-144,928,58,-140,-28
8285,-1856,-152,928,58,-143,-24
8290,-1848,-160,944,59,-141,-24
8295,-1824,-120,920,60,-137,-18
8300,-1848,-144,936,62,-124,-11
8305,-1896,-136,960,65,-117,-10
8310,-1864,-184,968,64,-129,-23
8315,-1840,-152,984,63,-137,-24
8320,-1840,-176,952,63,-140,-22
8325,-1832,-176,944,62,-136,-22
8330,-1840,-144,944,64,-131,-19
8335,-1824,-168,976,67,-130,-20
8340,-1824,-184,960,69,-122,-19
8345,-1840,-144,944,73,-115,-18
8350,-1840,-168,952,75,-107,-18
8355,-1832,-144,960,76,-100,-17
8360,-1904,-152,872,78,-94,-15
8365,-1832,-144,984,80,-86,-14
8370,-1848,-136,976,82,-81,-14
8375,-1824,-152,992,82,-74,-20
8380,-1856,-136,984,84,-71,-19
8385,-1816,-168,1000,88,-66,-16
8390,-1840,-184,968,90,-62,-15
8395,-1808,-144,992,93,-60,-15
8400,-1816,-152,976,97,-56,-8
8405,-1800,-176,992,101,-54,-6
8410,-1808,-136,984,102,-51,-8
8415,-1832,-136,1016,105,-50,-1
8420,-1840,-160,1000,103,-60,-6
8425,-1824,-152,1008,101,-65,-6
8430,-1816,-144,984,97,-64,-7
8435,-1816,-136,984,94,-63,-7
8440,-1816,-152,1016,89,-61,-7
8445,-1808,-112,976,85,-57,-12
8450,-1808,-160,992,81,-52,-11
8455,-1808,-160,1016,77,-50,-7
8460,-1824,-120,960,75,-49,-8
8465,-1840,-128,952,76,-48,-8
8470,-1872,-120,968,77,-49,-10
8475,-1864,-104,960,78,-53,-15
8480,-1840,-128,936,76,-58,-17
8485,-1840,-96,952,78,-61,-18
8490,-1816,-128,976,79,-60,-17
8495,-1824,-112,912,81,-59,-17
8500,-1832,-136,952,79,-58,-20
8505,-1840,-80,968,77,-59,-21
8510,-1816,-88,928,74,-57,-20
8515,-1832,-96,952,73,-51,-14
8520,-1864,-128,976,70,-47,-14
8525,-1864,-128,920,70,-54,-18
8530,-1824,-152,992,68,-65,-24
8535,-1832,-128,968,65,-72,-28
8540,-1832,-120,952,63,-74,-30
8545,-1840,-136,968,65,-71,-34
8550,-1816,-144,1000,64,-71,-35
8555,-1840,-136,960,63,-74,-36
8560,-1848,-104,1008,63,-72,-41
8565,-1816,-168,992,67,-70,-46
8570,-1848,-120,1000,68,-75,-48
8575,-1848,-128,984,66,-79,-46
8580,-1832,-152,960,65,-82,-48
8585,-1832,-136,944,65,-86,-49
8590,-1816,-136,1008,64,-92,-54
8595,-1832,-112,968,62,-93,-58
8600,-1840,-136,984,59,-98,-61
8605,-1832,-144,1008,65,-103,-68
8610,-1832,-152,1000,65,-103,-70
8615,-1824,-136,976,64,-105,-72
8620,-1824,-112,1008,61,-107,-72
8625,-1816,-136,968,57,-108,-75
8630,-1840,-104,984,53,-110,-77
8635,-1824,-152,984,48,-114,-78
8640,-1824,-128,1000,42,-117,-78
8645,-1824,-112,960,34,-121,-80
8650,-1832,-152,976,31,-123,-81
8655,-1848,-152,968,29,-120,-83
8660,-1864,-160,968,28,-117,-84
8665,-1832,-152,984,29,-118,-83
8670,-1856,-152,992,30,-112,-83
8675,-1848,-176,984,33,-107,-79
8680,-1840,-168,1008,38,-99,-72
8685,-1840,-8,1040,44,-87,-65
8690,-1832,-168,1008,49,-77,-59
8695,-1824,-176,1016,53,-65,-48
8700,-1832,-160,1040,61,-48,-37
8705,-1816,-208,1056,70,-41,-27
8710,-1784,-200,1072,79,-37,-18
8715,-1744,-184,1072,88,-27,-9
8720,-1752,-184,1104,97,-11,3
8725,-1792,-176,1096,107,6,20
8730,-1752,-168,1096,116,17,35
8735,-1752,-184,1096,125,20,46
8740,-1728,-192,1120,135,21,56
8745,-1728,-184,1112,140,24,67
8750,-1712,-216,1096,144,26,76
8755,-1720,-160,1080,144,27,82
8760,-1720,-192,1096,144,33,87
8765,-1728,-184,1144,147,37,87
8770,-1736,-160,1120,150,42,83
8775,-1712,-176,1088,157,47,79
8780,-1744,-128,1088,161,48,78
8785,-1752,-128,1080,156,47,72
8790,-1768,-120,1080,145,45,65
8795,-1776,-104,1080,133,45,53
8800,-1760,-64,1040,118,46,46
8805,-1784,-64,1008,100,48,38
8810,-1824,-32,1008,80,53,32
8815,-1816,-40,1016,59,59,26
8820,-1824,-56,976,35,65,17
8825,-1840,-32,976,14,71,8
8830,-1856,-64,968,-2,75,3
8835,-1848,-96,944,-14,82,-6
8840,-1856,-96,976,-19,86,-18
8845,-1840,-128,984,-20,90,-28
8850,-1800,-56,984,-14,91,-37
8855,-1864,-96,968,-7,91,-44
8860,-1864,-120,960,3,90,-52
8865,-1880,-96,968,12,86,-56
8870,-1864,-112,952,20,84,-60
8875,-1872,-112,976,26,80,-62
8880,-1888,-112,952,30,74,-63
8885,-1880,-104,984,31,68,-62
8890,-1888,-120,976,32,63,-59
8895,-1896,-136,984,31,56,-55
8900,-1880,-152,952,30,49,-52
8905,-1864,-144,984,27,42,-47
8910,-1888,-136,960,20,34,-42
8915,-1880,-144,968,19,25,-36
8920,-1864,-160,1000,20,16,-28
8925,-1848,-152,960,18,7,-23
8930,-1848,-168,992,16,0,-17
8935,-1840,-136,976,15,-5,-15
8940,-1832,-144,1016,17,-11,-17
8945,-1824,-128,1024,20,-14,-18
8950,-1824,-120,1000,25,-15,-21
8955,-1808,-128,1008,27,-12,-22
8960,-1816,-120,1016,26,-13,-24
8965,-1824,-104,984,25,-14,-25
8970,-1800,-120,992,25,-17,-27
8975,-1832,-88,984,25,-20,-28
8980,-1824,-128,976,27,-22,-28
8985,-1816,-160,1000,28,-28,-30
8990,-1816,-144,1000,30,-32,-31
8995,-1792,-160,976,31,-37,-30
9000,-1808,-168,1000,32,-41,-31
9005,-1800,-160,1032,32,-45,-30
9010,-1816,-128,984,33,-51,-32
9015,-1776,-176,1080,31,-55,-32
9020,-1808,-168,1032,30,-61,-33
9025,-1792,-160,1000,29,-64,-32
9030,-1824,-168,976,27,-68,-31
9035,-1824,-176,1000,26,-68,-31
9040,-1832,-160,992,25,-67,-28
9045,-1808,-168,1032,24,-66,-22
9050,-1816,-160,1000,20,-65,-19
9055,-1800,-176,1000,16,-63,-16
9060,-1808,-184,1024,12,-62,-11
9065,-1824,-176,1016,8,-60,-8
9070,-1824,-152,1024,6,-58,-2
9075,-1808,-160,1024,7,-54,1
9080,-1832,-152,1040,6,-49,2
9085,-1784,-168,1040,7,-46,5
9090,-1808,-168,1040,9,-46,5
9095,-1792,-160,1056,10,-43,8
9100,-1776,-168,1080,12,-41,8
9105,-1808,-176,1048,17,-39,8
9110,-1792,-160,1040,21,-35,8
9115,-1808,-152,1056,23,-31,5
9120,-1760,-152,1048,27,-29,5
9125,-1792,-120,1056,32,-28,5
9130,-1800,-144,1016,34,-23,3
9135,-1792,-152,1064,37,-20,1
9140,-1800,-168,1056,39,-17,-2
9145,-1800,-152,1064,40,-14,-3
9150,-1800,-152,1040,39,-10,-3
9155,-1776,-120,1016,38,-8,-3
9160,-1792,-144,1040,39,-6,-4
9165,-1800,-160,1024,36,-3,-2
9170,-1808,-144,1040,34,0,-1
9175,-1768,-168,1032,32,1,0
9180,-1808,-136,1032,29,4,1
9185,-1808,-144,1040,26,7,3
9190,-1808,-152,1032,24,11,3
9195,-1792,-120,1048,22,14,3
9200,-1808,-136,1016,18,16,2
9205,-1800,-152,1040,16,18,2
9210,-1816,-152,1056,16,20,2
9215,-1792,-160,1048,17,22,2
9220,-1792,-136,1024,17,25,4
9225,-1832,-144,1016,16,25,1
9230,-1792,-120,1064,15,27,1
9235,-1808,-144,1048,14,28,3
9240,-1808,-112,1040,12,30,3
9245,-1816,-144,1016,10,30,2
9250,-1816,-120,1000,7,33,3
9255,-1792,-112,1048,4,33,3
9260,-1816,-128,1040,-1,33,2
9265,-1824,-160,1040,-5,35,2
9270,-1800,-128,1072,-10,36,2
9275,-1808,-152,1048,-16,36,3
9280,-1832,-144,1000,-23,36,2
9285,-1792,-144,1024,-28,34,3
9290,-1832,-168,1032,-31,32,2
9295,-1800,-144,1000,-34,32,2
9300,-1816,-136,1008,-40,34,3
9305,-1808,-128,1024,-44,34,2
9310,-1824,-136,1032,-48,34,2
9315,-1824,-144,1008,-51,34,3
9320,-1816,-160,992,-55,34,1
9325,-1816,-152,1024,-55,32,1
9330,-1832,-120,1008,-55,31,1
9335,-1832,-144,992,-55,29,-1
9340,-1832,-144,1048,-53,29,-1
9345,-1808,-152,1008,-53,29,-4
9350,-1848,-160,1016,-51,30,-7
9355,-1848,-152,1008,-47,32,-7
9360,-1832,-152,1008,-45,35,-10
9365,-1816,-192,1016,-43,38,-12
9370,-1816,-144,1016,-42,39,-13
9375,-1816,-160,1016,-38,40,-14
9380,-1792,-184,992,-35,39,-14
9385,-1800,-184,1008,-33,36,-15
9390,-1800,-160,1000,-33,36,-14
9395,-1808,-168,1008,-30,36,-15
9400,-1792,-176,1008,-30,35,-14
9405,-1800,-176,968,-30,35,-14
9410,-1808,-184,1048,-32,36,-12
9415,-1768,-192,1048,-32,39,-11
9420,-1800,-200,1040,-30,42,-9
9425,-1816,-200,1016,-28,44,-8
9430,-1800,-200,1008,-25,40,-8
9435,-1792,-168,1008,-21,39,-7
9440,-1784,-184,984,-16,32,-5
9445,-1792,-192,968,-12,24,-4
9450,-1800,-168,984,-12,20,-4
9455,-1832,-152,1008,-13,18,-1
9460,-1816,-192,1024,-16,17,-1
9465,-1832,-160,984,-20,13,1
9470,-1824,-144,968,-23,13,3
9475,-1816,-160,1040,-29,12,4
9480,-1816,-152,1016,-33,15,5
9485,-1808,-152,984,-41,19,6
9490,-1816,-152,1016,-48,21,7
9495,-1832,-160,1008,-55,24,7
9500,-1792,-160,1040,-60,24,9
9505,-1832,-168,1016,-62,24,9
9510,-1808,-208,1040,-63,27,10
9515,-1808,-152,984,-63,29,9
9520,-1824,-184,1040,-64,30,9
9525,-1808,-184,1024,-60,31,8
9530,-1816,-160,1016,-58,33,10
9535,-1800,-216,1032,-56,38,9
9540,-1824,-168,1016,-54,40,7
9545,-1800,-184,984,-50,45,7
9550,-1808,-192,1032,-46,47,6
9555,-1808,-200,1000,-42,49,5
9560,-1808,-176,992,-35,48,5
9565,-1784,-192,1008,-29,45,3
9570,-1816,-184,1024,-23,45,3
9575,-1800,-168,1024,-20,43,1
9580,-1824,-176,992,-16,44,0
9585,-1824,-168,1032,-12,48,1
9590,-1792,-160,984,-12,50,2
9595,-1808,-168,1000,-14,50,3
9600,-1816,-176,1016,-15,53,2
9605,-1824,-184,1016,-16,54,5
9610,-1808,-184,1000,-18,54,5
9615,-1840,-168,976,-21,55,5
9620,-1832,-184,1000,-22,54,5
9625,-1840,-184,1000,-22,51,4
9630,-1840,-160,992,-22,49,4
9635,-1840,-184,984,-22,46,3
9640,-1840,-184,976,-22,43,5
9645,-1824,-160,984,-22,41,5
9650,-1816,-184,992,-21,41,5
9655,-1816,-184,992,-21,40,6
9660,-1848,-160,976,-19,40,5
9665,-1840,-160,976,-20,39,5
9670,-1824,-208,992,-20,36,3
9675,-1832,-184,976,-17,34,2
9680,-1808,-184,1008,-16,32,1
9685,-1832,-192,992,-13,28,1
9690,-1824,-184,960,-12,26,-1
9695,-1784,-192,968,-13,25,-1
9700,-1800,-184,1008,-11,25,-2
9705,-1824,-160,960,-11,25,-1
9710,-1840,-168,960,-13,25,-2
9715,-1832,-184,960,-11,27,-1
9720,-1816,-184,944,-9,27,-2
9725,-1824,-200,1008,-5,28,-3
9730,-1824,-184,976,0,28,-3
9735,-1816,-176,992,4,26,-4
9740,-1816,-216,976,9,24,-4
9745,-1816,-208,968,13,22,-3
9750,-1808,-224,984,19,18,-3
9755,-1808,-192,1032,23,13,-2
9760,-1824,-200,984,27,11,-3
9765,-1856,-184,992,32,10,-3
9770,-1832,-176,1024,34,11,-2
9775,-1824,-192,1016,34,10,-2
9780,-1816,-184,976,34,11,-2
9785,-1816,-176,1000,33,11,-2
9790,-1824,-192,1000,32,11,-2
9795,-1824,-168,992,30,13,-5
9800,-1816,-184,1000,29,14,-6
9805,-1816,-184,976,28,12,-5
9810,-1824,-184,968,26,13,-6
9815,-1832,-224,992,27,14,-6
9820,-1792,-200,976,27,14,-6
9825,-1832,-184,960,29,13,-8
9830,-1824,-200,984,31,16,-8
9835,-1832,-192,976,32,14,-7
9840,-1816,-200,976,34,13,-7
9845,-1824,-216,984,36,13,-6
9850,-1816,-184,992,37,13,-6
9855,-1808,-200,992,39,13,-5
9860,-1840,-176,976,41,14,-7
9865,-1840,-184,968,45,14,-7
9870,-1840,-192,976,47,13,-6
9875,-1824,-192,976,48,12,-5
9880,-1816,-184,984,51,10,-9
9885,-1784,-144,976,51,10,-9
9890,-1824,-192,984,51,11,-9
9895,-1832,-184,968,52,10,-8
9900,-1816,-184,1008,53,9,-10
9905,-1848,-176,968,55,9,-10
9910,-1832,-200,968,55,10,-11
9915,-1840,-168,968,55,10,-12
9920,-1856,-184,1016,55,11,-11
9925,-1816,-168,960,54,10,-11
9930,-1800,-184,1000,51,9,-12
9935,-1816,-184,1008,51,9,-10
9940,-1824,-192,1000,49,10,-11
9945,-1832,-184,1008,48,12,-10
9950,-1808,-168,1000,46,11,-9
9955,-1832,-192,976,46,12,-11
9960,-1808,-184,1000,47,11,-11
9965,-1832,-184,1032,46,11,-12
9970,-1816,-176,1008,48,12,-11
9975,-1840,-192,960,47,11,-11
9980,-1816,-168,960,48,10,-11
9985,-1816,-216,976,49,10,-11
9990,-1816,-200,976,49,11,-11
9995,-1800,-184,984,49,12,-11
10000,-1784,-208,960,49,11,-9
10005,-1816,-216,968,51,11,-9
10010,-1800,-176,968,51,11,-9
10015,-1800,-184,992,54,11,-9
10020,-1832,-184,1016,54,11,-9
10025,-1792,-176,968,55,10,-10
10030,-1840,-176,984,56,7,-11
10035,-1832,-200,984,56,7,-11
10040,-1832,-200,992,56,5,-10
10045,-1840,-192,984,56,3,-12
10050,-1872,-160,992,56,3,-11
10055,-1840,-184,976,57,2,-12
10060,-1808,-192,976,57,2,-12
10065,-1816,-192,984,59,1,-11
10070,-1832,-176,976,62,3,-13
10075,-1816,-176,968,62,2,-13
10080,-1816,-176,976,62,5,-13
10085,-1832,-192,992,62,6,-14
10090,-1824,-184,960,62,7,-11
10095,-1832,-176,984,65,7,-10
10100,-1824,-200,976,68,7,-11
10105,-1816,-192,1024,71,8,-8
10110,-1824,-192,1000,74,9,-8
10115,-1824,-200,1008,77,9,-9
10120,-1816,-184,976,82,9,-9
10125,-1824,-200,1000,85,9,-7
10130,-1808,-192,1016,88,10,-6
10135,-1832,-176,1040,92,10,-7
10140,-1808,-184,976,93,11,-7
10145,-1808,-200,1016,93,10,-8
10150,-1816,-184,1000,93,12,-6
10155,-1824,-176,992,94,13,-8
10160,-1800,-168,1008,94,13,-8
10165,-1816,-168,1016,91,16,-9
10170,-1808,-168,1016,88,16,-8
10175,-1808,-192,992,85,18,-9
10180,-1800,-192,1008,80,18,-9
10185,-1832,-176,1008,77,20,-9
10190,-1816,-184,1000,73,20,-9
10195,-1808,-176,992,70,20,-9
10200,-1832,-176,976,67,20,-8
10205,-1832,-192,1008,67,23,-7
10210,-1816,-200,1176,67,21,-7
10215,-1832,-152,992,69,20,-7
10220,-1840,-192,992,69,19,-11
10225,-1848,-176,992,72,17,-12
10230,-1856,-168,1000,75,16,-13
10235,-1832,-184,1008,78,14,-14
10240,-1840,-176,984,82,13,-16
10245,-1848,-192,1000,86,11,-15
10250,-1824,-192,1000,88,9,-17
10255,-1800,-184,992,90,9,-19
10260,-1832,-192,960,93,10,-20
10265,-1808,-184,976,96,8,-19
10270,-1840,-184,1008,96,7,-21
10275,-1848,-184,1000,97,5,-19
10280,-1816,-184,976,96,1,-19
10285,-1816,-176,976,95,1,-19
10290,-1824,-192,960,92,0,-18
10295,-1840,-168,1000,90,-1,-16
10300,-1824,-176,984,88,-2,-18
10305,-1800,-200,1024,87,-1,-17
10310,-1824,-176,976,86,0,-15
10315,-1832,-192,1024,85,1,-16
10320,-1816,-192,968,88,4,-17
10325,-1864,-152,992,91,4,-15
10330,-1832,-168,944,96,3,-17
10335,-1800,-200,1000,100,-2,-16
10340,-1824,-168,1008,103,-6,-17
10345,-1832,-184,968,105,-9,-14
10350,-1824,-184,976,106,-10,-14
10355,-1792,-192,1016,106,-12,-12
10360,-1824,-200,992,107,-12,-11
10365,-1808,-192,1024,106,-14,-11
10370,-1768,-200,1008,104,-15,-8
10375,-1832,-144,1000,102,-17,-9
10380,-1816,-160,1008,102,-20,-8
10385,-1840,-136,984,100,-19,-6
10390,-1848,-168,1016,100,-19,-9
10395,-1832,-160,984,99,-18,-9
10400,-1800,-168,1000,99,-17,-9
10405,-1840,-176,1024,98,-15,-10
10410,-1808,-184,1016,98,-11,-8
10415,-1824,-160,1024,96,-12,-11
10420,-1800,-176,1008,95,-12,-10
10425,-1824,-168,1000,95,-9,-11
10430,-1776,-176,1024,94,-6,-12
10435,-1824,-144,1024,94,-5,-14
10440,-1808,-168,1008,92,-3,-13
10445,-1816,-160,1000,94,-1,-13
10450,-1800,-176,1016,93,1,-14
10455,-1808,-152,1032,93,2,-13
10460,-1824,-160,1016,91,2,-14
10465,-1816,-160,1024,89,3,-15
10470,-1808,-160,1008,88,4,-18
10475,-1832,-176,1008,87,4,-18
10480,-1808,-160,1008,84,5,-16
10485,-1808,-160,1000,84,5,-15
10490,-1832,-168,1008,82,2,-16
10495,-1840,-160,1032,81,3,-16
10500,-1832,-184,992,79,2,-18
10505,-1792,-208,1000,78,2,-17
10510,-1832,-152,1000,80,3,-18
10515,-1816,-184,1016,78,2,-18
10520,-1808,-168,992,77,2,-16
10525,-1832,-168,968,75,1,-17
10530,-1816,-160,1000,76,1,-17
10535,-1808,-184,1016,76,0,-16
10540,-1840,-136,1016,78,-2,-16
10545,-1792,-192,1000,80,-5,-18
10550,-1832,-160,1000,81,-7,-18
10555,-1824,-176,1000,83,-9,-17
10560,-1832,-128,992,87,-10,-17
10565,-1816,-168,992,89,-13,-19
10570,-1832,-168,1000,89,-12,-19
10575,-1840,-168,1016,89,-13,-16
10580,-1816,-168,1040,88,-14,-16
10585,-1832,-176,1008,83,-14,-15
10590,-1800,-184,1008,81,-15,-17
10595,-1824,-152,992,76,-15,-16
10600,-1824,-160,1016,76,-13,-15
10605,-1832,-160,1016,74,-10,-14
10610,-1824,-168,992,72,-10,-15
10615,-1808,-152,1024,72,-6,-15
10620,-1832,-176,992,72,-6,-15
10625,-1824,-144,1016,70,-7,-16
10630,-1824,-184,1008,69,-8,-17
10635,-1824,-184,1024,71,-8,-16
10640,-1824,-192,1000,74,-7,-14
10645,-1800,-168,1008,75,-9,-14
10650,-1808,-184,1032,77,-10,-13
10655,-1824,-168,1008,80,-11,-14
10660,-1816,-176,1008,83,-11,-15
10665,-1800,-184,1024,86,-13,-15
10670,-1824,-144,1040,89,-14,-12
10675,-1824,-168,1008,90,-14,-12
10680,-1808,-160,1016,92,-13,-14
10685,-1808,-144,1040,93,-13,-15
10690,-1784,-168,1008,94,-13,-13
10695,-1800,-168,1040,96,-13,-13
10700,-1824,-160,1016,98,-13,-15
10705,-1792,-184,1024,99,-10,-14
10710,-1800,-152,1024,98,-8,-13
10715,-1808,-160,1016,100,-8,-15
10720,-1800,-176,1032,100,-6,-15
10725,-1816,-152,1024,100,-4,-14
10730,-1776,-176,1032,99,-2,-13
10735,-1808,-184,1000,98,-1,-12
10740,-1792,-184,1032,98,2,-13
10745,-1824,-152,1032,96,3,-12
10750,-1800,-168,1048,95,5,-12
10755,-1792,-152,992,94,8,-12
10760,-1784,-152,1048,93,10,-13
10765,-1800,-144,1056,92,10,-11
10770,-1808,-136,1040,89,12,-12
10775,-1800,-120,1024,87,14,-9
10780,-1792,-152,1040,86,15,-11
10785,-1792,-184,1040,85,18,-12
10790,-1824,-144,1040,84,20,-13
10795,-1808,-168,992,82,23,-11
10800,-1792,-152,1024,80,25,-11
10805,-1816,-136,1000,77,27,-12
10810,-1808,-152,1024,75,28,-12
10815,-1792,-144,1024,73,30,-13
10820,-1816,-152,1000,72,30,-11
10825,-1824,-136,1040,69,32,-10
10830,-1808,-136,1032,67,33,-12
10835,-1808,-152,1032,65,31,-13
10840,-1824,-152,992,63,30,-11
10845,-1816,-176,1016,61,31,-13
10850,-1800,-144,1048,59,29,-14
10855,-1816,-160,1024,59,28,-14
10860,-1808,-160,1016,57,26,-12
10865,-1808,-144,1032,57,26,-12
10870,-1792,-168,1000,56,24,-12
10875,-1848,-136,1008,53,23,-13
10880,-1800,-128,984,53,22,-13
10885,-1840,-152,1000,53,19,-15
10890,-1808,-152,992,52,17,-12
10895,-1816,-168,992,52,16,-13
10900,-1808,-184,992,54,14,-12
10905,-1800,-176,968,55,11,-11
10910,-1800,-136,1000,56,10,-13
10915,-1824,-160,1032,56,10,-14
10920,-1824,-160,984,57,9,-14
10925,-1808,-160,1008,57,8,-13
10930,-1800,-160,1016,58,6,-14
10935,-1808,-168,984,59,5,-13
10940,-1824,-176,1024,60,3,-12
10945,-1832,-160,1032,60,0,-11
10950,-1824,-184,1032,61,0,-12
10955,-1832,-152,1016,61,-2,-12
10960,-1816,-168,1008,64,-3,-10
10965,-1824,-168,992,67,-2,-11
10970,-1824,-168,1000,69,-2,-13
10975,-1816,-160,1048,68,-2,-12
10980,-1816,-152,1008,67,-1,-13
10985,-1816,-168,1048,68,-1,-12
10990,-1816,-136,1040,68,-1,-10
10995,-1808,-160,1024,70,-1,-12
11000,-1816,-136,1032,70,-1,-11
11005,-1792,-168,1000,71,-2,-11
11010,-1784,-152,1016,73,-3,-11
11015,-1824,-168,1040,73,-3,-12
11020,-1808,-136,1000,74,-1,-14
11025,-1824,-168,1032,75,1,-12
11030,-1808,-136,1040,74,1,-12
11035,-1808,-152,1000,72,3,-11
11040,-1800,-144,1024,70,5,-9
11045,-1816,-136,1000,67,5,-8
11050,-1776,-176,1040,65,6,-7
11055,-1808,-160,1032,64,6,-7
11060,-1792,-144,1040,63,6,-7
11065,-1824,-144,1048,63,6,-8
11070,-1808,-168,1032,64,8,-9
11075,-1792,-136,1072,63,7,-6
11080,-1784,-160,1024,61,8,-7
11085,-1816,-136,1024,62,6,-5
11090,-1816,-160,1040,62,7,-7
11095,-1824,-144,1032,61,7,-8
11100,-1856,-152,1064,60,8,-7
11105,-1816,-136,1032,58,9,-6
11110,-1824,-136,1008,57,10,-8
11115,-1824,-136,1008,55,10,-10
11120,-1832,-128,1016,56,11,-12
11125,-1824,-168,1016,56,10,-11
11130,-1808,-168,992,55,10,-11
11135,-1824,-168,1000,56,12,-11
11140,-1832,-160,1008,57,11,-14
11145,-1808,-160,1008,60,11,-15
11150,-1816,-160,1008,62,10,-15
11155,-1840,-120,1008,65,11,-15
11160,-1816,-160,1056,68,9,-15
11165,-1816,-168,1024,70,7,-15
11170,-1840,-152,1016,72,6,-14
11175,-1816,-168,1032,71,5,-12
11180,-1816,-160,1016,72,5,-12
11185,-1808,-160,1040,70,6,-11
11190,-1792,-168,1048,67,8,-11
11195,-1800,-96,1024,64,9,-13
11200,-1808,-176,1048,63,12,-11
11205,-1816,-176,1056,64,13,-11
11210,-1800,-168,992,67,13,-11
11215,-1808,-152,992,69,12,-11
11220,-1816,-144,1016,72,9,-12
11225,-1840,-128,1000,76,5,-13
11230,-1832,-144,976,77,3,-13
11235,-1832,-128,1008,79,1,-10
11240,-1824,-160,1000,79,-1,-12
11245,-1880,-232,1088,80,-2,-11
11250,-1808,-128,1032,79,-1,-11
11255,-1808,-120,1000,78,-1,-8
11260,-1824,-136,1008,75,-2,-8
11265,-1800,-136,1000,72,-2,-10
11270,-1824,-144,1008,70,-4,-9
11275,-1792,-152,1040,68,-5,-9
11280,-1808,-144,1040,65,-7,-12
11285,-1816,-144,1040,65,-7,-11
11290,-1832,-152,1008,63,-7,-10
11295,-1808,-176,1040,62,-8,-11
11300,-1816,-152,1008,59,-7,-11
11305,-1792,-152,1056,56,-6,-11
11310,-1784,-160,1024,54,-4,-12
11315,-1808,-160,1040,53,-1,-12
11320,-1784,-168,1032,52,4,-13
11325,-1808,-128,1008,50,5,-13
11330,-1816,-160,1040,49,7,-12
11335,-1784,-152,1048,50,9,-13
11340,-1808,-136,1024,51,8,-13
11345,-1792,-168,1024,51,10,-13
11350,-1808,-160,1008,53,9,-12
11355,-1800,-176,1040,54,8,-13
11360,-1800,-192,1056,56,8,-12
11365,-1792,-136,1032,57,6,-13
11370,-1808,-136,1040,58,5,-12
11375,-1832,-152,1048,60,6,-10
11380,-1808,-144,1064,59,8,-11
11385,-1800,-168,1032,59,11,-12
11390,-1792,-152,1056,56,14,-12
11395,-1808,-176,1024,55,15,-12
11400,-1824,-144,1024,53,15,-11
11405,-1808,-168,1024,50,17,-11
11410,-1808,-168,1024,50,18,-11
11415,-1824,-152,1032,48,18,-10
11420,-1800,-136,1032,48,17,-9
11425,-1824,-152,1008,47,16,-9
11430,-1816,-152,1016,45,16,-10
11435,-1824,-168,1016,44,15,-8
11440,-1800,-160,984,44,15,-7
11445,-1816,-160,984,42,15,-9
11450,-1816,-152,1008,39,16,-10
11455,-1808,-152,992,40,16,-8
11460,-1808,-128,1056,41,14,-8
11465,-1824,-128,1024,41,13,-8
11470,-1816,-144,1008,42,11,-8
11475,-1808,-160,1040,44,8,-9
11480,-1808,-152,1056,47,9,-10
11485,-1816,-144,1032,48,10,-9
11490,-1808,-152,1048,50,10,-9
11495,-1816,-144,1016,50,12,-9
11500,-1816,-152,1032,50,13,-11
11505,-1808,-160,1008,52,12,-11
11510,-1808,-168,1064,55,13,-10
11515,-1800,-160,1024,58,14,-10
11520,-1816,-176,1024,62,13,-11
11525,-1816,-168,1032,64,15,-11
11530,-1816,-144,1016,66,14,-11
11535,-1816,-152,1032,67,14,-11
11540,-1800,-136,1008,66,11,-13
11545,-1808,-144,1040,65,10,-10
11550,-1808,-144,1024,65,9,-12
11555,-1808,-152,1024,63,8,-12
11560,-1792,-160,1040,60,8,-12
11565,-1800,-160,1040,60,7,-11
11570,-1792,-152,1032,57,7,-11
11575,-1800,-160,1008,56,5,-11
11580,-1816,-144,1008,55,4,-12
11585,-1784,-128,1008,55,3,-12
11590,-1808,-152,1016,55,2,-11
11595,-1808,-152,1032,57,2,-12
11600,-1824,-168,1040,58,1,-12
11605,-1800,-144,1016,59,0,-11
11610,-1792,-168,1040,60,1,-11
11615,-1816,-144,1016,61,2,-12
11620,-1792,-160,1040,63,2,-12
11625,-1824,-144,1048,64,2,-13
11630,-1792,-160,1056,66,1,-12
11635,-1800,-168,1040,69,2,-10
11640,-1800,-128,1016,70,0,-11
11645,-1792,-168,1032,70,2,-11
11650,-1800,-160,1024,70,2,-11
11655,-1792,-128,1024,70,3,-12
11660,-1800,-144,1032,70,3,-11
11665,-1800,-136,1016,69,2,-10
11670,-1816,-128,1056,67,3,-11
11675,-1800,-176,1064,64,5,-10
11680,-1800,-152,1008,64,6,-13
11685,-1832,-144,1016,61,7,-12
11690,-1800,-136,1024,59,9,-14
11695,-1808,-152,1048,57,10,-12
11700,-1808,-128,1016,57,9,-12
11705,-1808,-152,1040,55,10,-10
11710,-1808,-168,1048,54,11,-12
11715,-1784,-152,1024,54,11,-14
11720,-1808,-128,1016,54,11,-12
11725,-1800,-152,1048,53,11,-14
11730,-1808,-152,1048,55,11,-14
11735,-1784,-168,1040,58,12,-13
11740,-1816,-152,1000,57,11,-12
11745,-1816,-128,1016,56,10,-11
11750,-1800,-128,1032,57,11,-10
11755,-1808,-160,1024,57,12,-11
11760,-1792,-144,1024,58,12,-10
11765,-1816,-152,1008,61,11,-11
11770,-1816,-144,1024,60,9,-10
11775,-1784,-152,1008,61,8,-10
11780,-1816,-152,1016,65,6,-12
11785,-1800,-160,1032,66,6,-11
11790,-1816,-168,1024,67,6,-9
11795,-1792,-160,1024,68,6,-10
11800,-1824,-136,1032,67,7,-11
11805,-1792,-144,1008,67,6,-10
11810,-1800,-144,1032,66,8,-11
11815,-1800,-152,976,64,8,-10
11820,-1808,-136,1048,63,8,-11
11825,-1776,-160,1016,62,9,-9
11830,-1792,-160,1048,62,9,-10
11835,-1824,-136,1000,60,8,-11
11840,-1792,-152,1032,61,8,-10
11845,-1800,-152,1024,61,7,-11
11850,-1800,-144,1032,62,6,-10
11855,-1800,-168,1024,62,7,-11
11860,-1784,-184,1040,63,7,-10
11865,-1800,-160,1024,64,6,-12
11870,-1792,-152,1032,63,7,-11
11875,-1792,-176,1024,64,8,-12
11880,-1800,-128,1040,64,8,-12
11885,-1800,-152,1032,65,8,-13
11890,-1792,-144,1032,66,10,-15
11895,-1792,-136,1048,67,8,-15
11900,-1736,-168,1096,66,8,-15
11905,-1808,-168,1016,67,5,-15
11910,-1824,-136,1016,67,4,-14
11915,-1816,-152,1024,65,5,-12
11920,-1808,-176,1032,64,5,-12
11925,-1808,-144,1056,63,4,-12
11930,-1808,-136,1048,62,5,-11
11935,-1784,-136,1040,60,3,-10
11940,-1792,-152,1048,59,5,-9
11945,-1808,-128,1032,59,6,-9
11950,-1832,-144,1040,57,7,-10
11955,-1832,-120,1072,56,6,-9
11960,-1808,-144,1032,56,6,-8
11965,-1808,-136,1072,56,6,-8
11970,-1808,-144,1016,56,7,-9
11975,-1800,-144,1056,57,6,-9
11980,-1800,-184,1032,56,5,-8
11985,-1800,-152,1064,57,4,-10
11990,-1792,-152,992,57,5,-10
11995,-1808,-152,1024,57,4,-9
12000,-1800,-152,1048,54,2,-11
12005,-1808,-136,1024,55,3,-12
12010,-1800,-152,1032,58,5,-12
12015,-1816,-152,1008,60,6,-15
12020,-1784,-160,1040,60,9,-14
12025,-1808,-152,1032,63,9,-15
12030,-1776,-152,1040,66,11,-15
12035,-1784,-152,1032,66,11,-16
12040,-1784,-152,1032,67,11,-16
12045,-1800,-144,1048,69,9,-15
12050,-1832,-112,1024,69,10,-15
12055,-1792,-176,1024,66,10,-14
12060,-1800,-136,1024,65,8,-13
12065,-1808,-200,1080,62,9,-13
12070,-1784,-176,1064,61,10,-13
12075,-1792,-160,1016,62,11,-11
12080,-1816,-152,1016,64,13,-12
12085,-1800,-160,1008,68,12,-12
12090,-1816,-168,1008,72,11,-12
12095,-1816,-136,1040,77,7,-13
12100,-1808,-152,1024,82,5,-12
12105,-1800,-136,1024,86,4,-11
12110,-1800,-160,1024,89,2,-11
12115,-1808,-152,1008,92,2,-9
12120,-1776,-144,1032,96,-1,-8
12125,-1808,-96,1024,97,-1,-9
12130,-1824,-112,1000,96,-4,-8
12135,-1800,-128,1032,94,-7,-12
12140,-1816,-168,1008,95,-4,-12
12145,-1800,-112,1040,95,-2,-9
12150,-1800,-128,1032,90,-2,-10
12155,-1792,-128,1064,90,-4,-12
12160,-1792,-144,1016,90,-2,-11
12165,-1792,-144,1072,89,-2,-11
12170,-1784,-128,1048,84,-1,-12
12175,-1800,-144,1032,80,0,-11
12180,-1792,-128,1048,76,0,-10
12185,-1792,-136,1064,72,2,-9
12190,-1808,-128,1040,68,3,-11
12195,-1824,-144,1016,65,5,-12
12200,-1808,-128,1032,62,5,-13
12205,-1808,-136,1064,59,6,-13
12210,-1800,-144,1040,57,8,-11
12215,-1784,-136,1064,56,9,-13
12220,-1808,-168,1024,56,10,-14
12225,-1784,-160,1040,56,8,-12
12230,-1808,-136,1048,57,9,-12
12235,-1800,-144,1064,59,9,-14
12240,-1800,-144,1008,60,8,-15
12245,-1784,-160,1072,61,6,-14
12250,-1800,-152,1088,63,4,-15
12255,-1784,-144,1032,66,5,-16
12260,-1800,-144,1008,66,5,-13
12265,-1792,-152,1024,66,6,-15
12270,-1808,-136,1040,63,7,-15
12275,-1808,-144,1000,62,7,-14
12280,-1784,-152,1048,61,7,-14
12285,-1792,-152,1048,60,6,-14
12290,-1784,-144,1056,58,7,-13
12295,-1808,-144,1040,55,6,-12
12300,-1792,-168,1056,56,6,-13
12305,-1808,-152,1048,56,4,-14
12310,-1776,-160,1032,55,3,-14
12315,-1776,-136,1016,53,1,-14
12320,-1816,-144,1048,50,1,-14
12325,-1816,-136,1032,50,2,-14
12330,-1808,-128,1032,50,3,-13
12335,-1792,-176,1040,49,2,-11
12340,-1800,-144,1040,50,3,-13
12345,-1800,-144,1040,53,3,-11
12350,-1816,-120,1040,52,2,-10
12355,-1824,-128,1032,52,1,-9
12360,-1808,-144,1032,53,-1,-8
12365,-1784,-168,1040,48,0,-4
12370,-1792,-152,1048,47,-2,-3
12375,-1808,-144,1064,51,-1,-8
12380,-1776,-144,1024,57,0,-13
12385,-1768,-168,1088,62,1,-11
12390,-1704,-160,1056,67,3,-11
12395,-1792,-168,1048,70,4,-13
12400,-1784,-136,1032,73,7,-12
12405,-1800,-136,1024,75,7,-12
12410,-1784,-152,1032,77,7,-11
12415,-1792,-128,1032,79,7,-12
12420,-1800,-128,1048,79,7,-13
12425,-1800,-112,1056,78,6,-13
12430,-1816,-128,1064,77,5,-12
12435,-1800,-144,1040,74,6,-11
12440,-1808,-136,1056,71,5,-10
12445,-1768,-144,1056,67,5,-10
12450,-1784,-144,1056,64,5,-9
12455,-1776,-184,1048,62,4,-9
12460,-1792,-136,1056,59,7,-9
12465,-1792,-120,1048,57,7,-7
12470,-1784,-152,1032,55,7,-6
12475,-1784,-160,1040,52,6,-3
12480,-1816,-136,1072,51,6,-2
12485,-1776,-120,1048,53,6,-4
12490,-1784,-152,1072,58,7,-8
12495,-1784,-136,1048,60,9,-8
12500,-1784,-144,1048,62,8,-11
12505,-1792,-160,1080,63,10,-10
12510,-1800,-136,1056,63,11,-11
12515,-1792,-136,1064,62,10,-13
12520,-1800,-128,1032,60,11,-11
12525,-1792,-128,1032,58,12,-11
12530,-1760,-144,1064,57,11,-11
12535,-1784,-152,1056,55,12,-11
12540,-1800,-144,1032,54,12,-11
12545,-1800,-160,1032,52,11,-11
12550,-1768,-120,1032,50,11,-10
12555,-1792,-120,1096,48,11,-12
12560,-1800,-128,1040,48,11,-12
12565,-1792,-120,1056,47,11,-11
12570,-1792,-152,1032,47,11,-11
12575,-1792,-144,1032,48,10,-11
12580,-1816,-128,1040,49,11,-13
12585,-1824,-104,1072,49,11,-13
12590,-1792,-168,1048,50,11,-13
12595,-1816,-144,1040,48,11,-11
12600,-1792,-136,1040,48,12,-11
12605,-1824,-128,1024,49,12,-11
12610,-1800,-152,1048,49,12,-11
12615,-1816,-144,1072,51,11,-11
12620,-1808,-136,1056,52,9,-12
12625,-1800,-128,1024,52,8,-13
12630,-1784,-136,1032,53,8,-13
12635,-1808,-144,1040,53,9,-12
12640,-1792,-152,1048,53,9,-14
12645,-1808,-128,1024,52,9,-13
12650,-1800,-144,1048,52,10,-11
12655,-1800,-112,1048,53,10,-12
12660,-1776,-152,1040,51,10,-12
12665,-1776,-160,1064,52,11,-12
12670,-1808,-136,1024,51,11,-12
12675,-1784,-152,1056,51,9,-12
12680,-1792,-160,1056,51,9,-11
12685,-1784,-160,1064,51,9,-13
12690,-1792,-128,1024,50,9,-11
12695,-1816,-128,1072,49,10,-9
12700,-1800,-128,1032,48,13,-9
12705,-1792,-136,1048,47,15,-9
12710,-1792,-160,1024,44,16,-10
12715,-1816,-136,1040,44,16,-8
12720,-1792,-160,1024,45,15,-8
12725,-1784,-144,1032,47,15,-7
12730,-1784,-160,1048,50,14,-7
12735,-1800,-152,1088,51,14,-7
12740,-1784,-144,1040,52,14,-9
12745,-1792,-144,1048,54,13,-8
12750,-1768,-152,1056,54,12,-7
12755,-1792,-136,1008,54,13,-9
12760,-1800,-128,1056,51,13,-10
12765,-1784,-152,1056,51,13,-10
12770,-1800,-136,1048,51,13,-9
12775,-1792,-168,1064,48,15,-9
12780,-1776,-160,1024,46,15,-11
12785,-1784,-136,1072,44,13,-10
12790,-1808,-168,1016,42,14,-9
12795,-1792,-128,1040,38,13,-9
12800,-1792,-136,1024,37,15,-9
12805,-1816,-144,1064,35,14,-10
12810,-1808,-152,1056,34,13,-9
12815,-1808,-144,1040,34,15,-8
12820,-1808,-144,1040,32,15,-8
12825,-1800,-128,1032,33,14,-9
12830,-1792,-136,1072,36,13,-8
12835,-1792,-152,1016,38,12,-8
12840,-1816,-160,1032,40,11,-9
12845,-1784,-128,1032,41,12,-10
12850,-1784,-128,1040,45,10,-8
12855,-1800,-176,1024,47,9,-10
12860,-1808,-144,1000,49,9,-10
12865,-1792,-152,1016,54,9,-11
12870,-1816,-136,1040,55,7,-12
12875,-1792,-136,1024,58,8,-14
12880,-1792,-88,1040,62,9,-16
12885,-1792,-168,1040,64,10,-15
12890,-1808,-120,1024,67,10,-15
12895,-1832,-144,1048,69,9,-16
12900,-1784,-152,1032,69,12,-16
12905,-1808,-128,1064,68,11,-15
12910,-1768,-144,1064,68,12,-15
12915,-1792,-176,1072,67,11,-15
12920,-1784,-144,1024,64,11,-14
12925,-1776,-168,1048,62,11,-12
12930,-1800,-136,1064,61,13,-12
12935,-1792,-136,1032,61,14,-11
12940,-1792,-160,1032,62,15,-10
12945,-1816,-96,1056,64,14,-13
12950,-1800,-176,1048,66,13,-10
12955,-1800,-120,1024,69,13,-11
12960,-1808,-120,1040,74,11,-10
12965,-1808,-152,1024,75,9,-11
12970,-1824,-120,1000,76,7,-8
12975,-1792,-160,1032,79,7,-9
12980,-1816,-144,1040,79,7,-7
12985,-1808,-128,1048,78,6,-7
12990,-1792,-80,1056,74,5,-6
12995,-1800,-120,1048,71,6,-7
13000,-1776,-144,1016,67,7,-6
13005,-1792,-144,1040,62,7,-7
13010,-1808,-128,1064,58,7,-7
13015,-1784,-144,1056,55,7,-9
13020,-1792,-128,1016,54,7,-9
13025,-1768,-128,1048,50,9,-8
13030,-1776,-128,1064,49,9,-8
13035,-1776,-112,1072,47,8,-8
13040,-1800,-120,1032,44,8,-8
13045,-1768,-184,1072,42,8,-8
13050,-1808,-120,1032,40,11,-8
13055,-1776,-144,1048,41,13,-8
13060,-1800,-136,1024,42,11,-9
13065,-1784,-144,1048,43,13,-10
13070,-1784,-152,1040,46,14,-11
13075,-1776,-168,1072,49,15,-12
13080,-1792,-160,1040,50,15,-15
13085,-1776,-128,1048,51,14,-15
13090,-1784,-144,1040,53,15,-15
13095,-1800,-128,1056,53,16,-15
13100,-1792,-136,1072,55,17,-15
13105,-1776,-144,1056,55,16,-13
13110,-1784,-128,1048,52,16,-13
13115,-1808,-136,1064,52,15,-13
13120,-1784,-128,1056,49,15,-14
13125,-1800,-128,1056,47,15,-14
13130,-1800,-160,1072,47,16,-13
13135,-1776,-120,1032,45,15,-11
13140,-1792,-136,1024,43,14,-11
13145,-1824,-144,1064,40,14,-10
13150,-1800,-160,1040,39,14,-10
13155,-1800,-136,1072,36,14,-10
13160,-1792,-160,1080,37,12,-10
13165,-1792,-144,1048,36,11,-11
13170,-1816,-136,1024,36,10,-10
13175,-1800,-128,1048,36,11,-10
13180,-1776,-152,1032,37,12,-10
13185,-1824,-128,1048,36,12,-8
13190,-1808,-120,1072,38,11,-8
13195,-1808,-152,1048,38,10,-7
13200,-1792,-136,1064,40,11,-7
13205,-1800,-152,1048,39,11,-8
13210,-1808,-104,984,38,12,-6
13215,-1776,-160,1056,37,11,-6
13220,-1808,-136,1048,36,10,-7
13225,-1800,-136,1064,37,9,-8
13230,-1784,-136,1056,38,10,-7
13235,-1808,-152,1040,39,11,-7
13240,-1808,-152,1072,41,11,-10
13245,-1808,-136,1040,46,11,-10
13250,-1792,-152,1016,48,12,-10
13255,-1792,-128,1040,52,13,-10
13260,-1792,-136,1056,54,14,-9
13265,-1776,-160,1072,55,14,-10
13270,-1784,-128,1040,55,14,-9
13275,-1776,-120,1048,55,15,-8
13280,-1800,-144,1064,56,15,-9
13285,-1792,-136,1032,53,15,-9
13290,-1784,-128,1048,53,12,-8
13295,-1800,-136,1056,50,13,-8
13300,-1824,-144,1024,50,12,-6
13305,-1784,-112,1064,50,11,-8
13310,-1736,-176,1008,47,10,-8
13315,-1784,-144,1056,46,12,-7
13320,-1800,-144,1040,44,12,-5
13325,-1800,-152,1056,44,11,-7
13330,-1792,-144,1048,45,12,-8
13335,-1792,-152,1056,44,12,-9
13340,-1808,-136,1080,44,14,-9
13345,-1792,-144,1056,46,14,-9
13350,-1808,-144,1032,49,13,-11
13355,-1792,-136,1040,50,13,-10
13360,-1800,-144,1040,50,14,-9
13365,-1800,-160,1048,50,14,-9
13370,-1792,-160,1040,49,16,-8
13375,-1824,-136,1064,47,16,-9
13380,-1776,-128,1040,46,16,-8
13385,-1800,-144,1056,46,17,-10
13390,-1800,-120,1064,43,18,-8
13395,-1784,-112,1040,43,17,-7
13400,-1792,-128,1072,43,16,-8
13405,-1800,-104,1048,44,15,-9
13410,-1808,-120,1056,44,15,-10
13415,-1792,-128,1032,44,14,-9
13420,-1808,-128,1056,44,15,-10
13425,-1784,-144,1072,42,15,-9
13430,-1776,-136,1064,44,17,-10
13435,-1800,-144,1040,44,15,-10
13440,-1792,-176,1032,43,16,-10
13445,-1776,-136,1032,43,15,-9
13450,-1792,-128,1032,43,15,-12
13455,-1808,-128,1016,44,15,-12
13460,-1776,-152,1024,45,13,-12
13465,-1808,-152,1048,45,12,-11
13470,-1784,-144,1056,46,13,-10
13475,-1808,-152,1048,47,13,-11
13480,-1800,-136,1024,49,12,-12
13485,-1784,-160,1040,49,13,-12
13490,-1768,-144,1032,49,13,-12
13495,-1808,-128,1040,51,14,-12
13500,-1784,-152,1056,53,14,-13
13505,-1800,-128,1056,55,14,-14
13510,-1800,-136,1040,57,13,-13
13515,-1800,-160,1072,57,13,-13
13520,-1808,-152,1040,60,13,-13
13525,-1792,-152,1016,61,11,-13
13530,-1792,-152,1048,63,11,-15
13535,-1752,-192,1040,64,11,-13
13540,-1784,-152,1040,64,10,-13
13545,-1776,-152,1032,64,10,-12
13550,-1784,-128,1048,62,12,-13
13555,-1792,-136,1048,61,11,-11
13560,-1800,-120,1048,57,11,-10
13565,-1792,-120,1048,56,11,-10
13570,-1808,-136,1048,53,11,-10
13575,-1816,-136,1024,49,11,-9
13580,-1768,-160,1064,47,10,-8
13585,-1808,-144,1056,45,12,-7
13590,-1800,-144,1040,42,11,-6
13595,-1808,-152,1080,40,11,-5
13600,-1800,-128,1064,38,10,-4
13605,-1784,-136,1040,37,11,-4
13610,-1800,-128,1040,37,12,-7
13615,-1808,-160,1048,36,12,-5
13620,-1792,-152,1040,36,11,-5
13625,-1792,-152,1016,39,13,-4
13630,-1760,-160,1064,40,13,-5
13635,-1808,-112,1064,40,12,-5
13640,-1808,-112,1056,40,12,-6
13645,-1808,-128,1032,39,9,-4
13650,-1832,-136,1016,39,9,-4
13655,-1800,-112,1048,39,9,-6
13660,-1808,-128,1048,38,11,-7
13665,-1800,-152,1064,38,11,-8
13670,-1776,-152,1048,39,12,-8
13675,-1784,-136,1064,38,13,-10
13680,-1792,-128,1064,38,14,-11
13685,-1816,-136,1048,37,15,-11
13690,-1792,-144,1040,36,17,-10
13695,-1800,-128,1064,32,17,-12
13700,-1848,-120,1048,28,17,-9
13705,-1792,-152,1056,23,16,-8
13710,-1792,-120,1072,15,16,-9
13715,-1800,-112,1080,7,15,-7
13720,-1784,-160,1064,1,17,-4
13725,-1784,-152,1048,-6,20,-3
13730,-1792,-136,1088,-11,22,0
13735,-1792,-152,1096,-16,28,0
13740,-1784,-112,1048,-18,30,-3
13745,-1768,-160,1056,-18,32,-4
13750,-1800,-152,1016,-17,32,-3
13755,-1792,-144,1024,-16,31,-2
13760,-1776,-152,1040,-14,30,-3
13765,-1808,-144,1024,-12,32,-2
13770,-1800,-152,1032,-11,33,-2
13775,-1800,-176,1024,-11,32,1
13780,-1776,-160,1024,-13,32,2
13785,-1800,-160,1048,-15,32,2
13790,-1800,-136,1072,-17,31,1
13795,-1776,-152,1032,-20,31,4
13800,-1800,-160,1056,-22,32,3
13805,-1800,-136,1056,-23,31,2
13810,-1784,-144,1048,-24,32,2
13815,-1808,-136,1048,-27,32,3
13820,-1768,-152,1064,-27,31,3
13825,-1800,-128,1064,-29,32,2
13830,-1808,-168,1056,-31,35,1
13835,-1784,-136,1048,-33,35,4
13840,-1800,-152,1048,-36,37,3
13845,-1792,-152,1056,-38,39,2
13850,-1800,-160,1064,-40,41,2
13855,-1824,-152,1048,-41,42,3
13860,-1808,-160,1016,-41,42,2
13865,-1784,-160,1048,-40,43,0
13870,-1792,-152,1000,-39,44,0
13875,-1808,-168,1032,-39,46,-2
13880,-1776,-144,1056,-38,47,-1
13885,-1792,-160,1024,-36,48,-1
13890,-1784,-184,1040,-35,49,-1
13895,-1792,-144,1032,-35,47,-1
13900,-1792,-136,1056,-36,46,-2
13905,-1816,-176,1016,-38,47,0
13910,-1760,-160,1048,-40,48,0
13915,-1792,-152,1048,-41,49,0
13920,-1792,-160,1016,-41,48,1
13925,-1816,-144,1032,-42,48,1
13930,-1808,-160,1032,-41,48,2
13935,-1816,-168,1032,-43,46,4
13940,-1800,-168,1016,-43,45,3
13945,-1800,-176,1040,-42,43,3
13950,-1816,-152,1016,-41,42,5
13955,-1776,-176,1024,-41,40,5
13960,-1824,-136,992,-40,38,6
13965,-1800,-160,1024,-39,37,5
13970,-1832,-168,1032,-39,36,6
13975,-1808,-168,1032,-39,36,5
13980,-1824,-160,1040,-38,35,6
13985,-1808,-152,1024,-38,35,6
13990,-1824,-192,1016,-37,36,6
13995,-1832,-152,1016,-35,37,7
14000,-1816,-184,1024,-35,39,6
14005,-1800,-152,1008,-34,39,7
14010,-1800,-192,1008,-35,41,7
14015,-1824,-168,1048,-37,42,8
14020,-1776,-168,1016,-37,40,7
14025,-1808,-128,1064,-38,41,6
14030,-1808,-176,1040,-36,44,6
14035,-1800,-184,1008,-34,45,4
14040,-1816,-192,1032,-33,47,4
14045,-1816,-160,1016,-32,48,4
14050,-1832,-176,1000,-30,45,4
14055,-1824,-184,1016,-26,46,3
14060,-1800,-192,1040,-24,45,4
14065,-1800,-168,1000,-23,43,1
14070,-1824,-160,1016,-19,46,1
14075,-1808,-160,984,-17,46,1
14080,-1792,-192,1016,-17,48,1
14085,-1832,-144,1032,-16,45,1
14090,-1800,-184,1032,-17,43,2
14095,-1824,-160,1008,-19,40,3
14100,-1816,-184,1048,-19,41,1
14105,-1800,-184,1016,-18,41,4
14110,-1808,-176,1024,-17,39,3
14115,-1832,-168,1008,-18,38,3
14120,-1848,-176,1008,-17,36,4
14125,-1808,-200,1016,-14,34,5
14130,-1800,-168,1040,-13,35,3
14135,-1848,-152,1032,-12,34,4
14140,-1816,-176,1000,-8,34,2
14145,-1824,-168,1000,-6,32,2
14150,-1832,-168,1016,-3,34,-1
14155,-1824,-160,1016,-1,36,-2
14160,-1808,-184,992,-2,36,0
14165,-1808,-168,1008,0,35,0
14170,-1816,-168,1024,2,36,-1
14175,-1808,-152,1040,2,33,-1
14180,-1832,-152,1000,2,31,-1
14185,-1808,-176,1000,2,32,-4
14190,-1792,-152,936,2,32,-3
14195,-1824,-160,992,1,32,-3
14200,-1816,-176,1000,2,31,-1
14205,-1808,-176,992,3,30,-4
14210,-1824,-176,1048,4,31,-3
14215,-1824,-168,984,6,33,-4
14220,-1808,-168,1016,7,31,-4
14225,-1808,-192,1000,10,29,-3
14230,-1824,-160,992,13,27,-4
14235,-1840,-176,992,16,26,-4
14240,-1784,-176,1032,19,25,-6
14245,-1800,-208,992,22,25,-6
14250,-1824,-184,1016,24,24,-7
14255,-1824,-192,1000,27,24,-7
14260,-1824,-152,1040,28,22,-8
14265,-1816,-168,1000,29,23,-6
14270,-1816,-168,984,30,22,-8
14275,-1816,-184,984,30,24,-8
14280,-1840,-160,1024,30,25,-9
14285,-1824,-168,1040,29,27,-9
14290,-1824,-184,1016,30,27,-8
14295,-1784,-184,968,28,26,-9
14300,-1800,-160,1008,28,26,-8
14305,-1832,-176,992,25,24,-8
14310,-1792,-184,1000,26,23,-7
14315,-1824,-192,992,25,21,-7
14320,-1816,-160,1000,25,20,-5
14325,-1800,-184,1016,26,18,-5
14330,-1840,-184,992,26,18,-5
14335,-1824,-184,1008,29,17,-6
14340,-1832,-184,1016,31,17,-6
14345,-1808,-168,992,33,15,-8
14350,-1792,-184,1000,35,15,-8
14355,-1824,-176,1000,40,13,-7
14360,-1840,-192,1000,44,11,-9
14365,-1816,-176,1000,46,11,-10
14370,-1816,-176,984,49,11,-9
14375,-1816,-152,992,52,12,-10
14380,-1816,-184,1000,54,10,-9
14385,-1816,-176,984,55,9,-12
14390,-1800,-192,1008,57,7,-12
14395,-1816,-184,1000,60,6,-10
14400,-1832,-216,1024,61,7,-12
14405,-1792,-184,1000,65,6,-14
14410,-1808,-160,1000,68,7,-14
14415,-1832,-184,1000,73,6,-13
14420,-1824,-176,1000,76,6,-14
14425,-1808,-184,992,81,6,-16
14430,-1840,-176,984,82,7,-17
14435,-1808,-192,1008,87,6,-16
14440,-1800,-160,1016,89,5,-16
14445,-1848,-168,984,89,5,-16
14450,-1832,-184,1032,89,4,-15
14455,-1808,-184,1024,88,5,-14
14460,-1808,-168,1016,87,4,-12
14465,-1816,-184,1000,88,3,-13
14470,-1816,-192,1016,88,5,-14
14475,-1808,-176,1008,90,6,-14
14480,-1832,-168,1008,92,6,-12
14485,-1832,-160,984,95,5,-13
14490,-1808,-184,984,96,3,-12
14495,-1808,-160,1000,99,1,-12
14500,-1792,-144,1032,99,-1,-11
14505,-1824,-168,1000,101,-2,-11
14510,-1816,-184,1000,101,-1,-12
14515,-1800,-216,1080,100,-2,-12
14520,-1824,-176,1008,101,-3,-11
14525,-1816,-184,1000,102,-4,-10
14530,-1840,-168,1024,100,-4,-11
14535,-1816,-184,1032,100,-3,-11
14540,-1816,-184,1016,99,-3,-11
14545,-1808,-160,1008,99,-2,-12
14550,-1808,-168,1024,100,-3,-13
14555,-1816,-168,1040,99,-3,-14
14560,-1808,-192,1032,98,-2,-14
14565,-1816,-160,1024,98,-2,-15
14570,-1808,-168,1008,97,-1,-15
14575,-1832,-168,1024,95,1,-16
14580,-1800,-184,1032,94,2,-15
14585,-1816,-160,1000,94,4,-16
14590,-1808,-160,1040,94,4,-16
14595,-1816,-168,992,93,4,-18
14600,-1816,-152,1024,94,3,-18
14605,-1808,-152,1016,93,3,-20
14610,-1816,-152,1024,93,3,-20
14615,-1808,-184,1000,94,3,-20
14620,-1792,-168,1016,94,3,-21
14625,-1816,-168,1000,95,5,-21
14630,-1808,-176,1000,94,2,-20
14635,-1808,-168,1016,93,-1,-18
14640,-1808,-176,992,92,-2,-18
14645,-1816,-144,1000,92,0,-17
14650,-1816,-160,1024,91,-1,-18
14655,-1824,-160,1016,91,-3,-18
14660,-1832,-160,1008,90,-2,-17
14665,-1800,-184,1000,90,-3,-17
14670,-1816,-160,1024,90,-3,-18
14675,-1800,-176,1000,92,-3,-16
14680,-1848,-152,1032,93,-4,-17
14685,-1792,-168,1032,94,-4,-17
14690,-1816,-160,992,94,-5,-17
14695,-1816,-168,984,93,-6,-18
14700,-1808,-176,1040,95,-7,-18
14705,-1808,-144,1048,95,-8,-18
14710,-1808,-176,1024,97,-8,-18
14715,-1848,-160,1016,97,-9,-19
14720,-1824,-144,1048,97,-10,-19
14725,-1784,-168,984,97,-9,-19
14730,-1816,-168,976,95,-11,-19
14735,-1824,-176,1008,94,-10,-17
14740,-1816,-136,1040,91,-10,-15
14745,-1792,-184,1024,88,-8,-14
14750,-1800,-176,1040,84,-7,-16
14755,-1792,-168,1024,83,-6,-14
14760,-1792,-184,1008,81,-5,-13
14765,-1808,-192,1008,82,-3,-13
14770,-1808,-184,1008,83,-3,-15
14775,-1800,-168,1016,85,-3,-15
14780,-1800,-176,1016,87,-3,-15
14785,-1816,-176,1024,91,-4,-16
14790,-1808,-160,1016,93,-3,-18
14795,-1816,-160,1016,97,-3,-18
14800,-1816,-160,1040,98,-4,-18
14805,-1816,-160,1016,99,-6,-18
14810,-1784,-160,1016,101,-7,-16
14815,-1832,-144,1024,102,-8,-18
14820,-1808,-144,1008,103,-7,-17
14825,-1840,-152,1040,103,-8,-16
14830,-1824,-144,1016,103,-10,-17
14835,-1800,-160,1064,101,-10,-19
14840,-1776,-184,992,102,-10,-17
14845,-1824,-160,1016,103,-10,-17
14850,-1792,-168,1016,103,-10,-15
14855,-1776,-176,1032,102,-9,-16
14860,-1832,-160,1048,102,-8,-15
14865,-1840,-128,1008,102,-8,-17
14870,-1816,-160,1056,102,-7,-16
14875,-1792,-160,1040,102,-4,-17
14880,-1800,-168,1032,105,-2,-18
14885,-1800,-160,1056,104,-4,-19
14890,-1808,-144,1032,104,-2,-18
14895,-1808,-144,1032,104,0,-19
14900,-1808,-152,1064,104,1,-18
14905,-1808,-136,1032,103,0,-17
14910,-1816,-200,1024,102,1,-22
14915,-1808,-136,1032,100,-1,-21
14920,-1784,-152,1032,100,-1,-21
14925,-1800,-168,1016,99,0,-21
14930,-1808,-144,1016,98,0,-19
14935,-1800,-160,1032,98,0,-20
14940,-1800,-168,1016,98,-2,-20
14945,-1824,-128,1016,98,-3,-19
14950,-1792,-136,1016,98,-3,-19
14955,-1808,-152,1016,95,-3,-18
14960,-1816,-168,1040,95,-3,-19
14965,-1784,-152,1048,94,-4,-19
14970,-1800,-160,1032,95,-3,-17
14975,-1816,-160,992,94,-4,-16
14980,-1816,-144,1032,92,-2,-16
14985,-1808,-152,1008,91,-1,-16
14990,-1800,-168,1048,90,0,-16
14995,-1800,-136,1040,91,-2,-18
