timestamp,accel_x,accel_y,accel_z,gyro_x,gyro_y,gyro_z
0,72,-2192,-168,-19,76,-9
5,72,-2192,-184,-19,76,-8
10,64,-2168,-200,-18,79,-10
15,72,-2176,-184,-16,80,-6
20,88,-2168,-184,-16,80,-9
25,72,-2192,-112,-16,80,-7
30,40,-2168,-184,-15,81,-8
35,80,-2168,-176,-15,81,-5
40,72,-2176,-192,-15,81,-7
45,80,-2176,-208,-15,81,-6
50,64,-2192,-168,-13,80,-8
55,64,-2152,-192,-12,81,-6
60,48,-2168,-168,-12,83,-6
65,64,-2184,-192,-12,83,-5
70,56,-2192,-184,-10,84,-7
75,48,-2160,-200,-10,84,-5
80,64,-2184,-160,-8,84,-7
85,56,-2168,-184,-8,86,-6
90,56,-2184,-176,-6,87,-7
95,64,-2176,-192,-6,86,-5
100,64,-2168,-160,-5,85,-7
105,56,-2160,-168,-6,85,-5
110,72,-2192,-208,-7,84,-9
115,0,-2184,-168,-7,83,-5
120,88,-2136,-184,-9,83,-7
125,-16,-2200,-232,-6,83,-4
130,48,-2200,-224,-7,82,-7
135,72,-2104,-200,-6,80,-4
140,64,-2152,-264,-7,78,-5
145,24,-2200,-208,-7,79,-2
150,40,-2192,-96,-8,77,-5
155,72,-2136,-120,-8,75,-2
160,56,-2240,-216,-8,75,-5
165,64,-2160,-104,-9,73,-3
170,72,-2128,-184,-9,73,-5
175,24,-2168,-232,-10,71,-2
180,16,-2224,-224,-11,71,-5
185,16,-2160,-200,-12,68,-2
190,56,-2088,-224,-14,67,-3
195,128,-1992,-248,-15,64,0
200,48,-2168,-184,-14,63,-2
205,56,-2168,-200,-14,59,2
210,56,-2160,-176,-14,58,0
215,40,-2160,-192,-14,57,3
220,56,-2160,-184,-15,56,0
225,48,-2168,-176,-16,53,2
230,80,-2168,-200,-17,53,0
235,48,-2168,-184,-18,50,3
240,72,-2168,-152,-18,47,1
245,0,-2168,-128,-18,47,2
250,64,-2176,-168,-19,47,0
255,40,-2160,-160,-19,43,2
260,64,-2176,-176,-19,42,0
265,72,-2184,-168,-19,41,2
270,56,-2184,-176,-20,40,-1
275,72,-2184,-176,-21,39,2
280,48,-2160,-176,-21,38,-1
285,72,-2168,-192,-23,38,3
290,48,-2160,-176,-23,36,1
295,56,-2176,-168,-26,34,3
300,64,-2152,-184,-27,32,1
305,72,-2168,-192,-26,32,3
310,64,-2168,-184,-28,32,0
315,48,-2168,-192,-27,31,2
320,56,-2160,-176,-27,31,1
325,64,-2160,-168,-27,32,2
330,72,-2200,-176,-27,30,1
335,64,-2184,-176,-27,28,2
340,72,-2192,-168,-27,28,1
345,56,-2160,-160,-26,28,4
350,48,-2160,-200,-26,28,1
355,64,-2160,-176,-25,25,3
360,48,-2144,-192,-25,26,2
365,64,-2184,-200,-25,25,2
370,56,-2176,-176,-23,26,2
375,64,-2168,-200,-24,24,5
380,64,-2160,-176,-22,24,2
385,88,-2168,-200,-22,24,5
390,64,-2152,-176,-20,26,2
395,64,-2144,-176,-20,26,4
400,72,-2184,-184,-18,24,3
405,72,-2184,-184,-16,26,4
410,48,-2168,-160,-18,25,2
415,64,-2152,-200,-19,25,6
420,88,-2160,-184,-19,25,2
425,56,-2168,-168,-17,25,4
430,56,-2176,-144,-18,24,1
435,64,-2144,-192,-18,24,3
440,48,-2168,-152,-19,25,2
445,56,-2160,-184,-19,25,4
450,64,-2176,-160,-21,26,3
455,56,-2184,-184,-21,26,5
460,72,-2176,-184,-22,27,2
465,72,-2184,-184,-21,26,6
470,56,-2168,-184,-22,27,3
475,72,-2168,-152,-20,27,7
480,80,-2192,-152,-23,26,4
485,80,-2184,-176,-22,26,7
490,56,-2152,-200,-21,27,4
495,48,-2160,-176,-23,29,6
500,56,-2184,-216,-23,30,2
505,56,-2200,-192,-23,30,4
510,64,-2160,-192,-24,31,1
515,96,-2200,-192,-24,31,4
520,88,-2192,-168,-24,32,2
525,80,-2176,-200,-25,33,4
530,40,-2176,-208,-24,34,2
535,64,-2176,-200,-24,34,3
540,64,-2168,-208,-23,32,4
545,72,-2168,-208,-22,33,5
550,64,-2176,-184,-23,33,4
555,72,-2192,-208,-20,33,5
560,64,-2168,-192,-19,34,1
565,56,-2176,-208,-22,34,4
570,72,-2152,-192,-22,34,1
575,40,-2168,-216,-23,35,4
580,72,-2184,-208,-23,35,3
585,40,-2160,-176,-24,36,6
590,64,-2160,-208,-25,37,2
595,72,-2168,-208,-26,36,4
600,80,-2192,-216,-27,36,3
605,80,-2200,-200,-28,35,7
610,80,-2168,-200,-28,35,6
615,72,-2160,-176,-28,34,7
620,64,-2184,-184,-29,32,7
625,48,-2160,-216,-30,32,8
630,64,-2168,-184,-30,32,5
635,64,-2176,-184,-30,32,6
640,40,-2168,-184,-29,33,3
645,72,-2184,-192,-27,31,5
650,88,-2176,-184,-25,31,2
655,72,-2184,-192,-25,33,3
660,64,-2184,-216,-25,35,-1
665,40,-2160,-176,-24,37,1
670,72,-2168,-200,-25,39,0
675,72,-2160,-224,-26,37,2
680,80,-2184,-168,-24,38,0
685,72,-2160,-176,-25,39,1
690,88,-2168,-192,-24,40,-1
695,64,-2160,-176,-25,38,0
700,56,-2152,-184,-26,37,0
705,64,-2152,-176,-25,36,2
710,48,-2184,-208,-26,37,0
715,48,-2152,-208,-27,36,2
720,88,-2160,-168,-27,35,0
725,72,-2168,-200,-29,35,2
730,56,-2184,-200,-29,34,0
735,40,-2176,-176,-29,35,1
740,56,-2184,-200,-28,35,-1
745,64,-2200,-208,-27,36,1
750,64,-2160,-216,-26,37,-1
755,64,-2184,-200,-27,39,1
760,88,-2152,-184,-25,39,-2
765,56,-2176,-192,-24,37,0
770,56,-2176,-208,-23,38,-1
775,80,-2184,-192,-21,39,1
780,64,-2168,-240,-19,40,0
785,56,-2168,-224,-17,40,0
790,64,-2160,-192,-17,41,-2
795,32,-2176,-224,-14,41,-1
800,96,-2200,-200,-14,42,-2
805,80,-2176,-216,-13,42,-2
810,80,-2192,-248,-11,42,-3
815,64,-2184,-232,-10,42,-2
820,88,-2192,-232,-9,43,-4
825,64,-2208,-208,-8,43,-2
830,64,-2168,-208,-6,43,-2
835,56,-2200,-216,-4,44,-2
840,56,-2168,-168,-3,44,-5
845,56,-2200,-192,0,43,-2
850,64,-2200,-232,2,43,-4
855,64,-2192,-216,4,43,-3
860,48,-2200,-192,5,43,-4
865,64,-2160,-200,8,43,-5
870,56,-2208,-224,11,44,-5
875,56,-2184,-232,13,44,-5
880,80,-2176,-224,12,44,-7
885,64,-2168,-224,13,44,-6
890,96,-2184,-208,13,44,-9
895,56,-2176,-176,15,45,-8
900,48,-2176,-168,16,45,-11
905,56,-2168,-216,16,46,-9
910,48,-2160,-200,15,47,-11
915,80,-2192,-184,15,49,-10
920,72,-2160,-184,13,50,-12
925,80,-2192,-176,12,51,-12
930,56,-2160,-168,12,53,-11
935,72,-2160,-200,11,54,-10
940,56,-2168,-200,9,53,-12
945,64,-2176,-200,9,53,-10
950,32,-2168,-192,8,52,-10
955,56,-2176,-192,8,50,-8
960,56,-2192,-184,7,52,-9
965,56,-2152,-176,7,51,-9
970,64,-2152,-184,7,49,-9
975,32,-2152,-176,6,49,-7
980,48,-2152,-232,7,49,-7
985,40,-2152,-192,6,49,-7
990,48,-2152,-152,7,49,-7
995,56,-2160,-168,6,49,-6
1000,56,-2176,-152,6,50,-6
1005,56,-2160,-136,5,50,-5
1010,40,-2160,-176,4,50,-6
1015,64,-2168,-200,0,49,-6
1020,72,-2144,-176,-1,51,-5
1025,48,-2144,-144,-2,50,-4
1030,56,-2160,-184,-3,52,-4
1035,72,-2168,-192,-6,52,-1
1040,88,-2160,-208,-7,52,-3
1045,80,-2168,-144,-9,52,-1
1050,64,-2144,-152,-11,52,-1
1055,72,-2160,-176,-13,54,-1
1060,64,-2152,-184,-15,54,-3
1065,48,-2136,-184,-18,56,-3
1070,48,-2168,-224,-21,58,-2
1075,56,-2184,-184,-21,60,-3
1080,80,-2152,-216,-24,62,-3
1085,56,-2176,-184,-25,63,-1
1090,48,-2160,-176,-26,63,-3
1095,32,-2160,-192,-28,64,-3
1100,64,-2160,-192,-32,64,-4
1105,48,-2152,-192,-37,65,-3
1110,24,-2168,-192,-38,65,-3
1115,56,-2160,-192,-41,65,-2
1120,40,-2136,-200,-44,63,-2
1125,56,-2176,-192,-46,62,-2
1130,56,-2192,-224,-47,61,-2
1135,24,-2168,-200,-50,60,-2
1140,72,-2168,-192,-52,58,-2
1145,40,-2152,-168,-54,59,0
1150,56,-2160,-168,-56,58,0
1155,16,-2152,-208,-60,57,2
1160,40,-2152,-192,-63,55,1
1165,32,-2168,-192,-63,54,3
1170,48,-2152,-208,-65,52,4
1175,40,-2176,-184,-65,52,4
1180,32,-2176,-192,-68,50,4
1185,48,-2184,-216,-70,49,4
1190,56,-2168,-176,-70,49,3
1195,48,-2160,-216,-72,47,3
1200,32,-2152,-184,-73,48,2
1205,64,-2168,-208,-72,46,2
1210,32,-2176,-216,-71,45,1
1215,24,-2152,-224,-71,45,0
1220,48,-2160,-240,-71,43,0
1225,56,-2176,-200,-70,42,-1
1230,40,-2160,-216,-67,40,1
1235,40,-2192,-208,-69,38,2
1240,24,-2168,-232,-69,38,1
1245,32,-2160,-216,-68,37,2
1250,32,-2176,-216,-66,36,1
1255,64,-2168,-208,-65,37,1
1260,40,-2152,-240,-64,35,1
1265,32,-2168,-256,-64,34,1
1270,48,-2176,-216,-65,36,1
1275,56,-2168,-240,-66,36,0
1280,64,-2184,-216,-65,35,-1
1285,40,-2176,-224,-65,35,3
1290,48,-2168,-216,-66,35,1
1295,32,-2176,-232,-65,33,1
1300,32,-2160,-216,-63,32,1
1305,40,-2176,-208,-64,32,1
1310,56,-2168,-224,-63,30,0
1315,64,-2184,-216,-61,31,0
1320,56,-2160,-208,-60,31,2
1325,48,-2160,-200,-59,32,1
1330,48,-2176,-208,-56,34,3
1335,16,-2144,-216,-55,35,3
1340,56,-2192,-200,-51,38,1
1345,40,-2168,-224,-48,40,1
1350,56,-2184,-264,-45,39,0
1355,56,-2176,-216,-42,39,0
1360,48,-2176,-224,-40,38,0
1365,32,-2160,-176,-36,37,-2
1370,56,-2176,-200,-32,38,0
1375,48,-2184,-200,-32,39,-1
1380,32,-2168,-200,-32,40,-2
1385,40,-2192,-200,-30,39,-1
1390,40,-2176,-200,-30,38,-1
1395,48,-2160,-232,-28,37,1
1400,40,-2176,-200,-27,35,2
1405,40,-2176,-192,-26,34,3
1410,64,-2184,-192,-26,33,4
1415,48,-2184,-240,-26,32,5
1420,40,-2160,-232,-26,31,7
1425,48,-2160,-272,-25,31,5
1430,48,-2184,-208,-23,29,5
1435,56,-2176,-176,-24,30,6
1440,56,-2168,-224,-21,28,5
1445,48,-2184,-240,-18,29,6
1450,32,-2168,-240,-20,30,6
1455,64,-2176,-208,-19,30,4
1460,48,-2192,-216,-17,30,5
1465,32,-2176,-216,-16,30,3
1470,56,-2184,-248,-14,31,5
1475,48,-2176,-240,-14,35,3
1480,56,-2176,-240,-14,32,4
1485,64,-2192,-224,-11,32,3
1490,48,-2168,-232,-9,34,3
1495,16,-2184,-216,-8,36,4
1500,64,-2176,-224,-7,36,4
1505,56,-2176,-256,-8,35,2
1510,48,-2176,-200,-10,37,4
1515,48,-2192,-160,-10,36,2
1520,24,-2144,-224,-9,35,3
1525,32,-2176,-208,-10,35,3
1530,32,-2176,-240,-10,34,3
1535,64,-2168,-208,-11,34,2
1540,64,-2184,-232,-12,33,4
1545,40,-2176,-240,-15,33,4
1550,40,-2160,-232,-15,33,5
1555,56,-2192,-208,-15,34,3
1560,48,-2192,-248,-15,34,5
1565,32,-2168,-200,-13,34,5
1570,16,-2152,-248,-13,34,7
1575,16,-2160,-240,-11,35,6
1580,48,-2184,-232,-11,35,6
1585,48,-2160,-240,-11,36,4
1590,40,-2144,-200,-12,37,4
1595,32,-2152,-224,-13,37,4
1600,32,-2144,-208,-14,38,4
1605,32,-2184,-208,-12,39,3
1610,48,-2160,-216,-13,43,4
1615,40,-2176,-200,-15,43,2
1620,48,-2168,-208,-15,44,5
1625,56,-2160,-224,-16,45,2
1630,56,-2176,-224,-16,47,2
1635,48,-2176,-240,-16,47,2
1640,40,-2144,-192,-18,49,2
1645,32,-2168,-200,-19,49,1
1650,24,-2136,-232,-18,52,1
1655,40,-2144,-216,-19,54,-1
1660,56,-2176,-208,-20,54,1
1665,32,-2152,-224,-22,56,0
1670,40,-2168,-168,-23,58,0
1675,56,-2168,-184,-24,61,-2
1680,56,-2176,-216,-22,60,-2
1685,40,-2168,-184,-23,62,-3
1690,40,-2184,-232,-22,62,-2
1695,32,-2160,-216,-22,63,-4
1700,40,-2160,-240,-18,65,-2
1705,40,-2192,-208,-19,65,-3
1710,32,-2184,-208,-19,66,-1
1715,56,-2168,-224,-18,66,-2
1720,48,-2176,-240,-18,68,-2
1725,56,-2192,-208,-18,71,-3
1730,40,-2152,-240,-19,70,-3
1735,48,-2192,-224,-17,70,-5
1740,48,-2184,-248,-18,69,-4
1745,32,-2160,-224,-17,70,-5
1750,48,-2192,-232,-16,72,-3
1755,64,-2184,-216,-19,69,-4
1760,16,-2176,-240,-18,69,-3
1765,40,-2176,-224,-20,67,-4
1770,32,-2184,-208,-20,67,-1
1775,40,-2184,-200,-18,66,-2
1780,32,-2160,-232,-20,66,0
1785,56,-2192,-232,-22,65,-4
1790,56,-2176,-232,-21,64,-2
1795,32,-2176,-232,-21,63,-3
1800,32,-2168,-240,-21,63,-2
1805,32,-2160,-248,-18,62,-4
1810,32,-2168,-192,-18,61,-1
1815,48,-2168,-216,-19,59,-2
1820,40,-2176,-224,-18,60,0
1825,24,-2184,-216,-17,59,-2
1830,48,-2168,-224,-19,61,-1
1835,40,-2152,-224,-19,61,-2
1840,48,-2152,-248,-20,60,-3
1845,56,-2152,-216,-20,61,-4
1850,56,-2168,-232,-22,62,-5
1855,56,-2160,-216,-24,62,-6
1860,80,-2176,-192,-23,62,-5
1865,48,-2168,-200,-23,61,-8
1870,72,-2192,-192,-23,61,-5
1875,56,-2176,-216,-23,63,-9
1880,56,-2152,-208,-22,64,-7
1885,64,-2160,-224,-24,66,-8
1890,80,-2168,-216,-25,66,-7
1895,56,-2144,-208,-27,66,-8
1900,56,-2168,-232,-26,68,-9
1905,56,-2176,-256,-27,70,-11
1910,48,-2176,-232,-28,70,-8
1915,64,-2160,-224,-28,71,-11
1920,72,-2176,-240,-28,71,-10
1925,64,-2160,-232,-30,73,-11
1930,56,-2184,-216,-30,74,-11
1935,56,-2192,-216,-29,75,-12
1940,80,-2176,-216,-29,74,-10
1945,64,-2168,-208,-27,74,-12
1950,88,-2176,-240,-26,74,-10
1955,56,-2176,-208,-28,76,-12
1960,64,-2176,-232,-30,78,-9
1965,72,-2168,-272,-30,78,-11
1970,40,-2160,-216,-30,77,-10
1975,48,-2160,-248,-30,77,-11
1980,56,-2152,-232,-31,78,-9
1985,48,-2176,-224,-31,77,-11
1990,48,-2168,-232,-34,77,-9
1995,56,-2184,-248,-34,77,-10
2000,48,-2160,-240,-36,77,-7
2005,64,-2144,-200,-37,77,-8
2010,56,-2168,-216,-35,77,-7
2015,56,-2152,-224,-36,74,-9
2020,72,-2152,-248,-36,73,-6
2025,72,-2160,-248,-38,75,-6
2030,80,-2176,-216,-41,75,-5
2035,48,-2160,-240,-39,75,-7
2040,48,-2152,-256,-42,75,-4
2045,80,-2160,-208,-42,76,-8
2050,72,-2176,-208,-41,78,-6
2055,48,-2160,-248,-39,78,-11
2060,48,-2184,-224,-40,78,-9
2065,64,-2160,-248,-41,78,-13
2070,32,-2152,-256,-42,79,-10
2075,40,-2160,-248,-44,79,-12
2080,48,-2160,-224,-44,79,-11
2085,56,-2176,-264,-46,78,-11
2090,64,-2152,-216,-48,77,-8
2095,72,-2168,-216,-49,76,-9
2100,48,-2160,-256,-50,75,-8
2105,80,-2160,-248,-51,74,-10
2110,56,-2168,-248,-51,74,-6
2115,64,-2176,-264,-48,72,-8
2120,56,-2184,-232,-51,71,-6
2125,48,-2160,-248,-51,71,-6
2130,80,-2160,-232,-53,72,-4
2135,64,-2160,-224,-53,69,-5
2140,56,-2192,-224,-50,70,-4
2145,64,-2160,-256,-49,70,-6
2150,56,-2176,-232,-46,68,-3
2155,56,-2176,-264,-43,70,-4
2160,64,-2184,-288,-40,68,-2
2165,56,-2176,-248,-38,67,-3
2170,64,-2168,-256,-36,67,-1
2175,40,-2160,-224,-33,67,-1
2180,56,-2176,-272,-31,67,1
2185,40,-2176,-248,-29,66,-1
2190,64,-2160,-256,-27,67,2
2195,56,-2176,-264,-26,67,1
2200,48,-2176,-280,-24,68,4
2205,64,-2160,-264,-23,69,1
2210,32,-2176,-232,-21,69,4
2215,32,-2176,-256,-20,69,3
2220,40,-2184,-288,-19,70,5
2225,64,-2168,-280,-19,68,4
2230,64,-2176,-256,-19,68,6
2235,48,-2176,-248,-21,67,4
2240,64,-2176,-224,-23,66,7
2245,48,-2160,-248,-21,66,5
2250,48,-2160,-296,-22,63,7
2255,64,-2192,-240,-22,62,7
2260,72,-2144,-264,-20,59,11
2265,56,-2160,-248,-20,58,9
2270,64,-2168,-256,-20,58,10
2275,48,-2176,-256,-21,60,7
2280,48,-2168,-264,-21,60,9
2285,56,-2168,-272,-20,60,6
2290,64,-2160,-248,-20,61,6
2295,48,-2176,-264,-19,59,5
2300,40,-2128,-248,-19,58,8
2305,48,-2168,-232,-19,57,4
2310,56,-2168,-240,-19,58,6
2315,64,-2168,-232,-21,55,5
2320,40,-2176,-240,-18,54,6
2325,48,-2176,-240,-20,53,5
2330,32,-2184,-224,-19,52,8
2335,48,-2168,-216,-19,51,7
2340,64,-2160,-264,-18,49,9
2345,32,-2152,-264,-20,46,8
2350,56,-2160,-240,-21,46,11
2355,56,-2168,-232,-24,45,7
2360,32,-2144,-248,-26,44,10
2365,56,-2168,-240,-27,44,7
2370,72,-2160,-232,-29,42,8
2375,32,-2168,-232,-30,41,6
2380,48,-2184,-256,-31,38,7
2385,48,-2200,-272,-32,39,5
2390,48,-2144,-216,-33,37,7
2395,56,-2176,-240,-32,37,6
2400,48,-2176,-248,-31,38,9
2405,64,-2192,-240,-30,37,4
2410,72,-2176,-240,-27,40,8
2415,72,-2192,-240,-24,39,5
2420,40,-2184,-248,-21,38,7
2425,72,-2168,-248,-19,39,4
2430,56,-2184,-248,-18,38,8
2435,80,-2192,-208,-16,37,5
2440,48,-2176,-256,-15,38,6
2445,80,-2168,-224,-15,38,5
2450,72,-2176,-232,-14,39,6
2455,72,-2144,-248,-16,40,5
2460,80,-2176,-248,-17,41,7
2465,72,-2176,-208,-17,42,4
2470,80,-2168,-240,-17,43,6
2475,80,-2184,-232,-18,43,4
2480,56,-2168,-224,-18,43,6
2485,48,-2160,-256,-17,45,4
2490,56,-2168,-200,-15,44,6
2495,64,-2136,-240,-16,45,3
2500,56,-2184,-216,-17,45,6
2505,72,-2184,-192,-17,45,4
2510,40,-2176,-256,-15,46,5
2515,56,-2176,-216,-16,48,3
2520,56,-2184,-232,-15,48,5
2525,48,-2168,-232,-15,47,2
2530,48,-2168,-224,-14,47,3
2535,80,-2152,-232,-11,48,1
2540,80,-2168,-216,-10,49,3
2545,64,-2184,-240,-9,50,3
2550,56,-2176,-208,-9,51,5
2555,56,-2160,-216,-8,52,4
2560,72,-2184,-240,-8,55,5
2565,64,-2184,-240,-8,54,3
2570,56,-2168,-248,-7,54,6
2575,72,-2176,-256,-5,55,3
2580,64,-2184,-232,-5,57,5
2585,56,-2176,-248,-5,57,3
2590,64,-2184,-232,-6,57,6
2595,72,-2152,-224,-6,56,4
2600,64,-2160,-240,-6,58,6
2605,64,-2176,-224,-6,60,5
2610,72,-2168,-256,-6,59,6
2615,56,-2176,-248,-7,60,5
2620,56,-2168,-200,-7,63,8
2625,80,-2176,-240,-7,64,5
2630,64,-2160,-216,-6,66,9
2635,64,-2160,-256,-7,67,6
2640,88,-2160,-232,-7,69,8
2645,80,-2192,-208,-7,71,4
2650,96,-2176,-232,-6,76,6
2655,80,-2160,-240,-8,77,3
2660,80,-2152,-256,-7,79,6
2665,88,-2152,-232,-9,82,4
2670,96,-2176,-248,-13,82,6
2675,80,-2160,-224,-14,85,4
2680,80,-2176,-248,-17,86,6
2685,80,-2176,-232,-17,88,2
2690,104,-2176,-280,-17,89,4
2695,72,-2136,-264,-19,90,2
2700,88,-2176,-240,-18,90,5
2705,72,-2184,-256,-16,92,4
2710,64,-2168,-256,-16,93,7
2715,64,-2160,-280,-15,94,4
2720,64,-2168,-256,-15,95,7
2725,88,-2168,-248,-15,94,4
2730,64,-2144,-256,-15,96,6
2735,72,-2176,-272,-15,99,2
2740,80,-2168,-272,-14,101,3
2745,80,-2168,-280,-14,103,0
2750,72,-2184,-280,-14,106,1
2755,72,-2200,-272,-15,107,-2
2760,72,-2176,-280,-15,108,-1
2765,88,-2168,-280,-13,110,-4
2770,88,-2200,-288,-14,110,-2
2775,72,-2200,-280,-11,111,-4
2780,72,-2200,-304,-11,110,0
2785,72,-2184,-288,-9,108,-1
2790,88,-2184,-248,-7,109,2
2795,48,-2176,-272,-7,106,1
2800,72,-2200,-304,-3,105,3
2805,88,-2176,-280,-1,103,2
2810,96,-2176,-288,0,103,4
2815,64,-2200,-256,1,103,2
2820,72,-2192,-288,2,104,4
2825,80,-2184,-280,1,106,3
2830,56,-2184,-264,2,109,4
2835,96,-2200,-280,0,111,0
2840,72,-2168,-336,-1,116,3
2845,80,-2184,-280,-1,119,0
2850,96,-2200,-280,-1,124,2
2855,72,-2160,-304,-4,129,0
2860,120,-2184,-288,-7,132,2
2865,104,-2192,-296,-8,136,0
2870,120,-2192,-264,-9,138,3
2875,104,-2160,-280,-11,140,2
2880,112,-2176,-272,-11,145,5
2885,128,-2192,-320,-12,150,5
2890,112,-2160,-312,-12,154,7
2895,128,-2168,-312,-12,161,6
2900,112,-2160,-312,-17,168,10
2905,104,-2168,-312,-21,175,8
2910,96,-2184,-304,-29,183,12
2915,96,-2176,-288,-36,192,10
2920,104,-2176,-320,-46,202,15
2925,96,-2144,-336,-54,210,14
2930,128,-2152,-312,-60,220,19
2935,144,-2152,-320,-66,229,17
2940,136,-2152,-336,-71,238,24
2945,96,-2160,-336,-74,244,26
2950,88,-2136,-312,-76,251,32
2955,104,-2144,-320,-77,257,35
2960,104,-2144,-312,-82,264,41
2965,96,-2112,-344,-84,269,44
2970,104,-2096,-336,-90,275,52
2975,72,-2072,-352,-97,283,54
2980,72,-2048,-400,-104,290,63
2985,56,-2024,-448,-117,299,68
2990,56,-2000,-384,-128,310,77
2995,56,-1992,-392,-147,320,81
3000,40,-1952,-400,-165,328,90
3005,56,-1928,-408,-186,336,95
3010,64,-1880,-424,-206,346,107
3015,48,-1816,-440,-225,355,116
3020,80,-1792,-424,-247,368,132
3025,104,-1728,-488,-268,381,146
3030,88,-1656,-496,-290,393,166
3035,112,-1600,-520,-315,407,183
3040,120,-1520,-528,-344,426,208
3045,128,-1432,-592,-372,442,225
3050,128,-1304,-584,-399,460,245
3055,104,-1256,-552,-425,476,266
3060,120,-1208,-568,-446,487,297
3065,120,-1160,-512,-458,493,319
3070,72,-1192,-456,-462,489,343
3075,40,-1200,-360,-458,471,358
3080,16,-1296,-272,-450,448,377
3085,-16,-1360,-200,-441,418,391
3090,-32,-1416,-192,-435,380,405
3095,-48,-1408,-192,-438,351,406
3100,-80,-1416,-216,-452,325,407
3105,-88,-1352,-232,-465,307,400
3110,-96,-1288,-184,-477,289,394
3115,-96,-1312,-184,-482,271,383
3120,-120,-1360,-136,-475,253,376
3125,-112,-1440,-64,-458,235,363
3130,-96,-1584,-56,-438,211,357
3135,-80,-1688,-32,-420,180,339
3140,-88,-1872,-48,-403,159,332
3145,-48,-2032,-112,-391,149,327
3150,-16,-2168,-192,-388,155,331
3155,-24,-2224,-248,-398,171,334
3160,0,-2256,-400,-426,201,351
3165,32,-2280,-496,-467,228,372
3170,40,-2272,-496,-511,251,399
3175,8,-2224,-576,-541,262,424
3180,-48,-2192,-544,-544,265,455
3185,-72,-2176,-584,-526,250,487
3190,-120,-2120,-504,-472,220,508
3195,-176,-2136,-432,-420,179,519
3200,-168,-2136,-424,-367,130,528
3205,-144,-2120,-408,-327,68,522
3210,-112,-2096,-456,-299,8,511
3215,-88,-2064,-472,-277,-57,491
3220,-80,-2032,-512,-267,-123,475
3225,-96,-1960,-456,-262,-183,447
3230,-104,-1936,-496,-245,-230,411
3235,-80,-1912,-496,-225,-270,376
3240,-16,-1936,-496,-211,-289,348
3245,-8,-1936,-488,-206,-301,318
3250,16,-1928,-480,-213,-299,295
3255,56,-1960,-512,-228,-287,271
3260,64,-1960,-520,-250,-267,256
3265,96,-2000,-536,-278,-240,240
3270,88,-2024,-520,-312,-216,235
3275,96,-2016,-536,-349,-192,230
3280,72,-2008,-544,-386,-169,234
3285,104,-2024,-560,-430,-154,237
3290,64,-1976,-568,-462,-145,246
3295,40,-1968,-552,-487,-144,253
3300,16,-1968,-544,-504,-143,265
3305,8,-2008,-560,-513,-150,271
3310,24,-2000,-536,-515,-159,282
3315,40,-2000,-536,-511,-168,289
3320,48,-2000,-560,-503,-179,303
3325,104,-2000,-560,-497,-192,314
3330,96,-2016,-576,-486,-208,327
3335,88,-1992,-600,-473,-217,332
3340,96,-2008,-656,-464,-225,346
3345,88,-2008,-624,-453,-229,356
3350,120,-1992,-624,-446,-229,374
3355,96,-1944,-672,-440,-228,390
3360,104,-1960,-672,-447,-224,414
3365,88,-1912,-672,-465,-222,436
3370,104,-1896,-664,-480,-223,460
3375,152,-1912,-712,-496,-220,487
3380,136,-1912,-704,-514,-219,513
3385,168,-1912,-728,-526,-211,540
3390,120,-1888,-728,-541,-196,571
3395,136,-1888,-712,-551,-176,592
3400,144,-1872,-752,-562,-158,619
3405,80,-1888,-784,-579,-145,646
3410,48,-1920,-808,-604,-140,679
3415,32,-1952,-808,-638,-147,712
3420,24,-1976,-856,-680,-163,747
3425,-64,-2008,-848,-728,-177,776
3430,-80,-2032,-888,-758,-187,809
3435,-96,-2040,-864,-768,-190,839
3440,-168,-2056,-888,-770,-196,869
3445,-88,-2000,-792,-772,-206,887
3450,-240,-2080,-904,-771,-207,910
3455,-192,-1976,-904,-775,-214,919
3460,-224,-1888,-920,-785,-215,929
3465,-296,-1928,-1040,-811,-226,944
3470,-208,-1832,-880,-850,-224,976
3475,-504,-1952,-960,-872,-229,968
3480,-488,-1896,-1104,-884,-266,949
3485,-488,-1776,-1144,-899,-292,930
3490,-416,-1832,-1072,-899,-313,924
3495,-488,-1800,-1056,-894,-339,911
3500,-448,-1736,-1008,-894,-367,903
3505,-536,-1736,-1056,-898,-389,879
3510,-576,-1736,-1088,-900,-415,860
3515,-512,-1648,-1000,-909,-443,835
3520,-528,-1624,-1056,-913,-469,796
3525,-568,-1632,-968,-905,-509,765
3530,-648,-1528,-1016,-900,-553,741
3535,-632,-1432,-984,-898,-596,709
3540,-648,-1368,-1000,-908,-640,680
3545,-648,-1328,-1000,-931,-682,643
3550,-616,-1304,-1008,-964,-727,608
3555,-616,-1280,-1080,-1006,-771,564
3560,-528,-1208,-904,-1055,-814,523
3565,-536,-1272,-968,-1109,-859,471
3570,-536,-1368,-912,-1164,-910,415
3575,-440,-1408,-1080,-1217,-960,366
3580,-392,-1360,-1072,-1248,-1005,321
3585,-296,-1352,-1096,-1267,-1051,272
3590,-304,-1432,-1080,-1287,-1084,223
3595,-192,-1504,-1016,-1284,-1106,179
3600,-112,-1520,-1024,-1279,-1113,136
3605,-64,-1512,-1032,-1271,-1107,82
3610,96,-1448,-1064,-1257,-1095,31
3615,144,-1440,-1088,-1254,-1076,-46
3620,208,-1360,-1048,-1261,-1046,-95
3625,376,-1328,-1064,-1270,-1011,-153
3630,320,-1424,-1104,-1281,-973,-201
3635,592,-1440,-1048,-1289,-926,-248
3640,488,-1504,-1120,-1326,-866,-313
3645,632,-1528,-1016,-1356,-799,-390
3650,704,-1504,-960,-1389,-731,-468
3655,688,-1608,-912,-1425,-643,-542
3660,672,-1656,-888,-1465,-552,-609
3665,704,-1808,-808,-1477,-452,-673
3670,640,-1792,-848,-1433,-363,-758
3675,664,-1936,-824,-1445,-248,-844
3680,528,-1920,-792,-1490,-136,-954
3685,368,-1712,-800,-1527,-25,-1068
3690,288,-1720,-664,-1504,75,-1115
3695,296,-1784,-712,-1453,157,-1150
3700,136,-1816,-688,-1449,227,-1161
3705,-48,-1816,-784,-1465,278,-1179
3710,-136,-1856,-680,-1497,322,-1185
3715,-240,-1744,-720,-1553,343,-1214
3720,-384,-1680,-512,-1584,328,-1229
3725,-360,-1736,-488,-1534,294,-1248
3730,-480,-1688,-472,-1428,247,-1270
3735,-672,-1864,-424,-1268,185,-1279
3740,-712,-2136,-480,-1074,128,-1273
3745,-760,-2336,-840,-867,73,-1269
3750,-768,-2448,-840,-725,3,-1285
3755,-664,-2424,-1032,-624,-58,-1310
3760,-480,-2112,-1128,-557,-122,-1314
3765,-552,-2064,-1120,-471,-213,-1296
3770,-240,-1768,-1104,-417,-290,-1246
3775,-72,-1800,-1048,-334,-375,-1168
3780,152,-1712,-992,-245,-472,-1057
3785,192,-1608,-912,-116,-552,-943
3790,272,-1616,-800,18,-615,-832
3795,464,-1616,-792,158,-653,-724
3800,456,-1776,-904,325,-661,-614
3805,768,-1832,-896,421,-648,-494
3810,432,-1600,-952,475,-595,-367
3815,408,-1752,-1232,547,-588,-283
3820,312,-1688,-1336,644,-608,-162
3825,128,-1736,-1392,842,-596,11
3830,-48,-1736,-1408,1069,-562,207
3835,-88,-1760,-1320,1268,-540,372
3840,8,-1640,-1432,1444,-518,507
3845,80,-1648,-1456,1583,-502,611
3850,112,-1448,-1480,1676,-478,699
3855,-24,-1320,-1560,1742,-469,815
3860,-8,-1360,-1440,1822,-496,951
3865,80,-1288,-1136,1886,-530,1075
3870,-352,-1608,-1216,1927,-559,1209
3875,-832,-1912,-1272,1903,-637,1337
3880,-960,-1744,-1528,1829,-724,1481
3885,-1176,-1640,-1408,1800,-740,1633
3890,-1528,-1488,-1016,1901,-706,1786
3895,-1952,-1720,-784,2069,-735,1948
3900,-2200,-2128,-744,2161,-859,2098
3905,-2456,-2656,-912,2150,-1073,2201
3910,-2560,-3104,-1304,2043,-1231,2233
3915,-2504,-3416,-1656,1943,-1317,2208
3920,-2736,-3704,-1816,1860,-1390,2187
3925,-3424,-4248,-2160,1807,-1498,2213
3930,-4184,-5080,-2144,1758,-1645,2366
3935,-5248,-6072,-2416,1773,-1829,2566
3940,-6296,-7184,-2720,1758,-2053,2892
3945,-6744,-7808,-2680,1788,-2270,3318
3950,-7600,-8040,-3000,2066,-2435,3685
3955,-6816,-7864,-3040,2534,-2550,4088
3960,-5296,-6552,-3392,3318,-2438,4235
3965,-3488,-5008,-2936,3928,-2103,4193
3970,-2040,-3584,-2272,4327,-1640,4060
3975,-792,-2344,-1744,4406,-1204,3830
3980,0,-1528,-1368,4274,-803,3612
3985,904,-648,-968,4021,-563,3441
3990,1208,-40,-184,3633,-455,3363
3995,944,136,472,3144,-403,3393
4000,216,-256,1128,2567,-464,3388
4005,-416,-816,1504,1915,-495,3247
4010,-768,-1272,1544,1574,-459,3073
4015,-1008,-1456,1352,1443,-448,2920
4020,-1288,-1712,1032,1476,-403,2886
4025,-1608,-1792,768,1597,-386,2874
4030,-1536,-1648,512,1721,-380,2828
4035,-1048,-1328,288,1779,-350,2786
4040,-984,-880,344,1735,-298,2754
4045,-960,-536,512,1637,-242,2745
4050,-944,-272,632,1568,-226,2744
4055,-1000,-184,744,1511,-273,2722
4060,-952,-224,792,1474,-331,2716
4065,-952,-192,824,1438,-393,2718
4070,-840,-272,824,1395,-472,2722
4075,-728,-240,720,1365,-516,2720
4080,-776,-256,520,1362,-514,2715
4085,-752,-240,352,1364,-486,2704
4090,-720,-248,248,1350,-456,2696
4095,-640,-288,120,1318,-395,2689
4100,-600,-312,80,1274,-259,2685
4105,-416,-416,40,1235,-129,2676
4110,-512,-392,104,1204,6,2679
4115,-624,-400,136,1181,140,2701
4120,-704,-360,200,1169,255,2748
4125,-872,-400,56,1169,324,2790
4130,-1096,-520,232,1180,342,2847
4135,-1184,-488,360,1243,377,2904
4140,-1152,-400,400,1292,388,2944
4145,-1312,-200,200,1280,363,2946
4150,-1512,-224,352,1134,299,2980
4155,-1536,-152,240,1072,264,2956
4160,-1784,-112,168,977,228,2904
4165,-1808,-72,160,884,231,2897
4170,-2304,72,352,819,303,2942
4175,-2216,200,608,754,276,2988
4180,-2480,448,304,684,331,3084
4185,-2528,400,520,536,389,3156
4190,-2816,584,744,378,313,3128
4195,-2896,672,864,277,102,3060
4200,-3016,808,720,418,-78,3017
4205,-3576,800,560,520,-199,3000
4210,-3952,1176,80,477,-334,3005
4215,-4152,1200,-32,272,-482,3108
4220,-4160,960,-272,101,-620,3172
4225,-4336,928,-368,77,-669,3167
4230,-4568,1032,-408,153,-601,3160
4235,-4736,1312,-616,246,-427,3084
4240,-4528,1328,-376,266,-166,3079
4245,-4280,1264,-376,319,64,2897
4250,-4480,1248,-504,421,190,2598
4255,-4080,1064,-576,502,383,2332
4260,-3664,1048,-344,518,554,1997
4265,-3368,696,-288,488,680,1606
4270,-2832,480,-8,458,805,1215
4275,-2528,384,-32,471,915,851
4280,-2376,312,-168,512,1047,562
4285,-2248,552,-152,570,1199,331
4290,-2144,592,-80,635,1385,123
4295,-2272,696,16,712,1504,-32
4300,-2152,1160,-56,721,1598,-184
4305,-2232,1168,80,651,1664,-243
4310,-2072,1128,160,572,1696,-280
4315,-2056,1368,8,452,1693,-317
4320,-2016,1240,96,300,1638,-293
4325,-1976,1304,48,121,1540,-274
4330,-1904,1256,32,-94,1423,-255
4335,-1824,1000,96,-299,1304,-210
4340,-1712,736,88,-478,1157,-153
4345,-1600,432,16,-548,1063,-121
4350,-1432,280,16,-556,1012,-121
4355,-1352,288,-184,-541,1006,-158
4360,-1312,320,-96,-512,1023,-178
4365,-1304,480,-80,-447,1010,-191
4370,-1368,456,0,-385,968,-199
4375,-1192,504,56,-328,940,-210
4380,-1120,536,112,-290,925,-217
4385,-1120,632,112,-265,872,-212
4390,-1072,656,120,-266,789,-210
4395,-1152,576,184,-288,682,-215
4400,-1176,640,48,-315,570,-228
4405,-1256,632,-24,-346,484,-242
4410,-1288,568,-48,-357,437,-255
4415,-1304,496,16,-348,435,-270
4420,-1272,432,88,-321,463,-284
4425,-1344,416,216,-287,501,-307
4430,-1448,472,288,-237,534,-332
4435,-1472,488,304,-158,548,-367
4440,-1560,600,272,-93,532,-390
4445,-1528,688,104,-27,491,-405
4450,-1568,792,88,8,433,-411
4455,-1616,728,-40,30,358,-421
4460,-1576,752,-64,30,307,-447
4465,-1576,840,8,20,268,-481
4470,-1784,848,88,19,235,-506
4475,-1840,800,120,11,229,-548
4480,-1824,784,168,4,211,-578
4485,-1936,712,144,28,213,-604
4490,-2024,720,64,55,228,-611
4495,-2056,672,8,99,233,-608
4500,-2040,664,-128,142,264,-622
4505,-2112,648,-288,181,294,-634
4510,-2224,600,-296,216,323,-641
4515,-2200,592,-344,240,358,-650
4520,-2320,488,-344,269,383,-645
4525,-2256,536,-296,305,408,-634
4530,-2408,400,-368,363,425,-604
4535,-2456,392,-408,420,445,-582
4540,-2496,368,-464,482,457,-545
4545,-2544,312,-544,602,480,-460
4550,-2560,272,-576,660,483,-411
4555,-2512,216,-608,715,488,-365
4560,-2568,176,-616,771,495,-329
4565,-2544,200,-648,825,493,-295
4570,-2440,184,-592,869,497,-270
4575,-2456,200,-584,901,496,-253
4580,-2248,200,-488,915,481,-241
4585,-2432,232,-576,932,445,-239
4590,-2304,200,-560,925,432,-222
4595,-2200,152,-592,918,414,-223
4600,-2224,176,-600,903,383,-215
4605,-2136,96,-648,893,361,-194
4610,-2088,32,-680,884,339,-184
4615,-2008,-64,-688,883,308,-182
4620,-2064,-104,-688,874,259,-181
4625,-1976,-200,-720,870,222,-173
4630,-1984,-248,-688,869,184,-192
4635,-2112,-248,-736,857,150,-197
4640,-2032,-280,-680,833,141,-174
4645,-2040,-304,-664,828,141,-159
4650,-2000,-264,-632,826,138,-155
4655,-2008,-232,-584,825,132,-165
4660,-2088,-176,-544,829,110,-186
4665,-2088,-160,-512,831,83,-190
4670,-2168,-160,-464,847,82,-192
4675,-2096,-152,-480,873,89,-201
4680,-2216,-136,-456,856,84,-213
4685,-2232,-136,-432,817,58,-191
4690,-2144,-160,-432,766,14,-187
4695,-2208,-144,-456,714,-35,-187
4700,-2232,-144,-552,667,-90,-179
4705,-2176,-112,-624,619,-128,-161
4710,-2104,-136,-632,568,-142,-131
4715,-2080,-88,-624,520,-143,-102
4720,-2048,-120,-648,498,-152,-76
4725,-2040,-56,-704,464,-167,-62
4730,-2128,-80,-704,412,-177,-71
4735,-2136,-88,-688,355,-186,-76
4740,-2048,-96,-720,296,-187,-79
4745,-2048,-112,-720,242,-188,-97
4750,-2056,-128,-760,196,-196,-114
4755,-2016,-152,-744,157,-197,-123
4760,-1960,-176,-728,128,-202,-133
4765,-1976,-168,-688,114,-205,-130
4770,-2000,-192,-664,110,-207,-125
4775,-2008,-208,-632,110,-217,-113
4780,-1984,-184,-632,108,-233,-99
4785,-1960,-192,-616,110,-253,-83
4790,-1976,-176,-600,117,-275,-63
4795,-2000,-176,-592,112,-291,-43
4800,-2040,-160,-560,100,-305,-36
4805,-2040,-160,-544,88,-318,-22
4810,-2024,-208,-536,78,-328,-4
4815,-2056,-160,-504,70,-336,13
4820,-2056,-160,-528,69,-335,21
4825,-2032,-136,-504,66,-336,35
4830,-2040,-128,-480,62,-333,42
4835,-2016,-112,-456,56,-336,58
4840,-2048,-104,-416,49,-340,71
4845,-2032,-120,-424,40,-340,81
4850,-2064,-88,-376,23,-343,91
4855,-2040,-72,-384,6,-344,98
4860,-2080,-56,-392,-19,-347,99
4865,-2064,-56,-352,-38,-352,100
4870,-2064,-56,-360,-57,-355,93
4875,-2064,-64,-320,-77,-351,82
4880,-2088,-48,-304,-96,-355,72
4885,-2064,-40,-312,-113,-360,63
4890,-2104,-72,-296,-123,-360,52
4895,-2096,-80,-312,-127,-357,44
4900,-2136,-72,-296,-127,-357,33
4905,-2128,-72,-304,-123,-347,13
4910,-2120,-56,-288,-115,-337,-8
4915,-2112,-56,-304,-109,-330,-15
4920,-2120,-72,-264,-97,-322,-25
4925,-2120,-48,-248,-87,-311,-34
4930,-2120,0,-264,-74,-299,-41
4935,-2128,8,-224,-61,-290,-44
4940,-2120,0,-192,-56,-282,-53
4945,-2136,40,-136,-57,-271,-62
4950,-2128,64,-112,-59,-267,-75
4955,-2112,64,-96,-68,-271,-83
4960,-2104,104,-88,-81,-274,-95
4965,-2072,128,-48,-98,-281,-102
4970,-2064,96,-64,-114,-288,-107
4975,-2096,104,-72,-134,-286,-113
4980,-1992,96,-48,-148,-271,-128
4985,-2040,104,-88,-162,-258,-137
4990,-2024,64,-88,-175,-246,-145
4995,-2056,48,-64,-185,-225,-151
5000,-2024,8,-112,-197,-197,-161
5005,-2040,24,-112,-206,-175,-167
5010,-2032,-16,-128,-207,-154,-174
5015,-2040,-24,-144,-197,-131,-174
5020,-1992,-32,-144,-179,-108,-174
5025,-2088,-48,-136,-160,-85,-170
5030,-2032,-32,-144,-141,-72,-165
5035,-2032,-40,-152,-127,-65,-156
5040,-2056,-24,-128,-114,-60,-143
5045,-2096,-24,-192,-103,-52,-128
5050,-2064,24,-128,-98,-53,-115
5055,-2048,-72,-160,-90,-48,-102
5060,-2032,-80,-176,-81,-47,-90
5065,-2032,-72,-160,-79,-45,-78
5070,-2048,-56,-176,-72,-41,-70
5075,-2032,-80,-152,-66,-39,-61
5080,-2032,-64,-128,-57,-34,-57
5085,-2048,-64,-168,-51,-30,-49
5090,-2072,-56,-152,-52,-25,-50
5095,-1984,-72,-128,-50,-24,-49
5100,-2024,-64,-168,-44,-26,-59
5105,-2040,-88,-152,-54,-28,-59
5110,-2040,-64,-152,-60,-28,-63
5115,-2072,-88,-216,-71,-29,-66
5120,-2032,-96,-192,-82,-25,-69
5125,-2056,-104,-184,-98,-23,-74
5130,-2056,-112,-216,-112,-16,-80
5135,-2072,-120,-224,-124,-9,-82
5140,-2088,-136,-208,-130,1,-86
5145,-2072,-128,-240,-135,9,-84
5150,-2104,-144,-248,-134,13,-87
5155,-2088,-152,-200,-137,23,-85
5160,-2096,-152,-216,-141,29,-86
5165,-2128,-160,-216,-142,24,-87
5170,-2136,-160,-248,-145,25,-88
5175,-2104,-160,-240,-155,34,-83
5180,-2072,-160,-216,-162,38,-83
5185,-2088,-160,-224,-169,27,-82
5190,-2112,-160,-192,-171,15,-78
5195,-2088,-160,-216,-170,18,-66
5200,-2104,-168,-208,-171,25,-61
5205,-2096,-176,-208,-173,29,-54
5210,-2064,-176,-240,-171,25,-54
5215,-2080,-160,-216,-169,30,-52
5220,-2120,-184,-208,-164,34,-50
5225,-2104,-192,-192,-159,34,-49
5230,-2064,-216,-232,-149,35,-51
5235,-2072,-208,-224,-140,41,-47
5240,-2088,-200,-200,-125,49,-41
5245,-2120,-208,-216,-113,59,-35
5250,-2088,-176,-216,-107,69,-30
5255,-2120,-160,-216,-97,75,-25
5260,-2088,-176,-160,-89,79,-20
5265,-2088,-160,-216,-77,81,-12
5270,-2040,-184,-216,-67,93,-7
5275,-2040,-176,-208,-57,103,-2
5280,-2056,-160,-208,-46,103,0
5285,-2056,-176,-200,-34,102,8
5290,-2088,-176,-176,-21,106,13
5295,-2072,-160,-184,-14,115,18
5300,-2080,-152,-168,-12,122,20
5305,-2096,-160,-200,-13,129,25
5310,-2064,-160,-168,-15,137,24
5315,-2040,-160,-160,-16,142,25
5320,-2040,-144,-176,-18,146,23
5325,-2072,-152,-168,-23,150,25
5330,-2080,-144,-192,-25,153,22
5335,-2080,-144,-184,-30,159,23
5340,-2088,-152,-232,-30,164,23
5345,-2080,-136,-224,-32,170,26
5350,-2088,-144,-240,-32,171,25
5355,-2088,-120,-240,-33,172,29
5360,-2088,-152,-216,-36,173,29
5365,-2088,-120,-224,-39,174,29
5370,-2064,-144,-232,-42,171,29
5375,-2128,-136,-216,-43,168,29
5380,-2112,-144,-232,-38,167,28
5385,-2056,-128,-256,-38,162,29
5390,-2040,-136,-224,-42,162,26
5395,-2104,-120,-200,-48,159,32
5400,-2064,-120,-192,-51,156,31
5405,-2064,-120,-192,-52,158,32
5410,-2080,-128,-176,-55,155,32
5415,-2096,-96,-216,-58,154,34
5420,-2112,-112,-232,-57,154,33
5425,-2112,-112,-240,-53,157,34
5430,-2112,-112,-240,-44,159,34
5435,-2112,-120,-288,-45,163,35
5440,-2128,-120,-280,-42,166,33
5445,-2120,-120,-312,-41,169,34
5450,-2120,-104,-280,-42,171,30
5455,-2120,-112,-288,-44,169,31
5460,-2136,-88,-272,-45,164,31
5465,-2136,-112,-288,-44,154,33
5470,-2136,-96,-288,-45,148,32
5475,-2144,-88,-240,-43,139,29
5480,-2064,-104,-272,-39,129,23
5485,-2080,-112,-280,-45,128,23
5490,-2112,-120,-256,-50,127,22
5495,-2096,-112,-256,-49,124,21
5500,-2104,-120,-248,-44,121,19
5505,-2104,-104,-256,-40,116,22
5510,-2104,-88,-256,-40,113,19
5515,-2096,-144,-280,-40,115,17
5520,-2072,-112,-288,-34,117,15
5525,-2088,-136,-288,-30,121,14
5530,-2080,-104,-280,-30,121,10
5535,-2072,-112,-256,-29,119,11
5540,-2096,-112,-264,-29,116,10
5545,-2112,-104,-272,-32,110,10
5550,-2096,-104,-288,-34,107,9
5555,-2104,-104,-272,-34,104,10
5560,-2088,-80,-288,-36,104,9
5565,-2096,-128,-256,-36,101,9
5570,-2080,-128,-280,-38,101,6
5575,-2088,-104,-272,-38,98,8
5580,-2088,-88,-280,-41,91,3
5585,-2072,-104,-272,-42,85,4
5590,-2088,-120,-288,-40,88,2
5595,-2080,-120,-304,-38,86,5
5600,-2096,-128,-264,-41,82,5
5605,-2080,-136,-272,-43,75,5
5610,-2072,-104,-280,-44,71,5
5615,-2104,-120,-280,-44,66,8
5620,-2072,-112,-272,-39,68,6
5625,-2072,-120,-288,-36,67,8
5630,-2088,-112,-280,-36,64,7
5635,-2088,-112,-280,-38,59,9
5640,-2088,-104,-256,-40,56,12
5645,-2080,-112,-296,-39,60,13
5650,-2120,-104,-280,-40,60,11
5655,-2088,-112,-232,-40,55,10
5660,-2088,-128,-272,-42,53,10
5665,-2016,-96,-320,-46,51,10
5670,-2072,-104,-240,-59,67,5
5675,-2040,-104,-240,-35,63,-7
5680,-2120,-128,-256,-31,58,-2
5685,-2128,-128,-264,-35,56,2
5690,-2136,-104,-272,-32,60,4
5695,-2072,-112,-280,-32,65,5
5700,-2048,-136,-296,-33,66,2
5705,-2112,-104,-288,-35,67,4
5710,-2104,-88,-264,-38,66,5
5715,-2088,-112,-232,-38,64,3
5720,-2088,-96,-256,-38,58,1
5725,-2096,-80,-232,-45,53,2
5730,-2088,-88,-248,-50,54,0
5735,-2064,-104,-264,-53,59,-3
5740,-2104,-120,-280,-51,63,-6
5745,-2072,-120,-240,-47,63,-7
5750,-2072,-112,-240,-39,63,-14
5755,-2072,-112,-264,-42,60,-15
5760,-2104,-104,-264,-49,57,-12
5765,-2096,-112,-264,-50,56,-10
5770,-2088,-120,-248,-44,55,-10
5775,-2096,-136,-248,-32,54,-6
5780,-2072,-136,-232,-26,55,-10
5785,-2080,-104,-224,-21,54,-9
5790,-2064,-120,-280,-16,54,-8
5795,-2056,-104,-256,-14,56,-6
5800,-2072,-96,-264,-13,57,-5
5805,-2064,-120,-264,-12,58,-4
5810,-2072,-112,-272,-9,58,-6
5815,-2096,-104,-288,-9,57,-4
5820,-2096,-120,-280,-8,57,-7
5825,-2080,-136,-256,-8,56,-7
5830,-2120,-88,-312,0,53,-20
5835,-2128,-120,-304,-3,52,-11
5840,-2056,-120,-256,-10,50,-9
5845,-2088,-120,-256,-16,49,-7
5850,-2104,-120,-232,-21,50,-6
5855,-2104,-104,-288,-21,50,-4
5860,-2088,-120,-256,-20,46,-8
5865,-2096,-120,-272,-19,44,-5
5870,-2112,-112,-264,-24,45,-4
5875,-2080,-96,-280,-29,45,0
5880,-2056,-144,-256,-32,45,0
5885,-2064,-120,-256,-39,47,1
5890,-2056,-136,-248,-45,48,-3
5895,-2176,-80,-224,-43,45,-11
5900,-2128,-96,-296,-40,35,-7
5905,-2024,-112,-304,-51,38,-6
5910,-2064,-120,-264,-64,42,-7
5915,-2064,-120,-232,-62,49,-2
5920,-2112,-120,-248,-50,51,-13
5925,-2128,-120,-256,-42,42,-10
5930,-2096,-128,-264,-47,37,-12
5935,-2120,-112,-296,-46,41,-14
5940,-2112,-112,-328,-39,49,-13
5945,-2104,-112,-320,-32,61,-12
5950,-2088,-120,-288,-23,68,-13
5955,-2112,-104,-312,-17,67,-12
5960,-2096,-112,-288,-16,66,-14
5965,-2120,-104,-304,-15,63,-13
5970,-2088,-96,-256,-15,60,-15
5975,-2080,-112,-248,-16,57,-16
5980,-2064,-128,-264,-19,52,-16
5985,-2080,-112,-280,-22,50,-17
5990,-2072,-112,-264,-25,48,-17
5995,-2056,-112,-256,-26,46,-15
6000,-2064,-112,-224,-32,42,-15
6005,-2088,-104,-248,-35,40,-12
6010,-2080,-128,-248,-37,42,-11
6015,-1976,-136,-216,-39,42,-14
6020,-2096,-136,-240,-35,41,-23
6025,-2088,-136,-264,-45,41,-11
6030,-2072,-144,-256,-53,44,-8
6035,-2096,-120,-264,-53,46,-7
6040,-2096,-120,-256,-56,49,-9
6045,-2088,-128,-272,-57,50,-8
6050,-2072,-112,-272,-57,52,-12
6055,-2096,-104,-280,-56,54,-12
6060,-2080,-120,-264,-53,54,-13
6065,-2064,-112,-296,-56,58,-11
6070,-2072,-112,-256,-55,57,-14
6075,-2048,-136,-256,-48,59,-12
6080,-2064,-120,-232,-45,60,-13
6085,-2056,-96,-240,-42,60,-12
6090,-2072,-144,-224,-37,58,-10
6095,-2016,-136,-240,-34,57,-10
6100,-2088,-112,-304,-25,58,-16
6105,-2104,-120,-264,-27,59,-8
6110,-2088,-136,-272,-32,56,-6
6115,-2088,-88,-272,-29,57,-4
6120,-2096,-136,-256,-26,61,-4
6125,-2072,-136,-312,-19,61,-3
6130,-2072,-136,-264,-14,62,-5
6135,-2096,-112,-232,-12,64,-3
6140,-2056,-120,-288,-7,64,-5
6145,-2080,-120,-232,-9,65,-4
6150,-2056,-128,-248,-8,65,-3
6155,-2080,-128,-240,-6,65,-2
6160,-2088,-120,-248,-7,69,-3
6165,-2072,-120,-264,-9,70,-4
6170,-2072,-120,-256,-7,71,-6
6175,-2096,-112,-256,-4,75,-6
6180,-2096,-120,-256,-3,77,-9
6185,-2088,-120,-272,-2,81,-7
6190,-2088,-104,-248,-2,82,-8
6195,-2088,-104,-296,-3,82,-8
6200,-2104,-88,-288,-4,82,-10
6205,-2104,-96,-288,-3,81,-8
6210,-2064,-136,-256,-3,83,-12
6215,-2088,-128,-288,-1,83,-12
6220,-2104,-120,-272,2,85,-13
6225,-2080,-104,-224,4,86,-14
6230,-2096,-96,-240,5,83,-14
6235,-2072,-120,-232,8,82,-18
6240,-2096,-136,-232,13,81,-20
6245,-2096,-112,-248,3,79,-13
6250,-2064,-120,-248,-1,80,-11
6255,-2072,-112,-256,1,81,-10
6260,-2064,-128,-248,1,82,-8
6265,-2072,-88,-272,-3,83,-8
6270,-2088,-104,-240,-5,85,-9
6275,-2096,-112,-240,-6,87,-9
6280,-2072,-120,-272,-2,89,-8
6285,-2080,-104,-264,0,88,-16
6290,-2136,-112,-256,-4,89,-20
6295,-2088,-128,-272,-9,90,-17
6300,-2072,-120,-280,-12,92,-16
6305,-2080,-112,-272,-13,98,-14
6310,-2080,-120,-256,-16,100,-15
6315,-2136,-136,-256,-22,98,-13
6320,-2064,-112,-280,-25,95,-13
6325,-2064,-120,-288,-32,93,-11
6330,-2080,-104,-304,-39,92,-10
6335,-2112,-112,-256,-42,92,-6
6340,-2088,-112,-248,-42,91,-6
6345,-2080,-120,-272,-44,88,-5
6350,-2152,-96,-272,-47,85,-8
6355,-2032,-112,-280,-45,79,-7
6360,-2000,-160,-280,-51,80,-9
6365,-2088,-152,-288,-64,81,-8
6370,-2080,-136,-256,-61,85,-6
6375,-2128,-104,-288,-43,79,-19
6380,-2104,-128,-264,-45,72,-11
6385,-2112,-104,-296,-49,64,-7
6390,-2112,-120,-272,-54,65,-8
6395,-2112,-136,-288,-54,70,-7
6400,-2104,-160,-288,-51,78,-9
6405,-2104,-136,-312,-45,81,-7
6410,-2112,-136,-312,-39,84,-8
6415,-2072,-144,-304,-34,83,-3
6420,-2080,-136,-264,-33,80,-4
6425,-2072,-120,-280,-31,79,0
6430,-2072,-136,-272,-28,77,-3
6435,-2096,-120,-240,-24,74,-8
6440,-2080,-152,-248,-28,72,-6
6445,-2104,-128,-256,-28,69,-5
6450,-2104,-120,-264,-29,71,-3
6455,-2048,-120,-248,-26,72,-3
6460,-2072,-112,-264,-24,72,-4
6465,-2088,-136,-312,-22,72,-5
6470,-2072,-128,-288,-21,71,-7
6475,-2080,-144,-264,-23,68,-5
6480,-2088,-96,-296,-22,67,-3
6485,-2072,-128,-280,-21,65,-4
6490,-2064,-128,-304,-23,65,-7
6495,-2064,-136,-296,-25,63,-4
6500,-2064,-112,-280,-26,63,-5
6505,-2088,-120,-280,-26,63,-8
6510,-2088,-144,-304,-22,58,-9
6515,-2088,-128,-272,-22,55,-6
6520,-2096,-128,-288,-21,57,-4
6525,-2088,-144,-264,-21,60,-2
6530,-2080,-136,-304,-19,63,-1
6535,-2080,-112,-304,-15,66,1
6540,-2072,-160,-264,-14,68,1
6545,-2080,-128,-272,-14,68,1
6550,-2048,-120,-272,-14,67,-2
6555,-2112,-120,-296,-12,64,-5
6560,-2112,-104,-280,-20,63,-1
6565,-2104,-136,-264,-23,65,5
6570,-2064,-128,-272,-24,65,4
6575,-2104,-104,-272,-26,65,5
6580,-2088,-128,-272,-25,64,3
6585,-2088,-120,-272,-26,65,5
6590,-2080,-112,-320,-25,63,5
6595,-2072,-120,-280,-22,63,7
6600,-2088,-144,-288,-20,64,9
6605,-2080,-136,-344,-16,66,8
6610,-2096,-120,-280,-16,68,5
6615,-2064,-136,-304,-15,70,4
6620,-2088,-120,-288,-9,69,0
6625,-2096,-128,-312,-1,67,-2
6630,-2096,-120,-296,-1,67,-1
6635,-2096,-120,-312,1,70,1
6640,-2104,-120,-240,0,73,-1
6645,-2080,-128,-280,-2,73,-1
6650,-2096,-120,-280,-3,72,-2
6655,-2104,-96,-272,-7,70,-1
6660,-2080,-136,-264,-10,70,-2
6665,-2064,-128,-280,-14,68,0
6670,-2080,-112,-280,-17,66,0
6675,-2096,-136,-280,-21,65,1
6680,-2072,-136,-296,-22,65,0
6685,-2064,-128,-280,-24,66,0
6690,-2072,-128,-288,-22,67,1
6695,-2016,-136,-288,-17,68,-1
6700,-2088,-136,-320,-10,60,-13
6705,-2096,-136,-272,-14,60,-6
6710,-2072,-120,-304,-16,65,-5
6715,-2088,-120,-296,-20,64,-1
6720,-2072,-120,-296,-20,64,-4
6725,-2088,-112,-288,-19,60,-5
6730,-2088,-80,-296,-20,60,-3
6735,-2072,-112,-344,-17,59,-4
6740,-2064,-120,-256,-17,57,-6
6745,-2072,-120,-312,-15,54,-4
6750,-2064,-128,-296,-9,55,-5
6755,-2104,-128,-304,-6,54,-4
6760,-2096,-136,-288,-3,53,-4
6765,-2088,-104,-304,2,54,-2
6770,-2072,-120,-296,5,55,-4
6775,-2072,-128,-272,8,56,-4
6780,-2088,-128,-272,9,56,-3
6785,-2080,-128,-288,10,57,-4
6790,-2056,-128,-248,12,60,-4
6795,-2080,-136,-296,15,62,-7
6800,-2080,-128,-256,14,62,-7
6805,-2096,-104,-264,15,65,-7
6810,-2112,-136,-296,13,66,-9
6815,-2096,-128,-296,14,68,-7
6820,-2088,-128,-280,14,70,-10
6825,-2088,-120,-312,14,70,-9
6830,-2080,-144,-280,12,70,-8
6835,-2096,-144,-280,11,71,-6
6840,-2088,-136,-272,9,73,-8
6845,-2112,-120,-288,8,71,-7
6850,-2112,-128,-272,5,70,-5
6855,-2088,-120,-288,5,70,-2
6860,-2080,-120,-240,2,69,-2
6865,-2080,-152,-288,0,68,-2
6870,-2056,-144,-280,-3,67,-2
6875,-2072,-120,-280,-5,67,-1
6880,-2096,-128,-272,-6,69,1
6885,-2096,-144,-288,-6,70,4
6890,-2080,-96,-296,-6,73,5
6895,-2080,-144,-272,-6,74,6
6900,-2048,-128,-280,-4,73,6
6905,-2064,-136,-288,-2,72,7
6910,-2088,-136,-288,-4,73,7
6915,-2104,-128,-280,-3,71,9
6920,-2088,-128,-288,-3,69,8
6925,-2080,-144,-312,-3,66,8
6930,-2088,-128,-312,0,66,8
6935,-2088,-144,-288,1,65,7
6940,-2088,-152,-296,4,64,6
6945,-2088,-128,-304,6,65,8
6950,-2096,-112,-312,9,65,7
6955,-2056,-144,-296,11,65,6
6960,-2088,-120,-304,10,65,5
6965,-2112,-112,-296,10,64,5
6970,-2112,-96,-328,12,65,5
6975,-2088,-120,-296,10,63,6
6980,-2080,-128,-296,9,61,5
6985,-2096,-120,-272,7,61,7
6990,-2072,-120,-288,3,58,5
6995,-2080,-128,-288,2,58,6
7000,-2104,-112,-272,-1,57,5
7005,-2072,-104,-280,-4,56,6
7010,-2072,-136,-288,-6,54,5
7015,-2104,-104,-280,-8,54,4
7020,-2088,-112,-288,-10,54,4
7025,-2088,-136,-304,-10,57,4
7030,-2024,-128,-240,-9,56,-2
7035,-2096,-88,-312,-2,52,-12
7040,-2104,-136,-288,-12,46,-5
7045,-2120,-120,-304,-13,54,-3
7050,-2088,-136,-280,-10,58,-4
7055,-2080,-104,-264,-9,59,-1
7060,-2080,-128,-296,-8,62,-3
7065,-2072,-104,-296,-7,63,-1
7070,-2056,-144,-304,-6,61,0
7075,-2088,-112,-272,-5,61,1
7080,-2096,-120,-272,-5,62,1
7085,-2088,-120,-296,-2,62,1
7090,-2096,-136,-272,-2,62,1
7095,-2104,-104,-296,0,62,2
7100,-2088,-136,-280,-2,62,2
7105,-2104,-96,-280,0,62,3
7110,-2096,-96,-312,0,58,5
7115,-1968,-152,-240,1,55,3
7120,-2112,-96,-288,3,52,-9
7125,-2112,-144,-280,-5,52,0
7130,-2088,-112,-248,-6,57,1
7135,-2088,-104,-288,-6,60,3
7140,-2088,-136,-288,-7,59,2
7145,-2080,-136,-288,-7,59,3
7150,-2088,-104,-288,-6,63,2
7155,-2088,-120,-280,-6,64,1
7160,-2072,-120,-280,-5,65,-1
7165,-2112,-120,-280,-3,61,-3
7170,-2128,-120,-288,-5,55,-3
7175,-2112,-144,-280,-8,56,0
7180,-2096,-136,-296,-9,61,-1
7185,-2088,-144,-296,-7,61,2
7190,-2104,-120,-312,-7,61,1
7195,-2096,-144,-288,-7,62,2
7200,-2088,-128,-296,-7,62,2
7205,-2104,-128,-296,-7,62,2
7210,-2088,-128,-288,-5,62,0
7215,-2072,-136,-312,-7,63,-1
7220,-2088,-120,-280,-7,62,-3
7225,-2096,-112,-280,-9,61,-1
7230,-2072,-120,-272,-12,62,-2
7235,-2096,-112,-280,-12,59,0
7240,-2088,-136,-280,-15,58,-1
7245,-2072,-136,-288,-16,58,2
7250,-2088,-120,-304,-16,57,4
7255,-2088,-128,-312,-15,57,5
7260,-2080,-120,-264,-14,54,7
7265,-2064,-128,-312,-11,53,11
7270,-1984,-120,-264,-5,53,3
7275,-2096,-120,-272,6,44,-1
7280,-2112,-104,-288,2,42,4
7285,-2088,-128,-280,-1,50,9
7290,-2048,-136,-264,2,56,9
7295,-2064,-128,-272,4,59,10
7300,-2080,-96,-288,9,63,9
7305,-2104,-96,-304,12,65,5
7310,-2056,-128,-304,12,67,2
7315,-2072,-128,-304,12,70,2
7320,-2088,-104,-288,12,69,1
7325,-2088,-120,-272,11,68,2
7330,-2112,-112,-288,9,68,1
7335,-2088,-128,-304,6,65,2
7340,-2104,-120,-312,3,63,3
7345,-2120,-96,-296,0,63,2
7350,-2088,-128,-264,-5,62,2
7355,-2080,-128,-312,-8,61,4
7360,-2104,-112,-304,-11,62,3
7365,-2088,-128,-296,-11,64,5
7370,-2104,-112,-296,-11,65,5
7375,-2072,-104,-320,-13,65,6
7380,-2104,-120,-312,-13,65,5
7385,-2080,-128,-304,-15,66,4
7390,-2080,-136,-296,-14,66,4
7395,-2064,-120,-272,-16,66,4
7400,-2096,-112,-312,-18,66,3
7405,-2072,-128,-304,-17,67,4
7410,-2080,-144,-304,-18,67,1
7415,-2064,-120,-296,-17,65,3
7420,-2072,-128,-224,-18,64,3
7425,-2064,-112,-288,-15,64,3
7430,-2072,-120,-320,-11,65,3
7435,-2088,-120,-288,-8,64,5
7440,-2080,-112,-288,-7,63,4
7445,-2096,-112,-280,-4,65,5
7450,-2064,-112,-280,-3,65,3
7455,-2088,-136,-280,-3,67,5
7460,-2080,-128,-296,-2,65,4
7465,-2080,-112,-288,-2,64,5
7470,-2080,-120,-304,-2,65,4
7475,-2112,-128,-264,-3,64,5
7480,-2080,-120,-264,-4,64,4
7485,-2096,-112,-304,-5,64,3
7490,-2056,-144,-312,-6,63,3
7495,-2088,-120,-288,-10,62,3
7500,-2080,-112,-288,-11,62,1
7505,-2080,-136,-304,-11,62,4
7510,-2088,-120,-280,-12,61,2
7515,-2080,-112,-280,-10,62,2
7520,-2072,-96,-296,-12,63,2
7525,-2080,-120,-312,-12,62,1
7530,-2088,-136,-280,-12,61,1
7535,-2104,-104,-272,-13,60,1
7540,-2024,-120,-296,-6,59,-8
7545,-2120,-104,-312,-3,51,-7
7550,-2120,-120,-288,-12,52,-6
7555,-2088,-128,-320,-14,61,-3
7560,-2104,-128,-312,-12,61,-1
7565,-2096,-112,-280,-10,64,-1
7570,-2088,-120,-312,-9,65,-2
7575,-2080,-104,-288,-8,67,-3
7580,-2104,-104,-304,-8,67,-3
7585,-2104,-104,-264,-9,63,0
7590,-2080,-120,-264,-7,63,-1
7595,-2056,-112,-312,-8,63,0
7600,-2088,-120,-288,-7,62,-1
7605,-2064,-120,-296,-9,58,0
7610,-2064,-120,-288,-9,57,-1
7615,-2072,-136,-296,-9,57,1
7620,-2008,-160,-248,-6,55,-3
7625,-2120,-112,-312,-1,48,-9
7630,-2120,-144,-280,-7,49,-2
7635,-2088,-112,-312,-6,53,-2
7640,-2072,-152,-296,-4,59,-1
7645,-2080,-136,-296,-3,59,1
7650,-2096,-104,-296,-2,60,-2
7655,-2104,-120,-320,-6,57,0
7660,-2072,-112,-304,-7,57,0
7665,-2088,-120,-312,-5,58,1
7670,-2088,-120,-304,-6,59,0
7675,-2064,-120,-288,-9,59,0
7680,-2072,-144,-296,-11,59,0
7685,-2056,-96,-280,-16,59,0
7690,-2096,-104,-296,-17,56,1
7695,-2080,-112,-288,-17,57,2
7700,-2072,-88,-312,-13,57,2
7705,-2088,-112,-296,-13,59,4
7710,-2064,-112,-288,-15,56,3
7715,-2088,-136,-296,-14,57,3
7720,-2088,-120,-280,-12,57,2
7725,-2080,-128,-296,-10,58,2
7730,-2096,-112,-296,-10,61,2
7735,-2080,-128,-296,-10,61,3
7740,-2088,-120,-288,-9,62,3
7745,-2088,-120,-288,-12,60,3
7750,-2080,-120,-304,-12,60,2
7755,-2080,-120,-272,-15,59,2
7760,-2080,-104,-272,-17,59,3
7765,-2072,-120,-280,-17,59,3
7770,-2096,-120,-280,-15,60,3
7775,-2080,-144,-288,-16,63,3
7780,-2080,-128,-304,-14,62,3
7785,-2032,-136,-232,-14,63,2
7790,-2088,-96,-312,-6,57,-10
7795,-2104,-112,-256,-13,53,-5
7800,-2096,-120,-296,-18,54,-1
7805,-2088,-104,-272,-19,63,1
7810,-2096,-112,-296,-17,66,0
7815,-2096,-104,-272,-16,66,0
7820,-2088,-120,-296,-16,67,0
7825,-2096,-128,-304,-15,66,0
7830,-2080,-96,-272,-15,69,-1
7835,-2080,-128,-312,-17,66,1
7840,-2088,-120,-312,-17,64,0
7845,-2088,-128,-320,-13,65,0
7850,-2104,-136,-336,-10,65,0
7855,-2088,-120,-296,-11,65,0
7860,-2072,-128,-304,-11,67,0
7865,-2072,-104,-304,-10,66,0
7870,-2064,-120,-296,-8,65,0
7875,-2096,-104,-320,-8,65,1
7880,-2064,-120,-320,-10,64,1
7885,-2064,-112,-320,-8,62,0
7890,-2072,-96,-288,-9,62,0
7895,-2088,-104,-296,-8,63,1
7900,-2088,-136,-312,-9,62,1
7905,-2072,-104,-280,-10,63,2
7910,-2080,-112,-248,-12,62,1
7915,-2096,-128,-304,-14,60,2
7920,-2088,-104,-288,-13,60,2
7925,-2080,-112,-264,-14,60,2
7930,-2064,-128,-280,-15,58,0
7935,-2080,-104,-304,-15,58,1
7940,-2096,-112,-304,-16,58,1
7945,-2080,-112,-280,-16,57,1
7950,-2088,-112,-280,-15,57,0
7955,-2080,-136,-304,-16,57,0
7960,-2080,-120,-304,-15,58,0
7965,-2088,-128,-304,-15,58,0
7970,-2072,-120,-288,-15,58,-1
7975,-2088,-136,-296,-14,58,1
7980,-2072,-128,-296,-14,57,-1
7985,-2088,-128,-312,-14,56,0
7990,-2088,-104,-296,-14,55,0
7995,-2096,-104,-296,-15,56,0
8000,-2080,-112,-272,-14,55,-1
8005,-2080,-104,-328,-14,56,1
8010,-2080,-128,-272,-14,55,0
8015,-2072,-112,-280,-14,56,1
8020,-2072,-120,-288,-13,55,-1
8025,-2072,-112,-280,-12,55,0
8030,-2080,-120,-296,-12,54,0
8035,-2072,-112,-312,-10,54,1
8040,-2088,-104,-288,-10,54,-1
8045,-2072,-136,-304,-9,53,0
8050,-2080,-144,-264,-8,56,0
8055,-2072,-112,-296,-7,56,-2
8060,-2080,-120,-272,-8,59,-3
8065,-2096,-104,-288,-7,59,-1
8070,-2096,-120,-296,-6,58,-3
8075,-2064,-120,-296,-6,60,-3
8080,-2072,-128,-304,-4,60,-4
8085,-2088,-112,-296,-3,59,-4
8090,-2000,-128,-240,-6,57,-5
8095,-2104,-104,-296,0,53,-12
8100,-2080,-128,-280,-5,48,-7
8105,-2088,-120,-288,-10,48,-4
8110,-2088,-128,-328,-10,51,-6
8115,-2080,-128,-304,-10,53,-4
8120,-2088,-112,-296,-8,55,-4
8125,-2080,-136,-296,-6,56,-3
8130,-2104,-128,-296,-5,57,-4
8135,-2104,-96,-288,-3,59,-4
8140,-2080,-104,-264,-3,58,-2
8145,-2096,-112,-320,-4,58,-1
8150,-2096,-112,-312,-8,59,1
8155,-2080,-128,-296,-10,61,0
8160,-2088,-104,-272,-10,61,0
8165,-2096,-96,-336,-13,59,-1
8170,-2096,-136,-280,-12,62,-2
8175,-2088,-104,-304,-16,64,-1
8180,-2056,-128,-288,-20,58,2
8185,-2088,-120,-288,-17,61,1
8190,-2072,-120,-272,-13,62,0
8195,-2072,-112,-304,-10,57,1
8200,-2064,-120,-272,-8,58,0
8205,-2072,-104,-256,-3,59,3
8210,-2072,-120,-312,1,59,3
8215,-2096,-128,-288,1,61,5
8220,-2104,-112,-304,3,58,5
8225,-2088,-88,-296,3,57,5
8230,-2032,-128,-280,3,59,4
8235,-2080,-112,-296,8,59,-2
8240,-2104,-112,-320,8,55,-1
8245,-2104,-112,-264,1,52,4
8250,-2104,-120,-264,3,61,3
8255,-2080,-96,-288,1,63,7
8260,-2104,-120,-272,0,59,7
8265,-2088,-144,-304,-1,62,8
8270,-2088,-128,-304,-2,61,6
8275,-2080,-112,-288,-6,59,5
8280,-2096,-112,-320,-10,59,5
8285,-2080,-120,-288,-10,60,6
8290,-2064,-136,-272,-12,61,5
8295,-2064,-104,-288,-16,54,6
8300,-2088,-112,-280,-18,53,3
8305,-2080,-144,-280,-20,56,5
8310,-2104,-112,-272,-19,55,4
8315,-2080,-120,-288,-18,55,6
8320,-2064,-120,-272,-18,56,5
8325,-2040,-104,-264,-13,55,-1
8330,-2096,-112,-280,-10,54,-5
8335,-2120,-112,-304,-13,50,-2
8340,-2096,-128,-280,-16,55,2
8345,-2088,-120,-280,-15,64,3
8350,-2088,-112,-288,-12,64,4
8355,-2072,-104,-280,-10,61,5
8360,-2072,-128,-312,-8,63,4
8365,-2088,-120,-320,-7,63,4
8370,-2088,-104,-304,-9,61,4
8375,-2072,-96,-296,-11,57,5
8380,-2096,-104,-296,-14,52,6
8385,-2080,-120,-320,-10,55,4
8390,-2072,-128,-304,-8,56,2
8395,-2096,-88,-328,-8,56,3
8400,-2088,-120,-288,-6,55,2
8405,-2080,-120,-320,-5,57,2
8410,-2096,-128,-288,-5,56,2
8415,-2072,-120,-312,-5,55,2
8420,-2064,-128,-272,-7,54,1
8425,-2080,-128,-320,-8,52,2
8430,-2096,-112,-264,-7,54,3
8435,-2088,-112,-296,-8,59,4
8440,-2072,-112,-312,-13,58,4
8445,-2096,-136,-320,-16,51,6
8450,-2072,-120,-272,-15,52,5
8455,-2072,-96,-296,-16,51,5
8460,-2024,-104,-256,-13,51,2
8465,-2112,-80,-288,-7,51,-5
8470,-2080,-120,-280,-12,46,-2
8475,-2120,-112,-320,-13,47,-2
8480,-2120,-144,-304,-14,52,1
8485,-2064,-120,-272,-12,59,3
8490,-2080,-104,-280,-12,60,2
8495,-2080,-104,-312,-10,61,3
8500,-2080,-128,-272,-8,62,2
8505,-2096,-120,-296,-9,62,1
8510,-2088,-112,-288,-8,63,1
8515,-2088,-104,-280,-8,61,2
8520,-2088,-120,-296,-9,60,1
8525,-2072,-120,-296,-13,57,2
8530,-2080,-112,-288,-17,47,5
8535,-2096,-120,-264,-13,49,7
8540,-2096,-120,-296,-10,52,3
8545,-2088,-96,-232,-10,55,4
8550,-2088,-120,-296,-14,54,2
8555,-2104,-96,-312,-15,55,3
8560,-2080,-128,-280,-14,54,2
8565,-2064,-120,-304,-15,54,1
8570,-1992,-8,-328,-14,55,1
8575,-2096,-80,-264,-13,54,2
8580,-2080,-128,-256,-15,51,2
8585,-2096,-112,-288,-17,47,7
8590,-2080,-136,-280,-13,47,6
8595,-2096,-120,-296,-13,54,3
8600,-2088,-96,-320,-13,51,2
8605,-2088,-112,-296,-12,52,2
8610,-2080,-112,-296,-12,54,1
8615,-2088,-112,-304,-13,53,2
8620,-2064,-112,-296,-15,52,0
8625,-2104,-120,-328,-15,50,2
8630,-2072,-136,-272,-12,52,1
8635,-2096,-120,-288,-12,54,1
8640,-2096,-104,-304,-11,54,1
8645,-2096,-80,-296,-12,56,1
8650,-2096,-128,-288,-12,56,0
8655,-2080,-112,-304,-11,55,1
8660,-2048,-120,-280,-10,55,-2
8665,-2096,-96,-312,-5,53,-7
8670,-2088,-120,-304,-11,47,-3
8675,-2088,-112,-288,-16,40,2
8680,-2096,-96,-312,-12,52,-3
8685,-2080,-88,-288,-12,58,-2
8690,-2072,-120,-296,-15,56,-1
8695,-2096,-112,-296,-14,57,0
8700,-2080,-112,-288,-14,59,-1
8705,-2112,-104,-272,-13,58,0
8710,-2080,-104,-256,-13,58,0
8715,-2088,-104,-288,-13,58,2
8720,-2080,-104,-272,-14,59,-1
8725,-2056,-152,-296,-14,59,2
8730,-2104,-96,-296,-16,58,1
8735,-2072,-112,-328,-16,58,2
8740,-2064,-112,-288,-15,58,1
8745,-2088,-104,-288,-16,59,1
8750,-2056,-120,-272,-15,57,1
8755,-2064,-120,-304,-14,59,2
8760,-2080,-120,-304,-13,58,2
8765,-2096,-104,-288,-15,60,3
8770,-2080,-112,-272,-13,62,2
8775,-2080,-104,-272,-12,62,3
8780,-2088,-120,-280,-13,62,2
8785,-2088,-96,-296,-13,61,3
8790,-2072,-96,-288,-13,60,2
8795,-2096,-120,-264,-13,60,3
8800,-2080,-120,-288,-13,60,2
8805,-2088,-112,-264,-14,61,3
8810,-2080,-120,-304,-14,60,2
8815,-2088,-96,-288,-14,61,4
8820,-2096,-112,-304,-11,61,3
8825,-2096,-104,-280,-11,64,4
8830,-2088,-104,-288,-10,64,3
8835,-2072,-112,-304,-10,63,4
8840,-2088,-104,-320,-10,62,2
8845,-2072,-96,-312,-10,64,2
8850,-2080,-104,-296,-9,63,1
8855,-2096,-120,-296,-10,63,4
8860,-2096,-104,-288,-10,62,1
8865,-2088,-120,-288,-11,65,2
8870,-2056,-96,-288,-11,65,0
8875,-2096,-96,-256,-13,67,2
8880,-2080,-88,-312,-13,66,2
8885,-2112,-112,-280,-14,68,2
8890,-2072,-120,-272,-15,66,1
8895,-2072,-120,-296,-15,64,2
8900,-2096,-80,-296,-18,56,6
8905,-2088,-120,-288,-13,63,4
8910,-2104,-88,-264,-12,68,1
8915,-2088,-88,-280,-13,66,3
8920,-2088,-104,-288,-14,65,2
8925,-2088,-112,-288,-12,65,3
8930,-2088,-120,-272,-11,65,3
8935,-2088,-112,-288,-12,66,4
8940,-2072,-104,-288,-11,66,2
8945,-2088,-80,-304,-9,65,2
8950,-2096,-104,-280,-9,64,1
8955,-2072,-112,-280,-8,67,1
8960,-2088,-104,-296,-5,67,0
8965,-2096,-96,-272,-4,66,1
8970,-2072,-88,-320,-5,65,-1
8975,-2096,-96,-304,-4,65,0
8980,-2088,-136,-272,-5,64,1
8985,-2080,-112,-304,-5,63,2
8990,-2080,-104,-264,-6,63,1
8995,-2072,-112,-296,-7,63,2
9000,-2080,-120,-288,-8,64,1
9005,-2080,-112,-264,-10,63,2
9010,-2064,-128,-280,-10,65,2
9015,-2064,-128,-296,-12,68,2
9020,-2080,-112,-288,-13,70,-1
9025,-2064,-104,-288,-16,73,0
9030,-2096,-88,-272,-22,74,0
9035,-2096,-112,-312,-28,77,2
9040,-2064,-104,-304,-36,77,2
9045,-2072,-112,-280,-41,74,4
9050,-2080,-120,-272,-43,71,5
9055,-2096,-104,-320,-49,63,8
9060,-2080,-136,-280,-49,63,8
9065,-2080,-96,-296,-40,73,6
9070,-2072,-104,-296,-37,75,4
9075,-2088,-128,-288,-34,71,6
9080,-2088,-112,-296,-30,70,5
9085,-2080,-128,-296,-22,71,5
9090,-2072,-112,-288,-17,70,5
9095,-2080,-112,-312,-13,69,5
9100,-2096,-96,-296,-10,69,5
9105,-2088,-96,-320,-9,69,6
9110,-2104,-88,-272,-7,65,3
9115,-2096,-96,-296,-8,64,3
9120,-2080,-104,-304,-10,65,2
9125,-2080,-96,-320,-10,63,4
9130,-2080,-112,-296,-11,61,2
9135,-2088,-104,-288,-12,61,2
9140,-2064,-112,-272,-12,61,1
9145,-2112,-72,-272,-13,62,2
9150,-2096,-96,-312,-12,63,-1
9155,-2088,-96,-280,-12,64,0
9160,-2080,-112,-288,-11,65,0
9165,-2104,-96,-280,-12,66,1
9170,-2096,-104,-272,-13,66,1
9175,-2088,-112,-272,-12,67,0
9180,-2104,-72,-320,-13,68,0
9185,-2096,-104,-328,-13,65,-1
9190,-2080,-104,-296,-12,65,-2
9195,-2072,-112,-304,-13,64,0
9200,-2088,-120,-312,-14,64,0
9205,-2064,-112,-312,-13,65,1
9210,-2072,-128,-312,-14,66,0
9215,-2072,-96,-296,-14,64,1
9220,-2088,-96,-264,-15,65,1
9225,-2080,-104,-296,-15,63,1
9230,-2088,-112,-328,-14,63,1
9235,-2096,-128,-320,-15,62,0
9240,-2072,-96,-328,-14,64,-1
9245,-2080,-112,-296,-13,63,1
9250,-2056,-104,-304,-13,62,0
9255,-2072,-96,-288,-14,61,1
9260,-2088,-104,-296,-13,61,0
9265,-2080,-120,-304,-14,59,0
9270,-2096,-88,-256,-12,58,0
9275,-2088,-96,-304,-12,57,1
9280,-2080,-128,-280,-10,60,-1
9285,-2088,-128,-304,-8,59,1
9290,-2072,-96,-296,-6,59,0
9295,-2072,-96,-280,-6,60,1
9300,-2088,-112,-312,-5,57,-1
9305,-2080,-136,-296,-7,57,1
9310,-2088,-104,-280,-7,58,0
9315,-2072,-128,-288,-7,57,0
9320,-2088,-88,-280,-10,56,0
9325,-2096,-112,-296,-10,57,1
9330,-2096,-104,-320,-11,57,-1
9335,-2072,-96,-288,-13,57,-1
9340,-2064,-88,-272,-15,57,-2
9345,-2088,-120,-288,-17,57,0
9350,-2096,-88,-264,-17,59,-1
9355,-2080,-88,-288,-17,60,0
9360,-2080,-136,-264,-19,63,0
9365,-2080,-88,-248,-20,64,0
9370,-2128,-112,-296,-23,58,2
9375,-2104,-136,-328,-26,48,6
9380,-2104,-96,-320,-17,65,0
9385,-2080,-120,-272,-17,69,0
9390,-2096,-104,-304,-21,65,-1
9395,-2096,-96,-280,-20,66,0
9400,-2072,-104,-296,-17,67,-1
9405,-2088,-112,-296,-16,66,0
9410,-2088,-104,-304,-16,67,1
9415,-2080,-104,-328,-16,69,2
9420,-2096,-88,-328,-15,65,0
9425,-2088,-120,-320,-12,67,0
9430,-2080,-112,-288,-10,65,0
9435,-2080,-112,-280,-11,63,2
9440,-2088,-96,-304,-11,62,1
9445,-2080,-112,-320,-10,60,3
9450,-2096,-112,-328,-11,59,0
9455,-2080,-96,-280,-10,59,0
9460,-2088,-112,-328,-11,58,-1
9465,-2088,-104,-288,-12,58,-1
9470,-2088,-88,-304,-12,58,-3
9475,-2104,-104,-288,-12,58,-1
9480,-2080,-104,-312,-15,59,-3
9485,-2104,-104,-272,-15,59,-3
9490,-2080,-104,-288,-15,60,-3
9495,-2080,-104,-280,-17,59,-3
9500,-2080,-104,-288,-17,60,-3
9505,-2096,-112,-296,-17,58,-1
9510,-2088,-120,-312,-17,59,-1
9515,-2104,-96,-304,-18,58,-1
9520,-2080,-112,-280,-17,58,-2
9525,-2064,-112,-312,-18,58,-2
9530,-2064,-104,-328,-18,58,-3
9535,-2088,-104,-288,-17,57,-2
9540,-2080,-104,-296,-18,58,-2
9545,-2104,-96,-312,-17,60,-1
9550,-2072,-104,-304,-18,58,-2
9555,-2056,-120,-320,-17,59,-3
9560,-2080,-120,-296,-19,58,-2
9565,-2048,-120,-304,-19,60,-2
9570,-2088,-128,-272,-18,59,-2
9575,-2080,-112,-272,-17,59,0
9580,-2096,-96,-320,-17,59,-2
9585,-2072,-120,-280,-18,59,0
9590,-2080,-96,-304,-19,57,0
9595,-2096,-120,-288,-17,59,-1
9600,-2080,-112,-296,-17,59,-1
9605,-2088,-104,-280,-17,57,0
9610,-2080,-88,-272,-16,57,-1
9615,-2080,-120,-312,-16,58,0
9620,-2072,-96,-288,-16,59,-1
9625,-2072,-88,-296,-16,60,0
9630,-2072,-104,-296,-16,62,-2
9635,-2064,-104,-264,-16,61,0
9640,-2088,-104,-272,-16,62,0
9645,-2104,-120,-288,-18,61,-1
9650,-2088,-96,-264,-20,63,-1
9655,-2088,-104,-280,-22,63,0
9660,-2064,-88,-312,-24,67,-1
9665,-2064,-112,-304,-25,67,1
9670,-2080,-104,-280,-27,67,0
9675,-2096,-88,-288,-27,69,0
9680,-2080,-88,-280,-26,70,-1
9685,-2080,-96,-272,-25,70,0
9690,-2072,-104,-264,-25,72,-2
9695,-2080,-88,-312,-22,72,0
9700,-2072,-112,-304,-22,71,-2
9705,-2088,-120,-328,-20,72,1
9710,-2088,-112,-328,-18,73,0
9715,-2088,-96,-312,-18,75,1
9720,-2080,-120,-304,-17,74,2
9725,-2088,-96,-296,-17,73,2
9730,-2088,-96,-288,-18,72,1
9735,-2088,-104,-312,-18,73,1
9740,-2080,-96,-304,-20,70,1
9745,-2080,-104,-320,-21,70,1
9750,-2096,-104,-288,-23,71,0
9755,-2072,-104,-320,-23,71,2
9760,-2064,-104,-304,-24,72,0
9765,-2064,-112,-328,-25,73,0
9770,-2080,-88,-312,-25,73,-2
9775,-2088,-96,-296,-27,75,-2
9780,-2080,-88,-296,-27,75,-2
9785,-2096,-128,-296,-30,76,-1
9790,-2096,-104,-312,-31,76,-3
9795,-2096,-96,-320,-31,75,-2
9800,-2096,-112,-296,-33,75,-3
9805,-2088,-120,-312,-31,74,0
9810,-2064,-120,-264,-31,73,-3
9815,-2088,-120,-304,-29,73,-2
9820,-2088,-112,-304,-26,73,-2
9825,-2096,-120,-304,-25,73,-2
9830,-2072,-128,-304,-23,72,-2
9835,-2080,-112,-312,-20,71,1
9840,-2088,-120,-304,-17,72,0
9845,-2080,-104,-320,-15,72,1
9850,-2088,-104,-336,-13,72,0
9855,-2096,-120,-304,-10,73,2
9860,-2088,-104,-328,-8,73,0
9865,-2096,-104,-312,-6,72,2
9870,-2080,-128,-328,-4,71,0
9875,-2088,-104,-336,-2,72,0
9880,-2096,-104,-320,1,71,1
9885,-2080,-112,-288,1,70,2
9890,-2088,-104,-312,1,71,0
9895,-2080,-112,-280,-4,67,2
9900,-2088,-88,-296,-8,67,0
9905,-2080,-112,-320,-11,63,-1
9910,-2080,-120,-312,-12,62,0
9915,-2096,-104,-272,-15,60,1
9920,-2088,-120,-312,-14,61,0
9925,-2104,-104,-320,-16,63,1
9930,-2072,-104,-304,-18,65,1
9935,-2112,-80,-328,-18,66,2
9940,-2096,-80,-336,-16,67,0
9945,-2088,-72,-304,-18,69,2
9950,-2104,-88,-312,-20,68,1
9955,-2072,-112,-304,-21,67,2
9960,-2088,-104,-352,-23,67,1
9965,-2064,-88,-320,-25,66,1
9970,-2064,-120,-312,-25,65,-1
9975,-2096,-112,-304,-24,65,0
9980,-2080,-112,-328,-23,64,-1
9985,-2104,-72,-296,-21,62,-1
9990,-2104,-112,-304,-19,62,-1
9995,-2104,-96,-336,-18,61,1
10000,-2088,-104,-336,-17,62,-1
10005,-2080,-104,-312,-14,62,-1
10010,-2072,-112,-320,-12,62,-2
10015,-2072,-120,-280,-10,60,-2
10020,-2072,-112,-304,-8,60,-4
10025,-2088,-96,-328,-7,59,-4
10030,-2088,-96,-296,-7,57,-3
10035,-2056,-104,-288,-8,58,-2
10040,-2112,-88,-304,-10,57,-4
10045,-2088,-96,-312,-10,58,-2
10050,-2072,-88,-272,-10,57,-2
10055,-2080,-104,-328,-11,57,-3
10060,-2064,-112,-320,-10,57,-3
10065,-2080,-88,-304,-11,57,-3
10070,-2096,-88,-312,-9,56,-4
10075,-2080,-112,-296,-8,56,-3
10080,-2096,-96,-288,-10,55,-6
10085,-2088,-104,-312,-10,55,-4
10090,-2080,-88,-328,-12,53,-4
10095,-2080,-104,-304,-12,54,-4
10100,-2080,-104,-304,-14,53,-5
10105,-2072,-104,-320,-15,53,-4
10110,-2096,-104,-320,-17,52,-6
10115,-2088,-88,-296,-17,52,-6
10120,-2096,-104,-296,-17,52,-6
10125,-2080,-96,-304,-19,52,-4
10130,-2080,-136,-304,-20,53,-5
10135,-2104,-96,-320,-18,54,-5
10140,-2080,-112,-272,-19,55,-5
10145,-2080,-112,-312,-17,54,-5
10150,-2064,-104,-328,-16,52,-3
10155,-2112,-104,-312,-12,54,-3
10160,-2104,-104,-312,-9,54,-8
10165,-2080,-96,-320,-10,52,-3
10170,-2080,-88,-288,-15,52,-5
10175,-2064,-128,-304,-16,50,-4
10180,-2056,-104,-312,-15,51,-5
10185,-2096,-120,-312,-15,50,-3
10190,-2096,-112,-320,-12,51,-3
10195,-2096,-104,-320,-11,51,-2
10200,-2072,-120,-336,-8,55,-3
10205,-2088,-104,-304,-7,54,-4
10210,-2080,-104,-312,-6,55,-2
10215,-2080,-104,-296,-6,55,-1
10220,-2048,-128,-304,-6,54,-3
10225,-2064,-104,-296,-7,55,-1
10230,-2088,-112,-304,-9,56,-2
10235,-2080,-112,-272,-11,56,-1
10240,-2096,-80,-336,-13,55,-1
10245,-2080,-104,-296,-15,55,-1
10250,-2080,-96,-272,-15,56,-1
10255,-2072,-96,-320,-15,55,0
10260,-2080,-104,-304,-16,56,0
10265,-2064,-112,-296,-14,56,0
10270,-2064,-112,-288,-14,56,0
10275,-2104,-96,-336,-13,57,1
10280,-2096,-88,-328,-11,59,0
10285,-2096,-96,-256,-11,62,1
10290,-2096,-104,-336,-8,61,1
10295,-2096,-96,-312,-9,61,0
10300,-2072,-112,-312,-7,62,-1
10305,-2080,-112,-312,-8,62,0
10310,-2080,-112,-336,-9,61,0
10315,-2088,-112,-304,-10,61,0
10320,-2096,-96,-296,-11,60,-1
10325,-2072,-104,-264,-12,61,0
10330,-2088,-96,-288,-13,61,-1
10335,-2072,-112,-296,-14,60,0
10340,-2072,-128,-320,-13,61,0
10345,-2072,-112,-320,-14,61,-1
10350,-2072,-120,-320,-14,62,0
10355,-2088,-104,-304,-13,63,0
10360,-2096,-128,-312,-14,64,-1
10365,-2088,-104,-280,-14,65,1
10370,-2096,-88,-296,-17,66,2
10375,-2056,-104,-288,-18,65,1
10380,-2072,-80,-304,-18,66,-2
10385,-2032,-88,-296,-16,66,1
10390,-2080,-112,-304,-15,68,-2
10395,-2088,-120,-312,-13,66,-3
10400,-2064,-136,-280,-10,66,-2
10405,-2072,-112,-320,-9,66,0
10410,-2080,-120,-336,-8,64,-1
10415,-2080,-96,-320,-6,63,0
10420,-2080,-104,-320,-6,60,1
10425,-2096,-112,-344,-5,60,0
10430,-2088,-120,-328,-3,58,0
10435,-2088,-80,-344,-4,57,2
10440,-2080,-88,-288,-5,57,2
10445,-2096,-80,-320,-7,55,2
10450,-2088,-88,-336,-6,55,0
10455,-2080,-96,-304,-8,55,0
10460,-2072,-104,-288,-10,54,0
10465,-2072,-96,-296,-12,55,1
10470,-2072,-120,-280,-12,55,-1
10475,-2056,-104,-304,-13,56,0
10480,-2072,-112,-328,-13,55,-1
10485,-2080,-120,-312,-12,55,2
10490,-2072,-112,-304,-14,54,0
10495,-2064,-112,-304,-13,53,3
10500,-2072,-104,-312,-13,53,1
10505,-2056,-112,-296,-13,53,0
10510,-2056,-112,-296,-12,52,0
10515,-2096,-96,-304,-10,52,2
10520,-2080,-104,-304,-9,52,1
10525,-2096,-96,-288,-8,52,0
10530,-2072,-128,-312,-8,52,0
10535,-2080,-128,-320,-7,52,0
10540,-2088,-104,-296,-7,51,0
10545,-2096,-88,-328,-6,51,1
10550,-2064,-88,-288,-5,52,-1
10555,-2088,-88,-328,-6,51,0
10560,-2064,-128,-336,-7,50,-1
10565,-2072,-112,-304,-7,50,-2
10570,-2072,-120,-312,-8,49,-2
10575,-2080,-112,-296,-9,49,-1
10580,-2080,-104,-280,-12,50,-1
10585,-2096,-112,-320,-14,51,-3
10590,-2104,-104,-312,-14,50,-3
10595,-2080,-88,-288,-17,51,-3
10600,-2056,-112,-312,-18,52,-3
10605,-2096,-128,-304,-19,52,-2
10610,-2064,-104,-296,-19,51,-3
10615,-2072,-112,-312,-20,53,-3
10620,-2088,-104,-312,-20,56,-3
10625,-2104,-96,-296,-19,56,-3
10630,-2080,-96,-312,-19,57,-3
10635,-2080,-104,-296,-17,58,-2
10640,-2096,-104,-296,-16,59,-3
10645,-2072,-104,-296,-16,59,-3
10650,-2096,-112,-296,-14,60,-3
10655,-2080,-112,-304,-12,59,-2
10660,-2088,-112,-296,-13,59,-2
10665,-2056,-112,-296,-13,58,-2
10670,-2072,-120,-296,-12,59,-2
10675,-2104,-88,-288,-11,59,-1
10680,-2072,-112,-288,-10,58,-2
10685,-2080,-112,-280,-9,58,0
10690,-2064,-104,-280,-10,59,-1
10695,-2088,-96,-304,-10,60,1
10700,-2104,-104,-304,-10,59,1
10705,-2096,-96,-320,-8,59,2
10710,-2072,-128,-304,-9,58,1
10715,-2064,-120,-336,-7,59,2
10720,-2088,-104,-312,-7,59,2
10725,-2096,-96,-288,-5,60,0
10730,-2072,-120,-328,-6,60,1
10735,-2072,-120,-304,-5,59,1
10740,-2096,-104,-344,-3,61,0
10745,-2072,-128,-320,-1,63,0
10750,-2096,-112,-296,-3,62,1
10755,-2088,-96,-304,-2,62,1
10760,-2072,-96,-328,-1,61,0
10765,-2080,-80,-328,-3,60,-1
10770,-2080,-112,-280,-5,59,-3
10775,-2072,-88,-312,-7,58,0
10780,-2080,-120,-312,-8,56,-1
10785,-2088,-112,-296,-10,55,0
10790,-2072,-96,-312,-11,54,0
10795,-2080,-120,-280,-14,54,1
10800,-2056,-112,-288,-15,56,0
10805,-2072,-88,-344,-14,58,0
10810,-2064,-136,-296,-12,59,0
10815,-2056,-104,-304,-9,62,0
10820,-2088,-104,-288,-10,63,1
10825,-2088,-96,-288,-9,65,3
10830,-2088,-88,-296,-9,66,2
10835,-2080,-96,-296,-13,65,3
10840,-2104,-104,-320,-15,66,3
10845,-2088,-112,-304,-16,65,2
10850,-2064,-96,-304,-17,63,-1
10855,-2064,-128,-288,-17,62,2
10860,-2088,-120,-288,-17,60,2
10865,-2064,-88,-312,-16,61,1
10870,-2096,-128,-328,-15,61,2
10875,-2096,-128,-296,-11,60,3
10880,-2088,-88,-304,-8,59,1
10885,-2080,-120,-312,-7,59,4
10890,-2080,-120,-328,-5,59,2
10895,-2080,-112,-304,-3,59,2
10900,-2096,-104,-304,-2,60,1
10905,-2088,-96,-312,-2,60,1
10910,-2104,-96,-336,-3,59,0
10915,-2072,-104,-328,-4,58,1
10920,-2080,-96,-304,-6,60,0
10925,-2072,-96,-312,-5,60,1
10930,-2088,-88,-320,-6,59,0
10935,-2096,-72,-304,-7,59,1
10940,-2064,-120,-320,-4,59,-1
10945,-2056,-128,-312,-4,60,2
10950,-2104,-112,-304,-3,61,1
10955,-2080,-72,-296,-4,61,1
10960,-2088,-104,-336,-5,61,1
10965,-2088,-112,-312,-5,60,1
10970,-2080,-96,-312,-3,60,-1
10975,-2072,-120,-320,-5,60,2
10980,-2096,-96,-312,-7,58,0
10985,-2112,-72,-336,-5,57,2
10990,-2072,-96,-312,-7,57,0
10995,-2080,-96,-288,-9,56,0
11000,-2104,-104,-288,-9,57,0
11005,-2096,-112,-304,-11,57,0
11010,-2088,-96,-304,-12,57,-2
11015,-2080,-120,-288,-15,58,0
11020,-2064,-104,-312,-15,57,-3
11025,-2096,-96,-304,-16,57,-1
11030,-2064,-112,-296,-13,58,-2
11035,-2088,-120,-312,-13,58,-1
11040,-2104,-96,-304,-12,57,0
11045,-2088,-96,-328,-14,58,-1
11050,-2080,-120,-304,-15,56,-1
11055,-2072,-120,-312,-15,54,-1
11060,-2072,-96,-320,-15,54,-1
11065,-2080,-88,-296,-16,52,0
11070,-2072,-104,-304,-14,51,-1
11075,-2072,-104,-312,-13,52,0
11080,-2072,-104,-328,-9,53,-1
11085,-2072,-104,-336,-9,53,0
11090,-2088,-88,-296,-7,54,0
11095,-2088,-96,-296,-7,54,-1
11100,-2072,-104,-336,-7,56,-2
11105,-2088,-96,-288,-8,55,-1
11110,-2080,-104,-336,-8,53,-1
11115,-2104,-88,-296,-11,54,1
11120,-2096,-104,-304,-14,54,-1
11125,-2096,-104,-288,-15,56,1
11130,-2088,-120,-304,-14,56,1
11135,-2080,-112,-280,-17,57,0
11140,-2056,-96,-304,-18,56,-1
11145,-2056,-128,-264,-16,57,1
11150,-2080,-104,-328,-16,58,0
11155,-2088,-120,-296,-15,61,1
11160,-2072,-96,-312,-13,61,0
11165,-2080,-112,-320,-12,62,2
11170,-2072,-88,-312,-10,62,0
11175,-2088,-96,-312,-9,63,1
11180,-2056,-120,-296,-6,67,0
11185,-2072,-96,-352,-7,66,1
11190,-2080,-112,-288,-7,66,0
11195,-2072,-88,-320,-8,63,1
11200,-2088,-72,-312,-9,63,1
11205,-2072,-112,-344,-11,63,2
11210,-2088,-96,-296,-11,63,0
11215,-2088,-96,-304,-10,62,1
11220,-2080,-120,-296,-10,63,0
11225,-2096,-120,-352,-10,62,1
11230,-2080,-112,-320,-9,63,1
11235,-2096,-96,-320,-10,63,1
11240,-2072,-96,-320,-9,64,0
11245,-2112,-96,-304,-8,64,1
11250,-2088,-128,-280,-8,64,-1
11255,-2080,-120,-328,-8,64,1
11260,-2072,-88,-304,-8,63,0
11265,-2080,-120,-288,-10,63,1
11270,-2088,-104,-296,-9,64,0
11275,-2080,-104,-320,-9,64,0
11280,-2072,-104,-304,-11,63,0
11285,-2088,-104,-296,-10,62,1
11290,-2088,-88,-320,-9,61,0
11295,-2096,-96,-336,-10,61,0
11300,-2104,-104,-312,-8,60,1
11305,-2088,-104,-288,-10,59,1
11310,-2064,-104,-336,-10,59,-1
11315,-2096,-96,-344,-9,59,1
11320,-2080,-112,-320,-10,60,-1
11325,-2072,-88,-336,-11,59,-1
11330,-2096,-96,-336,-10,59,-1
11335,-2096,-112,-328,-12,58,-1
11340,-2072,-96,-336,-11,58,0
11345,-2096,-88,-304,-11,57,1
11350,-2064,-104,-320,-12,57,-1
11355,-2080,-88,-280,-14,57,-1
11360,-2088,-112,-296,-13,57,-2
11365,-2072,-96,-296,-14,56,0
11370,-2064,-96,-280,-15,56,-1
11375,-2080,-112,-304,-13,56,0
11380,-2080,-120,-296,-14,55,-1
11385,-2072,-112,-296,-13,56,-1
11390,-2096,-104,-288,-12,55,-1
11395,-2088,-96,-304,-11,55,-1
11400,-2080,-112,-296,-13,54,-3
11405,-2064,-112,-320,-13,55,-1
11410,-2096,-96,-320,-12,55,-1
11415,-2064,-112,-328,-9,56,0
11420,-2072,-96,-304,-11,57,-1
11425,-2072,-112,-296,-11,57,0
11430,-2088,-112,-296,-10,57,-3
11435,-2072,-80,-296,-11,58,-1
11440,-2080,-112,-304,-9,56,-3
11445,-2064,-112,-304,-9,56,-1
11450,-2080,-112,-280,-10,56,-2
11455,-2088,-72,-352,-9,58,-1
11460,-2096,-104,-304,-9,57,-3
11465,-2064,-96,-328,-10,56,0
11470,-2080,-88,-336,-9,56,-1
11475,-2080,-104,-320,-8,58,-1
11480,-2080,-104,-288,-7,57,-1
11485,-2088,-96,-296,-8,57,0
11490,-2072,-112,-304,-8,56,-1
11495,-2096,-80,-288,-10,57,2
11500,-2072,-104,-288,-12,56,2
11505,-2096,-104,-288,-13,56,2
11510,-2064,-104,-352,-13,56,2
11515,-2064,-128,-320,-12,58,3
11520,-2096,-96,-304,-12,58,2
11525,-2080,-104,-328,-12,57,1
11530,-2088,-96,-272,-11,58,1
11535,-2088,-96,-312,-10,56,2
11540,-2080,-128,-304,-10,58,1
11545,-2072,-88,-304,-9,58,3
11550,-2064,-104,-304,-9,57,1
11555,-2096,-112,-336,-8,57,2
11560,-2120,-112,-328,-8,57,1
11565,-2080,-80,-328,-9,58,1
11570,-2072,-104,-288,-9,58,2
11575,-2080,-96,-280,-10,58,1
11580,-2112,-96,-304,-10,58,0
11585,-2080,-96,-296,-10,58,2
11590,-2088,-96,-304,-12,58,1
11595,-2088,-80,-312,-12,59,3
11600,-2096,-88,-312,-11,59,1
11605,-2080,-104,-288,-11,57,2
11610,-2088,-112,-296,-10,58,1
11615,-2088,-96,-296,-10,58,3
11620,-2080,-112,-312,-8,56,2
11625,-2080,-96,-328,-9,57,2
11630,-2088,-104,-296,-9,57,1
11635,-2080,-104,-312,-6,57,0
11640,-2080,-96,-296,-6,58,0
11645,-2088,-80,-304,-5,58,0
11650,-2096,-96,-320,-5,60,-1
11655,-2096,-112,-352,-3,60,-1
11660,-2072,-112,-328,-3,61,0
11665,-2064,-120,-312,0,63,1
11670,-2080,-80,-328,1,62,0
11675,-2080,-96,-312,-1,61,1
11680,-2088,-88,-296,0,61,-2
11685,-2080,-112,-320,-1,61,1
11690,-2088,-112,-296,-1,59,0
11695,-2072,-120,-304,-2,58,2
11700,-2080,-104,-304,-4,57,1
11705,-2064,-104,-320,-6,56,1
11710,-2088,-112,-304,-6,58,1
11715,-2088,-96,-320,-5,59,1
11720,-2064,-96,-312,-3,61,-1
11725,-2096,-88,-328,-1,64,0
11730,-2088,-88,-312,0,63,0
11735,-2064,-112,-312,-2,63,2
11740,-2056,-96,-312,-1,62,2
11745,-2064,-104,-272,-5,60,4
11750,-2080,-96,-320,-9,58,2
11755,-2104,-88,-296,-10,57,4
11760,-2072,-104,-280,-7,62,3
11765,-2072,-104,-312,-10,61,6
11770,-2080,-88,-288,-11,61,5
11775,-2072,-104,-304,-9,59,5
11780,-2096,-88,-288,-8,59,5
11785,-2072,-96,-328,-7,59,6
11790,-2080,-104,-288,-5,59,4
11795,-2080,-104,-280,-4,60,5
11800,-2080,-88,-320,-3,62,5
11805,-2088,-112,-344,-4,62,6
11810,-2088,-80,-304,-3,62,4
11815,-2080,-128,-320,-4,62,5
11820,-2096,-104,-304,-5,63,3
11825,-2096,-88,-296,-4,63,3
11830,-2112,-112,-296,-7,62,2
11835,-2080,-104,-296,-7,60,4
11840,-2072,-72,-336,-8,61,1
11845,-2096,-120,-304,-11,58,3
11850,-2080,-72,-344,-9,58,2
11855,-2080,-96,-328,-8,62,1
11860,-2088,-72,-336,-7,60,0
11865,-2088,-88,-312,-7,60,0
11870,-2088,-104,-312,-6,60,-1
11875,-2088,-112,-288,-4,57,1
11880,-2088,-80,-344,-6,59,0
11885,-2072,-96,-312,-5,57,1
11890,-2080,-104,-288,-5,55,1
11895,-2088,-104,-296,-4,55,1
11900,-2072,-88,-296,-2,56,1
11905,-2064,-112,-296,-4,55,2
11910,-2080,-72,-296,-5,55,1
11915,-2064,-104,-320,-6,54,1
11920,-2072,-56,-304,-7,51,1
11925,-2096,-120,-312,-9,48,5
11930,-2088,-104,-336,-7,57,1
11935,-2104,-104,-296,-6,56,1
11940,-2096,-80,-296,-9,54,1
11945,-2080,-104,-312,-9,55,0
11950,-2088,-96,-296,-8,55,0
11955,-2080,-88,-328,-9,56,1
11960,-2096,-80,-304,-9,55,-1
11965,-2080,-104,-312,-11,53,0
11970,-2072,-104,-320,-13,52,-1
11975,-2080,-96,-320,-12,52,-1
11980,-2088,-72,-320,-10,52,-1
11985,-2080,-112,-296,-9,52,-1
11990,-2096,-104,-304,-7,53,-1
11995,-2088,-104,-304,-7,54,-1
12000,-2064,-88,-336,-5,55,-3
12005,-2072,-80,-320,-5,54,-2
12010,-2088,-120,-304,-6,55,-2
12015,-2080,-80,-320,-7,55,-1
12020,-2080,-96,-296,-7,53,-1
12025,-2080,-96,-296,-8,55,-1
12030,-2064,-104,-288,-8,56,-1
12035,-2088,-104,-304,-10,55,1
12040,-2096,-88,-296,-12,56,0
12045,-2048,-136,-264,-13,55,1
12050,-2032,-136,-280,-14,54,0
12055,-2088,-120,-320,-20,44,6
12060,-2088,-112,-320,-15,51,2
12065,-2096,-88,-296,-10,60,1
12070,-2040,-120,-304,-12,56,1
12075,-2080,-96,-288,-13,57,2
12080,-2072,-96,-304,-10,60,0
12085,-2072,-120,-296,-9,62,1
12090,-2088,-88,-336,-7,62,-1
12095,-2072,-88,-312,-8,61,2
12100,-2072,-104,-336,-8,62,0
12105,-2064,-96,-312,-9,62,2
12110,-2064,-96,-280,-9,62,1
12115,-2072,-104,-320,-10,63,2
12120,-2080,-96,-312,-12,60,2
12125,-2088,-96,-296,-11,64,3
12130,-2088,-88,-312,-11,61,1
12135,-2072,-112,-312,-11,61,2
12140,-2080,-72,-312,-10,62,1
12145,-2072,-112,-288,-11,64,3
12150,-2120,-80,-280,-11,62,1
12155,-2088,-72,-288,-12,61,2
12160,-2096,-80,-304,-11,62,2
12165,-2096,-104,-312,-11,61,2
12170,-2088,-72,-304,-12,63,1
12175,-2096,-88,-320,-12,63,2
12180,-2080,-96,-320,-12,63,2
12185,-2096,-88,-280,-12,64,1
12190,-2072,-80,-304,-13,62,0
12195,-2088,-88,-312,-13,62,1
12200,-2088,-88,-288,-13,62,-1
12205,-2096,-104,-272,-11,64,1
12210,-2096,-104,-288,-10,62,-1
12215,-2096,-104,-296,-10,62,0
12220,-2080,-96,-304,-11,61,0
12225,-2080,-104,-288,-13,60,1
12230,-2088,-96,-320,-12,61,-3
12235,-2072,-96,-288,-12,59,0
12240,-2072,-112,-304,-12,59,-2
12245,-2080,-136,-344,-12,60,1
12250,-2096,-88,-320,-14,59,-1
12255,-2080,-112,-336,-14,59,0
12260,-2088,-104,-320,-13,59,-1
12265,-2088,-104,-280,-15,58,-1
12270,-2056,-112,-280,-14,57,-1
12275,-2072,-96,-320,-14,57,0
12280,-2096,-96,-336,-13,57,-2
12285,-2072,-112,-304,-13,58,0
12290,-2088,-104,-304,-13,57,-1
12295,-2072,-96,-320,-13,57,0
12300,-2064,-96,-296,-13,57,-1
12305,-2080,-96,-312,-13,58,0
12310,-2080,-80,-296,-12,57,-1
12315,-2080,-96,-320,-11,56,-1
12320,-2096,-88,-320,-12,56,-2
12325,-2072,-88,-336,-11,56,0
12330,-2088,-96,-296,-12,56,-3
12335,-2080,-104,-280,-12,56,0
12340,-2080,-112,-304,-12,56,-1
12345,-2080,-88,-296,-12,56,-1
12350,-2064,-112,-320,-11,56,-3
12355,-2096,-80,-304,-11,57,-2
12360,-2104,-80,-312,-11,58,-3
12365,-2080,-96,-288,-12,58,-2
12370,-2096,-96,-304,-11,58,-2
12375,-2056,-112,-328,-11,57,-1
12380,-2088,-80,-296,-11,57,-3
12385,-2104,-88,-272,-12,57,0
12390,-2016,-104,-320,-11,54,-1
12395,-2096,-112,-344,-17,40,7
12400,-2104,-104,-304,-12,42,5
12405,-2088,-104,-320,-5,63,-2
12410,-2064,-120,-312,-7,61,-3
12415,-2104,-104,-312,-13,56,-1
12420,-2088,-96,-296,-12,60,-2
12425,-2072,-88,-312,-10,59,-1
12430,-2088,-104,-328,-9,60,-2
12435,-2088,-88,-320,-8,59,0
12440,-2072,-112,-320,-10,60,-1
12445,-2112,-88,-328,-10,59,0
12450,-2088,-96,-272,-10,60,-2
12455,-2088,-96,-296,-9,62,-1
12460,-2104,-80,-328,-7,61,-1
12465,-2088,-112,-312,-8,59,1
12470,-2088,-80,-336,-7,58,-1
12475,-2080,-96,-312,-8,60,0
12480,-2072,-96,-312,-6,59,1
12485,-2056,-112,-312,-6,58,1
12490,-2088,-80,-296,-4,57,1
12495,-2104,-96,-304,-6,58,1
12500,-2096,-80,-304,-5,59,0
12505,-2096,-88,-344,-7,58,-1
12510,-2088,-104,-312,-7,59,-3
12515,-2072,-104,-304,-6,59,-1
12520,-2096,-96,-304,-7,59,-3
12525,-2072,-104,-336,-8,58,0
12530,-2088,-96,-320,-8,58,0
12535,-2064,-80,-312,-9,59,0
12540,-2080,-104,-288,-10,59,-1
12545,-2104,-80,-312,-11,60,-1
12550,-2080,-88,-304,-12,59,-1
12555,-2088,-64,-304,-13,61,-1
12560,-2088,-80,-304,-12,60,-3
12565,-2072,-96,-336,-10,60,0
12570,-2072,-96,-320,-9,59,-1
12575,-2088,-88,-296,-10,59,0
12580,-2072,-96,-320,-10,58,0
12585,-2080,-112,-288,-10,58,1
12590,-2088,-80,-320,-9,60,0
12595,-2056,-88,-304,-9,60,0
12600,-2096,-88,-320,-11,60,-2
12605,-2056,-96,-288,-11,60,-1
12610,-2080,-96,-312,-8,61,-1
12615,-2096,-88,-336,-6,61,-2
12620,-2080,-88,-320,-7,62,-3
12625,-2064,-120,-312,-7,62,-2
12630,-2064,-120,-320,-7,63,-3
12635,-2080,-80,-328,-5,61,-1
12640,-2072,-104,-296,-6,60,-1
12645,-2088,-104,-312,-7,58,0
12650,-2080,-96,-296,-7,59,-2
12655,-2080,-104,-296,-8,56,1
12660,-2080,-64,-288,-8,57,-1
12665,-2104,-80,-312,-10,57,0
12670,-2088,-88,-336,-10,58,-2
12675,-2072,-88,-296,-9,60,0
12680,-2080,-80,-272,-8,61,-2
12685,-2080,-96,-288,-8,62,-1
12690,-2080,-88,-312,-10,64,-2
12695,-2080,-96,-312,-12,62,0
12700,-2080,-80,-296,-16,63,-2
12705,-2072,-64,-288,-18,61,-1
12710,-2080,-104,-312,-19,63,-2
12715,-2080,-104,-296,-21,63,-1
12720,-2056,-80,-296,-22,62,-1
12725,-2080,-104,-304,-22,56,1
12730,-2088,-120,-328,-24,49,5
12735,-2072,-112,-320,-16,56,3
12740,-2088,-72,-304,-12,64,-2
12745,-2080,-104,-280,-13,59,0
12750,-2088,-104,-312,-10,62,-2
12755,-2072,-112,-328,-9,62,0
12760,-2088,-104,-312,-6,61,-2
12765,-2088,-112,-296,-7,60,0
12770,-2072,-104,-304,-6,61,-2
12775,-2096,-112,-312,-7,63,-2
12780,-2080,-128,-320,-7,61,-2
12785,-2120,-56,-304,-13,49,2
12790,-2096,-104,-304,-12,50,0
12795,-2072,-88,-304,-5,62,-2
12800,-2088,-120,-296,-7,59,-2
12805,-2080,-112,-312,-11,59,0
12810,-2072,-104,-328,-10,61,-2
12815,-2088,-104,-296,-11,61,0
12820,-2080,-88,-296,-12,60,-1
12825,-2056,-88,-328,-11,61,-1
12830,-2088,-96,-280,-11,59,-2
12835,-2072,-112,-328,-11,59,0
12840,-2080,-80,-296,-11,60,-2
12845,-2080,-88,-336,-11,61,0
12850,-2080,-112,-304,-11,58,-1
12855,-2080,-96,-296,-12,58,-1
12860,-2064,-112,-280,-14,58,-3
12865,-2080,-96,-328,-13,58,-1
12870,-2080,-80,-328,-13,59,-2
12875,-2064,-112,-296,-14,58,-2
12880,-2096,-72,-304,-14,58,-1
12885,-2088,-80,-328,-13,59,-1
12890,-2080,-104,-304,-16,57,-4
12895,-2080,-80,-304,-15,58,-2
12900,-2072,-96,-320,-15,56,-4
12905,-2072,-96,-320,-15,56,-3
12910,-2088,-80,-336,-14,56,-4
12915,-2072,-88,-280,-15,56,-3
12920,-2072,-104,-304,-15,56,-3
12925,-2056,-104,-320,-16,55,-3
12930,-2080,-72,-288,-18,54,-3
12935,-2088,-96,-320,-16,52,-1
12940,-2080,-112,-304,-16,54,-2
12945,-2072,-120,-328,-14,53,-1
12950,-2096,-104,-304,-11,55,-2
12955,-2088,-104,-320,-9,56,-2
12960,-2056,-104,-304,-8,57,-3
12965,-2088,-80,-288,-6,56,-2
12970,-2080,-72,-320,-7,55,-4
12975,-2080,-104,-296,-9,55,-3
12980,-2080,-80,-288,-10,55,-5
12985,-2088,-104,-312,-13,54,-2
12990,-2104,-104,-296,-15,54,-4
12995,-2072,-96,-288,-18,54,-3
13000,-2072,-88,-288,-19,54,-4
13005,-2080,-112,-280,-20,55,-2
13010,-2080,-88,-272,-20,56,-4
13015,-2080,-96,-304,-19,56,-2
13020,-2088,-104,-296,-20,57,-3
13025,-2064,-96,-288,-19,59,-1
13030,-2088,-96,-328,-16,59,-3
13035,-2080,-104,-328,-15,61,0
13040,-2072,-104,-320,-14,61,-2
13045,-2088,-80,-280,-13,59,0
13050,-2088,-96,-264,-12,60,-2
13055,-2104,-96,-312,-11,60,-1
13060,-2088,-104,-328,-11,62,-4
13065,-2088,-88,-304,-11,62,-1
13070,-2088,-80,-328,-12,61,-2
13075,-2072,-96,-312,-12,61,-2
13080,-2088,-112,-312,-11,61,-3
13085,-2072,-96,-304,-12,60,-2
13090,-2088,-88,-336,-13,62,-3
13095,-2072,-120,-272,-12,62,-3
13100,-2104,-80,-312,-12,63,-4
13105,-2096,-72,-320,-11,64,-2
13110,-2072,-104,-296,-13,63,-4
13115,-2072,-96,-336,-11,62,-3
13120,-2080,-88,-312,-11,62,-4
13125,-2080,-104,-304,-13,62,-2
13130,-2072,-112,-296,-12,64,-3
13135,-2064,-88,-312,-13,62,-1
13140,-2088,-72,-304,-14,64,-4
13145,-2104,-96,-288,-14,63,-3
13150,-2096,-96,-288,-15,64,-4
13155,-2072,-88,-320,-15,63,-3
13160,-2104,-72,-320,-16,65,-4
13165,-2080,-88,-288,-16,64,-2
13170,-2096,-104,-320,-16,63,-5
13175,-2080,-80,-336,-17,62,-2
13180,-2064,-88,-328,-19,62,-4
13185,-2096,-88,-296,-18,59,-2
13190,-2048,-112,-320,-16,60,-3
13195,-2104,-96,-312,-17,60,-2
13200,-2088,-96,-296,-16,58,-2
13205,-2064,-96,-312,-16,58,-1
13210,-2104,-96,-312,-19,58,-3
13215,-2072,-96,-304,-18,58,-1
13220,-2088,-96,-304,-19,58,-2
13225,-2072,-96,-328,-18,58,-3
13230,-2080,-88,-320,-18,58,-4
13235,-2048,-120,-288,-18,57,-2
13240,-2072,-88,-336,-16,58,-3
13245,-2080,-120,-312,-17,59,-3
13250,-2096,-96,-312,-18,58,-3
13255,-2080,-104,-328,-19,58,-3
13260,-2088,-104,-328,-17,58,-4
13265,-2088,-112,-296,-16,59,-3
13270,-2072,-120,-288,-16,60,-4
13275,-2088,-96,-272,-16,58,-3
13280,-2072,-96,-312,-15,58,-3
13285,-2088,-88,-304,-15,58,-3
13290,-2080,-96,-336,-15,57,-4
13295,-2096,-72,-288,-14,57,-3
13300,-2064,-104,-288,-14,56,-4
13305,-2088,-104,-328,-15,56,-2
13310,-2096,-104,-344,-16,58,-4
13315,-2096,-80,-320,-15,57,-3
13320,-2088,-96,-328,-15,58,-5
13325,-2104,-96,-312,-17,57,-4
13330,-2072,-104,-328,-16,59,-5
13335,-2096,-80,-328,-16,57,-3
13340,-2104,-88,-296,-15,57,-4
13345,-2080,-96,-328,-15,58,-3
13350,-2080,-88,-296,-14,59,-2
13355,-2088,-88,-288,-15,59,-2
13360,-2088,-96,-312,-15,58,-2
13365,-2072,-104,-312,-15,59,-2
13370,-2112,-88,-336,-14,58,-3
13375,-2080,-88,-320,-13,58,-1
13380,-2096,-96,-352,-14,59,-3
13385,-2080,-104,-312,-13,59,-2
13390,-2088,-88,-312,-13,59,-3
13395,-2064,-80,-320,-14,59,-2
13400,-2096,-96,-312,-11,58,-3
13405,-2088,-96,-296,-10,59,-3
13410,-2096,-96,-320,-9,58,-3
13415,-2080,-112,-296,-10,58,-1
13420,-2080,-112,-288,-11,58,-2
13425,-2088,-96,-328,-10,58,-2
13430,-2088,-104,-312,-12,58,-3
13435,-2080,-96,-304,-11,57,-2
13440,-2080,-88,-288,-13,57,-3
13445,-2096,-72,-304,-13,57,-2
13450,-2080,-96,-296,-15,56,-5
13455,-2088,-88,-312,-16,57,-2
13460,-2096,-96,-336,-16,56,-3
13465,-2064,-104,-312,-17,58,-2
13470,-2064,-80,-320,-16,56,-2
13475,-2096,-96,-272,-18,57,-1
13480,-2080,-96,-312,-17,58,-2
13485,-2088,-104,-280,-18,59,-1
13490,-2080,-96,-312,-17,61,-3
13495,-2080,-88,-296,-17,62,-3
13500,-2088,-96,-288,-17,62,-4
13505,-2080,-104,-328,-18,62,-1
13510,-2064,-96,-312,-18,62,-4
13515,-2096,-104,-280,-16,62,-1
13520,-2072,-88,-296,-16,62,-2
13525,-2080,-104,-304,-15,61,0
13530,-2080,-112,-304,-14,62,-2
13535,-2064,-104,-304,-14,61,-1
13540,-2096,-104,-320,-13,60,-2
13545,-2072,-96,-304,-12,59,-1
13550,-2104,-96,-320,-13,61,-2
13555,-2080,-112,-312,-12,62,-1
13560,-2080,-96,-296,-12,62,-3
13565,-2088,-88,-312,-11,63,-2
13570,-2072,-72,-320,-8,64,-3
13575,-2080,-104,-328,-8,65,-3
13580,-2088,-96,-328,-7,64,-4
13585,-2088,-96,-296,-7,65,-3
13590,-2064,-96,-312,-6,64,-4
13595,-2072,-104,-304,-6,63,-3
13600,-2080,-88,-320,-8,63,-5
13605,-2080,-96,-328,-9,62,-3
13610,-2080,-96,-304,-11,58,-3
13615,-2088,-128,-296,-12,58,-2
13620,-2096,-96,-304,-14,58,-5
13625,-2104,-88,-312,-16,56,-3
13630,-2080,-104,-296,-18,58,-6
13635,-2096,-88,-328,-17,59,-3
13640,-2080,-96,-344,-15,61,-4
13645,-2104,-104,-312,-15,62,-2
13650,-2096,-104,-304,-14,64,-3
13655,-2080,-80,-288,-14,66,-1
13660,-2064,-72,-328,-15,64,-2
13665,-2088,-88,-312,-18,64,-2
13670,-2096,-88,-304,-20,66,-2
13675,-2080,-104,-328,-20,64,0
13680,-2088,-88,-288,-22,65,-1
13685,-2080,-112,-304,-22,61,0
13690,-2072,-88,-336,-22,61,-2
13695,-2080,-104,-312,-21,59,1
13700,-2088,-88,-344,-20,58,-1
13705,-2080,-96,-296,-20,58,2
13710,-2080,-120,-312,-20,58,0
13715,-2080,-104,-320,-19,58,1
13720,-2088,-88,-288,-17,57,0
13725,-2088,-96,-320,-16,60,1
13730,-2096,-104,-304,-18,60,0
13735,-2088,-80,-328,-17,60,1
13740,-2080,-112,-328,-16,59,-1
13745,-2088,-72,-320,-18,61,-1
13750,-2064,-96,-328,-18,62,-3
13755,-2072,-88,-304,-18,63,-2
13760,-2088,-104,-320,-17,62,-4
13765,-2096,-96,-272,-16,62,-1
13770,-2088,-72,-336,-15,62,-4
13775,-2072,-104,-304,-15,61,-2
13780,-2080,-104,-320,-14,62,-5
13785,-2096,-104,-312,-13,62,-4
13790,-2112,-104,-320,-14,62,-5
13795,-2096,-72,-336,-13,61,-2
13800,-2104,-104,-296,-14,60,-4
13805,-2072,-96,-320,-14,59,-4
13810,-2080,-128,-280,-14,59,-5
13815,-2080,-96,-336,-17,57,-3
13820,-2088,-104,-296,-18,57,-5
13825,-2104,-104,-336,-18,58,-3
13830,-2072,-104,-304,-18,59,-5
13835,-2096,-96,-328,-18,60,-2
13840,-2096,-88,-304,-17,59,-5
13845,-2096,-104,-312,-18,61,-3
13850,-2064,-80,-320,-18,61,-5
13855,-2072,-104,-328,-20,61,-4
13860,-2072,-104,-304,-19,61,-5
13865,-2096,-80,-320,-17,62,-4
13870,-2080,-88,-304,-18,62,-6
13875,-2088,-88,-312,-17,61,-4
13880,-2080,-104,-320,-19,61,-6
13885,-2072,-112,-328,-19,61,-5
13890,-2088,-88,-312,-19,59,-6
13895,-2088,-104,-320,-19,57,-3
13900,-2072,-128,-336,-19,56,-5
13905,-2088,-112,-320,-20,55,-3
13910,-2048,-128,-392,-19,55,-5
13915,-2096,-104,-336,-17,57,-3
13920,-2088,-80,-296,-17,57,-6
13925,-2080,-88,-320,-17,56,-3
13930,-2072,-104,-288,-15,57,-5
13935,-2072,-72,-312,-15,56,-3
13940,-2088,-96,-296,-16,55,-4
13945,-2072,-104,-320,-18,56,-2
13950,-2080,-96,-328,-18,58,-4
13955,-2080,-88,-320,-20,58,-1
13960,-2072,-104,-296,-21,58,-3
13965,-2064,-64,-296,-23,60,0
13970,-2080,-96,-304,-23,61,-2
13975,-2112,-80,-312,-23,61,0
13980,-2096,-88,-288,-23,59,-1
13985,-2064,-128,-304,-22,59,-1
13990,-2072,-104,-336,-22,60,-1
13995,-2080,-88,-296,-22,60,0
14000,-2088,-96,-328,-21,61,-2
14005,-2080,-104,-296,-19,63,-1
14010,-2104,-96,-328,-17,65,-2
14015,-2088,-88,-352,-18,65,-1
14020,-2096,-104,-296,-18,63,-2
14025,-2088,-96,-312,-19,64,-1
14030,-2080,-96,-280,-19,63,-3
14035,-2080,-120,-304,-21,63,0
14040,-2080,-112,-288,-19,62,-2
14045,-2104,-96,-312,-20,64,1
14050,-2072,-96,-344,-20,64,-1
14055,-2080,-112,-304,-19,64,1
14060,-2088,-80,-296,-17,63,-1
14065,-2072,-96,-312,-16,63,2
14070,-2056,-96,-328,-16,62,0
14075,-2064,-112,-328,-16,62,2
14080,-2088,-104,-320,-17,63,0
14085,-2096,-96,-312,-17,63,1
14090,-2080,-104,-288,-18,63,0
14095,-2088,-80,-320,-16,64,1
14100,-2096,-72,-296,-17,64,-1
14105,-2064,-88,-344,-15,64,1
14110,-2080,-88,-296,-18,66,0
14115,-2064,-80,-336,-16,65,1
14120,-2104,-72,-328,-16,65,-1
14125,-2088,-64,-320,-18,66,0
14130,-2088,-96,-304,-17,65,-1
14135,-2080,-112,-304,-16,64,1
14140,-2064,-104,-336,-16,64,-1
14145,-2088,-104,-280,-16,65,1
14150,-2104,-112,-312,-16,66,-1
14155,-2096,-88,-320,-15,67,2
14160,-2088,-96,-336,-15,67,0
14165,-2096,-96,-312,-14,66,2
14170,-2080,-80,-312,-16,65,-1
14175,-2088,-104,-336,-16,63,2
14180,-2064,-112,-320,-17,64,-1
14185,-2104,-104,-336,-18,64,1
14190,-2080,-88,-320,-17,65,-1
14195,-2072,-112,-328,-17,65,2
14200,-2080,-96,-320,-17,64,-1
14205,-2080,-96,-312,-16,64,2
14210,-2072,-104,-320,-16,65,0
14215,-2088,-96,-312,-17,64,2
14220,-2072,-88,-328,-16,63,-1
14225,-2088,-120,-344,-16,62,1
14230,-2080,-104,-312,-16,62,1
14235,-2064,-80,-328,-17,64,1
14240,-2096,-104,-288,-17,62,0
14245,-2096,-96,-312,-16,62,2
14250,-2104,-88,-336,-14,61,0
14255,-2056,-96,-336,-12,61,3
14260,-2072,-88,-296,-12,61,0
14265,-2080,-112,-320,-14,60,2
14270,-2088,-104,-344,-12,61,0
14275,-2072,-96,-328,-13,59,0
14280,-2072,-88,-312,-14,60,-2
14285,-2080,-88,-336,-14,58,0
14290,-2072,-112,-320,-13,60,-1
14295,-2080,-120,-320,-14,63,1
14300,-2088,-88,-304,-15,63,0
14305,-2064,-96,-328,-14,64,2
14310,-2080,-88,-288,-14,63,0
14315,-2096,-96,-328,-11,62,2
14320,-2112,-128,-344,-11,64,2
14325,-2064,-104,-328,-10,64,3
14330,-2080,-104,-288,-10,63,2
14335,-2104,-112,-312,-11,64,5
14340,-2088,-104,-320,-11,61,2
14345,-2104,-80,-344,-12,61,4
14350,-2080,-112,-336,-13,61,2
14355,-2072,-112,-304,-13,62,3
14360,-2096,-104,-296,-15,61,0
14365,-2056,-96,-328,-15,61,2
14370,-2072,-88,-328,-14,61,0
14375,-2096,-104,-280,-15,61,1
14380,-2096,-104,-312,-15,62,0
14385,-2072,-88,-304,-16,63,2
14390,-2072,-96,-344,-16,63,0
14395,-2056,-104,-304,-17,63,2
14400,-2072,-88,-256,-17,63,-1
14405,-2080,-88,-312,-17,65,2
14410,-2072,-112,-304,-17,65,-1
14415,-2072,-112,-304,-16,64,3
14420,-2072,-104,-352,-15,63,1
14425,-2072,-96,-328,-14,63,2
14430,-2104,-64,-296,-16,63,1
14435,-2096,-88,-328,-14,61,4
14440,-2080,-96,-304,-11,58,1
14445,-2144,-72,-320,-8,57,5
14450,-2040,-120,-344,-4,53,-1
14455,-2104,-80,-368,-8,55,0
14460,-2080,-104,-320,-10,53,-3
14465,-2112,-96,-336,-9,56,0
14470,-2064,-64,-360,-8,61,-3
14475,-2080,-104,-352,-5,62,2
14480,-2064,-96,-360,-5,61,0
14485,-2096,-80,-328,-2,63,3
14490,-2088,-88,-312,-3,63,-2
14495,-2104,-96,-328,-3,63,-2
14500,-2080,-88,-320,-6,62,-2
14505,-2080,-80,-304,-8,59,-1
14510,-2088,-96,-352,-10,57,-2
14515,-2064,-112,-344,-11,54,0
14520,-2088,-96,-312,-14,54,-2
14525,-2080,-104,-304,-14,53,0
14530,-2072,-96,-288,-17,54,-1
14535,-2088,-96,-312,-17,55,1
14540,-2072,-96,-320,-18,56,0
14545,-2080,-72,-304,-18,58,1
14550,-2096,-88,-312,-17,60,1
14555,-2072,-112,-320,-16,63,3
14560,-2088,-88,-280,-12,65,2
14565,-2088,-104,-288,-12,66,3
14570,-2080,-88,-336,-13,67,2
14575,-2072,-96,-280,-13,67,4
14580,-2056,-88,-352,-13,68,1
14585,-2072,-112,-296,-12,67,3
14590,-2088,-80,-320,-12,66,0
14595,-2072,-104,-360,-13,66,3
14600,-2080,-104,-288,-10,65,0
14605,-2072,-96,-304,-9,64,2
14610,-2072,-88,-288,-9,63,0
14615,-2072,-104,-336,-6,64,2
14620,-2080,-96,-304,-4,62,-1
14625,-2072,-88,-336,-5,60,1
14630,-2072,-80,-328,-5,60,0
14635,-2064,-112,-320,-5,61,2
14640,-2096,-56,-336,-4,61,0
14645,-2104,-72,-352,-4,61,2
14650,-2088,-96,-320,-5,60,0
14655,-2088,-112,-312,-5,60,1
14660,-2088,-88,-360,-5,62,0
14665,-2064,-64,-288,-4,62,1
14670,-2080,-96,-320,-4,62,0
14675,-2072,-72,-320,-4,60,2
14680,-2072,-112,-328,-4,60,1
14685,-2072,-88,-312,-5,60,2
14690,-2088,-88,-328,-6,60,0
14695,-2112,-96,-328,-6,60,2
14700,-2080,-96,-336,-7,60,0
14705,-2072,-120,-328,-7,58,2
14710,-2096,-88,-296,-9,58,0
14715,-2064,-88,-328,-11,59,3
14720,-2080,-120,-328,-11,58,0
14725,-2080,-96,-312,-12,60,3
14730,-2104,-72,-328,-12,60,1
14735,-2080,-112,-320,-14,59,3
14740,-2088,-80,-312,-14,61,1
14745,-2072,-104,-344,-14,61,4
14750,-2080,-104,-328,-12,61,1
14755,-2080,-88,-320,-12,62,3
14760,-2072,-80,-336,-12,61,3
14765,-2080,-88,-328,-11,61,5
14770,-2088,-104,-320,-11,60,3
14775,-2088,-64,-344,-13,60,6
14780,-2080,-88,-320,-13,59,3
14785,-2088,-88,-336,-13,57,5
14790,-2080,-96,-328,-11,56,3
14795,-2080,-104,-280,-11,54,4
14800,-2056,-104,-296,-10,56,2
14805,-2096,-72,-312,-9,54,3
14810,-2096,-96,-328,-8,54,0
14815,-2096,-96,-304,-5,57,2
14820,-2080,-88,-312,-4,57,0
14825,-2080,-80,-328,-3,57,-1
14830,-2080,-88,-288,-3,58,-1
14835,-2080,-88,-328,-5,58,1
14840,-2088,-72,-312,-7,59,-2
14845,-2080,-72,-320,-9,58,1
14850,-2072,-80,-304,-10,57,-2
14855,-2080,-88,-328,-12,56,0
14860,-2104,-80,-344,-15,58,-4
14865,-2080,-96,-312,-17,59,-1
14870,-2104,-88,-312,-18,59,-3
14875,-2072,-88,-312,-18,58,-2
14880,-2064,-96,-352,-18,57,-4
14885,-2096,-88,-312,-18,58,-2
14890,-2096,-96,-352,-15,58,-4
14895,-2080,-104,-320,-15,59,-3
14900,-2096,-88,-288,-12,58,-4
14905,-2080,-88,-296,-11,59,-1
14910,-2080,-88,-328,-10,61,-5
14915,-2096,-112,-312,-11,59,-2
14920,-2104,-80,-304,-13,59,-4
14925,-2096,-104,-336,-12,58,-1
14930,-2080,-88,-312,-14,58,-3
14935,-2080,-96,-312,-13,57,-1
14940,-2064,-112,-344,-13,57,-3
14945,-2056,-104,-328,-12,57,0
14950,-2088,-96,-328,-10,55,-1
14955,-2080,-96,-328,-9,56,0
14960,-2088,-112,-320,-9,55,-2
14965,-2096,-96,-312,-8,56,0
14970,-2072,-96,-320,-8,56,-2
14975,-2080,-88,-328,-8,57,0
14980,-2088,-96,-312,-7,58,-1
14985,-2088,-120,-288,-6,58,1
14990,-2080,-80,-328,-8,58,-1
