timestamp,accel_x,accel_y,accel_z,gyro_x,gyro_y,gyro_z
0,88,-2008,-400,-31,108,-14
5,56,-2024,-384,-32,110,-15
10,96,-2040,-384,-30,109,-16
15,72,-2016,-424,-29,110,-17
20,96,-2032,-376,-29,110,-20
25,96,-1952,-416,-30,112,-21
30,88,-2000,-392,-32,112,-20
35,80,-1984,-360,-36,111,-22
40,72,-2000,-408,-39,110,-22
45,72,-2008,-400,-43,111,-23
50,72,-2008,-376,-46,111,-23
55,88,-2032,-376,-46,112,-23
60,88,-1992,-376,-49,114,-23
65,112,-2024,-384,-52,116,-22
70,88,-1992,-376,-54,118,-20
75,104,-2032,-376,-58,121,-18
80,88,-2008,-384,-60,122,-17
85,72,-2000,-376,-61,124,-16
90,96,-2048,-400,-62,123,-15
95,80,-2064,-376,-61,124,-11
100,64,-2024,-376,-59,126,-9
105,72,-2048,-352,-57,125,-8
110,56,-2016,-376,-54,124,-7
115,88,-2016,-376,-53,122,-4
120,56,-2016,-376,-51,122,-3
125,40,-2008,-392,-53,121,0
130,32,-2008,-384,-55,118,1
135,40,-1992,-400,-57,117,3
140,48,-2016,-392,-62,115,2
145,48,-2008,-392,-67,113,3
150,48,-2024,-376,-75,110,3
155,32,-2008,-400,-83,109,3
160,24,-1992,-424,-89,104,2
165,48,-2016,-408,-96,101,2
170,24,-2000,-384,-102,98,1
175,24,-2024,-392,-108,94,1
180,8,-2008,-376,-109,91,1
185,-16,-2104,-392,-108,86,0
190,24,-2032,-392,-104,82,-2
195,8,-2056,-392,-97,80,-2
200,0,-2056,-392,-88,76,-4
205,32,-2024,-416,-78,73,-7
210,48,-2032,-448,-69,69,-7
215,16,-2016,-400,-62,66,-7
220,24,-2016,-392,-55,63,-9
225,40,-2048,-400,-50,60,-11
230,40,-2048,-408,-43,56,-9
235,32,-2016,-424,-34,54,-11
240,56,-2024,-392,-22,50,-10
245,56,-2032,-400,-10,50,-9
250,88,-2040,-408,0,52,-7
255,88,-2032,-408,8,52,-7
260,72,-2032,-368,14,54,-5
265,88,-2040,-384,20,58,-4
270,80,-2032,-392,24,61,-1
275,88,-2016,-352,30,64,1
280,120,-2072,-384,40,68,4
285,120,-2048,-392,53,74,5
290,104,-2048,-344,70,79,8
295,112,-2008,-352,86,85,9
300,104,-2016,-384,100,94,10
305,136,-2008,-360,111,99,11
310,104,-1992,-368,117,107,10
315,120,-2016,-360,115,111,11
320,104,-2000,-360,107,116,10
325,96,-2008,-392,98,119,11
330,88,-2016,-360,87,121,9
335,80,-2000,-376,74,121,9
340,72,-1984,-408,66,119,8
345,88,-2032,-384,59,118,7
350,40,-1992,-392,53,117,7
355,56,-2048,-400,53,116,6
360,40,-2056,-368,53,115,3
365,40,-2048,-344,55,111,3
370,32,-2048,-360,58,106,1
375,8,-2024,-384,64,103,0
380,8,-2040,-384,67,98,-2
385,0,-2040,-344,71,93,-4
390,24,-2064,-400,72,87,-5
395,0,-2032,-368,75,82,-6
400,-8,-2040,-392,76,76,-6
405,-24,-2024,-376,77,68,-7
410,0,-2024,-352,76,62,-10
415,16,-2024,-360,75,55,-9
420,8,-1992,-360,71,49,-9
425,16,-2032,-368,65,41,-10
430,48,-2000,-384,60,34,-8
435,48,-2016,-424,55,30,-8
440,56,-2008,-368,53,26,-7
445,48,-2016,-352,50,23,-4
450,48,-2008,-344,49,22,-3
455,72,-2016,-336,46,23,0
460,120,-2024,-344,45,25,3
465,120,-2024,-352,46,28,4
470,136,-2048,-344,47,33,8
475,120,-2032,-280,49,38,10
480,104,-2024,-344,53,43,12
485,144,-2032,-336,59,50,14
490,112,-2056,-328,63,59,15
495,120,-2056,-368,69,63,15
500,112,-2048,-352,75,69,17
505,112,-2048,-328,81,72,17
510,80,-2056,-368,86,77,18
515,104,-2056,-360,90,80,17
520,80,-2008,-376,94,82,15
525,48,-2008,-344,95,83,11
530,40,-2016,-368,93,82,11
535,16,-2024,-336,90,80,6
540,8,-2016,-352,88,78,3
545,32,-2024,-352,87,76,-3
550,24,-2024,-360,89,72,-8
555,0,-2016,-328,91,70,-10
560,8,-2032,-376,93,65,-12
565,-16,-2008,-320,92,59,-14
570,8,-2024,-312,89,52,-15
575,8,-2032,-376,86,47,-17
580,-24,-2000,-336,80,42,-18
585,24,-1992,-328,78,36,-20
590,16,-2016,-360,72,30,-18
595,40,-2000,-352,68,23,-18
600,24,-2000,-328,62,19,-18
605,40,-1976,-336,58,14,-18
610,48,-2000,-360,51,13,-17
615,40,-1992,-336,46,10,-13
620,32,-2000,-328,40,9,-12
625,88,-2008,-312,35,9,-8
630,88,-2000,-328,30,8,-7
635,80,-1992,-352,25,10,-2
640,104,-2016,-352,20,10,-1
645,104,-2032,-344,18,13,2
650,120,-2016,-352,14,16,4
655,112,-2048,-360,11,20,6
660,120,-2040,-360,11,22,10
665,80,-2040,-328,12,29,10
670,112,-2040,-336,14,34,11
675,96,-2016,-336,15,38,12
680,112,-2040,-344,17,41,12
685,104,-2040,-360,17,45,11
690,120,-2032,-312,16,49,12
695,72,-2016,-336,19,54,12
700,96,-2040,-336,21,56,10
705,64,-2056,-328,22,60,10
710,56,-2040,-352,22,63,8
715,56,-2040,-360,23,65,6
720,72,-2016,-352,23,66,5
725,64,-2040,-368,25,68,3
730,72,-2024,-336,27,67,-1
735,48,-2032,-352,30,65,-1
740,24,-2032,-336,30,62,-1
745,40,-2016,-328,28,61,-1
750,16,-2016,-344,27,57,-2
755,40,-2016,-344,26,54,-3
760,40,-2016,-344,23,51,-3
765,48,-1992,-328,21,49,-2
770,64,-2040,-344,18,46,-1
775,32,-2024,-360,14,43,-1
780,24,-2000,-344,9,42,-2
785,56,-2016,-328,6,42,1
790,48,-2008,-328,2,39,2
795,48,-2008,-328,0,36,2
800,64,-2008,-336,-2,37,4
805,56,-2016,-352,-6,35,6
810,64,-2032,-304,-8,31,8
815,88,-2016,-320,-9,29,9
820,80,-2024,-328,-11,28,11
825,64,-2032,-320,-13,26,11
830,56,-2016,-312,-15,28,13
835,72,-2024,-328,-18,28,14
840,72,-2016,-344,-21,29,14
845,64,-2008,-336,-21,30,15
850,64,-2024,-344,-23,33,15
855,56,-2016,-328,-25,37,15
860,80,-2024,-328,-25,41,14
865,72,-2016,-320,-27,46,17
870,64,-2008,-304,-26,49,19
875,64,-2048,-320,-25,52,18
880,88,-2056,-304,-24,55,18
885,72,-2032,-336,-23,56,19
890,32,-2032,-288,-21,59,19
895,40,-2056,-288,-19,60,18
900,16,-2056,-320,-16,61,17
905,56,-2040,-344,-15,61,17
910,16,-2048,-336,-13,62,17
915,32,-2024,-312,-12,61,16
920,48,-2040,-304,-13,59,14
925,40,-2040,-344,-11,58,12
930,16,-2032,-352,-10,57,12
935,24,-2008,-344,-9,54,11
940,16,-2008,-296,-11,51,11
945,8,-2016,-352,-10,47,12
950,24,-2048,-336,-11,46,14
955,24,-2040,-296,-13,42,14
960,0,-2024,-312,-16,41,12
965,16,-2032,-296,-16,38,14
970,16,-2048,-312,-17,37,13
975,32,-2032,-328,-16,36,12
980,16,-2040,-328,-14,33,10
985,32,-2016,-312,-13,33,8
990,24,-2008,-312,-11,32,7
995,32,-2024,-304,-11,30,5
1000,16,-2016,-328,-11,29,6
1005,24,-2032,-320,-13,29,4
1010,16,-2000,-296,-15,29,4
1015,24,-2016,-288,-16,27,4
1020,16,-2040,-312,-15,28,4
1025,56,-2016,-320,-15,28,3
1030,40,-2016,-280,-15,27,3
1035,72,-2008,-312,-16,27,3
1040,40,-2016,-320,-18,28,3
1045,40,-2024,-328,-21,29,1
1050,24,-2008,-296,-24,29,2
1055,56,-2040,-368,-24,30,0
1060,72,-2048,-304,-25,32,-1
1065,32,-2032,-320,-25,33,0
1070,56,-2040,-328,-25,35,-2
1075,48,-2040,-304,-24,37,-4
1080,32,-2024,-344,-22,38,-4
1085,48,-2040,-328,-19,40,-6
1090,56,-2040,-312,-16,42,-6
1095,48,-2032,-288,-14,41,-6
1100,48,-2024,-288,-12,43,-7
1105,56,-2024,-272,-12,40,-5
1110,64,-2040,-296,-13,41,-5
1115,56,-2048,-288,-13,42,-5
1120,48,-2032,-312,-14,41,-5
1125,56,-2032,-312,-15,42,-3
1130,48,-2040,-328,-15,44,-3
1135,40,-2016,-312,-15,44,-4
1140,40,-2016,-288,-17,44,-5
1145,48,-2032,-304,-18,45,-4
1150,24,-1992,-336,-19,47,-4
1155,56,-2024,-280,-21,47,-4
1160,56,-2024,-336,-22,47,-5
1165,64,-2024,-376,-25,49,-6
1170,40,-2040,-320,-27,50,-8
1175,56,-2024,-304,-28,51,-9
1180,48,-2032,-312,-28,54,-10
1185,64,-2040,-304,-28,57,-8
1190,48,-2016,-288,-28,59,-9
1195,32,-2032,-320,-27,60,-9
1200,48,-2048,-304,-26,62,-8
1205,48,-2032,-312,-27,62,-8
1210,72,-2040,-304,-25,65,-9
1215,48,-2016,-328,-25,67,-8
1220,40,-2040,-336,-25,67,-8
1225,48,-2040,-312,-25,67,-7
1230,80,-2016,-288,-27,68,-6
1235,64,-2016,-312,-26,70,-6
1240,80,-2032,-336,-26,70,-6
1245,40,-2008,-312,-27,71,-6
1250,48,-2048,-344,-26,73,-5
1255,56,-2032,-280,-28,74,-5
1260,40,-2048,-328,-28,75,-6
1265,72,-2040,-272,-30,77,-7
1270,48,-2024,-312,-30,76,-6
1275,104,-2000,-264,-31,78,-6
1280,48,-2032,-304,-32,78,-6
1285,48,-2032,-328,-31,78,-7
1290,48,-2016,-296,-32,79,-7
1295,32,-2024,-296,-32,78,-8
1300,40,-2016,-344,-32,81,-7
1305,48,-2024,-336,-33,80,-9
1310,32,-2024,-288,-32,80,-9
1315,40,-2032,-304,-32,80,-8
1320,56,-2048,-320,-33,80,-9
1325,56,-2056,-296,-35,81,-7
1330,72,-2032,-320,-36,82,-7
1335,80,-2080,-328,-35,83,-7
1340,40,-2040,-288,-35,84,-7
1345,48,-2016,-304,-35,84,-6
1350,56,-2024,-336,-35,84,-5
1355,48,-2064,-320,-34,86,-6
1360,32,-2016,-304,-33,85,-7
1365,64,-2024,-304,-32,85,-7
1370,56,-2024,-344,-31,86,-7
1375,40,-2024,-336,-31,84,-6
1380,64,-2016,-320,-32,87,-6
1385,32,-2000,-328,-33,88,-8
1390,64,-2016,-336,-34,89,-7
1395,80,-2040,-304,-33,90,-9
1400,64,-2032,-328,-34,92,-8
1405,48,-2032,-336,-35,92,-9
1410,72,-2024,-328,-36,93,-8
1415,64,-2032,-304,-39,95,-8
1420,48,-2040,-344,-40,96,-9
1425,72,-2016,-336,-40,97,-9
1430,32,-2024,-328,-40,97,-9
1435,48,-2048,-352,-39,96,-7
1440,64,-2016,-320,-36,95,-9
1445,32,-2016,-344,-34,93,-9
1450,48,-2032,-304,-36,92,-10
1455,40,-2040,-328,-37,89,-7
1460,48,-2040,-336,-40,87,-6
1465,40,-2032,-328,-44,83,-6
1470,40,-2040,-344,-48,81,-6
1475,48,-2016,-336,-49,79,-6
1480,72,-2016,-336,-50,78,-7
1485,32,-2024,-320,-53,77,-7
1490,40,-2016,-336,-54,77,-8
1495,56,-2048,-392,-56,77,-8
1500,48,-2056,-328,-59,77,-9
1505,40,-2008,-360,-62,77,-9
1510,32,-2016,-336,-65,77,-12
1515,40,-2024,-376,-67,76,-11
1520,64,-2016,-328,-70,76,-10
1525,40,-2024,-360,-73,74,-10
1530,40,-2032,-360,-76,72,-9
1535,48,-2024,-344,-78,70,-9
1540,32,-2000,-336,-79,69,-6
1545,56,-2048,-368,-80,68,-6
1550,64,-2016,-344,-84,67,-7
1555,72,-2016,-352,-87,68,-6
1560,56,-2016,-392,-92,67,-5
1565,32,-2008,-336,-97,66,-5
1570,40,-2008,-328,-105,65,-6
1575,56,-2024,-336,-111,65,-6
1580,40,-2016,-360,-118,64,-7
1585,48,-2016,-344,-123,64,-6
1590,40,-2024,-344,-130,64,-6
1595,16,-2016,-336,-135,63,-7
1600,56,-1968,-352,-140,63,-8
1605,56,-2008,-368,-145,64,-7
1610,48,-2000,-360,-148,63,-9
1615,48,-2016,-344,-151,65,-10
1620,24,-2016,-312,-153,66,-11
1625,56,-2024,-360,-154,65,-10
1630,48,-2024,-352,-155,64,-9
1635,48,-2040,-376,-153,63,-8
1640,48,-2000,-360,-153,63,-8
1645,16,-2024,-352,-153,63,-8
1650,56,-2024,-352,-153,61,-6
1655,16,-2024,-368,-153,59,-5
1660,32,-2008,-368,-149,58,-5
1665,48,-2040,-352,-146,57,-4
1670,40,-2040,-392,-143,57,-3
1675,16,-2016,-360,-139,57,-2
1680,40,-2024,-384,-134,57,-2
1685,32,-2048,-392,-127,56,-3
1690,32,-2048,-416,-121,57,-4
1695,24,-2040,-400,-114,58,-3
1700,48,-2032,-408,-108,58,-3
1705,48,-2024,-384,-103,59,-3
1710,32,-2040,-432,-98,56,-2
1715,8,-2000,-424,-93,58,-2
1720,48,-2024,-440,-89,58,-3
1725,32,-2016,-400,-87,59,-3
1730,56,-2016,-400,-86,61,-3
1735,40,-2000,-392,-86,61,-3
1740,32,-2008,-432,-86,61,-3
1745,24,-2016,-416,-86,60,-4
1750,40,-2032,-392,-85,59,-4
1755,40,-2016,-416,-84,59,-4
1760,16,-2024,-440,-83,59,-4
1765,48,-2016,-384,-84,60,-4
1770,32,-2000,-416,-84,61,-3
1775,40,-2008,-416,-83,60,-4
1780,48,-2008,-376,-85,60,-4
1785,40,-2000,-416,-84,59,-5
1790,40,-2008,-424,-82,60,-5
1795,64,-2008,-424,-82,59,-6
1800,32,-2000,-416,-83,59,-6
1805,48,-2008,-408,-82,58,-5
1810,56,-2016,-400,-81,58,-5
1815,40,-1984,-392,-79,58,-7
1820,176,-1864,-440,-76,57,-8
1825,40,-2032,-416,-75,57,-7
1830,32,-2024,-416,-72,56,-10
1835,48,-2032,-424,-70,53,-8
1840,48,-2016,-416,-67,53,-9
1845,32,-2008,-432,-64,52,-9
1850,64,-2008,-424,-62,51,-8
1855,64,-2000,-416,-61,51,-7
1860,56,-2008,-432,-57,50,-6
1865,40,-2016,-448,-57,49,-7
1870,32,-2016,-440,-56,50,-9
1875,56,-2024,-432,-55,50,-7
1880,56,-1992,-432,-54,49,-8
1885,40,-2000,-424,-56,50,-7
1890,48,-2008,-416,-55,51,-7
1895,32,-2016,-424,-57,51,-8
1900,64,-2016,-448,-58,53,-10
1905,56,-2024,-424,-59,53,-9
1910,80,-2016,-448,-60,55,-8
1915,48,-2032,-448,-59,55,-8
1920,40,-2008,-456,-61,57,-9
1925,40,-1992,-416,-61,58,-11
1930,40,-1984,-416,-60,59,-12
1935,56,-1992,-392,-60,58,-11
1940,16,-2048,-448,-58,57,-11
1945,56,-2000,-432,-56,59,-10
1950,88,-2024,-472,-55,59,-10
1955,48,-2024,-456,-54,58,-8
1960,24,-2000,-368,-52,57,-8
1965,120,-2008,-392,-52,57,-7
1970,32,-2016,-368,-51,55,-8
1975,72,-1968,-440,-49,55,-6
1980,24,-2040,-360,-48,56,-6
1985,48,-2000,-408,-47,55,-6
1990,32,-2008,-416,-46,55,-3
1995,64,-1992,-424,-44,56,-2
2000,48,-2000,-448,-47,56,-2
2005,64,-2008,-440,-45,55,-2
2010,112,-2008,-368,-47,55,-2
2015,32,-2024,-528,-46,55,-2
2020,128,-1976,-448,-47,53,-2
2025,0,-2032,-424,-48,53,-3
2030,80,-1944,-384,-47,52,-2
2035,152,-2000,-376,-47,51,-4
2040,40,-1992,-336,-47,52,-1
2045,64,-1952,-352,-46,51,-4
2050,-8,-2032,-336,-44,51,-6
2055,16,-2008,-528,-45,52,-6
2060,40,-2000,-424,-44,52,-7
2065,64,-2008,-440,-45,53,-7
2070,48,-2000,-424,-44,54,-6
2075,56,-2024,-440,-45,53,-7
2080,64,-2040,-448,-45,53,-7
2085,80,-2000,-408,-45,54,-8
2090,48,-2016,-424,-46,55,-8
2095,96,-2016,-440,-47,54,-6
2100,40,-2048,-400,-47,52,-8
2105,72,-1928,-432,-47,52,-8
2110,56,-1984,-456,-46,52,-9
2115,32,-1984,-384,-47,53,-8
2120,-8,-2024,-552,-46,52,-7
2125,24,-2032,-408,-46,51,-7
2130,40,-2024,-480,-47,51,-8
2135,192,-2112,-512,-47,52,-8
2140,48,-2024,-472,-48,52,-9
2145,48,-2016,-472,-48,53,-9
2150,56,-2024,-432,-48,54,-11
2155,72,-2016,-424,-47,56,-9
2160,56,-1992,-424,-45,57,-9
2165,32,-1944,-448,-42,55,-10
2170,40,-2008,-472,-39,56,-8
2175,56,-2008,-408,-37,56,-9
2180,64,-2024,-424,-36,55,-7
2185,8,-2056,-400,-33,53,-7
2190,40,-2008,-464,-31,51,-7
2195,0,-1992,-456,-31,49,-8
2200,56,-2024,-464,-32,47,-9
2205,80,-2024,-408,-32,45,-9
2210,112,-1992,-504,-32,44,-10
2215,40,-2008,-440,-33,45,-13
2220,48,-2024,-456,-33,46,-13
2225,80,-2032,-464,-33,49,-15
2230,48,-2016,-464,-32,52,-17
2235,40,-2208,-432,-33,53,-17
2240,32,-2072,-472,-33,54,-16
2245,64,-1992,-520,-34,57,-15
2250,88,-2008,-376,-33,58,-12
2255,88,-2016,-416,-31,59,-11
2260,40,-2024,-464,-27,59,-11
2265,88,-1992,-408,-25,60,-8
2270,80,-2008,-480,-21,60,-8
2275,64,-2048,-440,-18,60,-8
2280,24,-1992,-336,-17,61,-8
2285,112,-2008,-488,-16,61,-9
2290,80,-2000,-456,-16,62,-9
2295,72,-1992,-440,-18,63,-10
2300,88,-2032,-448,-19,65,-12
2305,64,-2000,-432,-19,69,-12
2310,24,-2104,-472,-19,72,-13
2315,40,-1968,-440,-20,74,-13
2320,80,-1984,-440,-19,75,-14
2325,72,-1992,-360,-20,77,-14
2330,32,-1976,-416,-20,80,-13
2335,40,-1984,-544,-19,82,-14
2340,56,-2000,-448,-16,83,-13
2345,128,-2000,-416,-14,86,-13
2350,72,-2000,-488,-10,89,-12
2355,72,-2008,-424,-6,90,-12
2360,72,-2032,-528,-3,93,-10
2365,72,-2040,-456,-2,92,-9
2370,72,-2000,-488,1,91,-9
2375,64,-2008,-456,2,91,-6
2380,72,-2016,-464,2,89,-5
2385,96,-1904,-328,1,89,-4
2390,80,-2024,-520,1,87,-4
2395,88,-2016,-480,-1,88,-4
2400,72,-1984,-392,-2,87,-5
2405,16,-2040,-456,-3,87,-6
2410,96,-2064,-408,-4,87,-5
2415,32,-2016,-480,-3,86,-5
2420,56,-2008,-440,-3,87,-5
2425,40,-2000,-480,-2,87,-5
2430,48,-2024,-520,-3,86,-6
2435,56,-2008,-440,-3,84,-6
2440,48,-1992,-464,-4,84,-6
2445,72,-2008,-440,-2,84,-6
2450,56,-2032,-456,-3,83,-6
2455,48,-2008,-392,-3,83,-8
2460,56,-1992,-432,-3,82,-7
2465,64,-2016,-432,-4,80,-5
2470,56,-2016,-448,-3,79,-5
2475,32,-1984,-440,-2,79,-4
2480,96,-2048,-480,0,78,-4
2485,64,-1992,-456,0,77,-4
2490,72,-2008,-424,-1,76,-4
2495,40,-1984,-408,-1,75,-2
2500,48,-2008,-432,-1,74,-2
2505,176,-2024,-408,-1,74,-1
2510,56,-2000,-440,1,73,0
2515,80,-2008,-440,1,73,-1
2520,40,-1992,-440,1,73,-2
2525,64,-2008,-464,0,72,-1
2530,64,-2024,-464,1,72,-2
2535,72,-2008,-448,-2,74,-3
2540,56,-2008,-432,-2,73,-2
2545,40,-2008,-448,-1,73,-4
2550,56,-2024,-432,-2,74,-4
2555,56,-2008,-448,-4,73,-4
2560,80,-2032,-424,-2,73,-5
2565,40,-2008,-448,-3,75,-5
2570,56,-2008,-448,-1,76,-5
2575,48,-2000,-448,0,77,-5
2580,56,-2008,-448,0,75,-5
2585,40,-1984,-488,-1,76,-5
2590,64,-2008,-440,1,75,-6
2595,72,-2032,-424,2,76,-6
2600,56,-2016,-424,2,75,-6
2605,48,-2016,-440,2,76,-6
2610,48,-2016,-408,3,77,-7
2615,64,-2032,-448,5,76,-6
2620,40,-2008,-448,5,76,-6
2625,80,-2008,-440,5,76,-5
2630,80,-2000,-432,5,77,-5
2635,72,-2016,-432,4,77,-6
2640,40,-2008,-440,4,77,-6
2645,40,-2024,-440,4,76,-4
2650,56,-1992,-440,5,76,-3
2655,40,-2032,-424,6,76,-3
2660,40,-2024,-432,7,76,-3
2665,72,-2016,-448,6,74,-3
2670,48,-2024,-416,7,73,-2
2675,48,-2000,-440,9,73,-2
2680,88,-2024,-448,11,72,-3
2685,72,-2016,-464,12,72,-3
2690,112,-2024,-424,13,72,-1
2695,48,-2000,-432,13,73,-1
2700,48,-2024,-456,13,74,-1
2705,48,-2016,-448,15,75,-2
2710,32,-2000,-440,14,74,-1
2715,56,-2024,-472,15,77,-1
2720,72,-2024,-432,17,76,-2
2725,64,-2024,-424,16,76,-3
2730,88,-2008,-440,17,76,-3
2735,64,-2032,-432,18,76,-4
2740,32,-1984,-472,19,77,-5
2745,48,-2008,-432,19,76,-4
2750,64,-2008,-448,19,77,-5
2755,64,-1992,-424,20,77,-5
2760,56,-2016,-416,21,76,-5
2765,56,-2000,-432,20,75,-5
2770,40,-2016,-448,21,76,-5
2775,32,-2008,-392,21,73,-5
2780,48,-2008,-432,24,75,-5
2785,32,-1992,-440,24,76,-4
2790,40,-2040,-416,26,76,-4
2795,72,-2016,-424,27,77,-2
2800,72,-2040,-464,29,75,-3
2805,64,-2000,-424,30,74,-1
2810,64,-2016,-424,32,76,-1
2815,64,-2000,-424,32,75,-1
2820,40,-2000,-432,32,75,-1
2825,64,-2000,-448,32,75,0
2830,72,-2000,-448,30,74,0
2835,72,-2008,-448,29,73,-1
2840,72,-2016,-440,28,73,-1
2845,64,-2024,-408,29,75,-3
2850,48,-2024,-432,30,76,-3
2855,48,-2040,-392,32,77,-3
2860,64,-2016,-472,35,78,-3
2865,40,-2008,-448,38,77,-4
2870,56,-2016,-424,41,79,-3
2875,56,-2024,-400,44,78,-4
2880,48,-2008,-424,47,77,-3
2885,72,-2008,-400,48,77,-3
2890,40,-2008,-448,48,76,-3
2895,56,-2008,-416,46,73,-3
2900,88,-2016,-432,43,73,-3
2905,88,-2016,-408,40,74,-3
2910,56,-2016,-424,34,73,-5
2915,64,-1984,-416,30,74,-5
2920,80,-2032,-392,26,74,-6
2925,64,-2008,-416,24,75,-7
2930,80,-2016,-400,21,76,-9
2935,56,-2016,-400,21,78,-8
2940,64,-2008,-432,20,81,-8
2945,32,-2024,-376,21,81,-9
2950,72,-2008,-392,23,82,-9
2955,80,-2032,-408,26,82,-9
2960,48,-2008,-408,29,82,-6
2965,56,-2008,-400,32,82,-6
2970,80,-1992,-432,34,81,-3
2975,80,-2000,-416,35,80,-2
2980,64,-2000,-400,37,79,-2
2985,56,-2016,-408,36,75,-1
2990,64,-2000,-400,36,75,0
2995,72,-2016,-424,37,72,0
3000,80,-2024,-408,35,75,0
3005,72,-2000,-416,32,75,0
3010,48,-2016,-424,29,78,-2
3015,64,-2000,-424,28,81,-3
3020,24,-2096,-392,24,81,-4
3025,48,-2000,-416,21,81,-4
3030,64,-2000,-400,21,82,-4
3035,64,-2032,-392,21,85,-4
3040,56,-2016,-400,21,84,-4
3045,56,-2016,-392,21,84,-2
3050,40,-2008,-416,24,83,-2
3055,64,-2024,-384,27,84,-2
3060,48,-2032,-424,27,80,-2
3065,40,-2032,-424,28,79,-1
3070,48,-2024,-392,27,77,-1
3075,48,-2048,-392,27,75,0
3080,64,-2032,-408,29,74,1
3085,64,-2032,-416,31,72,0
3090,32,-2032,-408,33,71,-1
3095,64,-2040,-384,36,69,0
3100,48,-2008,-408,37,68,0
3105,64,-2016,-392,38,67,1
3110,48,-2016,-408,39,68,0
3115,48,-2008,-400,40,70,-1
3120,24,-2008,-432,42,70,0
3125,128,-1976,-456,40,70,-1
3130,72,-2032,-416,40,69,-1
3135,80,-2016,-400,40,70,-2
3140,48,-2024,-384,39,68,-3
3145,56,-2000,-408,36,69,-3
3150,72,-2024,-368,35,69,-2
3155,64,-2016,-400,32,68,-1
3160,32,-2008,-376,31,68,-2
3165,64,-2024,-376,29,66,-3
3170,48,-2024,-360,30,67,-4
3175,64,-2024,-384,29,66,-2
3180,64,-2016,-400,31,66,-2
3185,72,-2024,-392,32,66,-3
3190,72,-2024,-384,34,67,-2
3195,48,-2016,-384,35,68,-3
3200,56,-2008,-392,36,69,-2
3205,88,-2024,-384,37,71,-3
3210,56,-2000,-368,36,70,-2
3215,80,-2032,-360,36,68,-1
3220,88,-2040,-408,36,69,-1
3225,40,-2000,-376,35,70,-2
3230,48,-2024,-368,36,68,-1
3235,96,-1992,-408,34,69,-2
3240,80,-2000,-400,34,69,-4
3245,72,-2024,-376,34,71,-4
3250,56,-2016,-384,35,71,-4
3255,40,-2024,-376,36,72,-5
3260,72,-2040,-352,39,72,-5
3265,56,-2016,-368,40,74,-5
3270,64,-2008,-352,42,74,-7
3275,64,-2008,-384,42,75,-8
3280,80,-2024,-360,42,74,-8
3285,56,-2000,-376,42,74,-8
3290,64,-2008,-368,41,75,-8
3295,56,-2032,-384,41,76,-7
3300,56,-2032,-376,39,76,-7
3305,56,-2008,-376,38,75,-8
3310,56,-2016,-368,36,75,-8
3315,72,-2024,-392,36,75,-8
3320,72,-2016,-360,35,74,-8
3325,64,-2032,-360,35,73,-6
3330,56,-2040,-392,34,72,-7
3335,64,-2016,-384,35,73,-7
3340,64,-2056,-376,33,74,-8
3345,80,-2024,-392,32,75,-8
3350,56,-2008,-376,32,75,-8
3355,40,-2040,-376,33,76,-6
3360,80,-2016,-384,35,75,-8
3365,72,-2032,-368,35,76,-7
3370,64,-2024,-368,35,76,-8
3375,64,-2024,-384,35,75,-8
3380,56,-2008,-360,34,75,-8
3385,64,-2008,-336,34,74,-10
3390,80,-2008,-376,34,73,-9
3395,40,-2008,-400,32,73,-9
3400,80,-2032,-360,31,73,-8
3405,72,-2016,-360,29,72,-7
3410,40,-2000,-376,28,73,-7
3415,64,-1992,-368,26,72,-7
3420,72,-2032,-360,26,72,-7
3425,48,-2040,-336,26,73,-8
3430,48,-2008,-336,26,73,-8
3435,32,-2008,-352,26,73,-8
3440,64,-2016,-376,28,75,-7
3445,64,-2000,-344,26,74,-7
3450,56,-2000,-352,26,73,-7
3455,96,-1992,-440,25,73,-7
3460,56,-2016,-368,23,72,-7
3465,40,-2024,-344,22,72,-6
3470,40,-2008,-384,21,73,-6
3475,56,-2032,-344,20,72,-7
3480,56,-2048,-368,21,72,-6
3485,40,-2024,-336,18,71,-7
3490,56,-2032,-336,18,71,-6
3495,48,-2016,-344,17,69,-6
3500,48,-2024,-336,17,70,-6
3505,48,-2040,-344,17,69,-5
3510,64,-2032,-352,18,68,-4
3515,64,-2032,-352,18,68,-4
3520,56,-2016,-328,18,67,-4
3525,64,-2016,-360,19,66,-5
3530,72,-2032,-368,18,66,-5
3535,64,-2032,-344,18,66,-4
3540,64,-2008,-320,19,66,-4
3545,72,-2016,-360,20,66,-4
3550,56,-2016,-352,19,66,-4
3555,64,-2024,-368,18,66,-5
3560,40,-2016,-360,19,65,-6
3565,96,-2016,-312,18,64,-6
3570,72,-2032,-352,17,64,-3
3575,72,-2016,-392,17,64,-3
3580,72,-2016,-344,16,65,-3
3585,72,-2040,-304,14,64,-2
3590,56,-2016,-320,13,64,-3
3595,48,-2032,-368,13,66,-4
3600,40,-2008,-344,12,66,-3
3605,72,-2040,-336,11,66,-3
3610,56,-2016,-384,10,67,-3
3615,72,-2024,-376,12,68,-4
3620,40,-2048,-344,14,67,-4
3625,64,-2048,-368,16,67,-4
3630,32,-2016,-352,18,66,-5
3635,48,-2024,-344,20,65,-3
3640,48,-2024,-344,19,63,-3
3645,64,-2024,-360,16,61,-4
3650,64,-2040,-336,14,59,-2
3655,40,-2040,-344,12,57,-3
3660,64,-2008,-320,12,57,-4
3665,64,-2024,-360,13,58,-4
3670,88,-2024,-288,10,58,-3
3675,48,-2024,-344,8,57,-4
3680,48,-2008,-344,7,57,-5
3685,48,-2024,-336,4,59,-4
3690,56,-2040,-320,1,60,-6
3695,64,-2048,-336,-1,61,-8
3700,40,-2008,-320,0,61,-6
3705,32,-2032,-336,0,60,-6
3710,64,-2032,-336,0,59,-7
3715,48,-2008,-344,1,59,-5
3720,56,-2032,-352,2,56,-4
3725,88,-2040,-288,3,54,-3
3730,40,-2016,-328,3,52,-3
3735,48,-2024,-336,2,52,-2
3740,64,-2024,-352,1,51,-1
3745,56,-2024,-352,-2,50,1
3750,40,-2016,-320,-4,51,0
3755,48,-2016,-336,-6,49,1
3760,56,-2032,-320,-9,50,0
3765,48,-2024,-336,-11,52,-1
3770,56,-2024,-328,-12,53,-2
3775,80,-2016,-328,-12,56,-2
3780,88,-2048,-272,-12,57,-3
3785,72,-2040,-328,-13,59,-4
3790,64,-2048,-312,-13,60,-2
3795,56,-2040,-352,-12,62,-2
3800,48,-2032,-344,-12,63,-3
3805,72,-2032,-360,-12,64,-3
3810,64,-2032,-352,-13,64,-3
3815,72,-2040,-360,-13,64,-1
3820,64,-2040,-328,-13,63,-1
3825,48,-2008,-352,-12,61,0
3830,48,-2040,-344,-13,62,2
3835,40,-2024,-328,-12,62,2
3840,72,-2032,-368,-12,63,2
3845,40,-2032,-360,-13,63,1
3850,48,-2024,-352,-15,63,2
3855,48,-2024,-392,-17,62,2
3860,64,-2024,-384,-18,65,3
3865,64,-2024,-384,-18,67,4
3870,64,-2072,-336,-18,71,5
3875,80,-2032,-352,-19,74,4
3880,88,-2048,-344,-18,77,3
3885,56,-2024,-360,-16,79,2
3890,120,-2000,-352,-14,81,2
3895,40,-2016,-344,-13,83,2
3900,56,-2024,-352,-11,84,0
3905,56,-2016,-344,-12,86,1
3910,48,-2008,-360,-13,87,0
3915,80,-2016,-344,-15,88,-2
3920,40,-2008,-344,-17,90,-3
3925,88,-2024,-352,-20,90,-4
3930,80,-2032,-328,-21,92,-3
3935,64,-2016,-368,-22,93,-3
3940,40,-2016,-320,-24,93,-2
3945,72,-2032,-368,-23,94,-2
3950,48,-2040,-376,-25,93,-2
3955,72,-2024,-376,-29,95,-1
3960,80,-2024,-352,-32,96,0
3965,64,-2016,-368,-36,97,-1
3970,80,-2040,-344,-40,98,0
3975,64,-2016,-344,-46,99,1
3980,64,-2008,-368,-51,100,2
3985,72,-2008,-336,-56,101,2
3990,64,-2008,-352,-62,103,1
3995,64,-2024,-344,-68,103,1
4000,56,-2040,-400,-75,105,0
4005,48,-2032,-336,-81,105,0
4010,48,-2008,-328,-84,106,-2
4015,56,-1992,-360,-91,107,-2
4020,56,-2016,-320,-96,107,-3
4025,32,-2016,-328,-101,106,-4
4030,56,-2008,-360,-107,105,-5
4035,48,-2024,-344,-113,105,-7
4040,48,-2000,-320,-116,104,-9
4045,80,-2008,-360,-118,103,-9
4050,40,-2016,-344,-122,103,-12
4055,72,-2016,-368,-122,101,-12
4060,64,-2024,-320,-122,97,-13
4065,72,-2048,-344,-122,95,-15
4070,32,-2024,-360,-121,93,-16
4075,40,-2008,-352,-120,90,-16
4080,56,-2032,-360,-118,88,-17
4085,16,-2008,-352,-116,85,-17
4090,64,-2032,-384,-113,82,-17
4095,40,-2016,-360,-109,78,-17
4100,32,-2040,-400,-106,74,-20
4105,48,-2032,-368,-104,71,-19
4110,16,-2000,-376,-99,66,-20
4115,40,-2040,-392,-96,64,-19
4120,40,-2032,-368,-92,60,-19
4125,32,-2032,-376,-88,57,-20
4130,40,-2016,-416,-85,57,-22
4135,56,-2008,-432,-82,55,-22
4140,48,-2000,-408,-81,53,-22
4145,48,-2040,-392,-80,52,-22
4150,56,-2032,-408,-79,52,-21
4155,72,-2032,-392,-77,51,-22
4160,64,-2024,-448,-78,50,-21
4165,80,-2048,-416,-76,50,-21
4170,64,-2040,-392,-76,50,-22
4175,72,-2016,-432,-74,50,-21
4180,72,-2016,-408,-73,49,-22
4185,80,-2016,-392,-72,50,-22
4190,80,-2024,-440,-70,50,-22
4195,104,-2040,-408,-68,48,-22
4200,56,-2008,-424,-65,49,-22
4205,64,-2016,-400,-63,48,-20
4210,56,-2016,-400,-61,48,-21
4215,96,-2032,-424,-60,49,-20
4220,88,-2032,-432,-59,49,-20
4225,72,-2048,-416,-58,50,-21
4230,80,-2024,-432,-57,49,-20
4235,72,-2024,-432,-55,51,-20
4240,64,-2008,-408,-52,50,-20
4245,64,-2040,-448,-51,50,-20
4250,64,-2008,-424,-51,48,-18
4255,56,-2008,-448,-50,47,-17
4260,72,-2008,-456,-46,46,-17
4265,80,-2016,-424,-45,47,-18
4270,72,-2000,-464,-43,47,-18
4275,72,-1992,-432,-44,49,-21
4280,56,-1992,-440,-44,48,-22
4285,64,-2000,-448,-46,49,-23
4290,96,-1992,-440,-47,51,-25
4295,80,-2008,-424,-49,53,-27
4300,80,-1984,-448,-52,54,-28
4305,80,-2000,-472,-55,55,-30
4310,80,-1992,-448,-59,55,-32
4315,64,-1992,-464,-64,52,-32
4320,56,-1960,-504,-70,51,-32
4325,144,-1936,-552,-75,47,-34
4330,48,-1984,-512,-80,42,-35
4335,40,-1976,-512,-87,39,-35
4340,32,-1952,-504,-94,33,-36
4345,40,-1944,-480,-101,27,-37
4350,24,-1928,-528,-107,23,-39
4355,48,-1928,-536,-112,19,-42
4360,64,-1920,-504,-116,15,-45
4365,40,-1888,-536,-117,14,-48
4370,40,-1864,-504,-119,12,-52
4375,80,-1872,-472,-119,14,-56
4380,88,-1864,-504,-120,13,-61
4385,104,-1864,-464,-117,15,-67
4390,80,-1848,-472,-112,17,-75
4395,104,-1816,-488,-107,20,-85
4400,104,-1800,-472,-102,25,-96
4405,112,-1800,-440,-98,32,-108
4410,112,-1800,-408,-98,37,-118
4415,128,-1816,-416,-96,44,-131
4420,136,-1800,-392,-98,52,-144
4425,160,-1808,-376,-97,61,-155
4430,136,-1816,-376,-97,69,-163
4435,160,-1792,-472,-100,78,-171
4440,152,-1816,-376,-99,86,-178
4445,152,-1832,-368,-100,98,-182
4450,152,-1840,-368,-100,109,-184
4455,128,-1840,-368,-102,120,-184
4460,128,-1800,-392,-108,128,-182
4465,152,-1800,-416,-122,138,-179
4470,128,-1744,-432,-139,146,-172
4475,128,-1728,-456,-162,151,-166
4480,120,-1688,-488,-190,154,-158
4485,120,-1648,-496,-219,160,-146
4490,120,-1624,-504,-250,163,-132
4495,80,-1584,-560,-282,168,-116
4500,80,-1584,-512,-314,171,-99
4505,64,-1568,-520,-347,178,-80
4510,48,-1560,-512,-372,180,-61
4515,40,-1536,-504,-396,181,-37
4520,40,-1512,-496,-415,177,-10
4525,16,-1496,-528,-432,171,16
4530,8,-1480,-496,-443,164,44
4535,8,-1504,-544,-450,155,74
4540,-16,-1504,-496,-450,146,103
4545,0,-1488,-536,-443,135,128
4550,-32,-1512,-496,-438,120,152
4555,-32,-1544,-480,-433,102,171
4560,-8,-1576,-480,-431,81,184
4565,0,-1568,-496,-434,55,192
4570,-8,-1592,-512,-443,25,195
4575,0,-1600,-504,-456,-6,192
4580,16,-1640,-544,-467,-33,185
4585,16,-1600,-520,-474,-58,176
4590,48,-1592,-528,-477,-77,164
4595,56,-1624,-512,-481,-91,150
4600,96,-1624,-536,-483,-102,134
4605,136,-1632,-536,-484,-108,119
4610,144,-1648,-520,-483,-112,103
4615,128,-1656,-528,-478,-114,89
4620,160,-1672,-480,-469,-112,74
4625,160,-1704,-536,-461,-109,62
4630,152,-1688,-544,-458,-105,53
4635,160,-1712,-552,-461,-100,44
4640,120,-1648,-568,-474,-92,35
4645,88,-1656,-624,-490,-85,30
4650,128,-1600,-624,-510,-76,28
4655,120,-1576,-664,-532,-65,24
4660,64,-1568,-664,-552,-54,25
4665,48,-1536,-616,-568,-47,26
4670,32,-1512,-624,-584,-38,29
4675,48,-1496,-600,-598,-32,33
4680,40,-1496,-608,-603,-24,34
4685,32,-1528,-600,-603,-14,34
4690,0,-1512,-576,-599,-7,33
4695,24,-1512,-576,-596,-2,34
4700,32,-1504,-616,-594,2,33
4705,24,-1560,-624,-596,5,27
4710,24,-1576,-656,-602,7,22
4715,40,-1584,-672,-615,7,17
4720,72,-1584,-704,-634,3,10
4725,56,-1592,-736,-661,3,5
4730,72,-1608,-736,-690,0,-2
4735,80,-1624,-760,-711,-5,-10
4740,96,-1616,-720,-723,-9,-20
4745,72,-1600,-736,-727,-16,-29
4750,56,-1624,-712,-731,-22,-33
4755,56,-1640,-744,-738,-26,-36
4760,96,-1600,-736,-745,-32,-35
4765,96,-1616,-776,-755,-38,-34
4770,88,-1656,-800,-771,-38,-34
4775,112,-1696,-824,-787,-41,-31
4780,88,-1688,-864,-803,-43,-25
4785,104,-1704,-864,-818,-47,-20
4790,88,-1712,-888,-829,-52,-11
4795,72,-1704,-888,-839,-60,-1
4800,72,-1712,-880,-846,-69,10
4805,80,-1760,-896,-853,-76,18
4810,88,-1760,-920,-862,-85,25
4815,80,-1792,-960,-876,-94,29
4820,72,-1776,-976,-892,-106,30
4825,16,-1816,-992,-907,-117,31
4830,32,-1832,-936,-916,-131,36
4835,24,-1872,-960,-920,-137,42
4840,32,-1880,-936,-917,-137,45
4845,16,-1920,-944,-904,-136,46
4850,56,-1936,-904,-885,-132,45
4855,56,-1952,-928,-863,-125,43
4860,88,-1976,-928,-838,-117,41
4865,64,-1968,-992,-819,-106,36
4870,136,-1976,-984,-807,-96,31
4875,104,-1920,-992,-794,-77,18
4880,96,-1936,-1032,-780,-59,14
4885,120,-1920,-1040,-774,-42,10
4890,152,-1952,-1008,-769,-26,4
4895,144,-1936,-1016,-757,-9,-3
4900,152,-1944,-992,-740,5,-16
4905,136,-1968,-1000,-729,15,-26
4910,136,-1896,-1032,-721,27,-33
4915,136,-1880,-1072,-717,48,-44
4920,104,-1872,-1072,-712,66,-54
4925,88,-1832,-1080,-714,82,-61
4930,88,-1848,-1080,-724,94,-67
4935,48,-1840,-1088,-734,104,-69
4940,32,-1848,-1088,-742,108,-68
4945,-8,-1856,-1128,-749,108,-67
4950,24,-1888,-1160,-754,100,-60
4955,0,-1912,-1168,-758,91,-57
4960,-56,-1952,-1200,-762,79,-50
4965,-40,-1968,-1224,-765,70,-39
4970,-24,-1976,-1216,-762,62,-27
4975,-40,-2016,-1248,-758,56,-17
4980,40,-2048,-1352,-751,50,-4
4985,-32,-2104,-1320,-736,40,13
4990,0,-2088,-1328,-719,28,31
4995,-8,-2096,-1352,-704,18,45
5000,0,-2104,-1368,-689,9,54
5005,-40,-2120,-1368,-674,3,61
5010,-16,-2128,-1392,-659,-10,68
5015,24,-2128,-1352,-643,-22,74
5020,0,-2128,-1344,-624,-32,77
5025,-8,-2120,-1328,-601,-36,76
5030,0,-2104,-1336,-579,-34,74
5035,32,-2088,-1360,-556,-27,70
5040,0,-2088,-1344,-533,-14,66
5045,0,-2088,-1384,-511,-2,63
5050,0,-2064,-1384,-496,9,61
5055,-64,-2040,-1392,-492,14,62
5060,0,-2056,-1440,-493,21,59
5065,-56,-2056,-1440,-496,28,52
5070,-8,-2096,-1464,-498,33,47
5075,-24,-2104,-1488,-497,38,42
5080,0,-2104,-1472,-500,43,37
5085,-48,-2064,-1608,-503,45,27
5090,-8,-2096,-1536,-514,49,19
5095,8,-2120,-1536,-523,52,14
5100,0,-2088,-1568,-532,55,8
5105,0,-2104,-1520,-542,56,1
5110,0,-2080,-1560,-553,59,-7
5115,24,-2080,-1592,-559,63,-16
5120,40,-2088,-1568,-560,65,-25
5125,24,-2072,-1552,-560,66,-33
5130,40,-2064,-1560,-556,65,-38
5135,0,-2064,-1584,-547,60,-39
5140,0,-2040,-1576,-542,55,-38
5145,0,-2048,-1560,-536,51,-34
5150,0,-2032,-1544,-529,47,-31
5155,-24,-2048,-1544,-523,43,-30
5160,-56,-2024,-1520,-517,39,-29
5165,-32,-2016,-1552,-509,36,-28
5170,-48,-2000,-1504,-502,33,-26
5175,-80,-1960,-1520,-497,28,-25
5180,-32,-1960,-1528,-495,24,-23
5185,-64,-1936,-1496,-492,22,-20
5190,-32,-1912,-1496,-493,19,-14
5195,-56,-1904,-1480,-494,17,-10
5200,-48,-1872,-1472,-494,19,-5
5205,-24,-1848,-1472,-495,20,-2
5210,0,-1848,-1472,-493,22,-1
5215,0,-1840,-1440,-493,27,0
5220,8,-1808,-1424,-493,34,-1
5225,16,-1768,-1432,-490,47,-3
5230,24,-1752,-1376,-485,58,-4
5235,24,-1744,-1376,-478,72,-5
5240,32,-1760,-1384,-468,81,-4
5245,32,-1712,-1392,-455,92,-3
5250,32,-1728,-1360,-438,104,0
5255,24,-1720,-1368,-420,112,5
5260,0,-1688,-1344,-403,119,8
5265,24,-1696,-1352,-387,121,12
5270,-8,-1656,-1344,-373,125,16
5275,0,-1648,-1344,-355,126,18
5280,-8,-1632,-1344,-337,127,19
5285,-24,-1624,-1360,-322,128,20
5290,-8,-1608,-1344,-307,125,22
5295,0,-1584,-1344,-296,122,22
5300,0,-1584,-1368,-287,119,19
5305,0,-1560,-1304,-281,118,17
5310,-8,-1552,-1368,-273,118,14
5315,0,-1552,-1376,-268,118,12
5320,-32,-1536,-1344,-263,117,9
5325,0,-1528,-1368,-259,115,7
5330,-16,-1520,-1360,-253,115,4
5335,-8,-1488,-1352,-246,115,1
5340,0,-1480,-1360,-238,117,-3
5345,-16,-1472,-1336,-229,122,-8
5350,0,-1472,-1344,-219,124,-11
5355,0,-1456,-1328,-208,126,-14
5360,0,-1464,-1360,-200,127,-18
5365,8,-1472,-1336,-192,130,-23
5370,0,-1456,-1384,-184,134,-30
5375,0,-1464,-1376,-171,140,-39
5380,-8,-1440,-1392,-154,144,-46
5385,0,-1440,-1408,-142,144,-51
5390,0,-1416,-1384,-132,146,-52
5395,8,-1416,-1384,-124,148,-55
5400,0,-1424,-1400,-112,149,-60
5405,0,-1424,-1376,-105,149,-64
5410,-16,-1392,-1408,-97,150,-67
5415,-16,-1408,-1376,-90,149,-68
5420,0,-1384,-1384,-85,148,-70
5425,-16,-1384,-1368,-83,150,-74
5430,0,-1384,-1376,-80,152,-79
5435,8,-1392,-1376,-74,155,-81
5440,0,-1376,-1400,-68,160,-83
5445,8,-1376,-1400,-63,164,-86
5450,8,-1368,-1408,-57,170,-89
5455,8,-1368,-1392,-53,178,-91
5460,24,-1376,-1400,-50,189,-94
5465,8,-1376,-1416,-45,198,-95
5470,16,-1368,-1384,-41,205,-96
5475,8,-1376,-1424,-37,218,-96
5480,16,-1368,-1440,-34,228,-95
5485,24,-1352,-1424,-32,237,-93
5490,32,-1376,-1424,-30,247,-92
5495,0,-1360,-1464,-28,256,-90
5500,8,-1352,-1432,-25,265,-91
5505,0,-1392,-1424,-23,274,-88
5510,0,-1368,-1416,-18,283,-89
5515,0,-1376,-1424,-12,292,-87
5520,8,-1360,-1480,-1,303,-85
5525,-24,-1376,-1432,9,314,-84
5530,16,-1384,-1432,21,322,-80
5535,-16,-1360,-1496,31,331,-77
5540,0,-1368,-1472,39,341,-71
5545,-16,-1352,-1440,47,348,-67
5550,16,-1360,-1472,54,352,-59
5555,-8,-1344,-1448,58,356,-54
5560,-8,-1344,-1448,61,362,-49
5565,8,-1328,-1448,59,365,-43
5570,-8,-1352,-1424,55,367,-40
5575,-24,-1328,-1432,44,368,-36
5580,-24,-1368,-1416,33,371,-34
5585,-48,-1344,-1424,20,374,-33
5590,-64,-1352,-1400,8,376,-34
5595,-56,-1376,-1408,-1,380,-35
5600,-64,-1400,-1384,-7,388,-37
5605,-96,-1400,-1400,-10,395,-38
5610,-88,-1432,-1424,-9,399,-40
5615,-104,-1416,-1424,-4,403,-44
5620,-88,-1440,-1416,2,409,-45
5625,-64,-1472,-1384,9,415,-46
5630,-48,-1480,-1416,21,424,-44
5635,-24,-1472,-1416,34,432,-43
5640,-24,-1464,-1424,46,441,-41
5645,-32,-1440,-1400,58,451,-40
5650,-40,-1464,-1376,73,460,-35
5655,-56,-1432,-1416,86,470,-34
5660,-48,-1448,-1416,98,481,-30
5665,-16,-1440,-1392,111,492,-25
5670,-48,-1440,-1400,120,502,-21
5675,-64,-1384,-1384,128,511,-17
5680,-48,-1416,-1352,136,521,-12
5685,-48,-1392,-1376,143,530,-9
5690,-48,-1416,-1368,152,541,-6
5695,-64,-1416,-1352,159,551,-2
5700,-56,-1408,-1368,168,565,1
5705,-48,-1408,-1352,177,577,5
5710,-40,-1432,-1376,186,590,9
5715,-64,-1376,-1384,191,602,14
5720,-48,-1400,-1352,194,615,17
5725,-64,-1384,-1336,198,624,17
5730,-40,-1392,-1336,203,634,21
5735,-72,-1376,-1352,208,643,21
5740,-24,-1416,-1312,215,650,21
5745,-56,-1400,-1352,222,656,20
5750,-88,-1384,-1376,228,663,19
5755,-120,-1392,-1384,233,667,18
5760,-120,-1408,-1368,242,671,17
5765,-112,-1400,-1368,249,673,15
5770,-136,-1368,-1320,254,674,13
5775,-136,-1384,-1352,260,674,8
5780,-136,-1368,-1320,265,675,6
5785,-120,-1376,-1344,271,673,3
5790,-128,-1360,-1336,276,674,-1
5795,-104,-1368,-1280,285,676,-7
5800,-128,-1352,-1280,290,679,-11
5805,-144,-1344,-1312,296,681,-14
5810,-136,-1344,-1296,300,685,-16
5815,-112,-1328,-1312,303,689,-17
5820,-112,-1320,-1288,307,694,-18
5825,-120,-1296,-1272,304,701,-20
5830,-88,-1304,-1264,299,704,-23
5835,-96,-1296,-1264,294,710,-24
5840,-136,-1312,-1296,290,715,-25
5845,-112,-1320,-1264,285,719,-24
5850,-128,-1320,-1264,280,723,-25
5855,-136,-1304,-1224,274,726,-27
5860,-112,-1296,-1272,270,727,-28
5865,-144,-1312,-1240,264,729,-36
5870,-136,-1312,-1232,261,732,-42
5875,-136,-1288,-1248,260,735,-45
5880,-152,-1296,-1232,258,743,-49
5885,-176,-1280,-1216,254,753,-54
5890,-168,-1272,-1200,254,761,-57
5895,-144,-1248,-1192,252,771,-60
5900,-152,-1208,-1168,247,783,-60
5905,-144,-1200,-1176,240,796,-57
5910,-144,-1168,-1168,233,811,-53
5915,-128,-1160,-1152,223,830,-44
5920,-88,-1144,-1120,208,849,-34
5925,-88,-1120,-1128,192,869,-16
5930,-40,-1072,-1112,176,893,3
5935,0,-1096,-1088,161,913,26
5940,-16,-1080,-1096,146,934,52
5945,0,-1072,-1120,130,954,81
5950,8,-1056,-1120,114,970,109
5955,16,-1056,-1104,104,982,137
5960,8,-1096,-1088,102,991,166
5965,0,-1112,-1080,108,1000,194
5970,0,-1128,-1088,120,1008,219
5975,-40,-1088,-1104,133,1019,245
5980,-64,-1080,-1096,151,1032,264
5985,-88,-1056,-1104,175,1050,281
5990,-96,-1064,-1080,203,1065,297
5995,-104,-1024,-1088,233,1076,310
6000,-112,-976,-1048,264,1088,319
6005,-120,-984,-1032,292,1106,325
6010,-120,-952,-1008,318,1124,329
6015,-72,-936,-1008,345,1148,333
6020,-8,-920,-928,370,1175,336
6025,0,-896,-936,400,1208,337
6030,64,-944,-888,431,1241,335
6035,96,-936,-872,475,1272,330
6040,128,-960,-848,520,1304,322
6045,184,-976,-800,565,1334,307
6050,248,-1032,-800,606,1357,290
6055,352,-1072,-784,645,1375,268
6060,352,-1088,-728,686,1402,240
6065,456,-1064,-728,731,1433,212
6070,472,-1112,-728,776,1484,179
6075,528,-1168,-736,812,1537,150
6080,584,-1216,-696,856,1600,113
6085,584,-1200,-704,899,1667,74
6090,592,-1224,-672,936,1725,38
6095,584,-1256,-664,979,1771,5
6100,608,-1304,-680,1028,1801,-29
6105,568,-1304,-696,1090,1823,-66
6110,552,-1320,-736,1148,1827,-104
6115,512,-1352,-776,1204,1813,-141
6120,520,-1344,-864,1264,1783,-180
6125,400,-1336,-936,1329,1738,-215
6130,344,-1336,-944,1383,1690,-243
6135,320,-1280,-928,1452,1646,-266
6140,280,-1272,-936,1528,1610,-289
6145,304,-1264,-872,1607,1577,-315
6150,320,-1288,-920,1688,1554,-346
6155,352,-1272,-928,1773,1539,-386
6160,344,-1296,-928,1852,1532,-430
6165,336,-1256,-928,1938,1543,-473
6170,304,-1216,-896,2037,1581,-511
6175,352,-1224,-904,2140,1629,-542
6180,248,-1144,-832,2222,1724,-571
6185,160,-1096,-664,2290,1845,-601
6190,48,-1056,-512,2366,1966,-621
6195,56,-960,-416,2453,2087,-634
6200,48,-1000,-328,2520,2207,-623
6205,8,-960,-280,2564,2300,-595
6210,8,-904,-248,2593,2340,-570
6215,-64,-736,-248,2603,2319,-543
6220,80,-672,-136,2552,2246,-511
6225,304,-664,-120,2470,2157,-507
6230,528,-656,-184,2372,2055,-538
6235,984,-768,-176,2237,1955,-614
6240,1480,-952,-208,2122,1937,-745
6245,2032,-1248,-240,2094,2028,-902
6250,2688,-1704,-192,2135,2166,-1073
6255,3384,-2360,-32,2227,2280,-1265
6260,4208,-3504,344,2404,2425,-1447
6265,5664,-5544,1312,2805,2732,-1560
6270,8480,-8408,3456,3752,3346,-1659
6275,13640,-11600,6296,5443,4225,-1888
6280,20728,-13768,8184,7464,4967,-2599
6285,22384,-12112,816,8251,4417,-4159
6290,13816,-8440,-6592,4981,2205,-5162
6295,4384,-7224,-3640,-222,1210,-4115
6300,-560,-6880,-88,-1960,2008,-2818
6305,-3008,-5808,-176,-500,2792,-2352
6310,-4256,-4728,-1128,1622,3470,-2251
6315,-4240,-3920,-1176,3047,3949,-2199
6320,-4256,-2488,-808,3614,4140,-2390
6325,-4712,-720,472,3428,3854,-2660
6330,-4752,1080,1944,2818,2924,-2814
6335,-4616,2848,3040,2133,1609,-2955
6340,-3552,3520,2968,1521,288,-3144
6345,-2008,2856,2368,1140,-473,-3373
6350,-832,1664,1792,1116,-488,-3530
6355,-56,520,1040,1512,-191,-3508
6360,736,-488,272,2078,22,-3328
6365,1672,-1256,-488,2559,30,-3121
6370,2352,-1800,-384,2832,-74,-2946
6375,2592,-2224,16,2925,-128,-2826
6380,2560,-2568,520,2928,-26,-2737
6385,2512,-2848,816,2917,182,-2644
6390,2416,-2864,544,2907,432,-2547
6395,2152,-2752,400,2814,720,-2419
6400,2048,-2336,288,2655,998,-2273
6405,1840,-1960,368,2460,1281,-2133
6410,1472,-1616,424,2305,1529,-2032
6415,952,-1224,568,2216,1685,-1989
6420,568,-888,720,2182,1751,-1994
6425,128,-560,928,2198,1779,-2036
6430,-64,-336,1184,2248,1814,-2083
6435,-208,-120,1240,2309,1825,-2128
6440,-360,24,1296,2343,1774,-2183
6445,-296,112,1480,2329,1657,-2244
6450,-216,112,1624,2306,1515,-2329
6455,-8,88,1720,2284,1435,-2418
6460,336,48,1824,2248,1444,-2488
6465,904,-120,2056,2190,1544,-2523
6470,1368,-200,2128,2151,1710,-2563
6475,1608,-216,2248,2168,1864,-2595
6480,1640,-160,2360,2206,1971,-2600
6485,1872,-16,2552,2238,2044,-2584
6490,2048,240,2848,2267,2111,-2574
6495,2088,632,2888,2308,2143,-2569
6500,2184,1080,3024,2316,2093,-2550
6505,2208,1632,3096,2267,1962,-2479
6510,2320,2216,3088,2204,1748,-2358
6515,1984,2968,3016,2143,1447,-2179
6520,1776,3480,3032,2055,985,-1938
6525,1576,3800,3000,1948,363,-1634
6530,1448,3864,2872,1836,-379,-1288
6535,1264,3584,2592,1715,-1122,-924
6540,1000,3088,2120,1627,-1753,-577
6545,848,2440,1696,1578,-2200,-289
6550,768,1712,1176,1548,-2429,-106
6555,840,1000,816,1494,-2455,-22
6560,1072,336,648,1398,-2304,15
6565,1248,-232,712,1261,-2016,10
6570,1328,-504,768,1103,-1654,-41
6575,1424,-736,872,922,-1257,-104
6580,1496,-872,928,746,-869,-150
6585,1544,-856,968,627,-540,-177
6590,1680,-728,928,588,-327,-200
6595,1728,-456,928,607,-210,-225
6600,1816,-232,992,645,-156,-251
6605,1816,136,1120,671,-145,-278
6610,1744,440,1264,687,-153,-319
6615,1656,784,1416,693,-164,-365
6620,1560,1024,1512,692,-182,-421
6625,1424,1296,1656,692,-209,-499
6630,1296,1552,1728,697,-240,-588
6635,1072,1680,1720,719,-264,-684
6640,880,1744,1616,760,-266,-769
6645,720,1720,1520,819,-247,-833
6650,512,1632,1368,898,-217,-880
6655,392,1480,1112,987,-184,-910
6660,280,1344,912,1067,-154,-932
6665,224,1256,856,1126,-136,-942
6670,200,1160,784,1158,-134,-937
6675,240,1064,744,1165,-144,-922
6680,336,1008,784,1150,-162,-902
6685,432,984,776,1112,-189,-875
6690,504,1032,800,1058,-225,-840
6695,600,1128,760,993,-265,-793
6700,744,1272,752,909,-299,-724
6705,904,1376,760,815,-321,-638
6710,1120,1528,808,724,-323,-541
6715,1272,1616,840,644,-312,-446
6720,1432,1696,888,572,-280,-353
6725,1536,1704,912,516,-224,-261
6730,1624,1696,912,479,-152,-170
6735,1664,1624,904,451,-65,-88
6740,1672,1560,888,423,38,-11
6745,1656,1456,888,378,148,66
6750,1544,1352,936,326,249,134
6755,1424,1232,912,277,330,198
6760,1304,1128,960,237,393,253
6765,1208,1008,960,205,432,307
6770,1064,968,976,191,453,363
6775,1032,936,992,180,454,417
6780,952,896,960,168,442,472
6785,880,864,952,154,427,525
6790,792,856,904,139,408,579
6795,744,880,888,122,392,632
6800,648,880,872,102,379,691
6805,592,864,832,78,377,753
6810,504,880,840,50,386,816
6815,472,864,848,18,404,881
6820,488,920,816,-19,424,948
6825,440,896,800,-68,445,1007
6830,496,824,840,-116,457,1063
6835,448,800,848,-152,468,1116
6840,464,744,856,-175,469,1168
6845,448,688,848,-196,454,1221
6850,496,640,856,-225,429,1277
6855,560,608,880,-263,388,1333
6860,568,576,912,-302,341,1384
6865,584,608,912,-338,274,1420
6870,640,648,896,-374,200,1444
6875,752,656,944,-432,130,1462
6880,736,648,936,-492,64,1469
6885,696,624,936,-555,-18,1479
6890,784,584,992,-634,-118,1491
6895,952,560,1064,-719,-220,1492
6900,1192,592,1152,-775,-300,1482
6905,1288,664,1144,-804,-324,1481
6910,1328,648,1208,-830,-291,1508
6915,1416,600,1304,-855,-237,1548
6920,1616,576,1320,-876,-194,1594
6925,1920,544,1280,-877,-178,1638
6930,2184,456,1288,-860,-181,1674
6935,2440,400,1328,-844,-186,1698
6940,2760,344,1376,-829,-192,1708
6945,3040,336,1488,-816,-173,1689
6950,3272,272,1704,-809,-126,1658
6955,3376,232,1800,-810,-87,1619
6960,3496,216,1872,-822,-72,1576
6965,3584,192,1920,-832,-82,1521
6970,3592,184,1888,-828,-124,1453
6975,3552,120,1856,-795,-196,1377
6980,3336,8,1776,-732,-299,1297
6985,3160,-120,1712,-646,-431,1216
6990,2928,-240,1664,-538,-589,1136
6995,2712,-376,1608,-417,-756,1051
7000,2536,-456,1552,-291,-922,958
7005,2304,-552,1520,-159,-1064,869
7010,2120,-592,1472,-39,-1186,777
7015,1952,-616,1512,70,-1278,699
7020,1816,-584,1424,167,-1341,636
7025,1616,-552,1504,244,-1381,581
7030,1504,-576,1552,319,-1394,540
7035,1352,-648,1552,389,-1386,506
7040,1312,-584,1544,441,-1364,466
7045,1128,-640,1624,463,-1338,435
7050,1144,-592,1680,486,-1311,403
7055,1048,-456,1648,514,-1255,368
7060,1104,-360,1664,525,-1191,352
7065,992,-176,1576,540,-1130,334
7070,992,0,1480,539,-1089,333
7075,1136,136,1392,534,-1078,309
7080,1528,128,1304,525,-1043,283
7085,1536,304,1160,554,-962,272
7090,1528,296,1008,543,-961,281
7095,1344,344,776,517,-1033,306
7100,1016,352,568,496,-1144,358
7105,896,376,392,516,-1261,412
7110,824,360,320,571,-1329,467
7115,808,440,96,611,-1361,514
7120,856,384,96,555,-1356,531
7125,928,248,128,418,-1339,521
7130,1240,-64,232,263,-1280,503
7135,1392,-400,248,136,-1179,444
7140,1568,-696,360,26,-1051,365
7145,1912,-944,336,-50,-896,284
7150,2256,-1000,232,-110,-690,212
7155,2552,-1032,136,-196,-434,104
7160,2728,-952,96,-335,-178,-33
7165,2824,-824,128,-491,41,-169
7170,2800,-696,224,-612,215,-276
7175,2704,-632,320,-656,340,-346
7180,2576,-576,424,-606,415,-386
7185,2504,-536,576,-483,443,-414
7190,2480,-440,664,-334,428,-441
7195,2424,-256,736,-186,378,-470
7200,2312,-312,816,-41,295,-492
7205,2288,-240,720,119,154,-496
7210,2304,-216,688,270,-4,-492
7215,2296,-64,504,398,-155,-497
7220,2320,56,432,464,-284,-498
7225,2328,80,352,492,-362,-485
7230,2352,80,240,494,-394,-463
7235,2344,96,256,470,-382,-423
7240,2296,40,152,454,-333,-366
7245,2136,0,40,454,-259,-310
7250,2024,-136,-48,441,-172,-256
7255,1952,-184,0,424,-83,-203
7260,1976,-80,80,417,-33,-153
7265,2032,24,160,371,-15,-79
7270,2072,128,264,300,12,15
7275,2072,200,328,220,44,113
7280,2064,288,384,136,73,210
7285,2064,296,392,50,110,293
7290,2064,288,400,-42,163,360
7295,2088,200,424,-144,215,405
7300,2112,136,416,-245,266,429
7305,2144,64,432,-343,314,437
7310,2144,-8,416,-429,355,432
7315,2152,-80,456,-493,395,423
7320,2112,-152,480,-536,432,410
7325,2104,-224,496,-561,460,387
7330,2072,-320,536,-569,483,354
7335,2040,-352,560,-559,503,316
7340,2032,-376,632,-530,517,277
7345,1952,-376,688,-485,526,231
7350,1928,-384,736,-424,531,194
7355,1864,-392,784,-355,533,153
7360,1840,-304,808,-282,529,116
7365,1792,-344,832,-201,520,84
7370,1744,-320,872,-109,514,58
7375,1752,-304,848,-17,512,37
7380,1720,-288,824,65,521,15
7385,1728,-256,792,128,537,0
7390,1712,-224,800,168,560,-15
7395,1744,-224,792,190,588,-29
7400,1760,-208,768,204,620,-35
7405,1768,-168,784,213,655,-36
7410,1776,-112,824,220,687,-30
7415,1824,-64,832,219,713,-17
7420,1824,-72,840,208,726,-2
7425,1832,-56,864,187,729,14
7430,1880,32,856,158,721,31
7435,1896,24,864,116,711,61
7440,1904,16,864,74,698,90
7445,1928,40,888,40,678,116
7450,1928,64,888,6,654,130
7455,1928,96,896,-34,629,139
7460,1920,104,928,-74,607,153
7465,1888,104,944,-104,588,166
7470,1912,96,1008,-124,563,173
7475,1856,120,1000,-138,536,178
7480,1824,88,1016,-144,515,178
7485,1856,104,1000,-139,492,177
7490,1808,56,1032,-131,464,188
7495,1800,56,1056,-127,439,197
7500,1752,64,1032,-116,408,194
7505,1744,32,1008,-106,385,199
7510,1776,-16,992,-84,373,199
7515,1728,8,1000,-58,365,197
7520,1704,32,1008,-36,356,195
7525,1704,48,1032,-16,349,193
7530,1672,24,1056,1,342,187
7535,1664,8,1008,10,330,181
7540,1640,64,1040,16,318,177
7545,1648,48,1040,17,313,172
7550,1672,40,1032,19,309,166
7555,1616,16,1048,23,305,159
7560,1624,16,1024,23,302,153
7565,1624,48,1072,21,307,149
7570,1616,48,1088,14,312,146
7575,1600,56,1080,5,315,144
7580,1576,-32,1080,-5,313,139
7585,1640,-8,1088,-13,320,127
7590,1648,-8,1064,-14,318,121
7595,1664,-40,1072,-13,316,115
7600,1648,-48,1144,-14,316,111
7605,1672,-56,1128,-13,313,108
7610,1640,-40,1096,-10,314,103
7615,1632,-80,1112,-10,305,99
7620,1632,-80,1128,-2,290,97
7625,1608,-88,1112,9,269,93
7630,1640,-80,1112,20,245,84
7635,1616,-32,1104,35,223,72
7640,1616,-16,1048,45,201,60
7645,1616,24,1024,48,183,50
7650,1624,48,1056,42,174,42
7655,1672,64,1008,23,168,40
7660,1680,72,1048,-6,166,39
7665,1696,72,1032,-40,167,40
7670,1672,40,1056,-78,172,44
7675,1696,32,1088,-110,174,47
7680,1696,0,1056,-136,174,51
7685,1752,16,1000,-156,169,53
7690,1704,-88,1056,-170,160,54
7695,1688,-104,1080,-180,147,54
7700,1696,-136,1040,-187,134,55
7705,1696,-176,1080,-188,116,53
7710,1672,-184,1080,-186,99,51
7715,1672,-224,1112,-177,83,47
7720,1688,-232,1096,-166,66,45
7725,1656,-240,1096,-151,50,41
7730,1648,-256,1048,-129,31,36
7735,1656,-240,1048,-110,16,32
7740,1664,-232,1048,-92,6,26
7745,1664,-232,1048,-74,-5,22
7750,1672,-184,1032,-58,-13,19
7755,1720,-216,1040,-49,-18,15
7760,1704,-216,1016,-42,-20,15
7765,1712,-184,992,-38,-21,15
7770,1736,-192,1024,-32,-22,17
7775,1728,-184,984,-29,-20,16
7780,1728,-184,952,-27,-16,17
7785,1728,-184,960,-24,-13,16
7790,1720,-224,936,-22,-10,13
7795,1728,-216,920,-19,-4,11
7800,1744,-208,936,-15,4,10
7805,1744,-216,912,-7,10,8
7810,1736,-208,944,-1,17,7
7815,1768,-192,920,7,25,4
7820,1752,-216,936,14,33,1
7825,1784,-184,912,20,41,-3
7830,1784,-184,944,25,47,-5
7835,1800,-160,936,29,53,-10
7840,1776,-144,912,31,58,-12
7845,1784,-144,888,32,65,-14
7850,1816,-144,904,29,72,-14
7855,1800,-144,920,27,79,-12
7860,1800,-136,920,22,84,-11
7865,1816,-136,920,19,89,-12
7870,1840,-168,952,16,93,-12
7875,1824,-152,936,13,96,-10
7880,1808,-160,936,13,99,-9
7885,1792,-136,952,11,101,-7
7890,1800,-144,944,10,103,-6
7895,1800,-136,952,10,102,-8
7900,1808,-152,976,8,103,-8
7905,1832,-136,944,3,104,-6
7910,1792,-136,960,-5,102,-8
7915,1776,-144,944,-5,101,-9
7920,1776,-160,928,-5,101,-8
7925,1792,-144,920,-7,103,-9
7930,1768,-152,960,-8,103,-9
7935,1760,-152,952,-9,106,-11
7940,1768,-144,984,-8,109,-9
7945,1760,-136,968,-8,115,-9
7950,1736,-128,960,-8,119,-7
7955,1752,-136,944,-8,121,-8
7960,1736,-136,952,-10,126,-7
7965,1760,-128,960,-8,129,-7
7970,1768,-120,960,-7,135,-8
7975,1760,-136,984,-6,138,-8
7980,1760,-144,944,-7,143,-7
7985,1752,-128,936,-7,148,-6
7990,1760,-152,992,-8,151,-6
7995,1736,-112,984,-6,156,-5
8000,1752,-120,968,-5,160,-5
8005,1744,-120,976,-4,163,-3
8010,1736,-120,992,-2,169,-1
8015,1720,-136,1008,2,172,-1
8020,1728,-144,984,6,176,0
8025,1744,-136,1008,8,176,2
8030,1744,-144,1048,13,178,4
8035,1744,-104,1000,15,179,4
8040,1720,-128,976,16,181,4
8045,1728,-136,1016,17,180,6
8050,1744,-120,992,17,178,7
8055,1736,-104,1024,16,178,7
8060,1744,-96,1000,16,175,8
8065,1736,-104,992,16,176,8
8070,1736,-128,1000,16,175,7
8075,1744,-144,1016,16,177,8
8080,1720,-120,1008,17,178,8
8085,1704,-128,1008,19,177,8
8090,1720,-128,1032,22,177,10
8095,1720,-128,1008,25,176,11
8100,1736,-136,1048,28,176,11
8105,1696,-112,1040,30,174,12
8110,1704,-120,1056,32,173,12
8115,1720,-128,1008,32,170,12
8120,1736,-136,1120,29,167,14
8125,1696,-112,1032,29,163,15
8130,1704,-104,1040,27,159,15
8135,1728,-128,1056,27,154,18
8140,1720,-120,1040,26,153,18
8145,1704,-144,1040,25,150,18
8150,1712,-144,1048,24,147,18
8155,1712,-112,1032,24,146,19
8160,1704,-120,1088,24,144,19
8165,1688,-128,1056,23,142,17
8170,1712,-152,1056,24,140,19
8175,1680,-128,1048,26,138,20
8180,1688,-128,1056,27,138,22
8185,1672,-128,1064,29,135,20
8190,1696,-120,1064,32,135,13
8195,1712,-144,1064,34,134,15
8200,1696,-136,1048,33,133,17
8205,1704,-128,1048,32,132,19
8210,1696,-120,1048,32,131,18
8215,1712,-120,1080,32,128,17
8220,1704,-128,1080,34,127,19
8225,1696,-112,1040,34,128,19
8230,1672,-200,1048,35,127,17
8235,1712,-120,1032,35,128,19
8240,1696,-128,1056,34,129,18
8245,1712,-120,1032,34,129,17
8250,1720,-136,1072,32,128,16
8255,1696,-112,1056,31,127,16
8260,1728,-120,1040,31,127,17
8265,1720,-144,1056,31,128,16
8270,1680,-120,1072,29,127,17
8275,1704,-120,1064,28,129,14
8280,1696,-120,1040,27,127,14
8285,1712,-152,1064,25,127,15
8290,1680,-120,1040,24,126,14
8295,1704,-136,1104,21,126,13
8300,1688,-112,1032,21,124,12
8305,1696,-104,1056,18,124,12
8310,1696,-120,1072,16,125,7
8315,1696,-128,1056,14,125,9
8320,1720,-128,1056,14,123,7
8325,1696,-112,1056,14,121,6
8330,1712,-128,1080,12,118,7
8335,1712,-120,1080,8,117,6
8340,1744,-128,1016,6,116,6
8345,1720,-144,1072,4,115,4
8350,1712,-144,1080,4,114,6
8355,1720,-160,1048,4,114,7
8360,1696,-112,1072,5,112,8
8365,1688,-128,1064,6,111,9
8370,1712,-112,1064,7,110,10
8375,1696,-136,1048,8,110,9
8380,1704,-144,1080,8,108,10
8385,1696,-120,1016,8,107,9
8390,1720,-112,1064,7,104,9
8395,1704,-128,1056,5,102,10
8400,1696,-112,1048,4,102,11
8405,1696,-128,1040,3,100,11
8410,1672,-136,1072,2,100,9
8415,1688,-136,1096,3,99,9
8420,1696,-112,1088,0,98,8
8425,1672,-112,1064,1,99,9
8430,1704,-160,1064,1,99,8
8435,1696,-136,1080,2,101,9
8440,1704,-136,1064,4,100,8
8445,1688,-120,1104,4,102,9
8450,1712,-144,1088,4,102,9
8455,1696,-120,1064,2,103,8
8460,1680,-136,1088,1,105,8
8465,1688,-112,1096,2,106,11
8470,1696,-136,1072,1,106,9
8475,1672,-144,1064,2,107,11
8480,1672,-120,1088,3,106,8
8485,1680,-128,1048,4,105,8
8490,1672,-136,1104,4,105,8
8495,1672,-112,1064,7,104,7
8500,1680,-120,1088,7,104,6
8505,1688,-128,1088,8,102,8
8510,1680,-128,1072,7,102,9
8515,1688,-128,1080,6,101,9
8520,1712,-112,1056,7,100,8
8525,1688,-136,1072,5,98,9
8530,1672,-104,1064,3,99,7
8535,1712,-120,1064,2,99,6
8540,1688,-144,1048,3,99,6
8545,1672,-104,1064,2,96,5
8550,1664,-120,1072,3,95,5
8555,1688,-120,1056,1,96,5
8560,1752,-64,1096,-1,96,5
8565,1672,-128,1088,-4,97,4
8570,1656,-88,1072,-6,96,7
8575,1672,-112,1080,-8,97,7
8580,1680,-112,1064,-9,97,6
8585,1680,-104,1096,-11,97,7
8590,1696,-112,1056,-12,97,6
8595,1672,-112,1080,-12,96,9
8600,1696,-136,1080,-10,95,8
8605,1672,-120,1096,-10,93,6
8610,1664,-128,1080,-10,92,6
8615,1672,-136,1088,-10,93,5
8620,1680,-136,1096,-12,91,4
8625,1664,-128,1080,-14,88,4
8630,1672,-160,1096,-14,87,5
8635,1672,-152,1064,-15,85,3
8640,1640,-136,1120,-14,84,3
8645,1680,-168,1080,-11,83,2
8650,1680,-160,1088,-9,83,1
8655,1664,-144,1064,-5,84,-1
8660,1680,-120,1040,-1,87,-2
8665,1696,-136,1096,3,89,-2
8670,1696,-136,1072,4,89,-1
8675,1712,-128,1064,7,92,-1
8680,1696,-128,1048,4,94,-1
8685,1704,-120,1040,2,96,-2
8690,1688,-120,1088,0,99,-1
8695,1664,-112,1072,-2,101,0
8700,1696,-120,1096,-2,102,1
8705,1680,-104,1072,-3,102,1
8710,1688,-112,1088,-6,101,3
8715,1712,-144,1072,-6,101,2
8720,1680,-112,1120,-6,100,4
8725,1664,-112,1104,-7,98,2
8730,1688,-120,1088,-8,97,4
8735,1672,-136,1080,-8,96,4
8740,1688,-96,1064,-9,94,5
8745,1664,-112,1096,-10,92,5
8750,1680,-112,1088,-9,91,6
8755,1672,-104,1064,-10,90,7
8760,1680,-128,1088,-10,89,6
8765,1680,-128,1096,-11,90,10
8770,1672,-128,1112,-13,89,9
8775,1704,-168,1096,-14,89,8
8780,1656,-104,1088,-15,92,8
8785,1688,-120,1088,-14,92,9
8790,1688,-112,1112,-15,94,8
8795,1688,-144,1064,-16,94,10
8800,1672,-136,1080,-17,95,8
8805,1664,-128,1072,-19,95,8
8810,1672,-120,1104,-17,95,9
8815,1664,-144,1112,-19,93,9
8820,1680,-128,1096,-21,92,10
8825,1680,-128,1104,-19,92,7
8830,1696,-128,1120,-20,91,7
8835,1672,-152,1088,-21,90,5
8840,1680,-144,1104,-22,90,4
8845,1672,-168,1080,-24,86,3
8850,1664,-112,1120,-23,85,2
8855,1688,-120,1096,-22,83,3
8860,1688,-112,1096,-24,80,1
8865,1688,-120,1112,-26,79,0
8870,1672,-112,1088,-28,77,-1
8875,1664,-128,1072,-30,77,-1
8880,1648,-120,1080,-32,75,-3
8885,1664,-120,1112,-34,73,-4
8890,1664,-120,1104,-35,73,-3
8895,1696,-144,1088,-36,72,-5
8900,1680,-152,1088,-35,69,-4
8905,1664,-144,1112,-37,68,-4
8910,1656,-104,1104,-37,67,-4
8915,1680,-144,1080,-36,67,-4
8920,1664,-176,1104,-33,66,-5
8925,1688,-136,1096,-33,65,-6
8930,1672,-128,1120,-30,63,-5
8935,1672,-128,1088,-31,63,-6
8940,1680,-168,1088,-30,62,-7
8945,1664,-144,1064,-31,63,-8
8950,1688,-128,1104,-29,63,-7
8955,1656,-136,1072,-29,63,-7
8960,1672,-136,1088,-29,62,-7
8965,1672,-144,1088,-28,61,-7
8970,1664,-152,1072,-26,61,-7
8975,1688,-144,1080,-26,62,-5
8980,1664,-136,1048,-24,62,-6
8985,1688,-144,1088,-26,63,-6
8990,1656,-128,1112,-25,64,-6
8995,1656,-144,1072,-26,62,-6
9000,1688,-136,1112,-26,62,-7
9005,1664,-128,1096,-27,61,-7
9010,1688,-136,1088,-29,60,-6
9015,1672,-152,1112,-28,60,-5
9020,1672,-128,1096,-29,58,-6
9025,1672,-128,1088,-27,57,-6
9030,1672,-152,1080,-28,55,-7
9035,1680,-120,1104,-28,54,-7
9040,1688,-128,1072,-26,54,-7
9045,1680,-128,1096,-27,52,-7
9050,1664,-128,1088,-25,52,-7
9055,1688,-128,1104,-25,52,-7
9060,1672,-136,1072,-24,51,-9
9065,1696,-144,1088,-23,50,-8
9070,1680,-160,1088,-24,48,-8
9075,1680,-152,1104,-23,49,-8
9080,1680,-160,1096,-22,50,-8
9085,1704,-128,1096,-20,49,-7
9090,1680,-152,1112,-19,48,-6
9095,1680,-136,1104,-18,50,-6
9100,1680,-128,1080,-15,49,-6
9105,1688,-128,1064,-14,47,-5
9110,1664,-128,1112,-12,46,-5
9115,1664,-128,1080,-13,47,-5
9120,1672,-128,1072,-14,45,-6
9125,1664,-112,1056,-14,45,-6
9130,1680,-136,1104,-15,45,-5
9135,1696,-136,1056,-15,46,-7
9140,1688,-128,1064,-16,46,-7
9145,1672,-136,1088,-20,46,-7
9150,1720,-136,1064,-22,46,-6
9155,1696,-136,1088,-24,44,-6
9160,1712,-128,1088,-25,46,-6
9165,1680,-144,1088,-26,45,-7
9170,1656,-136,1088,-28,46,-7
9175,1688,-152,1104,-29,47,-6
9180,1688,-144,1088,-29,48,-7
9185,1680,-136,1104,-28,47,-7
9190,1664,-136,1088,-29,46,-7
9195,1688,-128,1096,-30,47,-8
9200,1688,-136,1096,-30,46,-7
9205,1696,-88,1072,-31,46,-8
9210,1672,-104,1056,-32,45,-8
9215,1664,-120,1080,-31,43,-9
9220,1680,-136,1064,-32,43,-9
9225,1712,-112,1064,-32,44,-10
9230,1672,-128,1096,-33,43,-9
9235,1680,-128,1064,-33,45,-9
9240,1696,-136,1080,-31,45,-10
9245,1688,-168,1064,-31,47,-10
9250,1696,-136,1088,-31,49,-10
9255,1680,-144,1064,-29,48,-8
9260,1696,-136,1072,-28,50,-7
9265,1688,-112,1064,-25,49,-7
9270,1688,-128,1064,-24,49,-6
9275,1672,-120,1072,-24,47,-5
9280,1680,-136,1088,-22,47,-5
9285,1712,-152,1080,-21,46,-5
9290,1688,-144,1104,-22,46,-5
9295,1680,-128,1072,-22,45,-5
9300,1688,-144,1072,-22,44,-4
9305,1704,-112,1056,-23,42,-4
9310,1688,-144,1072,-24,43,-4
9315,1704,-112,1056,-25,40,-4
9320,1664,-184,1112,-27,40,-6
9325,1720,-136,1024,-28,40,-5
9330,1688,-152,1112,-29,42,-3
9335,1688,-144,1064,-29,42,-4
9340,1696,-128,1040,-29,42,-3
9345,1672,-152,1080,-29,44,-4
9350,1688,-136,1048,-28,43,-3
9355,1680,-136,1048,-27,45,-3
9360,1696,-160,1072,-26,45,-3
9365,1688,-144,1080,-25,45,-4
9370,1704,-136,1088,-23,48,-2
9375,1680,-128,1080,-23,50,-3
9380,1680,-136,1072,-22,49,-3
9385,1704,-136,1072,-21,49,-4
9390,1712,-144,1072,-21,47,-6
9395,1688,-128,1080,-22,47,-6
9400,1696,-144,1088,-21,50,-5
9405,1680,-136,1080,-21,51,-5
9410,1688,-120,1072,-21,51,-5
9415,1712,-128,1064,-19,50,-4
9420,1688,-160,1088,-17,53,-3
9425,1704,-136,1064,-15,54,-2
9430,1656,-128,1048,-12,55,-3
9435,1704,-136,1056,-10,54,-3
9440,1688,-120,1080,-7,53,-3
9445,1696,-136,1088,-9,52,-3
9450,1688,-104,1064,-11,50,-4
9455,1688,-136,1056,-11,50,-3
9460,1704,-168,1056,-13,50,-5
9465,1696,-128,1064,-15,51,-4
9470,1688,-136,1056,-16,52,-4
9475,1688,-144,1056,-16,52,-4
9480,1688,-160,1048,-16,51,-3
9485,1712,-160,1080,-14,52,-4
9490,1680,-112,1056,-10,54,-5
9495,1704,-128,1056,-8,56,-5
9500,1704,-128,1072,-6,58,-3
9505,1696,-104,1056,-6,60,-5
9510,1704,-136,1024,-7,62,-5
9515,1680,-104,1024,-9,65,-2
9520,1712,-128,1040,-10,67,-1
9525,1696,-136,1064,-11,70,-1
9530,1680,-120,1064,-10,73,1
9535,1696,-128,1040,-10,76,0
9540,1680,-112,1064,-8,78,1
9545,1680,-120,1040,-8,79,0
9550,1680,-160,1088,-9,81,0
9555,1664,-152,1032,-10,82,1
9560,1704,-144,1072,-11,83,1
9565,1672,-160,1064,-12,83,-1
9570,1680,-168,1072,-12,83,-2
9575,1688,-152,1096,-11,83,-3
9580,1680,-160,1056,-10,83,-5
9585,1680,-152,1080,-8,81,-4
9590,1688,-160,1080,-3,81,-4
9595,1704,-144,1072,0,80,-6
9600,1696,-136,1040,3,83,-7
9605,1688,-112,1064,5,85,-7
9610,1680,-112,1048,6,89,-6
9615,1688,-112,1048,4,92,-6
9620,1712,-128,1072,2,96,-7
9625,1712,-112,1064,2,98,-8
9630,1696,-120,1048,-1,101,-7
9635,1704,-144,1064,-1,101,-7
9640,1728,-128,1064,-1,102,-5
9645,1704,-120,1072,-1,102,-3
9650,1712,-152,1080,0,105,-4
9655,1704,-144,1056,2,104,-4
9660,1680,-144,1064,2,104,-5
9665,1696,-128,1104,1,101,-4
9670,1704,-104,1064,3,101,-6
9675,1688,-136,1040,2,99,-4
9680,1688,-120,1048,1,98,-3
9685,1696,-136,1080,-2,93,0
9690,1704,-136,1096,-5,93,0
9695,1680,-128,1080,-5,92,2
9700,1664,-120,1088,-5,92,4
9705,1664,-128,1096,-6,92,7
9710,1688,-128,1072,-6,91,6
9715,1664,-128,1040,-6,92,8
9720,1680,-136,1072,-4,93,8
9725,1704,-144,1080,-2,93,9
9730,1664,-120,1080,0,94,10
9735,1672,-104,1080,1,96,9
9740,1688,-128,1048,1,95,9
9745,1680,-144,1080,2,96,9
9750,1696,-144,1088,2,99,8
9755,1680,-168,1008,2,99,9
9760,1680,-120,1072,2,97,8
9765,1664,-104,1080,0,97,9
9770,1712,-136,1048,1,98,7
9775,1712,-136,1064,0,99,7
9780,1680,-128,1096,1,98,7
9785,1680,-120,1088,0,98,7
9790,1696,-144,1104,0,96,7
9795,1680,-152,1064,-1,96,6
9800,1704,-152,1048,0,95,6
9805,1672,-144,1080,-2,94,6
9810,1704,-136,1064,-5,93,4
9815,1664,-128,1104,-8,93,3
9820,1696,-136,1080,-11,94,3
9825,1696,-136,1056,-13,94,2
9830,1696,-152,1120,-14,95,2
9835,1664,-136,1104,-16,96,3
9840,1656,-136,1080,-15,96,4
9845,1680,-144,1096,-14,97,5
9850,1664,-128,1104,-14,94,6
9855,1680,-128,1080,-13,94,4
9860,1672,-160,1064,-13,91,4
9865,1704,-144,1096,-12,87,4
9870,1672,-168,1112,-12,85,1
9875,1680,-120,1112,-11,83,-1
9880,1688,-136,1096,-13,85,0
9885,1672,-152,1088,-13,83,-2
9890,1664,-144,1080,-14,82,-3
9895,1704,-136,1080,-15,82,-3
9900,1680,-128,1080,-16,83,-4
9905,1664,-136,1088,-17,83,-5
9910,1664,-144,1112,-18,83,-6
9915,1680,-144,1072,-16,84,-3
9920,1656,-152,1088,-16,83,-4
9925,1696,-144,1104,-14,83,-5
9930,1648,-120,1096,-12,81,-4
9935,1672,-128,1088,-10,82,-5
9940,1688,-136,1064,-8,83,-5
9945,1688,-120,1080,-8,83,-5
9950,1672,-136,1064,-6,83,-5
9955,1672,-152,1088,-6,85,-5
9960,1664,-128,1088,-6,82,-5
9965,1672,-144,1096,-6,81,-6
9970,1680,-120,1064,-6,83,-6
9975,1632,-104,1080,-6,83,-5
9980,1672,-144,1064,-6,83,-4
9985,1656,-144,1096,-4,84,-4
9990,1664,-152,1064,-3,85,-4
9995,1672,-144,1112,-3,84,-3
10000,1664,-144,1064,-3,83,-1
10005,1680,-160,1088,-2,84,1
10010,1696,-144,1112,0,83,1
10015,1664,-104,1072,0,82,1
10020,1696,-152,1080,1,80,2
10025,1664,-112,1096,2,78,2
10030,1688,-144,1112,2,77,2
10035,1672,-160,1080,1,74,1
10040,1680,-136,1080,0,75,1
10045,1664,-136,1072,1,76,2
10050,1664,-136,1080,0,74,1
10055,1680,-152,1088,-3,74,0
10060,1680,-128,1096,-4,74,0
10065,1688,-136,1072,-3,76,0
10070,1672,-144,1064,-2,78,0
10075,1688,-160,1088,-2,79,2
10080,1672,-152,1080,-2,80,2
10085,1704,-136,1184,-1,82,1
10090,1688,-152,1104,-1,81,0
10095,1680,-144,1080,-1,81,1
10100,1672,-112,1088,-1,82,0
10105,1664,-128,1072,-1,83,0
10110,1664,-120,1104,-2,84,-1
10115,1696,-120,1088,-2,84,-1
10120,1696,-160,1096,-3,86,-1
10125,1680,-128,1072,-3,86,-1
10130,1688,-128,1072,-5,87,-1
10135,1672,-128,1080,-6,87,0
10140,1672,-128,1112,-5,86,0
10145,1664,-128,1088,-3,86,0
10150,1664,-128,1096,-3,85,1
10155,1680,-128,1088,-4,85,1
10160,1664,-128,1088,-5,84,1
10165,1680,-128,1080,-6,84,0
10170,1680,-104,1088,-6,84,1
10175,1664,-96,1080,-7,84,0
10180,1672,-112,1104,-6,84,1
10185,1688,-128,1096,-7,84,2
10190,1704,-144,1080,-7,84,1
10195,1688,-136,1096,-6,83,1
10200,1640,-144,1096,-7,84,2
10205,1680,-136,1096,-7,83,1
10210,1688,-152,1064,-6,84,0
10215,1680,-144,1112,-6,84,2
10220,1696,-152,1096,-5,85,1
10225,1688,-144,1088,-5,84,1
10230,1672,-128,1088,-4,85,3
10235,1672,-120,1064,-2,85,1
10240,1688,-168,1080,-3,84,1
10245,1664,-144,1096,-1,85,2
10250,1648,-112,1096,-1,84,3
10255,1688,-144,1120,-1,84,3
10260,1680,-120,1096,0,84,4
10265,1664,-128,1096,0,82,3
10270,1672,-128,1104,-2,83,3
10275,1680,-160,1104,-3,83,4
10280,1656,-136,1104,-4,82,2
10285,1656,-128,1120,-6,83,0
10290,1664,-144,1120,-6,82,2
10295,1680,-152,1096,-6,82,2
10300,1688,-152,1128,-5,83,2
10305,1656,-136,1144,-7,83,3
10310,1680,-144,1112,-6,80,1
10315,1688,-152,1104,-7,81,2
10320,1656,-120,1112,-7,79,-1
10325,1664,-144,1088,-7,79,1
10330,1664,-136,1112,-7,79,0
10335,1664,-120,1120,-7,80,0
10340,1672,-120,1104,-4,78,0
10345,1672,-144,1120,-4,79,0
10350,1672,-136,1112,-3,78,0
10355,1656,-112,1112,-2,77,0
10360,1680,-136,1096,-1,76,0
10365,1648,-128,1096,-1,76,0
10370,1648,-128,1096,-1,76,1
10375,1648,-136,1112,-3,77,1
10380,1664,-144,1120,-3,75,0
10385,1688,-152,1096,-2,74,-1
10390,1664,-136,1096,0,73,-1
10395,1696,-152,1096,1,75,-1
10400,1680,-144,1080,4,76,-3
10405,1648,-136,1104,6,76,-3
10410,1656,-72,1104,8,80,-12
10415,1688,-120,1072,9,81,-8
10420,1696,-128,1088,6,81,-1
10425,1672,-120,1104,1,81,0
10430,1656,-144,1112,-5,81,0
10435,1656,-104,1096,-6,81,0
10440,1664,-120,1096,-7,81,0
10445,1680,-152,1080,-6,80,0
10450,1672,-128,1112,-6,81,0
10455,1680,-144,1080,-5,81,1
10460,1656,-120,1112,-4,80,1
10465,1616,-128,1112,-3,81,1
10470,1672,-120,1112,-4,80,0
10475,1640,-136,1096,-4,79,0
10480,1680,-168,1112,-4,78,1
10485,1648,-144,1136,-3,77,1
10490,1664,-152,1112,-3,74,0
10495,1664,-168,1096,-2,73,0
10500,1664,-168,1112,1,71,-2
10505,1656,-152,1088,5,72,-1
10510,1656,-112,1072,9,73,-5
10515,1664,-144,1088,12,78,-5
10520,1632,-32,1040,15,80,-5
10525,1704,-128,1088,15,83,-5
10530,1672,-120,1056,14,86,-5
10535,1664,-112,1088,12,89,-4
10540,1680,-120,1096,8,89,-5
10545,1664,-128,1120,6,93,-5
10550,1672,-136,1112,3,95,-4
10555,1664,-120,1136,1,95,-3
10560,1688,-104,1112,-5,93,-4
10565,1672,-120,1096,-8,94,-4
10570,1672,-144,1104,-9,94,-2
10575,1664,-136,1096,-10,94,0
10580,1672,-120,1128,-11,91,1
10585,1648,-120,1128,-11,88,2
10590,1664,-144,1128,-12,86,2
10595,1656,-136,1120,-13,82,3
10600,1704,-128,1120,-12,78,4
10605,1648,-112,1096,-12,75,4
10610,1648,-136,1120,-12,74,6
10615,1648,-120,1096,-9,72,7
10620,1648,-128,1128,-9,72,8
10625,1656,-128,1104,-8,72,8
10630,1664,-168,1192,-6,72,8
10635,1672,-120,1104,-7,74,7
10640,1656,-144,1112,-7,76,7
10645,1672,-120,1128,-7,78,7
10650,1656,-136,1120,-6,79,7
10655,1648,-120,1120,-6,80,7
10660,1672,-128,1128,-5,82,7
10665,1672,-144,1120,-5,83,7
10670,1664,-128,1120,-7,85,7
10675,1672,-152,1128,-8,84,7
10680,1664,-128,1096,-8,84,7
10685,1664,-136,1120,-8,82,7
10690,1664,-136,1112,-7,82,7
10695,1656,-96,1088,-8,80,7
10700,1656,-128,1112,-9,79,7
10705,1664,-144,1080,-10,77,6
10710,1672,-136,1104,-10,76,5
10715,1672,-152,1120,-9,76,4
10720,1656,-136,1104,-10,77,3
10725,1648,-112,1120,-11,77,1
10730,1680,-144,1104,-13,77,3
10735,1664,-192,1128,-16,76,2
10740,1648,-128,1120,-18,80,1
10745,1656,-120,1112,-21,79,0
10750,1680,-152,1104,-22,79,-1
10755,1648,-152,1136,-24,79,0
10760,1640,-152,1104,-24,78,0
10765,1640,-128,1120,-25,75,0
10770,1672,-160,1128,-26,74,-1
10775,1656,-136,1120,-24,71,-2
10780,1672,-160,1128,-22,71,-3
10785,1680,-144,1136,-21,69,-2
10790,1672,-128,1112,-20,69,-3
10795,1672,-144,1096,-21,68,-5
10800,1672,-136,1120,-21,69,-4
10805,1664,-160,1112,-23,68,-6
10810,1664,-144,1104,-22,67,-6
10815,1640,-160,1112,-23,67,-6
10820,1632,-128,1088,-23,67,-9
10825,1640,-144,1120,-21,69,-7
10830,1672,-136,1112,-20,68,-6
10835,1656,-144,1096,-19,70,-5
10840,1656,-120,1144,-18,72,-4
10845,1640,-120,1120,-17,71,-4
10850,1680,-136,1088,-15,71,-1
10855,1680,-144,1088,-16,71,-2
10860,1680,-152,1128,-15,71,-3
10865,1656,-128,1112,-17,73,-3
10870,1656,-120,1096,-18,72,-5
10875,1680,-144,1120,-17,73,-3
10880,1680,-160,1128,-19,72,-4
10885,1656,-112,1104,-18,74,-4
10890,1648,-144,1112,-15,73,-3
10895,1672,-144,1112,-14,72,-2
10900,1688,-144,1128,-11,72,-2
10905,1688,-136,1112,-11,73,-1
10910,1664,-120,1128,-10,73,1
10915,1616,-120,1096,-8,72,-1
10920,1672,-120,1112,-7,72,1
10925,1696,-144,1096,-7,72,1
10930,1664,-144,1136,-6,70,2
10935,1656,-120,1120,-4,71,2
10940,1648,-136,1064,-5,71,3
10945,1664,-120,1088,-4,71,1
10950,1656,-120,1112,-5,70,2
10955,1672,-64,1088,-6,69,2
10960,1648,-128,1088,-7,71,0
10965,1656,-120,1104,-8,71,2
10970,1648,-136,1104,-9,71,1
10975,1632,-112,1104,-11,72,0
10980,1648,-128,1120,-11,72,0
10985,1672,-112,1104,-13,73,-1
10990,1648,-128,1112,-13,73,0
10995,1648,-128,1112,-13,74,1
11000,1656,-128,1112,-13,73,0
11005,1640,-112,1088,-14,74,1
11010,1664,-136,1128,-14,73,0
11015,1672,-136,1080,-15,74,-1
11020,1656,-128,1112,-16,73,0
11025,1656,-136,1080,-18,72,-2
11030,1664,-120,1128,-17,73,-2
11035,1664,-144,1128,-17,72,-2
11040,1648,-120,1120,-16,73,-2
11045,1664,-136,1128,-16,72,-2
11050,1648,-128,1112,-17,73,-3
11055,1640,-112,1152,-16,73,-3
11060,1640,-120,1112,-17,74,-2
11065,1648,-136,1120,-17,73,-1
11070,1648,-128,1104,-16,73,-2
11075,1640,-136,1136,-18,73,-1
11080,1664,-128,1120,-18,74,-2
11085,1648,-128,1112,-17,72,-2
11090,1648,-136,1096,-16,70,-2
11095,1672,-136,1096,-16,69,-1
11100,1664,-160,1144,-17,69,-2
11105,1672,-160,1128,-18,71,-1
11110,1632,-120,1136,-17,70,-2
11115,1672,-152,1112,-18,69,-2
11120,1648,-144,1120,-17,69,-1
11125,1656,-144,1104,-17,69,-2
11130,1680,-136,1120,-17,68,-1
11135,1672,-136,1096,-17,67,-2
11140,1672,-144,1104,-15,68,-2
11145,1648,-152,1120,-15,68,-2
11150,1664,-144,1120,-16,68,-3
11155,1664,-160,1144,-16,68,-3
11160,1672,-136,1112,-16,67,-2
11165,1656,-120,1104,-16,66,-2
11170,1608,-152,1064,-16,67,-3
11175,1648,-136,1136,-16,66,-3
11180,1664,-144,1112,-17,62,-4
11185,1664,-152,1120,-17,63,-3
11190,1648,-120,1096,-16,63,-4
11195,1680,-144,1120,-16,61,-4
11200,1672,-144,1112,-18,60,-4
11205,1656,-128,1128,-18,59,-4
11210,1664,-136,1120,-17,57,-4
11215,1672,-144,1128,-18,57,-6
11220,1664,-144,1104,-18,57,-4
11225,1656,-120,1120,-18,55,-5
11230,1656,-120,1112,-17,56,-4
11235,1656,-160,1112,-17,55,-5
11240,1656,-136,1112,-17,54,-6
11245,1672,-136,1136,-19,53,-6
11250,1656,-128,1072,-19,54,-4
11255,1656,-144,1104,-21,54,-5
11260,1656,-120,1112,-19,54,-4
11265,1664,-144,1104,-20,55,-6
11270,1664,-160,1112,-20,54,-6
11275,1656,-136,1120,-18,55,-6
11280,1664,-80,1104,-17,56,-6
11285,1664,-136,1112,-16,55,-6
11290,1664,-136,1104,-15,56,-5
11295,1688,-128,1112,-17,58,-5
11300,1656,-112,1128,-16,57,-6
11305,1672,-128,1096,-18,58,-6
11310,1672,-136,1120,-19,57,-7
11315,1664,-128,1080,-19,57,-7
11320,1680,-112,1104,-19,55,-7
11325,1648,-152,1120,-21,56,-7
11330,1664,-152,1128,-20,56,-6
11335,1656,-120,1104,-19,56,-7
11340,1632,-136,1112,-20,54,-7
11345,1664,-128,1096,-20,53,-7
11350,1656,-120,1144,-21,54,-7
11355,1672,-144,1096,-22,54,-7
11360,1656,-152,1112,-22,54,-8
11365,1664,-136,1072,-22,53,-8
11370,1656,-128,1104,-24,52,-6
11375,1664,-144,1096,-21,51,-8
11380,1672,-136,1136,-21,50,-8
11385,1688,-144,1152,-19,50,-8
11390,1592,-152,1104,-18,50,-8
11395,1648,-120,1112,-17,51,-7
11400,1672,-128,1112,-19,52,-8
11405,1648,-120,1080,-21,52,-9
11410,1680,-128,1088,-24,54,-7
11415,1680,-120,1096,-25,55,-7
11420,1680,-128,1104,-27,54,-7
11425,1648,-144,1112,-27,56,-7
11430,1656,-136,1072,-26,57,-6
11435,1656,-120,1104,-26,58,-5
11440,1640,-144,1176,-24,60,-3
11445,1640,-136,1096,-21,59,-3
11450,1672,-160,1096,-21,59,-4
11455,1656,-136,1120,-21,59,-5
11460,1632,-184,1104,-19,59,-5
11465,1680,-152,1096,-17,59,-4
11470,1648,-176,1096,-17,57,-5
11475,1672,-152,1120,-17,58,-6
11480,1632,-160,1104,-13,56,-8
11485,1664,-144,1128,-8,56,-9
11490,1664,-160,1112,-4,54,-9
11495,1672,-144,1080,0,53,-11
11500,1640,-144,1040,3,53,-12
11505,1712,-136,1064,4,55,-10
11510,1688,-128,1048,2,58,-10
11515,1704,-136,1072,-1,61,-10
11520,1672,-144,1088,-6,63,-10
11525,1688,-112,1120,-9,68,-9
11530,1672,-144,1120,-11,69,-9
11535,1696,-120,1104,-13,70,-8
11540,1664,-120,1120,-14,72,-7
11545,1672,-128,1072,-16,71,-7
11550,1680,-136,1120,-15,72,-5
11555,1656,-112,1120,-17,69,-5
11560,1672,-112,1096,-17,67,-5
11565,1656,-112,1104,-15,64,-4
11570,1664,-120,1088,-16,62,-3
11575,1672,-128,1056,-16,62,-3
11580,1664,-120,1072,-16,58,-2
11585,1672,-128,1104,-18,57,-1
11590,1656,-120,1104,-19,56,-1
11595,1688,-152,1096,-19,56,1
11600,1664,-144,1104,-20,58,3
11605,1680,-144,1112,-20,56,4
11610,1672,-120,1080,-19,57,4
11615,1664,-104,1104,-18,58,4
11620,1664,-136,1104,-20,60,5
11625,1664,-152,1112,-20,60,4
11630,1672,-136,1088,-21,60,4
11635,1672,-120,1120,-21,61,4
11640,1672,-152,1112,-21,60,4
11645,1672,-120,1080,-21,58,2
11650,1656,-152,1104,-20,58,2
11655,1656,-136,1096,-21,59,1
11660,1680,-152,1088,-21,59,0
11665,1672,-128,1112,-21,57,0
11670,1664,-152,1088,-22,55,-3
11675,1680,-136,1096,-22,54,-1
11680,1688,-128,1136,-21,54,-3
11685,1672,-128,1080,-21,53,-2
11690,1664,-152,1072,-20,54,-3
11695,1648,-144,1120,-18,54,-3
11700,1664,-152,1056,-17,54,-5
11705,1672,-168,1072,-19,55,-3
11710,1688,-136,1104,-21,54,-5
11715,1704,-136,1104,-21,55,-6
11720,1664,-112,1096,-24,57,-5
11725,1680,-128,1112,-25,58,-5
11730,1688,-136,1096,-25,59,-4
11735,1680,-128,1112,-28,59,-4
11740,1696,-152,1096,-29,58,-5
11745,1664,-120,1080,-30,59,-5
11750,1680,-152,1088,-31,60,-4
11755,1672,-136,1112,-28,58,-4
11760,1664,-152,1096,-28,56,-4
11765,1648,-160,1120,-27,56,-4
11770,1672,-120,1120,-27,56,-6
11775,1648,-128,1112,-27,55,-6
11780,1656,-136,1080,-27,55,-8
11785,1672,-144,1096,-27,54,-8
11790,1656,-144,1088,-27,55,-8
11795,1672,-144,1088,-26,56,-9
11800,1672,-128,1096,-28,55,-10
11805,1648,-144,1080,-28,55,-10
11810,1672,-144,1096,-28,56,-10
11815,1664,-168,1096,-27,57,-11
11820,1688,-152,1064,-25,57,-10
11825,1656,-88,1056,-23,57,-9
11830,1672,-128,1128,-22,58,-8
11835,1664,-120,1096,-22,59,-7
11840,1672,-128,1080,-22,58,-7
11845,1672,-136,1080,-22,58,-7
11850,1680,-136,1096,-24,60,-5
11855,1664,-144,1096,-23,61,-5
11860,1680,-120,1104,-21,63,-5
11865,1672,-152,1096,-22,64,-5
11870,1672,-144,1088,-20,63,-6
11875,1672,-136,1072,-19,61,-4
11880,1656,-136,1088,-18,62,-4
11885,1680,-168,1088,-15,61,-4
11890,1688,-152,1104,-13,61,-5
11895,1664,-120,1088,-14,59,-3
11900,1672,-120,1072,-12,60,-2
11905,1656,-152,1096,-13,60,-2
11910,1680,-136,1088,-12,60,-2
11915,1696,-168,1104,-13,61,-1
11920,1672,-128,1096,-11,62,-1
11925,1648,-112,1088,-10,61,-2
11930,1640,-136,1096,-9,63,-2
11935,1672,-128,1128,-9,63,-2
11940,1680,-120,1104,-6,63,-2
11945,1664,-160,1056,-7,66,-2
11950,1664,-136,1088,-7,66,-1
11955,1664,-136,1120,-5,67,0
11960,1656,-136,1096,-7,68,-1
11965,1664,-152,1104,-7,69,-1
11970,1664,-136,1096,-9,71,-2
11975,1680,-136,1088,-10,71,-1
11980,1656,-120,1080,-11,73,-2
11985,1688,-144,1080,-12,74,-3
11990,1688,-168,1112,-12,74,-2
11995,1664,-136,1080,-14,75,-2
12000,1672,-144,1088,-14,77,-1
12005,1688,-144,1088,-15,77,-3
12010,1680,-144,1104,-14,77,-3
12015,1680,-120,1088,-14,77,-2
12020,1696,-136,1104,-13,79,-2
12025,1672,-136,1088,-14,79,-2
12030,1672,-168,1088,-14,80,-1
12035,1664,-136,1096,-14,79,-3
12040,1672,-136,1088,-13,80,-2
12045,1656,-152,1096,-13,80,-1
12050,1680,-152,1088,-12,80,-2
12055,1672,-144,1080,-12,79,-3
12060,1680,-152,1112,-11,79,-2
12065,1656,-160,1080,-11,77,-1
12070,1672,-136,1056,-11,77,-1
12075,1696,-128,1112,-11,77,-2
12080,1656,-144,1088,-11,76,0
12085,1680,-136,1088,-10,76,-2
12090,1664,-120,1096,-11,75,-2
12095,1672,-144,1072,-11,75,-1
12100,1664,-128,1104,-12,76,0
12105,1672,-152,1112,-12,75,-1
12110,1656,-136,1096,-11,74,0
12115,1664,-136,1088,-10,74,-1
12120,1672,-160,1088,-10,72,0
12125,1672,-128,1104,-9,72,-2
12130,1696,-120,1096,-10,73,-2
12135,1672,-120,1112,-10,71,-3
12140,1688,-152,1104,-12,71,-4
12145,1672,-152,1088,-11,71,-3
12150,1656,-112,1112,-12,70,-2
12155,1640,-112,1088,-12,69,-5
12160,1672,-136,1088,-12,70,-3
12165,1656,-152,1088,-13,70,-2
12170,1680,-144,1104,-12,69,-2
12175,1696,-136,1096,-10,69,-3
12180,1680,-112,1080,-11,67,-3
12185,1680,-128,1072,-14,68,-5
12190,1664,-120,1088,-14,68,-4
12195,1672,-128,1096,-13,70,-4
12200,1680,-144,1080,-12,70,-4
12205,1656,-160,1104,-13,70,-5
12210,1664,-152,1096,-13,71,-1
12215,1680,-136,1072,-12,72,-2
12220,1656,-128,1088,-10,73,-4
12225,1664,-136,1080,-9,73,-3
12230,1656,-152,1088,-8,73,-2
12235,1664,-136,1104,-8,73,-3
12240,1648,-144,1112,-7,73,-2
12245,1680,-120,1120,-6,73,-3
12250,1680,-152,1072,-5,72,-3
12255,1656,-128,1104,-6,71,-4
12260,1624,-168,1096,-6,71,-4
12265,1688,-144,1072,-5,69,-5
12270,1680,-168,1096,-6,68,-3
12275,1680,-152,1048,-6,69,-3
12280,1680,-136,1112,-6,69,-4
12285,1688,-136,1088,-6,68,-5
12290,1688,-144,1080,-7,67,-4
12295,1696,-144,1080,-7,67,-5
12300,1680,-144,1096,-8,68,-6
12305,1664,-160,1080,-9,70,-4
12310,1656,-128,1056,-10,69,-4
12315,1656,-168,1096,-9,70,-4
12320,1672,-144,1104,-10,69,-4
12325,1680,-128,1088,-8,67,-4
12330,1664,-152,1112,-7,67,-5
12335,1688,-120,1096,-3,68,-3
12340,1672,-104,1096,-1,68,-4
12345,1688,-128,1064,0,70,-4
12350,1688,-136,1072,-2,71,-5
12355,1680,-136,1104,-6,74,-4
12360,1680,-120,1080,-9,75,-5
12365,1672,-128,1080,-11,75,-5
12370,1600,-128,1008,-13,77,-3
12375,1656,-144,1080,-12,79,-3
12380,1680,-144,1112,-11,80,-2
12385,1688,-144,1120,-10,79,0
12390,1680,-152,1088,-9,80,0
12395,1640,-152,1096,-7,81,0
12400,1656,-136,1096,-7,80,-1
12405,1648,-144,1128,-7,80,0
12410,1672,-160,1104,-6,80,1
12415,1680,-144,1120,-6,79,0
12420,1688,-184,1112,-5,79,1
12425,1640,-168,1112,-5,77,-1
12430,1656,-176,1104,-1,75,-3
12435,1664,-136,1056,1,76,-3
12440,1680,-168,1080,3,74,-7
12445,1688,-152,1096,6,73,-7
12450,1688,-152,1088,9,75,-8
12455,1656,-128,1072,10,78,-9
12460,1656,-128,1072,9,79,-9
12465,1696,-144,1072,8,83,-8
12470,1680,-120,1056,6,85,-8
12475,1680,-136,1064,3,88,-6
12480,1704,-120,1088,2,90,-7
12485,1648,-112,1088,1,92,-5
12490,1664,-112,1120,-1,93,-5
12495,1664,-120,1120,-3,94,-4
12500,1688,-128,1120,-3,93,-4
12505,1688,-120,1080,-4,92,-2
12510,1664,-144,1104,-3,91,-1
12515,1664,-112,1080,-4,89,1
12520,1656,-120,1120,-3,86,1
12525,1672,-120,1112,-4,84,1
12530,1664,-136,1088,-3,82,3
12535,1672,-128,1112,-5,80,3
12540,1656,-120,1128,-7,80,4
12545,1672,-136,1096,-9,77,5
12550,1648,-112,1104,-9,77,5
12555,1656,-112,1112,-9,79,6
12560,1672,-136,1112,-10,79,5
12565,1664,-152,1128,-10,81,7
12570,1680,-136,1128,-11,82,8
12575,1656,-160,1120,-10,83,7
12580,1672,-136,1120,-9,84,6
12585,1688,-128,1112,-9,83,6
12590,1704,-144,1128,-9,81,5
12595,1680,-144,1096,-10,82,5
12600,1664,-120,1104,-10,81,4
12605,1688,-152,1120,-10,81,4
12610,1672,-136,1104,-9,79,3
12615,1656,-120,1088,-10,78,1
12620,1672,-160,1128,-9,79,2
12625,1664,-120,1096,-9,78,2
12630,1648,-120,1088,-10,76,2
12635,1680,-168,1096,-9,77,2
12640,1664,-168,1128,-10,74,1
12645,1664,-144,1096,-10,74,1
12650,1672,-128,1080,-9,76,0
12655,1664,-136,1056,-9,76,1
12660,1688,-152,1096,-9,77,1
12665,1672,-128,1104,-11,78,-1
12670,1664,-128,1096,-13,77,-2
12675,1656,-128,1112,-15,78,0
12680,1664,-136,1112,-17,78,0
12685,1664,-152,1080,-21,79,-1
12690,1664,-144,1104,-23,80,-2
12695,1648,-152,1088,-23,79,-2
12700,1624,-136,1104,-23,77,-2
12705,1656,-160,1120,-23,77,-1
12710,1656,-128,1136,-23,77,-1
12715,1656,-136,1112,-22,75,-1
12720,1656,-168,1120,-19,75,-2
12725,1680,-152,1112,-17,76,-3
12730,1640,-136,1112,-15,74,-3
12735,1648,-144,1104,-14,75,-2
12740,1664,-160,1088,-14,74,-3
12745,1664,-136,1112,-14,75,-6
12750,1656,-144,1088,-14,74,-5
12755,1656,-144,1120,-14,74,-4
12760,1664,-128,1088,-14,73,-4
12765,1656,-136,1088,-14,74,-5
12770,1656,-152,1096,-14,72,-4
12775,1664,-160,1112,-12,72,-3
12780,1680,-128,1104,-10,72,-3
12785,1648,-136,1104,-10,73,-3
12790,1664,-152,1112,-9,72,-2
12795,1696,-136,1104,-9,73,-3
12800,1664,-152,1120,-10,73,-2
12805,1680,-152,1144,-13,73,-3
12810,1648,-144,1128,-11,74,-2
12815,1672,-128,1112,-11,74,-3
12820,1664,-120,1096,-12,75,-2
12825,1680,-136,1088,-14,73,-2
12830,1656,-136,1080,-13,74,0
12835,1656,-136,1120,-10,73,-1
12840,1648,-144,1128,-10,73,1
12845,1664,-152,1080,-9,73,0
12850,1656,-112,1096,-9,74,2
12855,1672,-128,1120,-9,71,3
12860,1672,-136,1136,-7,71,2
12865,1672,-144,1128,-8,71,3
12870,1656,-128,1144,-8,70,3
12875,1664,-104,1128,-8,68,3
12880,1656,-120,1104,-8,67,2
12885,1672,-160,1112,-9,67,1
12890,1680,-144,1112,-8,65,0
12895,1648,-152,1104,-8,67,1
12900,1656,-120,1096,-9,68,-1
12905,1680,-144,1120,-10,69,-2
12910,1664,-144,1120,-10,70,-1
12915,1712,-184,1128,-12,72,-1
12920,1664,-136,1112,-12,73,-2
12925,1680,-136,1112,-14,73,-2
12930,1664,-128,1088,-13,74,-2
12935,1640,-120,1136,-14,73,-2
12940,1648,-152,1088,-14,75,-2
12945,1656,-128,1104,-15,75,-3
12950,1664,-136,1096,-15,75,-1
12955,1664,-128,1104,-15,76,-2
12960,1664,-136,1104,-14,75,-4
12965,1664,-152,1136,-13,75,-3
12970,1672,-152,1104,-13,74,-2
12975,1648,-136,1112,-14,75,-4
12980,1656,-144,1104,-13,75,-2
12985,1664,-144,1096,-15,74,-2
12990,1648,-112,1120,-14,75,-4
12995,1672,-144,1136,-13,75,-3
13000,1656,-136,1096,-13,74,-2
13005,1640,-136,1120,-13,75,-3
13010,1640,-136,1104,-14,73,-3
13015,1672,-128,1080,-14,74,-3
13020,1664,-144,1144,-13,73,-3
13025,1704,-152,1184,-14,71,-4
13030,1672,-120,1120,-14,71,-3
13035,1648,-128,1096,-12,70,-2
13040,1664,-168,1112,-14,70,-2
13045,1664,-136,1128,-13,70,-3
13050,1680,-160,1120,-12,71,-1
13055,1672,-128,1112,-11,70,-2
13060,1688,-160,1104,-11,70,-3
13065,1672,-120,1096,-12,70,-4
13070,1648,-136,1104,-12,71,-2
13075,1672,-120,1112,-11,71,-2
13080,1656,-144,1088,-9,70,-2
13085,1672,-128,1096,-10,69,-2
13090,1656,-144,1112,-9,69,-1
13095,1656,-152,1096,-9,70,-2
13100,1664,-144,1080,-8,69,-2
13105,1648,-112,1120,-8,70,-2
13110,1656,-144,1104,-6,69,-1
13115,1648,-128,1112,-6,70,1
13120,1648,-128,1104,-6,71,-1
13125,1656,-144,1104,-5,72,-1
13130,1656,-136,1112,-6,72,-1
13135,1640,-144,1120,-5,72,-2
13140,1664,-160,1088,-5,72,-2
13145,1648,-120,1096,-6,74,-2
13150,1664,-128,1104,-6,73,-2
13155,1648,-136,1112,-6,74,-3
13160,1680,-144,1088,-6,74,-4
13165,1672,-104,1104,-8,74,-3
13170,1672,-168,1136,-8,74,-2
13175,1664,-120,1112,-7,74,-2
13180,1672,-128,1088,-6,75,-2
13185,1648,-144,1136,-6,75,-2
13190,1656,-120,1096,-7,74,-2
13195,1664,-136,1120,-6,74,-2
13200,1656,-144,1120,-6,72,-2
13205,1656,-144,1120,-6,73,-2
13210,1656,-152,1112,-8,73,-1
13215,1640,-136,1096,-9,72,-2
13220,1656,-128,1112,-9,72,-1
13225,1680,-136,1096,-11,71,-1
13230,1648,-128,1128,-10,71,-3
13235,1672,-120,1096,-10,72,-1
13240,1648,-120,1072,-10,72,-2
13245,1664,-152,1096,-10,72,-2
13250,1672,-128,1120,-9,72,-2
13255,1648,-128,1112,-8,73,-3
13260,1672,-152,1096,-8,73,-1
13265,1648,-112,1112,-8,73,-2
13270,1672,-136,1104,-11,73,-3
13275,1680,-152,1112,-10,73,-2
13280,1640,-152,1104,-9,74,-2
13285,1640,-104,1112,-8,74,-1
13290,1656,-144,1112,-9,73,-2
13295,1656,-152,1120,-9,73,-2
13300,1664,-128,1136,-7,73,-1
13305,1648,-112,1088,-9,73,-2
13310,1672,-120,1112,-9,72,-3
13315,1656,-144,1112,-10,73,-2
13320,1664,-152,1112,-9,72,-1
13325,1664,-144,1104,-8,70,-1
13330,1664,-168,1128,-6,70,-1
13335,1672,-136,1112,-4,69,0
13340,1648,-136,1080,-4,70,1
13345,1664,-128,1072,-1,71,0
13350,1712,-104,1088,-2,71,-1
13355,1648,-120,1088,-3,72,-1
13360,1648,-104,1112,-5,73,-2
13365,1664,-128,1096,-9,76,-1
13370,1664,-120,1096,-13,77,-2
13375,1664,-136,1096,-13,77,-2
13380,1648,-136,1128,-13,79,-1
13385,1680,-120,1120,-13,79,-1
13390,1664,-136,1128,-13,80,0
13395,1640,-128,1144,-10,79,1
13400,1624,-144,1120,-10,79,0
13405,1640,-128,1120,-9,79,0
13410,1656,-168,1120,-9,77,1
13415,1672,-128,1128,-10,77,0
13420,1656,-168,1096,-10,75,0
13425,1624,-128,1120,-9,75,-1
13430,1632,-144,1152,-8,73,-2
13435,1656,-152,1096,-6,72,-3
13440,1648,-144,1104,-2,69,-4
13445,1656,-160,1096,2,69,-4
13450,1656,-152,1104,5,71,-6
13455,1672,-144,1096,9,71,-7
13460,1632,-104,1032,11,74,-6
13465,1648,-128,1088,12,77,-8
13470,1640,-144,1104,10,83,-8
13475,1656,-128,1080,9,84,-7
13480,1664,-120,1120,8,86,-7
13485,1672,-120,1112,3,89,-9
13490,1640,-104,1104,1,90,-6
13495,1664,-136,1096,-1,93,-7
13500,1680,-136,1128,-3,91,-5
13505,1664,-128,1120,-6,91,-4
13510,1656,-104,1112,-7,90,-2
13515,1672,-120,1104,-8,90,-3
13520,1664,-112,1152,-9,85,-3
13525,1672,-112,1128,-9,83,0
13530,1672,-128,1104,-8,81,3
13535,1648,-120,1128,-8,79,2
13540,1632,-136,1136,-8,77,4
13545,1648,-128,1136,-7,75,4
13550,1648,-128,1112,-7,73,4
13555,1664,-120,1104,-8,72,5
13560,1656,-112,1120,-8,72,5
13565,1640,-120,1120,-8,73,7
13570,1672,-144,1104,-7,73,8
13575,1672,-120,1136,-6,74,7
13580,1664,-152,1096,-8,76,4
13585,1632,-152,1104,-8,76,4
13590,1656,-160,1136,-8,78,4
13595,1648,-120,1120,-10,78,4
13600,1648,-160,1112,-10,79,3
13605,1656,-120,1168,-10,80,2
13610,1648,-168,1120,-10,80,-2
13615,1664,-120,1112,-5,83,-11
13620,1656,-160,1144,-2,79,-2
13625,1648,-144,1136,-7,75,3
13630,1656,-120,1104,-9,74,1
13635,1656,-128,1112,-10,72,1
13640,1656,-128,1120,-11,73,2
13645,1664,-136,1128,-12,73,1
13650,1656,-128,1112,-13,72,1
13655,1656,-160,1120,-13,73,-1
13660,1664,-144,1128,-13,73,-1
13665,1680,-136,1112,-12,72,-2
13670,1680,-136,1112,-14,74,-3
13675,1648,-136,1120,-14,74,-1
13680,1648,-152,1080,-18,74,-2
13685,1656,-128,1112,-19,76,-2
13690,1672,-128,1120,-20,76,-1
13695,1648,-168,1104,-22,76,-2
13700,1664,-128,1120,-24,75,-3
13705,1656,-128,1104,-24,76,-2
13710,1648,-144,1104,-23,73,-2
13715,1664,-120,1136,-22,72,-2
13720,1648,-120,1120,-21,72,-1
13725,1640,-120,1120,-22,70,-2
13730,1672,-120,1080,-20,70,-3
13735,1664,-160,1112,-19,68,-3
13740,1664,-152,1136,-20,68,-3
13745,1656,-152,1128,-20,68,-5
13750,1632,-120,1112,-19,67,-6
13755,1664,-152,1104,-19,67,-7
13760,1640,-136,1096,-19,67,-6
13765,1656,-136,1128,-18,69,-6
13770,1648,-160,1120,-17,69,-6
13775,1656,-168,1120,-14,68,-5
13780,1664,-176,1136,-15,68,-5
13785,1688,-144,1168,-14,68,-5
13790,1648,-136,1080,-14,68,-4
13795,1648,-136,1128,-14,67,-4
13800,1656,-96,1128,-16,68,-4
13805,1664,-136,1136,-17,70,-4
13810,1648,-128,1144,-19,69,-5
13815,1624,-136,1128,-18,68,-4
13820,1656,-112,1112,-18,68,-4
13825,1640,-136,1104,-18,68,-4
13830,1640,-128,1120,-17,69,-5
13835,1672,-152,1120,-16,70,-2
13840,1664,-136,1128,-15,69,-2
13845,1656,-152,1096,-14,68,-2
13850,1656,-112,1112,-13,68,0
13855,1656,-112,1112,-11,68,0
13860,1664,-128,1120,-10,69,1
13865,1640,-120,1128,-11,68,0
13870,1632,-136,1104,-9,68,0
13875,1664,-144,1136,-9,69,0
13880,1640,-136,1152,-9,68,0
13885,1648,-128,1136,-9,66,1
13890,1648,-136,1128,-8,66,1
13895,1664,-144,1200,-9,66,0
13900,1624,-136,1128,-10,65,1
13905,1656,-120,1104,-11,67,0
13910,1640,-144,1128,-11,68,-1
13915,1656,-152,1128,-11,68,-1
13920,1640,-112,1112,-11,69,0
13925,1648,-120,1112,-12,70,-1
13930,1648,-128,1112,-14,70,0
13935,1632,-120,1128,-14,70,-1
13940,1672,-144,1112,-14,70,-1
13945,1664,-120,1136,-14,71,-2
13950,1648,-136,1088,-15,70,-2
13955,1680,-136,1112,-16,70,-2
13960,1648,-104,1120,-17,69,-1
13965,1640,-128,1136,-17,69,-1
13970,1656,-136,1096,-18,70,-2
13975,1648,-144,1136,-18,70,-1
13980,1640,-152,1096,-19,69,-3
13985,1656,-152,1064,-18,69,-3
13990,1664,-136,1128,-17,69,-3
13995,1632,-160,1112,-18,70,-3
14000,1656,-144,1104,-19,70,-3
14005,1664,-160,1112,-18,70,-3
14010,1664,-136,1152,-20,69,-2
14015,1664,-152,1128,-19,68,-2
14020,1648,-136,1136,-20,68,-3
14025,1664,-152,1112,-19,68,-4
14030,1656,-144,1128,-19,68,-4
14035,1640,-152,1120,-19,68,-3
14040,1672,-136,1120,-18,66,-3
14045,1656,-152,1112,-18,64,-3
14050,1672,-144,1104,-18,64,-4
14055,1640,-144,1120,-17,63,-3
14060,1680,-128,1096,-17,64,-3
14065,1656,-120,1128,-17,63,-3
14070,1656,-128,1128,-16,62,-4
14075,1640,-128,1128,-18,61,-4
14080,1664,-144,1128,-17,60,-4
14085,1664,-160,1112,-17,61,-5
14090,1680,-144,1120,-17,62,-4
14095,1664,-136,1104,-17,61,-4
14100,1664,-144,1120,-17,61,-4
14105,1648,-152,1120,-16,61,-4
14110,1648,-128,1128,-17,60,-4
14115,1656,-144,1112,-17,57,-5
14120,1648,-120,1104,-15,57,-6
14125,1672,-136,1112,-16,56,-4
14130,1672,-152,1136,-16,57,-4
14135,1640,-136,1112,-16,56,-5
14140,1632,-128,1128,-17,56,-4
14145,1640,-120,1096,-15,56,-4
14150,1656,-144,1128,-15,56,-5
14155,1672,-152,1136,-17,57,-5
14160,1648,-144,1112,-17,54,-4
14165,1664,-120,1120,-18,56,-5
14170,1648,-128,1120,-18,55,-4
14175,1640,-120,1096,-18,56,-5
14180,1664,-144,1112,-18,56,-5
14185,1664,-152,1104,-17,57,-6
14190,1656,-152,1112,-18,55,-6
14195,1656,-136,1104,-19,54,-4
14200,1656,-136,1112,-18,56,-4
14205,1672,-144,1096,-17,55,-3
14210,1664,-144,1136,-17,55,-5
14215,1656,-144,1120,-18,55,-5
14220,1656,-136,1128,-18,53,-6
14225,1632,-168,1120,-19,53,-4
14230,1640,-112,1112,-20,54,-4
14235,1648,-136,1128,-21,52,-6
14240,1656,-128,1104,-22,53,-6
14245,1656,-144,1096,-23,53,-5
14250,1672,-136,1112,-22,53,-5
14255,1672,-144,1120,-22,52,-5
14260,1680,-168,1096,-21,52,-6
14265,1680,-160,1136,-21,52,-5
14270,1664,-152,1136,-21,53,-6
14275,1656,-144,1096,-20,53,-6
14280,1664,-144,1112,-21,53,-7
14285,1656,-136,1120,-21,53,-6
14290,1672,-136,1128,-19,53,-6
14295,1648,-128,1104,-19,51,-5
14300,1664,-128,1088,-18,52,-6
14305,1672,-144,1104,-20,50,-6
14310,1656,-136,1120,-18,52,-5
14315,1648,-136,1112,-19,53,-4
14320,1648,-136,1128,-20,51,-5
14325,1672,-168,1088,-22,51,-5
14330,1712,-136,1096,-23,50,-5
14335,1656,-136,1112,-24,51,-6
14340,1648,-144,1128,-23,49,-5
14345,1664,-144,1112,-20,49,-4
14350,1672,-144,1080,-18,48,-4
14355,1672,-144,1136,-17,47,-5
14360,1640,-128,1104,-14,45,-4
14365,1640,-104,1088,-14,46,-3
14370,1688,-144,1096,-15,48,-4
14375,1672,-120,1104,-15,50,-4
14380,1664,-112,1096,-17,51,-5
14385,1680,-136,1128,-21,52,-5
14390,1664,-160,1096,-23,55,-5
14395,1664,-128,1088,-24,55,-3
14400,1672,-152,1096,-23,56,-3
14405,1648,-144,1096,-22,58,-3
14410,1656,-144,1136,-22,58,-5
14415,1656,-136,1120,-22,60,-5
14420,1648,-168,1144,-21,60,-4
14425,1664,-160,1080,-20,60,-2
14430,1648,-160,1120,-21,58,-3
14435,1648,-144,1168,-21,55,-3
14440,1672,-160,1120,-21,56,-3
14445,1664,-168,1128,-21,53,-5
14450,1664,-176,1120,-20,53,-4
14455,1648,-152,1112,-17,50,-7
14460,1672,-144,1112,-14,47,-9
14465,1680,-152,1104,-9,43,-9
14470,1648,-168,1104,-5,43,-10
14475,1664,-120,1072,-4,45,-11
14480,1656,-152,1088,-1,45,-12
14485,1664,-120,1088,0,49,-13
14490,1680,-128,1088,-3,52,-10
14495,1656,-136,1096,-6,54,-9
14500,1664,-128,1104,-9,55,-8
14505,1656,-128,1120,-11,59,-8
14510,1656,-112,1104,-12,62,-8
14515,1680,-104,1112,-13,64,-8
14520,1680,-128,1128,-13,64,-7
14525,1688,-152,1128,-14,64,-7
14530,1672,-128,1120,-16,62,-5
14535,1672,-136,1088,-17,61,-4
14540,1672,-136,1104,-17,59,-3
14545,1672,-120,1096,-17,58,-4
14550,1680,-144,1096,-16,57,-3
14555,1640,-120,1088,-16,55,-1
14560,1656,-136,1080,-16,54,-1
14565,1680,-136,1088,-16,52,2
14570,1648,-120,1056,-16,52,2
14575,1672,-144,1112,-17,50,4
14580,1672,-136,1088,-18,53,4
14585,1680,-152,1112,-19,52,6
14590,1664,-128,1096,-19,52,4
14595,1680,-136,1104,-20,53,4
14600,1664,-160,1080,-20,54,3
14605,1664,-152,1088,-23,54,3
14610,1664,-128,1104,-23,54,3
14615,1656,-128,1120,-23,53,1
14620,1664,-152,1104,-24,52,1
14625,1680,-160,1152,-24,53,0
14630,1672,-128,1104,-23,53,0
14635,1648,-136,1104,-22,51,0
14640,1640,-120,1088,-21,52,-1
14645,1680,-152,1080,-20,52,-2
14650,1680,-144,1120,-21,50,-2
14655,1672,-144,1104,-20,48,-3
14660,1648,-184,1136,-21,46,-4
14665,1680,-152,1104,-23,46,-4
14670,1680,-160,1104,-23,44,-4
14675,1696,-168,1064,-24,45,-5
14680,1664,-128,1096,-24,44,-5
14685,1664,-152,1072,-24,45,-6
14690,1672,-136,1080,-26,46,-6
14695,1648,-136,1088,-27,49,-6
14700,1656,-128,1088,-28,50,-7
14705,1680,-144,1096,-32,50,-6
14710,1672,-144,1064,-34,52,-6
14715,1672,-152,1112,-35,52,-6
14720,1680,-160,1112,-37,53,-7
14725,1680,-128,1112,-36,53,-6
14730,1672,-160,1072,-36,54,-6
14735,1680,-136,1088,-35,53,-6
14740,1664,-144,1064,-33,53,-6
14745,1688,-152,1072,-31,53,-5
14750,1664,-160,1096,-28,54,-6
14755,1688,-152,1088,-27,51,-8
14760,1664,-136,1096,-26,51,-9
14765,1672,-168,1112,-26,50,-9
14770,1648,-160,1056,-25,51,-9
14775,1672,-152,1104,-25,52,-10
14780,1680,-128,1080,-27,51,-10
14785,1664,-136,1080,-26,51,-10
14790,1664,-160,1096,-25,52,-10
14795,1672,-128,1104,-24,53,-9
14800,1688,-144,1096,-21,53,-10
14805,1672,-128,1096,-21,55,-8
14810,1688,-144,1088,-19,57,-8
14815,1664,-136,1096,-18,58,-8
14820,1648,-128,1048,-17,59,-7
14825,1672,-136,1080,-19,61,-6
14830,1680,-144,1080,-20,63,-5
14835,1656,-144,1096,-19,62,-8
14840,1664,-144,1080,-18,63,-5
14845,1680,-136,1096,-18,64,-4
14850,1680,-144,1112,-17,64,-4
14855,1688,-160,1080,-16,65,-3
14860,1656,-144,1104,-14,64,-4
14865,1664,-120,1096,-13,64,-2
14870,1688,-144,1080,-11,64,-2
14875,1616,-184,1088,-11,65,-1
14880,1672,-160,1088,-10,66,-1
14885,1664,-144,1072,-9,68,-2
14890,1664,-136,1128,-9,67,0
14895,1672,-168,1056,-10,68,0
14900,1648,-144,1088,-8,68,-1
14905,1664,-144,1072,-8,68,0
14910,1664,-144,1072,-6,69,0
14915,1688,-120,1064,-5,70,0
14920,1696,-152,1072,-5,70,0
14925,1664,-128,1128,-6,71,-1
14930,1664,-128,1080,-5,71,-2
14935,1672,-136,1080,-7,74,-3
14940,1672,-144,1096,-7,75,-3
14945,1680,-128,1080,-8,77,-2
14950,1696,-152,1104,-8,78,-1
14955,1664,-120,1080,-10,78,-1
14960,1688,-152,1104,-11,79,-2
14965,1688,-128,1080,-11,80,-2
14970,1656,-144,1104,-10,79,0
14975,1688,-144,1080,-10,80,-2
14980,1680,-144,1064,-12,81,-3
14985,1672,-128,1096,-13,80,-3
14990,1680,-144,1112,-12,82,-3
14995,1664,-144,1104,-11,84,-3
