timestamp,accel_x,accel_y,accel_z,gyro_x,gyro_y,gyro_z
0,80,-1944,-1120,-57,4,-11
5,120,-1936,-1112,-55,5,-10
10,104,-1920,-1152,-55,5,-10
15,96,-1936,-1136,-55,7,-10
20,112,-1920,-1128,-53,8,-10
25,104,-1944,-1104,-55,9,-10
30,128,-1944,-1096,-56,10,-11
35,88,-1920,-1120,-57,10,-11
40,104,-1920,-1144,-61,8,-10
45,112,-1912,-1120,-59,9,-9
50,96,-1928,-1128,-61,9,-10
55,104,-1968,-1104,-61,9,-9
60,88,-1936,-1112,-60,10,-10
65,96,-1904,-1136,-62,10,-10
70,88,-1928,-1112,-62,10,-9
75,104,-1944,-1112,-65,9,-7
80,96,-1936,-1088,-65,8,-9
85,104,-1928,-1096,-65,9,-7
90,88,-1928,-1152,-65,9,-7
95,80,-1928,-1168,-67,9,-6
100,104,-1936,-1104,-66,8,-6
105,96,-1928,-1152,-65,7,-6
110,96,-1944,-1144,-64,7,-7
115,88,-1952,-1112,-64,7,-7
120,112,-1936,-1120,-66,7,-6
125,104,-1928,-1088,-65,6,-5
130,112,-1936,-1128,-66,5,-4
135,128,-1952,-1120,-68,5,-4
140,104,-1952,-1104,-65,4,-4
145,88,-1944,-1120,-66,4,-4
150,120,-1936,-1112,-65,6,-4
155,96,-1936,-1128,-64,6,-6
160,112,-1944,-1112,-65,7,-5
165,72,-1928,-1128,-63,5,-5
170,120,-1936,-1152,-64,4,-4
175,96,-1928,-1120,-65,6,-5
180,96,-1920,-1120,-65,6,-6
185,120,-1936,-1128,-66,5,-6
190,104,-1952,-1128,-68,6,-4
195,96,-1928,-1128,-66,5,-4
200,72,-1936,-1112,-67,4,-3
205,112,-1944,-1112,-67,4,-3
210,96,-1928,-1144,-66,3,-4
215,96,-1936,-1096,-66,3,-4
220,80,-1928,-1152,-64,3,-3
225,96,-1936,-1144,-64,4,-5
230,104,-1920,-1136,-64,5,-5
235,112,-1952,-1152,-65,5,-4
240,136,-1952,-1128,-66,4,-4
245,104,-1928,-1136,-66,4,-5
250,104,-1920,-1104,-64,3,-5
255,144,-1968,-1128,-62,5,-5
260,120,-1944,-1136,-62,5,-7
265,88,-1920,-1128,-60,6,-6
270,104,-1928,-1136,-58,6,-6
275,112,-1936,-1152,-59,6,-5
280,88,-1936,-1136,-63,6,-6
285,80,-1944,-1096,-69,7,-7
290,96,-1936,-1144,-74,6,-7
295,112,-1944,-1104,-76,8,-8
300,96,-1952,-1112,-77,9,-8
305,112,-1944,-1096,-72,9,-9
310,104,-1952,-1120,-66,11,-9
315,88,-1936,-1152,-61,11,-10
320,88,-1944,-1120,-58,13,-9
325,104,-1936,-1104,-58,14,-9
330,96,-1936,-1136,-57,15,-8
335,120,-1936,-1128,-55,14,-9
340,96,-1944,-1168,-54,12,-7
345,112,-1936,-1128,-53,10,-8
350,104,-1920,-1152,-51,8,-8
355,96,-1944,-1112,-50,8,-8
360,112,-1936,-1104,-48,9,-9
365,112,-1928,-1136,-47,11,-9
370,104,-1944,-1144,-47,13,-10
375,88,-1920,-1112,-48,16,-10
380,104,-1936,-1072,-48,15,-10
385,112,-1944,-1112,-47,15,-10
390,112,-1928,-1136,-47,15,-11
395,88,-1936,-1144,-49,15,-10
400,104,-1920,-1112,-50,16,-10
405,104,-1928,-1136,-50,17,-11
410,104,-1952,-1128,-52,15,-11
415,120,-1904,-1144,-53,15,-11
420,96,-1920,-1120,-54,15,-9
425,104,-1928,-1160,-53,14,-9
430,96,-1952,-1144,-51,15,-9
435,96,-1952,-1144,-52,15,-9
440,112,-1936,-1144,-51,17,-10
445,88,-1928,-1144,-50,17,-10
450,96,-1952,-1120,-48,18,-11
455,80,-2016,-1064,-47,17,-13
460,96,-1944,-1128,-46,16,-14
465,88,-1944,-1112,-42,17,-14
470,104,-1944,-1136,-40,17,-15
475,120,-1928,-1176,-41,18,-14
480,112,-1920,-1128,-40,19,-13
485,112,-1936,-1128,-39,18,-14
490,112,-1928,-1112,-43,18,-13
495,104,-1928,-1144,-45,18,-13
500,96,-1928,-1144,-46,18,-13
505,120,-1944,-1160,-51,18,-14
510,72,-1880,-1248,-52,16,-15
515,120,-1944,-1152,-53,18,-17
520,120,-1912,-1136,-52,17,-16
525,88,-1920,-1136,-52,18,-17
530,80,-1912,-1112,-52,19,-16
535,104,-1928,-1128,-52,18,-16
540,104,-1920,-1144,-51,18,-16
545,88,-1904,-1136,-52,17,-16
550,96,-1928,-1152,-51,15,-14
555,104,-1944,-1152,-49,15,-15
560,104,-1936,-1072,-49,14,-15
565,96,-1944,-1120,-50,14,-15
570,104,-1936,-1128,-49,13,-15
575,112,-1920,-1136,-50,13,-16
580,144,-1928,-1120,-48,15,-17
585,128,-1952,-1152,-47,14,-17
590,104,-1936,-1136,-46,15,-16
595,112,-1936,-1128,-47,14,-17
600,112,-1920,-1128,-48,15,-16
605,128,-1936,-1144,-48,14,-16
610,104,-1928,-1136,-47,11,-17
615,96,-1928,-1160,-48,11,-16
620,120,-1928,-1120,-49,10,-17
625,120,-1920,-1144,-49,10,-17
630,112,-1944,-1144,-50,7,-16
635,88,-1936,-1152,-50,7,-16
640,136,-1944,-1176,-48,6,-15
645,104,-1912,-1128,-48,4,-16
650,120,-1920,-1152,-48,6,-15
655,112,-1920,-1160,-48,5,-16
660,112,-1936,-1120,-50,5,-16
665,88,-1896,-1112,-51,5,-15
670,104,-1936,-1168,-52,5,-14
675,112,-1920,-1168,-53,6,-13
680,112,-1928,-1128,-52,6,-13
685,104,-1912,-1144,-52,5,-13
690,96,-1920,-1136,-49,5,-11
695,112,-1944,-1152,-48,7,-13
700,96,-1904,-1144,-49,7,-12
705,136,-1944,-1112,-50,8,-12
710,128,-1936,-1144,-48,9,-12
715,112,-1928,-1144,-50,10,-11
720,104,-1920,-1136,-52,14,-12
725,112,-1928,-1120,-53,14,-11
730,96,-1920,-1144,-56,15,-12
735,112,-1928,-1128,-57,14,-13
740,120,-1944,-1136,-58,15,-11
745,112,-1920,-1144,-60,14,-12
750,144,-1920,-1136,-59,14,-11
755,120,-1944,-1152,-57,14,-10
760,128,-1936,-1136,-58,15,-11
765,112,-1936,-1160,-57,15,-12
770,96,-1928,-1160,-57,15,-11
775,112,-1936,-1136,-56,15,-11
780,104,-1928,-1128,-57,15,-11
785,120,-1936,-1160,-58,16,-12
790,128,-1920,-1120,-57,16,-12
795,128,-1936,-1128,-58,15,-11
800,112,-1936,-1152,-59,16,-10
805,112,-1904,-1144,-60,16,-11
810,128,-1904,-1168,-61,16,-10
815,136,-1904,-1160,-62,16,-10
820,120,-1936,-1160,-62,17,-9
825,80,-1944,-1136,-65,18,-8
830,120,-1928,-1168,-70,19,-10
835,104,-1944,-1168,-77,19,-10
840,112,-1896,-1128,-82,19,-10
845,112,-1936,-1144,-86,20,-9
850,128,-1936,-1144,-87,21,-9
855,112,-1936,-1104,-85,23,-9
860,120,-1928,-1176,-77,24,-8
865,120,-1912,-1144,-72,24,-10
870,128,-1936,-1160,-66,26,-10
875,96,-1912,-1160,-64,27,-10
880,120,-1928,-1160,-63,29,-11
885,88,-1904,-1160,-61,26,-7
890,112,-1912,-1136,-61,26,-7
895,112,-1912,-1128,-60,25,-6
900,104,-1928,-1160,-60,23,-5
905,96,-1888,-1160,-61,22,-5
910,120,-1912,-1168,-59,22,-6
915,120,-1896,-1160,-60,23,-5
920,128,-1920,-1168,-60,25,-5
925,112,-1904,-1136,-63,26,-4
930,112,-1904,-1144,-67,26,-3
935,104,-1912,-1160,-72,27,-4
940,128,-1904,-1120,-76,27,-5
945,120,-1904,-1120,-79,24,-4
950,96,-1912,-1136,-81,24,-4
955,104,-1928,-1168,-85,23,-2
960,136,-1904,-1136,-85,22,-4
965,128,-1888,-1184,-86,21,-3
970,112,-1912,-1176,-85,22,-3
975,128,-1936,-1160,-85,20,-3
980,112,-1912,-1160,-83,22,-2
985,112,-1912,-1176,-83,24,-3
990,112,-1936,-1184,-80,23,-3
995,120,-1912,-1184,-79,24,-3
1000,120,-1928,-1184,-77,24,-2
1005,96,-1920,-1184,-76,24,-2
1010,128,-1904,-1176,-75,23,-3
1015,112,-1896,-1176,-76,24,-5
1020,128,-1904,-1152,-75,24,-3
1025,144,-1896,-1192,-76,25,-2
1030,144,-1936,-1208,-79,24,-4
1035,112,-1896,-1192,-83,24,-2
1040,136,-1896,-1160,-86,26,-2
1045,120,-1944,-1152,-88,26,-1
1050,120,-1920,-1160,-91,24,-1
1055,120,-1904,-1192,-94,26,0
1060,104,-1896,-1168,-95,25,-1
1065,144,-1920,-1184,-97,25,0
1070,120,-1896,-1176,-95,24,0
1075,112,-1896,-1160,-94,24,-1
1080,136,-1928,-1176,-92,24,-1
1085,96,-1920,-1160,-92,24,0
1090,112,-1904,-1184,-92,22,-1
1095,136,-1912,-1160,-90,22,1
1100,104,-1920,-1160,-90,21,0
1105,160,-1816,-1328,-90,21,0
1110,104,-1920,-1144,-89,18,-1
1115,112,-1920,-1160,-88,18,-1
1120,128,-1896,-1192,-87,16,1
1125,112,-1888,-1152,-87,18,1
1130,120,-1912,-1176,-87,17,2
1135,120,-1888,-1168,-87,18,1
1140,128,-1904,-1176,-87,19,3
1145,120,-1912,-1176,-89,18,2
1150,120,-1920,-1168,-91,20,2
1155,112,-1920,-1184,-91,19,2
1160,216,-1840,-1224,-90,18,0
1165,120,-1880,-1168,-89,17,1
1170,104,-1896,-1192,-89,16,1
1175,120,-1920,-1192,-89,15,0
1180,120,-1920,-1200,-91,15,0
1185,120,-1912,-1192,-91,16,1
1190,120,-1936,-1192,-91,18,1
1195,104,-1896,-1168,-92,18,1
1200,104,-1904,-1160,-90,17,2
1205,104,-1912,-1200,-89,15,1
1210,104,-1928,-1168,-88,14,1
1215,112,-1904,-1192,-88,13,1
1220,112,-1920,-1160,-87,12,2
1225,112,-1904,-1168,-84,11,3
1230,112,-1904,-1160,-85,11,2
1235,128,-1888,-1168,-84,12,4
1240,112,-1896,-1192,-85,10,4
1245,120,-1896,-1208,-86,12,4
1250,96,-1888,-1160,-87,10,2
1255,104,-1896,-1200,-85,9,3
1260,120,-1928,-1176,-87,7,4
1265,128,-1912,-1200,-84,4,5
1270,104,-1912,-1200,-84,2,5
1275,104,-1912,-1176,-83,1,4
1280,112,-1928,-1184,-83,0,4
1285,104,-1904,-1184,-83,-1,4
1290,104,-1912,-1184,-82,-2,2
1295,112,-1936,-1176,-80,-4,2
1300,112,-1864,-1192,-76,-7,2
1305,112,-1904,-1176,-75,-9,1
1310,104,-1912,-1168,-72,-8,1
1315,120,-1912,-1208,-67,-10,-1
1320,96,-1912,-1192,-65,-10,-3
1325,104,-1936,-1168,-64,-8,-2
1330,112,-1912,-1200,-61,-7,-3
1335,120,-1936,-1144,-58,-6,-1
1340,104,-1912,-1176,-58,-4,-1
1345,104,-1920,-1208,-56,-1,-1
1350,120,-1888,-1152,-55,0,-3
1355,104,-1888,-1160,-52,-1,-2
1360,96,-1888,-1160,-46,-3,0
1365,112,-1896,-1152,-42,-4,3
1370,88,-1872,-1160,-38,-7,7
1375,88,-1872,-1168,-36,-11,11
1380,88,-1896,-1112,-39,-17,16
1385,64,-1848,-1128,-41,-22,20
1390,64,-1880,-1144,-46,-27,22
1395,40,-1880,-1144,-49,-34,25
1400,56,-1920,-1104,-49,-40,32
1405,64,-1920,-1168,-45,-48,35
1410,48,-1912,-1176,-40,-51,37
1415,72,-1920,-1176,-42,-54,39
1420,72,-1912,-1192,-45,-53,39
1425,64,-1936,-1160,-50,-55,38
1430,64,-1904,-1168,-57,-54,35
1435,72,-1936,-1152,-63,-56,33
1440,56,-1928,-1168,-70,-59,28
1445,64,-1960,-1184,-74,-62,23
1450,80,-1952,-1176,-73,-63,18
1455,96,-1952,-1160,-64,-62,15
1460,120,-1952,-1160,-54,-58,11
1465,96,-1952,-1152,-40,-54,7
1470,96,-1952,-1144,-26,-48,3
1475,96,-1936,-1152,-13,-41,-3
1480,152,-1960,-1160,-3,-33,-5
1485,120,-1928,-1144,4,-24,-10
1490,160,-1936,-1152,8,-18,-11
1495,168,-1880,-1176,7,-11,-11
1500,152,-1904,-1152,2,-4,-11
1505,168,-1880,-1168,-6,3,-10
1510,160,-1888,-1176,-14,9,-10
1515,176,-1896,-1168,-25,15,-8
1520,160,-1904,-1192,-37,18,-3
1525,144,-1928,-1176,-45,23,0
1530,144,-1944,-1144,-49,24,2
1535,120,-1928,-1168,-51,27,7
1540,104,-1912,-1160,-48,28,10
1545,136,-1936,-1152,-44,31,13
1550,128,-1936,-1152,-38,34,16
1555,104,-1920,-1128,-30,37,19
1560,96,-1952,-1112,-26,41,23
1565,88,-1944,-1144,-20,43,23
1570,72,-1936,-1136,-13,44,25
1575,64,-1912,-1136,-8,43,25
1580,72,-1936,-1160,-4,43,26
1585,72,-1912,-1128,-4,42,24
1590,72,-1920,-1144,-3,38,23
1595,40,-1912,-1120,-5,36,22
1600,80,-1928,-1152,-6,35,21
1605,88,-1912,-1128,-10,33,21
1610,40,-1928,-1152,-13,30,20
1615,72,-1888,-1136,-17,28,18
1620,72,-1896,-1136,-21,23,19
1625,56,-1920,-1152,-26,20,18
1630,80,-1952,-1144,-29,17,17
1635,48,-1912,-1152,-32,17,17
1640,56,-1912,-1160,-31,16,18
1645,24,-1904,-1160,-33,16,17
1650,56,-1936,-1144,-34,17,19
1655,40,-1920,-1152,-33,15,19
1660,40,-1912,-1160,-35,16,21
1665,56,-1928,-1136,-32,14,21
1670,40,-1960,-1120,-31,14,23
1675,32,-1952,-1144,-28,14,23
1680,88,-1944,-1152,-27,16,23
1685,48,-1920,-1160,-25,15,24
1690,56,-1920,-1152,-21,15,23
1695,88,-1920,-1160,-16,15,23
1700,88,-1952,-1120,-13,16,21
1705,72,-2072,-1016,-9,16,22
1710,80,-1920,-1160,-8,18,19
1715,104,-1960,-1120,-5,17,17
1720,104,-1936,-1136,-4,19,17
1725,112,-1944,-1144,-4,21,15
1730,80,-1920,-1128,-8,24,17
1735,96,-1920,-1144,-10,26,15
1740,96,-1928,-1144,-15,27,14
1745,80,-1912,-1136,-20,31,16
1750,56,-1912,-1128,-23,32,13
1755,72,-1920,-1144,-24,33,13
1760,104,-1920,-1152,-25,33,13
1765,88,-1936,-1136,-26,34,14
1770,80,-1896,-1128,-25,34,12
1775,80,-1920,-1160,-22,35,13
1780,72,-1928,-1104,-22,35,15
1785,80,-1936,-1152,-21,36,15
1790,96,-1928,-1136,-22,37,16
1795,80,-1936,-1136,-21,40,16
1800,48,-1920,-1136,-19,41,17
1805,64,-1912,-1160,-17,40,17
1810,64,-1912,-1144,-16,40,17
1815,96,-1920,-1128,-16,41,16
1820,56,-1912,-1128,-18,42,15
1825,48,-1896,-1136,-20,44,17
1830,72,-1928,-1160,-22,43,16
1835,40,-1904,-1120,-23,43,16
1840,48,-1912,-1136,-24,42,13
1845,40,-1888,-1152,-27,41,12
1850,48,-1928,-1160,-24,39,13
1855,56,-1912,-1152,-27,42,11
1860,56,-1912,-1152,-28,43,10
1865,48,-1920,-1152,-27,43,9
1870,56,-1912,-1120,-27,44,9
1875,64,-1936,-1136,-28,43,8
1880,48,-1960,-1128,-27,40,8
1885,80,-1944,-1136,-27,39,8
1890,48,-1928,-1152,-23,37,8
1895,64,-1928,-1136,-21,37,7
1900,64,-1920,-1128,-19,38,4
1905,72,-1920,-1144,-22,38,5
1910,72,-1904,-1184,-26,37,6
1915,48,-1920,-1160,-27,36,6
1920,40,-1912,-1136,-35,36,4
1925,48,-1912,-1120,-39,35,4
1930,64,-1928,-1112,-41,34,2
1935,64,-1920,-1128,-42,29,3
1940,64,-1952,-1176,-42,27,1
1945,56,-1920,-1104,-39,25,-1
1950,56,-1936,-1152,-33,26,0
1955,56,-1920,-1144,-26,24,-1
1960,48,-1912,-1168,-24,24,-3
1965,56,-1920,-1192,-23,24,-2
1970,48,-1928,-1120,-23,23,-1
1975,48,-1912,-1152,-26,20,-1
1980,24,-1912,-1136,-27,17,0
1985,48,-1912,-1136,-29,14,0
1990,48,-1920,-1144,-30,11,1
1995,56,-1912,-1144,-28,10,1
2000,64,-1896,-1104,-29,8,-1
2005,72,-1920,-1128,-27,7,-3
2010,56,-1912,-1168,-28,6,-4
2015,32,-1920,-1152,-27,6,-7
2020,72,-1944,-1160,-27,6,-7
2025,40,-1944,-1136,-29,6,-8
2030,32,-1888,-1104,-31,6,-10
2035,56,-1920,-1144,-31,4,-10
2040,56,-1912,-1168,-34,3,-9
2045,72,-1928,-1128,-35,1,-8
2050,72,-1928,-1144,-36,-1,-8
2055,56,-1928,-1136,-36,-3,-7
2060,80,-1928,-1144,-35,-4,-6
2065,48,-1936,-1152,-33,-5,-6
2070,80,-1928,-1168,-33,-5,-6
2075,80,-1928,-1144,-31,-7,-7
2080,48,-1912,-1144,-31,-9,-8
2085,88,-1928,-1168,-33,-8,-11
2090,96,-1936,-1112,-34,-8,-10
2095,80,-1944,-1128,-32,-8,-12
2100,64,-1928,-1128,-33,-8,-11
2105,72,-1912,-1104,-30,-9,-13
2110,56,-1920,-1160,-31,-10,-14
2115,48,-1928,-1152,-31,-10,-14
2120,40,-1928,-1168,-31,-11,-15
2125,80,-1928,-1168,-31,-14,-14
2130,72,-1920,-1144,-33,-14,-15
2135,48,-1904,-1152,-34,-13,-15
2140,72,-1904,-1112,-36,-14,-15
2145,56,-1920,-1136,-36,-12,-17
2150,72,-1944,-1168,-38,-13,-18
2155,88,-1928,-1160,-37,-14,-19
2160,72,-1912,-1152,-35,-14,-20
2165,96,-1904,-1120,-34,-15,-20
2170,64,-1904,-1128,-32,-15,-21
2175,56,-1920,-1144,-33,-14,-22
2180,80,-1920,-1160,-34,-15,-22
2185,64,-1912,-1096,-36,-15,-23
2190,72,-1912,-1144,-36,-13,-23
2195,40,-1912,-1136,-38,-14,-22
2200,48,-1912,-1136,-40,-16,-22
2205,80,-1912,-1136,-42,-16,-21
2210,56,-1904,-1160,-43,-16,-21
2215,64,-1936,-1136,-44,-15,-21
2220,48,-1912,-1152,-43,-13,-22
2225,56,-1920,-1152,-44,-13,-22
2230,96,-1952,-1176,-44,-12,-23
2235,48,-1920,-1160,-45,-11,-23
2240,72,-1928,-1136,-46,-11,-24
2245,56,-1928,-1144,-47,-11,-23
2250,48,-1896,-1160,-47,-12,-24
2255,64,-1936,-1120,-47,-15,-24
2260,96,-1928,-1144,-49,-16,-26
2265,56,-1928,-1152,-50,-16,-23
2270,56,-1936,-1168,-49,-16,-25
2275,72,-1928,-1088,-49,-16,-24
2280,64,-1936,-1184,-49,-14,-24
2285,80,-1944,-1200,-47,-13,-24
2290,48,-1912,-1152,-45,-11,-25
2295,88,-1944,-1104,-44,-10,-24
2300,72,-1920,-1168,-42,-9,-24
2305,80,-1896,-1144,-42,-10,-23
2310,64,-1912,-1176,-43,-11,-23
2315,80,-1896,-1160,-44,-12,-25
2320,64,-1904,-1152,-47,-12,-23
2325,80,-1912,-1144,-47,-13,-24
2330,64,-1920,-1168,-48,-11,-23
2335,72,-1928,-1200,-46,-10,-22
2340,96,-1912,-1112,-49,-9,-24
2345,56,-1912,-1144,-50,-9,-23
2350,64,-1920,-1144,-49,-8,-23
2355,88,-1928,-1128,-49,-8,-23
2360,136,-1928,-1144,-50,-10,-22
2365,72,-1904,-1144,-52,-9,-21
2370,64,-1912,-1144,-54,-11,-22
2375,88,-1952,-1136,-55,-11,-20
2380,96,-1928,-1160,-55,-11,-20
2385,64,-1904,-1144,-57,-11,-19
2390,80,-1912,-1160,-59,-10,-22
2395,88,-1920,-1152,-60,-9,-21
2400,80,-1928,-1120,-61,-8,-20
2405,88,-1936,-1152,-61,-5,-21
2410,64,-1912,-1176,-59,-4,-21
2415,88,-1856,-1096,-57,-6,-21
2420,96,-1920,-1136,-56,-8,-23
2425,72,-1944,-1160,-55,-8,-22
2430,88,-1920,-1152,-52,-10,-23
2435,72,-1904,-1136,-49,-9,-23
2440,72,-1928,-1176,-50,-9,-23
2445,56,-1904,-1176,-51,-6,-23
2450,72,-1904,-1168,-53,-7,-23
2455,72,-1912,-1160,-57,-6,-22
2460,72,-1912,-1144,-64,-5,-22
2465,88,-1944,-1160,-70,-5,-21
2470,64,-1944,-1112,-74,-3,-21
2475,80,-1928,-1104,-77,-3,-22
2480,88,-1952,-1104,-74,-1,-22
2485,64,-1928,-1136,-68,-1,-22
2490,64,-1928,-1152,-60,0,-22
2495,88,-1928,-1128,-55,5,-23
2500,80,-1912,-1136,-54,6,-22
2505,56,-1896,-1160,-53,8,-21
2510,72,-1920,-1168,-54,8,-21
2515,56,-1912,-1152,-57,7,-19
2520,56,-1928,-1136,-59,5,-18
2525,56,-1896,-1120,-60,5,-18
2530,64,-1928,-1160,-61,3,-18
2535,72,-1936,-1160,-61,2,-18
2540,48,-1912,-1176,-62,1,-19
2545,40,-1912,-1120,-62,1,-19
2550,56,-1920,-1152,-64,1,-19
2555,64,-1920,-1112,-63,1,-19
2560,56,-1928,-1144,-62,1,-20
2565,104,-1944,-1144,-62,1,-19
2570,72,-1936,-1160,-64,-1,-19
2575,96,-1928,-1128,-64,-1,-19
2580,56,-1912,-1128,-62,-3,-19
2585,72,-1928,-1136,-63,-3,-18
2590,104,-1920,-1136,-60,-3,-19
2595,64,-1928,-1160,-60,-4,-18
2600,104,-1944,-1168,-58,-3,-16
2605,96,-1936,-1112,-57,-3,-15
2610,72,-1904,-1176,-56,-1,-16
2615,72,-1912,-1144,-55,-1,-17
2620,72,-1920,-1168,-56,0,-16
2625,72,-1912,-1144,-57,2,-16
2630,80,-1920,-1120,-55,2,-17
2635,104,-1936,-1144,-54,3,-18
2640,96,-1944,-1168,-53,4,-19
2645,88,-1928,-1176,-51,5,-18
2650,72,-1920,-1144,-50,6,-18
2655,96,-1920,-1152,-50,8,-20
2660,104,-1928,-1152,-49,10,-21
2665,96,-1920,-1184,-49,11,-20
2670,88,-1936,-1128,-50,11,-20
2675,96,-1928,-1160,-50,10,-20
2680,96,-1912,-1144,-49,8,-19
2685,104,-1920,-1176,-50,8,-19
2690,88,-1928,-1144,-49,8,-20
2695,88,-1920,-1160,-48,9,-19
2700,104,-1936,-1144,-48,11,-20
2705,96,-1944,-1144,-47,12,-20
2710,96,-1944,-1144,-47,14,-20
2715,72,-1944,-1176,-48,15,-20
2720,88,-1944,-1184,-48,15,-21
2725,104,-1944,-1160,-46,14,-20
2730,64,-1904,-1152,-45,14,-19
2735,72,-1920,-1160,-44,14,-20
2740,88,-1928,-1152,-43,16,-22
2745,80,-1928,-1160,-40,18,-21
2750,72,-1928,-1144,-39,21,-21
2755,104,-1944,-1200,-38,21,-20
2760,104,-1920,-1168,-36,23,-20
2765,72,-1920,-1176,-36,25,-21
2770,80,-1912,-1160,-39,26,-21
2775,80,-1904,-1184,-38,28,-22
2780,88,-1920,-1168,-41,30,-22
2785,80,-1904,-1184,-43,31,-23
2790,88,-1920,-1192,-46,31,-24
2795,112,-1928,-1128,-48,32,-23
2800,104,-1944,-1168,-50,33,-24
2805,120,-1920,-1176,-47,35,-22
2810,128,-1928,-1136,-45,35,-24
2815,104,-1936,-1144,-43,38,-23
2820,96,-1928,-1160,-42,38,-23
2825,104,-1944,-1144,-40,38,-23
2830,112,-1928,-1168,-36,39,-22
2835,72,-1920,-1168,-34,39,-21
2840,104,-1920,-1176,-36,41,-21
2845,112,-1912,-1152,-34,42,-20
2850,112,-1912,-1152,-34,44,-21
2855,80,-1912,-1168,-37,45,-21
2860,104,-1936,-1152,-38,47,-20
2865,96,-1896,-1160,-40,49,-18
2870,96,-1920,-1184,-43,47,-19
2875,88,-1928,-1184,-43,48,-18
2880,88,-1912,-1176,-44,48,-19
2885,104,-1920,-1160,-45,47,-18
2890,80,-1912,-1152,-47,48,-17
2895,96,-1912,-1176,-44,46,-17
2900,88,-1912,-1176,-45,47,-14
2905,88,-1896,-1176,-44,45,-15
2910,88,-1912,-1168,-45,42,-15
2915,80,-1912,-1160,-45,39,-14
2920,80,-1920,-1192,-47,35,-14
2925,64,-1928,-1184,-48,33,-12
2930,72,-1936,-1176,-51,30,-12
2935,88,-1912,-1160,-51,28,-13
2940,64,-1896,-1200,-53,29,-14
2945,64,-1928,-1184,-52,28,-13
2950,80,-1928,-1144,-48,27,-14
2955,88,-1944,-1160,-48,26,-14
2960,72,-2000,-1048,-46,26,-16
2965,96,-1928,-1152,-45,24,-17
2970,88,-1912,-1160,-43,24,-18
2975,96,-1904,-1168,-41,24,-20
2980,72,-1928,-1160,-40,22,-19
2985,64,-1920,-1168,-39,22,-20
2990,88,-1944,-1176,-39,20,-20
2995,88,-1920,-1160,-44,18,-20
3000,64,-1912,-1160,-49,15,-20
3005,72,-1904,-1152,-51,15,-19
3010,72,-1936,-1136,-53,14,-19
3015,200,-1888,-1224,-53,14,-19
3020,80,-1936,-1152,-50,15,-19
3025,104,-1944,-1152,-46,17,-18
3030,104,-1944,-1176,-40,19,-19
3035,96,-1928,-1144,-34,19,-19
3040,96,-1896,-1160,-30,20,-18
3045,104,-1920,-1200,-25,21,-18
3050,88,-1928,-1144,-24,21,-17
3055,80,-1920,-1160,-24,19,-14
3060,96,-1904,-1168,-24,17,-13
3065,104,-1912,-1160,-24,16,-11
3070,96,-1896,-1152,-23,15,-10
3075,64,-1880,-1168,-22,15,-10
3080,80,-1928,-1136,-21,16,-9
3085,96,-1928,-1128,-22,17,-8
3090,88,-1912,-1176,-22,17,-8
3095,112,-1904,-1160,-25,16,-7
3100,80,-1904,-1112,-29,14,-8
3105,96,-1904,-1128,-31,12,-8
3110,96,-1904,-1184,-35,11,-8
3115,88,-1928,-1160,-38,8,-8
3120,104,-1920,-1152,-39,5,-8
3125,88,-1904,-1144,-39,1,-8
3130,96,-1920,-1184,-39,-2,-7
3135,96,-1928,-1144,-39,-5,-7
3140,104,-1952,-1176,-39,-7,-7
3145,96,-1936,-1160,-40,-8,-6
3150,72,-1936,-1160,-35,-9,-6
3155,72,-1944,-1192,-32,-9,-7
3160,88,-1936,-1192,-28,-9,-7
3165,96,-1928,-1152,-25,-8,-7
3170,64,-1920,-1152,-20,-8,-8
3175,80,-1896,-1152,-18,-9,-7
3180,120,-1912,-1152,-17,-10,-8
3185,80,-1912,-1176,-15,-11,-10
3190,88,-1928,-1144,-17,-12,-9
3195,72,-1920,-1184,-19,-16,-9
3200,120,-1896,-1144,-21,-18,-9
3205,112,-1936,-1176,-24,-23,-8
3210,88,-1920,-1152,-27,-26,-8
3215,88,-1936,-1128,-28,-29,-9
3220,96,-1912,-1136,-28,-31,-8
3225,112,-1928,-1144,-29,-33,-9
3230,104,-1920,-1144,-30,-35,-10
3235,96,-1912,-1200,-31,-35,-10
3240,112,-1936,-1168,-31,-33,-10
3245,72,-1928,-1128,-30,-32,-10
3250,104,-1920,-1192,-30,-32,-8
3255,120,-1944,-1152,-28,-31,-8
3260,104,-1944,-1160,-25,-29,-7
3265,88,-1936,-1168,-24,-30,-7
3270,96,-1904,-1128,-23,-28,-9
3275,88,-1928,-1176,-21,-26,-9
3280,104,-1912,-1152,-19,-26,-9
3285,96,-1936,-1160,-20,-24,-8
3290,120,-1920,-1152,-19,-23,-10
3295,128,-1904,-1152,-21,-21,-8
3300,104,-1904,-1160,-22,-20,-9
3305,120,-1928,-1184,-23,-18,-9
3310,104,-1896,-1128,-26,-17,-9
3315,88,-1904,-1160,-29,-13,-9
3320,96,-1912,-1168,-32,-11,-7
3325,104,-1936,-1160,-32,-9,-7
3330,112,-1920,-1152,-34,-5,-9
3335,96,-1904,-1152,-33,-4,-5
3340,112,-1928,-1152,-35,-3,-7
3345,80,-1920,-1136,-36,-1,-9
3350,80,-1912,-1144,-34,0,-6
3355,96,-1920,-1136,-35,1,-6
3360,88,-1920,-1152,-33,1,-5
3365,112,-1904,-1152,-34,3,-5
3370,112,-1920,-1128,-33,7,-5
3375,96,-1912,-1152,-32,8,-4
3380,96,-1904,-1168,-33,9,-4
3385,104,-1928,-1128,-32,10,-5
3390,88,-1888,-1184,-33,11,-5
3395,96,-1912,-1144,-36,13,-4
3400,120,-1936,-1192,-38,15,-4
3405,96,-1928,-1168,-40,18,-4
3410,80,-1896,-1136,-43,19,-4
3415,104,-1880,-1152,-44,17,-2
3420,104,-1912,-1136,-44,19,-3
3425,96,-1912,-1168,-48,18,-4
3430,88,-1904,-1152,-48,19,-3
3435,112,-1912,-1144,-48,19,0
3440,104,-1920,-1168,-50,20,-2
3445,112,-1920,-1168,-51,18,0
3450,80,-1912,-1176,-53,17,0
3455,96,-1936,-1184,-52,17,-1
3460,96,-1928,-1160,-52,17,-2
3465,88,-1896,-1136,-53,18,-2
3470,96,-1912,-1160,-52,18,-3
3475,88,-1912,-1152,-54,17,-2
3480,96,-1904,-1152,-56,17,-2
3485,88,-1920,-1176,-56,19,0
3490,104,-1904,-1184,-57,20,-2
3495,128,-1904,-1152,-58,20,-2
3500,112,-1920,-1152,-61,21,-2
3505,112,-1888,-1152,-64,21,-4
3510,112,-1888,-1184,-67,22,-3
3515,112,-1896,-1152,-69,22,-4
3520,80,-1888,-1192,-74,20,-4
3525,96,-1896,-1136,-79,20,-4
3530,96,-1896,-1176,-84,20,-3
3535,96,-1904,-1160,-89,20,-4
3540,104,-1920,-1136,-95,21,-4
3545,96,-1936,-1136,-96,23,-3
3550,88,-1944,-1168,-96,24,-4
3555,96,-1936,-1176,-91,27,-3
3560,72,-2024,-1184,-82,29,-2
3565,112,-1912,-1184,-75,28,-4
3570,104,-1928,-1192,-70,28,-5
3575,104,-1920,-1160,-69,30,-4
3580,88,-1864,-1160,-69,29,-4
3585,96,-1904,-1168,-70,28,-2
3590,88,-1912,-1200,-73,27,-3
3595,88,-1896,-1176,-76,27,-1
3600,80,-1920,-1160,-76,27,0
3605,112,-1920,-1184,-76,27,0
3610,80,-1864,-1192,-78,29,0
3615,104,-1912,-1200,-81,31,-1
3620,88,-1896,-1184,-83,34,0
3625,96,-1904,-1168,-84,36,1
3630,96,-1912,-1152,-85,37,2
3635,96,-1888,-1192,-87,35,2
3640,104,-1896,-1200,-90,33,3
3645,96,-1912,-1176,-91,32,3
3650,80,-1912,-1168,-89,30,3
3655,88,-1904,-1184,-90,28,3
3660,88,-1912,-1144,-91,26,2
3665,80,-1944,-1160,-91,24,3
3670,96,-1896,-1184,-89,24,3
3675,96,-1912,-1176,-88,25,3
3680,72,-1904,-1176,-87,26,4
3685,72,-1896,-1168,-87,28,4
3690,72,-1920,-1184,-86,30,4
3695,80,-1928,-1168,-86,30,3
3700,80,-1920,-1168,-86,31,4
3705,96,-1912,-1184,-85,31,3
3710,88,-1888,-1168,-85,29,2
3715,80,-1880,-1200,-84,28,3
3720,88,-1888,-1184,-85,28,4
3725,88,-1896,-1184,-87,28,4
3730,96,-1912,-1216,-91,27,4
3735,80,-1904,-1224,-91,27,3
3740,120,-1920,-1176,-93,25,4
3745,88,-1904,-1200,-94,24,3
3750,88,-1904,-1184,-97,25,3
3755,88,-1912,-1152,-97,24,3
3760,104,-1888,-1208,-97,24,5
3765,80,-1920,-1216,-96,24,4
3770,104,-1904,-1192,-96,25,3
3775,80,-1904,-1200,-95,26,4
3780,80,-1912,-1216,-95,25,4
3785,96,-1896,-1216,-95,27,4
3790,64,-1888,-1224,-96,29,6
3795,72,-1880,-1208,-96,28,7
3800,88,-1864,-1240,-96,29,6
3805,80,-1872,-1200,-96,28,6
3810,88,-1904,-1216,-97,26,6
3815,80,-1904,-1200,-97,25,8
3820,72,-1896,-1216,-97,25,7
3825,96,-1888,-1184,-99,25,7
3830,96,-1896,-1176,-100,27,7
3835,88,-1896,-1192,-101,28,8
3840,104,-1904,-1224,-101,28,8
3845,96,-1904,-1208,-103,27,6
3850,128,-1904,-1184,-104,28,5
3855,80,-1880,-1200,-104,28,5
3860,104,-1896,-1208,-106,28,4
3865,80,-1864,-1216,-107,28,4
3870,96,-1888,-1240,-109,29,2
3875,96,-1904,-1184,-110,28,4
3880,96,-1880,-1208,-110,29,5
3885,80,-1896,-1208,-109,31,4
3890,88,-1904,-1200,-107,31,3
3895,104,-1896,-1232,-109,32,2
3900,112,-1888,-1256,-107,32,2
3905,104,-1888,-1208,-107,33,1
3910,88,-1856,-1232,-106,33,2
3915,104,-1888,-1232,-108,34,3
3920,120,-1904,-1224,-108,33,-1
3925,104,-1888,-1224,-108,33,-1
3930,104,-1888,-1208,-110,32,0
3935,104,-1872,-1224,-110,31,0
3940,96,-1872,-1248,-112,30,0
3945,96,-1880,-1208,-114,31,-1
3950,112,-1856,-1232,-116,29,-2
3955,104,-1848,-1224,-120,29,-3
3960,112,-1872,-1272,-123,28,0
3965,80,-1872,-1232,-126,29,-1
3970,104,-1864,-1232,-128,29,1
3975,80,-1880,-1232,-131,29,0
3980,96,-1872,-1240,-134,28,2
3985,80,-1880,-1248,-134,26,1
3990,80,-1872,-1240,-137,25,2
3995,88,-1904,-1264,-139,23,3
4000,88,-1872,-1240,-139,22,4
4005,88,-1896,-1248,-141,19,3
4010,80,-1880,-1248,-141,19,2
4015,96,-1880,-1224,-141,18,3
4020,80,-1864,-1280,-139,18,2
4025,88,-1864,-1240,-140,18,2
4030,88,-1888,-1272,-142,15,3
4035,80,-1864,-1240,-141,14,4
4040,80,-1840,-1248,-143,13,4
4045,88,-1840,-1272,-144,10,3
4050,112,-1864,-1256,-147,8,3
4055,88,-1848,-1272,-151,7,2
4060,88,-1840,-1272,-154,4,1
4065,88,-1856,-1272,-162,3,-1
4070,64,-1832,-1280,-169,1,-2
4075,88,-1832,-1248,-176,1,-2
4080,80,-1840,-1272,-181,2,-3
4085,80,-1832,-1272,-184,2,-4
4090,72,-1832,-1312,-186,2,-6
4095,120,-1808,-1280,-191,5,-8
4100,112,-1832,-1296,-193,4,-8
4105,104,-1816,-1264,-194,3,-10
4110,112,-1816,-1304,-198,4,-11
4115,96,-1816,-1312,-200,5,-13
4120,88,-1808,-1304,-204,5,-12
4125,112,-1808,-1296,-208,3,-12
4130,96,-1792,-1304,-210,2,-12
4135,88,-1792,-1312,-214,-2,-12
4140,88,-1768,-1336,-218,-6,-14
4145,128,-1768,-1304,-223,-7,-15
4150,120,-1776,-1344,-228,-5,-16
4155,112,-1752,-1328,-234,-3,-18
4160,112,-1776,-1368,-238,-1,-17
4165,112,-1760,-1344,-241,-1,-20
4170,128,-1768,-1360,-246,-2,-22
4175,112,-1768,-1392,-250,-1,-24
4180,120,-1712,-1336,-259,-1,-26
4185,128,-1744,-1344,-267,0,-29
4190,152,-1736,-1336,-273,0,-31
4195,128,-1704,-1352,-281,1,-32
4200,152,-1704,-1336,-288,2,-33
4205,136,-1672,-1384,-296,1,-35
4210,184,-1800,-1392,-300,4,-38
4215,128,-1680,-1376,-308,7,-38
4220,144,-1672,-1408,-315,11,-38
4225,128,-1688,-1400,-324,15,-37
4230,136,-1648,-1400,-335,17,-36
4235,168,-1664,-1424,-342,20,-34
4240,144,-1632,-1408,-351,24,-32
4245,160,-1640,-1432,-355,32,-28
4250,160,-1608,-1424,-361,37,-23
4255,128,-1600,-1408,-365,42,-16
4260,152,-1600,-1440,-373,47,-11
4265,296,-1504,-1312,-380,54,-6
4270,136,-1568,-1416,-392,58,1
4275,144,-1536,-1440,-401,61,10
4280,136,-1520,-1400,-412,61,20
4285,128,-1512,-1432,-428,63,29
4290,152,-1472,-1448,-446,61,41
4295,136,-1448,-1464,-470,57,57
4300,112,-1416,-1472,-496,50,71
4305,104,-1400,-1440,-527,43,83
4310,96,-1376,-1480,-552,36,93
4315,88,-1368,-1480,-577,29,102
4320,96,-1352,-1496,-598,21,113
4325,72,-1320,-1480,-618,15,121
4330,104,-1304,-1512,-638,10,127
4335,88,-1320,-1512,-658,3,133
4340,104,-1280,-1512,-678,0,136
4345,88,-1280,-1512,-703,2,136
4350,104,-1288,-1512,-727,7,136
4355,104,-1288,-1536,-746,11,136
4360,120,-1296,-1528,-764,9,135
4365,120,-1256,-1528,-787,8,136
4370,144,-1296,-1544,-809,10,131
4375,160,-1296,-1520,-834,17,127
4380,160,-1304,-1528,-853,26,125
4385,224,-1280,-1512,-863,38,124
4390,208,-1288,-1520,-866,49,121
4395,192,-1264,-1504,-868,59,117
4400,216,-1264,-1480,-869,71,114
4405,208,-1248,-1448,-867,85,116
4410,224,-1224,-1488,-865,98,120
4415,240,-1232,-1472,-861,113,122
4420,224,-1224,-1480,-861,124,126
4425,216,-1216,-1456,-858,129,132
4430,200,-1184,-1456,-856,132,138
4435,200,-1184,-1472,-853,138,144
4440,224,-1184,-1472,-854,145,152
4445,208,-1176,-1512,-859,151,160
4450,216,-1192,-1488,-868,159,169
4455,232,-1192,-1504,-880,165,178
4460,248,-1240,-1544,-893,173,184
4465,248,-1264,-1544,-903,181,187
4470,216,-1256,-1536,-912,187,191
4475,224,-1288,-1544,-926,191,193
4480,216,-1288,-1552,-943,190,196
4485,184,-1296,-1560,-958,187,201
4490,176,-1320,-1536,-973,182,206
4495,144,-1304,-1544,-986,175,209
4500,120,-1336,-1568,-993,168,217
4505,104,-1288,-1544,-1002,161,224
4510,56,-1248,-1560,-1016,152,235
4515,40,-1232,-1576,-1034,142,245
4520,32,-1232,-1592,-1061,128,253
4525,16,-1216,-1568,-1097,108,265
4530,8,-1208,-1560,-1133,82,280
4535,16,-1216,-1584,-1168,53,291
4540,8,-1200,-1592,-1200,25,300
4545,-8,-1176,-1648,-1233,-1,306
4550,-8,-1184,-1648,-1264,-24,312
4555,-56,-1192,-1632,-1293,-47,316
4560,-24,-1216,-1680,-1317,-77,321
4565,-16,-1192,-1656,-1344,-105,322
4570,0,-1200,-1696,-1369,-128,328
4575,24,-1232,-1696,-1387,-152,331
4580,32,-1232,-1712,-1398,-173,333
4585,32,-1232,-1704,-1402,-194,332
4590,56,-1248,-1720,-1408,-212,327
4595,40,-1240,-1736,-1410,-232,318
4600,56,-1312,-1728,-1413,-257,306
4605,32,-1320,-1720,-1413,-283,294
4610,24,-1360,-1752,-1408,-313,283
4615,8,-1368,-1784,-1402,-349,277
4620,8,-1400,-1784,-1395,-385,272
4625,-16,-1464,-1824,-1391,-427,270
4630,-64,-1472,-1816,-1392,-466,264
4635,-96,-1496,-1832,-1395,-495,254
4640,-80,-1504,-1832,-1398,-517,243
4645,-64,-1480,-1848,-1399,-535,233
4650,-40,-1472,-1912,-1401,-543,226
4655,8,-1496,-1968,-1407,-534,214
4660,-8,-1464,-1968,-1425,-523,195
4665,-8,-1520,-2040,-1441,-513,169
4670,16,-1608,-2008,-1454,-494,130
4675,-8,-1648,-1984,-1460,-461,76
4680,-16,-1672,-2024,-1454,-429,24
4685,32,-1680,-2080,-1435,-395,-8
4690,8,-1616,-2056,-1412,-341,-28
4695,0,-1584,-2040,-1396,-293,-40
4700,-24,-1496,-2040,-1385,-274,-53
4705,0,-1432,-2064,-1382,-281,-58
4710,32,-1360,-2104,-1392,-304,-65
4715,8,-1320,-2080,-1408,-345,-82
4720,-8,-1248,-2056,-1420,-399,-102
4725,8,-1208,-2104,-1421,-453,-124
4730,32,-1248,-2080,-1411,-490,-138
4735,56,-1264,-2048,-1380,-503,-159
4740,56,-1232,-2008,-1329,-509,-183
4745,96,-1232,-2032,-1263,-508,-200
4750,144,-1208,-2000,-1189,-499,-221
4755,160,-1232,-2000,-1116,-479,-242
4760,184,-1184,-1992,-1054,-452,-272
4765,176,-1184,-2000,-1004,-425,-301
4770,136,-1200,-2008,-964,-387,-325
4775,112,-1160,-2024,-929,-349,-340
4780,152,-1192,-2056,-895,-334,-336
4785,80,-1176,-2104,-867,-323,-332
4790,88,-1184,-2120,-840,-313,-323
4795,152,-1152,-2152,-818,-304,-327
4800,152,-1176,-2152,-780,-315,-329
4805,168,-1072,-2304,-740,-326,-341
4810,144,-1152,-2192,-704,-344,-355
4815,208,-1112,-2168,-666,-357,-374
4820,144,-1128,-2136,-621,-375,-388
4825,112,-1096,-2104,-573,-394,-396
4830,88,-1096,-2112,-522,-398,-402
4835,88,-1136,-2104,-473,-399,-402
4840,-1168,-1368,-2344,-426,-390,-399
4845,128,-1176,-2056,-366,-380,-382
4850,128,-1136,-2056,-309,-366,-366
4855,168,-1104,-2048,-261,-354,-351
4860,128,-1096,-2048,-219,-347,-337
4865,232,-1176,-2056,-175,-345,-311
4870,248,-1120,-2112,-138,-352,-286
4875,256,-1088,-2168,-113,-365,-265
4880,272,-1088,-2168,-97,-380,-245
4885,224,-1080,-2216,-83,-405,-229
4890,224,-1096,-2208,-65,-434,-217
4895,448,-1160,-2184,-47,-465,-209
4900,184,-1112,-2160,-29,-496,-206
4905,200,-1136,-2176,-6,-523,-204
4910,136,-1136,-2136,23,-548,-205
4915,112,-1128,-2088,71,-580,-197
4920,112,-1120,-2128,129,-608,-190
4925,104,-1104,-2072,193,-629,-187
4930,120,-1104,-2056,261,-650,-181
4935,136,-1112,-2016,339,-670,-171
4940,128,-1096,-2048,414,-689,-158
4945,152,-1088,-2048,482,-710,-145
4950,160,-1080,-2024,538,-732,-129
4955,152,-1064,-2040,581,-757,-114
4960,176,-1040,-2056,609,-782,-101
4965,128,-1016,-2048,625,-805,-88
4970,152,-1032,-2056,625,-826,-80
4975,112,-1024,-2032,616,-844,-76
4980,160,-1048,-2000,604,-861,-74
4985,112,-1040,-1984,594,-878,-76
4990,128,-1072,-1920,583,-897,-82
4995,120,-1080,-1904,577,-914,-90
5000,104,-1096,-1872,574,-934,-97
5005,64,-1064,-1832,574,-963,-102
5010,48,-1088,-1832,580,-993,-107
5015,24,-1088,-1816,594,-1020,-107
5020,40,-1096,-1792,619,-1044,-106
5025,24,-1104,-1792,657,-1065,-97
5030,40,-1104,-1760,698,-1088,-85
5035,48,-1088,-1736,748,-1116,-74
5040,64,-1072,-1768,794,-1145,-66
5045,72,-1056,-1768,829,-1173,-53
5050,88,-1048,-1744,853,-1197,-36
5055,144,-1048,-1736,864,-1219,-21
5060,112,-1016,-1712,865,-1239,-3
5065,80,-1016,-1696,857,-1262,16
5070,96,-1016,-1688,844,-1283,35
5075,88,-976,-1648,826,-1303,50
5080,40,-1016,-1640,807,-1323,64
5085,-40,-1032,-1608,789,-1341,74
5090,32,-1024,-1600,777,-1351,79
5095,32,-984,-1568,772,-1366,93
5100,16,-1008,-1536,781,-1393,101
5105,-8,-1024,-1536,796,-1416,108
5110,8,-1040,-1528,821,-1442,116
5115,-16,-1048,-1496,855,-1474,124
5120,0,-1056,-1488,893,-1519,136
5125,-8,-1056,-1424,935,-1569,149
5130,-40,-1040,-1384,974,-1621,161
5135,-32,-1032,-1392,1012,-1676,177
5140,-32,-1024,-1368,1047,-1734,194
5145,-56,-1024,-1344,1076,-1795,211
5150,-48,-1016,-1248,1106,-1855,221
5155,-32,-1016,-1176,1131,-1913,234
5160,-72,-1000,-1088,1156,-1964,248
5165,-88,-960,-1016,1177,-2010,264
5170,-56,-968,-936,1188,-2061,281
5175,-40,-944,-864,1185,-2121,295
5180,-80,-928,-800,1178,-2201,307
5185,-64,-976,-672,1175,-2296,322
5190,-48,-992,-616,1177,-2403,331
5195,-72,-992,-560,1188,-2526,338
5200,-72,-1048,-520,1215,-2663,342
5205,-64,-1168,-376,1272,-2803,349
5210,-64,-1288,-296,1390,-2918,357
5215,-8,-1432,-256,1591,-3010,376
5220,-8,-1552,-208,1873,-3081,403
5225,80,-1776,-312,2216,-3120,437
5230,224,-1952,-536,2582,-3049,460
5235,232,-2008,-744,2906,-2896,493
5240,248,-2048,-1072,3167,-2714,539
5245,112,-1928,-1400,3341,-2532,571
5250,136,-1744,-1664,3412,-2393,617
5255,-96,-1240,-1736,3402,-2356,712
5260,-264,-800,-1920,3351,-2457,989
5265,-584,-784,-1984,3350,-2592,1409
5270,-2216,-1240,-1696,3397,-2743,1753
5275,-3808,-1288,-1288,3393,-3008,1885
5280,-4296,-920,-1224,3452,-3302,2054
5285,-4288,-576,-1304,3547,-3454,2399
5290,-4288,-384,-1424,3535,-3469,2798
5295,-4512,-432,-1344,3282,-3375,3099
5300,-4408,-504,-872,2786,-3260,3187
5305,-3272,-688,-920,2276,-3097,3163
5310,-2832,-1016,-576,1940,-2732,3072
5315,-2824,-1192,-312,1808,-2344,2927
5320,-3640,-1192,144,1818,-2012,2845
5325,-4280,-1144,504,1875,-1913,2847
5330,-4296,-1128,528,1904,-2011,2858
5335,-4440,-1136,648,1894,-2122,2836
5340,-4744,-1152,864,1865,-2201,2823
5345,-5184,-1344,1000,1850,-2257,2869
5350,-5336,-1568,888,1837,-2268,2953
5355,-5832,-1624,856,1852,-2209,3089
5360,-6272,-1544,896,1921,-2199,3318
5365,-6704,-1376,1032,2067,-2303,3646
5370,-6552,-1360,1000,2273,-2495,4016
5375,-5088,-1608,384,2321,-2740,4144
5380,-3976,-1680,248,2113,-2799,3874
5385,-3576,-1592,488,1941,-2637,3470
5390,-3848,-1344,904,2005,-2401,3185
5395,-3616,-1160,880,2281,-2239,3091
5400,-2808,-952,528,2575,-2069,3013
5405,-2256,-664,568,2773,-1802,2875
5410,-1912,-512,912,2922,-1532,2722
5415,-1472,-336,824,3095,-1347,2575
5420,-1208,-136,672,3242,-1206,2437
5425,-1496,80,680,3282,-1097,2286
5430,-1864,344,544,3217,-1035,2147
5435,-1960,544,432,3071,-979,2080
5440,-2192,784,360,2850,-889,2074
5445,-2152,936,392,2636,-816,2124
5450,-2336,1024,264,2473,-784,2231
5455,-2432,1024,248,2346,-772,2330
5460,-2480,1000,240,2209,-766,2357
5465,-2216,776,368,2052,-757,2330
5470,-2264,520,584,1911,-750,2273
5475,-2176,336,640,1842,-770,2209
5480,-2168,88,624,1844,-795,2182
5485,-2272,-56,608,1899,-797,2167
5490,-2240,-160,568,1954,-845,2149
5495,-2112,-248,376,1953,-957,2085
5500,-2272,-184,328,1877,-1058,1933
5505,-2336,-96,328,1766,-1145,1790
5510,-2184,-88,368,1655,-1214,1667
5515,-2064,-32,376,1551,-1251,1513
5520,-1904,32,424,1467,-1266,1321
5525,-1736,176,432,1407,-1277,1128
5530,-1544,352,472,1379,-1281,957
5535,-1536,464,488,1358,-1275,807
5540,-1472,608,520,1350,-1258,660
5545,-1568,736,544,1342,-1251,533
5550,-1624,800,584,1350,-1268,448
5555,-1712,904,656,1342,-1264,363
5560,-1576,936,672,1319,-1246,295
5565,-1672,984,768,1264,-1226,247
5570,-1832,1008,920,1179,-1204,204
5575,-1752,968,928,1078,-1206,147
5580,-1504,1016,888,967,-1234,85
5585,-1288,1048,856,856,-1256,39
5590,-1168,1080,808,755,-1262,-2
5595,-1056,1120,856,668,-1261,-35
5600,-976,1160,824,609,-1254,-62
5605,-912,1192,800,571,-1239,-80
5610,-872,1192,816,539,-1225,-96
5615,-808,1192,776,508,-1213,-116
5620,-784,1224,752,474,-1187,-141
5625,-672,1208,704,443,-1138,-161
5630,-592,1168,624,423,-1062,-176
5635,-568,1136,560,421,-962,-194
5640,-528,1096,512,425,-860,-223
5645,-584,1080,536,421,-764,-263
5650,-640,1120,528,417,-674,-304
5655,-616,1192,520,420,-580,-337
5660,-576,1248,528,422,-473,-361
5665,-584,1304,536,416,-361,-379
5670,-608,1352,600,401,-255,-386
5675,-648,1408,632,371,-173,-404
5680,-672,1440,648,324,-111,-421
5685,-776,1440,656,267,-72,-435
5690,-800,1472,600,199,-55,-453
5695,-864,1416,576,133,-40,-464
5700,-920,1352,536,75,-36,-472
5705,-912,1312,544,35,-39,-482
5710,-888,1272,520,9,-37,-500
5715,-944,1232,528,-3,-27,-525
5720,-960,1216,536,-14,-23,-562
5725,-944,1192,512,-27,-17,-598
5730,-896,1208,504,-44,-5,-634
5735,-896,1208,504,-63,13,-670
5740,-920,1200,536,-84,41,-701
5745,-960,1192,560,-100,67,-725
5750,-960,1216,536,-113,84,-741
5755,-912,1160,560,-121,94,-749
5760,-888,1152,504,-121,113,-748
5765,-976,1096,552,-116,155,-734
5770,-1200,1024,616,-120,211,-726
5775,-1328,888,776,-147,250,-734
5780,-1432,800,800,-180,274,-740
5785,-1472,704,848,-213,284,-739
5790,-1424,656,816,-246,278,-738
5795,-1400,592,736,-284,292,-736
5800,-1464,576,744,-324,344,-730
5805,-1528,536,800,-353,406,-722
5810,-1576,520,800,-361,454,-716
5815,-1680,520,800,-349,470,-709
5820,-1680,512,768,-339,451,-702
5825,-1648,480,760,-334,416,-703
5830,-1672,488,752,-335,392,-712
5835,-1688,472,784,-333,386,-718
5840,-1696,456,864,-322,391,-720
5845,-1664,440,848,-303,408,-722
5850,-1616,400,888,-278,430,-725
5855,-1592,384,888,-257,448,-734
5860,-1600,400,888,-242,454,-742
5865,-1600,392,912,-243,445,-748
5870,-1608,392,896,-259,422,-754
5875,-1616,416,912,-286,399,-761
5880,-1600,368,928,-313,384,-764
5885,-1584,320,912,-341,377,-765
5890,-1552,264,920,-365,380,-769
5895,-1568,216,968,-389,398,-782
5900,-1592,128,968,-401,421,-791
5905,-1544,80,952,-408,446,-793
5910,-1584,48,992,-403,483,-788
5915,-1584,24,952,-383,525,-778
5920,-1616,40,984,-359,571,-762
5925,-1648,40,936,-328,616,-739
5930,-1800,40,952,-299,656,-709
5935,-1960,72,960,-273,675,-668
5940,-2056,64,984,-252,664,-620
5945,-2080,56,936,-239,640,-582
5950,-2072,64,904,-236,614,-558
5955,-2016,104,872,-241,592,-542
5960,-2056,120,816,-247,584,-539
5965,-1848,64,776,-249,594,-527
5970,-1728,16,696,-249,616,-554
5975,-1664,-8,648,-241,667,-607
5980,-1616,-64,608,-212,742,-660
5985,-1480,-16,568,-167,835,-703
5990,-1560,-80,512,-101,941,-709
5995,-1592,-136,488,-58,1001,-742
6000,-1736,-152,504,-49,1006,-806
6005,-1736,-144,488,-58,954,-859
6010,-1832,-128,448,-74,876,-885
6015,-1888,-88,392,-87,802,-868
6020,-1984,-96,352,-102,746,-821
6025,-2040,-136,336,-115,696,-746
6030,-2056,-160,280,-121,645,-656
6035,-2096,-192,240,-123,602,-556
6040,-2032,-248,240,-127,565,-457
6045,-2080,-384,232,-131,527,-380
6050,-2040,-496,200,-153,480,-333
6055,-2008,-512,200,-185,434,-308
6060,-2024,-504,208,-199,395,-285
6065,-2048,-504,200,-182,357,-263
6070,-2048,-440,184,-141,316,-230
6075,-2056,-384,208,-102,283,-211
6080,-2064,-320,192,-70,246,-210
6085,-2040,-296,200,-55,212,-223
6090,-2040,-256,176,-54,195,-230
6095,-2048,-256,168,-69,186,-219
6100,-2064,-280,224,-94,173,-199
6105,-2016,-312,216,-117,153,-176
6110,-1968,-368,200,-140,130,-152
6115,-1920,-448,216,-162,104,-123
6120,-1840,-504,256,-184,69,-88
6125,-1824,-544,304,-180,29,-54
6130,-1840,-536,296,-153,1,-27
6135,-1840,-544,248,-111,-29,-8
6140,-1880,-528,224,-68,-58,7
6145,-1896,-456,216,-28,-76,13
6150,-1920,-416,208,12,-89,14
6155,-1912,-376,152,48,-94,8
6160,-1896,-272,152,80,-96,-3
6165,-1896,-208,120,107,-94,-11
6170,-1896,-136,128,124,-94,-21
6175,-1904,-96,136,131,-103,-37
6180,-1928,-48,120,129,-125,-53
6185,-1928,-56,104,119,-159,-64
6190,-1928,-16,160,99,-199,-66
6195,-1944,-32,144,74,-244,-58
6200,-1912,-40,184,42,-288,-46
6205,-1880,-80,160,12,-329,-31
6210,-1888,-56,216,-20,-367,-16
6215,-1856,-48,224,-49,-402,-3
6220,-1840,-104,240,-71,-431,7
6225,-1808,-104,304,-86,-457,15
6230,-1808,-128,288,-94,-483,19
6235,-1760,-128,296,-98,-505,21
6240,-1728,-136,320,-94,-525,23
6245,-1704,-136,360,-87,-540,27
6250,-1680,-144,416,-84,-558,33
6255,-1680,-144,432,-80,-575,39
6260,-1688,-152,424,-77,-588,44
6265,-1640,-160,432,-80,-595,61
6270,-1632,-144,464,-80,-607,70
6275,-1640,-96,472,-80,-616,75
6280,-1672,-80,496,-81,-623,83
6285,-1696,-56,504,-85,-624,93
6290,-1696,-8,536,-94,-624,106
6295,-1688,-8,544,-105,-620,118
6300,-1712,24,544,-118,-616,129
6305,-1712,0,608,-136,-611,139
6310,-1736,8,608,-153,-605,151
6315,-1712,16,608,-170,-600,161
6320,-1712,16,616,-183,-598,166
6325,-1712,0,640,-196,-595,167
6330,-1736,-16,664,-205,-593,168
6335,-1712,-8,672,-212,-593,169
6340,-1688,-16,704,-212,-592,164
6345,-1712,-48,712,-208,-590,158
6350,-1672,-56,704,-201,-587,150
6355,-1688,-56,720,-189,-584,141
6360,-1680,-56,752,-172,-579,131
6365,-1672,-64,728,-150,-570,119
6370,-1648,-88,760,-120,-565,100
6375,-1600,-64,760,-85,-559,76
6380,-1600,-88,760,-52,-550,48
6385,-1584,-64,768,-20,-540,15
6390,-1600,-16,824,10,-527,-12
6395,-1600,0,808,37,-513,-38
6400,-1568,0,840,58,-497,-60
6405,-1560,24,832,72,-480,-79
6410,-1552,40,816,78,-464,-96
6415,-1544,48,832,76,-446,-109
6420,-1544,72,864,69,-430,-118
6425,-1552,80,832,57,-414,-125
6430,-1536,72,888,42,-403,-131
6435,-1544,56,896,24,-392,-135
6440,-1536,80,896,4,-381,-139
6445,-1536,40,896,-13,-371,-141
6450,-1528,32,912,-30,-360,-144
6455,-1528,40,880,-40,-349,-148
6460,-1512,0,896,-48,-336,-151
6465,-1536,8,912,-53,-324,-155
6470,-1536,0,880,-57,-311,-157
6475,-1536,0,936,-58,-298,-159
6480,-1544,-24,888,-59,-284,-158
6485,-1536,-32,888,-62,-269,-159
6490,-1544,-40,880,-60,-255,-156
6495,-1560,-64,880,-57,-238,-156
6500,-1560,-40,856,-57,-221,-154
6505,-1568,-48,856,-61,-205,-153
6510,-1560,-48,872,-66,-190,-150
6515,-1552,-64,896,-70,-176,-147
6520,-1552,-48,872,-79,-163,-144
6525,-1560,-64,880,-88,-151,-141
6530,-1560,-56,864,-95,-140,-138
6535,-1576,-56,888,-101,-130,-133
6540,-1568,-56,864,-107,-120,-131
6545,-1544,-56,880,-115,-111,-129
6550,-1544,-96,880,-120,-104,-127
6555,-1552,-72,896,-128,-94,-122
6560,-1552,-72,872,-136,-84,-118
6565,-1544,-88,880,-147,-77,-114
6570,-1552,-128,872,-157,-70,-111
6575,-1568,-112,864,-164,-65,-109
6580,-1480,-120,832,-167,-55,-105
6585,-1544,-168,856,-170,-48,-100
6590,-1544,-152,824,-173,-41,-94
6595,-1560,-152,832,-175,-31,-90
6600,-1520,-160,832,-176,-23,-87
6605,-1544,-176,856,-177,-17,-81
6610,-1536,-192,824,-171,-14,-78
6615,-1552,-200,800,-166,-8,-75
6620,-1520,-192,816,-154,-4,-73
6625,-1536,-192,808,-146,0,-69
6630,-1560,-200,808,-138,2,-70
6635,-1568,-232,896,-134,0,-68
6640,-1536,-200,832,-129,2,-64
6645,-1536,-208,816,-120,6,-59
6650,-1536,-200,816,-112,11,-55
6655,-1544,-184,832,-106,17,-54
6660,-1536,-176,808,-103,18,-54
6665,-1552,-216,856,-100,21,-53
6670,-1552,-200,816,-97,24,-53
6675,-1544,-192,792,-94,26,-49
6680,-1560,-192,800,-94,28,-47
6685,-1544,-184,816,-92,31,-42
6690,-1544,-192,808,-91,33,-37
6695,-1544,-176,816,-91,36,-36
6700,-1576,-176,816,-93,37,-33
6705,-1552,-176,840,-95,37,-29
6710,-1544,-176,776,-95,39,-24
6715,-1544,-200,768,-91,40,-17
6720,-1576,-192,792,-88,43,-13
6725,-1576,-192,776,-86,43,-9
6730,-1592,-184,808,-83,39,-6
6735,-1616,-176,800,-79,33,-3
6740,-1600,-192,768,-72,29,-5
6745,-1600,-176,776,-65,26,-5
6750,-1592,-184,808,-58,22,-3
6755,-1608,-144,800,-55,17,-1
6760,-1560,-160,800,-52,14,0
6765,-1568,-128,776,-47,14,-2
6770,-1568,-144,776,-44,15,-1
6775,-1600,-160,776,-43,13,-3
6780,-1608,-144,808,-42,5,-6
6785,-1624,-144,800,-42,-2,-6
6790,-1592,-152,832,-43,-10,-5
6795,-1608,-136,792,-46,-14,-6
6800,-1608,-120,784,-51,-18,-4
6805,-1584,-136,800,-57,-20,-4
6810,-1592,-120,776,-60,-18,-3
6815,-1576,-136,784,-64,-16,-4
6820,-1552,-168,768,-69,-17,-3
6825,-1568,-136,752,-72,-18,-3
6830,-1600,-160,808,-73,-23,-5
6835,-1584,-152,792,-74,-30,-5
6840,-1576,-136,800,-73,-35,-4
6845,-1592,-168,800,-69,-38,-3
6850,-1592,-168,792,-64,-41,-2
6855,-1584,-160,800,-63,-44,-2
6860,-1576,-136,768,-62,-46,-2
6865,-1568,-152,800,-58,-46,-1
6870,-1584,-152,784,-55,-46,-1
6875,-1560,-160,800,-48,-48,0
6880,-1552,-176,792,-46,-48,-1
6885,-1552,-144,816,-41,-48,-2
6890,-1560,-176,832,-38,-50,-2
6895,-1560,-184,800,-33,-52,-1
6900,-1560,-168,808,-31,-53,-3
6905,-1552,-144,808,-25,-55,-3
6910,-1544,-152,816,-25,-57,-2
6915,-1560,-128,832,-22,-59,-3
6920,-1568,-120,824,-22,-63,-4
6925,-1552,-136,824,-23,-66,-5
6930,-1552,-136,808,-22,-68,-5
6935,-1560,-112,840,-25,-70,-8
6940,-1544,-128,824,-28,-69,-9
6945,-1576,-128,792,-31,-67,-10
6950,-1560,-120,848,-35,-67,-10
6955,-1568,-144,832,-39,-64,-12
6960,-1560,-168,840,-41,-63,-13
6965,-1552,-160,848,-43,-60,-14
6970,-1552,-144,832,-45,-58,-16
6975,-1584,-152,808,-45,-54,-16
6980,-1584,-144,840,-43,-51,-15
6985,-1584,-168,824,-39,-48,-16
6990,-1592,-160,824,-37,-47,-15
6995,-1584,-144,872,-33,-45,-18
7000,-1584,-144,856,-33,-46,-18
7005,-1568,-120,864,-31,-49,-18
7010,-1544,-144,832,-33,-51,-17
7015,-1560,-128,864,-33,-53,-16
7020,-1552,-144,856,-33,-55,-16
7025,-1552,-136,848,-36,-60,-16
7030,-1560,-128,848,-41,-61,-15
7035,-1544,-112,888,-41,-62,-14
7040,-1544,-136,880,-42,-64,-17
7045,-1552,-128,864,-45,-63,-16
7050,-1552,-144,848,-47,-61,-17
7055,-1544,-112,824,-45,-58,-18
7060,-1544,-144,872,-43,-54,-17
7065,-1520,-136,888,-46,-50,-18
7070,-1536,-112,872,-48,-46,-18
7075,-1536,-120,864,-49,-43,-17
7080,-1528,-160,856,-50,-42,-18
7085,-1584,-168,856,-52,-39,-19
7090,-1544,-136,888,-51,-39,-18
7095,-1560,-152,904,-53,-41,-18
7100,-1536,-168,880,-55,-42,-20
7105,-1536,-152,864,-55,-38,-21
7110,-1552,-128,872,-53,-32,-20
7115,-1552,-152,856,-53,-28,-20
7120,-1536,-120,872,-55,-23,-22
7125,-1528,-160,864,-55,-19,-23
7130,-1528,-160,872,-54,-16,-24
7135,-1544,-160,832,-53,-12,-22
7140,-1544,-160,872,-52,-12,-22
7145,-1552,-152,872,-53,-10,-20
7150,-1552,-144,864,-56,-11,-22
7155,-1520,-152,880,-60,-11,-23
7160,-1512,-128,872,-61,-7,-22
7165,-1520,-144,848,-56,-1,-18
7170,-1528,-168,840,-54,5,-17
7175,-1552,-152,880,-53,9,-16
7180,-1688,-304,952,-59,8,-17
7185,-1568,-152,896,-64,2,-18
7190,-1544,-144,864,-68,-3,-19
7195,-1536,-152,856,-71,-5,-19
7200,-1536,-152,856,-72,-4,-18
7205,-1528,-152,880,-70,1,-18
7210,-1512,-168,856,-70,6,-16
7215,-1536,-152,840,-74,9,-17
7220,-1536,-168,840,-81,9,-18
7225,-1544,-160,840,-86,7,-19
7230,-1536,-176,864,-89,2,-18
7235,-1568,-152,872,-89,-1,-18
7240,-1544,-176,864,-87,-4,-16
7245,-1528,-160,872,-88,-4,-15
7250,-1536,-184,872,-86,-2,-17
7255,-1544,-160,856,-82,0,-17
7260,-1536,-144,856,-81,1,-18
7265,-1528,-160,800,-80,4,-19
7270,-1536,-176,856,-81,6,-17
7275,-1536,-184,840,-79,8,-17
7280,-1536,-192,840,-76,6,-16
7285,-1544,-176,848,-73,5,-16
7290,-1560,-160,848,-71,0,-17
7295,-1560,-192,848,-70,-5,-16
7300,-1560,-160,864,-72,-10,-18
7305,-1536,-168,856,-68,-12,-17
7310,-1536,-136,864,-63,-9,-11
7315,-1520,-184,824,-57,-4,-9
7320,-1552,-160,824,-59,0,-10
7325,-1552,-192,848,-62,0,-12
7330,-1552,-184,840,-67,-2,-13
7335,-1552,-160,912,-69,-6,-14
7340,-1560,-160,872,-69,-9,-14
7345,-1536,-152,872,-65,-11,-13
7350,-1536,-160,840,-66,-12,-11
7355,-1536,-160,872,-68,-11,-10
7360,-1520,-168,840,-72,-11,-11
7365,-1512,-152,856,-72,-10,-11
7370,-1544,-152,864,-73,-10,-9
7375,-1528,-152,848,-76,-10,-9
7380,-1536,-192,848,-77,-11,-12
7385,-1544,-184,880,-77,-12,-11
7390,-1544,-160,896,-77,-15,-9
7395,-1544,-152,840,-75,-16,-9
7400,-1536,-168,864,-73,-16,-8
7405,-1536,-168,816,-74,-15,-10
7410,-1544,-152,872,-75,-15,-11
7415,-1528,-160,864,-75,-14,-10
7420,-1544,-176,856,-78,-15,-9
7425,-1528,-160,888,-80,-15,-10
7430,-1528,-176,872,-79,-10,-9
7435,-1536,-168,856,-75,-10,-9
7440,-1536,-200,864,-75,-11,-10
7445,-1536,-176,856,-78,-12,-12
7450,-1536,-160,896,-79,-15,-12
7455,-1536,-192,880,-76,-15,-13
7460,-1536,-176,856,-74,-14,-11
7465,-1520,-168,896,-70,-12,-10
7470,-1528,-168,888,-70,-10,-9
7475,-1536,-160,856,-71,-7,-12
7480,-1536,-184,880,-76,-5,-13
7485,-1528,-168,896,-76,-4,-14
7490,-1512,-184,864,-78,-3,-13
7495,-1528,-144,872,-77,-1,-14
7500,-1520,-152,856,-78,-1,-15
7505,-1528,-184,896,-76,3,-15
7510,-1528,-184,880,-75,4,-13
7515,-1512,-200,896,-74,3,-13
7520,-1536,-184,920,-78,0,-13
7525,-1552,-168,912,-79,1,-11
7530,-1536,-184,880,-79,-1,-11
7535,-1528,-152,888,-76,-2,-10
7540,-1504,-200,880,-74,-1,-8
7545,-1536,-184,888,-74,-1,-9
7550,-1544,-176,856,-74,1,-9
7555,-1520,-192,872,-76,2,-11
7560,-1528,-160,880,-79,4,-10
7565,-1528,-176,920,-77,5,-8
7570,-1528,-176,856,-76,7,-9
7575,-1520,-168,888,-76,9,-9
7580,-1552,-192,872,-77,7,-10
7585,-1544,-208,888,-80,5,-10
7590,-1528,-184,888,-79,6,-9
7595,-1520,-176,880,-78,7,-9
7600,-1520,-176,888,-78,7,-9
7605,-1520,-208,864,-75,9,-8
7610,-1520,-200,880,-77,10,-8
7615,-1528,-184,872,-76,10,-7
7620,-1520,-184,928,-75,11,-8
7625,-1536,-208,872,-73,13,-8
7630,-1528,-208,888,-70,16,-7
7635,-1512,-152,896,-67,18,-7
7640,-1512,-160,872,-65,20,-6
7645,-1520,-216,896,-64,21,-4
7650,-1536,-192,856,-65,23,-5
7655,-1520,-200,880,-62,22,-5
7660,-1520,-192,848,-61,21,-3
7665,-1544,-176,872,-58,18,-4
7670,-1528,-176,848,-56,17,-3
7675,-1528,-192,880,-56,15,-5
7680,-1536,-168,872,-55,14,-6
7685,-1520,-184,896,-56,15,-6
7690,-1520,-176,856,-58,15,-7
7695,-1520,-208,872,-61,16,-6
7700,-1504,-176,864,-60,19,-7
7705,-1520,-224,864,-62,21,-7
7710,-1520,-216,864,-60,22,-8
7715,-1528,-224,856,-58,21,-7
7720,-1520,-224,872,-57,22,-8
7725,-1536,-224,848,-53,22,-8
7730,-1536,-216,840,-48,23,-7
7735,-1544,-200,816,-38,25,-6
7740,-1520,-200,856,-29,24,-5
7745,-1544,-184,872,-24,24,-4
7750,-1520,-168,848,-19,23,-6
7755,-1512,-208,864,-20,17,-5
7760,-1536,-184,896,-21,15,-5
7765,-1544,-192,880,-20,13,-4
7770,-1520,-176,872,-22,9,-4
7775,-1536,-168,880,-25,7,-3
7780,-1616,-88,816,-28,4,-3
7785,-1528,-184,872,-34,2,-3
7790,-1528,-136,872,-38,1,-3
7795,-1528,-160,896,-43,1,-2
7800,-1512,-176,856,-47,4,-2
7805,-1528,-176,872,-50,4,-1
7810,-1544,-160,880,-52,5,-3
7815,-1544,-184,880,-54,5,-4
7820,-1536,-160,896,-55,4,-5
7825,-1544,-184,840,-53,5,-6
7830,-1544,-192,848,-52,8,-7
7835,-1608,-136,840,-52,8,-7
7840,-1536,-184,848,-54,9,-8
7845,-1536,-168,864,-51,8,-9
7850,-1544,-184,840,-48,8,-8
7855,-1544,-176,888,-45,8,-10
7860,-1512,-168,880,-43,9,-10
7865,-1536,-184,872,-40,7,-12
7870,-1536,-176,888,-38,5,-12
7875,-1528,-176,872,-37,6,-13
7880,-1528,-184,912,-36,4,-14
7885,-1528,-184,864,-39,3,-13
7890,-1520,-192,888,-39,3,-13
7895,-1528,-184,856,-40,2,-13
7900,-1528,-200,872,-42,1,-13
7905,-1536,-184,824,-43,2,-13
7910,-1520,-192,872,-44,1,-13
7915,-1512,-168,848,-44,1,-14
7920,-1528,-176,896,-42,0,-11
7925,-1528,-200,864,-42,-1,-11
7930,-1520,-200,864,-41,0,-11
7935,-1520,-192,864,-40,-2,-13
7940,-1512,-192,872,-39,-3,-13
7945,-1528,-184,888,-38,-3,-14
7950,-1544,-200,880,-38,-4,-13
7955,-1520,-216,864,-38,-5,-13
7960,-1528,-168,872,-39,-6,-12
7965,-1520,-168,864,-37,-5,-12
7970,-1528,-208,848,-36,-5,-13
7975,-1496,-192,872,-38,-4,-13
7980,-1544,-168,880,-38,-5,-15
7985,-1552,-192,880,-40,-6,-12
7990,-1528,-184,880,-40,-5,-15
7995,-1520,-208,872,-40,-2,-20
8000,-1528,-160,904,-38,-2,-18
8005,-1552,-176,880,-38,-1,-13
8010,-1528,-176,864,-41,0,-11
8015,-1520,-208,888,-44,0,-11
8020,-1504,-184,880,-44,1,-11
8025,-1536,-208,888,-43,0,-11
8030,-1528,-200,856,-41,0,-9
8035,-1536,-184,872,-38,0,-11
8040,-1520,-200,904,-33,-1,-11
8045,-1528,-192,888,-31,-2,-11
8050,-1520,-184,888,-26,-3,-10
8055,-1528,-176,872,-22,-4,-11
8060,-1512,-184,880,-19,-5,-11
8065,-1528,-168,896,-18,-6,-10
8070,-1520,-200,864,-15,-6,-11
8075,-1512,-184,872,-14,-7,-12
8080,-1520,-184,832,-16,-7,-12
8085,-1520,-192,896,-15,-8,-13
8090,-1520,-168,896,-18,-8,-14
8095,-1536,-176,912,-20,-9,-15
8100,-1536,-152,904,-22,-11,-14
8105,-1512,-184,880,-25,-11,-14
8110,-1528,-184,912,-29,-12,-14
8115,-1544,-200,872,-29,-12,-13
8120,-1512,-192,872,-26,-14,-14
8125,-1520,-192,896,-26,-12,-14
8130,-1520,-200,896,-24,-11,-15
8135,-1528,-216,888,-22,-10,-16
8140,-1528,-184,912,-22,-9,-16
8145,-1512,-216,880,-21,-7,-16
8150,-1512,-184,888,-18,-7,-15
8155,-1528,-184,880,-17,-6,-15
8160,-1528,-192,872,-18,-5,-14
8165,-1520,-176,944,-19,-4,-15
8170,-1512,-168,904,-21,-4,-13
8175,-1504,-192,912,-21,-5,-16
8180,-1528,-184,880,-23,-4,-16
8185,-1472,-192,856,-22,-3,-15
8190,-1528,-192,872,-23,-3,-16
8195,-1512,-192,912,-23,-3,-15
8200,-1512,-208,864,-24,-5,-15
8205,-1520,-200,880,-25,-5,-16
8210,-1528,-192,904,-26,-9,-16
8215,-1504,-184,896,-25,-10,-15
8220,-1528,-168,880,-28,-10,-14
8225,-1528,-184,896,-30,-9,-13
8230,-1528,-176,888,-35,-9,-14
8235,-1512,-168,872,-38,-7,-16
8240,-1488,-184,880,-40,-7,-16
8245,-1520,-176,872,-38,-5,-15
8250,-1496,-192,920,-37,-3,-15
8255,-1528,-192,928,-40,-3,-17
8260,-1528,-184,904,-39,-4,-18
8265,-1528,-200,920,-40,-5,-16
8270,-1496,-208,864,-38,-8,-15
8275,-1512,-192,904,-37,-8,-12
8280,-1536,-176,904,-40,-5,-10
8285,-1520,-192,920,-42,-4,-11
8290,-1512,-184,928,-41,-4,-16
8295,-1512,-192,888,-39,-2,-17
8300,-1488,-192,872,-41,-3,-19
8305,-1512,-184,896,-42,-3,-16
8310,-1512,-160,864,-43,-3,-16
8315,-1504,-176,920,-46,-3,-15
8320,-1520,-184,920,-47,-3,-15
8325,-1528,-176,912,-47,-4,-14
8330,-1496,-184,912,-50,-3,-15
8335,-1496,-192,904,-50,-4,-13
8340,-1480,-192,928,-51,-5,-13
8345,-1504,-184,896,-50,-5,-12
8350,-1520,-176,904,-49,-4,-13
8355,-1512,-168,904,-52,-4,-13
8360,-1528,-176,880,-52,-3,-13
8365,-1520,-176,888,-51,-1,-13
8370,-1520,-176,920,-50,0,-12
8375,-1512,-192,912,-52,1,-12
8380,-1536,-136,808,-50,1,-12
8385,-1520,-216,912,-48,3,-12
8390,-1520,-168,904,-46,3,-11
8395,-1512,-184,896,-47,3,-10
8400,-1536,-176,896,-44,4,-11
8405,-1512,-192,880,-43,4,-11
8410,-1496,-184,920,-42,5,-12
8415,-1504,-216,904,-41,5,-11
8420,-1512,-184,904,-42,4,-10
8425,-1528,-192,912,-40,3,-10
8430,-1520,-200,880,-37,1,-10
8435,-1528,-208,824,-36,0,-10
8440,-1504,-200,896,-32,0,-9
8445,-1488,-176,912,-30,-2,-9
8450,-1512,-168,896,-28,-4,-11
8455,-1520,-176,904,-28,-4,-12
8460,-1504,-184,912,-27,-4,-12
8465,-1496,-200,888,-31,-2,-12
8470,-1512,-200,864,-30,0,-13
8475,-1520,-184,912,-33,2,-16
8480,-1504,-176,912,-36,5,-16
8485,-1496,-192,912,-35,6,-17
8490,-1496,-200,920,-33,8,-16
8495,-1512,-200,952,-33,8,-16
8500,-1520,-200,864,-30,13,-16
8505,-1528,-184,888,-25,15,-15
8510,-1536,-208,888,-20,17,-15
8515,-1496,-200,896,-17,17,-15
8520,-1520,-200,880,-12,17,-14
8525,-1576,-184,872,-7,17,-11
8530,-1512,-184,904,-10,25,-3
8535,-1496,-192,912,-9,30,-10
8540,-1512,-184,936,-2,21,-13
8545,-1512,-168,896,3,10,-13
8550,-1512,-168,928,5,0,-13
8555,-1528,-168,904,6,-7,-10
8560,-1488,-176,936,5,-10,-9
8565,-1512,-168,920,2,-12,-9
8570,-1496,-176,936,-3,-12,-8
8575,-1496,-168,904,-7,-12,-9
8580,-1496,-192,920,-12,-10,-9
8585,-1496,-208,904,-17,-7,-9
8590,-1512,-184,896,-20,-5,-8
8595,-1512,-168,912,-23,-3,-9
8600,-1496,-168,928,-27,0,-12
8605,-1488,-176,936,-29,2,-12
8610,-1512,-200,920,-29,-1,-11
8615,-1480,-168,904,-31,0,-11
8620,-1488,-176,904,-28,-1,-13
8625,-1536,-176,904,-29,-2,-12
8630,-1528,-176,880,-28,-2,-13
8635,-1496,-192,920,-26,-1,-13
8640,-1488,-176,896,-23,-1,-14
8645,-1512,-192,944,-21,0,-14
8650,-1520,-168,920,-20,1,-15
8655,-1520,-160,928,-19,0,-15
8660,-1528,-184,896,-19,-2,-15
8665,-1520,-168,904,-22,-3,-15
8670,-1496,-168,912,-23,-2,-14
8675,-1520,-160,888,-23,0,-13
8680,-1520,-176,936,-27,0,-12
8685,-1528,-152,912,-29,1,-13
8690,-1504,-192,896,-32,1,-13
8695,-1496,-176,928,-35,1,-13
8700,-1512,-176,904,-36,0,-12
8705,-1504,-176,888,-38,3,-13
8710,-1480,-184,920,-38,2,-13
8715,-1536,-168,912,-35,2,-12
8720,-1504,-200,936,-36,-1,-13
8725,-1520,-176,920,-35,1,-12
8730,-1504,-160,952,-35,1,-11
8735,-1512,-184,904,-35,1,-13
8740,-1496,-192,928,-35,0,-11
8745,-1520,-168,920,-38,2,-11
8750,-1512,-192,944,-38,1,-11
8755,-1488,-184,912,-41,0,-10
8760,-1520,-176,912,-43,-1,-10
8765,-1512,-176,896,-45,0,-9
8770,-1480,-192,944,-48,0,-10
8775,-1496,-192,920,-51,0,-10
8780,-1504,-200,912,-50,2,-10
8785,-1504,-184,920,-50,2,-10
8790,-1496,-208,928,-50,2,-8
8795,-1496,-192,920,-49,2,-9
8800,-1512,-192,912,-47,3,-8
8805,-1496,-176,952,-45,4,-8
8810,-1504,-208,912,-42,2,-8
8815,-1488,-208,920,-41,4,-8
8820,-1504,-176,944,-39,4,-9
8825,-1464,-208,936,-37,4,-9
8830,-1512,-200,936,-34,5,-9
8835,-1496,-216,904,-34,6,-9
8840,-1512,-184,912,-34,6,-8
8845,-1488,-192,912,-33,6,-8
8850,-1504,-168,904,-33,7,-8
8855,-1480,-176,936,-33,7,-7
8860,-1488,-184,928,-34,8,-6
8865,-1504,-176,920,-36,8,-8
8870,-1512,-176,936,-38,7,-6
8875,-1520,-184,936,-40,8,-7
8880,-1504,-184,896,-42,6,-7
8885,-1512,-200,920,-42,5,-7
8890,-1512,-192,928,-42,3,-6
8895,-1512,-184,960,-44,4,-6
8900,-1488,-168,888,-44,4,-6
8905,-1536,-168,920,-43,5,-7
8910,-1504,-176,920,-42,6,-8
8915,-1480,-176,904,-43,6,-7
8920,-1496,-152,920,-42,7,-6
8925,-1512,-192,912,-41,7,-8
8930,-1488,-200,912,-41,7,-8
8935,-1504,-168,912,-41,7,-8
8940,-1512,-200,936,-40,9,-8
8945,-1496,-160,920,-38,9,-8
8950,-1520,-176,944,-39,9,-7
8955,-1480,-176,936,-41,7,-7
8960,-1504,-176,928,-44,8,-7
8965,-1512,-160,880,-49,8,-5
8970,-1536,-160,888,-54,8,-1
8975,-1488,-184,888,-59,18,6
8980,-1560,-104,936,-59,28,-5
8985,-1480,-176,920,-49,31,-9
8990,-1456,-192,920,-46,21,-9
8995,-1504,-176,928,-44,15,-9
9000,-1512,-184,928,-45,10,-9
9005,-1488,-160,904,-45,6,-9
9010,-1496,-176,920,-45,6,-7
9015,-1496,-184,904,-46,7,-5
9020,-1512,-208,944,-47,7,-6
9025,-1504,-184,952,-47,8,-8
9030,-1504,-160,936,-48,9,-8
9035,-1440,-192,912,-49,7,-8
9040,-1512,-168,880,-47,9,-8
9045,-1512,-200,928,-48,9,-7
9050,-1488,-184,936,-45,9,-8
9055,-1488,-184,912,-46,8,-8
9060,-1528,-176,944,-48,8,-7
9065,-1496,-208,896,-48,10,-8
9070,-1512,-168,928,-49,10,-8
9075,-1512,-192,904,-49,10,-7
9080,-1512,-200,896,-52,9,-7
9085,-1504,-176,912,-53,10,-6
9090,-1472,-208,944,-53,10,-6
9095,-1504,-168,912,-52,9,-7
9100,-1496,-192,904,-51,9,-6
9105,-1512,-144,928,-50,10,-5
9110,-1512,-160,928,-51,10,-7
9115,-1512,-176,928,-50,8,-8
9120,-1464,-184,912,-51,8,-8
9125,-1504,-152,904,-51,7,-6
9130,-1488,-192,912,-50,8,-5
9135,-1504,-200,920,-50,8,-6
9140,-1496,-176,952,-51,10,-7
9145,-1496,-168,912,-50,10,-6
9150,-1496,-200,920,-51,9,-6
9155,-1472,-208,920,-49,9,-6
9160,-1496,-200,888,-50,10,-8
9165,-1496,-208,912,-49,9,-5
9170,-1496,-176,920,-49,10,-6
9175,-1512,-184,904,-49,12,-5
9180,-1488,-176,928,-52,14,-6
9185,-1512,-168,920,-53,16,-6
9190,-1496,-184,944,-54,19,-6
9195,-1496,-192,960,-53,18,-6
9200,-1504,-200,928,-52,19,-4
9205,-1512,-200,936,-43,18,-5
9210,-1504,-176,928,-40,20,-6
9215,-1488,-176,928,-36,18,-7
9220,-1496,-176,920,-36,16,-7
9225,-1488,-160,920,-38,16,-7
9230,-1504,-160,904,-43,14,-7
9235,-1496,-176,960,-49,12,-7
9240,-1472,-192,888,-49,11,-6
9245,-1504,-192,920,-53,7,-6
9250,-1480,-200,920,-53,6,-6
9255,-1488,-200,928,-49,4,-5
9260,-1512,-184,928,-48,3,-6
9265,-1488,-192,896,-43,2,-5
9270,-1512,-168,888,-43,2,-6
9275,-1496,-184,904,-40,3,-7
9280,-1504,-168,880,-42,2,-7
9285,-1504,-184,944,-43,4,-7
9290,-1504,-152,936,-43,5,-7
9295,-1512,-176,920,-43,7,-7
9300,-1488,-184,928,-42,8,-7
9305,-1480,-176,928,-43,10,-8
9310,-1504,-168,936,-43,10,-9
9315,-1504,-216,944,-45,11,-8
9320,-1464,-168,920,-44,11,-7
9325,-1496,-176,896,-42,12,-8
9330,-1496,-160,904,-40,15,-9
9335,-1488,-192,912,-39,14,-8
9340,-1504,-192,880,-39,14,-9
9345,-1496,-192,912,-39,14,-8
9350,-1488,-160,936,-40,14,-8
9355,-1504,-168,928,-38,13,-8
9360,-1504,-184,912,-37,14,-8
9365,-1472,-176,896,-38,13,-8
9370,-1504,-176,920,-38,12,-8
9375,-1504,-184,936,-39,12,-8
9380,-1504,-168,928,-41,11,-8
9385,-1504,-200,944,-41,10,-8
9390,-1496,-176,904,-40,11,-6
9395,-1496,-200,904,-43,11,-5
9400,-1504,-184,904,-40,10,-6
9405,-1512,-192,944,-40,9,-8
9410,-1512,-168,928,-39,8,-8
9415,-1520,-160,920,-42,7,-8
9420,-1488,-176,944,-41,8,-8
9425,-1504,-176,928,-43,8,-8
9430,-1488,-200,928,-45,11,-9
9435,-1488,-192,896,-47,11,-8
9440,-1448,-200,928,-50,12,-9
9445,-1504,-184,936,-47,13,-10
9450,-1520,-176,928,-48,15,-9
9455,-1480,-184,912,-48,16,-9
9460,-1504,-184,920,-47,19,-9
9465,-1512,-200,936,-44,23,-9
9470,-1504,-184,904,-38,24,-8
9475,-1480,-216,912,-33,25,-11
9480,-1512,-176,936,-29,27,-10
9485,-1496,-184,912,-28,26,-12
9490,-1496,-192,936,-27,25,-10
9495,-1520,-168,936,-25,23,-9
9500,-1504,-176,928,-24,20,-6
9505,-1480,-208,952,-23,16,-5
9510,-1512,-160,968,-19,11,-5
9515,-1480,-200,952,-14,6,-5
9520,-1488,-168,936,-13,3,-5
9525,-1488,-200,968,-10,2,-9
9530,-1504,-184,944,-12,1,-8
9535,-1608,-152,896,-16,4,-5
9540,-1440,-184,912,-24,31,17
9545,-1472,-176,944,-28,43,3
9550,-1464,-168,952,-21,35,-6
9555,-1480,-168,944,-18,22,-7
9560,-1480,-184,880,-21,14,-6
9565,-1488,-200,920,-24,10,-7
9570,-1504,-176,920,-28,6,-7
9575,-1504,-176,952,-36,3,-7
9580,-1584,-240,984,-40,5,-6
9585,-1488,-160,936,-42,6,-6
9590,-1504,-176,944,-43,7,-8
9595,-1504,-192,936,-41,7,-6
9600,-1472,-200,944,-39,6,-7
9605,-1504,-184,928,-37,7,-9
9610,-1528,-168,952,-35,6,-9
9615,-1496,-160,912,-33,7,-9
9620,-1496,-168,912,-35,8,-10
9625,-1488,-184,960,-35,9,-10
9630,-1464,-312,864,-34,10,-9
9635,-1496,-168,944,-35,11,-10
9640,-1512,-184,896,-40,11,-8
9645,-1512,-184,928,-43,9,-10
9650,-1512,-168,944,-45,8,-10
9655,-1480,-184,968,-46,6,-8
9660,-1496,-184,936,-46,5,-7
9665,-1496,-168,944,-48,6,-6
9670,-1504,-168,928,-51,6,-7
9675,-1488,-184,936,-53,6,-7
9680,-1496,-176,952,-54,7,-7
9685,-1496,-200,912,-55,8,-6
9690,-1496,-176,928,-54,9,-7
9695,-1488,-168,944,-54,10,-6
9700,-1504,-176,920,-54,9,-6
9705,-1472,-200,920,-54,8,-7
9710,-1480,-200,936,-54,6,-7
9715,-1496,-176,912,-56,6,-6
9720,-1488,-168,928,-56,6,-7
9725,-1496,-184,944,-57,8,-7
9730,-1512,-176,904,-58,7,-5
9735,-1496,-176,944,-58,9,-5
9740,-1504,-176,936,-59,9,-5
9745,-1504,-192,920,-61,12,-6
9750,-1496,-192,936,-60,11,-5
9755,-1496,-184,936,-59,11,-5
9760,-1520,-176,936,-60,12,-6
9765,-1496,-208,912,-57,13,-5
9770,-1496,-184,928,-57,13,-5
9775,-1488,-208,904,-55,14,-6
9780,-1488,-200,944,-53,16,-5
9785,-1464,-184,904,-50,16,-5
9790,-1488,-192,952,-49,16,-5
9795,-1480,-168,928,-47,14,-5
9800,-1496,-184,888,-44,15,-4
9805,-1512,-192,944,-43,15,-3
9810,-1488,-200,968,-41,16,-4
9815,-1488,-200,936,-41,14,-5
9820,-1480,-192,912,-42,15,-6
9825,-1504,-168,928,-43,16,-5
9830,-1504,-176,928,-43,15,-4
9835,-1480,-192,952,-45,16,-3
9840,-1496,-184,936,-48,15,-3
9845,-1464,-184,928,-49,15,-3
9850,-1496,-184,920,-49,17,-4
9855,-1496,-192,904,-50,16,-3
9860,-1480,-184,944,-51,14,-3
9865,-1480,-192,920,-51,14,-4
9870,-1504,-168,968,-52,15,-4
9875,-1472,-208,928,-52,15,-3
9880,-1488,-184,928,-54,16,-4
9885,-1504,-184,944,-52,16,-3
9890,-1504,-160,936,-52,17,-3
9895,-1472,-192,912,-54,17,-4
9900,-1488,-192,944,-54,16,-4
9905,-1504,-192,936,-55,18,-3
9910,-1480,-184,936,-55,17,-4
9915,-1488,-184,920,-56,17,-3
9920,-1504,-184,944,-54,18,-3
9925,-1488,-176,928,-56,18,-3
9930,-1504,-160,928,-56,18,-3
9935,-1504,-184,944,-54,19,-2
9940,-1496,-160,952,-56,19,-2
9945,-1512,-160,928,-57,19,-3
9950,-1496,-160,928,-58,19,-2
9955,-1496,-168,920,-57,19,-3
9960,-1488,-160,928,-60,19,-2
9965,-1504,-176,944,-59,19,-3
9970,-1496,-168,912,-61,18,-3
9975,-1488,-184,904,-62,18,-3
9980,-1496,-176,960,-62,17,-2
9985,-1480,-192,904,-62,18,-2
9990,-1512,-184,944,-64,18,-3
9995,-1504,-176,920,-63,19,-2
10000,-1504,-184,936,-65,20,-2
10005,-1496,-192,904,-64,19,-3
10010,-1504,-168,936,-64,20,-2
10015,-1488,-216,936,-64,20,-1
10020,-1480,-200,928,-64,21,-1
10025,-1512,-160,896,-65,21,0
10030,-1504,-176,928,-65,22,0
10035,-1512,-168,936,-65,22,-1
10040,-1488,-168,944,-66,22,1
10045,-1504,-168,936,-65,23,0
10050,-1488,-160,952,-67,24,0
10055,-1488,-192,928,-66,24,0
10060,-1472,-184,928,-68,24,1
10065,-1504,-160,928,-68,24,1
10070,-1496,-184,960,-68,24,1
10075,-1472,-200,912,-67,24,0
10080,-1528,-176,928,-69,25,1
10085,-1512,-184,920,-68,26,2
10090,-1488,-200,904,-67,24,0
10095,-1496,-200,920,-69,25,0
10100,-1496,-192,904,-68,26,0
10105,-1504,-192,936,-68,26,0
10110,-1528,-160,920,-67,24,1
10115,-1496,-184,936,-65,25,1
10120,-1504,-184,920,-67,24,2
10125,-1512,-200,928,-65,25,1
10130,-1488,-152,936,-66,25,2
10135,-1496,-176,944,-66,26,3
10140,-1488,-184,936,-65,28,2
10145,-1496,-184,928,-67,28,2
10150,-1504,-184,960,-68,30,1
10155,-1472,-208,952,-66,30,1
10160,-1488,-208,928,-67,29,2
10165,-1464,-216,904,-66,30,2
10170,-1488,-200,944,-62,31,0
10175,-1448,-176,920,-64,31,1
10180,-1496,-192,920,-64,30,1
10185,-1488,-200,944,-61,30,0
10190,-1496,-144,928,-60,30,1
10195,-1504,-184,896,-61,28,1
10200,-1496,-192,928,-58,28,1
10205,-1504,-192,936,-60,28,0
10210,-1496,-184,928,-60,28,0
10215,-1480,-208,912,-61,28,2
10220,-1496,-176,912,-62,27,1
10225,-1496,-200,920,-62,28,1
10230,-1496,-248,984,-62,29,1
10235,-1488,-192,912,-63,28,2
10240,-1496,-200,912,-64,28,3
10245,-1488,-184,952,-63,28,2
10250,-1504,-192,944,-64,28,2
10255,-1496,-192,888,-66,29,2
10260,-1512,-176,904,-65,29,4
10265,-1504,-216,904,-65,28,2
10270,-1496,-192,920,-66,28,2
10275,-1504,-184,888,-66,28,3
10280,-1488,-192,928,-67,29,3
10285,-1480,-200,912,-68,30,3
10290,-1504,-176,944,-67,32,2
10295,-1480,-200,944,-69,32,2
10300,-1496,-192,952,-69,32,2
10305,-1504,-192,912,-68,33,2
10310,-1520,-216,896,-67,34,2
10315,-1512,-168,904,-69,33,1
10320,-1480,-192,912,-67,34,0
10325,-1488,-200,920,-67,33,1
10330,-1496,-208,904,-68,33,2
10335,-1504,-200,896,-67,34,1
10340,-1504,-192,936,-65,33,2
10345,-1480,-200,920,-64,33,1
10350,-1496,-184,928,-64,32,1
10355,-1496,-200,920,-63,31,-1
10360,-1496,-184,952,-61,31,1
10365,-1520,-184,920,-59,32,1
10370,-1520,-192,920,-59,30,0
10375,-1496,-200,904,-61,31,0
10380,-1496,-184,912,-62,30,1
10385,-1496,-192,920,-62,30,2
10390,-1488,-208,928,-61,31,1
10395,-1488,-192,912,-60,30,1
10400,-1488,-176,912,-59,29,1
10405,-1488,-168,936,-58,28,0
10410,-1504,-184,920,-58,28,-1
10415,-1504,-176,912,-57,26,-1
10420,-1520,-208,936,-57,24,-3
10425,-1504,-184,904,-60,25,-3
10430,-1504,-208,896,-62,26,-4
10435,-1520,-200,896,-66,28,-3
10440,-1488,-184,896,-65,29,-4
10445,-1480,-208,904,-66,30,-5
10450,-1520,-216,936,-68,30,-5
10455,-1496,-200,896,-65,31,-4
10460,-1512,-224,920,-64,33,-3
10465,-1512,-232,912,-60,33,-3
10470,-1520,-208,952,-54,36,-3
10475,-1528,-208,904,-46,38,-3
10480,-1520,-240,872,-40,37,-2
10485,-1488,-192,928,-32,38,-3
10490,-1480,-192,928,-28,35,-3
10495,-1512,-192,920,-27,32,-2
10500,-1520,-176,904,-26,30,-2
10505,-1488,-192,912,-26,26,0
10510,-1520,-176,928,-28,25,0
10515,-1496,-184,912,-29,22,0
10520,-1472,-184,896,-32,18,2
10525,-1496,-176,920,-35,16,2
10530,-1488,-176,944,-39,14,1
10535,-1496,-184,888,-45,15,1
10540,-1496,-168,944,-48,15,2
10545,-1488,-192,896,-51,15,1
10550,-1512,-200,960,-55,16,1
10555,-1512,-208,912,-58,18,1
10560,-1504,-208,912,-59,18,1
10565,-1520,-184,928,-57,20,-1
10570,-1488,-184,880,-57,21,-1
10575,-1488,-200,896,-56,23,-1
10580,-1512,-192,904,-56,23,-1
10585,-1528,-168,920,-55,24,-3
10590,-1496,-208,880,-52,25,-3
10595,-1504,-184,904,-52,25,-3
10600,-1520,-160,904,-52,25,-2
10605,-1504,-176,928,-52,26,-3
10610,-1504,-192,944,-50,25,-4
10615,-1504,-200,920,-50,25,-2
10620,-1504,-200,912,-53,25,-3
10625,-1480,-184,928,-53,26,-3
10630,-1504,-200,920,-54,25,-4
10635,-1512,-200,912,-57,25,-4
10640,-1528,-176,888,-58,24,-3
10645,-1504,-208,920,-62,24,-3
10650,-1512,-216,928,-64,24,-1
10655,-1496,-192,896,-65,24,0
10660,-1504,-176,936,-67,23,-1
10665,-1488,-208,904,-69,25,-1
10670,-1496,-208,928,-69,24,-1
10675,-1528,-200,896,-68,25,0
10680,-1496,-216,920,-68,27,-1
10685,-1504,-200,912,-68,28,-2
10690,-1488,-184,920,-66,27,-1
10695,-1520,-192,928,-63,26,-2
10700,-1504,-216,928,-61,25,-4
10705,-1496,-176,912,-62,25,-4
10710,-1496,-184,920,-59,24,-4
10715,-1496,-184,912,-60,23,-2
10720,-1504,-184,912,-61,24,-3
10725,-1496,-200,928,-62,24,-2
10730,-1488,-200,912,-62,22,-2
10735,-1504,-200,920,-64,23,-1
10740,-1512,-200,888,-68,22,-1
10745,-1480,-224,888,-68,21,-1
10750,-1512,-200,904,-69,22,-1
10755,-1520,-192,880,-67,23,-2
10760,-1504,-192,912,-66,21,-1
10765,-1504,-208,912,-62,21,-2
10770,-1512,-232,872,-57,20,-1
10775,-1472,-160,896,-51,19,-2
10780,-1488,-208,904,-49,18,-2
10785,-1512,-200,904,-44,17,-3
10790,-1496,-232,872,-40,17,-3
10795,-1496,-216,912,-36,17,-3
10800,-1496,-208,912,-33,13,-4
10805,-1504,-200,896,-31,13,-4
10810,-1496,-200,896,-28,12,-5
10815,-1504,-200,896,-28,11,-5
10820,-1504,-176,920,-29,11,-4
10825,-1512,-192,896,-28,11,-5
10830,-1512,-224,952,-31,10,-4
10835,-1520,-208,896,-34,10,-5
10840,-1520,-176,960,-37,9,-3
10845,-1512,-160,936,-35,8,-5
10850,-1528,-200,944,-39,9,-5
10855,-1512,-184,944,-40,8,-5
10860,-1520,-184,904,-42,7,-5
10865,-1520,-200,912,-40,7,-5
10870,-1512,-208,928,-41,6,-6
10875,-1488,-184,920,-41,8,-7
10880,-1504,-176,920,-40,9,-6
10885,-1512,-176,920,-40,11,-6
10890,-1512,-224,920,-37,11,-8
10895,-1496,-200,912,-34,13,-8
10900,-1504,-184,888,-33,13,-9
10905,-1488,-200,920,-31,11,-9
10910,-1504,-208,888,-29,11,-11
10915,-1496,-200,888,-28,10,-9
10920,-1480,-232,952,-24,10,-9
10925,-1504,-200,920,-23,9,-10
10930,-1504,-200,896,-22,8,-9
10935,-1504,-168,936,-21,7,-11
10940,-1504,-200,952,-20,8,-10
10945,-1520,-184,912,-19,7,-11
10950,-1504,-192,928,-19,6,-11
10955,-1520,-184,920,-16,5,-15
10960,-1520,-192,904,-16,6,-14
10965,-1512,-184,904,-17,5,-15
10970,-1480,-184,904,-17,5,-17
10975,-1504,-176,920,-20,3,-16
10980,-1496,-184,896,-21,2,-16
10985,-1512,-168,912,-23,0,-17
10990,-1472,-200,888,-27,-3,-17
10995,-1504,-216,928,-30,-5,-17
11000,-1512,-208,904,-30,-4,-18
11005,-1504,-176,928,-35,-7,-17
11010,-1496,-208,880,-38,-7,-18
11015,-1504,-192,928,-42,-6,-18
11020,-1512,-208,912,-44,-7,-18
11025,-1504,-208,936,-47,-6,-17
11030,-1520,-216,928,-48,-6,-16
11035,-1504,-208,904,-49,-6,-14
11040,-1488,-200,904,-49,-6,-13
11045,-1496,-216,928,-48,-7,-12
11050,-1512,-176,936,-48,-8,-11
11055,-1496,-184,888,-48,-8,-10
11060,-1496,-192,920,-46,-9,-8
11065,-1520,-184,944,-46,-10,-7
11070,-1520,-184,896,-46,-10,-8
11075,-1496,-216,912,-46,-10,-7
11080,-1504,-208,896,-46,-7,-8
11085,-1520,-200,912,-47,-5,-8
11090,-1488,-192,928,-49,-3,-7
11095,-1496,-168,952,-49,-2,-7
11100,-1496,-184,928,-47,-2,-9
11105,-1512,-200,952,-49,-1,-7
11110,-1504,-184,928,-46,-1,-7
11115,-1504,-200,944,-43,-2,-8
11120,-1488,-208,976,-38,-2,-8
11125,-1504,-192,928,-35,-4,-8
11130,-1472,-216,920,-30,-5,-11
11135,-1488,-168,936,-26,-4,-13
11140,-1488,-200,952,-22,-2,-12
11145,-1472,-208,928,-21,-1,-11
11150,-1488,-208,952,-21,0,-11
11155,-1480,-208,928,-21,0,-11
11160,-1496,-200,936,-20,0,-12
11165,-1480,-216,928,-18,4,-13
11170,-1496,-184,944,-18,6,-13
11175,-1496,-184,936,-20,8,-13
11180,-1488,-224,912,-21,10,-12
11185,-1496,-192,920,-23,12,-13
11190,-1480,-192,928,-25,10,-13
11195,-1496,-200,896,-27,11,-15
11200,-1488,-184,896,-30,11,-15
11205,-1488,-200,928,-32,9,-15
11210,-1488,-192,896,-35,8,-17
11215,-1488,-200,928,-36,6,-17
11220,-1480,-200,928,-36,5,-15
11225,-1504,-192,912,-37,5,-15
11230,-1488,-216,920,-35,6,-15
11235,-1488,-216,912,-37,7,-14
11240,-1504,-200,912,-36,8,-14
11245,-1520,-192,912,-35,8,-14
11250,-1432,-224,912,-32,10,-14
11255,-1432,-192,968,-32,10,-14
11260,-1504,-200,912,-32,10,-12
11265,-1528,-208,944,-31,10,-12
11270,-1496,-200,920,-31,9,-11
11275,-1504,-208,904,-31,9,-11
11280,-1496,-184,920,-32,10,-11
11285,-1512,-176,960,-33,11,-11
11290,-1496,-184,928,-33,10,-10
11295,-1488,-176,912,-32,10,-11
11300,-1488,-200,912,-28,8,-11
11305,-1496,-192,920,-26,6,-10
11310,-1488,-224,920,-24,4,-11
11315,-1488,-200,944,-22,3,-12
11320,-1512,-160,928,-22,1,-10
11325,-1496,-208,912,-20,1,-12
11330,-1504,-200,912,-22,-1,-12
11335,-1496,-200,928,-19,-2,-11
11340,-1480,-184,920,-21,-2,-13
11345,-1488,-200,952,-23,-1,-13
11350,-1472,-216,920,-26,-1,-12
11355,-1496,-184,944,-25,1,-13
11360,-1496,-152,952,-26,0,-13
11365,-1512,-176,936,-28,2,-13
11370,-1472,-184,896,-29,4,-15
11375,-1424,-264,872,-30,5,-14
11380,-1472,-192,952,-33,5,-14
11385,-1472,-192,928,-35,6,-14
11390,-1480,-224,920,-38,6,-16
11395,-1480,-208,936,-39,8,-16
11400,-1488,-208,936,-43,10,-15
11405,-1488,-200,944,-43,11,-15
11410,-1480,-200,920,-41,13,-14
11415,-1536,-192,896,-36,15,-12
11420,-1496,-224,888,-34,24,0
11425,-1488,-232,936,-32,35,-3
11430,-1504,-232,1008,-24,34,-16
11435,-1480,-200,920,-17,33,-15
11440,-1480,-192,960,-11,28,-10
11445,-1472,-200,936,-11,21,-9
11450,-1496,-200,928,-10,15,-8
11455,-1472,-200,952,-9,8,-9
11460,-1504,-176,952,-7,3,-7
11465,-1480,-160,960,-6,1,-8
11470,-1472,-184,920,-6,0,-6
11475,-1480,-176,936,-11,-1,-6
11480,-1480,-176,960,-13,-2,-6
11485,-1464,-192,960,-14,0,-4
11490,-1496,-176,960,-17,-1,-6
11495,-1480,-224,952,-20,-2,-7
11500,-1480,-192,952,-21,1,-7
11505,-1488,-192,928,-23,2,-8
11510,-1472,-184,952,-26,4,-8
11515,-1504,-192,912,-27,5,-8
11520,-1512,-184,936,-32,4,-7
11525,-1480,-160,928,-33,6,-7
11530,-1488,-176,944,-32,6,-9
11535,-1472,-200,944,-33,6,-7
11540,-1512,-184,928,-33,6,-7
11545,-1488,-208,920,-33,9,-1
11550,-1464,-208,960,-34,23,5
11555,-1456,-192,960,-30,27,-4
11560,-1480,-200,952,-22,23,-6
11565,-1488,-192,952,-21,16,-7
11570,-1480,-184,928,-21,13,-7
11575,-1496,-168,936,-23,12,-8
11580,-1504,-184,952,-24,11,-9
11585,-1496,-176,952,-28,11,-8
11590,-1456,-208,920,-31,12,-9
11595,-1480,-168,928,-35,13,-8
11600,-1464,-168,944,-38,12,-8
11605,-1520,-200,920,-39,12,-8
11610,-1480,-200,928,-40,12,-10
11615,-1488,-184,928,-43,10,-9
11620,-1488,-200,960,-42,12,-8
11625,-1488,-184,944,-45,13,-9
11630,-1480,-200,928,-43,12,-9
11635,-1480,-200,920,-42,12,-8
11640,-1472,-176,928,-43,11,-7
11645,-1472,-192,936,-40,12,-7
11650,-1480,-184,928,-40,11,-7
11655,-1464,-176,928,-42,9,-8
11660,-1488,-192,920,-41,8,-8
11665,-1496,-176,952,-42,7,-8
11670,-1480,-168,952,-44,8,-7
11675,-1496,-184,912,-46,7,-7
11680,-1488,-192,920,-48,7,-6
11685,-1480,-208,928,-49,6,-6
11690,-1496,-192,944,-50,8,-7
11695,-1504,-192,928,-54,7,-6
11700,-1472,-200,944,-54,8,-5
11705,-1496,-192,952,-54,9,-5
11710,-1480,-184,920,-52,9,-5
11715,-1504,-176,920,-52,8,-4
11720,-1472,-184,928,-51,9,-4
11725,-1480,-200,944,-48,7,-4
11730,-1504,-184,936,-46,7,-3
11735,-1480,-184,920,-46,9,-5
11740,-1480,-192,944,-44,10,-5
11745,-1512,-176,912,-42,11,-6
11750,-1496,-184,936,-38,12,-6
11755,-1520,-176,944,-38,11,-5
11760,-1496,-176,944,-37,13,-4
11765,-1520,-192,920,-36,12,-5
11770,-1488,-168,944,-36,13,-5
11775,-1512,-176,928,-37,14,-5
11780,-1464,-184,968,-37,12,-5
11785,-1488,-176,968,-39,12,-6
11790,-1496,-152,952,-38,13,-5
11795,-1480,-176,928,-39,13,-6
11800,-1504,-168,920,-42,13,-6
11805,-1512,-168,928,-43,14,-6
11810,-1496,-184,904,-46,14,-6
11815,-1480,-232,928,-44,11,-6
11820,-1488,-192,920,-45,13,-7
11825,-1488,-184,960,-44,12,-7
11830,-1472,-176,952,-43,12,-7
11835,-1512,-184,944,-43,13,-7
11840,-1488,-192,976,-43,13,-7
11845,-1456,-192,912,-43,13,-6
11850,-1472,-192,920,-43,13,-7
11855,-1472,-184,920,-43,13,-8
11860,-1504,-176,920,-44,15,-6
11865,-1496,-192,920,-44,14,-5
11870,-1480,-200,928,-45,15,-5
11875,-1464,-208,944,-44,15,-5
11880,-1488,-168,944,-45,14,-5
11885,-1504,-200,928,-46,15,-5
11890,-1480,-184,976,-46,15,-5
11895,-1480,-176,928,-47,15,-6
11900,-1512,-184,944,-48,15,-6
11905,-1496,-184,920,-48,14,-5
11910,-1488,-176,936,-47,12,-7
11915,-1496,-168,944,-50,14,-6
11920,-1496,-184,944,-51,13,-6
11925,-1480,-184,952,-53,13,-6
11930,-1504,-200,952,-51,13,-5
11935,-1480,-216,904,-50,14,-5
11940,-1480,-184,912,-52,13,-5
11945,-1496,-168,920,-53,14,-5
11950,-1488,-168,944,-52,14,-7
11955,-1504,-192,920,-52,15,-7
11960,-1472,-184,936,-50,16,-7
11965,-1472,-208,936,-50,17,-7
11970,-1456,-192,976,-51,17,-6
11975,-1432,-192,968,-50,17,-5
11980,-1472,-208,944,-51,17,-5
11985,-1496,-184,944,-50,17,-5
11990,-1480,-192,936,-51,17,-7
11995,-1512,-192,920,-51,16,-5
12000,-1480,-184,912,-49,17,-5
12005,-1496,-176,944,-50,17,-4
12010,-1472,-176,928,-49,15,-5
12015,-1472,-192,920,-51,17,-5
12020,-1504,-200,968,-50,15,-6
12025,-1488,-176,952,-50,16,-5
12030,-1480,-264,1096,-51,15,-5
12035,-1504,-200,912,-50,16,-4
12040,-1488,-208,912,-50,16,-4
12045,-1496,-184,936,-49,16,-4
12050,-1464,-200,928,-49,16,-3
12055,-1464,-192,904,-49,16,-4
12060,-1472,-192,960,-49,16,-3
12065,-1488,-176,968,-48,15,-4
12070,-1496,-176,936,-47,17,-3
12075,-1488,-192,920,-45,17,-4
12080,-1496,-200,944,-45,17,-3
12085,-1488,-192,920,-46,18,-4
12090,-1472,-200,944,-46,19,-5
12095,-1464,-208,968,-47,18,-4
12100,-1480,-184,920,-47,18,-4
12105,-1480,-184,912,-45,17,-6
12110,-1488,-176,936,-45,16,-5
12115,-1480,-192,968,-45,18,-5
12120,-1464,-184,920,-44,16,-4
12125,-1496,-200,936,-45,17,-4
12130,-1496,-192,944,-44,17,-5
12135,-1504,-184,960,-43,16,-4
12140,-1496,-176,928,-45,15,-5
12145,-1504,-184,952,-45,16,-6
12150,-1504,-200,952,-46,16,-4
12155,-1472,-192,952,-46,15,-6
12160,-1488,-184,944,-46,16,-6
12165,-1472,-192,896,-46,16,-5
12170,-1488,-200,952,-47,15,-5
12175,-1504,-192,928,-46,16,-5
12180,-1480,-208,936,-44,16,-5
12185,-1480,-200,920,-43,16,-5
12190,-1496,-184,936,-44,16,-6
12195,-1488,-200,944,-45,16,-6
12200,-1472,-176,960,-45,16,-6
12205,-1504,-160,920,-45,17,-4
12210,-1456,-216,936,-47,17,-5
12215,-1488,-160,944,-46,16,-5
12220,-1472,-176,960,-47,16,-5
12225,-1496,-184,952,-46,17,-5
12230,-1480,-192,952,-47,16,-5
12235,-1480,-176,920,-48,16,-5
12240,-1496,-192,936,-49,17,-7
12245,-1496,-184,944,-49,16,-6
12250,-1472,-192,952,-51,17,-7
12255,-1488,-192,936,-50,17,-6
12260,-1472,-200,920,-49,16,-5
12265,-1480,-176,952,-49,17,-3
12270,-1480,-216,952,-49,16,-3
12275,-1488,-192,928,-50,16,-3
12280,-1480,-184,968,-52,15,-3
12285,-1496,-200,960,-53,16,-4
12290,-1496,-184,968,-54,17,-4
12295,-1480,-200,920,-55,17,-4
12300,-1496,-168,912,-57,19,-1
12305,-1488,-184,944,-57,20,-3
12310,-1488,-200,920,-58,20,-3
12315,-1488,-176,928,-57,22,-2
12320,-1480,-192,944,-56,21,-2
12325,-1496,-184,928,-56,23,-2
12330,-1488,-192,936,-55,23,-2
12335,-1496,-192,944,-55,24,-4
12340,-1456,-168,952,-54,23,-4
12345,-1480,-192,960,-55,22,-3
12350,-1464,-208,968,-54,23,-2
12355,-1496,-184,976,-53,24,-2
12360,-1488,-192,936,-52,23,-3
12365,-1480,-200,968,-52,23,-3
12370,-1488,-208,920,-51,23,-3
12375,-1496,-192,936,-51,22,-3
12380,-1464,-176,936,-50,22,-3
12385,-1472,-184,912,-54,23,-1
12390,-1464,-176,936,-55,24,0
12395,-1464,-184,960,-56,24,-2
12400,-1480,-192,936,-57,25,-2
12405,-1472,-192,944,-56,22,0
12410,-1488,-208,920,-57,21,1
12415,-1472,-160,968,-57,20,1
12420,-1488,-192,944,-57,19,1
12425,-1504,-168,928,-59,18,0
12430,-1496,-184,960,-60,19,-1
12435,-1488,-184,936,-65,20,-1
12440,-1472,-200,920,-67,23,-1
12445,-1488,-176,912,-66,26,-2
12450,-1488,-200,920,-69,27,-3
12455,-1496,-184,944,-70,29,-3
12460,-1488,-184,936,-67,29,-2
12465,-1504,-208,936,-66,30,-4
12470,-1512,-216,944,-64,32,-3
12475,-1488,-248,928,-62,35,-1
12480,-1512,-224,944,-57,40,-2
12485,-1488,-200,920,-51,41,-1
12490,-1504,-200,936,-45,41,-1
12495,-1488,-184,960,-41,42,-2
12500,-1480,-168,920,-38,40,-2
12505,-1512,-168,912,-38,38,-2
12510,-1472,-200,960,-39,36,-1
12515,-1504,-184,968,-40,33,0
12520,-1496,-192,944,-42,29,1
12525,-1504,-168,960,-43,25,3
12530,-1480,-192,968,-43,22,3
12535,-1480,-168,944,-45,20,3
12540,-1488,-176,920,-47,20,3
12545,-1480,-200,936,-51,19,2
12550,-1504,-168,928,-54,20,3
12555,-1488,-184,952,-60,23,2
12560,-1472,-184,952,-63,25,1
12565,-1496,-192,968,-65,26,2
12570,-1480,-184,936,-68,28,0
12575,-1568,-136,936,-69,29,2
12580,-1480,-168,968,-71,32,1
12585,-1496,-192,920,-72,34,2
12590,-1464,-192,928,-74,35,2
12595,-1488,-216,912,-72,35,1
12600,-1496,-184,928,-71,34,2
12605,-1512,-184,912,-73,33,2
12610,-1464,-200,944,-69,32,0
12615,-1488,-184,928,-66,32,0
12620,-1472,-216,904,-66,32,0
12625,-1488,-208,928,-66,32,0
12630,-1416,-248,912,-66,33,0
12635,-1496,-200,912,-67,33,1
12640,-1520,-192,928,-66,32,1
12645,-1496,-160,944,-67,33,0
12650,-1496,-192,928,-66,35,0
12655,-1496,-184,912,-71,34,2
12660,-1488,-200,936,-74,33,2
12665,-1488,-184,928,-75,33,3
12670,-1488,-224,936,-77,34,3
12675,-1496,-208,920,-80,33,2
12680,-1512,-192,912,-81,32,2
12685,-1496,-208,936,-81,33,2
12690,-1488,-200,928,-80,33,3
12695,-1496,-216,928,-78,32,1
12700,-1488,-192,920,-77,34,1
12705,-1496,-200,936,-75,33,3
12710,-1496,-216,928,-74,33,4
12715,-1480,-192,928,-71,31,3
12720,-1496,-192,936,-72,31,2
12725,-1496,-176,928,-71,31,3
12730,-1480,-216,928,-73,31,3
12735,-1504,-160,920,-75,30,3
12740,-1480,-192,928,-77,31,3
12745,-1488,-200,912,-79,30,4
12750,-1496,-176,944,-82,30,5
12755,-1504,-208,960,-84,30,4
12760,-1488,-200,936,-84,32,3
12765,-1496,-208,920,-84,33,5
12770,-1520,-184,944,-85,34,4
12775,-1512,-208,920,-81,35,5
12780,-1504,-232,936,-79,34,4
12785,-1512,-208,920,-76,35,5
12790,-1480,-208,888,-71,36,5
12795,-1472,-208,920,-67,37,6
12800,-1488,-168,904,-63,37,6
12805,-1480,-224,904,-59,35,5
12810,-1512,-192,928,-54,34,5
12815,-1488,-208,920,-49,33,5
12820,-1480,-216,896,-46,33,4
12825,-1488,-200,928,-44,34,4
12830,-1480,-200,952,-43,33,4
12835,-1504,-192,920,-43,32,4
12840,-1496,-192,928,-45,31,4
12845,-1512,-184,920,-48,29,4
12850,-1488,-208,928,-49,30,3
12855,-1488,-200,928,-54,29,3
12860,-1496,-160,928,-58,29,4
12865,-1496,-200,960,-61,27,4
12870,-1520,-200,952,-62,28,4
12875,-1504,-176,920,-66,28,4
12880,-1496,-200,920,-67,29,3
12885,-1512,-184,912,-68,29,2
12890,-1504,-176,904,-68,29,2
12895,-1504,-208,920,-66,30,2
12900,-1520,-200,920,-66,31,0
12905,-1512,-184,944,-64,31,-1
12910,-1504,-176,904,-64,30,-1
12915,-1504,-200,920,-62,27,-1
12920,-1496,-200,912,-61,28,0
12925,-1488,-208,888,-62,29,1
12930,-1512,-200,904,-59,30,2
12935,-1480,-208,944,-61,31,1
12940,-1496,-208,912,-60,33,2
12945,-1488,-208,904,-60,32,2
12950,-1512,-168,944,-61,33,0
12955,-1488,-192,936,-61,32,0
12960,-1480,-200,920,-63,30,1
12965,-1512,-192,920,-63,29,0
12970,-1496,-168,920,-64,28,2
12975,-1504,-200,928,-66,27,1
12980,-1496,-176,904,-68,28,2
12985,-1512,-184,936,-69,28,1
12990,-1504,-208,928,-72,28,2
12995,-1496,-192,936,-73,28,1
13000,-1512,-216,920,-74,29,2
13005,-1504,-208,944,-77,29,1
13010,-1496,-168,920,-75,29,1
13015,-1488,-176,920,-76,30,0
13020,-1480,-216,952,-75,30,1
13025,-1504,-216,920,-73,29,1
13030,-1496,-208,944,-71,30,0
13035,-1512,-200,904,-72,30,1
13040,-1504,-208,896,-69,31,3
13045,-1512,-208,904,-69,31,2
13050,-1496,-176,920,-69,32,2
13055,-1512,-184,944,-72,33,2
13060,-1512,-200,912,-72,33,2
13065,-1504,-200,896,-72,33,3
13070,-1480,-192,888,-72,33,4
13075,-1496,-192,928,-72,33,3
13080,-1520,-208,888,-73,33,4
13085,-1480,-208,904,-74,33,3
13090,-1504,-200,936,-74,32,3
13095,-1496,-216,888,-73,33,3
13100,-1496,-192,912,-74,34,3
13105,-1496,-200,912,-73,33,3
13110,-1488,-232,936,-72,33,2
13115,-1504,-208,896,-71,34,1
13120,-1488,-184,928,-69,34,2
13125,-1504,-208,928,-68,34,3
13130,-1488,-208,912,-66,34,3
13135,-1520,-208,920,-63,34,2
13140,-1504,-192,880,-61,33,2
13145,-1512,-224,888,-60,31,2
13150,-1512,-216,904,-58,32,1
13155,-1512,-184,912,-54,31,2
13160,-1504,-208,888,-52,31,1
13165,-1520,-184,928,-51,28,1
13170,-1512,-200,928,-48,27,-1
13175,-1496,-208,912,-47,26,-1
13180,-1488,-200,920,-44,25,-1
13185,-1528,-192,880,-44,24,-1
13190,-1496,-184,880,-43,23,-1
13195,-1520,-168,904,-41,22,-2
13200,-1504,-216,896,-41,21,-3
13205,-1496,-208,904,-38,19,-2
13210,-1512,-192,912,-38,19,-4
13215,-1512,-216,920,-36,19,-3
13220,-1512,-224,896,-34,16,-5
13225,-1464,-344,1048,-33,15,-6
13230,-1496,-192,856,-30,16,-7
13235,-1504,-200,880,-30,14,-6
13240,-1512,-224,896,-31,13,-6
13245,-1496,-200,888,-30,11,-7
13250,-1512,-192,888,-30,13,-8
13255,-1504,-200,936,-27,12,-7
13260,-1512,-208,960,-30,10,-6
13265,-1512,-248,896,-30,9,-7
13270,-1512,-200,888,-29,9,-7
13275,-1512,-208,888,-29,7,-8
13280,-1408,-152,912,-31,8,-8
13285,-1512,-200,888,-31,7,-8
13290,-1520,-184,920,-30,6,-10
13295,-1512,-192,920,-31,7,-9
13300,-1504,-192,904,-31,6,-7
13305,-1504,-208,896,-33,6,-6
13310,-1520,-184,920,-32,6,-8
13315,-1520,-184,896,-30,5,-9
13320,-1504,-176,888,-30,4,-8
13325,-1504,-192,912,-29,3,-10
13330,-1504,-208,936,-29,2,-10
13335,-1520,-192,896,-28,1,-10
13340,-1512,-192,936,-26,2,-11
13345,-1512,-200,912,-23,3,-11
13350,-1504,-192,912,-22,1,-11
13355,-1528,-208,928,-20,1,-12
13360,-1504,-216,904,-18,2,-11
13365,-1488,-192,936,-17,0,-11
13370,-1504,-184,880,-17,-1,-11
13375,-1488,-200,912,-17,-1,-12
13380,-1496,-192,864,-18,0,-12
13385,-1520,-184,920,-20,0,-12
13390,-1512,-184,912,-19,-1,-12
13395,-1496,-200,912,-19,-2,-11
13400,-1504,-192,928,-18,-3,-12
13405,-1496,-200,936,-18,-5,-12
13410,-1512,-192,920,-16,-7,-12
13415,-1496,-192,904,-17,-8,-13
13420,-1496,-192,936,-17,-9,-14
13425,-1504,-168,896,-17,-9,-14
13430,-1520,-176,920,-21,-7,-15
13435,-1480,-208,904,-21,-7,-16
13440,-1488,-192,888,-22,-5,-16
13445,-1512,-184,904,-24,-4,-17
13450,-1496,-208,920,-24,-2,-16
13455,-1504,-200,936,-23,-2,-17
13460,-1504,-216,904,-21,-1,-18
13465,-1480,-224,920,-19,1,-16
13470,-1512,-208,928,-17,2,-15
13475,-1496,-208,960,-14,5,-15
13480,-1496,-208,912,-9,9,-15
13485,-1520,-208,920,-4,10,-14
13490,-1512,-192,896,1,9,-15
13495,-1496,-240,928,4,9,-15
13500,-1504,-176,936,6,8,-15
13505,-1480,-208,920,6,5,-14
13510,-1504,-176,904,5,4,-13
13515,-1488,-176,928,3,-2,-14
13520,-1504,-176,936,3,-6,-14
13525,-1488,-184,928,3,-10,-13
13530,-1496,-168,920,2,-11,-14
13535,-1512,-184,912,1,-13,-13
13540,-1480,-192,912,-3,-14,-12
13545,-1496,-176,912,-9,-13,-14
13550,-1496,-200,936,-11,-13,-15
13555,-1488,-176,912,-16,-11,-16
13560,-1488,-160,928,-18,-8,-15
13565,-1512,-184,944,-23,-8,-15
13570,-1488,-176,912,-26,-7,-15
13575,-1456,-216,920,-27,-4,-14
13580,-1488,-192,928,-28,-3,-15
13585,-1504,-168,920,-28,-1,-15
13590,-1488,-176,920,-29,1,-14
13595,-1512,-184,904,-28,2,-15
13600,-1512,-184,944,-28,2,-16
13605,-1472,-200,928,-26,2,-15
13610,-1504,-216,936,-23,2,-17
13615,-1480,-240,928,-21,1,-18
13620,-1480,-192,944,-19,2,-17
13625,-1496,-176,904,-18,1,-17
13630,-1512,-184,920,-17,1,-18
13635,-1496,-208,928,-19,1,-16
13640,-1488,-192,928,-19,0,-17
13645,-1496,-176,928,-20,0,-17
13650,-1496,-192,904,-23,0,-17
13655,-1488,-192,912,-26,0,-17
13660,-1480,-200,928,-28,-2,-16
13665,-1488,-184,888,-29,0,-16
13670,-1488,-200,904,-31,0,-14
13675,-1472,-200,952,-33,-1,-14
13680,-1480,-192,904,-35,0,-12
13685,-1496,-208,920,-35,1,-12
13690,-1496,-216,944,-33,2,-12
13695,-1496,-184,960,-33,1,-12
13700,-1496,-200,944,-31,0,-12
13705,-1504,-168,928,-30,0,-12
13710,-1480,-200,928,-30,3,-12
13715,-1480,-192,928,-30,1,-13
13720,-1472,-200,904,-31,1,-11
13725,-1504,-168,936,-33,1,-11
13730,-1488,-200,960,-33,1,-10
13735,-1456,-200,944,-32,1,-11
13740,-1488,-176,928,-34,0,-11
13745,-1472,-192,944,-37,1,-11
13750,-1480,-216,928,-37,1,-12
13755,-1504,-216,944,-39,2,-11
13760,-1504,-176,968,-40,2,-10
13765,-1496,-192,952,-41,4,-11
13770,-1480,-200,936,-40,4,-10
13775,-1488,-192,936,-38,3,-9
13780,-1504,-208,944,-37,5,-7
13785,-1480,-176,928,-37,7,-9
13790,-1544,-176,920,-36,9,-7
13795,-1448,-200,944,-37,20,8
13800,-1488,-184,968,-32,29,-4
13805,-1472,-200,928,-24,26,-10
13810,-1496,-192,904,-21,17,-10
13815,-1496,-192,936,-19,11,-9
13820,-1496,-192,928,-18,8,-9
13825,-1464,-144,952,-18,5,-9
13830,-1496,-208,952,-18,4,-9
13835,-1480,-200,936,-19,6,-10
13840,-1472,-208,944,-21,6,-9
13845,-1496,-192,944,-22,6,-9
13850,-1488,-192,936,-23,6,-8
13855,-1480,-200,904,-25,7,-9
13860,-1480,-208,896,-25,6,-9
13865,-1480,-184,936,-28,5,-9
13870,-1496,-176,928,-30,6,-8
13875,-1472,-192,960,-29,6,-8
13880,-1552,-152,976,-29,5,-9
13885,-1472,-176,936,-31,6,-9
13890,-1472,-200,960,-33,5,-9
13895,-1488,-168,968,-33,8,-9
13900,-1472,-200,952,-34,6,-8
13905,-1496,-192,928,-33,5,-9
13910,-1504,-208,936,-32,6,-9
13915,-1504,-176,944,-31,7,-9
13920,-1472,-184,904,-33,8,-8
13925,-1480,-184,936,-31,7,-8
13930,-1488,-200,920,-32,9,-8
13935,-1496,-192,1024,-33,9,-9
13940,-1472,-176,944,-35,10,-7
13945,-1496,-200,904,-36,10,-7
13950,-1504,-192,912,-36,11,-9
13955,-1488,-184,928,-37,10,-8
13960,-1496,-184,936,-39,10,-9
13965,-1480,-184,944,-40,9,-8
13970,-1480,-192,928,-41,9,-8
13975,-1496,-192,920,-40,11,-8
13980,-1488,-208,944,-41,10,-7
13985,-1480,-192,944,-41,11,-8
13990,-1488,-192,944,-41,12,-7
13995,-1464,-200,928,-41,11,-8
14000,-1496,-176,928,-42,11,-8
14005,-1488,-184,936,-42,13,-8
14010,-1432,-216,936,-43,12,-8
14015,-1472,-192,952,-42,13,-7
14020,-1504,-192,936,-43,11,-8
14025,-1480,-192,960,-44,13,-7
14030,-1480,-208,944,-43,13,-8
14035,-1464,-176,952,-42,14,-7
14040,-1504,-184,968,-42,13,-6
14045,-1472,-208,944,-43,14,-6
14050,-1440,-176,936,-43,14,-5
14055,-1488,-184,944,-43,15,-5
14060,-1488,-184,928,-42,15,-6
14065,-1472,-176,936,-42,13,-7
14070,-1488,-176,944,-42,13,-7
14075,-1504,-160,952,-43,13,-6
14080,-1480,-192,936,-43,14,-5
14085,-1496,-176,928,-44,15,-6
14090,-1480,-200,952,-43,14,-5
14095,-1488,-168,952,-44,13,-6
14100,-1472,-184,936,-46,13,-6
14105,-1488,-192,960,-47,12,-6
14110,-1480,-192,968,-44,13,-5
14115,-1480,-184,944,-44,13,-6
14120,-1480,-208,944,-44,12,-6
14125,-1472,-208,928,-44,14,-4
14130,-1488,-200,936,-45,14,-5
14135,-1488,-192,960,-44,14,-5
14140,-1488,-192,936,-44,15,-6
14145,-1480,-208,960,-42,16,-6
14150,-1480,-200,920,-43,15,-6
14155,-1488,-168,936,-42,15,-5
14160,-1488,-184,952,-42,16,-6
14165,-1488,-192,944,-41,17,-5
14170,-1480,-184,928,-42,17,-5
14175,-1488,-184,944,-42,16,-4
14180,-1496,-184,928,-41,15,-5
14185,-1496,-176,936,-40,16,-7
14190,-1488,-184,952,-41,17,-6
14195,-1504,-192,952,-40,17,-6
14200,-1464,-184,944,-40,17,-6
14205,-1488,-184,936,-41,16,-6
14210,-1480,-192,928,-41,16,-6
14215,-1488,-168,912,-41,17,-5
14220,-1488,-224,968,-40,16,-6
14225,-1488,-208,912,-41,16,-6
14230,-1472,-184,912,-41,15,-5
14235,-1464,-200,952,-41,14,-6
14240,-1488,-192,960,-40,15,-7
14245,-1480,-184,944,-41,16,-7
14250,-1488,-184,936,-41,15,-6
14255,-1480,-168,912,-40,16,-5
14260,-1496,-184,928,-40,14,-5
14265,-1488,-200,944,-41,15,-8
14270,-1472,-192,904,-40,15,-7
14275,-1480,-192,944,-40,14,-7
14280,-1504,-200,944,-39,14,-7
14285,-1488,-192,960,-38,14,-6
14290,-1472,-200,936,-38,14,-6
14295,-1464,-168,944,-39,14,-7
14300,-1496,-192,960,-40,15,-6
14305,-1496,-192,944,-40,15,-6
14310,-1504,-176,920,-39,16,-5
14315,-1488,-176,936,-41,15,-4
14320,-1472,-184,936,-41,14,-4
14325,-1496,-216,920,-41,14,-4
14330,-1496,-168,960,-40,15,-5
14335,-1472,-192,912,-42,15,-6
14340,-1472,-192,912,-44,15,-5
14345,-1464,-184,936,-45,16,-4
14350,-1496,-184,912,-44,15,-4
14355,-1480,-200,920,-46,15,-5
14360,-1488,-192,944,-46,15,-4
14365,-1504,-192,928,-46,16,-6
14370,-1480,-184,984,-46,16,-5
14375,-1472,-184,928,-43,16,-5
14380,-1512,-160,960,-43,16,-4
14385,-1488,-192,952,-46,17,-6
14390,-1512,-184,920,-46,17,-4
14395,-1504,-176,928,-46,18,-4
14400,-1496,-200,944,-44,18,-4
14405,-1480,-200,912,-45,18,-3
14410,-1480,-192,936,-44,18,-3
14415,-1488,-184,936,-44,19,-4
14420,-1480,-168,936,-45,19,-5
14425,-1496,-192,952,-46,18,-5
14430,-1496,-168,944,-47,19,-4
14435,-1488,-184,936,-48,19,-3
14440,-1496,-176,936,-50,18,-2
14445,-1472,-176,920,-52,19,-2
14450,-1480,-192,920,-54,19,-1
14455,-1480,-192,992,-54,19,-2
14460,-1488,-176,936,-51,18,-2
14465,-1512,-192,960,-51,17,-2
14470,-1480,-168,920,-52,16,-3
14475,-1496,-192,960,-51,16,-2
14480,-1392,-136,744,-54,17,-4
14485,-1472,-168,920,-57,19,-3
14490,-1504,-168,920,-58,21,-4
14495,-1480,-168,944,-61,21,-4
14500,-1496,-216,928,-61,24,-6
14505,-1488,-168,928,-59,23,-4
14510,-1472,-184,920,-59,26,-4
14515,-1496,-208,928,-58,25,-4
14520,-1464,-208,928,-57,27,-5
14525,-1496,-200,952,-55,31,-3
14530,-1496,-192,936,-52,34,-3
14535,-1432,-160,1008,-47,38,-4
14540,-1480,-192,952,-43,39,-4
14545,-1488,-184,904,-41,40,-4
14550,-1496,-184,920,-41,39,-4
14555,-1496,-168,936,-38,37,-3
14560,-1480,-184,960,-41,34,-4
14565,-1488,-176,944,-42,32,-4
14570,-1488,-184,928,-44,29,-2
14575,-1472,-184,928,-45,25,0
14580,-1496,-184,928,-46,22,0
14585,-1480,-176,944,-46,19,1
14590,-1480,-200,936,-48,17,2
14595,-1488,-168,936,-48,15,2
14600,-1496,-160,944,-50,17,2
14605,-1480,-184,928,-53,18,2
14610,-1480,-184,928,-56,19,0
14615,-1456,-168,952,-58,20,1
14620,-1488,-184,928,-60,21,2
14625,-1480,-208,944,-65,25,2
14630,-1504,-184,984,-67,27,1
14635,-1488,-168,936,-68,28,1
14640,-1464,-200,920,-67,31,1
14645,-1488,-184,968,-68,31,1
14650,-1472,-192,896,-68,32,0
14655,-1488,-232,896,-67,30,0
14660,-1472,-224,928,-65,31,-1
14665,-1480,-208,928,-63,29,0
14670,-1472,-200,928,-61,29,0
14675,-1496,-176,936,-61,29,0
14680,-1496,-184,920,-60,28,0
14685,-1480,-176,936,-60,28,0
14690,-1496,-160,928,-60,29,0
14695,-1472,-192,952,-62,29,0
14700,-1456,-176,920,-63,28,0
14705,-1488,-240,912,-66,28,0
14710,-1472,-192,952,-67,29,1
14715,-1472,-184,944,-71,30,3
14720,-1472,-208,920,-72,31,2
14725,-1480,-208,920,-73,33,2
14730,-1488,-176,928,-75,33,3
14735,-1496,-216,944,-76,32,3
14740,-1464,-208,912,-74,33,2
14745,-1480,-184,944,-74,33,4
14750,-1480,-184,936,-76,34,3
14755,-1480,-200,920,-75,34,3
14760,-1488,-192,912,-73,34,3
14765,-1480,-200,896,-71,33,3
14770,-1480,-184,928,-71,32,3
14775,-1464,-216,936,-72,32,3
14780,-1488,-176,952,-73,31,4
14785,-1480,-184,920,-74,30,4
14790,-1488,-168,912,-77,30,3
14795,-1480,-192,920,-78,31,3
14800,-1496,-216,936,-79,31,3
14805,-1496,-208,968,-81,31,4
14810,-1504,-192,920,-82,33,4
14815,-1504,-184,928,-80,32,5
14820,-1512,-184,936,-79,34,5
14825,-1504,-200,920,-77,33,5
14830,-1488,-216,936,-74,34,5
14835,-1480,-208,920,-71,35,4
14840,-1488,-200,944,-67,36,3
14845,-1496,-208,936,-64,36,4
14850,-1488,-208,920,-61,37,3
14855,-1480,-216,952,-58,38,4
14860,-1504,-208,920,-54,37,4
14865,-1520,-184,904,-50,37,4
14870,-1472,-216,944,-48,36,3
14875,-1488,-192,920,-47,35,4
14880,-1488,-208,928,-45,33,4
14885,-1520,-184,904,-45,33,4
14890,-1480,-168,912,-47,33,4
14895,-1512,-200,864,-48,34,4
14900,-1488,-176,936,-50,32,3
14905,-1512,-160,944,-54,32,4
14910,-1488,-208,920,-55,32,5
14915,-1496,-176,944,-60,32,4
14920,-1504,-184,936,-64,32,3
14925,-1504,-168,912,-65,31,4
14930,-1496,-160,912,-69,30,3
14935,-1496,-208,912,-70,32,3
14940,-1496,-200,936,-72,31,4
14945,-1504,-184,936,-74,32,4
14950,-1488,-184,928,-71,33,3
14955,-1496,-200,928,-70,36,3
14960,-1496,-200,936,-70,37,4
14965,-1512,-168,928,-69,37,2
14970,-1512,-208,936,-70,36,4
14975,-1504,-192,928,-65,38,5
14980,-1512,-184,920,-65,37,5
14985,-1480,-216,928,-65,38,5
14990,-1496,-208,936,-65,37,3
14995,-1496,-192,896,-65,37,3
