timestamp,accel_x,accel_y,accel_z,gyro_x,gyro_y,gyro_z
0,-24,-1976,168,-66,35,-16
5,-40,-2000,128,-66,34,-17
10,-24,-1960,152,-67,32,-17
15,-32,-1984,176,-68,31,-16
20,-24,-1968,160,-71,32,-18
25,-64,-1968,136,-71,32,-18
30,-48,-1984,160,-71,34,-17
35,-48,-1952,168,-72,34,-18
40,-40,-1976,160,-71,36,-16
45,-64,-1960,192,-70,35,-17
50,-32,-1984,160,-68,36,-16
55,-24,-1984,136,-67,36,-17
60,-24,-1992,136,-68,37,-17
65,-32,-1992,152,-69,39,-16
70,-40,-1984,136,-73,41,-16
75,-48,-1984,104,-79,44,-15
80,-8,-2000,128,-84,47,-15
85,-32,-2024,128,-90,49,-16
90,-32,-2016,136,-93,52,-15
95,-16,-2040,112,-99,55,-17
100,-24,-2008,144,-101,58,-19
105,-16,-2032,128,-103,62,-19
110,-16,-2016,144,-104,64,-21
115,-24,-2008,152,-100,66,-22
120,-40,-2008,128,-98,68,-23
125,-16,-2024,104,-94,69,-23
130,-16,-1992,128,-90,70,-25
135,-16,-2016,136,-88,72,-25
140,-24,-2008,128,-83,72,-26
145,-24,-2008,160,-79,72,-25
150,-8,-2008,136,-78,71,-23
155,-16,-1992,144,-75,74,-21
160,-16,-2000,120,-71,75,-19
165,-40,-2008,192,-65,78,-18
170,-48,-2000,136,-64,81,-17
175,-16,-1992,144,-64,82,-15
180,-32,-1992,120,-64,85,-15
185,-16,-2008,144,-62,86,-13
190,-32,-2008,152,-62,84,-11
195,-40,-2000,128,-63,84,-11
200,-16,-1992,120,-63,83,-8
205,-24,-1992,128,-68,81,-8
210,-24,-2000,144,-69,81,-6
215,-16,-2000,136,-74,80,-5
220,-32,-1984,136,-77,80,-5
225,-24,-1976,128,-81,80,-5
230,-40,-1960,168,-84,79,-4
235,-8,-1976,136,-84,77,-6
240,0,-1976,192,-87,75,-6
245,-16,-1976,168,-88,73,-4
250,-56,-1984,176,-86,69,-4
255,-64,-1992,168,-83,64,-4
260,-64,-1984,200,-80,61,-4
265,-56,-1992,192,-79,59,-2
270,-56,-2000,184,-77,56,-1
275,-72,-1984,200,-76,56,1
280,-56,-1992,216,-73,52,2
285,-40,-2016,184,-73,50,4
290,-80,-1992,176,-71,47,5
295,-48,-2008,176,-71,48,5
300,-72,-2000,168,-69,46,8
305,-72,-1992,152,-67,46,10
310,-56,-1992,160,-63,45,13
315,-48,-1984,120,-60,45,13
320,-56,-1968,136,-57,45,14
325,-48,-1968,96,-55,44,13
330,-48,-1960,144,-55,42,13
335,-48,-1952,120,-54,40,12
340,-32,-1960,120,-57,39,10
345,-16,-1952,120,-62,38,7
350,-24,-1976,96,-67,36,5
355,-40,-1936,152,-75,38,2
360,-16,-1944,136,-81,36,2
365,-24,-1952,96,-87,35,0
370,-24,-1944,120,-93,33,0
375,-64,-1920,144,-100,32,-1
380,-32,-1936,104,-104,32,-1
385,-32,-1952,96,-108,34,-2
390,-8,-1936,88,-113,36,-4
395,-24,-1936,96,-119,41,-7
400,-8,-1928,64,-127,42,-8
405,-8,-1920,64,-133,43,-9
410,-8,-1928,64,-139,44,-9
415,0,-1896,72,-145,44,-11
420,-16,-1904,64,-149,45,-12
425,-16,-1904,72,-147,45,-11
430,-56,-1888,64,-146,46,-9
435,-16,-1880,64,-145,46,-8
440,-16,-1872,88,-141,45,-5
445,-48,-1848,104,-131,40,-5
450,-32,-1872,112,-126,38,-6
455,-40,-1864,112,-122,34,-4
460,-72,-1872,136,-120,28,-3
465,-56,-1832,104,-120,22,-2
470,-64,-1872,120,-121,17,0
475,-88,-1832,136,-124,16,2
480,-48,-1824,88,-127,14,1
485,-72,-1816,88,-135,16,-2
490,-48,-1824,80,-142,19,-5
495,-48,-1776,72,-153,23,-12
500,-24,-1808,56,-167,29,-22
505,-32,-1784,72,-178,27,-30
510,-40,-1760,72,-185,22,-38
515,-32,-1776,24,-195,19,-49
520,-40,-1792,56,-203,14,-56
525,-32,-1800,32,-210,13,-66
530,-56,-1784,56,-217,12,-73
535,-24,-1800,24,-226,19,-81
540,-32,-1816,48,-236,27,-90
545,-32,-1856,48,-244,38,-96
550,-64,-1864,72,-252,43,-100
555,-48,-1840,64,-254,51,-103
560,-24,-1896,32,-256,58,-106
565,-40,-1936,80,-261,68,-105
570,-48,-1960,64,-261,77,-105
575,-32,-1992,64,-249,85,-104
580,-48,-1984,88,-230,93,-105
585,8,-1976,80,-211,107,-105
590,0,-1976,80,-211,133,-106
595,0,-1984,64,-222,157,-110
600,-24,-2032,144,-226,174,-115
605,-24,-2048,152,-212,182,-119
610,-8,-2016,136,-189,184,-115
615,-64,-2016,144,-170,189,-112
620,-24,-1976,112,-149,194,-110
625,-24,-1976,112,-135,205,-107
630,-40,-1944,120,-127,219,-106
635,-48,-1944,120,-120,230,-106
640,-40,-1912,144,-111,242,-103
645,-40,-1920,128,-99,249,-100
650,-32,-1880,144,-89,258,-98
655,-48,-1880,160,-91,265,-100
660,-40,-1904,128,-92,268,-104
665,-16,-1888,160,-98,267,-108
670,-48,-1896,136,-104,256,-115
675,-72,-1912,128,-109,243,-121
680,-64,-1928,112,-122,230,-131
685,-72,-1968,96,-135,217,-142
690,-96,-1944,72,-142,204,-150
695,-120,-1952,40,-161,194,-160
700,-128,-1968,40,-181,188,-167
705,-104,-2016,40,-193,187,-172
710,-88,-2008,80,-194,185,-181
715,-96,-2016,64,-191,188,-181
720,-24,-2040,48,-182,196,-178
725,-32,-2000,72,-174,207,-180
730,16,-2016,96,-156,220,-173
735,0,-2000,72,-134,233,-170
740,24,-2008,88,-115,248,-164
745,-8,-2056,136,-95,262,-157
750,0,-2024,128,-70,272,-151
755,-16,-2096,152,-55,279,-146
760,-40,-2080,192,-35,281,-146
765,-64,-2104,112,-16,280,-151
770,-56,-2120,112,-13,278,-156
775,-88,-2144,56,-26,279,-159
780,-96,-2192,48,-46,281,-167
785,-72,-2176,8,-67,285,-173
790,-32,-2168,-16,-93,295,-178
795,-16,-2144,-48,-119,307,-186
800,16,-2136,-24,-134,324,-194
805,88,-2152,0,-133,340,-198
810,88,-2120,24,-107,353,-204
815,136,-2112,32,-68,366,-202
820,104,-2112,64,-29,380,-206
825,144,-2056,16,14,394,-208
830,152,-2016,56,51,407,-203
835,168,-1960,16,74,420,-202
840,192,-1912,-32,72,440,-201
845,208,-1904,-56,53,460,-200
850,208,-1880,-8,31,473,-198
855,224,-1848,8,13,483,-196
860,248,-1856,64,5,487,-189
865,208,-1848,72,1,484,-179
870,224,-1872,72,1,473,-166
875,192,-1896,104,6,458,-154
880,168,-1928,168,15,441,-142
885,176,-1936,144,19,421,-134
890,136,-1904,128,20,401,-132
895,120,-1928,104,1,379,-129
900,88,-1976,120,-39,354,-132
905,64,-2032,136,-82,330,-135
910,80,-2104,120,-115,308,-139
915,64,-2200,88,-154,286,-153
920,64,-2304,80,-190,269,-170
925,56,-2360,128,-218,255,-191
930,32,-2408,96,-230,245,-209
935,48,-2448,104,-225,240,-224
940,40,-2488,128,-204,236,-240
945,40,-2496,136,-173,234,-253
950,72,-2496,160,-135,234,-263
955,80,-2472,144,-91,231,-268
960,88,-2464,184,-45,227,-270
965,152,-2440,176,0,221,-266
970,144,-2432,160,38,217,-257
975,176,-2432,144,70,212,-242
980,200,-2392,112,97,206,-225
985,240,-2352,88,116,206,-207
990,248,-2352,80,120,203,-192
995,280,-2304,72,120,203,-176
1000,304,-2280,112,117,204,-161
1005,304,-2256,56,110,205,-146
1010,312,-2216,64,105,205,-131
1015,312,-2184,72,97,207,-119
1020,296,-2160,64,86,206,-108
1025,312,-2160,56,74,203,-97
1030,296,-2128,48,66,199,-89
1035,280,-2088,72,57,195,-81
1040,272,-2096,64,52,191,-71
1045,248,-2088,88,51,187,-62
1050,240,-2120,72,52,183,-56
1055,208,-2080,88,49,182,-47
1060,176,-2104,64,47,180,-43
1065,176,-2080,80,45,177,-41
1070,136,-2064,88,42,177,-37
1075,152,-2088,104,42,173,-32
1080,112,-2088,80,46,169,-30
1085,96,-2072,104,56,160,-28
1090,96,-2048,112,65,154,-25
1095,88,-2056,88,70,151,-22
1100,104,-2040,72,76,146,-18
1105,72,-1992,40,87,139,-13
1110,88,-2016,64,91,132,-11
1115,64,-1984,72,95,127,-7
1120,64,-1960,72,95,120,-4
1125,80,-1952,32,92,116,-4
1130,88,-1936,64,89,109,0
1135,96,-1928,8,83,103,-1
1140,80,-1888,24,76,98,-2
1145,112,-1912,48,71,95,-2
1150,112,-1904,16,63,94,-2
1155,112,-1872,24,53,92,-3
1160,104,-1864,-8,41,89,-2
1165,128,-1864,32,24,86,-2
1170,112,-1864,-16,8,85,1
1175,112,-1856,0,-9,83,3
1180,96,-1888,24,-27,79,6
1185,88,-1880,24,-40,74,9
1190,80,-1936,48,-52,73,15
1195,72,-1944,0,-56,74,19
1200,72,-1960,40,-53,71,23
1205,40,-1952,40,-49,70,27
1210,56,-1952,32,-48,71,26
1215,56,-1992,32,-51,76,27
1220,40,-1952,24,-54,83,28
1225,16,-1984,24,-53,92,26
1230,48,-1992,16,-51,102,22
1235,0,-1992,-8,-51,113,17
1240,32,-1984,-24,-53,125,12
1245,56,-2000,-64,-55,137,4
1250,56,-1960,-80,-57,145,-5
1255,64,-1968,-88,-67,153,-14
1260,72,-1960,-112,-78,164,-24
1265,88,-1960,-160,-92,175,-37
1270,96,-1920,-152,-111,188,-49
1275,88,-1928,-168,-131,203,-58
1280,96,-1928,-200,-151,222,-68
1285,104,-1904,-184,-167,242,-73
1290,112,-1904,-192,-182,258,-78
1295,120,-1872,-168,-192,275,-81
1300,168,-1888,-176,-199,294,-83
1305,176,-1840,-168,-200,318,-84
1310,192,-1832,-176,-202,342,-85
1315,248,-1800,-160,-203,364,-88
1320,280,-1768,-168,-208,388,-92
1325,256,-1792,-128,-215,410,-96
1330,328,-1744,-96,-220,430,-98
1335,344,-1752,-96,-219,441,-101
1340,352,-1728,-72,-215,443,-102
1345,368,-1696,-56,-213,440,-97
1350,336,-1672,-16,-212,434,-92
1355,344,-1664,40,-205,421,-87
1360,368,-1664,32,-192,407,-82
1365,360,-1640,56,-174,390,-75
1370,352,-1624,88,-149,368,-67
1375,304,-1608,64,-125,341,-57
1380,296,-1584,88,-100,309,-44
1385,248,-1584,80,-71,265,-32
1390,216,-1536,112,-45,226,-20
1395,208,-1528,144,-16,187,-9
1400,200,-1528,120,12,150,3
1405,168,-1488,136,41,116,11
1410,152,-1480,128,66,84,16
1415,168,-1472,144,86,56,21
1420,152,-1472,152,103,29,22
1425,144,-1448,136,125,5,25
1430,128,-1432,184,139,-16,25
1435,144,-1408,168,150,-35,26
1440,88,-1360,176,158,-54,29
1445,96,-1368,168,165,-73,37
1450,120,-1312,184,173,-88,49
1455,112,-1288,152,178,-98,58
1460,128,-1312,120,182,-105,70
1465,128,-1272,152,182,-113,78
1470,120,-1272,128,183,-115,85
1475,120,-1264,112,184,-115,92
1480,160,-1280,96,188,-112,98
1485,144,-1296,96,187,-106,104
1490,128,-1320,72,188,-95,108
1495,80,-1416,32,192,-78,116
1500,96,-1456,48,206,-63,129
1505,72,-1504,-8,223,-44,137
1510,56,-1496,-64,236,-22,142
1515,48,-1544,-176,225,6,145
1520,40,-1608,-216,188,46,145
1525,88,-1720,-216,131,88,137
1530,128,-1800,-216,67,125,124
1535,176,-1896,-200,-6,162,108
1540,208,-2000,-104,-96,190,80
1545,224,-2136,32,-179,205,45
1550,232,-2264,160,-234,202,11
1555,232,-2448,352,-255,180,-18
1560,248,-2560,472,-236,145,-45
1565,232,-2688,608,-176,111,-70
1570,200,-2768,688,-84,80,-94
1575,88,-2792,696,30,58,-129
1580,-16,-2792,752,152,43,-159
1585,-56,-2824,776,289,30,-178
1590,-128,-2704,800,445,21,-184
1595,-184,-2624,776,611,15,-175
1600,-272,-2480,696,745,2,-157
1605,-312,-2440,600,833,-4,-134
1610,-344,-2360,520,877,-18,-105
1615,-296,-2232,392,885,-46,-72
1620,-264,-2144,288,851,-73,-27
1625,-216,-2160,208,776,-96,18
1630,-128,-2080,104,683,-108,66
1635,-80,-2048,24,563,-104,110
1640,-48,-1992,0,419,-91,139
1645,24,-2032,40,270,-74,158
1650,112,-2032,88,134,-60,162
1655,128,-2040,136,40,-49,156
1660,168,-2072,216,-19,-45,142
1665,192,-2104,280,-48,-44,127
1670,208,-2136,336,-62,-51,111
1675,216,-2184,384,-63,-66,98
1680,176,-2240,432,-56,-83,86
1685,168,-2296,496,-37,-101,79
1690,128,-2320,512,-8,-119,74
1695,152,-2400,528,33,-135,73
1700,72,-2432,552,84,-143,70
1705,48,-2464,520,142,-144,70
1710,24,-2456,512,197,-137,73
1715,-8,-2456,480,243,-128,83
1720,-24,-2456,440,278,-116,94
1725,-40,-2400,400,305,-106,104
1730,-32,-2392,360,317,-96,115
1735,-48,-2344,320,313,-84,121
1740,-32,-2328,336,297,-72,123
1745,-64,-2272,224,270,-60,119
1750,-72,-2264,232,238,-47,112
1755,-40,-2248,208,208,-33,104
1760,-24,-2216,240,182,-21,95
1765,-32,-2192,248,159,-10,89
1770,-8,-2168,256,139,-3,81
1775,-8,-2120,280,127,0,73
1780,24,-2104,288,121,0,68
1785,8,-2048,280,124,-1,63
1790,0,-2000,272,124,-5,60
1795,32,-1976,296,128,-9,55
1800,16,-1952,296,129,-14,53
1805,8,-1928,280,132,-16,53
1810,48,-1912,288,132,-18,54
1815,16,-1920,328,135,-20,54
1820,32,-1912,280,136,-23,53
1825,40,-1944,288,130,-28,56
1830,32,-1936,272,119,-33,55
1835,40,-1960,280,108,-35,52
1840,24,-1976,272,94,-42,48
1845,24,-1976,256,78,-46,47
1850,24,-2000,264,60,-49,44
1855,16,-2000,280,43,-51,43
1860,24,-2008,264,32,-52,42
1865,48,-1992,280,19,-50,40
1870,32,-2008,304,14,-48,40
1875,64,-2040,328,19,-46,39
1880,40,-2048,344,29,-43,37
1885,56,-2040,328,37,-39,38
1890,56,-2032,344,47,-35,36
1895,56,-1992,296,57,-30,39
1900,56,-2000,320,63,-20,42
1905,64,-1984,304,58,-12,44
1910,88,-1968,288,50,-3,46
1915,88,-1952,304,39,5,49
1920,80,-1920,256,30,13,51
1925,80,-1952,272,18,16,56
1930,96,-1976,304,13,19,57
1935,80,-1968,352,14,20,61
1940,40,-1944,336,14,21,64
1945,8,-1960,360,17,22,65
1950,-32,-1984,368,21,21,67
1955,-24,-1992,336,21,20,68
1960,-32,-1992,352,18,20,69
1965,-56,-2000,328,17,21,70
1970,-64,-1984,320,14,16,69
1975,-80,-1976,288,7,12,71
1980,-64,-1968,280,1,10,71
1985,-64,-1976,280,-3,12,70
1990,-48,-1944,280,-9,14,67
1995,-64,-1936,288,-6,16,62
2000,-40,-1952,304,1,15,60
2005,-48,-1888,288,10,15,56
2010,-16,-1904,288,13,13,52
2015,-24,-1896,312,10,11,48
2020,-24,-1848,256,4,9,43
2025,-24,-1824,256,-7,4,40
2030,0,-1840,272,-21,0,37
2035,8,-1848,248,-38,-8,34
2040,48,-1872,280,-53,-12,29
2045,32,-1872,296,-68,-13,24
2050,72,-1904,272,-78,-12,20
2055,72,-1912,320,-79,-7,16
2060,88,-1928,304,-76,-5,12
2065,56,-1944,328,-69,-4,9
2070,64,-1944,312,-62,0,5
2075,24,-1960,304,-58,2,6
2080,32,-1944,336,-51,1,6
2085,16,-1936,304,-50,0,6
2090,0,-1936,296,-54,-1,8
2095,0,-1928,304,-61,0,10
2100,-8,-1944,272,-66,2,10
2105,-8,-1960,296,-71,2,13
2110,-8,-1960,288,-73,3,16
2115,-32,-1928,296,-74,1,17
2120,-48,-1960,304,-75,-2,16
2125,-56,-1952,304,-75,-7,18
2130,-40,-1976,344,-77,-15,16
2135,-72,-1960,352,-73,-21,15
2140,-72,-1960,344,-69,-28,14
2145,-56,-1952,336,-64,-34,13
2150,-88,-1944,360,-57,-40,9
2155,-64,-1936,376,-49,-43,4
2160,-72,-1920,376,-44,-44,1
2165,-48,-1928,336,-43,-47,-1
2170,-56,-1920,384,-44,-48,-5
2175,-24,-1928,392,-46,-49,-8
2180,-32,-1904,384,-50,-49,-11
2185,-32,-1904,376,-57,-50,-14
2190,-24,-1896,352,-69,-48,-14
2195,0,-1904,360,-81,-47,-13
2200,0,-1888,336,-90,-46,-9
2205,24,-1920,344,-100,-46,-3
2210,56,-1896,352,-105,-45,1
2215,72,-1928,336,-110,-43,5
2220,80,-1920,336,-120,-42,12
2225,96,-1952,368,-129,-39,16
2230,96,-1936,384,-137,-38,19
2235,128,-1968,344,-144,-35,22
2240,104,-1944,320,-146,-33,21
2245,72,-1952,360,-148,-34,22
2250,88,-1952,368,-149,-39,22
2255,88,-1984,336,-146,-45,21
2260,96,-1968,352,-142,-50,18
2265,80,-1976,344,-136,-52,14
2270,40,-1968,304,-129,-55,10
2275,-32,-1944,320,-125,-58,11
2280,-128,-1928,304,-124,-63,17
2285,-64,-1952,328,-135,-68,34
2290,16,-1984,296,-149,-69,42
2295,40,-1952,352,-149,-65,44
2300,64,-1976,352,-138,-57,41
2305,64,-1960,320,-125,-49,34
2310,56,-1944,304,-113,-40,28
2315,48,-1952,264,-105,-29,22
2320,48,-1952,296,-104,-19,16
2325,16,-1968,296,-107,-10,10
2330,64,-1968,288,-109,-4,9
2335,24,-1960,304,-108,-3,7
2340,56,-1952,312,-105,-7,8
2345,16,-1960,312,-103,-15,11
2350,56,-1952,304,-104,-22,12
2355,40,-1920,328,-106,-30,12
2360,72,-1944,336,-101,-33,9
2365,40,-1872,328,-93,-34,4
2370,-8,-1856,320,-83,-33,-3
2375,-8,-1896,304,-82,-31,-9
2380,-24,-1888,280,-84,-34,-13
2385,-56,-1888,232,-91,-40,-18
2390,-72,-1872,264,-98,-47,-24
2395,-24,-1912,240,-105,-51,-26
2400,-32,-1920,264,-111,-53,-28
2405,-48,-1928,320,-116,-56,-25
2410,-32,-1912,264,-117,-55,-24
2415,-32,-1904,272,-123,-49,-20
2420,-40,-1888,304,-131,-45,-17
2425,-16,-1880,304,-139,-42,-12
2430,-24,-1912,296,-148,-36,-8
2435,-16,-1896,272,-166,-32,-2
2440,0,-1912,288,-187,-27,0
2445,-24,-1936,272,-200,-22,2
2450,0,-1960,288,-207,-20,3
2455,40,-1968,272,-210,-19,2
2460,-8,-1976,296,-215,-19,-1
2465,0,-2000,288,-203,-20,-7
2470,-32,-1960,272,-181,-21,-8
2475,16,-1976,248,-176,-24,-6
2480,40,-1960,264,-178,-29,-9
2485,16,-1968,280,-183,-34,-10
2490,40,-1976,280,-181,-36,-12
2495,48,-1960,272,-174,-36,-14
2500,56,-1968,288,-160,-32,-17
2505,0,-1920,264,-146,-27,-18
2510,-32,-1944,256,-141,-21,-16
2515,-8,-1928,232,-142,-17,-16
2520,32,-1976,248,-145,-15,-16
2525,0,-1968,264,-145,-14,-16
2530,16,-1928,240,-145,-12,-14
2535,8,-1912,264,-155,-9,-10
2540,-16,-1944,248,-174,-6,-9
2545,-16,-1936,224,-177,-7,-9
2550,0,-1928,248,-175,-8,-8
2555,-8,-1904,208,-173,-10,-8
2560,-16,-1920,216,-182,-9,-10
2565,-40,-1912,224,-182,-7,-14
2570,-24,-1912,208,-175,-9,-18
2575,-16,-1880,160,-179,-8,-19
2580,-32,-1912,200,-204,-1,-24
2585,-48,-1928,248,-210,1,-34
2590,-16,-1960,216,-195,-2,-42
2595,0,-1952,232,-175,-3,-53
2600,24,-1952,248,-143,-4,-66
2605,-16,-1912,248,-111,2,-79
2610,32,-1912,248,-80,6,-87
2615,8,-1872,248,-56,13,-97
2620,40,-1880,216,-41,18,-107
2625,-32,-1864,224,-33,20,-116
2630,-16,-1904,240,-26,24,-121
2635,-8,-1872,208,-28,22,-123
2640,8,-1888,192,-39,19,-127
2645,-48,-1880,208,-52,17,-129
2650,-40,-1920,200,-62,12,-124
2655,-88,-1888,176,-77,7,-119
2660,216,-1952,216,-96,-1,-107
2665,-256,-1816,208,-109,5,-85
2670,96,-1920,128,-164,-23,-51
2675,-24,-1920,144,-197,-50,-74
2680,-96,-1880,216,-191,-52,-74
2685,-56,-1944,200,-158,-41,-65
2690,-120,-1920,200,-126,-40,-50
2695,-128,-1928,256,-126,-28,-38
2700,-88,-1920,288,-141,-14,-26
2705,-128,-1960,256,-150,-15,-22
2710,-64,-1976,272,-155,-33,-11
2715,-128,-1976,272,-153,-50,0
2720,-72,-1960,288,-146,-60,11
2725,-88,-1984,288,-136,-68,16
2730,-64,-2016,312,-127,-72,22
2735,-48,-1992,264,-118,-74,22
2740,-64,-2032,248,-108,-73,27
2745,-40,-2016,232,-98,-75,32
2750,-24,-2008,248,-91,-79,33
2755,64,-2032,224,-90,-86,32
2760,0,-1992,224,-90,-87,26
2765,48,-2008,224,-86,-84,16
2770,16,-2000,208,-76,-81,2
2775,16,-1984,200,-67,-74,-9
2780,8,-1992,224,-64,-65,-18
2785,-112,-1960,168,-69,-58,-31
2790,-32,-1992,216,-84,-59,-28
2795,32,-1984,184,-96,-58,-40
2800,-8,-1976,224,-109,-59,-64
2805,0,-1968,216,-106,-53,-82
2810,0,-1976,208,-94,-46,-97
2815,0,-1944,208,-83,-38,-105
2820,-8,-1920,168,-83,-30,-114
2825,-32,-1976,192,-87,-28,-117
2830,-72,-1944,176,-87,-30,-115
2835,-96,-1936,184,-86,-37,-108
2840,-80,-1960,160,-87,-46,-100
2845,-120,-1944,184,-95,-55,-89
2850,-96,-1928,208,-102,-62,-73
2855,-128,-1880,184,-106,-66,-56
2860,-112,-1912,232,-120,-70,-35
2865,-72,-1936,200,-131,-76,-17
2870,-120,-1896,208,-129,-79,-1
2875,-104,-1944,200,-126,-79,16
2880,-80,-1944,208,-115,-84,32
2885,-40,-1952,168,-102,-88,43
2890,-64,-1912,112,-89,-92,47
2895,-48,-1912,152,-78,-96,53
2900,-32,-1912,128,-77,-99,57
2905,-40,-1912,96,-75,-104,52
2910,-48,-1896,88,-77,-111,46
2915,-64,-1872,88,-80,-120,37
2920,-88,-1832,88,-82,-124,31
2925,-80,-1824,120,-81,-128,24
2930,-72,-1840,120,-87,-130,14
2935,-72,-1816,120,-89,-136,-2
2940,-96,-1800,136,-94,-137,-10
2945,-72,-1784,136,-98,-137,-19
2950,-112,-1800,136,-101,-132,-25
2955,-128,-1808,128,-95,-131,-28
2960,-120,-1824,168,-88,-126,-19
2965,-128,-1856,128,-78,-116,-2
2970,-104,-1832,120,-70,-112,21
2975,-128,-1824,96,-69,-118,26
2980,-128,-1824,88,-73,-133,36
2985,-120,-1864,104,-68,-141,47
2990,-128,-1816,128,-52,-149,58
2995,-168,-1792,144,-35,-158,66
3000,-184,-1848,160,-20,-169,76
3005,-128,-1816,128,-9,-186,81
3010,-192,-1800,112,-6,-199,85
3015,-224,-1808,88,-8,-212,93
3020,-232,-1800,136,-13,-230,100
3025,-224,-1792,128,-16,-252,105
3030,-184,-1816,144,-19,-269,109
3035,-232,-1800,144,-16,-282,113
3040,-240,-1776,168,-9,-292,116
3045,-208,-1792,160,-5,-304,116
3050,-224,-1792,176,-5,-311,113
3055,-200,-1792,192,-2,-317,110
3060,-208,-1800,136,-4,-321,106
3065,-208,-1776,144,-9,-327,97
3070,-208,-1744,96,-15,-332,86
3075,-160,-1760,104,-26,-338,76
3080,-192,-1760,72,-34,-342,64
3085,-160,-1760,72,-39,-345,53
3090,-144,-1776,88,-46,-347,41
3095,-144,-1752,96,-52,-348,29
3100,-168,-1752,144,-64,-349,16
3105,-200,-1776,112,-74,-348,1
3110,-184,-1752,160,-83,-348,-12
3115,-200,-1752,152,-89,-349,-26
3120,-200,-1744,168,-98,-350,-38
3125,-240,-1728,144,-103,-354,-51
3130,-256,-1720,176,-106,-358,-61
3135,-248,-1720,200,-110,-360,-69
3140,-240,-1728,176,-107,-361,-76
3145,-264,-1720,160,-98,-359,-83
3150,-248,-1728,200,-89,-357,-89
3155,-272,-1720,192,-76,-351,-96
3160,-248,-1696,200,-65,-343,-104
3165,-320,-1656,168,-53,-335,-112
3170,-312,-1688,176,-43,-324,-122
3175,-304,-1696,184,-33,-312,-133
3180,-304,-1664,192,-27,-299,-145
3185,-304,-1680,216,-23,-287,-159
3190,-304,-1672,216,-17,-275,-170
3195,-312,-1648,208,-13,-265,-182
3200,-304,-1640,240,-7,-256,-196
3205,-296,-1672,240,1,-249,-208
3210,-280,-1632,240,5,-237,-223
3215,-272,-1624,248,1,-217,-237
3220,-264,-1616,192,-6,-197,-252
3225,-240,-1616,232,-17,-176,-268
3230,-240,-1608,224,-24,-155,-287
3235,-232,-1592,208,-32,-134,-303
3240,-232,-1584,224,-41,-114,-322
3245,-200,-1584,208,-43,-95,-336
3250,-224,-1568,200,-45,-75,-352
3255,-224,-1584,200,-51,-56,-366
3260,-208,-1576,232,-58,-38,-380
3265,-192,-1560,240,-67,-18,-395
3270,-176,-1552,248,-78,4,-405
3275,-160,-1512,232,-87,29,-415
3280,-208,-1488,296,-105,54,-426
3285,-160,-1472,248,-134,81,-434
3290,-152,-1472,208,-171,109,-443
3295,-152,-1448,216,-210,135,-451
3300,-128,-1432,176,-250,161,-461
3305,-120,-1448,136,-290,189,-471
3310,-96,-1424,96,-325,216,-479
3315,-56,-1432,96,-350,245,-483
3320,-72,-1400,80,-372,273,-489
3325,-64,-1352,24,-393,304,-495
3330,-48,-1320,-24,-416,338,-501
3335,-48,-1296,-40,-439,374,-505
3340,-32,-1272,-112,-463,412,-507
3345,-48,-1264,-136,-491,452,-513
3350,-56,-1264,-160,-522,489,-521
3355,-64,-1224,-184,-555,519,-532
3360,-64,-1224,-200,-591,543,-546
3365,-80,-1256,-208,-627,565,-559
3370,-56,-1272,-272,-659,583,-571
3375,-96,-1272,-312,-689,604,-588
3380,-112,-1256,-320,-715,626,-609
3385,-128,-1296,-352,-739,648,-635
3390,-128,-1240,-368,-763,667,-663
3395,-240,-1304,-448,-783,688,-691
3400,-272,-1344,-512,-808,711,-713
3405,-296,-1336,-536,-835,738,-733
3410,-296,-1336,-560,-866,759,-749
3415,-280,-1368,-560,-894,769,-768
3420,-240,-1344,-528,-915,768,-788
3425,-224,-1328,-616,-931,766,-810
3430,-176,-1336,-648,-943,770,-831
3435,-120,-1320,-720,-951,776,-854
3440,-96,-1312,-728,-955,780,-877
3445,-96,-1336,-736,-958,782,-901
3450,-40,-1352,-680,-952,771,-926
3455,-48,-1344,-632,-921,753,-953
3460,8,-1376,-512,-880,737,-985
3465,72,-1408,-448,-833,727,-1023
3470,128,-1432,-360,-787,720,-1067
3475,256,-1464,-352,-742,718,-1126
3480,304,-1544,-320,-700,727,-1192
3485,336,-1568,-392,-652,728,-1264
3490,392,-1592,-472,-621,716,-1336
3495,328,-1544,-584,-613,683,-1403
3500,344,-1664,-688,-640,625,-1448
3505,360,-1664,-824,-667,548,-1465
3510,360,-1776,-904,-689,455,-1472
3515,424,-1912,-832,-687,360,-1470
3520,496,-2056,-792,-653,276,-1472
3525,504,-2224,-664,-589,214,-1481
3530,536,-2312,-632,-473,155,-1500
3535,488,-2432,-488,-347,104,-1535
3540,568,-2528,-432,-195,56,-1581
3545,568,-2656,-240,-28,20,-1622
3550,480,-2760,-104,175,3,-1630
3555,544,-2776,48,402,-12,-1626
3560,584,-2728,256,640,-13,-1595
3565,568,-2744,312,870,-20,-1577
3570,632,-2688,344,1055,-58,-1542
3575,680,-2632,448,1217,-113,-1552
3580,680,-2504,408,1383,-198,-1585
3585,632,-2464,384,1542,-273,-1632
3590,760,-2232,288,1649,-368,-1693
3595,824,-2048,96,1674,-464,-1764
3600,904,-1800,-128,1611,-538,-1869
3605,856,-1688,-216,1439,-568,-1991
3610,976,-1496,-96,1152,-559,-2118
3615,952,-1352,-64,908,-519,-2269
3620,1048,-1352,56,705,-449,-2423
3625,1184,-1344,280,565,-362,-2579
3630,1360,-1344,400,507,-282,-2737
3635,1592,-1376,600,509,-199,-2883
3640,1752,-1432,768,573,-106,-3019
3645,1904,-1560,896,687,0,-3143
3650,2136,-1720,952,844,94,-3271
3655,2528,-1872,904,989,154,-3406
3660,2936,-2008,936,1120,198,-3552
3665,3240,-2168,1024,1272,264,-3705
3670,3560,-2376,1136,1466,369,-3830
3675,3904,-2568,1280,1677,493,-3910
3680,4296,-2800,1440,1882,608,-3956
3685,4696,-2968,1360,2043,644,-4005
3690,5096,-3072,1224,2124,534,-4079
3695,5336,-3112,1096,2134,325,-4182
3700,5392,-3080,848,2070,64,-4280
3705,5416,-2992,600,1895,-251,-4315
3710,5312,-2904,480,1588,-626,-4277
3715,5024,-2656,344,1175,-1032,-4175
3720,4280,-2432,544,738,-1422,-4006
3725,3928,-2288,776,368,-1775,-3786
3730,3520,-2144,880,57,-2075,-3575
3735,3024,-1976,840,-210,-2280,-3386
3740,2608,-1784,864,-434,-2379,-3234
3745,2016,-1584,1000,-603,-2357,-3121
3750,1648,-1192,952,-722,-2273,-3033
3755,1160,-1128,888,-821,-2165,-2999
3760,824,-952,872,-865,-2044,-3009
3765,560,-928,824,-869,-1935,-3026
3770,288,-1000,768,-806,-1837,-3022
3775,360,-1056,632,-678,-1752,-2997
3780,680,-1128,528,-512,-1674,-2971
3785,848,-1232,376,-306,-1589,-2986
3790,1000,-1288,112,-102,-1478,-3010
3795,1112,-1328,-112,68,-1337,-3047
3800,1192,-1184,-192,187,-1172,-3088
3805,1144,-1168,-176,252,-1035,-3124
3810,1144,-896,-96,318,-932,-3146
3815,1400,-488,-192,396,-870,-3208
3820,1472,-200,-208,456,-825,-3304
3825,1416,392,-304,449,-773,-3374
3830,1392,696,-112,377,-708,-3397
3835,1392,1016,-96,325,-658,-3377
3840,1328,1264,-112,307,-637,-3323
3845,1576,1264,-176,299,-666,-3233
3850,1864,1584,-328,285,-716,-3173
3855,2072,1600,-504,244,-779,-3146
3860,2384,1768,-416,171,-821,-3177
3865,2528,1784,-424,171,-814,-3262
3870,2448,1848,-416,149,-794,-3418
3875,2424,1728,-344,100,-788,-3543
3880,2552,1672,-296,22,-785,-3636
3885,2584,1488,-208,-52,-766,-3737
3890,2448,1400,-144,-96,-719,-3847
3895,2272,1320,-104,-157,-629,-3922
3900,2112,1248,48,-255,-541,-3918
3905,2104,1128,104,-360,-490,-3819
3910,2160,1064,184,-437,-465,-3680
3915,2328,1184,168,-502,-431,-3532
3920,2392,1288,192,-590,-352,-3328
3925,2752,1520,184,-705,-224,-3049
3930,3008,1568,152,-828,-51,-2748
3935,3416,1504,64,-866,107,-2395
3940,3840,1288,-184,-704,228,-1958
3945,4104,1000,-432,-258,329,-1466
3950,4512,952,-816,411,384,-919
3955,4640,904,-1160,1155,423,-389
3960,4904,1240,-1624,1783,482,58
3965,4840,1480,-1688,2098,583,396
3970,4672,1768,-1528,2133,701,631
3975,4624,1880,-1264,1934,790,750
3980,4224,1872,-944,1611,824,730
3985,3712,1672,-608,1277,831,677
3990,3184,1456,-424,1016,836,623
3995,2616,1112,-448,820,850,561
4000,2144,736,-424,620,888,544
4005,1872,496,-456,426,921,479
4010,1512,400,-560,237,952,296
4015,1184,400,-696,24,997,66
4020,944,376,-672,-187,1060,-157
4025,752,376,-696,-332,1140,-351
4030,528,480,-672,-401,1225,-508
4035,320,536,-712,-411,1292,-625
4040,136,640,-592,-374,1340,-714
4045,-72,688,-472,-279,1356,-764
4050,16,696,-368,-127,1322,-775
4055,-104,712,-280,93,1276,-771
4060,-328,840,-280,351,1203,-744
4065,-432,960,-232,576,1078,-681
4070,-328,1048,-216,759,933,-572
4075,-72,1136,-208,916,805,-455
4080,112,1248,-272,1039,690,-386
4085,288,1424,-280,1102,592,-343
4090,384,1576,-304,1116,512,-305
4095,400,1760,-352,1082,442,-265
4100,656,1864,-432,999,371,-225
4105,920,1960,-448,908,316,-214
4110,1152,2056,-528,812,312,-220
4115,1312,2048,-536,680,362,-222
4120,1456,2000,-440,522,446,-219
4125,1528,1824,-352,360,527,-212
4130,1560,1608,-224,193,598,-196
4135,1592,1392,-104,37,639,-170
4140,1600,1184,-40,-104,654,-122
4145,1640,1064,-32,-208,656,-52
4150,1728,1040,-24,-288,646,27
4155,1680,1072,48,-375,635,84
4160,1680,1032,64,-466,622,143
4165,1792,960,72,-534,604,200
4170,1848,936,88,-551,597,246
4175,1896,896,112,-515,613,278
4180,2008,912,96,-450,641,304
4185,2096,968,80,-372,686,319
4190,2184,992,88,-287,730,334
4195,2304,1040,80,-195,763,347
4200,2424,1056,96,-102,782,362
4205,2512,1096,96,7,783,371
4210,2656,1112,64,84,769,369
4215,2696,1136,56,134,741,361
4220,2744,1160,48,162,705,355
4225,2720,1216,64,179,661,347
4230,2672,1264,40,188,597,340
4235,2688,1240,56,196,513,339
4240,2688,1224,152,228,435,343
4245,2648,1280,208,270,362,359
4250,2504,1256,168,294,282,388
4255,2432,1240,208,304,214,418
4260,2352,1152,280,326,188,444
4265,2192,1136,288,364,190,458
4270,2048,1160,200,379,196,470
4275,2056,1056,168,339,184,475
4280,1984,856,216,261,164,454
4285,1928,688,296,203,146,432
4290,1848,496,376,199,120,412
4295,1816,336,392,247,91,405
4300,1744,232,368,333,61,412
4305,1728,184,352,422,21,428
4310,1696,192,368,496,-20,457
4315,1744,216,432,561,-58,482
4320,1720,304,448,616,-94,508
4325,1680,408,504,666,-133,538
4330,1680,472,520,723,-169,567
4335,1696,520,600,785,-200,592
4340,1720,576,552,846,-233,608
4345,1720,648,520,891,-268,620
4350,1752,680,480,917,-298,631
4355,1768,704,448,918,-325,637
4360,1784,720,416,892,-345,645
4365,1792,712,368,860,-366,662
4370,1768,688,328,814,-394,669
4375,1744,648,304,761,-428,676
4380,1792,688,304,713,-465,689
4385,1736,656,264,667,-499,704
4390,1720,584,296,620,-531,721
4395,1824,568,320,579,-555,741
4400,1744,576,328,541,-579,760
4405,1752,560,352,511,-607,784
4410,1720,544,376,489,-639,807
4415,1696,552,384,470,-670,829
4420,1512,560,408,451,-704,868
4425,1752,520,400,447,-736,925
4430,1848,456,320,471,-740,971
4435,1784,504,272,516,-721,996
4440,1832,480,272,560,-695,1019
4445,1872,512,152,596,-680,1034
4450,1920,512,56,614,-679,1042
4455,1976,512,-56,599,-689,1044
4460,2016,520,-192,544,-707,1035
4465,2088,448,-192,466,-721,1018
4470,2232,416,-272,397,-730,985
4475,2232,408,-320,348,-720,946
4480,2208,432,-352,313,-701,905
4485,2248,432,-400,259,-690,880
4490,2336,376,-384,208,-695,864
4495,2376,392,-416,169,-715,847
4500,2400,360,-416,132,-752,836
4505,2352,296,-448,103,-803,829
4510,2296,312,-480,89,-862,830
4515,2304,240,-432,75,-913,831
4520,2240,216,-472,66,-949,822
4525,2280,136,-456,61,-965,801
4530,2280,96,-464,65,-944,761
4535,2248,80,-496,53,-898,707
4540,2264,72,-520,23,-842,645
4545,2288,64,-592,-29,-785,566
4550,2256,72,-688,-119,-735,470
4555,2296,80,-736,-233,-696,377
4560,2328,72,-744,-350,-647,285
4565,2320,104,-720,-460,-601,197
4570,2392,144,-712,-540,-560,120
4575,2304,120,-624,-589,-531,50
4580,2320,96,-560,-599,-502,-9
4585,2360,104,-480,-577,-465,-64
4590,2328,88,-440,-539,-426,-106
4595,2352,72,-376,-486,-375,-134
4600,2368,72,-344,-426,-325,-153
4605,2328,56,-336,-363,-273,-163
4610,2304,40,-328,-311,-226,-157
4615,2272,-16,-312,-267,-188,-137
4620,2264,-56,-352,-229,-158,-100
4625,2288,-80,-360,-203,-130,-58
4630,2272,-64,-368,-178,-108,-23
4635,2256,-64,-424,-148,-92,9
4640,2256,-64,-440,-125,-76,42
4645,2256,-40,-504,-96,-59,69
4650,2256,-56,-488,-72,-40,98
4655,2296,-56,-512,-47,-17,122
4660,2264,-16,-504,-26,6,136
4665,2256,8,-576,-2,32,144
4670,2256,32,-592,21,57,149
4675,2248,56,-576,36,76,149
4680,2240,16,-632,45,96,142
4685,2256,128,-616,51,119,130
4690,2256,120,-600,51,148,119
4695,2232,136,-608,52,183,107
4700,2224,168,-584,51,212,92
4705,2232,168,-600,45,241,76
4710,2232,168,-544,38,266,56
4715,2216,184,-520,33,292,35
4720,2224,176,-472,33,314,12
4725,2240,160,-456,34,338,-12
4730,2216,168,-432,39,357,-34
4735,2208,224,-416,36,367,-56
4740,2232,192,-368,25,371,-79
4745,2208,184,-344,15,371,-95
4750,2192,192,-344,-1,370,-113
4755,2176,176,-288,-13,370,-127
4760,2168,160,-312,-26,362,-138
4765,2192,152,-240,-32,353,-147
4770,2144,144,-216,-36,346,-154
4775,2128,176,-232,-40,337,-159
4780,2112,168,-192,-46,329,-164
4785,2096,168,-232,-57,317,-167
4790,2008,184,-192,-64,304,-169
4795,2064,152,-176,-73,294,-173
4800,2080,184,-184,-78,288,-179
4805,2072,184,-176,-83,286,-185
4810,2080,168,-184,-87,290,-196
4815,2072,208,-184,-91,293,-209
4820,2096,208,-176,-96,299,-221
4825,2096,208,-168,-100,306,-236
4830,2104,256,-176,-105,312,-249
4835,2128,216,-160,-106,311,-263
4840,2136,272,-192,-106,309,-273
4845,2160,248,-208,-108,306,-283
4850,2152,248,-208,-109,304,-290
4855,2168,256,-224,-107,302,-297
4860,2176,264,-208,-106,302,-302
4865,2144,248,-192,-107,302,-305
4870,2152,288,-224,-104,301,-308
4875,2144,264,-208,-99,299,-308
4880,2152,264,-232,-93,298,-307
4885,2160,272,-200,-87,296,-302
4890,2160,280,-240,-81,299,-299
4895,2136,296,-216,-74,303,-293
4900,2128,272,-264,-67,307,-284
4905,2120,344,-208,-61,313,-275
4910,2104,352,-192,-49,310,-260
4915,2112,352,-160,-37,303,-242
4920,2104,392,-216,-26,296,-225
4925,2104,408,-168,-21,290,-209
4930,2104,416,-144,-19,284,-194
4935,2104,416,-184,-17,280,-179
4940,2112,464,-152,-16,277,-166
4945,2048,472,-152,-21,273,-155
4950,2072,496,-128,-24,266,-139
4955,2064,480,-136,-30,253,-124
4960,2080,488,-120,-36,242,-109
4965,2072,504,-144,-40,230,-95
4970,2064,488,-144,-43,220,-84
4975,2056,512,-136,-44,207,-74
4980,2064,472,-120,-44,198,-64
4985,2048,464,-144,-47,192,-54
4990,2040,448,-152,-45,187,-46
4995,2032,432,-128,-42,181,-37
5000,2040,456,-112,-42,178,-30
5005,2056,456,-144,-42,171,-23
5010,2056,488,-184,-41,166,-17
5015,2048,424,-128,-42,161,-17
5020,2016,432,-88,-46,161,-15
5025,2024,424,-80,-47,158,-8
5030,2040,424,-96,-47,153,-7
5035,2048,400,-80,-48,153,-11
5040,2032,432,-64,-51,150,-14
5045,2048,400,-48,-51,140,-12
5050,2080,384,-72,-49,132,-10
5055,2032,376,-56,-53,126,-17
5060,2072,408,-64,-56,122,-18
5065,2080,368,-88,-63,117,-23
5070,2072,368,-72,-70,113,-26
5075,2072,392,-48,-74,107,-29
5080,2080,384,-88,-80,102,-29
5085,2064,368,-56,-89,99,-29
5090,2080,368,-80,-94,93,-31
5095,2096,352,-48,-98,88,-32
5100,2096,352,-56,-99,81,-32
5105,2104,336,-104,-98,74,-29
5110,2072,344,-72,-97,67,-27
5115,2128,280,-168,-98,60,-25
5120,2120,320,-48,-99,53,-25
5125,2096,304,-72,-96,46,-21
5130,2112,312,-72,-89,39,-16
5135,2128,296,-56,-83,32,-12
5140,2088,296,-64,-78,25,-8
5145,2120,296,-56,-73,21,-3
5150,2104,312,-96,-65,16,0
5155,2104,296,-64,-55,12,2
5160,2112,304,-88,-48,9,3
5165,2096,312,-80,-42,8,3
5170,2096,320,-72,-37,9,2
5175,2128,304,-112,-35,12,0
5180,2128,320,-104,-33,16,-3
5185,2096,336,-104,-25,21,-6
5190,2120,344,-120,-16,25,-6
5195,2104,320,-88,-9,27,-8
5200,2080,376,-80,-4,30,-7
5205,2096,336,-136,0,33,-9
5210,2096,352,-96,3,37,-10
5215,2080,336,-72,4,42,-10
5220,2096,344,-104,6,41,-9
5225,2104,344,-56,9,36,-7
5230,2104,328,-64,11,30,-8
5235,2088,352,-96,10,24,-5
5240,2112,360,-56,10,21,-4
5245,2120,336,-72,9,16,-3
5250,2120,376,-88,10,11,-2
5255,2128,352,-96,9,6,-2
5260,2112,336,-96,6,5,-4
5265,2104,336,-128,8,1,-4
5270,2096,320,-112,6,0,-9
5275,2104,336,-104,7,0,-11
5280,2104,336,-104,8,-1,-12
5285,2104,328,-128,9,-3,-13
5290,2120,312,-112,8,0,-17
5295,2104,328,-120,6,5,-21
5300,2096,336,-104,7,7,-22
5305,2152,304,-128,7,9,-27
5310,2096,328,-120,8,11,-28
5315,2120,344,-152,6,14,-29
5320,2136,344,-112,8,15,-27
5325,2152,344,-152,8,19,-28
5330,2104,344,-136,4,21,-30
5335,2112,392,-112,8,18,-22
5340,2152,352,-104,13,17,-22
5345,2120,360,-112,13,17,-23
5350,2120,352,-104,9,18,-22
5355,2136,328,-104,7,18,-19
5360,2120,344,-136,5,17,-19
5365,2120,352,-120,4,19,-19
5370,2128,344,-152,1,21,-21
5375,2128,360,-144,-4,24,-22
5380,2112,352,-120,-5,28,-23
5385,2136,368,-120,-7,31,-24
5390,2104,368,-104,-8,35,-26
5395,2104,392,-112,-9,37,-25
5400,2112,408,-112,-7,39,-24
5405,2128,376,-96,-12,42,-25
5410,2112,384,-128,-15,42,-29
5415,2128,360,-120,-16,43,-26
5420,2120,400,-80,-15,43,-24
5425,2104,376,-144,-13,42,-23
5430,2120,368,-128,-16,45,-21
5435,2144,360,-144,-20,46,-21
5440,2120,376,-88,-22,48,-22
5445,2088,424,-112,-23,47,-22
5450,2112,392,-120,-25,47,-21
5455,2104,376,-112,-27,45,-22
5460,2104,376,-136,-30,46,-23
5465,2088,392,-112,-33,46,-23
5470,2112,392,-112,-35,49,-26
5475,2112,352,-136,-35,50,-28
5480,2096,352,-128,-36,52,-34
5485,2088,376,-112,-39,51,-35
5490,2120,376,-104,-45,55,-30
5495,2104,368,-64,-45,58,-28
5500,2080,376,-96,-40,63,-27
5505,2096,368,-80,-38,63,-29
5510,2104,368,-80,-38,65,-31
5515,2120,344,-96,-38,71,-33
5520,2088,376,-72,-40,76,-36
5525,2112,360,-96,-43,82,-40
5530,2128,336,-72,-44,88,-42
5535,2120,376,-104,-45,94,-45
5540,2104,368,-96,-47,97,-49
5545,2120,376,-88,-47,97,-49
5550,2104,376,-96,-49,99,-49
5555,2104,360,-56,-52,97,-49
5560,2112,392,-104,-48,90,-45
5565,2096,368,-80,-43,87,-41
5570,2088,384,-88,-36,84,-38
5575,2120,344,-56,-28,83,-34
5580,2072,408,-104,-23,78,-30
5585,2088,392,-24,-20,72,-25
5590,2112,384,-80,-20,67,-22
5595,2096,376,-40,-20,61,-19
5600,2120,368,-72,-18,57,-16
5605,2128,384,-48,-16,55,-13
5610,2096,392,-64,-17,56,-10
5615,2104,368,-56,-19,52,-8
5620,2120,384,-40,-23,48,-9
5625,2104,400,-120,-23,45,-11
5630,2088,400,-48,-27,47,-15
5635,2088,384,-96,-30,45,-11
5640,2088,368,-80,-28,43,-12
5645,2088,368,-56,-28,39,-11
5650,2096,384,-56,-27,38,-13
5655,2088,408,-56,-30,37,-14
5660,2112,360,-80,-32,39,-15
5665,2104,360,-72,-34,39,-15
5670,2088,368,-72,-38,42,-15
5675,2104,360,-40,-42,46,-15
5680,2112,352,-24,-36,44,-14
5685,2104,384,-64,-32,43,-13
5690,2080,384,-48,-29,41,-13
5695,2088,360,-80,-26,39,-12
5700,2104,384,-56,-26,40,-13
5705,2104,368,-56,-27,38,-12
5710,2104,376,-64,-27,34,-13
5715,2104,384,-72,-27,33,-12
5720,2080,376,-88,-30,30,-12
5725,2104,392,-80,-34,32,-12
5730,2112,392,-56,-34,33,-13
5735,2112,384,-56,-36,30,-14
5740,2104,368,-40,-35,27,-13
5745,2112,368,-80,-37,26,-11
5750,2096,360,-80,-40,26,-13
5755,2088,376,-72,-38,25,-12
5760,2096,392,-48,-35,23,-12
5765,2080,376,-96,-34,21,-13
5770,2088,376,-96,-32,21,-12
5775,2080,376,-80,-31,22,-13
5780,2096,376,-80,-30,23,-13
5785,2088,384,-96,-31,24,-16
5790,2096,384,-64,-33,28,-17
5795,2120,368,-88,-34,31,-18
5800,2104,368,-80,-33,31,-18
5805,2096,368,-64,-34,29,-18
5810,2112,376,-40,-34,28,-19
5815,2088,400,-56,-34,25,-17
5820,2080,392,-48,-35,25,-18
5825,2112,368,-64,-33,26,-17
5830,2120,368,-80,-31,23,-16
5835,2096,392,-48,-31,22,-14
5840,2104,384,-72,-31,20,-15
5845,2096,376,-56,-30,19,-14
5850,2104,392,-56,-31,16,-15
5855,2104,376,-56,-31,14,-15
5860,2080,384,-48,-32,12,-15
5865,2104,392,-80,-27,12,-16
5870,2080,384,-96,-25,13,-16
5875,2096,368,-88,-23,14,-17
5880,2096,368,-88,-19,14,-20
5885,2104,392,-88,-18,17,-20
5890,2088,376,-88,-17,21,-23
5895,2088,384,-72,-14,26,-21
5900,2112,368,-48,-11,31,-22
5905,2080,376,-56,-7,33,-24
5910,2088,392,-64,-3,33,-24
5915,2088,392,-56,-2,33,-25
5920,2088,384,-64,-2,35,-27
5925,2088,384,-72,-1,40,-26
5930,2072,384,-88,0,40,-27
5935,2048,368,-48,-1,42,-27
5940,2088,392,-72,-2,43,-26
5945,2112,392,-80,-6,44,-25
5950,2112,392,-48,-9,43,-22
5955,2128,408,-88,-11,44,-22
5960,2112,392,-64,-14,46,-17
5965,2088,400,-72,-23,46,-18
5970,2088,400,-72,-26,40,-19
5975,2104,416,-96,-26,32,-19
5980,2104,376,-48,-30,32,-21
5985,2088,392,-64,-35,30,-20
5990,2104,408,8,-33,29,-17
5995,2088,408,-72,-35,24,-14
6000,2120,408,-40,-30,19,-13
6005,2096,400,-64,-28,16,-11
6010,2096,384,-72,-28,14,-8
6015,2096,400,-56,-28,14,-8
6020,2112,416,-48,-26,13,-6
6025,2112,408,-88,-28,13,-8
6030,2120,392,-96,-29,14,-8
6035,2096,400,-48,-26,14,-7
6040,2088,408,-48,-25,13,-5
6045,2096,384,-64,-23,14,-5
6050,2096,392,-48,-26,12,-7
6055,2120,368,-72,-26,13,-8
6060,2080,376,-88,-29,13,-8
6065,2104,384,-80,-30,15,-10
6070,2080,392,-56,-33,15,-12
6075,2072,400,-104,-34,16,-12
6080,2096,392,-56,-35,15,-15
6085,2088,384,-80,-36,15,-15
6090,2088,400,-56,-39,17,-16
6095,2112,376,-48,-43,17,-17
6100,2088,392,-64,-44,21,-19
6105,2104,416,-88,-48,26,-21
6110,2080,384,-64,-51,29,-22
6115,2072,392,-40,-48,28,-22
6120,2112,360,-48,-40,24,-22
6125,2112,384,-72,-35,21,-22
6130,2120,392,-80,-32,23,-23
6135,2120,392,-64,-35,23,-23
6140,2128,392,-48,-39,26,-23
6145,2096,400,-88,-38,26,-20
6150,2112,360,-88,-38,24,-17
6155,2104,376,-96,-38,24,-15
6160,2096,408,-72,-39,23,-14
6165,2104,408,-64,-41,22,-14
6170,2096,408,-48,-46,23,-13
6175,2120,392,-64,-50,22,-14
6180,2096,400,-64,-57,22,-15
6185,2072,400,-48,-62,21,-14
6190,2104,408,-40,-59,19,-11
6195,2088,376,-48,-56,15,-10
6200,2112,376,-112,-51,13,-8
6205,2072,352,-8,-53,14,-7
6210,2080,408,-72,-50,12,-7
6215,2096,384,-48,-48,11,-8
6220,2080,392,-40,-48,13,-9
6225,2088,408,-56,-42,13,-8
6230,2072,368,-72,-38,11,-7
6235,2088,392,-48,-33,10,-7
6240,2080,408,-56,-29,10,-10
6245,2096,408,-64,-29,12,-9
6250,2088,416,-64,-33,16,-11
6255,2104,392,-64,-38,22,-12
6260,2096,392,-64,-40,23,-13
6265,2080,416,-40,-42,23,-13
6270,2096,392,-56,-40,22,-12
6275,2096,408,-56,-38,21,-9
6280,2096,392,-48,-38,20,-8
6285,2112,400,-48,-42,19,-9
6290,2080,416,-64,-43,18,-5
6295,2088,400,-56,-44,17,-3
6300,2112,424,-48,-43,12,-2
6305,2096,408,-64,-44,7,1
6310,2080,384,-48,-44,5,2
6315,2104,432,-64,-46,3,2
6320,2080,424,-56,-50,-1,3
6325,2088,408,-64,-52,-1,4
6330,2096,400,-48,-52,-4,4
6335,2104,376,-72,-55,-3,5
6340,2096,392,-56,-58,-2,5
6345,2096,384,-56,-57,-3,6
6350,2104,408,-48,-59,-1,5
6355,2096,408,-88,-57,1,3
6360,2088,384,-96,-58,2,4
6365,2104,392,-48,-56,4,1
6370,2128,384,-40,-58,4,2
6375,2120,400,-96,-58,5,1
6380,2112,400,-96,-59,7,2
6385,2088,384,-104,-60,7,1
6390,2096,392,-72,-61,6,-1
6395,2088,408,-80,-62,6,-2
6400,2112,408,-88,-64,7,-2
6405,2096,400,-64,-63,8,-1
6410,2096,408,-56,-65,8,1
6415,2088,408,-56,-66,9,3
6420,2104,392,-56,-66,9,3
6425,2120,392,-80,-65,9,6
6430,2096,384,-72,-64,10,7
6435,2104,400,-24,-61,9,7
6440,2120,360,-48,-58,9,7
6445,2120,376,-64,-57,10,5
6450,2120,392,-64,-53,11,5
6455,2112,400,-112,-52,12,4
6460,2096,400,-88,-51,12,2
6465,2088,392,-64,-51,13,0
6470,2104,392,-104,-52,13,-1
6475,2112,376,-80,-54,13,-2
6480,2096,400,-72,-54,14,-2
6485,2088,368,-80,-51,15,-2
6490,2096,392,-72,-48,16,-3
6495,2104,408,-96,-47,18,-3
6500,2112,384,-72,-46,21,-4
6505,2096,392,-56,-45,21,-4
6510,2104,384,-80,-47,20,-5
6515,2096,400,-48,-48,18,-4
6520,2088,376,-32,-51,16,-2
6525,2064,400,-32,-54,13,-1
6530,2096,400,-96,-56,10,-1
6535,2104,400,-24,-57,9,0
6540,2072,408,-48,-56,7,1
6545,2104,376,-64,-57,4,1
6550,2112,400,-32,-57,4,0
6555,2120,392,-64,-57,3,0
6560,2064,400,-72,-62,1,0
6565,2112,392,-104,-63,1,2
6570,2128,384,-80,-65,-1,1
6575,2112,392,-72,-68,-2,1
6580,2096,392,-96,-68,-4,0
6585,2096,392,-64,-66,-2,1
6590,2088,392,-88,-61,-2,2
6595,2104,376,-56,-59,-1,1
6600,2088,424,-64,-57,-2,2
6605,2104,400,-80,-55,-4,3
6610,2104,392,-64,-54,-5,5
6615,2080,416,-72,-53,-7,6
6620,2096,392,-64,-53,-8,9
6625,2112,392,-64,-53,-11,9
6630,2096,392,-64,-52,-11,13
6635,2080,408,-64,-51,-12,12
6640,2096,392,-104,-51,-13,12
6645,2088,392,-72,-52,-15,13
6650,2104,376,-88,-54,-17,15
6655,2088,392,-88,-55,-16,15
6660,2096,416,-72,-54,-15,14
6665,2104,384,-72,-56,-13,12
6670,2104,384,-64,-55,-12,12
6675,2088,416,-72,-56,-11,11
6680,2088,400,-80,-59,-9,11
6685,2104,392,-72,-57,-9,11
6690,2120,392,-48,-54,-6,11
6695,2096,384,-56,-55,-6,10
6700,2080,392,-80,-56,-5,10
6705,2080,400,-104,-53,-6,11
6710,2112,384,-88,-52,-6,11
6715,2072,392,-72,-54,-7,11
6720,2120,376,-88,-53,-8,11
6725,2096,392,-72,-54,-10,12
6730,2088,408,-64,-57,-10,11
6735,2112,384,-88,-57,-9,10
6740,2136,376,-72,-58,-9,11
6745,2112,400,-64,-59,-7,11
6750,2088,392,-56,-59,-7,11
6755,2120,376,-96,-59,-7,11
6760,2104,400,-96,-58,-6,12
6765,2096,392,-96,-54,-4,10
6770,2120,384,-96,-55,-4,10
6775,2096,352,-72,-55,-3,9
6780,2096,368,-80,-54,-4,9
6785,2120,368,-96,-53,-4,7
6790,2104,392,-80,-53,-4,6
6795,2088,376,-96,-54,-3,5
6800,2104,392,-80,-55,-3,5
6805,2096,408,-80,-56,-3,5
6810,2072,392,-112,-57,-4,5
6815,2096,376,-80,-57,-3,4
6820,2080,384,-96,-57,-3,4
6825,2088,400,-96,-60,-5,5
6830,2080,424,-88,-61,-5,7
6835,2104,384,-104,-60,-5,7
6840,2072,376,-56,-60,-5,6
6845,2104,368,-72,-61,-4,6
6850,2096,400,-64,-61,-3,8
6855,2112,392,-72,-59,-4,8
6860,2104,392,-104,-58,-6,8
6865,2088,384,-96,-60,-6,7
6870,2096,392,-72,-59,-6,9
6875,2120,368,-72,-59,-8,7
6880,2120,392,-72,-61,-8,8
6885,2120,392,-112,-62,-8,8
6890,2104,376,-112,-62,-8,8
6895,2104,392,-56,-65,-9,9
6900,2112,384,-128,-64,-9,10
6905,2120,400,-88,-64,-6,10
6910,2112,400,-104,-63,-6,9
6915,2096,376,-120,-63,-5,10
6920,2128,368,-128,-61,-4,12
6925,2120,408,-88,-60,-5,12
6930,2096,376,-104,-58,-7,13
6935,2120,368,-64,-57,-9,14
6940,2088,376,-88,-57,-9,14
6945,2112,376,-96,-56,-10,15
6950,2112,392,-80,-56,-11,14
6955,2088,392,-88,-54,-13,14
6960,2096,368,-88,-55,-15,14
6965,2104,360,-80,-58,-15,15
6970,2128,352,-80,-58,-12,15
6975,2104,360,-104,-56,-12,13
6980,2088,392,-80,-54,-12,13
6985,2096,400,-96,-55,-12,12
6990,2072,376,-120,-57,-9,11
6995,2080,376,-80,-57,-7,9
7000,2104,384,-88,-58,-5,9
7005,2112,360,-136,-57,-3,8
7010,2112,384,-104,-58,0,7
7015,2120,352,-120,-59,0,6
7020,2112,376,-120,-56,2,5
7025,2096,368,-80,-56,0,4
7030,2096,392,-88,-54,0,5
7035,2104,368,-72,-54,1,5
7040,2096,376,-96,-53,0,6
7045,2120,352,-88,-52,0,7
7050,2088,368,-80,-51,-1,6
7055,2096,392,-104,-51,-3,8
7060,2104,392,-88,-49,-5,8
7065,2096,344,-104,-49,-6,8
7070,2104,384,-112,-50,-7,9
7075,2088,384,-112,-47,-8,9
7080,2112,360,-96,-48,-7,8
7085,2104,368,-144,-48,-4,6
7090,2104,376,-96,-50,-3,4
7095,2096,392,-80,-49,1,3
7100,2088,352,-112,-48,5,3
7105,2096,392,-112,-48,8,1
7110,2112,384,-96,-46,10,0
7115,2104,360,-120,-44,12,-1
7120,2112,352,-64,-41,13,-2
7125,2120,376,-104,-37,16,-3
7130,2104,368,-112,-37,18,-4
7135,2080,384,-104,-38,18,-5
7140,2096,368,-96,-40,19,-6
7145,2088,384,-80,-44,18,-7
7150,2096,376,-72,-46,17,-6
7155,2112,376,-64,-49,15,-5
7160,2096,360,-80,-51,13,-4
7165,2112,368,-80,-53,11,-3
7170,2096,384,-72,-52,10,-1
7175,2096,352,-96,-52,9,-2
7180,2120,360,-72,-51,8,-2
7185,2112,384,-112,-50,7,-2
7190,2112,360,-112,-50,7,-3
7195,2120,360,-96,-52,7,-3
7200,2120,360,-128,-52,7,-5
7205,2120,376,-136,-51,9,-6
7210,2120,368,-96,-48,12,-8
7215,2088,376,-104,-45,12,-9
7220,2104,360,-120,-43,15,-10
7225,2112,376,-136,-43,19,-12
7230,2128,352,-120,-39,18,-12
7235,2104,408,-128,-38,19,-13
7240,2112,392,-96,-36,19,-12
7245,2096,392,-112,-36,19,-13
7250,2104,392,-112,-33,18,-11
7255,2120,384,-120,-34,16,-9
7260,2088,392,-88,-35,16,-7
7265,2112,392,-128,-36,13,-6
7270,2080,392,-72,-37,14,-5
7275,2112,384,-88,-38,14,-5
7280,2104,360,-104,-37,12,-5
7285,2080,392,-80,-38,13,-4
7290,2088,368,-72,-38,13,-5
7295,2096,392,-80,-39,15,-3
7300,2096,376,-80,-39,17,-5
7305,2104,360,-112,-39,19,-5
7310,2088,392,-128,-40,20,-6
7315,2112,384,-96,-41,20,-7
7320,2088,352,-120,-40,20,-5
7325,2120,368,-88,-40,21,-5
7330,2112,360,-136,-41,21,-6
7335,2104,392,-80,-40,20,-6
7340,2104,392,-104,-41,20,-6
7345,2112,384,-72,-42,19,-4
7350,2112,376,-88,-41,18,-6
7355,2112,368,-104,-42,17,-5
7360,2112,368,-144,-42,16,-5
7365,2104,376,-120,-44,15,-4
7370,2104,360,-96,-43,14,-4
7375,2104,376,-96,-43,14,-2
7380,2136,360,-120,-41,14,-3
7385,2104,368,-96,-42,15,-4
7390,2112,368,-88,-40,15,-4
7395,2096,392,-104,-40,17,-5
7400,2080,384,-120,-40,15,-6
7405,2096,368,-88,-39,15,-7
7410,2088,360,-80,-38,17,-6
7415,2120,368,-112,-37,18,-7
7420,2136,376,-112,-38,18,-8
7425,2104,392,-72,-40,19,-8
7430,2088,368,-104,-40,20,-9
7435,2104,384,-128,-42,21,-7
7440,2080,392,-96,-44,19,-9
7445,2120,368,-64,-43,20,-9
7450,2104,368,-80,-43,19,-9
7455,2088,328,-112,-41,20,-10
7460,2088,384,-80,-42,19,-10
7465,2088,360,-128,-41,20,-9
7470,2112,376,-112,-43,18,-9
7475,2112,376,-104,-43,19,-9
7480,2112,336,-136,-44,19,-9
7485,2088,376,-88,-44,18,-8
7490,2088,376,-96,-44,16,-8
7495,2120,368,-88,-45,18,-7
7500,2104,384,-64,-44,19,-6
7505,2088,400,-120,-46,18,-6
7510,2136,376,-152,-43,18,-7
7515,2112,376,-104,-42,19,-8
7520,2136,384,-96,-40,18,-9
7525,2104,384,-136,-39,19,-9
7530,2104,384,-104,-39,20,-8
7535,2096,368,-104,-38,22,-9
7540,2080,384,-96,-36,22,-9
7545,2128,352,-112,-35,21,-8
7550,2104,376,-104,-35,23,-9
7555,2112,392,-88,-34,24,-8
7560,2096,368,-96,-33,23,-8
7565,2088,368,-112,-32,23,-8
7570,2120,368,-128,-32,23,-7
7575,2088,384,-88,-32,22,-7
7580,2112,400,-112,-33,22,-8
7585,2072,392,-96,-33,21,-7
7590,2104,392,-96,-33,20,-6
7595,2104,384,-72,-35,20,-6
7600,2088,408,-120,-35,19,-5
7605,2088,384,-80,-37,18,-5
7610,2088,384,-112,-35,18,-5
7615,2072,344,-112,-37,18,-5
7620,2112,392,-88,-37,17,-6
7625,2080,376,-128,-38,17,-6
7630,2080,376,-96,-38,16,-7
7635,2112,384,-72,-38,19,-7
7640,2104,376,-64,-39,18,-7
7645,2104,352,-112,-40,20,-9
7650,2136,360,-96,-41,21,-9
7655,2112,384,-96,-42,22,-10
7660,2112,376,-120,-44,22,-11
7665,2096,360,-120,-44,23,-11
7670,2096,360,-144,-44,23,-11
7675,2096,400,-72,-44,23,-11
7680,2096,400,-88,-46,23,-10
7685,2104,384,-104,-46,22,-10
7690,2120,392,-80,-46,21,-8
7695,2120,384,-104,-45,24,-8
7700,2120,352,-112,-42,23,-8
7705,2104,376,-80,-42,24,-7
7710,2096,392,-96,-40,22,-8
7715,2104,408,-112,-41,23,-8
7720,2080,376,-96,-41,21,-8
7725,2128,376,-136,-41,21,-8
7730,2104,376,-112,-40,20,-6
7735,2120,376,-120,-39,20,-6
7740,2088,360,-80,-38,20,-5
7745,2120,360,-72,-40,19,-6
7750,2112,392,-88,-41,19,-5
7755,2096,376,-112,-41,19,-5
7760,2096,384,-128,-41,18,-5
7765,2096,376,-120,-44,19,-6
7770,2096,384,-96,-42,21,-6
7775,2088,392,-88,-41,20,-5
7780,2144,352,-80,-41,19,-4
7785,2120,384,-88,-39,20,-4
7790,2096,376,-96,-39,19,-4
7795,2104,376,-80,-40,19,-4
7800,2104,392,-104,-38,19,-4
7805,2120,368,-96,-39,20,-4
7810,2104,384,-104,-38,21,-4
7815,2096,392,-72,-38,22,-3
7820,2120,384,-88,-37,22,-3
7825,2104,376,-96,-35,23,-4
7830,2096,368,-96,-39,24,-5
7835,2072,384,-112,-39,24,-6
7840,2096,384,-120,-38,24,-6
7845,2112,344,-112,-38,21,-6
7850,2104,392,-96,-36,20,-6
7855,2128,376,-64,-36,20,-6
7860,2096,384,-88,-34,20,-8
7865,2112,368,-88,-33,19,-8
7870,2104,392,-96,-33,20,-7
7875,2104,392,-80,-33,20,-6
7880,2104,376,-96,-32,22,-6
7885,2104,368,-96,-33,23,-6
7890,2096,400,-112,-34,24,-6
7895,2088,392,-80,-34,24,-8
7900,2088,384,-64,-35,25,-9
7905,2120,392,-88,-36,26,-10
7910,2120,368,-96,-38,27,-11
7915,2096,392,-80,-40,27,-11
7920,2088,400,-104,-41,28,-12
7925,2096,384,-72,-42,29,-11
7930,2104,376,-136,-43,27,-11
7935,2104,376,-128,-43,26,-9
7940,2120,392,-112,-44,22,-8
7945,2152,336,-104,-43,22,-8
7950,2128,392,-112,-40,20,-7
7955,2080,376,-88,-40,19,-7
7960,2120,368,-88,-39,19,-6
7965,2104,368,-88,-38,17,-6
7970,2128,384,-88,-37,15,-6
7975,2096,376,-112,-37,16,-5
7980,2128,368,-96,-40,17,-5
7985,2088,368,-96,-41,17,-5
7990,2088,368,-104,-42,18,-5
7995,2088,400,-120,-45,19,-7
8000,2088,400,-112,-45,20,-8
8005,2104,376,-80,-46,21,-8
8010,2096,368,-112,-48,22,-9
8015,2104,392,-104,-47,24,-9
8020,2104,392,-120,-46,25,-11
8025,2120,360,-112,-45,26,-10
8030,2080,376,-104,-45,27,-9
8035,2096,392,-72,-45,28,-9
8040,2112,376,-80,-43,26,-8
8045,2096,376,-88,-42,23,-7
8050,2088,392,-80,-43,22,-6
8055,2096,416,-88,-42,20,-3
8060,2136,376,-56,-40,16,-1
8065,2112,368,-96,-38,13,0
8070,2120,368,-112,-37,11,1
8075,2112,368,-80,-38,9,0
8080,2096,400,-88,-40,8,0
8085,2112,368,-104,-43,9,0
8090,2104,376,-96,-45,10,-2
8095,2104,400,-72,-47,14,-4
8100,2080,384,-104,-46,15,-5
8105,2088,392,-120,-44,17,-7
8110,2096,328,-104,-41,18,-9
8115,2112,376,-128,-41,22,-13
8120,2112,360,-96,-40,24,-14
8125,2104,392,-88,-40,26,-17
8130,2104,384,-104,-41,29,-18
8135,2112,376,-96,-44,32,-20
8140,2072,376,-56,-45,33,-22
8145,2080,368,-80,-48,33,-21
8150,2104,384,-40,-46,30,-19
8155,2104,360,-40,-44,29,-18
8160,2120,384,-80,-43,27,-16
8165,2080,392,-64,-42,25,-15
8170,2104,384,-112,-41,23,-14
8175,2112,384,-96,-42,21,-12
8180,2104,384,-96,-44,18,-11
8185,2104,384,-104,-44,17,-10
8190,2120,376,-88,-43,16,-9
8195,2128,360,-120,-41,16,-10
8200,2104,376,-120,-41,16,-12
8205,2088,376,-88,-39,18,-13
8210,2112,368,-104,-40,20,-13
8215,2096,416,-152,-38,22,-14
8220,2112,376,-88,-37,24,-15
8225,2120,400,-96,-35,26,-15
8230,2120,408,-88,-33,26,-13
8235,2120,400,-80,-32,25,-12
8240,2104,392,-128,-31,24,-13
8245,2120,392,-136,-30,22,-11
8250,2072,408,-96,-30,21,-10
8255,2112,376,-96,-30,21,-8
8260,2096,408,-104,-30,20,-8
8265,2120,384,-104,-31,22,-9
8270,2104,384,-64,-32,22,-9
8275,2072,384,-104,-29,22,-8
8280,2104,376,-128,-31,24,-8
8285,2096,384,-112,-30,25,-10
8290,2096,360,-72,-30,26,-9
8295,2104,384,-80,-29,29,-10
8300,2088,376,-80,-29,31,-10
8305,2104,392,-72,-29,32,-10
8310,2096,392,-72,-30,32,-11
8315,2096,392,-72,-31,34,-12
8320,2112,376,-56,-31,34,-12
8325,2088,424,-104,-32,34,-11
8330,2112,400,-104,-32,33,-10
8335,2128,392,-96,-32,32,-11
8340,2096,400,-80,-32,33,-11
8345,2120,360,-104,-35,34,-11
8350,2112,384,-112,-36,34,-13
8355,2088,392,-80,-38,35,-13
8360,2088,392,-72,-39,33,-12
8365,2096,416,-72,-40,33,-13
8370,2104,384,-96,-38,32,-11
8375,2104,400,-112,-38,32,-12
8380,2104,392,-88,-38,33,-11
8385,2128,312,-88,-39,33,-11
8390,2096,368,-112,-38,34,-10
8395,2088,408,-96,-38,34,-10
8400,2112,376,-88,-38,34,-11
8405,2096,392,-96,-36,32,-10
8410,2096,392,-72,-35,29,-10
8415,2096,392,-88,-36,29,-12
8420,2088,400,-72,-37,27,-11
8425,2088,384,-88,-38,27,-10
8430,2088,400,-72,-39,26,-10
8435,2088,376,-112,-39,26,-9
8440,2104,392,-80,-40,25,-10
8445,2096,384,-96,-40,24,-10
8450,2096,376,-56,-42,23,-10
8455,2096,368,-88,-41,21,-9
8460,2088,376,-88,-43,21,-9
8465,2104,368,-64,-42,20,-9
8470,2096,384,-64,-42,21,-9
8475,2096,400,-72,-41,20,-8
8480,2112,400,-80,-42,21,-9
8485,2096,408,-104,-42,21,-10
8490,2120,400,-72,-40,19,-9
8495,2008,352,-24,-40,20,-9
8500,2096,400,-72,-40,19,-8
8505,2120,384,-88,-41,20,-10
8510,2104,392,-56,-39,21,-8
8515,2120,376,-80,-40,21,-10
8520,2080,392,-104,-40,21,-10
8525,2104,408,-80,-40,20,-8
8530,2112,384,-88,-39,20,-8
8535,2088,424,-72,-41,19,-7
8540,2072,408,-80,-41,20,-8
8545,2104,400,-72,-42,20,-8
8550,2104,392,-64,-42,20,-6
8555,2088,408,-80,-39,20,-6
8560,2120,384,-56,-40,20,-5
8565,2104,400,-96,-41,20,-5
8570,2080,416,-96,-39,19,-3
8575,2096,368,-112,-38,19,-4
8580,2104,408,-112,-39,18,-3
8585,2104,392,-72,-39,18,-2
8590,2112,376,-88,-37,19,-2
8595,2112,384,-72,-37,17,-3
8600,2112,384,-72,-37,15,-2
8605,2024,360,-88,-37,15,0
8610,2104,400,-96,-36,14,0
8615,2096,400,-88,-37,14,0
8620,2080,376,-64,-38,14,0
8625,2080,400,-80,-39,15,-1
8630,2096,384,-72,-38,17,-3
8635,2112,400,-48,-40,17,-2
8640,2104,376,-120,-39,16,-3
8645,2096,384,-88,-40,17,-4
8650,2096,376,-72,-41,19,-4
8655,2104,392,-96,-40,21,-6
8660,2120,384,-80,-43,22,-8
8665,2112,368,-88,-41,23,-8
8670,2104,400,-80,-44,26,-8
8675,2088,400,-88,-42,27,-10
8680,2096,376,-80,-39,27,-10
8685,2128,368,-80,-39,25,-8
8690,2104,400,-96,-39,25,-9
8695,2104,392,-96,-39,26,-9
8700,2088,376,-96,-39,26,-10
8705,2088,392,-72,-38,26,-10
8710,2104,368,-48,-36,27,-9
8715,2104,376,-64,-34,27,-10
8720,2096,384,-64,-34,29,-9
8725,2096,384,-96,-31,27,-9
8730,2104,384,-56,-32,27,-9
8735,2088,392,-80,-32,30,-12
8740,2088,400,-72,-30,28,-12
8745,2104,368,-88,-28,26,-12
8750,2104,400,-64,-29,29,-11
8755,2088,416,-88,-30,31,-13
8760,2112,376,-72,-32,32,-13
8765,2120,368,-56,-31,32,-12
8770,2096,392,-72,-31,33,-12
8775,2096,376,-80,-30,32,-13
8780,2104,400,-64,-30,32,-12
8785,2120,368,-88,-28,31,-12
8790,2096,376,-120,-28,32,-12
8795,2096,368,-56,-28,32,-11
8800,2096,392,-88,-25,32,-10
8805,2128,392,-80,-23,32,-11
8810,2104,376,-80,-22,30,-12
8815,2088,392,-64,-19,30,-12
8820,2064,424,-120,-18,27,-9
8825,2112,384,-48,-19,27,-10
8830,2112,384,-72,-17,28,-10
8835,2104,400,-88,-18,29,-10
8840,2080,416,-64,-18,29,-11
8845,2112,384,-88,-18,29,-9
8850,2104,392,-80,-16,28,-11
8855,2120,392,-64,-17,28,-12
8860,2104,392,-80,-17,27,-14
8865,2112,400,-88,-17,27,-14
8870,2104,400,-104,-19,28,-12
8875,2088,400,-80,-17,29,-13
8880,2096,376,-56,-16,29,-13
8885,2128,384,-104,-15,28,-12
8890,2112,416,-80,-15,29,-12
8895,2096,400,-104,-18,31,-13
8900,2096,408,-64,-18,34,-13
8905,2120,392,-64,-16,32,-11
8910,2088,400,-80,-17,30,-12
8915,2080,400,-72,-16,30,-10
8920,2104,360,-96,-15,29,-10
8925,2112,384,-72,-17,27,-10
8930,2120,336,-24,-18,27,-9
8935,2080,392,-72,-21,28,-9
8940,2120,416,-56,-19,24,-9
8945,2096,416,-64,-20,22,-6
8950,2104,384,-40,-19,19,-7
8955,2104,416,-72,-16,17,-6
8960,2096,416,-96,-18,14,-4
8965,2104,392,-56,-20,10,-1
8970,2112,384,-72,-23,11,-1
8975,2088,400,-80,-27,10,0
8980,2096,400,-64,-31,9,2
8985,2112,408,-96,-31,9,2
8990,2072,416,-40,-30,7,3
8995,2088,424,-72,-32,7,2
9000,2104,376,-80,-32,8,1
9005,2112,384,-80,-32,9,2
9010,2128,384,-96,-32,11,0
9015,2088,392,-64,-30,13,-1
9020,2088,408,-40,-29,11,-1
9025,2088,408,-64,-30,12,-2
9030,2096,392,-80,-29,13,-2
9035,2088,400,-96,-29,14,-2
9040,2032,384,-72,-28,14,-4
9045,2112,400,-80,-27,16,-4
9050,2096,392,-104,-27,14,-4
9055,2120,392,-64,-27,13,-3
9060,2112,400,-80,-27,14,-4
9065,2096,416,-88,-28,13,-2
9070,2112,392,-72,-29,13,-2
9075,2096,392,-56,-29,12,-4
9080,2096,416,-64,-32,13,-6
9085,2096,384,-80,-35,13,-6
9090,2112,400,-96,-36,16,-6
9095,2080,392,-112,-36,19,-7
9100,2072,400,-96,-34,19,-6
9105,2088,400,-80,-31,19,-6
9110,2112,416,-80,-29,21,-7
9115,2088,400,-88,-27,23,-10
9120,2120,400,-120,-25,26,-11
9125,2096,416,-80,-24,29,-13
9130,2096,400,-88,-21,33,-14
9135,2072,408,-104,-23,36,-15
9140,2088,392,-80,-25,37,-17
9145,2112,360,-72,-28,39,-18
9150,2048,432,-112,-31,39,-19
9155,2088,384,-88,-28,41,-16
9160,2112,400,-56,-22,41,-16
9165,2128,368,-80,-18,40,-15
9170,2088,392,-72,-14,42,-16
9175,2104,408,-64,-14,42,-16
9180,2112,384,-104,-13,40,-15
9185,2096,376,-120,-12,38,-16
9190,2104,384,-64,-16,40,-19
9195,2080,392,-72,-18,40,-21
9200,2104,392,-64,-16,38,-23
9205,2096,408,-80,-12,36,-24
9210,2080,392,-72,-13,36,-27
9215,2120,376,-104,-13,37,-29
9220,2120,408,-64,-16,36,-28
9225,2080,424,-64,-21,35,-24
9230,2112,400,-88,-24,34,-20
9235,2064,456,-96,-25,31,-16
9240,2104,424,-96,-25,29,-14
9245,2096,416,-40,-26,27,-11
9250,2120,400,-40,-26,24,-9
9255,2088,448,-96,-24,22,-7
9260,2056,424,-88,-22,17,-6
9265,2096,416,-64,-21,17,-4
9270,2080,416,-64,-21,16,-3
9275,2096,400,-88,-23,18,-5
9280,2088,376,-80,-24,17,-5
9285,2064,440,-80,-27,17,-5
9290,2096,384,-72,-30,17,-7
9295,2088,400,-104,-31,18,-7
9300,2120,400,-88,-33,21,-11
9305,2112,416,-72,-36,22,-12
9310,2096,416,-64,-39,25,-11
9315,2080,376,-72,-39,25,-10
9320,2088,416,-88,-40,27,-10
9325,2104,376,-80,-42,28,-10
9330,2080,400,-64,-43,29,-11
9335,2080,400,-64,-41,28,-11
9340,2104,408,-72,-39,29,-13
9345,2096,400,-80,-38,29,-11
9350,2104,408,-64,-37,28,-12
9355,2072,408,-72,-37,30,-12
9360,2088,424,-72,-37,29,-12
9365,2080,344,-8,-38,30,-12
9370,2104,416,-112,-35,31,-12
9375,2112,384,-112,-38,31,-12
9380,2120,408,-96,-39,31,-11
9385,2120,384,-80,-39,33,-11
9390,2112,392,-80,-41,34,-11
9395,2096,384,-88,-41,35,-11
9400,2128,416,-64,-40,35,-11
9405,2096,392,-56,-39,35,-12
9410,2104,392,-64,-36,33,-11
9415,2096,392,-96,-33,31,-10
9420,2088,384,-80,-33,31,-10
9425,2088,416,-80,-33,30,-10
9430,2104,400,-80,-39,33,-13
9435,2080,400,-56,-44,33,-14
9440,2104,400,-40,-43,33,-14
9445,2104,400,-64,-40,30,-12
9450,2112,392,-88,-41,30,-13
9455,2096,384,-64,-42,32,-13
9460,2104,400,-72,-41,31,-15
9465,2072,400,-80,-41,33,-15
9470,2112,392,-96,-43,33,-15
9475,2088,392,-136,-47,35,-16
9480,2120,392,-72,-46,35,-16
9485,2096,400,-72,-44,37,-17
9490,2072,424,-72,-39,37,-19
9495,2080,416,-64,-34,35,-20
9500,2096,416,-56,-33,35,-22
9505,2104,432,-72,-32,35,-22
9510,2144,392,-104,-37,34,-23
9515,2104,424,-56,-46,37,-24
9520,2072,440,-56,-52,43,-28
9525,2040,432,-72,-58,42,-23
9530,2104,408,-64,-53,34,-18
9535,2072,424,-40,-48,30,-15
9540,2120,432,-48,-45,29,-14
9545,2088,424,-56,-41,28,-13
9550,2112,416,-80,-39,26,-11
9555,2120,424,-40,-43,25,-10
9560,2120,408,-16,-45,24,-8
9565,2096,416,-64,-45,22,-8
9570,2080,400,-24,-43,17,-7
9575,2096,400,-72,-39,15,-5
9580,2104,384,-48,-34,14,-4
9585,2104,424,-56,-34,12,-4
9590,2096,400,-48,-33,13,-2
9595,2104,400,-56,-31,13,-2
9600,2072,408,-48,-31,14,-2
9605,2088,400,-48,-32,11,-2
9610,2120,384,-64,-31,13,-3
9615,2072,424,-64,-32,15,-4
9620,2096,400,-80,-33,17,-4
9625,2104,408,-64,-33,18,-6
9630,2080,416,-72,-35,19,-6
9635,2088,416,-88,-36,21,-6
9640,2096,432,-72,-35,22,-5
9645,2104,392,-48,-35,23,-6
9650,2072,408,-40,-37,24,-6
9655,2080,408,-88,-36,25,-7
9660,2104,408,-64,-34,25,-6
9665,2088,416,-96,-34,25,-5
9670,2096,408,-88,-36,27,-6
9675,2072,408,-72,-36,27,-5
9680,2112,408,-48,-38,28,-6
9685,2120,424,-64,-37,28,-8
9690,2088,408,-136,-39,29,-8
9695,2088,392,-56,-42,30,-8
9700,2096,416,-48,-43,28,-8
9705,2112,392,-64,-44,27,-8
9710,2096,416,-80,-45,27,-8
9715,2072,432,-56,-47,27,-10
9720,2080,408,-72,-49,29,-10
9725,2088,424,-56,-51,31,-12
9730,2088,416,-48,-52,32,-12
9735,2104,416,-64,-53,33,-13
9740,2096,408,-40,-56,31,-12
9745,2096,408,-56,-59,33,-13
9750,2080,416,-72,-59,32,-12
9755,2080,424,-80,-60,30,-12
9760,2096,408,-64,-64,32,-13
9765,2112,432,-64,-68,32,-13
9770,2104,416,-72,-71,29,-12
9775,2088,400,-48,-71,26,-14
9780,2096,392,-32,-71,23,-13
9785,2104,408,-48,-69,24,-10
9790,2096,408,-56,-65,21,-7
9795,2096,408,-40,-63,20,-6
9800,2128,448,-24,-61,19,-6
9805,2096,416,-88,-58,17,-5
9810,2112,416,-80,-58,17,-5
9815,2104,424,-80,-59,18,-7
9820,2104,408,-48,-59,18,-8
9825,2112,416,-104,-65,17,-8
9830,2104,424,-72,-67,18,-8
9835,2104,432,-56,-72,20,-10
9840,2088,408,-64,-74,21,-10
9845,2088,432,-32,-78,19,-10
9850,2104,408,-56,-77,20,-9
9855,2096,416,-48,-78,21,-8
9860,2088,408,-56,-80,20,-9
9865,2104,416,-56,-80,18,-8
9870,2096,416,-48,-81,17,-5
9875,2080,440,-32,-78,16,-4
9880,2104,400,-24,-78,16,-3
9885,2080,416,-72,-74,15,-3
9890,2064,416,-48,-72,15,-2
9895,2088,400,8,-69,14,-1
9900,2080,424,-32,-65,13,0
9905,2080,416,-32,-63,11,2
9910,2032,368,0,-61,9,3
9915,2120,424,-48,-59,8,3
9920,2088,432,-48,-59,7,5
9925,2088,392,-64,-59,4,4
9930,2056,416,-72,-60,3,5
9935,2096,392,-48,-58,2,6
9940,2104,424,-80,-60,2,6
9945,2112,416,-72,-60,1,5
9950,2080,408,-72,-60,1,4
9955,2096,416,-56,-60,0,6
9960,2104,408,-32,-61,1,6
9965,2096,400,-64,-61,2,4
9970,2104,408,-72,-60,3,4
9975,2096,408,-40,-60,4,4
9980,2096,392,-80,-61,5,3
9985,2072,416,-88,-61,6,3
9990,2080,424,-88,-62,7,4
9995,2080,408,-56,-62,8,4
10000,2096,432,-80,-63,9,3
10005,2088,416,-32,-64,8,4
10010,2096,392,-64,-67,7,6
10015,2096,416,-72,-66,4,7
10020,2128,336,-136,-68,4,7
10025,2104,392,-56,-68,1,9
10030,2104,400,-64,-69,0,10
10035,2104,400,-56,-70,-2,11
10040,2088,400,-40,-70,-3,11
10045,2088,400,-64,-70,-5,11
10050,2096,416,-80,-70,-7,12
10055,2088,400,-72,-69,-9,14
10060,2104,384,-72,-69,-11,14
10065,2112,400,-56,-67,-12,13
10070,2080,408,-56,-64,-12,13
10075,2096,416,-88,-63,-11,12
10080,2096,416,-72,-67,-10,12
10085,2096,424,-72,-65,-9,10
10090,2104,416,-48,-65,-9,9
10095,2104,408,-64,-63,-8,7
10100,2096,384,-48,-62,-5,7
10105,2096,384,-80,-59,-5,6
10110,2080,408,-56,-55,-3,7
10115,2064,424,-32,-55,-3,5
10120,2072,416,-32,-53,0,5
10125,2104,416,-40,-51,0,4
10130,2048,432,-24,-55,-1,4
10135,2088,416,-32,-57,-2,3
10140,2088,392,-48,-60,-3,4
10145,2096,392,-48,-59,-5,5
10150,2072,424,-56,-60,-6,6
10155,2104,400,-72,-60,-8,7
10160,2088,392,-72,-59,-9,8
10165,2104,400,-48,-58,-11,9
10170,2104,400,-56,-58,-14,10
10175,2096,392,-80,-59,-15,11
10180,2096,384,-48,-62,-17,11
10185,2096,376,-80,-63,-19,11
10190,2104,400,-56,-62,-20,12
10195,2096,400,-56,-61,-18,13
10200,2104,376,-80,-59,-17,12
10205,2096,400,-64,-58,-17,12
10210,2072,408,-80,-56,-16,10
10215,2080,392,-72,-54,-15,10
10220,2128,400,-56,-49,-15,11
10225,2104,400,-64,-43,-16,12
10230,2112,408,-64,-37,-16,13
10235,2112,416,-32,-34,-18,16
10240,2112,400,-112,-31,-19,16
10245,2096,416,-56,-31,-18,18
10250,2088,408,-64,-30,-18,16
10255,2096,408,-96,-28,-17,16
10260,2080,416,-72,-29,-15,15
10265,2080,408,-96,-29,-13,15
10270,2104,400,-88,-31,-11,13
10275,2088,424,-80,-32,-6,12
10280,2088,400,-80,-35,-4,10
10285,2072,400,-72,-36,-1,10
10290,2080,392,-72,-37,1,8
10295,2080,400,-56,-38,2,10
10300,2096,408,-56,-38,3,11
10305,2104,416,-56,-38,3,12
10310,2104,400,-80,-38,2,13
10315,2088,416,-72,-39,2,13
10320,2096,384,-72,-38,2,14
10325,2088,408,-72,-39,1,15
10330,2120,416,-64,-39,-1,13
10335,2096,416,-48,-38,-2,13
10340,2072,400,-96,-39,-1,14
10345,2112,440,-24,-40,0,12
10350,2104,392,-88,-43,0,11
10355,2088,376,-88,-43,-1,10
10360,2096,376,-112,-45,1,11
10365,2120,376,-104,-45,2,10
10370,2088,400,-56,-44,4,8
10375,2104,400,-96,-46,5,8
10380,2104,400,-80,-48,5,6
10385,2136,360,-64,-49,6,7
10390,2104,384,-72,-50,5,6
10395,2104,408,-80,-50,5,7
10400,2112,384,-96,-47,3,7
10405,2104,408,-104,-46,1,9
10410,2088,408,-88,-47,1,9
10415,2104,416,-48,-47,-1,10
10420,2096,400,-72,-48,-3,9
10425,2136,384,-80,-48,-4,10
10430,2112,408,-104,-47,-4,11
10435,2088,400,-80,-46,-4,12
10440,2096,408,-80,-48,-7,11
10445,2096,400,-88,-47,-8,11
10450,2080,400,-88,-47,-8,13
10455,2104,392,-80,-50,-10,11
10460,2112,384,-104,-53,-10,14
10465,2096,400,-64,-53,-11,14
10470,2072,392,-64,-55,-12,13
10475,2072,416,-80,-55,-13,13
10480,2104,392,-72,-58,-13,14
10485,2088,376,-80,-57,-15,13
10490,2080,408,-80,-58,-14,15
10495,2112,424,-64,-58,-15,15
10500,2088,400,-72,-58,-14,13
10505,2088,400,-96,-59,-15,14
10510,2096,400,-80,-59,-16,15
10515,2096,392,-72,-57,-18,14
10520,2096,408,-104,-58,-20,15
10525,2088,400,-64,-56,-21,17
10530,2088,400,-96,-55,-18,16
10535,2104,352,-88,-57,-18,16
10540,2088,384,-104,-58,-18,18
10545,2096,400,-104,-59,-17,18
10550,2080,416,-104,-61,-16,18
10555,2112,368,-96,-59,-17,18
10560,2112,392,-64,-60,-16,18
10565,2072,408,-64,-59,-19,18
10570,2104,376,-88,-56,-18,19
10575,2104,368,-112,-55,-20,20
10580,2080,384,-88,-54,-21,21
10585,2128,368,-80,-55,-24,21
10590,2096,368,-88,-55,-24,22
10595,2120,384,-96,-56,-24,23
10600,2096,376,-88,-57,-24,24
10605,2088,376,-96,-55,-24,23
10610,2096,384,-88,-55,-23,22
10615,2112,360,-88,-57,-23,21
10620,2096,376,-104,-57,-24,22
10625,2112,384,-104,-59,-22,20
10630,2096,400,-96,-58,-19,19
10635,2104,360,-96,-60,-20,19
10640,2104,384,-88,-61,-18,17
10645,2096,376,-80,-55,-18,17
10650,2096,368,-112,-50,-17,16
10655,2096,352,-96,-52,-15,15
10660,2120,384,-112,-53,-12,14
10665,2120,344,-136,-54,-11,14
10670,2104,376,-120,-52,-10,12
10675,2120,376,-80,-53,-10,12
10680,2112,384,-96,-51,-9,12
10685,2104,384,-104,-54,-8,10
10690,2088,376,-88,-55,-5,9
10695,2104,384,-112,-54,-5,8
10700,2096,368,-144,-56,-2,7
10705,2120,360,-64,-54,1,7
10710,2104,376,-120,-53,2,7
10715,2104,368,-112,-53,2,6
10720,2112,360,-104,-49,2,6
10725,2112,376,-120,-49,3,5
10730,2120,384,-136,-51,6,5
10735,2128,376,-120,-55,5,5
10740,2120,376,-80,-55,3,5
10745,2104,376,-96,-53,1,6
10750,2120,384,-120,-55,1,7
10755,2112,360,-72,-53,1,5
10760,2120,376,-56,-45,-1,6
10765,2136,360,-80,-40,-3,7
10770,2104,368,-128,-40,-2,7
10775,2088,384,-96,-38,-1,6
10780,2120,384,-104,-42,0,6
10785,2104,400,-96,-44,3,4
10790,2104,376,-120,-48,4,3
10795,2104,384,-128,-50,5,1
10800,2104,360,-112,-50,7,0
10805,2104,392,-96,-49,9,-2
10810,2096,376,-112,-48,11,-3
10815,2096,376,-136,-50,13,-4
10820,2104,368,-120,-51,14,-4
10825,2072,376,-88,-54,15,-4
10830,2096,376,-104,-56,16,-4
10835,2080,360,-104,-57,14,-4
10840,2112,360,-96,-59,13,-3
10845,2104,376,-80,-60,11,-1
10850,2080,384,-120,-60,7,-1
10855,2088,368,-112,-59,5,0
10860,2072,376,-112,-59,4,1
10865,2096,376,-96,-58,4,2
10870,2112,368,-80,-55,2,1
10875,2128,368,-96,-53,1,1
10880,2112,376,-136,-52,4,-1
10885,2104,352,-104,-51,5,-2
10890,2088,376,-120,-49,6,-5
10895,2096,352,-104,-45,6,-5
10900,2112,352,-136,-42,8,-7
10905,2112,384,-160,-41,12,-8
10910,2096,392,-104,-36,16,-10
10915,2120,376,-112,-32,19,-11
10920,2104,384,-120,-31,21,-10
10925,2120,376,-144,-28,22,-11
10930,2104,384,-128,-29,22,-10
10935,2096,400,-120,-32,23,-10
10940,2104,384,-104,-33,22,-10
10945,2104,384,-136,-34,20,-8
10950,2112,368,-104,-37,18,-6
10955,2088,416,-136,-38,17,-7
10960,2104,400,-120,-39,16,-4
10965,2096,360,-136,-41,14,-5
10970,2104,368,-128,-41,16,-4
10975,2112,376,-80,-43,16,-3
10980,2112,368,-120,-45,16,-4
10985,2120,368,-96,-46,18,-6
10990,2072,384,-96,-46,20,-7
10995,2104,368,-128,-47,21,-8
11000,2104,384,-104,-46,23,-9
11005,2104,376,-104,-47,25,-8
11010,2104,368,-88,-47,24,-11
11015,2128,384,-96,-46,24,-10
11020,2112,384,-128,-44,25,-8
11025,2112,408,-112,-43,24,-8
11030,2128,360,-136,-45,24,-10
11035,2088,368,-88,-43,24,-10
11040,2112,376,-104,-45,23,-9
11045,2136,384,-104,-46,23,-10
11050,2096,376,-96,-45,25,-11
11055,2128,384,-96,-48,24,-12
11060,2096,368,-96,-47,26,-12
11065,2128,352,-112,-48,26,-14
11070,2128,376,-96,-46,27,-14
11075,2128,368,-88,-45,28,-12
11080,2120,360,-128,-46,29,-12
11085,2104,384,-72,-46,28,-14
11090,2112,376,-144,-47,29,-13
11095,2128,384,-104,-46,29,-14
11100,2096,384,-80,-45,26,-13
11105,2120,368,-96,-44,26,-12
11110,2104,400,-104,-43,26,-13
11115,2096,384,-104,-42,25,-12
11120,2112,384,-112,-45,26,-14
11125,2096,384,-104,-43,29,-15
11130,2104,392,-128,-44,29,-14
11135,2096,376,-104,-44,30,-15
11140,2088,360,-120,-44,29,-16
11145,2096,376,-96,-43,30,-16
11150,2096,392,-88,-43,29,-15
11155,2072,376,-72,-44,30,-16
11160,2096,376,-104,-43,32,-18
11165,2088,392,-112,-41,31,-18
11170,2096,376,-88,-40,31,-20
11175,2104,392,-104,-38,33,-19
11180,2112,376,-104,-39,32,-18
11185,2096,392,-80,-42,33,-18
11190,2104,368,-96,-43,31,-17
11195,2104,360,-120,-44,29,-15
11200,2104,384,-88,-45,26,-14
11205,2096,376,-96,-46,24,-13
11210,2096,400,-128,-45,24,-11
11215,2112,392,-88,-46,22,-10
11220,2112,392,-96,-45,21,-9
11225,2120,392,-96,-45,19,-8
11230,2088,384,-64,-45,18,-8
11235,2128,360,-112,-46,18,-6
11240,2112,376,-80,-44,15,-6
11245,2088,392,-96,-46,15,-5
11250,2128,360,-104,-46,12,-5
11255,2112,384,-128,-46,13,-5
11260,2088,384,-96,-45,14,-6
11265,2104,384,-80,-45,14,-4
11270,2104,400,-88,-45,15,-5
11275,2104,408,-120,-45,15,-5
11280,2088,392,-96,-43,16,-5
11285,2088,392,-112,-43,15,-5
11290,2104,392,-112,-43,15,-5
11295,2112,392,-88,-41,16,-4
11300,2088,392,-96,-40,17,-5
11305,2096,392,-104,-37,17,-5
11310,2120,360,-112,-36,17,-6
11315,2120,376,-160,-33,18,-7
11320,2112,400,-120,-34,19,-7
11325,2096,360,-80,-34,21,-7
11330,2112,376,-112,-35,23,-9
11335,2088,400,-120,-38,27,-11
11340,2104,384,-80,-39,28,-13
11345,2096,400,-80,-41,30,-13
11350,2104,384,-104,-41,32,-13
11355,2096,392,-112,-41,32,-15
11360,2112,392,-136,-43,32,-15
11365,2088,376,-96,-44,33,-14
11370,2096,384,-112,-43,32,-14
11375,2112,368,-104,-43,33,-14
11380,2104,376,-88,-42,32,-13
11385,2104,344,-88,-39,31,-11
11390,2104,384,-88,-40,29,-10
11395,2096,408,-96,-39,28,-9
11400,2104,384,-72,-39,27,-9
11405,2120,376,-96,-38,25,-10
11410,2096,392,-88,-39,25,-8
11415,2128,384,-104,-37,25,-9
11420,2112,368,-96,-36,25,-10
11425,2096,392,-120,-37,27,-11
11430,2096,384,-104,-38,27,-12
11435,2088,384,-144,-38,29,-13
11440,2104,408,-96,-40,29,-13
11445,2072,400,-104,-40,29,-14
11450,2080,392,-136,-39,29,-13
11455,2120,360,-96,-38,28,-14
11460,2096,384,-120,-36,28,-15
11465,2088,376,-80,-35,27,-14
11470,2096,392,-112,-34,29,-15
11475,2104,416,-88,-34,30,-15
11480,2104,376,-96,-35,33,-16
11485,2096,408,-64,-34,34,-16
11490,2104,368,-80,-34,33,-15
11495,2096,384,-88,-35,31,-13
11500,2080,376,-64,-38,28,-12
11505,2096,392,-80,-42,27,-12
11510,2120,400,-88,-44,24,-12
11515,2096,400,-64,-43,22,-11
11520,2112,392,-72,-45,19,-8
11525,2112,392,-72,-46,18,-8
11530,2088,376,-96,-47,15,-8
11535,2104,376,-64,-49,11,-7
11540,2112,368,-104,-49,8,-7
11545,2080,384,-112,-51,5,-6
11550,2096,392,-72,-49,4,-5
11555,2104,392,-80,-48,4,-5
11560,2104,376,-104,-49,5,-5
11565,2088,408,-80,-47,5,-5
11570,2104,400,-104,-46,6,-6
11575,2104,400,-80,-46,6,-6
11580,2104,408,-104,-45,5,-6
11585,2072,416,-88,-45,3,-6
11590,2088,384,-104,-45,3,-4
11595,2112,392,-88,-43,5,-5
11600,2104,400,-96,-44,6,-5
11605,2088,400,-104,-44,7,-4
11610,2096,400,-80,-43,5,-6
11615,2096,408,-104,-44,9,-7
11620,2072,400,-88,-41,12,-7
11625,2104,368,-104,-40,15,-9
11630,2088,376,-120,-39,16,-9
11635,2112,392,-96,-39,19,-8
11640,2112,376,-96,-37,21,-9
11645,2112,368,-96,-36,24,-10
11650,2128,400,-112,-33,25,-10
11655,2088,408,-80,-33,27,-9
11660,2120,384,-96,-33,27,-9
11665,2112,384,-128,-33,27,-8
11670,2080,408,-104,-34,27,-8
11675,2112,376,-88,-35,26,-7
11680,2112,384,-112,-36,25,-7
11685,2128,408,-112,-37,25,-5
11690,2120,400,-96,-36,24,-5
11695,2096,416,-96,-37,23,-5
11700,2128,392,-88,-39,24,-5
11705,2104,408,-96,-38,23,-4
11710,2120,392,-104,-41,24,-5
11715,2120,376,-104,-42,24,-4
11720,2096,384,-104,-41,24,-6
11725,2120,368,-64,-42,23,-6
11730,2096,384,-64,-41,24,-6
11735,2104,376,-88,-40,25,-7
11740,2128,360,-112,-39,27,-8
11745,2112,392,-88,-38,28,-8
11750,2080,400,-120,-38,28,-10
11755,2080,392,-80,-39,29,-10
11760,2096,360,-72,-39,30,-12
11765,2112,376,-88,-39,30,-11
11770,2080,384,-64,-40,30,-14
11775,2096,376,-88,-40,30,-15
11780,2088,384,-80,-42,30,-16
11785,2104,392,-104,-43,32,-16
11790,2088,368,-96,-42,32,-16
11795,2096,392,-88,-44,31,-16
11800,2096,352,-80,-43,31,-14
11805,2104,376,-96,-44,30,-13
11810,2120,352,-120,-42,29,-14
11815,2096,376,-88,-43,28,-15
11820,2104,384,-96,-40,28,-14
11825,2096,384,-96,-40,26,-14
11830,2080,384,-80,-41,27,-12
11835,2104,376,-96,-42,27,-15
11840,2096,400,-88,-40,27,-14
11845,2096,392,-80,-41,27,-12
11850,2080,400,-104,-39,26,-14
11855,2120,392,-104,-40,23,-12
11860,2112,376,-96,-40,23,-13
11865,2104,360,-48,-41,22,-10
11870,2104,424,-80,-39,21,-11
11875,2096,416,-80,-39,21,-11
11880,2104,384,-72,-39,21,-11
11885,2104,400,-96,-37,21,-10
11890,2104,416,-112,-36,20,-8
11895,2096,416,-104,-35,20,-8
11900,2112,392,-104,-33,21,-8
11905,2112,384,-112,-32,21,-8
11910,2120,384,-120,-32,22,-8
11915,2088,400,-88,-34,24,-9
11920,2136,376,-32,-32,25,-8
11925,2096,384,-64,-30,22,-7
11930,2080,400,-88,-30,22,-6
11935,2136,400,-72,-31,23,-5
11940,2112,408,-128,-31,22,-6
11945,2120,400,-80,-29,20,-4
11950,2096,384,-80,-29,20,-4
11955,2096,392,-88,-31,19,-3
11960,2104,384,-112,-32,17,-2
11965,2104,400,-104,-32,16,-3
11970,2096,384,-72,-32,16,-3
11975,2096,376,-48,-34,15,-4
11980,2096,376,-96,-35,15,-3
11985,2080,416,-120,-34,15,-2
11990,2120,392,-104,-35,14,-2
11995,2088,392,-144,-36,14,-3
12000,2088,408,-112,-37,15,-4
12005,2096,392,-112,-37,15,-4
12010,2096,392,-104,-38,16,-6
12015,2128,408,-88,-37,16,-6
12020,2088,408,-96,-37,17,-6
12025,2080,392,-104,-39,20,-6
12030,2064,416,-88,-39,22,-8
12035,2096,392,-96,-37,24,-8
12040,2120,384,-112,-39,26,-9
12045,2088,424,-112,-39,27,-10
12050,2104,400,-88,-40,27,-10
12055,2112,392,-104,-38,28,-10
12060,2080,392,-104,-39,29,-10
12065,2104,376,-88,-41,29,-9
12070,2112,392,-88,-42,30,-9
12075,2112,376,-72,-41,27,-8
12080,2088,400,-96,-38,26,-8
12085,2096,384,-112,-38,25,-9
12090,2096,400,-80,-37,25,-8
12095,2096,392,-96,-36,25,-7
12100,2104,392,-64,-34,21,-6
12105,2128,376,-80,-36,22,-7
12110,2112,384,-96,-35,21,-7
12115,2096,384,-80,-36,21,-7
12120,2096,400,-104,-33,22,-9
12125,2104,392,-80,-31,21,-9
12130,2112,400,-80,-31,21,-9
12135,2120,400,-80,-32,23,-8
12140,2080,456,-56,-31,24,-9
12145,2120,376,-96,-30,24,-9
12150,2128,408,-96,-30,25,-9
12155,2104,392,-96,-30,25,-8
12160,2112,376,-96,-29,26,-9
12165,2096,392,-104,-30,25,-10
12170,2104,408,-88,-30,24,-10
12175,2096,408,-96,-31,24,-10
12180,2088,392,-96,-31,23,-10
12185,2088,392,-64,-31,23,-10
12190,2120,376,-104,-32,23,-10
12195,2080,368,-64,-33,22,-10
12200,2104,392,-72,-33,19,-8
12205,2096,376,-112,-34,17,-5
12210,2096,384,-88,-33,17,-5
12215,2080,408,-80,-35,18,-2
12220,2096,408,-72,-34,17,-2
12225,2112,392,-72,-36,16,-2
12230,2112,384,-80,-35,13,-1
12235,2096,408,-120,-37,11,-1
12240,2088,408,-104,-38,9,2
12245,2080,400,-56,-39,8,1
12250,2104,408,-88,-41,6,1
12255,2112,400,-88,-40,7,2
12260,2112,392,-72,-45,6,3
12265,2088,408,-72,-45,5,5
12270,2112,384,-64,-46,3,4
12275,2112,384,-104,-46,4,5
12280,2080,400,-120,-44,2,5
12285,2104,384,-96,-44,4,6
12290,2080,384,-96,-40,4,4
12295,2112,408,-80,-39,4,4
12300,2080,392,-72,-39,5,4
12305,2112,392,-112,-40,7,2
12310,2096,368,-88,-38,8,-1
12315,2096,384,-104,-39,11,-3
12320,2088,376,-80,-39,12,-4
12325,2096,408,-72,-40,13,-4
12330,2112,376,-88,-39,14,-5
12335,2088,400,-88,-38,14,-6
12340,2104,432,-80,-39,16,-5
12345,2096,440,-104,-40,17,-6
12350,2104,408,-120,-41,18,-6
12355,2112,408,-112,-41,19,-5
12360,2112,400,-128,-42,20,-4
12365,2120,376,-96,-38,19,-4
12370,2112,392,-104,-38,19,-3
12375,2072,400,-80,-33,19,-5
12380,2112,392,-88,-32,20,-7
12385,2104,384,-88,-31,21,-7
12390,2120,368,-88,-33,22,-8
12395,2120,392,-88,-34,24,-9
12400,2088,376,-64,-35,25,-11
12405,2104,392,-64,-34,27,-11
12410,2080,392,-64,-34,26,-12
12415,2088,400,-80,-34,24,-12
12420,2088,376,-96,-35,25,-12
12425,2072,392,-40,-34,25,-11
12430,2120,392,-88,-34,26,-11
12435,2104,384,-80,-33,25,-10
12440,2112,384,-112,-33,25,-9
12445,2104,360,-80,-31,24,-10
12450,2128,384,-104,-31,24,-10
12455,2120,384,-88,-30,25,-12
12460,2104,384,-96,-29,25,-14
12465,2072,392,-128,-30,27,-15
12470,2096,408,-88,-30,29,-16
12475,2080,400,-104,-29,30,-16
12480,2120,384,-64,-28,31,-17
12485,2096,408,-80,-28,31,-20
12490,2112,416,-80,-28,32,-18
12495,2088,408,-64,-28,31,-17
12500,2112,392,-72,-27,29,-14
12505,2104,424,-112,-25,26,-13
12510,2088,408,-48,-23,22,-11
12515,2080,408,-56,-24,19,-7
12520,2096,448,-88,-24,17,-5
12525,2128,440,-104,-25,13,-5
12530,2040,376,-152,-25,10,-2
12535,2080,392,-112,-26,8,-2
12540,2136,376,-128,-26,8,-2
12545,2104,392,-104,-27,11,0
12550,2080,384,-64,-28,11,-1
12555,2096,416,-104,-29,10,-1
12560,2088,408,-64,-30,12,0
12565,2096,400,-96,-30,12,-1
12570,2096,400,-64,-31,12,-1
12575,2072,456,-40,-30,12,0
12580,2104,400,-88,-31,11,-1
12585,2104,400,-112,-32,10,-1
12590,2096,376,-80,-34,9,-1
12595,2096,408,-104,-34,9,0
12600,2104,424,-104,-35,9,-1
12605,2096,400,-112,-35,11,0
12610,2088,416,-112,-37,11,-1
12615,2112,408,-72,-39,12,-2
12620,2096,384,-96,-41,13,-3
12625,2096,392,-96,-40,12,-3
12630,2080,400,-88,-40,12,-3
12635,2008,384,-88,-42,13,-3
12640,2096,400,-88,-41,15,-4
12645,2120,384,-112,-42,14,-3
12650,2104,384,-120,-43,14,-3
12655,2096,368,-104,-42,15,-3
12660,2088,400,-112,-43,16,-4
12665,2072,408,-56,-42,15,-3
12670,2072,392,-96,-42,15,-5
12675,2080,432,-88,-41,16,-5
12680,2096,392,-104,-42,16,-6
12685,2104,384,-88,-41,17,-7
12690,2112,376,-104,-41,19,-7
12695,2096,392,-88,-41,21,-8
12700,2104,376,-112,-40,23,-9
12705,2112,376,-96,-41,24,-10
12710,2072,408,-96,-42,25,-11
12715,2112,416,-112,-40,26,-11
12720,2096,384,-96,-40,28,-10
12725,2104,384,-112,-41,30,-13
12730,2104,400,-112,-44,30,-12
12735,2112,392,-88,-42,30,-11
12740,2104,408,-56,-43,30,-10
12745,2080,384,-104,-43,29,-12
12750,2088,408,-96,-44,28,-10
12755,2096,416,-72,-44,27,-10
12760,2088,400,-72,-45,25,-9
12765,2088,408,-80,-47,26,-9
12770,2104,392,-96,-48,26,-9
12775,2104,416,-72,-50,24,-8
12780,2120,416,-64,-50,24,-6
12785,2112,400,-64,-51,20,-6
12790,2104,408,-72,-51,18,-4
12795,2080,416,-64,-52,16,-4
12800,2112,408,-56,-53,14,-3
12805,2096,416,-88,-53,13,-3
12810,2104,408,-80,-54,13,-1
12815,2104,392,-80,-53,11,0
12820,2096,392,-112,-52,11,1
12825,2088,416,-88,-50,10,1
12830,2096,408,-112,-53,10,1
12835,2112,384,-104,-54,11,1
12840,2120,408,-96,-53,8,2
12845,2104,376,-64,-53,8,2
12850,2096,400,-56,-54,8,4
12855,2104,416,-80,-54,7,3
12860,2104,392,-88,-55,5,4
12865,2104,416,-80,-55,5,3
12870,2120,392,-88,-55,3,4
12875,2088,384,-64,-56,4,5
12880,2096,408,-80,-55,4,4
12885,2096,408,-88,-56,5,4
12890,2104,384,-96,-57,7,3
12895,2096,384,-80,-56,10,4
12900,2104,384,-80,-54,10,2
12905,2128,368,-88,-55,11,2
12910,2104,400,-72,-56,12,1
12915,2104,400,-88,-56,12,1
12920,2080,400,-88,-56,12,0
12925,2112,416,-96,-55,14,1
12930,2088,400,-80,-56,14,1
12935,2104,368,-112,-58,12,1
12940,2104,400,-104,-58,12,3
12945,2104,408,-72,-60,11,5
12950,2088,392,-64,-61,9,4
12955,2112,376,-80,-60,9,4
12960,2176,424,-40,-58,8,6
12965,2120,384,-56,-59,9,6
12970,2088,384,-96,-60,8,5
12975,2096,400,-88,-59,8,5
12980,2120,392,-88,-58,9,3
12985,2096,392,-112,-61,11,3
12990,2112,384,-88,-62,9,2
12995,2088,400,-104,-60,12,1
13000,2112,384,-72,-59,11,1
13005,2088,384,-88,-60,11,1
13010,2120,384,-56,-59,12,0
13015,2104,392,-96,-61,12,1
13020,2104,392,-104,-60,12,0
13025,2104,392,-72,-59,13,0
13030,2120,384,-104,-59,12,0
13035,2088,416,-88,-59,12,0
13040,2112,392,-64,-57,11,1
13045,2120,400,-80,-56,12,2
13050,2104,384,-112,-57,11,1
13055,2112,416,-88,-55,9,2
13060,2112,400,-80,-54,9,3
13065,2112,392,-88,-55,8,3
13070,2088,408,-96,-56,6,4
13075,2088,416,-64,-56,4,5
13080,2072,416,-88,-58,4,4
13085,2088,400,-96,-61,4,5
13090,2104,408,-112,-60,1,5
13095,2104,400,-104,-61,2,4
13100,2104,384,-96,-60,2,4
13105,2096,408,-80,-61,3,4
13110,2080,392,-80,-62,3,4
13115,2096,384,-64,-60,2,5
13120,2096,408,-96,-60,3,6
13125,2088,408,-96,-59,3,5
13130,2112,368,-80,-58,3,5
13135,2104,408,-88,-58,1,6
13140,2104,408,-64,-59,1,7
13145,2088,384,-88,-60,0,8
13150,2088,408,-88,-61,-1,7
13155,2080,384,-96,-60,-2,7
13160,2088,400,-56,-61,-4,9
13165,2096,368,-80,-61,-4,8
13170,2112,392,-96,-60,-3,7
13175,2104,400,-104,-61,-2,7
13180,2120,368,-40,-62,-3,9
13185,2104,368,-104,-63,-4,9
13190,2112,392,-72,-62,-3,9
13195,2104,400,-80,-62,-4,10
13200,2112,392,-96,-60,-6,10
13205,2096,392,-80,-62,-5,9
13210,2088,392,-104,-61,-5,10
13215,2104,376,-112,-60,-6,9
13220,2104,376,-104,-62,-5,10
13225,2112,384,-80,-63,-5,10
13230,2088,392,-96,-61,-5,10
13235,2096,400,-104,-61,-5,10
13240,2120,392,-64,-61,-4,10
13245,2104,384,-112,-62,-4,11
13250,2104,384,-120,-62,-4,12
13255,2096,376,-72,-62,-2,9
13260,2088,368,-112,-62,0,9
13265,2104,392,-96,-64,1,8
13270,2104,384,-88,-63,3,7
13275,2104,368,-120,-64,3,8
13280,2096,368,-104,-64,3,8
13285,2072,424,-160,-64,2,7
13290,2112,376,-128,-65,4,7
13295,2112,368,-96,-62,4,8
13300,2128,376,-104,-61,5,7
13305,2096,384,-80,-64,5,6
13310,2128,392,-96,-63,3,7
13315,2104,392,-128,-65,1,8
13320,2104,368,-72,-64,2,7
13325,2112,392,-112,-65,1,9
13330,2088,360,-72,-63,1,6
13335,2112,400,-136,-59,-3,9
13340,2168,408,-88,-56,-3,8
13345,2120,384,-104,-58,-1,7
13350,2088,384,-96,-59,1,5
13355,2104,384,-96,-60,2,6
13360,2104,360,-112,-56,2,5
13365,2112,352,-88,-56,2,4
13370,2088,400,-120,-55,4,4
13375,2104,392,-120,-52,5,3
13380,2096,392,-120,-53,7,1
13385,2088,376,-112,-53,7,2
13390,2096,392,-112,-56,8,2
13395,2096,384,-56,-61,8,3
13400,2096,384,-56,-65,5,5
13405,2120,376,-80,-70,2,8
13410,2096,360,-80,-75,-3,10
13415,2128,384,-56,-78,-8,11
13420,2096,376,-88,-77,-12,14
13425,2104,400,-104,-80,-15,16
13430,2120,384,-104,-81,-16,17
13435,2104,376,-104,-82,-18,17
13440,2104,376,-112,-81,-22,17
13445,2120,376,-144,-79,-25,17
13450,2088,328,-192,-78,-27,16
13455,2152,376,-216,-78,-26,13
13460,2120,296,-184,-76,-24,11
13465,2176,424,-56,-74,-21,10
13470,2080,424,-112,-72,-16,7
13475,2112,336,-152,-71,-11,5
13480,2112,296,-104,-68,-5,3
13485,2064,456,32,-65,-2,1
13490,2080,288,-104,-61,0,1
13495,2072,368,-176,-56,1,2
13500,2048,384,-192,-50,-1,1
13505,2112,384,-96,-50,-1,2
13510,2096,416,-112,-51,1,6
13515,2120,384,-128,-49,0,6
13520,2112,400,-120,-49,-3,7
13525,2112,432,-160,-49,-4,8
13530,2104,344,-136,-52,-3,7
13535,2192,384,-24,-51,-1,8
13540,2088,368,-96,-52,-1,10
13545,2160,408,-64,-53,-3,11
13550,2064,432,-128,-56,-5,12
13555,2120,384,-112,-59,-6,14
13560,2032,336,-40,-60,-7,14
13565,2096,392,-24,-65,-9,14
13570,2072,416,-240,-71,-8,14
13575,2112,376,-64,-73,-8,13
13580,2136,360,-96,-74,-10,13
13585,2128,368,-144,-73,-6,14
13590,2096,376,-104,-72,-6,14
13595,2096,360,-80,-73,-6,12
13600,2120,368,-88,-70,-5,12
13605,2120,368,-64,-69,-4,11
13610,2152,344,-144,-69,-2,8
13615,2096,384,-96,-71,-1,8
13620,2104,416,-88,-72,-3,7
13625,2096,352,-144,-71,-4,8
13630,2128,400,-72,-68,-4,8
13635,2080,368,-160,-68,-3,9
13640,2104,352,-88,-68,-3,7
13645,2096,376,-152,-69,-2,6
13650,2136,432,-56,-68,-3,7
13655,2104,336,-184,-67,-4,8
13660,2112,376,-96,-63,-2,9
13665,2104,360,-112,-63,-3,9
13670,2120,360,-96,-63,-3,9
13675,2096,312,-112,-61,-5,7
13680,2200,344,-48,-62,-4,8
13685,2064,368,-152,-62,-3,7
13690,2144,368,-72,-64,-1,7
13695,2120,360,-88,-65,-1,7
13700,2136,408,-120,-66,-2,7
13705,2200,392,-64,-64,-3,7
13710,2128,328,-160,-65,-3,6
13715,2072,392,-64,-68,-2,5
13720,2128,392,-80,-69,-1,5
13725,2064,304,-128,-71,-1,5
13730,2064,416,-288,-72,0,4
13735,2104,368,-120,-73,0,4
13740,2104,384,-144,-72,0,4
13745,2088,376,-120,-73,-1,5
13750,2120,368,-120,-78,1,5
13755,2104,384,-88,-76,1,4
13760,2080,336,-104,-74,-2,5
13765,2104,344,-104,-72,-3,6
13770,2128,352,-112,-73,-4,6
13775,2144,384,-120,-73,-5,7
13780,2096,360,-112,-73,-4,7
13785,2112,368,-112,-72,-5,8
13790,2128,384,-128,-70,-6,8
13795,2136,376,-136,-70,-6,7
13800,2080,320,-144,-67,-5,7
13805,2152,360,-144,-66,-6,7
13810,2104,384,-120,-64,-4,7
13815,2096,368,-96,-62,-3,6
13820,2104,344,-120,-62,-1,7
13825,2088,368,-104,-61,-1,6
13830,2160,408,0,-59,0,6
13835,2120,368,-176,-60,-1,5
13840,2088,400,-168,-59,0,6
13845,2080,328,-160,-58,-1,6
13850,2120,328,-104,-55,-1,7
13855,2120,352,-32,-55,-2,5
13860,2104,384,-112,-56,0,4
13865,2112,384,-112,-55,0,4
13870,2072,344,-160,-53,0,3
13875,2128,360,-136,-51,2,3
13880,2104,424,-160,-49,2,2
13885,2184,232,-184,-47,5,0
13890,2096,344,-120,-47,6,-1
13895,2104,376,-120,-46,8,-2
13900,2112,368,-112,-48,9,-2
13905,2104,344,-128,-48,12,-4
13910,2120,384,-96,-46,14,-6
13915,2096,352,-136,-46,16,-7
13920,2080,336,-128,-47,18,-8
13925,2224,320,-176,-47,20,-9
13930,2104,384,-112,-46,21,-7
13935,2096,360,-128,-44,23,-7
13940,2136,368,-120,-43,23,-9
13945,2120,376,-120,-41,23,-10
13950,2144,344,-144,-42,25,-11
13955,2152,384,-152,-44,25,-12
13960,2128,360,-112,-44,24,-11
13965,2128,352,-136,-44,23,-11
13970,2112,360,-136,-42,24,-12
13975,2120,376,-120,-41,24,-13
13980,2112,384,-32,-40,24,-13
13985,2112,328,-96,-39,24,-11
13990,2104,336,-112,-37,25,-12
13995,2120,328,-112,-34,24,-11
14000,2136,344,-104,-32,24,-11
14005,2112,352,-160,-32,24,-13
14010,2096,376,-112,-31,23,-12
14015,2112,368,-112,-31,24,-12
14020,2112,360,-112,-32,24,-11
14025,2160,416,-72,-30,23,-12
14030,2112,384,-112,-32,24,-12
14035,2112,360,-128,-32,24,-12
14040,2112,360,-112,-31,24,-12
14045,2112,376,-136,-32,24,-13
14050,1976,464,-128,-32,25,-15
14055,2128,368,-112,-30,27,-15
14060,2104,384,-152,-31,29,-16
14065,2120,384,-120,-31,32,-17
14070,2096,384,-120,-32,32,-16
14075,2112,376,-136,-31,33,-16
14080,2096,376,-120,-29,33,-16
14085,2120,344,-136,-29,33,-17
14090,2112,368,-112,-28,34,-17
14095,2120,376,-136,-29,35,-17
14100,2088,376,-112,-29,35,-18
14105,2104,352,-128,-30,35,-17
14110,2104,368,-96,-33,35,-17
14115,2104,400,-88,-37,31,-15
14120,2120,384,-104,-39,29,-13
14125,2096,384,-96,-42,27,-11
14130,2112,376,-112,-43,25,-8
14135,2112,384,-136,-43,22,-9
14140,2096,352,-104,-43,21,-9
14145,2112,352,-120,-42,19,-9
14150,2096,376,-112,-42,18,-9
14155,2104,352,-136,-40,17,-8
14160,2080,376,-72,-40,17,-9
14165,2088,368,-128,-40,18,-9
14170,2112,368,-160,-39,20,-11
14175,2128,368,-120,-36,23,-12
14180,2120,368,-96,-33,25,-12
14185,2104,376,-136,-32,28,-14
14190,2104,360,-160,-29,30,-15
14195,2112,384,-136,-28,30,-15
14200,2120,368,-128,-28,33,-15
14205,2104,376,-120,-27,33,-15
14210,2120,376,-128,-27,34,-14
14215,2104,376,-144,-26,32,-12
14220,2112,368,-112,-27,29,-12
14225,2088,384,-136,-28,26,-11
14230,2096,400,-88,-32,24,-10
14235,2112,424,-112,-32,21,-9
14240,2112,384,-88,-33,19,-7
14245,2088,376,-120,-35,19,-6
14250,2096,400,-104,-37,17,-4
14255,2096,368,-136,-36,18,-4
14260,2104,360,-120,-37,18,-5
14265,2080,368,-120,-39,18,-5
14270,2080,368,-128,-38,17,-4
14275,2104,336,-88,-38,17,-5
14280,2104,360,-120,-38,18,-6
14285,2096,368,-112,-38,19,-7
14290,2096,376,-128,-36,21,-8
14295,2104,352,-120,-37,21,-9
14300,2104,376,-112,-37,22,-9
14305,2104,352,-144,-36,22,-9
14310,2128,360,-112,-37,24,-10
14315,2104,360,-104,-37,24,-10
14320,2096,360,-136,-36,27,-12
14325,2120,368,-112,-34,28,-13
14330,2112,376,-80,-33,29,-15
14335,2120,376,-80,-34,29,-13
14340,2136,344,-112,-33,28,-14
14345,2120,368,-128,-34,30,-14
14350,2120,368,-136,-34,30,-14
14355,2112,376,-80,-30,31,-15
14360,2120,376,-144,-29,30,-13
14365,2096,360,-128,-27,30,-13
14370,2096,376,-120,-25,29,-13
14375,2136,344,-88,-24,27,-13
14380,2104,384,-104,-24,27,-13
14385,2096,368,-120,-23,29,-13
14390,2104,368,-120,-21,30,-13
14395,2096,360,-88,-17,29,-14
14400,2104,384,-120,-18,31,-13
14405,2104,376,-96,-19,31,-14
14410,2104,400,-112,-19,32,-16
14415,2112,416,-88,-22,33,-15
14420,2120,368,-88,-23,34,-15
14425,2104,384,-120,-24,36,-15
14430,2112,368,-112,-24,36,-16
14435,2104,384,-120,-22,35,-15
14440,2096,392,-128,-23,34,-15
14445,2096,392,-112,-21,33,-16
14450,2096,392,-96,-21,34,-16
14455,2096,400,-88,-22,32,-16
14460,2088,400,-128,-24,31,-16
14465,2104,384,-120,-25,31,-16
14470,2104,384,-136,-26,30,-15
14475,2112,384,-112,-26,29,-15
14480,2096,400,-80,-28,29,-15
14485,2096,392,-72,-29,29,-15
14490,2112,392,-144,-27,29,-14
14495,2104,368,-104,-27,28,-13
14500,2088,392,-104,-28,26,-13
14505,2112,368,-104,-28,24,-13
14510,2120,384,-96,-29,25,-12
14515,2096,384,-136,-31,25,-12
14520,2112,392,-128,-31,26,-12
14525,2104,368,-104,-32,26,-11
14530,2112,392,-144,-31,26,-11
14535,2096,384,-120,-31,27,-10
14540,2120,360,-104,-31,27,-10
14545,2120,360,-128,-27,27,-10
14550,2112,368,-88,-28,28,-9
14555,2088,384,-88,-28,27,-9
14560,2096,392,-104,-28,26,-7
14565,2096,392,-128,-27,24,-8
14570,2096,400,-104,-27,25,-8
14575,2096,400,-112,-29,25,-7
14580,2096,368,-128,-30,24,-6
14585,2104,400,-112,-30,23,-7
14590,2104,384,-128,-32,23,-7
14595,2096,384,-88,-30,22,-7
14600,2112,376,-104,-32,22,-8
14605,2112,376,-104,-36,22,-8
14610,2104,384,-88,-37,22,-8
14615,2120,376,-104,-37,23,-9
14620,2112,408,-96,-38,23,-8
14625,2104,376,-120,-36,24,-9
14630,2096,344,-112,-37,24,-9
14635,2096,392,-88,-36,24,-9
14640,2088,384,-104,-35,25,-9
14645,2088,400,-96,-34,25,-9
14650,2088,400,-104,-33,25,-10
14655,2088,360,-120,-33,26,-10
14660,2088,376,-104,-33,27,-9
14665,2112,368,-104,-33,27,-10
14670,2080,400,-120,-34,27,-12
14675,2096,392,-128,-35,30,-12
14680,2120,360,-104,-37,32,-13
14685,2128,360,-88,-37,31,-14
14690,2112,368,-120,-34,32,-14
14695,2104,376,-144,-33,34,-16
14700,2088,376,-104,-31,34,-17
14705,2120,392,-88,-30,35,-17
14710,2080,368,-72,-28,37,-17
14715,2120,376,-112,-25,37,-16
14720,2112,360,-88,-22,37,-14
14725,2096,376,-128,-23,35,-14
14730,2096,384,-80,-22,33,-15
14735,2104,368,-96,-22,33,-14
14740,2096,368,-96,-21,32,-13
14745,2112,376,-112,-19,32,-14
14750,2112,384,-112,-18,31,-14
14755,2120,376,-120,-20,31,-15
14760,2080,368,-96,-24,33,-15
14765,2120,392,-88,-26,35,-16
14770,2096,408,-120,-27,36,-14
14775,2112,360,-112,-24,34,-13
14780,2104,392,-96,-23,33,-12
14785,2104,384,-96,-23,34,-13
14790,2096,392,-72,-20,36,-12
14795,2104,392,-112,-16,36,-12
14800,2088,400,-112,-17,34,-13
14805,2096,384,-88,-17,33,-12
14810,2136,328,-104,-21,31,-11
14815,2088,384,-88,-22,29,-11
14820,2080,384,-104,-25,29,-11
14825,2112,384,-80,-27,27,-10
14830,2112,368,-88,-28,25,-9
14835,2112,376,-64,-29,23,-9
14840,2104,376,-72,-31,22,-9
14845,2072,376,-72,-32,22,-11
14850,2104,376,-104,-34,22,-10
14855,2112,368,-88,-33,22,-11
14860,2104,376,-112,-35,22,-11
14865,2112,368,-104,-34,22,-11
14870,2096,376,-120,-34,21,-11
14875,2120,352,-88,-36,23,-11
14880,2112,400,-112,-35,25,-13
14885,2080,400,-112,-33,24,-13
14890,2096,376,-120,-33,25,-13
14895,2112,392,-96,-34,28,-14
14900,2104,408,-104,-35,28,-15
14905,2112,384,-120,-34,29,-15
14910,2112,400,-96,-32,28,-14
14915,2096,408,-104,-29,28,-13
14920,2064,392,-80,-27,27,-12
14925,2112,400,-112,-24,25,-12
14930,2096,416,-88,-23,24,-10
14935,2112,400,-80,-24,24,-7
14940,2112,384,-88,-23,25,-8
14945,2080,408,-96,-22,26,-8
14950,2096,376,-120,-23,27,-7
14955,2096,352,-104,-25,27,-8
14960,2088,400,-104,-25,27,-8
14965,2096,368,-128,-26,27,-8
14970,2120,408,-128,-29,28,-7
14975,2104,392,-104,-29,27,-7
14980,2096,408,-88,-30,27,-8
14985,2104,400,-128,-30,24,-6
14990,2104,392,-96,-29,25,-7
14995,2096,384,-80,-32,26,-6
