timestamp,accel_x,accel_y,accel_z,gyro_x,gyro_y,gyro_z
0,152,-2008,-240,88,10,-5
5,144,-2000,-216,86,11,-8
10,152,-2000,-256,82,10,-11
15,144,-2032,-216,80,11,-13
20,160,-2016,-216,80,13,-12
25,136,-2024,-224,79,12,-14
30,128,-2008,-208,79,11,-14
35,144,-2024,-232,78,12,-14
40,120,-2016,-216,78,11,-14
45,136,-2000,-232,76,9,-14
50,136,-1992,-240,77,9,-14
55,160,-1992,-224,77,8,-14
60,136,-1976,-216,77,6,-15
65,144,-1992,-232,76,5,-15
70,112,-1984,-240,77,3,-15
75,152,-1952,-288,74,1,-16
80,104,-1960,-208,75,2,-14
85,128,-1968,-216,73,2,-15
90,136,-1976,-208,72,1,-14
95,104,-1976,-216,70,0,-14
100,144,-1984,-240,67,-2,-11
105,128,-1984,-232,64,-3,-12
110,128,-2032,-232,62,-4,-13
115,120,-2008,-232,59,-3,-12
120,136,-2024,-232,57,-3,-10
125,128,-2024,-224,54,-4,-8
130,120,-2056,-232,50,-4,-6
135,136,-2056,-224,49,-4,-5
140,144,-2032,-248,49,-6,-3
145,144,-2040,-256,51,-6,-1
150,136,-2032,-248,56,-6,1
155,160,-2040,-256,64,-5,3
160,176,-2032,-224,71,-4,2
165,152,-2008,-240,79,-2,3
170,144,-2016,-256,85,-1,6
175,144,-2048,-216,97,1,6
180,152,-2072,-224,111,1,7
185,144,-2072,-232,128,4,8
190,152,-2080,-256,148,7,6
195,152,-2064,-216,169,11,5
200,144,-2072,-240,193,14,4
205,128,-2008,-224,212,15,2
210,160,-2016,-272,227,18,2
215,104,-2000,-240,234,20,1
220,144,-1968,-248,232,20,0
225,128,-1968,-232,223,22,-1
230,112,-1968,-232,211,27,0
235,120,-1952,-256,198,28,-1
240,112,-1952,-200,186,29,-1
245,136,-1976,-208,176,31,-2
250,136,-1976,-184,166,32,-1
255,152,-1968,-184,156,31,-3
260,152,-2000,-176,149,33,-3
265,152,-2000,-176,139,34,-3
270,144,-2000,-136,134,35,-4
275,112,-1984,-184,132,33,-4
280,112,-1992,-160,129,35,-5
285,136,-1984,-200,126,36,-6
290,136,-1992,-176,124,38,-7
295,128,-1984,-176,123,40,-8
300,136,-1992,-184,121,41,-7
305,136,-2008,-152,120,40,-9
310,128,-2000,-144,119,39,-10
315,136,-1992,-144,118,37,-9
320,136,-2000,-176,116,37,-9
325,128,-1968,-128,113,34,-10
330,144,-1992,-128,112,31,-10
335,128,-1984,-160,109,29,-12
340,152,-1992,-168,106,29,-11
345,136,-1968,-184,104,27,-12
350,144,-2008,-152,99,26,-11
355,136,-2008,-152,96,27,-10
360,136,-1976,-176,91,26,-11
365,144,-1992,-168,86,28,-11
370,136,-1976,-136,83,28,-11
375,96,-1992,-144,76,28,-10
380,160,-1992,-152,74,26,-9
385,160,-2016,-160,73,23,-9
390,144,-1984,-144,72,22,-8
395,136,-1976,-168,72,19,-12
400,112,-2000,-168,70,18,-13
405,128,-2000,-136,68,17,-13
410,144,-1992,-152,65,17,-13
415,144,-2000,-160,63,17,-14
420,136,-2032,-176,60,17,-13
425,144,-2032,-144,59,17,-14
430,152,-2024,-176,58,18,-14
435,152,-2016,-200,55,18,-15
440,160,-2032,-168,53,18,-15
445,136,-2016,-160,54,17,-15
450,120,-1968,-120,53,17,-15
455,136,-1984,-144,51,15,-15
460,136,-2000,-136,49,13,-16
465,128,-2000,-136,47,11,-15
470,160,-2016,-152,46,9,-15
475,168,-2000,-144,45,7,-14
480,144,-2024,-128,45,7,-14
485,152,-2008,-128,46,7,-14
490,144,-2000,-160,46,4,-14
495,120,-2000,-176,45,2,-13
500,144,-2000,-152,45,1,-14
505,160,-1984,-168,46,1,-13
510,168,-2016,-176,47,3,-14
515,136,-1984,-160,46,3,-13
520,144,-1984,-168,45,5,-13
525,152,-2008,-160,45,6,-13
530,152,-2000,-168,44,7,-12
535,152,-2032,-160,45,9,-14
540,136,-2032,-144,43,11,-12
545,144,-2008,-136,42,11,-13
550,144,-2016,-184,44,13,-15
555,152,-2032,-176,43,13,-16
560,160,-2008,-168,43,14,-15
565,152,-2032,-184,43,17,-16
570,152,-2024,-168,45,21,-17
575,152,-2000,-176,47,21,-16
580,144,-2024,-200,49,22,-15
585,144,-2008,-168,51,24,-13
590,128,-2000,-200,52,24,-14
595,152,-2032,-168,52,26,-14
600,152,-2016,-160,51,26,-15
605,128,-2000,-160,52,26,-14
610,136,-1992,-208,52,27,-15
615,144,-2016,-168,52,27,-15
620,144,-2008,-152,53,26,-15
625,120,-1992,-152,54,25,-15
630,112,-2000,-152,53,25,-14
635,136,-2000,-160,53,24,-15
640,120,-2000,-184,52,23,-15
645,136,-2000,-184,51,22,-15
650,144,-1992,-136,50,21,-13
655,120,-2000,-208,51,20,-12
660,168,-1992,-168,50,19,-13
665,144,-2024,-168,52,19,-13
670,128,-2000,-176,51,18,-15
675,136,-2000,-152,51,18,-15
680,136,-2008,-152,52,17,-15
685,152,-2032,-168,52,15,-16
690,144,-2024,-152,53,16,-15
695,152,-2024,-152,54,15,-16
700,104,-2016,-136,55,15,-16
705,144,-2016,-160,55,16,-17
710,152,-2000,-160,52,16,-15
715,136,-1992,-144,50,16,-16
720,128,-1992,-176,49,17,-13
725,144,-1992,-176,47,17,-15
730,136,-1992,-168,46,18,-16
735,152,-2016,-160,47,19,-17
740,144,-1992,-200,49,20,-16
745,152,-1992,-192,47,23,-15
750,160,-2016,-192,46,24,-16
755,168,-2024,-160,46,25,-14
760,168,-2008,-200,46,25,-14
765,128,-2008,-168,45,25,-13
770,144,-2024,-200,46,25,-14
775,120,-2008,-168,47,25,-13
780,144,-2024,-160,48,24,-15
785,112,-2000,-168,49,25,-14
790,136,-2016,-152,52,23,-13
795,120,-2016,-160,53,23,-13
800,128,-2016,-144,54,23,-13
805,96,-2024,-144,54,22,-11
810,128,-2016,-216,54,22,-10
815,112,-2008,-152,56,19,-13
820,152,-2016,-176,55,17,-11
825,104,-1984,-120,54,16,-11
830,144,-2008,-208,54,16,-10
835,128,-2024,-144,53,16,-10
840,144,-2008,-160,54,12,-10
845,136,-2016,-176,55,14,-11
850,128,-1976,-176,57,14,-11
855,112,-2008,-144,57,13,-12
860,136,-2008,-168,58,13,-11
865,128,-2008,-168,59,11,-10
870,200,-2008,-144,58,12,-10
875,120,-2024,-168,58,11,-10
880,136,-2008,-176,59,11,-12
885,136,-2024,-144,59,9,-12
890,128,-2016,-176,59,9,-11
895,144,-1992,-168,59,8,-11
900,136,-2008,-176,59,5,-13
905,136,-2008,-160,60,5,-11
910,136,-2000,-168,62,5,-13
915,144,-1992,-128,62,5,-13
920,112,-2008,-128,63,3,-14
925,152,-2008,-136,64,2,-12
930,152,-2016,-152,64,0,-12
935,136,-2032,-152,62,-2,-13
940,120,-2016,-144,61,-2,-12
945,144,-2032,-152,60,-2,-11
950,136,-2008,-136,59,-4,-11
955,144,-2016,-152,57,-5,-11
960,144,-1992,-152,56,-4,-12
965,128,-1968,-176,56,-5,-11
970,160,-2008,-176,55,-3,-11
975,136,-2016,-128,55,-2,-12
980,128,-1976,-160,54,1,-12
985,168,-2008,-184,53,0,-12
990,152,-2008,-184,54,1,-14
995,160,-2000,-200,53,1,-12
1000,128,-1984,-168,52,0,-14
1005,128,-2024,-152,51,0,-15
1010,152,-2008,-168,52,2,-15
1015,160,-2040,-160,52,0,-16
1020,144,-2016,-144,54,-1,-14
1025,160,-1992,-152,54,0,-15
1030,128,-1992,-152,55,0,-13
1035,152,-2016,-160,55,0,-14
1040,128,-2000,-192,55,1,-12
1045,152,-2024,-176,55,2,-9
1050,168,-2008,-160,56,3,-9
1055,176,-2000,-200,55,3,-11
1060,152,-2040,-144,55,4,-10
1065,136,-2008,-176,55,4,-10
1070,176,-2008,-160,56,5,-9
1075,168,-2016,-184,55,4,-11
1080,144,-2000,-152,53,5,-11
1085,168,-2008,-208,52,5,-12
1090,144,-2008,-176,51,5,-13
1095,152,-1992,-184,51,5,-12
1100,136,-2016,-176,50,6,-12
1105,144,-1984,-184,51,7,-13
1110,136,-2032,-168,51,7,-13
1115,136,-2000,-192,53,7,-13
1120,136,-2016,-184,54,8,-14
1125,136,-2024,-176,54,9,-13
1130,144,-2016,-176,55,10,-15
1135,152,-2024,-152,57,9,-17
1140,160,-2008,-184,58,11,-18
1145,152,-2008,-168,60,11,-17
1150,144,-2024,-144,61,9,-17
1155,152,-2008,-168,60,9,-16
1160,176,-2032,-168,63,9,-15
1165,168,-2016,-136,63,9,-13
1170,128,-2008,-176,65,10,-14
1175,128,-2016,-168,67,9,-15
1180,144,-2000,-176,67,10,-13
1185,144,-2016,-176,69,8,-12
1190,152,-2016,-192,68,8,-12
1195,160,-2032,-192,68,7,-11
1200,160,-2008,-192,67,8,-12
1205,152,-1968,-184,67,5,-12
1210,152,-2024,-184,68,4,-13
1215,152,-2000,-184,70,5,-13
1220,160,-2040,-176,71,4,-14
1225,160,-2008,-208,72,4,-14
1230,176,-2008,-200,74,5,-15
1235,160,-2016,-176,75,6,-16
1240,160,-2000,-192,78,8,-16
1245,136,-2032,-136,78,8,-14
1250,176,-1976,-168,78,6,-15
1255,152,-1968,-168,79,6,-15
1260,136,-2008,-184,80,5,-15
1265,136,-2000,-184,79,4,-16
1270,160,-2024,-160,79,2,-16
1275,144,-2016,-168,79,3,-19
1280,152,-2000,-184,79,3,-19
1285,128,-1992,-136,78,4,-17
1290,176,-2032,-160,77,3,-17
1295,168,-2016,-176,76,4,-16
1300,160,-2032,-128,75,5,-15
1305,224,-2072,-200,75,6,-13
1310,152,-2024,-168,75,6,-13
1315,152,-2008,-152,76,6,-13
1320,160,-1992,-168,77,7,-12
1325,168,-1992,-216,78,7,-13
1330,144,-1984,-192,78,7,-11
1335,192,-1984,-160,76,8,-10
1340,160,-1984,-184,75,8,-11
1345,168,-1992,-200,74,8,-11
1350,120,-2000,-176,70,9,-14
1355,152,-2000,-168,69,9,-13
1360,168,-2000,-160,68,11,-12
1365,168,-2000,-168,66,11,-12
1370,144,-2008,-176,65,12,-15
1375,128,-1984,-152,64,13,-14
1380,128,-1992,-184,63,14,-15
1385,160,-2000,-168,60,14,-15
1390,136,-1968,-176,59,15,-16
1395,144,-1984,-160,57,15,-16
1400,136,-2008,-144,55,16,-13
1405,144,-1984,-152,52,16,-14
1410,168,-2024,-200,52,17,-11
1415,176,-2024,-168,51,19,-11
1420,152,-2000,-176,49,18,-10
1425,136,-2016,-184,49,18,-9
1430,136,-2000,-168,49,19,-8
1435,152,-1984,-152,47,18,-8
1440,136,-1984,-168,46,19,-8
1445,152,-2000,-152,46,18,-8
1450,144,-2024,-128,43,17,-7
1455,152,-2008,-160,41,15,-6
1460,144,-1992,-168,39,16,-6
1465,128,-2016,-200,38,15,-5
1470,152,-2008,-160,37,14,-6
1475,144,-2008,-168,33,12,-5
1480,128,-2016,-192,31,11,-4
1485,144,-2008,-160,30,9,-3
1490,160,-1992,-192,28,10,-3
1495,136,-2008,-176,28,9,-3
1500,144,-2008,-152,27,8,-4
1505,168,-2008,-152,25,8,-2
1510,144,-2000,-144,25,7,-2
1515,152,-2000,-144,25,7,-1
1520,128,-2008,-168,26,7,-1
1525,152,-2008,-168,25,5,-1
1530,136,-1968,-168,26,6,-1
1535,176,-1984,-168,27,6,-1
1540,152,-2008,-160,27,6,1
1545,168,-2032,-176,27,4,0
1550,136,-2000,-168,26,4,1
1555,160,-2008,-160,27,3,1
1560,144,-1968,-152,28,2,3
1565,136,-1992,-168,27,1,2
1570,152,-2024,-168,29,2,2
1575,152,-2000,-168,28,-1,1
1580,152,-2008,-192,26,-3,2
1585,128,-1992,-128,26,-6,3
1590,128,-2016,-184,25,-7,2
1595,128,-2064,-160,26,-7,-1
1600,136,-1992,-184,25,-9,0
1605,152,-2048,-176,25,-10,-1
1610,160,-2024,-136,25,-10,-1
1615,152,-1984,-176,24,-10,-1
1620,136,-1992,-168,24,-11,-1
1625,128,-1992,-160,24,-12,-1
1630,120,-1992,-160,24,-12,0
1635,128,-2008,-160,24,-14,2
1640,144,-2016,-144,25,-17,4
1645,128,-2008,-128,26,-20,5
1650,112,-1992,-168,24,-24,9
1655,120,-2000,-136,24,-28,13
1660,104,-2016,-160,26,-33,17
1665,96,-2000,-136,26,-40,19
1670,80,-2016,-168,26,-48,23
1675,104,-2040,-136,26,-52,25
1680,104,-2032,-128,25,-57,27
1685,96,-2000,-176,23,-62,30
1690,88,-2016,-144,20,-66,31
1695,104,-2032,-144,19,-71,30
1700,64,-2000,-144,20,-77,33
1705,72,-2016,-176,20,-83,35
1710,56,-1992,-160,19,-90,39
1715,80,-2024,-168,20,-97,46
1720,56,-2032,-160,20,-102,50
1725,48,-2040,-144,19,-106,53
1730,56,-2040,-160,16,-108,53
1735,56,-2032,-184,13,-108,54
1740,64,-2024,-176,9,-108,52
1745,88,-2024,-200,7,-104,48
1750,88,-2032,-192,6,-98,45
1755,120,-2040,-208,6,-96,43
1760,120,-2032,-208,6,-92,38
1765,144,-2056,-184,7,-88,36
1770,120,-2040,-168,9,-83,35
1775,104,-2048,-144,16,-79,34
1780,152,-2056,-152,23,-73,34
1785,128,-2040,-176,30,-70,32
1790,104,-2024,-160,34,-67,32
1795,144,-2048,-136,39,-63,31
1800,128,-2024,-192,46,-59,27
1805,104,-2032,-136,51,-54,25
1810,88,-1992,-144,57,-51,20
1815,88,-1992,-160,64,-50,18
1820,88,-2024,-128,67,-47,14
1825,88,-1984,-144,74,-44,11
1830,192,-1936,-184,80,-40,9
1835,96,-1992,-120,83,-35,6
1840,80,-2008,-112,86,-30,4
1845,96,-2000,-112,89,-24,5
1850,80,-2024,-120,93,-17,2
1855,104,-2000,-88,93,-10,0
1860,112,-2000,-104,93,-4,-3
1865,120,-1976,-120,91,3,-7
1870,112,-1992,-104,86,9,-12
1875,112,-1984,-120,82,13,-15
1880,112,-1976,-120,77,18,-22
1885,120,-1976,-128,71,24,-27
1890,144,-1984,-128,67,30,-32
1895,120,-1984,-96,63,35,-37
1900,136,-1992,-112,57,41,-41
1905,112,-1992,-144,53,45,-47
1910,136,-1992,-136,52,52,-50
1915,120,-1992,-120,50,56,-53
1920,144,-2024,-128,48,61,-54
1925,128,-1992,-120,50,63,-58
1930,128,-1992,-112,49,64,-60
1935,104,-1984,-160,46,67,-62
1940,104,-2016,-160,46,69,-64
1945,112,-2016,-120,44,68,-67
1950,88,-2024,-168,42,67,-67
1955,88,-2016,-160,41,67,-66
1960,104,-2032,-200,41,66,-69
1965,80,-2032,-168,41,68,-72
1970,112,-2024,-152,42,68,-72
1975,72,-2024,-160,45,68,-76
1980,80,-2008,-168,49,69,-77
1985,80,-2008,-168,53,68,-77
1990,72,-2008,-176,56,69,-80
1995,80,-2000,-200,57,68,-80
2000,96,-2008,-200,57,67,-80
2005,96,-1992,-192,59,68,-83
2010,104,-1976,-184,59,68,-85
2015,96,-1984,-192,58,68,-85
2020,96,-1976,-152,59,69,-88
2025,96,-2000,-192,58,68,-89
2030,144,-2024,-168,57,70,-90
2035,112,-2000,-192,56,69,-89
2040,120,-2016,-192,56,73,-89
2045,136,-2016,-160,58,75,-90
2050,120,-2024,-184,60,76,-90
2055,128,-2024,-184,63,78,-90
2060,128,-2032,-168,65,77,-89
2065,104,-2040,-176,68,78,-89
2070,96,-2016,-200,72,78,-89
2075,104,-2040,-176,73,79,-88
2080,88,-2032,-152,74,78,-86
2085,88,-2024,-184,74,76,-85
2090,104,-2056,-176,73,75,-82
2095,88,-2040,-200,76,71,-80
2100,104,-2040,-176,76,67,-79
2105,104,-2040,-168,77,63,-79
2110,96,-2040,-216,80,60,-80
2115,128,-2024,-200,82,57,-82
2120,104,-1992,-200,84,56,-82
2125,120,-2016,-208,84,54,-86
2130,96,-1992,-224,85,53,-88
2135,144,-2016,-184,84,53,-89
2140,120,-1984,-160,82,55,-90
2145,152,-2008,-200,82,56,-94
2150,112,-1984,-184,81,59,-95
2155,136,-2008,-184,81,64,-95
2160,160,-2032,-168,78,67,-96
2165,152,-2032,-184,76,69,-95
2170,160,-2024,-184,73,69,-97
2175,144,-2032,-184,69,68,-96
2180,144,-2016,-160,67,69,-95
2185,144,-2040,-168,66,67,-94
2190,136,-2024,-192,66,66,-94
2195,104,-2040,-200,68,64,-93
2200,112,-2016,-184,70,62,-93
2205,136,-1976,-200,71,59,-93
2210,112,-1984,-192,71,56,-93
2215,128,-2032,-160,71,54,-95
2220,128,-2032,-152,73,53,-94
2225,120,-2008,-144,74,53,-95
2230,120,-2008,-184,76,53,-97
2235,104,-2008,-168,76,53,-97
2240,128,-2040,-192,78,55,-100
2245,144,-2024,-168,79,59,-102
2250,128,-2016,-160,78,63,-105
2255,136,-2008,-152,77,67,-107
2260,160,-2032,-160,79,72,-110
2265,184,-2040,-128,84,76,-117
2270,176,-2032,-144,89,82,-122
2275,184,-2040,-136,95,88,-128
2280,232,-2016,-128,102,95,-133
2285,240,-2008,-152,110,100,-138
2290,216,-2008,-144,117,108,-141
2295,224,-2000,-120,123,115,-143
2300,184,-2008,-136,131,121,-144
2305,208,-2000,-144,135,128,-143
2310,192,-1968,-144,138,135,-144
2315,184,-1944,-144,143,141,-141
2320,192,-1976,-144,145,146,-142
2325,216,-1936,-152,147,151,-141
2330,200,-1968,-144,146,154,-140
2335,200,-1984,-152,141,157,-141
2340,192,-1968,-168,138,158,-144
2345,176,-1944,-144,134,159,-144
2350,192,-1976,-136,128,160,-147
2355,192,-1992,-176,122,159,-148
2360,192,-1984,-168,115,160,-149
2365,192,-1976,-152,110,162,-150
2370,168,-1992,-200,105,164,-150
2375,208,-2024,-160,101,164,-151
2380,184,-2024,-152,97,164,-150
2385,192,-2008,-168,94,161,-148
2390,176,-1992,-176,92,159,-145
2395,176,-2024,-176,90,156,-142
2400,176,-2016,-216,87,151,-137
2405,168,-2032,-168,85,147,-132
2410,192,-1976,-200,82,142,-126
2415,176,-1992,-176,83,137,-120
2420,184,-1960,-184,82,132,-113
2425,184,-1984,-192,84,130,-109
2430,208,-1984,-200,82,128,-107
2435,192,-2008,-208,80,127,-105
2440,192,-1984,-200,79,123,-103
2445,208,-1984,-216,78,122,-101
2450,224,-1976,-208,81,122,-98
2455,224,-2008,-200,82,122,-96
2460,232,-1976,-216,86,121,-93
2465,232,-2000,-200,90,121,-89
2470,256,-1976,-208,93,122,-83
2475,256,-1960,-200,96,120,-76
2480,256,-1920,-192,98,120,-71
2485,264,-1936,-184,100,119,-63
2490,288,-1968,-176,101,115,-57
2495,280,-1944,-184,108,111,-50
2500,264,-1976,-136,116,107,-47
2505,240,-1984,-152,130,101,-42
2510,272,-2000,-96,149,96,-39
2515,264,-2008,-80,173,94,-39
2520,272,-2008,-24,200,89,-36
2525,304,-2040,-16,227,89,-34
2530,296,-2040,-32,248,91,-35
2535,304,-2024,-24,266,94,-36
2540,328,-2016,-24,280,101,-37
2545,328,-2032,0,292,101,-36
2550,352,-2016,0,299,102,-32
2555,344,-2008,0,303,99,-32
2560,352,-1976,-8,302,96,-32
2565,368,-1984,-32,294,92,-34
2570,408,-1984,0,285,88,-39
2575,424,-2000,-16,273,89,-44
2580,456,-1872,0,261,92,-47
2585,448,-1968,-16,248,98,-51
2590,456,-1984,0,236,105,-54
2595,432,-1968,-8,220,111,-53
2600,392,-1992,0,209,115,-49
2605,376,-1984,0,203,117,-47
2610,352,-2040,56,204,117,-43
2615,344,-2032,72,211,112,-37
2620,304,-2048,88,218,101,-30
2625,328,-2064,72,225,87,-22
2630,272,-2048,72,226,69,-14
2635,248,-2040,24,221,48,-3
2640,232,-2064,32,210,28,6
2645,200,-2048,32,197,5,10
2650,184,-2016,0,184,-17,19
2655,200,-2016,8,173,-37,23
2660,232,-2032,-16,165,-51,24
2665,272,-2024,0,156,-56,21
2670,320,-2016,32,147,-57,14
2675,328,-1968,0,138,-56,4
2680,352,-2024,8,130,-54,-5
2685,384,-2000,-8,121,-53,-14
2690,416,-2016,0,114,-52,-21
2695,408,-2032,0,106,-48,-29
2700,416,-2032,-48,103,-44,-35
2705,440,-2008,0,100,-37,-39
2710,424,-1992,0,103,-32,-42
2715,400,-1984,-32,108,-28,-44
2720,392,-1984,0,115,-22,-41
2725,352,-1976,-16,122,-21,-38
2730,328,-1944,0,127,-22,-33
2735,296,-1960,0,133,-28,-22
2740,288,-1928,8,139,-33,-11
2745,280,-1920,0,143,-39,-1
2750,288,-1920,16,144,-49,9
2755,264,-1888,32,144,-56,19
2760,248,-1896,48,145,-67,31
2765,264,-1872,-16,143,-76,44
2770,248,-1880,16,144,-88,56
2775,280,-1840,16,139,-98,69
2780,312,-1832,24,136,-106,79
2785,288,-1856,8,132,-112,89
2790,288,-1840,184,125,-119,95
2795,296,-1832,-16,115,-125,101
2800,296,-1848,-8,102,-129,106
2805,288,-1856,0,86,-133,114
2810,280,-1872,0,70,-136,121
2815,288,-1912,-40,58,-134,127
2820,272,-1928,0,48,-133,132
2825,280,-1928,-32,41,-132,138
2830,264,-1968,-48,34,-128,149
2835,264,-1968,-24,31,-125,158
2840,280,-2016,-40,29,-119,168
2845,296,-2016,-56,30,-112,180
2850,288,-1968,-96,33,-103,194
2855,320,-2000,-120,41,-99,206
2860,344,-2008,-128,51,-93,221
2865,336,-1992,-104,65,-90,231
2870,360,-1984,-144,82,-91,244
2875,336,-1968,-72,101,-93,252
2880,352,-2016,-96,117,-97,257
2885,328,-2040,-72,132,-104,261
2890,312,-1992,-80,147,-110,263
2895,328,-2008,-56,158,-116,263
2900,320,-2032,-24,168,-119,261
2905,312,-2048,0,177,-123,256
2910,280,-2040,8,186,-125,250
2915,280,-2024,0,193,-125,242
2920,248,-2040,8,197,-124,238
2925,256,-2016,16,199,-122,236
2930,264,-2072,16,197,-119,235
2935,272,-2048,16,195,-113,234
2940,256,-2056,8,192,-104,236
2945,272,-2056,0,190,-91,236
2950,272,-2032,8,186,-78,235
2955,288,-1960,16,181,-65,232
2960,280,-2016,24,175,-55,230
2965,272,-2056,48,169,-47,223
2970,272,-2040,8,162,-39,215
2975,256,-2056,40,153,-28,206
2980,304,-2064,32,142,-13,196
2985,288,-2072,24,128,4,184
2990,288,-2064,24,115,26,171
2995,280,-2072,40,99,53,155
3000,288,-2080,32,81,81,139
3005,304,-2088,40,69,107,123
3010,304,-2144,48,58,129,109
3015,312,-2080,16,45,150,97
3020,312,-2080,-16,31,168,84
3025,312,-2080,-32,16,181,71
3030,312,-2056,-16,4,196,61
3035,256,-2024,-16,-6,209,50
3040,232,-1992,-24,-17,222,42
3045,216,-1976,-48,-23,231,35
3050,176,-1944,-40,-28,236,31
3055,160,-1928,-24,-36,237,28
3060,152,-1968,-32,-43,237,31
3065,136,-1952,-56,-50,234,34
3070,128,-1920,-24,-56,229,39
3075,104,-1912,-16,-62,224,44
3080,112,-1936,-32,-68,216,53
3085,96,-1928,-24,-72,207,60
3090,104,-1976,-8,-75,198,69
3095,128,-1968,-48,-78,185,78
3100,144,-1992,-40,-80,170,86
3105,152,-2008,-48,-83,155,95
3110,144,-1992,-80,-85,140,109
3115,128,-1984,-64,-88,127,123
3120,152,-1976,-40,-93,114,137
3125,128,-1992,-48,-95,103,152
3130,120,-1984,-120,-99,93,171
3135,88,-1944,-136,-103,84,188
3140,80,-1944,-136,-107,73,209
3145,72,-1936,-136,-112,62,226
3150,64,-1936,-160,-122,50,249
3155,64,-1920,-176,-130,35,274
3160,32,-1920,-216,-140,15,299
3165,16,-1928,-240,-152,-9,323
3170,0,-1920,-184,-159,-38,343
3175,8,-1968,-216,-166,-66,356
3180,0,-1976,-224,-172,-96,366
3185,0,-2024,-224,-169,-125,371
3190,0,-2056,-248,-164,-147,374
3195,-32,-2088,-232,-155,-172,365
3200,-16,-2112,-216,-147,-190,355
3205,-8,-2080,-184,-136,-206,341
3210,0,-2088,-208,-125,-215,330
3215,0,-2088,-200,-116,-219,318
3220,-8,-2080,-200,-104,-223,303
3225,-8,-2080,-176,-86,-226,293
3230,0,-2048,-152,-68,-229,282
3235,32,-1992,-136,-51,-228,270
3240,32,-1960,-128,-34,-222,255
3245,40,-1936,-128,-18,-213,238
3250,96,-1936,-120,-9,-202,220
3255,144,-1896,-112,-5,-185,200
3260,136,-1944,-72,-8,-167,181
3265,168,-1936,-64,-18,-146,159
3270,168,-1944,-80,-29,-126,141
3275,200,-1968,-56,-41,-106,123
3280,200,-1976,-48,-55,-85,104
3285,192,-1984,-32,-64,-65,87
3290,160,-1968,-16,-73,-43,77
3295,192,-1976,-16,-80,-21,65
3300,160,-2008,-8,-89,-4,56
3305,144,-2008,-32,-95,8,50
3310,144,-1976,-48,-103,17,48
3315,120,-2008,-48,-111,23,47
3320,104,-2024,-16,-114,26,48
3325,104,-2024,-40,-113,24,50
3330,128,-2016,0,-113,21,54
3335,64,-2048,-24,-108,17,57
3340,56,-2064,-24,-103,7,60
3345,24,-2072,-8,-97,-5,62
3350,24,-2064,-32,-90,-12,65
3355,0,-2072,-56,-81,-21,66
3360,0,-2056,-40,-73,-29,67
3365,-8,-2048,-48,-67,-35,67
3370,-16,-2080,-80,-62,-39,68
3375,-16,-2088,-112,-57,-43,68
3380,0,-2096,-88,-54,-48,68
3385,-16,-2056,-128,-50,-53,66
3390,-24,-2056,-120,-47,-57,62
3395,-8,-2056,-120,-43,-63,61
3400,-8,-2048,-120,-41,-69,57
3405,-24,-2056,-112,-38,-75,53
3410,-8,-2048,-104,-35,-80,47
3415,-8,-2056,-112,-30,-86,44
3420,-24,-2024,-96,-23,-92,42
3425,8,-2072,-88,-15,-97,40
3430,0,-2064,-96,-6,-100,39
3435,8,-2032,-96,1,-100,38
3440,16,-1992,-96,7,-97,35
3445,16,-2000,-136,11,-93,34
3450,16,-2024,-144,14,-88,32
3455,24,-1960,-136,16,-82,30
3460,24,-1968,-120,19,-79,30
3465,8,-1936,-128,22,-79,29
3470,8,-1904,-128,22,-79,30
3475,16,-1912,-120,18,-81,32
3480,-8,-1872,-160,9,-85,35
3485,-16,-1896,-136,-2,-89,38
3490,-24,-1880,-144,-15,-93,42
3495,-8,-1872,-144,-28,-99,47
3500,-56,-1856,-168,-43,-107,49
3505,-96,-1816,-168,-59,-112,56
3510,-104,-1848,-184,-76,-117,61
3515,-136,-1840,-224,-95,-127,67
3520,-136,-1808,-256,-117,-137,75
3525,-176,-1800,-272,-139,-148,85
3530,-200,-1824,-264,-161,-161,93
3535,-208,-1776,-272,-183,-171,101
3540,-192,-1744,-320,-204,-182,108
3545,-192,-1736,-304,-228,-192,114
3550,-152,-1736,-376,-247,-203,116
3555,-208,-1728,-288,-275,-218,111
3560,-144,-1744,-256,-312,-215,117
3565,-128,-1800,-208,-335,-215,112
3570,-112,-1832,-240,-351,-216,106
3575,-80,-1872,-216,-365,-219,99
3580,-72,-1912,-160,-375,-223,94
3585,-104,-2000,-304,-349,-237,78
3590,-104,-2032,-224,-355,-244,78
3595,-64,-2008,-184,-360,-237,83
3600,-72,-2024,-248,-346,-232,85
3605,-136,-1984,-296,-327,-225,86
3610,-112,-2024,-296,-316,-215,90
3615,-64,-1944,-320,-293,-212,96
3620,-192,-2024,-328,-268,-218,103
3625,-192,-2008,-304,-272,-205,122
3630,-152,-2024,-280,-258,-196,136
3635,-176,-2000,-272,-233,-187,150
3640,-152,-2000,-256,-213,-181,160
3645,-120,-2024,-248,-171,-185,164
3650,-144,-2040,-264,-157,-185,174
3655,-80,-2008,-216,-152,-181,184
3660,-64,-2064,-168,-139,-178,189
3665,-24,-2064,-208,-121,-175,193
3670,0,-2040,-176,-99,-176,193
3675,-24,-2064,-216,-88,-177,196
3680,8,-2080,-144,-85,-169,197
3685,16,-2088,-184,-78,-168,201
3690,32,-2088,-168,-73,-166,204
3695,0,-2080,-144,-67,-165,207
3700,-8,-2096,-208,-63,-160,214
3705,-48,-2080,-280,-57,-156,218
3710,-24,-2072,-192,-52,-153,219
3715,-88,-2032,-216,-50,-151,222
3720,-128,-2008,-216,-50,-157,224
3725,-152,-2008,-216,-37,-167,227
3730,-184,-2016,-280,-24,-179,229
3735,-216,-2000,-256,-18,-191,233
3740,-224,-1960,-208,-15,-199,235
3745,-224,-1968,-216,-11,-209,236
3750,-224,-1968,-176,-3,-220,235
3755,-216,-1960,-168,3,-226,231
3760,-216,-1968,-160,7,-228,229
3765,-208,-1944,-152,3,-220,225
3770,-112,-1992,-184,-2,-211,223
3775,-72,-2016,-184,-9,-200,221
3780,-8,-2000,-216,-14,-187,218
3785,16,-2016,-216,-20,-173,214
3790,72,-1992,-216,-33,-160,207
3795,88,-1976,-280,-42,-152,203
3800,88,-1976,-264,-59,-147,198
3805,112,-1984,-320,-72,-148,194
3810,72,-1968,-328,-85,-153,190
3815,64,-1960,-376,-94,-155,187
3820,56,-2000,-344,-98,-154,180
3825,8,-2040,-312,-96,-152,177
3830,0,-2056,-336,-86,-147,177
3835,-16,-2096,-264,-63,-136,175
3840,-56,-2064,-320,-30,-127,170
3845,-80,-2080,-336,1,-124,166
3850,-128,-2032,-352,27,-121,164
3855,-136,-2032,-296,42,-121,167
3860,-168,-2016,-336,52,-120,173
3865,-184,-1912,-232,56,-123,179
3870,-184,-1896,-384,53,-132,185
3875,-208,-1832,-344,45,-144,186
3880,-208,-1784,-384,26,-159,187
3885,-208,-1792,-408,-4,-170,190
3890,-192,-1808,-392,-36,-180,192
3895,-224,-1800,-408,-65,-185,183
3900,-248,-1800,-408,-94,-195,175
3905,-208,-1816,-424,-124,-205,167
3910,-240,-1848,-400,-153,-211,163
3915,-192,-1912,-408,-178,-219,156
3920,-168,-1912,-376,-189,-227,152
3925,-136,-1944,-376,-193,-227,146
3930,-120,-1960,-368,-189,-213,144
3935,-88,-1944,-368,-186,-187,145
3940,0,-1928,-320,-177,-161,146
3945,8,-1888,-320,-157,-145,139
3950,8,-1816,-344,-153,-132,136
3955,40,-1808,-376,-150,-126,142
3960,56,-1744,-360,-159,-119,149
3965,64,-1704,-400,-174,-112,153
3970,80,-1664,-344,-198,-107,148
3975,56,-1696,-360,-231,-109,146
3980,0,-1640,-360,-268,-114,148
3985,-48,-1688,-344,-315,-121,157
3990,-56,-1664,-360,-362,-134,173
3995,-104,-1656,-328,-416,-133,186
4000,-112,-1720,-280,-490,-128,201
4005,-128,-1760,-288,-538,-123,210
4010,-160,-1784,-272,-566,-118,214
4015,-168,-1728,-280,-591,-112,222
4020,-176,-1816,-296,-609,-112,232
4025,-184,-1912,-280,-611,-115,244
4030,-168,-1888,-304,-583,-118,243
4035,-176,-1896,-336,-563,-121,246
4040,-184,-1904,-352,-554,-121,247
4045,-168,-1920,-360,-561,-123,252
4050,-160,-1952,-328,-565,-121,257
4055,-168,-1968,-360,-555,-119,257
4060,-136,-1968,-344,-525,-122,261
4065,-160,-1968,-352,-502,-126,261
4070,-168,-1968,-336,-484,-130,258
4075,-168,-2008,-376,-466,-139,257
4080,-152,-2048,-400,-449,-150,258
4085,-200,-2000,-392,-434,-159,266
4090,-200,-2024,-392,-426,-159,269
4095,-240,-2016,-400,-424,-156,266
4100,-208,-2024,-440,-415,-157,259
4105,-224,-2064,-392,-399,-163,253
4110,-200,-2040,-376,-382,-172,251
4115,-192,-2024,-400,-361,-182,246
4120,-192,-2040,-432,-344,-192,233
4125,-200,-2032,-432,-330,-199,222
4130,-200,-2032,-432,-315,-201,213
4135,-176,-2008,-488,-293,-203,201
4140,-184,-1984,-456,-272,-203,189
4145,-208,-2000,-456,-251,-202,177
4150,-192,-1960,-488,-234,-196,169
4155,-192,-1912,-496,-224,-188,160
4160,-144,-1904,-496,-227,-183,151
4165,-112,-1912,-496,-235,-181,143
4170,-160,-1888,-528,-245,-182,135
4175,-216,-1888,-488,-257,-188,133
4180,-168,-1920,-504,-263,-197,136
4185,-216,-1912,-512,-270,-211,140
4190,-208,-1896,-512,-276,-224,149
4195,-232,-1952,-528,-294,-239,157
4200,-216,-1936,-552,-301,-246,167
4205,-208,-1968,-520,-299,-252,179
4210,-184,-1968,-520,-286,-254,186
4215,-136,-2000,-552,-275,-256,185
4220,-120,-1960,-528,-250,-253,183
4225,-120,-1912,-544,-231,-247,178
4230,-112,-1880,-584,-229,-243,171
4235,-72,-1912,-552,-229,-235,157
4240,-48,-1832,-616,-221,-219,146
4245,-40,-1808,-624,-227,-203,137
4250,-16,-1800,-632,-247,-188,133
4255,-16,-1808,-632,-283,-173,137
4260,16,-1896,-632,-319,-158,147
4265,-16,-2008,-616,-336,-133,155
4270,0,-2080,-576,-321,-105,166
4275,-40,-2072,-592,-281,-81,179
4280,-88,-2032,-592,-244,-66,188
4285,-32,-2032,-648,-210,-52,197
4290,-88,-1952,-576,-173,-35,211
4295,-112,-1896,-640,-148,-25,222
4300,-112,-1872,-600,-156,-22,238
4305,-152,-1808,-648,-171,-25,255
4310,-144,-1736,-640,-197,-34,266
4315,-200,-1688,-616,-237,-48,279
4320,-144,-1752,-560,-286,-71,293
4325,-168,-1712,-608,-299,-78,297
4330,-208,-1648,-600,-299,-83,299
4335,-176,-1584,-568,-309,-93,298
4340,-200,-1600,-584,-335,-105,302
4345,-200,-1608,-552,-369,-116,309
4350,-240,-1608,-576,-392,-130,314
4355,-248,-1680,-528,-415,-153,315
4360,-232,-1720,-536,-441,-179,313
4365,-248,-1680,-536,-451,-204,310
4370,-256,-1664,-568,-449,-228,306
4375,-232,-1648,-608,-456,-253,307
4380,-256,-1688,-584,-474,-283,309
4385,-272,-1696,-608,-483,-307,309
4390,-232,-1752,-576,-497,-333,308
4395,-224,-1736,-592,-492,-356,304
4400,-192,-1704,-576,-489,-381,290
4405,-176,-1712,-544,-483,-404,276
4410,-152,-1680,-560,-470,-418,264
4415,-160,-1648,-576,-474,-429,252
4420,-96,-1600,-560,-479,-434,242
4425,-96,-1584,-592,-488,-435,235
4430,-80,-1568,-592,-506,-436,229
4435,-80,-1584,-592,-526,-438,225
4440,-88,-1616,-624,-539,-443,225
4445,-56,-1616,-640,-548,-451,226
4450,-104,-1680,-656,-555,-454,228
4455,-128,-1672,-616,-543,-461,224
4460,-88,-1736,-616,-527,-464,225
4465,-72,-1688,-560,-475,-462,211
4470,-88,-1624,-592,-436,-467,200
4475,-128,-1576,-568,-414,-473,204
4480,-136,-1536,-576,-393,-477,203
4485,-136,-1520,-600,-388,-486,206
4490,-160,-1504,-584,-392,-494,209
4495,-168,-1536,-576,-403,-503,211
4500,-160,-1576,-560,-415,-517,221
4505,-192,-1576,-544,-410,-527,226
4510,-160,-1560,-512,-392,-539,228
4515,-152,-1592,-552,-369,-548,225
4520,-176,-1568,-592,-350,-560,229
4525,-176,-1536,-600,-345,-582,245
4530,-160,-1664,-592,-349,-601,259
4535,-160,-1592,-576,-321,-610,260
4540,-192,-1600,-600,-275,-610,257
4545,-168,-1544,-624,-213,-606,254
4550,-136,-1480,-704,-150,-600,251
4555,-136,-1448,-712,-97,-592,250
4560,-160,-1424,-680,-57,-588,257
4565,-120,-1440,-648,-25,-593,263
4570,-128,-1408,-648,3,-604,270
4575,-128,-1400,-624,28,-617,274
4580,-120,-1384,-600,56,-634,279
4585,-176,-1280,-696,63,-653,290
4590,-96,-1408,-648,29,-683,308
4595,-144,-1408,-760,8,-703,312
4600,-160,-1408,-720,11,-727,318
4605,-184,-1424,-736,45,-752,315
4610,-192,-1440,-768,102,-769,305
4615,-184,-1392,-776,165,-779,298
4620,-168,-1400,-760,205,-788,297
4625,-152,-1400,-760,223,-789,300
4630,-128,-1424,-728,227,-791,304
4635,-136,-1392,-776,238,-792,308
4640,-136,-1448,-792,246,-794,312
4645,-128,-1408,-808,262,-795,314
4650,-112,-1376,-816,269,-794,315
4655,-128,-1368,-776,273,-798,315
4660,-112,-1392,-752,276,-801,312
4665,-128,-1360,-768,280,-800,301
4670,-160,-1400,-800,302,-794,286
4675,-192,-1432,-800,350,-806,276
4680,-176,-1408,-752,395,-822,267
4685,-192,-1448,-744,434,-836,260
4690,-200,-1448,-744,485,-854,255
4695,-184,-1424,-696,535,-876,251
4700,-224,-1376,-688,582,-897,247
4705,-200,-1368,-656,624,-922,247
4710,-216,-1360,-680,661,-944,252
4715,-176,-1368,-672,698,-968,257
4720,-184,-1344,-664,736,-992,261
4725,-168,-1352,-632,779,-1015,265
4730,-184,-1304,-624,822,-1039,269
4735,-216,-1224,-624,863,-1064,278
4740,-168,-1200,-624,901,-1090,287
4745,-160,-1176,-600,931,-1119,299
4750,-160,-1184,-560,955,-1147,310
4755,-192,-1176,-544,981,-1175,323
4760,-200,-1176,-528,1006,-1203,338
4765,-216,-1160,-504,1033,-1230,353
4770,-216,-1192,-464,1065,-1258,372
4775,-240,-1184,-392,1111,-1285,387
4780,-232,-1216,-400,1161,-1314,401
4785,-248,-1256,-368,1214,-1341,415
4790,-208,-1256,-360,1276,-1370,434
4795,-248,-1232,-376,1344,-1397,452
4800,-248,-1240,-352,1417,-1426,468
4805,-272,-1192,-312,1486,-1449,485
4810,-264,-1160,-264,1550,-1471,503
4815,-272,-1128,-216,1626,-1492,520
4820,-304,-1088,-200,1684,-1515,540
4825,-288,-1064,-152,1744,-1542,560
4830,-264,-1016,-136,1795,-1569,582
4835,-336,-984,-56,1831,-1597,611
4840,-360,-960,8,1864,-1623,646
4845,-320,-968,8,1898,-1649,686
4850,-328,-952,56,1934,-1669,717
4855,-304,-944,88,1968,-1689,735
4860,-264,-912,88,2005,-1712,746
4865,-240,-912,88,2042,-1736,753
4870,-296,-896,168,2053,-1764,766
4875,-360,-912,208,2047,-1803,778
4880,-384,-936,264,2047,-1856,794
4885,-352,-1048,192,2056,-1917,814
4890,-488,-1224,208,2067,-1970,835
4895,-480,-1400,152,2084,-2020,872
4900,-656,-1512,240,2110,-2056,919
4905,-1000,-1664,400,2176,-2097,992
4910,-1448,-1904,728,2311,-2177,1097
4915,-1944,-2192,1144,2481,-2289,1217
4920,-2056,-2464,1288,2664,-2367,1336
4925,-2568,-2568,1472,2787,-2362,1458
4930,-3872,-2912,1984,2845,-2283,1610
4935,-4840,-3576,2656,2892,-2221,1753
4940,-5632,-4432,3200,2974,-2196,1868
4945,-7208,-5528,3832,3147,-2159,2019
4950,-8856,-6224,4200,3467,-2137,2268
4955,-10760,-6664,4104,3955,-2143,2649
4960,-11712,-6320,3656,4409,-2119,3155
4965,-10784,-5224,3200,4558,-2028,3740
4970,-8528,-4352,2768,4308,-1940,4235
4975,-5688,-3248,2784,3887,-1771,4505
4980,-3432,-2008,2936,3557,-1494,4589
4985,-1704,-952,3376,3304,-1098,4524
4990,-1368,0,3968,3072,-587,4380
4995,-1160,392,4248,2752,17,4246
5000,-936,512,4464,2332,559,4171
5005,-1392,136,4128,1938,867,4165
5010,-1424,-448,2928,1688,833,4203
5015,-1192,-1184,1280,1498,505,4182
5020,-1120,-1640,456,1413,20,4042
5025,-1288,-1952,24,1507,-413,3911
5030,-896,-2656,-200,1686,-816,3785
5035,-152,-3064,-520,2024,-1053,3669
5040,-544,-3104,-536,2381,-1083,3513
5045,-696,-2968,-608,2638,-1094,3349
5050,-952,-2592,-240,2795,-1002,3308
5055,-616,-2024,96,2855,-1023,3302
5060,-1080,-1184,216,2860,-933,3317
5065,-632,-528,288,2723,-806,3384
5070,-512,464,584,2473,-713,3311
5075,-96,1400,336,2178,-589,3138
5080,-288,2104,536,1940,-262,2911
5085,-432,2880,1024,1762,-42,2629
5090,-1024,3208,1112,1560,85,2220
5095,-2056,3208,1360,1318,163,1911
5100,-2504,2960,1792,1103,369,1701
5105,-2728,2624,2008,983,636,1447
5110,-2752,2232,2040,844,923,1128
5115,-2784,1488,1968,759,1210,826
5120,-2560,776,2032,696,1474,604
5125,-2312,136,2136,650,1698,382
5130,-2136,-528,2264,656,1903,193
5135,-2016,-952,2328,678,2050,29
5140,-2288,-1256,2032,652,2108,-86
5145,-2072,-1240,1880,512,2017,-141
5150,-2128,-1248,1640,389,1902,-82
5155,-1960,-1016,1176,319,1651,-30
5160,-1904,-800,776,320,1382,49
5165,-2000,-280,392,324,1089,116
5170,-1888,248,352,306,778,218
5175,-1624,608,352,313,512,313
5180,-1392,920,360,382,313,356
5185,-1160,1192,416,489,192,379
5190,-1104,1456,464,556,150,384
5195,-1128,1704,512,564,147,377
5200,-1224,1816,520,533,146,368
5205,-1256,1792,576,461,141,368
5210,-1152,1736,552,355,129,376
5215,-1128,1424,784,225,147,393
5220,-1072,1144,816,134,175,398
5225,-1064,928,896,73,211,402
5230,-1072,816,928,30,248,408
5235,-920,752,952,-2,278,434
5240,-832,712,936,-47,265,453
5245,-896,672,984,-89,206,455
5250,-920,696,960,-106,115,446
5255,-912,768,992,-110,8,424
5260,-952,816,928,-109,-92,380
5265,-928,920,936,-89,-170,324
5270,-944,976,896,-78,-218,258
5275,-968,1000,920,-82,-249,192
5280,-968,1032,960,-99,-261,128
5285,-1000,1016,928,-132,-265,67
5290,-992,968,1000,-169,-253,16
5295,-952,840,1032,-206,-238,-27
5300,-984,816,1040,-228,-217,-70
5305,-1032,792,1040,-244,-195,-106
5310,-1096,784,1088,-259,-186,-144
5315,-1080,752,1152,-278,-178,-186
5320,-1112,736,1192,-295,-163,-228
5325,-1160,776,1224,-312,-133,-273
5330,-1304,800,1288,-332,-102,-323
5335,-1272,760,1336,-345,-94,-377
5340,-1336,784,1416,-352,-70,-423
5345,-1400,776,1440,-366,-44,-457
5350,-1416,768,1504,-381,-29,-492
5355,-1480,752,1536,-389,-10,-506
5360,-1584,768,1576,-394,10,-500
5365,-1720,752,1680,-384,24,-498
5370,-1792,784,1704,-352,31,-506
5375,-1912,760,1752,-313,37,-503
5380,-1976,768,1888,-271,43,-489
5385,-2104,752,1872,-225,39,-476
5390,-2104,736,1944,-174,21,-457
5395,-2016,800,1944,-120,14,-440
5400,-2040,832,2000,-48,29,-402
5405,-2072,824,2008,14,37,-363
5410,-2000,880,1944,67,56,-327
5415,-1960,808,1904,99,100,-297
5420,-1728,744,1752,132,168,-284
5425,-1672,616,1720,175,258,-277
5430,-1576,496,1640,207,336,-283
5435,-1496,376,1568,231,404,-297
5440,-1488,336,1624,251,461,-314
5445,-1496,256,1560,275,510,-330
5450,-1512,176,1536,308,560,-341
5455,-1544,152,1424,350,616,-347
5460,-1536,120,1384,399,670,-348
5465,-1568,104,1296,446,718,-343
5470,-1528,104,1192,486,759,-342
5475,-1480,72,1136,517,799,-347
5480,-1528,64,1064,539,831,-354
5485,-1360,152,1008,557,857,-365
5490,-1336,328,920,532,910,-382
5495,-1504,192,944,476,944,-419
5500,-1528,8,960,386,918,-460
5505,-1520,-48,1000,326,878,-499
5510,-1576,-144,1080,343,848,-522
5515,-1560,-120,1032,409,843,-529
5520,-1552,16,952,468,852,-531
5525,-1640,104,920,499,859,-534
5530,-1592,136,840,504,863,-526
5535,-1584,144,784,487,871,-510
5540,-1624,184,680,455,884,-495
5545,-1576,128,544,415,892,-483
5550,-1576,96,520,384,895,-473
5555,-1608,72,560,365,892,-468
5560,-1608,72,584,364,882,-463
5565,-1648,40,616,376,867,-466
5570,-1664,72,616,393,849,-471
5575,-1832,80,600,409,836,-478
5580,-1840,24,624,418,819,-491
5585,-1888,-8,592,418,799,-504
5590,-2040,-8,552,407,780,-516
5595,-2088,-24,456,379,756,-524
5600,-2224,-48,472,338,738,-528
5605,-2280,-40,472,295,717,-524
5610,-2304,-72,480,244,706,-520
5615,-2400,-88,360,199,691,-506
5620,-2376,-40,376,160,674,-479
5625,-2432,-104,416,117,669,-454
5630,-2408,-104,392,80,634,-424
5635,-2488,-176,456,48,601,-404
5640,-2400,-184,392,35,550,-372
5645,-2328,-144,376,21,510,-351
5650,-2336,-232,392,4,479,-346
5655,-2240,-240,344,-9,457,-349
5660,-2248,-296,408,-22,444,-355
5665,-2176,-320,384,-24,409,-343
5670,-2120,-336,360,-20,371,-325
5675,-2136,-328,352,-20,339,-310
5680,-2168,-288,384,-23,317,-291
5685,-2144,-288,360,-21,291,-271
5690,-2088,-272,360,-27,268,-250
5695,-2112,-264,384,-43,255,-237
5700,-2088,-264,384,-55,238,-226
5705,-2072,-264,400,-70,227,-216
5710,-2104,-296,432,-71,202,-205
5715,-2088,-264,472,-57,164,-181
5720,-2024,-264,440,-46,129,-156
5725,-2048,-272,480,-42,100,-138
5730,-2016,-248,480,-42,71,-119
5735,-1976,-240,448,-44,51,-105
5740,-1984,-256,464,-49,33,-95
5745,-1968,-240,504,-52,14,-87
5750,-1952,-224,536,-56,-6,-78
5755,-1904,-184,512,-61,-24,-67
5760,-1888,-216,536,-69,-36,-52
5765,-1848,-216,544,-78,-48,-40
5770,-1864,-224,536,-86,-60,-30
5775,-1872,-208,584,-87,-76,-20
5780,-1872,-184,576,-87,-96,-11
5785,-1856,-224,584,-83,-111,-8
5790,-1856,-248,592,-78,-122,-9
5795,-1856,-200,600,-68,-125,-13
5800,-1888,-208,608,-59,-127,-11
5805,-1912,-176,648,-52,-127,-10
5810,-1880,-160,648,-45,-124,-10
5815,-1896,-152,688,-44,-119,-10
5820,-1864,-160,672,-42,-112,-10
5825,-1888,-144,712,-37,-103,-10
5830,-1912,-120,712,-30,-95,-9
5835,-1936,-120,720,-22,-88,-8
5840,-1968,-112,720,-16,-85,-4
5845,-1904,-112,704,-9,-81,-1
5850,-1912,-104,672,-8,-72,0
5855,-1944,-72,728,-6,-60,-3
5860,-1944,-104,736,3,-49,-5
5865,-1968,-64,712,11,-46,-3
5870,-1976,-32,712,15,-46,2
5875,-2000,-40,720,19,-53,6
5880,-1960,-80,760,20,-62,11
5885,-1952,-72,712,23,-68,17
5890,-1976,-72,696,29,-70,21
5895,-1944,-88,728,35,-70,22
5900,-1920,-72,752,40,-67,23
5905,-1944,-40,736,48,-65,23
5910,-1904,-32,720,58,-60,20
5915,-1904,-32,728,64,-55,18
5920,-1896,-40,736,70,-49,17
5925,-1896,-40,728,72,-48,18
5930,-1872,-32,736,72,-45,17
5935,-1880,-40,728,73,-45,14
5940,-1880,-56,704,75,-40,6
5945,-1880,-56,728,80,-36,4
5950,-1840,-48,712,82,-29,-1
5955,-1872,-72,712,84,-22,-8
5960,-1880,-40,696,88,-15,-12
5965,-1872,-72,680,94,-9,-15
5970,-1872,24,640,98,-5,-20
5975,-1904,-56,656,104,-4,-20
5980,-1896,-80,696,108,-2,-22
5985,-1904,-80,688,112,-1,-25
5990,-1888,-104,680,117,-1,-29
5995,-1896,-88,656,122,1,-30
6000,-1912,-80,672,124,3,-32
6005,-1904,-72,648,126,3,-34
6010,-1904,-40,648,129,7,-36
6015,-1904,-72,680,131,8,-40
6020,-1904,-144,712,133,11,-42
6025,-1936,-56,648,131,13,-44
6030,-1960,-56,656,126,15,-46
6035,-1928,-56,680,123,16,-44
6040,-1928,-48,672,120,18,-43
6045,-1920,-56,688,116,20,-43
6050,-1912,-80,680,115,24,-43
6055,-1920,-88,688,112,28,-42
6060,-1920,-88,680,109,34,-42
6065,-1936,-104,664,107,38,-40
6070,-1928,-120,656,106,42,-39
6075,-1920,-120,672,105,45,-38
6080,-1928,-104,672,104,45,-37
6085,-1920,-72,616,104,45,-36
6090,-1928,-80,680,103,45,-35
6095,-1952,-48,664,99,43,-35
6100,-1928,-48,656,94,44,-35
6105,-1928,-64,632,88,45,-32
6110,-1920,-64,640,80,46,-30
6115,-1920,-56,640,75,46,-26
6120,-1904,-72,648,67,45,-25
6125,-1936,-88,640,63,43,-21
6130,-1904,-80,624,59,43,-19
6135,-1920,-96,632,54,43,-19
6140,-1920,-72,616,50,43,-19
6145,-1936,-80,640,46,43,-20
6150,-1936,-72,648,43,43,-18
6155,-1912,-104,656,41,42,-18
6160,-1920,-80,656,40,41,-17
6165,-1936,-80,608,37,40,-19
6170,-1944,-112,664,34,39,-17
6175,-1936,-120,624,34,36,-16
6180,-1944,-128,632,33,31,-14
6185,-1952,-72,632,34,29,-14
6190,-1952,-88,640,33,28,-16
6195,-1944,-104,632,34,26,-14
6200,-1944,-112,648,33,24,-13
6205,-1952,-96,664,31,24,-15
6210,-1944,-96,648,32,24,-15
6215,-1928,-80,672,33,21,-13
6220,-1912,-152,640,32,19,-13
6225,-1912,-120,648,33,16,-11
6230,-1920,-128,680,32,16,-12
6235,-1896,-152,640,33,19,-11
6240,-1896,-136,680,34,26,-12
6245,-1912,-128,680,38,34,-12
6250,-1904,-160,712,48,47,-14
6255,-1912,-128,696,57,61,-15
6260,-1904,-160,704,64,77,-14
6265,-1928,-152,688,70,93,-14
6270,-1944,-152,664,75,104,-11
6275,-1912,-112,680,81,115,-5
6280,-1912,-80,672,83,119,-3
6285,-1904,-80,680,87,123,-3
6290,-1912,-56,656,88,125,-7
6295,-1920,-64,648,90,123,-8
6300,-1888,-56,640,93,118,-8
6305,-1936,-32,640,95,112,-10
6310,-1936,-32,608,96,105,-10
6315,-1952,-48,600,97,93,-10
6320,-1960,-32,608,99,78,-12
6325,-1960,-32,600,100,63,-13
6330,-1952,-56,576,104,45,-13
6335,-1952,-40,576,108,24,-12
6340,-1928,-24,592,110,3,-10
6345,-1960,-24,576,108,-13,-9
6350,-1936,0,584,102,-25,-7
6355,-1912,-16,608,92,-34,-10
6360,-1944,-24,656,76,-41,-11
6365,-1904,-16,648,61,-42,-19
6370,-1888,-40,640,49,-38,-28
6375,-1912,-88,616,38,-32,-34
6380,-1888,-104,656,31,-27,-40
6385,-1896,-128,640,29,-23,-44
6390,-1912,-136,688,32,-19,-47
6395,-1912,-152,672,35,-16,-48
6400,-1920,-152,680,41,-11,-49
6405,-1928,-136,672,47,-6,-49
6410,-1920,-136,664,52,-1,-46
6415,-1936,-112,680,58,3,-44
6420,-1920,-104,664,63,3,-41
6425,-1936,-104,640,66,5,-37
6430,-1944,-88,648,68,2,-35
6435,-1944,-104,624,69,-1,-32
6440,-1976,-80,632,67,-5,-29
6445,-1944,-72,632,62,-8,-26
6450,-1928,-72,640,56,-12,-24
6455,-1928,-72,648,50,-12,-24
6460,-1936,-48,544,45,-14,-22
6465,-1944,-80,624,38,-11,-20
6470,-1928,-80,640,30,-7,-19
6475,-1920,-72,656,26,-2,-17
6480,-1928,-96,680,23,2,-18
6485,-1920,-88,632,20,6,-15
6490,-1928,-56,640,17,9,-17
6495,-1968,-80,672,13,13,-18
6500,-1928,-88,640,7,11,-21
6505,-1928,-120,648,2,11,-21
6510,-1912,-96,752,-1,12,-21
6515,-1872,-112,656,-3,13,-24
6520,-1896,-104,664,-1,17,-21
6525,-1920,-144,672,2,16,-18
6530,-1920,-136,696,2,15,-18
6535,-1912,-160,656,6,15,-15
6540,-1904,-152,680,13,21,-12
6545,-1896,-160,696,22,29,-9
6550,-1888,-144,664,27,34,-6
6555,-1864,-160,688,32,39,-3
6560,-1888,-136,680,36,43,0
6565,-1904,-120,640,39,47,0
6570,-1928,-96,664,42,50,3
6575,-1920,-96,672,43,54,1
6580,-1944,-96,664,45,56,3
6585,-1928,-80,632,47,55,3
6590,-1928,-96,600,46,54,2
6595,-1936,-56,640,46,51,1
6600,-1944,-64,608,46,49,-2
6605,-1928,-72,608,43,44,-5
6610,-1928,-56,616,42,41,-7
6615,-1936,-96,624,43,37,-7
6620,-1936,-48,632,42,30,-10
6625,-1944,-72,616,40,28,-14
6630,-1936,-72,664,39,24,-17
6635,-1936,-80,632,39,21,-23
6640,-1936,-64,640,41,20,-29
6645,-1960,-80,640,41,19,-35
6650,-1928,-72,656,39,17,-39
6655,-1928,-80,632,38,17,-42
6660,-1928,-88,664,36,18,-45
6665,-1920,-96,640,34,18,-48
6670,-1912,-104,648,33,20,-50
6675,-1912,-120,712,36,19,-48
6680,-1936,-136,648,37,21,-47
6685,-1936,-136,648,39,22,-46
6690,-1904,-144,640,42,20,-42
6695,-1928,-144,624,44,16,-39
6700,-1936,-160,648,51,14,-33
6705,-1912,-168,656,55,16,-30
6710,-1912,-200,648,62,16,-28
6715,-1920,-200,680,69,20,-24
6720,-1936,-144,624,76,23,-19
6725,-1928,-136,664,82,24,-13
6730,-1944,-152,640,87,28,-10
6735,-1944,-128,648,91,28,-7
6740,-1912,-128,624,92,27,-2
6745,-1920,-112,616,95,24,-1
6750,-1928,-96,608,96,21,0
6755,-1928,-88,616,93,14,0
6760,-1960,-72,616,88,8,1
6765,-1944,-80,576,82,2,1
6770,-1944,-112,592,75,-3,1
6775,-1944,-80,616,70,-8,2
6780,-1920,-112,600,66,-13,0
6785,-1928,-112,640,62,-20,-4
6790,-1952,-96,608,60,-25,-5
6795,-1952,-112,608,58,-29,-7
6800,-1928,-120,632,57,-31,-9
6805,-1928,-112,632,56,-32,-11
6810,-1944,-136,632,54,-33,-13
6815,-1904,-144,656,54,-34,-15
6820,-1936,-144,664,52,-34,-16
6825,-1936,-128,624,51,-31,-16
6830,-1944,-128,632,52,-28,-18
6835,-1912,-152,624,53,-27,-18
6840,-1912,-128,648,53,-25,-16
6845,-1912,-136,640,55,-23,-16
6850,-1920,-112,664,56,-23,-13
6855,-1936,-96,680,57,-21,-11
6860,-1920,-120,696,56,-19,-8
6865,-1920,-112,680,58,-18,-8
6870,-1928,-120,688,60,-15,-4
6875,-1920,-128,704,61,-10,-3
6880,-1912,-128,696,62,-3,-2
6885,-1920,-144,696,66,5,0
6890,-1928,-152,712,71,12,2
6895,-1928,-128,688,80,20,2
6900,-1928,-112,656,88,26,2
6905,-1944,-88,656,94,28,4
6910,-1928,-72,664,98,28,6
6915,-1928,-40,680,98,27,7
6920,-1920,-64,648,97,27,5
6925,-1920,-56,640,95,24,2
6930,-1912,-64,672,90,19,2
6935,-1904,-32,664,84,16,-1
6940,-1912,-40,656,79,14,-2
6945,-1920,-40,656,73,10,-1
6950,-1936,-48,640,68,7,-4
6955,-1928,-40,656,61,4,-6
6960,-1912,-32,648,56,3,-9
6965,-1904,-72,640,51,3,-14
6970,-1920,-88,664,46,4,-19
6975,-1880,-80,664,43,4,-25
6980,-1912,-80,648,41,6,-27
6985,-1880,-72,696,39,6,-27
6990,-1896,-144,664,36,7,-30
6995,-1912,-144,696,35,12,-29
7000,-1912,-120,672,36,17,-28
7005,-1920,-112,640,37,23,-30
7010,-1936,-128,688,40,26,-29
7015,-1944,-136,656,45,28,-27
7020,-1936,-112,648,49,30,-24
7025,-1904,-160,680,52,32,-19
7030,-1912,-144,656,57,35,-19
7035,-1936,-152,656,62,38,-16
7040,-1928,-144,664,67,43,-16
7045,-1944,-144,640,75,48,-18
7050,-1952,-136,656,83,54,-19
7055,-1968,-136,608,93,59,-19
7060,-1960,-128,648,100,64,-18
7065,-1952,-104,632,105,66,-19
7070,-1952,-104,608,107,65,-17
7075,-1960,-80,664,108,60,-16
7080,-1944,-80,632,104,55,-15
7085,-1952,-32,616,99,47,-16
7090,-1944,-32,648,94,42,-16
7095,-1928,-56,576,86,37,-15
7100,-1944,-32,616,77,32,-18
7105,-1920,-32,640,69,26,-17
7110,-1896,-56,616,63,22,-20
7115,-1944,-56,616,53,14,-22
7120,-1912,-72,632,49,9,-25
7125,-1944,-72,624,42,4,-27
7130,-1928,-72,640,38,1,-28
7135,-1912,-96,632,34,-4,-28
7140,-1912,-64,632,32,-6,-31
7145,-1936,-112,632,30,-8,-31
7150,-1936,-104,648,29,-10,-32
7155,-1928,-112,656,27,-13,-34
7160,-1920,-128,616,28,-13,-32
7165,-1928,-120,696,29,-12,-32
7170,-1936,-136,640,29,-11,-33
7175,-1904,-136,680,31,-10,-30
7180,-1920,-144,656,34,-9,-28
7185,-1904,-160,672,37,-7,-25
7190,-1912,-144,672,43,-4,-26
7195,-1928,-144,672,48,1,-27
7200,-1968,-136,672,54,7,-27
7205,-1952,-152,672,62,16,-27
7210,-1904,-168,672,70,24,-23
7215,-1952,-176,648,81,29,-20
7220,-1952,-176,640,94,33,-16
7225,-1936,-136,632,105,33,-12
7230,-1928,-152,640,112,29,-8
7235,-1928,-128,648,119,21,-6
7240,-1920,-120,648,123,15,-4
7245,-1944,-96,624,123,7,-4
7250,-1952,-48,624,122,-3,-5
7255,-1936,-48,648,116,-9,-8
7260,-1912,-40,616,108,-14,-10
7265,-1936,-48,648,99,-18,-15
7270,-1904,-80,608,89,-17,-16
7275,-1944,-72,608,80,-17,-16
7280,-1912,-40,648,70,-15,-19
7285,-1904,-40,648,58,-15,-20
7290,-1888,-88,624,49,-12,-19
7295,-1904,-64,656,37,-10,-21
7300,-1896,-80,656,30,-11,-22
7305,-1872,-80,664,21,-10,-25
7310,-1896,-112,640,15,-9,-26
7315,-1912,-128,680,10,-6,-26
7320,-1920,-144,680,9,-4,-27
7325,-1904,-136,672,9,-2,-26
7330,-1864,-112,672,9,1,-25
7335,-1912,-144,640,12,3,-24
7340,-1912,-112,648,16,6,-22
7345,-1928,-112,696,20,8,-19
7350,-1904,-112,648,24,10,-16
7355,-1912,-128,672,27,13,-13
7360,-1928,-88,680,29,14,-13
7365,-1920,-104,672,32,16,-11
7370,-1912,-112,672,32,19,-9
7375,-1912,-104,688,33,21,-4
7380,-1912,-104,688,32,28,-1
7385,-1912,-128,672,34,35,1
7390,-1920,-104,704,38,44,3
7395,-1888,-144,680,41,54,5
7400,-1936,-136,640,47,63,6
7405,-1928,-144,632,53,71,7
7410,-1944,-104,640,59,74,9
7415,-1928,-104,648,65,75,9
7420,-1912,-128,664,70,72,9
7425,-1968,-80,648,75,67,8
7430,-1928,-64,616,76,61,6
7435,-1936,-64,616,76,52,6
7440,-1952,-32,632,72,44,2
7445,-1920,-32,632,67,38,-1
7450,-1928,-64,632,60,30,-5
7455,-1912,-64,616,54,27,-10
7460,-1944,-64,600,48,26,-12
7465,-1944,-56,656,40,24,-16
7470,-1952,-88,608,32,24,-19
7475,-1944,-72,600,29,25,-20
7480,-1888,-104,648,25,25,-21
7485,-1904,-96,616,24,25,-22
7490,-1912,-112,608,26,24,-22
7495,-1912,-136,640,30,21,-23
7500,-1928,-120,648,34,20,-22
7505,-1936,-136,632,37,15,-23
7510,-1936,-112,648,41,13,-23
7515,-1944,-88,648,43,10,-23
7520,-1952,-96,624,43,8,-22
7525,-1960,-56,616,42,7,-24
7530,-1952,-56,640,40,6,-22
7535,-1944,-80,680,37,6,-22
7540,-1952,-80,656,29,10,-22
7545,-1952,-88,680,22,11,-20
7550,-1920,-88,640,15,13,-20
7555,-1920,-120,640,9,18,-18
7560,-1928,-112,656,4,24,-18
7565,-1920,-136,648,2,34,-19
7570,-1920,-152,656,2,42,-18
7575,-1944,-168,656,5,49,-19
7580,-1920,-184,680,10,56,-18
7585,-1944,-184,640,17,63,-17
7590,-1928,-176,640,25,70,-17
7595,-1928,-136,632,31,74,-17
7600,-1952,-168,640,37,75,-17
7605,-1944,-144,640,43,70,-17
7610,-1952,-128,624,47,66,-18
7615,-1928,-136,592,51,58,-15
7620,-1928,-96,608,53,51,-15
7625,-1912,-112,616,54,45,-16
7630,-1920,-104,608,52,37,-15
7635,-1912,-112,600,54,30,-18
7640,-1928,-80,584,56,22,-19
7645,-1952,-104,616,57,14,-19
7650,-1928,-80,592,57,10,-21
7655,-1920,-96,576,58,2,-22
7660,-1912,-112,600,61,-4,-23
7665,-1936,-120,624,64,-7,-24
7670,-1928,-136,600,67,-11,-25
7675,-1944,-136,608,72,-15,-27
7680,-1928,-144,608,75,-18,-26
7685,-1920,-104,584,80,-22,-29
7690,-1936,-128,616,86,-27,-30
7695,-1968,-136,624,90,-31,-31
7700,-1928,-120,600,94,-36,-31
7705,-1944,-112,632,96,-42,-30
7710,-1944,-104,648,97,-50,-30
7715,-1960,-104,624,97,-55,-28
7720,-1952,-72,624,94,-61,-29
7725,-1928,-104,632,93,-65,-31
7730,-1976,-112,624,92,-69,-32
7735,-1968,-96,624,88,-72,-32
7740,-1944,-120,632,88,-73,-34
7745,-1960,-104,616,86,-74,-35
7750,-1976,-112,608,86,-75,-38
7755,-1936,-152,616,85,-79,-38
7760,-1968,-112,640,84,-84,-39
7765,-1944,-112,632,83,-88,-39
7770,-1936,-104,656,83,-91,-38
7775,-1936,-80,624,81,-94,-36
7780,-1920,-104,656,80,-95,-36
7785,-1920,-104,640,79,-93,-34
7790,-1888,-96,624,74,-91,-35
7795,-1952,-64,664,68,-87,-34
7800,-1912,-64,696,61,-85,-33
7805,-1880,-104,696,53,-81,-32
7810,-1896,-112,712,44,-77,-32
7815,-1880,-120,696,37,-72,-34
7820,-1920,-112,656,32,-69,-37
7825,-1880,-128,688,29,-65,-37
7830,-1888,-144,696,29,-61,-39
7835,-1896,-128,720,29,-56,-41
7840,-1912,-120,720,28,-50,-38
7845,-1896,-128,728,25,-47,-35
7850,-1904,-152,728,23,-44,-30
7855,-1904,-128,712,22,-40,-26
7860,-1896,-120,696,21,-38,-23
7865,-1880,-112,728,18,-32,-19
7870,-1912,-120,728,16,-26,-20
7875,-1864,-120,696,11,-17,-21
7880,-1904,-112,704,9,-10,-20
7885,-1896,-144,688,6,-4,-18
7890,-1896,-152,672,6,3,-19
7895,-1904,-128,704,10,9,-18
7900,-1912,-120,696,15,10,-16
7905,-1912,-160,712,22,13,-12
7910,-1912,-160,712,30,20,-15
7915,-1936,-176,696,42,27,-17
7920,-1936,-168,712,56,34,-20
7925,-1920,-136,672,72,41,-23
7930,-1904,-160,688,84,45,-27
7935,-1888,-160,704,94,50,-28
7940,-1888,-176,720,100,51,-26
7945,-1872,-152,704,102,51,-24
7950,-1832,-184,712,101,54,-21
7955,-1848,-160,696,96,58,-17
7960,-1832,-144,704,89,62,-14
7965,-1864,-120,680,81,69,-10
7970,-1864,-104,672,72,75,-8
7975,-1880,-128,680,61,75,-7
7980,-1888,-112,624,52,74,-9
7985,-1912,-96,656,41,69,-11
7990,-1928,-64,616,33,65,-13
7995,-1984,-40,632,27,58,-18
8000,-1968,-96,608,20,50,-16
8005,-1968,-96,608,15,46,-16
8010,-1960,-112,600,13,43,-18
8015,-1968,-120,640,11,40,-16
8020,-1976,-128,704,11,36,-13
8025,-1920,-120,656,13,38,-10
8030,-1904,-120,664,16,40,-9
8035,-1920,-152,704,18,40,-7
8040,-1912,-136,672,22,41,-5
8045,-1888,-160,664,25,43,-5
8050,-1912,-160,664,29,42,-4
8055,-1912,-152,672,35,41,-3
8060,-1928,-168,648,41,38,-3
8065,-1920,-144,640,48,35,-5
8070,-1960,-104,632,53,29,-6
8075,-1968,-112,640,58,27,-9
8080,-1944,-112,624,60,20,-12
8085,-1968,-64,640,61,14,-13
8090,-1952,-88,600,61,11,-14
8095,-1960,-88,640,60,6,-13
8100,-1936,-48,664,59,3,-15
8105,-1920,-88,640,56,1,-15
8110,-1920,-96,672,53,2,-12
8115,-1928,-96,632,47,3,-8
8120,-1896,-128,664,43,8,-8
8125,-1904,-136,656,40,12,-8
8130,-1904,-160,632,39,16,-5
8135,-1928,-160,664,44,18,-7
8140,-1904,-136,672,51,18,-8
8145,-1944,0,624,57,15,-11
8150,-1928,-128,640,61,11,-12
8155,-1936,-96,624,63,5,-14
8160,-1936,-96,608,64,0,-14
8165,-1920,-96,664,64,-7,-14
8170,-1944,-96,632,65,-12,-18
8175,-1952,-120,624,65,-16,-20
8180,-1928,-120,608,67,-19,-22
8185,-1952,-120,640,66,-21,-24
8190,-1920,-112,632,61,-22,-26
8195,-1920,-128,656,57,-24,-28
8200,-1920,-96,640,54,-25,-29
8205,-1992,-104,648,48,-24,-31
8210,-1912,-128,656,44,-25,-33
8215,-1920,-136,648,42,-25,-32
8220,-1880,-152,624,41,-24,-34
8225,-1896,-152,648,41,-23,-33
8230,-1888,-160,672,40,-23,-31
8235,-1920,-128,688,38,-22,-33
8240,-1888,-168,680,38,-20,-31
8245,-1888,-184,688,38,-17,-29
8250,-1896,-128,664,37,-15,-27
8255,-1896,-152,648,37,-14,-26
8260,-1896,-152,688,37,-13,-23
8265,-1896,-152,664,34,-14,-19
8270,-1904,-136,680,33,-13,-17
8275,-1912,-144,664,32,-11,-15
8280,-1904,-136,696,30,-9,-13
8285,-1912,-120,648,28,-9,-11
8290,-1920,-112,672,28,-9,-11
8295,-1928,-136,688,27,-8,-9
8300,-1888,-144,704,27,-6,-9
8305,-1936,-136,696,28,-3,-7
8310,-1904,-176,696,29,-1,-7
8315,-1904,-168,680,31,2,-7
8320,-1904,-168,688,35,4,-6
8325,-1896,-200,680,38,6,-6
8330,-1904,-176,656,43,8,-5
8335,-1920,-160,688,48,10,-4
8340,-1912,-160,696,52,12,-2
8345,-1920,-160,688,55,16,-3
8350,-1896,-144,688,56,17,-1
8355,-1896,-144,688,57,19,-1
8360,-1912,-144,688,56,22,1
8365,-1912,-136,680,55,24,1
8370,-1912,-136,664,55,25,1
8375,-1904,-152,656,53,28,2
8380,-1904,-152,680,53,28,2
8385,-1920,-128,688,53,27,4
8390,-1920,-128,656,53,27,5
8395,-1912,-128,664,53,26,4
8400,-1912,-120,672,55,27,5
8405,-1912,-152,648,54,27,4
8410,-1904,-128,640,55,26,5
8415,-1920,-104,656,54,26,5
8420,-1912,-144,656,54,27,5
8425,-1896,-120,656,55,27,4
8430,-1912,-136,672,53,28,5
8435,-1904,-144,664,54,29,3
8440,-1920,-136,672,54,28,2
8445,-1920,-120,696,55,30,3
8450,-1928,-104,696,54,29,2
8455,-1944,-112,648,55,29,0
8460,-1904,-136,672,55,30,0
8465,-1920,-112,648,53,29,-2
8470,-1912,-144,656,51,29,-2
8475,-1928,-112,672,51,28,-4
8480,-1912,-144,648,52,28,-3
8485,-1936,-96,648,53,25,-4
8490,-1920,-128,640,52,25,-6
8495,-1920,-96,656,49,22,-4
8500,-1912,-88,680,48,21,-5
8505,-1920,-136,664,47,20,-5
8510,-1936,-112,648,45,21,-4
8515,-1920,-112,664,42,18,-4
8520,-1912,-104,680,37,18,-6
8525,-1936,-112,656,35,17,-8
8530,-1920,-144,688,34,19,-7
8535,-1912,-104,656,35,22,-7
8540,-1944,-120,672,35,24,-10
8545,-1936,-136,672,38,26,-11
8550,-1904,-136,672,39,28,-13
8555,-1936,-152,680,41,31,-14
8560,-1952,-128,664,43,32,-11
8565,-1944,-128,664,45,30,-9
8570,-1920,-104,632,45,28,-8
8575,-1928,-104,664,47,26,-8
8580,-1920,-112,656,47,24,-9
8585,-1952,-96,672,46,22,-8
8590,-1920,-120,656,46,19,-12
8595,-1936,-120,640,44,17,-14
8600,-1952,-96,632,44,14,-17
8605,-1944,-104,624,43,12,-21
8610,-1920,-112,624,43,9,-22
8615,-1944,-96,648,44,7,-23
8620,-1904,-152,672,40,4,-21
8625,-1896,-168,696,44,3,-21
8630,-1912,-152,640,47,1,-22
8635,-1936,-104,656,50,3,-20
8640,-1912,-176,672,55,0,-20
8645,-1912,-152,688,58,0,-21
8650,-1912,-152,688,60,-3,-21
8655,-1904,-136,656,62,-4,-22
8660,-1912,-144,664,61,-6,-22
8665,-1912,-144,672,59,-5,-22
8670,-1920,-152,656,58,-6,-21
8675,-1920,-144,688,60,-5,-19
8680,-1928,-152,672,61,-2,-17
8685,-1920,-136,664,61,1,-15
8690,-1896,-176,664,62,4,-13
8695,-1912,-120,616,62,5,-12
8700,-1920,-136,640,59,6,-12
8705,-1912,-160,640,57,4,-12
8710,-1928,-160,656,57,3,-9
8715,-1928,-136,648,58,0,-9
8720,-1928,-144,648,59,-4,-8
8725,-1928,-152,656,58,-4,-8
8730,-1944,-144,648,62,-5,-10
8735,-1920,-136,656,64,-6,-9
8740,-1944,-104,672,67,-6,-10
8745,-1912,-120,648,68,-8,-12
8750,-1904,-128,624,70,-8,-14
8755,-1920,-136,672,69,-9,-16
8760,-1904,-144,680,68,-9,-16
8765,-1928,-112,640,66,-10,-16
8770,-1920,-128,680,63,-9,-18
8775,-1928,-128,688,61,-9,-17
8780,-1920,-136,640,58,-7,-17
8785,-1920,-96,656,57,-7,-16
8790,-1904,-120,688,54,-8,-15
8795,-1904,-120,680,51,-7,-15
8800,-1888,-128,656,49,-7,-15
8805,-1896,-120,680,48,-8,-14
8810,-1888,-112,656,45,-8,-14
8815,-1920,-120,680,44,-9,-14
8820,-1912,-112,640,43,-12,-12
8825,-1920,-96,656,40,-12,-13
8830,-1904,-120,648,40,-10,-14
8835,-1904,-136,656,38,-10,-14
8840,-1904,-120,680,38,-10,-13
8845,-1920,-136,656,37,-9,-13
8850,-1912,-136,672,38,-8,-13
8855,-1920,-136,672,38,-7,-14
8860,-1920,-128,680,41,-4,-15
8865,-1904,-128,672,41,-4,-17
8870,-1912,-144,680,42,-5,-17
8875,-1920,-88,648,42,-4,-17
8880,-1912,-144,672,40,-4,-16
8885,-1912,-136,664,40,-3,-15
8890,-1912,-128,680,40,-1,-15
8895,-1928,-144,688,43,1,-17
8900,-1896,-120,672,45,2,-17
8905,-1904,-144,680,48,3,-16
8910,-1920,-128,672,48,3,-18
8915,-1912,-136,656,51,3,-17
8920,-1912,-128,672,52,3,-17
8925,-1920,-128,664,51,2,-18
8930,-1920,-128,688,50,4,-16
8935,-1912,-128,696,47,4,-15
8940,-1904,-112,696,45,6,-16
8945,-1912,-120,680,45,9,-16
8950,-1904,-136,696,44,11,-15
8955,-1920,-144,712,42,13,-14
8960,-1912,-120,664,40,16,-15
8965,-1936,-120,664,41,18,-13
8970,-1904,-152,664,41,19,-11
8975,-1928,-152,664,43,20,-11
8980,-1904,-136,704,45,21,-10
8985,-1928,-144,696,46,20,-8
8990,-1912,-144,664,49,19,-7
8995,-1928,-144,664,49,20,-6
9000,-1912,-152,696,50,20,-5
9005,-1912,-136,688,52,21,-5
9010,-1920,-152,664,52,22,-5
9015,-1904,-128,696,52,23,-4
9020,-1928,-160,688,50,27,-5
9025,-1904,-136,664,52,29,-4
9030,-1936,-136,672,52,28,-5
9035,-1880,-136,656,54,29,-3
9040,-1920,-104,656,55,31,-2
9045,-1896,-160,664,56,30,-4
9050,-1888,-144,680,58,29,-1
9055,-1928,-128,664,62,29,1
9060,-1904,-160,664,63,28,1
9065,-1888,-152,680,66,25,1
9070,-1904,-144,672,69,24,0
9075,-1896,-168,648,74,23,-1
9080,-1936,-160,680,76,23,1
9085,-1928,-152,680,77,23,2
9090,-1920,-152,672,80,26,3
9095,-1912,-136,656,82,27,4
9100,-1904,-144,680,81,28,4
9105,-1936,-136,672,82,28,5
9110,-1904,-128,680,82,28,4
9115,-1936,-152,680,80,27,7
9120,-1944,-144,680,78,28,6
9125,-1912,-104,760,77,26,5
9130,-1912,-96,664,75,25,6
9135,-1920,-112,696,73,24,7
9140,-1928,-104,688,72,24,5
9145,-1936,-88,680,69,24,3
9150,-1928,-104,672,67,23,3
9155,-1920,-96,680,65,24,3
9160,-1912,-112,664,62,23,1
9165,-1888,-136,672,60,23,0
9170,-1912,-136,696,57,23,0
9175,-1896,-120,672,55,23,-3
9180,-1904,-128,664,56,23,-6
9185,-1888,-96,704,54,21,-6
9190,-1912,-112,688,53,23,-5
9195,-1912,-104,688,50,23,-7
9200,-1920,-104,696,50,22,-9
9205,-1880,-136,680,49,24,-9
9210,-1920,-136,664,47,22,-7
9215,-1960,-104,672,45,22,-10
9220,-1904,-128,664,45,22,-11
9225,-1912,-144,664,45,20,-12
9230,-1928,-128,656,45,19,-10
9235,-1944,-104,664,43,18,-10
9240,-1920,-120,664,43,18,-11
9245,-1928,-144,680,43,18,-11
9250,-1920,-128,648,43,18,-9
9255,-1920,-136,632,44,18,-9
9260,-1944,-128,648,44,17,-9
9265,-1928,-104,664,43,16,-11
9270,-1920,-120,664,43,15,-10
9275,-1896,-160,640,43,14,-10
9280,-1928,-120,648,44,14,-10
9285,-1912,-128,672,44,13,-10
9290,-1944,-136,680,44,12,-10
9295,-1904,-120,664,44,9,-8
9300,-1912,-144,648,43,11,-9
9305,-1904,-128,656,43,9,-10
9310,-1904,-136,664,43,9,-11
9315,-1920,-136,696,42,10,-10
9320,-1912,-136,672,42,11,-11
9325,-1936,-128,672,43,9,-11
9330,-1936,-152,664,45,7,-11
9335,-1912,-152,648,46,8,-10
9340,-1920,-136,672,47,8,-11
9345,-1928,-112,672,48,8,-11
9350,-1912,-128,672,48,10,-11
9355,-1928,-144,664,48,10,-11
9360,-1896,-144,672,49,9,-9
9365,-1928,-136,672,47,8,-7
9370,-1920,-160,672,49,9,-7
9375,-1896,-128,672,51,8,-5
9380,-1936,-128,664,53,8,-8
9385,-1960,-96,632,53,11,-10
9390,-1928,-96,656,55,13,-12
9395,-1944,-104,656,55,14,-14
9400,-1912,-112,648,55,13,-13
9405,-1928,-144,640,55,10,-12
9410,-1920,-120,656,54,7,-11
9415,-1936,-128,656,54,6,-9
9420,-1936,-152,672,57,6,-8
9425,-1880,-160,680,60,7,-9
9430,-1920,-152,688,64,8,-7
9435,-1904,-128,680,66,10,-8
9440,-1920,-120,680,64,10,-9
9445,-1920,-128,672,62,10,-10
9450,-1912,-152,672,58,11,-11
9455,-1904,-128,704,55,14,-10
9460,-1920,-104,696,50,15,-11
9465,-1912,-128,656,51,18,-10
9470,-1920,-112,696,48,21,-9
9475,-1944,-72,680,45,23,-8
9480,-1920,-112,672,42,24,-7
9485,-1912,-88,680,39,24,-5
9490,-1912,-112,664,35,24,-6
9495,-1928,-96,672,29,24,-5
9500,-1896,-104,672,25,24,-6
9505,-1928,-128,664,22,24,-6
9510,-1912,-128,664,22,24,-3
9515,-1928,-136,680,25,25,-3
9520,-1904,-152,704,28,27,-3
9525,-1912,-176,672,34,25,-4
9530,-1920,-144,664,42,28,-6
9535,-1928,-136,656,48,27,-6
9540,-1920,-120,680,54,27,-6
9545,-1920,-112,632,56,27,-7
9550,-1904,-128,640,57,28,-7
9555,-1904,-144,672,58,26,-9
9560,-1936,-136,648,59,24,-10
9565,-1920,-120,656,60,23,-9
9570,-1912,-136,656,61,23,-10
9575,-1912,-144,680,62,23,-9
9580,-1912,-152,688,64,25,-10
9585,-1904,-160,656,63,24,-9
9590,-1920,-144,648,63,26,-9
9595,-1888,-136,672,63,26,-10
9600,-1920,-128,632,63,28,-10
9605,-1912,-144,664,63,32,-10
9610,-1896,-136,664,63,34,-10
9615,-1896,-176,776,65,38,-9
9620,-1912,-152,656,67,42,-9
9625,-1928,-152,672,72,46,-6
9630,-1904,-152,688,77,49,-4
9635,-1920,-168,672,81,53,-2
9640,-1928,-160,656,84,55,0
9645,-1896,-144,640,87,58,2
9650,-1912,-176,664,88,56,2
9655,-1904,-120,656,89,52,4
9660,-1936,-104,672,90,48,5
9665,-1928,-112,656,90,41,6
9670,-1904,-144,632,87,37,6
9675,-1928,-112,656,85,32,6
9680,-1920,-112,616,80,27,5
9685,-1912,-104,632,80,21,4
9690,-1904,-120,616,80,17,1
9695,-1928,-72,640,79,13,0
9700,-1912,-112,616,77,9,-4
9705,-1920,-104,600,74,5,-8
9710,-1920,-104,664,70,3,-9
9715,-1936,-96,696,64,3,-12
9720,-1912,-120,640,58,3,-13
9725,-1912,-112,680,54,2,-15
9730,-1904,-96,672,50,3,-16
9735,-1904,-96,640,43,6,-16
9740,-1920,-104,656,38,9,-19
9745,-1912,-112,672,35,13,-19
9750,-1928,-112,648,33,16,-18
9755,-1904,-112,640,32,17,-18
9760,-1920,-112,656,32,17,-17
9765,-1928,-128,664,34,15,-15
9770,-1944,-112,664,34,14,-16
9775,-1928,-96,648,35,11,-15
9780,-1952,-112,680,37,9,-14
9785,-1928,-104,664,36,7,-14
9790,-1936,-96,680,33,6,-15
9795,-1912,-120,688,32,5,-15
9800,-1920,-112,672,31,7,-18
9805,-1936,-112,648,29,9,-16
9810,-1920,-120,680,29,11,-16
9815,-1920,-136,680,30,13,-16
9820,-1896,-128,656,30,14,-15
9825,-1888,-144,696,34,15,-13
9830,-1904,-160,680,38,15,-13
9835,-1896,-160,672,41,17,-12
9840,-1888,-168,696,45,18,-12
9845,-1888,-144,680,49,21,-13
9850,-1936,-152,704,52,25,-12
9855,-1896,-152,688,57,29,-12
9860,-1920,-160,688,62,36,-11
9865,-1912,-184,664,68,42,-11
9870,-1904,-176,688,74,47,-11
9875,-1912,-176,656,78,51,-11
9880,-1960,-160,672,83,56,-11
9885,-1944,-144,632,87,60,-10
9890,-1928,-128,656,87,58,-11
9895,-1952,-112,632,87,55,-8
9900,-1944,-112,624,85,51,-8
9905,-1928,-96,640,82,44,-7
9910,-1912,-112,632,77,37,-6
9915,-1912,-96,656,74,31,-4
9920,-1888,-96,608,71,27,-5
9925,-1960,-208,560,67,22,-7
9930,-1880,-152,648,62,18,-9
9935,-1896,-112,600,58,14,-9
9940,-1920,-128,664,54,11,-9
9945,-1960,-112,608,51,10,-10
9950,-1920,-104,632,47,9,-9
9955,-1912,-144,624,44,9,-11
9960,-1928,-112,616,42,7,-13
9965,-1920,-128,656,42,8,-12
9970,-1912,-128,672,41,6,-13
9975,-1928,-128,656,42,4,-11
9980,-1928,-152,680,43,4,-12
9985,-1912,-168,664,45,6,-10
9990,-1912,-168,672,47,10,-9
9995,-1920,-144,664,52,16,-7
10000,-1928,-184,704,57,24,-6
10005,-1928,-192,712,62,31,-3
10010,-1904,-184,680,68,39,0
10015,-1928,-184,712,75,48,2
10020,-1920,-184,688,81,58,0
10025,-1944,-144,672,90,68,0
10030,-1960,-128,664,97,75,-1
10035,-1944,-128,640,104,79,-3
10040,-1936,-112,648,110,76,-1
10045,-1928,-112,616,111,70,-1
10050,-1936,-72,576,113,66,0
10055,-1920,-88,640,112,59,-1
10060,-1936,-56,616,108,51,0
10065,-1960,-64,632,103,46,-2
10070,-1936,-64,632,99,39,-4
10075,-1952,-48,624,93,31,-7
10080,-1936,-32,632,86,22,-9
10085,-1928,-48,600,76,19,-11
10090,-1920,-56,648,67,13,-13
10095,-1904,-56,648,56,8,-16
10100,-1928,-48,656,48,3,-17
10105,-1928,-56,696,40,-1,-19
10110,-1928,-48,632,32,-3,-19
10115,-1912,-88,640,27,-6,-25
10120,-1896,-120,664,22,-7,-26
10125,-1912,-136,664,20,-6,-30
10130,-1912,-152,672,18,-6,-31
10135,-1888,-136,648,16,-4,-31
10140,-1864,-184,688,17,2,-27
10145,-1848,-216,720,21,9,-26
10150,-1864,-240,720,28,21,-25
10155,-1864,-280,736,45,35,-27
10160,-1904,-320,664,72,54,-27
10165,-1944,-304,664,106,74,-30
10170,-1960,-328,656,145,98,-33
10175,-1960,-272,648,182,119,-37
10180,-2008,-248,592,215,132,-34
10185,-1992,-216,616,242,132,-31
10190,-1968,-152,568,260,119,-24
10195,-1936,-88,584,269,97,-17
10200,-1936,-32,592,268,70,-12
10205,-1952,-8,608,259,42,-9
10210,-1920,8,584,242,17,-9
10215,-1944,40,576,215,0,-8
10220,-1936,24,600,185,-9,-10
10225,-1960,-8,632,157,-11,-12
10230,-1984,0,608,132,-8,-22
10235,-1952,-24,648,104,-4,-30
10240,-1952,-32,648,78,-3,-30
10245,-1944,-32,688,56,-4,-29
10250,-1936,-56,688,42,-4,-29
10255,-1912,-48,688,26,-5,-26
10260,-1944,-64,680,11,-3,-25
10265,-1896,-40,680,-1,-3,-27
10270,-1920,-32,672,-16,-3,-29
10275,-1896,-64,672,-27,-2,-30
10280,-1888,-88,680,-37,-1,-31
10285,-1872,-144,696,-43,3,-29
10290,-1872,-160,688,-46,9,-27
10295,-1848,-208,712,-46,16,-21
10300,-1840,-208,696,-43,27,-15
10305,-1848,-224,720,-36,43,-12
10310,-1864,-264,744,-23,59,-11
10315,-1896,-272,752,1,77,-10
10320,-1904,-328,728,35,94,-9
10325,-1944,-280,664,73,111,-6
10330,-1944,-264,624,109,121,0
10335,-1936,-232,640,138,126,7
10340,-1960,-144,576,157,123,11
10345,-1928,-144,624,170,109,14
10350,-1952,-72,584,174,91,14
10355,-1944,-48,592,175,73,10
10360,-1968,-24,632,165,58,3
10365,-1992,-8,640,154,47,-9
10370,-1952,-16,584,143,43,-15
10375,-1944,-16,592,127,41,-23
10380,-1968,-24,584,109,40,-27
10385,-1992,-16,592,90,40,-30
10390,-1944,-16,600,72,38,-31
10395,-1920,-32,576,51,37,-33
10400,-1928,-56,608,30,36,-37
10405,-1960,-40,616,14,30,-43
10410,-1920,-56,624,7,22,-47
10415,-1920,-96,616,2,17,-49
10420,-1904,-88,608,-4,16,-50
10425,-1920,-104,584,-11,14,-50
10430,-1888,-96,712,-18,11,-45
10435,-1896,-136,632,-25,9,-44
10440,-1904,-160,624,-28,6,-43
10445,-1896,-136,632,-29,0,-40
10450,-1936,-136,608,-29,-2,-38
10455,-1928,-144,600,-29,-4,-36
10460,-1936,-112,624,-33,-5,-33
10465,-1952,-120,640,-37,-6,-29
10470,-1960,-96,640,-44,-10,-24
10475,-1904,-120,632,-52,-10,-19
10480,-1896,-160,672,-60,-11,-13
10485,-1920,-152,704,-67,-9,-9
10490,-1888,-184,728,-72,-7,-3
10495,-1848,-224,736,-74,4,0
10500,-1856,-264,736,-71,21,4
10505,-1896,-296,736,-58,42,1
10510,-1912,-328,704,-34,66,-2
10515,-1944,-320,688,-6,91,-3
10520,-1944,-312,648,29,111,-3
10525,-1968,-264,632,61,126,3
10530,-1928,-232,560,89,129,10
10535,-1936,-176,608,109,120,15
10540,-1928,-88,584,117,108,21
10545,-1912,-56,608,118,89,23
10550,-1944,-48,608,111,72,23
10555,-1920,-56,600,101,60,20
10560,-1928,-48,568,90,53,15
10565,-1936,-48,560,77,48,9
10570,-1952,-64,544,64,44,6
10575,-1928,-56,584,49,41,2
10580,-1952,-64,568,37,41,3
10585,-1944,-64,568,26,40,1
10590,-1960,-96,568,18,39,-1
10595,-1960,-104,616,11,38,-2
10600,-1960,-80,616,6,36,-3
10605,-1936,-104,592,0,33,-5
10610,-1928,-112,608,-7,26,-6
10615,-1976,-120,624,-11,18,-7
10620,-1944,-96,576,-16,13,-8
10625,-1944,-104,624,-19,9,-9
10630,-1952,-80,576,-23,5,-9
10635,-1936,-120,600,-26,4,-10
10640,-1920,-160,616,-29,2,-10
10645,-1952,-128,632,-30,2,-12
10650,-1944,-136,592,-30,4,-11
10655,-1912,-120,632,-29,8,-9
10660,-1896,-152,632,-30,12,-9
10665,-1920,-168,632,-27,16,-9
10670,-1880,-136,648,-23,18,-9
10675,-1936,-144,656,-19,24,-6
10680,-1904,-152,648,-13,31,-7
10685,-1928,-184,672,-8,37,-7
10690,-1896,-200,656,-2,45,-7
10695,-1920,-224,656,9,51,-8
10700,-1968,-208,624,26,56,-10
10705,-1960,-192,576,44,61,-12
10710,-1976,-176,592,62,65,-13
10715,-1976,-120,616,74,69,-14
10720,-2000,-64,560,79,66,-13
10725,-1960,-64,584,78,60,-13
10730,-1944,-56,560,73,54,-12
10735,-1976,-72,584,65,44,-14
10740,-1960,-56,600,54,38,-16
10745,-1960,-40,576,44,29,-18
10750,-1952,-40,592,33,26,-21
10755,-1928,-88,576,23,24,-24
10760,-1936,-88,584,10,24,-26
10765,-1952,-96,600,-1,25,-30
10770,-1912,-104,616,-9,25,-31
10775,-1936,-128,568,-16,26,-31
10780,-1936,-136,632,-20,26,-30
10785,-1928,-144,608,-23,28,-30
10790,-1912,-168,616,-24,27,-30
10795,-1904,-160,608,-26,25,-30
10800,-1904,-184,648,-25,23,-28
10805,-1920,-184,640,-20,24,-28
10810,-1912,-208,656,-16,25,-26
10815,-1896,-208,608,-9,27,-26
10820,-1928,-184,600,1,28,-23
10825,-1952,-192,584,11,28,-22
10830,-1952,-168,616,22,29,-20
10835,-1928,-168,616,30,25,-18
10840,-1944,-184,592,35,22,-15
10845,-1952,-176,616,39,19,-16
10850,-1960,-168,600,46,17,-16
10855,-1960,-184,608,51,16,-15
10860,-2000,-192,584,57,15,-16
10865,-1944,-168,592,65,11,-14
10870,-1968,-160,560,69,7,-11
10875,-1944,-152,592,73,2,-10
10880,-1936,-136,592,77,-2,-8
10885,-1968,-152,568,82,-7,-8
10890,-1960,-120,568,85,-14,-7
10895,-1960,-128,568,87,-18,-11
10900,-1936,-120,544,88,-24,-12
10905,-1976,-96,568,86,-28,-13
10910,-1952,-112,584,79,-36,-12
10915,-1936,-144,592,75,-41,-12
10920,-1912,-144,600,69,-47,-11
10925,-1904,-136,600,64,-48,-11
10930,-1960,-152,624,60,-48,-8
10935,-1896,-184,624,58,-50,-7
10940,-1928,-152,624,55,-50,-4
10945,-1936,-144,640,56,-49,-2
10950,-1928,-168,616,56,-48,0
10955,-1944,-192,616,58,-44,0
10960,-1904,-216,608,63,-43,4
10965,-1920,-200,616,68,-42,7
10970,-1936,-176,600,72,-41,10
10975,-1936,-216,640,77,-42,11
10980,-1944,-208,624,85,-39,13
10985,-1928,-176,632,89,-34,16
10990,-1976,-184,648,94,-29,15
10995,-1944,-192,608,101,-22,15
11000,-1960,-176,616,106,-16,14
11005,-1968,-136,616,112,-14,14
11010,-1968,-120,592,115,-12,17
11015,-1968,-136,632,117,-14,16
11020,-1968,-112,600,119,-17,18
11025,-1936,-120,616,118,-21,20
11030,-1944,-72,608,115,-25,18
11035,-1960,-80,616,110,-29,16
11040,-1928,-40,616,103,-30,15
11045,-1920,-64,624,96,-31,15
11050,-1952,-72,600,87,-31,10
11055,-1920,-64,656,78,-30,10
11060,-1928,-72,656,71,-28,8
11065,-1904,-104,648,63,-24,4
11070,-1912,-104,648,57,-19,-1
11075,-1920,-112,672,53,-17,-2
11080,-1904,-120,648,50,-17,-3
11085,-1888,-120,656,46,-14,-5
11090,-1896,-136,656,43,-12,-5
11095,-1888,-128,648,40,-10,-6
11100,-1912,-120,648,38,-6,-6
11105,-1912,-120,696,35,-2,-4
11110,-1896,-112,632,36,1,-3
11115,-1896,-152,680,35,3,0
11120,-1928,-112,648,36,6,3
11125,-1904,-144,648,38,8,7
11130,-1912,-128,632,42,10,9
11135,-1920,-120,672,44,11,12
11140,-1912,-120,656,47,9,12
11145,-1928,-120,640,46,9,14
11150,-1912,-104,648,46,11,13
11155,-1928,-88,656,45,15,12
11160,-1928,-136,632,49,18,10
11165,-1928,-120,648,48,26,8
11170,-1928,-136,616,51,29,8
11175,-1952,-120,648,54,32,5
11180,-1952,-136,624,58,32,3
11185,-1968,-120,656,61,32,-2
11190,-1952,-128,600,67,33,-8
11195,-1992,-56,616,69,33,-10
11200,-1976,-64,624,68,34,-12
11205,-1976,-88,584,67,30,-13
11210,-1952,-104,592,64,26,-13
11215,-1944,-104,608,61,20,-13
11220,-1928,-128,616,61,17,-15
11225,-1928,-120,600,61,16,-13
11230,-1936,-160,632,62,16,-17
11235,-1952,-144,632,61,14,-17
11240,-1928,-144,616,62,13,-17
11245,-1912,-112,616,60,12,-20
11250,-1920,-120,640,59,12,-19
11255,-1944,-112,648,56,14,-21
11260,-1920,-136,632,54,16,-19
11265,-1928,-144,648,52,19,-19
11270,-1920,-144,624,52,21,-17
11275,-1904,-152,608,52,26,-16
11280,-1928,-136,640,51,26,-15
11285,-1920,-120,664,51,25,-12
11290,-1936,-112,600,50,23,-11
11295,-1928,-144,600,46,20,-11
11300,-1928,-112,632,42,18,-12
11305,-1928,-120,592,38,16,-10
11310,-1960,-160,632,34,15,-10
11315,-1920,-144,656,34,15,-8
11320,-1928,-136,632,33,17,-6
11325,-1920,-144,632,35,19,-4
11330,-1936,-128,584,37,21,-5
11335,-1952,-152,616,39,26,-4
11340,-1928,-152,640,41,29,-4
11345,-1952,-144,632,43,32,-3
11350,-1936,-152,616,46,36,-3
11355,-1928,-96,648,47,38,-1
11360,-1936,-112,608,47,41,1
11365,-1928,-128,608,47,41,3
11370,-1944,-96,616,48,40,5
11375,-1928,-112,584,49,37,4
11380,-1920,-144,624,50,32,7
11385,-1936,-112,608,51,27,7
11390,-1904,-120,584,49,23,7
11395,-1944,-88,616,47,18,6
11400,-1904,-104,624,47,19,5
11405,-1928,-120,616,44,18,2
11410,-1912,-136,624,45,18,-1
11415,-1928,-112,600,43,18,-1
11420,-1944,-112,600,43,17,-4
11425,-1952,-112,648,40,18,-7
11430,-1936,-104,616,39,19,-7
11435,-1936,-128,640,36,17,-8
11440,-1928,-128,624,37,18,-9
11445,-1920,-120,608,39,18,-13
11450,-1960,-104,640,40,18,-14
11455,-1944,-152,616,42,19,-14
11460,-1968,-120,632,44,20,-13
11465,-1952,-120,632,45,19,-13
11470,-1952,-144,624,46,19,-12
11475,-1928,-136,600,47,19,-9
11480,-1928,-112,664,47,19,-8
11485,-1904,-112,648,49,19,-8
11490,-1936,-120,648,48,20,-10
11495,-1952,-128,648,52,18,-12
11500,-1936,-160,656,55,19,-12
11505,-1896,-160,664,59,21,-15
11510,-1944,-168,664,65,26,-15
11515,-1928,-152,648,71,30,-16
11520,-1952,-128,648,77,33,-17
11525,-1944,-144,632,83,36,-15
11530,-1952,-120,640,88,37,-16
11535,-1936,-112,600,92,35,-16
11540,-1944,-104,600,95,29,-14
11545,-1952,-96,616,94,21,-14
11550,-1936,-64,584,93,14,-17
11555,-1936,-96,584,89,9,-16
11560,-1952,-72,592,81,4,-18
11565,-1944,-80,608,74,-3,-20
11570,-1936,-72,584,66,-6,-22
11575,-1944,-88,648,57,-8,-23
11580,-1928,-96,616,50,-10,-22
11585,-1912,-112,632,43,-11,-22
11590,-1952,-112,616,36,-10,-22
11595,-1920,-128,608,31,-12,-24
11600,-1928,-144,592,28,-14,-24
11605,-1952,-128,648,24,-15,-25
11610,-1944,-152,600,21,-15,-25
11615,-1928,-136,616,20,-16,-27
11620,-1912,-128,616,18,-15,-25
11625,-1920,-152,592,17,-16,-25
11630,-1928,-128,600,15,-17,-23
11635,-1920,-128,648,16,-17,-22
11640,-1928,-152,608,18,-16,-23
11645,-1920,-160,616,23,-14,-24
11650,-1928,-168,632,24,-13,-21
11655,-1944,-168,632,26,-12,-21
11660,-1912,-168,624,28,-12,-21
11665,-1944,-160,624,32,-11,-19
11670,-1936,-176,648,35,-7,-19
11675,-1952,-152,640,37,-6,-17
11680,-1936,-184,640,41,-3,-18
11685,-1976,-120,648,45,0,-18
11690,-1912,-152,608,49,1,-15
11695,-1928,-152,624,53,3,-16
11700,-1936,-160,648,58,6,-15
11705,-1960,-192,632,63,11,-16
11710,-1936,-168,648,69,13,-16
11715,-1920,-192,624,79,19,-16
11720,-1912,-168,640,88,23,-15
11725,-1936,-160,616,96,29,-15
11730,-1952,-184,576,106,33,-15
11735,-1904,-200,616,113,33,-14
11740,-1944,-128,592,121,31,-12
11745,-1936,-136,584,126,24,-10
11750,-1944,-120,600,128,16,-7
11755,-1960,-104,616,129,7,-8
11760,-1944,-104,592,126,-3,-8
11765,-1912,-120,592,122,-14,-7
11770,-1936,-96,584,116,-23,-8
11775,-1928,-80,592,109,-30,-11
11780,-1952,-88,576,102,-37,-10
11785,-1976,-120,616,95,-41,-12
11790,-1936,-112,576,90,-44,-15
11795,-1960,-120,608,86,-47,-16
11800,-1976,-136,608,86,-53,-17
11805,-1960,-136,600,88,-58,-19
11810,-1976,-128,608,93,-63,-19
11815,-1968,-128,616,98,-70,-18
11820,-1984,-120,624,101,-78,-16
11825,-1960,-128,632,104,-84,-16
11830,-1936,-144,632,104,-90,-17
11835,-1968,-104,624,103,-92,-16
11840,-1936,-120,640,100,-91,-19
11845,-1920,-120,624,94,-90,-22
11850,-1952,-112,640,86,-88,-26
11855,-1912,-144,624,78,-86,-24
11860,-1952,-112,648,69,-85,-20
11865,-1936,-120,640,63,-80,-19
11870,-1936,-96,624,56,-76,-16
11875,-1896,-128,656,52,-71,-15
11880,-1928,-104,656,48,-68,-13
11885,-1928,-128,640,49,-67,-10
11890,-1920,-104,640,50,-66,-7
11895,-1896,-128,680,55,-67,-2
11900,-1920,-144,696,57,-68,4
11905,-1904,-136,664,61,-71,10
11910,-1904,-136,704,64,-76,17
11915,-1912,-120,696,64,-78,22
11920,-1896,-112,720,59,-80,29
11925,-1888,-72,736,52,-80,35
11930,-1880,-80,744,40,-77,41
11935,-1824,-136,776,29,-69,43
11940,-1832,-168,784,23,-56,44
11945,-1840,-200,784,22,-36,41
11950,-1864,-200,816,30,-12,37
11955,-1872,-208,792,41,13,32
11960,-1944,-208,776,56,39,28
11965,-1968,-144,728,71,60,24
11970,-1928,-144,696,83,75,20
11975,-1968,-120,696,92,83,17
11980,-1960,-88,688,98,83,16
11985,-1952,-40,640,101,74,17
11990,-1952,-32,664,100,65,16
11995,-1944,-40,664,97,57,12
12000,-1912,-16,640,90,51,5
12005,-1920,-16,648,81,48,0
12010,-1912,-16,640,71,45,-8
12015,-1904,-16,664,55,43,-11
12020,-1896,-32,656,36,41,-18
12025,-1880,-48,664,20,40,-24
12030,-1888,-40,656,5,41,-26
12035,-1896,-64,672,-6,44,-28
12040,-1872,-112,672,-14,48,-30
12045,-1888,-104,664,-19,53,-31
12050,-1864,-112,656,-22,59,-31
12055,-1872,-128,696,-24,63,-30
12060,-1856,-136,672,-24,64,-26
12065,-1904,-104,640,-26,66,-22
12070,-1888,-144,688,-26,69,-23
12075,-1904,-168,672,-26,68,-19
12080,-1936,-168,640,-24,69,-17
12085,-1952,-176,648,-18,70,-14
12090,-1976,-160,616,-8,70,-12
12095,-2008,-136,608,0,68,-9
12100,-2000,-144,576,6,63,-7
12105,-2008,-112,592,11,54,-6
12110,-2008,-128,600,14,48,-4
12115,-2024,-112,584,18,42,-3
12120,-2040,-112,600,20,35,-1
12125,-2016,-120,632,20,30,0
12130,-2008,-56,616,18,29,-4
12135,-1968,-96,632,16,30,-5
12140,-1928,-80,640,12,35,-2
12145,-1872,-48,648,0,48,4
12150,-1832,-48,664,-20,67,12
12155,-1848,-40,696,-44,91,23
12160,-1808,-32,728,-75,110,37
12165,-1808,-80,696,-108,120,51
12170,-1760,-128,712,-136,128,61
12175,-1808,-200,720,-156,135,66
12180,-1832,-232,672,-156,142,67
12185,-1840,-296,672,-139,147,65
12190,-1880,-280,640,-110,146,60
12195,-1920,-296,624,-74,144,58
12200,-1944,-256,584,-35,136,54
12205,-1960,-288,592,3,127,52
12210,-1960,-264,616,38,114,49
12215,-1984,-192,560,70,105,47
12220,-1976,-160,584,95,98,42
12225,-1968,-128,608,113,94,38
12230,-1968,-88,584,122,88,36
12235,-1968,-48,624,119,84,33
12240,-1968,-32,624,113,80,32
12245,-1928,-32,616,99,77,26
12250,-1912,-64,624,85,77,20
12255,-1896,-88,648,71,82,17
12260,-1888,-120,632,59,92,11
12265,-1904,-128,616,52,106,8
12270,-1896,-184,656,52,118,7
12275,-1880,-208,648,59,129,6
12280,-1936,-168,624,65,139,5
12285,-1944,-152,624,71,146,7
12290,-1944,-136,640,74,150,9
12295,-1960,-112,616,74,150,10
12300,-1960,-112,592,71,147,10
12305,-1952,-72,600,66,145,9
12310,-1968,-56,592,59,143,8
12315,-1968,-88,592,52,140,6
12320,-2000,-56,560,46,135,6
12325,-2000,-56,576,41,128,9
12330,-2000,-72,584,38,117,10
12335,-2032,-72,544,35,107,11
12340,-1976,-96,528,33,93,13
12345,-2000,-104,536,33,78,13
12350,-1992,-88,520,37,63,9
12355,-2000,-64,496,42,49,5
12360,-1992,-48,504,45,36,1
12365,-2000,-56,536,46,22,-4
12370,-1992,-32,520,46,10,-9
12375,-1976,-72,520,43,-2,-17
12380,-1952,-96,520,41,-13,-22
12385,-1952,-72,552,37,-21,-27
12390,-1952,-112,536,32,-28,-31
12395,-1952,-104,560,26,-33,-34
12400,-1928,-128,576,19,-40,-37
12405,-1912,-128,584,10,-42,-36
12410,-1936,-136,592,4,-43,-39
12415,-1928,-152,592,-3,-41,-37
12420,-1944,-152,576,-5,-36,-39
12425,-1960,-152,632,-8,-29,-38
12430,-1992,-144,616,-9,-19,-36
12435,-1968,-168,704,-7,-7,-36
12440,-1984,-120,600,-5,2,-33
12445,-1952,-112,600,-3,10,-29
12450,-1984,-112,584,-4,16,-25
12455,-1936,-120,552,-6,17,-20
12460,-1936,-88,608,-8,15,-12
12465,-1944,-104,616,-10,12,-5
12470,-1920,-120,624,-13,7,1
12475,-1912,-112,632,-14,3,9
12480,-1928,-144,624,-15,-2,14
12485,-1920,-112,640,-17,-6,22
12490,-1936,-112,600,-18,-8,30
12495,-1944,-96,624,-21,-9,36
12500,-1936,-48,592,-26,-8,44
12505,-1968,-40,600,-33,-5,50
12510,-1984,-32,616,-35,1,49
12515,-1952,-56,616,-33,13,41
12520,-1952,-80,616,-29,21,29
12525,-1912,-104,624,-26,29,22
12530,-1928,-120,664,-26,35,16
12535,-1920,-120,640,-25,36,19
12540,-1912,-128,640,-21,39,20
12545,-1912,-144,640,-17,43,21
12550,-1928,-120,640,-15,47,21
12555,-1912,-96,656,-16,48,21
12560,-1888,-104,640,-17,49,18
12565,-1888,-88,616,-18,51,14
12570,-1920,-112,640,-19,56,14
12575,-1920,-112,672,-22,61,9
12580,-1944,-112,616,-25,68,5
12585,-1928,-144,600,-28,75,1
12590,-1928,-88,608,-31,82,-2
12595,-1936,-136,592,-30,91,-7
12600,-1944,-120,520,-28,100,-9
12605,-1960,-104,608,-26,112,-14
12610,-1936,-152,632,-20,114,-15
12615,-1944,-152,584,-15,110,-16
12620,-1952,-112,584,-9,105,-16
12625,-1936,-128,584,-6,106,-17
12630,-1944,-104,592,-3,110,-17
12635,-1968,-112,592,-3,110,-17
12640,-1928,-112,584,-2,103,-16
12645,-1944,-120,576,-4,99,-16
12650,-1952,-80,552,-6,98,-16
12655,-1960,-80,552,-12,94,-17
12660,-1936,-104,568,-19,93,-18
12665,-1960,-80,584,-30,102,-16
12670,-1968,-104,536,-50,113,-12
12675,-1952,-128,560,-50,110,-16
12680,-1984,-152,544,-45,107,-17
12685,-1944,-152,544,-40,105,-21
12690,-1960,-176,536,-34,104,-25
12695,-1960,-184,536,-25,101,-25
12700,-1936,-152,536,-18,98,-25
12705,-1944,-184,560,-10,92,-26
12710,-1952,-168,536,-4,88,-25
12715,-1936,-168,552,1,84,-27
12720,-1928,-160,560,1,81,-26
12725,-1960,-120,568,-1,79,-27
12730,-1960,-136,528,-8,81,-27
12735,-1960,-128,576,-15,83,-27
12740,-1960,-112,536,-21,85,-27
12745,-1952,-128,536,-28,87,-28
12750,-1968,-88,544,-34,90,-30
12755,-1984,-120,536,-39,95,-30
12760,-1976,-128,520,-44,101,-29
12765,-1992,-120,512,-50,101,-28
12770,-1992,-128,536,-56,97,-28
12775,-1984,-112,528,-57,93,-24
12780,-1984,-168,512,-55,91,-23
12785,-1976,-152,512,-48,85,-21
12790,-1952,-168,552,-39,80,-22
12795,-1976,-144,536,-27,73,-23
12800,-1960,-160,520,-16,69,-19
12805,-1984,-144,504,-6,66,-17
12810,-1968,-176,528,2,60,-17
12815,-1960,-136,512,10,48,-13
12820,-1960,-152,520,20,36,-8
12825,-1960,-136,512,28,25,-4
12830,-1952,-144,496,37,15,-3
12835,-1952,-128,512,42,7,3
12840,-1968,-144,480,46,-2,7
12845,-1944,-144,472,52,-9,10
12850,-1976,-136,480,58,-21,11
12855,-1968,-128,488,66,-37,9
12860,-2000,-120,504,78,-56,4
12865,-1968,-144,496,94,-75,-3
12870,-1976,-136,520,109,-95,-8
12875,-1976,-136,504,122,-111,-16
12880,-1960,-152,536,132,-126,-23
12885,-1952,-160,536,137,-136,-30
12890,-1944,-128,584,135,-142,-38
12895,-1896,-184,592,130,-142,-45
12900,-1896,-176,600,119,-132,-49
12905,-1872,-176,648,107,-114,-51
12910,-1864,-216,704,95,-87,-50
12915,-1888,-240,696,86,-53,-48
12920,-1880,-264,704,84,-11,-46
12925,-1896,-288,704,89,33,-45
12930,-1904,-312,680,100,71,-39
12935,-1920,-288,664,119,102,-29
12940,-1928,-272,600,138,122,-18
12945,-1960,-256,560,163,130,-9
12950,-1960,-216,528,190,127,-2
12955,-1952,-200,520,214,117,2
12960,-1984,-152,488,231,98,7
12965,-1984,-96,504,240,74,12
12970,-1984,-48,512,243,51,15
12975,-2008,-48,496,241,27,16
12980,-2000,-24,504,235,11,15
12985,-2016,0,504,224,-3,14
12990,-2000,-32,512,211,-13,12
12995,-1984,-16,528,199,-20,11
13000,-2016,-24,560,185,-26,9
13005,-1976,-32,528,171,-27,5
13010,-1984,-40,504,157,-30,2
13015,-1976,-64,536,144,-32,-4
13020,-1952,-88,560,135,-33,-7
13025,-1952,-88,608,132,-36,-10
13030,-1936,-112,544,128,-39,-16
13035,-1976,-88,528,126,-43,-17
13040,-1952,-104,560,121,-44,-17
13045,-1952,-80,576,116,-48,-19
13050,-1920,-88,624,112,-50,-19
13055,-1928,-104,608,105,-53,-20
13060,-1944,-56,584,96,-51,-21
13065,-1936,-80,568,83,-49,-20
13070,-1944,-96,624,71,-45,-22
13075,-1944,-80,592,61,-41,-22
13080,-1944,-88,592,53,-40,-22
13085,-1992,-80,552,48,-33,-25
13090,-1976,-80,560,43,-29,-23
13095,-1944,-112,552,37,-23,-22
13100,-1992,-128,536,29,-16,-21
13105,-1984,-120,536,26,-14,-24
13110,-1984,-136,528,26,-18,-25
13115,-1984,-144,544,28,-23,-23
13120,-1976,-112,552,33,-30,-23
13125,-2000,-104,528,36,-38,-22
13130,-1960,-136,536,37,-42,-20
13135,-1968,-112,592,39,-48,-19
13140,-1952,-104,552,41,-54,-21
13145,-1944,-128,536,42,-58,-19
13150,-1944,-120,576,43,-62,-20
13155,-1944,-136,592,46,-63,-22
13160,-1936,-120,592,46,-63,-22
13165,-1952,-112,600,46,-59,-18
13170,-1920,-128,568,42,-56,-19
13175,-1912,-128,608,40,-48,-21
13180,-1912,-184,608,41,-41,-20
13185,-1920,-168,592,39,-35,-19
13190,-1920,-144,592,41,-27,-16
13195,-1920,-176,600,42,-23,-14
13200,-1936,-144,584,44,-18,-13
13205,-1944,-136,608,47,-14,-12
13210,-1944,-152,600,50,-12,-9
13215,-1928,-144,584,55,-11,-8
13220,-1928,-152,592,60,-12,-6
13225,-1936,-136,592,63,-11,-5
13230,-1952,-136,608,66,-11,-4
13235,-1960,-128,608,66,-11,-3
13240,-1944,-136,592,67,-12,-2
13245,-1952,-128,592,67,-11,-3
13250,-1936,-128,624,67,-11,-2
13255,-1944,-152,632,65,-11,-3
13260,-1928,-136,584,64,-9,-3
13265,-1944,-128,600,64,-7,-2
13270,-1936,-112,600,62,-4,-1
13275,-1928,-136,608,62,-1,-2
13280,-1944,-112,608,63,-1,0
13285,-1928,-136,600,64,1,1
13290,-1912,-168,608,63,5,-3
13295,-1896,-184,624,64,9,-3
13300,-1960,-160,600,69,15,-3
13305,-1952,-184,608,76,26,-3
13310,-1928,-216,624,87,37,-2
13315,-1944,-208,592,104,48,0
13320,-1968,-192,584,121,51,4
13325,-1968,-176,576,135,53,7
13330,-1976,-128,552,145,49,9
13335,-1992,-64,544,151,42,12
13340,-1968,-72,552,151,33,11
13345,-1976,-24,560,148,22,9
13350,-1976,-32,560,144,10,6
13355,-1960,-32,544,134,0,2
13360,-1976,-24,568,126,-10,-3
13365,-1976,-32,568,113,-18,-5
13370,-1952,-48,552,102,-21,-10
13375,-1952,-88,568,93,-20,-14
13380,-1968,-72,568,81,-18,-16
13385,-1920,-120,608,73,-11,-17
13390,-1920,-112,600,66,-8,-20
13395,-1928,-112,600,62,-5,-22
13400,-1936,-96,576,56,-5,-21
13405,-1928,-80,552,53,-5,-22
13410,-1952,-32,616,48,-8,-22
13415,-1928,-104,592,43,-10,-21
13420,-1936,-104,576,39,-14,-22
13425,-1936,-112,576,36,-15,-21
13430,-1976,-96,576,35,-15,-20
13435,-1960,-88,592,34,-16,-21
13440,-1968,-88,568,33,-20,-21
13445,-1952,-112,576,32,-22,-23
13450,-1968,-80,568,28,-23,-24
13455,-1936,-128,576,25,-24,-22
13460,-1968,-120,568,22,-26,-24
13465,-1952,-144,616,19,-24,-24
13470,-1936,-88,608,17,-24,-24
13475,-1936,-136,600,18,-22,-23
13480,-1928,-120,640,20,-19,-21
13485,-1912,-160,640,22,-16,-21
13490,-1920,-176,664,27,-12,-20
13495,-1912,-208,648,36,-4,-18
13500,-1904,-224,648,52,7,-19
13505,-1920,-240,664,70,20,-23
13510,-1920,-248,624,90,31,-26
13515,-1944,-224,624,112,42,-25
13520,-1944,-216,616,135,57,-27
13525,-1968,-200,608,155,68,-30
13530,-1968,-152,568,173,72,-31
13535,-1968,-144,544,185,67,-31
13540,-1968,-80,560,194,57,-31
13545,-1952,-40,520,196,41,-32
13550,-1928,-32,552,191,23,-34
13555,-1928,-16,560,179,6,-35
13560,-1976,-8,568,165,-7,-38
13565,-1968,-24,552,146,-15,-39
13570,-1976,-24,576,126,-18,-40
13575,-1960,-32,552,108,-17,-44
13580,-1952,-56,568,89,-15,-43
13585,-1952,-80,600,71,-12,-41
13590,-1936,-56,608,54,-9,-40
13595,-1936,-96,576,41,-7,-38
13600,-1944,-96,568,31,-4,-36
13605,-1960,-64,624,23,-3,-33
13610,-1936,-128,592,18,-6,-33
13615,-1928,-120,600,15,-8,-32
13620,-1952,-112,616,12,-9,-30
13625,-1920,-128,592,8,-12,-28
13630,-1936,-96,576,5,-13,-27
13635,-1936,-136,600,3,-13,-25
13640,-1952,-128,616,2,-13,-24
13645,-1952,-136,576,2,-11,-24
13650,-1944,-152,576,3,-12,-23
13655,-1928,-120,584,3,-12,-24
13660,-1920,-152,640,2,-12,-23
13665,-1960,-128,584,4,-11,-24
13670,-1936,-144,632,5,-11,-23
13675,-1936,-144,656,5,-10,-23
13680,-1928,-144,608,5,-7,-22
13685,-1920,-160,632,6,-3,-19
13690,-1904,-168,600,7,1,-17
13695,-1912,-168,640,7,5,-13
13700,-1928,-200,664,12,11,-11
13705,-1928,-248,648,19,19,-10
13710,-1904,-248,648,29,31,-10
13715,-1920,-272,656,46,43,-9
13720,-1952,-280,624,68,55,-8
13725,-1968,-248,584,93,66,-9
13730,-1944,-240,584,120,75,-7
13735,-1960,-192,576,142,76,-4
13740,-1928,-176,584,159,71,-2
13745,-1976,-136,568,169,62,0
13750,-1960,-96,552,173,49,3
13755,-1936,-72,552,170,35,3
13760,-1928,-80,528,166,20,4
13765,-1944,-32,552,157,7,2
13770,-1944,-48,576,147,-3,-1
13775,-1944,-32,552,134,-9,-2
13780,-1976,-32,560,118,-13,-6
13785,-1952,-32,560,101,-13,-11
13790,-1960,-48,576,84,-13,-11
13795,-1976,-80,592,67,-11,-13
13800,-1952,-80,584,53,-11,-13
13805,-1944,-80,592,42,-12,-14
13810,-1936,-112,592,35,-12,-13
13815,-1944,-120,616,26,-13,-14
13820,-1928,-128,616,19,-17,-13
13825,-1928,-112,624,13,-14,-16
13830,-1920,-128,608,10,-11,-18
13835,-1904,-144,648,10,-5,-19
13840,-1920,-160,616,12,1,-19
13845,-1936,-168,592,17,10,-18
13850,-1912,-192,600,25,16,-16
13855,-1928,-176,576,34,19,-14
13860,-1920,-168,584,42,19,-14
13865,-1936,-144,576,50,20,-13
13870,-1936,-128,624,51,19,-12
13875,-1928,-112,648,47,20,-12
13880,-1936,-128,656,42,23,-13
13885,-1928,-168,648,40,27,-16
13890,-1936,-208,704,44,36,-20
13895,-1936,-248,648,58,50,-22
13900,-1968,-280,664,79,67,-19
13905,-1960,-256,592,105,83,-17
13910,-1968,-264,600,133,93,-18
13915,-1976,-200,560,159,96,-14
13920,-1984,-160,536,180,96,-12
13925,-1992,-64,552,191,89,-11
13930,-1952,-72,584,192,79,-10
13935,-1952,0,552,185,67,-10
13940,-1928,-8,560,172,53,-12
13945,-1960,0,576,156,40,-12
13950,-1968,8,592,136,30,-13
13955,-1944,8,504,114,24,-15
13960,-1952,-24,536,92,17,-17
13965,-1952,-32,576,72,15,-20
13970,-1952,-32,568,53,14,-23
13975,-1976,-32,624,33,16,-24
13980,-1952,-48,584,19,18,-26
13985,-1944,-72,592,4,20,-24
13990,-1952,-88,600,-8,18,-24
13995,-1936,-88,592,-18,15,-23
14000,-1944,-104,624,-26,12,-21
14005,-1936,-112,632,-32,10,-19
14010,-1936,-112,640,-37,8,-17
14015,-1920,-152,616,-40,8,-16
14020,-1896,-152,576,-41,7,-17
14025,-1928,-160,632,-41,7,-17
14030,-1920,-136,608,-40,6,-15
14035,-1944,-128,584,-39,7,-17
14040,-1952,-144,576,-37,10,-19
14045,-1968,-104,568,-36,10,-24
14050,-1960,-128,552,-31,11,-25
14055,-1992,-80,568,-30,10,-30
14060,-1992,-96,592,-29,7,-35
14065,-1968,-96,576,-30,1,-40
14070,-1984,-80,560,-32,-4,-43
14075,-1968,-80,584,-35,-10,-48
14080,-1976,-88,576,-37,-16,-52
14085,-1976,-104,560,-36,-22,-54
14090,-1960,-96,568,-37,-25,-57
14095,-1984,-120,608,-37,-25,-58
14100,-1944,-112,656,-44,-21,-59
14105,-1944,-56,624,-53,-13,-61
14110,-1952,-96,640,-69,-3,-63
14115,-1952,-96,672,-82,11,-65
14120,-1936,-136,656,-91,22,-64
14125,-1936,-152,648,-98,32,-60
14130,-1952,-208,592,-100,48,-55
14135,-1920,-232,576,-96,60,-47
14140,-1952,-248,560,-86,68,-37
14145,-1944,-264,568,-69,72,-23
14150,-1936,-280,600,-49,70,-13
14155,-1912,-248,552,-23,65,-8
14160,-1920,-232,600,3,55,-4
14165,-1896,-272,568,31,43,1
14170,-1872,-288,616,54,32,5
14175,-1856,-320,608,79,27,7
14180,-1880,-328,600,106,31,5
14185,-1904,-368,632,143,41,-2
14190,-1888,-344,616,191,60,-13
14195,-1936,-344,584,242,85,-21
14200,-1936,-336,544,291,107,-29
14205,-1976,-296,528,333,125,-33
14210,-1952,-248,520,359,133,-31
14215,-1960,-184,504,367,128,-22
14220,-1920,-112,528,364,107,-13
14225,-1912,-56,520,348,73,-3
14230,-1952,0,536,323,36,1
14235,-1936,48,544,291,0,0
14240,-1960,72,552,256,-26,-6
14245,-2016,104,576,217,-37,-14
14250,-2000,88,528,181,-40,-21
14255,-2024,56,528,138,-36,-27
14260,-2008,16,528,110,-26,-29
14265,-2016,-32,536,83,-17,-29
14270,-1984,-32,528,61,-10,-23
14275,-1968,-24,680,45,-9,-20
14280,-1952,-64,584,32,-10,-17
14285,-1928,-104,560,20,-15,-17
14290,-1904,-80,592,8,-22,-17
14295,-1896,-128,592,-5,-27,-19
14300,-1864,-128,624,-17,-33,-20
14305,-1880,-128,608,-27,-36,-19
14310,-1872,-136,600,-38,-41,-16
14315,-1840,-184,608,-47,-41,-14
14320,-1824,-224,680,-53,-38,-9
14325,-1864,-232,736,-57,-35,-6
14330,-1848,-232,696,-59,-29,0
14335,-1872,-216,696,-57,-24,4
14340,-1896,-200,664,-54,-17,8
14345,-1912,-176,696,-53,-9,8
14350,-1968,-160,656,-55,1,13
14355,-1968,-128,664,-62,13,15
14360,-1952,-112,648,-72,28,19
14365,-2008,-64,592,-80,43,24
14370,-1984,-48,608,-93,60,28
14375,-1992,-48,568,-106,72,35
14380,-1984,-32,576,-120,82,38
14385,-1992,-48,552,-129,83,42
14390,-1968,-56,528,-131,75,44
14395,-1952,-80,552,-130,61,45
14400,-1984,-88,528,-126,46,43
14405,-2008,-112,520,-120,33,37
14410,-2008,-128,544,-109,24,29
14415,-1968,-176,536,-93,18,17
14420,-2000,-184,576,-74,15,10
14425,-1960,-232,592,-52,14,3
14430,-1960,-240,608,-32,13,0
14435,-1952,-248,600,-12,17,0
14440,-1912,-280,640,9,20,4
14445,-1912,-248,656,29,25,8
14450,-1896,-240,568,50,29,13
14455,-1904,-200,584,70,31,15
14460,-1944,-168,528,89,32,14
14465,-1944,-160,552,108,30,10
14470,-1936,-176,544,125,25,5
14475,-1952,-160,544,140,19,-2
14480,-1920,-168,536,152,10,-8
14485,-1936,-144,552,158,-3,-12
14490,-1928,-192,576,160,-11,-16
14495,-1952,-160,600,164,-12,-23
14500,-1952,-216,600,169,-5,-31
14505,-1960,-232,616,180,6,-42
14510,-1952,-216,640,193,24,-56
14515,-2000,-240,544,211,46,-64
14520,-1976,-224,536,229,68,-63
14525,-1976,-264,528,241,87,-56
14530,-1944,-224,504,248,87,-47
14535,-1904,-216,552,248,73,-30
14540,-1912,-152,536,242,52,-15
14545,-1912,-80,544,228,24,-5
14550,-1920,-32,600,209,-1,0
14555,-1936,8,584,186,-21,1
14560,-1952,24,576,164,-33,-3
14565,-1984,40,568,147,-41,-8
14570,-2000,-8,520,135,-40,-11
14575,-2016,-16,520,122,-38,-10
14580,-2000,-80,496,107,-34,-7
14585,-1984,-88,560,91,-36,-5
14590,-1976,-56,560,74,-37,-2
14595,-1952,-64,592,59,-43,-5
14600,-1960,-72,608,44,-48,-7
14605,-1920,-56,608,27,-49,-8
14610,-1936,-40,632,12,-50,-8
14615,-1904,-64,608,-3,-52,-9
14620,-1888,-48,600,-17,-53,-9
14625,-1888,-120,616,-29,-55,-10
14630,-1896,-136,608,-37,-54,-8
14635,-1880,-144,624,-45,-52,-8
14640,-1888,-168,632,-51,-50,-8
14645,-1904,-152,656,-57,-49,-8
14650,-1856,-184,664,-65,-47,-10
14655,-1928,-168,696,-72,-42,-9
14660,-1920,-144,664,-78,-31,-7
14665,-1960,-112,664,-83,-17,-7
14670,-1944,-72,656,-88,-4,-7
14675,-1944,-88,640,-93,7,-4
14680,-1984,-64,600,-100,17,-2
14685,-1976,-72,568,-108,28,-1
14690,-1984,-88,560,-110,38,-2
14695,-1960,-112,552,-114,41,1
14700,-1960,-136,560,-115,40,0
14705,-1944,-136,600,-111,31,-1
14710,-1952,-160,600,-102,23,-1
14715,-1976,-144,616,-92,17,-3
14720,-1968,-208,592,-80,15,-8
14725,-2000,-192,608,-63,20,-13
14730,-1960,-240,616,-40,29,-19
14735,-1936,-272,656,-13,36,-25
14740,-1944,-240,576,10,42,-28
14745,-1920,-240,584,33,43,-27
14750,-1928,-248,584,51,41,-18
14755,-1904,-264,584,69,38,-8
14760,-1912,-232,560,85,34,2
14765,-1896,-224,544,102,29,8
14770,-1904,-248,568,116,23,7
14775,-1888,-208,568,130,14,7
14780,-1888,-184,560,143,5,1
14785,-1896,-216,576,157,-3,-8
14790,-1920,-200,624,170,-4,-21
14795,-1896,-200,632,179,4,-31
14800,-1944,-224,624,191,23,-44
14805,-1960,-224,616,206,56,-56
14810,-2000,-224,616,219,85,-65
14815,-1984,-216,552,231,108,-65
14820,-1976,-208,528,232,118,-59
14825,-1952,-168,520,226,114,-47
14830,-1944,-104,552,214,100,-32
14835,-1920,-56,536,200,76,-19
14840,-1928,-48,568,184,45,-11
14845,-1960,0,568,169,20,-4
14850,-1968,32,576,153,-1,-3
14855,-1976,16,576,139,-16,-6
14860,-1976,-24,528,126,-24,-8
14865,-1952,-48,528,114,-27,-10
14870,-2000,-48,536,100,-28,-9
14875,-1960,-104,528,88,-31,-7
14880,-1960,-96,576,73,-33,-10
14885,-1928,-80,584,57,-33,-12
14890,-1936,-48,600,40,-31,-15
14895,-1936,-104,616,23,-29,-18
14900,-1928,-80,616,8,-27,-17
14905,-1888,-144,608,-5,-24,-16
14910,-1848,-152,648,-17,-21,-14
14915,-1880,-160,616,-24,-19,-10
14920,-1832,-192,664,-29,-16,-4
14925,-1864,-208,680,-32,-12,1
14930,-1872,-200,664,-32,-8,4
14935,-1888,-224,688,-31,-5,5
14940,-1920,-200,680,-29,-3,6
14945,-1960,-160,672,-26,3,4
14950,-1976,-160,640,-24,13,4
14955,-2008,-128,648,-24,27,2
14960,-2000,-88,608,-28,42,2
14965,-1992,-64,584,-35,57,3
14970,-1992,-48,592,-46,66,6
14975,-2008,-72,640,-58,74,12
14980,-1968,-32,592,-69,78,17
14985,-2008,-48,528,-79,80,21
14990,-1976,-64,552,-83,76,20
14995,-1928,-128,536,-80,70,17
