timestamp,accel_x,accel_y,accel_z,gyro_x,gyro_y,gyro_z
0,80,-2024,160,4,52,-1
5,104,-2016,160,4,52,-2
10,80,-2056,160,4,53,-3
15,96,-2048,128,4,53,-2
20,64,-2032,168,4,52,-3
25,80,-2032,160,3,52,-3
30,80,-2040,144,2,51,-1
35,96,-2024,144,-1,51,-1
40,88,-2048,160,-2,51,0
45,80,-2024,144,-5,50,1
50,96,-2048,128,-6,51,1
55,72,-2032,136,-9,50,1
60,80,-2056,144,-10,50,0
65,96,-2032,144,-9,51,1
70,72,-2056,136,-11,51,2
75,56,-2064,120,-11,49,3
80,88,-2032,152,-10,48,4
85,72,-2064,176,-10,48,4
90,88,-2024,144,-11,48,3
95,88,-2024,128,-10,47,2
100,88,-2024,168,-9,48,3
105,88,-2016,144,-8,48,2
110,88,-2024,168,-7,48,2
115,112,-2024,152,-8,47,2
120,96,-2064,192,-8,48,1
125,80,-2024,184,-8,47,1
130,80,-2032,160,-9,47,0
135,96,-2040,144,-9,48,3
140,72,-2040,168,-9,49,3
145,112,-2056,128,-9,51,4
150,88,-2008,160,-9,51,2
155,112,-2032,144,-10,53,3
160,96,-2040,168,-12,56,2
165,96,-2032,176,-13,55,4
170,96,-2040,176,-13,56,3
175,96,-2032,152,-15,56,3
180,104,-2024,120,-15,54,2
185,104,-2040,104,-17,56,2
190,96,-2024,152,-17,54,2
195,96,-2040,152,-19,55,1
200,96,-2048,152,-20,55,1
205,96,-2032,136,-20,57,1
210,112,-2016,168,-19,55,1
215,80,-2016,184,-22,56,2
220,104,-2024,144,-22,59,2
225,96,-2032,144,-23,59,1
230,104,-2032,136,-24,60,1
235,104,-2008,168,-24,60,1
240,80,-2024,144,-26,61,2
245,88,-2032,128,-26,62,1
250,80,-2032,160,-25,60,0
255,72,-2032,168,-25,60,0
260,72,-2040,136,-25,60,0
265,88,-2032,136,-24,60,1
270,88,-2040,120,-23,60,2
275,88,-2064,152,-23,59,1
280,88,-2032,144,-23,60,1
285,80,-2024,144,-22,61,2
290,136,-2088,160,-21,64,0
295,88,-2040,144,-20,65,2
300,104,-2048,112,-21,67,1
305,104,-2040,144,-21,69,1
310,104,-2024,168,-22,69,1
315,104,-2024,136,-22,70,1
320,104,-2016,128,-24,70,3
325,104,-2016,160,-26,70,2
330,104,-2032,136,-27,70,2
335,56,-2040,144,-28,69,1
340,96,-2048,128,-29,68,1
345,88,-2032,120,-29,67,4
350,64,-2024,120,-30,66,4
355,88,-2056,152,-29,66,2
360,104,-2048,136,-30,69,4
365,88,-2040,112,-29,69,4
370,96,-2040,136,-29,70,4
375,72,-2024,128,-27,71,3
380,72,-2032,144,-24,71,4
385,96,-2040,136,-22,72,4
390,96,-2048,120,-21,71,3
395,104,-2048,176,-21,73,2
400,104,-2040,104,-20,71,2
405,88,-2032,224,-22,72,1
410,80,-2016,144,-22,72,-1
415,88,-2032,128,-25,73,-1
420,128,-2040,144,-29,73,-2
425,96,-2008,112,-32,74,-3
430,88,-2032,160,-36,76,-2
435,88,-2032,136,-39,78,-2
440,104,-2024,168,-44,80,-2
445,104,-2032,136,-47,82,-1
450,72,-2040,160,-51,84,-1
455,120,-2040,160,-51,85,-2
460,96,-2040,152,-49,86,-1
465,88,-2032,160,-48,86,-1
470,88,-2024,112,-45,86,0
475,104,-2024,144,-42,86,-1
480,72,-2032,128,-41,86,-1
485,104,-2048,120,-39,87,-1
490,96,-2040,128,-40,88,-2
495,72,-2032,128,-41,88,0
500,80,-2032,112,-42,86,0
505,88,-2048,144,-45,84,1
510,80,-2056,112,-47,83,2
515,64,-2056,96,-48,81,1
520,72,-2048,152,-50,81,3
525,48,-2032,120,-49,82,4
530,64,-2032,112,-48,80,6
535,72,-2040,144,-45,82,5
540,96,-2032,136,-40,82,7
545,104,-2048,152,-35,82,7
550,72,-2032,136,-30,82,6
555,88,-2016,136,-24,82,5
560,72,-2024,128,-20,81,4
565,72,-2064,88,-18,80,2
570,104,-2040,112,-16,80,1
575,96,-2016,152,-16,81,-1
580,80,-2048,112,-17,80,-1
585,64,-2032,128,-19,80,-3
590,104,-2080,136,-20,80,-4
595,88,-2032,120,-22,81,-3
600,96,-2048,112,-21,81,-3
605,72,-2048,120,-19,80,-3
610,128,-2056,120,-19,80,-3
615,80,-2024,128,-19,81,-4
620,80,-2056,152,-19,80,-2
625,104,-2048,136,-20,80,-3
630,96,-2032,144,-21,79,-2
635,88,-2040,120,-24,79,-4
640,80,-2056,144,-26,78,-3
645,64,-2024,128,-27,78,-2
650,80,-2024,112,-28,77,-3
655,104,-2016,104,-29,78,-1
660,80,-2040,144,-29,78,-3
665,80,-2016,112,-29,76,-4
670,96,-2040,160,-29,75,-3
675,88,-2024,136,-28,73,-5
680,96,-2040,96,-27,72,-4
685,88,-2024,112,-27,71,-5
690,88,-2024,128,-27,71,-6
695,112,-2024,128,-27,71,-5
700,80,-2024,128,-28,71,-6
705,88,-2032,96,-28,72,-6
710,96,-2024,120,-31,72,-6
715,96,-2032,128,-33,70,-6
720,80,-2032,152,-33,73,-6
725,104,-2024,128,-35,72,-7
730,104,-2040,120,-36,72,-6
735,88,-2056,144,-37,72,-7
740,104,-2024,144,-37,71,-7
745,96,-2016,136,-39,73,-7
750,96,-2040,144,-37,73,-5
755,104,-2048,112,-37,72,-6
760,96,-2024,128,-33,73,-6
765,80,-2064,112,-32,73,-6
770,104,-2056,136,-30,72,-6
775,104,-2056,128,-28,72,-6
780,80,-2032,128,-27,71,-7
785,96,-2064,128,-25,72,-8
790,80,-2048,120,-25,73,-8
795,104,-2056,152,-25,73,-8
800,104,-2056,120,-23,74,-8
805,80,-2032,112,-22,76,-8
810,96,-2024,160,-22,76,-8
815,80,-2040,136,-20,78,-7
820,96,-2048,128,-19,77,-8
825,96,-2048,144,-18,77,-9
830,80,-2032,136,-17,77,-9
835,80,-2032,144,-15,79,-7
840,136,-2088,128,-14,79,-9
845,104,-2056,128,-14,78,-9
850,72,-2040,128,-14,78,-8
855,88,-2016,136,-15,78,-8
860,88,-2056,136,-15,78,-8
865,88,-2040,136,-17,79,-6
870,96,-2032,96,-19,78,-6
875,88,-2048,152,-19,79,-7
880,88,-2016,128,-21,79,-6
885,120,-2048,136,-20,78,-6
890,96,-2056,168,-22,79,-5
895,104,-2024,136,-24,79,-6
900,80,-2000,136,-27,79,-6
905,104,-2032,144,-30,80,-6
910,96,-2048,136,-30,80,-6
915,80,-2056,152,-33,80,-3
920,96,-2048,112,-34,79,-3
925,104,-2032,120,-35,79,-4
930,96,-2040,104,-34,78,-4
935,72,-2048,112,-34,75,-3
940,80,-2032,96,-33,75,-3
945,72,-2032,136,-33,74,-3
950,72,-2008,32,-31,73,-3
955,96,-2048,120,-30,73,-3
960,80,-2032,120,-30,73,-1
965,112,-2024,128,-32,74,-2
970,96,-2032,152,-32,74,-2
975,96,-2056,104,-33,74,-2
980,88,-2016,104,-34,73,-1
985,88,-2000,136,-33,76,-1
990,72,-2024,112,-35,77,-2
995,80,-2008,112,-36,77,-4
1000,88,-2024,64,-38,78,-4
1005,104,-2032,104,-42,79,-6
1010,80,-2008,120,-43,81,-7
1015,80,-2016,104,-46,81,-7
1020,96,-2032,112,-50,81,-6
1025,96,-2048,136,-52,80,-8
1030,80,-2040,152,-54,80,-8
1035,104,-2032,112,-56,80,-9
1040,72,-2040,128,-58,79,-8
1045,72,-2064,136,-60,80,-10
1050,96,-2024,120,-60,79,-8
1055,112,-2040,136,-59,79,-7
1060,72,-2040,88,-57,76,-5
1065,104,-2032,88,-53,74,-5
1070,88,-2040,104,-50,74,-7
1075,96,-2024,96,-46,74,-6
1080,120,-2048,72,-43,74,-4
1085,88,-2048,112,-42,71,-7
1090,64,-2008,72,-41,72,-6
1095,80,-2016,96,-42,72,-6
1100,96,-2016,104,-45,72,-7
1105,88,-2056,112,-47,73,-6
1110,88,-2056,88,-50,74,-8
1115,96,-2032,96,-53,75,-7
1120,112,-2024,80,-57,75,-9
1125,80,-2048,104,-60,76,-10
1130,96,-2040,112,-62,79,-9
1135,88,-2040,56,-65,78,-10
1140,88,-2040,88,-67,78,-10
1145,80,-2024,80,-71,79,-7
1150,120,-2032,80,-71,80,-7
1155,88,-2016,104,-75,81,-5
1160,48,-2032,80,-77,80,-5
1165,80,-2048,56,-79,79,-4
1170,88,-2048,80,-80,78,-3
1175,80,-2040,8,-83,78,-3
1180,104,-2056,24,-86,79,-2
1185,64,-2048,48,-89,81,-1
1190,104,-2064,32,-93,80,-2
1195,80,-2072,24,-95,80,-2
1200,72,-2032,40,-99,82,-4
1205,80,-2048,72,-103,83,-4
1210,112,-2056,40,-107,85,-5
1215,104,-2048,40,-110,86,-7
1220,80,-2048,24,-114,88,-7
1225,88,-2056,16,-117,90,-9
1230,112,-2072,40,-123,94,-11
1235,120,-2064,24,-128,96,-12
1240,96,-2032,24,-133,97,-14
1245,80,-2048,16,-139,99,-14
1250,104,-2072,16,-144,99,-17
1255,96,-2040,8,-147,100,-17
1260,96,-2072,8,-151,101,-17
1265,88,-2056,8,-152,103,-16
1270,96,-2048,8,-152,104,-13
1275,136,-2016,-48,-153,103,-12
1280,96,-2048,-8,-153,103,-11
1285,104,-2056,0,-154,103,-10
1290,80,-2032,-24,-154,104,-9
1295,80,-2048,16,-152,105,-9
1300,80,-2048,-8,-153,105,-8
1305,96,-2056,-8,-153,106,-6
1310,88,-2072,-8,-150,107,-6
1315,88,-2056,0,-149,107,-7
1320,88,-2048,-16,-150,107,-7
1325,112,-2056,-8,-152,106,-6
1330,80,-2056,-16,-153,104,-6
1335,88,-2032,-8,-158,105,-4
1340,80,-2024,8,-159,105,1
1345,88,-2032,-16,-165,105,-2
1350,104,-2056,-24,-171,102,-2
1355,64,-2016,-24,-180,100,-1
1360,72,-2032,-16,-189,95,-2
1365,80,-2000,-48,-198,91,0
1370,88,-2024,-16,-204,88,1
1375,72,-2008,-8,-206,85,5
1380,80,-2008,-8,-211,84,2
1385,136,-1968,16,-215,79,2
1390,40,-2000,0,-212,73,4
1395,88,-2008,24,-210,68,6
1400,56,-1984,32,-207,67,5
1405,80,-1984,80,-202,66,5
1410,80,-2000,48,-195,69,5
1415,64,-1992,88,-190,70,4
1420,96,-1992,16,-190,69,0
1425,104,-1968,80,-191,71,0
1430,88,-1976,80,-195,71,-2
1435,96,-2016,32,-197,69,2
1440,80,-1992,0,-201,68,1
1445,104,-2008,8,-210,64,-2
1450,104,-2000,8,-216,63,-3
1455,72,-2008,24,-222,61,-2
1460,96,-2024,8,-224,59,-1
1465,104,-2016,-16,-226,60,0
1470,104,-2056,16,-229,61,-2
1475,104,-2040,-8,-230,61,-1
1480,96,-2048,-16,-232,61,0
1485,112,-2064,-40,-234,62,-1
1490,136,-2056,-64,-234,62,0
1495,104,-2072,-24,-235,64,0
1500,112,-2040,-24,-236,65,-2
1505,104,-2048,-32,-236,69,-4
1510,128,-2072,-32,-233,70,-3
1515,120,-2072,-32,-230,71,-3
1520,112,-2080,-56,-224,72,-4
1525,96,-2064,-24,-216,73,-6
1530,112,-2072,-40,-209,75,-5
1535,112,-2088,-32,-192,79,5
1540,96,-2056,-64,-177,81,6
1545,96,-2064,-56,-170,82,6
1550,96,-2048,-80,-171,82,7
1555,112,-2048,-120,-175,80,8
1560,96,-2064,-120,-179,81,11
1565,88,-2080,-128,-180,83,12
1570,72,-2064,-136,-183,85,13
1575,88,-2072,-152,-185,86,14
1580,80,-2048,-168,-189,91,14
1585,88,-2016,-192,-197,96,13
1590,104,-2016,-192,-208,99,11
1595,120,-2056,-176,-220,100,13
1600,112,-2016,-240,-232,109,15
1605,136,-2024,-248,-248,113,14
1610,112,-2032,-232,-269,111,11
1615,112,-2008,-248,-288,116,13
1620,88,-2016,-240,-309,116,9
1625,96,-2008,-232,-332,111,9
1630,72,-2016,-256,-350,109,12
1635,88,-2024,-264,-364,105,11
1640,64,-2008,-232,-378,93,12
1645,56,-2000,-208,-383,85,15
1650,40,-2000,-272,-381,78,20
1655,40,-1976,-224,-374,72,24
1660,16,-1928,-200,-366,66,25
1665,24,-1960,-208,-354,59,27
1670,8,-1896,-208,-345,53,30
1675,16,-1896,-184,-340,49,27
1680,24,-1880,-192,-344,47,27
1685,16,-1864,-216,-361,44,27
1690,56,-1864,-208,-386,48,29
1695,48,-1880,-240,-421,45,24
1700,48,-1872,-264,-461,42,25
1705,40,-1896,-264,-500,43,25
1710,104,-1904,-288,-538,42,20
1715,80,-1936,-272,-573,41,15
1720,120,-1976,-288,-597,37,12
1725,88,-1984,-264,-617,37,5
1730,88,-1992,-264,-629,36,-1
1735,112,-1984,-272,-633,35,-8
1740,104,-1992,-272,-626,34,-12
1745,104,-1960,-264,-614,30,-15
1750,128,-1984,-256,-599,30,-16
1755,120,-1984,-296,-588,34,-19
1760,104,-1968,-304,-581,39,-17
1765,120,-1976,-336,-579,45,-15
1770,136,-1936,-368,-581,52,-12
1775,120,-1912,-368,-589,61,-11
1780,112,-1912,-408,-602,68,-9
1785,144,-1912,-424,-618,77,-6
1790,144,-1880,-440,-639,84,-5
1795,144,-1872,-448,-660,90,0
1800,144,-1872,-456,-679,93,-1
1805,176,-1888,-424,-699,98,-1
1810,144,-1880,-448,-720,100,-4
1815,136,-1872,-480,-737,102,-9
1820,112,-1912,-528,-748,102,-10
1825,96,-1880,-440,-755,101,-14
1830,104,-1848,-432,-758,105,-18
1835,80,-1832,-440,-760,106,-22
1840,72,-1840,-432,-761,109,-25
1845,88,-1848,-456,-763,111,-25
1850,88,-1824,-472,-770,112,-25
1855,48,-1800,-480,-781,118,-28
1860,88,-1792,-504,-798,122,-35
1865,48,-1808,-512,-818,122,-36
1870,64,-1792,-472,-839,127,-37
1875,56,-1776,-544,-862,131,-36
1880,80,-1784,-536,-882,136,-36
1885,48,-1800,-528,-901,143,-38
1890,72,-1816,-560,-914,153,-40
1895,88,-1816,-536,-924,161,-46
1900,96,-1848,-544,-928,170,-57
1905,96,-1856,-536,-925,181,-71
1910,112,-1856,-552,-918,194,-81
1915,112,-1880,-544,-909,208,-92
1920,128,-1864,-568,-903,218,-104
1925,152,-1936,-560,-897,235,-114
1930,160,-1904,-608,-893,253,-122
1935,200,-1920,-592,-885,273,-128
1940,200,-1904,-600,-877,293,-129
1945,232,-1872,-640,-873,312,-131
1950,224,-1888,-648,-870,334,-129
1955,224,-1888,-664,-868,354,-125
1960,232,-1840,-656,-862,372,-117
1965,256,-1824,-656,-854,386,-114
1970,232,-1832,-656,-846,399,-105
1975,248,-1816,-672,-837,409,-101
1980,256,-1792,-648,-826,418,-94
1985,256,-1784,-632,-813,425,-85
1990,216,-1808,-624,-804,427,-81
1995,200,-1808,-640,-800,424,-79
2000,176,-1800,-648,-798,419,-78
2005,112,-1808,-624,-802,414,-78
2010,104,-1848,-640,-812,399,-76
2015,56,-1872,-616,-826,388,-72
2020,24,-1880,-624,-837,378,-71
2025,0,-1896,-656,-848,368,-68
2030,-32,-1920,-672,-855,356,-66
2035,-32,-1880,-696,-860,346,-62
2040,-32,-1912,-720,-863,336,-60
2045,-32,-1888,-720,-867,325,-52
2050,-72,-1872,-720,-868,309,-48
2055,-40,-1864,-744,-864,297,-41
2060,-8,-1840,-752,-858,280,-39
2065,-32,-1832,-776,-851,263,-37
2070,16,-1824,-768,-844,246,-34
2075,16,-1808,-744,-838,236,-36
2080,24,-1800,-744,-835,226,-40
2085,64,-1816,-744,-836,213,-47
2090,64,-1824,-760,-837,202,-53
2095,80,-1792,-768,-841,191,-60
2100,88,-1800,-784,-847,182,-66
2105,160,-1832,-768,-849,179,-72
2110,168,-1848,-784,-854,172,-76
2115,176,-1832,-776,-862,169,-78
2120,192,-1856,-752,-866,168,-79
2125,208,-1856,-768,-863,170,-79
2130,248,-1856,-784,-856,169,-78
2135,232,-1832,-800,-847,170,-77
2140,248,-1752,-824,-833,174,-75
2145,264,-1832,-776,-814,179,-73
2150,264,-1816,-824,-792,188,-72
2155,256,-1800,-824,-768,194,-73
2160,248,-1808,-840,-749,197,-76
2165,272,-1808,-864,-733,197,-79
2170,248,-1800,-864,-720,196,-84
2175,264,-1808,-904,-711,198,-87
2180,272,-1816,-896,-706,201,-93
2185,264,-1824,-880,-704,206,-102
2190,240,-1848,-912,-700,215,-110
2195,264,-1880,-896,-698,227,-119
2200,240,-1856,-872,-688,245,-127
2205,224,-1872,-920,-680,254,-130
2210,216,-1848,-888,-672,252,-134
2215,208,-1896,-872,-667,238,-136
2220,192,-1856,-880,-650,228,-136
2225,192,-1824,-872,-633,212,-134
2230,168,-1760,-880,-610,201,-133
2235,144,-1744,-912,-584,196,-131
2240,176,-1752,-880,-558,188,-124
2245,144,-1688,-928,-529,185,-117
2250,152,-1664,-960,-510,182,-110
2255,152,-1656,-1040,-497,183,-106
2260,152,-1640,-1016,-491,193,-102
2265,144,-1624,-1136,-497,195,-101
2270,192,-1656,-1120,-520,194,-101
2275,208,-1696,-1144,-550,193,-105
2280,168,-1704,-1144,-581,199,-113
2285,200,-1728,-1152,-616,193,-119
2290,232,-1792,-1128,-646,183,-126
2295,232,-1824,-1080,-662,175,-132
2300,240,-1824,-1056,-662,159,-132
2305,248,-1888,-1032,-643,145,-131
2310,264,-1888,-1032,-611,133,-130
2315,248,-1848,-1008,-568,128,-127
2320,256,-1856,-976,-519,120,-120
2325,248,-1800,-992,-465,113,-114
2330,240,-1752,-1000,-420,106,-111
2335,256,-1696,-1032,-379,117,-108
2340,224,-1656,-1104,-352,131,-101
2345,272,-1624,-1112,-344,142,-101
2350,240,-1584,-1168,-360,148,-105
2355,264,-1576,-1208,-387,157,-112
2360,304,-1592,-1200,-425,170,-123
2365,304,-1608,-1216,-467,186,-136
2370,296,-1616,-1248,-517,197,-149
2375,336,-1680,-1240,-565,206,-160
2380,344,-1696,-1256,-602,217,-169
2385,352,-1696,-1192,-628,225,-178
2390,368,-1776,-1168,-636,241,-185
2395,344,-1744,-1136,-627,242,-189
2400,344,-1744,-1104,-603,236,-186
2405,336,-1760,-1120,-568,220,-180
2410,312,-1744,-1088,-533,200,-177
2415,312,-1712,-1096,-504,181,-171
2420,272,-1664,-1080,-477,164,-166
2425,240,-1624,-1144,-447,149,-161
2430,232,-1608,-1152,-424,136,-157
2435,232,-1592,-1184,-409,132,-152
2440,208,-1536,-1184,-409,129,-149
2445,168,-1560,-1248,-419,126,-147
2450,200,-1568,-1240,-441,124,-145
2455,192,-1576,-1272,-472,126,-143
2460,200,-1584,-1312,-503,124,-138
2465,216,-1600,-1320,-533,126,-132
2470,216,-1648,-1280,-555,125,-125
2475,264,-1664,-1304,-571,123,-118
2480,264,-1704,-1320,-572,118,-108
2485,320,-1768,-1288,-563,107,-103
2490,344,-1800,-1296,-540,97,-97
2495,352,-1816,-1264,-509,84,-92
2500,360,-1816,-1248,-469,68,-88
2505,400,-1832,-1256,-428,53,-85
2510,416,-1840,-1264,-380,52,-87
2515,392,-1832,-1248,-332,51,-88
2520,424,-1816,-1296,-291,51,-87
2525,416,-1808,-1320,-253,60,-90
2530,408,-1768,-1320,-226,70,-94
2535,472,-1760,-1352,-207,78,-96
2540,440,-1744,-1424,-191,92,-99
2545,432,-1744,-1432,-187,108,-103
2550,424,-1744,-1472,-192,123,-106
2555,432,-1744,-1464,-196,142,-109
2560,440,-1744,-1488,-198,153,-108
2565,416,-1752,-1488,-197,163,-105
2570,408,-1800,-1496,-189,176,-103
2575,424,-1784,-1496,-182,180,-98
2580,416,-1776,-1512,-169,182,-90
2585,392,-1800,-1488,-151,182,-83
2590,384,-1784,-1464,-127,175,-77
2595,384,-1800,-1464,-95,167,-72
2600,368,-1752,-1456,-66,161,-66
2605,344,-1744,-1464,-43,158,-63
2610,368,-1728,-1464,-27,154,-59
2615,368,-1720,-1464,-18,150,-58
2620,352,-1672,-1464,-16,147,-56
2625,360,-1688,-1480,-20,144,-54
2630,360,-1656,-1520,-23,142,-53
2635,392,-1664,-1496,-28,140,-51
2640,352,-1632,-1496,-33,137,-50
2645,384,-1656,-1480,-39,137,-51
2650,384,-1648,-1512,-47,134,-51
2655,408,-1624,-1488,-56,134,-51
2660,400,-1640,-1488,-66,133,-52
2665,400,-1632,-1472,-75,129,-55
2670,400,-1640,-1440,-84,128,-55
2675,376,-1640,-1472,-95,126,-56
2680,376,-1632,-1472,-103,126,-55
2685,368,-1632,-1464,-110,125,-54
2690,376,-1608,-1432,-112,123,-54
2695,360,-1632,-1456,-113,118,-50
2700,336,-1608,-1448,-111,115,-47
2705,336,-1600,-1416,-106,108,-42
2710,352,-1608,-1432,-96,103,-38
2715,360,-1600,-1424,-85,98,-31
2720,368,-1592,-1432,-71,92,-25
2725,376,-1600,-1456,-56,84,-20
2730,400,-1600,-1448,-44,78,-16
2735,424,-1624,-1416,-35,72,-14
2740,408,-1616,-1408,-28,65,-12
2745,408,-1592,-1456,-24,58,-10
2750,448,-1616,-1424,-25,53,-11
2755,448,-1608,-1408,-26,47,-12
2760,416,-1576,-1432,-27,41,-14
2765,416,-1576,-1416,-27,36,-16
2770,408,-1608,-1432,-23,30,-18
2775,384,-1616,-1416,-16,24,-17
2780,352,-1600,-1400,-9,20,-17
2785,368,-1592,-1384,-3,16,-13
2790,352,-1608,-1392,4,14,-12
2795,344,-1568,-1392,11,12,-7
2800,336,-1648,-1496,19,8,-1
2805,320,-1584,-1424,26,3,4
2810,336,-1592,-1384,30,-4,10
2815,328,-1592,-1392,33,-12,14
2820,352,-1600,-1384,37,-22,18
2825,376,-1608,-1416,43,-31,20
2830,376,-1608,-1384,50,-37,22
2835,384,-1624,-1360,55,-41,22
2840,424,-1632,-1360,62,-42,22
2845,400,-1616,-1416,66,-39,19
2850,448,-1584,-1392,70,-34,17
2855,456,-1576,-1400,73,-25,14
2860,440,-1568,-1392,72,-15,10
2865,464,-1568,-1376,72,-4,8
2870,472,-1568,-1368,68,5,4
2875,448,-1496,-1384,69,15,1
2880,416,-1520,-1384,68,22,-2
2885,440,-1528,-1352,69,27,-6
2890,416,-1496,-1368,68,33,-9
2895,400,-1528,-1368,66,40,-14
2900,392,-1536,-1352,62,46,-15
2905,376,-1536,-1376,58,48,-16
2910,384,-1520,-1328,55,51,-17
2915,392,-1528,-1344,50,54,-16
2920,384,-1536,-1368,47,56,-13
2925,384,-1544,-1344,48,58,-11
2930,384,-1544,-1312,51,58,-6
2935,384,-1536,-1368,56,56,-2
2940,392,-1560,-1320,61,57,2
2945,392,-1544,-1304,67,56,7
2950,408,-1560,-1320,73,57,10
2955,400,-1504,-1312,79,57,9
2960,408,-1512,-1352,84,58,11
2965,440,-1504,-1328,89,62,11
2970,408,-1536,-1296,93,65,9
2975,432,-1496,-1344,92,69,11
2980,424,-1504,-1304,89,72,9
2985,424,-1520,-1336,88,79,6
2990,416,-1504,-1280,87,86,4
2995,384,-1480,-1264,83,89,0
3000,392,-1496,-1296,80,95,-1
3005,360,-1520,-1320,80,98,-1
3010,376,-1456,-1312,78,100,-4
3015,312,-1512,-1312,75,101,-3
3020,328,-1504,-1264,71,100,-4
3025,312,-1512,-1264,66,97,-4
3030,280,-1496,-1312,59,95,-2
3035,312,-1520,-1344,53,90,1
3040,304,-1512,-1304,48,87,3
3045,304,-1520,-1320,43,83,4
3050,288,-1520,-1328,42,76,6
3055,304,-1520,-1320,44,70,7
3060,328,-1552,-1320,43,65,5
3065,336,-1528,-1360,43,59,4
3070,376,-1576,-1296,43,55,2
3075,360,-1520,-1320,43,48,-2
3080,376,-1568,-1320,44,44,-5
3085,400,-1584,-1360,42,39,-10
3090,368,-1576,-1368,41,36,-16
3095,384,-1616,-1368,39,30,-20
3100,384,-1592,-1344,34,29,-23
3105,384,-1640,-1408,31,25,-28
3110,352,-1648,-1400,27,25,-31
3115,344,-1616,-1392,22,21,-32
3120,360,-1656,-1392,19,16,-32
3125,344,-1608,-1416,18,10,-31
3130,288,-1608,-1408,19,3,-29
3135,304,-1624,-1392,23,-6,-26
3140,288,-1624,-1408,33,-17,-20
3145,288,-1640,-1392,46,-29,-14
3150,304,-1648,-1384,62,-39,-7
3155,304,-1616,-1352,82,-47,-2
3160,312,-1632,-1336,102,-55,6
3165,320,-1568,-1344,119,-63,12
3170,344,-1600,-1320,136,-69,16
3175,360,-1584,-1336,150,-71,19
3180,360,-1544,-1328,163,-70,22
3185,384,-1544,-1320,170,-68,22
3190,408,-1512,-1320,170,-63,21
3195,424,-1488,-1320,168,-56,19
3200,416,-1472,-1304,157,-46,15
3205,416,-1464,-1288,142,-39,14
3210,424,-1456,-1304,125,-28,9
3215,424,-1472,-1280,108,-22,6
3220,424,-1448,-1264,85,-15,3
3225,400,-1448,-1256,63,-12,1
3230,400,-1456,-1248,40,-8,0
3235,328,-1448,-1256,22,-7,0
3240,360,-1472,-1224,3,-8,-2
3245,328,-1456,-1232,-13,-9,-4
3250,312,-1432,-1248,-28,-11,-4
3255,312,-1440,-1240,-37,-15,-3
3260,304,-1432,-1224,-44,-19,-2
3265,296,-1440,-1216,-48,-24,-3
3270,288,-1424,-1240,-48,-23,-3
3275,288,-1440,-1232,-47,-23,-7
3280,272,-1400,-1248,-44,-19,-8
3285,288,-1432,-1200,-42,-19,-10
3290,304,-1392,-1232,-42,-19,-12
3295,288,-1424,-1256,-44,-16,-12
3300,296,-1384,-1232,-46,-15,-14
3305,344,-1400,-1208,-48,-10,-12
3310,352,-1416,-1208,-48,-6,-13
3315,400,-1416,-1192,-46,0,-15
3320,384,-1392,-1176,-44,5,-15
3325,400,-1400,-1184,-43,11,-18
3330,384,-1384,-1184,-41,15,-20
3335,392,-1400,-1192,-40,20,-23
3340,384,-1376,-1192,-41,25,-24
3345,368,-1368,-1200,-44,32,-29
3350,384,-1384,-1184,-48,36,-34
3355,384,-1384,-1192,-54,42,-40
3360,368,-1384,-1248,-60,46,-44
3365,360,-1408,-1224,-66,49,-46
3370,368,-1440,-1248,-73,51,-48
3375,360,-1448,-1224,-79,53,-52
3380,368,-1440,-1216,-82,53,-52
3385,344,-1448,-1264,-83,48,-53
3390,344,-1448,-1248,-82,42,-52
3395,344,-1400,-1256,-80,36,-51
3400,344,-1456,-1248,-76,32,-48
3405,336,-1472,-1264,-74,27,-49
3410,344,-1424,-1256,-71,24,-47
3415,344,-1432,-1256,-67,21,-47
3420,336,-1424,-1288,-65,17,-47
3425,336,-1456,-1264,-64,14,-48
3430,352,-1448,-1280,-63,12,-47
3435,328,-1464,-1272,-61,10,-48
3440,328,-1472,-1280,-56,4,-50
3445,320,-1424,-1304,-53,-2,-50
3450,344,-1472,-1208,-53,-7,-52
3455,344,-1456,-1272,-51,-11,-50
3460,352,-1536,-1320,-49,-15,-51
3465,408,-1472,-1448,-47,-19,-52
3470,344,-1464,-1296,-46,-24,-52
3475,304,-1520,-1296,-47,-29,-53
3480,352,-1496,-1216,-47,-33,-57
3485,440,-1536,-1336,-49,-36,-62
3490,416,-1432,-1200,-49,-37,-63
3495,472,-1408,-1296,-51,-34,-67
3500,416,-1488,-1352,-55,-32,-70
3505,392,-1480,-1304,-60,-33,-74
3510,408,-1488,-1328,-61,-31,-76
3515,432,-1504,-1336,-61,-32,-78
3520,408,-1504,-1312,-61,-30,-82
3525,416,-1496,-1352,-57,-30,-85
3530,376,-1528,-1320,-47,-28,-89
3535,432,-1544,-1296,-37,-32,-87
3540,408,-1496,-1248,-27,-33,-87
3545,472,-1560,-1328,-17,-41,-88
3550,488,-1616,-1296,-6,-47,-87
3555,360,-1544,-1336,8,-53,-86
3560,328,-1592,-1280,24,-57,-85
3565,472,-1440,-1320,35,-62,-83
3570,352,-1584,-1216,44,-70,-81
3575,384,-1512,-1312,49,-76,-78
3580,384,-1496,-1312,50,-81,-75
3585,424,-1504,-1320,48,-86,-72
3590,400,-1488,-1304,46,-90,-69
3595,360,-1472,-1328,42,-92,-67
3600,472,-1432,-1336,35,-94,-67
3605,400,-1504,-1280,29,-91,-68
3610,456,-1432,-1384,22,-90,-70
3615,392,-1456,-1232,14,-91,-74
3620,432,-1520,-1208,9,-92,-79
3625,408,-1480,-1264,12,-86,-83
3630,400,-1480,-1408,7,-92,-85
3635,368,-1472,-1272,6,-96,-87
3640,384,-1488,-1296,8,-99,-88
3645,472,-1560,-1256,15,-102,-90
3650,416,-1464,-1288,22,-103,-90
3655,448,-1488,-1280,29,-100,-89
3660,424,-1512,-1280,35,-98,-89
3665,416,-1504,-1288,41,-95,-87
3670,432,-1472,-1272,46,-95,-87
3675,472,-1488,-1432,50,-96,-88
3680,448,-1528,-1232,60,-95,-86
3685,464,-1496,-1352,70,-92,-86
3690,384,-1544,-1144,78,-87,-84
3695,384,-1440,-1312,86,-85,-83
3700,560,-1568,-1296,86,-90,-83
3705,312,-1336,-1328,78,-104,-81
3710,504,-1536,-1376,72,-111,-82
3715,456,-1456,-1232,67,-118,-82
3720,448,-1600,-1256,69,-125,-83
3725,424,-1472,-1296,72,-127,-84
3730,440,-1480,-1240,75,-133,-84
3735,440,-1480,-1216,78,-138,-83
3740,456,-1456,-1208,87,-138,-86
3745,448,-1528,-1104,93,-138,-89
3750,496,-1528,-1200,99,-146,-92
3755,440,-1520,-1240,106,-157,-92
3760,472,-1448,-1120,116,-163,-96
3765,400,-1472,-1168,125,-159,-97
3770,496,-1496,-1192,130,-159,-95
3775,456,-1480,-1120,137,-161,-92
3780,448,-1472,-1112,142,-162,-92
3785,528,-1472,-1184,152,-154,-91
3790,488,-1472,-1232,152,-140,-79
3795,472,-1480,-1224,142,-144,-71
3800,432,-1472,-1128,154,-160,-76
3805,480,-1464,-1184,168,-173,-77
3810,512,-1472,-1184,185,-177,-76
3815,512,-1480,-1192,198,-178,-75
3820,496,-1472,-1160,208,-183,-75
3825,480,-1456,-1128,211,-192,-73
3830,480,-1472,-1184,211,-200,-73
3835,512,-1472,-1128,206,-207,-75
3840,464,-1456,-1192,205,-213,-78
3845,456,-1496,-1216,205,-214,-82
3850,424,-1432,-1168,196,-214,-81
3855,416,-1496,-1240,196,-206,-89
3860,360,-1424,-1336,199,-207,-102
3865,440,-1440,-1288,192,-228,-105
3870,368,-1448,-1192,177,-252,-104
3875,512,-1384,-1240,171,-269,-102
3880,416,-1424,-1232,172,-279,-101
3885,464,-1424,-1200,167,-297,-96
3890,464,-1464,-1208,169,-312,-87
3895,456,-1440,-1184,174,-325,-81
3900,432,-1488,-1144,182,-335,-74
3905,440,-1464,-1152,192,-344,-65
3910,616,-1416,-1168,201,-359,-59
3915,488,-1456,-1088,213,-365,-54
3920,496,-1432,-1160,223,-377,-53
3925,480,-1344,-1080,229,-386,-54
3930,488,-1400,-1176,235,-396,-57
3935,496,-1400,-1192,238,-403,-62
3940,504,-1408,-1192,240,-410,-65
3945,512,-1376,-1184,243,-416,-67
3950,496,-1304,-1152,247,-421,-69
3955,512,-1352,-1176,245,-429,-70
3960,488,-1368,-1184,248,-436,-69
3965,488,-1344,-1176,252,-442,-68
3970,496,-1376,-1160,257,-448,-60
3975,576,-1352,-1160,261,-458,-51
3980,488,-1352,-1160,260,-462,-38
3985,488,-1376,-1128,255,-471,-30
3990,504,-1360,-1128,266,-488,-40
3995,528,-1392,-1144,287,-491,-47
4000,512,-1352,-1152,303,-499,-51
4005,520,-1368,-1168,319,-499,-50
4010,512,-1368,-1152,338,-499,-50
4015,520,-1368,-1144,355,-497,-49
4020,520,-1384,-1144,375,-488,-42
4025,528,-1352,-1168,389,-480,-40
4030,520,-1360,-1176,394,-481,-44
4035,504,-1344,-1160,399,-483,-49
4040,520,-1368,-1168,408,-478,-46
4045,512,-1376,-1144,414,-481,-48
4050,488,-1344,-1184,415,-491,-50
4055,496,-1368,-1160,410,-497,-49
4060,520,-1392,-1168,406,-495,-40
4065,520,-1376,-1184,409,-492,-26
4070,560,-1384,-1168,414,-487,-5
4075,584,-1376,-1144,419,-483,22
4080,616,-1384,-1128,431,-466,59
4085,592,-1368,-1128,445,-453,93
4090,592,-1352,-1128,456,-444,120
4095,640,-1344,-1128,457,-447,139
4100,648,-1328,-1120,455,-454,163
4105,632,-1304,-1112,456,-453,185
4110,672,-1328,-1072,464,-446,209
4115,648,-1328,-1088,473,-440,236
4120,696,-1320,-1112,471,-444,264
4125,688,-1352,-1096,462,-453,288
4130,752,-1384,-1104,466,-457,316
4135,720,-1440,-1120,484,-453,335
4140,664,-1440,-1120,513,-443,347
4145,672,-1464,-1128,547,-438,359
4150,656,-1448,-1128,582,-439,359
4155,600,-1448,-1136,618,-434,352
4160,520,-1408,-1160,647,-430,345
4165,464,-1400,-1104,659,-432,336
4170,408,-1360,-1088,660,-432,329
4175,368,-1336,-1032,647,-437,326
4180,280,-1336,-952,630,-437,325
4185,264,-1272,-944,617,-455,332
4190,192,-1216,-880,603,-490,338
4195,208,-1232,-816,595,-535,351
4200,192,-1176,-784,597,-590,365
4205,192,-1168,-736,604,-645,380
4210,208,-1168,-704,621,-699,402
4215,240,-1160,-712,640,-748,421
4220,256,-1168,-680,658,-791,438
4225,304,-1160,-704,668,-822,457
4230,280,-1136,-704,673,-840,465
4235,288,-1160,-688,672,-850,467
4240,240,-1088,-704,668,-854,461
4245,280,-1080,-704,655,-859,450
4250,272,-1056,-696,637,-868,431
4255,256,-1016,-720,614,-878,407
4260,224,-984,-712,586,-888,394
4265,232,-992,-744,550,-895,384
4270,240,-1016,-704,515,-899,372
4275,216,-1040,-688,492,-895,370
4280,200,-1096,-680,486,-885,368
4285,176,-1120,-664,497,-878,375
4290,168,-1184,-648,533,-879,388
4295,176,-1184,-592,593,-886,412
4300,120,-1192,-552,665,-894,435
4305,88,-1176,-576,730,-897,467
4310,112,-1184,-528,785,-901,506
4315,96,-1144,-520,838,-906,546
4320,104,-1112,-512,879,-913,593
4325,64,-1104,-528,905,-925,647
4330,64,-1088,-440,930,-938,710
4335,64,-1072,-448,954,-953,771
4340,56,-1080,-432,975,-970,832
4345,8,-1064,-488,992,-973,895
4350,-8,-1064,-456,993,-957,964
4355,-16,-1056,-376,995,-933,1036
4360,-48,-1080,-360,1011,-918,1100
4365,-88,-1080,-360,1050,-911,1167
4370,-136,-1096,-376,1095,-921,1233
4375,-208,-1144,-392,1145,-945,1293
4380,-240,-1144,-440,1201,-991,1347
4385,-280,-1136,-416,1264,-1049,1392
4390,-296,-1160,-352,1327,-1101,1441
4395,-336,-1184,-376,1383,-1135,1497
4400,-368,-1176,-256,1417,-1163,1547
4405,-408,-1128,-264,1460,-1190,1582
4410,-496,-1112,-232,1517,-1232,1609
4415,-536,-1128,-200,1595,-1280,1634
4420,-592,-1128,-144,1691,-1344,1663
4425,-720,-1184,-80,1791,-1414,1694
4430,-752,-1240,-80,1875,-1486,1742
4435,-952,-1336,-88,1937,-1561,1798
4440,-1120,-1456,-8,1999,-1624,1861
4445,-1368,-1608,48,2058,-1683,1933
4450,-1632,-1792,40,2091,-1743,2018
4455,-1896,-1992,40,2092,-1815,2114
4460,-2112,-2280,-56,2076,-1899,2199
4465,-2376,-2584,-168,2049,-1981,2275
4470,-2832,-2944,-232,2039,-2060,2340
4475,-3512,-3568,-392,2068,-2148,2422
4480,-4224,-4296,-416,2121,-2257,2511
4485,-5056,-5168,-408,2224,-2383,2611
4490,-6584,-6488,-456,2382,-2576,2740
4495,-8224,-8312,-576,2543,-2863,2994
4500,-10552,-10016,-2112,2623,-3087,3410
4505,-12304,-10672,-4736,2133,-2832,4173
4510,-13496,-9720,-6392,688,-1985,5287
4515,-13248,-8112,-3888,-1005,-841,6226
4520,-7800,-6536,-848,-1418,295,6113
4525,-4136,-5432,216,-388,499,5019
4530,-1736,-4440,552,1227,-80,3790
4535,72,-3304,704,2864,-1011,2722
4540,1640,-2496,576,3984,-1799,1971
4545,2632,-976,384,4264,-2022,1696
4550,3608,144,832,3830,-1691,1926
4555,4368,904,1256,3165,-1009,2517
4560,5232,920,1424,2474,-256,3188
4565,5288,1072,1032,1857,416,3662
4570,4512,1184,536,1233,955,4002
4575,3792,1136,240,600,1372,4205
4580,2832,1064,80,79,1763,4268
4585,1712,856,8,-272,2068,4232
4590,688,608,24,-471,2132,4066
4595,-376,208,88,-471,1828,3814
4600,-1072,-392,192,-247,1277,3522
4605,-1800,-888,328,172,802,3243
4610,-2432,-1384,512,694,488,3003
4615,-3008,-1640,600,1206,269,2854
4620,-3120,-1912,656,1564,138,2857
4625,-3488,-1808,1112,1710,139,2967
4630,-3280,-1848,1304,1835,188,3212
4635,-3184,-1904,1352,1918,303,3410
4640,-3072,-1936,1464,1919,423,3558
4645,-2880,-1952,1512,1900,468,3674
4650,-2536,-1864,1408,1909,416,3768
4655,-1936,-1704,1288,1949,262,3801
4660,-1584,-1456,1088,2004,58,3766
4665,-1104,-1192,960,2055,-152,3724
4670,-640,-1032,704,2123,-319,3729
4675,-136,-912,360,2214,-440,3735
4680,144,-512,88,2316,-516,3723
4685,368,-160,256,2341,-503,3712
4690,352,248,360,2346,-472,3672
4695,328,504,360,2336,-482,3633
4700,304,464,440,2295,-489,3565
4705,-48,664,504,2234,-466,3447
4710,-408,952,752,2079,-439,3344
4715,-880,1184,880,1911,-386,3269
4720,-1488,1384,968,1752,-350,3186
4725,-2128,1728,1240,1620,-316,3136
4730,-2592,1984,1408,1527,-322,3166
4735,-2976,2432,1552,1435,-393,3223
4740,-3392,3032,1768,1330,-468,3314
4745,-3912,3672,1952,1240,-491,3455
4750,-4544,4216,1920,1163,-445,3628
4755,-5072,4744,1440,1064,-313,3777
4760,-5552,4800,512,923,-35,3738
4765,-6160,4216,-776,776,519,3240
4770,-7632,2800,-2584,784,1284,2258
4775,-7920,2016,-3872,936,1812,1172
4780,-7376,1216,-4000,1067,1858,368
4785,-4344,1016,-3560,1486,1288,117
4790,-2056,1096,-2952,2164,1030,45
4795,-768,1432,-1976,2576,1234,-82
4800,-184,1736,-888,2559,1253,-221
4805,-568,1936,48,2239,956,-405
4810,-1008,2176,848,1740,435,-657
4815,-1200,2160,1608,1042,-135,-935
4820,-1688,2320,1880,288,-580,-1165
4825,-1520,1984,2032,-416,-875,-1246
4830,-1336,1536,1856,-985,-1000,-1323
4835,-1008,1080,1512,-1332,-1032,-1338
4840,-832,856,1008,-1437,-942,-1346
4845,-808,600,544,-1390,-767,-1291
4850,-704,456,184,-1238,-597,-1217
4855,-648,288,-56,-1011,-384,-1130
4860,-968,360,-240,-793,-145,-982
4865,-960,240,-256,-658,72,-743
4870,-1008,176,-168,-581,195,-531
4875,-1080,112,-96,-532,273,-340
4880,-1144,56,112,-471,281,-182
4885,-1144,32,232,-365,243,-51
4890,-1200,80,352,-216,166,33
4895,-1288,152,400,-15,81,114
4900,-1240,368,448,188,-12,150
4905,-1184,656,536,358,-88,133
4910,-1192,920,544,485,-139,101
4915,-1264,1296,752,547,-168,85
4920,-1320,1504,864,551,-191,89
4925,-1416,1576,872,538,-234,103
4930,-1528,1504,856,465,-298,92
4935,-1520,1480,784,330,-357,56
4940,-1520,1464,744,127,-384,1
4945,-1616,1368,688,-96,-362,-54
4950,-1768,1184,616,-276,-321,-97
4955,-1896,1056,552,-401,-281,-135
4960,-1984,896,456,-476,-252,-166
4965,-2080,704,376,-507,-220,-202
4970,-2248,552,360,-521,-194,-234
4975,-2432,400,352,-514,-180,-250
4980,-2536,184,312,-489,-161,-249
4985,-2600,72,336,-451,-129,-227
4990,-2616,0,336,-399,-82,-202
4995,-2608,-48,368,-331,-17,-184
5000,-2568,-32,392,-251,45,-179
5005,-2536,24,440,-158,99,-185
5010,-2464,88,472,-52,142,-194
5015,-2392,192,504,58,173,-197
5020,-2272,256,560,172,183,-204
5025,-2184,328,536,289,184,-215
5030,-2112,432,584,407,172,-232
5035,-2096,456,584,519,163,-248
5040,-2048,488,576,656,142,-260
5045,-2000,584,464,815,108,-281
5050,-1936,632,496,938,80,-309
5055,-1960,696,424,1023,45,-339
5060,-1832,728,264,1048,41,-340
5065,-1800,688,304,999,97,-329
5070,-1832,648,256,940,165,-330
5075,-1848,640,200,871,233,-336
5080,-1856,576,232,772,323,-331
5085,-1920,568,216,664,403,-329
5090,-1920,520,256,556,471,-332
5095,-1960,464,328,450,541,-332
5100,-1944,392,424,367,605,-333
5105,-2000,296,440,304,648,-347
5110,-1960,208,424,227,675,-386
5115,-1976,160,424,135,700,-427
5120,-1960,80,416,61,715,-438
5125,-1968,48,400,16,711,-430
5130,-2048,16,336,7,695,-405
5135,-2064,-48,352,28,668,-373
5140,-2048,-80,248,73,629,-348
5145,-2064,-56,216,136,587,-330
5150,-2056,-24,152,205,543,-313
5155,-2064,40,120,273,489,-307
5160,-2072,104,112,343,432,-297
5165,-2048,176,56,400,364,-290
5170,-2024,280,48,427,309,-290
5175,-2024,360,80,439,281,-292
5180,-1960,456,176,434,265,-297
5185,-2024,520,72,402,261,-303
5190,-1992,576,48,358,271,-306
5195,-1968,576,40,290,295,-310
5200,-1984,592,72,213,340,-317
5205,-1936,544,48,122,386,-322
5210,-2008,520,88,38,435,-324
5215,-2048,480,72,-32,466,-326
5220,-2080,424,56,-93,466,-327
5225,-2072,368,56,-158,458,-328
5230,-2128,296,80,-225,444,-322
5235,-2088,248,32,-284,408,-317
5240,-2152,144,64,-343,381,-305
5245,-2152,136,48,-384,347,-296
5250,-2152,72,24,-421,315,-278
5255,-2152,48,24,-450,283,-258
5260,-2144,32,-16,-468,249,-244
5265,-2160,16,16,-478,212,-231
5270,-2128,-40,32,-468,174,-218
5275,-2128,-48,-24,-450,145,-213
5280,-2168,-72,-32,-435,121,-217
5285,-2184,-16,24,-418,97,-221
5290,-2184,-96,-40,-392,64,-224
5295,-2168,-136,-56,-375,29,-229
5300,-2152,-144,-64,-366,-3,-232
5305,-2232,-144,-48,-355,-33,-233
5310,-2256,-120,-32,-340,-59,-222
5315,-2272,-152,-8,-308,-78,-202
5320,-2240,-160,-8,-265,-97,-179
5325,-2224,-168,8,-216,-112,-160
5330,-2216,-152,8,-168,-116,-145
5335,-2248,-152,40,-119,-112,-133
5340,-2224,-128,56,-81,-102,-126
5345,-2216,-104,48,-51,-89,-123
5350,-2216,-120,72,-24,-73,-118
5355,-2192,-88,80,3,-53,-113
5360,-2176,-48,104,36,-37,-105
5365,-2168,-8,96,74,-31,-101
5370,-2120,24,88,103,-31,-83
5375,-2128,80,88,119,-33,-67
5380,-2112,96,88,124,-42,-57
5385,-2080,112,72,118,-51,-47
5390,-2056,120,120,103,-59,-38
5395,-2048,144,112,78,-69,-29
5400,-2064,136,96,51,-80,-19
5405,-2064,136,112,24,-93,-3
5410,-2032,104,128,0,-109,12
5415,-2024,120,144,-11,-122,31
5420,-2016,104,184,-22,-124,48
5425,-2000,80,208,-30,-111,63
5430,-2016,80,232,-40,-97,71
5435,-2024,96,264,-50,-80,75
5440,-2016,88,304,-50,-62,83
5445,-2008,96,288,-47,-47,92
5450,-2032,96,328,-49,-34,97
5455,-2032,88,336,-48,-25,102
5460,-2032,88,344,-41,-20,104
5465,-2016,96,336,-31,-12,113
5470,-2008,72,344,-25,-4,124
5475,-2040,64,328,-20,1,131
5480,-2040,80,328,-17,4,140
5485,-2048,64,336,-11,7,146
5490,-2024,96,320,-2,9,150
5495,-2000,80,288,8,14,152
5500,-2016,80,280,19,20,153
5505,-1984,96,280,29,29,152
5510,-1992,104,264,38,41,148
5515,-1976,88,304,46,51,144
5520,-1984,128,304,52,64,138
5525,-1984,152,280,59,75,132
5530,-1968,112,280,67,86,124
5535,-1976,128,280,78,95,115
5540,-1976,120,304,91,104,105
5545,-2000,152,288,105,115,95
5550,-2000,152,304,115,120,90
5555,-1992,176,288,124,125,85
5560,-2016,176,272,133,130,81
5565,-2024,192,288,142,137,76
5570,-2040,216,240,147,145,71
5575,-2032,232,248,151,156,67
5580,-2040,248,256,150,164,59
5585,-2048,232,240,148,175,53
5590,-2064,280,224,142,182,49
5595,-2048,240,200,134,185,44
5600,-2040,248,168,127,185,41
5605,-2048,240,200,123,183,39
5610,-2048,224,208,117,175,37
5615,-2056,264,160,112,168,33
5620,-2048,272,144,104,158,30
5625,-2048,288,176,96,149,27
5630,-2032,272,144,87,140,24
5635,-2048,256,128,76,133,21
5640,-2056,256,144,63,129,19
5645,-2064,232,176,49,128,13
5650,-2064,248,152,36,129,7
5655,-2064,248,144,25,134,0
5660,-2096,240,232,13,139,-9
5665,-2072,224,184,3,146,-17
5670,-2072,232,152,-5,159,-27
5675,-2088,232,160,-10,172,-33
5680,-2088,200,168,-13,189,-38
5685,-2088,216,168,-13,206,-44
5690,-2088,168,152,-11,220,-44
5695,-2088,200,112,-10,231,-44
5700,-2088,160,120,-9,237,-41
5705,-2080,144,128,-7,241,-39
5710,-2104,168,112,-4,240,-35
5715,-2128,136,128,0,230,-32
5720,-2080,152,112,6,218,-30
5725,-2072,144,112,12,200,-25
5730,-2080,176,112,19,182,-24
5735,-2064,176,152,23,164,-22
5740,-2056,176,136,23,147,-23
5745,-2064,208,152,18,140,-24
5750,-2048,216,128,8,137,-26
5755,-2048,240,128,-5,134,-30
5760,-2048,184,128,-16,131,-33
5765,-2040,192,136,-28,131,-38
5770,-2048,208,144,-40,132,-42
5775,-2048,192,144,-48,132,-46
5780,-2048,168,152,-53,133,-48
5785,-2064,160,160,-56,131,-50
5790,-2056,152,144,-55,132,-51
5795,-2056,144,160,-53,132,-50
5800,-2056,152,168,-48,131,-47
5805,-2064,120,144,-45,128,-44
5810,-2056,112,152,-40,124,-39
5815,-2064,128,144,-38,119,-36
5820,-2072,128,160,-38,116,-30
5825,-2048,120,120,-37,115,-25
5830,-2088,128,160,-33,114,-21
5835,-2064,128,96,-32,113,-18
5840,-2064,112,120,-33,112,-14
5845,-2080,152,128,-34,113,-14
5850,-2064,144,104,-35,113,-13
5855,-2056,144,112,-38,114,-12
5860,-2056,144,120,-41,115,-11
5865,-2064,160,120,-46,116,-10
5870,-2048,168,136,-49,118,-8
5875,-2056,152,112,-53,118,-8
5880,-2072,160,128,-55,118,-6
5885,-2064,176,96,-53,117,-6
5890,-2080,168,136,-52,116,-6
5895,-2072,152,160,-49,113,-4
5900,-2056,136,120,-47,111,-3
5905,-2064,152,136,-47,106,0
5910,-2048,128,128,-43,100,1
5915,-2056,144,128,-37,95,2
5920,-2064,128,136,-32,87,4
5925,-2064,144,112,-27,81,6
5930,-2040,120,120,-23,75,8
5935,-2080,128,104,-19,67,11
5940,-2064,144,96,-17,60,11
5945,-2096,160,104,-18,50,12
5950,-2072,152,72,-18,40,12
5955,-2072,144,112,-20,32,11
5960,-2072,152,136,-17,26,11
5965,-2064,128,104,-12,22,10
5970,-2056,152,104,-5,22,11
5975,-2080,144,104,2,23,10
5980,-2064,144,136,11,23,10
5985,-2096,152,112,20,23,9
5990,-2064,144,96,30,19,7
5995,-2080,152,96,41,17,6
6000,-2088,144,104,49,10,7
6005,-2064,128,80,55,5,7
6010,-2088,152,112,59,-1,8
6015,-2064,168,120,59,-5,9
6020,-2064,168,120,55,-9,9
6025,-2048,168,104,51,-11,10
6030,-2056,144,136,48,-16,11
6035,-2064,208,184,45,-22,11
6040,-2040,208,184,41,-31,15
6045,-2048,192,224,38,-38,14
6050,-2016,216,216,35,-44,14
6055,-2040,216,216,32,-44,12
6060,-2032,224,192,30,-39,8
6065,-2040,240,160,25,-28,5
6070,-2056,216,192,18,-10,1
6075,-2048,216,184,8,15,-7
6080,-2040,200,184,-3,42,-16
6085,-2056,208,200,-13,68,-22
6090,-2056,176,152,-23,91,-27
6095,-2056,160,184,-31,113,-31
6100,-2056,160,168,-36,127,-34
6105,-2056,160,176,-40,134,-32
6110,-2080,168,136,-38,135,-28
6115,-2096,144,176,-35,131,-24
6120,-2064,152,160,-31,126,-20
6125,-2056,160,128,-29,120,-15
6130,-2040,128,112,-28,112,-12
6135,-2064,152,136,-28,108,-7
6140,-2056,144,112,-29,102,-6
6145,-2072,120,128,-27,95,-4
6150,-2064,152,152,-22,88,-3
6155,-2056,152,136,-18,82,-2
6160,-2048,160,120,-13,77,-3
6165,-2056,184,144,-8,73,-4
6170,-2056,168,152,-6,70,-6
6175,-2048,152,144,-4,67,-4
6180,-2064,168,144,-4,66,-5
6185,-2056,160,136,-6,67,-7
6190,-2056,152,168,-7,66,-7
6195,-2040,160,152,-10,66,-7
6200,-2056,160,160,-13,65,-7
6205,-2040,168,160,-17,67,-7
6210,-2056,160,152,-19,72,-5
6215,-2056,160,152,-20,77,-7
6220,-2064,176,128,-20,82,-7
6225,-2048,184,136,-24,86,-8
6230,-2064,160,136,-26,85,-9
6235,-2056,144,112,-28,85,-9
6240,-2072,160,136,-30,83,-8
6245,-2104,184,112,-28,84,-7
6250,-2064,136,168,-25,81,-8
6255,-2048,128,160,-23,81,-7
6260,-2080,120,152,-18,82,-5
6265,-2048,128,160,-11,80,-6
6270,-2056,160,152,-6,79,-5
6275,-2064,152,136,-1,77,-5
6280,-2048,160,120,5,74,-4
6285,-2056,168,144,10,71,-1
6290,-2064,168,160,12,68,0
6295,-2040,160,184,13,65,2
6300,-2064,192,120,9,61,2
6305,-2040,192,160,5,62,2
6310,-2056,192,120,2,62,1
6315,-2048,176,176,-2,62,0
6320,-2048,168,136,-6,62,-2
6325,-2048,152,152,-8,64,-3
6330,-2048,160,144,-10,68,-4
6335,-2040,144,160,-9,68,-6
6340,-2040,152,144,-6,68,-7
6345,-2040,144,168,-1,71,-7
6350,-2056,152,152,5,71,-6
6355,-2040,168,184,10,73,-4
6360,-2048,144,136,13,72,-1
6365,-2056,136,128,15,71,2
6370,-2072,184,152,14,68,3
6375,-2080,168,128,11,69,5
6380,-2064,168,136,6,67,6
6385,-2056,152,112,1,65,7
6390,-2056,168,144,-3,62,8
6395,-2056,144,112,-7,62,8
6400,-2064,152,160,-8,64,7
6405,-2072,168,160,-7,65,7
6410,-2056,168,136,-8,68,5
6415,-2048,192,152,-8,73,4
6420,-2064,176,128,-6,77,1
6425,-2048,168,128,-7,83,0
6430,-2056,176,136,-7,85,0
6435,-2048,160,152,-5,87,-2
6440,-2048,168,120,-5,88,-2
6445,-2048,136,152,-5,87,-1
6450,-2072,176,136,-4,87,0
6455,-2048,152,120,-7,87,2
6460,-2064,160,136,-8,83,3
6465,-2112,160,136,-9,82,4
6470,-2048,152,120,-9,78,4
6475,-2056,160,120,-10,74,6
6480,-2048,176,136,-9,71,7
6485,-2048,160,152,-10,68,7
6490,-2064,176,144,-8,66,7
6495,-2040,144,136,-7,63,8
6500,-2056,152,144,-5,61,6
6505,-2064,176,136,-5,60,5
6510,-2064,144,168,-4,56,5
6515,-2048,168,136,-1,52,5
6520,-2056,152,160,0,51,4
6525,-2064,168,136,0,51,3
6530,-2048,152,136,-1,52,3
6535,-2064,160,152,-4,54,3
6540,-2064,184,136,-7,55,3
6545,-2056,168,144,-7,59,1
6550,-2048,144,136,-7,59,1
6555,-2064,168,152,-8,62,-1
6560,-2072,176,152,-5,63,-2
6565,-2056,176,136,-4,67,-3
6570,-2056,160,144,-1,69,-5
6575,-2056,168,120,-2,72,-4
6580,-2064,184,120,-2,75,-6
6585,-2056,168,128,-4,76,-7
6590,-2040,160,120,-7,79,-7
6595,-2056,176,128,-10,83,-8
6600,-2072,168,152,-11,81,-7
6605,-2056,144,104,-11,80,-6
6610,-2064,136,160,-11,77,-7
6615,-2056,168,120,-10,73,-6
6620,-2048,168,136,-10,70,-6
6625,-2048,152,136,-10,68,-4
6630,-2048,136,160,-8,66,-3
6635,-2048,144,128,-8,65,-2
6640,-2048,128,144,-5,64,0
6645,-2064,152,120,-3,64,-1
6650,-2056,160,160,1,64,-1
6655,-2064,152,168,4,63,0
6660,-2056,136,152,8,63,1
6665,-2064,184,144,7,61,1
6670,-2024,168,176,7,60,2
6675,-2064,184,112,6,60,4
6680,-2048,176,160,3,59,5
6685,-2048,168,160,-1,62,5
6690,-2048,152,128,-2,63,4
6695,-2056,176,160,-3,64,2
6700,-2056,200,160,-7,63,0
6705,-2056,168,168,-7,64,0
6710,-2048,144,144,-9,65,0
6715,-2048,152,136,-8,69,-1
6720,-2048,160,136,-5,72,1
6725,-2040,160,152,-1,74,0
6730,-2064,160,144,3,79,2
6735,-2064,152,128,6,80,5
6740,-2048,168,104,10,83,4
6745,-2048,160,104,11,81,4
6750,-2064,192,136,8,79,7
6755,-2056,168,136,5,76,8
6760,-2056,176,96,0,72,9
6765,-2040,184,136,-3,64,11
6770,-2056,160,128,-8,58,13
6775,-2072,184,144,-10,53,14
6780,-2048,160,136,-12,53,13
6785,-2040,240,168,-13,54,12
6790,-2048,168,136,-14,55,8
6795,-2064,160,168,-14,57,6
6800,-2072,176,160,-13,56,6
6805,-2056,176,184,-10,56,4
6810,-2056,160,160,-9,56,5
6815,-2048,184,136,-8,54,4
6820,-2080,176,160,-6,55,5
6825,-2056,184,136,-3,55,7
6830,-2056,152,144,0,57,7
6835,-2056,176,96,2,58,7
6840,-2056,160,152,3,61,5
6845,-2064,168,144,4,61,6
6850,-2056,160,144,5,64,6
6855,-2056,184,136,6,64,7
6860,-2048,152,152,8,63,6
6865,-2056,192,168,9,61,8
6870,-2048,176,136,10,61,6
6875,-2064,176,152,11,60,7
6880,-2048,200,152,11,60,8
6885,-2056,176,128,11,59,4
6890,-2120,168,96,8,59,3
6895,-2056,184,136,4,59,3
6900,-2048,184,104,1,58,3
6905,-2072,184,152,-3,55,3
6910,-2064,176,120,-7,55,3
6915,-2040,168,136,-13,54,2
6920,-2064,168,120,-18,53,5
6925,-2072,176,136,-22,53,6
6930,-2056,192,96,-25,53,6
6935,-2056,160,136,-29,53,6
6940,-2064,120,136,-31,54,7
6945,-2056,176,160,-33,55,8
6950,-2056,176,160,-34,57,8
6955,-2072,160,144,-32,59,6
6960,-2064,168,136,-29,60,6
6965,-2056,168,176,-23,61,5
6970,-2080,160,160,-17,61,5
6975,-2064,176,152,-7,59,5
6980,-2048,160,176,4,55,5
6985,-2048,160,168,11,54,5
6990,-2048,160,128,19,51,6
6995,-2064,176,104,23,49,6
7000,-2064,144,152,23,48,7
7005,-2048,168,168,20,48,8
7010,-2064,208,152,17,47,8
7015,-2064,160,120,7,44,9
7020,-2048,184,144,1,40,11
7025,-2048,192,136,-6,38,11
7030,-2048,184,144,-12,37,12
7035,-2056,200,112,-16,36,11
7040,-2048,168,160,-19,36,11
7045,-2056,184,168,-21,36,10
7050,-2064,160,160,-19,37,7
7055,-2040,184,144,-18,38,4
7060,-2056,184,160,-14,40,3
7065,-2064,160,168,-9,42,1
7070,-2048,176,128,-5,43,-1
7075,-2064,152,144,-2,44,-2
7080,-2056,192,160,2,44,-2
7085,-2096,168,152,7,44,0
7090,-2056,176,128,11,37,3
7095,-2040,176,144,15,35,5
7100,-2040,168,152,17,36,4
7105,-2040,168,176,18,38,3
7110,-2040,160,144,21,33,-3
7115,-2032,168,168,20,28,-1
7120,-2056,168,168,19,29,2
7125,-2056,184,184,14,32,5
7130,-2056,184,168,8,33,5
7135,-2048,200,160,6,34,6
7140,-2048,184,184,3,37,6
7145,-2040,184,136,2,41,5
7150,-2048,168,200,2,43,3
7155,-2048,192,168,4,43,0
7160,-2056,176,136,6,46,-3
7165,-2048,176,144,8,49,-6
7170,-2064,184,168,10,50,-7
7175,-2048,160,152,12,49,-5
7180,-2080,192,144,13,50,-5
7185,-2064,168,144,14,46,-6
7190,-2056,184,176,18,35,-6
7195,-2048,152,152,18,35,0
7200,-2048,176,144,17,43,2
7205,-2048,208,176,12,48,1
7210,-2096,192,136,4,50,-1
7215,-2048,168,168,-1,51,0
7220,-2032,168,144,-5,49,1
7225,-2056,152,192,-10,46,2
7230,-2048,184,168,-12,41,5
7235,-2048,192,168,-11,36,5
7240,-2032,168,168,-9,32,5
7245,-2056,192,168,-5,34,6
7250,-2064,176,168,-4,36,5
7255,-2080,160,200,0,28,0
7260,-2008,248,144,9,21,-5
7265,-2048,192,192,13,24,-3
7270,-2032,160,176,12,32,-1
7275,-2064,176,184,9,41,-1
7280,-2040,168,176,4,47,1
7285,-2064,176,184,3,52,3
7290,-2064,192,160,1,54,3
7295,-2064,168,200,-1,56,4
7300,-2064,184,160,-4,54,1
7305,-2064,168,160,-6,54,1
7310,-2064,152,168,-5,52,1
7315,-2080,184,200,-2,50,2
7320,-2072,176,168,2,49,4
7325,-2048,160,160,7,51,4
7330,-2072,184,160,13,52,4
7335,-2048,176,184,17,55,3
7340,-2056,192,144,20,58,5
7345,-2080,184,176,20,59,6
7350,-2048,176,176,24,56,0
7355,-2032,168,184,26,59,-3
7360,-2072,200,184,30,61,-5
7365,-2048,176,152,32,61,-4
7370,-2040,168,168,26,59,0
7375,-2048,144,176,20,58,-1
7380,-2048,200,168,18,55,1
7385,-2056,168,160,17,51,4
7390,-2072,184,144,15,47,7
7395,-2048,184,168,10,43,9
7400,-2072,168,152,7,39,10
7405,-2064,184,144,3,33,12
7410,-2048,184,136,-3,24,9
7415,-2064,176,152,0,15,4
7420,-2048,192,184,4,7,5
7425,-2040,184,192,5,8,7
7430,-2040,184,200,1,16,10
7435,-2056,200,168,-1,30,9
7440,-2056,200,160,1,43,15
7445,-2048,176,208,1,54,10
7450,-2048,184,192,-4,60,3
7455,-2064,192,176,-7,64,-1
7460,-2048,192,192,-9,68,-3
7465,-2056,192,184,-11,69,-3
7470,-2064,192,200,-13,67,-3
7475,-2048,168,208,-12,62,-2
7480,-2048,176,184,-10,60,1
7485,-2064,184,184,-5,55,2
7490,-2048,192,168,-3,53,4
7495,-2048,160,192,0,51,3
7500,-2032,168,120,1,52,1
7505,-2056,208,208,1,52,-1
7510,-2048,224,216,0,52,-3
7515,-2048,192,208,-1,51,-3
7520,-2040,184,152,-3,51,-6
7525,-2056,184,216,-4,51,-7
7530,-2056,160,176,-8,54,-7
7535,-2040,192,208,-10,57,-5
7540,-2064,200,200,-11,61,-4
7545,-2064,168,168,-13,66,-3
7550,-2064,184,200,-12,69,-2
7555,-2056,168,176,-14,73,-3
7560,-2056,192,184,-14,71,-5
7565,-2064,200,152,-14,68,-6
7570,-2048,152,224,-13,66,-6
7575,-2072,200,176,-11,62,-5
7580,-2064,216,176,-11,58,-4
7585,-2064,184,200,-9,55,-3
7590,-2048,192,184,-9,55,-2
7595,-2056,184,184,-9,57,-1
7600,-2048,200,184,-12,60,-3
7605,-2048,152,184,-13,65,-4
7610,-2048,200,176,-14,69,-6
7615,-2064,176,184,-13,72,-8
7620,-2056,168,208,-14,71,-9
7625,-2056,160,208,-11,71,-10
7630,-2048,184,168,-9,68,-9
7635,-2056,184,208,-6,64,-8
7640,-1960,200,208,-5,62,-6
7645,-2056,200,176,-1,60,-3
7650,-2048,168,160,-2,59,-1
7655,-2056,200,152,-2,58,-1
7660,-2056,184,192,-5,58,0
7665,-2056,208,152,-9,58,-1
7670,-2048,176,144,-12,60,0
7675,-2048,176,176,-16,61,-2
7680,-2048,176,192,-21,60,-2
7685,-2056,216,152,-23,61,-1
7690,-2048,200,200,-24,64,-2
7695,-2056,184,192,-23,64,0
7700,-2064,200,216,-22,65,2
7705,-2048,184,192,-21,69,1
7710,-2048,192,208,-16,72,3
7715,-2048,176,200,-14,75,1
7720,-2048,176,144,-11,78,-2
7725,-2056,176,192,-9,79,-3
7730,-2072,176,192,-10,78,-3
7735,-2064,192,184,-10,76,-1
7740,-2056,160,184,-10,73,-1
7745,-2064,192,176,-9,72,-1
7750,-2048,184,168,-11,69,0
7755,-2056,192,160,-12,68,1
7760,-2048,208,184,-13,68,1
7765,-2040,192,184,-14,69,0
7770,-2032,176,176,-15,70,-1
7775,-2064,176,184,-15,69,-3
7780,-2056,200,176,-16,70,-4
7785,-2048,184,208,-17,68,-6
7790,-2072,200,160,-16,67,-6
7795,-2064,168,176,-16,67,-7
7800,-2056,184,152,-14,68,-8
7805,-2056,168,192,-13,70,-8
7810,-2064,176,176,-14,72,-8
7815,-2064,200,168,-16,75,-8
7820,-2048,192,192,-18,79,-9
7825,-2056,184,192,-19,82,-9
7830,-2040,184,200,-20,83,-9
7835,-2064,160,200,-19,84,-9
7840,-2072,168,216,-17,83,-8
7845,-2048,176,208,-12,82,-7
7850,-2056,168,192,-9,82,-6
7855,-2056,168,184,-7,81,-5
7860,-2048,192,168,-6,80,-5
7865,-2056,184,208,-5,77,-5
7870,-2048,192,160,-5,75,-7
7875,-2056,208,184,-5,72,-8
7880,-2048,168,200,-6,70,-6
7885,-2056,200,160,-8,66,-5
7890,-2048,152,216,-8,63,-5
7895,-2056,160,192,-10,61,-4
7900,-2056,176,176,-11,61,-3
7905,-2040,184,192,-10,60,-3
7910,-2072,168,176,-11,62,-5
7915,-2064,192,184,-10,65,-6
7920,-2056,176,208,-11,67,-8
7925,-2080,192,168,-11,68,-9
7930,-2048,176,232,-13,68,-9
7935,-2056,200,192,-15,67,-8
7940,-2048,168,192,-14,68,-6
7945,-2064,176,160,-15,67,-5
7950,-2048,176,200,-15,70,-4
7955,-2056,176,200,-15,72,-2
7960,-2048,128,240,-14,73,-3
7965,-2032,136,208,-15,72,-2
7970,-2056,176,200,-15,72,-2
7975,-2056,184,168,-15,70,-3
7980,-2056,184,176,-14,70,-4
7985,-2056,192,184,-11,70,-5
7990,-2056,192,208,-10,69,-5
7995,-2048,200,144,-9,72,-4
8000,-2040,192,184,-10,76,-4
8005,-2056,176,160,-12,78,-7
8010,-2056,168,184,-15,82,-8
8015,-2064,176,200,-17,85,-10
8020,-2064,168,200,-19,89,-13
8025,-2064,184,184,-18,92,-15
8030,-2056,160,216,-15,93,-15
8035,-2064,144,176,-13,93,-14
8040,-2072,168,184,-10,94,-13
8045,-2056,168,192,-5,94,-10
8050,-2056,176,208,-2,89,-8
8055,-2040,168,192,2,85,-3
8060,-2048,184,200,4,78,0
8065,-2056,240,136,6,68,2
8070,-2048,168,136,5,58,4
8075,-2072,192,184,3,51,4
8080,-2072,192,176,0,43,6
8085,-2056,208,192,-2,37,6
8090,-2048,192,176,-4,35,6
8095,-2056,200,160,-5,37,3
8100,-2064,216,176,-7,41,1
8105,-2032,176,192,-12,47,-5
8110,-2040,208,176,-16,52,-8
8115,-2064,224,176,-21,59,-12
8120,-2032,184,200,-24,63,-17
8125,-2048,192,192,-27,66,-19
8130,-2040,152,208,-28,66,-21
8135,-2056,176,200,-28,66,-21
8140,-2064,160,224,-24,67,-19
8145,-2056,176,184,-21,64,-18
8150,-2032,160,200,-18,63,-17
8155,-2064,168,168,-12,62,-14
8160,-2080,168,184,-9,61,-15
8165,-2048,168,168,-5,59,-14
8170,-2080,176,160,-4,56,-13
8175,-2056,152,144,-2,55,-12
8180,-2048,184,168,-2,56,-13
8185,-2056,176,160,-5,58,-11
8190,-2072,200,184,-8,58,-10
8195,-2064,192,160,-12,61,-11
8200,-2072,200,184,-15,63,-10
8205,-2048,200,184,-19,66,-11
8210,-2040,176,184,-21,69,-12
8215,-2064,184,208,-23,71,-12
8220,-2064,192,184,-24,74,-12
8225,-2064,168,216,-23,76,-11
8230,-2040,192,176,-22,76,-12
8235,-2048,168,192,-19,78,-9
8240,-2048,184,192,-17,81,-8
8245,-2032,168,160,-16,84,-8
8250,-2048,160,192,-14,84,-7
8255,-2048,176,208,-12,84,-4
8260,-2056,176,184,-13,85,-6
8265,-2040,168,200,-13,86,-8
8270,-2048,168,176,-14,86,-8
8275,-2048,168,160,-13,86,-9
8280,-2040,160,160,-13,86,-8
8285,-2048,168,192,-13,86,-9
8290,-2048,152,200,-13,85,-11
8295,-2056,168,176,-12,83,-10
8300,-2056,136,184,-10,83,-11
8305,-2048,168,176,-8,83,-8
8310,-2080,160,208,-6,80,-8
8315,-2056,176,184,-3,76,-6
8320,-2048,168,144,1,74,-3
8325,-2056,176,152,3,72,-3
8330,-2048,176,200,2,69,-1
8335,-2056,192,192,1,67,0
8340,-2032,176,168,-1,64,1
8345,-2064,184,168,-6,62,2
8350,-2072,176,192,-9,60,1
8355,-2056,184,168,-12,58,2
8360,-2056,184,128,-15,57,3
8365,-2056,184,168,-18,56,3
8370,-2056,192,184,-17,57,2
8375,-2040,192,192,-17,57,2
8380,-2072,192,208,-14,58,1
8385,-2120,192,120,-9,58,2
8390,-2056,192,192,-4,59,2
8395,-2040,176,208,0,57,2
8400,-2032,160,192,2,56,3
8405,-2040,160,152,4,54,3
8410,-2040,176,184,4,52,4
8415,-2048,152,176,3,49,5
8420,-2048,184,128,3,48,5
8425,-2040,184,160,2,46,5
8430,-2056,176,168,0,47,6
8435,-2080,176,160,-2,50,4
8440,-2056,176,160,-2,52,4
8445,-2056,168,168,-2,55,3
8450,-2048,176,168,0,59,1
8455,-2048,152,176,2,61,2
8460,-2056,184,168,5,63,1
8465,-2064,168,176,8,62,0
8470,-2064,200,176,12,64,1
8475,-2064,192,184,14,63,2
8480,-2048,176,176,16,62,3
8485,-2072,184,176,15,63,3
8490,-2072,232,184,14,67,3
8495,-2048,184,184,11,69,1
8500,-2056,192,176,6,69,1
8505,-2056,208,192,2,70,0
8510,-2056,216,192,-5,69,-1
8515,-2040,160,168,-11,69,0
8520,-2056,192,168,-17,68,0
8525,-2032,152,160,-21,67,-1
8530,-2056,200,176,-23,68,0
8535,-2064,176,208,-23,69,-1
8540,-2048,160,168,-24,68,-1
8545,-2064,184,176,-25,72,-1
8550,-2064,184,192,-24,71,0
8555,-2056,176,152,-24,71,-1
8560,-2056,184,192,-22,73,0
8565,-2040,184,168,-20,73,-1
8570,-2072,184,200,-20,72,-1
8575,-2040,192,208,-19,73,1
8580,-2048,184,192,-18,72,0
8585,-2040,160,200,-17,73,0
8590,-2064,184,216,-17,73,-2
8595,-2048,184,176,-16,75,-4
8600,-2032,208,176,-17,77,-4
8605,-2064,192,192,-18,79,-3
8610,-2056,184,176,-19,82,-3
8615,-2048,168,176,-20,84,-5
8620,-2032,192,168,-24,86,-4
8625,-2056,192,184,-27,87,-3
8630,-2056,168,216,-29,87,-3
8635,-2040,160,192,-30,87,-2
8640,-2056,136,176,-26,85,-1
8645,-2064,176,200,-22,81,-1
8650,-2056,152,192,-13,77,-1
8655,-2056,152,232,-3,73,1
8660,-2056,176,192,7,69,3
8665,-2064,160,184,18,67,3
8670,-2072,176,208,24,66,3
8675,-2056,192,184,27,66,3
8680,-2064,192,200,28,65,4
8685,-2048,168,192,28,65,4
8690,-2072,216,176,25,63,3
8695,-2040,200,184,19,63,2
8700,-2064,208,216,14,63,1
8705,-2048,208,136,6,65,0
8710,-2056,184,184,-1,71,1
8715,-2056,208,176,-7,77,-1
8720,-2040,184,136,-11,82,-2
8725,-2040,168,168,-17,86,-3
8730,-2048,184,160,-18,89,-4
8735,-2064,200,192,-12,92,-5
8740,-2056,184,168,-7,91,-4
8745,-2056,160,152,-3,88,-5
8750,-2064,176,168,0,83,-6
8755,-2080,160,184,1,79,-3
8760,-2088,200,152,-2,73,0
8765,-2064,200,136,-7,67,3
8770,-2056,176,168,-9,63,4
8775,-2048,168,144,-12,59,6
8780,-2048,176,200,-12,60,6
8785,-2056,176,192,-12,61,4
8790,-2056,184,200,-11,66,2
8795,-2048,192,192,-10,70,-1
8800,-2056,192,176,-9,74,-4
8805,-2040,216,192,-8,78,-5
8810,-2048,144,160,-9,82,-6
8815,-2048,184,168,-12,85,-6
8820,-2048,176,152,-15,87,-6
8825,-2056,200,200,-18,89,-6
8830,-2048,152,160,-21,88,-5
8835,-2056,168,160,-21,86,-3
8840,-2048,176,168,-22,82,-3
8845,-2064,168,184,-20,80,-3
8850,-2072,200,160,-19,79,-3
8855,-2056,168,184,-16,76,-2
8860,-2056,184,176,-10,75,-1
8865,-2056,192,184,-5,75,-2
8870,-2072,168,176,-1,76,-2
8875,-2064,192,152,1,76,-2
8880,-2056,208,152,1,79,-2
8885,-2048,160,168,0,79,-4
8890,-2048,160,160,-5,80,-4
8895,-2064,200,160,-9,78,-3
8900,-2072,200,192,-14,76,-3
8905,-2056,184,160,-16,76,-4
8910,-2056,200,176,-16,75,-4
8915,-2040,192,176,-15,73,-2
8920,-2040,200,136,-15,73,-3
8925,-2040,176,176,-14,72,-3
8930,-2048,160,160,-13,72,-3
8935,-2056,184,168,-11,71,-3
8940,-2064,192,176,-11,70,-5
8945,-2056,176,152,-10,69,-4
8950,-2048,168,176,-10,69,-4
8955,-2040,160,176,-9,67,-4
8960,-2048,168,192,-7,66,-3
8965,-2040,160,184,-5,65,-3
8970,-2048,168,160,-5,65,-2
8975,-2056,192,192,-2,64,-1
8980,-2064,184,184,1,63,0
8985,-2056,176,176,2,60,-1
8990,-2064,192,192,3,57,1
8995,-2032,168,184,0,54,4
9000,-2056,176,152,-2,52,5
9005,-2056,208,144,-6,49,6
9010,-2048,160,176,-8,46,8
9015,-2040,176,160,-11,44,8
9020,-2056,176,184,-14,42,7
9025,-2080,176,168,-18,43,6
9030,-2064,192,152,-19,45,4
9035,-2056,160,160,-20,48,2
9040,-2056,192,160,-19,52,-1
9045,-2064,168,152,-20,57,-3
9050,-2064,168,184,-19,62,-4
9055,-2040,184,144,-18,65,-4
9060,-2064,176,192,-18,68,-4
9065,-2056,160,168,-18,69,-4
9070,-2048,176,152,-17,69,-3
9075,-2056,160,168,-15,69,-2
9080,-2056,208,168,-16,66,0
9085,-2040,152,168,-14,63,2
9090,-2048,176,176,-12,59,3
9095,-2056,160,176,-8,58,5
9100,-2032,184,176,-7,56,5
9105,-2048,192,184,-2,57,5
9110,-2024,152,176,-1,56,5
9115,-2048,208,168,2,56,6
9120,-2056,216,192,3,58,6
9125,-2056,192,176,2,59,6
9130,-2040,192,168,1,63,5
9135,-2064,184,184,-1,64,2
9140,-2056,192,144,-6,65,3
9145,-2048,160,176,-7,65,2
9150,-2048,176,168,-10,65,2
9155,-2056,184,184,-12,67,1
9160,-2064,192,184,-14,66,-1
9165,-2048,184,168,-13,66,-1
9170,-2056,168,168,-13,63,0
9175,-2064,176,192,-10,63,0
9180,-2064,192,184,-9,63,2
9185,-2064,200,144,-6,64,1
9190,-2064,168,144,-4,62,0
9195,-2056,168,200,-3,62,0
9200,-2056,208,152,-2,60,2
9205,-2048,184,192,-3,60,3
9210,-2056,192,200,-3,58,1
9215,-2048,200,152,-4,57,3
9220,-2048,216,200,-6,57,2
9225,-2064,192,192,-9,57,1
9230,-2056,184,160,-14,56,2
9235,-2064,176,192,-15,55,0
9240,-2048,136,96,-17,54,-1
9245,-2048,184,184,-20,53,-1
9250,-2056,184,168,-20,53,-2
9255,-2048,176,192,-18,53,-3
9260,-2056,176,160,-16,53,-4
9265,-2056,192,200,-13,55,-3
9270,-2056,160,192,-9,58,-3
9275,-2040,208,184,-8,59,-4
9280,-2048,200,208,-7,61,-4
9285,-2064,200,208,-8,62,-5
9290,-2048,216,168,-9,64,-7
9295,-2032,176,200,-13,64,-7
9300,-2056,200,176,-17,61,-7
9305,-2048,192,168,-22,60,-4
9310,-2048,176,208,-26,59,-3
9315,-2040,168,184,-29,56,-3
9320,-2048,184,200,-28,56,-1
9325,-2048,160,192,-26,55,-1
9330,-2072,184,200,-20,53,-2
9335,-2064,184,176,-14,53,-2
9340,-2048,184,200,-5,52,-1
9345,-2056,176,184,2,54,-1
9350,-2056,192,168,6,55,-1
9355,-2040,176,168,8,55,-1
9360,-2048,192,184,6,55,-1
9365,-2056,192,168,4,54,2
9370,-2056,176,176,1,54,1
9375,-2048,192,192,-1,54,1
9380,-2048,184,200,-3,52,1
9385,-2056,184,200,-7,54,0
9390,-2040,200,176,-7,57,2
9395,-2040,176,176,-9,61,0
9400,-2048,176,216,-11,67,0
9405,-2056,176,192,-9,69,-1
9410,-2056,160,200,-7,71,-1
9415,-2056,168,176,-2,73,1
9420,-2032,192,184,3,71,3
9425,-2056,168,168,6,66,5
9430,-2048,160,152,8,62,8
9435,-2064,184,160,8,55,11
9440,-2048,184,136,6,46,13
9445,-2048,192,176,4,38,16
9450,-2048,184,184,1,30,18
9455,-2056,208,200,-1,26,19
9460,-2064,184,192,-3,25,16
9465,-2048,192,192,-4,25,16
9470,-2072,200,192,-5,28,14
9475,-2072,216,192,-6,33,9
9480,-2032,208,192,-8,40,5
9485,-2056,200,200,-9,46,3
9490,-2064,200,200,-12,52,1
9495,-2048,200,184,-15,56,0
9500,-2056,200,208,-17,58,-1
9505,-2064,200,208,-19,61,-2
9510,-2032,160,216,-19,62,-2
9515,-2048,168,200,-19,64,1
9520,-2056,176,208,-16,62,1
9525,-2048,176,200,-15,62,1
9530,-2056,176,200,-11,60,2
9535,-2056,192,192,-6,59,4
9540,-2056,192,168,-4,55,4
9545,-2048,216,192,-2,53,3
9550,-2064,192,192,-2,52,3
9555,-2064,176,200,-2,51,2
9560,-2048,184,184,-4,52,1
9565,-2056,216,160,-6,52,1
9570,-2056,176,208,-9,51,0
9575,-2056,216,168,-12,51,0
9580,-2048,200,184,-15,54,0
9585,-2056,200,216,-17,56,-1
9590,-2032,200,200,-17,54,-1
9595,-2032,184,200,-17,54,-1
9600,-2056,200,200,-16,54,-1
9605,-2040,200,216,-14,53,0
9610,-2056,184,176,-12,55,-1
9615,-2072,200,208,-10,56,-2
9620,-2048,184,184,-9,56,-1
9625,-2048,208,208,-10,57,-3
9630,-2064,192,176,-13,60,-3
9635,-2072,200,232,-18,62,-3
9640,-2048,200,184,-21,65,-5
9645,-2048,192,192,-23,67,-5
9650,-2048,208,208,-24,67,-5
9655,-2048,144,184,-23,67,-5
9660,-2040,176,248,-22,66,-5
9665,-2072,216,272,-19,65,-5
9670,-2048,160,192,-15,62,-5
9675,-2064,208,208,-11,62,-4
9680,-2056,176,200,-7,60,-3
9685,-2048,200,192,-4,58,-2
9690,-2056,184,192,-4,58,-1
9695,-2048,192,200,-6,55,0
9700,-2048,216,208,-6,54,1
9705,-2048,184,176,-11,52,2
9710,-2056,192,208,-17,51,2
9715,-2056,192,224,-21,49,1
9720,-2040,184,192,-26,50,0
9725,-2056,216,200,-30,50,-1
9730,-2056,184,192,-33,53,-1
9735,-2064,200,208,-34,56,-1
9740,-2048,184,192,-32,61,-3
9745,-2048,200,208,-29,63,-5
9750,-2056,224,192,-26,67,-5
9755,-2048,184,216,-22,69,-6
9760,-2072,176,240,-16,70,-5
9765,-2048,192,200,-13,71,-6
9770,-2056,264,216,-10,72,-5
9775,-2048,184,224,-10,72,-3
9780,-2056,192,200,-9,72,-1
9785,-2080,216,192,-9,70,1
9790,-2048,176,200,-11,70,1
9795,-2032,184,200,-11,69,1
9800,-2048,200,184,-11,67,2
9805,-2040,192,200,-11,67,2
9810,-2056,208,224,-11,67,2
9815,-2056,176,200,-10,68,2
9820,-2056,192,192,-9,68,1
9825,-2056,184,208,-7,68,-1
9830,-2056,176,208,-6,68,0
9835,-2048,192,160,-4,68,-1
9840,-2040,200,184,-2,68,-2
9845,-2048,192,208,-3,69,-1
9850,-2056,176,200,-3,69,-2
9855,-2048,184,192,-5,67,-1
9860,-2056,184,200,-7,67,-2
9865,-2056,208,192,-8,67,-2
9870,-2048,200,200,-11,65,-1
9875,-2056,200,208,-12,66,-1
9880,-2072,160,224,-14,65,-1
9885,-2048,176,184,-14,66,1
9890,-2056,176,216,-15,66,0
9895,-2048,176,192,-16,67,-1
9900,-2056,208,208,-16,68,0
9905,-2064,184,208,-14,70,0
9910,-2048,176,192,-12,69,0
9915,-2032,184,200,-10,70,-1
9920,-2048,184,176,-9,70,-1
9925,-2064,216,208,-8,70,-2
9930,-2048,184,200,-8,73,0
9935,-2048,200,208,-10,73,0
9940,-2048,208,200,-12,73,-1
9945,-2064,184,184,-13,74,-1
9950,-2040,192,168,-16,74,-1
9955,-2056,208,192,-17,75,-2
9960,-2048,192,200,-16,74,-1
9965,-2056,192,200,-16,72,-1
9970,-2048,208,200,-14,72,-1
9975,-2040,192,240,-12,71,-1
9980,-2072,184,248,-11,70,0
9985,-2064,192,200,-12,70,0
9990,-2056,176,216,-11,70,-1
9995,-2056,200,192,-14,71,0
10000,-2048,208,184,-15,72,0
10005,-2040,192,176,-16,73,1
10010,-2048,168,200,-17,73,1
10015,-2040,192,176,-18,74,0
10020,-2048,192,184,-18,75,0
10025,-2048,208,208,-20,74,1
10030,-2056,192,176,-19,74,2
10035,-2056,184,200,-18,75,1
10040,-2048,208,216,-19,75,-1
10045,-2048,176,208,-19,75,-2
10050,-2048,208,208,-18,76,-4
10055,-2056,200,208,-15,77,-5
10060,-2048,176,200,-14,77,-7
10065,-2048,200,176,-12,77,-7
10070,-2032,192,208,-12,78,-8
10075,-2048,200,208,-13,79,-7
10080,-2048,200,216,-13,79,-9
10085,-2048,184,160,-14,81,-10
10090,-2072,232,280,-16,82,-10
10095,-2056,200,184,-18,82,-9
10100,-2048,176,192,-19,82,-8
10105,-2040,192,208,-17,83,-8
10110,-2040,208,200,-17,85,-7
10115,-2048,184,176,-14,86,-7
10120,-2056,168,200,-13,85,-7
10125,-2056,192,216,-11,84,-6
10130,-2040,184,200,-6,81,-4
10135,-2072,240,224,-2,78,-2
10140,-2056,184,176,0,75,-2
10145,-2064,184,192,2,72,-2
10150,-2056,200,160,4,72,-1
10155,-2056,168,160,7,72,-2
10160,-2072,200,168,8,71,-2
10165,-2056,184,200,7,72,-2
10170,-2064,192,200,4,71,-3
10175,-2064,192,184,-1,70,-3
10180,-2056,192,176,-3,70,-4
10185,-2064,200,200,-7,71,-3
10190,-2040,184,208,-9,70,-5
10195,-2048,176,208,-9,72,-4
10200,-2064,192,208,-9,77,-4
10205,-2048,168,176,-9,80,-6
10210,-2056,208,160,-6,84,-3
10215,-2072,176,184,-2,88,-5
10220,-2040,160,192,3,88,-2
10225,-2056,200,208,6,83,1
10230,-2064,184,168,10,77,1
10235,-2040,184,184,13,68,3
10240,-2064,200,168,10,62,5
10245,-2048,176,192,5,52,9
10250,-2080,216,200,1,44,12
10255,-2056,200,176,-3,37,14
10260,-2048,192,184,-6,33,15
10265,-2056,216,200,-9,32,14
10270,-2056,208,208,-9,34,13
10275,-2048,208,224,-9,38,11
10280,-2032,192,200,-9,41,8
10285,-2048,216,192,-10,46,5
10290,-2048,216,208,-9,53,1
10295,-2040,208,232,-10,59,-2
10300,-2048,200,184,-12,64,-3
10305,-2048,184,184,-15,66,-4
10310,-2064,200,200,-18,70,-3
10315,-2056,192,208,-19,71,-3
10320,-2048,184,200,-19,71,-3
10325,-2040,176,184,-20,71,-4
10330,-2040,184,200,-18,68,-2
10335,-2048,176,192,-16,66,0
10340,-2064,208,192,-13,62,1
10345,-2056,176,200,-11,60,2
10350,-2048,192,184,-9,56,2
10355,-2056,200,192,-7,54,2
10360,-2048,232,200,-7,53,1
10365,-2056,176,208,-6,51,-1
10370,-2056,208,200,-6,50,-3
10375,-2048,184,192,-8,49,-3
10380,-2056,184,208,-9,53,-4
10385,-2056,216,224,-11,54,-5
10390,-2056,192,200,-11,53,-6
10395,-2048,192,184,-12,55,-6
10400,-2056,208,176,-13,56,-6
10405,-2048,184,192,-14,56,-4
10410,-2040,200,208,-14,56,-3
10415,-2040,184,200,-14,55,-2
10420,-2056,192,200,-13,55,0
10425,-2056,192,224,-11,55,0
10430,-2048,200,200,-10,54,0
10435,-2048,184,184,-8,54,-1
10440,-2056,200,208,-8,55,-2
10445,-2056,192,192,-8,56,-3
10450,-2040,184,208,-9,56,-5
10455,-2040,200,224,-10,57,-4
10460,-2072,224,168,-10,57,-4
10465,-2064,200,192,-11,58,-5
10470,-2056,176,176,-10,60,-5
10475,-2072,200,184,-10,62,-4
10480,-2040,200,208,-10,63,-3
10485,-2040,160,184,-8,64,-4
10490,-2032,176,224,-7,64,-3
10495,-2048,192,208,-6,63,-2
10500,-2048,200,200,-5,62,-1
10505,-2048,208,200,-2,61,-1
10510,-2048,216,248,-1,61,-1
10515,-2064,224,216,-1,61,1
10520,-2040,184,216,-2,62,-1
10525,-2040,216,200,-5,64,-2
10530,-2064,240,240,-9,65,-2
10535,-2064,200,208,-12,66,-5
10540,-2040,208,208,-15,70,-7
10545,-2048,208,192,-19,75,-8
10550,-2040,184,216,-21,78,-8
10555,-2048,192,200,-23,82,-10
10560,-2040,192,216,-22,85,-10
10565,-2048,192,168,-21,88,-10
10570,-2048,184,208,-17,88,-10
10575,-2048,184,224,-15,85,-8
10580,-2048,168,168,-13,86,-9
10585,-2048,200,208,-9,83,-7
10590,-2048,192,200,-7,81,-7
10595,-2056,224,160,-5,81,-5
10600,-2048,192,192,-4,79,-5
10605,-2064,224,184,-2,78,-3
10610,-2056,200,160,-3,77,-4
10615,-2048,224,200,-4,78,-4
10620,-2064,200,200,-6,77,-5
10625,-2072,208,176,-11,72,-3
10630,-2048,200,184,-11,63,-6
10635,-2048,176,192,1,61,-15
10640,-2016,192,176,10,62,-13
10645,-2072,200,200,9,74,-11
10650,-2056,200,192,1,82,-11
10655,-2056,208,200,-9,85,-8
10660,-2032,184,216,-14,84,-5
10665,-2056,184,216,-16,82,-4
10670,-2040,184,176,-16,83,-3
10675,-2048,184,208,-14,81,-4
10680,-2064,184,224,-11,78,-2
10685,-2048,168,168,-9,75,-2
10690,-2048,168,184,-6,75,-2
10695,-2064,200,200,-3,72,-2
10700,-2056,200,184,-2,71,-2
10705,-2064,208,192,-2,70,-1
10710,-2064,192,176,-5,65,-3
10715,-2048,168,160,-7,62,-1
10720,-2040,200,200,-8,60,-2
10725,-2064,184,184,-11,60,0
10730,-2048,200,176,-13,58,2
10735,-2056,184,184,-16,59,2
10740,-2048,176,184,-18,61,1
10745,-2040,200,192,-19,62,0
10750,-2048,192,176,-18,63,1
10755,-2056,176,192,-17,64,0
10760,-2064,200,200,-16,64,0
10765,-2056,208,200,-16,65,-1
10770,-2048,200,176,-16,66,-1
10775,-2064,208,192,-17,67,-2
10780,-2048,184,168,-16,70,-4
10785,-2048,200,192,-18,73,-4
10790,-2056,216,224,-18,75,-5
10795,-2048,176,200,-19,76,-5
10800,-2048,192,184,-20,79,-5
10805,-2056,184,208,-21,78,-4
10810,-2056,192,216,-22,78,-5
10815,-2040,200,200,-23,79,-5
10820,-2040,208,184,-25,80,-6
10825,-2048,192,208,-26,80,-6
10830,-2064,200,216,-25,78,-6
10835,-2056,200,208,-27,76,-6
10840,-2056,216,208,-28,78,-6
10845,-2040,184,184,-28,77,-7
10850,-2048,208,208,-26,77,-8
10855,-2048,176,184,-23,77,-10
10860,-2056,192,224,-22,78,-10
10865,-2056,208,216,-20,80,-11
10870,-2040,168,208,-17,83,-12
10875,-2056,208,224,-16,86,-12
10880,-2048,184,176,-16,89,-13
10885,-2048,200,216,-17,90,-14
10890,-2048,192,200,-20,90,-14
10895,-2064,184,192,-20,91,-13
10900,-2048,168,208,-22,92,-13
10905,-2048,176,192,-23,92,-13
10910,-2040,192,176,-25,91,-12
10915,-2056,192,216,-24,91,-13
10920,-2056,192,200,-23,91,-14
10925,-2040,176,184,-22,92,-15
10930,-2048,184,192,-21,92,-14
10935,-2056,184,224,-19,92,-15
10940,-2048,192,176,-17,96,-14
10945,-2040,208,224,-16,97,-15
10950,-2056,216,200,-17,98,-15
10955,-2056,184,192,-18,98,-16
10960,-2064,224,200,-22,97,-16
10965,-2048,184,224,-24,97,-13
10970,-2024,184,200,-26,95,-13
10975,-2056,184,192,-29,97,-13
10980,-2048,208,184,-28,96,-12
10985,-2032,168,176,-28,94,-11
10990,-2072,192,200,-26,95,-11
10995,-2024,184,144,-22,94,-11
11000,-2048,176,184,-18,95,-11
11005,-2056,184,168,-13,96,-12
11010,-2048,176,200,-10,96,-13
11015,-2048,168,160,-6,97,-13
11020,-2056,176,208,-3,98,-12
11025,-2056,192,200,-2,99,-13
11030,-2056,192,184,-3,98,-12
11035,-2056,168,200,-5,98,-12
11040,-2056,176,208,-6,98,-13
11045,-2048,192,200,-7,98,-10
11050,-2064,176,200,-11,99,-10
11055,-2056,176,224,-13,101,-9
11060,-2056,168,184,-14,102,-10
11065,-2048,176,192,-16,105,-10
11070,-2048,192,192,-16,106,-10
11075,-2040,160,168,-18,105,-9
11080,-2056,208,176,-16,104,-7
11085,-2056,184,184,-11,102,-7
11090,-2056,176,184,-8,97,-4
11095,-2072,192,160,-5,90,-3
11100,-2048,176,152,-5,84,-2
11105,-2048,192,160,-6,76,1
11110,-2064,184,160,-7,70,2
11115,-2048,192,184,-10,64,2
11120,-2056,192,160,-14,61,3
11125,-2048,200,208,-18,62,2
11130,-2056,224,208,-21,64,1
11135,-2056,200,200,-24,67,-1
11140,-2048,216,192,-28,72,-5
11145,-2048,200,168,-29,79,-9
11150,-2056,200,192,-32,85,-11
11155,-2056,200,200,-32,92,-14
11160,-2056,168,184,-33,97,-15
11165,-2048,184,200,-34,101,-17
11170,-2064,184,200,-33,103,-17
11175,-2048,200,152,-33,104,-17
11180,-2056,192,176,-33,103,-15
11185,-2056,176,184,-32,100,-13
11190,-2056,168,168,-30,98,-12
11195,-2056,168,176,-27,97,-12
11200,-2064,184,160,-25,94,-10
11205,-2064,192,168,-24,91,-10
11210,-2048,184,160,-22,88,-9
11215,-2040,176,192,-20,87,-10
11220,-2056,208,168,-18,84,-10
11225,-2048,200,168,-17,81,-10
11230,-2080,208,168,-17,80,-11
11235,-2048,160,176,-15,79,-12
11240,-2040,192,200,-16,79,-11
11245,-2064,184,192,-18,80,-12
11250,-2048,192,176,-19,82,-12
11255,-2048,168,176,-21,84,-12
11260,-2048,208,176,-23,85,-13
11265,-2008,176,216,-26,85,-14
11270,-2056,200,144,-30,85,-12
11275,-2056,160,168,-32,83,-12
11280,-2056,168,160,-34,81,-12
11285,-2064,192,184,-34,79,-11
11290,-2056,176,160,-32,80,-12
11295,-2040,184,144,-32,79,-11
11300,-2048,176,176,-31,82,-12
11305,-2080,152,168,-29,84,-14
11310,-2048,176,144,-27,85,-14
11315,-2064,160,168,-25,85,-14
11320,-2064,176,160,-20,86,-14
11325,-2056,176,160,-17,87,-13
11330,-2064,184,144,-16,88,-11
11335,-2056,160,176,-15,88,-11
11340,-2048,168,184,-13,87,-9
11345,-2056,176,168,-13,85,-8
11350,-2048,200,184,-13,81,-7
11355,-2048,184,192,-13,81,-4
11360,-2056,184,200,-16,82,-3
11365,-2048,208,168,-19,79,-3
11370,-2032,264,192,-23,78,-2
11375,-2048,176,192,-27,78,-4
11380,-2064,184,152,-32,79,-7
11385,-2064,184,136,-37,81,-6
11390,-2048,184,224,-40,85,-10
11395,-2048,168,192,-41,89,-10
11400,-2064,192,160,-43,92,-11
11405,-2040,208,168,-42,97,-13
11410,-2032,200,208,-41,99,-14
11415,-2040,184,168,-40,102,-15
11420,-2048,176,184,-38,104,-15
11425,-2032,160,176,-37,103,-15
11430,-2056,176,176,-35,104,-14
11435,-2048,184,168,-34,101,-12
11440,-2048,176,168,-33,99,-11
11445,-2048,176,152,-34,94,-9
11450,-2048,160,152,-34,91,-6
11455,-2056,168,144,-35,89,-5
11460,-2040,192,176,-34,88,-6
11465,-2048,184,152,-34,88,-5
11470,-2056,176,144,-34,87,-7
11475,-2048,176,144,-32,88,-8
11480,-2072,160,168,-32,90,-8
11485,-2048,168,144,-30,91,-8
11490,-2064,176,160,-30,92,-9
11495,-2056,160,152,-28,94,-10
11500,-2048,184,160,-27,95,-9
11505,-2056,168,128,-25,96,-10
11510,-2064,184,160,-26,95,-12
11515,-2064,200,152,-27,95,-11
11520,-2048,160,152,-28,95,-9
11525,-2056,160,168,-29,94,-10
11530,-2040,168,176,-30,94,-10
11535,-2072,184,176,-32,94,-9
11540,-2056,176,152,-33,94,-11
11545,-2032,176,152,-31,95,-8
11550,-2064,192,176,-30,95,-8
11555,-2064,176,152,-33,95,-10
11560,-2072,168,136,-37,94,-9
11565,-2048,168,152,-38,93,-10
11570,-2056,152,168,-41,91,-11
11575,-2096,192,160,-41,91,-10
11580,-2056,168,168,-40,91,-10
11585,-2064,200,152,-41,90,-10
11590,-2048,168,176,-38,89,-9
11595,-2080,200,144,-36,88,-9
11600,-2064,160,128,-34,87,-8
11605,-2056,160,168,-31,88,-7
11610,-2040,168,192,-32,87,-7
11615,-2056,184,136,-32,85,-9
11620,-2056,184,152,-33,84,-10
11625,-2056,184,160,-33,84,-10
11630,-2048,160,136,-34,83,-9
11635,-2064,168,152,-33,85,-10
11640,-2072,168,152,-32,87,-10
11645,-2056,176,152,-31,85,-8
11650,-2056,184,160,-30,84,-8
11655,-2056,184,144,-31,85,-7
11660,-2056,192,192,-32,84,-6
11665,-2056,176,168,-32,79,-4
11670,-2048,176,168,-32,76,-4
11675,-2056,192,144,-33,75,-2
11680,-2056,176,120,-32,74,-2
11685,-2040,160,152,-31,73,-2
11690,-2040,144,128,-29,73,-3
11695,-2056,192,136,-24,72,-3
11700,-2048,168,136,-21,73,-5
11705,-2088,208,144,-18,74,-6
11710,-2056,168,144,-16,73,-8
11715,-2056,160,144,-17,74,-8
11720,-2064,176,136,-18,73,-7
11725,-2048,176,152,-19,76,-6
11730,-2056,192,152,-18,76,-6
11735,-2048,176,120,-18,76,-5
11740,-2072,184,136,-18,78,-7
11745,-2048,176,144,-16,81,-7
11750,-2072,168,168,-13,82,-7
11755,-2056,184,136,-10,82,-7
11760,-2048,168,128,-11,83,-8
11765,-2056,168,160,-9,83,-8
11770,-2064,176,144,-8,82,-8
11775,-2048,136,136,-3,82,-7
11780,-2040,160,136,2,79,-6
11785,-2048,136,160,10,76,-6
11790,-2064,168,136,15,74,-7
11795,-2072,184,160,17,69,-5
11800,-2040,208,112,19,66,-2
11805,-2056,176,144,19,61,1
11810,-2064,176,120,19,56,2
11815,-2040,168,152,17,50,4
11820,-2064,184,144,15,45,5
11825,-2056,176,176,12,42,6
11830,-2056,168,144,7,39,7
11835,-2056,176,152,5,39,7
11840,-2056,160,168,3,41,7
11845,-2040,144,168,2,47,5
11850,-2064,200,168,3,52,4
11855,-2064,176,160,4,57,5
11860,-2056,160,152,5,61,5
11865,-2048,176,160,8,64,6
11870,-2088,184,152,11,64,7
11875,-2056,168,128,12,63,6
11880,-2064,176,136,9,60,8
11885,-2048,168,144,7,56,10
11890,-2040,184,160,4,52,13
11895,-2064,208,112,2,47,13
11900,-2048,168,144,0,41,15
11905,-2064,192,136,-2,36,15
11910,-2064,192,136,-2,33,14
11915,-2056,200,152,-1,32,15
11920,-2056,192,160,1,32,14
11925,-2048,192,144,3,34,13
11930,-2048,176,136,7,36,12
11935,-2056,184,144,10,36,10
11940,-2048,192,176,12,37,9
11945,-2072,176,144,12,38,7
11950,-2048,184,200,14,40,7
11955,-2048,160,168,15,39,6
11960,-2048,168,152,15,39,8
11965,-2056,184,184,14,39,8
11970,-2048,176,144,14,37,9
11975,-2048,176,160,15,37,9
11980,-2056,168,152,15,36,9
11985,-2080,176,176,16,35,8
11990,-2040,176,120,18,36,8
11995,-2064,192,192,17,37,8
12000,-2048,176,144,16,37,6
12005,-2000,184,184,15,38,6
12010,-2056,184,168,11,42,6
12015,-2048,184,160,7,42,5
12020,-2056,216,168,5,44,3
12025,-2048,184,168,3,42,3
12030,-2056,168,152,4,42,3
12035,-2048,192,176,6,41,2
12040,-2056,192,144,8,39,2
12045,-2056,192,208,9,39,3
12050,-2048,192,184,11,36,4
12055,-2040,184,176,10,38,3
12060,-2040,208,168,9,35,3
12065,-2056,200,184,6,34,1
12070,-2048,192,184,4,31,0
12075,-2056,184,168,2,30,0
12080,-2064,192,176,-2,29,1
12085,-2072,216,152,-4,29,0
12090,-2048,176,152,-6,30,0
12095,-2048,168,160,-6,33,1
12100,-2064,168,168,-6,35,1
12105,-2064,168,168,-3,36,1
12110,-2056,152,152,1,35,2
12115,-2056,168,152,8,38,2
12120,-2096,200,184,15,39,5
12125,-2056,184,160,18,35,5
12130,-2064,184,192,22,34,7
12135,-2056,184,192,26,30,9
12140,-2056,184,176,27,26,12
12145,-2064,192,168,26,21,13
12150,-2040,184,184,27,17,15
12155,-2040,192,176,23,14,16
12160,-2048,192,200,20,15,17
12165,-2032,184,144,17,15,16
12170,-2048,208,160,15,17,15
12175,-2056,216,176,13,18,14
12180,-2056,216,200,9,23,12
12185,-2064,216,168,6,27,11
12190,-2048,184,176,3,30,9
12195,-2064,176,200,1,34,7
12200,-2064,200,184,-1,34,7
12205,-2040,184,160,-2,35,7
12210,-2056,200,208,-4,37,9
12215,-2048,200,176,-5,38,9
12220,-2064,192,192,-4,37,8
12225,-2048,160,144,-3,35,7
12230,-2056,176,184,-1,33,8
12235,-2048,192,200,3,33,6
12240,-2048,184,184,4,33,7
12245,-2048,192,200,5,32,8
12250,-2056,184,192,4,31,8
12255,-2048,184,224,5,30,8
12260,-2056,200,208,4,31,8
12265,-2056,200,192,2,31,9
12270,-2064,184,200,0,31,8
12275,-2064,184,192,1,33,6
12280,-2048,176,176,5,34,7
12285,-2056,192,192,7,35,6
12290,-2064,192,184,9,37,7
12295,-2040,208,192,11,39,6
12300,-2048,208,200,13,39,7
12305,-2056,192,216,14,37,7
12310,-2064,184,216,13,38,7
12315,-2064,232,168,14,36,6
12320,-2048,200,176,15,36,6
12325,-2040,208,184,15,36,6
12330,-1976,160,240,13,34,3
12335,-2048,232,168,10,34,4
12340,-2056,224,224,8,31,3
12345,-2056,200,192,5,29,3
12350,-2048,192,208,1,29,4
12355,-2056,176,200,-2,29,2
12360,-2056,224,160,-6,30,3
12365,-2056,200,200,-8,29,2
12370,-2056,200,184,-10,32,1
12375,-2048,176,176,-12,33,1
12380,-2048,184,208,-12,34,0
12385,-2064,184,168,-12,37,-1
12390,-2056,192,192,-9,39,0
12395,-2048,168,200,-6,38,0
12400,-2072,200,192,-6,37,-2
12405,-2056,192,176,-5,37,0
12410,-2056,192,200,-2,37,1
12415,-2056,184,200,-1,37,1
12420,-2056,184,208,0,37,3
12425,-2064,184,200,0,35,3
12430,-2048,176,184,0,34,3
12435,-2080,184,224,0,34,2
12440,-2056,184,200,1,36,3
12445,-2048,192,200,1,37,2
12450,-2048,176,232,3,36,2
12455,-2056,152,224,4,37,1
12460,-2048,200,192,5,40,1
12465,-2048,208,216,4,43,3
12470,-2040,184,224,4,46,2
12475,-2040,208,224,2,48,2
12480,-2048,176,232,2,49,2
12485,-2056,200,184,1,48,1
12490,-2048,216,232,-1,49,2
12495,-2040,200,240,-3,49,0
12500,-2048,184,216,-6,50,2
12505,-2064,224,208,-8,49,2
12510,-2048,192,216,-11,49,2
12515,-2048,192,216,-11,52,3
12520,-2064,192,224,-13,55,3
12525,-2048,192,216,-14,55,4
12530,-2056,184,224,-13,54,6
12535,-2048,200,200,-11,55,5
12540,-2040,184,208,-7,56,3
12545,-2072,200,232,-1,58,2
12550,-2048,176,208,3,62,0
12555,-2056,192,200,7,64,-2
12560,-2048,192,184,10,65,-3
12565,-2064,216,200,13,68,-3
12570,-2056,184,232,15,69,-3
12575,-2048,224,176,16,71,-5
12580,-2048,208,200,16,72,-5
12585,-2040,184,200,15,72,-2
12590,-2056,192,208,13,74,-2
12595,-2040,192,208,12,78,-1
12600,-2048,208,184,10,77,-1
12605,-2032,168,168,6,78,0
12610,-2048,184,176,3,77,1
12615,-2040,168,176,3,77,0
12620,-2056,200,208,6,74,-1
12625,-2048,200,176,10,68,0
12630,-2048,160,192,13,62,0
12635,-2056,192,176,17,55,0
12640,-2072,208,184,18,45,2
12645,-2088,192,184,18,37,4
12650,-2056,184,176,17,29,5
12655,-2048,216,176,13,27,7
12660,-2056,216,208,9,22,8
12665,-2040,216,208,4,21,7
12670,-2048,216,216,-2,24,4
12675,-2040,208,224,-6,29,2
12680,-2064,208,232,-10,34,2
12685,-2048,216,216,-9,42,-1
12690,-2048,216,232,-9,49,-3
12695,-2032,184,232,-9,56,-7
12700,-2048,216,216,-10,61,-9
12705,-2048,200,208,-9,65,-11
12710,-2040,200,224,-6,67,-12
12715,-2048,176,208,-5,68,-12
12720,-2056,192,224,-5,66,-12
12725,-2048,192,200,-5,64,-9
12730,-2048,208,224,-7,62,-8
12735,-2064,224,208,-8,60,-6
12740,-2048,192,184,-10,57,-5
12745,-2064,208,208,-14,55,-4
12750,-2064,200,208,-16,54,-4
12755,-2056,208,216,-19,53,-4
12760,-2072,184,232,-20,52,-4
12765,-2056,192,200,-22,53,-4
12770,-2032,184,232,-21,53,-4
12775,-2056,200,208,-19,54,-6
12780,-2056,192,232,-17,56,-7
12785,-2048,184,208,-14,56,-8
12790,-2040,184,208,-10,56,-8
12795,-2032,176,176,-7,57,-7
12800,-2040,192,232,-3,58,-7
12805,-2048,184,192,-2,59,-7
12810,-2048,176,208,0,59,-7
12815,-2040,184,216,1,59,-4
12820,-2056,208,216,0,58,-4
12825,-2048,184,208,0,56,-3
12830,-2048,200,208,1,56,-1
12835,-2064,240,232,0,57,0
12840,-2032,208,200,0,58,-1
12845,-2064,208,192,-2,61,-1
12850,-2040,208,208,-6,62,-1
12855,-2048,208,200,-9,63,-3
12860,-2048,184,224,-13,65,-3
12865,-2016,256,192,-15,66,-3
12870,-2048,184,200,-14,66,-3
12875,-2040,200,240,-13,67,-3
12880,-2064,192,232,-12,68,-4
12885,-2040,184,224,-9,68,-4
12890,-2056,192,216,-7,69,-2
12895,-2048,216,208,-8,70,-2
12900,-2040,208,208,-7,69,-2
12905,-2048,200,224,-7,68,-1
12910,-2048,184,224,-8,67,1
12915,-2040,184,240,-10,65,1
12920,-2048,192,208,-11,64,2
12925,-2048,208,216,-12,63,3
12930,-2048,192,208,-14,63,0
12935,-2048,208,208,-15,63,1
12940,-2064,208,256,-16,65,0
12945,-2056,200,216,-16,66,-2
12950,-2056,184,232,-17,68,-1
12955,-2040,192,216,-16,69,-4
12960,-2040,216,192,-17,71,-4
12965,-2032,184,208,-17,71,-6
12970,-2008,200,296,-17,73,-5
12975,-2056,208,232,-18,74,-5
12980,-2032,192,216,-18,75,-5
12985,-2048,192,208,-18,75,-5
12990,-2040,192,208,-17,74,-4
12995,-2048,208,216,-16,73,-4
13000,-2056,200,208,-16,70,-4
13005,-2024,168,240,-14,70,-4
13010,-2048,192,200,-13,69,-4
13015,-2040,192,216,-12,71,-5
13020,-2056,216,176,-12,70,-6
13025,-2040,224,168,-11,71,-6
13030,-2040,216,200,-11,72,-8
13035,-2040,184,208,-13,73,-8
13040,-2048,192,216,-14,74,-7
13045,-2048,192,248,-16,75,-9
13050,-2056,208,208,-18,74,-9
13055,-2056,200,224,-20,75,-9
13060,-2048,192,208,-21,77,-10
13065,-2048,192,216,-20,77,-9
13070,-2040,168,216,-19,76,-9
13075,-2056,200,176,-16,76,-9
13080,-2056,208,168,-15,77,-10
13085,-2048,184,200,-14,76,-9
13090,-2040,168,192,-12,75,-8
13095,-2048,216,192,-11,75,-8
13100,-2048,200,224,-10,76,-8
13105,-2056,208,200,-11,73,-8
13110,-2056,216,224,-11,73,-6
13115,-2064,224,232,-11,71,-7
13120,-2056,192,232,-13,70,-6
13125,-2056,184,224,-15,67,-5
13130,-2048,192,224,-16,67,-3
13135,-2040,200,216,-20,66,-2
13140,-2040,192,224,-20,66,-2
13145,-2048,192,200,-23,65,-3
13150,-2056,184,192,-25,63,-2
13155,-2040,192,192,-27,66,-3
13160,-2048,208,200,-27,66,-4
13165,-2064,216,216,-28,68,-3
13170,-2056,216,208,-27,67,-4
13175,-2064,208,216,-28,70,-4
13180,-2064,184,256,-28,70,-2
13185,-2064,216,208,-27,72,-3
13190,-2056,192,224,-28,77,-6
13195,-2056,208,200,-29,79,-6
13200,-2048,200,232,-30,83,-5
13205,-2064,200,232,-30,88,-8
13210,-2064,192,232,-32,93,-8
13215,-2064,208,224,-33,93,-9
13220,-2040,200,248,-35,96,-8
13225,-2064,216,240,-36,96,-11
13230,-2064,200,208,-37,98,-10
13235,-2080,208,232,-38,100,-11
13240,-2056,200,208,-39,100,-11
13245,-2064,200,208,-38,99,-11
13250,-2040,184,192,-39,98,-12
13255,-2048,192,208,-40,97,-11
13260,-2048,200,232,-39,94,-10
13265,-2064,200,192,-38,92,-9
13270,-2056,176,208,-37,89,-10
13275,-2040,208,224,-35,85,-9
13280,-2048,200,232,-32,82,-10
13285,-2048,200,232,-29,80,-11
13290,-2024,168,264,-24,77,-11
13295,-2016,184,216,-18,76,-13
13300,-2040,200,240,-16,77,-13
13305,-2056,192,208,-16,79,-13
13310,-2056,200,224,-15,79,-14
13315,-2048,208,232,-17,82,-13
13320,-2064,192,216,-20,86,-13
13325,-2064,184,216,-25,88,-12
13330,-2040,192,224,-28,90,-11
13335,-2056,216,216,-31,91,-10
13340,-2056,200,208,-33,90,-9
13345,-2048,192,200,-35,91,-9
13350,-2048,200,192,-34,91,-9
13355,-2048,184,200,-33,92,-10
13360,-2048,192,200,-30,90,-11
13365,-2056,200,200,-28,91,-12
13370,-2048,200,224,-24,92,-13
13375,-2056,184,200,-20,92,-14
13380,-2064,200,216,-16,92,-13
13385,-2048,192,200,-13,91,-13
13390,-2056,168,224,-11,91,-14
13395,-2048,192,224,-13,90,-14
13400,-2112,192,168,-15,90,-12
13405,-2048,208,232,-18,93,-12
13410,-2056,208,224,-21,96,-11
13415,-2056,200,192,-25,98,-11
13420,-2040,200,200,-29,101,-10
13425,-2032,168,176,-31,104,-8
13430,-2048,184,192,-31,105,-7
13435,-2056,176,192,-29,107,-7
13440,-2040,176,184,-26,106,-7
13445,-2056,216,208,-20,105,-6
13450,-2048,176,200,-16,102,-4
13455,-2056,184,200,-9,98,-1
13460,-2064,160,208,-9,93,0
13465,-2048,168,160,-10,88,1
13470,-2048,192,184,-11,84,3
13475,-2040,200,240,-13,82,3
13480,-2048,192,216,-15,82,3
13485,-2040,216,216,-18,84,2
13490,-2064,192,232,-22,87,-1
13495,-2048,184,208,-25,93,-3
13500,-2040,216,224,-28,96,-4
13505,-2048,200,184,-30,101,-7
13510,-2048,208,200,-31,105,-8
13515,-2040,200,216,-32,108,-9
13520,-2032,184,208,-33,110,-11
13525,-2048,192,176,-34,109,-10
13530,-2056,184,192,-34,108,-11
13535,-2048,184,176,-35,107,-11
13540,-2048,216,192,-36,104,-11
13545,-2048,192,184,-35,104,-12
13550,-2040,176,176,-34,105,-13
13555,-2072,200,216,-35,104,-12
13560,-2056,192,192,-34,105,-13
13565,-2064,184,192,-33,103,-13
13570,-2064,192,184,-34,104,-13
13575,-2072,200,176,-37,105,-15
13580,-2032,160,200,-38,103,-16
13585,-2064,168,152,-39,102,-16
13590,-2048,160,200,-41,101,-15
13595,-2064,168,208,-42,100,-14
13600,-2056,184,160,-41,98,-14
13605,-2064,176,176,-40,98,-14
13610,-2064,240,232,-38,96,-13
13615,-2056,184,176,-34,95,-12
13620,-2040,168,184,-35,93,-11
13625,-2048,176,176,-32,93,-10
13630,-2056,176,200,-29,90,-8
13635,-2064,192,200,-28,87,-7
13640,-2056,192,176,-27,85,-7
13645,-2048,168,168,-27,83,-7
13650,-2040,184,184,-28,83,-6
13655,-2048,184,176,-29,83,-8
13660,-2056,184,200,-31,82,-9
13665,-2048,176,176,-35,82,-9
13670,-2048,184,208,-37,83,-9
13675,-2048,168,160,-38,82,-11
13680,-2056,200,184,-40,82,-13
13685,-2048,184,184,-43,82,-12
13690,-2064,200,192,-43,83,-11
13695,-2064,184,168,-42,83,-10
13700,-2040,176,160,-39,83,-10
13705,-2056,160,208,-38,82,-9
13710,-2048,192,168,-35,81,-7
13715,-2064,192,160,-33,80,-8
13720,-2040,152,176,-32,78,-6
13725,-2072,200,176,-31,78,-3
13730,-2056,184,176,-32,78,-5
13735,-2064,168,184,-35,77,-5
13740,-2040,208,184,-36,78,-6
13745,-2040,184,176,-39,79,-6
13750,-2064,176,184,-41,84,-7
13755,-2072,192,192,-46,87,-9
13760,-2064,184,200,-48,88,-11
13765,-2056,200,184,-52,91,-11
13770,-2072,208,200,-56,92,-11
13775,-2048,184,176,-55,91,-13
13780,-2048,160,216,-55,93,-12
13785,-2064,184,232,-52,91,-11
13790,-2040,168,184,-47,92,-11
13795,-2064,192,168,-45,92,-10
13800,-2056,160,184,-43,92,-9
13805,-2040,168,144,-40,90,-6
13810,-2056,184,192,-37,90,-6
13815,-2072,184,168,-36,89,-6
13820,-2056,176,152,-37,85,-5
13825,-2040,208,184,-35,85,-3
13830,-2072,184,168,-34,86,-3
13835,-2048,200,168,-33,85,-4
13840,-2064,192,192,-33,86,-4
13845,-2032,184,168,-33,85,-4
13850,-2048,200,160,-32,89,-6
13855,-2056,184,152,-31,90,-4
13860,-2032,168,176,-31,94,-4
13865,-2040,184,200,-29,95,-6
13870,-2064,192,200,-28,96,-9
13875,-2040,176,168,-26,96,-7
13880,-2072,184,208,-26,95,-8
13885,-2064,208,160,-27,94,-8
13890,-2048,168,168,-27,93,-6
13895,-2048,184,128,-28,93,-7
13900,-2064,160,144,-27,95,-7
13905,-2064,184,176,-27,96,-8
13910,-2048,176,176,-28,95,-7
13915,-2064,184,168,-28,95,-7
13920,-2040,144,168,-28,96,-6
13925,-2064,176,168,-29,95,-5
13930,-2048,168,160,-30,93,-5
13935,-2064,184,144,-29,92,-5
13940,-2064,200,176,-26,92,-5
13945,-2048,192,168,-22,92,-1
13950,-2056,176,192,-22,91,-5
13955,-2056,176,168,-23,86,-6
13960,-2048,176,152,-25,86,-5
13965,-2032,152,144,-26,87,-5
13970,-2048,192,176,-26,88,-5
13975,-2056,184,136,-25,87,-5
13980,-2056,160,168,-25,88,-5
13985,-2072,200,168,-25,88,-3
13990,-2048,176,160,-24,88,-2
13995,-2056,184,152,-21,86,-1
14000,-2056,144,176,-21,86,0
14005,-2056,176,176,-19,82,-2
14010,-2056,176,176,-17,82,-2
14015,-2064,184,168,-14,80,-2
14020,-2088,168,152,-9,78,-4
14025,-2088,168,200,-5,75,-4
14030,-2048,168,184,-1,74,-4
14035,-2048,160,152,2,72,-3
14040,-2064,168,88,4,70,-4
14045,-2056,200,144,7,69,-3
14050,-2064,184,176,8,70,-5
14055,-2048,176,200,6,70,-4
14060,-2056,184,192,5,68,-4
14065,-2064,168,128,4,66,-4
14070,-2064,176,176,3,63,-5
14075,-2048,192,176,2,62,-4
14080,-2048,176,160,1,59,-2
14085,-2040,184,176,0,58,-1
14090,-2056,184,160,2,53,-2
14095,-2048,144,160,3,53,-1
14100,-2056,160,144,5,53,-1
14105,-2048,168,144,9,51,0
14110,-2056,160,128,12,50,1
14115,-2064,160,176,15,45,1
14120,-2040,184,136,18,42,1
14125,-2056,184,144,19,40,0
14130,-2080,184,144,19,41,1
14135,-2056,168,160,18,37,1
14140,-2048,192,144,14,36,2
14145,-2072,184,152,10,34,4
14150,-2064,176,184,6,34,3
14155,-2056,176,136,3,31,3
14160,-2056,184,168,0,28,5
14165,-2064,184,192,-3,29,2
14170,-2056,192,160,-4,29,3
14175,-2040,160,168,-4,31,2
14180,-2064,160,168,-3,35,4
14185,-2048,176,200,-3,39,4
14190,-2048,168,192,-1,44,4
14195,-2064,160,200,4,49,6
14200,-2080,184,168,8,51,7
14205,-2064,176,160,14,51,9
14210,-2064,168,176,20,49,10
14215,-2064,200,168,23,46,11
14220,-2048,168,168,24,43,12
14225,-2072,200,168,23,36,14
14230,-2048,184,152,19,29,17
14235,-2064,176,152,16,24,18
14240,-2056,208,192,13,18,20
14245,-2080,168,184,8,13,22
14250,-2080,216,168,3,8,23
14255,-2048,208,184,2,6,24
14260,-2056,208,160,0,8,22
14265,-2032,216,192,0,12,18
14270,-2056,240,200,-1,18,14
14275,-2064,216,200,-1,23,11
14280,-2048,216,168,1,29,6
14285,-2056,192,192,2,36,5
14290,-2048,192,184,3,40,3
14295,-2040,200,192,3,45,2
14300,-2048,192,168,4,46,0
14305,-2048,192,168,5,46,0
14310,-2064,192,160,2,46,1
14315,-2072,176,208,1,45,1
14320,-2072,208,192,-1,43,2
14325,-2056,192,224,-2,42,4
14330,-2040,184,224,-3,39,6
14335,-2064,184,160,-1,38,7
14340,-2072,184,192,-1,39,6
14345,-2048,184,192,0,37,5
14350,-2024,184,184,3,37,5
14355,-2048,168,224,5,38,4
14360,-2072,208,304,8,38,3
14365,-2056,224,160,8,37,2
14370,-2064,192,160,8,36,2
14375,-2056,208,200,9,36,2
14380,-2048,168,168,9,35,1
14385,-2064,192,192,10,33,2
14390,-2040,192,200,12,34,4
14395,-2048,224,208,10,34,2
14400,-2048,192,168,10,34,3
14405,-2048,200,224,7,35,3
14410,-2064,224,184,4,37,2
14415,-2056,184,208,0,39,1
14420,-2064,184,184,-3,41,-1
14425,-2064,216,184,-7,42,-2
14430,-2048,176,184,-9,43,-1
14435,-2032,160,216,-11,46,-2
14440,-2048,192,216,-10,48,-3
14445,-2056,184,176,-8,50,-4
14450,-2048,176,192,-8,51,-3
14455,-2072,176,192,-3,52,-2
14460,-2040,160,176,1,51,1
14465,-2040,176,208,7,48,2
14470,-2056,168,208,13,45,2
14475,-2072,200,192,17,41,4
14480,-2056,184,216,19,37,6
14485,-2048,216,168,22,33,8
14490,-2040,184,176,21,28,8
14495,-2064,192,192,20,26,9
14500,-2072,192,192,17,23,12
14505,-2056,208,184,14,22,11
14510,-2072,200,184,11,21,10
14515,-2048,168,184,6,21,9
14520,-2048,184,200,2,21,8
14525,-2048,192,200,0,21,8
14530,-2048,168,184,-2,22,7
14535,-2048,184,200,-3,23,6
14540,-2056,184,200,-6,24,4
14545,-2048,192,184,-2,26,3
14550,-2056,200,216,1,28,4
14555,-2048,184,176,3,28,3
14560,-2056,160,224,6,28,4
14565,-2040,168,176,11,28,4
14570,-2056,168,224,13,27,6
14575,-2080,192,184,14,27,4
14580,-2040,168,176,16,27,4
14585,-2064,184,208,17,26,4
14590,-2056,200,208,19,25,4
14595,-2056,176,192,19,24,4
14600,-2048,216,248,20,22,5
14605,-2040,192,248,19,21,8
14610,-2040,192,200,19,18,8
14615,-2032,168,232,18,18,10
14620,-2064,208,200,15,18,9
14625,-2040,208,184,16,17,11
14630,-2040,184,200,15,18,11
14635,-2048,200,216,11,15,9
14640,-2048,224,224,8,14,8
14645,-2040,192,200,6,12,7
14650,-2064,224,200,5,12,8
14655,-2056,200,216,1,11,7
14660,-2040,208,240,-1,11,6
14665,-2040,224,240,-3,11,3
14670,-2040,208,192,-8,13,3
14675,-2032,176,240,-9,14,3
14680,-2048,232,200,-11,18,2
14685,-2048,176,232,-14,20,2
14690,-2056,208,192,-18,22,2
14695,-2056,216,232,-21,24,3
14700,-2040,176,232,-24,28,1
14705,-2048,192,208,-26,33,0
14710,-2048,184,224,-25,35,1
14715,-2032,176,240,-26,37,0
14720,-2056,216,232,-24,38,0
14725,-2048,216,264,-23,40,0
14730,-2040,176,240,-20,40,-1
14735,-2048,216,208,-18,42,-1
14740,-2048,184,192,-15,42,-1
14745,-2048,192,248,-14,41,-1
14750,-2056,200,216,-12,38,-1
14755,-2040,176,232,-9,38,-1
14760,-2056,216,240,-7,39,-1
14765,-2040,184,240,-5,37,0
14770,-2048,160,216,-1,38,0
14775,-2040,216,232,-1,38,1
14780,-2040,192,208,-1,37,1
14785,-2064,168,232,-3,36,0
14790,-2056,192,248,-5,38,0
14795,-2040,184,216,-5,39,0
14800,-2048,216,248,-5,41,-1
14805,-2048,216,272,-6,42,-3
14810,-2056,208,256,-6,44,-3
14815,-2040,192,248,-6,45,-2
14820,-2048,200,232,-7,47,-2
14825,-2040,192,240,-12,48,0
14830,-2056,208,248,-14,46,-1
14835,-2080,208,240,-12,45,-1
14840,-2024,184,232,-11,51,-2
14845,-2032,192,240,-8,57,-3
14850,-2032,168,232,-6,61,-2
14855,-2072,192,256,-3,65,-3
14860,-2040,184,256,1,67,-3
14865,-2024,184,240,7,70,-2
14870,-2048,184,200,13,71,-2
14875,-2048,200,240,16,74,-3
14880,-2056,208,256,20,75,-5
14885,-2048,216,224,22,75,-7
14890,-2056,224,240,25,77,-8
14895,-2056,200,232,27,79,-9
14900,-2056,200,224,25,81,-11
14905,-2056,184,232,24,83,-9
14910,-2048,208,248,21,85,-9
14915,-2040,200,248,18,86,-9
14920,-2048,184,224,17,88,-9
14925,-2048,160,216,16,88,-10
14930,-2048,184,224,14,90,-6
14935,-2048,184,216,16,88,-5
14940,-2048,184,224,20,84,-5
14945,-2056,192,232,25,81,-2
14950,-2048,176,216,29,77,-1
14955,-2056,208,232,34,70,1
14960,-2048,216,216,35,60,3
14965,-2032,192,224,34,51,7
14970,-2056,184,208,33,42,8
14975,-2040,192,192,32,35,9
14980,-2056,192,232,31,31,7
14985,-2040,216,240,30,30,6
14990,-2080,240,248,28,31,1
14995,-2072,224,256,33,23,-7
