timestamp,accel_x,accel_y,accel_z,gyro_x,gyro_y,gyro_z
0,-136,-2056,-8,-18,105,-7
5,-160,-2040,-40,-16,102,-8
10,-136,-2040,-8,-15,99,-6
15,-144,-2032,0,-13,96,-8
20,-144,-2040,-24,-13,94,-7
25,-128,-2064,-32,-11,91,-9
30,-144,-2032,-24,-10,90,-7
35,-136,-2040,-32,-9,88,-9
40,-160,-2032,-40,-7,86,-7
45,-168,-2032,-32,-6,85,-8
50,-136,-2040,-32,-4,84,-7
55,-152,-2056,-8,-3,80,-7
60,-152,-2064,-32,-1,79,-7
65,-136,-2080,-16,1,75,-9
70,-136,-2032,-40,3,74,-8
75,-144,-2048,-16,5,70,-10
80,-104,-2040,-32,8,69,-8
85,-136,-2056,-56,9,68,-11
90,-112,-2048,0,9,65,-9
95,-96,-2040,-16,9,66,-10
100,-104,-2024,-24,8,68,-11
105,-128,-2016,0,5,70,-11
110,-104,-2032,-32,3,70,-12
115,-112,-2040,-16,0,73,-13
120,-120,-2048,-32,-3,77,-10
125,-144,-2024,-8,-7,82,-11
130,-104,-2064,-80,-7,86,-9
135,-136,-2040,-8,-8,84,-10
140,-104,-2056,-32,-5,83,-9
145,-120,-2040,-24,-3,81,-9
150,-120,-2048,0,-3,79,-9
155,-104,-2064,-16,-2,77,-7
160,-96,-2024,-48,-6,80,-6
165,-96,-2016,-32,-7,80,-6
170,-112,-2032,-24,-6,77,-5
175,-112,-2024,-16,-7,77,-3
180,-112,-2024,-72,-9,74,-2
185,-128,-2040,-56,-5,66,0
190,-112,-2032,-64,-1,59,1
195,-96,-2064,-32,2,57,3
200,-104,-2032,-48,6,49,3
205,-128,-2048,-32,11,47,5
210,-136,-2048,-24,12,43,3
215,-104,-2048,-48,13,43,5
220,-96,-2040,-24,15,41,6
225,-136,-2008,-64,16,39,7
230,-112,-2016,-48,18,38,7
235,-136,-2032,-64,20,36,10
240,-112,-2024,-40,23,34,10
245,-96,-2032,-56,27,35,14
250,-104,-2040,-56,29,36,14
255,-96,-2040,-24,29,36,15
260,-136,-2040,-8,29,38,13
265,-144,-2040,-24,28,36,14
270,-104,-2040,-16,26,37,13
275,-104,-2048,-16,25,36,13
280,-144,-2016,-24,25,33,11
285,-120,-2040,-72,23,32,11
290,-112,-2040,8,22,34,9
295,-96,-2048,-24,21,38,9
300,-120,-2008,-8,21,39,7
305,-136,-2024,-16,22,40,8
310,-96,-2064,-16,20,41,4
315,-120,-2016,-24,22,41,4
320,-88,-2040,-24,23,42,2
325,-96,-2040,8,23,43,3
330,-104,-2040,-24,23,45,1
335,-104,-2032,-40,25,45,1
340,-96,-2032,-32,25,46,-2
345,-112,-2040,-16,27,48,-1
350,-112,-2048,-40,27,51,-5
355,-96,-2024,-24,27,52,-5
360,-96,-2064,0,28,56,-8
365,-96,-2040,0,29,61,-7
370,-104,-2056,-8,29,63,-10
375,-104,-2040,0,31,68,-10
380,-104,-2056,8,31,71,-14
385,-96,-2056,0,32,76,-14
390,-104,-2048,-8,32,79,-16
395,-96,-2024,8,32,83,-14
400,-96,-2032,8,28,84,-16
405,-88,-2024,0,26,86,-15
410,-104,-2032,-16,24,88,-15
415,-96,-2040,-8,20,88,-14
420,-112,-2016,0,19,88,-17
425,-96,-2000,-16,15,89,-16
430,-120,-2032,8,13,90,-18
435,-96,-2024,0,11,91,-16
440,-96,-2040,0,6,95,-20
445,-96,-2000,0,6,100,-19
450,-128,-2032,8,4,102,-22
455,-96,-2032,24,3,106,-20
460,-104,-2040,-16,5,107,-23
465,-112,-2032,32,5,107,-21
470,-120,-2040,8,4,111,-24
475,-112,-2032,16,3,112,-23
480,-104,-2048,0,2,114,-26
485,-112,-2048,32,1,114,-23
490,-144,-2032,32,2,111,-26
495,-96,-2032,24,4,109,-26
500,-120,-2024,-24,4,108,-28
505,-96,-2032,8,4,107,-27
510,-112,-2032,-24,4,104,-29
515,-104,-2024,8,2,102,-28
520,-104,-2008,-16,0,102,-32
525,-112,-2040,0,-1,101,-29
530,-96,-2040,8,-4,102,-31
535,-88,-2040,-8,-5,105,-28
540,-112,-2016,8,-4,106,-31
545,-120,-2040,32,-3,109,-27
550,-160,-2024,16,0,110,-29
555,-96,-2040,-24,-1,111,-28
560,-96,-2024,24,-1,113,-31
565,-120,-2016,16,-2,112,-27
570,-112,-2008,40,-4,111,-28
575,-120,-2032,16,-5,113,-26
580,-120,-2016,8,-8,113,-28
585,-104,-2024,0,-7,113,-25
590,-104,-2016,8,-7,113,-27
595,-120,-2016,0,-8,113,-26
600,-96,-2048,16,-7,110,-27
605,-104,-2032,-8,-9,107,-25
610,-96,-2040,40,-8,107,-26
615,-112,-2056,16,-10,104,-23
620,-112,-2032,-16,-7,105,-24
625,-96,-2056,16,-6,106,-23
630,-112,-2048,16,-4,105,-25
635,-104,-2040,0,-3,106,-23
640,-128,-2016,8,-2,107,-24
645,-96,-2048,16,0,106,-23
650,-104,-2024,0,0,106,-23
655,-96,-2040,16,0,105,-21
660,-112,-2032,-16,-3,106,-23
665,-120,-2040,48,-8,104,-21
670,-120,-2016,16,-13,102,-23
675,-112,-2032,16,-20,99,-23
680,-112,-2048,-8,-25,97,-25
685,-104,-2032,40,-28,94,-25
690,-120,-2048,24,-31,93,-26
695,-112,-2016,40,-32,91,-26
700,-112,-2032,40,-35,92,-28
705,-96,-2024,40,-35,93,-26
710,-96,-2064,16,-35,93,-28
715,-96,-2056,40,-34,92,-25
720,-96,-2032,40,-29,90,-27
725,-96,-2032,48,-24,87,-29
730,-112,-2032,56,-25,87,-30
735,-112,-2008,24,-24,85,-32
740,-96,-2040,16,-25,84,-32
745,-96,-2024,-8,-27,82,-31
750,-96,-2032,32,-30,81,-32
755,-88,-2056,8,-34,80,-32
760,-96,-2032,-8,-32,77,-32
765,-88,-2024,0,-34,77,-31
770,-96,-2032,-8,-33,77,-30
775,-96,-2032,-16,-33,75,-30
780,-96,-2048,0,-36,76,-28
785,-96,-2032,-24,-36,75,-26
790,-96,-2048,0,-33,75,-26
795,-104,-2056,-24,-30,74,-24
800,-96,-2048,-16,-25,75,-24
805,-112,-2032,-16,-21,76,-22
810,-104,-2048,-24,-18,76,-22
815,-104,-2032,8,-15,74,-20
820,-96,-2016,56,-13,75,-21
825,-96,-2032,-8,-10,76,-20
830,-96,-2048,32,-10,78,-20
835,-88,-2040,-24,-9,81,-21
840,-96,-2032,32,-9,84,-21
845,-80,-2040,8,-8,88,-21
850,-96,-2072,0,-5,91,-21
855,-88,-2056,56,-4,94,-23
860,-80,-2064,8,-2,94,-22
865,-96,-2048,16,1,95,-24
870,-80,-2056,16,2,96,-24
875,-96,-2032,-24,2,100,-27
880,-96,-2024,0,3,104,-25
885,-88,-2024,40,2,106,-28
890,-88,-2024,32,2,108,-26
895,-88,-2024,48,-1,109,-27
900,-96,-2024,8,0,109,-26
905,-96,-2040,8,-1,110,-25
910,-96,-2032,0,-2,109,-23
915,-96,-2048,-16,-1,109,-23
920,-88,-2032,0,0,109,-21
925,-96,-2056,32,0,110,-21
930,-104,-2040,8,-1,111,-20
935,-104,-2040,24,-1,111,-20
940,-112,-2032,-8,-1,115,-19
945,-104,-2048,0,-2,118,-20
950,-104,-2024,-8,-2,119,-18
955,-96,-2032,-16,0,119,-19
960,-104,-2040,8,-1,116,-17
965,-96,-2032,8,1,115,-18
970,-88,-2032,-8,2,112,-15
975,-96,-2048,32,4,110,-15
980,-96,-2032,8,5,109,-14
985,-96,-2040,56,7,104,-14
990,-88,-2024,40,9,102,-12
995,-96,-2040,16,10,102,-13
1000,-88,-2032,0,10,101,-12
1005,-96,-2048,-16,11,100,-14
1010,-96,-2056,0,13,99,-10
1015,-96,-2032,16,15,99,-13
1020,-88,-2048,32,16,99,-10
1025,-80,-2032,0,15,97,-12
1030,-96,-2032,8,14,97,-9
1035,-96,-2024,24,12,98,-12
1040,-88,-2024,-24,9,98,-9
1045,-112,-2016,8,8,98,-10
1050,-120,-1992,24,8,96,-8
1055,-88,-2048,0,8,96,-10
1060,-96,-2048,32,4,95,-10
1065,-96,-2048,16,4,93,-11
1070,-96,-2040,32,4,91,-9
1075,-104,-2056,24,4,88,-10
1080,-96,-2032,8,3,87,-8
1085,-88,-2048,8,4,84,-12
1090,-96,-2024,-16,1,84,-9
1095,-96,-2040,0,-1,81,-12
1100,-96,-2032,16,-2,80,-9
1105,-96,-2040,0,-3,77,-12
1110,-96,-2016,32,-5,75,-8
1115,-96,-2048,-16,-7,70,-10
1120,-96,-2040,0,-7,65,-6
1125,-96,-2040,-8,-7,60,-9
1130,-88,-2032,16,-6,55,-6
1135,-96,-2024,24,-6,54,-10
1140,-104,-2024,16,-7,50,-8
1145,-88,-2040,8,-7,49,-11
1150,-88,-2024,8,-9,47,-9
1155,-96,-2032,0,-8,45,-12
1160,-96,-2016,-16,-7,41,-9
1165,-96,-2024,16,-7,38,-11
1170,-96,-2032,8,-7,36,-9
1175,-88,-2024,40,-8,34,-12
1180,-96,-2024,8,-9,32,-9
1185,-88,-2024,0,-12,28,-11
1190,-96,-2024,24,-15,26,-7
1195,-88,-2032,32,-17,25,-9
1200,-96,-2024,48,-19,24,-6
1205,-96,-2040,40,-21,22,-8
1210,-112,-2048,40,-22,20,-6
1215,-88,-2024,-8,-22,21,-8
1220,-96,-2024,8,-25,18,-6
1225,-96,-2056,24,-24,16,-9
1230,-80,-2048,24,-24,13,-7
1235,-96,-2016,24,-24,11,-9
1240,-96,-2048,16,-26,8,-7
1245,-80,-2064,16,-24,6,-9
1250,-96,-2040,24,-24,3,-7
1255,-88,-2048,16,-24,1,-9
1260,-72,-2048,24,-25,1,-6
1265,-88,-2056,16,-25,-1,-9
1270,-88,-2040,8,-26,-2,-6
1275,-88,-2032,-8,-27,-2,-6
1280,-72,-2024,32,-28,-2,-4
1285,-80,-2024,-16,-29,0,-5
1290,-96,-2008,-8,-32,2,-3
1295,-80,-2016,8,-32,1,-5
1300,-80,-2032,-8,-34,3,-3
1305,-72,-2048,8,-36,3,-4
1310,-88,-2040,0,-34,5,-1
1315,-64,-2040,32,-34,7,-4
1320,-72,-2040,-8,-34,8,-3
1325,-64,-2064,16,-33,9,-3
1330,-88,-2032,16,-33,8,-1
1335,-72,-2040,-32,-33,8,-5
1340,-88,-2040,-8,-31,10,-3
1345,-72,-2056,-8,-32,13,-5
1350,-64,-2056,-8,-30,15,-3
1355,-80,-2048,0,-29,15,-5
1360,-80,-2040,0,-28,16,-4
1365,-88,-2048,0,-30,18,-5
1370,-72,-2048,16,-30,21,-4
1375,-80,-2032,-8,-28,22,-5
1380,-64,-2072,8,-20,23,-4
1385,-80,-2056,8,-12,28,-6
1390,-80,-2040,-16,-8,30,-4
1395,-64,-2040,16,-7,35,-5
1400,-72,-2040,-32,-7,41,-3
1405,-80,-2040,-8,-9,45,-4
1410,-96,-2032,32,-14,46,-4
1415,-56,-2032,8,-14,47,-5
1420,-72,-2048,24,-17,47,-3
1425,-72,-2040,16,-19,47,-5
1430,-80,-2048,-16,-20,49,-4
1435,-72,-2032,0,-23,51,-6
1440,-72,-2048,48,-23,52,-5
1445,-88,-2040,16,-25,55,-7
1450,-48,-2064,8,-23,55,-6
1455,-72,-2048,24,-23,57,-7
1460,-88,-2032,24,-23,60,-7
1465,-72,-2032,-8,-24,60,-6
1470,-88,-2056,24,-24,65,-6
1475,-80,-2024,-24,-22,68,-7
1480,-88,-2032,-16,-22,68,-6
1485,-72,-2040,32,-22,69,-5
1490,-88,-2032,40,-22,70,-4
1495,-64,-2048,24,-23,70,-5
1500,-72,-2032,8,-21,68,-4
1505,-88,-2032,0,-20,68,-4
1510,-80,-2048,-8,-18,67,-4
1515,-96,-2008,-16,-18,67,-4
1520,-88,-2032,16,-18,71,-5
1525,-88,-2040,16,-19,72,-4
1530,-88,-2040,32,-20,75,-4
1535,-88,-2024,8,-21,79,-5
1540,-96,-2032,24,-18,78,-6
1545,-88,-2048,40,-20,77,-5
1550,-96,-2048,8,-21,78,-5
1555,-96,-2048,-16,-18,75,-2
1560,-88,-2048,16,-14,71,-3
1565,-72,-2080,-8,-10,69,-5
1570,-88,-2048,8,-9,67,-6
1575,-88,-2024,0,-8,67,-6
1580,-88,-2032,-16,-6,69,-8
1585,-88,-2032,8,-5,70,-7
1590,-88,-2048,-16,-5,73,-8
1595,-88,-2048,8,-6,74,-7
1600,-176,-2016,-8,-7,77,-8
1605,16,-2000,40,-7,81,-6
1610,0,-2056,-40,-5,81,-7
1615,-120,-2016,40,-7,84,-10
1620,-24,-1992,-104,-9,88,-12
1625,-80,-2000,48,-8,87,-8
1630,-56,-2032,64,-4,79,-9
1635,-48,-2088,40,-2,76,-6
1640,-80,-2008,-112,-3,74,-7
1645,-72,-1896,-80,-3,72,-5
1650,-96,-2048,0,-3,70,-7
1655,-80,-2048,8,-2,68,-4
1660,-80,-2032,8,-3,68,-7
1665,-88,-2048,-8,-3,66,-5
1670,-96,-2008,-24,-2,66,-6
1675,-96,-2032,0,1,68,-4
1680,-80,-2040,32,1,68,-4
1685,-88,-2024,24,3,69,-2
1690,-88,-2032,16,4,70,-4
1695,-80,-2040,-32,5,71,-2
1700,-96,-2048,0,7,72,-4
1705,-64,-2048,-16,10,72,-4
1710,-88,-2048,16,11,73,-6
1715,-96,-2056,24,11,72,-4
1720,-96,-2032,8,13,71,-7
1725,-88,-2040,16,13,69,-4
1730,-72,-2040,16,14,68,-6
1735,-88,-2056,32,14,69,-4
1740,-80,-2048,40,13,69,-6
1745,-80,-2032,32,12,67,-5
1750,-88,-2032,40,11,67,-7
1755,-80,-2040,24,9,67,-5
1760,-88,-2024,32,8,71,-7
1765,-80,-2032,24,6,71,-4
1770,-88,-2056,16,4,74,-6
1775,-80,-2040,0,5,75,-3
1780,-88,-2056,56,5,77,-6
1785,-80,-2048,8,4,79,-6
1790,-72,-2056,8,5,81,-11
1795,-80,-2024,40,4,84,-8
1800,-64,-2072,-24,2,86,-10
1805,-88,-2032,48,4,82,-8
1810,-72,-2064,32,4,79,-11
1815,-88,-2072,16,6,75,-6
1820,-88,-2056,16,8,73,-8
1825,-72,-2048,-8,9,71,-6
1830,-80,-2032,0,12,69,-10
1835,-96,-2032,0,13,70,-10
1840,-88,-2040,24,11,72,-12
1845,-88,-2016,16,10,77,-8
1850,-88,-2000,0,6,82,-10
1855,-80,-2016,32,4,85,-7
1860,-96,-2032,16,4,84,-10
1865,-88,-2048,56,4,85,-9
1870,-72,-2016,48,5,85,-12
1875,-72,-2040,48,6,82,-9
1880,-48,-2048,16,7,81,-13
1885,-64,-2032,40,8,80,-10
1890,-80,-2016,0,8,83,-13
1895,-72,-2056,8,7,84,-11
1900,-80,-2056,64,6,86,-14
1905,-88,-2032,32,4,87,-12
1910,-80,-2024,0,3,91,-12
1915,-88,-2032,24,2,94,-11
1920,-72,-2024,40,3,96,-13
1925,-88,-2016,32,2,97,-11
1930,-80,-2024,8,3,97,-13
1935,-64,-2024,8,6,98,-10
1940,-64,-2008,64,6,97,-13
1945,-80,-2016,16,7,97,-9
1950,-88,-2064,32,9,97,-12
1955,-80,-2048,48,10,95,-10
1960,-88,-2008,16,12,94,-12
1965,-88,-2040,48,11,93,-10
1970,-88,-2048,48,12,91,-13
1975,-96,-2048,64,10,92,-11
1980,-80,-2040,8,10,92,-13
1985,-56,-2048,56,11,92,-11
1990,-88,-2032,32,12,94,-13
1995,-80,-2040,32,14,93,-10
2000,-80,-2032,48,17,94,-12
2005,-80,-2032,40,18,93,-11
2010,-72,-2024,48,18,94,-11
2015,-64,-2056,48,21,94,-9
2020,-72,-2048,48,21,94,-11
2025,-96,-2040,32,21,96,-9
2030,-88,-2032,40,19,95,-11
2035,-96,-2032,32,16,94,-10
2040,-72,-2056,40,14,93,-11
2045,-88,-2032,24,16,92,-9
2050,-72,-2024,64,15,95,-11
2055,-80,-2048,64,17,94,-9
2060,-80,-2040,16,18,93,-11
2065,-72,-2040,56,19,93,-11
2070,-72,-2064,32,20,92,-11
2075,-72,-2056,48,21,90,-11
2080,-88,-2048,56,23,91,-12
2085,-88,-2056,64,22,89,-10
2090,-88,-2040,48,23,89,-11
2095,-80,-2048,32,22,88,-9
2100,-80,-2024,56,21,87,-10
2105,-80,-2040,48,20,88,-8
2110,-72,-2040,64,19,90,-8
2115,-96,-2016,24,18,88,-8
2120,-88,-2048,40,17,89,-9
2125,-88,-2024,16,15,90,-7
2130,-112,-2024,64,14,89,-10
2135,-88,-2048,24,15,89,-8
2140,-96,-2032,64,16,87,-9
2145,-88,-2032,24,16,86,-8
2150,-96,-2040,56,15,85,-7
2155,-96,-2040,32,17,83,-6
2160,-96,-2048,40,17,80,-7
2165,-96,-2040,48,17,78,-6
2170,-88,-2056,32,19,74,-5
2175,-80,-2056,32,20,72,-4
2180,-96,-2032,64,24,70,-6
2185,-88,-2024,40,26,70,-6
2190,-96,-2016,64,26,69,-7
2195,-80,-2032,80,29,71,-7
2200,-64,-2040,64,27,69,-7
2205,-96,-2008,24,22,68,-7
2210,-96,-2032,64,15,68,-5
2215,-88,-2040,40,11,68,-5
2220,-88,-2056,64,6,68,-1
2225,-80,-2024,40,5,68,0
2230,-96,-2048,24,6,65,1
2235,-96,-2056,56,8,60,1
2240,-88,-2032,24,11,55,0
2245,-80,-2056,32,12,51,-2
2250,-96,-2048,64,14,52,-2
2255,-80,-2032,40,15,50,-5
2260,-96,-2032,64,11,51,-4
2265,-96,-2040,0,8,53,-2
2270,-96,-2000,32,4,54,1
2275,-88,-2032,40,-1,56,3
2280,-96,-2008,56,-2,54,3
2285,-88,-2024,56,-3,51,2
2290,-88,-2048,48,-3,50,4
2295,-96,-2040,32,-4,50,3
2300,-88,-2056,24,-4,48,4
2305,-96,-2032,24,-7,48,2
2310,-96,-2040,48,-9,45,3
2315,-96,-2040,56,-12,41,3
2320,-96,-2032,8,-14,37,5
2325,-104,-2032,16,-15,34,6
2330,-96,-2032,24,-14,31,8
2335,-104,-2048,48,-12,27,9
2340,-88,-2032,48,-8,24,11
2345,-80,-2056,56,-8,19,10
2350,-96,-2040,48,-5,19,10
2355,-88,-2048,64,-3,15,9
2360,-88,-2032,16,-4,13,12
2365,-96,-2048,56,-5,10,9
2370,-96,-2024,56,-6,6,10
2375,-96,-2016,64,-5,2,10
2380,-96,-2024,56,-4,-1,10
2385,-96,-2024,40,-6,-3,8
2390,-88,-2032,40,-6,-4,10
2395,-72,-2056,56,-8,-5,8
2400,-80,-2032,40,-7,-7,10
2405,-88,-2032,48,-7,-7,9
2410,-96,-2000,32,-7,-8,12
2415,-88,-2048,32,-7,-6,11
2420,-80,-2032,56,-8,-8,14
2425,-16,-1992,16,-7,-8,13
2430,-80,-2016,64,-9,-7,14
2435,-96,-2040,56,-11,-9,11
2440,-88,-2032,48,-10,-10,13
2445,-96,-2048,40,-10,-10,9
2450,-88,-2032,64,-10,-11,11
2455,-88,-2024,64,-11,-11,7
2460,-88,-2016,56,-15,-12,11
2465,-96,-2000,64,-16,-12,9
2470,-88,-2032,32,-19,-14,11
2475,-88,-2024,56,-20,-15,10
2480,-88,-2024,48,-19,-17,12
2485,-96,-2040,8,-20,-19,8
2490,-64,-2040,40,-20,-23,10
2495,-80,-2040,40,-17,-24,6
2500,-88,-2024,16,-16,-24,6
2505,-64,-2040,48,-15,-24,3
2510,-88,-2032,48,-16,-24,4
2515,-88,-2048,56,-15,-21,2
2520,-88,-2040,32,-15,-19,4
2525,-96,-2024,56,-17,-16,2
2530,-88,-2024,48,-16,-13,4
2535,-88,-2024,32,-16,-12,1
2540,-88,-2000,40,-16,-13,1
2545,-80,-2000,40,-17,-12,-2
2550,-64,-2016,8,-18,-11,-3
2555,-80,-2000,64,-20,-9,-8
2560,-88,-1976,32,-23,-7,-8
2565,-72,-2000,32,-26,-7,-12
2570,-80,-2000,8,-30,-9,-13
2575,-64,-2000,40,-33,-11,-17
2580,-56,-1984,40,-38,-10,-16
2585,-72,-1992,0,-47,-10,-19
2590,-64,-1992,32,-57,-7,-18
2595,-72,-2008,40,-65,-4,-23
2600,-64,-2008,16,-75,-3,-22
2605,-80,-2000,0,-79,2,-26
2610,-80,-2016,16,-81,6,-25
2615,-64,-2008,16,-79,10,-30
2620,-88,-2008,48,-75,15,-29
2625,-72,-2000,40,-71,20,-31
2630,-72,-2032,16,-68,25,-28
2635,-80,-2016,40,-63,31,-30
2640,-72,-2024,-8,-57,35,-28
2645,-72,-2048,-16,-54,39,-29
2650,-64,-2056,16,-50,44,-25
2655,-64,-2040,32,-46,48,-26
2660,-64,-2056,40,-44,53,-22
2665,-64,-2040,16,-43,57,-23
2670,-40,-2072,8,-41,58,-20
2675,-80,-2040,56,-39,62,-23
2680,-64,-2048,32,-35,63,-22
2685,-56,-2048,24,-30,64,-26
2690,-72,-2032,24,-26,64,-26
2695,-56,-2024,32,-23,66,-29
2700,-48,-2024,56,-21,68,-28
2705,-48,-2024,0,-18,68,-30
2710,-64,-2024,48,-17,70,-27
2715,-48,-2000,64,-16,71,-32
2720,-32,-2016,48,-17,72,-29
2725,-64,-2024,16,-19,73,-30
2730,-48,-2040,64,-22,74,-29
2735,-48,-2048,16,-26,75,-31
2740,-56,-2008,56,-30,79,-28
2745,-56,-2024,72,-33,82,-30
2750,-72,-2016,40,-35,84,-29
2755,-72,-2040,64,-35,88,-31
2760,-64,-2008,64,-35,90,-30
2765,-88,-2032,40,-35,91,-32
2770,-64,-2024,48,-33,92,-30
2775,-88,-2032,72,-34,93,-31
2780,-72,-2024,64,-32,93,-29
2785,-80,-2040,32,-32,92,-32
2790,-80,-2032,64,-31,91,-28
2795,-80,-2048,48,-28,94,-31
2800,-64,-2064,80,-26,96,-29
2805,-64,-2064,56,-21,99,-32
2810,-48,-2064,64,-15,101,-32
2815,-64,-2088,64,-11,104,-32
2820,-56,-2080,88,-4,107,-30
2825,-56,-2088,96,4,112,-29
2830,-80,-2080,64,12,112,-28
2835,-72,-2080,64,21,113,-26
2840,-48,-2104,72,27,116,-21
2845,-56,-2104,88,34,118,-20
2850,-88,-2104,64,41,119,-15
2855,-88,-2096,80,46,119,-13
2860,-88,-2104,72,55,121,-9
2865,-72,-2112,72,62,123,-6
2870,-96,-2104,80,67,127,0
2875,-88,-2072,72,69,130,3
2880,-104,-2072,80,67,143,7
2885,-72,-2048,64,60,147,5
2890,-80,-2032,72,54,147,2
2895,-80,-2024,72,50,146,-2
2900,-64,-2024,64,42,143,-4
2905,-72,-2024,64,32,138,-7
2910,-88,-2032,48,22,134,-8
2915,-96,-2032,48,13,128,-8
2920,-88,-2024,64,6,121,-9
2925,-72,-2032,64,5,107,-8
2930,-112,-1992,48,-1,97,-8
2935,-96,-2008,48,-6,91,-9
2940,-96,-2000,40,-10,86,-7
2945,-104,-2000,56,-14,87,-7
2950,-96,-2000,56,-18,88,-5
2955,-112,-2016,72,-21,90,-4
2960,-88,-2000,48,-23,90,-3
2965,-72,-2016,64,-22,89,-6
2970,-96,-2024,48,-22,89,-6
2975,-88,-2040,48,-23,86,-7
2980,-72,-2040,8,-22,83,-9
2985,-80,-2040,48,-21,79,-11
2990,-96,-2016,40,-21,75,-12
2995,-64,-2064,40,-20,73,-12
3000,-64,-2040,16,-19,74,-13
3005,-80,-2048,48,-18,74,-13
3010,-56,-2040,32,-15,76,-14
3015,-72,-2032,64,-13,74,-13
3020,-64,-2032,8,-8,72,-13
3025,-64,-2032,24,-5,70,-15
3030,-64,-2016,32,-5,69,-14
3035,-48,-2032,16,-3,70,-13
3040,-64,-2024,16,-3,72,-15
3045,-64,-2008,0,-4,71,-13
3050,-80,-1992,8,-5,74,-15
3055,-96,-2000,0,-7,75,-14
3060,-64,-2008,0,-11,77,-16
3065,-56,-2024,32,-14,78,-14
3070,-64,-2000,8,-19,77,-15
3075,-80,-2024,40,-21,77,-15
3080,-80,-2000,32,-26,76,-15
3085,-48,-2016,48,-28,76,-14
3090,-80,-2024,0,-32,76,-14
3095,-48,-2016,16,-33,75,-12
3100,-72,-2008,40,-33,74,-11
3105,-72,-2016,8,-34,74,-9
3110,-64,-2024,64,-34,74,-9
3115,-80,-2024,24,-32,76,-6
3120,-48,-2040,24,-32,76,-8
3125,-40,-2008,56,-34,78,-6
3130,-56,-2024,48,-32,78,-7
3135,-64,-2016,-8,-32,79,-5
3140,-64,-2024,8,-32,79,-6
3145,-56,-2032,40,-30,81,-3
3150,-48,-2032,40,-31,83,-3
3155,-64,-2040,24,-32,83,0
3160,-64,-2024,56,-33,83,0
3165,-56,-2032,0,-35,83,3
3170,-64,-2024,16,-34,83,1
3175,-56,-2032,16,-34,82,3
3180,-48,-2024,32,-35,81,4
3185,-72,-2000,16,-36,84,6
3190,-40,-2000,0,-38,87,5
3195,-40,-1992,16,-39,91,9
3200,-32,-2000,24,-42,97,7
3205,-64,-1992,40,-44,100,10
3210,-64,-2016,40,-47,103,9
3215,-72,-1984,32,-48,104,11
3220,-56,-2008,32,-50,104,9
3225,-56,-2008,16,-52,104,12
3230,-40,-2008,40,-55,104,10
3235,-56,-2024,0,-57,103,12
3240,-64,-2016,0,-62,104,9
3245,-64,-2024,-8,-67,103,12
3250,-80,-2016,8,-70,103,10
3255,-72,-2032,-16,-75,100,15
3260,-64,-2024,-8,-80,101,12
3265,-56,-2032,-32,-85,99,12
3270,-80,-2032,8,-86,97,11
3275,-64,-2008,-48,-88,95,14
3280,-80,-2008,0,-87,94,13
3285,-56,-2016,16,-85,95,15
3290,-48,-2016,0,-82,94,13
3295,-48,-2048,-8,-77,95,16
3300,-40,-2032,24,-68,97,15
3305,-24,-2040,24,-61,100,14
3310,-56,-2056,24,-51,102,12
3315,-40,-2072,48,-38,106,15
3320,-48,-2088,32,-24,106,13
3325,-40,-2088,0,-10,110,16
3330,-48,-2080,24,5,111,14
3335,-64,-2088,32,20,113,16
3340,-64,-2088,48,34,115,13
3345,-80,-2096,-8,48,119,15
3350,-96,-2088,24,60,118,11
3355,-80,-2088,8,71,119,12
3360,-80,-2080,8,80,120,9
3365,-88,-2096,-16,87,119,12
3370,-88,-2096,-24,94,117,10
3375,-88,-2088,8,98,118,10
3380,-72,-2072,-16,99,119,4
3385,-88,-2072,8,97,121,0
3390,-72,-2072,0,94,125,-7
3395,-72,-2056,-16,91,129,-8
3400,-48,-2056,8,85,133,-16
3405,-40,-2016,-8,80,135,-19
3410,-24,-2024,-16,74,134,-25
3415,-32,-1992,8,70,133,-28
3420,-8,-1984,0,66,132,-36
3425,-32,-1992,8,58,132,-37
3430,-24,-1960,24,53,130,-42
3435,-64,-1968,16,46,132,-43
3440,-56,-1960,40,38,137,-46
3445,-40,-1976,64,26,143,-44
3450,-64,-1976,40,15,149,-46
3455,-80,-1976,48,6,156,-47
3460,-48,-1984,0,-4,165,-50
3465,-56,-1952,16,-16,175,-48
3470,-40,-1968,32,-31,185,-50
3475,-48,-1968,8,-45,192,-50
3480,-48,-1952,-40,-57,198,-54
3485,-56,-1952,0,-70,200,-55
3490,-24,-1952,-32,-81,201,-56
3495,-40,-1952,-32,-90,201,-54
3500,-40,-1952,-40,-96,203,-58
3505,-64,-1944,-40,-107,204,-55
3510,-72,-1928,-80,-116,204,-55
3515,-40,-1960,-88,-126,204,-53
3520,-24,-1944,-88,-134,206,-56
3525,-56,-1976,-80,-143,210,-58
3530,-48,-2000,-96,-151,212,-60
3535,-64,-1984,-112,-154,213,-60
3540,-56,-1992,-120,-148,214,-62
3545,-64,-2000,-144,-144,213,-63
3550,-40,-1992,-120,-137,211,-67
3555,-24,-2008,-112,-128,209,-67
3560,-32,-1992,-112,-119,212,-68
3565,-32,-1952,-144,-116,215,-72
3570,8,-1960,-160,-116,221,-77
3575,48,-1944,-152,-114,228,-76
3580,16,-1928,-152,-115,235,-82
3585,-8,-1896,-152,-117,239,-85
3590,48,-1912,-168,-118,246,-89
3595,160,-1976,0,-121,250,-91
3600,48,-1976,-304,-125,253,-95
3605,40,-1880,-184,-135,256,-98
3610,64,-1856,-112,-140,258,-105
3615,64,-1920,-136,-141,261,-107
3620,40,-1968,-88,-143,272,-112
3625,8,-1888,-48,-148,277,-114
3630,40,-1904,-112,-157,281,-116
3635,-24,-1880,-144,-165,290,-114
3640,64,-1888,-112,-172,298,-106
3645,-48,-1904,-128,-181,308,-100
3650,-64,-1840,-112,-198,314,-100
3655,-64,-1944,-24,-223,319,-101
3660,-80,-1920,-96,-238,326,-95
3665,-152,-1936,-24,-242,326,-83
3670,-64,-1888,-168,-240,323,-75
3675,-104,-1880,16,-241,319,-71
3680,-128,-1920,-64,-249,314,-71
3685,-56,-1912,-80,-258,307,-64
3690,-88,-1944,-80,-259,300,-62
3695,-56,-2000,-112,-259,291,-61
3700,-32,-2024,-120,-263,286,-61
3705,-24,-2032,-88,-268,278,-62
3710,-32,-2024,-112,-273,272,-65
3715,-8,-1984,-160,-270,266,-62
3720,48,-2056,-80,-258,262,-63
3725,-32,-1936,-192,-243,257,-60
3730,32,-2016,-88,-227,253,-55
3735,32,-2024,-80,-213,248,-52
3740,-16,-1992,-208,-200,241,-49
3745,16,-1984,-144,-194,236,-49
3750,-40,-1896,-96,-195,227,-47
3755,-40,-1912,-152,-199,220,-49
3760,24,-1904,-72,-211,213,-52
3765,32,-1896,-144,-217,208,-51
3770,-16,-1952,-96,-228,204,-56
3775,-24,-1984,-96,-254,201,-65
3780,-72,-1864,-184,-282,197,-70
3785,64,-1864,-96,-296,192,-69
3790,-56,-1904,-208,-304,184,-61
3795,8,-1888,-88,-312,173,-57
3800,24,-1880,-120,-326,161,-55
3805,-104,-1928,-88,-344,149,-56
3810,-128,-1840,-160,-367,139,-54
3815,-64,-1872,-224,-385,129,-49
3820,24,-1888,-168,-407,123,-45
3825,-128,-1928,-128,-430,114,-42
3830,-40,-1968,-24,-451,109,-39
3835,-32,-2016,-80,-470,102,-39
3840,-40,-2032,-168,-488,95,-37
3845,-40,-2048,-136,-497,86,-39
3850,-8,-2024,-176,-500,73,-41
3855,40,-2040,48,-504,60,-46
3860,8,-2064,-208,-507,46,-47
3865,-32,-2048,-232,-508,34,-49
3870,-16,-2064,-224,-503,21,-48
3875,-24,-2072,-232,-496,8,-49
3880,-56,-2088,-208,-493,-7,-50
3885,8,-2088,-184,-487,-19,-52
3890,-64,-2064,-224,-479,-30,-49
3895,-96,-2104,-288,-477,-41,-54
3900,0,-2096,-216,-485,-50,-56
3905,40,-2080,-296,-488,-58,-56
3910,-32,-2072,-384,-483,-65,-51
3915,-8,-2112,-216,-473,-72,-50
3920,88,-2080,-344,-459,-76,-47
3925,64,-2096,-320,-444,-79,-51
3930,80,-2104,-272,-425,-76,-50
3935,112,-2072,-320,-407,-72,-54
3940,-32,-2056,-336,-393,-69,-55
3945,64,-2040,-432,-383,-65,-59
3950,64,-2016,-376,-383,-61,-60
3955,16,-1968,-312,-391,-56,-62
3960,56,-1904,-432,-408,-52,-61
3965,56,-1952,-336,-431,-46,-64
3970,32,-2000,-408,-457,-41,-60
3975,64,-1912,-456,-485,-37,-60
3980,16,-2016,-408,-503,-34,-53
3985,24,-1960,-360,-518,-34,-56
3990,32,-1968,-632,-532,-34,-55
3995,40,-2072,-472,-538,-34,-56
4000,32,-2040,-344,-535,-31,-51
4005,128,-2088,-392,-526,-21,-50
4010,40,-2056,-312,-504,-9,-49
4015,40,-2016,-344,-464,6,-58
4020,40,-2016,-264,-422,21,-62
4025,56,-2024,-256,-384,33,-64
4030,40,-2000,-264,-355,37,-55
4035,16,-1976,-296,-333,28,-47
4040,8,-1984,-296,-321,17,-40
4045,80,-1880,-288,-324,8,-38
4050,48,-1840,-256,-334,-1,-31
4055,-8,-1872,-384,-351,-10,-31
4060,-32,-1912,-304,-376,-20,-29
4065,16,-1800,-400,-407,-35,-32
4070,24,-1848,-376,-438,-55,-29
4075,-40,-1952,-344,-476,-75,-30
4080,-64,-1864,-312,-520,-91,-27
4085,-16,-1928,-368,-570,-109,-32
4090,-80,-1936,-480,-600,-119,-34
4095,-80,-1944,-504,-624,-122,-34
4100,-48,-2048,-384,-642,-117,-28
4105,-16,-2088,-496,-653,-105,-27
4110,32,-2088,-448,-645,-93,-17
4115,-64,-2072,-416,-621,-79,-13
4120,-32,-2000,-568,-587,-63,-2
4125,40,-2032,-520,-548,-42,5
4130,64,-2048,-560,-501,-22,15
4135,128,-2064,-448,-471,-10,17
4140,0,-1992,-512,-457,0,20
4145,64,-1952,-440,-456,6,15
4150,88,-1976,-448,-467,2,10
4155,88,-1952,-440,-487,-3,0
4160,32,-2024,-464,-508,-12,-5
4165,56,-1968,-456,-531,-24,-17
4170,88,-1896,-600,-550,-37,-25
4175,32,-2040,-496,-563,-51,-38
4180,24,-2032,-512,-573,-64,-42
4185,16,-2024,-496,-574,-74,-49
4190,-8,-2032,-496,-571,-80,-51
4195,8,-2024,-544,-565,-82,-58
4200,8,-2144,-456,-563,-77,-60
4205,48,-2024,-576,-564,-71,-64
4210,24,-2008,-552,-566,-66,-65
4215,-64,-1936,-552,-574,-59,-70
4220,32,-2032,-528,-586,-54,-72
4225,16,-1952,-592,-606,-54,-76
4230,-32,-1976,-616,-624,-57,-79
4235,-56,-1936,-512,-643,-61,-83
4240,-16,-1856,-608,-659,-67,-82
4245,-88,-1944,-696,-673,-76,-83
4250,-64,-2008,-584,-677,-87,-76
4255,24,-1968,-720,-674,-98,-70
4260,-48,-1968,-640,-668,-109,-59
4265,0,-1984,-624,-664,-119,-51
4270,-16,-2016,-672,-662,-131,-41
4275,-24,-2016,-688,-661,-138,-37
4280,16,-2032,-624,-662,-139,-30
4285,-40,-1896,-656,-663,-136,-30
4290,0,-1984,-664,-664,-130,-27
4295,64,-1912,-744,-667,-121,-30
4300,56,-1928,-536,-664,-110,-30
4305,136,-1920,-768,-665,-100,-36
4310,136,-1888,-768,-666,-90,-40
4315,160,-1920,-608,-671,-79,-49
4320,192,-1736,-696,-682,-73,-50
4325,120,-1920,-632,-697,-66,-58
4330,80,-1992,-712,-715,-59,-59
4335,120,-1848,-776,-730,-54,-60
4340,64,-1944,-744,-734,-52,-60
4345,24,-1952,-784,-733,-57,-62
4350,40,-1952,-800,-729,-62,-62
4355,16,-1960,-800,-725,-70,-66
4360,-32,-1936,-824,-718,-79,-66
4365,-72,-1976,-776,-705,-88,-67
4370,-8,-1992,-840,-688,-94,-61
4375,-32,-1920,-792,-672,-100,-59
4380,-32,-1920,-920,-656,-104,-51
4385,0,-1888,-936,-641,-107,-46
4390,-8,-2008,-864,-627,-109,-37
4395,8,-1976,-856,-615,-114,-30
4400,0,-1968,-864,-606,-118,-22
4405,16,-1968,-872,-602,-123,-14
4410,-64,-1824,-1160,-598,-127,-6
4415,-56,-1968,-904,-596,-131,-4
4420,-8,-1944,-872,-589,-133,5
4425,-64,-1896,-896,-575,-131,10
4430,-8,-1848,-912,-565,-127,17
4435,-128,-1952,-848,-558,-121,22
4440,0,-1840,-912,-549,-116,27
4445,-16,-1856,-752,-544,-107,32
4450,-24,-1944,-960,-541,-95,38
4455,-32,-1888,-816,-538,-83,43
4460,8,-1864,-792,-534,-69,47
4465,-40,-1848,-832,-527,-56,47
4470,-16,-1856,-856,-524,-43,49
4475,16,-1904,-888,-524,-29,47
4480,-8,-1864,-928,-522,-13,45
4485,-24,-1912,-888,-523,0,41
4490,-48,-1872,-840,-530,11,37
4495,-8,-1944,-928,-542,17,31
4500,-8,-1928,-912,-544,22,21
4505,-32,-1920,-904,-530,32,7
4510,-48,-1944,-960,-518,35,1
4515,-48,-1912,-952,-510,38,-2
4520,-24,-1912,-984,-503,37,-7
4525,-24,-1920,-976,-494,35,-10
4530,-8,-2008,-952,-480,32,-12
4535,-24,-1960,-1000,-465,35,-14
4540,-32,-1936,-984,-445,37,-14
4545,-48,-1976,-984,-423,43,-13
4550,-32,-1952,-984,-401,51,-12
4555,-80,-1920,-992,-378,61,-12
4560,-24,-1952,-984,-360,72,-12
4565,-32,-1944,-968,-339,81,-13
4570,-32,-1936,-1000,-317,92,-12
4575,-40,-1936,-960,-297,101,-14
4580,-88,-1952,-952,-270,109,-13
4585,-64,-1936,-960,-245,112,-13
4590,-88,-1944,-976,-220,113,-10
4595,-88,-1960,-968,-204,108,-7
4600,-56,-1976,-968,-188,96,0
4605,-72,-1976,-992,-171,85,1
4610,-64,-1976,-992,-156,75,3
4615,-48,-1976,-1056,-140,67,5
4620,-56,-1984,-1032,-115,58,8
4625,-40,-1960,-904,-88,52,6
4630,-72,-1936,-1008,-56,46,9
4635,-64,-1928,-1000,-24,44,9
4640,-80,-1888,-1032,11,45,12
4645,-56,-1864,-1024,36,46,13
4650,-72,-1864,-984,54,50,13
4655,-80,-1824,-984,63,51,14
4660,-88,-1824,-976,71,55,16
4665,-88,-1800,-968,72,57,16
4670,-88,-1800,-976,73,57,20
4675,-88,-1808,-968,74,54,21
4680,-88,-1808,-992,78,52,27
4685,-64,-1808,-992,78,49,30
4690,-64,-1832,-952,82,47,33
4695,-80,-1832,-984,85,43,34
4700,-72,-1840,-1008,87,40,39
4705,-64,-1856,-1016,87,38,39
4710,-80,-1872,-1056,85,33,42
4715,-56,-1880,-1048,83,26,42
4720,-72,-1864,-1072,84,23,45
4725,-56,-1880,-1096,84,18,46
4730,-72,-1864,-1120,86,13,48
4735,-56,-1856,-1112,90,9,51
4740,-80,-1864,-1096,97,9,56
4745,-56,-1848,-1096,100,11,56
4750,-128,-1848,-1072,107,17,62
4755,-64,-1848,-1128,121,14,67
4760,-64,-1832,-1104,119,27,69
4765,-48,-1888,-1136,109,38,63
4770,-72,-1856,-1104,104,48,65
4775,-80,-1864,-1096,102,54,66
4780,-64,-1888,-1136,102,57,68
4785,-48,-1920,-1096,102,61,68
4790,24,-1872,-1080,103,64,72
4795,-64,-1904,-1112,102,68,71
4800,-72,-1896,-1112,103,72,75
4805,-56,-1888,-1080,103,76,75
4810,-56,-1888,-1120,107,78,77
4815,-80,-1872,-1088,112,81,75
4820,-88,-1800,-1008,118,86,77
4825,40,-1784,-1072,121,89,75
4830,-88,-1888,-1104,120,92,76
4835,-88,-1880,-1104,116,98,74
4840,-80,-1888,-1088,112,104,78
4845,-88,-1888,-1112,106,109,76
4850,-72,-1904,-1104,99,115,81
4855,-88,-1928,-1144,91,121,80
4860,-80,-1896,-1096,91,127,83
4865,-72,-1920,-1128,98,134,84
4870,-88,-1880,-1144,113,140,90
4875,-64,-1912,-1104,123,148,91
4880,-96,-1880,-1088,127,156,95
4885,-80,-1872,-1104,128,162,93
4890,-80,-1872,-1056,129,169,93
4895,-80,-1896,-1080,131,174,89
4900,-80,-1864,-1072,133,180,89
4905,-96,-1848,-1088,135,184,85
4910,-80,-1904,-1088,135,189,87
4915,-80,-1888,-1072,134,194,83
4920,-88,-1896,-1112,133,196,86
4925,-72,-1872,-1096,132,200,84
4930,-80,-1880,-1088,131,201,89
4935,-112,-1872,-1080,129,208,87
4940,-96,-1880,-1072,127,212,92
4945,-96,-1880,-1096,126,215,87
4950,-144,-1736,-1080,124,221,89
4955,-112,-1848,-1064,120,222,86
4960,-128,-1848,-1072,116,225,90
4965,-136,-1848,-1040,112,228,89
4970,-120,-1816,-1056,105,230,93
4975,-144,-1816,-1024,97,231,92
4980,-120,-1824,-1032,88,233,96
4985,-128,-1808,-1008,77,233,94
4990,-96,-1840,-1032,63,239,95
4995,-120,-1840,-1016,49,242,94
5000,-136,-1808,-1048,40,246,98
5005,-144,-1832,-1032,29,250,98
5010,-144,-1832,-984,22,256,98
5015,-136,-1824,-1040,18,263,95
5020,-136,-1848,-1032,14,269,96
5025,-128,-1864,-984,9,275,91
5030,-112,-1840,-1040,8,282,89
5035,-136,-1840,-1024,4,290,82
5040,-96,-1832,-1080,-1,298,81
5045,-96,-1816,-1040,-8,306,76
5050,-104,-1840,-1024,-13,312,77
5055,-96,-1832,-1000,-20,319,75
5060,-128,-1824,-984,-26,323,75
5065,-104,-1816,-1048,-31,326,72
5070,-96,-1832,-1032,-39,330,74
5075,-96,-1824,-1024,-47,336,74
5080,-96,-1816,-1016,-55,343,77
5085,-104,-1840,-1016,-63,350,74
5090,-88,-1840,-1032,-68,359,72
5095,-96,-1840,-1016,-73,368,68
5100,-96,-1872,-1040,-75,379,68
5105,-96,-1880,-1016,-74,387,62
5110,-96,-1848,-1032,-71,398,60
5115,-96,-1856,-1048,-67,408,56
5120,-96,-1872,-1040,-63,415,56
5125,-96,-1840,-1064,-58,423,53
5130,-112,-1824,-1040,-50,432,53
5135,-96,-1840,-1016,-43,440,52
5140,-96,-1840,-1016,-35,444,53
5145,-112,-1824,-1008,-29,452,53
5150,-144,-1816,-1008,-25,456,55
5155,-120,-1792,-992,-21,459,53
5160,-168,-1784,-1024,-20,462,55
5165,-184,-1784,-1000,-20,462,55
5170,-184,-1768,-960,-23,461,59
5175,-160,-1808,-976,-28,457,60
5180,-176,-1808,-968,-27,449,63
5185,-160,-1816,-944,-26,445,64
5190,-168,-1808,-944,-22,440,64
5195,-176,-1840,-952,-15,436,61
5200,-184,-1848,-960,-11,433,61
5205,-176,-1848,-968,0,435,58
5210,-168,-1848,-960,12,437,56
5215,-176,-1832,-992,28,442,54
5220,-168,-1776,-968,42,451,54
5225,-168,-1824,-984,56,459,53
5230,-176,-1776,-960,66,467,52
5235,-144,-1784,-960,75,474,50
5240,-160,-1760,-952,90,479,52
5245,-160,-1760,-936,101,488,50
5250,-168,-1728,-952,111,496,51
5255,-160,-1712,-904,118,504,47
5260,-160,-1720,-936,122,511,46
5265,-112,-1720,-944,127,516,42
5270,-152,-1688,-904,128,522,41
5275,-168,-1688,-904,128,526,38
5280,-192,-1672,-880,130,527,34
5285,-152,-1648,-880,128,525,31
5290,-160,-1640,-872,126,523,31
5295,-136,-1608,-880,123,523,30
5300,-152,-1672,-896,120,523,29
5305,-168,-1608,-856,114,523,29
5310,-152,-1648,-856,107,523,28
5315,-152,-1608,-856,98,525,28
5320,-104,-1648,-872,90,524,27
5325,-112,-1656,-888,82,525,27
5330,-136,-1656,-864,72,529,27
5335,-112,-1680,-856,63,530,27
5340,-112,-1704,-880,60,529,26
5345,-104,-1696,-864,63,531,25
5350,-112,-1712,-904,74,533,25
5355,-136,-1680,-840,87,537,25
5360,-144,-1704,-864,101,540,23
5365,-128,-1680,-912,116,546,22
5370,-144,-1672,-864,127,550,20
5375,-128,-1712,-856,134,553,19
5380,-152,-1688,-880,143,561,19
5385,-168,-1680,-848,150,567,17
5390,-192,-1680,-840,151,574,14
5395,-176,-1688,-856,150,576,13
5400,-200,-1704,-816,151,578,15
5405,-216,-1712,-888,150,575,16
5410,-224,-1728,-856,152,568,15
5415,-224,-1712,-880,149,556,17
5420,-216,-1752,-888,147,545,16
5425,-264,-1728,-856,146,529,18
5430,-256,-1752,-848,145,513,15
5435,-280,-1784,-816,151,493,9
5440,-296,-1768,-808,165,471,4
5445,-264,-1816,-856,187,448,-1
5450,-272,-1792,-848,209,428,-10
5455,-264,-1816,-832,230,414,-15
5460,-280,-1800,-920,248,404,-25
5465,-280,-1760,-904,266,398,-32
5470,-296,-1736,-872,285,398,-46
5475,-264,-1696,-904,303,402,-53
5480,-288,-1664,-896,313,409,-65
5485,-272,-1656,-840,319,416,-75
5490,-312,-1616,-848,319,420,-89
5495,-320,-1600,-792,314,420,-101
5500,-320,-1608,-776,310,414,-114
5505,-368,-1608,-744,297,404,-124
5510,-392,-1608,-696,282,383,-138
5515,-384,-1648,-736,258,361,-146
5520,-400,-1632,-744,229,333,-152
5525,-432,-1616,-784,204,313,-152
5530,-432,-1608,-784,183,300,-153
5535,-400,-1648,-784,162,287,-151
5540,-424,-1592,-808,141,280,-153
5545,-416,-1600,-784,120,275,-151
5550,-432,-1592,-784,111,269,-154
5555,-400,-1576,-792,106,266,-154
5560,-384,-1640,-784,102,263,-159
5565,-392,-1632,-768,111,257,-159
5570,-360,-1624,-824,137,255,-164
5575,-400,-1648,-768,158,257,-163
5580,-360,-1688,-760,196,250,-171
5585,-360,-1712,-728,245,246,-177
5590,-360,-1696,-744,306,248,-189
5595,-328,-1648,-712,368,249,-196
5600,-344,-1648,-744,429,251,-208
5605,-352,-1584,-736,497,268,-208
5610,-328,-1568,-712,569,281,-208
5615,-352,-1584,-656,655,284,-207
5620,-328,-1536,-696,733,276,-206
5625,-344,-1560,-616,808,267,-208
5630,-400,-1616,-632,897,256,-226
5635,-384,-1616,-648,996,249,-245
5640,-360,-1688,-624,1088,241,-268
5645,-352,-1656,-640,1190,230,-301
5650,-344,-1680,-536,1284,223,-343
5655,-312,-1648,-512,1387,204,-389
5660,-240,-1640,-528,1484,184,-426
5665,-248,-1584,-480,1537,173,-460
5670,-248,-1584,-440,1581,177,-496
5675,-216,-1528,-416,1632,188,-534
5680,-192,-1440,-352,1676,199,-576
5685,-192,-1384,-328,1696,204,-608
5690,-224,-1344,-320,1684,197,-640
5695,-192,-1304,-280,1646,184,-664
5700,-176,-1288,-224,1598,177,-685
5705,-168,-1232,-240,1491,169,-701
5710,-160,-1184,-216,1370,162,-719
5715,-160,-1152,-184,1239,150,-735
5720,-176,-1128,-184,1120,132,-755
5725,-128,-1088,-136,1000,107,-759
5730,-120,-1088,-104,874,65,-767
5735,-152,-1056,-160,742,14,-783
5740,-168,-1048,-136,604,-30,-812
5745,-144,-1064,-168,469,-54,-852
5750,-160,-1064,-224,319,-60,-901
5755,-120,-1072,-232,187,-41,-955
5760,-96,-1112,-272,57,6,-1027
5765,-72,-1160,-344,-51,77,-1098
5770,-32,-1176,-344,-150,160,-1182
5775,56,-1144,-384,-264,250,-1259
5780,96,-1128,-424,-391,348,-1341
5785,160,-1160,-432,-520,444,-1409
5790,192,-1136,-440,-641,525,-1479
5795,224,-1160,-456,-760,611,-1554
5800,296,-1168,-440,-836,675,-1615
5805,296,-1160,-464,-887,740,-1680
5810,280,-1104,-464,-919,800,-1751
5815,304,-1088,-488,-953,858,-1802
5820,320,-1056,-552,-1004,893,-1833
5825,384,-1120,-488,-1057,906,-1845
5830,280,-1040,-584,-1106,914,-1868
5835,336,-880,-688,-1186,934,-1875
5840,424,-1072,-680,-1318,996,-1884
5845,616,-984,-768,-1461,1016,-1927
5850,424,-1040,-856,-1587,1027,-1974
5855,544,-968,-896,-1711,1011,-1968
5860,544,-1000,-824,-1848,1001,-1947
5865,704,-1088,-744,-1955,991,-1903
5870,432,-1024,-552,-2004,1025,-1875
5875,544,-912,-408,-1998,1077,-1805
5880,648,-928,-176,-1981,1171,-1715
5885,920,-1176,-48,-1908,1236,-1547
5890,760,-1136,-184,-1702,1260,-1462
5895,936,-1304,-304,-1393,1297,-1389
5900,936,-1344,-352,-1009,1357,-1366
5905,912,-1200,-696,-709,1464,-1399
5910,992,-1384,-712,-536,1520,-1449
5915,928,-1488,-768,-388,1542,-1463
5920,1072,-1624,-696,-314,1546,-1444
5925,1208,-1632,-896,-278,1599,-1463
5930,1384,-1624,-1064,-261,1708,-1519
5935,1680,-1592,-1176,-230,1889,-1567
5940,1872,-1800,-1280,-199,2026,-1645
5945,2304,-1976,-1328,-145,2071,-1740
5950,2832,-2144,-1408,-74,2039,-1910
5955,3312,-2248,-1512,3,1989,-2099
5960,3704,-2456,-1680,51,1977,-2305
5965,4360,-3000,-1968,38,1994,-2523
5970,5032,-3552,-2304,4,2050,-2791
5975,5776,-4104,-2296,-33,2183,-3096
5980,6576,-4576,-2280,58,2357,-3505
5985,7496,-5184,-2176,240,2378,-3846
5990,7760,-5544,-1528,535,2241,-4226
5995,6912,-5280,-1200,942,1858,-4540
6000,5560,-4792,-720,1294,1204,-4600
6005,3496,-3792,-240,1466,473,-4365
6010,2040,-3056,536,1371,-117,-3984
6015,520,-2056,1248,1182,-500,-3592
6020,-424,-1080,1536,969,-665,-3322
6025,-488,-184,1288,797,-631,-3211
6030,-336,456,920,670,-447,-3236
6035,144,832,128,495,-198,-3176
6040,1096,808,-648,194,81,-3020
6045,2168,224,-904,-113,362,-2871
6050,2688,-232,-1008,-246,518,-2768
6055,3496,-752,-1168,-250,522,-2557
6060,4048,-1304,-960,-277,428,-2322
6065,4104,-1712,-456,-307,293,-2188
6070,3592,-2120,72,-235,142,-2068
6075,3024,-2328,536,34,139,-1872
6080,2784,-2280,872,310,224,-1661
6085,2488,-2144,984,584,329,-1539
6090,2328,-1896,856,881,436,-1477
6095,2096,-1496,672,1169,549,-1479
6100,1880,-1088,328,1400,615,-1509
6105,1728,-720,96,1545,664,-1540
6110,1688,-272,-136,1642,718,-1580
6115,1640,144,-272,1699,795,-1608
6120,1608,416,-432,1684,893,-1580
6125,1576,648,-488,1574,922,-1536
6130,1648,872,-472,1400,925,-1519
6135,1688,920,-384,1223,957,-1526
6140,1584,1000,-448,1082,981,-1517
6145,1728,952,-528,948,991,-1490
6150,1848,752,-424,779,1024,-1460
6155,1920,624,-208,618,1051,-1440
6160,2024,496,-120,502,1105,-1356
6165,2040,360,-64,405,1161,-1267
6170,2160,224,-16,343,1169,-1183
6175,2176,192,32,271,1195,-1093
6180,2280,128,168,171,1255,-987
6185,2408,104,320,107,1331,-876
6190,2568,112,496,85,1418,-775
6195,2576,168,456,95,1541,-686
6200,2616,208,360,70,1602,-616
6205,2656,168,392,2,1597,-586
6210,2640,296,368,-100,1592,-563
6215,2632,232,456,-231,1527,-556
6220,2600,64,488,-277,1432,-541
6225,2456,168,280,-246,1313,-570
6230,2288,184,336,-328,1137,-660
6235,2160,192,432,-467,987,-682
6240,2208,-64,264,-531,934,-620
6245,2184,-224,200,-536,953,-611
6250,2256,-288,208,-539,981,-603
6255,2192,-192,256,-482,1016,-537
6260,2016,-112,160,-378,942,-505
6265,1784,-24,64,-312,845,-509
6270,1424,152,-152,-186,911,-504
6275,1296,208,-8,-18,1100,-456
6280,1744,40,272,-5,1148,-390
6285,2280,-168,512,-173,1034,-330
6290,2504,-288,624,-363,790,-293
6295,2560,-392,584,-469,462,-286
6300,2520,-400,592,-475,103,-270
6305,2464,-360,544,-439,-134,-250
6310,2464,-304,488,-450,-319,-218
6315,2408,-280,440,-483,-470,-202
6320,2480,-512,488,-476,-601,-202
6325,2288,-640,496,-308,-631,-264
6330,2088,-408,304,-50,-583,-312
6335,1944,-136,152,102,-520,-306
6340,1912,-48,168,106,-464,-261
6345,1880,32,96,55,-431,-230
6350,1928,-8,152,25,-407,-232
6355,1920,-32,144,38,-381,-235
6360,1960,-144,200,46,-373,-227
6365,2048,-248,216,42,-373,-218
6370,2040,-280,232,40,-368,-205
6375,2008,-296,224,45,-367,-186
6380,1992,-280,216,48,-365,-166
6385,1992,-280,200,38,-363,-146
6390,1992,-304,256,45,-348,-113
6395,2024,-280,232,59,-322,-75
6400,2088,-288,224,61,-319,-31
6405,2064,-200,200,50,-327,6
6410,2160,-224,200,34,-335,31
6415,2176,-208,256,35,-335,41
6420,2176,-200,240,50,-336,40
6425,2184,-216,200,75,-328,26
6430,2160,-256,176,95,-314,26
6435,2240,-304,144,117,-296,34
6440,2208,-304,144,148,-244,54
6445,2192,-264,144,197,-194,68
6450,2224,-320,184,235,-159,96
6455,2344,-296,168,290,-125,97
6460,2224,-216,184,363,-82,76
6465,2216,-208,224,408,-82,73
6470,2224,-200,200,462,-112,83
6475,2120,-72,120,527,-133,99
6480,2248,-200,192,537,-177,140
6485,2144,-120,80,591,-184,159
6490,2008,-24,64,629,-214,177
6495,2016,-128,160,611,-269,185
6500,1984,-72,152,625,-289,214
6505,2040,-144,216,666,-292,229
6510,2040,-80,160,722,-274,250
6515,2168,-192,192,758,-263,291
6520,2104,-96,192,820,-235,311
6525,2112,-160,240,879,-248,294
6530,2016,-16,128,936,-287,279
6535,2072,-88,144,914,-383,288
6540,2104,-80,208,912,-402,331
6545,2032,-16,72,941,-402,351
6550,2176,-80,168,941,-425,378
6555,2064,-16,88,959,-417,399
6560,2216,-96,128,978,-415,425
6565,2176,-16,16,1011,-395,416
6570,2128,24,-40,1015,-354,411
6575,2160,24,-88,976,-310,416
6580,2200,-24,-96,926,-216,445
6585,2128,48,-160,905,-119,470
6590,2200,40,-200,874,-55,495
6595,2264,48,-208,838,17,510
6600,2328,64,-224,805,100,528
6605,2336,120,-272,781,181,534
6610,2392,24,-248,735,228,554
6615,2408,16,-224,719,284,569
6620,2328,40,-184,714,332,582
6625,2272,64,-208,704,360,589
6630,2304,24,-160,654,374,595
6635,2264,8,-144,636,410,603
6640,2232,40,-72,630,444,610
6645,2168,80,-224,607,483,597
6650,2080,80,-248,539,518,580
6655,2144,-64,-232,434,534,578
6660,2152,-248,-208,356,569,591
6665,2232,-384,-240,330,607,598
6670,2224,-496,-264,344,660,588
6675,2152,-464,-304,359,714,554
6680,2128,-480,-352,360,758,525
6685,2128,-440,-376,349,815,493
6690,2080,-464,-328,328,881,467
6695,2040,-472,-256,296,925,448
6700,2032,-448,-200,263,932,444
6705,1992,-448,-152,249,928,431
6710,1952,-456,-136,259,938,423
6715,1888,-440,-48,284,949,420
6720,1824,-384,-32,322,967,423
6725,1800,-416,0,348,988,418
6730,1776,-416,8,370,1014,407
6735,1736,-448,24,370,1039,389
6740,1696,-488,48,352,1051,382
6745,1672,-520,40,332,1062,382
6750,1720,-536,56,308,1052,387
6755,1784,-560,104,282,1030,384
6760,1808,-648,144,267,1000,370
6765,1840,-744,208,267,962,337
6770,1904,-720,248,287,929,302
6775,1936,-728,328,316,905,265
6780,1952,-680,360,348,902,255
6785,1968,-648,392,363,913,258
6790,2024,-632,472,364,935,277
6795,2056,-632,528,358,957,285
6800,2056,-616,584,349,968,296
6805,2048,-632,664,344,968,303
6810,2008,-680,760,357,964,315
6815,1960,-672,848,396,947,318
6820,1920,-704,896,445,929,324
6825,1832,-728,864,497,917,332
6830,1816,-720,912,545,912,340
6835,1792,-704,856,581,916,345
6840,1792,-720,832,607,932,350
6845,1784,-688,808,619,951,354
6850,1784,-672,712,627,974,362
6855,1800,-664,728,635,991,370
6860,1808,-648,712,643,1007,380
6865,1824,-624,728,646,1017,387
6870,1832,-624,712,642,1012,394
6875,1872,-616,720,630,986,391
6880,1856,-608,688,614,956,384
6885,1864,-624,696,594,923,374
6890,1832,-608,712,572,888,370
6895,1800,-632,704,542,854,363
6900,1760,-616,696,503,811,354
6905,1752,-648,744,441,740,346
6910,1728,-696,720,402,695,334
6915,1704,-664,728,390,667,311
6920,1680,-728,784,389,630,289
6925,1656,-680,728,406,599,276
6930,1648,-656,736,417,565,269
6935,1632,-632,704,405,526,255
6940,1632,-632,696,376,486,240
6945,1648,-600,712,340,446,232
6950,1624,-624,776,305,408,219
6955,1648,-664,816,285,378,213
6960,1616,-640,800,273,343,204
6965,1624,-648,840,249,304,193
6970,1640,-648,832,219,265,187
6975,1672,-680,856,191,224,183
6980,1672,-728,840,180,191,179
6985,1632,-696,864,180,163,175
6990,1696,-720,864,193,138,173
6995,1656,-728,896,207,117,167
7000,1656,-720,848,216,103,162
7005,1672,-720,872,220,95,153
7010,1624,-672,880,220,94,144
7015,1640,-672,864,213,93,134
7020,1616,-672,880,203,94,130
7025,1648,-664,896,196,98,131
7030,1656,-640,896,189,103,129
7035,1640,-624,864,183,111,130
7040,1624,-640,872,171,123,127
7045,1640,-664,896,148,134,129
7050,1640,-640,928,120,141,132
7055,1640,-640,912,89,144,134
7060,1680,-632,912,58,134,135
7065,1696,-672,920,36,113,136
7070,1712,-728,904,45,90,140
7075,1712,-704,880,97,80,145
7080,1680,-792,896,179,85,139
7085,1664,-744,816,265,93,135
7090,1680,-624,712,303,72,114
7095,1656,-624,704,262,56,84
7100,1616,-584,696,218,70,68
7105,1608,-592,728,182,89,68
7110,1632,-592,712,150,114,66
7115,1632,-600,712,143,142,66
7120,1656,-584,712,141,164,62
7125,1656,-520,688,121,174,55
7130,1664,-552,712,71,174,41
7135,1712,-600,744,40,185,42
7140,1720,-608,728,49,203,40
7145,1744,-672,744,64,217,36
7150,1712,-656,744,77,218,26
7155,1680,-616,728,79,203,20
7160,1672,-576,688,51,176,5
7165,1648,-608,776,1,155,-12
7170,1656,-592,736,-26,149,-27
7175,1664,-592,768,-38,144,-34
7180,1704,-648,776,-40,131,-34
7185,1704,-648,760,-21,124,-29
7190,1752,-696,760,11,120,-27
7195,1760,-624,752,39,121,-24
7200,1776,-600,720,48,122,-30
7205,1776,-608,680,36,126,-33
7210,1792,-600,776,22,130,-40
7215,1752,-600,768,15,135,-38
7220,1760,-608,792,12,139,-41
7225,1752,-584,784,12,142,-38
7230,1760,-608,800,9,140,-36
7235,1752,-600,824,8,139,-33
7240,1776,-592,824,2,138,-35
7245,1760,-608,832,-4,136,-33
7250,1768,-632,824,-9,135,-36
7255,1744,-624,792,-6,130,-35
7260,1760,-648,816,-2,123,-39
7265,1728,-616,808,4,115,-39
7270,1736,-616,832,7,107,-40
7275,1728,-600,840,10,100,-38
7280,1728,-584,840,12,94,-38
7285,1720,-568,840,14,87,-32
7290,1720,-568,824,14,81,-30
7295,1720,-624,816,13,76,-20
7300,1720,-592,824,19,75,-14
7305,1728,-592,840,13,71,-13
7310,1736,-608,832,5,71,-18
7315,1744,-608,808,5,78,-14
7320,1712,-568,832,6,81,-18
7325,1744,-584,840,3,79,-20
7330,1752,-576,800,4,75,-21
7335,1744,-576,808,5,69,-17
7340,1744,-592,824,7,64,-15
7345,1744,-608,808,6,56,-9
7350,1720,-616,808,6,48,-9
7355,1720,-640,816,8,41,-5
7360,1712,-648,840,11,32,-6
7365,1712,-648,760,12,25,-7
7370,1672,-672,808,10,24,-9
7375,1688,-664,816,5,14,-2
7380,1688,-640,760,7,4,-14
7385,1696,-600,824,16,-6,-22
7390,1664,-584,792,28,-12,-27
7395,1688,-592,784,31,-19,-25
7400,1688,-560,792,34,-24,-27
7405,1696,-584,800,29,-31,-24
7410,1720,-576,816,20,-39,-25
7415,1736,-584,800,15,-40,-20
7420,1728,-576,832,13,-39,-23
7425,1736,-584,832,10,-36,-19
7430,1760,-600,856,6,-34,-20
7435,1776,-600,848,5,-32,-14
7440,1776,-576,816,7,-28,-14
7445,1776,-600,856,10,-24,-9
7450,1784,-608,808,15,-21,-10
7455,1784,-616,816,22,-18,-6
7460,1768,-624,848,24,-19,-6
7465,1744,-600,832,28,-21,-3
7470,1744,-584,848,31,-24,-3
7475,1752,-600,832,31,-28,0
7480,1736,-560,808,34,-32,0
7485,1736,-568,816,34,-34,3
7490,1736,-584,816,30,-35,-1
7495,1744,-568,784,25,-36,2
7500,1752,-576,792,19,-31,3
7505,1768,-576,784,5,-30,7
7510,1768,-592,792,-6,-27,7
7515,1768,-576,760,-13,-21,10
7520,1784,-584,728,-23,-16,5
7525,1776,-608,776,-32,-11,6
7530,1792,-616,744,-35,-2,4
7535,1776,-600,752,-31,6,7
7540,1800,-624,736,-29,10,7
7545,1784,-632,744,-27,13,8
7550,1800,-632,744,-31,13,4
7555,1808,-616,728,-29,12,5
7560,1800,-632,768,-26,13,1
7565,1776,-616,752,-21,12,0
7570,1784,-616,768,-20,7,-2
7575,1768,-592,752,-21,3,-2
7580,1776,-624,792,-25,3,-5
7585,1768,-608,752,-23,6,-3
7590,1760,-592,752,-21,12,-6
7595,1776,-608,768,-22,20,-5
7600,1792,-576,744,-24,27,-10
7605,1768,-592,760,-32,37,-9
7610,1784,-592,760,-43,46,-9
7615,1792,-592,736,-53,52,-7
7620,1792,-616,736,-60,59,-9
7625,1800,-608,760,-65,65,-8
7630,1800,-632,776,-65,70,-9
7635,1800,-600,768,-64,74,-8
7640,1792,-648,768,-61,79,-10
7645,1768,-608,744,-57,88,-11
7650,1768,-632,760,-48,95,-14
7655,1776,-664,712,-40,101,-13
7660,1776,-648,752,-28,106,-16
7665,1744,-616,736,-20,111,-15
7670,1760,-624,752,-16,117,-21
7675,1760,-608,728,-16,120,-22
7680,1744,-624,784,-18,125,-26
7685,1744,-600,768,-16,136,-27
7690,1736,-608,768,-15,146,-32
7695,1752,-608,792,-14,157,-29
7700,1768,-616,800,-18,170,-30
7705,1744,-616,792,-23,182,-27
7710,1752,-632,784,-28,188,-24
7715,1752,-624,808,-35,193,-20
7720,1720,-616,800,-39,194,-20
7725,1728,-624,784,-43,193,-19
7730,1744,-616,776,-45,190,-20
7735,1744,-640,784,-48,182,-21
7740,1744,-624,768,-51,175,-24
7745,1752,-624,800,-52,162,-24
7750,1760,-616,768,-51,150,-26
7755,1760,-640,776,-47,140,-24
7760,1744,-608,792,-40,137,-25
7765,1768,-624,776,-33,135,-24
7770,1760,-600,792,-27,137,-22
7775,1760,-624,784,-21,142,-19
7780,1744,-616,752,-19,145,-18
7785,1728,-608,784,-16,149,-16
7790,1728,-600,784,-15,149,-14
7795,1744,-608,800,-11,150,-11
7800,1672,-576,672,-7,149,-11
7805,1736,-648,816,-3,143,-9
7810,1744,-592,800,1,137,-7
7815,1760,-600,784,8,132,-7
7820,1760,-592,824,14,125,-5
7825,1752,-592,800,19,122,-2
7830,1784,-600,792,23,118,-1
7835,1728,-592,792,23,118,2
7840,1744,-584,760,24,119,2
7845,1744,-592,832,24,121,3
7850,1744,-608,784,25,124,5
7855,1744,-584,800,25,127,5
7860,1712,-592,816,25,131,6
7865,1728,-600,800,24,133,7
7870,1728,-592,800,25,134,7
7875,1736,-616,800,26,133,6
7880,1736,-608,816,27,133,5
7885,1752,-592,800,27,135,5
7890,1760,-576,792,28,137,7
7895,1792,-600,816,30,142,10
7900,1760,-584,840,37,153,12
7905,1752,-584,824,37,161,16
7910,1760,-584,808,37,164,20
7915,1760,-592,832,35,165,20
7920,1776,-600,816,32,166,19
7925,1752,-568,792,32,166,18
7930,1760,-592,840,31,165,21
7935,1792,-616,832,29,164,21
7940,1784,-584,824,25,163,24
7945,1776,-576,840,20,161,25
7950,1768,-592,816,16,162,29
7955,1800,-592,832,11,161,30
7960,1784,-608,856,5,162,33
7965,1776,-600,832,-1,163,32
7970,1776,-600,856,-8,164,34
7975,1744,-600,808,-14,162,35
7980,1768,-616,840,-17,163,36
7985,1744,-592,808,-20,162,35
7990,1752,-616,848,-20,162,36
7995,1736,-624,832,-21,163,34
8000,1736,-632,792,-20,164,35
8005,1720,-640,800,-14,165,33
8010,1720,-640,824,-5,166,35
8015,1720,-616,792,1,167,37
8020,1712,-624,824,7,167,40
8025,1712,-648,840,14,168,40
8030,1696,-624,824,22,166,42
8035,1680,-640,824,31,165,41
8040,1696,-640,824,44,166,42
8045,1680,-624,840,58,164,39
8050,1696,-608,832,66,161,39
8055,1656,-576,848,67,156,38
8060,1672,-592,856,62,150,37
8065,1680,-616,840,57,146,35
8070,1688,-600,864,54,143,36
8075,1672,-592,856,52,140,35
8080,1696,-632,872,52,140,36
8085,1696,-608,896,53,141,34
8090,1704,-624,856,53,138,35
8095,1696,-616,912,54,137,33
8100,1704,-616,856,55,132,33
8105,1672,-600,872,54,130,31
8110,1688,-576,880,54,124,32
8115,1688,-608,864,52,118,28
8120,1680,-624,896,51,112,28
8125,1680,-608,880,52,109,24
8130,1664,-600,888,55,106,25
8135,1664,-608,888,53,103,21
8140,1656,-608,936,52,101,22
8145,1656,-624,888,47,99,17
8150,1648,-616,896,43,99,17
8155,1656,-608,904,35,96,14
8160,1656,-584,920,29,93,14
8165,1672,-600,920,24,90,11
8170,1664,-600,904,20,89,12
8175,1664,-600,928,18,88,9
8180,1672,-608,904,14,88,11
8185,1664,-592,920,9,88,7
8190,1664,-624,888,2,90,9
8195,1664,-624,896,-3,91,6
8200,1656,-624,888,-9,91,6
8205,1680,-616,920,-15,91,2
8210,1672,-624,896,-22,89,4
8215,1648,-616,888,-24,85,-1
8220,1680,-624,864,-22,80,-3
8225,1664,-600,912,-18,73,-8
8230,1632,-616,888,-15,67,-9
8235,1656,-608,896,-13,61,-12
8240,1688,-632,888,-10,56,-11
8245,1672,-632,896,-11,54,-14
8250,1672,-600,872,-16,56,-15
8255,1696,-616,880,-23,59,-17
8260,1696,-600,888,-33,64,-16
8265,1696,-600,872,-40,70,-18
8270,1704,-600,880,-45,75,-16
8275,1696,-608,864,-47,79,-20
8280,1696,-608,888,-49,79,-17
8285,1696,-600,912,-51,78,-19
8290,1704,-616,920,-50,78,-16
8295,1728,-632,888,-47,74,-16
8300,1704,-624,896,-45,73,-14
8305,1696,-608,888,-43,71,-14
8310,1712,-608,840,-42,69,-10
8315,1736,-624,824,-42,71,-11
8320,1712,-632,848,-43,74,-8
8325,1704,-600,848,-41,77,-7
8330,1712,-616,872,-42,81,-5
8335,1704,-632,848,-43,85,-7
8340,1680,-640,864,-44,85,-6
8345,1696,-608,816,-43,84,-9
8350,1704,-616,864,-39,80,-8
8355,1680,-576,872,-37,74,-12
8360,1696,-592,880,-35,71,-11
8365,1728,-600,864,-31,66,-14
8370,1728,-600,872,-28,61,-9
8375,1704,-584,904,-22,59,-10
8380,1720,-576,872,-16,61,-4
8385,1744,-584,848,-11,64,-5
8390,1736,-592,896,-9,68,-1
8395,1744,-600,888,-7,73,-1
8400,1736,-560,888,-8,77,4
8405,1720,-576,920,-8,81,3
8410,1688,-568,920,-10,85,6
8415,1728,-600,920,-12,87,5
8420,1704,-584,888,-15,87,8
8425,1736,-584,920,-17,84,7
8430,1712,-576,904,-21,80,11
8435,1704,-616,928,-28,75,10
8440,1712,-592,904,-36,70,12
8445,1720,-592,864,-44,64,8
8450,1696,-600,912,-51,57,10
8455,1696,-608,920,-54,51,7
8460,1696,-600,872,-57,46,9
8465,1688,-608,896,-58,40,8
8470,1696,-600,920,-58,38,9
8475,1696,-616,896,-58,35,8
8480,1680,-616,880,-64,34,9
8485,1696,-632,880,-73,34,6
8490,1688,-624,912,-79,38,6
8495,1680,-632,896,-78,41,5
8500,1680,-608,904,-73,44,7
8505,1680,-624,872,-66,47,4
8510,1672,-640,896,-59,49,6
8515,1712,-632,856,-50,50,5
8520,1696,-592,856,-46,49,6
8525,1720,-616,880,-47,47,4
8530,1680,-640,864,-47,47,7
8535,1680,-640,848,-51,46,7
8540,1696,-632,872,-56,44,8
8545,1680,-640,816,-62,42,4
8550,1664,-616,872,-72,37,4
8555,1656,-632,888,-79,37,0
8560,1680,-632,896,-85,38,0
8565,1664,-632,896,-88,41,-3
8570,1672,-656,872,-87,44,-4
8575,1680,-664,856,-82,49,-6
8580,1664,-648,880,-73,57,-6
8585,1688,-680,880,-61,66,-8
8590,1680,-648,832,-48,77,-7
8595,1672,-648,880,-36,86,-8
8600,1656,-632,856,-30,93,-6
8605,1664,-640,880,-27,98,-7
8610,1680,-656,896,-29,100,-5
8615,1696,-632,856,-27,98,-6
8620,1672,-656,880,-27,96,-6
8625,1696,-648,856,-25,95,-10
8630,1704,-648,872,-23,93,-10
8635,1704,-640,880,-26,95,-11
8640,1704,-640,880,-28,98,-12
8645,1704,-640,912,-33,101,-11
8650,1680,-632,888,-39,107,-12
8655,1712,-640,872,-48,113,-11
8660,1696,-624,896,-53,120,-10
8665,1712,-616,928,-58,126,-11
8670,1712,-616,888,-62,128,-10
8675,1720,-624,872,-67,133,-10
8680,1712,-624,904,-72,135,-11
8685,1688,-624,896,-77,136,-11
8690,1712,-648,888,-80,135,-10
8695,1696,-632,904,-81,133,-13
8700,1696,-632,904,-82,128,-11
8705,1688,-632,912,-83,123,-12
8710,1704,-656,888,-84,117,-12
8715,1696,-624,856,-85,111,-15
8720,1688,-600,864,-86,106,-16
8725,1672,-624,864,-92,101,-18
8730,1680,-608,864,-99,97,-20
8735,1680,-608,864,-105,95,-21
8740,1680,-624,904,-107,93,-22
8745,1688,-624,896,-106,91,-21
8750,1680,-616,888,-102,90,-19
8755,1664,-624,872,-99,88,-20
8760,1696,-616,856,-96,88,-22
8765,1696,-632,904,-94,86,-21
8770,1680,-640,864,-89,86,-22
8775,1696,-648,856,-87,84,-20
8780,1680,-624,920,-82,84,-21
8785,1656,-632,880,-81,81,-21
8790,1672,-640,896,-75,84,-19
8795,1696,-608,872,-72,83,-18
8800,1688,-616,896,-69,84,-17
8805,1656,-624,872,-70,81,-16
8810,1672,-640,888,-65,79,-14
8815,1648,-624,896,-56,77,-12
8820,1664,-632,880,-47,74,-14
8825,1680,-656,856,-39,74,-14
8830,1672,-656,872,-35,75,-17
8835,1664,-640,856,-31,75,-18
8840,1680,-640,864,-32,73,-18
8845,1696,-648,864,-26,71,-17
8850,1696,-640,888,-22,68,-17
8855,1704,-632,880,-17,66,-14
8860,1696,-640,880,-10,62,-13
8865,1720,-648,880,-1,60,-8
8870,1704,-616,864,6,56,-8
8875,1720,-624,896,9,53,-5
8880,1712,-632,872,6,50,-5
8885,1696,-624,864,2,48,-1
8890,1728,-632,864,-1,47,0
8895,1712,-648,888,-2,45,-1
8900,1696,-624,872,-2,43,-4
8905,1696,-632,896,-1,45,-1
8910,1704,-608,856,1,45,-3
8915,1704,-640,880,5,47,-1
8920,1688,-608,896,8,47,-1
8925,1680,-656,888,11,48,1
8930,1672,-616,864,12,49,0
8935,1712,-648,864,13,52,2
8940,1704,-648,888,12,56,-1
8945,1712,-624,872,13,57,2
8950,1688,-624,864,13,57,2
8955,1696,-616,888,12,58,8
8960,1704,-632,856,12,55,8
8965,1704,-648,872,13,53,12
8970,1696,-632,872,13,52,12
8975,1680,-632,848,17,51,13
8980,1696,-648,864,17,51,11
8985,1704,-664,872,14,50,13
8990,1664,-648,832,11,51,10
8995,1680,-664,856,7,51,11
9000,1672,-664,864,3,50,7
9005,1672,-664,904,0,49,8
9010,1688,-664,888,-2,47,4
9015,1664,-632,912,-3,44,3
9020,1648,-616,896,-2,41,-2
9025,1656,-648,864,-4,38,-1
9030,1664,-640,872,-3,36,-5
9035,1656,-624,880,-3,32,-3
9040,1680,-632,888,-3,27,-6
9045,1664,-624,864,-2,26,-6
9050,1672,-624,864,-1,23,-7
9055,1680,-656,872,0,25,-4
9060,1696,-632,872,1,27,-6
9065,1688,-648,904,-3,30,-2
9070,1680,-632,880,-5,36,-6
9075,1688,-656,848,-7,41,-5
9080,1672,-624,880,-9,46,-11
9085,1680,-624,888,-9,50,-10
9090,1672,-624,904,-8,53,-13
9095,1680,-640,904,-5,53,-11
9100,1696,-616,912,-1,52,-12
9105,1680,-584,904,0,49,-8
9110,1712,-632,840,-5,41,-7
9115,1696,-608,856,-9,36,-2
9120,1688,-624,880,-11,31,-2
9125,1712,-624,880,-14,28,0
9130,1704,-600,856,-16,24,-2
9135,1696,-640,904,-18,22,1
9140,1696,-640,880,-17,23,-1
9145,1720,-648,856,-14,24,2
9150,1744,-640,848,-12,26,0
9155,1728,-608,808,-9,35,2
9160,1736,-624,856,-9,41,-2
9165,1744,-624,824,-8,46,0
9170,1728,-608,856,-7,53,-2
9175,1720,-608,864,-5,55,0
9180,1696,-624,880,-2,57,1
9185,1720,-600,832,2,57,7
9190,1696,-608,848,7,57,6
9195,1688,-640,840,10,57,12
9200,1720,-624,816,13,58,11
9205,1736,-624,808,17,60,16
9210,1736,-608,832,18,64,14
9215,1704,-616,832,19,67,16
9220,1696,-632,824,21,70,14
9225,1728,-648,816,23,73,17
9230,1696,-632,856,26,75,15
9235,1720,-632,848,32,73,19
9240,1688,-640,888,41,73,19
9245,1696,-648,848,49,69,21
9250,1656,-632,864,60,68,16
9255,1664,-632,848,68,67,18
9260,1672,-632,856,75,69,15
9265,1672,-640,864,83,70,15
9270,1688,-632,848,89,71,11
9275,1696,-624,864,92,71,13
9280,1688,-616,880,99,75,11
9285,1688,-608,856,104,83,14
9290,1672,-632,848,109,94,14
9295,1696,-640,848,111,106,17
9300,1704,-640,864,111,117,14
9305,1704,-640,848,110,127,15
9310,1688,-632,840,111,139,14
9315,1680,-616,888,109,142,16
9320,1648,-624,904,109,138,14
9325,1656,-616,896,109,126,15
9330,1632,-616,912,112,116,14
9335,1640,-592,920,118,103,17
9340,1672,-616,888,124,87,15
9345,1648,-600,880,129,78,16
9350,1664,-600,928,135,69,15
9355,1656,-600,904,142,67,19
9360,1720,-616,936,149,66,19
9365,1680,-592,864,152,67,23
9370,1712,-568,880,153,72,23
9375,1704,-576,928,151,78,25
9380,1744,-560,912,148,84,24
9385,1712,-560,920,142,95,26
9390,1736,-584,920,132,103,24
9395,1720,-552,896,122,109,27
9400,1720,-568,952,113,113,26
9405,1704,-576,912,103,116,30
9410,1704,-568,928,97,120,29
9415,1720,-592,888,91,121,31
9420,1712,-592,960,81,119,30
9425,1720,-592,904,74,115,29
9430,1688,-608,920,65,109,29
9435,1664,-600,928,58,103,32
9440,1672,-624,944,52,95,30
9445,1648,-632,976,48,87,30
9450,1648,-632,944,44,82,28
9455,1632,-632,960,41,77,27
9460,1640,-584,960,39,70,25
9465,1616,-616,984,37,66,23
9470,1640,-624,960,34,64,21
9475,1648,-608,968,28,63,19
9480,1640,-592,944,20,64,17
9485,1640,-600,968,12,67,17
9490,1672,-624,944,6,70,15
9495,1648,-600,952,-5,73,16
9500,1672,-592,928,-15,74,14
9505,1664,-624,968,-28,74,15
9510,1656,-616,968,-40,75,12
9515,1640,-640,936,-52,76,10
9520,1624,-632,920,-61,77,6
9525,1632,-640,936,-66,78,5
9530,1624,-656,904,-67,77,1
9535,1640,-656,928,-65,76,-1
9540,1624,-648,936,-61,71,-4
9545,1640,-648,872,-56,68,-7
9550,1640,-640,904,-50,63,-8
9555,1664,-656,888,-43,58,-12
9560,1640,-656,888,-36,55,-15
9565,1664,-640,856,-30,53,-17
9570,1672,-632,864,-25,55,-20
9575,1648,-640,880,-20,57,-22
9580,1656,-624,912,-16,61,-25
9585,1672,-648,912,-12,65,-25
9590,1672,-640,856,-7,66,-26
9595,1672,-656,904,-5,66,-26
9600,1648,-632,880,-6,71,-32
9605,1672,-624,912,-9,74,-35
9610,1664,-616,928,-11,79,-35
9615,1672,-616,920,-15,82,-36
9620,1656,-592,928,-19,82,-36
9625,1664,-600,944,-24,77,-36
9630,1704,-584,928,-27,72,-35
9635,1680,-592,928,-27,67,-35
9640,1680,-576,936,-28,60,-35
9645,1688,-576,952,-27,54,-35
9650,1704,-568,936,-24,53,-35
9655,1696,-592,888,-21,53,-34
9660,1688,-584,912,-17,58,-33
9665,1720,-584,896,-15,62,-31
9670,1712,-584,912,-14,69,-28
9675,1704,-600,928,-15,77,-25
9680,1696,-600,920,-17,86,-23
9685,1680,-576,928,-17,94,-24
9690,1696,-568,888,-18,98,-21
9695,1704,-576,904,-21,102,-23
9700,1712,-576,952,-25,106,-19
9705,1704,-568,952,-27,102,-20
9710,1680,-552,944,-30,98,-18
9715,1664,-552,968,-30,89,-16
9720,1688,-544,960,-30,82,-12
9725,1688,-560,936,-29,74,-10
9730,1696,-560,936,-27,67,-7
9735,1680,-568,936,-28,60,-5
9740,1672,-584,936,-30,56,-2
9745,1688,-584,936,-35,56,-4
9750,1680,-576,920,-40,56,-1
9755,1680,-584,920,-44,58,-1
9760,1680,-616,904,-43,62,2
9765,1696,-600,920,-39,67,1
9770,1680,-600,904,-35,70,2
9775,1696,-576,896,-29,74,3
9780,1664,-592,936,-22,74,6
9785,1656,-616,920,-14,76,6
9790,1664,-608,920,-6,76,10
9795,1680,-616,896,0,76,9
9800,1656,-584,920,6,77,9
9805,1680,-608,912,11,77,10
9810,1656,-600,944,13,75,10
9815,1648,-616,920,14,73,9
9820,1672,-624,912,16,73,8
9825,1648,-616,920,17,75,7
9830,1664,-600,912,19,75,10
9835,1664,-592,912,20,74,8
9840,1664,-608,920,24,74,11
9845,1664,-624,920,25,73,10
9850,1720,-600,896,23,73,14
9855,1672,-592,920,17,71,12
9860,1680,-592,952,13,70,14
9865,1704,-600,896,5,67,10
9870,1688,-632,904,-3,67,12
9875,1688,-640,896,-8,68,9
9880,1680,-648,888,-12,67,12
9885,1672,-632,896,-15,66,9
9890,1680,-616,888,-16,65,8
9895,1672,-640,896,-20,64,4
9900,1664,-616,904,-22,63,5
9905,1680,-624,904,-27,64,2
9910,1672,-624,952,-30,63,4
9915,1664,-624,904,-32,60,2
9920,1664,-616,920,-29,58,4
9925,1648,-632,920,-28,55,2
9930,1656,-624,944,-24,54,5
9935,1656,-632,944,-20,54,4
9940,1664,-616,952,-18,52,3
9945,1648,-608,920,-17,54,1
9950,1656,-608,912,-18,56,2
9955,1672,-632,944,-20,57,-1
9960,1664,-616,952,-24,61,3
9965,1664,-608,936,-28,64,0
9970,1664,-624,944,-30,65,1
9975,1656,-600,936,-30,67,-2
9980,1696,-616,936,-32,69,1
9985,1648,-616,928,-33,69,-3
9990,1648,-608,944,-33,70,1
9995,1672,-624,912,-32,69,-2
10000,1672,-624,928,-31,70,2
10005,1688,-624,880,-29,70,1
10010,1680,-616,904,-25,71,4
10015,1680,-608,888,-22,72,1
10020,1664,-616,888,-17,71,3
10025,1664,-600,912,-13,74,1
10030,1680,-592,912,-13,74,1
10035,1680,-608,912,-9,76,-2
10040,1696,-616,912,-9,77,0
10045,1664,-592,904,-6,81,-4
10050,1672,-600,944,-3,85,0
10055,1696,-600,936,2,89,-2
10060,1680,-592,904,8,95,1
10065,1696,-608,904,15,99,2
10070,1672,-600,936,21,103,6
10075,1688,-568,928,24,104,4
10080,1664,-560,920,26,105,8
10085,1688,-560,912,26,104,6
10090,1688,-576,928,22,104,8
10095,1688,-568,936,20,104,6
10100,1696,-584,896,19,104,9
10105,1680,-584,952,20,104,6
10110,1688,-568,904,21,105,10
10115,1672,-576,936,21,103,7
10120,1672,-584,928,16,101,9
10125,1664,-600,912,12,100,7
10130,1664,-600,952,10,96,10
10135,1656,-600,968,8,91,6
10140,1680,-608,952,7,88,8
10145,1680,-624,960,6,85,4
10150,1632,-600,968,3,83,6
10155,1656,-592,976,-1,80,2
10160,1672,-584,968,-4,76,5
10165,1680,-608,984,-4,73,2
10170,1632,-592,960,-5,71,4
10175,1656,-584,952,-5,68,2
10180,1656,-608,968,-6,64,6
10185,1632,-608,928,-6,65,3
10190,1632,-576,976,-7,66,6
10195,1656,-592,936,-9,68,4
10200,1648,-608,968,-12,69,5
10205,1640,-600,944,-12,72,2
10210,1624,-608,968,-12,71,2
10215,1640,-592,952,-15,71,-2
10220,1648,-608,928,-17,69,-1
10225,1632,-592,952,-21,68,-3
10230,1632,-616,952,-27,65,1
10235,1632,-608,984,-31,63,0
10240,1640,-608,952,-33,60,3
10245,1640,-640,968,-34,58,0
10250,1616,-624,960,-31,58,4
10255,1656,-648,920,-25,59,1
10260,1664,-632,928,-20,59,3
10265,1624,-640,936,-19,58,2
10270,1640,-624,904,-15,58,2
10275,1632,-648,896,-16,58,0
10280,1632,-632,904,-14,56,2
10285,1632,-632,896,-12,55,-2
10290,1632,-600,928,-8,54,-2
10295,1656,-624,944,-7,54,-6
10300,1656,-616,968,-4,55,-7
10305,1680,-624,920,-1,55,-11
10310,1664,-616,904,4,56,-8
10315,1664,-600,920,7,57,-11
10320,1680,-616,928,7,61,-10
10325,1696,-600,920,1,66,-12
10330,1704,-600,920,-4,71,-10
10335,1696,-592,936,-8,76,-8
10340,1664,-584,936,-11,80,-6
10345,1672,-608,936,-15,85,-5
10350,1680,-600,912,-15,86,-1
10355,1696,-592,912,-14,87,-3
10360,1688,-616,944,-11,88,-1
10365,1696,-600,944,-6,86,-2
10370,1680,-632,952,-3,86,-2
10375,1656,-600,920,-1,86,-4
10380,1672,-600,928,0,88,-4
10385,1672,-600,928,0,88,-6
10390,1664,-600,904,-4,88,-5
10395,1656,-608,928,-7,90,-6
10400,1664,-608,960,-7,91,-4
10405,1640,-584,936,-9,94,-7
10410,1640,-600,920,-13,94,-6
10415,1648,-600,936,-18,97,-7
10420,1664,-616,984,-21,99,-8
10425,1648,-592,968,-22,97,-8
10430,1656,-624,968,-22,95,-8
10435,1656,-600,960,-21,92,-8
10440,1640,-592,968,-20,88,-7
10445,1640,-560,952,-17,86,-8
10450,1632,-584,952,-18,83,-7
10455,1672,-592,952,-19,81,-5
10460,1640,-592,1000,-20,79,-5
10465,1648,-600,952,-19,77,-4
10470,1640,-592,944,-19,74,-2
10475,1648,-616,960,-18,71,0
10480,1624,-608,960,-18,67,0
10485,1632,-600,952,-15,63,-3
10490,1608,-600,952,-13,59,-4
10495,1624,-568,928,-9,56,-8
10500,1640,-584,944,-5,53,-8
10505,1664,-568,936,0,50,-9
10510,1696,-552,936,5,47,-7
10515,1688,-568,952,5,47,-5
10520,1664,-568,928,1,44,-3
10525,1672,-568,936,-7,43,2
10530,1664,-608,936,-20,43,5
10535,1656,-592,944,-30,48,8
10540,1648,-632,952,-42,54,9
10545,1632,-648,992,-46,64,10
10550,1656,-672,992,-43,71,12
10555,1664,-648,1000,-38,79,13
10560,1624,-624,992,-30,84,11
10565,1632,-624,1000,-26,83,11
10570,1664,-616,992,-24,80,10
10575,1680,-600,968,-21,72,12
10580,1672,-600,984,-17,64,13
10585,1664,-592,992,-14,53,14
10590,1696,-624,944,-13,43,14
10595,1696,-624,920,-15,32,15
10600,1680,-600,920,-21,22,15
10605,1680,-616,904,-26,16,15
10610,1680,-616,896,-32,13,12
10615,1696,-616,904,-36,12,11
10620,1696,-648,896,-42,17,8
10625,1712,-600,912,-47,21,9
10630,1688,-600,880,-47,26,8
10635,1688,-616,856,-47,34,9
10640,1688,-616,928,-42,41,8
10645,1680,-616,904,-35,49,9
10650,1656,-608,896,-28,55,8
10655,1640,-624,912,-22,63,9
10660,1632,-608,928,-17,68,7
10665,1632,-624,920,-15,73,7
10670,1632,-600,936,-14,77,3
10675,1608,-616,936,-13,79,5
10680,1648,-616,960,-14,80,2
10685,1624,-608,928,-12,83,2
10690,1624,-600,944,-10,81,0
10695,1632,-616,952,-7,81,1
10700,1656,-616,952,-6,81,-1
10705,1632,-632,952,-6,80,0
10710,1624,-608,952,-7,78,-2
10715,1648,-632,928,-7,75,-2
10720,1632,-640,960,-9,71,-2
10725,1648,-608,960,-10,70,-4
10730,1624,-608,936,-12,69,-8
10735,1632,-600,952,-13,67,-6
10740,1624,-608,968,-14,65,-11
10745,1664,-616,968,-15,64,-11
10750,1648,-616,936,-12,61,-15
10755,1656,-624,944,-9,59,-17
10760,1632,-608,944,-2,58,-19
10765,1640,-608,944,3,57,-18
10770,1632,-592,944,7,57,-19
10775,1680,-584,968,9,57,-17
10780,1656,-584,976,11,59,-17
10785,1664,-592,944,12,58,-13
10790,1672,-584,944,12,58,-12
10795,1664,-568,944,11,58,-7
10800,1696,-592,960,11,58,-7
10805,1704,-584,928,8,58,-5
10810,1656,-584,944,7,58,-4
10815,1680,-600,952,3,57,-3
10820,1656,-576,968,1,58,-6
10825,1680,-600,936,-3,59,-3
10830,1672,-592,944,-7,58,-6
10835,1648,-584,968,-9,57,-4
10840,1656,-600,968,-9,56,-5
10845,1664,-600,960,-10,53,-3
10850,1640,-616,968,-12,50,-5
10855,1656,-608,928,-13,47,-2
10860,1664,-632,952,-15,46,-4
10865,1648,-592,936,-15,43,-2
10870,1664,-624,944,-15,44,-3
10875,1648,-624,936,-16,44,-1
10880,1648,-616,952,-15,44,-2
10885,1656,-624,944,-14,43,2
10890,1640,-600,960,-14,43,0
10895,1632,-608,928,-14,43,3
10900,1648,-600,928,-12,46,0
10905,1672,-624,928,-12,47,2
10910,1648,-648,912,-11,47,-2
10915,1656,-640,920,-9,47,0
10920,1664,-624,960,-6,47,-3
10925,1656,-632,936,-5,46,-1
10930,1672,-632,896,-4,45,-3
10935,1656,-632,912,-6,45,-1
10940,1664,-608,960,-9,43,-5
10945,1648,-600,920,-9,42,-3
10950,1656,-624,928,-9,40,-7
10955,1648,-624,888,-6,42,-6
10960,1656,-600,920,-7,41,-8
10965,1648,-608,912,-7,42,-6
10970,1656,-600,928,-8,43,-8
10975,1664,-624,936,-6,46,-6
10980,1648,-608,920,-10,49,-7
10985,1656,-600,952,-13,52,-3
10990,1648,-592,904,-15,55,-7
10995,1656,-600,912,-16,59,-6
11000,1672,-576,944,-14,61,-9
11005,1664,-608,920,-13,62,-7
11010,1656,-616,936,-11,62,-10
11015,1656,-600,936,-7,61,-7
11020,1672,-616,920,-6,59,-11
11025,1664,-600,928,-4,59,-9
11030,1648,-608,936,-3,61,-11
11035,1672,-600,952,-4,65,-10
11040,1632,-592,952,-2,67,-12
11045,1656,-600,928,1,68,-10
11050,1664,-592,976,3,67,-12
11055,1648,-584,920,5,66,-9
11060,1648,-576,952,5,66,-12
11065,1672,-608,952,7,65,-9
11070,1656,-592,960,7,62,-13
11075,1656,-576,960,8,60,-12
11080,1672,-600,944,5,56,-16
11085,1656,-592,936,4,56,-15
11090,1648,-592,912,2,55,-18
11095,1632,-608,968,2,55,-14
11100,1640,-624,952,3,55,-16
11105,1632,-600,928,4,54,-13
11110,1648,-592,944,2,56,-15
11115,1624,-592,920,-1,55,-13
11120,1624,-592,952,-5,53,-17
11125,1656,-592,960,-14,53,-17
11130,1640,-568,936,-20,52,-21
11135,1680,-592,928,-24,50,-18
11140,1640,-568,968,-22,49,-19
11145,1640,-600,960,-15,48,-15
11150,1672,-600,968,-5,50,-14
11155,1664,-616,944,2,51,-11
11160,1640,-608,936,7,55,-11
11165,1688,-592,944,6,59,-9
11170,1680,-600,960,4,62,-9
11175,1672,-624,944,-1,63,-7
11180,1672,-616,952,-2,62,-7
11185,1672,-600,920,-4,60,-7
11190,1680,-600,920,-6,56,-9
11195,1672,-600,904,-6,54,-8
11200,1680,-600,952,-7,53,-9
11205,1680,-608,968,-8,49,-10
11210,1680,-608,912,-6,50,-13
11215,1688,-600,912,-5,51,-11
11220,1688,-608,920,-5,51,-15
11225,1680,-592,928,-7,52,-13
11230,1672,-608,896,-9,53,-14
11235,1664,-592,944,-16,54,-12
11240,1656,-600,952,-22,52,-13
11245,1656,-600,968,-27,51,-10
11250,1648,-624,952,-34,49,-12
11255,1648,-616,944,-37,46,-9
11260,1648,-592,952,-39,39,-11
11265,1648,-600,928,-38,35,-7
11270,1680,-624,928,-38,33,-8
11275,1664,-624,936,-36,31,-5
11280,1696,-640,912,-34,30,-5
11285,1688,-616,944,-34,33,-5
11290,1704,-616,936,-33,35,-6
11295,1672,-584,936,-29,38,-5
11300,1688,-608,960,-27,40,-6
11305,1656,-624,928,-26,42,-3
11310,1672,-584,944,-26,44,-6
11315,1656,-576,944,-30,44,-6
11320,1664,-608,920,-34,44,-7
11325,1664,-600,960,-38,43,-5
11330,1656,-584,904,-41,41,-4
11335,1672,-600,912,-44,41,-2
11340,1656,-592,928,-44,40,-2
11345,1688,-576,936,-41,40,-1
11350,1680,-608,936,-39,42,-1
11355,1656,-592,944,-33,44,-1
11360,1648,-600,928,-28,45,-2
11365,1648,-608,936,-23,47,-2
11370,1656,-576,928,-23,49,-2
11375,1648,-616,952,-24,53,-1
11380,1648,-584,928,-24,56,-1
11385,1664,-584,944,-25,58,0
11390,1664,-624,944,-24,59,0
11395,1656,-592,920,-22,62,-1
11400,1664,-616,928,-21,64,-2
11405,1664,-608,912,-21,67,-1
11410,1680,-600,920,-22,66,-2
11415,1656,-592,912,-22,68,0
11420,1680,-608,944,-20,69,1
11425,1680,-584,928,-19,67,1
11430,1672,-600,920,-21,65,2
11435,1672,-608,928,-21,65,2
11440,1672,-584,960,-23,62,0
11445,1656,-600,920,-24,60,2
11450,1664,-592,928,-24,58,1
11455,1680,-616,920,-25,59,1
11460,1688,-600,920,-25,58,0
11465,1680,-600,944,-26,58,-1
11470,1672,-600,936,-26,62,2
11475,1664,-592,896,-26,62,2
11480,1672,-608,952,-23,64,3
11485,1680,-608,928,-23,66,5
11490,1672,-608,944,-20,65,4
11495,1680,-600,920,-20,62,5
11500,1672,-608,936,-20,58,4
11505,1672,-624,936,-18,58,5
11510,1664,-608,952,-18,56,5
11515,1672,-616,904,-17,53,3
11520,1648,-600,936,-18,52,5
11525,1656,-608,936,-20,49,4
11530,1656,-616,952,-22,46,5
11535,1640,-616,960,-23,42,3
11540,1648,-592,920,-23,38,3
11545,1656,-600,928,-27,36,2
11550,1632,-600,936,-33,30,-1
11555,1632,-568,936,-38,24,-2
11560,1640,-608,944,-44,21,-3
11565,1640,-592,960,-47,17,-4
11570,1656,-616,944,-52,12,-3
11575,1640,-592,984,-57,9,-4
11580,1664,-600,936,-59,7,-3
11585,1648,-616,952,-59,5,-2
11590,1640,-608,960,-60,5,-1
11595,1680,-616,976,-59,2,-1
11600,1664,-600,952,-61,0,2
11605,1672,-616,968,-60,-2,0
11610,1680,-616,984,-61,-5,2
11615,1656,-624,936,-61,-8,0
11620,1688,-624,920,-60,-10,2
11625,1664,-600,920,-59,-10,-1
11630,1744,-608,968,-59,-6,-1
11635,1680,-576,920,-60,5,-1
11640,1672,-584,920,-67,7,4
11645,1704,-616,928,-72,7,1
11650,1696,-616,928,-76,5,5
11655,1672,-632,928,-77,3,2
11660,1688,-608,928,-77,1,3
11665,1696,-632,928,-77,0,3
11670,1672,-624,904,-80,-1,3
11675,1704,-648,896,-83,-3,1
11680,1688,-608,920,-82,-6,4
11685,1672,-632,928,-82,-11,2
11690,1664,-640,904,-80,-15,4
11695,1656,-608,920,-77,-20,1
11700,1672,-616,888,-75,-25,2
11705,1648,-616,904,-72,-28,-3
11710,1648,-640,888,-69,-31,-5
11715,1664,-624,912,-61,-32,-10
11720,1688,-632,880,-54,-32,-8
11725,1664,-632,872,-49,-32,-11
11730,1688,-608,888,-43,-30,-12
11735,1656,-608,888,-38,-26,-15
11740,1680,-600,888,-29,-24,-12
11745,1680,-608,880,-24,-15,-16
11750,1680,-600,880,-17,-8,-13
11755,1680,-584,864,-11,-2,-13
11760,1696,-616,848,-2,5,-9
11765,1696,-632,880,4,10,-9
11770,1680,-608,880,7,15,-4
11775,1648,-624,872,10,18,-5
11780,1688,-600,888,13,22,-4
11785,1688,-616,888,12,24,-5
11790,1696,-616,888,10,27,-3
11795,1704,-624,912,6,29,-6
11800,1680,-624,896,2,32,-3
11805,1688,-592,864,-6,36,-5
11810,1664,-616,912,-12,35,-2
11815,1664,-608,896,-16,35,-5
11820,1664,-640,896,-18,37,-6
11825,1672,-616,872,-21,37,-12
11830,1672,-624,880,-23,38,-11
11835,1672,-600,872,-26,39,-13
11840,1672,-608,904,-28,40,-12
11845,1680,-608,888,-31,38,-15
11850,1672,-624,920,-30,37,-11
11855,1672,-592,880,-28,34,-14
11860,1672,-616,872,-25,30,-11
11865,1688,-616,888,-21,28,-11
11870,1688,-608,912,-19,26,-7
11875,1704,-616,904,-17,27,-10
11880,1696,-600,880,-14,26,-6
11885,1696,-608,888,-12,26,-7
11890,1696,-616,864,-10,27,-6
11895,1696,-608,872,-11,29,-9
11900,1688,-616,872,-13,32,-7
11905,1704,-600,872,-12,37,-9
11910,1704,-624,880,-10,38,-4
11915,1696,-608,896,-8,43,-5
11920,1704,-624,904,-4,45,0
11925,1696,-608,872,-4,45,-2
11930,1696,-624,896,-5,45,1
11935,1688,-592,872,-6,46,-2
11940,1680,-608,880,-8,44,0
11945,1696,-608,904,-8,43,-2
11950,1696,-616,880,-8,43,0
11955,1696,-616,864,-8,40,-2
11960,1696,-616,856,-7,39,0
11965,1672,-600,888,-5,37,-2
11970,1712,-616,840,-3,36,-1
11975,1696,-616,856,-3,38,-3
11980,1712,-624,856,-1,39,1
11985,1688,-624,880,0,40,-1
11990,1720,-608,912,3,40,1
11995,1688,-608,880,3,41,-1
12000,1688,-592,872,0,41,2
12005,1696,-616,896,-1,40,0
12010,1672,-608,896,-2,43,1
12015,1704,-616,928,-3,44,-3
12020,1688,-592,888,-6,45,-2
12025,1688,-632,888,-7,44,-5
12030,1696,-632,920,-9,45,-3
12035,1680,-624,888,-12,47,-5
12040,1688,-608,896,-12,45,0
12045,1712,-616,856,-14,44,-2
12050,1680,-624,888,-12,41,0
12055,1680,-592,880,-11,40,-2
12060,1688,-600,888,-8,41,-1
12065,1672,-608,856,-10,43,-5
12070,1704,-624,880,-9,45,-4
12075,1680,-608,888,-8,47,-7
12080,1688,-592,864,-8,50,-5
12085,1680,-600,856,-9,50,-8
12090,1672,-608,864,-8,51,-5
12095,1688,-640,880,-8,52,-8
12100,1688,-632,896,-6,52,-7
12105,1680,-616,864,-7,51,-10
12110,1688,-632,880,-8,51,-7
12115,1680,-608,864,-8,51,-10
12120,1712,-632,888,-8,49,-8
12125,1696,-616,872,-10,48,-10
12130,1680,-616,872,-11,48,-8
12135,1688,-616,912,-12,47,-10
12140,1696,-608,856,-11,45,-10
12145,1672,-616,896,-12,44,-10
12150,1704,-608,896,-10,43,-7
12155,1696,-608,872,-11,43,-9
12160,1704,-608,864,-11,41,-9
12165,1728,-632,864,-12,41,-10
12170,1712,-632,928,-11,41,-8
12175,1696,-592,872,-13,45,-8
12180,1688,-624,880,-14,44,-6
12185,1696,-624,888,-14,43,-10
12190,1704,-616,864,-10,44,-9
12195,1712,-608,880,-8,46,-10
12200,1712,-600,888,-9,47,-8
12205,1720,-616,888,-8,50,-9
12210,1712,-600,872,-8,52,-8
12215,1696,-592,864,-7,56,-7
12220,1696,-616,848,-5,59,-2
12225,1720,-624,872,-4,61,-1
12230,1720,-616,880,-3,63,2
12235,1720,-600,872,-5,64,1
12240,1712,-632,880,-7,64,4
12245,1712,-624,864,-6,63,4
12250,1720,-608,864,-6,62,4
12255,1720,-632,880,-4,61,6
12260,1712,-608,888,-4,57,7
12265,1696,-600,888,-2,53,3
12270,1696,-600,872,0,51,4
12275,1688,-584,864,2,51,1
12280,1704,-568,832,5,52,1
12285,1696,-592,840,8,56,-1
12290,1696,-600,848,9,61,-1
12295,1712,-624,864,10,68,-2
12300,1696,-592,856,11,76,-2
12305,1696,-592,872,11,87,-2
12310,1696,-600,896,11,94,-1
12315,1720,-584,888,12,101,-1
12320,1696,-592,880,11,106,1
12325,1704,-616,888,12,109,1
12330,1672,-608,864,11,109,3
12335,1704,-632,888,12,109,5
12340,1680,-600,880,11,108,8
12345,1672,-608,888,13,108,8
12350,1688,-624,888,14,111,9
12355,1680,-608,896,16,111,9
12360,1680,-600,864,17,113,10
12365,1680,-592,856,21,115,9
12370,1720,-600,880,21,118,10
12375,1688,-616,912,23,120,12
12380,1672,-624,840,24,121,12
12385,1704,-616,848,22,122,13
12390,1696,-600,856,23,124,13
12395,1704,-640,872,23,127,11
12400,1688,-608,888,24,133,13
12405,1680,-616,856,28,134,13
12410,1664,-640,880,34,135,15
12415,1656,-624,888,41,135,13
12420,1656,-608,840,44,139,12
12425,1696,-624,880,44,144,10
12430,1688,-616,888,44,148,7
12435,1680,-624,896,43,153,6
12440,1688,-624,872,42,157,7
12445,1688,-616,872,42,157,9
12450,1704,-584,904,42,159,10
12455,1696,-616,904,41,159,11
12460,1696,-616,920,41,157,11
12465,1704,-624,936,40,155,13
12470,1680,-624,928,42,155,11
12475,1704,-624,896,46,154,11
12480,1688,-616,944,50,153,10
12485,1688,-616,936,51,152,7
12490,1688,-616,912,53,154,8
12495,1664,-584,936,53,154,9
12500,1680,-608,920,52,153,9
12505,1704,-592,936,51,153,9
12510,1680,-608,920,48,151,9
12515,1656,-568,920,41,148,7
12520,1680,-584,944,34,143,5
12525,1656,-584,928,27,140,5
12530,1664,-592,896,22,138,3
12535,1664,-600,912,17,136,2
12540,1648,-592,920,17,136,1
12545,1672,-600,928,14,134,2
12550,1664,-600,904,15,134,1
12555,1680,-592,928,19,132,4
12560,1664,-584,928,22,129,5
12565,1656,-568,920,26,127,7
12570,1672,-616,920,29,125,5
12575,1640,-592,944,31,127,8
12580,1672,-600,936,32,127,7
12585,1648,-576,896,32,130,9
12590,1664,-584,920,33,132,8
12595,1656,-592,936,34,133,10
12600,1664,-584,952,36,132,9
12605,1688,-568,968,38,133,10
12610,1664,-576,984,39,131,8
12615,1632,-600,968,38,129,10
12620,1648,-592,976,33,129,11
12625,1664,-584,1000,31,128,13
12630,1664,-584,984,29,126,12
12635,1664,-592,944,29,122,13
12640,1688,-608,960,26,118,12
12645,1664,-576,960,23,114,11
12650,1664,-576,960,21,109,8
12655,1672,-608,976,21,106,11
12660,1664,-584,952,20,103,8
12665,1656,-584,968,19,98,10
12670,1656,-584,960,14,93,7
12675,1648,-592,944,11,88,8
12680,1640,-576,952,6,86,4
12685,1648,-592,936,0,85,4
12690,1648,-608,968,-6,84,2
12695,1664,-600,968,-12,82,3
12700,1656,-616,952,-19,82,1
12705,1656,-584,944,-22,82,2
12710,1672,-616,936,-24,83,0
12715,1664,-608,936,-26,84,5
12720,1672,-616,936,-25,85,4
12725,1664,-608,920,-24,84,7
12730,1664,-608,936,-17,83,8
12735,1648,-616,912,-8,79,10
12740,1664,-632,928,0,74,11
12745,1664,-632,888,10,72,11
12750,1664,-624,920,17,69,8
12755,1640,-608,896,22,70,10
12760,1680,-624,896,23,71,6
12765,1648,-592,968,24,75,8
12770,1656,-600,920,25,78,5
12775,1648,-576,952,25,77,4
12780,1672,-584,944,27,81,2
12785,1664,-592,960,25,86,4
12790,1680,-600,992,22,91,2
12795,1672,-608,968,16,95,5
12800,1656,-576,960,9,96,3
12805,1664,-600,968,5,96,5
12810,1640,-584,960,0,92,4
12815,1640,-584,960,-1,86,6
12820,1632,-600,944,-2,82,4
12825,1648,-600,984,-4,77,4
12830,1632,-592,960,-7,74,1
12835,1632,-600,984,-8,72,4
12840,1632,-616,984,-11,72,-1
12845,1624,-576,968,-13,71,0
12850,1656,-592,952,-17,72,-1
12855,1632,-576,1008,-20,74,0
12860,1648,-600,976,-22,77,-3
12865,1640,-576,976,-23,78,-1
12870,1640,-576,960,-27,80,-3
12875,1624,-592,1000,-31,81,0
12880,1624,-584,976,-32,82,0
12885,1648,-592,976,-36,82,1
12890,1640,-584,960,-39,82,-3
12895,1632,-600,984,-40,80,-1
12900,1648,-608,960,-41,76,-4
12905,1632,-608,944,-40,73,-2
12910,1640,-600,976,-39,69,-6
12915,1640,-584,952,-36,66,-4
12920,1632,-608,952,-34,65,-7
12925,1632,-608,960,-34,62,-4
12930,1624,-576,952,-33,63,-7
12935,1624,-592,944,-30,62,-4
12940,1656,-624,952,-30,63,-6
12945,1656,-616,952,-28,64,-3
12950,1632,-584,952,-28,66,-5
12955,1640,-592,984,-28,65,-2
12960,1656,-600,960,-27,64,-5
12965,1656,-624,936,-25,63,-1
12970,1664,-576,960,-25,63,-1
12975,1672,-608,968,-27,60,2
12980,1648,-592,968,-28,58,1
12985,1648,-592,968,-29,57,4
12990,1696,-600,968,-31,52,6
12995,1672,-600,976,-33,48,11
13000,1688,-608,968,-33,46,9
13005,1704,-608,944,-34,45,12
13010,1680,-624,928,-35,43,10
13015,1680,-632,960,-34,41,14
13020,1696,-632,992,-34,40,12
13025,1680,-616,952,-37,38,13
13030,1712,-608,936,-38,38,10
13035,1688,-592,944,-40,37,13
13040,1680,-584,968,-40,38,11
13045,1680,-592,952,-41,37,13
13050,1664,-608,960,-42,34,12
13055,1656,-584,920,-40,32,16
13060,1664,-632,952,-41,29,13
13065,1656,-616,952,-39,25,14
13070,1664,-616,960,-40,26,11
13075,1648,-608,952,-40,25,14
13080,1656,-608,984,-44,25,11
13085,1640,-616,968,-47,23,13
13090,1624,-616,976,-51,21,9
13095,1640,-600,952,-55,19,11
13100,1624,-624,968,-55,18,8
13105,1616,-616,968,-57,13,5
13110,1624,-624,968,-59,11,2
13115,1592,-600,992,-60,6,4
13120,1608,-624,984,-59,4,2
13125,1608,-600,968,-60,-1,0
13130,1624,-616,952,-62,-3,-6
13135,1600,-616,960,-64,-4,-7
13140,1608,-600,960,-66,-4,-14
13145,1624,-616,968,-65,-1,-14
13150,1624,-616,952,-62,1,-18
13155,1624,-616,944,-58,0,-18
13160,1624,-600,936,-54,0,-20
13165,1608,-600,936,-52,-3,-18
13170,1640,-608,944,-50,-2,-18
13175,1616,-616,960,-45,-4,-18
13180,1648,-624,952,-41,-6,-22
13185,1664,-624,944,-37,-7,-20
13190,1632,-592,928,-37,-12,-22
13195,1632,-632,968,-38,-12,-20
13200,1648,-616,952,-42,-14,-19
13205,1648,-632,936,-44,-16,-17
13210,1648,-608,944,-44,-18,-19
13215,1664,-632,928,-45,-19,-22
13220,1656,-608,936,-49,-18,-25
13225,1664,-624,944,-56,-17,-26
13230,1672,-592,944,-61,-18,-30
13235,1672,-608,936,-65,-20,-29
13240,1664,-600,952,-64,-22,-32
13245,1680,-608,936,-63,-25,-29
13250,1664,-600,912,-61,-28,-28
13255,1664,-624,936,-57,-32,-26
13260,1656,-608,928,-51,-36,-25
13265,1688,-600,912,-43,-43,-21
13270,1672,-600,904,-36,-46,-21
13275,1680,-592,920,-37,-44,-19
13280,1672,-600,936,-38,-43,-19
13285,1664,-576,896,-41,-40,-18
13290,1680,-600,888,-43,-37,-19
13295,1704,-592,920,-44,-32,-16
13300,1696,-592,856,-46,-29,-16
13305,1680,-648,920,-47,-27,-15
13310,1680,-584,904,-47,-24,-14
13315,1704,-608,904,-49,-23,-12
13320,1696,-608,912,-49,-23,-13
13325,1672,-600,904,-49,-22,-12
13330,1704,-608,888,-47,-21,-12
13335,1696,-616,872,-48,-19,-12
13340,1688,-608,920,-47,-20,-12
13345,1712,-632,904,-46,-22,-12
13350,1704,-616,912,-46,-21,-12
13355,1704,-624,896,-45,-19,-11
13360,1720,-616,888,-43,-16,-11
13365,1712,-616,896,-42,-14,-9
13370,1704,-616,904,-43,-13,-10
13375,1696,-616,880,-43,-11,-9
13380,1696,-608,864,-44,-10,-8
13385,1672,-592,904,-43,-9,-8
13390,1680,-600,888,-44,-9,-7
13395,1704,-616,880,-43,-8,-8
13400,1672,-616,888,-43,-7,-9
13405,1680,-616,904,-44,-8,-9
13410,1704,-616,880,-49,-11,-11
13415,1696,-624,920,-50,-11,-12
13420,1680,-632,872,-53,-12,-13
13425,1688,-616,904,-55,-10,-15
13430,1680,-608,896,-57,-8,-14
13435,1688,-640,880,-54,-7,-12
13440,1672,-608,856,-44,-7,-10
13445,1680,-616,880,-36,-11,-10
13450,1688,-624,856,-27,-12,-9
13455,1696,-624,856,-17,-11,-8
13460,1720,-640,848,-9,-8,-9
13465,1720,-616,832,0,-5,-9
13470,1696,-624,856,4,-1,-10
13475,1696,-616,848,3,5,-9
13480,1704,-616,856,2,11,-10
13485,1680,-608,856,0,18,-10
13490,1680,-600,864,-3,22,-9
13495,1712,-608,872,-7,28,-9
13500,1680,-584,856,-7,29,-10
13505,1696,-592,872,-7,29,-10
13510,1704,-584,888,-9,30,-9
13515,1712,-624,856,-9,28,-9
13520,1704,-600,896,-12,30,-6
13525,1696,-584,888,-11,28,-4
13530,1712,-600,880,-8,28,0
13535,1712,-608,872,-5,27,-1
13540,1712,-616,880,-2,26,1
13545,1704,-616,872,0,24,1
13550,1704,-600,880,-2,25,0
13555,1696,-624,880,-3,27,0
13560,1696,-600,872,-4,29,-1
13565,1696,-616,880,-3,31,-2
13570,1696,-592,840,-5,34,-1
13575,1696,-616,872,-5,37,-2
13580,1720,-608,840,-4,41,-1
13585,1688,-608,808,-2,45,0
13590,1704,-608,832,0,51,0
13595,1696,-600,832,0,56,0
13600,1680,-592,832,-1,61,1
13605,1704,-592,832,0,68,-1
13610,1712,-592,840,0,72,0
13615,1688,-592,872,0,77,-2
13620,1696,-616,824,0,81,0
13625,1696,-632,840,2,86,-2
13630,1704,-592,864,1,92,0
13635,1712,-632,856,-1,97,-1
13640,1664,-584,848,0,100,3
13645,1680,-616,840,1,106,0
13650,1696,-624,864,1,110,2
13655,1712,-624,848,1,114,1
13660,1680,-624,880,3,116,2
13665,1704,-608,872,5,119,1
13670,1696,-616,888,7,120,3
13675,1712,-624,848,11,122,5
13680,1704,-608,856,20,121,7
13685,1696,-632,856,26,124,7
13690,1688,-616,880,26,127,10
13695,1704,-624,880,27,130,9
13700,1688,-632,840,28,135,10
13705,1688,-640,888,29,138,7
13710,1688,-616,904,32,140,10
13715,1712,-608,888,33,142,7
13720,1704,-584,896,28,141,8
13725,1712,-584,872,16,138,3
13730,1704,-600,880,11,135,6
13735,1696,-584,944,11,135,4
13740,1728,-600,904,11,130,8
13745,1704,-608,936,13,127,7
13750,1696,-608,880,16,125,11
13755,1688,-600,912,19,124,11
13760,1712,-600,880,19,124,16
13765,1688,-584,880,20,123,15
13770,1688,-616,896,13,119,19
13775,1664,-600,864,13,116,15
13780,1680,-608,880,12,115,15
13785,1680,-616,928,13,116,10
13790,1696,-592,896,12,118,11
13795,1680,-616,888,15,119,10
13800,1696,-624,912,22,119,13
13805,1696,-616,912,28,120,11
13810,1664,-600,888,32,123,14
13815,1664,-600,920,34,127,9
13820,1656,-584,888,28,131,10
13825,1688,-608,936,25,136,8
13830,1672,-592,904,22,138,11
13835,1680,-600,944,19,139,9
13840,1688,-608,928,17,138,14
13845,1688,-624,920,17,139,12
13850,1648,-608,912,20,137,17
13855,1648,-608,944,22,135,16
13860,1640,-608,936,25,134,18
13865,1656,-592,920,24,133,15
13870,1656,-608,920,23,130,17
13875,1656,-616,952,20,130,13
13880,1656,-624,936,18,130,14
13885,1640,-624,896,18,130,10
13890,1656,-632,928,17,129,13
13895,1656,-632,928,18,128,9
13900,1680,-616,888,22,127,11
13905,1680,-600,920,25,128,10
13910,1640,-616,896,31,129,11
13915,1656,-632,912,35,130,10
13920,1656,-616,880,36,128,8
13925,1664,-616,952,37,125,7
13930,1656,-616,896,37,125,8
13935,1672,-624,944,35,124,6
13940,1672,-608,904,39,125,9
13945,1664,-592,904,44,125,4
13950,1656,-624,920,45,123,6
13955,1688,-592,928,44,119,2
13960,1664,-600,936,41,118,4
13965,1656,-600,936,43,120,3
13970,1640,-600,928,43,121,8
13975,1640,-584,944,45,122,7
13980,1664,-608,944,46,125,12
13985,1640,-584,952,46,128,8
13990,1664,-584,936,43,127,9
13995,1648,-600,960,39,126,5
14000,1656,-576,960,36,127,4
14005,1656,-576,928,33,129,1
14010,1680,-592,952,27,133,6
14015,1664,-584,920,23,136,4
14020,1656,-576,984,18,137,8
14025,1672,-568,952,12,134,7
14030,1656,-584,960,6,134,11
14035,1672,-592,968,-3,132,8
14040,1664,-616,952,-14,130,11
14045,1664,-600,992,-23,125,8
14050,1648,-640,984,-32,119,10
14055,1648,-608,952,-37,110,6
14060,1624,-632,992,-41,103,7
14065,1648,-624,1024,-43,91,4
14070,1648,-624,1024,-44,78,5
14075,1648,-624,992,-42,68,2
14080,1656,-632,992,-43,56,3
14085,1656,-616,976,-41,44,2
14090,1648,-616,992,-41,30,3
14095,1656,-616,1000,-42,21,-1
14100,1648,-624,968,-44,15,-2
14105,1656,-600,992,-48,9,-6
14110,1664,-616,1008,-56,5,-6
14115,1672,-608,936,-62,1,-11
14120,1680,-616,976,-68,-1,-11
14125,1664,-600,976,-72,-4,-12
14130,1664,-608,944,-73,-11,-10
14135,1672,-600,952,-72,-18,-13
14140,1664,-608,936,-68,-22,-12
14145,1664,-600,936,-65,-26,-15
14150,1648,-592,936,-65,-28,-15
14155,1656,-600,920,-62,-28,-17
14160,1656,-608,928,-58,-29,-15
14165,1664,-624,920,-50,-30,-18
14170,1648,-592,936,-44,-32,-17
14175,1664,-608,936,-38,-33,-18
14180,1664,-592,904,-34,-34,-14
14185,1664,-632,936,-28,-34,-14
14190,1680,-600,920,-25,-30,-11
14195,1664,-608,928,-20,-28,-10
14200,1640,-592,920,-20,-23,-9
14205,1664,-608,888,-19,-19,-9
14210,1664,-584,920,-18,-15,-7
14215,1648,-600,904,-19,-12,-7
14220,1664,-608,944,-20,-11,-8
14225,1656,-600,920,-20,-8,-8
14230,1640,-592,912,-21,-9,-6
14235,1648,-584,928,-22,-8,-8
14240,1664,-624,880,-23,-8,-5
14245,1656,-616,920,-23,-9,-5
14250,1688,-632,904,-24,-9,-5
14255,1680,-616,920,-25,-8,-6
14260,1664,-600,888,-23,-8,-6
14265,1656,-600,928,-23,-7,-7
14270,1672,-608,920,-22,-7,-5
14275,1672,-608,888,-21,-6,-7
14280,1664,-600,904,-20,-4,-6
14285,1672,-616,896,-20,0,-7
14290,1680,-592,872,-19,1,-7
14295,1656,-608,888,-17,3,-7
14300,1672,-592,920,-13,6,-8
14305,1672,-624,888,-11,10,-8
14310,1680,-616,912,-9,12,-8
14315,1680,-624,856,-8,16,-8
14320,1696,-624,888,-6,22,-6
14325,1648,-624,880,-5,24,-12
14330,1664,-640,920,0,22,-13
14335,1656,-600,880,-1,24,-14
14340,1680,-632,904,-11,33,-12
14345,1688,-616,944,-17,38,-11
14350,1664,-600,928,-19,37,-13
14355,1624,-576,928,-17,32,-16
14360,1648,-600,872,-18,29,-19
14365,1648,-600,904,-21,28,-21
14370,1664,-600,904,-23,31,-19
14375,1704,-624,920,-20,31,-19
14380,1688,-600,872,-16,33,-19
14385,1704,-584,896,-15,34,-19
14390,1720,-576,888,-16,42,-17
14395,1712,-592,880,-17,48,-14
14400,1720,-584,896,-21,53,-12
14405,1696,-600,888,-21,63,-9
14410,1704,-592,888,-22,69,-7
14415,1704,-616,904,-23,76,-7
14420,1712,-592,880,-25,84,-7
14425,1656,-600,912,-28,94,-7
14430,1656,-616,904,-33,98,-6
14435,1672,-616,912,-37,98,-4
14440,1688,-624,928,-34,93,-4
14445,1664,-608,920,-30,90,-2
14450,1664,-608,888,-27,84,-2
14455,1680,-624,904,-26,78,-2
14460,1688,-616,952,-26,73,-2
14465,1680,-616,936,-21,66,-1
14470,1696,-608,936,-22,60,-2
14475,1680,-600,904,-21,53,-2
14480,1696,-616,944,-21,48,-3
14485,1680,-616,912,-25,41,-2
14490,1688,-616,952,-27,34,-3
14495,1712,-600,912,-28,27,-5
14500,1736,-632,912,-32,19,-7
14505,1712,-600,936,-34,14,-8
14510,1688,-592,880,-31,9,-7
14515,1696,-608,896,-26,6,-8
14520,1680,-600,912,-23,5,-10
14525,1696,-592,904,-22,9,-10
14530,1664,-576,872,-23,16,-12
14535,1656,-600,888,-21,23,-10
14540,1704,-608,896,-19,29,-10
14545,1720,-600,920,-16,33,-7
14550,1680,-568,920,-17,37,-5
14555,1680,-592,928,-16,40,0
14560,1704,-592,912,-16,41,3
14565,1688,-600,888,-14,40,5
14570,1680,-600,936,-13,39,6
14575,1680,-624,912,-12,37,10
14580,1680,-624,920,-11,34,7
14585,1680,-624,912,-12,33,8
14590,1640,-608,896,-15,30,5
14595,1664,-608,912,-18,30,5
14600,1672,-632,912,-21,29,3
14605,1680,-616,912,-20,26,3
14610,1680,-608,912,-17,29,0
14615,1688,-608,880,-15,28,2
14620,1696,-616,880,-12,28,0
14625,1680,-608,888,-8,30,3
14630,1680,-616,872,-6,31,0
14635,1696,-616,880,-2,29,3
14640,1688,-608,864,-2,32,2
14645,1688,-616,864,-3,33,4
14650,1672,-608,872,-4,33,3
14655,1704,-624,864,-6,33,5
14660,1680,-608,880,-6,31,3
14665,1672,-608,896,-7,30,4
14670,1696,-592,896,-6,29,1
14675,1680,-632,912,-6,27,3
14680,1680,-592,912,-6,25,0
14685,1696,-608,896,-8,26,3
14690,1680,-600,880,-7,26,0
14695,1696,-600,880,-8,29,2
14700,1696,-600,880,-8,32,1
14705,1696,-608,880,-7,35,5
14710,1688,-616,872,-7,38,1
14715,1696,-608,904,-8,40,4
14720,1688,-608,904,-7,43,2
14725,1680,-584,856,-7,45,4
14730,1672,-600,864,-8,48,1
14735,1696,-600,888,-8,50,5
14740,1696,-592,896,-8,54,3
14745,1688,-616,872,-5,54,6
14750,1680,-584,896,-4,55,5
14755,1696,-592,864,-3,54,7
14760,1704,-600,888,-3,52,3
14765,1680,-616,888,-1,52,7
14770,1688,-616,888,1,51,3
14775,1680,-616,872,2,50,5
14780,1672,-632,896,3,49,1
14785,1680,-616,856,4,50,2
14790,1688,-592,872,2,50,-2
14795,1672,-608,896,2,49,-2
14800,1712,-616,904,0,44,-6
14805,1680,-616,896,-1,43,-5
14810,1728,-624,896,-2,42,-8
14815,1680,-608,880,0,40,-6
14820,1696,-592,872,1,39,-9
14825,1688,-600,888,3,38,-4
14830,1704,-584,920,7,37,-5
14835,1688,-592,872,12,37,-1
14840,1680,-592,896,15,39,0
14845,1688,-584,896,15,42,3
14850,1680,-600,888,16,46,1
14855,1672,-592,880,14,51,2
14860,1696,-576,880,11,57,-1
14865,1688,-584,904,8,60,2
14870,1680,-560,872,5,63,-1
14875,1680,-600,888,3,65,4
14880,1680,-600,912,0,66,2
14885,1680,-608,896,-2,67,4
14890,1664,-600,872,-2,69,0
14895,1704,-632,920,-6,70,1
14900,1696,-592,880,-7,71,-2
14905,1704,-624,912,-11,72,-1
14910,1696,-592,920,-13,69,-4
14915,1688,-600,936,-14,69,-2
14920,1712,-600,872,-15,64,-2
14925,1696,-584,904,-13,59,-1
14930,1704,-600,872,-15,58,-4
14935,1688,-640,888,-13,55,-1
14940,1672,-624,880,-12,53,-3
14945,1656,-600,920,-12,55,-2
14950,1688,-624,904,-12,56,-4
14955,1664,-608,864,-12,59,-2
14960,1680,-616,872,-11,62,-5
14965,1688,-608,888,-10,64,-3
14970,1680,-616,880,-10,68,-7
14975,1664,-608,872,-10,72,-4
14980,1688,-608,880,-8,75,-7
14985,1688,-592,872,-6,77,-3
14990,1696,-624,896,-4,82,-5
