timestamp,accel_x,accel_y,accel_z,gyro_x,gyro_y,gyro_z
0,256,-2096,-440,-67,-11,-1
5,280,-2104,-448,-68,-11,-2
10,264,-2088,-464,-69,-11,-4
15,264,-2088,-416,-67,-11,-4
20,280,-2088,-440,-66,-12,-4
25,216,-2128,-448,-64,-14,-3
30,248,-2072,-440,-63,-18,-2
35,248,-2072,-448,-62,-20,0
40,248,-2104,-384,-60,-22,0
45,264,-2096,-432,-59,-23,2
50,256,-2080,-456,-58,-26,4
55,256,-2104,-432,-55,-27,7
60,248,-2088,-432,-53,-27,6
65,256,-2072,-448,-53,-29,8
70,264,-2080,-424,-55,-30,9
75,248,-2056,-488,-59,-30,8
80,256,-2056,-408,-62,-27,6
85,272,-2064,-424,-62,-27,4
90,240,-2072,-400,-63,-27,1
95,272,-2048,-400,-62,-27,-3
100,256,-2064,-416,-67,-25,-9
105,248,-2072,-408,-71,-24,-13
110,264,-2056,-440,-75,-25,-18
115,264,-2080,-448,-79,-26,-24
120,264,-2088,-424,-85,-27,-28
125,264,-2064,-432,-89,-28,-32
130,248,-2064,-472,-93,-27,-36
135,272,-2072,-432,-92,-27,-38
140,288,-2080,-408,-87,-24,-43
145,296,-2096,-432,-82,-20,-47
150,264,-2064,-448,-74,-16,-47
155,296,-2048,-480,-71,-14,-47
160,272,-2056,-472,-74,-8,-45
165,288,-2072,-464,-76,-8,-43
170,280,-2072,-496,-76,-8,-44
175,296,-2056,-448,-78,-12,-41
180,288,-2064,-488,-83,-13,-37
185,320,-2016,-416,-89,-11,-35
190,320,-2080,-464,-92,-9,-33
195,320,-2048,-488,-93,-6,-33
200,312,-2056,-480,-94,-1,-33
205,352,-2112,-488,-95,5,-35
210,336,-2088,-464,-93,12,-39
215,352,-2088,-496,-92,18,-42
220,360,-2096,-456,-91,26,-45
225,320,-2056,-472,-95,35,-49
230,336,-2064,-456,-96,45,-49
235,328,-2072,-472,-94,56,-52
240,336,-2080,-448,-90,66,-55
245,352,-2088,-472,-92,74,-56
250,360,-2080,-456,-93,83,-57
255,376,-2064,-432,-93,90,-54
260,352,-2080,-416,-92,95,-50
265,376,-2064,-416,-89,98,-49
270,360,-2064,-440,-87,98,-44
275,368,-2072,-376,-86,98,-40
280,336,-2064,-392,-84,97,-36
285,344,-2080,-360,-81,94,-31
290,328,-2024,-400,-77,89,-23
295,336,-2040,-336,-77,82,-18
300,336,-2064,-376,-76,75,-12
305,304,-2040,-352,-77,64,-6
310,320,-2056,-336,-76,54,0
315,296,-2040,-320,-76,42,4
320,280,-2056,-312,-76,28,11
325,256,-2040,-296,-78,13,15
330,288,-2056,-304,-80,-2,18
335,256,-2064,-312,-82,-20,25
340,248,-2032,-272,-85,-38,27
345,272,-2064,-304,-87,-59,35
350,232,-2048,-304,-88,-81,43
355,224,-2064,-280,-91,-100,49
360,240,-2056,-304,-88,-122,56
365,208,-2080,-296,-88,-142,60
370,216,-2080,-264,-87,-165,67
375,224,-2088,-264,-86,-190,77
380,240,-2088,-272,-84,-211,84
385,240,-2072,-272,-80,-232,92
390,248,-2080,-288,-73,-254,96
395,232,-2120,-328,-64,-272,97
400,264,-2096,-288,-55,-289,97
405,280,-2120,-304,-46,-304,98
410,264,-2104,-272,-35,-318,97
415,272,-2120,-296,-26,-332,93
420,320,-2096,-304,-19,-341,90
425,328,-2096,-288,-12,-349,87
430,328,-2088,-272,-8,-355,82
435,344,-2064,-304,-3,-359,77
440,328,-2064,-296,1,-361,73
445,328,-2056,-304,3,-362,68
450,392,-2032,-360,5,-360,64
455,368,-2048,-344,5,-359,60
460,384,-2024,-328,5,-359,60
465,392,-2032,-320,6,-359,58
470,408,-2040,-320,3,-358,58
475,416,-2032,-328,3,-357,58
480,432,-2016,-328,1,-358,61
485,416,-2024,-336,2,-360,64
490,416,-2016,-336,5,-364,67
495,472,-2032,-312,6,-368,72
500,432,-2000,-336,5,-372,77
505,480,-2000,-288,8,-377,83
510,424,-2008,-320,8,-381,90
515,432,-2024,-328,8,-386,96
520,424,-2008,-360,7,-390,103
525,432,-1992,-376,4,-395,109
530,432,-2032,-376,3,-399,115
535,424,-2024,-360,-2,-401,119
540,448,-2040,-376,-2,-403,122
545,440,-2056,-400,-4,-406,126
550,472,-2064,-432,-5,-405,126
555,480,-2056,-384,-6,-404,126
560,448,-2048,-416,-6,-401,124
565,496,-2080,-416,-7,-398,119
570,488,-2080,-384,-5,-396,117
575,520,-2088,-416,-5,-391,110
580,528,-2072,-400,-7,-386,106
585,512,-2128,-416,-8,-379,100
590,544,-2120,-464,-10,-372,93
595,552,-2128,-432,-14,-364,88
600,552,-2128,-448,-18,-357,81
605,544,-2144,-464,-26,-351,76
610,504,-2136,-464,-35,-345,71
615,528,-2160,-440,-46,-342,66
620,528,-2176,-440,-53,-340,64
625,520,-2184,-416,-61,-341,62
630,496,-2208,-432,-67,-347,60
635,480,-2224,-456,-70,-356,57
640,448,-2208,-464,-72,-369,56
645,416,-2224,-432,-72,-385,58
650,368,-2272,-432,-74,-400,59
655,320,-2240,-464,-79,-415,61
660,320,-2248,-480,-82,-430,63
665,256,-2216,-472,-86,-442,66
670,208,-2240,-464,-86,-453,68
675,192,-2232,-472,-87,-460,69
680,184,-2264,-504,-85,-467,70
685,152,-2216,-488,-79,-470,69
690,136,-2192,-480,-70,-470,66
695,120,-2200,-488,-58,-468,61
700,104,-2176,-496,-48,-465,57
705,112,-2152,-488,-37,-457,50
710,104,-2104,-464,-30,-448,42
715,120,-2064,-480,-24,-437,35
720,128,-2048,-536,-20,-426,29
725,128,-2032,-488,-20,-413,23
730,144,-2024,-496,-24,-400,14
735,136,-2016,-480,-33,-386,4
740,136,-2032,-488,-43,-376,-4
745,160,-2032,-504,-53,-368,-11
750,176,-2048,-464,-65,-361,-17
755,176,-2048,-520,-77,-355,-21
760,176,-2016,-496,-88,-352,-24
765,176,-2032,-520,-96,-350,-25
770,216,-2048,-488,-105,-351,-26
775,184,-2032,-512,-114,-349,-27
780,168,-2040,-528,-123,-347,-26
785,168,-2048,-512,-131,-346,-24
790,176,-2048,-568,-140,-344,-22
795,160,-2024,-576,-145,-340,-21
800,168,-2040,-584,-150,-335,-20
805,176,-2032,-560,-152,-330,-20
810,152,-2064,-584,-154,-323,-20
815,112,-2040,-560,-155,-316,-21
820,128,-2064,-576,-156,-308,-21
825,112,-2040,-528,-156,-299,-21
830,112,-2048,-584,-156,-290,-23
835,112,-2048,-576,-157,-282,-28
840,112,-2048,-584,-156,-275,-32
845,56,-2040,-584,-156,-268,-35
850,64,-2040,-592,-157,-262,-38
855,88,-2048,-568,-159,-258,-40
860,56,-2024,-600,-159,-253,-41
865,64,-2008,-552,-162,-249,-41
870,48,-2032,-600,-165,-245,-36
875,40,-2040,-608,-169,-241,-32
880,24,-2008,-624,-171,-237,-29
885,24,-2024,-576,-176,-234,-23
890,16,-1992,-576,-181,-231,-18
895,24,-2048,-568,-181,-230,-13
900,-16,-2008,-576,-181,-226,-6
905,0,-2032,-560,-180,-224,-1
910,40,-2056,-536,-179,-223,4
915,-8,-2048,-520,-176,-222,11
920,24,-2072,-536,-172,-225,16
925,8,-2080,-536,-166,-223,18
930,48,-2096,-536,-161,-223,22
935,40,-2064,-464,-156,-223,25
940,32,-2112,-520,-148,-218,26
945,40,-2104,-520,-142,-217,28
950,56,-2104,-496,-136,-216,27
955,24,-2104,-552,-133,-214,26
960,48,-2112,-512,-132,-215,25
965,56,-2128,-504,-127,-214,25
970,32,-2144,-504,-124,-216,24
975,32,-2136,-512,-121,-221,21
980,8,-2104,-520,-111,-228,20
985,0,-2152,-520,-106,-236,21
990,16,-2112,-504,-98,-246,20
995,16,-2160,-512,-89,-257,21
1000,-24,-2112,-504,-77,-269,22
1005,-8,-2128,-512,-65,-278,25
1010,-16,-2120,-480,-56,-292,28
1015,-32,-2128,-512,-45,-306,30
1020,-72,-2104,-504,-33,-316,35
1025,-72,-2104,-488,-24,-325,37
1030,-56,-2088,-520,-18,-335,40
1035,-72,-2104,-520,-12,-342,45
1040,-48,-2056,-496,-11,-346,47
1045,-56,-2080,-496,-14,-352,49
1050,-64,-2080,-544,-17,-354,48
1055,-64,-2080,-544,-23,-356,50
1060,-24,-2072,-528,-27,-356,50
1065,-32,-2072,-544,-33,-357,49
1070,0,-2048,-544,-36,-357,46
1075,0,-2072,-504,-37,-358,44
1080,24,-2064,-528,-37,-358,41
1085,32,-2056,-544,-35,-358,38
1090,56,-2096,-544,-35,-358,36
1095,40,-2072,-504,-32,-358,35
1100,64,-2048,-504,-28,-361,34
1105,40,-2064,-560,-26,-361,32
1110,32,-2048,-576,-24,-362,31
1115,72,-2056,-560,-23,-363,28
1120,80,-2064,-544,-21,-363,27
1125,64,-2048,-560,-19,-362,26
1130,72,-2032,-552,-20,-361,26
1135,72,-2048,-536,-18,-360,24
1140,80,-2048,-520,-18,-358,26
1145,80,-2056,-536,-19,-354,28
1150,80,-2024,-520,-18,-354,29
1155,80,-2048,-528,-18,-350,31
1160,48,-2048,-536,-18,-346,34
1165,80,-2072,-552,-19,-342,35
1170,48,-2048,-528,-18,-337,35
1175,32,-2040,-520,-20,-333,37
1180,48,-2064,-536,-21,-328,39
1185,24,-2040,-520,-24,-324,41
1190,56,-2048,-536,-26,-318,39
1195,40,-2048,-520,-31,-314,38
1200,80,-2024,-512,-32,-309,38
1205,56,-2040,-544,-35,-305,38
1210,64,-2048,-512,-37,-302,36
1215,64,-2048,-536,-37,-299,33
1220,56,-2040,-528,-39,-294,30
1225,64,-2040,-520,-40,-290,28
1230,56,-2048,-536,-40,-285,26
1235,24,-2064,-512,-40,-277,23
1240,64,-2056,-552,-39,-272,22
1245,72,-2080,-520,-41,-265,20
1250,80,-2064,-504,-42,-258,18
1255,88,-2072,-512,-43,-251,18
1260,72,-2072,-520,-44,-242,17
1265,72,-2104,-560,-46,-236,18
1270,80,-2072,-496,-49,-231,17
1275,72,-2104,-536,-49,-224,18
1280,80,-2088,-512,-52,-220,18
1285,88,-2080,-544,-55,-216,18
1290,80,-2096,-512,-54,-212,18
1295,88,-2096,-512,-54,-208,20
1300,80,-2104,-544,-53,-204,22
1305,96,-2104,-496,-50,-200,24
1310,24,-2088,-568,-50,-198,25
1315,48,-2080,-504,-48,-194,28
1320,80,-2080,-528,-45,-191,31
1325,48,-2080,-544,-44,-187,35
1330,40,-2080,-528,-41,-184,39
1335,56,-2072,-552,-39,-181,42
1340,40,-2072,-528,-38,-178,45
1345,32,-2072,-544,-38,-175,47
1350,0,-2096,-520,-36,-172,51
1355,32,-2112,-544,-35,-172,52
1360,40,-2016,-512,-33,-169,52
1365,40,-2088,-520,-32,-169,54
1370,-8,-2072,-496,-30,-168,55
1375,0,-2080,-496,-30,-170,55
1380,0,-2064,-480,-27,-170,56
1385,8,-2080,-512,-28,-170,56
1390,0,-2088,-544,-28,-171,58
1395,-8,-2088,-512,-32,-171,61
1400,0,-2088,-520,-33,-169,63
1405,-8,-2088,-536,-36,-166,65
1410,-40,-2088,-504,-37,-165,65
1415,-24,-2096,-552,-36,-163,65
1420,-16,-2104,-536,-36,-157,65
1425,-24,-2096,-512,-34,-152,64
1430,-32,-2104,-496,-32,-146,61
1435,-8,-2088,-520,-28,-140,57
1440,-16,-2080,-520,-24,-131,54
1445,-8,-2088,-504,-23,-124,50
1450,8,-2080,-504,-18,-117,44
1455,-32,-2056,-520,-17,-111,40
1460,-16,-2080,-536,-18,-104,37
1465,16,-2072,-480,-18,-99,34
1470,-24,-2080,-520,-21,-96,32
1475,-24,-2064,-536,-24,-91,32
1480,-8,-2072,-544,-29,-89,32
1485,-40,-2056,-528,-33,-86,32
1490,0,-2056,-520,-37,-84,34
1495,-40,-2064,-520,-42,-82,35
1500,-8,-2080,-544,-44,-81,37
1505,-32,-2056,-528,-48,-82,38
1510,-32,-2096,-544,-49,-81,37
1515,-32,-2064,-528,-48,-82,37
1520,-24,-2064,-536,-48,-82,35
1525,-48,-2048,-528,-47,-81,34
1530,-64,-2040,-528,-46,-80,32
1535,-72,-2048,-528,-47,-78,27
1540,-80,-2056,-520,-43,-74,25
1545,-72,-2056,-544,-44,-69,20
1550,-56,-2064,-544,-45,-62,15
1555,-56,-2056,-536,-45,-54,11
1560,-88,-2048,-536,-47,-45,6
1565,-80,-2048,-504,-51,-36,2
1570,-72,-2072,-536,-54,-28,-2
1575,-88,-2072,-560,-59,-21,-5
1580,-80,-2096,-544,-62,-16,-9
1585,-64,-2104,-520,-65,-10,-13
1590,-72,-2112,-544,-70,-6,-14
1595,-88,-2096,-520,-75,-3,-14
1600,-80,-2128,-520,-73,-2,-14
1605,-72,-2112,-560,-73,-1,-12
1610,-72,-2144,-528,-74,-1,-10
1615,-80,-2128,-520,-74,-1,-8
1620,-48,-2184,-528,-70,1,-6
1625,-48,-2160,-544,-63,-1,-4
1630,-64,-2120,-480,-56,-1,-1
1635,-80,-2160,-504,-46,-4,0
1640,-64,-2152,-544,-38,-4,1
1645,-56,-2152,-544,-30,-8,2
1650,-56,-2128,-520,-20,-10,1
1655,-56,-2136,-528,-12,-11,-1
1660,-64,-2136,-496,-3,-14,-1
1665,-72,-2088,-536,1,-15,-4
1670,-72,-2080,-504,9,-18,-6
1675,-72,-2104,-528,13,-20,-8
1680,-104,-2056,-456,18,-20,-10
1685,-88,-2080,-480,21,-20,-12
1690,-88,-2104,-512,23,-19,-15
1695,-88,-2056,-512,23,-18,-18
1700,-80,-2056,-520,24,-18,-22
1705,-104,-2048,-512,20,-19,-24
1710,-72,-2064,-520,16,-20,-28
1715,-72,-2048,-496,11,-22,-27
1720,-96,-2048,-472,6,-26,-29
1725,-104,-2048,-512,0,-33,-32
1730,-88,-2040,-512,-5,-37,-31
1735,-88,-2056,-504,-12,-43,-31
1740,-88,-2048,-528,-18,-50,-32
1745,-112,-2064,-528,-24,-57,-30
1750,-88,-2056,-512,-28,-63,-31
1755,-104,-2056,-536,-33,-70,-30
1760,-96,-2064,-536,-33,-76,-30
1765,-104,-2056,-496,-31,-80,-30
1770,-96,-2056,-480,-32,-85,-34
1775,-96,-2048,-520,-27,-89,-37
1780,-88,-2032,-472,-23,-93,-40
1785,-80,-2056,-480,-19,-98,-43
1790,-80,-2056,-528,-19,-101,-46
1795,-56,-2056,-488,-17,-104,-50
1800,-56,-2048,-472,-18,-107,-54
1805,-80,-2056,-472,-20,-107,-56
1810,-64,-2056,-456,-24,-108,-59
1815,-48,-2064,-488,-27,-108,-61
1820,-40,-2072,-464,-29,-108,-62
1825,-16,-2088,-472,-34,-108,-64
1830,0,-2120,-488,-37,-106,-65
1835,-8,-2088,-472,-41,-104,-64
1840,32,-2144,-480,-42,-103,-66
1845,40,-2136,-456,-42,-103,-66
1850,40,-2120,-472,-39,-100,-68
1855,32,-2144,-480,-36,-97,-65
1860,56,-2144,-488,-32,-92,-66
1865,88,-2136,-464,-26,-88,-65
1870,48,-2120,-472,-24,-84,-66
1875,48,-2128,-496,-18,-79,-67
1880,48,-2136,-504,-12,-73,-67
1885,48,-2120,-464,-7,-66,-69
1890,48,-2112,-464,-2,-59,-70
1895,64,-2096,-440,5,-52,-72
1900,56,-2096,-472,10,-46,-77
1905,56,-2072,-520,15,-39,-80
1910,88,-2072,-456,21,-32,-85
1915,72,-2072,-464,27,-25,-88
1920,64,-2080,-464,30,-16,-90
1925,88,-2072,-448,36,-7,-96
1930,88,-2072,-440,41,3,-101
1935,72,-2064,-432,46,13,-102
1940,104,-2072,-440,49,21,-104
1945,120,-2064,-440,50,27,-105
1950,56,-2080,-440,50,32,-105
1955,72,-2048,-448,45,35,-101
1960,72,-2056,-488,38,39,-96
1965,80,-2056,-456,29,41,-89
1970,56,-2064,-504,21,44,-79
1975,40,-2096,-488,11,46,-69
1980,56,-2104,-472,0,47,-57
1985,16,-2128,-520,-11,49,-44
1990,0,-2088,-480,-17,49,-33
1995,-24,-2136,-504,-23,47,-23
2000,-48,-2160,-496,-28,47,-14
2005,-32,-2144,-512,-28,46,-7
2010,-48,-2136,-480,-27,46,-3
2015,0,-2176,-504,-22,48,0
2020,-32,-2152,-480,-17,50,-1
2025,-8,-2160,-504,-9,54,-4
2030,0,-2152,-488,-4,57,-10
2035,56,-2136,-480,3,62,-17
2040,40,-2144,-504,11,71,-25
2045,56,-2096,-512,20,80,-33
2050,88,-2080,-480,29,90,-42
2055,56,-2032,-456,38,100,-51
2060,96,-2040,-488,45,109,-60
2065,128,-2032,-456,50,119,-71
2070,120,-2016,-496,54,128,-81
2075,136,-2016,-496,54,137,-89
2080,144,-2008,-488,55,142,-96
2085,168,-2000,-472,50,148,-103
2090,144,-2008,-488,44,151,-107
2095,192,-2000,-504,36,153,-112
2100,160,-1992,-480,26,152,-114
2105,176,-2000,-464,15,150,-115
2110,280,-1960,-456,3,145,-113
2115,160,-2024,-488,-7,140,-110
2120,128,-2040,-448,-17,133,-107
2125,152,-2048,-464,-25,127,-100
2130,128,-2064,-464,-29,123,-94
2135,64,-2056,-456,-34,118,-86
2140,104,-2056,-464,-33,115,-79
2145,64,-2072,-480,-34,113,-74
2150,48,-2080,-480,-32,113,-69
2155,96,-2112,-456,-30,114,-65
2160,120,-2104,-384,-28,116,-61
2165,56,-2112,-472,-23,117,-60
2170,64,-2128,-464,-18,118,-58
2175,72,-2128,-456,-13,119,-58
2180,112,-2128,-488,-8,120,-62
2185,104,-2128,-464,-2,118,-64
2190,112,-2128,-480,1,117,-67
2195,128,-2120,-488,5,117,-69
2200,120,-2096,-488,8,117,-75
2205,128,-2080,-456,11,117,-79
2210,128,-2080,-512,12,118,-82
2215,200,-2088,-456,14,118,-85
2220,152,-2064,-496,16,120,-87
2225,160,-2064,-464,15,122,-88
2230,176,-2072,-480,13,126,-89
2235,160,-2056,-488,12,128,-87
2240,144,-2072,-496,7,129,-85
2245,176,-2056,-448,5,130,-82
2250,160,-2056,-472,4,131,-78
2255,160,-2032,-448,0,131,-74
2260,184,-2048,-448,-3,130,-70
2265,160,-2064,-456,-4,130,-68
2270,112,-2080,-488,-5,128,-65
2275,144,-2056,-480,-5,127,-62
2280,136,-2072,-440,-6,126,-61
2285,160,-2072,-472,-6,125,-61
2290,136,-2048,-464,-6,125,-62
2295,136,-2064,-456,-5,126,-63
2300,136,-2088,-472,-4,126,-63
2305,128,-2088,-440,-3,128,-66
2310,104,-2096,-448,-1,133,-68
2315,128,-2096,-464,-2,134,-71
2320,136,-2088,-520,1,135,-72
2325,112,-2064,-408,0,135,-74
2330,112,-2112,-464,3,137,-76
2335,128,-2096,-456,2,136,-77
2340,120,-2104,-440,4,135,-76
2345,120,-2088,-472,4,135,-77
2350,128,-2096,-456,7,134,-77
2355,136,-2104,-448,9,131,-78
2360,160,-2072,-456,11,130,-77
2365,160,-2072,-432,11,128,-78
2370,160,-2104,-488,12,127,-78
2375,216,-2096,-368,13,126,-77
2380,160,-2072,-456,14,126,-77
2385,152,-2080,-440,15,126,-78
2390,160,-2096,-440,16,126,-78
2395,152,-2072,-424,17,126,-77
2400,160,-2072,-456,16,126,-78
2405,160,-2072,-448,17,125,-77
2410,128,-2088,-472,16,121,-76
2415,136,-2048,-456,16,118,-76
2420,136,-2056,-464,14,117,-76
2425,144,-2080,-456,11,113,-74
2430,120,-2080,-424,10,111,-73
2435,152,-2088,-448,9,107,-74
2440,144,-2080,-432,8,102,-74
2445,152,-2064,-440,5,100,-73
2450,120,-2080,-400,8,97,-74
2455,152,-2080,-432,7,96,-73
2460,152,-2080,-440,7,94,-74
2465,168,-2096,-448,7,91,-75
2470,184,-2056,-440,7,90,-76
2475,160,-2064,-448,6,90,-77
2480,160,-2080,-456,3,90,-77
2485,200,-2048,-456,5,90,-78
2490,216,-2064,-456,3,88,-79
2495,224,-2072,-432,2,87,-79
2500,216,-2064,-448,1,86,-80
2505,208,-2072,-448,-1,85,-80
2510,232,-2072,-432,-2,81,-81
2515,224,-2080,-440,-3,77,-80
2520,200,-2096,-400,-3,75,-80
2525,208,-2104,-440,-4,71,-79
2530,240,-2056,-400,-4,68,-75
2535,192,-2072,-416,-3,63,-75
2540,208,-2096,-432,-3,58,-72
2545,200,-2128,-424,-3,57,-70
2550,200,-2064,-456,-2,54,-67
2555,200,-2096,-456,-2,50,-65
2560,208,-2088,-432,-5,48,-64
2565,216,-2088,-424,-4,47,-63
2570,216,-2088,-440,-5,46,-62
2575,208,-2080,-448,-2,45,-61
2580,216,-2064,-432,-3,44,-60
2585,216,-2064,-392,-1,43,-60
2590,208,-2064,-392,-1,42,-58
2595,224,-2080,-432,-1,42,-58
2600,248,-2088,-448,2,42,-57
2605,224,-2072,-440,2,44,-55
2610,256,-2088,-432,1,46,-55
2615,240,-2048,-424,2,44,-56
2620,248,-2064,-448,2,45,-55
2625,264,-2072,-424,0,44,-55
2630,264,-2072,-448,-2,42,-55
2635,264,-2072,-408,-4,39,-54
2640,256,-2056,-416,-5,37,-55
2645,264,-2080,-432,-6,35,-55
2650,264,-2040,-432,-7,30,-53
2655,264,-2064,-448,-12,28,-51
2660,248,-2064,-448,-14,24,-52
2665,272,-2056,-416,-13,21,-51
2670,264,-2080,-424,-15,19,-48
2675,272,-2104,-432,-16,19,-47
2680,272,-2064,-400,-13,18,-45
2685,224,-2064,-432,-13,16,-44
2690,216,-2064,-456,-11,13,-41
2695,248,-2080,-408,-13,13,-39
2700,232,-2072,-464,-14,12,-38
2705,208,-2056,-408,-12,12,-35
2710,216,-2056,-440,-14,12,-32
2715,232,-2064,-440,-16,11,-31
2720,200,-2080,-432,-16,10,-27
2725,208,-2080,-416,-19,8,-26
2730,208,-2056,-408,-20,8,-26
2735,208,-2080,-424,-20,6,-25
2740,240,-2064,-440,-21,5,-26
2745,208,-2056,-432,-20,2,-29
2750,224,-2072,-384,-19,1,-29
2755,256,-2048,-408,-19,1,-30
2760,248,-2080,-416,-18,-3,-34
2765,240,-2072,-400,-20,-4,-38
2770,264,-2064,-416,-21,-6,-44
2775,256,-2064,-440,-24,-6,-48
2780,248,-2048,-376,-25,-9,-55
2785,232,-2072,-408,-29,-13,-56
2790,256,-2056,-448,-31,-17,-60
2795,224,-2072,-448,-33,-22,-65
2800,216,-2064,-440,-37,-26,-68
2805,248,-2080,-448,-38,-33,-71
2810,272,-2112,-440,-40,-37,-76
2815,240,-2080,-448,-41,-42,-81
2820,240,-2064,-440,-42,-49,-85
2825,240,-2088,-448,-42,-51,-90
2830,232,-2072,-456,-44,-56,-96
2835,224,-2056,-432,-46,-61,-104
2840,232,-2072,-464,-47,-64,-112
2845,248,-2080,-480,-50,-68,-120
2850,208,-2072,-464,-55,-71,-127
2855,248,-2072,-440,-57,-73,-133
2860,248,-2056,-472,-63,-73,-136
2865,240,-2064,-456,-64,-72,-144
2870,240,-2048,-448,-69,-67,-147
2875,232,-2056,-464,-73,-63,-149
2880,280,-2072,-440,-75,-56,-150
2885,256,-2032,-464,-79,-48,-151
2890,272,-2040,-472,-81,-39,-151
2895,272,-2048,-448,-85,-30,-150
2900,288,-2048,-440,-87,-23,-148
2905,304,-2072,-440,-93,-14,-146
2910,288,-2056,-440,-97,-6,-142
2915,320,-2040,-448,-105,-2,-141
2920,352,-2048,-448,-110,5,-137
2925,352,-2048,-440,-116,8,-132
2930,344,-2048,-416,-122,11,-127
2935,360,-2064,-432,-130,11,-121
2940,328,-2048,-424,-138,10,-116
2945,368,-2064,-432,-145,6,-108
2950,360,-2048,-400,-153,2,-100
2955,336,-2032,-424,-159,-4,-93
2960,360,-2040,-408,-165,-8,-84
2965,320,-2032,-408,-169,-12,-75
2970,328,-2024,-432,-172,-18,-67
2975,336,-2032,-408,-172,-23,-55
2980,320,-2048,-384,-170,-30,-45
2985,304,-2040,-400,-166,-36,-34
2990,296,-2048,-416,-163,-42,-24
2995,312,-2056,-400,-153,-49,-12
3000,280,-2048,-424,-146,-57,-3
3005,280,-2056,-408,-140,-64,6
3010,256,-2056,-424,-135,-69,12
3015,272,-2080,-408,-132,-73,16
3020,296,-2088,-408,-128,-75,21
3025,296,-2104,-408,-125,-78,22
3030,296,-2104,-384,-120,-78,23
3035,328,-2104,-400,-115,-79,24
3040,312,-2104,-384,-108,-81,23
3045,328,-2104,-384,-102,-83,22
3050,328,-2104,-360,-93,-83,23
3055,328,-2088,-328,-81,-86,22
3060,360,-2136,-344,-68,-89,22
3065,352,-2096,-336,-54,-91,24
3070,320,-2128,-352,-40,-94,27
3075,296,-2080,-352,-26,-97,31
3080,328,-2088,-344,-15,-101,35
3085,312,-2072,-344,-6,-107,40
3090,304,-2096,-368,-2,-112,43
3095,288,-2080,-352,-1,-118,46
3100,272,-2064,-368,-1,-125,48
3105,280,-2080,-400,-3,-129,51
3110,288,-2080,-392,-7,-132,51
3115,272,-2048,-392,-12,-135,50
3120,288,-2096,-400,-17,-136,49
3125,304,-2088,-440,-21,-138,48
3130,304,-2072,-392,-23,-136,46
3135,320,-2064,-440,-26,-134,43
3140,336,-2032,-424,-25,-130,39
3145,320,-2056,-440,-23,-122,36
3150,360,-2048,-440,-20,-113,35
3155,384,-2040,-416,-18,-102,31
3160,424,-2040,-456,-16,-91,27
3165,392,-2008,-472,-13,-77,23
3170,408,-1984,-448,-11,-65,18
3175,448,-2024,-472,-12,-55,13
3180,456,-1984,-480,-13,-46,9
3185,488,-2008,-472,-18,-40,6
3190,480,-2000,-456,-25,-35,2
3195,496,-2024,-472,-33,-31,-3
3200,488,-2016,-496,-41,-30,-6
3205,504,-2048,-456,-54,-28,-12
3210,472,-2040,-480,-65,-28,-15
3215,512,-2064,-464,-75,-28,-21
3220,504,-2080,-464,-85,-29,-26
3225,528,-2088,-480,-93,-26,-29
3230,472,-2152,-440,-96,-25,-33
3235,464,-2160,-472,-98,-21,-37
3240,456,-2168,-456,-96,-16,-40
3245,408,-2152,-448,-96,-9,-40
3250,392,-2136,-464,-89,-1,-41
3255,376,-2136,-456,-84,6,-41
3260,368,-2120,-464,-76,16,-38
3265,344,-2120,-464,-74,25,-36
3270,352,-2120,-472,-71,34,-33
3275,320,-2080,-456,-68,43,-29
3280,312,-2048,-472,-68,52,-25
3285,280,-2048,-472,-67,57,-20
3290,288,-2024,-512,-72,61,-16
3295,264,-2032,-496,-76,63,-11
3300,248,-2032,-464,-80,62,-5
3305,248,-2008,-456,-88,57,-1
3310,240,-1992,-472,-99,51,4
3315,248,-2024,-448,-104,43,8
3320,232,-1992,-432,-113,33,13
3325,192,-2016,-400,-121,22,16
3330,224,-2000,-424,-127,12,18
3335,200,-2032,-376,-134,2,20
3340,160,-1992,-432,-140,-7,22
3345,200,-2024,-432,-146,-15,25
3350,176,-2032,-432,-149,-21,27
3355,152,-2040,-424,-155,-25,26
3360,144,-2048,-440,-158,-30,29
3365,176,-2064,-456,-161,-32,31
3370,184,-2072,-440,-162,-34,32
3375,184,-2088,-464,-164,-36,33
3380,176,-2104,-456,-166,-37,33
3385,216,-2136,-464,-165,-38,33
3390,176,-2112,-480,-166,-41,33
3395,192,-2144,-488,-164,-42,32
3400,184,-2128,-512,-160,-43,31
3405,208,-2128,-488,-154,-46,30
3410,208,-2144,-504,-149,-44,28
3415,224,-2136,-512,-142,-42,26
3420,232,-2120,-520,-134,-41,22
3425,208,-2160,-520,-128,-37,18
3430,232,-2120,-472,-120,-33,14
3435,240,-2096,-496,-114,-28,10
3440,272,-2088,-504,-107,-23,6
3445,288,-2112,-496,-105,-18,0
3450,256,-2104,-456,-100,-14,-4
3455,288,-2120,-488,-98,-11,-8
3460,280,-2096,-504,-98,-7,-10
3465,280,-2104,-480,-97,-2,-12
3470,288,-2072,-480,-100,2,-16
3475,272,-2080,-488,-100,3,-18
3480,272,-2096,-488,-102,4,-16
3485,296,-2072,-488,-106,4,-15
3490,264,-2048,-488,-112,3,-12
3495,264,-2048,-512,-116,1,-9
3500,232,-2016,-520,-118,-2,-5
3505,224,-2112,-512,-123,-3,1
3510,224,-2008,-464,-127,-8,8
3515,248,-2000,-504,-130,-9,15
3520,240,-1984,-472,-132,-11,22
3525,216,-1992,-496,-136,-12,28
3530,216,-1992,-456,-139,-12,34
3535,216,-1992,-472,-142,-12,39
3540,192,-2016,-472,-145,-10,42
3545,200,-2016,-472,-150,-8,45
3550,208,-2000,-488,-156,-6,48
3555,216,-2024,-400,-164,-2,51
3560,200,-2032,-488,-172,3,51
3565,176,-2032,-512,-183,9,51
3570,200,-2032,-488,-192,15,50
3575,200,-2048,-496,-198,21,50
3580,216,-2072,-512,-205,22,47
3585,216,-2056,-488,-212,26,46
3590,200,-2072,-488,-216,30,46
3595,240,-2056,-512,-216,32,45
3600,208,-2072,-520,-217,35,43
3605,272,-2072,-560,-214,37,43
3610,232,-2072,-520,-213,37,43
3615,224,-2080,-544,-209,40,43
3620,224,-2048,-552,-203,42,43
3625,224,-2088,-536,-201,45,44
3630,232,-2088,-544,-197,47,46
3635,200,-2056,-528,-192,51,50
3640,224,-2040,-528,-189,55,54
3645,216,-2048,-520,-187,60,55
3650,176,-2056,-552,-184,64,56
3655,208,-2048,-552,-182,69,60
3660,216,-2016,-488,-186,72,62
3665,232,-2040,-536,-189,77,65
3670,232,-2040,-560,-190,80,67
3675,240,-2040,-560,-195,83,69
3680,240,-2024,-528,-199,88,71
3685,240,-2024,-576,-206,91,74
3690,224,-2016,-584,-211,97,76
3695,224,-2000,-608,-218,99,79
3700,232,-2024,-576,-223,104,81
3705,232,-2032,-568,-232,110,83
3710,208,-2024,-584,-236,114,84
3715,224,-2008,-528,-242,118,87
3720,208,-2008,-600,-245,122,90
3725,200,-2024,-584,-247,126,89
3730,208,-2008,-584,-251,129,91
3735,216,-2040,-576,-254,131,93
3740,216,-2032,-592,-259,131,95
3745,208,-2016,-584,-260,130,96
3750,208,-2000,-576,-264,130,98
3755,200,-2024,-600,-265,127,100
3760,184,-2016,-560,-265,124,101
3765,208,-2024,-608,-265,123,101
3770,184,-2072,-536,-265,124,100
3775,200,-2040,-608,-266,125,102
3780,200,-2024,-632,-265,124,101
3785,184,-2040,-616,-265,128,106
3790,184,-2000,-600,-265,129,108
3795,176,-2000,-584,-263,132,111
3800,192,-2024,-568,-259,135,114
3805,176,-2016,-592,-261,137,119
3810,176,-2000,-584,-261,140,121
3815,216,-2024,-608,-263,140,124
3820,192,-2024,-608,-268,142,127
3825,184,-2040,-616,-274,144,130
3830,208,-2032,-576,-280,145,131
3835,200,-2048,-584,-286,143,133
3840,208,-2032,-600,-292,142,134
3845,208,-2032,-592,-300,139,134
3850,224,-2040,-608,-307,135,133
3855,192,-2048,-608,-314,131,132
3860,192,-2048,-608,-318,126,129
3865,200,-2064,-600,-322,120,126
3870,208,-2064,-608,-323,115,121
3875,160,-2056,-632,-324,110,117
3880,176,-2080,-672,-322,105,112
3885,168,-2072,-664,-319,101,107
3890,192,-2136,-688,-316,97,101
3895,176,-2096,-592,-310,93,97
3900,160,-2096,-648,-306,88,94
3905,88,-2088,-672,-303,84,92
3910,128,-2104,-672,-301,79,87
3915,184,-2048,-696,-297,76,83
3920,200,-2000,-656,-292,73,84
3925,192,-2056,-632,-289,70,83
3930,144,-2112,-544,-287,67,82
3935,192,-2096,-656,-286,66,83
3940,152,-2128,-640,-284,65,83
3945,144,-2136,-696,-281,65,82
3950,128,-2104,-720,-280,66,81
3955,120,-2120,-656,-278,65,80
3960,152,-2128,-656,-279,66,78
3965,168,-2080,-704,-278,65,76
3970,248,-2088,-576,-275,64,74
3975,152,-2096,-680,-277,63,71
3980,200,-2048,-712,-274,60,68
3985,208,-2072,-672,-272,57,66
3990,224,-2056,-640,-269,55,65
3995,176,-2088,-704,-264,52,63
4000,120,-2064,-792,-259,50,60
4005,184,-2080,-704,-255,48,60
4010,208,-2096,-720,-252,47,59
4015,168,-2016,-712,-247,46,59
4020,168,-1992,-624,-243,46,57
4025,152,-2032,-680,-240,44,58
4030,160,-2016,-728,-236,42,59
4035,192,-2008,-728,-235,39,58
4040,168,-2016,-752,-236,39,58
4045,168,-1984,-624,-237,38,59
4050,192,-2008,-728,-238,37,59
4055,176,-2008,-696,-239,37,60
4060,176,-2000,-704,-241,37,63
4065,152,-2008,-712,-239,35,63
4070,192,-2016,-712,-242,34,63
4075,160,-2016,-752,-244,30,65
4080,152,-2008,-760,-244,28,69
4085,144,-2000,-728,-248,26,70
4090,168,-2024,-800,-249,23,71
4095,136,-2000,-768,-250,21,74
4100,112,-1992,-744,-252,17,74
4105,136,-2024,-760,-253,13,76
4110,120,-2024,-744,-257,10,77
4115,120,-2000,-720,-259,7,78
4120,104,-2008,-768,-260,4,81
4125,120,-2016,-776,-262,-1,81
4130,120,-2024,-768,-263,-5,83
4135,96,-2016,-800,-264,-9,85
4140,112,-2016,-808,-263,-11,87
4145,160,-1976,-760,-261,-14,88
4150,104,-2008,-816,-261,-16,88
4155,104,-2024,-800,-257,-18,89
4160,104,-2000,-808,-258,-18,93
4165,120,-2024,-816,-256,-20,94
4170,104,-2016,-824,-254,-19,98
4175,96,-2008,-832,-250,-20,99
4180,112,-2008,-808,-247,-20,101
4185,112,-2024,-832,-244,-20,102
4190,104,-1992,-776,-239,-19,104
4195,112,-2008,-816,-236,-19,105
4200,120,-2016,-832,-234,-19,105
4205,128,-2016,-816,-230,-19,106
4210,128,-2008,-824,-229,-16,106
4215,104,-2000,-816,-227,-13,105
4220,112,-2000,-824,-226,-11,102
4225,120,-2008,-832,-225,-9,100
4230,136,-1984,-832,-225,-7,98
4235,128,-1968,-832,-225,-5,97
4240,152,-1976,-832,-224,-5,93
4245,168,-1968,-816,-222,-5,91
4250,112,-1928,-856,-222,-4,88
4255,144,-1960,-840,-223,-5,87
4260,128,-1928,-856,-224,-5,85
4265,112,-1960,-864,-227,-3,85
4270,120,-1936,-840,-229,-4,85
4275,112,-1920,-888,-234,-3,87
4280,80,-1936,-848,-237,-2,88
4285,96,-1936,-896,-242,-2,88
4290,128,-1984,-840,-243,0,88
4295,80,-1952,-848,-245,0,90
4300,104,-1920,-840,-247,-1,92
4305,72,-1952,-848,-246,-2,90
4310,72,-1976,-800,-244,-2,94
4315,80,-1952,-864,-241,-4,95
4320,88,-1968,-856,-238,-6,94
4325,128,-1968,-880,-233,-6,94
4330,80,-1960,-832,-230,-4,93
4335,104,-1952,-848,-226,-3,93
4340,112,-1984,-848,-225,-3,92
4345,128,-1976,-880,-225,-3,92
4350,96,-1960,-880,-229,-2,92
4355,88,-1968,-880,-233,-3,90
4360,64,-1992,-920,-236,-3,90
4365,80,-2016,-880,-240,-4,87
4370,96,-1992,-888,-244,-6,87
4375,96,-2000,-888,-247,-8,86
4380,80,-2000,-912,-250,-12,86
4385,64,-1992,-872,-252,-16,84
4390,96,-2000,-888,-248,-20,85
4395,72,-1992,-920,-246,-24,83
4400,72,-1968,-864,-240,-28,80
4405,80,-1992,-896,-234,-35,78
4410,72,-1976,-888,-226,-41,79
4415,80,-1984,-856,-217,-47,77
4420,0,-2000,-832,-211,-50,77
4425,40,-1984,-864,-205,-53,77
4430,40,-1984,-880,-197,-57,77
4435,56,-1992,-920,-192,-61,77
4440,56,-1976,-880,-189,-63,75
4445,72,-1992,-904,-185,-64,73
4450,40,-2000,-872,-185,-63,72
4455,56,-2000,-912,-185,-65,72
4460,64,-2008,-896,-188,-68,70
4465,40,-2024,-936,-193,-72,66
4470,32,-2032,-936,-195,-75,66
4475,56,-2016,-904,-199,-81,65
4480,48,-2016,-928,-202,-87,63
4485,24,-2024,-920,-202,-94,62
4490,24,-2024,-928,-202,-99,60
4495,40,-2024,-936,-200,-104,57
4500,0,-2040,-920,-197,-108,56
4505,8,-2008,-912,-191,-111,58
4510,40,-2048,-928,-186,-113,55
4515,48,-2040,-936,-181,-114,53
4520,40,-2032,-976,-178,-112,50
4525,64,-2048,-912,-174,-112,46
4530,32,-1992,-920,-171,-112,43
4535,56,-2016,-928,-170,-109,37
4540,72,-2048,-928,-169,-108,33
4545,56,-2048,-936,-166,-110,25
4550,96,-2056,-944,-165,-117,18
4555,96,-2016,-968,-166,-118,16
4560,64,-2024,-960,-171,-114,19
4565,56,-2040,-968,-172,-114,20
4570,104,-2024,-976,-170,-113,21
4575,32,-2048,-944,-170,-113,21
4580,40,-2040,-960,-167,-111,23
4585,72,-2032,-960,-163,-108,24
4590,72,-2032,-968,-162,-107,27
4595,40,-2000,-960,-160,-105,30
4600,48,-2008,-984,-161,-105,32
4605,24,-1976,-944,-163,-105,33
4610,48,-2008,-968,-166,-105,34
4615,64,-1984,-976,-169,-107,37
4620,72,-1968,-944,-170,-107,39
4625,16,-1960,-968,-177,-108,38
4630,56,-1984,-976,-181,-108,41
4635,64,-1976,-968,-182,-108,41
4640,48,-1976,-968,-179,-109,43
4645,40,-1968,-960,-180,-109,44
4650,56,-1976,-960,-181,-109,44
4655,64,-1992,-992,-182,-107,44
4660,56,-1960,-968,-181,-105,46
4665,56,-1952,-984,-180,-103,48
4670,64,-1960,-944,-180,-104,51
4675,64,-1952,-968,-181,-104,54
4680,64,-1936,-992,-183,-104,56
4685,72,-1968,-1024,-185,-106,58
4690,32,-1880,-976,-189,-109,60
4695,72,-1936,-1008,-195,-112,60
4700,48,-1912,-1016,-197,-119,61
4705,40,-1928,-1008,-204,-125,63
4710,24,-1896,-984,-206,-131,65
4715,40,-1888,-1000,-211,-137,64
4720,24,-1888,-984,-218,-144,64
4725,-8,-1920,-984,-224,-151,66
4730,16,-1872,-992,-230,-156,68
4735,0,-1896,-1016,-235,-161,70
4740,0,-1904,-1024,-238,-167,69
4745,-16,-1896,-984,-236,-171,67
4750,-8,-1912,-984,-237,-175,64
4755,-16,-1920,-976,-236,-183,63
4760,8,-1880,-1040,-225,-198,58
4765,-32,-1856,-1000,-226,-202,58
4770,-24,-1880,-1016,-230,-203,52
4775,-56,-1864,-1024,-236,-206,50
4780,-56,-1864,-992,-244,-207,45
4785,-80,-1856,-1008,-254,-208,41
4790,-40,-1856,-1032,-260,-212,35
4795,-56,-1896,-1016,-272,-216,28
4800,-48,-1872,-1080,-281,-219,26
4805,-64,-1888,-1016,-288,-223,24
4810,-88,-1904,-1016,-290,-225,20
4815,-72,-1896,-1024,-292,-228,17
4820,-64,-1936,-1016,-293,-231,13
4825,-40,-1960,-1040,-294,-233,10
4830,-48,-1960,-1040,-292,-236,6
4835,-32,-1976,-1080,-290,-239,0
4840,-24,-1944,-1048,-285,-242,-6
4845,-8,-1928,-1024,-279,-241,-12
4850,8,-1936,-1016,-272,-240,-15
4855,-16,-1928,-1032,-268,-238,-21
4860,40,-1968,-1040,-262,-241,-23
4865,24,-1936,-1072,-254,-243,-26
4870,80,-1944,-1064,-252,-243,-32
4875,56,-1952,-1048,-253,-243,-39
4880,64,-1960,-1072,-256,-246,-45
4885,64,-1960,-1072,-256,-249,-48
4890,72,-1992,-1128,-261,-253,-54
4895,88,-1920,-1080,-262,-258,-58
4900,40,-1944,-1120,-262,-264,-58
4905,80,-1928,-1096,-264,-270,-60
4910,48,-1896,-1120,-268,-277,-58
4915,48,-1944,-1088,-270,-287,-54
4920,32,-1944,-1104,-265,-298,-54
4925,32,-1952,-1080,-262,-309,-56
4930,32,-1960,-1104,-255,-321,-52
4935,-8,-1936,-1064,-250,-332,-49
4940,-8,-1920,-1064,-245,-341,-49
4945,-48,-1928,-1056,-237,-351,-48
4950,-8,-1920,-1056,-228,-364,-43
4955,-8,-1920,-1072,-215,-373,-44
4960,-40,-1872,-1104,-213,-376,-46
4965,48,-1896,-1080,-218,-380,-51
4970,-16,-1880,-1096,-221,-380,-55
4975,-8,-1864,-1096,-226,-378,-62
4980,-24,-1888,-1080,-227,-375,-67
4985,-8,-1872,-1104,-230,-373,-73
4990,-24,-1864,-1072,-227,-372,-79
4995,-16,-1880,-1088,-225,-373,-81
5000,32,-1936,-1128,-226,-373,-84
5005,8,-1872,-1104,-224,-374,-88
5010,16,-1872,-1104,-225,-376,-93
5015,16,-1872,-1080,-228,-380,-93
5020,80,-1840,-1112,-228,-382,-98
5025,24,-1848,-1152,-228,-387,-97
5030,32,-1880,-1144,-227,-391,-96
5035,16,-1824,-1160,-225,-398,-95
5040,8,-1840,-1128,-224,-403,-97
5045,8,-1856,-1144,-223,-409,-94
5050,8,-1848,-1192,-225,-416,-93
5055,40,-1840,-1128,-224,-420,-91
5060,16,-1832,-1152,-220,-424,-88
5065,8,-1824,-1152,-217,-430,-87
5070,24,-1800,-1168,-216,-439,-84
5075,16,-1824,-1176,-216,-445,-84
5080,24,-1840,-1160,-217,-450,-83
5085,24,-1824,-1176,-217,-457,-84
5090,8,-1816,-1152,-222,-460,-87
5095,8,-1808,-1184,-228,-464,-87
5100,48,-1824,-1176,-235,-467,-88
5105,16,-1816,-1192,-241,-469,-89
5110,32,-1808,-1184,-247,-473,-95
5115,16,-1800,-1168,-251,-477,-98
5120,-16,-1808,-1160,-257,-482,-101
5125,-8,-1816,-1192,-261,-488,-107
5130,16,-1808,-1176,-264,-496,-108
5135,-16,-1792,-1176,-262,-502,-110
5140,-48,-1824,-1192,-264,-509,-117
5145,-16,-1792,-1192,-262,-516,-119
5150,-40,-1800,-1176,-260,-521,-123
5155,-40,-1792,-1176,-262,-527,-129
5160,-24,-1808,-1136,-259,-535,-128
5165,-48,-1760,-1152,-253,-546,-131
5170,-64,-1776,-1216,-250,-554,-135
5175,-24,-1744,-1192,-252,-563,-135
5180,-56,-1752,-1184,-260,-572,-137
5185,-64,-1736,-1208,-274,-579,-139
5190,-72,-1712,-1200,-283,-589,-142
5195,-64,-1744,-1176,-290,-599,-145
5200,-72,-1720,-1200,-295,-607,-148
5205,-104,-1736,-1168,-300,-616,-153
5210,-72,-1744,-1184,-303,-627,-157
5215,-72,-1744,-1192,-303,-637,-161
5220,-96,-1712,-1168,-302,-647,-168
5225,-96,-1768,-1176,-296,-658,-170
5230,-72,-1760,-1184,-274,-673,-170
5235,-112,-1792,-1208,-256,-683,-180
5240,-72,-1704,-1200,-246,-694,-180
5245,-112,-1688,-1208,-249,-698,-185
5250,-104,-1720,-1192,-262,-701,-192
5255,-88,-1768,-1192,-268,-708,-198
5260,-96,-1736,-1208,-266,-714,-203
5265,-88,-1728,-1224,-270,-719,-210
5270,-80,-1728,-1216,-278,-724,-217
5275,-72,-1704,-1176,-289,-725,-224
5280,-40,-1744,-1208,-296,-724,-228
5285,-72,-1712,-1224,-303,-725,-230
5290,-48,-1736,-1256,-308,-725,-233
5295,-48,-1720,-1232,-309,-726,-231
5300,-48,-1736,-1256,-306,-729,-231
5305,-24,-1696,-1240,-304,-735,-230
5310,-8,-1704,-1232,-304,-742,-229
5315,0,-1712,-1248,-299,-751,-229
5320,-16,-1664,-1272,-296,-762,-231
5325,-16,-1672,-1280,-293,-774,-232
5330,-16,-1696,-1256,-289,-786,-233
5335,16,-1672,-1240,-283,-795,-234
5340,-24,-1680,-1224,-273,-803,-237
5345,16,-1648,-1240,-262,-809,-241
5350,-16,-1680,-1224,-246,-816,-243
5355,-32,-1656,-1256,-226,-821,-246
5360,-40,-1616,-1240,-217,-822,-248
5365,-8,-1648,-1256,-216,-821,-248
5370,-16,-1632,-1248,-219,-818,-249
5375,-8,-1648,-1224,-227,-814,-252
5380,8,-1648,-1216,-228,-809,-251
5385,-8,-1624,-1288,-230,-805,-251
5390,-8,-1640,-1272,-232,-801,-253
5395,0,-1648,-1256,-232,-795,-248
5400,40,-1632,-1176,-229,-788,-245
5405,16,-1632,-1264,-231,-781,-244
5410,32,-1632,-1264,-226,-777,-244
5415,16,-1608,-1248,-219,-772,-242
5420,64,-1624,-1272,-211,-767,-241
5425,40,-1600,-1272,-204,-761,-244
5430,80,-1616,-1304,-190,-755,-238
5435,48,-1584,-1232,-178,-751,-235
5440,80,-1600,-1240,-165,-746,-233
5445,64,-1560,-1280,-149,-743,-234
5450,48,-1568,-1296,-139,-738,-237
5455,72,-1472,-1296,-130,-733,-239
5460,72,-1560,-1288,-121,-726,-242
5465,40,-1544,-1280,-111,-722,-245
5470,80,-1536,-1256,-102,-719,-246
5475,48,-1520,-1232,-94,-716,-245
5480,56,-1512,-1272,-87,-716,-253
5485,88,-1496,-1232,-83,-716,-260
5490,88,-1440,-1232,-79,-718,-265
5495,64,-1456,-1232,-76,-715,-269
5500,72,-1448,-1224,-73,-713,-276
5505,48,-1416,-1216,-69,-709,-281
5510,80,-1384,-1264,-62,-707,-285
5515,40,-1408,-1256,-55,-704,-288
5520,72,-1400,-1264,-48,-700,-293
5525,64,-1392,-1232,-45,-696,-297
5530,72,-1368,-1240,-39,-689,-300
5535,72,-1328,-1216,-32,-684,-307
5540,40,-1312,-1224,-32,-681,-312
5545,56,-1320,-1168,-25,-679,-308
5550,80,-1312,-1176,-13,-676,-307
5555,72,-1296,-1200,-4,-677,-303
5560,40,-1264,-1152,6,-676,-302
5565,80,-1232,-1208,12,-677,-299
5570,96,-1224,-1168,15,-679,-298
5575,104,-1216,-1152,21,-683,-300
5580,72,-1152,-1136,28,-688,-298
5585,72,-1136,-1168,33,-695,-298
5590,80,-1128,-1176,36,-702,-296
5595,80,-1120,-1128,39,-706,-298
5600,64,-1096,-1160,41,-710,-296
5605,80,-1104,-1120,41,-713,-296
5610,72,-1104,-1128,47,-716,-295
5615,96,-1112,-1040,52,-716,-295
5620,80,-1064,-1088,60,-710,-294
5625,56,-1056,-1088,67,-703,-292
5630,80,-1040,-1080,76,-695,-292
5635,88,-1032,-1080,85,-684,-284
5640,72,-1016,-1048,88,-673,-277
5645,88,-960,-1024,93,-670,-269
5650,112,-928,-1048,107,-673,-263
5655,104,-896,-1008,115,-674,-251
5660,112,-848,-984,120,-685,-238
5665,128,-848,-992,126,-694,-226
5670,168,-776,-952,132,-704,-211
5675,88,-728,-944,127,-718,-197
5680,96,-768,-928,121,-732,-186
5685,80,-704,-896,120,-750,-172
5690,56,-688,-880,120,-768,-152
5695,32,-696,-888,111,-784,-134
5700,24,-720,-832,100,-800,-115
5705,0,-704,-840,95,-816,-96
5710,-24,-744,-808,95,-831,-72
5715,-40,-776,-776,93,-847,-48
5720,-56,-776,-776,101,-868,-23
5725,16,-808,-736,112,-890,-1
5730,-88,-840,-704,131,-913,18
5735,-96,-912,-648,160,-939,38
5740,-112,-976,-632,196,-960,62
5745,-128,-984,-616,250,-978,82
5750,-176,-1032,-584,317,-993,104
5755,-184,-1080,-528,396,-1009,126
5760,-200,-1168,-520,489,-1016,149
5765,-176,-1192,-536,578,-1019,173
5770,-256,-1264,-624,668,-1014,195
5775,-320,-1264,-512,765,-1006,219
5780,-280,-1256,-440,872,-1003,244
5785,-296,-1344,-464,993,-996,269
5790,-304,-1344,-448,1121,-988,293
5795,-288,-1376,-368,1246,-988,317
5800,-264,-1432,-344,1386,-987,339
5805,-208,-1440,-312,1523,-984,364
5810,-192,-1488,-288,1662,-972,396
5815,-152,-1584,-240,1803,-941,437
5820,-200,-1768,-184,1949,-910,462
5825,-128,-2008,-112,2132,-896,465
5830,-160,-2376,-64,2338,-894,461
5835,-216,-2792,-136,2531,-922,450
5840,-344,-3216,-272,2677,-970,407
5845,-568,-3632,-400,2757,-1020,356
5850,-784,-4088,-536,2800,-1097,278
5855,-1320,-4368,-816,2831,-1138,228
5860,-1960,-4936,-944,2827,-1149,239
5865,-2376,-5752,-696,2953,-1102,121
5870,-3736,-6600,-824,3090,-1063,114
5875,-4744,-8232,-1000,3041,-1199,347
5880,-3976,-9640,-1120,3037,-1448,585
5885,-7576,-11000,-1904,3191,-1449,637
5890,-9360,-12512,-2656,3452,-1688,1014
5895,-10088,-12416,-3408,3846,-2079,1529
5900,-9760,-11784,-2816,4174,-2318,2090
5905,-7872,-9816,-2112,4814,-2343,2679
5910,-5880,-7496,-1624,5623,-2252,3085
5915,-2824,-7672,-2040,6475,-2263,3690
5920,-1048,-7176,-1936,7157,-2209,4375
5925,296,-4704,-1720,7169,-2167,4665
5930,1368,-1616,-1432,6516,-2069,4424
5935,1688,592,-608,5298,-1805,3831
5940,960,1832,-72,3910,-1360,3235
5945,72,2224,352,2566,-968,2738
5950,-136,1688,1000,1418,-664,2431
5955,-280,872,1744,584,-444,2283
5960,-176,32,2384,159,-336,2222
5965,-496,-472,2400,39,-335,2177
5970,-104,-1160,2416,-25,-433,2145
5975,-344,-1592,2200,92,-467,2140
5980,184,-1824,1736,218,-634,2149
5985,408,-2112,1480,210,-781,2112
5990,616,-2456,1256,216,-872,2095
5995,736,-2640,952,435,-895,2016
6000,656,-2824,592,938,-823,1905
6005,672,-2816,48,1630,-739,1848
6010,704,-2744,-480,2280,-671,1821
6015,728,-2592,-784,2746,-615,1823
6020,760,-2360,-976,3016,-573,1829
6025,760,-2040,-1040,3133,-550,1804
6030,720,-1728,-1088,3143,-524,1764
6035,720,-1384,-1104,3093,-478,1713
6040,728,-1096,-968,3013,-375,1673
6045,584,-792,-896,2901,-255,1614
6050,488,-448,-704,2736,-164,1528
6055,424,-64,-472,2522,-104,1434
6060,336,288,-240,2279,-54,1361
6065,232,568,88,2032,-35,1297
6070,216,720,344,1818,-39,1237
6075,136,784,576,1653,-45,1180
6080,48,736,760,1537,-52,1157
6085,-64,488,920,1452,-84,1174
6090,-32,208,992,1406,-136,1215
6095,-72,-112,1040,1411,-181,1271
6100,-192,-360,1120,1488,-214,1348
6105,-336,-632,1104,1627,-256,1437
6110,-600,-848,1160,1816,-306,1516
6115,-592,-1104,1248,2047,-378,1577
6120,-512,-1336,1248,2340,-433,1656
6125,-552,-1496,1216,2677,-476,1729
6130,-392,-1560,1192,2992,-506,1769
6135,-552,-1512,1256,3245,-494,1784
6140,-672,-1416,1320,3422,-471,1781
6145,-800,-1272,1432,3508,-468,1755
6150,-1040,-1072,1592,3520,-495,1699
6155,-1136,-824,1704,3474,-542,1642
6160,-1328,-680,1856,3382,-609,1592
6165,-1432,-608,2000,3256,-701,1518
6170,-1600,-512,2032,3117,-780,1429
6175,-1816,-408,2056,2975,-822,1348
6180,-1904,-256,2064,2819,-834,1285
6185,-1896,-104,1984,2669,-823,1250
6190,-1832,80,1824,2536,-766,1211
6195,-1912,320,1848,2424,-664,1168
6200,-2040,544,1928,2335,-577,1138
6205,-2264,792,2112,2265,-546,1118
6210,-2472,1040,2208,2205,-582,1092
6215,-2704,1392,2312,2134,-632,1052
6220,-2896,1608,2368,2044,-670,992
6225,-3040,1880,2336,1945,-677,905
6230,-3200,2040,2168,1819,-658,773
6235,-3376,2088,1896,1664,-598,583
6240,-3496,1856,1624,1511,-486,305
6245,-3480,1728,1304,1384,-410,-69
6250,-3528,1504,1032,1225,-320,-432
6255,-3400,1216,832,1049,-199,-690
6260,-3072,1008,672,842,-102,-901
6265,-2648,688,424,547,-13,-1069
6270,-2216,400,424,296,91,-1144
6275,-1904,176,496,113,169,-1177
6280,-1632,88,552,1,224,-1213
6285,-1480,72,696,-50,261,-1257
6290,-1328,96,896,-40,269,-1255
6295,-1192,216,1008,-8,254,-1224
6300,-1280,272,1152,-5,178,-1189
6305,-1296,304,1232,-48,61,-1112
6310,-1112,384,1312,-99,-60,-989
6315,-800,112,1688,-94,-196,-850
6320,-1344,-440,2104,98,-240,-743
6325,-768,-1656,3264,443,-56,-214
6330,496,-1064,416,617,25,592
6335,1184,336,-1920,-325,-1755,676
6340,392,1176,-800,-1450,-3321,277
6345,-768,1472,568,-1430,-3240,136
6350,-1024,1840,1056,-771,-2514,147
6355,-952,1888,1256,-219,-1755,181
6360,-792,1376,1448,144,-1046,221
6365,-656,696,1640,421,-461,300
6370,-816,560,1728,698,-40,370
6375,-1088,880,1600,1000,231,360
6380,-1232,1344,1376,1177,399,228
6385,-1608,1448,1080,1131,491,58
6390,-1824,1192,1104,937,542,-78
6395,-1864,888,1208,741,603,-142
6400,-1744,680,1104,563,628,-167
6405,-1720,800,864,298,538,-208
6410,-1872,936,776,-143,303,-255
6415,-1872,856,904,-599,11,-271
6420,-1608,784,968,-897,-239,-259
6425,-1680,752,1144,-1060,-397,-262
6430,-1632,552,1320,-1116,-494,-237
6435,-1528,416,1360,-1052,-569,-196
6440,-1448,336,1408,-934,-633,-159
6445,-1456,216,1480,-805,-698,-128
6450,-1440,96,1496,-666,-772,-107
6455,-1408,-80,1520,-537,-838,-76
6460,-1440,-200,1488,-426,-883,-36
6465,-1440,-328,1496,-334,-898,6
6470,-1424,-368,1496,-274,-890,37
6475,-1392,-352,1504,-237,-857,52
6480,-1360,-248,1408,-216,-806,54
6485,-1304,-128,1360,-202,-744,48
6490,-1248,-56,1392,-187,-674,31
6495,-1144,8,1376,-164,-605,7
6500,-1096,40,1432,-131,-534,-23
6505,-1040,56,1472,-92,-466,-55
6510,-952,40,1472,-52,-401,-87
6515,-888,56,1504,-17,-342,-118
6520,-824,40,1552,2,-296,-139
6525,-760,24,1536,10,-264,-159
6530,-744,0,1496,5,-238,-186
6535,-768,-40,1648,4,-226,-213
6540,-752,-64,1616,7,-230,-235
6545,-744,-64,1664,8,-243,-258
6550,-752,-72,1632,7,-260,-277
6555,-752,0,1632,-1,-280,-298
6560,-808,-32,1608,-22,-305,-327
6565,-856,-16,1632,-56,-329,-346
6570,-896,-56,1608,-92,-356,-365
6575,-920,-112,1568,-107,-393,-378
6580,-920,-96,1600,-106,-425,-375
6585,-936,-136,1536,-93,-456,-370
6590,-944,-176,1560,-53,-489,-356
6595,-896,-168,1520,-7,-512,-334
6600,-864,-152,1464,28,-530,-313
6605,-832,-160,1408,46,-542,-281
6610,-856,-248,1408,40,-548,-253
6615,-872,-256,1368,36,-555,-250
6620,-816,-208,1320,11,-547,-239
6625,-680,-576,1320,-40,-521,-207
6630,-424,-232,1088,285,-485,-187
6635,-1064,-472,1688,328,-426,-139
6640,-1160,-648,1344,225,-625,-187
6645,-944,-432,1520,189,-404,-298
6650,-928,-344,1496,100,-261,-187
6655,-848,-312,1504,-23,-297,-132
6660,-800,-440,1536,-131,-281,-148
6665,-792,-464,1568,-156,-211,-168
6670,-840,-448,1584,-150,-133,-185
6675,-928,-616,1656,-148,-75,-197
6680,-1096,-816,1616,-101,-68,-227
6685,-1144,-448,1624,-39,-77,-264
6690,-1056,-248,1624,-14,-99,-269
6695,-952,-392,1616,-4,-139,-260
6700,-832,-464,1632,61,-147,-244
6705,-800,-456,1640,139,-119,-218
6710,-800,-408,1648,161,-92,-182
6715,-824,-336,1624,137,-78,-157
6720,-888,-256,1592,109,-86,-150
6725,-920,-224,1528,71,-106,-150
6730,-896,-224,1528,19,-126,-149
6735,-912,-216,1536,-41,-132,-140
6740,-880,-256,1536,-104,-132,-120
6745,-840,-400,1536,-169,-102,-78
6750,-856,-376,1456,-202,-67,-38
6755,-976,-464,1488,-197,-65,-31
6760,-1016,-408,1376,-160,-95,-43
6765,-1016,-480,1352,-130,-125,-75
6770,-976,-576,1320,-107,-127,-71
6775,-968,-656,1320,-94,-119,-52
6780,-952,-648,1312,-77,-129,-50
6785,-968,-632,1312,-58,-128,-66
6790,-992,-536,1264,-39,-133,-78
6795,-864,-464,1296,-44,-134,-86
6800,-896,-424,1304,-66,-120,-94
6805,-832,-432,1384,-76,-117,-88
6810,-848,-496,1400,-82,-119,-71
6815,-824,-504,1392,-71,-125,-46
6820,-816,-512,1424,-51,-132,-21
6825,-872,-488,1472,-23,-144,0
6830,-816,-424,1488,20,-168,16
6835,-816,-400,1560,45,-178,26
6840,-784,-392,1592,63,-172,36
6845,-776,-352,1632,80,-150,47
6850,-776,-320,1664,88,-122,48
6855,-752,-256,1656,82,-88,47
6860,-744,-200,1736,75,-53,48
6865,-680,-224,1664,65,-11,53
6870,-664,-168,1696,43,42,58
6875,-616,-128,1672,11,103,61
6880,-640,-216,1664,-27,184,79
6885,-976,-88,1696,0,235,65
6890,-784,-56,1504,65,180,63
6895,-688,-80,1560,21,168,98
6900,-616,-104,1624,-32,200,119
6905,-760,16,1784,-60,306,123
6910,-824,200,1544,-50,365,65
6915,-800,136,1528,-119,310,70
6920,-792,80,1544,-184,215,48
6925,-776,24,1584,-203,157,55
6930,-728,24,1592,-227,133,62
6935,-864,72,1560,-247,105,61
6940,-928,112,1504,-291,38,56
6945,-904,80,1496,-364,-56,50
6950,-896,48,1496,-457,-133,49
6955,-680,-96,1648,-493,-165,48
6960,-680,-176,1712,-464,-155,43
6965,-776,-264,1680,-417,-146,55
6970,-904,-304,1656,-358,-159,69
6975,-872,-240,1584,-302,-222,66
6980,-856,-160,1480,-259,-281,51
6985,-888,-160,1480,-222,-309,36
6990,-936,-168,1488,-187,-304,26
6995,-1008,-168,1560,-138,-255,17
7000,-1024,-176,1584,-74,-175,16
7005,-1056,-184,1544,-25,-103,16
7010,-1072,-192,1552,-1,-48,20
7015,-1080,-192,1528,6,-7,26
7020,-1040,-168,1504,3,21,34
7025,-1104,-176,1496,-3,43,40
7030,-1112,-184,1480,-13,61,41
7035,-1112,-168,1472,-25,66,41
7040,-1128,-168,1464,-39,67,38
7045,-1136,-184,1472,-50,71,32
7050,-1104,-200,1496,-61,76,28
7055,-1112,-192,1512,-71,83,19
7060,-1112,-208,1552,-75,91,13
7065,-1104,-208,1592,-73,104,5
7070,-1064,-240,1560,-63,118,-2
7075,-1096,-288,1552,-42,133,-8
7080,-1048,-232,1608,-17,145,-18
7085,-1040,-248,1600,8,156,-26
7090,-1024,-248,1616,36,162,-33
7095,-1000,-248,1608,60,162,-41
7100,-992,-280,1584,75,157,-49
7105,-976,-240,1576,83,148,-54
7110,-992,-256,1504,83,132,-58
7115,-968,-256,1504,72,114,-61
7120,-968,-264,1472,56,93,-63
7125,-968,-264,1432,40,70,-65
7130,-976,-224,1456,24,48,-65
7135,-944,-280,1408,7,27,-65
7140,-976,-256,1392,-9,7,-62
7145,-968,-248,1400,-20,-8,-58
7150,-960,-264,1424,-27,-23,-55
7155,-960,-264,1456,-30,-34,-52
7160,-936,-280,1424,-34,-46,-47
7165,-904,-280,1464,-35,-53,-44
7170,-920,-256,1520,-31,-58,-42
7175,-904,-296,1504,-28,-63,-39
7180,-896,-312,1480,-26,-66,-38
7185,-944,-328,1520,-23,-70,-37
7190,-888,-280,1528,-25,-71,-35
7195,-896,-280,1544,-26,-73,-33
7200,-904,-296,1520,-28,-72,-29
7205,-864,-264,1528,-30,-71,-28
7210,-888,-264,1520,-36,-70,-26
7215,-896,-272,1512,-38,-69,-24
7220,-880,-288,1528,-40,-69,-20
7225,-848,-272,1544,-42,-67,-17
7230,-880,-288,1552,-46,-66,-16
7235,-880,-272,1552,-47,-67,-13
7240,-904,-272,1560,-47,-67,-8
7245,-856,-256,1560,-48,-67,-5
7250,-864,-248,1552,-47,-65,-3
7255,-888,-256,1592,-49,-61,0
7260,-888,-256,1568,-50,-58,3
7265,-880,-224,1552,-51,-53,6
7270,-888,-240,1568,-52,-47,6
7275,-912,-216,1560,-53,-41,11
7280,-880,-216,1536,-52,-33,13
7285,-872,-232,1528,-49,-23,16
7290,-912,-176,1576,-47,-15,20
7295,-904,-208,1592,-47,-6,21
7300,-856,-232,1544,-48,1,24
7305,-864,-208,1544,-47,9,24
7310,-880,-184,1568,-47,15,26
7315,-896,-216,1568,-51,21,27
7320,-864,-216,1568,-51,24,28
7325,-864,-184,1560,-55,27,28
7330,-864,-184,1520,-58,30,29
7335,-880,-160,1528,-64,30,28
7340,-888,-160,1536,-68,31,28
7345,-864,-192,1560,-69,30,29
7350,-832,-184,1528,-72,28,28
7355,-840,-176,1528,-75,29,28
7360,-856,-192,1560,-76,26,27
7365,-864,-160,1560,-75,25,27
7370,-864,-176,1536,-75,22,26
7375,-856,-184,1544,-76,21,22
7380,-848,-168,1576,-73,19,21
7385,-848,-192,1552,-71,19,18
7390,-840,-200,1552,-70,17,15
7395,-856,-192,1544,-67,17,11
7400,-840,-168,1576,-65,16,8
7405,-880,-184,1552,-60,16,7
7410,-880,-176,1592,-60,16,6
7415,-864,-176,1544,-57,17,4
7420,-856,-208,1520,-56,18,3
7425,-880,-184,1544,-53,19,2
7430,-880,-208,1560,-51,20,0
7435,-896,-200,1552,-49,22,-3
7440,-864,-240,1504,-47,23,-5
7445,-880,-192,1552,-45,24,-7
7450,-904,-216,1560,-46,25,-10
7455,-872,-240,1576,-49,29,-13
7460,-896,-224,1560,-47,30,-13
7465,-896,-240,1536,-47,31,-14
7470,-920,-232,1536,-47,31,-15
7475,-912,-248,1552,-47,30,-16
7480,-920,-240,1528,-49,29,-16
7485,-928,-248,1528,-49,27,-16
7490,-936,-224,1544,-54,27,-15
7495,-928,-224,1504,-56,28,-13
7500,-936,-264,1520,-57,28,-13
7505,-904,-264,1504,-58,30,-11
7510,-944,-288,1512,-59,31,-10
7515,-920,-248,1528,-60,34,-9
7520,-920,-264,1536,-61,35,-9
7525,-912,-264,1520,-60,39,-8
7530,-912,-248,1544,-61,40,-7
7535,-912,-248,1528,-61,41,-6
7540,-904,-232,1528,-57,42,-6
7545,-912,-224,1536,-55,42,-5
7550,-920,-264,1504,-53,42,-5
7555,-896,-272,1496,-50,40,-4
7560,-936,-248,1512,-48,39,-4
7565,-912,-208,1496,-45,37,-4
7570,-928,-232,1512,-41,36,-3
7575,-912,-256,1512,-38,34,-3
7580,-920,-264,1544,-37,33,-3
7585,-928,-232,1512,-37,30,-2
7590,-896,-232,1528,-34,28,-1
7595,-920,-248,1536,-35,26,-1
7600,-904,-256,1512,-35,26,-1
7605,-912,-232,1536,-37,23,-3
7610,-912,-232,1536,-39,21,0
7615,-912,-224,1504,-40,19,0
7620,-912,-264,1504,-42,19,-1
7625,-920,-240,1536,-42,16,0
7630,-928,-232,1552,-43,15,1
7635,-920,-224,1568,-44,14,0
7640,-912,-224,1568,-44,12,0
7645,-920,-240,1512,-44,11,1
7650,-912,-224,1536,-46,11,3
7655,-920,-216,1528,-47,10,4
7660,-912,-208,1528,-47,9,4
7665,-912,-208,1568,-50,9,4
7670,-912,-216,1512,-49,10,5
7675,-896,-240,1504,-51,10,7
7680,-912,-224,1544,-52,10,7
7685,-912,-208,1536,-50,10,6
7690,-912,-200,1544,-52,10,6
7695,-904,-232,1520,-54,9,6
7700,-928,-200,1568,-55,9,3
7705,-920,-224,1552,-54,9,2
7710,-896,-232,1512,-54,9,2
7715,-896,-240,1560,-53,10,1
7720,-920,-224,1528,-52,10,-1
7725,-896,-200,1512,-53,10,1
7730,-904,-184,1576,-51,9,1
7735,-896,-224,1520,-50,5,-1
7740,-912,-224,1536,-51,4,-2
7745,-912,-240,1512,-50,2,-1
7750,-920,-232,1512,-49,2,-1
7755,-920,-232,1544,-52,0,-2
7760,-920,-224,1552,-53,-1,-2
7765,-896,-224,1552,-54,-1,-3
7770,-920,-208,1560,-54,-1,-2
7775,-880,-240,1592,-55,-2,-1
7780,-872,-232,1544,-55,-2,-2
7785,-944,-216,1552,-55,-2,-3
7790,-888,-248,1552,-56,2,-2
7795,-928,-232,1576,-56,3,-2
7800,-912,-240,1536,-57,4,-3
7805,-912,-240,1552,-54,7,-5
7810,-904,-232,1528,-54,10,-4
7815,-864,-224,1536,-55,13,-3
7820,-904,-248,1536,-55,15,-4
7825,-896,-240,1528,-54,19,-5
7830,-880,-208,1544,-52,22,-6
7835,-888,-224,1528,-50,23,-6
7840,-880,-224,1520,-49,26,-5
7845,-872,-232,1520,-47,28,-6
7850,-880,-248,1528,-45,29,-6
7855,-880,-224,1528,-45,29,-5
7860,-872,-224,1560,-45,31,-7
7865,-880,-240,1568,-43,31,-8
7870,-872,-240,1544,-41,31,-9
7875,-880,-240,1536,-40,30,-8
7880,-880,-240,1504,-40,29,-8
7885,-864,-240,1528,-40,27,-8
7890,-912,-216,1504,-43,28,-10
7895,-904,-232,1568,-42,25,-8
7900,-880,-248,1560,-42,24,-7
7905,-896,-232,1528,-44,23,-6
7910,-888,-232,1520,-44,23,-7
7915,-888,-240,1568,-47,24,-7
7920,-896,-216,1544,-48,23,-7
7925,-904,-232,1544,-49,25,-6
7930,-896,-248,1520,-50,24,-7
7935,-904,-232,1544,-51,26,-7
7940,-904,-216,1552,-52,27,-5
7945,-896,-200,1648,-52,28,-5
7950,-888,-232,1520,-52,28,-4
7955,-912,-208,1544,-54,29,-1
7960,-920,-224,1512,-53,29,-1
7965,-904,-232,1560,-53,27,0
7970,-888,-232,1568,-51,25,1
7975,-904,-240,1552,-52,25,2
7980,-912,-208,1528,-52,25,1
7985,-912,-224,1528,-56,24,3
7990,-904,-232,1528,-57,22,4
7995,-944,-232,1512,-59,22,5
8000,-856,-280,1504,-62,20,5
8005,-904,-248,1528,-61,20,5
8010,-912,-232,1520,-63,20,5
8015,-904,-248,1512,-64,18,5
8020,-880,-264,1536,-66,22,4
8025,-912,-232,1512,-64,22,3
8030,-904,-224,1496,-65,21,3
8035,-904,-208,1512,-63,21,3
8040,-912,-256,1544,-60,21,3
8045,-904,-232,1536,-59,23,3
8050,-920,-232,1512,-54,23,4
8055,-872,-184,1512,-51,23,4
8060,-920,-248,1544,-46,25,3
8065,-904,-224,1520,-45,26,2
8070,-912,-232,1528,-43,26,-1
8075,-912,-232,1520,-41,26,-2
8080,-896,-240,1568,-40,26,-5
8085,-904,-240,1528,-43,26,-6
8090,-904,-232,1528,-41,26,-7
8095,-928,-264,1536,-42,25,-7
8100,-912,-248,1560,-41,23,-7
8105,-912,-232,1528,-43,20,-6
8110,-920,-224,1512,-45,17,-6
8115,-912,-232,1544,-45,16,-4
8120,-920,-256,1528,-47,14,-3
8125,-888,-256,1528,-49,14,-2
8130,-928,-248,1520,-51,16,-2
8135,-920,-256,1528,-52,18,-2
8140,-904,-240,1544,-52,19,-1
8145,-904,-248,1544,-50,21,0
8150,-904,-256,1544,-52,25,0
8155,-888,-264,1536,-51,27,1
8160,-904,-216,1544,-50,29,1
8165,-872,-208,1512,-50,30,-1
8170,-912,-232,1536,-47,30,-2
8175,-896,-240,1528,-46,31,-2
8180,-896,-208,1536,-44,30,-4
8185,-920,-224,1544,-41,29,-3
8190,-912,-208,1536,-39,26,-4
8195,-896,-224,1512,-36,24,-4
8200,-912,-240,1496,-35,21,-5
8205,-896,-200,1544,-33,19,-5
8210,-912,-224,1552,-32,16,-4
8215,-912,-208,1544,-33,13,-4
8220,-896,-192,1544,-36,13,-4
8225,-912,-200,1512,-38,11,-5
8230,-904,-224,1512,-41,11,-5
8235,-904,-216,1520,-45,11,-5
8240,-896,-232,1504,-48,10,-5
8245,-896,-256,1528,-51,11,-5
8250,-912,-248,1544,-53,12,-7
8255,-928,-248,1488,-54,13,-6
8260,-896,-232,1512,-53,14,-6
8265,-928,-232,1520,-53,14,-4
8270,-904,-232,1536,-52,16,-6
8275,-928,-216,1592,-52,16,-6
8280,-920,-240,1520,-51,18,-6
8285,-920,-224,1528,-51,16,-6
8290,-920,-208,1504,-51,18,-4
8295,-912,-248,1520,-51,19,-5
8300,-920,-216,1512,-53,19,-5
8305,-912,-232,1512,-53,19,-5
8310,-920,-208,1512,-53,19,-4
8315,-936,-240,1512,-53,18,-4
8320,-904,-224,1528,-52,19,-4
8325,-920,-256,1480,-53,21,-6
8330,-880,-200,1520,-53,19,-6
8335,-904,-240,1544,-52,20,-5
8340,-896,-232,1552,-52,21,-5
8345,-920,-232,1544,-53,21,-5
8350,-888,-264,1528,-51,22,-6
8355,-904,-224,1504,-50,19,-6
8360,-928,-224,1552,-48,18,-5
8365,-936,-248,1552,-47,16,-4
8370,-912,-240,1528,-45,15,-5
8375,-904,-216,1560,-46,15,-4
8380,-920,-232,1520,-46,13,-4
8385,-904,-256,1528,-45,11,-5
8390,-912,-240,1544,-48,11,-4
8395,-920,-240,1560,-48,11,-3
8400,-928,-208,1512,-48,10,-3
8405,-912,-224,1544,-47,10,-3
8410,-912,-240,1520,-46,9,-2
8415,-928,-240,1528,-46,8,-1
8420,-928,-224,1520,-45,10,-2
8425,-920,-224,1512,-44,14,-4
8430,-920,-224,1544,-44,15,-3
8435,-928,-272,1584,-41,16,-3
8440,-904,-216,1528,-42,18,-3
8445,-936,-216,1536,-41,18,-2
8450,-896,-208,1512,-40,18,-4
8455,-912,-216,1496,-38,20,-4
8460,-904,-216,1528,-37,20,-4
8465,-904,-216,1512,-39,20,-4
8470,-904,-232,1528,-38,21,-4
8475,-904,-256,1560,-39,18,-4
8480,-936,-224,1544,-40,16,-2
8485,-904,-232,1552,-40,15,-4
8490,-888,-328,1560,-41,13,-3
8495,-912,-232,1528,-41,13,-3
8500,-912,-232,1512,-41,12,-4
8505,-920,-232,1496,-42,11,-6
8510,-880,-232,1544,-43,10,-6
8515,-904,-240,1552,-43,10,-7
8520,-912,-232,1536,-43,7,-6
8525,-920,-232,1536,-44,7,-7
8530,-920,-224,1552,-44,7,-7
8535,-904,-224,1512,-44,6,-6
8540,-912,-240,1512,-44,5,-5
8545,-928,-248,1544,-45,6,-7
8550,-912,-240,1544,-44,6,-5
8555,-904,-232,1536,-46,9,-6
8560,-896,-232,1536,-47,9,-6
8565,-928,-248,1536,-46,10,-6
8570,-920,-224,1536,-45,13,-6
8575,-912,-232,1552,-46,15,-6
8580,-904,-240,1568,-46,16,-7
8585,-896,-248,1512,-45,16,-6
8590,-896,-232,1528,-45,16,-5
8595,-904,-224,1536,-45,17,-4
8600,-904,-232,1504,-44,17,-4
8605,-912,-240,1536,-44,14,-3
8610,-912,-232,1536,-46,15,-3
8615,-888,-232,1536,-46,11,-2
8620,-912,-248,1528,-45,12,-4
8625,-888,-240,1528,-47,9,-4
8630,-896,-240,1544,-47,8,-4
8635,-920,-224,1528,-48,8,-5
8640,-920,-240,1544,-48,9,-5
8645,-904,-232,1528,-49,9,-6
8650,-912,-208,1496,-48,8,-6
8655,-904,-240,1520,-46,10,-6
8660,-912,-224,1512,-44,11,-6
8665,-896,-224,1528,-41,14,-4
8670,-896,-224,1528,-39,14,-5
8675,-904,-216,1504,-37,15,-3
8680,-912,-232,1528,-39,16,-3
8685,-912,-216,1528,-37,16,-5
8690,-904,-248,1528,-37,18,-3
8695,-920,-208,1536,-38,18,-5
8700,-888,-240,1528,-41,17,-7
8705,-928,-248,1536,-42,18,-8
8710,-976,-256,1552,-42,18,-9
8715,-920,-280,1544,-44,18,-10
8720,-920,-264,1552,-42,16,-11
8725,-904,-248,1504,-42,15,-10
8730,-904,-248,1544,-42,13,-8
8735,-912,-248,1528,-43,10,-8
8740,-896,-256,1544,-44,9,-7
8745,-912,-248,1520,-46,9,-5
8750,-904,-240,1496,-48,11,-4
8755,-904,-216,1568,-50,14,-4
8760,-880,-232,1584,-51,17,-2
8765,-896,-256,1536,-51,22,-1
8770,-912,-216,1520,-49,25,0
8775,-888,-232,1504,-45,29,1
8780,-888,-216,1560,-43,31,3
8785,-912,-216,1512,-41,33,1
8790,-896,-224,1552,-39,33,1
8795,-888,-224,1528,-35,31,1
8800,-904,-216,1552,-32,29,0
8805,-880,-216,1520,-33,27,-1
8810,-904,-224,1544,-31,24,-1
8815,-880,-184,1520,-32,20,-2
8820,-912,-224,1528,-32,17,-3
8825,-896,-232,1536,-33,15,-3
8830,-896,-240,1552,-34,11,-4
8835,-912,-224,1504,-35,9,-2
8840,-920,-248,1528,-40,7,-5
8845,-904,-216,1536,-45,6,-5
8850,-912,-240,1520,-47,5,-7
8855,-928,-240,1512,-49,4,-7
8860,-896,-216,1560,-50,3,-7
8865,-920,-216,1512,-52,4,-7
8870,-920,-224,1504,-54,5,-6
8875,-872,-240,1480,-54,7,-7
8880,-912,-224,1512,-54,9,-5
8885,-912,-232,1528,-53,11,-6
8890,-912,-240,1520,-51,14,-6
8895,-888,-232,1536,-52,15,-7
8900,-920,-232,1528,-50,17,-6
8905,-896,-264,1520,-49,17,-6
8910,-896,-248,1520,-46,18,-6
8915,-904,-224,1536,-45,20,-7
8920,-904,-240,1512,-47,20,-6
8925,-872,-248,1488,-47,20,-6
8930,-912,-224,1512,-46,21,-3
8935,-920,-224,1520,-47,21,-4
8940,-904,-232,1528,-47,19,-5
8945,-912,-248,1536,-46,17,-3
8950,-920,-232,1544,-46,13,-5
8955,-896,-256,1520,-47,12,-4
8960,-896,-248,1520,-47,9,-4
8965,-888,-224,1528,-47,7,-3
8970,-888,-248,1488,-47,6,-3
8975,-896,-208,1544,-47,5,-5
8980,-880,-240,1576,-46,5,-3
8985,-904,-256,1528,-47,6,-4
8990,-904,-240,1528,-44,8,-4
8995,-920,-224,1528,-43,7,-4
9000,-912,-216,1528,-42,7,-3
9005,-912,-232,1528,-41,10,-5
9010,-904,-264,1536,-42,10,-6
9015,-944,-240,1512,-42,10,-5
9020,-888,-264,1552,-42,10,-6
9025,-896,-272,1552,-43,10,-6
9030,-920,-256,1520,-41,10,-4
9035,-896,-248,1544,-43,11,-3
9040,-912,-224,1520,-40,10,-3
9045,-880,-240,1544,-41,10,-4
9050,-912,-232,1536,-42,12,-3
9055,-912,-240,1544,-41,10,-3
9060,-920,-224,1544,-40,11,-3
9065,-912,-216,1536,-42,11,-3
9070,-896,-256,1536,-43,11,-2
9075,-880,-208,1536,-44,11,-3
9080,-904,-216,1544,-42,12,-3
9085,-896,-208,1544,-43,12,-4
9090,-904,-216,1488,-42,13,-3
9095,-904,-208,1528,-40,14,-3
9100,-896,-224,1528,-42,13,-2
9105,-912,-216,1544,-42,13,-4
9110,-896,-224,1536,-43,13,-5
9115,-904,-224,1552,-42,13,-5
9120,-904,-216,1504,-41,12,-4
9125,-904,-200,1536,-40,13,-3
9130,-904,-208,1512,-40,12,-4
9135,-920,-232,1544,-39,11,-5
9140,-896,-240,1528,-38,11,-5
9145,-896,-184,1488,-39,11,-6
9150,-896,-208,1536,-38,11,-6
9155,-904,-200,1536,-38,10,-7
9160,-904,-240,1528,-39,8,-5
9165,-872,-208,1512,-39,9,-3
9170,-904,-240,1536,-41,8,-5
9175,-912,-224,1552,-41,7,-5
9180,-896,-216,1560,-42,7,-5
9185,-888,-232,1544,-42,6,-5
9190,-912,-240,1544,-43,7,-6
9195,-904,-216,1544,-42,7,-6
9200,-864,-208,1560,-43,7,-8
9205,-888,-232,1536,-42,7,-8
9210,-904,-224,1504,-41,8,-7
9215,-904,-224,1512,-41,8,-7
9220,-904,-232,1528,-41,8,-8
9225,-912,-232,1528,-39,9,-7
9230,-920,-216,1552,-39,9,-6
9235,-896,-232,1544,-37,9,-6
9240,-904,-232,1552,-40,9,-5
9245,-928,-208,1520,-40,10,-6
9250,-904,-216,1520,-41,10,-6
9255,-896,-272,1544,-40,10,-6
9260,-912,-232,1536,-44,10,-6
9265,-896,-248,1512,-42,10,-5
9270,-920,-232,1544,-42,10,-4
9275,-896,-216,1512,-42,11,-4
9280,-904,-224,1552,-40,10,-4
9285,-896,-240,1552,-41,9,-3
9290,-888,-248,1512,-43,8,-4
9295,-904,-256,1544,-43,7,-3
9300,-888,-232,1536,-45,5,-1
9305,-920,-240,1544,-45,4,-1
9310,-896,-248,1504,-45,5,0
9315,-896,-248,1520,-45,5,-1
9320,-912,-232,1520,-48,5,-3
9325,-912,-240,1552,-47,5,-3
9330,-904,-264,1552,-47,5,-5
9335,-904,-232,1528,-46,6,-6
9340,-896,-248,1528,-46,6,-7
9345,-896,-240,1520,-45,7,-7
9350,-912,-216,1528,-44,9,-5
9355,-896,-256,1560,-42,10,-5
9360,-880,-224,1560,-42,10,-3
9365,-888,-248,1528,-39,12,-3
9370,-896,-248,1544,-37,13,-5
9375,-904,-240,1528,-36,15,-5
9380,-904,-216,1536,-35,15,-6
9385,-880,-240,1552,-34,18,-7
9390,-896,-224,1552,-33,17,-8
9395,-888,-256,1536,-33,18,-9
9400,-904,-256,1528,-32,17,-10
9405,-912,-248,1496,-29,17,-10
9410,-920,-240,1528,-28,16,-9
9415,-904,-248,1512,-27,13,-11
9420,-904,-240,1520,-27,11,-9
9425,-896,-232,1552,-27,9,-8
9430,-920,-232,1552,-27,8,-8
9435,-920,-224,1528,-28,7,-5
9440,-912,-232,1568,-31,7,-4
9445,-896,-232,1544,-32,9,-4
9450,-880,-224,1560,-36,12,-3
9455,-912,-224,1536,-37,14,-1
9460,-904,-216,1544,-40,16,-1
9465,-888,-208,1520,-43,19,-1
9470,-912,-176,1488,-45,20,1
9475,-888,-224,1544,-45,21,1
9480,-904,-216,1528,-46,21,0
9485,-920,-200,1544,-44,19,-2
9490,-896,-216,1544,-45,18,-1
9495,-880,-208,1536,-40,17,-2
9500,-896,-216,1560,-41,16,-2
9505,-888,-192,1544,-38,14,-3
9510,-928,-208,1512,-38,12,-5
9515,-904,-200,1544,-38,12,-4
9520,-896,-224,1536,-38,9,-5
9525,-896,-224,1512,-39,7,-5
9530,-888,-216,1512,-39,7,-5
9535,-888,-256,1512,-41,4,-5
9540,-896,-224,1512,-43,3,-6
9545,-920,-232,1544,-44,3,-7
9550,-888,-224,1544,-45,2,-8
9555,-920,-200,1544,-45,4,-9
9560,-896,-208,1568,-45,5,-7
9565,-864,-248,1504,-46,4,-6
9570,-896,-248,1536,-46,6,-6
9575,-920,-208,1544,-47,9,-5
9580,-888,-200,1568,-48,8,-6
9585,-904,-208,1520,-47,9,-6
9590,-912,-216,1536,-47,10,-5
9595,-904,-240,1528,-47,13,-5
9600,-896,-224,1560,-50,13,-6
9605,-888,-216,1560,-50,13,-5
9610,-912,-240,1544,-49,13,-5
9615,-912,-200,1576,-49,13,-5
9620,-912,-224,1560,-48,14,-3
9625,-896,-224,1544,-48,14,-4
9630,-904,-248,1520,-49,15,-3
9635,-880,-256,1560,-48,14,-2
9640,-888,-232,1528,-47,13,-2
9645,-888,-208,1536,-46,12,-3
9650,-888,-232,1544,-46,10,-2
9655,-896,-240,1544,-46,10,-4
9660,-896,-256,1528,-45,10,-4
9665,-904,-240,1560,-44,10,-2
9670,-888,-208,1520,-43,10,-5
9675,-880,-224,1520,-43,9,-6
9680,-920,-232,1536,-42,7,-5
9685,-880,-232,1568,-42,7,-5
9690,-848,-272,1544,-41,8,-4
9695,-888,-248,1536,-39,8,-6
9700,-896,-256,1560,-40,8,-5
9705,-896,-232,1520,-39,8,-5
9710,-872,-224,1560,-38,7,-4
9715,-896,-240,1560,-36,9,-4
9720,-896,-200,1544,-36,9,-5
9725,-888,-216,1552,-36,10,-6
9730,-896,-216,1536,-37,12,-6
9735,-920,-224,1536,-35,13,-4
9740,-888,-240,1560,-35,15,-4
9745,-880,-184,1536,-37,16,-4
9750,-912,-216,1552,-38,16,-4
9755,-904,-224,1552,-39,16,-5
9760,-896,-216,1528,-41,16,-5
9765,-888,-232,1568,-40,17,-3
9770,-904,-208,1536,-42,18,-3
9775,-888,-216,1520,-43,17,-4
9780,-896,-216,1536,-45,18,-3
9785,-912,-192,1520,-44,16,-3
9790,-896,-184,1536,-46,17,-4
9795,-880,-200,1520,-46,16,-6
9800,-904,-232,1512,-45,17,-5
9805,-912,-208,1544,-45,16,-5
9810,-920,-200,1536,-45,17,-4
9815,-904,-216,1512,-42,16,-5
9820,-912,-216,1536,-41,14,-4
9825,-904,-232,1544,-39,13,-4
9830,-888,-232,1552,-38,13,-5
9835,-888,-224,1560,-37,12,-5
9840,-896,-216,1536,-35,10,-5
9845,-880,-240,1520,-35,9,-5
9850,-904,-224,1568,-34,9,-6
9855,-864,-200,1568,-32,7,-5
9860,-912,-224,1544,-33,7,-6
9865,-912,-208,1536,-33,7,-7
9870,-896,-240,1520,-32,7,-5
9875,-896,-208,1552,-34,7,-6
9880,-888,-232,1544,-34,7,-6
9885,-896,-200,1544,-35,8,-6
9890,-896,-224,1528,-35,9,-6
9895,-896,-232,1512,-36,9,-7
9900,-880,-216,1560,-37,10,-7
9905,-904,-208,1512,-38,10,-7
9910,-872,-240,1544,-38,10,-6
9915,-912,-224,1528,-39,12,-7
9920,-904,-232,1552,-40,9,-6
9925,-888,-224,1528,-39,10,-6
9930,-904,-224,1568,-41,10,-6
9935,-880,-224,1520,-38,10,-6
9940,-896,-240,1568,-39,12,-6
9945,-872,-232,1512,-38,12,-6
9950,-872,-224,1528,-38,12,-5
9955,-880,-248,1544,-37,12,-5
9960,-904,-264,1528,-36,13,-4
9965,-880,-232,1544,-36,11,-4
9970,-888,-248,1560,-36,11,-3
9975,-864,-240,1536,-37,11,-3
9980,-896,-232,1536,-38,11,-5
9985,-888,-224,1520,-38,11,-3
9990,-896,-216,1568,-38,10,-2
9995,-928,-200,1536,-38,8,-2
10000,-880,-240,1544,-38,8,-4
10005,-872,-240,1544,-38,8,-3
10010,-896,-208,1560,-39,9,-4
10015,-888,-216,1536,-40,8,-2
10020,-896,-216,1568,-40,8,-4
10025,-896,-224,1560,-42,7,-2
10030,-904,-200,1528,-43,8,-2
10035,-896,-216,1536,-44,8,-3
10040,-888,-200,1536,-44,8,-3
10045,-912,-208,1544,-45,9,-4
10050,-904,-200,1528,-45,11,-3
10055,-904,-232,1536,-46,10,-4
10060,-928,-240,1528,-45,12,-6
10065,-872,-216,1552,-46,12,-5
10070,-840,-216,1568,-46,13,-6
10075,-920,-168,1552,-45,13,-6
10080,-912,-208,1544,-45,14,-3
10085,-896,-224,1528,-44,15,-4
10090,-880,-216,1568,-42,15,-5
10095,-880,-232,1528,-42,14,-4
10100,-896,-216,1528,-40,16,-4
10105,-880,-216,1552,-38,15,-4
10110,-904,-200,1536,-40,15,-4
10115,-920,-208,1544,-40,16,-5
10120,-872,-224,1520,-41,15,-3
10125,-872,-216,1560,-41,14,-2
10130,-896,-200,1544,-43,12,-4
10135,-880,-224,1544,-42,11,-4
10140,-888,-248,1496,-45,10,-5
10145,-904,-208,1536,-45,11,-5
10150,-896,-216,1544,-46,10,-7
10155,-872,-224,1552,-45,9,-7
10160,-928,-200,1536,-45,9,-8
10165,-904,-216,1536,-45,9,-7
10170,-888,-240,1536,-42,11,-6
10175,-880,-208,1520,-41,12,-6
10180,-864,-208,1568,-38,13,-6
10185,-896,-232,1560,-37,13,-7
10190,-888,-216,1536,-36,16,-7
10195,-912,-216,1552,-36,17,-9
10200,-872,-216,1544,-36,18,-8
10205,-880,-240,1544,-36,21,-8
10210,-904,-232,1552,-36,23,-8
10215,-880,-224,1544,-34,23,-10
10220,-888,-256,1584,-31,23,-9
10225,-912,-224,1536,-29,22,-9
10230,-888,-208,1560,-30,20,-9
10235,-912,-232,1496,-28,18,-6
10240,-904,-216,1520,-27,15,-6
10245,-904,-216,1512,-26,14,-4
10250,-904,-224,1536,-25,14,-3
10255,-896,-240,1544,-23,14,-3
10260,-888,-208,1528,-21,17,-2
10265,-912,-224,1528,-23,17,-2
10270,-904,-208,1536,-23,18,-3
10275,-896,-216,1520,-24,20,-1
10280,-912,-192,1536,-25,19,0
10285,-896,-200,1504,-24,20,0
10290,-880,-152,1560,-25,21,-2
10295,-904,-192,1520,-29,22,-2
10300,-888,-208,1536,-34,20,-1
10305,-888,-208,1552,-34,19,-3
10310,-896,-192,1536,-35,20,-4
10315,-872,-216,1520,-35,17,-4
10320,-896,-184,1544,-35,15,-2
10325,-896,-240,1568,-34,14,-3
10330,-888,-192,1552,-34,12,-3
10335,-880,-216,1504,-32,11,-4
10340,-880,-216,1552,-32,11,-4
10345,-856,-192,1560,-33,9,-6
10350,-880,-216,1544,-34,8,-5
10355,-888,-240,1552,-35,7,-7
10360,-896,-200,1504,-34,4,-6
10365,-856,-224,1576,-34,4,-7
10370,-896,-224,1568,-36,2,-8
10375,-912,-208,1536,-41,2,-8
10380,-896,-232,1520,-42,3,-7
10385,-880,-208,1520,-45,3,-6
10390,-888,-208,1544,-46,7,-6
10395,-920,-224,1552,-49,7,-5
10400,-896,-224,1552,-53,11,-5
10405,-904,-208,1584,-56,12,-5
10410,-904,-200,1528,-59,11,-5
10415,-888,-208,1536,-60,12,-5
10420,-912,-208,1552,-63,13,-3
10425,-896,-216,1560,-65,16,-4
10430,-872,-240,1544,-66,18,-3
10435,-896,-256,1560,-66,21,-2
10440,-888,-200,1560,-66,22,-1
10445,-896,-240,1600,-67,23,-1
10450,-880,-224,1520,-68,23,-2
10455,-928,-232,1528,-65,24,-2
10460,-904,-208,1568,-64,24,-1
10465,-888,-216,1560,-63,23,-1
10470,-896,-208,1504,-61,24,-1
10475,-912,-208,1552,-61,24,-2
10480,-888,-216,1536,-59,24,0
10485,-872,-208,1552,-58,24,-1
10490,-880,-200,1560,-53,24,-2
10495,-904,-208,1536,-52,23,-1
10500,-896,-200,1544,-48,25,-1
10505,-904,-248,1504,-47,24,-2
10510,-888,-240,1544,-46,24,-2
10515,-896,-240,1528,-43,24,-2
10520,-904,-248,1552,-43,22,-2
10525,-904,-224,1520,-45,22,-1
10530,-880,-224,1520,-47,21,0
10535,-888,-216,1512,-47,21,-2
10540,-872,-232,1544,-50,21,-2
10545,-888,-240,1528,-50,20,-2
10550,-904,-200,1536,-54,21,-1
10555,-896,-216,1496,-55,20,-1
10560,-904,-208,1528,-56,21,-2
10565,-880,-208,1520,-57,20,0
10570,-880,-216,1544,-58,19,-1
10575,-872,-232,1560,-59,20,0
10580,-896,-232,1544,-60,19,-2
10585,-912,-216,1528,-60,20,-1
10590,-880,-224,1520,-61,22,-3
10595,-896,-208,1560,-61,21,-2
10600,-880,-216,1520,-61,22,-2
10605,-904,-232,1560,-58,22,-3
10610,-928,-192,1512,-58,23,-2
10615,-904,-240,1512,-58,23,-3
10620,-904,-208,1560,-57,22,-2
10625,-904,-216,1544,-56,22,-2
10630,-912,-232,1544,-54,21,-2
10635,-896,-208,1568,-52,21,-2
10640,-896,-216,1552,-53,21,-3
10645,-872,-232,1568,-51,21,-2
10650,-872,-248,1552,-52,22,-2
10655,-920,-240,1504,-49,20,-2
10660,-928,-208,1536,-48,20,-2
10665,-912,-240,1520,-50,22,-3
10670,-928,-232,1520,-48,19,-4
10675,-912,-216,1528,-48,20,-3
10680,-904,-224,1552,-50,21,-3
10685,-888,-216,1544,-49,20,-3
10690,-912,-224,1552,-50,21,-2
10695,-872,-240,1528,-51,21,-5
10700,-880,-232,1544,-49,23,-5
10705,-896,-232,1560,-49,22,-4
10710,-920,-200,1568,-50,22,-5
10715,-920,-224,1520,-50,23,-4
10720,-896,-224,1560,-50,23,-3
10725,-880,-200,1504,-51,25,-4
10730,-896,-216,1536,-50,25,-4
10735,-896,-216,1552,-50,25,-3
10740,-896,-208,1520,-51,25,-4
10745,-896,-232,1512,-49,24,-4
10750,-888,-224,1520,-49,23,-3
10755,-912,-216,1552,-49,22,-3
10760,-896,-208,1560,-49,21,-2
10765,-888,-200,1528,-49,20,-1
10770,-904,-216,1544,-48,19,-1
10775,-904,-224,1504,-49,18,0
10780,-864,-224,1576,-49,17,-1
10785,-912,-216,1536,-50,16,-3
10790,-880,-240,1528,-50,15,-2
10795,-896,-232,1544,-51,14,-1
10800,-888,-232,1544,-51,16,-2
10805,-896,-224,1568,-53,16,-3
10810,-904,-232,1552,-54,17,-1
10815,-904,-232,1552,-53,19,-2
10820,-888,-232,1536,-51,19,-3
10825,-896,-240,1536,-53,20,-3
10830,-872,-208,1552,-53,19,-3
10835,-888,-216,1552,-54,20,-3
10840,-912,-240,1504,-53,20,-4
10845,-912,-208,1536,-52,20,-4
10850,-904,-248,1504,-50,22,-3
10855,-904,-216,1544,-51,22,-2
10860,-880,-224,1544,-50,20,-3
10865,-864,-232,1544,-49,21,-3
10870,-896,-232,1560,-50,20,-3
10875,-888,-216,1560,-50,19,-2
10880,-880,-208,1536,-49,18,-1
10885,-904,-216,1528,-49,17,-2
10890,-912,-224,1528,-50,18,-2
10895,-896,-216,1552,-49,16,-3
10900,-912,-208,1536,-49,16,-4
10905,-896,-232,1552,-51,16,-4
10910,-912,-208,1528,-50,15,-5
10915,-896,-232,1536,-48,15,-5
10920,-912,-208,1520,-49,17,-3
10925,-896,-232,1536,-49,19,-3
10930,-888,-240,1536,-49,21,-3
10935,-904,-224,1552,-50,21,-4
10940,-888,-216,1552,-50,21,-4
10945,-848,-256,1504,-50,22,-4
10950,-896,-208,1536,-50,24,-4
10955,-904,-216,1528,-49,23,-3
10960,-888,-216,1536,-49,24,-3
10965,-872,-240,1528,-47,25,-3
10970,-888,-232,1536,-48,24,-3
10975,-904,-208,1544,-49,23,-3
10980,-880,-224,1560,-50,24,-2
10985,-896,-216,1544,-50,23,-2
10990,-888,-224,1568,-49,21,-2
10995,-872,-216,1528,-50,21,-2
11000,-880,-224,1528,-53,21,-2
11005,-912,-224,1544,-53,20,-1
11010,-896,-232,1536,-53,20,-2
11015,-912,-224,1536,-54,19,-3
11020,-896,-216,1520,-55,18,-3
11025,-896,-200,1552,-56,17,-4
11030,-920,-208,1512,-57,17,-4
11035,-904,-224,1544,-56,17,-5
11040,-904,-224,1552,-57,18,-5
11045,-904,-200,1544,-54,19,-4
11050,-904,-192,1520,-52,20,-4
11055,-896,-224,1528,-49,20,-5
11060,-904,-224,1520,-46,22,-3
11065,-880,-240,1528,-42,22,-3
11070,-872,-224,1536,-42,24,-4
11075,-904,-232,1536,-40,25,-5
11080,-880,-224,1552,-39,26,-6
11085,-888,-224,1536,-41,26,-7
11090,-896,-232,1552,-42,25,-7
11095,-904,-240,1584,-42,26,-8
11100,-872,-256,1520,-42,25,-8
11105,-928,-208,1544,-41,24,-8
11110,-896,-240,1552,-40,22,-8
11115,-904,-240,1544,-38,19,-8
11120,-896,-272,1560,-40,18,-6
11125,-896,-248,1520,-43,18,-4
11130,-920,-240,1520,-43,16,-3
11135,-912,-216,1520,-44,18,-2
11140,-880,-232,1512,-46,20,-1
11145,-896,-224,1496,-47,24,-1
11150,-888,-232,1496,-49,27,-1
11155,-912,-216,1504,-50,29,0
11160,-880,-224,1536,-50,31,1
11165,-904,-200,1528,-50,32,1
11170,-912,-208,1512,-51,31,1
11175,-896,-240,1552,-51,32,-1
11180,-904,-232,1544,-49,30,0
11185,-880,-232,1544,-49,28,1
11190,-896,-208,1544,-46,28,-1
11195,-880,-216,1560,-44,24,-1
11200,-904,-200,1528,-42,24,-1
11205,-904,-216,1584,-40,22,-2
11210,-896,-176,1552,-39,21,-3
11215,-920,-160,1528,-38,19,-1
11220,-904,-232,1544,-37,19,-3
11225,-912,-232,1568,-39,16,-3
11230,-896,-216,1560,-40,15,-4
11235,-880,-224,1528,-43,15,-6
11240,-912,-232,1528,-46,14,-5
11245,-896,-232,1496,-50,13,-6
11250,-896,-240,1568,-53,13,-6
11255,-920,-208,1520,-54,15,-6
11260,-904,-224,1512,-56,15,-6
11265,-920,-240,1504,-56,16,-7
11270,-840,-192,1504,-55,17,-6
11275,-904,-208,1536,-57,18,-7
11280,-904,-216,1560,-57,21,-7
11285,-912,-240,1544,-56,21,-7
11290,-912,-208,1544,-55,23,-6
11295,-904,-232,1512,-56,24,-6
11300,-888,-240,1504,-55,24,-6
11305,-896,-232,1520,-54,24,-5
11310,-912,-240,1496,-53,23,-5
11315,-888,-216,1536,-52,24,-4
11320,-904,-232,1544,-51,23,-3
11325,-904,-248,1528,-51,22,-4
11330,-920,-248,1520,-51,20,-4
11335,-896,-248,1528,-50,18,-4
11340,-888,-264,1536,-52,18,-3
11345,-888,-232,1512,-52,17,-3
11350,-904,-216,1528,-52,16,-3
11355,-888,-232,1528,-52,16,-4
11360,-904,-216,1528,-52,17,-3
11365,-896,-216,1520,-52,17,-4
11370,-912,-224,1536,-51,17,-5
11375,-944,-184,1560,-53,18,-5
11380,-920,-224,1528,-51,18,-6
11385,-912,-216,1536,-49,18,-5
11390,-904,-240,1536,-49,18,-5
11395,-896,-240,1528,-48,19,-5
11400,-912,-224,1512,-49,19,-5
11405,-872,-248,1552,-48,20,-4
11410,-904,-256,1568,-48,21,-6
11415,-920,-232,1552,-49,19,-4
11420,-888,-224,1528,-49,17,-5
11425,-912,-232,1528,-49,18,-3
11430,-960,-216,1568,-50,18,-3
11435,-904,-248,1552,-50,18,-3
11440,-912,-208,1536,-51,18,-3
11445,-896,-232,1536,-52,19,-2
11450,-904,-240,1536,-53,20,-3
11455,-912,-216,1544,-55,20,-3
11460,-904,-224,1536,-54,20,-4
11465,-896,-208,1560,-54,22,-3
11470,-904,-200,1520,-54,23,-2
11475,-896,-208,1544,-53,24,-2
11480,-864,-184,1512,-52,25,-2
11485,-896,-240,1568,-51,25,-4
11490,-904,-248,1568,-50,25,-4
11495,-904,-224,1568,-50,25,-4
11500,-912,-240,1552,-49,22,-3
11505,-912,-224,1552,-47,24,-3
11510,-912,-208,1536,-47,22,-3
11515,-912,-224,1528,-47,22,-5
11520,-880,-216,1528,-48,20,-3
11525,-888,-224,1536,-48,19,-4
11530,-888,-232,1536,-49,18,-3
11535,-888,-248,1560,-49,18,-3
11540,-928,-216,1552,-49,18,-4
11545,-904,-224,1544,-49,19,-6
11550,-904,-208,1536,-50,18,-7
11555,-912,-232,1536,-50,19,-6
11560,-888,-248,1536,-50,19,-7
11565,-912,-216,1520,-50,20,-5
11570,-904,-232,1544,-51,20,-6
11575,-912,-224,1496,-51,19,-6
11580,-896,-240,1536,-50,19,-6
11585,-888,-264,1544,-51,19,-6
11590,-928,-192,1520,-49,20,-6
11595,-920,-232,1512,-48,20,-5
11600,-904,-232,1512,-48,17,-5
11605,-912,-232,1544,-49,18,-6
11610,-920,-240,1528,-46,15,-5
11615,-888,-216,1544,-48,16,-5
11620,-872,-240,1512,-47,16,-4
11625,-920,-216,1496,-48,17,-4
11630,-896,-240,1520,-48,17,-5
11635,-896,-208,1528,-49,18,-5
11640,-888,-248,1512,-47,16,-3
11645,-920,-232,1544,-47,17,-4
11650,-896,-232,1504,-46,16,-4
11655,-920,-256,1520,-49,17,-4
11660,-912,-224,1528,-48,17,-4
11665,-912,-240,1512,-48,17,-2
11670,-888,-240,1520,-47,16,-3
11675,-912,-240,1544,-46,17,-3
11680,-912,-256,1536,-46,16,-4
11685,-904,-248,1536,-45,16,-4
11690,-920,-240,1512,-43,16,-3
11695,-896,-240,1544,-44,15,-2
11700,-880,-240,1552,-43,15,-3
11705,-912,-200,1568,-42,15,-3
11710,-920,-232,1512,-41,14,-3
11715,-896,-216,1520,-40,13,-3
11720,-896,-232,1544,-43,13,-4
11725,-904,-224,1544,-42,13,-5
11730,-896,-232,1544,-42,14,-4
11735,-904,-224,1544,-43,14,-5
11740,-928,-216,1536,-44,12,-4
11745,-912,-240,1536,-45,14,-6
11750,-888,-224,1488,-46,13,-6
11755,-904,-232,1536,-47,14,-5
11760,-912,-200,1520,-46,15,-5
11765,-912,-224,1536,-47,16,-3
11770,-880,-232,1568,-47,16,-4
11775,-912,-232,1544,-45,16,-4
11780,-912,-224,1520,-45,16,-4
11785,-880,-240,1528,-45,17,-4
11790,-904,-224,1536,-46,17,-3
11795,-880,-240,1552,-45,16,-4
11800,-912,-248,1512,-45,15,-4
11805,-904,-240,1528,-45,16,-4
11810,-912,-224,1584,-46,15,-3
11815,-920,-224,1552,-45,14,-4
11820,-912,-240,1512,-46,13,-3
11825,-920,-216,1552,-48,11,-5
11830,-920,-224,1520,-47,11,-4
11835,-912,-216,1552,-48,10,-4
11840,-904,-224,1496,-46,9,-6
11845,-896,-248,1528,-43,10,-5
11850,-888,-208,1520,-42,10,-5
11855,-928,-216,1536,-40,11,-5
11860,-912,-224,1512,-39,11,-6
11865,-928,-240,1512,-37,13,-4
11870,-944,-248,1520,-36,15,-4
11875,-880,-224,1536,-36,14,-4
11880,-896,-232,1528,-36,16,-6
11885,-904,-240,1520,-37,17,-7
11890,-912,-224,1520,-40,16,-9
11895,-912,-240,1520,-42,16,-9
11900,-904,-248,1560,-43,16,-7
11905,-920,-256,1504,-45,16,-9
11910,-912,-232,1552,-43,13,-9
11915,-912,-256,1576,-44,12,-9
11920,-904,-248,1528,-43,11,-9
11925,-880,-256,1536,-42,10,-8
11930,-880,-248,1536,-42,12,-6
11935,-904,-240,1520,-44,12,-4
11940,-888,-256,1544,-47,13,-3
11945,-912,-240,1528,-46,14,-2
11950,-904,-232,1544,-46,18,-1
11955,-912,-232,1520,-44,21,-1
11960,-888,-240,1536,-43,25,-1
11965,-888,-232,1528,-43,28,-1
11970,-912,-248,1528,-42,29,0
11975,-920,-216,1576,-41,29,0
11980,-888,-248,1560,-40,28,-1
11985,-896,-224,1520,-38,26,0
11990,-888,-216,1528,-38,25,-1
11995,-896,-216,1528,-35,23,-1
12000,-896,-216,1520,-33,20,-2
12005,-920,-216,1504,-35,18,-1
12010,-904,-200,1528,-35,15,-4
12015,-904,-208,1544,-34,13,-4
12020,-920,-224,1552,-35,11,-3
12025,-904,-216,1544,-37,11,-5
12030,-896,-256,1520,-39,8,-5
12035,-896,-216,1544,-40,7,-7
12040,-928,-224,1544,-44,6,-6
12045,-880,-208,1528,-46,7,-7
12050,-896,-224,1536,-49,7,-7
12055,-920,-224,1536,-51,7,-8
12060,-912,-224,1520,-52,8,-8
12065,-928,-208,1528,-53,9,-8
12070,-872,-200,1520,-52,11,-7
12075,-928,-208,1536,-52,12,-6
12080,-904,-240,1552,-50,13,-8
12085,-912,-224,1560,-47,14,-7
12090,-944,-192,1536,-48,14,-7
12095,-912,-216,1528,-47,16,-4
12100,-920,-232,1512,-46,14,-5
12105,-896,-248,1520,-46,15,-6
12110,-904,-216,1544,-46,15,-5
12115,-896,-232,1504,-46,13,-5
12120,-904,-240,1544,-47,15,-5
12125,-904,-232,1544,-45,15,-5
12130,-912,-208,1544,-45,14,-5
12135,-888,-208,1512,-44,13,-6
12140,-904,-232,1528,-45,12,-5
12145,-896,-224,1552,-47,12,-5
12150,-896,-240,1536,-46,10,-4
12155,-888,-232,1520,-46,8,-4
12160,-888,-232,1544,-47,7,-4
12165,-896,-248,1528,-48,7,-5
12170,-896,-240,1528,-50,7,-6
12175,-896,-240,1544,-48,8,-5
12180,-904,-232,1512,-46,9,-4
12185,-912,-192,1536,-46,12,-5
12190,-912,-200,1600,-45,12,-5
12195,-840,-240,1520,-42,13,-5
12200,-912,-280,1592,-40,13,-6
12205,-904,-232,1568,-41,14,-5
12210,-904,-232,1552,-40,14,-4
12215,-912,-224,1544,-40,14,-3
12220,-912,-216,1552,-41,13,-5
12225,-904,-232,1568,-42,12,-5
12230,-912,-224,1536,-43,12,-5
12235,-944,-240,1552,-45,14,-5
12240,-896,-224,1512,-45,12,-4
12245,-904,-248,1576,-48,12,-5
12250,-904,-216,1512,-46,11,-2
12255,-896,-200,1520,-50,12,-3
12260,-920,-232,1536,-49,12,-4
12265,-928,-200,1528,-50,13,-3
12270,-928,-208,1560,-50,14,-3
12275,-912,-208,1536,-47,14,-4
12280,-912,-224,1520,-47,14,-3
12285,-912,-200,1512,-47,17,-3
12290,-896,-240,1552,-47,16,-2
12295,-936,-192,1520,-46,17,-3
12300,-904,-224,1536,-45,17,-3
12305,-880,-208,1456,-44,18,-3
12310,-904,-256,1552,-42,16,-4
12315,-888,-200,1552,-40,14,-5
12320,-896,-216,1520,-41,15,-4
12325,-904,-216,1552,-42,14,-3
12330,-896,-216,1552,-43,13,-4
12335,-920,-224,1528,-42,13,-5
12340,-888,-224,1552,-44,13,-3
12345,-920,-240,1528,-46,11,-4
12350,-896,-224,1552,-45,12,-5
12355,-888,-248,1544,-47,12,-6
12360,-928,-296,1512,-48,12,-6
12365,-912,-224,1544,-49,11,-7
12370,-896,-240,1520,-50,12,-7
12375,-920,-208,1528,-50,12,-7
12380,-888,-232,1528,-50,12,-7
12385,-896,-232,1544,-50,13,-6
12390,-904,-216,1544,-48,13,-6
12395,-896,-248,1544,-47,13,-6
12400,-904,-232,1568,-47,14,-5
12405,-896,-224,1528,-45,15,-5
12410,-912,-224,1504,-45,14,-5
12415,-928,-240,1504,-44,15,-3
12420,-904,-232,1560,-45,15,-4
12425,-896,-224,1512,-45,15,-5
12430,-888,-224,1568,-44,16,-4
12435,-912,-232,1568,-45,16,-3
12440,-888,-240,1528,-44,14,-4
12445,-896,-232,1520,-45,13,-3
12450,-888,-248,1544,-46,13,-4
12455,-928,-216,1544,-46,14,-3
12460,-904,-224,1552,-45,12,-4
12465,-912,-264,1528,-44,12,-4
12470,-848,-192,1552,-46,12,-2
12475,-896,-224,1528,-45,11,-3
12480,-904,-232,1568,-45,10,-4
12485,-912,-232,1520,-46,11,-3
12490,-888,-232,1536,-46,10,-4
12495,-896,-232,1552,-45,11,-4
12500,-896,-224,1520,-45,11,-3
12505,-912,-232,1520,-45,12,-4
12510,-920,-208,1504,-43,11,-3
12515,-888,-240,1480,-44,12,-2
12520,-832,-240,1544,-45,13,-3
12525,-904,-224,1568,-44,12,-4
12530,-904,-232,1528,-44,13,-3
12535,-888,-248,1536,-46,12,-4
12540,-912,-232,1544,-44,13,-3
12545,-920,-224,1520,-45,12,-4
12550,-888,-248,1544,-45,12,-5
12555,-896,-224,1536,-44,13,-4
12560,-888,-256,1504,-45,13,-5
12565,-904,-224,1568,-44,14,-6
12570,-912,-216,1560,-44,13,-5
12575,-912,-184,1488,-44,13,-4
12580,-888,-224,1528,-44,13,-4
12585,-896,-216,1520,-45,13,-5
12590,-888,-216,1528,-46,15,-5
12595,-880,-248,1528,-45,15,-5
12600,-896,-224,1560,-45,15,-5
12605,-904,-232,1536,-46,16,-5
12610,-904,-232,1520,-45,14,-5
12615,-896,-256,1552,-45,15,-4
12620,-904,-216,1536,-45,14,-4
12625,-896,-248,1536,-46,14,-4
12630,-856,-216,1480,-44,14,-4
12635,-872,-232,1544,-45,14,-4
12640,-896,-224,1528,-44,13,-5
12645,-888,-216,1520,-43,13,-4
12650,-912,-216,1544,-44,12,-2
12655,-928,-208,1512,-44,12,-3
12660,-904,-232,1536,-46,13,-3
12665,-904,-256,1520,-47,12,-4
12670,-888,-256,1528,-48,12,-3
12675,-896,-224,1512,-49,11,-3
12680,-888,-264,1520,-50,12,-5
12685,-912,-232,1512,-48,11,-6
12690,-896,-224,1528,-48,9,-6
12695,-904,-240,1544,-49,11,-8
12700,-904,-224,1536,-46,10,-8
12705,-912,-200,1536,-44,11,-7
12710,-912,-224,1536,-43,13,-6
12715,-888,-224,1536,-41,15,-5
12720,-872,-224,1512,-40,16,-4
12725,-912,-240,1528,-40,17,-4
12730,-912,-200,1520,-38,19,-4
12735,-904,-192,1552,-39,17,-5
12740,-888,-240,1504,-38,19,-6
12745,-888,-240,1536,-38,20,-6
12750,-888,-224,1552,-37,19,-6
12755,-880,-264,1560,-38,20,-8
12760,-872,-224,1552,-36,19,-9
12765,-904,-232,1568,-38,19,-9
12770,-888,-248,1544,-37,17,-8
12775,-888,-256,1560,-34,15,-8
12780,-872,-256,1528,-33,13,-7
12785,-896,-248,1544,-32,10,-6
12790,-912,-232,1536,-33,9,-5
12795,-888,-264,1488,-37,8,-5
12800,-912,-224,1528,-38,9,-4
12805,-904,-216,1520,-41,11,-1
12810,-896,-248,1520,-41,14,-1
12815,-888,-224,1528,-45,17,-1
12820,-912,-216,1528,-45,20,-1
12825,-888,-216,1512,-45,22,-1
12830,-912,-224,1520,-46,23,-1
12835,-872,-200,1520,-46,22,-1
12840,-888,-200,1536,-45,23,0
12845,-872,-216,1560,-43,21,-1
12850,-888,-296,1560,-39,20,-2
12855,-912,-200,1560,-39,18,-3
12860,-888,-232,1528,-36,16,-2
12865,-896,-208,1544,-34,16,-3
12870,-888,-216,1536,-32,14,-3
12875,-912,-216,1560,-34,12,-3
12880,-912,-208,1528,-35,12,-4
12885,-904,-200,1480,-36,10,-6
12890,-888,-240,1528,-39,10,-6
12895,-904,-224,1536,-39,9,-6
12900,-904,-216,1520,-43,8,-7
12905,-864,-224,1552,-44,7,-6
12910,-904,-224,1568,-46,7,-6
12915,-904,-240,1512,-46,7,-6
12920,-912,-208,1528,-47,8,-7
12925,-888,-216,1560,-48,8,-8
12930,-904,-216,1528,-47,9,-8
12935,-920,-224,1560,-48,10,-7
12940,-920,-200,1552,-49,9,-8
12945,-896,-232,1552,-49,10,-8
12950,-912,-208,1560,-48,11,-6
12955,-896,-248,1576,-46,13,-5
12960,-904,-288,1544,-47,14,-6
12965,-912,-232,1528,-45,14,-5
12970,-896,-240,1504,-46,14,-4
12975,-912,-232,1536,-46,13,-6
12980,-904,-224,1528,-46,13,-6
12985,-904,-232,1504,-46,14,-6
12990,-904,-232,1512,-46,14,-6
12995,-880,-240,1528,-45,14,-5
13000,-904,-208,1552,-46,12,-5
13005,-896,-248,1536,-45,12,-4
13010,-872,-208,1640,-45,10,-3
13015,-872,-232,1552,-46,9,-4
13020,-880,-256,1552,-46,7,-3
13025,-904,-232,1520,-47,7,-2
13030,-896,-216,1552,-47,8,-3
13035,-904,-232,1544,-47,8,-4
13040,-864,-208,1536,-46,9,-4
13045,-880,-216,1536,-46,8,-5
13050,-888,-224,1536,-43,9,-5
13055,-912,-232,1536,-44,10,-4
13060,-912,-224,1528,-42,11,-4
13065,-872,-240,1560,-40,10,-4
13070,-896,-232,1528,-40,11,-3
13075,-912,-232,1560,-38,11,-4
13080,-904,-232,1536,-39,10,-3
13085,-904,-224,1568,-38,10,-2
13090,-904,-240,1520,-37,11,-2
13095,-904,-232,1504,-38,11,-3
13100,-912,-208,1552,-40,11,-2
13105,-880,-248,1552,-39,13,-2
13110,-880,-216,1544,-40,12,-3
13115,-904,-216,1528,-40,12,-2
13120,-896,-216,1440,-41,12,-3
13125,-904,-240,1544,-42,12,-4
13130,-904,-216,1560,-42,12,-5
13135,-888,-216,1528,-42,12,-4
13140,-928,-200,1536,-44,12,-4
13145,-896,-216,1552,-45,11,-5
13150,-912,-224,1544,-43,11,-4
13155,-888,-200,1552,-45,12,-4
13160,-912,-240,1568,-44,12,-4
13165,-880,-240,1544,-45,12,-5
13170,-864,-208,1544,-43,12,-4
13175,-904,-240,1480,-41,13,-5
13180,-896,-224,1552,-42,13,-6
13185,-896,-240,1536,-41,12,-4
13190,-896,-232,1512,-40,11,-5
13195,-888,-208,1544,-39,11,-6
13200,-896,-240,1544,-38,10,-4
13205,-888,-224,1528,-38,9,-6
13210,-880,-240,1560,-35,11,-6
13215,-872,-224,1536,-37,10,-5
13220,-912,-224,1520,-38,10,-5
13225,-896,-224,1536,-38,10,-6
13230,-888,-200,1552,-38,9,-6
13235,-896,-240,1520,-40,9,-7
13240,-880,-240,1512,-40,9,-6
13245,-888,-232,1552,-41,8,-5
13250,-904,-240,1552,-42,9,-6
13255,-904,-240,1552,-42,10,-7
13260,-912,-224,1520,-41,10,-6
13265,-928,-200,1536,-41,11,-6
13270,-872,-224,1536,-42,11,-6
13275,-888,-224,1496,-42,11,-7
13280,-880,-256,1536,-42,11,-6
13285,-912,-184,1536,-44,11,-4
13290,-896,-224,1528,-44,12,-5
13295,-896,-232,1552,-43,11,-5
13300,-912,-232,1544,-44,11,-5
13305,-912,-208,1536,-46,10,-4
13310,-888,-232,1544,-44,9,-5
13315,-888,-224,1536,-44,9,-4
13320,-896,-232,1528,-46,9,-3
13325,-888,-248,1552,-47,10,-2
13330,-896,-232,1552,-46,9,-3
13335,-872,-240,1528,-46,9,-4
13340,-912,-264,1544,-44,10,-3
13345,-896,-216,1544,-45,11,-3
13350,-888,-224,1536,-46,11,-2
13355,-872,-224,1520,-44,12,-3
13360,-904,-224,1512,-45,11,-4
13365,-896,-240,1528,-44,12,-3
13370,-896,-216,1528,-43,13,-3
13375,-864,-248,1552,-42,12,-3
13380,-896,-216,1536,-42,12,-3
13385,-896,-232,1512,-43,13,-2
13390,-888,-240,1552,-42,13,-4
13395,-888,-240,1528,-44,13,-3
13400,-904,-224,1528,-41,12,-3
13405,-888,-216,1520,-42,11,-3
13410,-888,-200,1536,-41,12,-4
13415,-896,-216,1552,-41,11,-4
13420,-896,-208,1536,-42,11,-3
13425,-904,-216,1552,-41,12,-3
13430,-912,-208,1520,-41,12,-3
13435,-904,-208,1544,-43,13,-4
13440,-872,-240,1528,-44,13,-6
13445,-904,-200,1520,-44,14,-6
13450,-848,-200,1560,-45,14,-5
13455,-872,-224,1560,-46,14,-5
13460,-864,-240,1544,-45,12,-5
13465,-880,-232,1544,-43,13,-5
13470,-864,-224,1544,-43,12,-4
13475,-896,-208,1536,-45,12,-3
13480,-888,-224,1544,-43,11,-3
13485,-888,-184,1536,-43,11,-4
13490,-888,-208,1528,-44,11,-4
13495,-880,-232,1520,-44,10,-4
13500,-888,-224,1520,-44,10,-5
13505,-856,-216,1560,-44,11,-4
13510,-904,-232,1560,-45,11,-4
13515,-880,-208,1528,-45,12,-5
13520,-912,-208,1536,-45,11,-5
13525,-904,-240,1536,-45,11,-4
13530,-880,-224,1560,-45,10,-4
13535,-896,-224,1552,-45,11,-3
13540,-896,-224,1520,-43,12,-3
13545,-912,-232,1568,-44,14,-3
13550,-904,-208,1560,-43,12,-4
13555,-888,-200,1576,-43,12,-6
13560,-888,-216,1528,-42,12,-4
13565,-920,-216,1528,-44,11,-5
13570,-912,-208,1544,-45,12,-6
13575,-896,-232,1544,-44,13,-6
13580,-888,-240,1544,-44,14,-6
13585,-872,-224,1512,-43,12,-4
13590,-896,-232,1544,-45,11,-4
13595,-912,-216,1544,-46,11,-5
13600,-896,-264,1512,-46,11,-4
13605,-904,-232,1528,-46,12,-5
13610,-904,-224,1544,-47,12,-3
13615,-920,-208,1536,-45,12,-4
13620,-888,-208,1528,-46,11,-4
13625,-904,-216,1544,-46,11,-4
13630,-888,-224,1520,-44,11,-4
13635,-888,-200,1560,-44,11,-4
13640,-912,-224,1520,-45,12,-4
13645,-920,-224,1536,-44,12,-4
13650,-888,-232,1568,-45,14,-4
13655,-880,-224,1528,-45,15,-4
13660,-880,-208,1504,-45,14,-4
13665,-896,-176,1592,-44,16,-4
13670,-864,-216,1536,-43,15,-3
13675,-904,-216,1504,-44,13,-2
13680,-880,-232,1544,-43,14,-2
13685,-888,-224,1560,-43,14,-2
13690,-880,-224,1536,-42,12,-2
13695,-888,-208,1528,-43,14,-2
13700,-880,-224,1544,-43,13,-1
13705,-912,-216,1560,-44,11,-1
13710,-896,-208,1528,-45,10,-1
13715,-888,-232,1528,-46,10,-2
13720,-904,-248,1520,-46,9,-2
13725,-880,-208,1536,-46,10,-4
13730,-904,-208,1528,-46,8,-6
13735,-904,-192,1544,-47,11,-6
13740,-880,-208,1568,-47,10,-7
13745,-888,-224,1528,-47,11,-6
13750,-896,-216,1536,-45,10,-5
13755,-920,-200,1536,-44,11,-6
13760,-912,-208,1560,-42,10,-6
13765,-864,-208,1536,-40,13,-5
13770,-880,-216,1536,-39,14,-4
13775,-864,-232,1576,-37,15,-6
13780,-880,-232,1568,-36,16,-7
13785,-880,-232,1568,-36,17,-8
13790,-888,-240,1552,-37,18,-9
13795,-904,-240,1560,-36,21,-8
13800,-880,-216,1528,-33,21,-9
13805,-880,-240,1560,-30,21,-9
13810,-864,-248,1536,-27,19,-10
13815,-872,-248,1528,-26,15,-8
13820,-896,-232,1544,-24,16,-7
13825,-888,-232,1544,-23,13,-7
13830,-904,-256,1528,-25,12,-6
13835,-920,-224,1568,-25,11,-5
13840,-888,-224,1512,-27,12,-3
13845,-880,-248,1544,-28,13,-3
13850,-888,-224,1536,-30,14,-1
13855,-896,-224,1528,-30,16,0
13860,-888,-232,1536,-34,18,-1
13865,-904,-216,1528,-35,18,-1
13870,-904,-208,1520,-40,17,-2
13875,-904,-216,1528,-42,18,0
13880,-856,-216,1528,-47,17,-2
13885,-888,-232,1560,-47,18,-1
13890,-896,-192,1560,-47,17,-3
13895,-904,-216,1560,-45,18,-2
13900,-896,-192,1552,-43,17,-3
13905,-888,-208,1544,-41,17,-2
13910,-880,-208,1568,-39,16,-3
13915,-896,-208,1552,-38,15,-4
13920,-880,-200,1552,-37,15,-4
13925,-888,-208,1536,-39,14,-4
13930,-888,-200,1536,-38,13,-6
13935,-872,-248,1560,-41,12,-6
13940,-888,-192,1584,-44,11,-5
13945,-880,-200,1560,-45,9,-5
13950,-880,-200,1528,-47,8,-6
13955,-888,-224,1528,-50,8,-7
13960,-888,-200,1528,-51,7,-6
13965,-896,-200,1528,-54,9,-7
13970,-912,-216,1568,-54,11,-5
13975,-928,-192,1536,-56,12,-5
13980,-912,-192,1576,-56,13,-5
13985,-872,-248,1536,-57,14,-4
13990,-912,-216,1560,-58,15,-4
13995,-904,-256,1592,-59,17,-4
14000,-864,-208,1560,-58,17,-5
14005,-872,-240,1544,-61,20,-3
14010,-888,-240,1560,-59,23,-4
14015,-904,-216,1576,-58,25,-4
14020,-872,-240,1552,-57,25,-4
14025,-896,-208,1552,-57,25,-3
14030,-904,-200,1536,-56,26,-2
14035,-904,-240,1544,-55,25,-2
14040,-896,-240,1552,-53,24,-2
14045,-904,-256,1600,-52,25,-1
14050,-880,-232,1560,-51,22,-1
14055,-880,-248,1544,-50,20,-1
14060,-896,-232,1528,-50,19,-1
14065,-880,-224,1552,-49,18,1
14070,-888,-208,1536,-49,16,0
14075,-880,-224,1496,-50,16,-2
14080,-864,-256,1512,-49,17,-1
14085,-904,-224,1528,-48,17,-1
14090,-880,-216,1560,-49,18,-2
14095,-912,-200,1544,-47,18,-2
14100,-888,-264,1544,-46,17,-3
14105,-904,-208,1528,-45,17,-3
14110,-896,-232,1536,-45,16,-3
14115,-880,-208,1544,-44,16,-3
14120,-880,-248,1560,-47,16,-4
14125,-904,-200,1536,-48,15,-3
14130,-880,-232,1560,-51,15,-2
14135,-896,-216,1504,-51,15,-3
14140,-896,-232,1544,-52,16,-2
14145,-912,-264,1536,-52,17,-2
14150,-888,-224,1552,-52,17,-1
14155,-920,-208,1512,-53,18,-1
14160,-864,-232,1544,-53,19,-2
14165,-872,-224,1544,-53,21,-3
14170,-872,-224,1552,-52,20,-3
14175,-864,-224,1576,-50,20,-2
14180,-888,-216,1552,-50,21,-2
14185,-904,-208,1568,-48,22,-2
14190,-912,-200,1552,-48,23,-2
14195,-896,-224,1560,-48,22,-2
14200,-896,-216,1536,-47,23,-3
14205,-896,-200,1536,-47,23,-3
14210,-888,-224,1600,-46,23,-1
14215,-896,-200,1544,-45,23,-2
14220,-872,-208,1552,-45,23,-2
14225,-880,-208,1520,-46,22,-3
14230,-896,-224,1544,-46,21,-2
14235,-888,-232,1536,-45,21,-2
14240,-904,-224,1560,-46,20,-2
14245,-904,-232,1528,-47,19,-3
14250,-896,-208,1544,-47,19,-3
14255,-904,-216,1536,-47,18,-3
14260,-888,-240,1568,-47,18,-3
14265,-896,-200,1600,-49,17,-4
14270,-880,-208,1560,-50,17,-3
14275,-880,-208,1552,-50,18,-2
14280,-880,-240,1528,-51,18,-2
14285,-904,-224,1576,-51,20,-3
14290,-888,-216,1544,-51,19,-4
14295,-912,-232,1536,-51,21,-4
14300,-888,-232,1552,-50,22,-5
14305,-872,-240,1536,-51,24,-3
14310,-896,-232,1536,-51,24,-4
14315,-888,-240,1544,-49,23,-3
14320,-880,-192,1488,-49,23,-3
14325,-888,-232,1552,-50,22,-2
14330,-912,-224,1536,-50,23,0
14335,-896,-224,1544,-49,22,-2
14340,-896,-216,1536,-47,20,-2
14345,-904,-240,1520,-48,19,-1
14350,-896,-216,1544,-48,17,0
14355,-880,-232,1528,-47,17,0
14360,-856,-248,1536,-49,17,-1
14365,-872,-248,1512,-50,16,0
14370,-880,-224,1552,-51,17,1
14375,-944,-136,1544,-51,16,-2
14380,-904,-208,1536,-51,18,0
14385,-888,-224,1512,-51,17,-2
14390,-888,-224,1552,-50,19,-3
14395,-888,-208,1528,-51,19,-3
14400,-896,-232,1528,-50,19,-2
14405,-864,-232,1528,-50,18,-3
14410,-912,-216,1480,-50,19,-2
14415,-896,-216,1552,-48,19,0
14420,-888,-240,1552,-48,19,-1
14425,-904,-224,1576,-49,20,-1
14430,-928,-240,1552,-51,21,-2
14435,-912,-208,1560,-49,21,-2
14440,-896,-216,1568,-48,19,-1
14445,-880,-232,1568,-49,21,-2
14450,-872,-224,1520,-49,21,-2
14455,-872,-240,1544,-49,22,-2
14460,-896,-216,1544,-50,20,-2
14465,-912,-224,1520,-50,21,-3
14470,-888,-208,1544,-49,21,-3
14475,-880,-232,1520,-49,21,-3
14480,-920,-200,1544,-49,21,-2
14485,-944,-208,1560,-48,21,-2
14490,-872,-232,1560,-49,21,-4
14495,-888,-216,1544,-48,21,-3
14500,-888,-240,1536,-47,20,-3
14505,-904,-200,1512,-46,20,-2
14510,-880,-224,1544,-45,21,-2
14515,-904,-216,1520,-46,19,-3
14520,-912,-216,1528,-46,20,-3
14525,-896,-224,1496,-47,21,-3
14530,-872,-232,1536,-47,21,-2
14535,-880,-216,1536,-45,19,-3
14540,-896,-232,1600,-47,19,-4
14545,-904,-232,1560,-46,20,-4
14550,-912,-208,1536,-47,21,-2
14555,-880,-232,1520,-46,19,-4
14560,-896,-200,1536,-49,19,-3
14565,-888,-224,1544,-48,18,-4
14570,-864,-248,1560,-48,20,-3
14575,-912,-224,1568,-49,20,-4
14580,-880,-272,1520,-51,20,-4
14585,-904,-240,1520,-51,20,-4
14590,-856,-216,1584,-51,20,-4
14595,-896,-224,1504,-52,20,-4
14600,-904,-224,1560,-54,19,-3
14605,-888,-232,1512,-53,19,-3
14610,-904,-232,1544,-52,20,-3
14615,-888,-224,1536,-54,19,-4
14620,-888,-232,1552,-55,19,-2
14625,-896,-208,1544,-54,20,-3
14630,-896,-240,1552,-52,21,-2
14635,-880,-216,1536,-51,20,-4
14640,-904,-216,1480,-51,20,-3
14645,-896,-160,1520,-48,20,-2
14650,-896,-216,1552,-49,20,-2
14655,-896,-224,1512,-48,20,-3
14660,-888,-216,1544,-48,20,-2
14665,-920,-216,1544,-47,22,-1
14670,-904,-208,1544,-46,21,-2
14675,-888,-248,1552,-46,20,-1
14680,-904,-240,1536,-44,20,-2
14685,-888,-240,1536,-44,20,-3
14690,-912,-256,1536,-45,21,-3
14695,-904,-232,1536,-44,21,-2
14700,-896,-288,1536,-45,21,-2
14705,-864,-224,1536,-45,23,-2
14710,-872,-240,1544,-44,22,-2
14715,-896,-224,1528,-47,22,-2
14720,-888,-224,1528,-47,20,-2
14725,-896,-224,1528,-47,20,-2
14730,-912,-232,1544,-47,21,-3
14735,-896,-208,1544,-48,21,-2
14740,-896,-240,1552,-50,21,-3
14745,-912,-216,1520,-52,21,-2
14750,-888,-256,1528,-53,19,-4
14755,-888,-232,1520,-54,19,-4
14760,-904,-240,1552,-51,19,-4
14765,-864,-264,1576,-53,18,-6
14770,-824,-264,1560,-53,18,-5
14775,-880,-384,1608,-52,19,-6
14780,-904,-232,1520,-50,19,-7
14785,-912,-264,1552,-50,19,-4
14790,-904,-152,1544,-47,20,-5
14795,-936,-208,1592,-45,21,-3
14800,-880,-248,1512,-43,22,-3
14805,-752,-232,1520,-40,24,-3
14810,-896,-216,1512,-38,25,-5
14815,-928,-224,1536,-40,25,-6
14820,-888,-240,1496,-40,25,-6
14825,-840,-256,1568,-44,27,-6
14830,-888,-256,1624,-45,26,-7
14835,-928,-232,1552,-44,26,-8
14840,-896,-256,1528,-45,26,-8
14845,-888,-200,1504,-46,25,-9
14850,-912,-280,1544,-44,24,-9
14855,-896,-216,1472,-44,23,-9
14860,-936,-256,1552,-45,22,-8
14865,-984,-232,1600,-46,22,-7
14870,-920,-272,1384,-47,23,-4
14875,-888,-224,1544,-49,25,-4
14880,-888,-224,1496,-50,27,-3
14885,-912,-224,1536,-49,28,-1
14890,-896,-256,1512,-52,31,-1
14895,-920,-208,1544,-55,32,-1
14900,-896,-216,1544,-56,36,-1
14905,-896,-224,1512,-58,36,-1
14910,-888,-216,1536,-58,36,-1
14915,-896,-272,1528,-57,35,1
14920,-904,-208,1520,-55,34,1
14925,-912,-216,1520,-53,32,-1
14930,-896,-200,1528,-50,30,-1
14935,-888,-208,1536,-47,29,-1
14940,-880,-208,1552,-44,27,0
14945,-912,-216,1536,-42,26,-1
14950,-896,-200,1568,-41,23,-3
14955,-896,-208,1552,-43,23,-3
14960,-912,-224,1560,-44,23,-4
14965,-928,-200,1552,-46,20,-3
14970,-896,-224,1552,-47,20,-2
14975,-904,-200,1512,-49,17,-3
14980,-904,-208,1528,-54,18,-4
14985,-896,-232,1504,-56,16,-5
14990,-912,-192,1512,-58,18,-4
14995,-912,-176,1544,-59,20,-5
