timestamp,accel_x,accel_y,accel_z,gyro_x,gyro_y,gyro_z
0,240,-2080,-504,-71,33,-3
5,272,-2088,-520,-71,33,-4
10,248,-2064,-472,-72,34,-3
15,256,-2088,-496,-69,31,-4
20,248,-2088,-504,-69,31,-4
25,296,-2104,-496,-70,33,-3
30,216,-2096,-504,-69,33,-3
35,256,-2088,-504,-68,36,-2
40,264,-2104,-512,-66,34,-3
45,248,-2096,-496,-67,34,-2
50,256,-2088,-504,-65,34,-2
55,200,-2120,-544,-65,35,-2
60,240,-2096,-536,-65,35,-1
65,240,-2072,-480,-65,33,-1
70,248,-2064,-496,-63,32,-1
75,248,-2080,-464,-64,33,-1
80,240,-2088,-512,-63,33,-3
85,224,-2072,-464,-60,33,-2
90,216,-2072,-528,-61,32,-2
95,240,-2072,-504,-61,33,0
100,248,-2112,-512,-61,32,-1
105,256,-2072,-504,-61,31,-2
110,216,-2080,-528,-60,30,-2
115,248,-2080,-512,-59,28,-3
120,208,-2080,-552,-61,30,-3
125,232,-2056,-496,-60,28,-2
130,232,-2112,-512,-61,26,-3
135,248,-2104,-512,-62,25,-4
140,232,-2072,-504,-61,24,-3
145,232,-2080,-488,-61,25,-5
150,240,-2096,-504,-61,25,-5
155,256,-2080,-512,-61,23,-6
160,248,-2072,-528,-61,22,-7
165,240,-2080,-496,-61,21,-7
170,216,-2080,-520,-62,20,-7
175,216,-2096,-504,-62,19,-7
180,240,-2104,-512,-63,18,-9
185,288,-2120,-472,-64,17,-9
190,248,-2104,-512,-63,18,-9
195,240,-2080,-496,-63,17,-11
200,256,-2104,-512,-63,19,-11
205,240,-2072,-520,-63,20,-11
210,224,-2088,-512,-62,21,-12
215,256,-2120,-504,-62,21,-11
220,240,-2072,-528,-63,20,-12
225,232,-2064,-528,-63,20,-12
230,240,-2080,-504,-60,20,-12
235,240,-2096,-512,-62,19,-11
240,224,-2104,-536,-61,19,-12
245,240,-2072,-512,-61,17,-10
250,232,-2072,-520,-61,18,-10
255,256,-2064,-528,-60,18,-10
260,240,-2080,-528,-60,18,-11
265,264,-2088,-512,-60,19,-11
270,256,-2088,-504,-61,21,-12
275,256,-2080,-528,-60,21,-12
280,240,-2096,-552,-59,20,-12
285,248,-2096,-512,-58,21,-13
290,264,-2096,-472,-57,20,-14
295,248,-2080,-512,-55,18,-16
300,264,-2080,-496,-54,17,-14
305,224,-2080,-496,-54,14,-13
310,240,-2080,-488,-52,14,-14
315,224,-2080,-496,-51,12,-14
320,232,-2104,-496,-50,11,-15
325,240,-2080,-504,-49,8,-14
330,216,-2072,-496,-50,6,-15
335,240,-2080,-504,-50,4,-13
340,208,-2088,-512,-50,1,-14
345,184,-2072,-520,-52,1,-13
350,232,-2064,-448,-49,-1,-13
355,224,-2064,-496,-52,-5,-13
360,216,-2096,-496,-50,-8,-11
365,224,-2104,-496,-48,-12,-12
370,208,-2080,-496,-47,-14,-11
375,216,-2064,-512,-47,-18,-13
380,232,-2088,-488,-46,-21,-13
385,240,-2128,-496,-42,-24,-13
390,200,-2048,-480,-43,-26,-13
395,248,-2072,-496,-42,-29,-13
400,248,-2072,-496,-42,-32,-14
405,216,-2136,-472,-39,-35,-15
410,224,-2072,-480,-38,-39,-15
415,224,-2096,-488,-35,-42,-18
420,232,-2096,-488,-32,-47,-19
425,240,-2088,-464,-28,-50,-17
430,256,-2096,-472,-25,-52,-15
435,232,-2096,-496,-24,-56,-14
440,224,-2072,-496,-23,-57,-13
445,224,-2096,-456,-24,-58,-11
450,224,-2064,-472,-24,-59,-9
455,248,-2112,-496,-24,-61,-8
460,296,-2056,-504,-26,-62,-7
465,232,-2056,-504,-28,-63,-5
470,232,-2064,-496,-30,-65,-5
475,240,-2088,-480,-30,-65,-4
480,240,-2096,-504,-33,-67,-4
485,248,-2088,-504,-32,-65,-5
490,232,-2072,-496,-32,-65,-6
495,248,-2088,-504,-33,-65,-6
500,264,-2088,-472,-32,-63,-5
505,256,-2112,-504,-38,-63,-7
510,248,-2088,-504,-37,-64,-7
515,256,-2080,-488,-36,-62,-6
520,264,-2096,-520,-36,-61,-4
525,248,-2080,-528,-36,-60,-5
530,256,-2072,-504,-36,-60,-4
535,248,-2096,-504,-34,-59,-4
540,264,-2104,-504,-32,-58,-6
545,264,-2080,-512,-31,-57,-6
550,264,-2088,-496,-32,-55,-8
555,264,-2104,-456,-31,-56,-9
560,240,-2088,-512,-30,-56,-8
565,288,-2096,-464,-29,-55,-11
570,248,-2080,-488,-29,-56,-11
575,248,-2096,-488,-28,-56,-12
580,232,-2104,-472,-27,-56,-13
585,232,-2104,-480,-26,-57,-13
590,216,-2080,-488,-26,-57,-12
595,232,-2088,-464,-25,-56,-13
600,224,-2072,-504,-27,-58,-15
605,248,-2096,-520,-27,-60,-12
610,208,-2096,-512,-29,-60,-12
615,232,-2072,-472,-29,-60,-12
620,264,-2096,-408,-30,-64,-11
625,248,-2080,-488,-29,-67,-10
630,232,-2080,-496,-30,-69,-10
635,224,-2080,-504,-32,-73,-7
640,240,-2072,-448,-31,-75,-7
645,216,-2072,-496,-31,-79,-8
650,216,-2064,-488,-32,-80,-6
655,232,-2080,-464,-34,-83,-6
660,224,-2056,-488,-34,-85,-6
665,208,-2056,-520,-34,-89,-6
670,200,-2064,-496,-35,-91,-6
675,232,-2064,-496,-35,-93,-6
680,224,-2072,-480,-34,-97,-6
685,216,-2064,-480,-36,-99,-5
690,224,-2072,-496,-35,-101,-6
695,240,-2088,-472,-36,-104,-6
700,232,-2088,-480,-37,-106,-6
705,216,-2072,-448,-38,-106,-5
710,232,-2080,-448,-38,-107,-4
715,232,-2056,-464,-40,-108,-5
720,240,-2064,-496,-43,-110,-5
725,224,-2072,-488,-45,-110,-4
730,232,-2072,-472,-45,-112,-2
735,232,-2072,-488,-47,-110,-1
740,256,-2072,-504,-48,-110,-1
745,280,-2112,-512,-49,-108,-1
750,240,-2080,-504,-49,-107,0
755,256,-2080,-504,-51,-106,0
760,248,-2072,-512,-52,-104,-1
765,240,-2080,-504,-52,-103,-1
770,264,-2128,-512,-50,-101,-1
775,248,-2080,-512,-53,-99,0
780,272,-2088,-496,-56,-99,-1
785,240,-2120,-528,-56,-96,-2
790,272,-2072,-480,-57,-94,-2
795,232,-2080,-504,-57,-93,-2
800,264,-2088,-496,-58,-92,-2
805,248,-2088,-536,-58,-90,0
810,264,-2088,-512,-58,-88,0
815,256,-2104,-496,-56,-85,-2
820,232,-2072,-488,-58,-84,-2
825,272,-2128,-504,-57,-82,-1
830,296,-2104,-520,-55,-81,-1
835,272,-2080,-496,-55,-80,-3
840,248,-2064,-488,-53,-78,-3
845,248,-2064,-496,-52,-76,-3
850,240,-2080,-488,-54,-76,-2
855,248,-2096,-512,-53,-73,-1
860,256,-2072,-504,-53,-72,-4
865,240,-2080,-504,-51,-70,-3
870,264,-2080,-528,-51,-68,-4
875,232,-2088,-504,-49,-67,-4
880,240,-2080,-520,-49,-65,-4
885,248,-2072,-512,-47,-64,-4
890,256,-2096,-472,-48,-63,-5
895,240,-2088,-488,-47,-62,-6
900,248,-2072,-512,-46,-61,-4
905,248,-2096,-512,-45,-61,-4
910,240,-2088,-496,-46,-60,-3
915,264,-2088,-472,-44,-61,-5
920,256,-2088,-512,-43,-61,-3
925,248,-2112,-504,-42,-60,-2
930,240,-2072,-512,-39,-59,-5
935,232,-2056,-496,-38,-57,-3
940,248,-2096,-504,-35,-56,-2
945,216,-2072,-512,-34,-56,-2
950,240,-2064,-504,-35,-53,0
955,216,-2080,-480,-33,-52,-1
960,264,-2096,-504,-31,-51,0
965,256,-2072,-488,-30,-50,0
970,240,-2080,-488,-29,-48,0
975,264,-2096,-504,-29,-47,-1
980,232,-2072,-480,-28,-48,0
985,216,-2056,-520,-27,-49,1
990,232,-2088,-488,-26,-48,0
995,256,-2080,-480,-26,-48,0
1000,280,-2128,-520,-25,-48,1
1005,224,-2064,-520,-26,-46,0
1010,248,-2096,-496,-25,-46,0
1015,240,-2080,-520,-26,-45,0
1020,240,-2080,-520,-26,-44,0
1025,224,-2072,-520,-26,-44,-1
1030,248,-2088,-504,-26,-43,0
1035,248,-2072,-536,-27,-43,1
1040,256,-2088,-488,-30,-42,0
1045,256,-2088,-504,-32,-42,2
1050,232,-2072,-496,-34,-40,2
1055,264,-2056,-512,-36,-39,3
1060,240,-2056,-488,-37,-38,4
1065,240,-2056,-504,-40,-38,4
1070,256,-2072,-512,-42,-36,4
1075,264,-2088,-496,-46,-36,3
1080,232,-2064,-512,-50,-33,6
1085,240,-2064,-512,-52,-30,5
1090,192,-2056,-528,-52,-32,5
1095,232,-2048,-544,-54,-32,4
1100,240,-2056,-520,-56,-32,5
1105,232,-2088,-496,-58,-33,6
1110,240,-2080,-520,-60,-33,6
1115,208,-2064,-528,-61,-35,7
1120,200,-2072,-504,-61,-36,7
1125,216,-2072,-504,-62,-38,7
1130,224,-2072,-504,-65,-40,10
1135,184,-2072,-480,-66,-43,10
1140,224,-2088,-504,-67,-46,10
1145,200,-2096,-512,-68,-49,11
1150,224,-2088,-520,-70,-50,12
1155,200,-2096,-528,-72,-51,10
1160,208,-2072,-512,-72,-52,12
1165,240,-2112,-520,-73,-53,12
1170,208,-2056,-504,-75,-52,12
1175,224,-2088,-512,-77,-50,12
1180,200,-2072,-528,-79,-48,11
1185,224,-2080,-552,-81,-48,10
1190,232,-2072,-512,-82,-46,9
1195,216,-2072,-528,-85,-44,11
1200,240,-2080,-592,-87,-43,11
1205,256,-2088,-512,-87,-43,11
1210,224,-2056,-552,-91,-43,12
1215,248,-2096,-520,-90,-39,13
1220,216,-2112,-568,-90,-39,13
1225,216,-2096,-536,-92,-38,13
1230,240,-2064,-560,-91,-37,11
1235,272,-2080,-536,-93,-35,12
1240,240,-2104,-520,-92,-35,12
1245,216,-2088,-552,-92,-32,12
1250,240,-2104,-544,-90,-31,10
1255,264,-2120,-528,-88,-29,9
1260,240,-2088,-584,-86,-27,8
1265,240,-2104,-552,-84,-25,8
1270,240,-2096,-528,-83,-22,5
1275,264,-2080,-552,-81,-20,3
1280,232,-2088,-544,-79,-17,3
1285,216,-2096,-528,-76,-16,2
1290,232,-2080,-576,-73,-14,0
1295,240,-2088,-536,-72,-13,1
1300,208,-2080,-536,-71,-10,-1
1305,216,-2072,-528,-69,-9,-1
1310,224,-2056,-536,-68,-10,-1
1315,200,-2096,-520,-68,-11,-2
1320,224,-2080,-544,-65,-12,-3
1325,208,-2088,-536,-64,-13,-3
1330,200,-2088,-520,-65,-13,-3
1335,184,-2064,-568,-65,-14,-4
1340,208,-2088,-520,-64,-15,-3
1345,200,-2096,-528,-63,-17,-2
1350,192,-2088,-536,-63,-18,-3
1355,216,-2080,-528,-64,-19,-2
1360,232,-2080,-512,-62,-20,-2
1365,216,-2088,-520,-60,-19,-2
1370,208,-2080,-544,-61,-21,-2
1375,176,-2072,-568,-60,-20,-2
1380,224,-2072,-544,-59,-22,0
1385,200,-2088,-544,-59,-21,0
1390,224,-2096,-536,-61,-21,0
1395,208,-2080,-528,-60,-23,2
1400,200,-2088,-512,-59,-24,3
1405,224,-2096,-544,-59,-25,4
1410,200,-2056,-552,-58,-26,4
1415,224,-2080,-520,-57,-26,4
1420,256,-2112,-544,-57,-25,4
1425,216,-2080,-552,-59,-24,4
1430,200,-2072,-544,-59,-23,3
1435,184,-2072,-536,-59,-23,2
1440,224,-2072,-528,-58,-20,1
1445,232,-2072,-544,-58,-20,2
1450,224,-2080,-544,-58,-20,0
1455,224,-2088,-544,-60,-20,3
1460,224,-2080,-560,-58,-19,2
1465,224,-2088,-560,-57,-19,0
1470,200,-2088,-568,-59,-16,1
1475,208,-2080,-528,-56,-13,0
1480,232,-2080,-536,-57,-13,1
1485,192,-2072,-512,-57,-11,0
1490,208,-2080,-568,-57,-9,0
1495,216,-2096,-520,-57,-8,-1
1500,216,-2080,-536,-59,-7,-2
1505,200,-2080,-552,-58,-6,-2
1510,208,-2088,-536,-59,-5,-3
1515,216,-2096,-528,-57,-4,-3
1520,192,-2064,-544,-59,-3,-4
1525,208,-2064,-528,-58,-2,-3
1530,192,-2096,-544,-59,-1,-3
1535,216,-2120,-552,-59,0,-3
1540,224,-2096,-552,-60,-1,-3
1545,200,-2064,-560,-60,0,-3
1550,224,-2080,-544,-62,1,-4
1555,184,-2064,-544,-62,0,-3
1560,184,-2064,-520,-61,-1,-4
1565,216,-2088,-528,-61,-2,-4
1570,192,-2072,-512,-61,-1,-4
1575,208,-2080,-528,-60,0,-4
1580,200,-2104,-536,-62,0,-4
1585,208,-2120,-536,-60,-1,-2
1590,184,-2096,-536,-60,-1,-2
1595,216,-2096,-528,-62,-3,-3
1600,192,-2152,-504,-63,-4,-2
1605,184,-2088,-528,-64,-5,-2
1610,208,-2104,-520,-64,-5,-2
1615,224,-2080,-528,-63,-4,-2
1620,192,-2064,-536,-62,-5,-1
1625,184,-2072,-528,-62,-5,-2
1630,192,-2080,-520,-62,-4,-2
1635,168,-2096,-568,-63,-3,-3
1640,200,-2072,-520,-62,-4,-3
1645,200,-2096,-520,-64,-3,-1
1650,200,-2088,-528,-64,-3,-1
1655,192,-2112,-552,-64,-3,-3
1660,224,-2072,-520,-63,-2,-1
1665,224,-2080,-536,-62,-1,0
1670,200,-2096,-520,-61,0,-1
1675,208,-2056,-520,-59,0,0
1680,224,-2064,-552,-60,3,-2
1685,216,-2080,-544,-61,2,-1
1690,200,-2080,-512,-63,1,-1
1695,216,-2088,-536,-63,2,-1
1700,224,-2072,-520,-64,3,-1
1705,200,-2064,-528,-63,4,-1
1710,224,-2064,-560,-62,5,-2
1715,208,-2104,-544,-60,5,-2
1720,200,-2088,-536,-61,6,-1
1725,208,-2072,-528,-62,6,-2
1730,216,-2088,-544,-60,8,0
1735,232,-2112,-544,-58,10,0
1740,208,-2072,-520,-58,12,-1
1745,216,-2064,-528,-57,12,-2
1750,192,-2064,-520,-55,13,-2
1755,208,-2088,-528,-53,12,-2
1760,216,-2104,-512,-54,13,-2
1765,216,-2096,-552,-52,12,-1
1770,216,-2080,-520,-51,12,-1
1775,216,-2088,-544,-53,11,-1
1780,208,-2096,-544,-51,12,-1
1785,224,-2072,-552,-53,13,-1
1790,240,-2104,-536,-52,13,-1
1795,192,-2072,-544,-52,13,0
1800,216,-2072,-528,-53,15,1
1805,192,-2072,-520,-53,15,-2
1810,224,-2080,-536,-53,18,-2
1815,168,-2104,-504,-53,19,-2
1820,232,-2104,-528,-52,20,-3
1825,224,-2088,-544,-52,22,-3
1830,216,-2080,-544,-51,23,-2
1835,224,-2096,-512,-52,24,-3
1840,208,-2088,-544,-53,25,-2
1845,224,-2080,-552,-53,25,-3
1850,208,-2064,-544,-52,25,-2
1855,208,-2096,-512,-52,27,-3
1860,200,-2048,-520,-52,27,-3
1865,216,-2096,-544,-52,28,-5
1870,184,-2056,-544,-53,29,-5
1875,208,-2072,-536,-52,28,-6
1880,224,-2080,-536,-50,30,-7
1885,240,-2088,-560,-50,31,-7
1890,192,-2080,-520,-49,32,-7
1895,216,-2064,-536,-49,32,-8
1900,192,-2064,-536,-48,32,-9
1905,200,-2072,-520,-47,31,-8
1910,240,-2120,-552,-46,33,-8
1915,208,-2072,-536,-46,32,-9
1920,168,-2072,-568,-43,30,-6
1925,192,-2056,-536,-43,30,-5
1930,200,-2080,-528,-44,29,-4
1935,184,-2064,-544,-44,28,-3
1940,216,-2096,-552,-45,27,-1
1945,200,-2096,-584,-46,27,-1
1950,192,-2088,-544,-46,29,-2
1955,216,-2080,-536,-45,27,-2
1960,208,-2112,-560,-45,28,-3
1965,192,-2104,-552,-44,27,-1
1970,208,-2104,-544,-44,26,-2
1975,216,-2072,-536,-43,26,-2
1980,168,-2088,-536,-43,25,-1
1985,216,-2080,-552,-43,24,-2
1990,216,-2064,-544,-42,21,-4
1995,208,-2088,-528,-43,19,-3
2000,208,-2080,-560,-43,19,-4
2005,200,-2080,-568,-44,16,-3
2010,184,-2072,-544,-45,14,-5
2015,200,-2048,-576,-46,14,-5
2020,208,-2088,-560,-48,14,-6
2025,184,-2056,-584,-47,11,-6
2030,200,-2080,-552,-48,9,-6
2035,144,-2064,-600,-49,7,-5
2040,208,-2064,-552,-48,6,-6
2045,200,-2080,-560,-49,4,-7
2050,208,-2080,-544,-49,3,-5
2055,208,-2072,-520,-49,-1,-5
2060,216,-2096,-536,-51,-3,-5
2065,192,-2056,-544,-52,-4,-4
2070,240,-2072,-536,-54,-7,-4
2075,216,-2072,-528,-55,-9,-5
2080,216,-2072,-552,-55,-11,-5
2085,208,-2072,-528,-56,-13,-5
2090,208,-2072,-528,-56,-12,-4
2095,200,-2072,-536,-54,-14,-4
2100,208,-2088,-528,-53,-16,-5
2105,224,-2072,-552,-54,-15,-5
2110,232,-2104,-544,-53,-14,-6
2115,224,-2104,-536,-53,-16,-7
2120,232,-2080,-552,-51,-14,-8
2125,208,-2080,-528,-48,-13,-7
2130,224,-2088,-560,-47,-13,-9
2135,256,-2088,-576,-44,-13,-10
2140,216,-2096,-536,-42,-12,-10
2145,216,-2080,-528,-40,-12,-10
2150,240,-2096,-544,-39,-11,-11
2155,272,-2088,-536,-37,-11,-11
2160,232,-2064,-560,-33,-11,-12
2165,240,-2088,-568,-32,-10,-11
2170,256,-2088,-560,-30,-6,-12
2175,240,-2072,-528,-30,-5,-14
2180,208,-2072,-576,-28,-3,-15
2185,192,-2072,-584,-26,0,-15
2190,232,-2072,-544,-27,3,-15
2195,208,-2064,-544,-29,6,-15
2200,224,-2088,-568,-29,11,-16
2205,248,-2080,-544,-30,15,-16
2210,240,-2088,-528,-30,19,-16
2215,232,-2080,-536,-31,22,-17
2220,232,-2088,-552,-31,24,-16
2225,264,-2088,-544,-32,29,-17
2230,240,-2048,-552,-32,33,-17
2235,216,-2056,-544,-34,37,-17
2240,224,-2064,-544,-35,40,-17
2245,248,-2080,-544,-35,41,-15
2250,232,-2056,-536,-38,44,-15
2255,232,-2080,-536,-40,47,-14
2260,240,-2072,-528,-41,50,-14
2265,216,-2072,-544,-41,54,-13
2270,232,-2064,-568,-45,57,-13
2275,240,-2064,-568,-48,61,-13
2280,216,-2056,-520,-49,65,-12
2285,248,-2080,-536,-50,69,-12
2290,248,-2072,-560,-53,74,-11
2295,240,-2096,-536,-53,78,-10
2300,240,-2072,-568,-54,80,-10
2305,216,-2104,-568,-53,83,-10
2310,232,-2064,-560,-55,86,-10
2315,216,-2064,-544,-56,87,-8
2320,224,-2080,-536,-53,91,-8
2325,232,-2096,-536,-54,94,-10
2330,208,-2072,-544,-54,95,-9
2335,208,-2088,-560,-53,97,-8
2340,216,-2096,-568,-54,97,-9
2345,208,-2064,-576,-54,100,-8
2350,168,-2088,-544,-53,101,-8
2355,216,-2112,-584,-53,102,-8
2360,200,-2072,-584,-52,104,-9
2365,216,-2072,-536,-50,106,-9
2370,184,-2072,-552,-50,107,-9
2375,192,-2064,-536,-47,108,-10
2380,192,-2064,-544,-46,108,-10
2385,208,-2072,-544,-45,110,-11
2390,184,-2096,-560,-45,109,-9
2395,192,-2080,-568,-44,109,-8
2400,184,-2080,-536,-42,109,-8
2405,208,-2088,-536,-42,108,-7
2410,168,-2064,-552,-43,108,-6
2415,232,-2120,-520,-43,107,-6
2420,192,-2080,-544,-42,107,-6
2425,184,-2080,-560,-45,105,-7
2430,184,-2072,-584,-45,102,-6
2435,208,-2088,-520,-44,102,-7
2440,168,-2072,-536,-45,100,-8
2445,208,-2096,-528,-45,99,-7
2450,192,-2096,-568,-45,99,-7
2455,184,-2072,-552,-46,97,-5
2460,184,-2072,-544,-45,95,-7
2465,208,-2080,-528,-45,93,-6
2470,224,-2080,-552,-44,91,-4
2475,184,-2080,-552,-44,88,-4
2480,176,-2064,-536,-44,86,-5
2485,200,-2072,-528,-44,84,-4
2490,176,-2080,-520,-44,82,-4
2495,216,-2104,-544,-43,80,-5
2500,176,-2088,-568,-44,78,-5
2505,176,-2088,-536,-43,77,-4
2510,200,-2080,-560,-44,75,-5
2515,216,-2072,-536,-44,74,-5
2520,192,-2088,-536,-45,71,-5
2525,200,-2080,-568,-45,70,-4
2530,200,-2088,-536,-43,68,-4
2535,200,-2080,-536,-44,67,-4
2540,208,-2064,-552,-43,67,-5
2545,192,-2088,-544,-44,64,-5
2550,200,-2096,-528,-45,64,-5
2555,200,-2088,-528,-44,63,-3
2560,200,-2088,-552,-44,62,-4
2565,184,-2072,-592,-41,61,-4
2570,232,-2088,-536,-43,61,-5
2575,184,-2080,-536,-40,59,-4
2580,184,-2072,-552,-40,58,-5
2585,208,-2080,-544,-43,56,-2
2590,192,-2080,-552,-42,56,0
2595,216,-2080,-568,-44,54,-2
2600,192,-2072,-528,-46,53,-1
2605,208,-2064,-544,-45,52,-1
2610,200,-2072,-536,-46,52,-2
2615,208,-2072,-536,-47,52,-2
2620,192,-2064,-560,-48,50,-2
2625,232,-2080,-520,-49,49,-4
2630,224,-2088,-520,-48,48,-2
2635,216,-2096,-536,-47,48,-1
2640,200,-2064,-528,-47,48,-1
2645,216,-2072,-536,-48,47,0
2650,216,-2064,-552,-49,47,0
2655,216,-2064,-528,-48,49,0
2660,224,-2104,-560,-51,48,0
2665,208,-2080,-536,-51,49,-1
2670,192,-2048,-512,-52,49,-1
2675,208,-2088,-568,-53,49,-1
2680,200,-2072,-560,-55,49,-2
2685,208,-2064,-520,-55,48,-1
2690,264,-2088,-520,-56,50,-3
2695,216,-2072,-544,-55,49,-3
2700,224,-2096,-544,-55,50,-3
2705,208,-2064,-528,-58,50,-3
2710,208,-2104,-520,-58,49,-2
2715,216,-2080,-544,-58,49,-2
2720,216,-2064,-536,-58,48,-3
2725,224,-2056,-528,-57,47,-2
2730,224,-2072,-520,-58,45,-3
2735,248,-2096,-512,-56,45,-2
2740,232,-2080,-552,-55,44,-2
2745,208,-2120,-544,-57,43,-2
2750,224,-2104,-552,-56,41,-2
2755,200,-2072,-544,-54,38,0
2760,216,-2088,-520,-54,38,0
2765,224,-2072,-536,-53,36,0
2770,224,-2088,-536,-52,35,1
2775,232,-2088,-552,-51,34,-1
2780,224,-2080,-528,-51,33,0
2785,216,-2120,-560,-51,33,-1
2790,216,-2104,-544,-48,33,-2
2795,240,-2088,-504,-48,33,-2
2800,208,-2088,-544,-47,31,-2
2805,216,-2072,-536,-47,30,-2
2810,216,-2064,-560,-47,28,-3
2815,208,-2064,-536,-47,28,-4
2820,208,-2072,-528,-46,26,-3
2825,216,-2088,-520,-45,25,-4
2830,208,-2096,-552,-44,24,-4
2835,248,-2096,-512,-42,22,-3
2840,224,-2088,-552,-41,20,-2
2845,256,-2128,-528,-42,17,-4
2850,200,-2040,-552,-39,15,-4
2855,208,-2072,-520,-38,13,-3
2860,216,-2080,-512,-39,11,-5
2865,200,-2080,-520,-37,10,-4
2870,216,-2080,-536,-37,9,-5
2875,216,-2096,-536,-37,8,-5
2880,216,-2072,-544,-36,7,-4
2885,232,-2080,-536,-35,7,-4
2890,224,-2104,-560,-32,5,-2
2895,216,-2072,-552,-31,4,-4
2900,232,-2064,-488,-32,5,-2
2905,240,-2080,-512,-31,4,-3
2910,192,-2072,-552,-33,2,-3
2915,232,-2088,-528,-33,2,-5
2920,232,-2064,-536,-30,2,-4
2925,216,-2088,-536,-31,1,-2
2930,240,-2080,-552,-31,2,-2
2935,216,-2080,-544,-30,2,-3
2940,240,-2104,-568,-30,2,-3
2945,224,-2056,-560,-29,1,-3
2950,232,-2064,-536,-29,1,-5
2955,240,-2096,-568,-28,2,-4
2960,240,-2064,-528,-30,1,-3
2965,224,-2080,-544,-30,2,-4
2970,240,-2080,-544,-29,3,-4
2975,232,-2064,-512,-29,5,-4
2980,224,-2080,-544,-29,5,-4
2985,232,-2072,-528,-29,5,-4
2990,248,-2096,-552,-28,6,-4
2995,216,-2088,-536,-30,8,-5
3000,232,-2088,-536,-29,9,-4
3005,232,-2088,-584,-28,10,-4
3010,224,-2072,-512,-27,9,-4
3015,224,-2088,-560,-25,9,-4
3020,224,-2072,-536,-25,11,-4
3025,216,-2080,-560,-24,11,-4
3030,224,-2064,-528,-24,12,-5
3035,216,-2088,-512,-24,12,-4
3040,232,-2080,-552,-24,13,-3
3045,224,-2064,-528,-21,14,-3
3050,200,-2080,-576,-20,15,-4
3055,232,-2072,-552,-22,14,-6
3060,240,-2080,-552,-20,14,-6
3065,216,-2088,-528,-19,16,-6
3070,192,-2088,-536,-20,16,-5
3075,224,-2088,-544,-19,15,-4
3080,216,-2096,-552,-20,15,-5
3085,240,-2072,-536,-21,17,-7
3090,232,-2072,-568,-22,17,-5
3095,224,-2072,-536,-25,17,-5
3100,208,-2080,-544,-25,17,-6
3105,224,-2088,-512,-27,17,-6
3110,224,-2072,-552,-28,18,-6
3115,224,-2080,-528,-31,18,-5
3120,200,-2064,-520,-32,17,-6
3125,200,-2096,-496,-34,18,-5
3130,216,-2080,-512,-35,17,-6
3135,216,-2072,-536,-35,18,-6
3140,200,-2072,-528,-38,18,-6
3145,232,-2088,-528,-39,18,-6
3150,224,-2072,-528,-39,17,-7
3155,216,-2064,-560,-40,17,-7
3160,224,-2080,-528,-42,19,-5
3165,216,-2056,-544,-44,19,-7
3170,240,-2088,-584,-44,18,-7
3175,216,-2080,-552,-44,17,-6
3180,224,-2080,-624,-45,17,-7
3185,232,-2080,-528,-45,18,-6
3190,208,-2080,-528,-47,18,-7
3195,200,-2080,-544,-48,17,-7
3200,224,-2080,-544,-49,20,-8
3205,232,-2088,-536,-49,17,-6
3210,232,-2104,-560,-49,19,-8
3215,208,-2080,-536,-49,19,-8
3220,256,-2096,-528,-50,19,-7
3225,232,-2064,-520,-50,19,-7
3230,232,-2096,-560,-49,20,-8
3235,216,-2072,-512,-49,21,-8
3240,240,-2072,-536,-48,21,-8
3245,232,-2072,-560,-48,22,-7
3250,208,-2072,-536,-48,22,-8
3255,208,-2064,-520,-46,22,-8
3260,232,-2072,-528,-46,21,-8
3265,208,-2064,-552,-48,21,-7
3270,240,-2080,-560,-47,22,-7
3275,200,-2064,-552,-46,22,-8
3280,232,-2072,-504,-45,21,-7
3285,184,-2048,-560,-47,23,-7
3290,216,-2072,-536,-46,22,-7
3295,232,-2080,-528,-46,23,-9
3300,232,-2080,-560,-44,23,-7
3305,216,-2080,-560,-43,23,-7
3310,232,-2080,-536,-42,24,-6
3315,208,-2072,-520,-41,24,-9
3320,200,-2080,-576,-41,24,-8
3325,168,-2080,-576,-39,24,-8
3330,232,-2072,-552,-41,22,-7
3335,208,-2096,-520,-40,21,-7
3340,256,-2120,-488,-40,22,-8
3345,224,-2088,-528,-42,21,-7
3350,208,-2064,-512,-41,22,-7
3355,200,-2072,-536,-42,23,-8
3360,232,-2080,-520,-43,22,-8
3365,224,-2088,-544,-42,21,-8
3370,200,-2088,-520,-42,22,-7
3375,232,-2088,-520,-40,21,-7
3380,200,-2072,-536,-40,21,-9
3385,224,-2080,-520,-40,20,-7
3390,192,-2072,-552,-41,20,-9
3395,216,-2064,-512,-40,18,-10
3400,200,-2080,-528,-42,17,-9
3405,208,-2080,-512,-43,17,-8
3410,208,-2088,-504,-45,17,-8
3415,200,-2080,-536,-44,16,-8
3420,192,-2056,-536,-45,15,-8
3425,200,-2056,-536,-48,14,-8
3430,232,-2064,-520,-49,16,-8
3435,208,-2056,-504,-51,16,-7
3440,216,-2088,-536,-50,17,-8
3445,232,-2088,-504,-48,18,-9
3450,216,-2088,-544,-49,19,-6
3455,216,-2080,-560,-48,21,-7
3460,240,-2080,-512,-49,24,-7
3465,224,-2088,-520,-50,24,-7
3470,248,-2080,-528,-50,23,-7
3475,248,-2104,-536,-51,23,-6
3480,224,-2064,-528,-50,24,-6
3485,216,-2104,-544,-48,22,-6
3490,232,-2072,-520,-47,22,-6
3495,224,-2088,-528,-46,23,-6
3500,248,-2120,-568,-45,24,-6
3505,216,-2088,-520,-44,25,-6
3510,216,-2080,-568,-42,25,-6
3515,216,-2088,-512,-41,24,-5
3520,232,-2088,-528,-38,23,-6
3525,216,-2088,-520,-37,24,-5
3530,208,-2080,-536,-36,24,-6
3535,208,-2096,-528,-34,23,-5
3540,224,-2096,-536,-31,24,-5
3545,200,-2096,-560,-29,24,-5
3550,208,-2072,-520,-26,23,-5
3555,200,-2096,-520,-25,24,-4
3560,216,-2088,-520,-21,22,-5
3565,216,-2088,-536,-20,22,-4
3570,216,-2088,-520,-20,22,-6
3575,232,-2096,-528,-18,24,-5
3580,216,-2072,-528,-18,25,-3
3585,208,-2080,-552,-14,26,-5
3590,216,-2112,-544,-15,29,-6
3595,224,-2072,-512,-12,30,-6
3600,224,-2112,-536,-11,31,-6
3605,240,-2088,-520,-9,33,-6
3610,232,-2096,-560,-7,34,-7
3615,256,-2104,-560,-6,35,-6
3620,240,-2088,-544,-4,36,-9
3625,216,-2088,-528,-5,36,-9
3630,216,-2072,-552,-3,38,-8
3635,232,-2104,-512,-1,35,-9
3640,200,-2080,-544,0,36,-9
3645,232,-2088,-520,0,37,-9
3650,232,-2088,-568,-1,36,-10
3655,216,-2088,-536,1,36,-8
3660,208,-2072,-512,4,37,-8
3665,136,-2080,-552,5,37,-8
3670,224,-2104,-544,5,35,-8
3675,216,-2088,-544,5,35,-8
3680,232,-2112,-504,4,36,-7
3685,192,-2080,-544,6,37,-5
3690,216,-2080,-528,5,37,-7
3695,224,-2072,-528,6,36,-5
3700,200,-2064,-528,5,37,-6
3705,208,-2096,-560,7,38,-7
3710,176,-2064,-568,7,39,-6
3715,232,-2104,-552,7,39,-5
3720,232,-2064,-560,8,38,-4
3725,200,-2080,-536,8,38,-3
3730,200,-2096,-560,8,41,-4
3735,208,-2072,-544,8,41,-3
3740,216,-2096,-576,7,43,-5
3745,208,-2096,-568,9,46,-4
3750,216,-2080,-568,9,46,-4
3755,200,-2088,-584,8,47,-5
3760,240,-2088,-568,9,47,-5
3765,216,-2104,-568,10,50,-6
3770,208,-2104,-552,13,50,-5
3775,232,-2088,-592,15,53,-5
3780,216,-2112,-576,19,51,-4
3785,200,-2088,-592,22,53,-3
3790,200,-2088,-568,24,56,-3
3795,200,-2096,-560,25,58,-4
3800,208,-2128,-616,24,60,-5
3805,168,-2088,-608,23,60,-7
3810,224,-2104,-576,20,59,-10
3815,208,-2136,-584,20,57,-10
3820,208,-2120,-600,20,57,-11
3825,208,-2128,-552,24,55,-12
3830,208,-2168,-584,32,55,-14
3835,208,-2144,-568,43,57,-16
3840,176,-2144,-584,55,56,-17
3845,200,-2144,-576,70,57,-17
3850,192,-2144,-584,82,59,-18
3855,192,-2152,-632,95,59,-20
3860,176,-2128,-624,109,60,-20
3865,144,-2104,-648,121,64,-20
3870,224,-2120,-616,132,66,-19
3875,208,-2112,-624,146,67,-19
3880,184,-2088,-648,154,68,-19
3885,192,-2128,-672,163,71,-20
3890,184,-2096,-584,170,72,-21
3895,208,-2096,-576,176,74,-20
3900,208,-2072,-560,180,76,-20
3905,208,-2056,-576,184,78,-20
3910,200,-2040,-592,180,78,-19
3915,224,-2032,-536,173,78,-18
3920,208,-2016,-544,161,78,-17
3925,216,-2016,-552,143,78,-15
3930,208,-2016,-568,122,79,-15
3935,168,-2000,-544,99,77,-15
3940,192,-2008,-552,76,78,-14
3945,200,-2032,-544,53,76,-14
3950,184,-2056,-512,35,73,-13
3955,168,-2056,-520,21,69,-12
3960,176,-2048,-560,10,64,-13
3965,152,-2056,-528,-1,61,-13
3970,200,-2064,-528,-8,59,-12
3975,192,-2080,-576,-17,58,-12
3980,160,-2056,-552,-23,58,-11
3985,184,-2040,-544,-30,57,-12
3990,224,-2056,-584,-40,58,-11
3995,184,-2048,-568,-46,55,-11
4000,192,-2056,-576,-55,54,-11
4005,192,-2032,-600,-64,52,-13
4010,192,-2040,-584,-71,51,-15
4015,216,-2040,-584,-79,46,-15
4020,168,-2000,-608,-88,42,-16
4025,184,-2008,-584,-100,36,-17
4030,192,-2000,-600,-112,31,-15
4035,168,-1976,-600,-128,24,-15
4040,192,-1968,-600,-142,16,-13
4045,152,-1968,-648,-160,9,-12
4050,176,-1968,-624,-177,4,-11
4055,160,-1984,-616,-192,-1,-10
4060,184,-1992,-624,-210,-4,-8
4065,160,-1976,-576,-223,-7,-8
4070,176,-1992,-592,-236,-10,-5
4075,160,-1968,-616,-247,-14,-3
4080,152,-2008,-624,-258,-17,-3
4085,200,-1992,-600,-268,-21,-2
4090,176,-1992,-648,-276,-24,-1
4095,192,-2024,-616,-284,-27,-1
4100,200,-1968,-624,-290,-28,-1
4105,192,-2008,-656,-297,-28,-3
4110,168,-1992,-616,-302,-29,-4
4115,176,-2008,-648,-306,-31,-5
4120,184,-2008,-640,-312,-31,-5
4125,216,-1984,-616,-313,-28,-7
4130,208,-1992,-616,-313,-24,-9
4135,240,-1976,-600,-316,-19,-11
4140,232,-1984,-624,-314,-14,-12
4145,256,-2024,-568,-314,-9,-11
4150,272,-2032,-600,-311,-2,-12
4155,320,-2008,-576,-308,6,-12
4160,280,-2016,-600,-303,10,-13
4165,264,-2056,-560,-294,18,-13
4170,304,-2080,-528,-282,25,-15
4175,304,-2088,-512,-269,30,-15
4180,304,-2120,-568,-253,37,-15
4185,288,-2112,-544,-235,46,-16
4190,304,-2144,-520,-216,52,-15
4195,272,-2176,-520,-195,58,-15
4200,320,-2192,-496,-173,66,-15
4205,296,-2200,-496,-150,73,-17
4210,304,-2200,-456,-122,80,-18
4215,288,-2224,-496,-94,88,-20
4220,296,-2248,-496,-63,98,-20
4225,288,-2232,-520,-33,107,-23
4230,304,-2216,-528,-1,119,-25
4235,288,-2184,-536,26,131,-27
4240,272,-2200,-536,49,143,-29
4245,320,-2176,-560,67,155,-32
4250,304,-2168,-608,84,166,-34
4255,280,-2136,-584,94,177,-36
4260,296,-2168,-672,100,187,-39
4265,272,-2104,-608,107,195,-42
4270,296,-2088,-608,114,200,-45
4275,288,-2072,-664,128,204,-46
4280,280,-2072,-656,137,205,-49
4285,248,-2000,-640,142,206,-49
4290,248,-1984,-624,147,206,-54
4295,224,-1944,-616,152,206,-56
4300,216,-1912,-560,156,204,-58
4305,192,-1840,-576,152,204,-59
4310,168,-1784,-592,139,204,-60
4315,192,-1752,-504,116,207,-59
4320,184,-1720,-576,82,212,-59
4325,168,-1664,-576,41,219,-53
4330,184,-1664,-560,-6,229,-46
4335,176,-1648,-576,-59,239,-40
4340,208,-1688,-536,-114,248,-30
4345,208,-1720,-520,-162,256,-19
4350,248,-1752,-560,-209,265,-3
4355,256,-1744,-584,-249,273,13
4360,248,-1824,-584,-283,278,26
4365,272,-1864,-552,-309,284,42
4370,320,-1872,-520,-325,288,59
4375,288,-1912,-576,-335,289,75
4380,272,-1936,-584,-334,286,92
4385,296,-1944,-568,-327,280,106
4390,288,-1984,-552,-311,270,119
4395,264,-1960,-536,-292,257,130
4400,248,-1960,-528,-273,241,141
4405,224,-1928,-512,-260,225,151
4410,192,-1928,-528,-252,214,159
4415,176,-1960,-528,-252,205,164
4420,144,-1952,-512,-260,199,166
4425,136,-2000,-488,-269,195,168
4430,128,-2000,-488,-278,195,167
4435,112,-2024,-496,-283,195,168
4440,112,-2056,-512,-285,194,169
4445,120,-2096,-488,-283,193,165
4450,112,-2104,-480,-276,188,165
4455,136,-2152,-488,-269,184,165
4460,120,-2168,-504,-259,180,167
4465,152,-2160,-488,-245,177,168
4470,152,-2160,-432,-232,179,174
4475,200,-2184,-440,-221,182,182
4480,200,-2176,-456,-211,184,189
4485,240,-2160,-456,-201,182,200
4490,272,-2152,-464,-195,173,210
4495,312,-2160,-448,-185,162,219
4500,320,-2152,-440,-176,152,229
4505,368,-2168,-456,-166,140,239
4510,344,-2184,-448,-154,129,242
4515,360,-2152,-456,-144,119,246
4520,368,-2176,-504,-129,107,245
4525,352,-2216,-504,-119,96,244
4530,368,-2224,-528,-106,87,243
4535,336,-2200,-536,-98,82,240
4540,352,-2224,-520,-84,72,235
4545,320,-2184,-520,-77,70,230
4550,296,-2168,-520,-70,71,224
4555,304,-2184,-520,-63,82,219
4560,320,-2192,-504,-52,100,212
4565,296,-2168,-512,-39,120,208
4570,288,-2144,-544,-28,137,207
4575,320,-2136,-504,-12,151,210
4580,304,-2112,-488,5,161,215
4585,264,-2096,-472,22,168,221
4590,312,-2120,-512,44,174,228
4595,312,-2120,-488,64,182,237
4600,280,-2112,-528,82,187,243
4605,280,-2104,-512,100,186,246
4610,280,-2080,-528,115,184,249
4615,256,-2096,-512,128,175,250
4620,256,-2048,-528,133,168,247
4625,256,-2072,-520,132,162,242
4630,232,-2064,-536,126,156,238
4635,232,-2056,-528,119,153,229
4640,224,-2048,-472,112,151,226
4645,232,-2072,-512,102,147,223
4650,224,-2056,-496,97,139,218
4655,216,-2048,-512,98,137,218
4660,224,-2024,-504,101,138,217
4665,248,-2040,-488,104,144,217
4670,240,-2016,-488,107,151,217
4675,240,-2000,-528,118,156,223
4680,240,-1976,-504,123,164,226
4685,248,-1984,-552,125,168,233
4690,240,-1944,-560,124,172,239
4695,264,-1936,-568,117,173,242
4700,232,-1944,-568,105,171,241
4705,272,-1928,-568,89,165,242
4710,264,-1920,-536,69,162,238
4715,232,-1896,-552,52,159,230
4720,240,-1912,-552,34,156,225
4725,200,-1896,-520,15,145,219
4730,184,-1888,-528,4,137,215
4735,208,-1904,-528,-4,130,212
4740,248,-1928,-528,-8,122,209
4745,176,-1896,-520,-13,123,203
4750,160,-1920,-536,-18,129,198
4755,144,-1904,-512,-18,134,200
4760,128,-1896,-472,-15,141,205
4765,112,-1936,-504,-21,145,213
4770,120,-1904,-520,-24,146,220
4775,136,-1912,-512,-26,147,228
4780,-88,-1728,-432,-28,152,235
4785,192,-1952,-512,-21,152,267
4790,184,-1952,-528,-31,159,256
4795,136,-1928,-512,-44,164,251
4800,120,-1952,-536,-56,162,250
4805,184,-1880,-488,-66,157,248
4810,144,-1928,-544,-79,157,244
4815,112,-1920,-568,-96,158,239
4820,144,-1936,-544,-121,158,235
4825,120,-1928,-592,-145,160,230
4830,160,-1928,-560,-168,159,225
4835,152,-1920,-552,-191,164,221
4840,160,-1912,-552,-214,168,216
4845,176,-1928,-544,-235,178,212
4850,176,-1944,-520,-252,187,205
4855,152,-1976,-504,-262,198,201
4860,72,-2008,-544,-268,208,202
4865,48,-2016,-512,-268,215,202
4870,152,-2064,-568,-256,214,221
4875,80,-2088,-584,-254,222,209
4880,56,-2144,-608,-258,234,201
4885,16,-2192,-608,-260,238,202
4890,0,-2224,-616,-255,239,209
4895,-56,-2240,-640,-249,243,223
4900,-16,-2288,-648,-246,246,238
4905,-48,-2272,-688,-240,255,254
4910,-24,-2296,-680,-231,266,273
4915,-56,-2288,-664,-220,278,291
4920,-56,-2240,-672,-208,286,311
4925,-16,-2248,-664,-193,294,333
4930,0,-2208,-656,-179,297,355
4935,8,-2168,-672,-167,296,377
4940,0,-2152,-696,-158,293,398
4945,0,-2120,-672,-149,293,416
4950,56,-2072,-688,-143,293,435
4955,48,-2000,-688,-136,292,451
4960,40,-1992,-752,-127,290,462
4965,104,-1912,-712,-120,289,473
4970,64,-1864,-720,-116,289,482
4975,40,-1816,-704,-112,289,485
4980,16,-1760,-672,-110,293,487
4985,32,-1720,-680,-111,295,489
4990,8,-1704,-704,-111,296,490
4995,-16,-1688,-728,-114,292,489
5000,-40,-1680,-712,-119,288,489
5005,-40,-1704,-736,-127,282,487
5010,-88,-1696,-736,-130,274,483
5015,-72,-1712,-728,-133,267,478
5020,-128,-1720,-712,-130,254,470
5025,-152,-1720,-664,-124,238,460
5030,-168,-1728,-720,-122,221,448
5035,-160,-1744,-648,-112,199,436
5040,-144,-1760,-640,-99,177,421
5045,-168,-1768,-640,-81,155,407
5050,-168,-1776,-600,-65,132,397
5055,-184,-1792,-624,-49,111,383
5060,-136,-1840,-608,-33,89,372
5065,-152,-1792,-584,-21,64,362
5070,-168,-1848,-616,5,37,352
5075,-168,-1832,-664,33,3,339
5080,-160,-1824,-656,58,-28,330
5085,-152,-1808,-648,86,-56,339
5090,32,-1872,-688,125,-79,362
5095,-64,-1848,-632,137,-65,327
5100,-96,-1832,-632,149,-51,310
5105,-64,-1816,-600,170,-50,300
5110,-16,-1856,-632,191,-55,289
5115,-24,-1792,-600,219,-59,278
5120,-32,-1800,-624,245,-71,268
5125,-8,-1776,-664,271,-80,259
5130,-16,-1776,-704,286,-89,251
5135,0,-1768,-720,290,-93,249
5140,-8,-1720,-752,286,-101,242
5145,8,-1728,-752,281,-109,238
5150,0,-1672,-712,280,-115,234
5155,0,-1688,-736,278,-120,231
5160,16,-1672,-744,283,-123,227
5165,56,-1616,-728,293,-125,224
5170,48,-1664,-744,306,-118,214
5175,56,-1656,-744,313,-118,203
5180,72,-1608,-736,321,-115,197
5185,88,-1584,-760,328,-112,187
5190,24,-1576,-728,339,-103,177
5195,16,-1568,-728,347,-93,165
5200,64,-1592,-736,356,-76,153
5205,-184,-1240,-536,367,-63,137
5210,280,-1664,-720,419,-51,189
5215,48,-1600,-744,453,-38,132
5220,48,-1592,-736,467,-4,107
5225,16,-1576,-744,484,16,96
5230,32,-1544,-672,501,28,87
5235,152,-1560,-768,520,38,117
5240,136,-1528,-760,526,47,107
5245,136,-1456,-736,503,69,94
5250,120,-1392,-688,473,84,94
5255,168,-1392,-672,437,89,92
5260,176,-1296,-688,403,92,88
5265,200,-1224,-664,370,100,80
5270,368,-1280,-664,342,104,106
5275,240,-1192,-680,306,106,70
5280,216,-1216,-688,256,127,22
5285,208,-1144,-688,207,151,-6
5290,184,-1224,-656,166,172,-34
5295,8,-1288,-600,151,190,-57
5300,224,-1280,-640,169,207,-60
5305,112,-1280,-664,177,255,-122
5310,48,-1280,-672,185,323,-160
5315,-160,-1216,-608,185,386,-174
5320,120,-1360,-704,193,431,-148
5325,-16,-1352,-704,157,479,-190
5330,-72,-1352,-688,91,534,-208
5335,-376,-1296,-504,9,572,-209
5340,8,-1696,-592,-63,590,-166
5345,-216,-1680,-376,-110,612,-214
5350,-80,-1672,-320,-103,641,-218
5355,-264,-1496,-296,-60,651,-204
5360,-128,-1536,-296,-24,656,-176
5365,-88,-1592,-192,-16,658,-148
5370,-184,-1720,-160,-13,645,-114
5375,-136,-1776,-208,8,596,-64
5380,-128,-1888,-168,49,555,-14
5385,16,-2040,-184,122,527,53
5390,-16,-2048,-120,194,502,124
5395,-128,-2056,-208,295,472,205
5400,-208,-2152,-240,397,414,300
5405,-160,-2280,-176,502,346,390
5410,-136,-2344,-208,628,272,482
5415,-280,-2344,-184,764,205,587
5420,-400,-2168,-232,886,121,733
5425,-168,-2328,-288,928,-5,877
5430,-168,-2456,-120,995,-97,957
5435,-248,-2416,-176,1106,-147,1043
5440,-104,-2448,-168,1202,-210,1150
5445,-192,-2328,-256,1282,-281,1250
5450,-296,-2176,-320,1307,-383,1372
5455,-40,-2496,-208,1294,-523,1475
5460,88,-2592,-120,1334,-620,1570
5465,0,-2600,0,1437,-649,1625
5470,-288,-2392,-168,1543,-649,1693
5475,-232,-2360,-96,1597,-692,1764
5480,-360,-2256,-136,1625,-752,1829
5485,-192,-2360,16,1625,-805,1871
5490,-288,-2376,48,1678,-815,1887
5495,-392,-2248,24,1741,-814,1914
5500,-408,-2192,8,1746,-856,1964
5505,-424,-2096,64,1704,-942,2016
5510,-376,-2088,8,1620,-1048,2087
5515,-336,-2192,144,1533,-1154,2138
5520,-352,-2200,200,1495,-1217,2163
5525,-424,-2088,128,1491,-1241,2191
5530,-520,-2000,8,1458,-1288,2224
5535,-400,-2040,24,1372,-1374,2262
5540,-336,-2152,40,1315,-1467,2273
5545,-312,-2152,96,1296,-1545,2276
5550,-464,-1960,56,1312,-1616,2271
5555,-560,-1944,-32,1292,-1683,2281
5560,-304,-1800,120,1203,-1772,2294
5565,-272,-1672,160,1085,-1865,2285
5570,-136,-1704,88,979,-1945,2257
5575,8,-1664,112,900,-1991,2225
5580,216,-1736,272,867,-2000,2175
5585,144,-1568,312,878,-1968,2096
5590,168,-1672,352,927,-1897,2018
5595,40,-1768,328,1002,-1812,1924
5600,-40,-1896,232,1120,-1709,1825
5605,-296,-2096,304,1275,-1586,1739
5610,-352,-2320,360,1468,-1465,1641
5615,-672,-2440,416,1709,-1364,1546
5620,-1712,-2664,616,1943,-1222,1462
5625,-2968,-2880,992,2163,-1115,1398
5630,-4248,-3312,1304,2340,-1141,1377
5635,-5568,-3712,1816,2470,-1316,1399
5640,-6984,-4424,2328,2590,-1555,1487
5645,-8752,-5168,2800,2673,-1756,1595
5650,-10664,-6024,3120,2600,-1887,1778
5655,-12096,-6688,3504,2489,-1961,2046
5660,-11320,-6920,3312,2548,-2037,2352
5665,-6592,-6416,2664,2904,-2052,2637
5670,-2568,-4488,1264,3267,-1958,2937
5675,-560,-2656,472,3152,-1385,3166
5680,408,-1312,344,2583,-726,3353
5685,1176,-624,912,1789,-327,3457
5690,1720,-456,1664,1093,-131,3431
5695,1968,-528,2256,694,43,3294
5700,1920,-640,2512,674,201,3102
5705,1616,-472,2256,984,286,2885
5710,1344,-256,1808,1418,249,2694
5715,1056,-96,1336,1750,167,2503
5720,616,-104,952,1900,120,2311
5725,120,-128,928,1891,143,2113
5730,-376,-216,952,1750,227,1945
5735,-712,-472,904,1563,348,1830
5740,-872,-720,832,1431,489,1745
5745,-936,-984,808,1401,630,1662
5750,-1024,-1096,784,1473,749,1586
5755,-1024,-1152,880,1608,788,1536
5760,-896,-1096,832,1779,723,1513
5765,-680,-1064,752,1946,604,1498
5770,-376,-952,624,2093,500,1492
5775,-320,-816,552,2188,435,1465
5780,-184,-664,568,2224,388,1442
5785,-80,-528,536,2236,344,1415
5790,-32,-408,504,2239,309,1351
5795,-104,-240,544,2218,290,1278
5800,-248,-208,576,2212,276,1210
5805,-480,-24,576,2234,251,1137
5810,-680,56,688,2285,216,1095
5815,-888,216,816,2336,190,1080
5820,-1064,344,896,2390,171,1091
5825,-1104,504,880,2440,161,1121
5830,-1024,632,880,2472,170,1159
5835,-1216,800,904,2473,225,1173
5840,-1312,992,1064,2439,284,1183
5845,-1312,1064,1104,2396,314,1232
5850,-1344,1192,1200,2341,350,1268
5855,-1504,1360,1264,2274,385,1271
5860,-1616,1448,1344,2193,379,1282
5865,-1712,1552,1320,2117,366,1295
5870,-1872,1608,1264,2054,402,1307
5875,-2080,1768,1216,1970,449,1277
5880,-2272,1904,1224,1856,462,1218
5885,-2392,2016,1112,1761,484,1177
5890,-2392,2072,1024,1672,521,1139
5895,-2448,2144,992,1570,591,1095
5900,-2400,2168,944,1465,640,1036
5905,-2256,2184,864,1367,682,974
5910,-2184,2120,832,1273,754,884
5915,-2008,1960,872,1181,857,764
5920,-1976,1720,896,1083,976,625
5925,-1832,1464,960,983,1104,481
5930,-1648,1136,1008,903,1202,361
5935,-1512,904,1072,866,1261,254
5940,-1424,640,1120,858,1271,158
5945,-1320,504,1120,874,1208,86
5950,-1224,360,1064,904,1089,41
5955,-1240,240,1048,923,931,-3
5960,-1416,184,1008,903,764,-61
5965,-1600,200,968,816,582,-113
5970,-1704,176,944,710,369,-151
5975,-1672,224,880,608,157,-183
5980,-1688,256,768,532,-20,-213
5985,-1624,248,712,477,-156,-234
5990,-1560,248,728,458,-246,-239
5995,-1528,304,720,476,-292,-232
6000,-1488,344,744,529,-309,-215
6005,-1440,408,728,596,-318,-197
6010,-1360,480,752,676,-323,-189
6015,-1344,520,728,754,-319,-195
6020,-1344,592,696,817,-303,-215
6025,-1328,584,696,864,-286,-235
6030,-1328,568,632,898,-269,-249
6035,-1288,608,600,921,-251,-254
6040,-1208,632,552,936,-234,-255
6045,-1248,648,568,949,-219,-255
6050,-1224,728,584,960,-211,-259
6055,-1232,792,528,966,-221,-272
6060,-1224,848,496,966,-238,-289
6065,-1280,888,472,955,-267,-311
6070,-1304,904,424,934,-297,-339
6075,-1312,912,400,906,-334,-371
6080,-1392,944,336,878,-370,-401
6085,-1408,960,344,847,-403,-437
6090,-1416,1000,344,818,-438,-468
6095,-1400,1024,320,789,-460,-500
6100,-1392,984,288,757,-479,-536
6105,-1456,1040,288,722,-486,-574
6110,-1416,1048,256,681,-484,-612
6115,-1384,1032,264,635,-462,-648
6120,-1400,1056,192,589,-423,-678
6125,-1392,1056,232,540,-368,-704
6130,-1360,1032,224,491,-300,-728
6135,-1336,1024,216,438,-231,-746
6140,-1336,976,248,390,-164,-759
6145,-1352,976,272,347,-97,-770
6150,-1264,960,280,315,-32,-774
6155,-1384,976,328,297,34,-770
6160,-1560,960,408,266,99,-780
6165,-1672,960,448,210,118,-776
6170,-1664,920,488,127,105,-772
6175,-1736,920,552,22,81,-781
6180,-1728,848,576,-95,46,-791
6185,-1784,824,624,-211,1,-796
6190,-1832,768,640,-326,-29,-794
6195,-1872,744,720,-438,-53,-780
6200,-1872,704,800,-546,-79,-754
6205,-1928,624,816,-646,-109,-722
6210,-1904,568,880,-729,-129,-690
6215,-1928,512,848,-798,-143,-659
6220,-1920,424,944,-849,-151,-629
6225,-1952,368,952,-890,-152,-592
6230,-1936,304,984,-920,-146,-555
6235,-1920,280,968,-946,-129,-514
6240,-1952,256,1000,-967,-101,-460
6245,-1976,288,984,-981,-54,-427
6250,-1968,288,984,-989,-16,-390
6255,-1912,304,976,-997,24,-346
6260,-1856,328,992,-1011,74,-301
6265,-1792,320,1064,-1031,125,-285
6270,-1704,328,1088,-1050,167,-267
6275,-1600,296,1096,-1066,212,-247
6280,-1560,320,1128,-1078,267,-251
6285,-1560,344,1184,-1079,311,-266
6290,-1528,304,1224,-1077,339,-276
6295,-1472,328,1232,-1075,350,-283
6300,-1424,312,1176,-1072,346,-296
6305,-1424,288,1160,-1078,341,-319
6310,-1376,288,1112,-1094,330,-344
6315,-1352,240,1040,-1112,327,-361
6320,-1320,192,1008,-1130,339,-358
6325,-1272,184,1008,-1139,362,-360
6330,-1304,152,984,-1137,388,-379
6335,-1240,104,960,-1132,414,-393
6340,-1232,48,920,-1122,411,-429
6345,-1280,16,896,-1103,406,-472
6350,-1336,-24,888,-1072,419,-496
6355,-1288,-40,896,-1031,436,-481
6360,-1416,-144,880,-982,470,-450
6365,-1544,-216,944,-942,492,-427
6370,-1512,-296,960,-901,488,-398
6375,-1520,-344,944,-843,484,-368
6380,-1624,-384,920,-773,483,-334
6385,-1672,-432,912,-700,469,-282
6390,-1664,-424,848,-626,444,-238
6395,-1696,-472,816,-558,414,-204
6400,-1712,-448,736,-508,370,-176
6405,-1632,-432,664,-472,314,-144
6410,-1512,-408,616,-441,269,-134
6415,-1488,-360,552,-413,243,-144
6420,-1560,-328,600,-392,226,-155
6425,-1472,-280,536,-373,217,-171
6430,-1464,-312,552,-365,207,-184
6435,-1504,-344,584,-367,200,-210
6440,-1552,-368,656,-363,184,-235
6445,-1544,-440,672,-352,160,-254
6450,-1616,-464,720,-329,141,-269
6455,-1632,-488,768,-291,124,-275
6460,-1688,-472,792,-249,112,-272
6465,-1704,-464,808,-207,101,-266
6470,-1752,-480,736,-168,96,-260
6475,-1784,-432,704,-142,94,-249
6480,-1792,-424,712,-127,95,-234
6485,-1824,-440,680,-124,97,-217
6490,-1816,-400,656,-130,100,-198
6495,-1800,-408,584,-142,103,-174
6500,-1848,-416,536,-161,106,-146
6505,-1824,-400,560,-186,119,-121
6510,-1864,-400,536,-205,118,-111
6515,-1840,-328,520,-226,113,-95
6520,-1808,-352,504,-237,106,-87
6525,-1840,-352,520,-242,97,-81
6530,-1848,-424,488,-237,91,-71
6535,-1864,-408,512,-229,78,-57
6540,-1960,-432,472,-219,64,-13
6545,-1616,-544,632,-200,81,86
6550,-1464,-448,592,-148,50,45
6555,-1624,-424,520,-87,8,-27
6560,-1624,-392,504,-57,-2,-48
6565,-1688,-416,512,-58,-13,-44
6570,-1672,-416,544,-76,-35,-23
6575,-1648,-416,568,-91,-57,0
6580,-1672,-400,552,-102,-76,11
6585,-1704,-424,664,-115,-94,30
6590,-1656,-400,568,-117,-111,50
6595,-1664,-344,592,-109,-131,50
6600,-1624,-400,616,-97,-153,43
6605,-1632,-392,600,-83,-172,42
6610,-1656,-384,624,-72,-185,48
6615,-1648,-416,632,-60,-196,58
6620,-1600,-368,656,-49,-206,76
6625,-1592,-384,640,-29,-218,88
6630,-1584,-408,664,-4,-227,88
6635,-1568,-352,664,19,-236,81
6640,-1560,-344,664,41,-241,79
6645,-1568,-320,672,60,-245,80
6650,-1576,-320,696,73,-251,83
6655,-1592,-272,704,80,-259,89
6660,-1600,-256,704,87,-267,93
6665,-1560,-264,736,89,-279,100
6670,-1576,-256,720,91,-289,102
6675,-1584,-264,792,90,-298,98
6680,-1592,-208,752,89,-305,99
6685,-1600,-152,808,87,-308,97
6690,-1584,-232,800,87,-310,85
6695,-1616,-208,792,86,-308,78
6700,-1616,-200,824,87,-302,75
6705,-1624,-184,848,92,-293,75
6710,-1616,-224,896,102,-279,76
6715,-1648,-208,896,116,-271,78
6720,-1600,-224,912,133,-259,80
6725,-1592,-200,896,150,-252,82
6730,-1616,-168,888,167,-248,85
6735,-1584,-160,912,183,-244,87
6740,-1560,-176,872,195,-243,85
6745,-1560,-128,880,204,-239,84
6750,-1544,-80,872,210,-234,83
6755,-1536,-88,864,214,-229,81
6760,-1520,-80,856,216,-224,78
6765,-1536,-64,880,215,-218,76
6770,-1536,-32,872,214,-213,74
6775,-1536,-16,864,210,-210,71
6780,-1512,-32,896,205,-208,69
6785,-1536,0,896,199,-205,66
6790,-1520,0,896,192,-205,64
6795,-1520,8,896,184,-200,61
6800,-1504,16,872,174,-194,58
6805,-1528,48,904,163,-191,55
6810,-1512,16,904,152,-185,51
6815,-1520,24,952,137,-179,47
6820,-1520,40,896,122,-170,44
6825,-1528,40,904,103,-162,39
6830,-1520,48,928,84,-157,35
6835,-1536,72,904,66,-151,29
6840,-1520,40,912,45,-148,24
6845,-1512,8,896,24,-141,19
6850,-1528,0,912,4,-134,14
6855,-1568,40,952,-15,-124,11
6860,-1528,8,896,-31,-117,6
6865,-1528,0,912,-45,-112,5
6870,-1520,16,928,-54,-104,1
6875,-1512,-8,936,-64,-98,-3
6880,-1520,0,952,-70,-90,-5
6885,-1504,-8,944,-75,-86,-10
6890,-1504,-32,944,-79,-84,-12
6895,-1512,-16,952,-83,-80,-14
6900,-1480,-8,976,-83,-77,-15
6905,-1520,-48,976,-84,-73,-18
6910,-1472,-72,920,-79,-69,-19
6915,-1496,-32,944,-77,-64,-23
6920,-1488,-64,928,-74,-57,-26
6925,-1488,-40,952,-71,-53,-29
6930,-1512,-72,944,-67,-48,-28
6935,-1456,-56,952,-64,-47,-25
6940,-1456,-96,952,-58,-44,-35
6945,-1488,-112,928,-56,-38,-41
6950,-1496,-112,912,-49,-33,-44
6955,-1488,-88,992,-41,-27,-48
6960,-1480,-96,928,-34,-21,-51
6965,-1504,-112,904,-29,-16,-55
6970,-1464,-128,920,-21,-10,-57
6975,-1440,-120,952,-15,-4,-59
6980,-1472,-128,912,-7,4,-62
6985,-1488,-128,904,-2,13,-65
6990,-1488,-136,912,5,19,-69
6995,-1504,-128,904,14,23,-70
7000,-1480,-152,928,21,23,-72
7005,-1512,-112,928,28,24,-73
7010,-1520,-160,904,34,22,-78
7015,-1528,-128,912,41,20,-81
7020,-1520,-136,944,44,18,-82
7025,-1520,-128,896,46,20,-81
7030,-1552,-96,880,46,22,-79
7035,-1528,-128,904,44,25,-64
7040,-1504,-128,904,45,25,-62
7045,-1512,-136,896,43,29,-67
7050,-1544,-120,904,43,33,-68
7055,-1544,-80,928,43,38,-67
7060,-1536,-96,872,39,39,-62
7065,-1544,-96,896,33,42,-59
7070,-1536,-88,904,24,44,-56
7075,-1576,-112,912,15,45,-51
7080,-1544,-96,888,8,46,-46
7085,-1552,-88,864,-1,44,-43
7090,-1544,-104,832,-6,39,-37
7095,-1544,-112,824,-11,38,-33
7100,-1544,-136,856,-15,35,-29
7105,-1568,-104,840,-16,30,-27
7110,-1560,-112,872,-20,24,-23
7115,-1560,-104,832,-22,19,-20
7120,-1552,-128,816,-22,14,-18
7125,-1568,-104,864,-22,10,-15
7130,-1536,-152,888,-19,5,-13
7135,-1544,-128,840,-16,2,-12
7140,-1536,-128,848,-11,-1,-12
7145,-1560,-136,848,-8,-3,-13
7150,-1560,-144,856,-5,-4,-15
7155,-1560,-128,888,-1,-6,-16
7160,-1536,-168,872,5,-7,-16
7165,-1552,-152,856,8,-7,-16
7170,-1544,-120,856,10,-6,-17
7175,-1528,-128,880,14,-5,-17
7180,-1536,-128,872,18,-5,-18
7185,-1552,-192,872,22,-4,-17
7190,-1544,-144,880,25,-8,-18
7195,-1544,-112,872,29,-11,-19
7200,-1536,-112,888,32,-13,-16
7205,-1536,-120,864,35,-14,-16
7210,-1536,-136,856,38,-15,-17
7215,-1536,-96,872,38,-17,-15
7220,-1536,-96,864,41,-19,-14
7225,-1528,-80,880,41,-17,-11
7230,-1544,-80,888,38,-17,-12
7235,-1512,-104,904,39,-23,-12
7240,-1560,-56,904,36,-29,-11
7245,-1536,-80,896,34,-32,-12
7250,-1536,-80,904,29,-37,-12
7255,-1528,-88,880,28,-40,-11
7260,-1536,-72,888,27,-43,-11
7265,-1536,-80,928,25,-45,-11
7270,-1520,-72,880,21,-49,-10
7275,-1528,-88,920,16,-53,-11
7280,-1520,-72,912,13,-55,-12
7285,-1552,-72,872,13,-56,-13
7290,-1520,-72,896,14,-58,-12
7295,-1544,-56,880,11,-57,-12
7300,-1528,-48,872,10,-56,-11
7305,-1528,-64,888,7,-56,-12
7310,-1536,-64,896,4,-57,-13
7315,-1536,-80,896,0,-55,-12
7320,-1536,-80,888,1,-56,-14
7325,-1536,-96,904,-3,-56,-14
7330,-1528,-72,928,-8,-54,-9
7335,-1536,-80,920,-10,-55,-11
7340,-1584,-80,872,-16,-53,-6
7345,-1504,-56,952,-23,-51,8
7350,-1512,-64,936,-21,-54,3
7355,-1512,-56,920,-19,-53,-11
7360,-1528,-56,928,-18,-52,-16
7365,-1512,-80,936,-18,-51,-17
7370,-1512,-88,920,-21,-50,-18
7375,-1520,-64,888,-20,-47,-19
7380,-1504,-88,920,-20,-46,-20
7385,-1504,-88,896,-21,-47,-21
7390,-1520,-56,888,-24,-45,-22
7395,-1464,-112,928,-26,-45,-23
7400,-1472,-64,920,-24,-44,-21
7405,-1496,-104,920,-25,-44,-24
7410,-1504,-80,928,-27,-42,-26
7415,-1496,-88,960,-26,-41,-27
7420,-1496,-80,952,-25,-38,-28
7425,-1480,-112,936,-28,-38,-29
7430,-1480,-72,976,-27,-37,-31
7435,-1472,-104,928,-27,-34,-30
7440,-1496,-120,896,-28,-34,-31
7445,-1472,-96,944,-28,-33,-32
7450,-1496,-96,896,-27,-32,-33
7455,-1488,-72,968,-26,-31,-31
7460,-1496,-96,952,-27,-30,-31
7465,-1504,-88,928,-25,-28,-31
7470,-1488,-104,920,-24,-27,-29
7475,-1488,-88,936,-22,-26,-30
7480,-1488,-56,936,-23,-23,-28
7485,-1496,-80,912,-22,-22,-28
7490,-1488,-104,936,-22,-21,-27
7495,-1480,-96,928,-21,-19,-26
7500,-1488,-88,944,-21,-19,-24
7505,-1472,-80,944,-19,-18,-24
7510,-1488,-64,928,-21,-18,-23
7515,-1488,-96,928,-20,-16,-22
7520,-1488,-88,952,-20,-17,-21
7525,-1504,-56,976,-20,-14,-21
7530,-1488,-80,960,-21,-13,-21
7535,-1496,-96,936,-19,-14,-21
7540,-1496,-96,936,-20,-13,-19
7545,-1480,-88,944,-19,-13,-20
7550,-1504,-88,936,-19,-10,-19
7555,-1496,-128,944,-20,-8,-20
7560,-1512,-72,936,-21,-3,-19
7565,-1464,-72,920,-23,1,-18
7570,-1488,-88,960,-20,2,-17
7575,-1488,-104,960,-22,3,-17
7580,-1488,-80,928,-24,2,-16
7585,-1480,-80,944,-24,0,-17
7590,-1488,-96,936,-27,1,-17
7595,-1488,-72,960,-29,2,-15
7600,-1488,-88,960,-29,2,-16
7605,-1504,-72,944,-31,2,-14
7610,-1496,-72,928,-32,2,-15
7615,-1512,-96,888,-33,3,-15
7620,-1504,-112,960,-35,5,-14
7625,-1520,-72,936,-34,3,-11
7630,-1496,-96,936,-34,4,-11
7635,-1480,-104,968,-34,3,-10
7640,-1488,-88,952,-33,4,-10
7645,-1520,-72,952,-32,3,-10
7650,-1504,-104,920,-33,2,-9
7655,-1480,-80,928,-33,2,-8
7660,-1512,-96,912,-35,1,-8
7665,-1504,-64,968,-37,2,-7
7670,-1528,-72,976,-37,2,-6
7675,-1504,-56,936,-37,2,-7
7680,-1472,-88,936,-37,1,-7
7685,-1504,-96,944,-40,2,-6
7690,-1512,-80,960,-42,1,-6
7695,-1504,-72,944,-43,2,-6
7700,-1496,-80,952,-45,2,-4
7705,-1504,-64,912,-45,1,-4
7710,-1520,-72,960,-45,0,-5
7715,-1512,-104,952,-48,1,-5
7720,-1512,-64,952,-48,1,-7
7725,-1504,-80,928,-48,2,-7
7730,-1512,-88,912,-49,2,-7
7735,-1504,-96,952,-47,3,-7
7740,-1504,-80,928,-48,3,-8
7745,-1496,-96,944,-48,3,-8
7750,-1496,-88,936,-48,0,-7
7755,-1496,-96,952,-49,0,-8
7760,-1504,-80,976,-46,-2,-7
7765,-1480,-80,952,-47,-3,-8
7770,-1488,-80,928,-46,-6,-9
7775,-1528,-72,920,-46,-7,-10
7780,-1512,-96,944,-46,-8,-10
7785,-1560,-88,928,-46,-7,-12
7790,-1496,-24,928,-44,-8,-11
7795,-1496,-64,928,-44,-9,-13
7800,-1496,-64,936,-42,-7,-12
7805,-1496,-80,944,-40,-9,-13
7810,-1520,-48,968,-39,-8,-14
7815,-1496,-72,968,-38,-8,-14
7820,-1488,-96,944,-39,-9,-15
7825,-1512,-80,944,-41,-9,-15
7830,-1496,-80,920,-40,-10,-15
7835,-1488,-80,952,-41,-12,-17
7840,-1496,-104,928,-40,-12,-16
7845,-1480,-112,936,-39,-12,-17
7850,-1512,-64,952,-38,-16,-16
7855,-1496,-104,928,-41,-16,-16
7860,-1488,-88,952,-39,-18,-17
7865,-1504,-88,920,-38,-20,-18
7870,-1512,-72,920,-38,-22,-18
7875,-1488,-88,936,-39,-23,-18
7880,-1480,-72,936,-39,-23,-19
7885,-1520,-104,920,-38,-21,-19
7890,-1512,-88,976,-38,-19,-18
7895,-1496,-88,920,-38,-18,-17
7900,-1496,-80,912,-39,-16,-18
7905,-1480,-72,944,-37,-15,-19
7910,-1480,-96,952,-36,-13,-18
7915,-1488,-72,928,-36,-13,-16
7920,-1496,-80,952,-39,-10,-17
7925,-1488,-80,944,-40,-9,-14
7930,-1496,-88,984,-44,-8,-15
7935,-1504,-96,912,-44,-7,-14
7940,-1472,-112,944,-44,-8,-11
7945,-1440,-128,920,-42,-7,-10
7950,-1488,-72,944,-41,-11,-9
7955,-1496,-64,920,-42,-10,-7
7960,-1496,-88,960,-44,-12,-6
7965,-1504,-96,952,-44,-12,-5
7970,-1496,-104,944,-42,-12,-4
7975,-1488,-88,968,-42,-11,-4
7980,-1488,-112,952,-42,-12,-4
7985,-1472,-80,984,-42,-11,-2
7990,-1504,-80,968,-43,-11,-1
7995,-1496,-80,968,-39,-11,-1
8000,-1480,-112,976,-37,-13,-1
8005,-1488,-88,976,-37,-12,-3
8010,-1472,-96,968,-35,-10,-3
8015,-1480,-96,960,-35,-10,-3
8020,-1456,-104,968,-33,-11,-1
8025,-1480,-96,960,-32,-10,-2
8030,-1488,-80,960,-30,-8,-2
8035,-1456,-96,944,-32,-9,-3
8040,-1496,-96,936,-32,-9,-3
8045,-1480,-96,960,-32,-8,-2
8050,-1504,-96,912,-32,-9,-1
8055,-1488,-128,960,-32,-7,4
8060,-1480,-96,944,-35,-11,2
8065,-1480,-80,928,-35,-10,2
8070,-1456,-96,976,-36,-9,2
8075,-1472,-80,968,-35,-11,1
8080,-1488,-96,968,-35,-11,-1
8085,-1472,-88,968,-38,-10,-2
8090,-1480,-88,928,-37,-12,-2
8095,-1496,-72,968,-37,-12,-2
8100,-1480,-104,968,-39,-11,-1
8105,-1464,-80,944,-41,-12,-2
8110,-1456,-40,976,-45,-9,-3
8115,-1488,-88,968,-46,-7,-3
8120,-1488,-72,968,-46,-6,-1
8125,-1496,-88,960,-46,-2,-3
8130,-1480,-72,928,-50,0,-4
8135,-1464,-80,952,-48,1,-2
8140,-1488,-48,944,-50,2,-2
8145,-1480,-104,992,-49,4,-2
8150,-1520,-96,896,-49,6,-3
8155,-1488,-112,936,-51,7,-4
8160,-1496,-112,952,-52,9,-4
8165,-1464,-88,984,-51,9,-4
8170,-1472,-72,968,-52,10,-5
8175,-1464,-88,976,-52,11,-4
8180,-1488,-64,952,-52,12,-4
8185,-1480,-80,960,-52,11,-5
8190,-1496,-88,968,-52,11,-5
8195,-1464,-64,992,-53,12,-6
8200,-1472,-104,968,-52,11,-7
8205,-1448,-112,976,-52,13,-6
8210,-1480,-96,976,-52,11,-6
8215,-1456,-56,1032,-53,13,-6
8220,-1488,-96,1008,-50,13,-5
8225,-1488,-64,952,-50,11,-6
8230,-1480,-96,968,-51,10,-5
8235,-1496,-96,960,-49,10,-6
8240,-1496,-72,976,-49,10,-6
8245,-1480,-88,968,-50,11,-6
8250,-1480,-88,992,-52,11,-6
8255,-1504,-96,936,-51,13,-6
8260,-1480,-112,976,-49,12,-8
8265,-1480,-72,976,-48,10,-8
8270,-1488,-96,992,-47,10,-7
8275,-1504,-104,968,-45,9,-7
8280,-1480,-80,968,-45,7,-7
8285,-1464,-96,968,-43,8,-7
8290,-1480,-96,944,-41,6,-6
8295,-1472,-96,976,-41,5,-7
8300,-1480,-88,976,-41,3,-6
8305,-1480,-88,936,-40,3,-8
8310,-1472,-72,952,-40,1,-9
8315,-1488,-64,960,-40,2,-8
8320,-1472,-104,952,-41,0,-8
8325,-1448,-96,976,-42,-1,-8
8330,-1464,-104,960,-41,-2,-5
8335,-1472,-88,952,-41,-3,-6
8340,-1464,-80,976,-43,-2,-7
8345,-1472,-88,976,-44,-1,-7
8350,-1480,-96,976,-45,-2,-8
8355,-1464,-104,960,-47,-1,-9
8360,-1480,-104,984,-46,1,-8
8365,-1480,-96,976,-45,0,-7
8370,-1480,-96,968,-45,1,-8
8375,-1480,-40,1000,-46,1,-7
8380,-1496,-56,936,-47,3,0
8385,-1504,-80,960,-61,7,21
8390,-1464,-104,960,-71,9,39
8395,-1408,-80,952,-67,9,41
8400,-1456,-80,992,-61,1,17
8405,-1472,-72,952,-56,-3,3
8410,-1448,-104,976,-54,-3,-2
8415,-1496,-72,936,-52,-2,-4
8420,-1472,-72,1000,-50,-2,-3
8425,-1456,-128,944,-47,-3,-3
8430,-1424,-88,976,-48,0,-3
8435,-1504,-80,968,-47,1,-4
8440,-1480,-80,992,-48,3,-2
8445,-1480,-72,968,-49,5,-4
8450,-1464,-128,984,-49,5,-4
8455,-1488,-88,976,-50,6,-5
8460,-1448,-96,976,-51,9,-3
8465,-1472,-88,968,-50,10,-3
8470,-1480,-88,968,-51,11,-3
8475,-1464,-80,976,-51,12,-3
8480,-1472,-64,984,-52,13,-2
8485,-1456,-80,968,-53,11,-2
8490,-1480,-80,1000,-53,12,-3
8495,-1464,-88,968,-53,12,-4
8500,-1472,-88,960,-52,11,-3
8505,-1464,-88,984,-53,12,-6
8510,-1480,-88,976,-52,12,-6
8515,-1496,-88,968,-51,10,-7
8520,-1480,-96,984,-52,8,-7
8525,-1480,-104,984,-52,7,-7
8530,-1472,-56,968,-49,6,-8
8535,-1464,-96,960,-50,7,-9
8540,-1472,-80,936,-50,9,-10
8545,-1464,-72,912,-50,11,-10
8550,-1480,-64,944,-50,16,-10
8555,-1480,-72,952,-48,18,-11
8560,-1464,-96,952,-48,20,-12
8565,-1464,-96,968,-50,22,-12
8570,-1472,-96,960,-51,23,-13
8575,-1464,-96,984,-51,25,-14
8580,-1472,-96,968,-51,25,-14
8585,-1496,-88,920,-48,26,-14
8590,-1456,-88,968,-48,24,-14
8595,-1472,-48,968,-50,22,-15
8600,-1448,-80,968,-51,21,-15
8605,-1480,-72,952,-51,19,-15
8610,-1464,-72,976,-54,17,-15
8615,-1472,-80,960,-52,17,-16
8620,-1480,-64,952,-50,16,-15
8625,-1488,-80,968,-50,14,-14
8630,-1464,-104,944,-49,13,-13
8635,-1480,-88,960,-48,13,-13
8640,-1456,-80,984,-49,12,-12
8645,-1488,-64,944,-47,12,-13
8650,-1464,-88,984,-46,9,-12
8655,-1464,-80,952,-45,8,-13
8660,-1456,-88,960,-47,9,-14
8665,-1448,-104,936,-46,8,-13
8670,-1472,-96,960,-46,10,-13
8675,-1464,-112,936,-47,10,-14
8680,-1456,-128,936,-45,9,-12
8685,-1480,-80,968,-44,9,-12
8690,-1456,-120,976,-44,9,-12
8695,-1488,-72,984,-45,9,-12
8700,-1448,-96,944,-44,7,-11
8705,-1440,-120,992,-45,8,-11
8710,-1464,-104,968,-44,10,-11
8715,-1464,-120,992,-43,11,-10
8720,-1472,-120,928,-40,10,-10
8725,-1488,-96,952,-40,9,-7
8730,-1448,-96,976,-38,8,-7
8735,-1472,-112,960,-38,6,-4
8740,-1464,-112,976,-36,5,-3
8745,-1472,-72,928,-37,4,-2
8750,-1448,-112,992,-35,4,-2
8755,-1456,-104,920,-35,2,-3
8760,-1496,-112,936,-36,1,-1
8765,-1512,-144,936,-42,3,13
8770,-1440,-112,992,-50,8,29
8775,-1472,-72,992,-49,8,32
8780,-1472,-72,984,-48,5,33
8785,-1440,-96,968,-46,1,21
8790,-1464,-72,968,-45,-1,12
8795,-1464,-80,984,-42,-1,7
8800,-1464,-104,960,-41,-2,3
8805,-1424,-88,984,-39,-1,1
8810,-1472,-96,968,-39,0,0
8815,-1464,-96,968,-37,1,0
8820,-1480,-128,968,-37,0,-1
8825,-1472,-88,1000,-36,-2,0
8830,-1464,-104,984,-39,-2,-1
8835,-1456,-64,984,-39,-1,-3
8840,-1480,-72,976,-38,1,-3
8845,-1464,-96,976,-37,2,-2
8850,-1464,-80,952,-37,0,-2
8855,-1472,-88,984,-39,2,-2
8860,-1488,-88,968,-39,2,-1
8865,-1464,-80,976,-41,5,-2
8870,-1464,-56,968,-41,5,-3
8875,-1456,-80,1000,-41,4,-4
8880,-1456,-80,992,-41,8,-3
8885,-1448,-88,968,-42,7,-3
8890,-1472,-72,952,-44,6,-4
8895,-1456,-72,976,-44,7,-4
8900,-1472,-80,984,-44,9,-4
8905,-1448,-64,984,-44,10,-4
8910,-1464,-88,960,-44,8,-4
8915,-1440,-112,944,-45,10,-3
8920,-1448,-80,984,-46,10,-4
8925,-1480,-96,936,-46,10,-3
8930,-1448,-80,1008,-47,10,-4
8935,-1464,-88,960,-46,10,-3
8940,-1464,-112,976,-47,10,-5
8945,-1456,-80,984,-47,9,-6
8950,-1464,-96,976,-48,8,-6
8955,-1440,-88,960,-48,8,-6
8960,-1472,-96,984,-48,9,-7
8965,-1464,-64,976,-47,8,-4
8970,-1448,-88,976,-48,9,-5
8975,-1464,-72,992,-50,10,-7
8980,-1488,-104,944,-51,12,-7
8985,-1472,-80,968,-50,12,-6
8990,-1464,-96,984,-53,11,-6
8995,-1448,-88,968,-52,11,-8
9000,-1456,-104,960,-51,10,-8
9005,-1456,-104,960,-51,11,-6
9010,-1464,-104,1008,-49,11,-7
9015,-1488,-96,968,-48,10,-6
9020,-1456,-72,952,-50,10,-5
9025,-1472,-80,992,-49,10,-6
9030,-1480,-72,1008,-47,11,-5
9035,-1440,-88,976,-47,11,-5
9040,-1480,-80,984,-45,12,-6
9045,-1472,-96,992,-46,13,-5
9050,-1464,-120,1008,-44,13,-6
9055,-1448,-88,944,-43,12,-4
9060,-1504,-72,968,-41,13,-5
9065,-1472,-80,992,-40,12,-4
9070,-1464,-104,984,-40,11,-5
9075,-1456,-88,976,-39,12,-4
9080,-1472,-64,944,-39,11,-3
9085,-1464,-96,936,-39,10,-4
9090,-1448,-144,952,-40,10,-4
9095,-1456,-88,952,-40,8,-4
9100,-1448,-96,992,-40,8,-4
9105,-1464,-96,960,-37,9,-4
9110,-1464,-80,984,-41,9,-5
9115,-1448,-104,976,-39,11,-5
9120,-1464,-80,984,-39,10,-4
9125,-1480,-80,968,-39,9,-5
9130,-1448,-72,968,-40,9,-4
9135,-1448,-80,968,-39,10,-4
9140,-1464,-80,984,-40,11,-3
9145,-1464,-72,1016,-42,9,-4
9150,-1472,-112,992,-41,9,-5
9155,-1480,-72,968,-42,10,-5
9160,-1456,-104,1000,-41,10,-5
9165,-1440,-112,976,-40,10,-4
9170,-1472,-88,976,-38,9,-5
9175,-1448,-112,1008,-37,9,-7
9180,-1448,-64,984,-36,8,-6
9185,-1488,-88,952,-34,7,-6
9190,-1456,-88,984,-34,8,-7
9195,-1448,-96,1000,-33,9,-7
9200,-1408,-136,976,-32,10,-8
9205,-1472,-96,976,-28,11,-8
9210,-1456,-72,984,-27,15,-8
9215,-1472,-104,1008,-22,16,-8
9220,-1464,-96,960,-17,17,-7
9225,-1464,-112,976,-14,18,-9
9230,-1472,-88,960,-10,17,-7
9235,-1496,-96,944,-7,16,-7
9240,-1464,-112,944,-5,13,-7
9245,-1472,-56,984,-4,12,-6
9250,-1448,-64,928,-5,8,-5
9255,-1440,-32,992,-5,7,-4
9260,-1456,-56,984,-9,6,-3
9265,-1488,-72,984,-12,4,-5
9270,-1464,-80,992,-16,1,-4
9275,-1456,-64,960,-21,2,-4
9280,-1464,-96,1000,-24,0,-6
9285,-1456,-80,1008,-28,-1,-6
9290,-1440,-96,1000,-32,-2,-4
9295,-1464,-104,968,-34,-4,-4
9300,-1472,-72,992,-35,-5,-5
9305,-1464,-72,1000,-39,-5,-4
9310,-1464,-48,1008,-39,-6,-5
9315,-1456,-88,984,-40,-6,-6
9320,-1456,-80,1000,-40,-5,-7
9325,-1456,-72,984,-39,-3,-5
9330,-1448,-88,960,-39,-2,-4
9335,-1456,-88,992,-39,-2,-6
9340,-1424,-96,976,-38,-1,-6
9345,-1464,-88,1000,-39,0,-6
9350,-1408,-88,1008,-39,0,-6
9355,-1472,-80,984,-40,0,-6
9360,-1424,-72,992,-41,-1,-5
9365,-1416,-120,984,-40,0,-6
9370,-1456,-80,984,-40,1,-5
9375,-1456,-80,984,-41,1,-7
9380,-1448,-88,1000,-42,-1,-8
9385,-1464,-72,1024,-42,-1,-7
9390,-1456,-88,976,-41,-1,-5
9395,-1472,-96,1000,-41,-2,-8
9400,-1480,-72,928,-44,-1,-7
9405,-1440,-80,1000,-46,1,-7
9410,-1448,-88,984,-43,0,-7
9415,-1432,-152,1032,-44,1,-6
9420,-1464,-72,992,-42,1,-5
9425,-1448,-80,976,-42,2,-6
9430,-1448,-96,984,-40,1,-8
9435,-1472,-80,992,-39,-1,-8
9440,-1440,-72,992,-39,0,-9
9445,-1464,-80,968,-40,0,-7
9450,-1424,-104,984,-38,-1,-8
9455,-1488,-72,984,-36,0,-8
9460,-1456,-96,976,-38,3,-6
9465,-1464,-96,928,-38,2,-6
9470,-1440,-104,984,-36,3,-6
9475,-1448,-72,984,-35,5,-5
9480,-1456,-72,968,-37,5,-4
9485,-1448,-72,984,-36,6,-4
9490,-1464,-80,992,-35,7,-3
9495,-1448,-72,992,-38,6,-2
9500,-1448,-80,1000,-39,6,-2
9505,-1432,-80,968,-40,7,-2
9510,-1456,-104,1008,-40,8,-1
9515,-1448,-80,976,-38,8,-2
9520,-1440,-96,984,-35,9,-2
9525,-1408,-88,976,-34,9,-1
9530,-1440,-80,960,-33,9,-1
9535,-1440,-88,1000,-33,10,1
9540,-1456,-88,984,-32,8,2
9545,-1456,-88,1000,-34,8,1
9550,-1432,-56,1008,-34,7,3
9555,-1424,-80,992,-38,8,4
9560,-1424,-88,984,-39,9,2
9565,-1448,-104,1000,-38,10,4
9570,-1496,-72,1000,-37,11,2
9575,-1464,-80,992,-42,13,15
9580,-1408,-56,1016,-55,12,28
9585,-1440,-72,984,-55,11,27
9590,-1432,-72,1008,-50,6,16
9595,-1448,-80,1000,-47,5,7
9600,-1424,-80,968,-44,7,5
9605,-1432,-104,1000,-42,9,2
9610,-1456,-64,1000,-42,10,1
9615,-1480,-72,960,-39,8,2
9620,-1464,-48,1032,-38,8,-1
9625,-1432,-80,1016,-39,9,-2
9630,-1440,-96,992,-40,9,-3
9635,-1440,-128,976,-40,9,-5
9640,-1456,-72,1000,-41,9,-4
9645,-1448,-88,1008,-40,10,-4
9650,-1456,-56,992,-42,11,-4
9655,-1448,-80,1000,-42,10,-3
9660,-1440,-80,992,-42,9,-4
9665,-1448,-72,992,-44,10,-5
9670,-1448,-72,960,-46,10,-5
9675,-1464,-56,1000,-49,9,-4
9680,-1456,-48,976,-48,9,-3
9685,-1472,-88,936,-48,6,-1
9690,-1432,-32,968,-48,5,0
9695,-1448,-72,968,-48,3,0
9700,-1440,-80,960,-51,1,0
9705,-1408,-96,992,-52,-1,1
9710,-1472,-56,1008,-51,-2,4
9715,-1464,-80,1000,-54,-4,8
9720,-1448,-88,968,-56,-7,7
9725,-1464,-104,984,-56,-5,10
9730,-1464,-64,1008,-54,-5,13
9735,-1432,-72,1008,-51,-6,12
9740,-1480,-64,976,-51,-6,8
9745,-1448,-48,960,-51,-5,8
9750,-1448,-72,976,-52,-2,7
9755,-1456,-72,984,-51,2,3
9760,-1456,-80,984,-54,4,1
9765,-1448,-40,1000,-56,6,1
9770,-1464,-24,984,-61,8,1
9775,-1440,-80,984,-64,12,-2
9780,-1432,-72,1008,-67,12,-2
9785,-1440,-72,1048,-68,11,-2
9790,-1424,-88,1016,-69,13,-4
9795,-1432,-80,1040,-69,12,-2
9800,-1456,-48,960,-68,13,-3
9805,-1440,-96,960,-66,13,-3
9810,-1440,-88,992,-66,10,-3
9815,-1440,-64,976,-64,8,-3
9820,-1448,-96,1008,-63,8,-3
9825,-1448,-80,984,-60,8,-3
9830,-1448,-80,992,-59,7,-3
9835,-1456,-64,992,-58,8,-4
9840,-1440,-104,1000,-54,8,-3
9845,-1440,-88,1016,-50,8,-5
9850,-1456,-104,984,-50,10,-4
9855,-1456,-80,1016,-46,9,-4
9860,-1440,-88,1000,-46,8,-4
9865,-1424,-96,984,-46,8,-5
9870,-1432,-88,984,-45,6,-6
9875,-1440,-88,1008,-42,7,-5
9880,-1440,-72,984,-40,7,-6
9885,-1432,-48,992,-41,9,-6
9890,-1408,-88,1008,-40,10,-6
9895,-1440,-88,1008,-39,8,-7
9900,-1440,-80,1000,-40,11,-7
9905,-1464,-112,1008,-42,11,-7
9910,-1424,-88,1008,-43,11,-7
9915,-1456,-72,1000,-42,11,-6
9920,-1448,-72,1008,-43,12,-7
9925,-1424,-88,1008,-43,13,-7
9930,-1448,-96,1016,-42,13,-6
9935,-1448,-64,1032,-43,12,-6
9940,-1448,-64,992,-43,11,-5
9945,-1440,-64,968,-44,14,-5
9950,-1464,-72,984,-43,12,-5
9955,-1472,-88,960,-45,10,-4
9960,-1416,-64,960,-46,10,-5
9965,-1440,-80,1016,-46,9,-4
9970,-1424,-112,1016,-47,10,-4
9975,-1416,-96,1008,-45,10,-3
9980,-1440,-80,1008,-46,9,-3
9985,-1448,-80,1008,-46,9,-3
9990,-1456,-80,1008,-43,9,-3
9995,-1440,-72,960,-44,10,-2
10000,-1424,-56,1000,-43,13,-2
10005,-1448,-72,992,-44,15,-2
10010,-1464,-64,1000,-47,17,-1
10015,-1472,-96,984,-47,18,-2
10020,-1440,-72,984,-47,18,0
10025,-1448,-88,1008,-47,18,0
10030,-1456,-72,984,-51,17,0
10035,-1448,-72,992,-52,16,2
10040,-1448,-80,984,-50,15,3
10045,-1456,-80,1008,-52,14,6
10050,-1432,-80,1000,-55,16,3
10055,-1448,-72,1016,-56,18,3
10060,-1448,-40,1008,-56,17,4
10065,-1448,-48,984,-58,16,3
10070,-1448,-48,976,-56,15,0
10075,-1408,-88,984,-54,14,-2
10080,-1432,-96,1024,-52,15,-3
10085,-1440,-88,1024,-52,14,-3
10090,-1432,-72,992,-51,13,-4
10095,-1432,-56,1008,-50,12,-5
10100,-1432,-80,1016,-51,13,-6
10105,-1440,-72,992,-53,13,-5
10110,-1424,-72,992,-52,10,-5
10115,-1448,-88,1024,-51,11,-8
10120,-1456,-64,984,-53,11,-8
10125,-1472,-104,904,-52,11,-8
10130,-1440,-88,1008,-53,10,-8
10135,-1456,-80,1000,-53,9,-8
10140,-1440,-48,1000,-53,10,-8
10145,-1424,-72,1016,-52,10,-7
10150,-1464,-64,1000,-50,9,-7
10155,-1432,-80,1008,-53,10,-8
10160,-1448,-80,1016,-53,9,-8
10165,-1480,-88,984,-52,10,-6
10170,-1432,-72,1000,-53,10,-6
10175,-1448,-32,1008,-54,10,-5
10180,-1480,-80,1016,-53,9,-8
10185,-1440,-80,1016,-54,10,-6
10190,-1440,-104,1008,-53,11,-8
10195,-1456,-96,1016,-53,9,-8
10200,-1432,-72,1000,-51,8,-5
10205,-1440,-88,1008,-50,8,-5
10210,-1448,-64,976,-49,8,-6
10215,-1448,-88,1000,-48,8,-7
10220,-1448,-88,976,-48,7,-6
10225,-1448,-104,992,-47,7,-6
10230,-1424,-72,992,-47,8,-7
10235,-1488,-72,968,-45,7,-8
10240,-1448,-88,1016,-44,7,-6
10245,-1416,-72,1000,-44,5,-8
10250,-1432,-80,1008,-45,2,-6
10255,-1440,-80,992,-45,1,-8
10260,-1440,-80,992,-45,0,-8
10265,-1456,-80,992,-44,-1,-6
10270,-1464,-104,1008,-42,0,-6
10275,-1432,-64,1000,-44,0,-7
10280,-1432,-72,976,-44,-1,-6
10285,-1440,-80,984,-44,-2,-7
10290,-1464,-104,1024,-42,-3,-7
10295,-1464,-88,1016,-42,-5,-5
10300,-1440,-72,984,-41,-8,-7
10305,-1440,-80,1000,-41,-9,-7
10310,-1440,-80,1000,-43,-11,-6
10315,-1448,-80,1008,-42,-14,-5
10320,-1432,-72,984,-42,-14,-6
10325,-1408,-72,984,-42,-15,-7
10330,-1432,-64,960,-43,-14,-7
10335,-1440,-88,968,-44,-12,-7
10340,-1440,-88,1000,-44,-12,-7
10345,-1432,-72,992,-43,-11,-7
10350,-1448,-104,1000,-46,-10,-7
10355,-1440,-96,1016,-45,-7,-5
10360,-1440,-72,1024,-45,-5,-6
10365,-1440,-96,1008,-47,-3,-7
10370,-1424,-104,1024,-46,-2,-7
10375,-1432,-64,1008,-44,2,-6
10380,-1440,-96,984,-41,2,-5
10385,-1392,-96,1040,-40,1,-5
10390,-1464,-72,1032,-39,3,-4
10395,-1432,-64,1008,-37,2,-5
10400,-1456,-80,1008,-38,2,-2
10405,-1424,-104,992,-39,3,-1
10410,-1432,-72,1024,-38,3,-1
10415,-1424,-88,1008,-38,4,-3
10420,-1432,-88,1008,-39,6,-2
10425,-1416,-80,1000,-39,6,-3
10430,-1448,-72,1016,-38,5,-2
10435,-1440,-56,1008,-40,6,-1
10440,-1424,-72,1016,-38,5,-2
10445,-1424,-88,1008,-40,6,-2
10450,-1408,-64,1016,-37,6,-3
10455,-1432,-80,992,-37,7,-2
10460,-1424,-80,1008,-38,7,-2
10465,-1432,-88,1000,-39,8,-5
10470,-1456,-72,1016,-38,10,-5
10475,-1416,-72,1024,-38,7,-4
10480,-1424,-48,1008,-39,9,-4
10485,-1408,-56,1016,-40,9,-6
10490,-1424,-72,1016,-38,10,-6
10495,-1456,-72,1008,-38,9,-6
10500,-1440,-80,976,-39,9,-6
10505,-1448,-40,968,-38,9,-5
10510,-1448,-80,984,-38,9,-6
10515,-1416,-56,1032,-40,9,-5
10520,-1424,-80,1000,-41,10,-7
10525,-1440,-72,992,-44,9,-5
10530,-1448,-88,1016,-44,8,-6
10535,-1448,-40,1008,-43,10,-4
10540,-1456,-88,960,-46,9,-4
10545,-1416,-72,992,-45,11,-5
10550,-1440,-56,1032,-45,12,-4
10555,-1440,-64,968,-46,12,-4
10560,-1456,-80,1032,-46,12,-5
10565,-1456,-72,1008,-46,13,-5
10570,-1432,-56,1016,-47,14,-6
10575,-1432,-96,992,-48,14,-5
10580,-1432,-64,1024,-48,15,-6
10585,-1456,-72,1016,-48,14,-6
10590,-1432,-72,992,-46,14,-6
10595,-1440,-64,1000,-47,14,-7
10600,-1416,-72,1000,-45,13,-6
10605,-1440,-48,1000,-46,12,-6
10610,-1448,-64,1008,-47,11,-6
10615,-1400,-64,992,-48,11,-8
10620,-1440,-64,1008,-50,10,-8
10625,-1432,-56,1024,-48,11,-7
10630,-1432,-72,1016,-48,11,-6
10635,-1432,-64,1000,-50,11,-6
10640,-1440,-64,1000,-50,10,-6
10645,-1424,-80,992,-51,12,-5
10650,-1432,-88,976,-52,11,-6
10655,-1416,-56,1024,-53,10,-8
10660,-1424,-72,1000,-54,10,-6
10665,-1432,-80,1024,-53,11,-7
10670,-1472,-48,984,-53,10,-7
10675,-1440,-80,1016,-53,10,-6
10680,-1424,-88,1016,-52,9,-6
10685,-1424,-88,992,-52,10,-6
10690,-1440,-88,1016,-52,10,-5
10695,-1424,-80,1008,-52,12,-5
10700,-1416,-96,992,-53,12,-5
10705,-1432,-72,1008,-52,14,-6
10710,-1432,-80,1016,-52,13,-6
10715,-1432,-80,1008,-51,15,-5
10720,-1432,-96,1008,-50,16,-5
10725,-1432,-80,992,-49,15,-4
10730,-1416,-88,1024,-46,15,-4
10735,-1440,-80,1008,-45,14,-5
10740,-1416,-88,1008,-45,12,-4
10745,-1424,-104,1016,-45,12,-3
10750,-1424,-80,1008,-45,12,-4
10755,-1424,-48,1000,-43,12,-5
10760,-1448,-48,984,-42,10,-3
10765,-1416,-88,1008,-44,12,-3
10770,-1456,-72,1024,-43,10,-4
10775,-1448,-80,1008,-45,10,-2
10780,-1440,-48,1008,-45,10,-4
10785,-1440,-80,1024,-47,10,-4
10790,-1432,-96,1016,-44,13,-3
10795,-1416,-72,1024,-44,13,-4
10800,-1424,-64,1016,-48,13,-4
10805,-1432,-88,1008,-47,14,-2
10810,-1424,-96,1016,-48,13,-2
10815,-1432,-56,1032,-47,13,-2
10820,-1416,-56,1032,-47,15,-2
10825,-1424,-80,1008,-46,15,-2
10830,-1424,-80,960,-47,14,-3
10835,-1408,-80,984,-47,16,-3
10840,-1440,-104,976,-47,16,-2
10845,-1456,-88,1024,-48,17,-3
10850,-1424,-64,1000,-49,17,-4
10855,-1424,-80,1048,-46,17,-5
10860,-1368,-80,1088,-47,18,-5
10865,-1424,-56,984,-48,18,-4
10870,-1352,-112,1040,-51,18,-4
10875,-1440,-80,936,-49,19,-5
10880,-1480,-64,1000,-50,19,-4
10885,-1400,-88,976,-50,19,-4
10890,-1440,-56,984,-50,18,-4
10895,-1448,-168,1032,-50,18,-5
10900,-1416,-128,960,-49,20,-5
10905,-1416,-136,992,-50,20,-5
10910,-1392,-48,1016,-52,20,-2
10915,-1392,-48,992,-55,20,7
10920,-1440,-88,1048,-57,19,8
10925,-1456,-72,1008,-56,20,0
10930,-1432,-72,992,-58,22,0
10935,-1496,-48,992,-56,22,-2
10940,-1416,-64,1016,-55,21,-3
10945,-1504,-152,968,-54,21,-3
10950,-1424,-64,992,-53,20,-5
10955,-1416,-48,976,-52,20,-5
10960,-1424,-136,952,-53,19,-5
10965,-1376,-88,896,-53,19,-5
10970,-1416,-56,1024,-52,19,-4
10975,-1480,-88,984,-54,18,-4
10980,-1456,-80,1000,-54,18,3
10985,-1400,-72,1040,-56,18,9
10990,-1432,-56,1024,-56,17,1
10995,-1432,-96,1000,-55,18,-3
11000,-1416,-80,1000,-56,19,-5
11005,-1456,-104,992,-55,17,-5
11010,-1440,-80,1016,-55,17,-5
11015,-1440,-72,976,-54,16,-6
11020,-1416,-56,1016,-55,17,-6
11025,-1408,-80,1008,-53,16,-7
11030,-1448,-72,1024,-53,16,-7
11035,-1440,-56,992,-52,16,-7
11040,-1424,-80,1032,-52,17,-6
11045,-1408,-96,976,-52,17,-6
11050,-1424,-88,1008,-54,16,-5
11055,-1456,-64,1024,-52,16,-6
11060,-1432,-64,1008,-51,17,-7
11065,-1408,-72,1008,-52,18,-6
11070,-1448,-88,984,-55,18,-7
11075,-1440,-88,984,-50,18,-7
11080,-1472,-136,984,-51,17,-5
11085,-1416,-88,1008,-51,18,-6
11090,-1456,-64,1000,-50,18,-4
11095,-1408,-72,992,-50,18,-5
11100,-1416,-72,1008,-49,17,-5
11105,-1424,-104,992,-48,17,-5
11110,-1448,-56,1008,-49,17,-7
11115,-1432,-80,1000,-49,17,-5
11120,-1440,-48,984,-49,17,-5
11125,-1408,-96,1000,-51,17,-7
11130,-1408,-64,1008,-52,17,-7
11135,-1432,-80,1008,-51,17,-6
11140,-1456,-72,1000,-51,17,-7
11145,-1440,-64,1000,-49,17,-6
11150,-1456,-80,1040,-47,17,-6
11155,-1440,-72,968,-47,16,-7
11160,-1408,-160,1024,-46,15,-5
11165,-1440,-64,984,-46,14,-6
11170,-1424,-104,1000,-45,13,-6
11175,-1432,-88,984,-45,12,-4
11180,-1424,-72,1040,-46,12,-5
11185,-1432,-88,992,-46,13,-5
11190,-1432,-80,1008,-45,13,-4
11195,-1432,-80,1008,-44,16,-6
11200,-1424,-80,992,-44,17,-6
11205,-1432,-72,1000,-44,19,-5
11210,-1424,-80,1024,-44,19,-5
11215,-1408,-120,976,-45,20,-6
11220,-1416,-112,1008,-45,21,-6
11225,-1424,-88,1008,-47,22,-5
11230,-1440,-88,1000,-44,22,-7
11235,-1440,-80,1008,-45,21,-5
11240,-1456,-80,992,-42,20,-5
11245,-1448,-64,1016,-39,21,-4
11250,-1432,-88,1008,-37,19,-3
11255,-1448,-120,968,-37,18,-3
11260,-1432,-96,968,-37,18,-3
11265,-1432,-88,1000,-39,18,-2
11270,-1456,-48,1032,-39,18,-2
11275,-1440,-72,1024,-39,19,-3
11280,-1432,-64,1000,-39,19,-3
11285,-1416,-104,1024,-37,21,-2
11290,-1440,-112,1000,-36,21,-2
11295,-1424,-80,1032,-37,20,-2
11300,-1440,-64,1008,-36,21,-2
11305,-1408,-96,1016,-36,21,-2
11310,-1432,-64,1016,-38,21,-3
11315,-1416,-64,1008,-39,22,-4
11320,-1432,-72,1032,-39,21,-5
11325,-1400,-32,1056,-41,21,-5
11330,-1408,-96,1032,-40,18,-4
11335,-1448,-80,1016,-39,19,-4
11340,-1448,-56,1016,-39,19,-5
11345,-1416,-72,1016,-41,20,-5
11350,-1448,-64,984,-40,19,-5
11355,-1416,-88,1016,-40,18,-6
11360,-1408,-88,1008,-41,18,-5
11365,-1416,-80,1024,-43,20,-7
11370,-1448,-88,1008,-41,18,-6
11375,-1408,-80,1024,-43,19,-6
11380,-1440,-88,992,-44,19,-6
11385,-1432,-80,984,-43,20,-5
11390,-1424,-72,1040,-45,19,-4
11395,-1448,-88,992,-44,19,-6
11400,-1424,-72,984,-45,21,-6
11405,-1432,-96,1000,-46,21,-6
11410,-1408,-88,992,-46,21,-5
11415,-1424,-120,1024,-47,22,-4
11420,-1456,-64,1000,-48,21,-3
11425,-1416,-72,1024,-47,20,-2
11430,-1416,-104,1024,-49,21,-3
11435,-1408,-96,1008,-49,22,-2
11440,-1448,-64,992,-50,22,-3
11445,-1408,-104,1016,-50,23,-2
11450,-1408,-80,976,-50,22,-2
11455,-1416,-80,1032,-46,23,-2
11460,-1416,-72,1008,-47,23,-1
11465,-1432,-56,1000,-45,23,-2
11470,-1416,-96,1016,-44,21,-1
11475,-1424,-56,992,-44,19,-2
11480,-1424,-104,1000,-45,16,-3
11485,-1432,-72,1032,-44,14,-3
11490,-1448,-64,1016,-44,10,-4
11495,-1440,-56,1024,-44,9,-3
11500,-1432,-64,1000,-47,7,-5
11505,-1432,-48,1008,-46,6,-6
11510,-1416,-80,1024,-49,6,-6
11515,-1440,-80,1024,-49,5,-8
11520,-1432,-64,1024,-47,6,-9
11525,-1448,-88,984,-46,6,-8
11530,-1464,-48,1008,-46,7,-10
11535,-1432,-104,1016,-46,7,-11
11540,-1440,-104,976,-46,6,-10
11545,-1448,-88,1008,-44,6,-9
11550,-1448,-88,1008,-44,5,-11
11555,-1456,-104,1000,-43,7,-12
11560,-1432,-80,1016,-42,7,-11
11565,-1440,-88,1016,-42,7,-11
11570,-1440,-96,1024,-40,5,-11
11575,-1432,-80,1008,-39,5,-12
11580,-1432,-80,984,-38,5,-12
11585,-1424,-72,1000,-35,5,-12
11590,-1416,-80,1016,-35,3,-12
11595,-1456,-104,920,-32,1,-12
11600,-1448,-80,1000,-30,-2,-11
11605,-1448,-72,1024,-29,-3,-11
11610,-1448,-72,992,-26,-5,-10
11615,-1440,-96,1000,-25,-8,-11
11620,-1424,-88,1016,-23,-12,-10
11625,-1424,-88,1008,-20,-11,-9
11630,-1448,-80,1008,-18,-11,-10
11635,-1440,-88,976,-17,-12,-11
11640,-1432,-104,1000,-18,-13,-12
11645,-1456,-72,1024,-20,-16,-12
11650,-1488,-96,1032,-24,-19,-11
11655,-1488,-104,992,-28,-18,-2
11660,-1432,-104,1024,-38,-15,20
11665,-1400,-96,1008,-45,-7,34
11670,-1384,-48,1000,-39,-7,32
11675,-1384,-72,1000,-32,-11,9
11680,-1432,-64,1016,-31,-8,-3
11685,-1424,-80,984,-36,-5,-5
11690,-1424,-64,1016,-40,-2,-7
11695,-1400,-88,1024,-41,-1,-6
11700,-1408,-88,1048,-40,0,-5
11705,-1400,-40,1024,-43,0,-3
11710,-1400,-80,1024,-44,-1,-2
11715,-1408,-64,1016,-46,2,0
11720,-1392,-64,1016,-49,2,1
11725,-1408,-56,1048,-52,2,2
11730,-1392,-56,1016,-55,3,4
11735,-1416,-64,1040,-60,1,6
11740,-1376,-104,1008,-65,3,9
11745,-1384,-80,1032,-70,4,10
11750,-1400,-80,1032,-73,6,11
11755,-1392,-40,1096,-75,8,10
11760,-1432,-88,1032,-76,11,11
11765,-1384,-80,1048,-76,14,10
11770,-1416,-56,1024,-78,16,10
11775,-1408,-64,1048,-78,19,10
11780,-1400,-64,1040,-79,21,9
11785,-1416,-56,1024,-78,23,8
11790,-1432,-72,1024,-77,26,6
11795,-1440,-32,1008,-76,29,5
11800,-1440,-72,1016,-75,31,2
11805,-1424,-72,1016,-74,33,1
11810,-1424,-88,1008,-73,36,1
11815,-1360,-64,992,-70,38,-2
11820,-1432,-88,1024,-67,41,-3
11825,-1440,-104,1024,-63,42,-4
11830,-1440,-72,1016,-60,44,-6
11835,-1416,-88,1024,-58,45,-7
11840,-1432,-64,1008,-55,47,-10
11845,-1440,-64,1016,-53,47,-10
11850,-1416,-104,1000,-50,48,-11
11855,-1424,-72,1000,-49,48,-13
11860,-1408,-80,1024,-48,51,-14
11865,-1408,-80,1016,-47,48,-15
11870,-1440,-40,1056,-46,47,-16
11875,-1416,-80,1008,-45,46,-16
11880,-1440,-80,984,-45,45,-17
11885,-1432,-80,1016,-45,42,-17
11890,-1424,-96,992,-45,40,-16
11895,-1424,-72,1016,-44,38,-16
11900,-1432,-96,1000,-42,35,-16
11905,-1456,-96,1016,-41,34,-15
11910,-1424,-128,992,-41,32,-14
11915,-1440,-80,1008,-41,29,-15
11920,-1448,-88,976,-39,26,-13
11925,-1400,-96,1064,-37,23,-13
11930,-1456,-104,1000,-34,23,-11
11935,-1448,-80,1008,-32,21,-11
11940,-1448,-72,1024,-33,18,-12
11945,-1424,-80,984,-33,16,-10
11950,-1464,-80,992,-35,14,-8
11955,-1448,-56,1008,-37,13,-8
11960,-1432,-88,1000,-35,11,-8
11965,-1408,-96,1008,-35,9,-8
11970,-1416,-88,968,-35,9,-6
11975,-1432,-136,1000,-35,10,-4
11980,-1448,-104,984,-34,8,-4
11985,-1448,-80,992,-34,8,-3
11990,-1440,-80,1000,-34,8,-2
11995,-1448,-80,1000,-37,5,-1
12000,-1448,-80,1008,-38,6,-2
12005,-1432,-80,992,-37,6,-2
12010,-1424,-96,1008,-37,7,-1
12015,-1416,-80,1008,-39,7,1
12020,-1424,-56,1008,-39,6,0
12025,-1416,-48,1040,-39,7,1
12030,-1424,-80,992,-41,8,0
12035,-1432,-72,1008,-43,8,1
12040,-1408,-72,1008,-44,7,2
12045,-1400,-80,1016,-48,7,1
12050,-1448,-72,1024,-49,7,1
12055,-1432,-88,1024,-48,7,2
12060,-1432,-48,1016,-51,7,1
12065,-1424,-96,1016,-49,7,1
12070,-1432,-56,1024,-47,6,0
12075,-1424,-88,1016,-46,5,2
12080,-1368,-104,1016,-46,4,1
12085,-1408,-72,1032,-47,4,1
12090,-1408,-72,1016,-47,4,1
12095,-1408,-56,1000,-46,7,0
12100,-1408,-80,1024,-45,9,-1
12105,-1408,-80,1032,-44,10,-2
12110,-1392,-80,1032,-43,12,-3
12115,-1416,-72,1048,-44,12,-5
12120,-1400,-72,1008,-42,13,-5
12125,-1424,-64,1008,-42,15,-5
12130,-1400,-72,1016,-41,16,-7
12135,-1400,-56,1032,-41,16,-9
12140,-1392,-80,1032,-43,16,-9
12145,-1408,-88,1024,-41,17,-11
12150,-1424,-72,1024,-40,18,-12
12155,-1424,-88,1024,-40,19,-11
12160,-1424,-48,1008,-39,19,-13
12165,-1440,-80,1032,-40,21,-14
12170,-1408,-88,1000,-40,21,-12
12175,-1408,-80,1032,-39,21,-13
12180,-1432,-64,1040,-38,23,-13
12185,-1416,-80,1008,-40,23,-15
12190,-1424,-88,1024,-38,23,-13
12195,-1432,-72,1008,-38,23,-13
12200,-1416,-88,1024,-39,24,-14
12205,-1424,-48,1016,-39,24,-13
12210,-1440,-88,1008,-40,25,-13
12215,-1416,-80,1008,-41,24,-11
12220,-1424,-64,1024,-41,25,-11
12225,-1432,-80,1016,-42,25,-11
12230,-1408,-104,1016,-41,25,-10
12235,-1416,-32,1016,-39,25,-7
12240,-1424,-80,944,-41,22,-8
12245,-1416,-72,1024,-42,21,-8
12250,-1464,-72,1032,-43,21,-7
12255,-1416,-48,1008,-44,19,-8
12260,-1424,-96,1016,-45,20,-7
12265,-1432,-80,1040,-44,18,-6
12270,-1448,-64,1008,-46,17,-5
12275,-1424,-88,1016,-46,15,-5
12280,-1432,-80,992,-45,14,-4
12285,-1440,-64,1008,-47,12,-4
12290,-1424,-48,992,-47,11,-6
12295,-1424,-48,1040,-48,10,-4
12300,-1432,-104,1048,-49,7,-2
12305,-1432,-96,992,-50,8,-2
12310,-1424,-96,1008,-52,7,-2
12315,-1424,-72,1040,-53,6,-2
12320,-1432,-88,1000,-52,6,-2
12325,-1440,-64,992,-52,7,-1
12330,-1424,-96,1008,-51,9,-2
12335,-1416,-80,1024,-52,8,-1
12340,-1432,-72,1000,-53,7,-1
12345,-1416,-88,1016,-54,8,-3
12350,-1416,-80,1000,-52,9,-1
12355,-1432,-88,1032,-53,10,-3
12360,-1408,-64,1040,-53,10,-3
12365,-1424,-80,1016,-53,11,-3
12370,-1392,-88,1024,-51,12,-2
12375,-1416,-64,984,-52,14,-1
12380,-1432,-80,1000,-50,15,-1
12385,-1432,-96,1024,-52,15,-3
12390,-1432,-64,1024,-49,16,-3
12395,-1424,-72,1008,-49,15,-3
12400,-1424,-80,1016,-49,17,-4
12405,-1400,-64,1016,-46,18,-4
12410,-1448,-64,1016,-46,17,-3
12415,-1392,-80,992,-44,16,-3
12420,-1424,-56,1016,-44,17,-5
12425,-1424,-80,1024,-41,15,-6
12430,-1424,-32,984,-42,14,-7
12435,-1416,-96,1024,-42,14,-6
12440,-1448,-64,1024,-40,14,-7
12445,-1456,-80,1024,-41,13,-6
12450,-1440,-72,1008,-40,12,-6
12455,-1424,-48,1008,-40,13,-8
12460,-1392,-80,1016,-40,13,-8
12465,-1440,-88,968,-40,13,-8
12470,-1432,-64,1024,-39,13,-9
12475,-1440,-72,1040,-42,16,-10
12480,-1424,-48,1016,-41,15,-10
12485,-1432,-88,1024,-43,15,-8
12490,-1424,-64,1016,-42,17,-9
12495,-1416,-96,992,-43,17,-9
12500,-1440,-80,1048,-45,18,-9
12505,-1424,-96,976,-44,18,-9
12510,-1416,-72,1032,-45,18,-8
12515,-1416,-96,1024,-45,18,-8
12520,-1416,-120,1008,-44,18,-9
12525,-1416,-80,1016,-46,16,-9
12530,-1432,-80,984,-46,16,-9
12535,-1432,-64,1024,-46,16,-7
12540,-1416,-80,1016,-48,18,-6
12545,-1424,-88,992,-48,18,-7
12550,-1408,-72,1000,-49,17,-8
12555,-1432,-88,1008,-48,17,-7
12560,-1424,-80,1008,-49,17,-7
12565,-1464,-96,984,-50,17,-5
12570,-1432,-88,992,-51,17,-6
12575,-1440,-80,960,-51,17,-4
12580,-1416,-88,992,-52,13,-2
12585,-1432,-80,1008,-53,15,-2
12590,-1408,-80,1024,-53,17,-5
12595,-1424,-88,992,-53,16,-3
12600,-1416,-80,1016,-52,16,-5
12605,-1432,-80,992,-53,16,-6
12610,-1392,-104,1032,-52,16,-5
12615,-1432,-72,1024,-53,16,-4
12620,-1424,-56,1000,-54,15,-3
12625,-1432,-104,984,-50,13,-4
12630,-1432,-72,1008,-50,13,-5
12635,-1424,-72,1032,-49,14,-5
12640,-1408,-88,1016,-46,14,-4
12645,-1408,-104,1008,-47,12,-4
12650,-1416,-96,1008,-48,13,-4
12655,-1416,-88,1016,-46,11,-4
12660,-1432,-64,1056,-48,13,-5
12665,-1416,-32,1032,-47,13,-5
12670,-1432,-72,1016,-48,13,-5
12675,-1416,-88,1024,-48,13,-7
12680,-1424,-96,1024,-49,12,-6
12685,-1432,-80,1024,-48,12,-6
12690,-1408,-80,1024,-49,12,-5
12695,-1416,-96,1024,-46,13,-5
12700,-1400,-64,1000,-45,12,-5
12705,-1432,-72,1008,-48,14,-5
12710,-1432,-80,1016,-48,12,-7
12715,-1432,-80,1016,-50,12,-5
12720,-1432,-72,1024,-48,13,-6
12725,-1424,-88,1032,-46,14,-6
12730,-1408,-88,1024,-47,13,-6
12735,-1400,-72,1000,-46,15,-6
12740,-1440,-56,992,-46,17,-6
12745,-1424,-80,1016,-46,15,-5
12750,-1432,-64,1024,-46,15,-5
12755,-1432,-96,1016,-46,17,-7
12760,-1416,-80,992,-46,18,-6
12765,-1416,-88,1016,-48,16,-6
12770,-1416,-80,1032,-47,18,-6
12775,-1432,-56,1056,-48,18,-6
12780,-1416,-72,1024,-48,19,-6
12785,-1416,-104,984,-48,19,-5
12790,-1416,-72,1024,-47,19,-5
12795,-1456,-120,968,-49,19,-6
12800,-1416,-96,1008,-48,20,-6
12805,-1424,-72,1024,-48,20,-6
12810,-1408,-88,1008,-49,20,-6
12815,-1432,-72,1024,-48,20,-6
12820,-1416,-88,1016,-47,20,-5
12825,-1416,-104,1024,-46,20,-4
12830,-1456,-80,976,-46,20,-4
12835,-1424,-96,1032,-45,19,-4
12840,-1424,-72,1008,-46,17,-4
12845,-1432,-56,1048,-47,19,-4
12850,-1440,-72,960,-50,19,-4
12855,-1424,-96,1016,-48,19,-4
12860,-1416,-56,1024,-48,19,-4
12865,-1424,-48,1024,-48,20,-4
12870,-1424,-72,1024,-47,20,-5
12875,-1424,-88,1032,-48,21,-6
12880,-1424,-80,1016,-46,21,-6
12885,-1448,-72,968,-48,18,-7
12890,-1448,-72,968,-48,17,-6
12895,-1432,-88,1008,-48,17,-7
12900,-1440,-48,1024,-48,16,-8
12905,-1376,-88,1032,-48,17,-9
12910,-1424,-80,1016,-47,19,-10
12915,-1416,-88,1032,-46,19,-10
12920,-1424,-80,1040,-46,21,-11
12925,-1424,-96,1024,-46,23,-10
12930,-1424,-88,1016,-46,24,-11
12935,-1416,-112,1024,-46,25,-11
12940,-1424,-104,976,-45,28,-9
12945,-1424,-72,1000,-45,27,-10
12950,-1432,-88,1000,-46,27,-10
12955,-1432,-112,1032,-45,27,-7
12960,-1424,-104,1024,-44,26,-6
12965,-1440,-96,1016,-41,26,-5
12970,-1432,-96,1024,-38,23,-4
12975,-1416,-80,992,-37,22,-3
12980,-1432,-88,1016,-38,20,-2
12985,-1424,-80,1016,-39,17,-2
12990,-1432,-112,1024,-38,16,-2
12995,-1408,-64,1040,-38,14,0
13000,-1416,-112,1016,-37,13,1
13005,-1400,-96,1008,-38,13,0
13010,-1400,-48,1008,-38,14,0
13015,-1440,-72,1032,-39,13,0
13020,-1448,-64,1016,-36,13,-1
13025,-1424,-88,1016,-36,13,-1
13030,-1416,-80,1016,-36,12,-2
13035,-1440,-64,1000,-37,12,-2
13040,-1432,-56,1008,-35,11,-3
13045,-1440,-88,984,-39,11,-6
13050,-1408,-88,1024,-40,14,-6
13055,-1416,-88,1008,-39,13,-6
13060,-1432,-80,1024,-38,15,-7
13065,-1440,-72,968,-39,15,-9
13070,-1424,-88,992,-38,16,-9
13075,-1392,-88,1024,-37,15,-10
13080,-1440,-64,1000,-38,14,-10
13085,-1424,-72,1016,-38,13,-9
13090,-1424,-72,1024,-38,12,-9
13095,-1400,-88,1008,-38,11,-10
13100,-1424,-80,1008,-40,8,-9
13105,-1456,-80,1016,-42,7,-8
13110,-1408,-128,1008,-43,4,-9
13115,-1416,-48,1008,-45,3,-8
13120,-1376,-88,1024,-46,3,-7
13125,-1416,-104,1000,-48,2,-7
13130,-1408,-80,968,-48,2,-6
13135,-1424,-72,1040,-51,3,-6
13140,-1424,-88,1024,-52,3,-6
13145,-1408,-72,1024,-51,3,-6
13150,-1408,-96,1016,-54,4,-6
13155,-1416,-80,1008,-54,6,-6
13160,-1416,-64,992,-54,5,-7
13165,-1400,-72,992,-56,5,-7
13170,-1464,-72,984,-57,7,-7
13175,-1440,-80,1032,-56,7,-6
13180,-1424,-80,1024,-56,8,-6
13185,-1424,-72,1016,-55,10,-7
13190,-1424,-56,1024,-57,11,-7
13195,-1416,-72,1016,-57,13,-8
13200,-1440,-64,1008,-56,12,-7
13205,-1416,-80,1016,-56,14,-6
13210,-1400,-72,1024,-57,14,-6
13215,-1392,-104,1040,-57,15,-8
13220,-1408,-88,1016,-55,17,-7
13225,-1384,-104,1032,-56,17,-6
13230,-1376,-64,1016,-56,18,-5
13235,-1424,-112,1008,-55,19,-4
13240,-1408,-104,1024,-55,21,-3
13245,-1432,-96,1016,-56,21,-5
13250,-1400,-104,1040,-57,22,-4
13255,-1424,-96,1016,-54,22,-3
13260,-1408,-104,1024,-54,22,-3
13265,-1424,-72,1000,-53,22,-2
13270,-1424,-104,1032,-52,22,-4
13275,-1424,-48,1024,-53,23,-3
13280,-1424,-72,1016,-53,24,-3
13285,-1424,-104,1024,-53,25,-3
13290,-1408,-80,1040,-51,27,-4
13295,-1408,-88,1008,-51,26,-4
13300,-1424,-96,1016,-52,30,-3
13305,-1432,-104,1016,-50,30,-2
13310,-1416,-96,1016,-50,30,-4
13315,-1448,-88,1008,-48,32,-3
13320,-1424,-96,1016,-47,31,-5
13325,-1424,-104,984,-46,30,-5
13330,-1408,-96,1032,-45,30,-5
13335,-1416,-88,1024,-44,30,-5
13340,-1416,-40,1024,-42,28,-4
13345,-1456,-64,1016,-43,28,-5
13350,-1432,-80,1008,-43,28,-5
13355,-1440,-88,1032,-46,27,-5
13360,-1432,-72,1024,-44,26,-3
13365,-1408,-80,1008,-44,25,-4
13370,-1440,-72,1000,-46,24,-4
13375,-1424,-88,1024,-47,22,-3
13380,-1432,-80,1032,-46,20,-2
13385,-1448,-88,1000,-46,19,-4
13390,-1416,-88,1016,-48,21,-3
13395,-1448,-56,1032,-54,23,-1
13400,-1392,-80,1024,-61,24,16
13405,-1400,-64,1024,-59,20,10
13410,-1424,-80,1008,-56,20,4
13415,-1472,-72,1016,-61,22,6
13420,-1432,-104,1024,-66,25,20
13425,-1384,-88,976,-65,20,17
13430,-1408,-88,1024,-62,17,7
13435,-1432,-88,1016,-60,18,0
13440,-1464,-88,992,-59,16,-2
13445,-1400,-64,1000,-57,16,-2
13450,-1424,-64,1048,-59,18,-1
13455,-1416,-104,1008,-59,17,-2
13460,-1408,-64,1008,-60,15,-3
13465,-1424,-72,1016,-57,15,-3
13470,-1400,-72,1024,-59,16,-2
13475,-1432,-88,1024,-58,16,-3
13480,-1432,-88,1016,-57,14,-4
13485,-1432,-112,992,-56,16,-3
13490,-1424,-80,1016,-57,15,-4
13495,-1416,-96,992,-57,15,-2
13500,-1416,-64,1088,-57,15,-3
13505,-1408,-96,1000,-55,16,-2
13510,-1408,-88,1008,-53,16,-4
13515,-1416,-72,1016,-54,14,-4
13520,-1448,-72,1016,-53,13,-4
13525,-1424,-96,968,-52,13,-3
13530,-1416,-96,1032,-52,14,-5
13535,-1432,-72,1016,-54,15,-4
13540,-1400,-80,1024,-53,15,-4
13545,-1432,-112,1024,-52,16,-5
13550,-1448,-72,1024,-51,17,-5
13555,-1416,-80,1016,-51,16,-5
13560,-1424,-88,1032,-51,16,-5
13565,-1416,-80,992,-50,18,-3
13570,-1400,-96,1000,-50,18,-5
13575,-1440,-72,1016,-47,17,-4
13580,-1432,-80,1024,-47,17,-5
13585,-1432,-64,1008,-48,18,-4
13590,-1392,-96,1040,-46,18,-4
13595,-1416,-88,1032,-49,19,-6
13600,-1416,-96,1016,-47,20,-5
13605,-1440,-80,1024,-47,21,-6
13610,-1432,-32,1040,-46,21,-8
13615,-1392,-88,1016,-47,21,-8
13620,-1432,-72,1000,-46,22,-9
13625,-1416,-88,1016,-49,20,-8
13630,-1432,-96,992,-49,20,-7
13635,-1424,-96,1024,-50,21,-6
13640,-1424,-104,1056,-49,20,-6
13645,-1416,-112,1016,-48,21,-7
13650,-1416,-88,1008,-48,23,-5
13655,-1408,-72,1024,-48,23,-5
13660,-1424,-104,984,-49,25,-5
13665,-1400,-56,1088,-49,24,-5
13670,-1400,-104,1032,-49,24,-6
13675,-1432,-64,1008,-50,25,-6
13680,-1408,-88,1008,-47,25,-5
13685,-1416,-80,1056,-48,25,-6
13690,-1400,-96,1024,-47,25,-6
13695,-1456,-88,1032,-47,24,-7
13700,-1432,-88,1048,-45,25,-7
13705,-1408,-88,1016,-45,25,-7
13710,-1424,-104,1008,-44,23,-7
13715,-1424,-48,1048,-44,24,-7
13720,-1416,-96,1016,-45,24,-6
13725,-1408,-96,1008,-45,24,-7
13730,-1416,-88,1024,-44,24,-6
13735,-1416,-96,984,-44,22,-5
13740,-1424,-112,1024,-41,22,-6
13745,-1424,-80,1008,-38,20,-7
13750,-1440,-104,1016,-38,19,-7
13755,-1416,-64,1008,-37,18,-6
13760,-1416,-80,1008,-38,17,-6
13765,-1408,-104,1016,-38,17,-7
13770,-1448,-40,1000,-37,17,-5
13775,-1416,-88,1008,-33,16,-7
13780,-1456,-88,1008,-35,16,-6
13785,-1392,-80,992,-35,15,-7
13790,-1416,-104,1016,-34,16,-7
13795,-1424,-96,1032,-35,16,-5
13800,-1416,-88,1016,-35,17,-6
13805,-1440,-88,992,-36,16,-7
13810,-1416,-80,1008,-37,17,-7
13815,-1432,-80,1000,-36,18,-6
13820,-1424,-88,1040,-36,15,-6
13825,-1416,-88,1024,-38,14,-4
13830,-1416,-88,1024,-36,16,-2
13835,-1424,-96,1032,-34,16,-3
13840,-1432,-80,1008,-33,14,-2
13845,-1424,-96,1000,-30,14,-1
13850,-1440,-80,1016,-32,12,-1
13855,-1432,-64,1032,-31,11,-1
13860,-1432,-96,1032,-30,11,-1
13865,-1448,-72,992,-30,11,-1
13870,-1424,-88,1032,-31,14,0
13875,-1448,-40,1048,-33,14,0
13880,-1424,-72,1008,-33,16,-2
13885,-1392,-72,1024,-32,16,-3
13890,-1408,-88,1008,-33,16,-2
13895,-1416,-72,1024,-33,15,-1
13900,-1440,-80,1024,-32,14,-1
13905,-1432,-48,1032,-32,14,-3
13910,-1408,-56,1032,-35,13,-3
13915,-1440,-72,1024,-33,13,-5
13920,-1416,-72,1000,-36,13,-6
13925,-1424,-80,1016,-37,14,-5
13930,-1408,-88,992,-36,13,-6
13935,-1416,-96,1024,-37,14,-7
13940,-1456,-64,1032,-38,13,-6
13945,-1432,-72,1016,-38,13,-6
13950,-1424,-64,1016,-39,12,-7
13955,-1408,-88,1048,-39,13,-7
13960,-1416,-64,1024,-40,12,-8
13965,-1416,-96,1008,-41,12,-8
13970,-1408,-96,1024,-43,13,-9
13975,-1424,-80,1024,-43,14,-10
13980,-1424,-120,1016,-44,15,-7
13985,-1416,-88,1000,-44,14,-8
13990,-1416,-64,1008,-44,15,-9
13995,-1416,-168,1008,-45,14,-9
14000,-1432,-80,1016,-45,15,-9
14005,-1424,-80,1024,-45,15,-8
14010,-1408,-80,1016,-46,16,-8
14015,-1416,-96,1024,-47,15,-8
14020,-1432,-96,1016,-45,14,-8
14025,-1400,-88,1024,-45,15,-8
14030,-1400,-104,1008,-46,15,-7
14035,-1416,-80,1008,-46,13,-7
14040,-1408,-96,1016,-45,14,-7
14045,-1408,-104,1056,-45,15,-8
14050,-1424,-64,1016,-46,14,-8
14055,-1424,-96,1024,-46,14,-6
14060,-1432,-80,1024,-46,13,-4
14065,-1432,-88,976,-46,13,-5
14070,-1416,-80,1016,-48,13,-6
14075,-1424,-72,1024,-49,12,-5
14080,-1416,-64,992,-49,12,-4
14085,-1424,-88,1008,-49,13,-3
14090,-1456,-72,1008,-48,12,-3
14095,-1424,-72,1056,-48,13,-6
14100,-1392,-64,1016,-49,15,-3
14105,-1400,-80,1008,-51,14,-4
14110,-1408,-80,1016,-50,15,-4
14115,-1408,-88,1056,-50,16,-6
14120,-1424,-88,1000,-50,16,-5
14125,-1416,-104,1024,-49,16,-4
14130,-1424,-80,1016,-49,15,-5
14135,-1416,-104,1040,-48,14,-5
14140,-1416,-88,1008,-47,14,-4
14145,-1448,-72,1008,-47,15,-4
14150,-1416,-96,1016,-47,16,-4
14155,-1456,-112,1040,-44,15,-2
14160,-1424,-112,1024,-44,16,-3
14165,-1424,-80,1016,-42,16,-5
14170,-1432,-80,1016,-43,17,-5
14175,-1424,-72,984,-43,16,-6
14180,-1416,-80,1024,-41,16,-5
14185,-1424,-72,1024,-41,16,-6
14190,-1432,-72,1008,-40,16,-6
14195,-1424,-64,1000,-39,16,-5
14200,-1416,-80,1024,-38,15,-6
14205,-1456,-64,1000,-39,13,-5
14210,-1424,-80,960,-38,15,-5
14215,-1440,-72,1016,-36,15,-5
14220,-1440,-80,1000,-37,13,-6
14225,-1424,-88,1008,-38,14,-6
14230,-1432,-88,1016,-36,12,-5
14235,-1408,-96,1000,-38,12,-6
14240,-1416,-80,1016,-40,13,-7
14245,-1440,-80,1000,-39,11,-6
14250,-1440,-72,1040,-38,13,-7
14255,-1432,-64,1008,-39,12,-8
14260,-1432,-96,1000,-40,11,-8
14265,-1400,-104,1032,-41,11,-7
14270,-1440,-72,1016,-42,12,-7
14275,-1408,-80,1008,-43,10,-7
14280,-1424,-88,1008,-43,10,-5
14285,-1408,-96,1032,-45,11,-7
14290,-1416,-112,1032,-44,9,-6
14295,-1408,-88,1016,-44,10,-6
14300,-1424,-72,1024,-45,11,-7
14305,-1424,-80,1016,-44,11,-5
14310,-1392,-80,1016,-47,12,-6
14315,-1424,-72,1048,-46,12,-7
14320,-1472,-96,1032,-44,12,-6
14325,-1416,-64,1016,-44,10,-6
14330,-1432,-96,1024,-45,11,-6
14335,-1416,-56,1024,-46,11,-6
14340,-1408,-88,1000,-45,11,-6
14345,-1432,-64,1016,-46,12,-6
14350,-1408,-80,1032,-48,11,-5
14355,-1424,-96,1016,-49,11,-6
14360,-1440,-56,1016,-46,11,-5
14365,-1440,-80,1024,-48,13,-6
14370,-1424,-80,1024,-47,12,-6
14375,-1416,-56,976,-47,12,-6
14380,-1408,-88,1008,-48,12,-7
14385,-1448,-88,1024,-47,11,-6
14390,-1416,-80,1024,-46,12,-5
14395,-1416,-80,1040,-47,11,-6
14400,-1424,-96,1008,-48,12,-5
14405,-1432,-80,1000,-45,11,-5
14410,-1416,-120,1024,-44,11,-5
14415,-1424,-80,1016,-44,12,-6
14420,-1416,-80,984,-45,12,-4
14425,-1432,-104,984,-45,13,-6
14430,-1464,-56,960,-45,13,-6
14435,-1392,-88,1024,-44,12,-5
14440,-1408,-72,1016,-45,13,-6
14445,-1408,-80,1024,-43,13,-6
14450,-1424,-88,1008,-44,13,-5
14455,-1424,-104,1008,-42,13,-6
14460,-1416,-88,1008,-43,13,-7
14465,-1424,-88,1000,-43,13,-7
14470,-1424,-56,1024,-44,13,-8
14475,-1432,-96,992,-46,13,-7
14480,-1424,-80,1008,-45,14,-8
14485,-1424,-56,1032,-45,14,-6
14490,-1416,-104,1016,-45,14,-6
14495,-1408,-80,1024,-44,14,-6
14500,-1408,-88,1032,-45,13,-6
14505,-1416,-80,1000,-46,13,-7
14510,-1424,-80,1024,-46,12,-8
14515,-1416,-56,1048,-45,11,-6
14520,-1424,-56,1032,-46,13,-6
14525,-1424,-72,1032,-47,14,-7
14530,-1424,-56,1000,-46,13,-6
14535,-1416,-80,1016,-45,15,-6
14540,-1424,-88,1024,-46,13,-7
14545,-1416,-104,1024,-46,13,-7
14550,-1424,-64,1016,-44,14,-6
14555,-1400,-104,1024,-44,14,-7
14560,-1416,-104,1008,-45,14,-7
14565,-1416,-112,1024,-44,15,-6
14570,-1416,-96,1032,-44,16,-6
14575,-1416,-72,1024,-45,17,-7
14580,-1400,-112,1016,-42,15,-7
14585,-1440,-96,1016,-40,15,-7
14590,-1424,-80,1000,-40,16,-7
14595,-1424,-96,1024,-39,15,-6
14600,-1408,-80,1024,-41,14,-8
14605,-1408,-96,1024,-40,14,-7
14610,-1424,-64,1008,-41,15,-6
14615,-1408,-72,1008,-43,15,-7
14620,-1392,-96,992,-41,13,-7
14625,-1432,-88,1032,-42,15,-5
14630,-1416,-80,1008,-44,16,-6
14635,-1432,-104,984,-44,15,-5
14640,-1432,-72,1016,-43,13,-6
14645,-1448,-120,1000,-44,13,-5
14650,-1408,-88,1016,-44,13,-6
14655,-1424,-96,1024,-44,12,-5
14660,-1416,-88,1016,-44,11,-6
14665,-1416,-88,1016,-45,12,-6
14670,-1416,-104,1032,-45,12,-7
14675,-1408,-104,1024,-44,12,-8
14680,-1432,-96,1016,-44,13,-7
14685,-1424,-88,1024,-46,15,-7
14690,-1424,-80,1008,-44,16,-7
14695,-1416,-128,1024,-42,18,-8
14700,-1440,-80,984,-41,18,-7
14705,-1424,-80,1016,-39,18,-6
14710,-1408,-104,1024,-39,18,-6
14715,-1432,-88,1032,-38,19,-6
14720,-1416,-96,1016,-39,19,-7
14725,-1432,-88,1024,-38,17,-6
14730,-1416,-96,1032,-35,18,-6
14735,-1400,-120,1024,-33,16,-6
14740,-1424,-120,976,-31,16,-7
14745,-1424,-112,992,-30,13,-4
14750,-1416,-88,1016,-31,13,-4
14755,-1408,-104,1032,-31,12,-4
14760,-1432,-64,1024,-31,13,-5
14765,-1408,-96,1008,-30,12,-6
14770,-1424,-80,1000,-32,13,-5
14775,-1440,-72,1016,-30,14,-4
14780,-1384,-64,1008,-31,14,-2
14785,-1416,-48,1032,-31,16,-4
14790,-1432,-64,1008,-29,17,-4
14795,-1440,-72,1000,-30,20,-5
14800,-1400,-64,1024,-32,17,-5
14805,-1432,-48,1064,-30,16,-4
14810,-1440,-88,1016,-30,15,-5
14815,-1432,-72,1032,-31,15,-6
14820,-1424,-56,1016,-33,14,-7
14825,-1432,-64,1008,-35,14,-6
14830,-1448,-48,1032,-35,14,-8
14835,-1416,-72,1024,-36,16,-7
14840,-1408,-96,1032,-38,15,-8
14845,-1400,-72,1024,-41,17,-6
14850,-1424,-88,1032,-41,16,-6
14855,-1408,-72,1032,-40,15,-6
14860,-1408,-112,1016,-40,15,-7
14865,-1416,-64,992,-42,14,-6
14870,-1416,-64,1040,-44,15,-5
14875,-1424,-80,1016,-45,15,-6
14880,-1416,-72,1032,-45,14,-6
14885,-1440,-64,1024,-47,14,-6
14890,-1424,-40,1016,-48,16,-7
14895,-1408,-72,1024,-48,15,-7
14900,-1424,-88,1016,-49,16,-6
14905,-1432,-80,1008,-48,16,-5
14910,-1440,-72,1032,-47,16,-5
14915,-1432,-72,1032,-46,17,-6
14920,-1376,-88,1048,-46,15,-6
14925,-1408,-80,992,-47,15,-6
14930,-1424,-64,1024,-47,15,-6
14935,-1424,-56,1008,-47,16,-7
14940,-1392,-96,1024,-47,15,-7
14945,-1408,-96,1016,-49,15,-7
14950,-1408,-80,1016,-47,15,-7
14955,-1408,-64,1024,-48,15,-7
14960,-1424,-80,1000,-48,13,-7
14965,-1416,-72,1048,-49,14,-6
14970,-1416,-80,976,-50,14,-6
14975,-1400,-96,1032,-50,12,-6
14980,-1440,-72,1024,-49,13,-6
14985,-1400,-56,1000,-49,13,-4
14990,-1424,-88,1008,-53,13,-5
14995,-1424,-96,1016,-52,12,-5
