timestamp,accel_x,accel_y,accel_z,gyro_x,gyro_y,gyro_z
0,8,-2040,128,-6,61,0
5,40,-2048,160,-8,59,0
10,16,-2040,152,-9,60,-1
15,32,-2040,160,-10,61,-3
20,48,-2040,168,-9,61,-3
25,32,-2032,176,-9,62,-3
30,24,-2032,176,-10,62,-3
35,32,-2040,160,-9,63,-3
40,24,-2048,184,-9,63,-3
45,8,-2032,176,-8,64,-3
50,32,-2024,184,-8,64,-3
55,8,-2016,152,-10,65,-3
60,8,-2032,184,-9,64,-3
65,32,-2032,168,-10,63,-1
70,8,-2064,200,-9,64,-2
75,-24,-2056,208,-8,62,0
80,8,-2040,192,-9,61,-1
85,24,-2040,192,-9,60,-1
90,32,-2024,168,-9,61,-1
95,8,-2024,176,-8,60,-2
100,0,-2040,160,-9,62,-2
105,32,-2032,176,-10,63,-2
110,8,-2040,192,-10,63,-2
115,16,-2032,184,-11,65,-2
120,16,-2032,176,-11,65,-2
125,48,-2040,192,-13,65,-2
130,16,-2048,168,-14,65,-3
135,8,-2000,152,-14,65,-3
140,16,-2016,168,-15,63,-2
145,8,-2032,168,-15,64,-3
150,16,-2032,184,-18,64,-4
155,0,-2024,176,-19,62,-3
160,0,-2024,184,-19,62,-2
165,24,-2048,176,-20,64,-2
170,24,-2056,160,-20,63,-2
175,0,-2040,168,-19,64,0
180,24,-2040,168,-19,64,-1
185,8,-2048,104,-18,64,-1
190,24,-2016,160,-17,65,-1
195,8,-2040,168,-17,65,-2
200,0,-2016,192,-17,65,-3
205,32,-2008,160,-17,67,-3
210,24,-2024,168,-18,68,-4
215,16,-2024,160,-18,68,-4
220,16,-2024,168,-19,67,-4
225,8,-2040,152,-19,68,-5
230,24,-2040,176,-22,69,-5
235,8,-2056,160,-22,70,-6
240,8,-2032,160,-23,70,-6
245,24,-2040,160,-24,72,-6
250,24,-2048,136,-23,73,-6
255,32,-2064,168,-22,75,-5
260,16,-2040,160,-20,77,-6
265,32,-2080,176,-16,77,-4
270,16,-2064,168,-11,77,-4
275,8,-2024,176,-8,77,-4
280,16,-2040,152,-4,75,-4
285,0,-2024,168,-1,74,-4
290,40,-2040,144,2,72,-4
295,32,-2064,168,3,73,-3
300,24,-2024,160,3,72,-5
305,32,-2032,184,2,71,-5
310,8,-2024,168,0,71,-6
315,8,-2024,144,-3,70,-6
320,32,-2048,176,-7,72,-7
325,24,-2016,176,-11,74,-8
330,16,-2024,184,-15,76,-7
335,24,-2048,160,-18,77,-7
340,8,-2024,184,-21,77,-5
345,24,-2016,160,-23,78,-6
350,32,-2056,160,-26,78,-6
355,16,-2032,168,-28,78,-5
360,16,-2008,160,-29,78,-4
365,8,-2032,168,-31,76,-3
370,16,-2032,160,-33,76,-3
375,16,-2032,152,-33,77,-3
380,8,-2040,192,-34,78,-3
385,8,-2024,176,-35,78,-1
390,32,-2048,160,-37,79,0
395,16,-2056,152,-37,78,-2
400,16,-2032,144,-37,79,-3
405,16,-2056,144,-37,80,-3
410,16,-2032,184,-36,82,-5
415,8,-2040,160,-35,82,-4
420,8,-2040,152,-35,80,-4
425,32,-2032,152,-36,80,-3
430,8,-2040,152,-37,81,-4
435,8,-2032,152,-38,81,-4
440,8,-2024,160,-39,82,-5
445,16,-2008,168,-42,82,-6
450,8,-2032,152,-45,82,-6
455,8,-2064,160,-46,83,-6
460,24,-2040,160,-49,85,-7
465,8,-2040,128,-51,86,-8
470,8,-2032,120,-52,86,-8
475,8,-2048,136,-55,85,-9
480,8,-2032,152,-54,85,-8
485,16,-2032,136,-52,85,-10
490,24,-2032,136,-54,83,-9
495,32,-2032,152,-54,80,-9
500,16,-2024,144,-53,78,-7
505,32,-2024,168,-53,77,-8
510,32,-2024,136,-55,75,-7
515,64,-2080,152,-55,77,-8
520,32,-2024,136,-58,77,-6
525,24,-2016,128,-61,76,-7
530,8,-2056,160,-65,76,-6
535,16,-2056,112,-71,74,-6
540,24,-2048,136,-77,75,-8
545,8,-2056,120,-81,76,-6
550,16,-2040,112,-86,75,-6
555,16,-2048,144,-89,74,-5
560,8,-2080,112,-93,72,-3
565,8,-2032,120,-94,72,-3
570,16,-2040,112,-97,70,-1
575,16,-2040,128,-100,68,-1
580,16,-2040,128,-102,67,0
585,0,-2048,88,-102,65,3
590,8,-2048,120,-104,62,5
595,32,-2048,120,-104,61,7
600,24,-2032,80,-107,57,8
605,8,-2040,96,-108,55,10
610,8,-2048,112,-113,52,12
615,24,-2040,96,-114,51,13
620,32,-2120,128,-117,49,14
625,24,-2056,104,-119,47,15
630,32,-2048,112,-121,43,16
635,16,-2064,136,-122,43,18
640,24,-2040,104,-123,42,18
645,16,-2064,128,-124,39,20
650,8,-2040,120,-125,39,21
655,8,-2032,96,-126,36,23
660,0,-2048,104,-125,36,26
665,8,-2048,112,-126,35,26
670,8,-2064,80,-128,32,26
675,8,-2064,72,-130,30,27
680,24,-2040,88,-131,30,28
685,0,-2056,80,-132,28,31
690,0,-2032,96,-132,26,30
695,0,-2024,80,-132,23,30
700,0,-2040,104,-133,23,30
705,0,-2016,112,-135,21,28
710,8,-2048,72,-137,21,30
715,0,-2024,120,-137,20,29
720,16,-2048,80,-138,18,28
725,0,-2008,96,-138,16,27
730,24,-2024,136,-139,14,24
735,8,-2048,72,-140,13,24
740,16,-2024,88,-141,11,22
745,16,-2032,64,-143,9,24
750,8,-2024,88,-143,7,25
755,16,-2024,104,-145,7,25
760,8,-2016,96,-146,6,26
765,0,-2024,88,-149,3,24
770,24,-2040,72,-154,2,20
775,0,-2016,104,-160,2,21
780,24,-2032,72,-163,2,21
785,16,-2040,72,-167,2,21
790,16,-2048,72,-170,1,22
795,0,-2040,32,-171,1,24
800,24,-2032,64,-172,0,22
805,16,-2056,80,-173,-3,21
810,0,-2024,40,-174,-6,20
815,0,-2040,72,-175,-8,19
820,0,-2024,32,-175,-9,21
825,0,-2024,56,-176,-13,19
830,8,-2048,48,-176,-13,19
835,0,-2024,56,-177,-13,19
840,96,-2016,24,-181,-14,15
845,0,-2016,40,-186,-15,14
850,24,-2000,64,-190,-14,13
855,32,-2040,64,-194,-16,11
860,16,-2024,32,-199,-16,7
865,8,-2048,16,-200,-16,10
870,8,-2032,56,-200,-16,7
875,8,-2032,24,-201,-17,6
880,8,-2064,32,-203,-17,7
885,0,-2024,40,-205,-18,8
890,8,-2024,56,-208,-18,5
895,0,-2040,48,-210,-20,4
900,0,-2040,40,-210,-18,6
905,0,-2048,32,-208,-16,8
910,0,-2016,-8,-209,-16,7
915,0,-2016,40,-210,-19,5
920,16,-2024,32,-211,-20,4
925,8,-2016,16,-210,-19,7
930,8,-2016,8,-210,-20,4
935,0,-2016,-24,-213,-20,1
940,-16,-2024,-8,-219,-22,-3
945,-8,-2016,-16,-223,-20,-1
950,48,-2032,-16,-229,-18,-1
955,0,-2032,-32,-235,-17,-4
960,8,-2032,-40,-244,-18,-7
965,0,-2024,-24,-251,-19,-11
970,0,-2032,-32,-257,-19,-10
975,-8,-2016,-24,-263,-19,-15
980,0,-2008,-24,-271,-20,-22
985,0,-2024,-32,-280,-21,-25
990,-8,-2016,16,-284,-21,-28
995,0,-2024,-56,-287,-22,-28
1000,8,-2040,-32,-290,-21,-30
1005,-24,-2040,-48,-293,-22,-33
1010,0,-2016,-32,-295,-23,-37
1015,0,-2016,-56,-295,-24,-41
1020,0,-2008,-72,-297,-24,-45
1025,-16,-2008,-56,-299,-27,-47
1030,0,-2032,-72,-301,-30,-51
1035,-16,-2016,-72,-303,-33,-53
1040,-24,-2000,-88,-304,-37,-55
1045,-32,-2008,-96,-308,-39,-58
1050,-16,-2024,-88,-311,-44,-59
1055,-24,-2032,-120,-315,-49,-64
1060,-40,-2024,-80,-319,-55,-66
1065,-48,-2008,-56,-323,-58,-69
1070,-24,-2032,-80,-323,-63,-71
1075,-32,-2016,-88,-324,-65,-72
1080,-24,-2016,-88,-322,-66,-73
1085,0,-2024,-104,-318,-69,-74
1090,0,-2032,-104,-314,-70,-76
1095,0,-2032,-136,-313,-72,-81
1100,8,-2048,-104,-312,-70,-85
1105,16,-2016,-96,-312,-68,-87
1110,8,-2024,-112,-309,-64,-86
1115,16,-2040,-112,-310,-61,-88
1120,8,-2024,-120,-313,-59,-93
1125,16,-2048,-128,-317,-57,-95
1130,48,-2032,-152,-321,-54,-94
1135,8,-2032,-128,-323,-48,-93
1140,32,-2040,-104,-323,-45,-93
1145,48,-2024,-168,-327,-40,-97
1150,24,-2016,-144,-329,-36,-97
1155,56,-2032,-160,-327,-27,-91
1160,32,-2040,-200,-322,-20,-85
1165,16,-2056,-160,-317,-9,-76
1170,-8,-2024,-160,-317,-7,-82
1175,8,-1992,-184,-315,-9,-90
1180,8,-2032,-160,-313,-8,-97
1185,8,-2016,-184,-311,-8,-107
1190,16,-2016,-152,-308,-5,-110
1195,8,-2000,-160,-304,-1,-112
1200,16,-2016,-152,-298,2,-114
1205,32,-2048,-152,-291,6,-116
1210,48,-2056,-168,-286,10,-119
1215,64,-2072,-168,-278,15,-121
1220,48,-2056,-160,-272,20,-123
1225,64,-2064,-160,-265,25,-126
1230,56,-2088,-160,-260,30,-128
1235,56,-2072,-152,-255,35,-128
1240,48,-2056,-168,-249,40,-129
1245,80,-2056,-160,-242,48,-127
1250,112,-2048,-168,-236,55,-128
1255,80,-2024,-160,-233,63,-130
1260,96,-2016,-184,-229,70,-130
1265,88,-2008,-184,-228,77,-130
1270,88,-2016,-192,-226,86,-128
1275,88,-2016,-184,-226,95,-130
1280,72,-2016,-216,-225,104,-129
1285,72,-2000,-224,-224,113,-134
1290,88,-1992,-216,-221,122,-134
1295,96,-2008,-208,-221,131,-140
1300,72,-2000,-224,-223,140,-142
1305,88,-2040,-216,-222,151,-144
1310,96,-2040,-184,-227,159,-149
1315,80,-2024,-200,-230,166,-151
1320,88,-2064,-224,-228,175,-150
1325,72,-2048,-208,-225,183,-152
1330,96,-2040,-224,-221,195,-150
1335,136,-2064,-224,-217,203,-146
1340,96,-2048,-240,-211,212,-142
1345,96,-2032,-240,-206,221,-138
1350,104,-2040,-272,-201,228,-136
1355,120,-2000,-248,-203,233,-137
1360,104,-2000,-264,-204,237,-132
1365,96,-1984,-296,-205,240,-127
1370,104,-2000,-288,-205,245,-124
1375,80,-1992,-320,-205,250,-118
1380,64,-1976,-312,-207,253,-113
1385,8,-1960,-360,-214,253,-119
1390,56,-1968,-312,-224,250,-118
1395,56,-1976,-296,-236,249,-116
1400,48,-1984,-312,-242,251,-111
1405,64,-1992,-312,-248,250,-111
1410,40,-2000,-320,-256,250,-108
1415,64,-2040,-320,-263,247,-107
1420,64,-2032,-280,-269,245,-103
1425,64,-2024,-312,-273,246,-99
1430,56,-2024,-304,-272,246,-90
1435,72,-2064,-320,-266,243,-83
1440,80,-2056,-288,-259,239,-77
1445,72,-2032,-304,-250,233,-70
1450,72,-2016,-328,-242,226,-62
1455,72,-2032,-344,-235,219,-53
1460,88,-1992,-304,-227,213,-44
1465,96,-2008,-336,-221,204,-36
1470,72,-1984,-336,-218,196,-27
1475,88,-1992,-368,-214,189,-20
1480,88,-1960,-296,-209,182,-12
1485,72,-1992,-320,-210,174,-8
1490,64,-2024,-336,-212,163,-7
1495,64,-1984,-280,-217,149,-9
1500,72,-2000,-312,-222,139,-11
1505,48,-2032,-328,-225,122,-12
1510,56,-2032,-296,-226,108,-13
1515,16,-2016,-288,-227,94,-14
1520,16,-2032,-264,-228,79,-12
1525,24,-2048,-264,-224,65,-10
1530,24,-2048,-272,-220,55,-9
1535,8,-2048,-280,-216,44,-9
1540,24,-2072,-248,-213,35,-11
1545,32,-2080,-288,-212,28,-12
1550,16,-2080,-320,-211,25,-16
1555,48,-2096,-336,-211,22,-19
1560,80,-2120,-312,-209,21,-25
1565,88,-2136,-304,-206,19,-29
1570,96,-2136,-320,-203,18,-35
1575,136,-2152,-304,-199,16,-42
1580,128,-2136,-304,-193,14,-48
1585,160,-2144,-336,-186,10,-51
1590,168,-2144,-312,-181,10,-55
1595,152,-2120,-320,-172,7,-55
1600,128,-2080,-312,-163,6,-57
1605,168,-2112,-328,-152,6,-56
1610,184,-2128,-288,-141,7,-56
1615,200,-2120,-296,-131,7,-57
1620,200,-2096,-296,-121,9,-57
1625,176,-2096,-304,-109,11,-56
1630,184,-2136,-296,-99,13,-55
1635,192,-2136,-304,-87,17,-53
1640,184,-2144,-304,-78,19,-50
1645,200,-2144,-320,-68,24,-47
1650,200,-2144,-320,-60,29,-44
1655,208,-2136,-336,-52,34,-41
1660,168,-2136,-328,-42,37,-38
1665,184,-2112,-328,-35,41,-36
1670,192,-2136,-352,-27,46,-33
1675,184,-2080,-360,-19,50,-29
1680,192,-2104,-328,-8,54,-28
1685,168,-2056,-336,3,58,-25
1690,176,-2064,-376,14,62,-23
1695,160,-2040,-328,25,65,-20
1700,136,-2008,-344,33,68,-20
1705,120,-2024,-304,36,70,-20
1710,120,-2008,-352,36,73,-23
1715,128,-1992,-360,37,75,-22
1720,136,-1992,-376,35,78,-23
1725,120,-2000,-384,31,80,-23
1730,144,-2000,-384,29,82,-23
1735,136,-2000,-392,29,83,-21
1740,160,-1984,-360,30,86,-15
1745,136,-1984,-408,33,90,-10
1750,152,-2000,-416,30,90,-10
1755,160,-1992,-344,24,91,-9
1760,160,-1992,-376,21,91,-3
1765,136,-1992,-384,20,91,-1
1770,152,-2016,-400,18,89,-2
1775,144,-1984,-376,17,88,-3
1780,160,-2000,-400,20,89,0
1785,168,-2024,-376,29,89,3
1790,184,-2016,-360,34,90,3
1795,168,-2000,-368,41,89,5
1800,160,-1992,-368,43,89,2
1805,152,-1992,-384,37,88,-7
1810,160,-2008,-384,29,87,-15
1815,80,-2000,-288,22,87,-18
1820,120,-2000,-360,20,85,-20
1825,136,-2008,-376,16,83,-23
1830,136,-2016,-352,14,83,-25
1835,136,-2008,-368,14,81,-25
1840,104,-2016,-384,15,80,-26
1845,120,-2024,-384,15,79,-26
1850,96,-2016,-344,16,77,-26
1855,88,-2016,-376,17,74,-28
1860,96,-2024,-360,19,70,-27
1865,128,-2064,-360,22,66,-29
1870,104,-2064,-376,25,61,-30
1875,72,-2072,-368,28,54,-30
1880,88,-2072,-336,31,48,-32
1885,72,-2072,-360,35,41,-30
1890,56,-2104,-336,36,38,-29
1895,96,-2128,-360,39,36,-28
1900,72,-2104,-344,41,33,-27
1905,88,-2080,-400,43,35,-27
1910,88,-2064,-344,46,38,-26
1915,104,-2048,-384,47,42,-27
1920,88,-2032,-400,49,46,-29
1925,96,-2008,-336,51,50,-29
1930,112,-2016,-400,52,52,-28
1935,112,-1992,-368,52,52,-26
1940,96,-1984,-368,53,53,-24
1945,112,-1984,-336,54,54,-23
1950,128,-1976,-384,53,56,-23
1955,136,-1984,-344,50,58,-21
1960,128,-1992,-376,48,60,-18
1965,120,-2024,-360,45,62,-15
1970,152,-2032,-360,43,66,-13
1975,144,-2024,-344,42,70,-11
1980,128,-2032,-344,41,76,-8
1985,160,-2040,-376,41,81,-5
1990,192,-2072,-368,42,87,0
1995,144,-2040,-392,40,91,0
2000,152,-2032,-360,39,96,0
2005,160,-2040,-384,36,98,1
2010,168,-2040,-376,38,101,-2
2015,160,-2008,-360,39,103,-1
2020,160,-2016,-400,43,103,2
2025,144,-2000,-360,47,103,4
2030,160,-1992,-384,55,107,7
2035,136,-1976,-384,63,110,9
2040,112,-1976,-360,69,113,10
2045,136,-1984,-376,67,113,8
2050,120,-1984,-384,63,114,6
2055,136,-1976,-376,60,118,7
2060,128,-1992,-344,57,120,3
2065,104,-1992,-368,52,123,0
2070,120,-1992,-336,49,123,-2
2075,112,-1992,-368,46,123,-4
2080,168,-1992,-376,45,123,-8
2085,144,-2008,-344,46,122,-11
2090,168,-2016,-360,48,122,-11
2095,152,-2008,-376,51,123,-13
2100,176,-1976,-360,52,123,-15
2105,176,-1968,-368,51,121,-22
2110,168,-1968,-384,46,120,-27
2115,160,-1960,-360,41,117,-30
2120,168,-1952,-352,35,116,-34
2125,160,-1936,-360,29,116,-40
2130,168,-1912,-352,21,115,-45
2135,168,-1904,-368,16,117,-49
2140,136,-1952,-424,11,119,-51
2145,184,-1928,-376,9,120,-54
2150,168,-1920,-352,6,123,-57
2155,192,-1936,-328,1,125,-61
2160,200,-1968,-352,-4,127,-68
2165,192,-1984,-344,-7,129,-72
2170,216,-2000,-328,-7,129,-72
2175,224,-2000,-320,-7,127,-72
2180,256,-2032,-328,-4,124,-74
2185,232,-2024,-328,0,121,-73
2190,264,-2032,-328,6,118,-72
2195,240,-2072,-320,13,114,-69
2200,264,-2056,-336,20,111,-67
2205,248,-2048,-376,23,110,-66
2210,248,-2032,-360,25,109,-64
2215,216,-2024,-360,26,106,-67
2220,216,-2000,-376,23,103,-68
2225,208,-1976,-344,22,101,-68
2230,168,-1984,-328,23,99,-71
2235,152,-1992,-368,20,93,-73
2240,168,-1984,-304,16,86,-78
2245,152,-1976,-312,12,82,-83
2250,152,-1976,-344,11,80,-84
2255,152,-1968,-312,9,75,-88
2260,160,-1984,-312,2,72,-95
2265,136,-1984,-336,-5,68,-99
2270,168,-1992,-336,-14,65,-104
2275,176,-1984,-304,-23,63,-106
2280,192,-2000,-360,-31,58,-107
2285,184,-2008,-336,-36,54,-107
2290,184,-1984,-352,-39,52,-108
2295,200,-1976,-344,-44,47,-107
2300,176,-1984,-352,-46,44,-104
2305,200,-1976,-360,-47,43,-100
2310,200,-1984,-384,-46,42,-94
2315,192,-1984,-320,-45,40,-92
2320,200,-2008,-328,-46,42,-91
2325,240,-2000,-336,-47,44,-89
2330,240,-2008,-328,-44,44,-81
2335,248,-1992,-304,-37,46,-78
2340,200,-1992,-344,-34,43,-82
2345,208,-1984,-312,-37,41,-90
2350,248,-1992,-304,-41,41,-95
2355,248,-2016,-328,-41,44,-100
2360,280,-2048,-304,-36,47,-101
2365,248,-2008,-304,-30,52,-107
2370,240,-2000,-312,-27,55,-111
2375,280,-2008,-312,-23,59,-110
2380,248,-2008,-312,-15,63,-106
2385,256,-2008,-344,-7,67,-100
2390,272,-2024,-312,-3,69,-98
2395,272,-1992,-352,-2,71,-96
2400,272,-1992,-320,-4,74,-96
2405,256,-1984,-344,-7,77,-93
2410,264,-1984,-312,-8,81,-88
2415,248,-2000,-312,-8,82,-88
2420,240,-1976,-344,-5,85,-81
2425,248,-2000,-320,-8,87,-79
2430,224,-2000,-296,-10,89,-71
2435,248,-2008,-320,-7,90,-63
2440,208,-2024,-304,-6,90,-60
2445,200,-2040,-304,-12,91,-63
2450,208,-2056,-328,-16,91,-63
2455,208,-2056,-328,-19,93,-61
2460,232,-2024,-344,-20,95,-58
2465,232,-2064,-344,-20,96,-56
2470,216,-2064,-256,-17,98,-52
2475,240,-2056,-296,-11,102,-49
2480,240,-2064,-304,-8,105,-49
2485,232,-2064,-328,-6,107,-46
2490,248,-2064,-336,-5,107,-47
2495,256,-2080,-312,-6,107,-50
2500,272,-2032,-336,-10,105,-54
2505,248,-2024,-296,-10,106,-56
2510,256,-2064,-304,-11,107,-58
2515,256,-2048,-336,-12,108,-64
2520,248,-2064,-328,-14,111,-67
2525,272,-2072,-296,-17,114,-70
2530,272,-2080,-320,-21,118,-72
2535,272,-2080,-352,-24,118,-76
2540,264,-2064,-328,-28,117,-80
2545,288,-2096,-328,-28,119,-78
2550,280,-2072,-296,-28,121,-69
2555,288,-2080,-328,-27,120,-64
2560,296,-2064,-312,-30,118,-60
2565,280,-2064,-320,-36,118,-57
2570,272,-2032,-336,-41,119,-57
2575,296,-2008,-312,-44,121,-54
2580,256,-2016,-336,-48,122,-51
2585,256,-2032,-328,-55,123,-52
2590,264,-2040,-336,-61,125,-55
2595,256,-2024,-296,-66,126,-60
2600,248,-2048,-296,-71,127,-63
2605,224,-2032,-328,-76,129,-67
2610,240,-2072,-320,-77,134,-72
2615,240,-2064,-304,-79,136,-76
2620,240,-2088,-352,-79,139,-79
2625,256,-2072,-312,-78,145,-80
2630,264,-2088,-296,-76,149,-82
2635,280,-2080,-352,-73,150,-84
2640,272,-2088,-328,-72,152,-87
2645,296,-2064,-344,-73,153,-88
2650,288,-2088,-352,-73,156,-88
2655,304,-2040,-336,-72,160,-88
2660,296,-2056,-352,-70,163,-89
2665,312,-2008,-352,-67,166,-91
2670,304,-2048,-328,-62,174,-95
2675,312,-2000,-352,-56,180,-94
2680,320,-2008,-336,-50,186,-96
2685,272,-2000,-384,-46,188,-99
2690,312,-2000,-328,-43,190,-102
2695,288,-1992,-320,-42,193,-105
2700,304,-1984,-320,-40,194,-108
2705,312,-1992,-296,-37,197,-111
2710,288,-1992,-304,-34,202,-112
2715,304,-2000,-336,-30,205,-113
2720,288,-1968,-296,-28,207,-111
2725,288,-1984,-328,-27,210,-107
2730,280,-1976,-320,-23,211,-104
2735,256,-1960,-336,-22,215,-101
2740,312,-1968,-296,-21,217,-98
2745,312,-1944,-336,-23,222,-96
2750,296,-1936,-336,-28,226,-92
2755,296,-1928,-304,-33,228,-89
2760,312,-1952,-328,-38,232,-89
2765,304,-1944,-304,-41,232,-90
2770,328,-1960,-352,-44,233,-92
2775,312,-1944,-304,-46,235,-89
2780,312,-1944,-296,-50,235,-88
2785,312,-1960,-272,-51,233,-88
2790,296,-1952,-264,-55,237,-82
2795,272,-1936,-368,-55,235,-81
2800,304,-1992,-264,-55,229,-79
2805,280,-1992,-224,-52,219,-80
2810,272,-2000,-264,-48,208,-80
2815,280,-2016,-264,-44,198,-78
2820,296,-2000,-280,-44,188,-75
2825,272,-2024,-280,-50,176,-73
2830,264,-2032,-264,-53,158,-74
2835,272,-2008,-336,-58,141,-73
2840,256,-2016,-328,-66,125,-70
2845,240,-2008,-344,-74,113,-71
2850,248,-1992,-376,-83,96,-70
2855,256,-2000,-360,-94,84,-70
2860,240,-1992,-336,-101,75,-70
2865,272,-1992,-344,-105,69,-70
2870,224,-1984,-344,-102,62,-74
2875,272,-2008,-336,-98,56,-78
2880,264,-2000,-320,-98,54,-81
2885,296,-2016,-344,-96,50,-84
2890,312,-2016,-320,-95,50,-88
2895,296,-2000,-328,-97,52,-90
2900,344,-2016,-336,-97,53,-92
2905,336,-2016,-344,-99,55,-94
2910,360,-2048,-336,-99,57,-99
2915,400,-2040,-328,-100,60,-101
2920,400,-2056,-312,-99,60,-106
2925,400,-2048,-328,-95,61,-110
2930,408,-2048,-296,-88,62,-113
2935,384,-2024,-296,-82,61,-117
2940,360,-2024,-312,-77,64,-117
2945,352,-2016,-328,-74,66,-117
2950,360,-2000,-328,-68,62,-119
2955,336,-1992,-312,-65,60,-121
2960,336,-1984,-352,-61,57,-126
2965,336,-1976,-352,-57,56,-130
2970,344,-1984,-336,-58,55,-133
2975,344,-1984,-328,-62,57,-134
2980,336,-1968,-328,-66,55,-135
2985,360,-1976,-352,-69,56,-133
2990,360,-1976,-304,-75,55,-132
2995,344,-1984,-304,-81,50,-129
3000,376,-2000,-328,-85,42,-127
3005,360,-2008,-320,-87,36,-128
3010,320,-2008,-280,-85,30,-125
3015,352,-1992,-320,-85,16,-123
3020,336,-2008,-320,-82,4,-119
3025,336,-1992,-320,-82,-7,-114
3030,304,-1984,-360,-83,-22,-110
3035,304,-1992,-360,-87,-34,-109
3040,304,-1960,-360,-89,-44,-107
3045,312,-1960,-368,-88,-52,-108
3050,272,-1960,-368,-91,-56,-107
3055,312,-1952,-392,-94,-60,-109
3060,272,-1952,-368,-97,-63,-112
3065,304,-1944,-344,-102,-68,-116
3070,272,-1944,-360,-108,-70,-119
3075,296,-1968,-376,-116,-74,-123
3080,312,-1992,-376,-123,-76,-127
3085,320,-1992,-368,-131,-78,-130
3090,336,-2000,-376,-136,-78,-132
3095,336,-2024,-400,-140,-80,-135
3100,320,-2024,-384,-141,-79,-136
3105,360,-2032,-376,-139,-79,-138
3110,392,-2056,-400,-136,-79,-139
3115,376,-2024,-368,-131,-76,-140
3120,320,-2032,-440,-120,-76,-141
3125,384,-2016,-392,-110,-75,-143
3130,392,-2000,-408,-102,-74,-145
3135,400,-2008,-392,-90,-74,-145
3140,416,-2000,-384,-80,-77,-144
3145,424,-1984,-416,-74,-77,-145
3150,416,-1960,-384,-66,-75,-146
3155,376,-1960,-368,-56,-73,-146
3160,376,-1976,-368,-49,-66,-149
3165,400,-1992,-352,-44,-57,-150
3170,408,-1992,-392,-42,-49,-152
3175,400,-1992,-344,-42,-38,-156
3180,376,-1992,-384,-40,-25,-160
3185,424,-2016,-376,-39,-12,-161
3190,416,-2032,-416,-40,0,-162
3195,448,-2024,-416,-40,13,-165
3200,416,-2048,-392,-40,27,-167
3205,448,-2032,-400,-36,40,-166
3210,432,-2024,-416,-30,51,-166
3215,448,-2008,-424,-21,60,-164
3220,448,-1992,-408,-12,70,-163
3225,440,-1976,-448,-3,79,-160
3230,384,-1920,-424,6,91,-159
3235,424,-1912,-416,11,100,-157
3240,400,-1896,-424,15,112,-154
3245,464,-1904,-424,15,124,-154
3250,456,-1912,-448,12,133,-154
3255,464,-1928,-392,8,142,-155
3260,472,-1936,-368,3,147,-156
3265,456,-1968,-392,-3,153,-158
3270,464,-1952,-392,-9,157,-160
3275,448,-1984,-376,-16,156,-161
3280,472,-2000,-400,-24,155,-163
3285,472,-2016,-424,-31,153,-164
3290,448,-2024,-408,-37,151,-164
3295,448,-2040,-416,-38,145,-162
3300,472,-2048,-408,-36,139,-159
3305,448,-2040,-392,-31,132,-154
3310,416,-2024,-424,-26,125,-149
3315,416,-1992,-448,-17,119,-145
3320,408,-1984,-424,-11,115,-137
3325,400,-1960,-432,-6,110,-131
3330,368,-1960,-424,-1,107,-125
3335,392,-1920,-456,-1,102,-119
3340,328,-1888,-488,-1,100,-110
3345,384,-1968,-432,-4,98,-105
3350,392,-1992,-408,-7,93,-101
3355,392,-1992,-416,-7,89,-94
3360,368,-1992,-400,-4,82,-90
3365,384,-2032,-384,2,75,-84
3370,392,-2048,-376,10,64,-77
3375,392,-2024,-408,20,54,-69
3380,376,-2024,-384,28,44,-62
3385,392,-2008,-408,36,34,-56
3390,392,-1984,-384,44,25,-50
3395,368,-1968,-408,48,15,-45
3400,368,-1952,-400,49,9,-40
3405,384,-1936,-432,49,3,-36
3410,408,-1904,-440,47,1,-34
3415,368,-1864,-432,43,1,-35
3420,400,-1816,-424,39,0,-37
3425,384,-1840,-448,33,0,-43
3430,400,-1816,-424,25,-2,-51
3435,384,-1824,-440,13,-3,-58
3440,376,-1816,-392,0,-3,-68
3445,392,-1816,-376,-14,-6,-75
3450,352,-1880,-360,-27,-7,-84
3455,392,-1856,-384,-40,-13,-90
3460,376,-1864,-384,-52,-17,-94
3465,408,-1944,-400,-62,-20,-97
3470,384,-1960,-384,-68,-25,-96
3475,392,-1968,-416,-69,-26,-93
3480,408,-2016,-424,-67,-26,-89
3485,400,-2032,-392,-61,-23,-86
3490,432,-2048,-424,-52,-20,-81
3495,440,-2072,-472,-42,-16,-78
3500,440,-2064,-432,-32,-12,-75
3505,480,-2064,-440,-22,-6,-73
3510,488,-2056,-448,-7,1,-73
3515,512,-2008,-432,8,8,-72
3520,512,-2008,-432,24,15,-74
3525,512,-1968,-432,37,24,-76
3530,512,-1936,-432,49,33,-80
3535,496,-1936,-440,53,42,-81
3540,512,-1896,-424,53,54,-86
3545,504,-1912,-408,51,64,-90
3550,488,-1880,-408,46,75,-93
3555,472,-1840,-432,38,86,-97
3560,480,-1920,-424,31,93,-99
3565,472,-1936,-424,23,102,-101
3570,448,-1960,-424,16,108,-102
3575,432,-1976,-432,9,113,-102
3580,424,-1992,-440,1,117,-101
3585,432,-2000,-424,-5,121,-101
3590,400,-1976,-440,-14,122,-98
3595,384,-1984,-456,-22,120,-99
3600,360,-1960,-448,-30,121,-96
3605,360,-1960,-448,-35,120,-95
3610,368,-1952,-472,-42,119,-93
3615,376,-1968,-472,-47,118,-95
3620,360,-1968,-440,-52,118,-97
3625,368,-1960,-432,-55,120,-100
3630,408,-1960,-432,-57,123,-104
3635,376,-1984,-432,-57,125,-109
3640,408,-2008,-440,-57,127,-116
3645,400,-1992,-424,-55,132,-121
3650,408,-2000,-424,-52,136,-126
3655,384,-2024,-408,-46,139,-127
3660,392,-2008,-440,-41,139,-127
3665,432,-2008,-416,-35,138,-123
3670,384,-1984,-424,-29,137,-120
3675,408,-1992,-456,-24,137,-115
3680,392,-1944,-424,-19,138,-108
3685,416,-1936,-448,-17,140,-105
3690,384,-1944,-440,-15,141,-103
3695,424,-1928,-440,-15,145,-105
3700,416,-1944,-496,-13,150,-101
3705,384,-1904,-480,-9,155,-98
3710,424,-1888,-432,-11,161,-103
3715,408,-1864,-456,-16,169,-107
3720,424,-1888,-448,-19,176,-113
3725,432,-1904,-432,-22,182,-123
3730,440,-1896,-408,-25,185,-130
3735,424,-1920,-408,-24,187,-139
3740,440,-1944,-400,-25,188,-146
3745,400,-1944,-400,-22,187,-150
3750,392,-1944,-368,-18,189,-153
3755,424,-1976,-408,-11,191,-155
3760,376,-1944,-432,-3,192,-157
3765,352,-1920,-432,6,193,-154
3770,360,-1936,-408,14,193,-152
3775,312,-1936,-424,21,193,-148
3780,328,-1888,-392,30,194,-145
3785,336,-1864,-456,41,199,-143
3790,320,-1856,-440,53,201,-142
3795,336,-1832,-432,66,208,-141
3800,328,-1800,-440,77,214,-142
3805,344,-1784,-416,85,220,-140
3810,328,-1760,-400,88,223,-144
3815,352,-1776,-448,86,228,-151
3820,368,-1760,-440,83,235,-157
3825,384,-1776,-408,74,238,-164
3830,376,-1808,-416,66,242,-170
3835,400,-1800,-416,54,245,-177
3840,384,-1832,-456,46,248,-182
3845,384,-1864,-376,38,246,-185
3850,344,-1832,-408,31,243,-188
3855,328,-1840,-416,27,240,-188
3860,360,-1856,-368,26,234,-186
3865,360,-1848,-416,29,228,-182
3870,344,-1840,-384,34,223,-177
3875,328,-1832,-368,39,221,-176
3880,312,-1832,-376,46,219,-169
3885,352,-1832,-400,51,217,-161
3890,320,-1816,-400,56,215,-153
3895,336,-1768,-384,61,217,-144
3900,328,-1776,-400,67,220,-137
3905,328,-1792,-392,73,223,-133
3910,384,-1768,-408,79,230,-130
3915,400,-1784,-408,83,235,-130
3920,400,-1776,-408,86,241,-135
3925,424,-1800,-400,84,249,-144
3930,400,-1792,-392,81,252,-151
3935,384,-1792,-384,79,254,-161
3940,392,-1808,-392,77,254,-169
3945,400,-1816,-408,77,251,-178
3950,392,-1808,-400,80,247,-185
3955,336,-1800,-432,82,242,-193
3960,328,-1800,-416,84,237,-195
3965,288,-1760,-440,85,233,-195
3970,272,-1768,-440,84,232,-193
3975,272,-1752,-416,82,234,-187
3980,240,-1736,-456,79,239,-179
3985,232,-1728,-464,75,244,-173
3990,232,-1720,-424,72,249,-167
3995,224,-1680,-432,67,255,-162
4000,232,-1664,-456,60,259,-162
4005,224,-1664,-456,54,259,-163
4010,224,-1600,-448,47,260,-167
4015,232,-1592,-440,40,258,-171
4020,264,-1600,-432,32,257,-176
4025,248,-1576,-448,25,255,-183
4030,264,-1584,-432,20,254,-188
4035,264,-1552,-448,15,255,-196
4040,256,-1560,-448,13,257,-201
4045,272,-1560,-432,13,262,-210
4050,248,-1544,-448,13,265,-219
4055,256,-1552,-424,10,270,-229
4060,272,-1552,-464,5,274,-237
4065,256,-1512,-448,-5,281,-242
4070,272,-1496,-464,-15,289,-245
4075,272,-1504,-488,-28,302,-244
4080,272,-1504,-488,-39,318,-243
4085,296,-1496,-472,-50,334,-238
4090,328,-1528,-448,-55,352,-235
4095,336,-1520,-440,-57,369,-230
4100,344,-1592,-480,-54,387,-227
4105,368,-1560,-448,-47,404,-227
4110,408,-1584,-416,-41,425,-229
4115,432,-1632,-408,-37,443,-233
4120,472,-1624,-408,-25,455,-241
4125,480,-1592,-408,-8,464,-248
4130,464,-1584,-424,14,474,-254
4135,512,-1544,-400,37,481,-260
4140,496,-1536,-400,56,488,-266
4145,488,-1480,-440,72,496,-269
4150,432,-1424,-464,84,505,-267
4155,424,-1424,-448,89,511,-267
4160,352,-1360,-456,87,517,-265
4165,328,-1336,-488,77,524,-261
4170,296,-1328,-504,60,533,-255
4175,256,-1360,-480,36,539,-246
4180,208,-1368,-448,14,545,-236
4185,160,-1368,-440,-3,547,-224
4190,136,-1384,-448,-15,552,-212
4195,128,-1408,-448,-25,557,-201
4200,72,-1400,-472,-31,564,-197
4205,48,-1400,-440,-36,568,-197
4210,104,-1336,-472,-43,568,-202
4215,32,-1360,-456,-48,563,-213
4220,24,-1360,-432,-48,558,-225
4225,64,-1320,-472,-44,558,-236
4230,56,-1304,-472,-42,560,-248
4235,80,-1272,-456,-34,568,-263
4240,88,-1248,-488,-28,579,-267
4245,136,-1256,-448,-25,588,-274
4250,120,-1216,-432,-24,598,-293
4255,176,-1216,-368,-25,608,-308
4260,160,-1216,-368,-31,619,-328
4265,184,-1224,-352,-41,627,-336
4270,248,-1240,-296,-57,639,-334
4275,224,-1216,-296,-68,643,-342
4280,192,-1240,-320,-66,632,-367
4285,256,-1240,-376,-48,622,-382
4290,248,-1256,-368,-24,628,-391
4295,240,-1232,-400,-3,644,-403
4300,224,-1192,-424,7,668,-418
4305,176,-1176,-448,10,685,-452
4310,264,-1088,-456,12,718,-484
4315,288,-1048,-456,15,772,-518
4320,248,-1064,-376,18,825,-573
4325,264,-1016,-328,36,868,-634
4330,304,-1040,-288,50,907,-698
4335,272,-1176,-256,45,956,-765
4340,264,-1264,-152,32,989,-826
4345,232,-1392,-144,16,1006,-883
4350,200,-1472,-104,-1,1022,-933
4355,168,-1656,-128,-24,1038,-963
4360,208,-1768,-144,-50,1051,-987
4365,192,-1832,-136,-65,1078,-998
4370,224,-1944,-184,-37,1104,-1010
4375,288,-2008,-208,26,1133,-1026
4380,288,-2080,-192,121,1169,-1034
4385,368,-2096,-200,204,1211,-1056
4390,408,-2000,-264,305,1271,-1089
4395,432,-1872,-200,412,1354,-1137
4400,608,-1800,-184,525,1445,-1204
4405,640,-1720,-104,608,1551,-1323
4410,664,-1584,120,668,1627,-1489
4415,616,-1464,24,728,1683,-1656
4420,632,-1448,48,798,1705,-1815
4425,640,-1376,-16,862,1716,-1976
4430,648,-1360,40,888,1766,-2127
4435,448,-1448,200,893,1840,-2271
4440,344,-1592,272,891,1873,-2377
4445,280,-1720,280,894,1849,-2477
4450,256,-1832,248,902,1798,-2543
4455,200,-1904,264,923,1734,-2588
4460,216,-1976,240,960,1651,-2636
4465,240,-2016,280,1012,1552,-2685
4470,200,-2000,288,1094,1475,-2731
4475,136,-1968,288,1181,1440,-2760
4480,88,-1832,360,1261,1442,-2753
4485,128,-1528,416,1309,1458,-2721
4490,120,-1280,520,1306,1466,-2700
4495,144,-960,472,1250,1481,-2669
4500,184,-560,456,1146,1508,-2613
4505,240,-280,360,1003,1503,-2549
4510,328,-32,216,839,1431,-2472
4515,368,56,80,666,1273,-2408
4520,576,-40,-88,524,1067,-2337
4525,768,-272,-112,443,894,-2204
4530,984,-624,-128,420,755,-2089
4535,1344,-904,-48,447,647,-2024
4540,1776,-1240,16,505,580,-1984
4545,2208,-1584,184,600,545,-2005
4550,2648,-1896,352,743,519,-2086
4555,3168,-2008,496,888,504,-2183
4560,3592,-2088,760,958,505,-2311
4565,4472,-2360,1432,943,499,-2485
4570,5856,-2976,2352,939,484,-2680
4575,7792,-3928,3792,1048,543,-2895
4580,11424,-5080,5592,1367,682,-3170
4585,14472,-6328,6472,1778,802,-3754
4590,18288,-7448,5736,2016,684,-4487
4595,16728,-6392,2992,2042,471,-5177
4600,10856,-5272,2584,2159,311,-5228
4605,5576,-3912,2656,2716,478,-4463
4610,2272,-2616,2456,3555,1061,-3762
4615,-408,-1432,2736,4279,1732,-3561
4620,-2976,-176,3048,4395,2058,-3719
4625,-4648,592,2864,4045,1621,-4044
4630,-4056,976,2152,3464,665,-4281
4635,-1800,1128,888,2774,-102,-4354
4640,-8,888,-56,1873,-377,-4309
4645,784,1152,-88,835,-402,-4220
4650,1512,1680,296,-112,-397,-3934
4655,1600,2128,1040,-900,-375,-3440
4660,1880,2672,1736,-1455,-279,-2723
4665,2072,3160,2408,-1843,-285,-1836
4670,2216,3320,2704,-2063,-618,-974
4675,2816,3136,2448,-2033,-1179,-200
4680,3528,2616,1944,-1692,-1786,498
4685,4168,1896,1088,-1065,-2350,1097
4690,4296,1384,0,-450,-2727,1447
4695,3488,1144,-960,-79,-2758,1514
4700,3112,800,-1464,-88,-2665,1375
4705,3000,536,-1560,-306,-2495,1148
4710,2792,456,-1320,-526,-2251,841
4715,2688,440,-1040,-622,-2001,495
4720,2560,472,-712,-634,-1714,159
4725,2520,600,-400,-609,-1410,-156
4730,2488,664,-48,-552,-1118,-451
4735,2240,648,216,-436,-867,-726
4740,1960,576,472,-262,-707,-957
4745,1912,568,576,-70,-662,-1140
4750,1968,584,704,52,-646,-1242
4755,1768,616,824,82,-609,-1242
4760,1520,592,864,30,-567,-1152
4765,1256,512,808,-80,-592,-987
4770,1104,456,600,-188,-713,-808
4775,912,488,416,-260,-850,-645
4780,616,512,328,-295,-927,-494
4785,400,552,216,-288,-951,-351
4790,248,648,72,-289,-959,-218
4795,32,768,-88,-337,-982,-108
4800,0,856,-232,-412,-1020,-31
4805,-24,992,-296,-480,-1043,21
4810,16,1120,-384,-520,-1038,53
4815,136,1216,-400,-543,-1011,84
4820,320,1264,-408,-564,-976,115
4825,488,1256,-424,-593,-937,138
4830,688,1240,-296,-632,-901,157
4835,880,1168,-224,-656,-873,173
4840,1080,1072,-160,-656,-866,194
4845,1352,960,-96,-650,-860,218
4850,1592,784,24,-670,-830,264
4855,1832,616,168,-714,-773,314
4860,2080,456,288,-769,-709,347
4865,2312,248,368,-847,-619,389
4870,2560,120,480,-918,-506,429
4875,2680,32,568,-973,-373,446
4880,2856,-24,528,-1007,-249,438
4885,2976,0,512,-1032,-108,419
4890,2936,16,448,-1037,50,395
4895,2744,64,344,-1016,207,356
4900,2536,144,312,-976,337,333
4905,2336,224,304,-930,440,336
4910,2248,288,280,-881,521,358
4915,2080,400,296,-821,589,395
4920,2000,464,424,-753,657,444
4925,2024,544,344,-685,727,501
4930,1992,600,336,-623,814,571
4935,1856,624,296,-594,874,633
4940,1912,584,336,-587,887,702
4945,2032,456,360,-590,892,754
4950,2104,384,448,-594,888,774
4955,2272,224,512,-580,876,778
4960,2488,112,672,-552,844,779
4965,2720,0,656,-527,795,765
4970,2776,-152,704,-521,757,755
4975,2856,-376,824,-517,718,751
4980,2944,-424,864,-483,636,712
4985,3072,-496,936,-467,546,673
4990,3072,-520,992,-467,492,646
4995,3048,-560,1104,-437,467,608
5000,2928,-600,1192,-357,439,565
5005,2912,-648,1240,-225,397,517
5010,2768,-576,1192,-56,344,467
5015,2664,-536,1112,134,274,398
5020,2616,-472,1008,323,202,314
5025,2552,-360,856,501,142,240
5030,2384,-280,768,653,95,182
5035,2240,-224,656,768,53,136
5040,2056,-192,544,839,11,103
5045,1840,-216,472,871,-45,77
5050,1744,-216,432,858,-108,73
5055,1576,-248,408,821,-163,89
5060,1424,-304,480,773,-213,109
5065,1328,-384,424,734,-256,121
5070,1256,-352,496,706,-298,112
5075,1160,-424,440,695,-339,88
5080,1168,-440,424,696,-378,49
5085,1216,-448,400,703,-402,11
5090,1240,-448,368,719,-415,-25
5095,1312,-448,328,746,-429,-71
5100,1376,-408,272,768,-429,-98
5105,1488,-400,136,782,-420,-106
5110,1536,-384,104,780,-406,-104
5115,1592,-384,24,757,-388,-105
5120,1672,-368,-48,718,-361,-101
5125,1752,-360,-120,657,-325,-86
5130,1808,-416,-128,585,-287,-51
5135,1840,-464,-168,508,-260,-16
5140,1904,-496,-160,440,-244,4
5145,1960,-536,-160,381,-231,21
5150,2024,-568,-144,334,-220,36
5155,2072,-568,-64,302,-201,57
5160,2128,-536,0,281,-177,85
5165,2232,-488,40,278,-159,115
5170,2264,-448,72,296,-142,140
5175,2296,-376,192,327,-134,155
5180,2456,-360,176,374,-132,156
5185,2464,-208,192,416,-121,143
5190,2480,-160,160,441,-100,120
5195,2456,-48,160,442,-75,95
5200,2464,-32,128,409,-46,69
5205,2448,-24,96,353,-15,48
5210,2424,-16,88,285,13,33
5215,2344,-24,40,218,35,27
5220,2312,-64,24,154,43,27
5225,2232,-104,-8,103,46,35
5230,2176,-160,16,56,49,52
5235,2120,-176,-32,8,45,72
5240,2040,-216,-40,-46,40,92
5245,2024,-288,-48,-104,27,111
5250,1952,-336,-32,-158,12,131
5255,1880,-368,-32,-209,1,144
5260,1896,-400,0,-247,-13,147
5265,1888,-456,0,-268,-31,144
5270,1920,-472,8,-272,-50,135
5275,1984,-472,56,-258,-66,117
5280,2000,-512,104,-218,-77,96
5285,2000,-528,96,-165,-79,76
5290,1960,-496,104,-115,-73,56
5295,2040,-512,72,-70,-74,31
5300,2032,-456,40,-31,-76,8
5305,2040,-448,24,-4,-78,-16
5310,2040,-440,40,9,-79,-36
5315,2048,-408,0,11,-80,-52
5320,2040,-368,8,10,-80,-66
5325,2008,-392,-24,8,-76,-75
5330,2032,-392,0,6,-68,-78
5335,2008,-376,-32,4,-60,-81
5340,2000,-360,8,6,-45,-79
5345,2008,-352,16,12,-24,-77
5350,1976,-352,24,23,-3,-70
5355,1992,-344,24,32,17,-61
5360,2008,-328,48,39,36,-54
5365,1992,-288,96,50,51,-49
5370,2040,-288,96,64,68,-43
5375,2064,-272,88,72,86,-38
5380,2064,-280,152,68,109,-37
5385,2056,-240,136,54,132,-38
5390,2072,-248,136,29,151,-37
5395,2080,-240,168,-5,166,-39
5400,2112,-296,184,-45,175,-40
5405,2096,-248,160,-84,182,-37
5410,2096,-296,176,-121,184,-34
5415,2072,-296,160,-154,179,-33
5420,2056,-320,208,-178,167,-33
5425,2048,-320,176,-191,155,-34
5430,2056,-328,160,-196,147,-34
5435,2040,-352,176,-197,139,-36
5440,2000,-344,184,-190,132,-39
5445,2016,-344,184,-181,127,-42
5450,2000,-352,168,-173,120,-44
5455,2000,-328,208,-161,111,-48
5460,1984,-328,168,-152,104,-48
5465,2008,-320,168,-140,97,-47
5470,2024,-304,176,-132,91,-43
5475,2016,-320,168,-124,90,-41
5480,2016,-320,112,-118,88,-38
5485,2032,-312,128,-111,90,-35
5490,2056,-336,120,-106,90,-34
5495,2056,-336,136,-99,91,-33
5500,2032,-344,152,-89,91,-33
5505,1984,-336,56,-77,91,-36
5510,2040,-344,168,-59,88,-38
5515,2032,-352,152,-39,84,-41
5520,2032,-352,152,-19,79,-43
5525,2008,-344,160,4,72,-45
5530,1984,-312,136,23,66,-46
5535,1992,-328,136,40,60,-47
5540,2008,-288,184,53,54,-48
5545,2016,-304,144,63,50,-46
5550,1976,-256,152,68,44,-44
5555,2000,-280,160,64,34,-42
5560,2024,-248,168,60,25,-41
5565,2024,-280,152,55,22,-37
5570,2000,-256,128,47,22,-29
5575,2016,-264,144,38,18,-21
5580,2048,-264,160,32,13,-18
5585,2032,-272,144,31,14,-17
5590,2000,-272,128,19,13,-12
5595,2032,-256,128,8,12,-6
5600,2032,-256,136,1,16,-8
5605,2064,-288,96,-2,22,-8
5610,2048,-264,120,-5,33,-7
5615,2056,-288,64,-11,38,-4
5620,2040,-272,120,-13,46,-6
5625,2040,-304,144,-13,58,-6
5630,2040,-280,144,-12,64,-8
5635,2048,-264,136,-11,69,-9
5640,2056,-296,112,-9,74,-8
5645,2048,-288,128,-11,81,-9
5650,2040,-288,112,-9,82,-6
5655,2040,-288,120,-8,83,-9
5660,2048,-288,160,-7,82,-11
5665,2056,-288,128,-6,83,-10
5670,2040,-288,120,-4,81,-8
5675,2056,-280,120,-4,79,-10
5680,2040,-304,104,-5,79,-11
5685,2040,-280,136,-5,79,-13
5690,2032,-240,128,-6,79,-14
5695,2040,-288,112,-10,77,-12
5700,2040,-288,104,-12,77,-13
5705,2040,-288,112,-13,75,-13
5710,2032,-280,120,-14,75,-13
5715,2032,-280,104,-17,73,-11
5720,2040,-280,96,-21,71,-10
5725,2040,-256,64,-22,72,-11
5730,2040,-304,112,-27,71,-12
5735,2016,-288,136,-28,72,-11
5740,2032,-280,136,-31,73,-12
5745,2016,-280,136,-35,72,-12
5750,2008,-264,136,-40,72,-13
5755,2000,-280,144,-43,71,-12
5760,1984,-288,136,-45,71,-13
5765,1920,-280,104,-49,68,-15
5770,2024,-312,120,-53,63,-12
5775,2048,-296,144,-48,61,-13
5780,2040,-296,112,-43,66,-14
5785,2032,-304,144,-38,71,-15
5790,2016,-280,128,-30,75,-13
5795,2048,-296,136,-27,81,-12
5800,2040,-296,88,-26,84,-13
5805,2040,-288,144,-33,85,-10
5810,2064,-296,144,-35,83,-8
5815,2056,-296,120,-33,87,-8
5820,2040,-296,144,-33,91,-5
5825,2048,-304,112,-33,90,-4
5830,2040,-296,112,-34,88,-2
5835,2032,-280,120,-34,89,1
5840,2048,-304,104,-34,90,2
5845,2040,-280,152,-33,89,3
5850,2048,-288,120,-32,89,4
5855,2056,-312,152,-30,88,6
5860,2032,-304,112,-28,85,6
5865,2032,-312,152,-25,84,5
5870,2040,-328,152,-21,82,3
5875,2024,-320,184,-21,77,3
5880,2008,-288,168,-20,69,3
5885,2040,-328,152,-18,64,2
5890,2016,-320,144,-15,57,1
5895,2032,-320,128,-14,51,1
5900,2008,-288,144,-16,43,-1
5905,2016,-296,144,-18,34,1
5910,2008,-296,136,-23,26,-1
5915,2008,-296,136,-28,17,0
5920,2024,-296,152,-31,14,-1
5925,2016,-320,136,-32,15,-1
5930,1976,-296,160,-35,13,-1
5935,2016,-312,136,-34,13,-3
5940,2016,-280,200,-31,13,-3
5945,2032,-328,152,-28,12,-2
5950,2032,-288,152,-23,13,-4
5955,2024,-296,128,-17,11,-8
5960,2024,-272,144,-20,7,-10
5965,2024,-296,144,-27,-1,-13
5970,2040,-280,136,-29,-12,-17
5975,2032,-288,104,-30,-20,-21
5980,1992,-288,96,-43,-25,-19
5985,2048,-280,104,-57,-31,-17
5990,2048,-264,88,-63,-35,-18
5995,2048,-264,96,-67,-31,-17
6000,2032,-304,104,-69,-23,-18
6005,2032,-312,96,-68,-18,-17
6010,2040,-280,104,-65,-16,-15
6015,2040,-312,152,-64,-11,-13
6020,2008,-272,128,-60,-7,-10
6025,2040,-272,128,-60,-10,-8
6030,2032,-280,104,-64,-13,0
6035,2024,-280,120,-65,-15,5
6040,2016,-304,128,-58,-18,12
6045,2024,-296,104,-46,-18,13
6050,2048,-320,120,-44,-15,22
6055,2040,-296,96,-37,-13,24
6060,2032,-312,88,-20,-11,25
6065,2032,-304,64,-4,-3,24
6070,2040,-288,72,13,10,18
6075,2008,-320,80,24,24,14
6080,2016,-312,96,33,39,10
6085,2032,-336,80,38,52,6
6090,2032,-312,72,40,62,5
6095,1984,-304,104,43,73,3
6100,2008,-312,128,46,80,2
6105,2024,-272,72,44,85,1
6110,2008,-264,120,42,88,2
6115,2016,-272,96,36,90,0
6120,2032,-264,128,26,89,0
6125,2032,-280,120,14,87,0
6130,2024,-240,96,-1,82,-1
6135,2000,-240,96,-15,77,-1
6140,2032,-256,64,-23,71,-1
6145,2032,-264,104,-38,64,0
6150,2032,-304,112,-55,53,2
6155,2040,-280,120,-62,43,6
6160,2024,-256,112,-56,33,8
6165,2024,-320,112,-53,24,10
6170,2032,-344,96,-48,15,12
6175,2024,-336,120,-38,8,14
6180,2032,-344,144,-26,2,16
6185,2040,-336,128,-13,2,14
6190,2040,-320,128,-2,2,11
6195,2016,-336,112,7,3,10
6200,2000,-312,128,4,6,8
6205,2032,-304,112,-1,7,7
6210,2032,-296,96,-4,11,6
6215,2040,-320,128,-4,15,6
6220,2008,-280,120,-4,21,4
6225,1992,-312,88,-1,29,1
6230,2016,-312,136,2,38,1
6235,2008,-288,80,6,46,1
6240,2000,-304,80,10,55,0
6245,2016,-312,80,14,62,0
6250,2024,-296,120,16,68,2
6255,2032,-280,64,15,76,2
6260,2032,-296,96,13,84,2
6265,2032,-272,96,7,90,3
6270,2032,-296,88,-1,94,1
6275,2008,-280,104,-11,98,-1
6280,2008,-272,88,-24,96,-4
6285,2000,-280,120,-36,94,-6
6290,2016,-272,112,-42,90,-6
6295,2040,-280,80,-47,83,-7
6300,2040,-272,112,-46,78,-9
6305,2024,-288,80,-39,72,-12
6310,2016,-336,104,-30,69,-12
6315,2040,-304,80,-16,66,-11
6320,2040,-360,72,-1,68,-11
6325,2032,-304,80,13,73,-13
6330,2032,-320,80,28,80,-15
6335,2032,-336,80,41,88,-16
6340,2040,-344,96,52,94,-17
6345,2048,-328,96,63,98,-19
6350,2040,-304,64,71,103,-20
6355,2056,-320,80,74,108,-21
6360,2048,-312,64,72,111,-21
6365,2056,-320,64,66,116,-22
6370,2048,-312,104,55,119,-20
6375,2032,-320,80,43,123,-19
6380,1960,-296,40,32,123,-20
6385,2024,-288,96,24,125,-21
6390,2040,-296,96,13,124,-21
6395,2048,-272,104,9,123,-23
6400,2008,-264,136,7,126,-24
6405,2024,-264,120,4,128,-21
6410,2000,-256,120,-1,129,-20
6415,2024,-280,104,-6,127,-20
6420,2016,-304,96,-15,124,-19
6425,2000,-304,136,-20,119,-16
6430,2016,-320,120,-22,112,-15
6435,1976,-296,104,-22,106,-14
6440,2000,-312,128,-19,103,-12
6445,2024,-312,112,-14,100,-14
6450,2016,-312,112,-8,100,-15
6455,2024,-312,88,-2,99,-14
6460,2032,-320,112,4,101,-14
6465,2040,-312,120,4,103,-15
6470,2016,-296,112,5,105,-16
6475,2040,-312,104,2,108,-16
6480,2040,-320,120,5,110,-18
6485,1960,-288,128,8,110,-19
6490,2040,-296,88,11,110,-20
6495,2048,-288,136,14,110,-19
6500,2024,-272,120,17,111,-18
6505,2032,-272,112,17,109,-18
6510,2056,-280,120,16,107,-17
6515,2048,-304,120,14,106,-16
6520,2048,-288,128,14,103,-12
6525,2032,-296,88,16,99,-12
6530,2016,-288,112,16,98,-11
6535,2040,-288,104,15,94,-9
6540,2024,-304,128,17,92,-9
6545,2040,-272,136,19,90,-8
6550,2040,-296,128,20,88,-5
6555,2056,-280,120,20,86,-4
6560,2048,-280,104,19,85,-3
6565,2024,-280,112,19,84,-1
6570,2040,-280,120,15,84,-2
6575,2048,-280,120,12,85,0
6580,2040,-280,112,11,84,1
6585,2032,-296,144,6,84,0
6590,2032,-256,96,2,85,0
6595,2056,-240,56,-4,85,1
6600,2032,-272,136,-7,85,2
6605,2016,-288,112,-11,84,2
6610,2032,-288,136,-13,84,2
6615,2016,-296,160,-13,82,3
6620,2024,-288,136,-12,82,2
6625,2024,-272,128,-13,80,4
6630,2008,-288,136,-13,78,3
6635,2040,-304,120,-13,77,4
6640,2008,-288,128,-12,76,3
6645,2008,-280,112,-11,77,0
6650,2024,-304,136,-10,77,-1
6655,2008,-288,104,-9,79,-2
6660,2024,-288,104,-9,78,-4
6665,2040,-296,120,-9,80,-5
6670,2032,-312,120,-8,82,-5
6675,2032,-304,120,-9,85,-6
6680,2032,-304,128,-9,85,-7
6685,2032,-272,112,-11,85,-6
6690,2024,-280,128,-13,87,-8
6695,2032,-288,128,-13,87,-8
6700,2024,-296,136,-14,84,-7
6705,2040,-320,40,-13,84,-6
6710,2024,-280,152,-14,85,-6
6715,2024,-296,136,-15,83,-5
6720,2008,-280,120,-17,83,-5
6725,2040,-304,120,-19,80,-5
6730,2040,-296,128,-20,79,-5
6735,2040,-264,120,-22,77,-6
6740,2040,-256,128,-21,76,-6
6745,2032,-288,136,-22,73,-6
6750,2024,-296,144,-23,76,-7
6755,2040,-280,160,-24,77,-8
6760,2016,-288,96,-15,81,-11
6765,2032,-272,120,-20,81,-10
6770,2008,-272,120,-23,82,-12
6775,2024,-304,128,-23,86,-12
6780,1992,-288,144,-24,87,-13
6785,2016,-272,128,-24,86,-12
6790,2024,-288,128,-28,88,-13
6795,2032,-288,144,-30,88,-14
6800,2024,-288,144,-32,88,-12
6805,2008,-272,128,-32,88,-9
6810,2032,-280,144,-32,89,-9
6815,2024,-328,144,-34,89,-9
6820,2048,-288,120,-39,90,-8
6825,2032,-272,128,-41,90,-7
6830,2056,-296,136,-41,90,-8
6835,2040,-256,152,-42,87,-7
6840,2040,-288,112,-42,83,-4
6845,2048,-296,96,-41,81,-5
6850,2048,-288,144,-43,76,-3
6855,2040,-288,112,-41,72,0
6860,2056,-296,120,-35,65,1
6865,2040,-336,104,-30,63,2
6870,2040,-304,144,-25,60,2
6875,2024,-296,120,-19,59,3
6880,2032,-312,128,-15,57,3
6885,2008,-288,120,-11,57,2
6890,2000,-296,120,-7,60,1
6895,2016,-328,128,-5,62,2
6900,2000,-312,152,-4,61,1
6905,2024,-304,128,0,63,1
6910,2008,-288,160,3,65,1
6915,2016,-288,128,6,67,1
6920,2008,-296,136,8,68,0
6925,2056,-288,152,9,70,0
6930,2016,-288,112,10,72,0
6935,2040,-304,120,10,72,-2
6940,2032,-288,128,10,73,-2
6945,2056,-312,80,9,72,-1
6950,2032,-280,88,8,73,-1
6955,2040,-296,104,8,71,-2
6960,2032,-296,112,7,70,-2
6965,2048,-304,120,6,70,-2
6970,2016,-272,128,6,69,-2
6975,2032,-288,112,5,69,-1
6980,2024,-272,128,5,68,-2
6985,2016,-288,152,5,67,-2
6990,2016,-264,120,4,66,-2
6995,2024,-280,120,3,66,-3
7000,2016,-280,136,2,67,-3
7005,2040,-304,112,1,68,-2
7010,2008,-280,160,2,68,-3
7015,2024,-288,120,1,69,-3
7020,2032,-296,144,0,71,-4
7025,2032,-280,120,-3,71,-6
7030,2040,-352,64,-4,72,-7
7035,2032,-304,152,-4,74,-7
7040,2032,-296,112,-5,76,-6
7045,2024,-296,128,-5,76,-6
7050,2032,-288,120,-4,74,-6
7055,2008,-280,112,-4,73,-7
7060,2024,-312,152,-4,73,-6
7065,2040,-328,104,-2,72,-4
7070,2008,-288,80,-1,69,-3
7075,2016,-288,88,1,67,-4
7080,2032,-288,104,1,68,-5
7085,2024,-256,136,3,69,-4
7090,2024,-280,136,3,69,-3
7095,2056,-272,128,2,70,-2
7100,2032,-288,120,1,71,-3
7105,2024,-264,120,1,71,-5
7110,2024,-288,128,-1,73,-4
7115,2024,-304,104,-1,74,-5
7120,2032,-304,128,-1,75,-5
7125,2016,-272,112,3,76,-3
7130,2032,-296,136,6,77,-4
7135,2040,-296,120,6,78,-4
7140,2000,-280,160,6,80,-3
7145,2024,-296,160,5,80,-1
7150,2032,-320,144,4,80,0
7155,2016,-304,120,7,77,-1
7160,2008,-288,128,8,74,0
7165,2032,-280,128,9,72,-2
7170,2032,-296,120,9,71,-2
7175,2032,-296,128,10,74,-2
7180,2040,-288,120,10,76,-3
7185,2008,-264,144,10,78,-5
7190,2016,-296,144,12,80,-7
7195,2032,-264,152,11,80,-7
7200,2032,-288,144,8,83,-8
7205,2032,-280,152,3,83,-6
7210,2008,-264,136,0,84,-8
7215,2032,-288,112,-3,83,-8
7220,2040,-272,152,-5,82,-5
7225,2016,-280,120,-8,80,-5
7230,2040,-288,160,-11,81,-4
7235,2016,-264,168,-10,82,-6
7240,2016,-272,160,-8,81,-5
7245,2032,-272,104,-5,79,-5
7250,1976,-280,144,-3,78,-5
7255,2024,-264,128,-4,77,-4
7260,2008,-264,152,-4,77,-5
7265,2016,-296,152,-6,75,-2
7270,2024,-288,120,-6,74,-1
7275,2032,-288,120,-3,73,-2
7280,2024,-272,128,-1,71,0
7285,2032,-280,128,0,72,2
7290,2024,-280,96,1,72,2
7295,2040,-296,112,1,74,1
7300,2040,-304,152,2,75,2
7305,2056,-256,200,3,76,5
7310,2040,-288,96,4,76,6
7315,2040,-288,128,6,79,7
7320,2008,-304,112,7,80,6
7325,2024,-272,128,7,81,7
7330,2016,-280,144,6,85,9
7335,2040,-296,136,6,86,8
7340,2008,-280,104,8,88,7
7345,2016,-288,120,8,89,5
7350,2016,-280,160,6,90,6
7355,2016,-280,160,4,94,6
7360,1968,-328,160,-1,96,5
7365,2008,-304,32,-4,94,6
7370,1984,-200,192,-7,93,7
7375,2024,-320,96,-11,91,7
7380,2024,-264,112,-14,90,5
7385,2040,-248,152,-16,88,5
7390,2024,-280,64,-18,87,6
7395,2064,-304,128,-21,86,7
7400,1992,-320,224,-23,85,7
7405,2000,-312,144,-22,83,8
7410,2000,-328,48,-22,81,9
7415,2032,-304,136,-21,79,10
7420,2016,-304,136,-22,78,9
7425,2024,-296,144,-22,78,9
7430,2016,-288,152,-20,77,8
7435,1984,-336,80,-20,76,8
7440,2032,-328,80,-23,77,9
7445,2040,-264,168,-23,75,8
7450,2024,-296,104,-28,76,7
7455,1976,-256,136,-28,75,8
7460,2120,-288,96,-30,75,5
7465,1992,-376,144,-31,75,6
7470,2048,-320,112,-32,74,7
7475,2056,-248,-32,-32,73,8
7480,2056,-232,224,-33,72,9
7485,2024,-352,136,-31,70,10
7490,2048,-304,136,-28,66,12
7495,2048,-296,136,-25,62,15
7500,2056,-312,104,-21,59,20
7505,2048,-304,96,-17,55,21
7510,2048,-368,56,-11,48,24
7515,2064,-296,216,-6,43,28
7520,2128,-368,136,-3,38,30
7525,2056,-296,128,0,34,32
7530,2056,-328,80,6,32,33
7535,2048,-328,88,9,33,31
7540,2080,-352,120,12,32,34
7545,1992,-344,96,22,36,33
7550,2024,-312,136,31,42,32
7555,2056,-336,120,38,49,30
7560,2064,-304,200,45,57,27
7565,2000,-296,152,53,67,25
7570,2016,-304,176,59,74,23
7575,2024,-264,168,59,78,24
7580,2008,-264,200,53,82,21
7585,2008,-256,128,41,83,22
7590,2064,-264,152,29,82,21
7595,1968,-200,184,12,80,23
7600,2016,-240,120,-4,77,23
7605,2032,-200,240,-17,75,25
7610,2064,-312,176,-25,70,24
7615,1984,-256,192,-34,70,24
7620,1960,-296,224,-40,70,23
7625,2024,-288,136,-46,70,19
7630,1984,-256,120,-47,68,17
7635,2080,-320,40,-48,70,14
7640,2024,-328,144,-41,72,11
7645,2032,-328,128,-36,73,9
7650,2032,-336,136,-32,75,6
7655,1992,-312,144,-26,75,3
7660,2032,-336,176,-21,77,1
7665,2008,-296,72,-18,78,1
7670,1952,-312,96,-17,76,1
7675,2008,-296,144,-14,75,-3
7680,1968,-352,96,-10,75,-6
7685,2000,-272,80,-8,74,-8
7690,2000,-264,112,-12,76,-4
7695,2144,-112,136,-19,74,0
7700,1952,-256,176,-25,70,4
7705,2048,-392,256,-33,67,8
7710,2056,-288,120,-39,64,9
7715,2040,-312,112,-36,60,12
7720,2016,-312,136,-29,58,13
7725,2024,-336,120,-22,52,13
7730,2048,-328,112,-17,50,12
7735,1960,-336,-40,-15,50,12
7740,2024,-224,128,-12,50,10
7745,1984,-320,160,-9,49,9
7750,2040,-312,112,-9,48,7
7755,2032,-304,104,-4,49,7
7760,2016,-344,192,-2,49,9
7765,2008,-336,128,-9,49,8
7770,2056,-376,168,-15,49,7
7775,2040,-328,168,-15,50,6
7780,2104,-336,272,-14,50,6
7785,2024,-328,72,-14,51,6
7790,2000,-280,200,-17,52,6
7795,2024,-272,112,-20,53,5
7800,2000,-320,152,-21,55,7
7805,2024,-320,120,-24,55,6
7810,2000,-304,152,-26,57,6
7815,2064,-296,168,-28,56,5
7820,2024,-400,136,-30,57,6
7825,2032,-368,272,-32,55,7
7830,2008,-320,144,-33,56,6
7835,2040,-304,104,-35,57,5
7840,1984,-328,112,-38,57,6
7845,2104,-264,40,-36,56,5
7850,2008,-312,112,-35,55,5
7855,2048,-304,144,-34,55,4
7860,2040,-312,112,-31,54,4
7865,2032,-328,104,-29,55,5
7870,2048,-320,88,-23,54,6
7875,2024,-312,104,-16,54,7
7880,2032,-320,104,-7,54,9
7885,2032,-312,128,1,54,7
7890,2048,-368,120,12,55,6
7895,2056,-312,88,22,57,4
7900,2024,-296,104,28,59,3
7905,2032,-336,112,33,63,2
7910,2040,-312,88,36,67,2
7915,2064,-232,64,36,70,0
7920,2024,-288,120,34,73,-1
7925,2032,-304,120,31,77,1
7930,2032,-272,136,25,80,2
7935,2016,-296,136,19,84,4
7940,1944,-208,120,10,85,4
7945,2032,-328,144,2,86,5
7950,1984,-280,136,-7,86,6
7955,2024,-304,160,-14,85,6
7960,1992,-328,160,-21,82,6
7965,2000,-320,144,-24,78,6
7970,2008,-344,152,-24,74,5
7975,2016,-336,152,-22,69,4
7980,2016,-336,120,-18,67,2
7985,2000,-344,152,-13,65,0
7990,2000,-304,104,-5,63,0
7995,2000,-328,136,2,64,-1
8000,2016,-320,96,7,65,-1
8005,2032,-328,120,8,68,-2
8010,2024,-312,88,8,68,-2
8015,2040,-296,120,6,70,-2
8020,2008,-312,112,2,70,-3
8025,2032,-344,152,-1,70,-3
8030,2016,-312,128,-3,71,-3
8035,2040,-336,112,-3,72,-5
8040,2016,-328,136,-2,71,-6
8045,2064,-328,144,0,71,-6
8050,2008,-296,144,2,72,-6
8055,1992,-288,104,5,70,-9
8060,2032,-296,136,6,73,-8
8065,2024,-344,144,8,73,-9
8070,2032,-312,136,8,73,-10
8075,2024,-312,136,8,73,-9
8080,2040,-312,112,7,74,-7
8085,2016,-328,144,6,75,-8
8090,2040,-312,168,6,74,-6
8095,2024,-312,128,6,75,-7
8100,2056,-320,136,6,73,-5
8105,2040,-304,120,7,72,-3
8110,2024,-328,136,6,70,-3
8115,2032,-320,144,6,71,-3
8120,2016,-240,96,6,70,-3
8125,2008,-320,120,4,70,-2
8130,2016,-296,136,4,72,-2
8135,2040,-304,128,3,74,-3
8140,2024,-288,160,3,74,0
8145,2032,-312,120,2,76,-3
8150,2032,-320,128,4,76,-1
8155,2032,-296,96,7,77,0
8160,2032,-288,120,7,76,-1
8165,2032,-288,120,9,77,-2
8170,2024,-312,112,9,77,-4
8175,2032,-312,144,7,77,-5
8180,2040,-320,128,5,79,-6
8185,2008,-280,152,0,79,-5
8190,2016,-288,152,-7,78,-4
8195,2024,-280,152,-14,78,-5
8200,2024,-304,128,-22,76,-2
8205,2032,-296,160,-29,74,0
8210,2000,-296,152,-33,73,1
8215,2000,-320,168,-36,70,0
8220,2032,-320,136,-35,68,0
8225,2000,-304,160,-33,67,0
8230,2056,-296,112,-29,66,-1
8235,2000,-312,144,-23,68,-1
8240,2024,-320,144,-17,69,-3
8245,2016,-288,120,-11,70,-4
8250,2016,-272,128,-8,71,-6
8255,2048,-296,120,-7,73,-6
8260,2016,-320,128,-7,75,-7
8265,2024,-304,136,-6,75,-8
8270,2024,-296,136,-7,76,-9
8275,2024,-312,168,-9,80,-7
8280,2016,-288,120,-9,80,-6
8285,2016,-312,136,-11,82,-7
8290,2024,-280,136,-12,82,-7
8295,2040,-312,160,-13,80,-6
8300,2016,-280,136,-13,78,-4
8305,2016,-312,144,-13,77,-4
8310,2008,-312,120,-13,76,-5
8315,2032,-296,120,-12,76,-3
8320,2024,-312,128,-12,74,-5
8325,2016,-336,128,-12,74,-6
8330,2032,-288,144,-12,74,-7
8335,2016,-320,160,-9,75,-8
8340,2080,-248,176,-7,77,-7
8345,2016,-312,120,-5,75,-7
8350,2032,-304,128,-2,74,-8
8355,2040,-336,144,0,71,-5
8360,2016,-312,160,2,71,-5
8365,2040,-352,152,5,70,-6
8370,2040,-320,152,6,69,-5
8375,2032,-328,120,7,69,-7
8380,2008,-304,144,9,69,-5
8385,2024,-320,136,8,70,-5
8390,2024,-296,128,8,69,-5
8395,2016,-312,144,7,68,-4
8400,2008,-312,136,4,68,-3
8405,2016,-288,168,1,66,-3
8410,2016,-304,168,-2,64,-3
8415,2016,-312,112,-3,64,-4
8420,2032,-320,128,-5,64,-3
8425,2024,-296,136,-5,64,-4
8430,2000,-312,128,-5,65,-6
8435,2016,-320,152,-8,66,-8
8440,2008,-296,152,-9,69,-11
8445,2016,-304,152,-11,70,-11
8450,2000,-304,48,-12,71,-11
8455,2000,-312,128,-13,73,-12
8460,2032,-328,136,-13,74,-12
8465,2008,-312,128,-14,72,-12
8470,2016,-320,112,-13,72,-12
8475,2016,-304,136,-11,72,-12
8480,2040,-312,136,-10,74,-10
8485,2048,-320,136,-9,75,-12
8490,2024,-320,120,-9,76,-11
8495,2040,-336,120,-7,77,-9
8500,2040,-296,120,-5,77,-9
8505,2016,-320,112,-2,77,-9
8510,2040,-312,128,2,75,-9
8515,2032,-264,152,5,75,-8
8520,2040,-280,136,7,76,-10
8525,2024,-304,136,7,75,-8
8530,2016,-296,136,6,76,-8
8535,2024,-280,144,6,77,-7
8540,2032,-296,152,2,76,-7
8545,2040,-288,160,0,75,-9
8550,2024,-288,120,-3,75,-8
8555,2040,-320,128,-5,75,-8
8560,2024,-296,136,-4,73,-9
8565,2024,-312,144,-6,72,-10
8570,2008,-304,160,-5,71,-7
8575,2016,-288,160,-6,69,-8
8580,2008,-312,176,-6,69,-8
8585,1992,-304,152,-5,68,-8
8590,2008,-312,128,-5,67,-7
8595,2032,-312,128,-5,67,-5
8600,2024,-328,128,-5,67,-3
8605,2024,-312,152,-4,66,-4
8610,2016,-320,144,-1,65,-4
8615,2040,-320,144,2,67,-4
8620,2056,-304,112,4,69,-5
8625,2056,-304,104,7,71,-7
8630,2016,-296,128,7,75,-10
8635,2024,-288,128,8,77,-10
8640,2016,-296,112,9,80,-10
8645,2032,-304,136,9,82,-9
8650,2016,-280,136,8,85,-10
8655,2056,-320,128,8,84,-10
8660,2032,-304,144,7,85,-7
8665,2056,-344,80,8,83,-7
8670,2032,-320,152,10,82,-6
8675,2008,-304,152,10,79,-4
8680,2032,-336,152,11,78,-3
8685,2008,-296,136,9,74,-3
8690,2016,-328,144,10,70,-3
8695,2032,-328,160,10,68,-2
8700,2024,-312,128,11,64,-3
8705,2024,-320,144,15,62,-2
8710,2040,-304,128,19,61,-2
8715,2032,-304,160,23,63,-4
8720,2016,-304,112,25,65,-5
8725,2008,-264,128,25,68,-4
8730,2040,-296,136,22,72,-6
8735,2008,-280,112,17,74,-6
8740,2016,-272,128,10,76,-7
8745,2040,-288,152,2,77,-7
8750,2024,-272,152,-5,80,-7
8755,2040,-320,128,-9,79,-7
8760,2032,-304,144,-13,82,-7
8765,2024,-320,160,-12,83,-7
8770,2008,-304,152,-13,84,-7
8775,2056,-296,168,-9,81,-7
8780,2016,-312,136,-6,82,-8
8785,2008,-328,152,-3,82,-7
8790,2024,-312,152,0,83,-8
8795,2008,-312,136,3,84,-7
8800,2032,-312,152,4,83,-8
8805,2008,-280,144,4,83,-9
8810,2032,-312,144,3,83,-8
8815,2008,-296,152,2,82,-7
8820,2024,-304,176,-2,80,-8
8825,2008,-304,152,-3,76,-6
8830,2016,-304,128,-5,75,-5
8835,2024,-328,136,-10,72,-5
8840,2016,-328,136,-8,67,-6
8845,2024,-320,152,-5,64,-9
8850,2008,-328,128,-1,62,-8
8855,2008,-304,200,3,62,-10
8860,2032,-312,144,6,65,-11
8865,1992,-296,160,9,69,-13
8870,2016,-296,152,10,74,-14
8875,2032,-288,152,8,80,-19
8880,2032,-312,152,5,89,-19
8885,2008,-296,144,3,96,-22
8890,2032,-304,144,2,102,-23
8895,2056,-296,128,2,105,-24
8900,2032,-296,160,2,106,-23
8905,2032,-256,144,1,106,-21
8910,2024,-296,144,-5,106,-20
8915,2040,-280,144,-11,105,-19
8920,2032,-248,152,-15,100,-18
8925,2040,-304,152,-20,96,-16
8930,2048,-272,160,-28,93,-15
8935,2040,-288,168,-35,89,-11
8940,2032,-296,144,-38,85,-7
8945,2032,-288,184,-40,79,-3
8950,2032,-296,152,-38,76,-2
8955,2032,-336,160,-33,75,-1
8960,2000,-272,160,-29,74,-2
8965,2024,-296,144,-22,73,-3
8970,2024,-304,152,-18,74,-3
8975,2032,-312,128,-12,75,-4
8980,2024,-288,136,-10,76,-2
8985,2032,-304,128,-8,76,-4
8990,2032,-312,176,-7,77,-3
8995,2016,-296,160,-7,77,-4
9000,2048,-304,144,-5,78,-5
9005,1984,-320,128,-3,79,-5
9010,2016,-296,160,-5,81,-3
9015,2024,-280,160,-7,77,-4
9020,2032,-288,176,-7,76,-5
9025,2008,-280,160,-7,79,-5
9030,2016,-304,168,-8,79,-4
9035,2000,-296,176,-9,78,-5
9040,2024,-288,160,-9,79,-5
9045,2016,-312,192,-10,80,-5
9050,2008,-280,192,-11,79,-5
9055,2008,-280,160,-12,78,-5
9060,2000,-280,144,-12,80,-6
9065,2024,-288,176,-12,82,-8
9070,2040,-328,144,-9,79,-9
9075,2040,-320,152,-3,75,-9
9080,2032,-312,160,4,74,-13
9085,2032,-312,160,9,73,-13
9090,2024,-328,152,13,73,-13
9095,2008,-304,168,17,76,-14
9100,2016,-368,80,19,76,-15
9105,2008,-296,136,22,75,-16
9110,2032,-288,136,25,75,-16
9115,1992,-280,168,27,75,-14
9120,2008,-304,144,27,73,-14
9125,2016,-280,160,27,71,-12
9130,2040,-296,152,23,69,-10
9135,2024,-272,144,17,69,-10
9140,2016,-280,168,13,71,-9
9145,2016,-280,168,12,70,-9
9150,2032,-296,144,12,69,-7
9155,2032,-320,160,11,70,-7
9160,2040,-304,152,9,70,-9
9165,2024,-304,152,9,68,-12
9170,2032,-304,152,7,68,-12
9175,2016,-288,136,7,70,-13
9180,2048,-312,144,3,72,-13
9185,2016,-288,152,-2,74,-14
9190,2024,-256,152,-5,74,-14
9195,2040,-288,168,-10,72,-12
9200,2032,-288,144,-12,72,-12
9205,2016,-272,160,-16,70,-10
9210,2040,-248,192,-17,69,-9
9215,2032,-288,128,-19,67,-8
9220,2040,-312,152,-21,66,-8
9225,2032,-312,160,-21,65,-5
9230,2016,-296,152,-19,64,-5
9235,2024,-280,136,-17,64,-4
9240,2024,-304,168,-16,63,-5
9245,2024,-280,168,-14,63,-6
9250,2016,-280,160,-13,65,-6
9255,2024,-296,176,-12,65,-7
9260,2016,-280,184,-10,67,-7
9265,2040,-272,160,-7,67,-7
9270,2024,-304,152,-8,69,-7
9275,2032,-256,144,-8,69,-9
9280,2000,-256,176,-7,71,-9
9285,2032,-280,168,-10,72,-8
9290,2024,-312,160,-10,73,-7
9295,2032,-296,144,-10,73,-7
9300,2016,-288,168,-11,74,-6
9305,2032,-304,176,-11,74,-4
9310,2016,-280,168,-10,74,-3
9315,2024,-296,160,-11,71,-2
9320,2048,-296,224,-8,69,-2
9325,2016,-296,168,-7,68,-3
9330,2024,-312,152,-4,66,-5
9335,2032,-288,168,-1,67,-4
9340,2024,-288,160,2,67,-5
9345,2024,-288,144,5,69,-6
9350,2016,-272,152,6,69,-5
9355,2016,-288,136,6,73,-6
9360,2024,-304,160,5,72,-8
9365,2016,-280,136,5,74,-9
9370,2016,-296,136,6,76,-9
9375,2008,-296,144,7,76,-9
9380,2016,-312,152,6,77,-9
9385,2000,-288,136,7,77,-9
9390,2032,-296,160,5,78,-7
9395,2024,-304,144,4,78,-7
9400,2024,-296,144,5,77,-7
9405,2000,-304,160,4,77,-8
9410,2024,-296,136,5,75,-8
9415,2032,-296,168,5,74,-9
9420,2032,-312,128,8,73,-10
9425,2016,-296,152,10,73,-11
9430,1952,-240,128,15,74,-12
9435,2008,-264,152,20,74,-13
9440,2008,-288,144,22,77,-13
9445,2024,-288,168,18,82,-14
9450,2008,-248,144,15,85,-15
9455,2032,-280,168,12,85,-13
9460,2040,-296,160,6,84,-11
9465,2040,-264,168,0,85,-10
9470,2016,-280,160,-3,86,-11
9475,2000,-272,176,-4,87,-10
9480,2032,-304,168,-4,88,-11
9485,2016,-280,144,-4,87,-9
9490,2032,-264,168,-4,88,-10
9495,2040,-288,160,-6,89,-10
9500,2008,-304,184,-5,89,-10
9505,2040,-280,184,-1,88,-9
9510,2040,-296,152,3,86,-7
9515,2048,-288,144,3,85,-6
9520,2040,-296,160,-1,85,-6
9525,2040,-304,168,-3,86,-5
9530,2040,-288,176,-3,86,-7
9535,2048,-296,24,-2,84,-7
9540,2032,-280,168,-1,81,-5
9545,2048,-296,168,1,79,-4
9550,2008,-304,160,2,75,-4
9555,2008,-296,168,3,73,-3
9560,2024,-304,176,5,71,-2
9565,2024,-280,184,6,71,-1
9570,2000,-296,160,6,72,1
9575,2024,-280,200,6,69,0
9580,2008,-320,168,7,69,0
9585,2016,-280,168,12,68,2
9590,2016,-296,168,16,71,4
9595,2008,-264,192,14,74,1
9600,2008,-280,168,10,73,-1
9605,2032,-288,160,6,71,-4
9610,2016,-296,200,1,73,-4
9615,2016,-288,168,-3,75,-5
9620,2032,-296,184,-3,73,-7
9625,2024,-288,176,-3,73,-6
9630,2008,-296,160,0,72,-4
9635,2040,-296,160,2,70,-5
9640,2016,-272,144,2,69,-6
9645,2008,-328,216,0,68,-6
9650,2040,-288,160,-2,66,-6
9655,2032,-280,168,-4,67,-6
9660,2024,-280,160,-8,66,-5
9665,2024,-304,176,-9,65,-5
9670,2032,-304,152,-10,64,-5
9675,2040,-312,176,-11,62,-3
9680,2024,-288,168,-9,62,-4
9685,2024,-280,144,-6,61,-5
9690,2032,-312,168,-4,63,-6
9695,2032,-312,152,2,59,-9
9700,2048,-296,160,4,64,-8
9705,2032,-304,160,5,70,-9
9710,2032,-288,208,7,71,-9
9715,2016,-288,168,8,73,-8
9720,2016,-296,192,8,74,-9
9725,2000,-280,168,6,74,-8
9730,2032,-312,136,5,71,-9
9735,2024,-296,192,4,69,-10
9740,2008,-280,176,0,67,-10
9745,2040,-304,168,-1,66,-9
9750,2032,-296,168,-3,65,-8
9755,2008,-352,128,-4,65,-6
9760,2040,-280,168,-7,67,-6
9765,2032,-288,152,-9,67,-8
9770,2032,-288,168,-11,69,-5
9775,2040,-296,152,-15,69,-6
9780,2040,-272,144,-18,69,-6
9785,2016,-280,160,-17,69,-6
9790,2040,-296,184,-16,67,-7
9795,2032,-272,168,-18,68,-7
9800,2032,-304,168,-18,67,-8
9805,2040,-280,168,-18,67,-8
9810,2024,-296,168,-18,66,-8
9815,2016,-264,136,-17,65,-8
9820,2016,-272,160,-17,65,-8
9825,2032,-304,168,-17,63,-7
9830,2024,-272,168,-17,64,-6
9835,2032,-320,152,-15,64,-7
9840,2040,-288,160,-13,64,-9
9845,2040,-312,168,-9,64,-8
9850,2024,-296,168,-9,62,-7
9855,2032,-280,144,-8,64,-8
9860,2032,-304,168,-7,63,-7
9865,2056,-304,200,-5,63,-6
9870,2048,-304,176,-5,65,-5
9875,2032,-288,152,-3,63,-6
9880,2016,-280,144,-3,64,-4
9885,2016,-296,176,-4,64,-6
9890,2016,-280,136,-6,66,-4
9895,2040,-280,160,-9,63,-4
9900,2040,-264,168,-9,64,-4
9905,2056,-296,176,-10,64,-4
9910,2024,-296,152,-11,64,-4
9915,2032,-272,168,-12,63,-4
9920,2008,-264,152,-13,63,-4
9925,2008,-304,152,-14,64,-4
9930,2016,-304,144,-13,64,-4
9935,1992,-296,160,-14,63,-3
9940,2040,-288,200,-14,64,-3
9945,2040,-296,200,-14,64,-3
9950,2008,-272,168,-14,64,-2
9955,2032,-288,168,-13,64,-6
9960,2032,-280,184,-14,63,-4
9965,2016,-280,152,-14,63,-6
9970,2016,-272,184,-13,63,-6
9975,2080,-328,208,-13,64,-7
9980,2016,-272,176,-14,65,-6
9985,2008,-304,152,-15,64,-6
9990,2016,-272,160,-15,66,-5
9995,2024,-272,144,-15,67,-5
10000,2032,-296,160,-15,66,-5
10005,2008,-280,152,-15,67,-5
10010,2008,-280,160,-14,66,-5
10015,2016,-296,152,-13,66,-5
10020,2040,-296,168,-12,66,-7
10025,2032,-288,152,-11,67,-6
10030,2024,-280,160,-10,67,-5
10035,2040,-304,120,-10,67,-6
10040,2024,-288,168,-9,67,-6
10045,1992,-280,176,-10,68,-7
10050,2032,-288,168,-10,68,-6
10055,2040,-288,160,-10,67,-7
10060,2032,-280,184,-9,68,-6
10065,2040,-304,152,-10,68,-4
10070,2032,-272,152,-10,66,-2
10075,2040,-312,160,-9,65,-1
10080,2032,-296,112,-8,61,-2
10085,2024,-296,168,-7,60,-4
10090,2024,-256,176,-5,59,-2
10095,2040,-264,152,-3,60,-4
10100,2024,-288,168,-4,59,-4
10105,2032,-288,160,-4,61,-5
10110,2016,-248,200,-6,62,-5
10115,2032,-280,120,-8,65,-6
10120,2024,-288,184,-9,64,-6
10125,2016,-296,160,-9,65,-6
10130,2024,-304,128,-8,66,-4
10135,2016,-320,136,-6,68,-6
10140,2040,-328,168,-1,70,-5
10145,2016,-288,152,2,71,-5
10150,2032,-312,152,6,72,-5
10155,2032,-312,120,7,72,-3
10160,2000,-328,152,8,71,-2
10165,2024,-328,160,9,69,-1
10170,2032,-296,176,10,68,-1
10175,2040,-280,144,11,66,-1
10180,2024,-272,128,11,67,-1
10185,2032,-272,152,9,68,-2
10190,2056,-264,216,5,67,-2
10195,2024,-264,152,0,70,0
10200,2024,-272,160,-6,72,-1
10205,2008,-264,144,-12,73,1
10210,2008,-240,152,-17,71,0
10215,2040,-272,160,-22,71,-1
10220,2024,-280,176,-26,70,2
10225,2016,-272,160,-28,69,0
10230,2024,-296,184,-27,68,-1
10235,2016,-296,136,-23,68,-1
10240,2024,-304,168,-21,70,-1
10245,2008,-272,152,-18,71,-4
10250,2008,-304,176,-15,73,-3
10255,2024,-264,176,-15,73,-3
10260,2024,-288,152,-17,75,-5
10265,2040,-288,144,-19,75,-3
10270,2032,-272,184,-23,75,-2
10275,2040,-272,144,-26,74,0
10280,2024,-264,192,-28,73,0
10285,2032,-264,160,-28,73,1
10290,2032,-296,136,-28,72,1
10295,2008,-288,176,-29,70,1
10300,1960,-320,120,-25,70,2
10305,2024,-280,152,-23,69,1
10310,2024,-288,176,-20,68,0
10315,2024,-288,152,-18,68,0
10320,2024,-280,168,-18,67,0
10325,2008,-288,192,-15,69,-1
10330,2024,-264,184,-14,69,-1
10335,2016,-280,144,-14,69,0
10340,2024,-288,160,-14,71,0
10345,2008,-296,160,-13,73,0
10350,2024,-272,176,-15,74,-1
10355,2024,-280,192,-16,74,-1
10360,2032,-288,168,-16,74,-2
10365,2024,-288,168,-17,75,-4
10370,2040,-304,184,-17,76,-4
10375,2040,-296,160,-16,76,-4
10380,2040,-288,184,-16,73,-3
10385,2016,-280,160,-14,73,-4
10390,2024,-256,184,-13,73,-2
10395,2008,-272,152,-15,72,-2
10400,2016,-288,136,-16,72,-1
10405,2024,-264,168,-16,71,-1
10410,2048,-304,240,-18,70,0
10415,2032,-288,168,-18,71,0
10420,2032,-296,168,-18,69,-1
10425,2016,-304,168,-17,69,-1
10430,2032,-280,152,-16,72,-2
10435,2016,-304,152,-15,70,-2
10440,2016,-288,144,-10,72,-3
10445,2024,-272,168,-7,72,-4
10450,2032,-304,128,-6,73,-7
10455,2048,-296,136,-6,75,-8
10460,2024,-264,160,-7,76,-9
10465,2000,-288,136,-8,76,-10
10470,2024,-296,152,-11,77,-9
10475,2008,-288,176,-14,78,-10
10480,2016,-288,160,-16,76,-9
10485,2024,-288,176,-17,74,-8
10490,2016,-296,176,-18,73,-8
10495,2016,-304,176,-16,73,-9
10500,2032,-288,192,-16,72,-9
10505,2008,-288,160,-15,71,-6
10510,2016,-296,176,-15,69,-6
10515,2024,-280,184,-14,68,-7
10520,2016,-208,176,-15,68,-7
10525,2024,-280,152,-17,68,-7
10530,2024,-256,160,-17,67,-8
10535,2040,-288,152,-17,68,-7
10540,2032,-280,144,-17,70,-8
10545,2040,-272,192,-16,69,-8
10550,2040,-296,144,-17,69,-8
10555,2032,-304,152,-16,71,-9
10560,2032,-304,160,-13,70,-7
10565,2016,-288,176,-12,69,-6
10570,1992,-280,168,-10,69,-5
10575,2040,-280,168,-8,70,-5
10580,2024,-264,184,-7,69,-6
10585,2008,-264,168,-8,69,-6
10590,2032,-256,160,-8,70,-6
10595,2048,-296,136,-10,68,-7
10600,2024,-288,152,-10,68,-6
10605,2032,-280,168,-8,69,-5
10610,2032,-272,168,-9,68,-6
10615,2016,-264,152,-9,67,-6
10620,2016,-272,152,-10,68,-7
10625,2024,-280,160,-10,67,-7
10630,2032,-272,168,-10,68,-5
10635,2032,-296,160,-12,67,-4
10640,2024,-296,168,-12,67,-4
10645,2040,-288,160,-10,66,-4
10650,2040,-280,160,-11,67,-4
10655,2024,-280,176,-10,66,-5
10660,2032,-280,168,-10,66,-4
10665,2024,-280,176,-9,67,-4
10670,2016,-280,160,-10,66,-4
10675,2024,-264,176,-13,68,-4
10680,2040,-280,152,-14,65,-4
10685,2008,-264,168,-15,64,-5
10690,2016,-256,168,-15,63,-3
10695,2024,-280,160,-18,64,-2
10700,2008,-296,176,-17,63,-1
10705,2024,-296,160,-18,63,-2
10710,2032,-296,192,-18,62,-1
10715,2040,-280,168,-18,64,-2
10720,2040,-304,184,-16,63,-1
10725,2032,-296,160,-15,65,-2
10730,2024,-272,168,-15,65,-2
10735,2024,-296,112,-15,67,-2
10740,2016,-288,160,-14,68,-3
10745,2032,-296,176,-13,67,-3
10750,2040,-312,136,-13,68,-3
10755,2032,-296,184,-12,66,-3
10760,2032,-280,176,-14,67,-3
10765,2024,-280,160,-14,66,-3
10770,2000,-288,144,-15,69,-3
10775,2032,-312,160,-15,67,-3
10780,2040,-288,168,-15,67,-3
10785,2008,-296,152,-13,65,-2
10790,2024,-288,168,-12,64,-1
10795,2032,-296,184,-12,64,-2
10800,2008,-256,200,-10,63,-2
10805,2024,-280,160,-9,62,-1
10810,2040,-288,168,-10,62,-1
10815,2016,-272,144,-8,63,-2
10820,2040,-288,136,-9,62,-2
10825,2040,-296,160,-9,63,-2
10830,2040,-296,152,-9,63,-3
10835,2048,-312,144,-8,62,-3
10840,2032,-288,192,-8,62,-2
10845,2064,-320,120,-8,64,-3
10850,2008,-280,176,-7,64,-3
10855,2056,-304,168,-8,64,-4
10860,2024,-288,136,-7,63,-2
10865,2008,-280,144,-6,64,-3
10870,2024,-288,168,-5,63,-4
10875,2032,-288,144,-5,62,-4
10880,2024,-296,160,-4,63,-4
10885,2008,-272,176,-5,60,-4
10890,2008,-296,136,-5,60,-4
10895,2040,-304,176,-4,60,-5
10900,2016,-280,176,-5,61,-4
10905,2024,-304,128,-5,61,-6
10910,2040,-288,152,-5,59,-5
10915,2008,-296,152,-4,60,-4
10920,2008,-264,160,-3,61,-5
10925,2008,-264,192,-3,60,-6
10930,2016,-296,168,-4,60,-4
10935,2032,-280,184,-3,60,-5
10940,2016,-288,184,-2,59,-5
10945,2040,-304,168,-2,60,-3
10950,2024,-288,144,-2,59,-4
10955,2072,-296,224,-1,58,-5
10960,2024,-304,168,0,57,-2
10965,2024,-280,144,0,56,-3
10970,2024,-264,168,2,56,-5
10975,2032,-288,160,4,57,-6
10980,2032,-264,176,2,58,-6
10985,2024,-264,120,-1,56,-6
10990,2016,-264,152,-2,56,-6
10995,2024,-264,176,-5,57,-5
11000,2040,-272,160,-8,57,-6
11005,2032,-272,136,-9,57,-5
11010,2040,-296,192,-10,58,-5
11015,2048,-296,152,-7,57,-4
11020,2048,-288,136,-3,59,-5
11025,2008,-272,160,-1,60,-5
11030,2048,-296,152,-1,61,-5
11035,1992,-288,192,0,61,-6
11040,2032,-320,160,-1,60,-5
11045,2024,-312,184,0,59,-4
11050,2024,-288,144,0,59,-4
11055,2008,-280,128,2,58,-5
11060,2048,-288,128,4,57,-5
11065,2032,-264,152,3,59,-6
11070,2024,-256,136,3,62,-6
11075,2040,-288,128,1,65,-6
11080,2032,-264,128,-3,69,-6
11085,2000,-256,152,-10,71,-4
11090,2040,-272,144,-15,72,-5
11095,2024,-264,144,-20,74,-6
11100,2048,-296,160,-23,73,-5
11105,2040,-296,160,-27,74,-5
11110,2040,-288,128,-27,75,-5
11115,1936,-360,184,-25,77,-7
11120,2032,-280,184,-23,76,-6
11125,2016,-264,176,-23,75,-5
11130,2016,-248,168,-22,75,-6
11135,2032,-248,176,-22,75,-5
11140,2024,-264,160,-25,73,-3
11145,2040,-288,168,-26,72,-2
11150,2048,-280,160,-28,71,-4
11155,2024,-288,152,-32,71,-3
11160,2048,-264,152,-36,70,-2
11165,2024,-264,152,-38,69,-1
11170,1976,-272,16,-39,67,-2
11175,2040,-312,144,-40,68,-2
11180,2008,-280,184,-40,68,-2
11185,2024,-264,152,-42,69,-1
11190,2024,-288,160,-41,69,-1
11195,2024,-280,160,-40,68,-3
11200,2024,-264,152,-40,69,-2
11205,2032,-288,152,-40,70,-3
11210,2040,-312,144,-40,71,-2
11215,2016,-272,152,-40,73,-2
11220,2024,-296,168,-39,74,-2
11225,2024,-288,152,-38,75,-1
11230,2040,-304,152,-35,75,-1
11235,2040,-304,160,-32,77,-2
11240,2040,-304,176,-28,77,-2
11245,2024,-288,128,-26,80,-2
11250,2032,-304,136,-23,82,-5
11255,2024,-272,136,-20,83,-5
11260,2008,-288,152,-20,85,-6
11265,2032,-280,160,-20,87,-7
11270,2032,-264,208,-22,85,-7
11275,1992,-248,152,-26,87,-7
11280,2016,-312,272,-29,88,-5
11285,2032,-272,192,-33,87,-7
11290,2008,-280,176,-38,87,-6
11295,2024,-296,160,-43,86,-5
11300,2016,-296,168,-46,86,-5
11305,2000,-312,144,-48,87,-5
11310,2024,-288,176,-48,86,-6
11315,2008,-312,160,-48,86,-5
11320,2008,-288,176,-45,87,-7
11325,2024,-288,176,-45,89,-7
11330,2016,-280,160,-42,90,-8
11335,2032,-280,208,-40,90,-10
11340,2008,-312,184,-41,90,-11
11345,2032,-288,168,-43,89,-10
11350,2040,-296,176,-44,88,-9
11355,2040,-280,184,-46,86,-9
11360,2032,-288,200,-49,83,-8
11365,2024,-248,176,-53,77,-6
11370,2040,-288,176,-55,74,-3
11375,2040,-296,168,-58,70,-5
11380,2048,-272,144,-61,68,-2
11385,2048,-288,168,-66,67,-3
11390,2064,-264,208,-69,66,-1
11395,2016,-272,168,-73,64,-1
11400,2032,-288,192,-75,64,-1
11405,2024,-280,168,-77,64,-4
11410,2024,-296,152,-78,63,-3
11415,2008,-288,160,-77,62,-1
11420,2024,-288,168,-76,63,-1
11425,2032,-288,152,-75,63,-1
11430,2008,-288,160,-71,62,-2
11435,2040,-296,160,-67,61,-1
11440,2040,-288,160,-62,59,-1
11445,2048,-312,160,-58,59,-1
11450,2016,-312,152,-55,57,0
11455,2040,-272,200,-53,57,0
11460,2016,-296,160,-50,56,0
11465,2032,-296,152,-49,57,2
11470,2032,-264,128,-50,54,2
11475,2032,-296,152,-53,52,4
11480,2016,-264,144,-56,50,4
11485,2032,-280,160,-57,48,6
11490,2024,-272,176,-59,46,8
11495,2040,-304,144,-60,46,7
11500,2032,-304,120,-59,46,6
11505,2024,-280,160,-58,45,7
11510,2024,-296,176,-59,45,6
11515,2032,-304,160,-58,43,7
11520,2016,-296,184,-56,44,7
11525,2000,-288,168,-54,45,6
11530,2024,-280,136,-52,45,5
11535,2024,-272,160,-50,48,5
11540,2008,-288,168,-50,48,4
11545,2024,-296,168,-51,50,4
11550,2032,-288,136,-51,51,4
11555,2008,-296,160,-48,52,5
11560,2040,-288,160,-47,52,6
11565,2024,-304,160,-47,51,4
11570,2040,-280,144,-45,52,5
11575,2032,-288,160,-46,55,5
11580,2016,-288,136,-47,54,5
11585,2032,-288,128,-48,55,7
11590,2024,-280,144,-46,56,6
11595,2032,-296,128,-46,56,7
11600,2032,-280,160,-45,57,7
11605,2032,-240,208,-44,57,6
11610,2024,-296,168,-44,60,6
11615,2032,-312,136,-43,61,4
11620,2024,-328,144,-42,60,2
11625,2032,-296,152,-42,62,3
11630,2032,-312,144,-41,61,2
11635,2032,-288,128,-40,62,0
11640,2016,-296,168,-40,64,0
11645,2024,-304,144,-39,63,0
11650,2048,-304,152,-40,63,-1
11655,2032,-320,144,-41,63,-2
11660,2024,-312,152,-42,62,-1
11665,2016,-288,160,-44,63,-1
11670,2040,-304,136,-48,64,3
11675,2016,-296,160,-47,60,2
11680,2024,-296,160,-50,58,4
11685,2048,-296,176,-51,57,4
11690,2032,-280,136,-52,56,5
11695,2016,-296,144,-53,54,5
11700,2032,-304,168,-54,52,7
11705,1992,-288,168,-56,51,6
11710,2008,-288,168,-56,51,5
11715,2104,-272,200,-55,49,5
11720,2024,-288,144,-54,49,6
11725,2016,-296,136,-55,48,3
11730,2024,-288,120,-57,49,3
11735,2032,-304,144,-58,52,2
11740,2032,-296,168,-56,51,1
11745,1992,-304,144,-55,52,0
11750,2016,-304,136,-52,51,0
11755,2024,-304,136,-47,52,0
11760,2024,-328,152,-43,51,-1
11765,2024,-320,152,-40,53,-1
11770,2016,-296,144,-36,56,-1
11775,2024,-312,160,-33,56,-1
11780,2008,-296,136,-31,57,-3
11785,2016,-280,120,-31,56,-2
11790,2040,-312,168,-31,57,-2
11795,2008,-264,152,-29,55,-4
11800,2024,-296,128,-29,54,-3
11805,2040,-272,144,-31,53,-3
11810,2048,-296,176,-32,52,0
11815,2016,-312,120,-33,50,0
11820,2032,-296,144,-35,48,2
11825,1960,-328,120,-38,45,2
11830,2032,-304,144,-39,46,2
11835,2032,-304,144,-41,46,3
11840,2040,-304,120,-43,47,4
11845,2024,-272,120,-45,45,6
11850,2032,-304,160,-45,45,6
11855,2016,-320,136,-43,45,5
11860,2016,-320,144,-41,44,5
11865,2040,-288,152,-39,44,4
11870,2016,-288,152,-37,45,2
11875,2032,-320,160,-34,47,1
11880,2024,-312,128,-31,50,2
11885,2016,-304,128,-25,50,1
11890,2024,-304,128,-22,51,1
11895,2040,-312,128,-20,56,0
11900,2024,-296,96,-18,57,-1
11905,2032,-296,120,-18,60,-1
11910,2024,-304,152,-18,62,0
11915,2040,-304,112,-19,63,-1
11920,2040,-296,144,-20,62,-1
11925,2032,-312,152,-22,60,-1
11930,2024,-304,168,-25,60,-2
11935,2024,-384,248,-29,59,0
11940,2008,-320,136,-32,56,-2
11945,2008,-288,104,-36,56,0
11950,2008,-304,160,-37,56,-1
11955,2032,-312,120,-36,56,0
11960,2040,-288,136,-34,56,-2
11965,2000,-272,128,-30,56,-3
11970,2024,-296,112,-28,56,-2
11975,2040,-304,136,-25,56,-3
11980,2040,-296,128,-24,57,-3
11985,2024,-288,128,-26,58,-4
11990,2024,-296,112,-29,60,-3
11995,2008,-296,104,-31,61,-4
12000,2024,-296,104,-33,63,-4
12005,2040,-312,112,-34,64,-5
12010,2024,-312,104,-35,64,-6
12015,2024,-288,152,-34,66,-8
12020,2032,-320,120,-32,68,-8
12025,2048,-280,120,-30,67,-9
12030,2008,-304,136,-28,68,-9
12035,2016,-296,144,-27,69,-9
12040,2024,-304,144,-26,69,-10
12045,2056,-296,136,-25,68,-11
12050,2024,-296,160,-24,68,-12
12055,2008,-288,152,-24,69,-11
12060,2008,-296,120,-24,69,-12
12065,2016,-288,144,-24,68,-11
12070,2032,-288,104,-24,68,-11
12075,2024,-312,128,-22,67,-11
12080,2040,-296,120,-21,66,-9
12085,2008,-304,136,-20,64,-9
12090,2040,-296,136,-20,63,-8
12095,2032,-304,136,-19,62,-8
12100,2040,-296,144,-19,63,-7
12105,2024,-272,128,-19,63,-7
12110,2024,-288,152,-19,62,-6
12115,2024,-304,120,-22,63,-7
12120,2024,-288,120,-24,62,-7
12125,2024,-280,136,-24,61,-7
12130,2016,-288,144,-24,60,-8
12135,2032,-280,136,-22,59,-8
12140,2032,-288,160,-19,60,-8
12145,2040,-336,128,-17,58,-8
12150,2056,-256,112,-14,57,-8
12155,2024,-312,136,-10,57,-10
12160,2024,-280,136,-8,57,-10
12165,2032,-312,128,-5,58,-10
12170,2040,-304,120,-2,58,-10
12175,2040,-312,128,-2,59,-9
12180,2048,-320,128,0,60,-9
12185,2008,-304,112,-1,60,-8
12190,2040,-304,112,-1,62,-9
12195,2040,-304,80,-1,62,-7
12200,2032,-288,96,1,63,-7
12205,2040,-312,112,4,65,-8
12210,2032,-288,120,7,68,-8
12215,2024,-264,120,8,68,-9
12220,2024,-320,112,9,69,-10
12225,2016,-304,120,10,67,-9
12230,2024,-288,104,9,68,-10
12235,2024,-312,136,10,70,-10
12240,2032,-288,128,8,70,-12
12245,2024,-288,128,7,71,-11
12250,2008,-312,120,5,71,-11
12255,2016,-288,104,3,71,-11
12260,2048,-288,48,-1,73,-11
12265,2040,-288,144,-2,71,-10
12270,2040,-264,144,-5,71,-9
12275,2008,-304,144,-9,71,-8
12280,2048,-320,144,-8,70,-8
12285,2040,-312,112,-7,69,-8
12290,2032,-304,112,-8,69,-7
12295,2016,-288,96,-7,68,-8
12300,2016,-280,104,-4,70,-7
12305,2024,-304,136,-2,69,-7
12310,1992,-272,136,2,69,-6
12315,2032,-304,120,3,69,-6
12320,2032,-312,136,5,70,-9
12325,2008,-304,128,7,68,-10
12330,2016,-288,144,10,70,-9
12335,2040,-304,120,11,72,-10
12340,2024,-288,128,15,74,-10
12345,2008,-280,104,18,75,-11
12350,2024,-296,112,21,77,-11
12355,2024,-320,96,23,77,-10
12360,2040,-296,128,25,80,-10
12365,2024,-304,144,26,82,-10
12370,2040,-312,128,27,84,-10
12375,2024,-272,144,26,86,-11
12380,2032,-272,136,26,87,-10
12385,2024,-288,128,26,87,-10
12390,2024,-288,112,28,88,-12
12395,2032,-288,152,29,89,-11
12400,2032,-280,144,27,87,-9
12405,2024,-288,160,27,86,-8
12410,2024,-296,128,26,86,-9
12415,2032,-304,112,26,86,-8
12420,2032,-288,128,25,87,-11
12425,2032,-288,128,24,87,-11
12430,2024,-296,152,27,86,-10
12435,2008,-288,120,29,87,-9
12440,2000,-264,112,31,87,-11
12445,2024,-272,128,33,87,-11
12450,2024,-272,136,34,89,-12
12455,2040,-288,136,36,90,-13
12460,2032,-304,120,37,91,-14
12465,2032,-296,112,41,91,-15
12470,2032,-288,120,43,93,-16
12475,2040,-280,120,47,95,-16
12480,2072,-312,152,52,96,-18
12485,2032,-272,112,55,99,-17
12490,2048,-296,128,57,102,-19
12495,2032,-256,128,61,105,-18
12500,2032,-296,136,63,107,-18
12505,2032,-280,144,63,110,-18
12510,2032,-312,120,65,109,-17
12515,2040,-288,144,66,110,-17
12520,2016,-272,152,62,110,-17
12525,2048,-280,112,59,111,-16
12530,2040,-264,176,52,113,-16
12535,2016,-272,160,49,113,-14
12540,2032,-304,176,47,109,-12
12545,2048,-288,168,44,105,-10
12550,2032,-264,184,38,97,-11
12555,2024,-264,152,32,93,-11
12560,2032,-264,152,26,91,-9
12565,2040,-288,192,19,89,-7
12570,2040,-288,144,15,85,-8
12575,2008,-272,184,13,84,-8
12580,1992,-256,128,6,82,-5
12585,1992,-256,104,-5,80,-8
12590,2032,-296,168,-15,71,-8
12595,2048,-280,200,-16,65,-9
12600,2016,-304,176,-7,72,-8
12605,2024,-312,152,3,76,-7
12610,2024,-296,200,9,78,-9
12615,2024,-272,112,13,78,-10
12620,2032,-296,136,13,81,-12
12625,2024,-304,104,12,81,-11
12630,2032,-280,176,11,78,-11
12635,2032,-296,144,12,76,-9
12640,2040,-296,168,16,74,-7
12645,2008,-296,136,19,73,-7
12650,2024,-304,160,22,74,-7
12655,2032,-304,176,27,74,-7
12660,2032,-280,152,31,75,-5
12665,2024,-264,160,37,75,-3
12670,2032,-288,136,41,73,-4
12675,2008,-280,144,46,72,-4
12680,2040,-304,136,51,73,-7
12685,2016,-256,120,56,76,-9
12690,2032,-288,120,57,80,-8
12695,2032,-264,96,61,84,-10
12700,2040,-264,160,65,84,-9
12705,2032,-280,136,68,84,-9
12710,2024,-280,152,71,82,-7
12715,2048,-280,136,70,81,-6
12720,2040,-272,136,65,82,-5
12725,2016,-256,136,57,83,-7
12730,2040,-248,144,47,86,-5
12735,2040,-264,152,41,86,-5
12740,2048,-280,168,32,86,-6
12745,2032,-280,160,25,84,-5
12750,2024,-240,152,20,80,-5
12755,2016,-264,168,16,80,-3
12760,2016,-264,136,12,80,-2
12765,2032,-264,176,6,81,-2
12770,2016,-272,176,3,79,-3
12775,2024,-272,168,1,76,-3
12780,2024,-264,144,0,76,-3
12785,2032,-288,152,0,78,-3
12790,2024,-272,160,-1,76,-2
12795,2040,-256,136,1,75,-3
12800,2040,-304,176,0,74,-2
12805,2024,-296,192,1,75,-2
12810,2024,-280,176,2,76,-2
12815,2024,-312,176,4,77,-4
12820,2024,-288,160,6,75,-4
12825,2032,-280,160,8,73,-2
12830,2040,-288,152,10,72,-3
12835,2024,-296,184,10,74,-5
12840,2000,-280,168,10,74,-3
12845,2016,-288,152,10,75,-3
12850,2032,-288,160,10,75,-4
12855,2024,-264,144,10,74,-5
12860,2008,-264,168,8,74,-5
12865,2032,-264,128,8,74,-6
12870,2016,-280,176,10,74,-5
12875,2040,-280,168,14,72,-5
12880,2040,-256,136,19,70,-5
12885,2008,-248,152,19,69,-4
12890,2016,-288,152,17,69,-4
12895,2024,-256,200,13,70,-5
12900,2032,-248,160,9,69,-4
12905,2008,-272,160,7,67,-3
12910,2000,-264,168,4,68,-2
12915,2024,-288,136,-1,66,0
12920,2032,-264,168,-5,65,0
12925,2000,-272,224,-7,64,-1
12930,2000,-256,176,-9,63,2
12935,2040,-296,176,-11,62,0
12940,2040,-280,144,-11,63,0
12945,2016,-296,128,-8,64,-1
12950,2040,-296,128,-4,65,-4
12955,2032,-272,136,-3,65,-3
12960,2016,-264,144,-3,67,-4
12965,2024,-296,128,-1,69,-5
12970,2024,-280,160,-2,71,-5
12975,2024,-288,160,-3,72,-7
12980,2016,-256,176,-4,70,-5
12985,2040,-256,168,-2,69,-6
12990,2016,-264,160,-1,68,-6
12995,2016,-280,160,-2,67,-3
13000,2024,-280,176,-3,65,-5
13005,2016,-280,176,-4,63,-5
13010,2032,-288,176,-6,64,-3
13015,2024,-256,160,-9,63,-3
13020,2024,-280,160,-10,61,-4
13025,2016,-280,176,-11,61,-3
13030,2016,-256,144,-15,60,-3
13035,2032,-264,184,-15,61,-2
13040,1992,-272,152,-17,59,-2
13045,2032,-288,168,-17,60,-3
13050,2040,-304,144,-15,59,-2
13055,2016,-288,144,-15,60,-2
13060,2032,-304,184,-13,60,-3
13065,2024,-288,176,-11,61,-2
13070,2032,-280,168,-8,60,-2
13075,2032,-272,160,-6,60,-3
13080,2024,-280,160,-4,61,-4
13085,2040,-264,96,-3,62,-3
13090,2040,-272,160,-5,63,-2
13095,2024,-280,160,-5,63,-3
13100,2032,-288,152,-6,65,-3
13105,2024,-256,136,-7,64,-4
13110,2000,-248,160,-7,65,-3
13115,2040,-288,136,-7,65,-3
13120,2016,-280,136,-8,65,-5
13125,2040,-280,128,-7,65,-5
13130,2056,-288,192,-9,66,-5
13135,2024,-272,160,-9,66,-4
13140,2024,-288,168,-9,67,-4
13145,2040,-288,144,-9,66,-4
13150,2032,-280,160,-9,66,-3
13155,2048,-272,144,-9,65,-1
13160,2040,-288,176,-9,65,-1
13165,2016,-272,168,-10,64,0
13170,2032,-264,192,-11,64,-1
13175,2024,-296,128,-12,64,-1
13180,2032,-264,120,-13,63,0
13185,2024,-264,168,-13,64,1
13190,2016,-296,168,-12,65,0
13195,2040,-288,128,-13,68,-2
13200,2016,-280,168,-14,67,-1
13205,2024,-288,152,-13,68,-1
13210,2024,-280,168,-13,68,-1
13215,2032,-280,136,-14,68,-2
13220,2040,-312,128,-14,67,-3
13225,2024,-280,152,-14,66,-3
13230,2024,-272,160,-13,68,-4
13235,2048,-288,144,-13,68,-2
13240,2064,-288,184,-13,68,-3
13245,2008,-272,152,-12,67,-3
13250,2000,-272,168,-11,67,-3
13255,2032,-296,160,-12,67,-2
13260,2032,-272,144,-12,67,-2
13265,2024,-288,144,-13,68,-3
13270,2040,-304,152,-15,68,-2
13275,2016,-272,160,-13,66,-3
13280,2024,-288,168,-14,65,-1
13285,2032,-296,168,-14,66,-2
13290,2016,-264,160,-13,65,-2
13295,2016,-280,152,-12,64,-2
13300,2032,-288,144,-10,64,-2
13305,2016,-296,144,-10,64,-1
13310,2008,-264,120,-10,64,-2
13315,2040,-280,144,-8,64,-1
13320,2032,-296,152,-7,63,-2
13325,2000,-280,184,-8,64,-1
13330,2032,-272,152,-8,66,-1
13335,2040,-288,152,-8,67,-1
13340,2024,-272,152,-8,66,-1
13345,2040,-288,136,-9,66,-2
13350,1960,-288,264,-8,67,-1
13355,2016,-280,160,-8,67,-1
13360,2024,-280,168,-8,65,-1
13365,2024,-264,160,-8,65,-2
13370,2008,-280,176,-9,64,-1
13375,2008,-264,160,-10,63,-1
13380,2008,-272,144,-10,62,-1
13385,2016,-288,152,-9,63,-2
13390,2040,-264,144,-9,61,-2
13395,2048,-256,152,-9,59,-1
13400,2032,-296,136,-9,60,-2
13405,2016,-280,160,-9,59,-1
13410,2040,-288,152,-8,61,-2
13415,2032,-296,144,-8,60,-2
13420,2032,-288,168,-7,60,-3
13425,2032,-280,160,-9,59,-2
13430,2024,-288,160,-8,60,-4
13435,2032,-280,168,-8,61,-3
13440,2016,-256,160,-8,61,-4
13445,2032,-280,160,-7,62,-2
13450,2040,-288,144,-9,63,-2
13455,2016,-296,144,-8,61,-1
13460,2024,-256,208,-10,62,-3
13465,2032,-264,144,-9,63,-2
13470,2024,-304,144,-7,64,-1
13475,2016,-264,168,-9,64,-1
13480,2040,-272,176,-9,63,-2
13485,2024,-280,144,-8,62,-2
13490,2032,-288,176,-7,62,-2
13495,2032,-280,152,-8,63,-2
13500,2008,-264,160,-8,64,-2
13505,2008,-272,152,-9,63,-2
13510,2032,-248,176,-8,64,-2
13515,2032,-288,184,-7,64,-2
13520,2008,-280,152,-9,65,-1
13525,2040,-288,152,-9,66,-2
13530,2032,-272,144,-8,65,-2
13535,2024,-288,168,-9,64,-2
13540,2040,-272,128,-8,66,0
13545,2024,-280,136,-6,64,1
13550,2048,-280,152,-6,62,1
13555,2016,-272,128,-4,62,3
13560,2032,-280,136,-4,62,1
13565,2040,-288,168,-3,63,-1
13570,2048,-208,192,-3,65,-1
13575,2016,-272,152,-4,65,-1
13580,2016,-280,176,-5,66,-2
13585,2032,-272,128,-7,67,-1
13590,2048,-264,144,-9,65,-1
13595,2032,-280,136,-9,66,-1
13600,2032,-296,152,-10,64,-1
13605,2048,-312,144,-12,65,-1
13610,2016,-264,152,-12,65,1
13615,2024,-296,160,-11,67,0
13620,2024,-280,144,-9,67,-1
13625,2032,-272,152,-8,66,-1
13630,2032,-288,168,-6,67,0
13635,2024,-296,136,-5,67,1
13640,2024,-304,152,-2,64,0
13645,2024,-296,176,1,62,1
13650,2024,-288,144,4,63,-1
13655,2032,-288,136,7,63,-2
13660,2024,-272,144,11,66,-3
13665,2040,-256,144,9,68,-2
13670,2032,-256,152,9,69,-3
13675,1992,-264,40,5,71,-3
13680,2032,-264,136,1,73,-4
13685,2024,-280,144,-4,74,-3
13690,2008,-264,128,-7,73,-4
13695,2032,-264,144,-9,73,-2
13700,2040,-272,160,-11,72,-4
13705,2024,-312,176,-11,73,-4
13710,2040,-280,184,-11,73,-4
13715,2008,-264,160,-9,73,-3
13720,2048,-280,160,-6,73,-4
13725,2048,-264,160,-4,72,-3
13730,1992,-264,128,-3,71,-3
13735,2024,-264,184,-3,70,-3
13740,2024,-280,136,-4,68,-3
13745,2024,-280,128,-7,67,-2
13750,2040,-280,144,-9,65,-3
13755,2040,-312,144,-10,65,-3
13760,2040,-304,144,-11,64,-2
13765,2024,-272,144,-11,64,-2
13770,2024,-280,184,-9,63,-1
13775,2040,-280,160,-9,64,-2
13780,2024,-280,176,-8,63,0
13785,1952,-368,184,-7,62,1
13790,2024,-296,160,-3,63,1
13795,2016,-272,152,-5,65,0
13800,2016,-304,176,-6,66,-1
13805,2008,-288,144,-5,67,-1
13810,2024,-288,152,-6,69,-2
13815,2008,-288,136,-8,69,-1
13820,2008,-296,136,-9,70,-2
13825,2024,-312,168,-10,72,-3
13830,2016,-272,144,-11,72,-3
13835,2016,-264,144,-11,73,-4
13840,2040,-312,144,-12,74,-4
13845,2040,-296,152,-14,75,-4
13850,2032,-296,144,-13,75,-5
13855,2024,-272,152,-13,75,-7
13860,2008,-288,144,-14,75,-8
13865,2032,-264,136,-16,76,-8
13870,2040,-280,160,-18,78,-6
13875,2024,-272,176,-20,79,-6
13880,2032,-280,160,-22,79,-5
13885,2032,-272,152,-24,78,-5
13890,2008,-240,184,-27,77,-6
13895,2048,-264,136,-29,76,-6
13900,2032,-312,144,-32,76,-6
13905,2040,-288,152,-31,75,-7
13910,2040,-280,152,-28,74,-8
13915,2048,-312,160,-25,74,-9
13920,2032,-320,136,-21,72,-10
13925,2016,-280,160,-18,73,-11
13930,2048,-296,176,-15,73,-13
13935,2016,-296,128,-16,75,-14
13940,2008,-272,160,-16,76,-16
13945,2040,-264,176,-19,74,-16
13950,2016,-280,168,-22,74,-17
13955,2016,-272,184,-26,72,-15
13960,2032,-264,136,-28,72,-13
13965,2032,-288,152,-33,70,-10
13970,2008,-256,152,-36,68,-9
13975,2016,-280,144,-37,67,-9
13980,2040,-296,176,-38,64,-7
13985,2040,-304,160,-38,62,-5
13990,2008,-256,144,-37,59,-3
13995,2000,-264,176,-38,59,-3
14000,2008,-256,160,-38,57,-2
14005,1984,-264,200,-42,57,-2
14010,2024,-264,160,-44,58,-3
14015,2032,-296,168,-45,59,-3
14020,2024,-272,160,-47,60,-3
14025,2016,-264,176,-47,60,-4
14030,2024,-280,144,-48,60,-4
14035,2016,-288,160,-47,60,-5
14040,2008,-272,152,-47,61,-5
14045,2048,-256,152,-46,60,-6
14050,2048,-288,160,-44,60,-4
14055,2016,-288,144,-42,59,-4
14060,2040,-280,152,-42,58,-4
14065,2016,-272,160,-42,55,-2
14070,2016,-272,112,-43,56,-1
14075,2024,-288,144,-45,55,0
14080,2016,-264,152,-44,53,-1
14085,2016,-272,144,-46,54,-1
14090,2016,-280,144,-47,55,-1
14095,2032,-288,152,-46,52,0
14100,2024,-288,136,-47,54,1
14105,2024,-272,160,-47,54,1
14110,1968,-312,184,-47,55,1
14115,2032,-288,168,-47,53,2
14120,2040,-280,120,-48,52,2
14125,2008,-288,184,-46,52,2
14130,2032,-272,160,-47,50,2
14135,2024,-264,144,-46,50,2
14140,2024,-280,168,-46,51,3
14145,2048,-296,144,-44,50,2
14150,2024,-280,144,-43,51,2
14155,2040,-288,128,-42,51,2
14160,2032,-296,112,-42,50,2
14165,2048,-304,168,-43,50,1
14170,2032,-288,136,-43,50,1
14175,2016,-272,152,-45,50,1
14180,2032,-264,160,-45,50,1
14185,2024,-288,152,-46,49,2
14190,2032,-272,144,-47,48,2
14195,2032,-296,168,-48,48,2
14200,2032,-272,144,-47,47,1
14205,2048,-288,160,-47,48,0
14210,2024,-272,128,-45,50,2
14215,2032,-296,160,-43,50,1
14220,2056,-264,176,-40,51,1
14225,2048,-312,128,-40,51,2
14230,2016,-272,128,-38,52,1
14235,2040,-288,152,-34,53,1
14240,2032,-304,144,-32,54,2
14245,2024,-264,144,-29,55,2
14250,2024,-280,136,-27,56,3
14255,2032,-304,136,-24,57,4
14260,2040,-280,152,-22,58,2
14265,2032,-296,72,-17,58,2
14270,2024,-312,152,-13,60,1
14275,2024,-320,128,-8,60,2
14280,2032,-288,120,-5,62,3
14285,2040,-296,136,-2,64,2
14290,2040,-288,128,2,65,2
14295,2024,-296,112,3,66,3
14300,2024,-264,128,5,69,3
14305,2040,-288,88,7,68,3
14310,2040,-288,136,6,69,3
14315,2032,-288,120,4,68,4
14320,2032,-272,152,3,68,4
14325,2016,-288,128,2,70,3
14330,2040,-304,128,1,70,3
14335,2008,-264,128,-2,70,2
14340,2032,-288,136,-5,71,2
14345,2048,-264,144,-7,70,5
14350,2040,-272,144,-9,71,5
14355,2032,-272,136,-11,71,5
14360,2016,-256,152,-12,71,4
14365,2016,-280,144,-13,72,4
14370,2016,-264,152,-15,72,5
14375,2040,-280,168,-15,71,4
14380,2048,-264,136,-16,72,4
14385,2024,-312,112,-16,71,4
14390,2040,-272,160,-17,73,4
14395,2024,-296,152,-17,73,4
14400,2008,-272,152,-18,73,4
14405,2040,-312,160,-18,73,4
14410,2032,-288,152,-18,72,5
14415,2032,-272,120,-19,71,4
14420,2024,-304,144,-19,71,4
14425,2032,-304,128,-19,72,3
14430,2048,-288,152,-20,70,4
14435,2024,-272,136,-20,68,6
14440,2032,-280,88,-20,68,5
14445,2024,-288,144,-21,68,4
14450,2040,-312,152,-21,66,6
14455,2032,-304,136,-21,64,6
14460,2016,-288,144,-24,64,5
14465,2024,-328,136,-23,63,5
14470,2024,-288,152,-23,61,5
14475,2024,-296,136,-23,60,3
14480,2016,-296,128,-24,58,4
14485,2040,-296,128,-23,56,5
14490,2016,-280,112,-22,57,3
14495,2008,-312,128,-22,56,3
14500,2008,-288,160,-22,56,4
14505,2016,-296,136,-22,58,4
14510,2032,-304,136,-24,58,3
14515,2040,-304,136,-24,58,3
14520,2032,-296,128,-24,58,4
14525,2032,-288,168,-26,57,4
14530,2024,-296,128,-27,57,5
14535,2040,-304,120,-27,56,6
14540,2024,-264,104,-29,55,7
14545,2032,-288,128,-31,55,8
14550,2072,-288,136,-31,55,8
14555,2032,-312,144,-30,56,9
14560,2032,-296,144,-28,56,6
14565,2040,-296,136,-25,57,5
14570,2024,-288,120,-21,56,4
14575,2032,-272,152,-20,57,2
14580,2024,-304,128,-20,57,0
14585,2032,-280,128,-20,59,0
14590,2016,-280,112,-22,60,1
14595,2024,-320,152,-21,63,2
14600,2000,-288,144,-21,64,0
14605,2040,-304,144,-20,63,1
14610,2016,-288,112,-20,64,1
14615,2024,-312,128,-19,65,1
14620,2032,-296,160,-19,64,1
14625,2008,-312,152,-18,62,3
14630,2024,-304,168,-17,60,2
14635,2016,-296,160,-16,58,3
14640,2024,-296,120,-16,57,3
14645,2016,-280,128,-16,56,3
14650,2024,-296,136,-13,56,2
14655,2104,-304,200,-12,57,3
14660,2040,-272,88,-9,59,1
14665,2048,-280,128,-5,59,2
14670,2032,-280,104,-6,61,2
14675,2024,-296,136,-6,63,3
14680,2032,-280,112,-8,65,3
14685,2040,-280,128,-10,64,4
14690,2032,-272,120,-13,65,3
14695,2040,-288,160,-13,65,5
14700,2032,-280,120,-13,68,5
14705,2048,-264,136,-12,68,7
14710,2032,-272,152,-10,67,7
14715,2032,-280,136,-10,67,7
14720,2048,-288,160,-10,68,5
14725,2016,-280,152,-10,68,7
14730,2032,-272,136,-10,68,7
14735,2024,-280,120,-13,68,7
14740,2040,-280,168,-13,68,7
14745,2016,-280,136,-14,68,6
14750,2024,-264,128,-16,66,5
14755,2040,-296,160,-19,64,5
14760,2008,-296,144,-20,65,5
14765,2032,-272,96,-19,64,6
14770,2032,-296,152,-19,65,5
14775,2016,-288,136,-19,64,6
14780,2016,-280,152,-19,63,5
14785,2024,-280,128,-19,62,6
14790,2024,-288,128,-18,62,5
14795,2008,-280,160,-19,62,5
14800,2008,-280,144,-20,63,5
14805,2032,-264,144,-22,63,4
14810,2024,-312,136,-23,65,3
14815,2024,-304,144,-25,63,5
14820,2008,-320,136,-27,63,4
14825,2024,-296,120,-26,63,3
14830,2024,-304,136,-27,63,3
14835,2016,-288,144,-27,64,2
14840,2024,-296,120,-27,64,2
14845,2032,-304,128,-25,65,2
14850,2008,-296,112,-26,63,0
14855,2032,-280,120,-26,64,-1
14860,2040,-288,136,-26,64,-2
14865,2032,-304,128,-28,65,-2
14870,2032,-304,128,-28,65,-3
14875,1976,-264,144,-30,62,-2
14880,2040,-312,136,-30,62,-3
14885,2016,-304,144,-32,63,-1
14890,2024,-296,144,-34,63,-1
14895,2040,-312,120,-37,61,0
14900,2032,-312,120,-37,60,2
14905,2024,-320,112,-36,62,2
14910,2024,-296,120,-36,59,0
14915,2032,-312,136,-34,59,-1
14920,2000,-280,144,-31,61,-1
14925,2016,-296,144,-28,63,-3
14930,2024,-304,128,-27,64,-3
14935,2024,-304,128,-26,63,-4
14940,2040,-296,152,-26,64,-4
14945,2016,-288,152,-26,63,-5
14950,2032,-288,112,-28,63,-5
14955,2016,-288,136,-28,62,-5
14960,2032,-288,144,-29,62,-4
14965,2000,-272,168,-30,62,-4
14970,2040,-304,112,-30,62,-5
14975,2024,-296,120,-30,61,-4
14980,2016,-288,136,-29,61,-4
14985,2080,-248,128,-30,60,-4
14990,2032,-288,112,-29,60,-4
14995,2024,-304,120,-28,61,-4
