timestamp,accel_x,accel_y,accel_z,gyro_x,gyro_y,gyro_z
0,64,-2032,-256,-17,60,-8
5,48,-2024,-224,-18,60,-5
10,72,-2048,-248,-18,61,-9
15,40,-2024,-240,-20,59,-6
20,56,-2032,-256,-21,59,-9
25,56,-2032,-248,-22,60,-6
30,72,-2056,-240,-24,60,-11
35,88,-2048,-256,-23,58,-7
40,48,-2032,-208,-23,58,-13
45,72,-2040,-256,-23,57,-10
50,80,-2056,-240,-21,57,-13
55,80,-2048,-224,-19,56,-11
60,80,-2040,-232,-18,58,-15
65,56,-2040,-248,-16,58,-12
70,80,-2040,-232,-17,58,-14
75,80,-2056,-240,-18,59,-11
80,80,-2040,-240,-18,60,-13
85,48,-2032,-224,-18,61,-12
90,56,-2032,-216,-17,62,-14
95,56,-2024,-192,-17,63,-9
100,88,-2040,-224,-17,64,-12
105,64,-2056,-248,-16,63,-7
110,88,-2032,-248,-18,62,-8
115,72,-2024,-224,-18,62,-6
120,88,-2040,-240,-16,61,-8
125,32,-2040,-248,-16,61,-7
130,64,-2040,-240,-16,63,-9
135,80,-2056,-248,-16,61,-8
140,72,-2056,-248,-14,61,-10
145,56,-2040,-248,-13,59,-8
150,64,-2032,-224,-12,59,-9
155,72,-2064,-232,-12,58,-7
160,80,-2032,-224,-11,59,-9
165,80,-2032,-216,-12,59,-7
170,64,-2016,-280,-10,60,-10
175,64,-2032,-208,-10,61,-10
180,96,-2032,-256,-10,61,-10
185,96,-2032,-232,-12,60,-9
190,64,-2032,-232,-15,59,-13
195,56,-2032,-272,-16,59,-12
200,64,-2048,-264,-19,60,-14
205,56,-2048,-288,-20,60,-13
210,96,-2056,-248,-20,61,-14
215,64,-2032,-216,-22,62,-15
220,72,-2032,-256,-23,62,-16
225,48,-2040,-264,-24,62,-14
230,88,-2040,-232,-27,62,-15
235,72,-2056,-216,-27,64,-13
240,64,-2024,-216,-26,62,-14
245,56,-2032,-216,-26,63,-13
250,80,-2048,-264,-25,63,-12
255,56,-2024,-240,-25,63,-13
260,64,-2056,-232,-23,62,-12
265,72,-2040,-240,-22,61,-12
270,80,-2032,-224,-21,61,-12
275,64,-2040,-240,-22,59,-11
280,48,-2032,-232,-24,57,-11
285,72,-2048,-224,-26,58,-11
290,72,-2040,-256,-26,59,-13
295,72,-2040,-232,-26,59,-11
300,80,-2080,-240,-24,57,-11
305,80,-2032,-248,-23,60,-12
310,64,-2064,-224,-23,60,-11
315,56,-2032,-248,-20,60,-11
320,64,-2056,-248,-20,63,-12
325,64,-2048,-248,-18,64,-11
330,88,-2048,-256,-17,64,-10
335,56,-2016,-248,-16,65,-9
340,48,-2040,-232,-16,66,-9
345,64,-2016,-240,-20,66,-9
350,72,-2016,-208,-26,66,-10
355,56,-2008,-240,-31,66,-10
360,80,-2032,-264,-37,65,-13
365,56,-2032,-256,-38,64,-15
370,80,-2064,-248,-31,64,-15
375,64,-2048,-240,-25,64,-16
380,64,-2032,-264,-23,63,-13
385,88,-2040,-256,-25,60,-13
390,72,-2056,-240,-30,58,-10
395,64,-2024,-216,-37,57,-11
400,64,-2008,-240,-42,57,-13
405,64,-2024,-248,-44,57,-18
410,80,-2040,-248,-44,57,-18
415,80,-2040,-240,-43,58,-20
420,88,-2056,-248,-44,58,-20
425,104,-2040,-240,-42,58,-20
430,112,-2080,-256,-38,57,-14
435,80,-2080,-264,-30,56,-10
440,96,-2104,-288,-16,55,1
445,120,-2080,-296,3,56,9
450,120,-2096,-280,22,59,15
455,96,-2048,-280,26,59,17
460,80,-2032,-280,25,58,15
465,72,-2016,-288,21,59,11
470,80,-2000,-256,15,59,7
475,64,-1952,-280,8,62,-1
480,48,-1952,-272,0,65,-2
485,72,-1960,-232,-8,68,-5
490,56,-1992,-224,-13,71,-6
495,80,-2016,-224,-19,71,-9
500,40,-2032,-216,-19,72,-8
505,48,-2032,-248,-20,69,-9
510,16,-2040,-224,-19,67,-8
515,56,-2040,-264,-18,65,-10
520,48,-2056,-232,-19,63,-8
525,56,-2048,-248,-20,61,-10
530,48,-2040,-232,-21,60,-8
535,64,-2024,-272,-23,57,-10
540,48,-2032,-264,-22,56,-8
545,80,-2040,-248,-21,56,-11
550,80,-2040,-224,-19,55,-8
555,64,-2024,-256,-18,55,-10
560,88,-2032,-248,-15,55,-6
565,88,-2032,-216,-11,55,-7
570,88,-2032,-272,-6,56,-3
575,88,-2040,-280,-5,58,-5
580,72,-2048,-248,-2,60,-2
585,80,-2048,-240,0,62,-4
590,96,-2056,-264,2,64,-3
595,80,-2048,-248,0,65,-5
600,96,-2040,-248,-1,66,-3
605,64,-1992,-272,-3,64,-6
610,72,-2032,-264,-4,62,-3
615,72,-2016,-240,-6,61,-6
620,72,-2024,-248,-10,60,-4
625,88,-2024,-248,-15,58,-6
630,80,-2032,-256,-19,58,-6
635,56,-2016,-240,-22,56,-9
640,72,-2024,-256,-26,56,-7
645,72,-2016,-232,-29,56,-9
650,64,-2040,-216,-29,56,-6
655,104,-2064,-224,-29,54,-10
660,96,-2048,-256,-28,56,-7
665,80,-2056,-264,-27,56,-9
670,72,-2040,-264,-24,56,-6
675,88,-2048,-264,-22,57,-9
680,112,-2056,-224,-22,57,-8
685,64,-2048,-256,-21,57,-10
690,88,-2056,-240,-21,57,-8
695,72,-2048,-272,-20,58,-10
700,64,-2056,-256,-20,58,-7
705,64,-2032,-224,-20,58,-10
710,80,-2040,-240,-23,59,-8
715,64,-2048,-248,-23,61,-11
720,56,-2024,-240,-21,64,-10
725,72,-2048,-248,-22,65,-13
730,80,-2032,-232,-22,65,-11
735,56,-2048,-216,-24,67,-15
740,56,-2008,-248,-26,68,-13
745,72,-2016,-264,-27,69,-15
750,64,-2016,-256,-28,69,-12
755,64,-2056,-256,-30,68,-12
760,88,-2016,-256,-33,66,-7
765,72,-2032,-240,-35,65,-9
770,80,-2032,-248,-37,66,-6
775,72,-2000,-240,-39,63,-5
780,80,-2000,-224,-44,63,-2
785,64,-2032,-224,-44,63,-4
790,72,-2024,-280,-46,62,-2
795,72,-2032,-232,-48,61,-4
800,96,-2024,-240,-46,61,-2
805,72,-2048,-256,-46,61,-6
810,64,-2048,-264,-46,62,-4
815,40,-2016,-256,-45,63,-7
820,40,-2016,-248,-45,62,-7
825,72,-2040,-256,-42,63,-10
830,64,-2024,-264,-39,65,-9
835,88,-2056,-264,-39,66,-12
840,56,-2024,-248,-40,68,-13
845,88,-2048,-224,-38,67,-16
850,72,-2032,-288,-38,65,-15
855,96,-2040,-256,-38,66,-15
860,88,-2040,-280,-37,63,-13
865,72,-2032,-264,-37,62,-14
870,88,-2048,-264,-39,60,-12
875,80,-2040,-304,-40,62,-13
880,72,-2024,-264,-43,60,-11
885,104,-2040,-256,-46,60,-13
890,96,-2032,-272,-48,58,-12
895,96,-2048,-264,-50,56,-15
900,80,-2032,-272,-55,56,-15
905,96,-2040,-288,-58,56,-19
910,72,-2032,-264,-62,55,-18
915,80,-2024,-264,-67,57,-19
920,88,-2016,-288,-70,56,-18
925,96,-2032,-304,-73,57,-19
930,88,-2040,-288,-73,56,-18
935,88,-2032,-280,-74,56,-18
940,64,-2056,-256,-72,59,-16
945,72,-2048,-264,-71,60,-17
950,96,-2064,-176,-71,60,-14
955,176,-2048,-232,-69,62,-15
960,16,-2072,-248,-69,63,-14
965,88,-2072,-304,-65,62,-15
970,40,-2024,-376,-63,62,-16
975,72,-2048,-256,-62,62,-17
980,128,-2056,-112,-64,62,-16
985,72,-2000,-288,-63,62,-17
990,88,-1984,-192,-63,62,-16
995,112,-2032,-248,-64,61,-15
1000,72,-2016,-256,-61,60,-13
1005,64,-2040,-280,-62,59,-11
1010,64,-2032,-264,-60,58,-9
1015,64,-2016,-280,-62,59,-8
1020,88,-1992,-248,-63,58,-9
1025,88,-2048,-272,-63,58,-10
1030,88,-2040,-272,-63,57,-9
1035,64,-2008,-296,-62,57,-10
1040,88,-2024,-232,-60,55,-9
1045,72,-2016,-288,-61,55,-10
1050,72,-2040,-248,-64,55,-10
1055,88,-2040,-296,-65,54,-9
1060,88,-2048,-280,-67,56,-10
1065,96,-2040,-240,-69,55,-10
1070,80,-2032,-272,-73,55,-11
1075,96,-2032,-288,-75,56,-12
1080,72,-2032,-256,-75,57,-12
1085,112,-2056,-272,-76,59,-12
1090,80,-2016,-280,-75,59,-12
1095,72,-2032,-280,-72,59,-11
1100,88,-2056,-280,-71,60,-13
1105,88,-2032,-280,-72,59,-12
1110,72,-2024,-280,-72,58,-13
1115,64,-2024,-256,-73,58,-11
1120,72,-2040,-304,-76,58,-12
1125,88,-2048,-280,-78,57,-11
1130,72,-2016,-312,-80,55,-11
1135,112,-2056,-304,-79,54,-9
1140,88,-2048,-280,-79,54,-9
1145,80,-2072,-296,-78,51,-8
1150,80,-2040,-320,-77,51,-10
1155,88,-2032,-288,-76,50,-9
1160,72,-2040,-304,-76,49,-10
1165,80,-2048,-328,-76,49,-8
1170,96,-2048,-304,-75,50,-12
1175,72,-2040,-288,-76,49,-9
1180,80,-2040,-288,-77,49,-10
1185,88,-2032,-288,-78,50,-9
1190,96,-2032,-296,-80,50,-11
1195,96,-2040,-296,-81,53,-11
1200,96,-2016,-328,-82,55,-15
1205,104,-2032,-304,-84,56,-12
1210,88,-2024,-312,-85,56,-15
1215,104,-2048,-288,-88,57,-13
1220,80,-2024,-328,-87,59,-15
1225,80,-2032,-304,-89,57,-12
1230,88,-2040,-296,-88,55,-13
1235,72,-2040,-304,-89,56,-10
1240,104,-2024,-320,-88,55,-10
1245,80,-2048,-328,-86,55,-8
1250,88,-2032,-320,-85,55,-10
1255,88,-2056,-312,-83,57,-8
1260,96,-2048,-320,-83,55,-8
1265,80,-2040,-312,-80,55,-4
1270,88,-2048,-296,-79,53,-6
1275,88,-2040,-288,-77,53,-1
1280,88,-2032,-304,-74,50,-3
1285,104,-2032,-328,-69,52,0
1290,88,-2040,-328,-66,52,0
1295,112,-2048,-336,-68,53,1
1300,72,-2032,-304,-68,52,-1
1305,72,-2024,-296,-68,52,1
1310,80,-2024,-304,-72,52,-2
1315,80,-2024,-336,-72,51,-1
1320,88,-2016,-288,-75,52,-2
1325,56,-1992,-296,-78,53,0
1330,80,-2008,-320,-85,54,-3
1335,88,-2000,-344,-97,56,-4
1340,56,-1976,-320,-107,58,-9
1345,64,-2016,-336,-117,54,-12
1350,96,-2040,-336,-123,54,-17
1355,80,-2024,-360,-123,53,-18
1360,80,-2032,-344,-116,52,-19
1365,80,-2032,-336,-108,52,-14
1370,80,-2048,-312,-102,50,-14
1375,96,-2072,-320,-98,49,-10
1380,96,-2056,-312,-96,49,-12
1385,104,-2048,-336,-93,50,-10
1390,112,-2032,-328,-88,51,-15
1395,96,-2032,-336,-83,51,-15
1400,104,-2040,-328,-81,51,-18
1405,104,-2032,-320,-79,52,-14
1410,104,-2040,-312,-80,50,-16
1415,112,-2048,-336,-79,47,-10
1420,104,-2072,-344,-77,49,-7
1425,104,-2072,-384,-69,48,5
1430,104,-2064,-392,-59,48,10
1435,88,-2040,-384,-48,47,19
1440,80,-2048,-376,-45,51,19
1445,72,-2008,-368,-47,52,22
1450,64,-1992,-376,-54,54,14
1455,72,-1984,-368,-65,57,9
1460,88,-1984,-320,-75,60,-1
1465,56,-1960,-352,-80,61,-3
1470,80,-1984,-344,-81,62,-9
1475,56,-1976,-344,-80,65,-10
1480,64,-2008,-328,-78,67,-13
1485,88,-2016,-320,-76,68,-13
1490,64,-2032,-344,-71,70,-15
1495,80,-2032,-336,-67,69,-13
1500,72,-2072,-352,-62,68,-15
1505,72,-2064,-336,-57,67,-13
1510,88,-2048,-336,-52,67,-14
1515,80,-2048,-360,-48,67,-10
1520,112,-2008,-336,-43,64,-10
1525,104,-2008,-352,-39,65,-6
1530,96,-2024,-336,-35,63,-7
1535,88,-2016,-368,-33,62,-3
1540,88,-2008,-360,-28,61,-2
1545,104,-2000,-360,-22,62,3
1550,120,-2024,-384,-16,62,4
1555,112,-2008,-352,-14,61,9
1560,88,-2032,-360,-11,62,8
1565,104,-2056,-336,-9,63,11
1570,96,-2040,-368,-6,65,9
1575,88,-2032,-344,-6,64,10
1580,112,-2032,-336,-6,65,7
1585,104,-2016,-368,-6,63,7
1590,96,-2048,-328,-10,62,5
1595,80,-2032,-384,-10,62,6
1600,96,-2024,-360,-11,64,2
1605,72,-2008,-352,-14,65,3
1610,56,-2016,-360,-15,64,-1
1615,80,-2040,-400,-19,63,-1
1620,80,-2032,-368,-22,64,-5
1625,64,-2016,-352,-24,61,-6
1630,80,-2024,-360,-24,62,-7
1635,96,-2008,-376,-24,61,-9
1640,72,-2032,-368,-22,60,-11
1645,96,-2032,-344,-20,61,-7
1650,80,-2040,-344,-21,60,-10
1655,88,-2032,-352,-19,60,-7
1660,72,-2040,-368,-16,59,-8
1665,96,-2040,-384,-13,57,-6
1670,96,-2040,-384,-13,58,-7
1675,96,-2048,-376,-13,59,-5
1680,80,-2048,-352,-11,59,-8
1685,80,-2040,-384,-11,62,-5
1690,72,-2040,-416,-12,63,-5
1695,112,-2032,-360,-13,64,-4
1700,72,-2024,-360,-12,66,-5
1705,88,-2016,-360,-11,66,-4
1710,72,-2024,-352,-11,68,-4
1715,96,-2024,-360,-12,67,-4
1720,112,-2024,-352,-14,68,-4
1725,96,-2040,-344,-14,68,-4
1730,88,-2024,-360,-14,68,-5
1735,72,-2016,-352,-12,67,-5
1740,80,-2048,-336,-10,65,-4
1745,64,-2040,-376,-6,65,-2
1750,72,-2016,-360,1,65,-4
1755,88,-2032,-376,6,66,-2
1760,96,-2040,-344,11,63,-4
1765,72,-2032,-352,12,63,-2
1770,88,-2024,-352,14,63,-2
1775,72,-2032,-344,19,62,-3
1780,96,-2016,-352,21,61,-5
1785,104,-2024,-344,21,62,-7
1790,80,-2008,-360,20,62,-7
1795,80,-2016,-336,20,63,-7
1800,88,-2024,-368,21,64,-7
1805,88,-2016,-360,20,65,-7
1810,80,-2008,-368,18,65,-6
1815,64,-2000,-360,16,65,-5
1820,96,-2032,-360,13,66,-4
1825,80,-2048,-360,12,65,-4
1830,128,-2056,-344,10,65,-4
1835,96,-2024,-352,10,68,-5
1840,112,-2040,-352,12,68,-5
1845,88,-2032,-376,13,67,-5
1850,88,-2024,-360,15,66,-5
1855,88,-2040,-304,17,65,-3
1860,80,-2032,-368,18,64,-3
1865,80,-2016,-344,20,61,-4
1870,96,-2032,-344,20,61,-3
1875,88,-2048,-376,20,60,-3
1880,80,-2056,-344,20,58,-3
1885,80,-2048,-352,18,58,-5
1890,96,-2024,-368,15,58,-4
1895,96,-2056,-336,13,58,-7
1900,88,-2024,-328,11,59,-8
1905,88,-2008,-344,8,58,-9
1910,88,-2008,-360,7,57,-8
1915,88,-2000,-360,7,59,-9
1920,80,-2000,-336,8,59,-8
1925,96,-2048,-344,7,59,-8
1930,88,-2008,-336,6,58,-7
1935,80,-2024,-352,4,57,-7
1940,80,-2008,-360,5,58,-5
1945,88,-2040,-376,8,58,-6
1950,80,-2032,-352,6,59,-4
1955,80,-2024,-336,8,57,-4
1960,88,-2024,-352,9,57,-4
1965,88,-2016,-312,9,57,-5
1970,72,-2024,-360,8,58,-3
1975,88,-2032,-336,9,57,-4
1980,72,-2016,-320,7,57,-3
1985,72,-2024,-360,6,59,-4
1990,104,-2040,-336,6,58,-2
1995,88,-2032,-336,4,58,-4
2000,96,-2040,-320,3,58,-3
2005,88,-2016,-344,6,59,-4
2010,104,-2032,-336,6,58,-4
2015,72,-2016,-336,9,58,-4
2020,88,-2032,-344,8,56,-2
2025,88,-2040,-344,7,55,-2
2030,88,-2024,-344,7,54,0
2035,88,-2024,-336,6,55,-1
2040,72,-2032,-336,4,54,1
2045,104,-2016,-328,3,56,-1
2050,80,-2024,-368,0,56,0
2055,96,-2016,-312,-4,55,-2
2060,88,-2048,-352,-8,55,-1
2065,80,-2032,-344,-12,55,-1
2070,104,-2032,-336,-13,56,3
2075,56,-2016,-368,-9,56,-1
2080,96,-2016,-320,-8,56,2
2085,88,-2024,-360,-10,56,-1
2090,96,-2024,-352,-8,59,2
2095,80,-2024,-352,-8,59,-1
2100,80,-2048,-352,-5,59,2
2105,80,-2016,-336,-6,59,-2
2110,72,-2024,-312,-6,56,2
2115,72,-2040,-352,-6,56,-1
2120,104,-2048,-320,-9,54,2
2125,88,-2040,-344,-9,54,0
2130,96,-2056,-344,-9,55,2
2135,96,-2048,-304,-7,55,-1
2140,88,-2032,-352,-7,55,0
2145,96,-2016,-296,-8,54,-2
2150,104,-2032,-328,-9,53,1
2155,112,-2040,-312,-11,55,-2
2160,104,-2040,-336,-10,56,-1
2165,88,-2032,-336,-8,57,-3
2170,88,-2032,-328,-6,56,-2
2175,64,-2008,-336,-6,57,-5
2180,72,-2016,-336,-5,56,-3
2185,96,-2064,-336,-6,58,-6
2190,56,-2040,-320,-4,58,-4
2195,80,-2048,-344,-3,60,-7
2200,64,-2040,-320,-1,62,-6
2205,88,-2040,-320,0,63,-10
2210,104,-2024,-336,2,64,-8
2215,88,-2024,-328,4,67,-12
2220,80,-2032,-360,7,66,-10
2225,88,-2040,-328,8,66,-9
2230,72,-2016,-296,9,65,-6
2235,120,-2008,-320,9,67,-6
2240,88,-2024,-336,11,66,-2
2245,88,-2008,-352,11,67,-3
2250,112,-2040,-304,9,67,0
2255,112,-2024,-336,6,67,-1
2260,96,-2000,-344,2,68,3
2265,104,-2008,-344,-1,68,1
2270,80,-2008,-336,-5,67,3
2275,104,-1992,-312,-9,68,-1
2280,88,-1992,-328,-16,70,-1
2285,104,-2016,-336,-25,70,-6
2290,88,-2008,-304,-31,69,-9
2295,104,-2008,-336,-30,69,-13
2300,88,-2048,-344,-30,69,-11
2305,88,-2016,-352,-26,67,-13
2310,104,-2040,-376,-24,64,-8
2315,96,-2040,-344,-26,63,-9
2320,104,-2024,-312,-31,61,-6
2325,120,-2024,-320,-35,60,-9
2330,112,-2016,-328,-37,61,-8
2335,104,-2008,-336,-38,63,-14
2340,120,-2016,-328,-37,63,-14
2345,104,-2024,-352,-35,66,-19
2350,104,-2032,-344,-34,66,-17
2355,120,-2056,-328,-32,64,-17
2360,120,-2056,-352,-32,63,-11
2365,120,-2072,-336,-28,61,-5
2370,120,-2080,-352,-17,62,6
2375,136,-2104,-368,3,60,11
2380,120,-2080,-360,20,61,19
2385,104,-2056,-368,30,62,20
2390,128,-2032,-392,31,63,23
2395,88,-2016,-376,29,65,17
2400,96,-1976,-360,21,66,13
2405,96,-1976,-360,11,68,4
2410,88,-1968,-344,2,68,0
2415,88,-1968,-336,-6,71,-4
2420,96,-2000,-312,-12,72,-3
2425,96,-1992,-272,-17,72,-5
2430,80,-2016,-280,-20,72,-2
2435,72,-2016,-312,-21,70,-4
2440,56,-2048,-312,-26,68,-3
2445,72,-2048,-320,-28,66,-5
2450,72,-2048,-320,-29,66,-5
2455,48,-2032,-328,-31,64,-6
2460,56,-2032,-320,-31,63,-7
2465,32,-2024,-328,-31,61,-9
2470,88,-2016,-328,-35,61,-8
2475,80,-2016,-328,-36,60,-10
2480,120,-2024,-336,-39,60,-9
2485,88,-1992,-336,-37,61,-8
2490,120,-2016,-320,-37,61,-7
2495,112,-2032,-328,-34,61,-6
2500,112,-2016,-352,-33,63,-3
2505,112,-2040,-328,-29,65,-3
2510,104,-2048,-320,-26,68,1
2515,96,-2016,-344,-25,67,2
2520,72,-2024,-368,-24,66,1
2525,88,-2024,-368,-24,66,2
2530,96,-2048,-336,-21,67,3
2535,112,-2032,-320,-20,65,3
2540,96,-2032,-336,-19,65,1
2545,104,-2024,-328,-21,64,-1
2550,104,-2024,-336,-24,63,-3
2555,80,-2008,-352,-29,63,-5
2560,88,-2008,-360,-34,61,-6
2565,56,-2024,-312,-39,59,-7
2570,80,-2024,-336,-45,56,-7
2575,88,-2008,-344,-47,54,-6
2580,112,-2016,-344,-48,55,-5
2585,80,-2032,-312,-50,54,-6
2590,80,-2032,-368,-50,54,-5
2595,80,-2024,-328,-50,53,-5
2600,96,-2048,-344,-47,54,-5
2605,64,-2056,-344,-45,54,-5
2610,104,-2056,-360,-43,55,-5
2615,88,-2048,-336,-41,55,-5
2620,72,-2040,-312,-37,56,-6
2625,96,-2056,-336,-33,57,-4
2630,104,-2040,-360,-31,55,-3
2635,88,-2016,-368,-28,55,-4
2640,112,-2024,-344,-26,56,-2
2645,104,-2032,-336,-25,57,-3
2650,88,-2024,-352,-26,57,-4
2655,88,-2016,-320,-26,59,-2
2660,80,-2024,-344,-29,59,-5
2665,80,-2024,-328,-33,60,-3
2670,88,-2032,-328,-36,59,-5
2675,72,-2032,-328,-38,60,-4
2680,72,-2024,-344,-41,62,-7
2685,72,-2032,-336,-44,62,-7
2690,96,-2032,-344,-46,62,-8
2695,80,-2032,-336,-46,60,-10
2700,72,-2040,-328,-44,59,-12
2705,96,-2048,-328,-43,57,-10
2710,96,-2016,-344,-41,57,-12
2715,88,-2056,-352,-40,57,-10
2720,104,-2048,-320,-38,56,-10
2725,88,-2016,-336,-36,55,-8
2730,88,-2032,-336,-33,55,-7
2735,88,-2024,-344,-30,57,-7
2740,72,-2008,-352,-30,57,-8
2745,72,-2008,-336,-30,59,-8
2750,96,-2000,-328,-32,59,-10
2755,88,-2016,-320,-36,60,-9
2760,96,-2016,-328,-39,61,-10
2765,96,-2024,-328,-43,63,-10
2770,88,-2008,-376,-46,64,-12
2775,120,-2024,-320,-48,64,-12
2780,96,-2008,-352,-52,63,-13
2785,104,-2008,-368,-54,63,-13
2790,96,-2008,-344,-55,62,-14
2795,88,-2008,-328,-56,62,-12
2800,112,-2032,-376,-55,60,-13
2805,96,-2016,-344,-54,60,-12
2810,96,-2016,-368,-53,58,-11
2815,80,-2024,-376,-55,57,-9
2820,104,-2032,-344,-56,55,-10
2825,96,-2032,-344,-56,55,-9
2830,88,-2032,-368,-55,54,-12
2835,88,-2032,-344,-54,52,-11
2840,88,-2032,-360,-54,53,-12
2845,72,-2008,-384,-55,53,-10
2850,96,-2016,-360,-56,51,-12
2855,72,-1984,-360,-56,51,-12
2860,72,-2008,-352,-58,52,-13
2865,104,-2016,-360,-60,53,-11
2870,72,-1992,-376,-61,52,-12
2875,80,-2016,-376,-63,51,-10
2880,80,-2024,-376,-65,51,-12
2885,104,-2024,-376,-65,52,-9
2890,112,-2024,-360,-67,53,-10
2895,96,-2032,-352,-67,53,-9
2900,96,-2032,-344,-68,53,-11
2905,104,-2032,-336,-70,53,-9
2910,88,-2016,-368,-71,52,-12
2915,112,-2016,-416,-72,52,-9
2920,104,-2016,-384,-77,52,-10
2925,104,-2024,-352,-80,50,-6
2930,104,-2008,-360,-82,49,-9
2935,96,-2032,-360,-84,51,-6
2940,104,-2024,-352,-84,53,-9
2945,96,-2040,-368,-84,53,-8
2950,96,-2040,-384,-82,57,-9
2955,104,-2040,-320,-82,55,-7
2960,88,-2056,-424,-81,56,-13
2965,128,-1984,-528,-79,57,-10
2970,128,-2040,-352,-76,58,-14
2975,128,-1992,-408,-71,58,-11
2980,152,-2096,-344,-64,59,-13
2985,168,-2072,-344,-57,60,-12
2990,136,-2144,-408,-50,61,-14
2995,56,-2056,-304,-43,62,-11
3000,16,-1992,-336,-39,64,-12
3005,104,-2008,-464,-35,65,-9
3010,128,-2040,-360,-34,67,-11
3015,88,-2024,-368,-33,67,-8
3020,112,-2016,-352,-32,64,-10
3025,104,-2016,-352,-30,63,-5
3030,168,-2016,-288,-30,62,-7
3035,88,-2024,-376,-32,62,-3
3040,96,-2008,-360,-33,61,-7
3045,72,-2000,-344,-36,60,-5
3050,96,-2016,-368,-39,60,-10
3055,96,-2000,-384,-44,57,-8
3060,88,-2000,-368,-46,56,-12
3065,96,-2008,-392,-53,57,-9
3070,96,-2048,-392,-56,55,-12
3075,80,-2008,-384,-58,56,-10
3080,96,-2000,-376,-59,56,-13
3085,80,-1992,-392,-59,57,-12
3090,88,-2024,-392,-58,58,-13
3095,80,-1976,-384,-58,59,-12
3100,72,-2016,-424,-60,60,-14
3105,88,-2008,-384,-61,61,-12
3110,88,-2000,-384,-64,62,-14
3115,112,-2016,-400,-66,61,-11
3120,112,-2008,-408,-69,62,-14
3125,104,-2000,-408,-71,61,-10
3130,120,-2016,-408,-73,61,-14
3135,120,-2032,-424,-77,62,-13
3140,80,-1968,-416,-80,62,-15
3145,120,-2000,-400,-85,61,-14
3150,120,-2008,-440,-89,62,-17
3155,120,-1992,-424,-97,61,-17
3160,112,-2008,-408,-102,63,-20
3165,104,-2008,-432,-105,62,-17
3170,112,-2016,-424,-107,62,-22
3175,112,-2016,-408,-108,61,-20
3180,112,-2000,-448,-110,61,-23
3185,96,-2008,-432,-112,61,-19
3190,104,-2008,-416,-111,61,-23
3195,104,-1992,-424,-113,61,-20
3200,112,-2040,-424,-116,60,-22
3205,88,-2024,-408,-118,59,-20
3210,96,-2024,-408,-121,60,-22
3215,104,-2000,-408,-122,60,-19
3220,104,-1992,-440,-124,61,-20
3225,112,-1992,-424,-130,60,-18
3230,88,-2000,-408,-136,59,-20
3235,104,-1992,-400,-143,59,-20
3240,104,-1992,-424,-153,59,-22
3245,120,-2016,-416,-164,58,-26
3250,88,-2016,-424,-173,58,-30
3255,104,-2008,-432,-172,58,-30
3260,88,-2008,-464,-170,56,-32
3265,112,-2024,-440,-164,55,-29
3270,112,-2040,-416,-158,54,-30
3275,128,-2048,-408,-154,54,-25
3280,80,-2008,-416,-155,52,-24
3285,112,-2032,-416,-157,51,-22
3290,80,-2048,-416,-157,51,-24
3295,96,-2032,-432,-156,53,-26
3300,104,-2008,-424,-152,52,-30
3305,104,-2024,-456,-152,52,-31
3310,112,-2016,-432,-152,50,-35
3315,120,-2040,-432,-151,47,-31
3320,128,-2048,-432,-150,44,-29
3325,128,-2064,-408,-140,42,-21
3330,136,-2088,-424,-121,41,-14
3335,136,-2080,-448,-98,43,-2
3340,120,-2064,-472,-74,46,6
3345,120,-2056,-472,-56,47,15
3350,128,-2024,-472,-47,49,14
3355,128,-2000,-480,-50,51,13
3360,128,-1976,-456,-61,54,6
3365,112,-1976,-464,-72,55,0
3370,96,-1960,-432,-81,58,-10
3375,104,-1944,-416,-87,59,-13
3380,96,-1984,-464,-91,59,-16
3385,80,-1976,-400,-95,59,-17
3390,72,-2000,-424,-99,60,-19
3395,64,-1976,-432,-102,60,-19
3400,56,-1992,-440,-108,60,-21
3405,64,-1992,-424,-115,59,-22
3410,64,-1984,-440,-122,59,-23
3415,88,-2008,-456,-130,58,-21
3420,80,-1968,-432,-139,56,-23
3425,88,-1968,-448,-146,52,-22
3430,112,-1968,-456,-152,51,-23
3435,88,-2000,-456,-159,50,-22
3440,120,-2000,-448,-162,49,-24
3445,136,-1984,-464,-164,47,-24
3450,144,-1992,-472,-162,48,-21
3455,120,-1992,-456,-159,46,-18
3460,144,-2016,-472,-156,47,-16
3465,136,-2008,-472,-152,49,-14
3470,144,-2008,-480,-148,51,-10
3475,128,-2016,-480,-146,51,-8
3480,136,-1992,-504,-145,51,-8
3485,136,-2024,-496,-145,55,-6
3490,120,-1992,-480,-143,54,-5
3495,120,-2008,-472,-142,55,-6
3500,136,-2016,-464,-142,56,-5
3505,120,-1992,-480,-143,55,-8
3510,96,-1976,-464,-148,55,-9
3515,120,-1968,-480,-152,54,-10
3520,104,-1968,-536,-157,54,-12
3525,88,-1968,-488,-162,53,-13
3530,120,-1992,-504,-168,51,-13
3535,88,-1976,-504,-174,50,-14
3540,104,-1984,-512,-179,49,-13
3545,112,-2000,-504,-184,48,-15
3550,112,-1992,-496,-188,45,-16
3555,88,-1984,-544,-192,45,-17
3560,96,-1984,-480,-195,44,-18
3565,120,-2000,-496,-200,43,-17
3570,104,-1992,-544,-207,41,-16
3575,96,-1976,-528,-211,40,-17
3580,120,-2008,-504,-214,38,-16
3585,80,-1984,-512,-218,40,-19
3590,112,-2000,-536,-220,42,-18
3595,120,-2008,-544,-222,43,-20
3600,120,-1976,-528,-222,46,-19
3605,128,-2008,-512,-221,50,-19
3610,128,-1992,-504,-219,50,-17
3615,104,-2016,-512,-214,52,-17
3620,120,-1992,-520,-209,50,-14
3625,96,-2000,-512,-204,52,-14
3630,120,-1992,-552,-199,53,-12
3635,96,-1984,-528,-194,52,-12
3640,96,-1960,-552,-191,52,-12
3645,96,-1984,-528,-189,50,-13
3650,104,-1976,-544,-189,52,-13
3655,112,-2008,-552,-187,52,-15
3660,112,-1992,-576,-186,51,-14
3665,112,-1976,-536,-187,48,-15
3670,104,-1976,-544,-187,48,-13
3675,120,-1968,-544,-188,47,-15
3680,128,-1976,-528,-190,47,-13
3685,112,-1984,-552,-192,49,-15
3690,120,-1984,-552,-193,51,-14
3695,120,-1984,-552,-195,54,-17
3700,120,-1960,-576,-199,54,-15
3705,112,-1968,-576,-202,54,-15
3710,136,-1976,-560,-204,54,-15
3715,104,-1952,-552,-208,53,-15
3720,112,-1984,-600,-213,50,-13
3725,96,-1984,-576,-216,51,-13
3730,128,-1984,-568,-217,48,-10
3735,120,-1992,-584,-217,48,-14
3740,128,-1984,-592,-217,51,-12
3745,136,-2000,-576,-218,50,-14
3750,96,-1976,-600,-220,49,-14
3755,120,-1984,-608,-219,50,-15
3760,96,-1992,-592,-218,49,-14
3765,104,-1984,-616,-218,50,-16
3770,144,-1976,-608,-218,49,-15
3775,104,-1976,-624,-220,51,-19
3780,112,-1984,-608,-222,52,-16
3785,128,-1960,-608,-222,53,-18
3790,120,-1976,-592,-221,51,-13
3795,104,-1944,-616,-223,50,-15
3800,120,-1968,-600,-222,48,-13
3805,96,-1952,-616,-223,47,-18
3810,112,-1952,-664,-224,48,-17
3815,104,-1960,-624,-225,47,-20
3820,104,-1952,-656,-227,47,-18
3825,104,-1952,-632,-230,47,-20
3830,128,-1984,-632,-231,48,-18
3835,104,-1952,-664,-230,49,-18
3840,128,-1984,-656,-230,48,-15
3845,96,-1968,-624,-230,47,-16
3850,128,-1952,-648,-230,48,-11
3855,120,-1960,-624,-228,49,-13
3860,120,-1984,-648,-222,49,-11
3865,112,-1976,-648,-217,50,-11
3870,120,-1952,-656,-214,49,-7
3875,104,-1976,-664,-213,47,-9
3880,112,-1976,-648,-209,47,-6
3885,120,-1960,-664,-203,48,-9
3890,120,-1984,-672,-199,47,-8
3895,120,-1984,-664,-196,47,-12
3900,152,-1984,-688,-193,47,-10
3905,104,-1936,-656,-191,47,-13
3910,120,-1984,-656,-191,47,-11
3915,128,-1968,-720,-191,47,-15
3920,120,-1984,-680,-191,47,-14
3925,96,-1944,-680,-188,49,-14
3930,120,-1976,-672,-188,48,-14
3935,120,-1968,-648,-186,49,-17
3940,136,-1952,-664,-183,51,-15
3945,104,-2080,-560,-180,49,-17
3950,112,-1952,-672,-176,51,-13
3955,96,-1944,-688,-174,51,-13
3960,120,-1928,-672,-172,52,-11
3965,120,-1960,-664,-170,51,-14
3970,120,-1944,-680,-168,52,-12
3975,104,-1944,-704,-169,51,-15
3980,128,-1952,-696,-169,49,-11
3985,112,-1944,-672,-171,48,-14
3990,120,-1920,-688,-173,48,-11
3995,120,-1952,-696,-174,47,-15
4000,128,-1944,-696,-174,46,-14
4005,136,-1936,-712,-174,46,-17
4010,96,-1936,-712,-176,45,-15
4015,120,-1936,-736,-177,43,-19
4020,104,-1944,-712,-178,42,-15
4025,144,-1944,-728,-181,42,-18
4030,112,-1944,-736,-181,39,-15
4035,96,-1920,-720,-182,38,-18
4040,128,-1928,-720,-181,39,-15
4045,104,-1936,-704,-185,39,-16
4050,120,-1944,-688,-187,40,-15
4055,128,-1936,-712,-190,40,-16
4060,96,-1920,-744,-193,40,-16
4065,112,-1920,-720,-199,40,-19
4070,120,-1936,-744,-204,40,-16
4075,120,-1928,-736,-207,42,-18
4080,112,-1920,-720,-208,44,-17
4085,104,-1912,-736,-211,44,-20
4090,104,-1912,-776,-212,44,-17
4095,136,-1888,-736,-216,45,-18
4100,104,-1888,-736,-220,43,-16
4105,104,-1920,-760,-223,43,-18
4110,136,-1928,-736,-224,41,-14
4115,112,-1928,-752,-229,41,-17
4120,112,-1928,-792,-230,42,-15
4125,112,-1936,-776,-233,40,-16
4130,112,-1896,-768,-236,40,-16
4135,112,-1912,-760,-240,40,-18
4140,128,-1920,-728,-242,38,-14
4145,120,-1920,-768,-242,37,-16
4150,104,-1904,-744,-248,35,-15
4155,112,-1912,-760,-251,35,-18
4160,104,-1888,-800,-254,32,-16
4165,112,-1888,-832,-258,32,-19
4170,104,-1896,-824,-264,33,-20
4175,104,-1912,-792,-271,33,-22
4180,120,-1912,-808,-276,33,-22
4185,128,-1896,-784,-282,36,-25
4190,96,-1888,-792,-287,36,-24
4195,104,-1896,-808,-296,33,-26
4200,144,-1872,-776,-309,37,-27
4205,96,-1864,-824,-321,38,-33
4210,112,-1888,-832,-332,38,-34
4215,104,-1888,-832,-337,40,-38
4220,120,-1880,-832,-334,41,-37
4225,120,-2008,-848,-331,41,-39
4230,112,-1872,-816,-332,41,-40
4235,112,-1888,-832,-330,38,-35
4240,104,-1904,-832,-333,38,-32
4245,112,-1848,-832,-337,37,-34
4250,128,-1904,-880,-343,36,-35
4255,112,-1896,-856,-346,37,-40
4260,120,-1896,-848,-348,36,-41
4265,128,-1888,-872,-349,34,-44
4270,128,-1896,-824,-350,31,-40
4275,136,-1912,-888,-352,29,-42
4280,144,-1944,-856,-349,26,-37
4285,136,-1960,-864,-336,22,-31
4290,160,-1944,-920,-319,20,-22
4295,128,-1952,-872,-301,19,-16
4300,136,-1936,-928,-283,19,-13
4305,128,-1872,-928,-275,19,-12
4310,104,-1832,-920,-277,23,-11
4315,152,-1840,-920,-286,24,-13
4320,120,-1816,-904,-301,26,-18
4325,112,-1792,-888,-316,26,-26
4330,120,-1776,-912,-332,26,-32
4335,112,-1784,-912,-350,29,-39
4340,144,-1760,-896,-370,28,-44
4345,128,-1792,-920,-390,30,-51
4350,112,-1816,-896,-406,34,-53
4355,112,-1816,-912,-420,37,-59
4360,80,-1800,-928,-431,36,-65
4365,112,-1824,-896,-441,37,-69
4370,96,-1840,-928,-447,38,-70
4375,104,-1856,-928,-453,36,-73
4380,96,-1848,-912,-456,34,-71
4385,120,-1816,-904,-469,35,-85
4390,112,-1800,-912,-459,27,-68
4395,112,-1832,-968,-457,26,-63
4400,128,-1832,-936,-457,22,-59
4405,136,-1832,-968,-459,17,-56
4410,144,-1848,-968,-462,15,-55
4415,112,-1816,-976,-463,15,-57
4420,128,-1840,-976,-464,12,-55
4425,136,-1824,-1008,-467,12,-58
4430,160,-1832,-984,-471,14,-58
4435,152,-1824,-976,-473,16,-61
4440,136,-1816,-1008,-473,16,-62
4445,160,-1808,-1032,-474,17,-63
4450,136,-1816,-1016,-474,18,-65
4455,160,-1792,-1016,-475,20,-63
4460,128,-1792,-1016,-481,22,-64
4465,136,-1792,-1008,-485,23,-62
4470,136,-1784,-1008,-490,26,-64
4475,136,-1792,-1024,-497,29,-65
4480,48,-1856,-1056,-503,30,-66
4485,144,-1760,-992,-515,30,-74
4490,104,-1760,-1072,-517,24,-67
4495,104,-1760,-1064,-524,25,-67
4500,152,-1760,-1064,-533,25,-68
4505,128,-1744,-1048,-542,23,-69
4510,128,-1744,-1048,-550,24,-72
4515,120,-1752,-1088,-560,21,-71
4520,112,-1768,-1056,-571,18,-72
4525,128,-1752,-1080,-578,14,-75
4530,144,-1768,-1088,-588,12,-79
4535,144,-1752,-1144,-591,11,-84
4540,128,-1752,-1104,-597,9,-87
4545,96,-1816,-1152,-605,13,-96
4550,192,-1752,-1120,-616,16,-105
4555,144,-1768,-1128,-614,14,-95
4560,136,-1728,-1128,-618,15,-97
4565,136,-1728,-1128,-621,13,-97
4570,168,-1768,-1176,-622,15,-99
4575,128,-1680,-1184,-625,16,-99
4580,160,-1704,-1168,-635,14,-101
4585,120,-1696,-1136,-641,17,-104
4590,144,-1672,-1168,-643,17,-106
4595,112,-1624,-1152,-654,21,-119
4600,144,-1680,-1168,-658,20,-116
4605,128,-1680,-1208,-662,17,-113
4610,136,-1680,-1208,-670,17,-115
4615,128,-1672,-1224,-679,18,-114
4620,152,-1672,-1216,-693,14,-120
4625,144,-1640,-1256,-703,14,-120
4630,144,-1656,-1240,-711,15,-123
4635,144,-1632,-1176,-724,15,-131
4640,176,-1632,-1280,-733,17,-130
4645,184,-1640,-1248,-743,18,-125
4650,176,-1640,-1280,-750,21,-127
4655,168,-1640,-1272,-757,22,-124
4660,176,-1616,-1272,-767,25,-124
4665,248,-1760,-1296,-772,28,-124
4670,208,-1584,-1328,-785,31,-138
4675,176,-1624,-1320,-778,32,-129
4680,160,-1616,-1288,-767,36,-128
4685,144,-1600,-1336,-762,38,-130
4690,176,-1616,-1336,-761,41,-134
4695,160,-1592,-1336,-766,42,-133
4700,184,-1560,-1304,-780,49,-146
4705,152,-1576,-1360,-776,47,-131
4710,144,-1600,-1336,-779,47,-122
4715,112,-1584,-1352,-772,44,-128
4720,168,-1584,-1384,-766,40,-134
4725,112,-1512,-1336,-766,41,-139
4730,184,-1552,-1416,-768,39,-135
4735,152,-1528,-1392,-769,40,-128
4740,160,-1552,-1408,-770,40,-129
4745,264,-1656,-1448,-774,38,-128
4750,216,-1456,-1416,-784,43,-144
4755,208,-1552,-1432,-782,39,-127
4760,192,-1504,-1408,-786,37,-124
4765,200,-1504,-1432,-792,35,-120
4770,272,-1784,-1504,-796,36,-124
4775,240,-1488,-1440,-816,42,-144
4780,192,-1488,-1440,-807,30,-123
4785,192,-1504,-1480,-806,32,-121
4790,184,-1496,-1464,-801,40,-124
4795,176,-1424,-1448,-795,47,-130
4800,192,-1472,-1512,-780,51,-125
4805,184,-1464,-1472,-774,56,-127
4810,184,-1448,-1488,-772,58,-131
4815,232,-1728,-1640,-779,60,-138
4820,264,-1256,-1504,-817,80,-200
4825,144,-1416,-1496,-800,59,-151
4830,176,-1424,-1552,-790,52,-142
4835,200,-1432,-1536,-785,51,-141
4840,176,-1456,-1552,-790,54,-143
4845,192,-1360,-1544,-801,60,-134
4850,184,-1384,-1528,-804,59,-140
4855,224,-1400,-1576,-796,61,-142
4860,224,-1320,-1512,-803,69,-167
4865,264,-1336,-1560,-797,59,-150
4870,216,-1336,-1584,-797,62,-153
4875,184,-1344,-1656,-794,69,-155
4880,216,-1336,-1584,-799,74,-162
4885,200,-1328,-1576,-794,68,-160
4890,184,-1352,-1616,-783,66,-160
4895,176,-1352,-1592,-768,70,-163
4900,168,-1360,-1600,-759,68,-171
4905,192,-1344,-1608,-750,62,-171
4910,192,-1344,-1624,-735,61,-173
4915,112,-1592,-1896,-730,64,-187
4920,288,-1264,-1624,-753,75,-222
4925,160,-1296,-1624,-724,54,-188
4930,168,-1312,-1648,-699,54,-185
4935,232,-1280,-1576,-676,54,-181
4940,248,-1232,-1632,-671,51,-190
4945,224,-1240,-1664,-670,57,-190
4950,216,-1288,-1640,-670,54,-194
4955,152,-1264,-1640,-673,51,-195
4960,200,-1288,-1680,-674,49,-204
4965,168,-1304,-1664,-672,47,-206
4970,256,-1280,-1632,-670,48,-216
4975,168,-1176,-1704,-667,48,-223
4980,192,-1224,-1664,-666,51,-236
4985,208,-1152,-1704,-668,46,-244
4990,224,-1200,-1776,-667,44,-256
4995,72,-1312,-1800,-671,46,-269
5000,176,-1224,-1648,-673,40,-279
5005,232,-1264,-1728,-666,28,-276
5010,200,-1376,-1648,-665,22,-285
5015,128,-1184,-1696,-663,16,-286
5020,200,-1216,-1736,-659,12,-293
5025,136,-1104,-1624,-651,9,-292
5030,280,-1128,-1720,-643,9,-297
5035,256,-1088,-1752,-646,15,-298
5040,296,-1064,-1840,-650,16,-299
5045,368,-1072,-1704,-656,19,-300
5050,328,-1144,-1744,-669,24,-302
5055,360,-1600,-1904,-693,31,-314
5060,368,-992,-1736,-722,48,-344
5065,312,-1112,-1784,-723,38,-314
5070,320,-1104,-1752,-722,46,-315
5075,272,-1064,-1728,-719,47,-313
5080,232,-1232,-1752,-711,39,-313
5085,240,-984,-1800,-722,34,-283
5090,344,-1072,-1784,-709,23,-307
5095,304,-1160,-1696,-692,5,-315
5100,240,-1192,-1800,-681,-15,-323
5105,168,-1072,-1760,-669,-35,-327
5110,208,-1104,-1752,-662,-48,-340
5115,264,-1136,-1800,-658,-60,-349
5120,240,-1024,-1816,-654,-72,-363
5125,224,-1176,-1680,-643,-77,-377
5130,272,-1136,-1752,-631,-80,-388
5135,296,-1008,-1808,-614,-84,-395
5140,256,-1016,-1856,-598,-90,-404
5145,160,-928,-1656,-603,-85,-434
5150,320,-1008,-1896,-603,-100,-429
5155,320,-984,-1840,-604,-116,-422
5160,264,-1032,-1768,-594,-119,-422
5165,360,-984,-1720,-591,-120,-422
5170,360,-896,-1792,-601,-115,-429
5175,352,-976,-1728,-610,-106,-432
5180,280,-936,-1712,-625,-91,-443
5185,280,-856,-1696,-640,-79,-445
5190,368,-944,-1736,-655,-74,-445
5195,304,-904,-1816,-672,-76,-442
5200,352,-960,-1696,-689,-86,-442
5205,336,-904,-1800,-707,-93,-443
5210,328,-944,-1848,-720,-100,-450
5215,272,-944,-1856,-736,-112,-460
5220,280,-984,-1872,-737,-128,-469
5225,272,-944,-1872,-736,-144,-486
5230,256,-944,-1848,-730,-159,-500
5235,272,-1016,-1848,-736,-174,-496
5240,248,-928,-1864,-747,-199,-518
5245,336,-856,-1768,-748,-218,-543
5250,384,-896,-1888,-749,-236,-556
5255,288,-952,-1752,-752,-256,-564
5260,408,-968,-1808,-753,-275,-564
5265,408,-960,-1784,-745,-283,-564
5270,480,-952,-1840,-736,-290,-556
5275,432,-928,-1944,-719,-290,-541
5280,568,-840,-1832,-699,-289,-530
5285,472,-776,-1936,-687,-281,-514
5290,472,-808,-1776,-673,-273,-505
5295,512,-752,-2000,-667,-260,-496
5300,616,-792,-1920,-673,-245,-497
5305,576,-736,-1896,-680,-226,-501
5310,528,-784,-1840,-691,-211,-510
5315,592,-688,-1928,-698,-191,-514
5320,520,-872,-1864,-705,-175,-519
5325,424,-744,-1856,-727,-167,-480
5330,392,-824,-1808,-715,-171,-515
5335,368,-848,-1824,-706,-182,-519
5340,320,-888,-1768,-702,-191,-527
5345,320,-760,-1904,-686,-199,-526
5350,360,-832,-1824,-681,-203,-527
5355,392,-696,-1920,-682,-207,-530
5360,368,-792,-1936,-683,-210,-536
5365,352,-680,-1968,-669,-214,-532
5370,352,-752,-1968,-659,-224,-526
5375,384,-688,-2008,-642,-234,-521
5380,360,-680,-2008,-602,-236,-500
5385,336,-672,-2024,-570,-243,-484
5390,368,-744,-2040,-545,-253,-469
5395,328,-720,-1976,-529,-263,-453
5400,304,-696,-2112,-497,-273,-436
5405,224,-752,-1992,-470,-284,-431
5410,264,-752,-1984,-434,-296,-417
5415,208,-576,-2048,-399,-308,-407
5420,264,-584,-2096,-381,-327,-390
5425,272,-552,-2096,-363,-339,-378
5430,200,-568,-2008,-349,-353,-361
5435,208,-520,-2016,-343,-354,-350
5440,296,-528,-2160,-344,-351,-342
5445,240,-408,-2104,-351,-347,-331
5450,216,-480,-2096,-359,-341,-320
5455,216,-504,-2096,-363,-333,-306
5460,232,-520,-1928,-374,-323,-293
5465,208,-520,-2016,-373,-318,-276
5470,216,-504,-2056,-372,-313,-257
5475,80,-448,-2024,-370,-308,-245
5480,152,-408,-2192,-370,-306,-231
5485,8,-408,-2112,-367,-308,-218
5490,232,-392,-2120,-370,-310,-201
5495,176,-472,-2152,-368,-298,-192
5500,200,-424,-2096,-370,-285,-182
5505,104,-368,-2184,-377,-267,-178
5510,208,-392,-1984,-371,-250,-162
5515,280,-432,-2152,-363,-232,-148
5520,176,-400,-2120,-346,-211,-130
5525,192,-368,-2160,-327,-193,-116
5530,240,-368,-2160,-303,-176,-98
5535,216,-392,-2128,-281,-156,-87
5540,168,-416,-2112,-264,-134,-76
5545,168,-376,-2112,-261,-121,-69
5550,136,-368,-2080,-257,-105,-68
5555,256,-416,-1936,-259,-102,-68
5560,184,-400,-1976,-264,-101,-68
5565,128,-352,-2040,-271,-102,-76
5570,104,-360,-2024,-274,-106,-82
5575,200,-384,-1912,-280,-117,-91
5580,-8,-320,-1920,-289,-131,-101
5585,48,-464,-1920,-303,-150,-117
5590,104,-448,-1760,-312,-176,-126
5595,128,-528,-2048,-317,-195,-143
5600,192,-432,-2040,-311,-217,-157
5605,88,-456,-2048,-298,-222,-169
5610,168,-408,-1984,-284,-226,-176
5615,264,-432,-2056,-270,-222,-185
5620,320,-392,-2064,-255,-211,-191
5625,304,-368,-2080,-242,-201,-195
5630,328,-392,-1952,-231,-189,-190
5635,192,-344,-1992,-212,-174,-194
5640,216,-440,-2096,-196,-161,-191
5645,280,-344,-1968,-183,-149,-199
5650,208,-384,-2120,-161,-141,-197
5655,216,-320,-2072,-156,-139,-205
5660,184,-360,-2008,-153,-133,-214
5665,184,-344,-2128,-152,-133,-227
5670,208,-320,-2080,-150,-136,-226
5675,184,-304,-2096,-147,-143,-231
5680,128,-392,-2104,-147,-150,-233
5685,144,-296,-2120,-158,-154,-239
5690,56,-224,-2088,-169,-159,-241
5695,112,-264,-2080,-183,-169,-234
5700,144,-264,-2112,-192,-174,-243
5705,112,-224,-2104,-202,-173,-249
5710,216,-264,-2160,-211,-173,-245
5715,128,-200,-2224,-225,-171,-250
5720,128,-272,-2024,-238,-170,-248
5725,176,-264,-2088,-244,-162,-258
5730,128,-224,-2128,-245,-153,-255
5735,136,-232,-2152,-245,-148,-257
5740,160,-264,-2152,-241,-142,-260
5745,72,-344,-2128,-240,-140,-260
5750,128,-200,-2112,-243,-144,-253
5755,56,-208,-2152,-249,-145,-255
5760,56,-280,-2120,-253,-146,-255
5765,16,-232,-2176,-255,-149,-256
5770,-64,-192,-2264,-259,-159,-253
5775,16,-128,-2120,-261,-165,-256
5780,-48,-280,-2112,-267,-171,-254
5785,0,-264,-2064,-272,-174,-255
5790,40,-176,-2168,-279,-177,-252
5795,56,-192,-1992,-288,-174,-251
5800,16,-160,-2160,-300,-162,-246
5805,16,-144,-2176,-322,-145,-249
5810,24,-64,-2224,-348,-129,-252
5815,-24,-136,-2128,-377,-118,-256
5820,32,-152,-2224,-408,-116,-254
5825,-56,-192,-2120,-438,-121,-261
5830,8,-176,-2216,-458,-131,-264
5835,-32,-232,-2184,-470,-146,-271
5840,-64,-208,-2176,-480,-164,-275
5845,-48,-192,-2176,-488,-181,-279
5850,-48,-200,-2160,-497,-200,-279
5855,16,-216,-2192,-499,-214,-280
5860,0,-240,-2120,-502,-227,-279
5865,40,-216,-2144,-505,-238,-281
5870,72,-184,-2160,-505,-249,-276
5875,80,-200,-2128,-510,-259,-276
5880,72,-184,-2168,-515,-262,-272
5885,24,-160,-2208,-521,-258,-276
5890,64,-176,-2176,-530,-251,-275
5895,64,-176,-2104,-538,-246,-282
5900,32,-176,-2120,-549,-245,-284
5905,56,-184,-2136,-558,-251,-287
5910,64,-184,-2160,-567,-260,-286
5915,64,-200,-2096,-577,-272,-293
5920,64,-176,-2104,-587,-287,-294
5925,32,-168,-2144,-596,-300,-301
5930,40,-168,-2112,-606,-313,-301
5935,56,-184,-2120,-612,-320,-309
5940,40,-168,-2104,-617,-323,-316
5945,72,-184,-2120,-620,-320,-327
5950,88,-160,-2128,-625,-316,-337
5955,56,-304,-2080,-637,-315,-348
5960,88,-160,-2096,-643,-319,-353
5965,104,-144,-2120,-649,-323,-360
5970,96,-120,-2144,-654,-327,-362
5975,112,-128,-2184,-662,-328,-372
5980,128,-96,-2248,-672,-329,-376
5985,128,-120,-2224,-685,-328,-384
5990,144,-96,-2216,-700,-330,-387
5995,144,-96,-2208,-717,-333,-395
6000,112,-104,-2224,-734,-337,-402
6005,40,-280,-2184,-753,-342,-410
6010,40,-128,-2256,-767,-349,-415
6015,40,-88,-2256,-782,-360,-422
6020,32,-64,-2280,-796,-370,-426
6025,24,-40,-2320,-813,-381,-432
6030,0,-40,-2352,-832,-397,-430
6035,-16,-72,-2400,-852,-410,-434
6040,48,-32,-2368,-875,-422,-435
6045,64,0,-2400,-900,-431,-437
6050,80,-32,-2376,-925,-442,-435
6055,40,8,-2360,-957,-449,-438
6060,32,-8,-2344,-982,-459,-438
6065,0,16,-2360,-1008,-472,-443
6070,16,16,-2376,-1037,-488,-445
6075,8,32,-2352,-1070,-505,-452
6080,8,0,-2296,-1099,-523,-459
6085,48,48,-2336,-1129,-537,-471
6090,0,-16,-2288,-1157,-553,-482
6095,-24,-24,-2264,-1184,-566,-493
6100,-24,-32,-2296,-1213,-577,-500
6105,-16,-88,-2312,-1237,-587,-509
6110,8,-80,-2344,-1252,-597,-513
6115,16,-56,-2328,-1264,-608,-519
6120,24,-56,-2304,-1268,-620,-521
6125,40,-32,-2280,-1272,-635,-524
6130,16,-24,-2280,-1281,-652,-525
6135,48,0,-2288,-1294,-669,-529
6140,56,-16,-2280,-1311,-686,-528
6145,8,-8,-2248,-1327,-701,-535
6150,-16,0,-2232,-1343,-721,-543
6155,88,16,-2184,-1368,-739,-555
6160,-16,-32,-2184,-1385,-764,-566
6165,-24,-8,-2128,-1399,-793,-584
6170,8,-32,-2168,-1409,-827,-595
6175,-16,-8,-2128,-1423,-864,-612
6180,16,-32,-2152,-1437,-899,-627
6185,32,0,-2120,-1449,-938,-641
6190,72,144,-2176,-1465,-976,-652
6195,16,40,-2064,-1477,-1009,-660
6200,88,64,-2048,-1491,-1052,-672
6205,56,104,-2048,-1516,-1087,-684
6210,80,136,-2016,-1544,-1120,-696
6215,56,112,-2008,-1577,-1153,-711
6220,88,80,-1976,-1613,-1187,-722
6225,72,88,-1952,-1635,-1221,-734
6230,40,104,-1952,-1652,-1265,-744
6235,40,88,-1904,-1664,-1315,-750
6240,-8,56,-1840,-1663,-1371,-758
6245,-16,104,-1864,-1653,-1435,-762
6250,8,160,-1800,-1647,-1510,-759
6255,0,136,-1720,-1648,-1616,-755
6260,-40,176,-1672,-1656,-1711,-749
6265,-56,208,-1608,-1671,-1814,-742
6270,-64,200,-1536,-1675,-1923,-721
6275,-64,240,-1520,-1672,-2040,-692
6280,-64,176,-1480,-1646,-2150,-649
6285,-56,184,-1472,-1598,-2254,-604
6290,-88,192,-1440,-1538,-2353,-563
6295,-88,152,-1408,-1463,-2439,-524
6300,-72,72,-1344,-1386,-2505,-477
6305,-160,80,-1320,-1289,-2572,-445
6310,-96,184,-1320,-1242,-2654,-416
6315,0,272,-1280,-1264,-2707,-387
6320,-16,432,-1336,-1299,-2722,-340
6325,-8,264,-1384,-1337,-2729,-317
6330,-80,176,-1376,-1351,-2727,-281
6335,-64,256,-1328,-1354,-2710,-273
6340,-104,224,-1328,-1361,-2665,-239
6345,-192,248,-1320,-1399,-2618,-207
6350,-192,304,-1368,-1477,-2593,-214
6355,-120,312,-1336,-1567,-2550,-220
6360,-208,288,-1256,-1647,-2526,-214
6365,-240,312,-1208,-1759,-2529,-218
6370,-248,320,-1128,-1890,-2539,-230
6375,-240,360,-1104,-1996,-2548,-229
6380,-256,280,-1144,-2078,-2563,-209
6385,-232,232,-1064,-2135,-2581,-173
6390,-240,64,-1048,-2171,-2592,-138
6395,-168,-160,-1008,-2179,-2589,-103
6400,-168,-312,-952,-2181,-2570,-95
6405,-72,-512,-928,-2179,-2537,-119
6410,-40,-608,-880,-2105,-2502,-177
6415,40,-696,-912,-2007,-2449,-268
6420,96,-728,-944,-1861,-2398,-359
6425,64,-752,-992,-1660,-2352,-447
6430,136,-736,-1080,-1411,-2283,-535
6435,192,-608,-1088,-1113,-2205,-589
6440,72,-400,-1056,-798,-2106,-634
6445,16,-184,-912,-492,-2017,-656
6450,-48,0,-760,-216,-1940,-668
6455,-120,208,-664,35,-1834,-683
6460,-240,408,-504,292,-1737,-703
6465,-344,568,-456,461,-1644,-731
6470,-504,752,-304,569,-1562,-769
6475,-440,952,-352,593,-1503,-821
6480,-536,1088,-336,538,-1462,-895
6485,-648,1152,-416,466,-1433,-990
6490,-624,1128,-456,429,-1394,-1107
6495,-888,1120,-464,456,-1349,-1260
6500,-984,1136,-520,528,-1313,-1439
6505,-1216,1128,-464,612,-1257,-1679
6510,-1448,1064,-352,700,-1242,-1899
6515,-1768,1040,-264,727,-1238,-2140
6520,-2072,832,-248,718,-1228,-2395
6525,-2360,512,-304,693,-1177,-2697
6530,-2760,256,-488,678,-1060,-3081
6535,-3328,-176,-592,683,-875,-3514
6540,-3704,-576,-712,787,-679,-3965
6545,-4096,-1024,-840,993,-468,-4450
6550,-4696,-1280,-688,1285,-301,-4975
6555,-5096,-1048,-360,1629,-232,-5518
6560,-5536,-344,128,1981,-233,-5793
6565,-5256,896,128,2105,-373,-5886
6570,-5440,2336,440,2021,-545,-5815
6575,-5984,3360,848,1861,-789,-5583
6580,-6608,4536,1160,1822,-1205,-5323
6585,-6160,5560,1720,1587,-1747,-5039
6590,-4632,6080,1128,970,-2375,-4883
6595,-3464,6112,1736,88,-2837,-4663
6600,-2928,5112,2160,-701,-3415,-4101
6605,-4952,1800,1440,-1311,-4168,-3081
6610,-7504,-664,1896,-2099,-4315,-2255
6615,-9024,-1200,1776,-2178,-4457,-1648
6620,-9976,-408,904,-1670,-4744,-1185
6625,-10344,656,256,-979,-5089,-754
6630,-10352,1192,208,-399,-5483,-320
6635,-9448,1032,568,64,-5757,106
6640,-6864,736,1072,439,-5719,531
6645,-4736,312,1560,694,-5491,863
6650,-3464,-240,1608,768,-5140,1156
6655,-2360,-584,1584,775,-4510,1379
6660,-1152,-1032,1736,823,-3717,1409
6665,-344,-1136,1792,893,-2832,1322
6670,368,-1152,1528,889,-1963,1179
6675,872,-1064,1184,792,-1131,940
6680,1008,-720,1048,662,-356,645
6685,1344,-424,808,619,299,424
6690,1200,-160,592,767,839,258
6695,696,-40,472,1077,1240,188
6700,-264,-8,528,1545,1473,256
6705,-1144,40,360,2077,1528,426
6710,-1856,16,408,2509,1437,556
6715,-2384,240,376,2690,1250,654
6720,-2592,248,464,2690,1018,719
6725,-2608,176,632,2539,796,725
6730,-2496,112,648,2295,582,662
6735,-2456,16,792,1949,373,519
6740,-2248,0,760,1577,161,324
6745,-1984,-88,648,1268,-29,94
6750,-1800,-120,536,1026,-205,-138
6755,-1640,-216,592,852,-382,-371
6760,-1656,-296,648,744,-603,-519
6765,-1744,-416,760,729,-797,-603
6770,-1480,-352,608,761,-997,-644
6775,-1208,-320,560,756,-1113,-674
6780,-1096,-304,736,703,-1155,-699
6785,-1128,-232,832,636,-1154,-698
6790,-1160,-176,1016,552,-1131,-683
6795,-1368,-112,1056,458,-1102,-668
6800,-1504,8,1096,372,-1061,-658
6805,-1568,80,1080,299,-1011,-641
6810,-1696,200,1088,246,-932,-622
6815,-1840,248,1128,218,-863,-605
6820,-1936,256,1080,196,-791,-588
6825,-1936,256,1112,176,-728,-580
6830,-1920,320,1016,151,-637,-571
6835,-2104,392,960,165,-528,-532
6840,-2104,360,896,183,-447,-495
6845,-2000,328,888,203,-370,-436
6850,-2032,240,968,239,-286,-375
6855,-2000,144,1040,271,-227,-279
6860,-1888,16,1096,265,-145,-197
6865,-1864,-80,1080,238,-65,-114
6870,-1864,-168,1008,206,15,-41
6875,-1800,-312,936,194,106,23
6880,-1824,-360,864,207,208,51
6885,-1824,-400,832,239,318,59
6890,-1808,-328,768,291,413,41
6895,-1768,-296,680,349,500,22
6900,-1792,-200,576,376,578,-8
6905,-1736,-136,544,367,639,-25
6910,-1688,-72,536,333,688,-27
6915,-1632,-32,512,310,718,-13
6920,-1608,-8,488,283,735,11
6925,-1584,0,456,254,743,42
6930,-1496,-40,464,223,753,72
6935,-1464,-48,576,182,766,99
6940,-1472,-128,608,143,769,124
6945,-1568,-160,608,113,773,158
6950,-1608,-264,600,88,793,198
6955,-1648,-272,544,57,834,226
6960,-1752,-288,440,9,901,228
6965,-1856,-288,368,-37,964,228
6970,-1928,-288,312,-77,1013,219
6975,-1976,-288,256,-103,1051,204
6980,-1960,-248,224,-123,1076,179
6985,-1960,-216,208,-132,1093,157
6990,-1952,-176,200,-135,1105,139
6995,-1960,-104,192,-135,1110,128
7000,-1920,-32,168,-131,1112,120
7005,-1976,24,144,-131,1112,123
7010,-2048,88,200,-164,1076,137
7015,-2048,120,136,-221,1033,137
7020,-1976,136,80,-284,1013,146
7025,-1888,88,72,-327,1010,172
7030,-1944,64,80,-330,1012,201
7035,-1984,56,80,-312,1011,233
7040,-2040,40,96,-299,1007,263
7045,-2040,8,112,-295,1015,295
7050,-2072,8,72,-285,1027,324
7055,-2128,8,88,-270,1045,346
7060,-2136,48,0,-257,1073,354
7065,-2176,48,-16,-246,1096,362
7070,-2168,48,-64,-232,1118,358
7075,-2200,72,-120,-209,1140,352
7080,-2208,72,-176,-183,1159,334
7085,-2176,96,-168,-157,1172,321
7090,-2184,112,-192,-137,1180,304
7095,-2144,96,-160,-116,1182,296
7100,-2136,128,-176,-94,1181,280
7105,-2088,184,-208,-80,1182,270
7110,-2112,144,-176,-70,1180,260
7115,-2144,128,-152,-49,1171,253
7120,-2088,128,-184,-24,1156,239
7125,-2104,168,-216,-18,1152,219
7130,-2120,184,-256,-18,1140,198
7135,-2144,200,-280,-20,1129,188
7140,-2128,224,-280,-25,1115,179
7145,-2160,240,-288,-40,1095,172
7150,-2144,224,-336,-70,1070,168
7155,-2160,240,-400,-91,1051,164
7160,-2168,240,-384,-107,1024,158
7165,-2208,216,-456,-109,1001,155
7170,-2224,192,-464,-117,987,136
7175,-2224,160,-464,-118,966,115
7180,-2224,176,-472,-113,949,88
7185,-2208,192,-512,-113,930,60
7190,-2248,200,-488,-117,906,40
7195,-2256,216,-528,-123,882,27
7200,-2200,176,-544,-130,851,14
7205,-2248,160,-528,-132,826,-1
7210,-2184,184,-576,-132,787,-12
7215,-2216,208,-544,-136,761,-15
7220,-2216,152,-552,-136,724,-11
7225,-2184,160,-608,-141,682,-10
7230,-2184,160,-592,-141,654,-15
7235,-2192,136,-568,-136,622,-10
7240,-2120,160,-664,-129,581,-4
7245,-2136,128,-616,-121,554,4
7250,-2144,120,-632,-115,520,11
7255,-2112,128,-584,-116,491,18
7260,-2080,120,-584,-113,462,23
7265,-2088,120,-584,-107,445,24
7270,-2080,96,-600,-102,421,26
7275,-2096,64,-632,-102,405,30
7280,-2136,104,-600,-99,385,36
7285,-2112,64,-656,-92,362,41
7290,-2112,72,-656,-83,337,48
7295,-2136,64,-624,-75,309,53
7300,-2136,80,-656,-70,271,52
7305,-2112,64,-704,-66,240,48
7310,-2080,64,-672,-54,217,50
7315,-2120,48,-648,-44,190,52
7320,-2056,-8,-696,-20,156,71
7325,-2096,-16,-656,-22,128,60
7330,-2064,-24,-656,-32,109,48
7335,-2080,-24,-656,-28,83,45
7340,-2064,-8,-648,-17,58,45
7345,-2104,0,-648,-4,34,43
7350,-2080,-16,-640,1,17,39
7355,-2080,-24,-624,9,-3,24
7360,-2088,-16,-648,15,-19,16
7365,-2104,-16,-608,14,-34,8
7370,-2104,-16,-632,17,-50,-2
7375,-2104,16,-616,20,-65,-5
7380,-2112,-24,-608,25,-83,-11
7385,-2128,-16,-568,28,-98,-17
7390,-2136,24,-568,32,-114,-20
7395,-2120,32,-560,32,-132,-22
7400,-2104,48,-568,38,-149,-21
7405,-2128,88,-568,47,-172,-22
7410,-2104,72,-552,58,-190,-24
7415,-2112,80,-544,61,-208,-26
7420,-2096,96,-488,62,-222,-27
7425,-2096,80,-480,64,-236,-29
7430,-2104,104,-472,70,-246,-32
7435,-2120,112,-456,80,-253,-38
7440,-2120,112,-456,88,-260,-41
7445,-2088,120,-448,91,-265,-44
7450,-2112,96,-424,90,-266,-42
7455,-2064,96,-400,85,-263,-42
7460,-2104,96,-432,77,-259,-40
7465,-2072,96,-368,73,-247,-39
7470,-2080,80,-352,68,-240,-36
7475,-2088,88,-352,63,-234,-35
7480,-2096,96,-368,57,-229,-33
7485,-2080,72,-384,53,-227,-33
7490,-2096,80,-376,54,-226,-31
7495,-2088,72,-344,56,-227,-31
7500,-2088,88,-376,59,-227,-28
7505,-2056,88,-328,57,-228,-29
7510,-2088,96,-368,50,-224,-26
7515,-2072,120,-328,47,-222,-27
7520,-2056,88,-312,45,-219,-27
7525,-2032,120,-312,43,-218,-31
7530,-2008,88,-272,42,-215,-31
7535,-2048,96,-304,38,-211,-31
7540,-2024,64,-288,33,-206,-26
7545,-2032,72,-272,28,-200,-25
7550,-1968,64,-272,24,-192,-19
7555,-1992,80,-296,22,-184,-18
7560,-2008,80,-240,22,-176,-12
7565,-2008,104,-272,20,-165,-11
7570,-2040,120,-272,14,-155,-8
7575,-2024,136,-224,9,-144,-8
7580,-2032,112,-232,4,-136,-4
7585,-2024,112,-216,0,-127,-2
7590,-2056,104,-256,-5,-116,4
7595,-2064,120,-240,-10,-107,6
7600,-2048,104,-288,-12,-97,9
7605,-2072,120,-256,-12,-83,6
7610,-2064,80,-232,-10,-73,9
7615,-2096,96,-248,-6,-65,6
7620,-2064,112,-256,-3,-54,7
7625,-2072,88,-224,1,-47,4
7630,-2048,96,-240,0,-38,6
7635,-2064,120,-208,2,-28,4
7640,-2048,96,-224,4,-20,6
7645,-2056,128,-232,4,-12,3
7650,-2048,120,-224,5,-5,6
7655,-2040,128,-232,8,7,4
7660,-2064,144,-200,5,15,6
7665,-2056,152,-224,3,27,5
7670,-2048,136,-208,-1,40,6
7675,-2056,152,-216,-5,50,2
7680,-2064,144,-224,-7,61,2
7685,-2040,112,-224,-10,71,-2
7690,-2040,112,-248,-12,82,0
7695,-2064,120,-232,-13,92,-2
7700,-2040,112,-232,-15,102,2
7705,-2040,96,-264,-16,115,4
7710,-2040,120,-248,-16,122,10
7715,-2032,104,-264,-15,129,10
7720,-2024,88,-264,-17,134,13
7725,-2048,136,-232,-16,138,12
7730,-2056,112,-272,-14,143,11
7735,-2096,136,-272,-16,150,9
7740,-2080,152,-320,-20,154,10
7745,-2056,96,-296,-19,158,9
7750,-2080,104,-280,-19,161,13
7755,-2056,88,-312,-19,164,11
7760,-2072,80,-296,-16,167,12
7765,-2064,104,-320,-14,167,9
7770,-2080,96,-328,-14,167,12
7775,-2072,112,-320,-14,165,11
7780,-2072,120,-336,-15,162,14
7785,-2080,88,-328,-18,159,12
7790,-2096,120,-344,-20,156,15
7795,-2096,104,-344,-21,153,12
7800,-2072,96,-344,-22,149,14
7805,-2104,104,-352,-24,146,10
7810,-2104,104,-320,-26,145,12
7815,-2080,72,-352,-28,140,8
7820,-2088,96,-344,-29,138,10
7825,-2120,96,-312,-33,134,4
7830,-2096,72,-360,-34,130,4
7835,-2080,64,-392,-34,130,0
7840,-2088,96,-376,-34,127,0
7845,-2080,96,-360,-33,125,-1
7850,-2096,96,-376,-33,121,-2
7855,-2096,112,-376,-35,116,-6
7860,-2096,120,-392,-34,111,-6
7865,-2072,96,-368,-35,105,-12
7870,-2088,112,-368,-36,101,-10
7875,-2096,112,-360,-37,97,-14
7880,-2128,104,-352,-41,92,-12
7885,-2104,104,-328,-42,86,-16
7890,-2112,96,-360,-43,81,-12
7895,-2104,88,-336,-43,75,-15
7900,-2088,80,-368,-46,69,-12
7905,-2088,80,-376,-47,67,-14
7910,-2080,104,-344,-50,65,-12
7915,-2072,96,-368,-52,62,-16
7920,-2080,104,-392,-53,59,-15
7925,-2088,88,-368,-54,55,-19
7930,-2080,72,-384,-51,49,-15
7935,-2104,80,-392,-46,43,-18
7940,-2072,72,-416,-39,39,-17
7945,-2088,56,-384,-33,35,-20
7950,-2072,72,-328,-28,29,-19
7955,-2064,80,-352,-23,29,-22
7960,-2088,120,-360,-21,28,-20
7965,-2072,128,-328,-20,25,-22
7970,-2088,128,-320,-23,25,-17
7975,-2080,120,-368,-28,26,-21
7980,-2080,72,-344,-33,26,-19
7985,-2056,72,-360,-35,26,-20
7990,-2064,56,-320,-33,25,-18
7995,-2088,72,-296,-32,25,-20
8000,-2064,64,-320,-38,25,-18
8005,-2072,40,-296,-39,26,-21
8010,-2024,64,-296,-40,25,-18
8015,-2064,56,-328,-41,28,-21
8020,-2032,40,-328,-43,26,-18
8025,-2096,96,-344,-44,29,-20
8030,-2088,136,-336,-42,31,-16
8035,-2104,120,-360,-45,32,-15
8040,-2096,136,-320,-50,31,-11
8045,-2112,120,-344,-54,34,-11
8050,-2080,96,-384,-55,32,-6
8055,-2088,88,-376,-56,31,-6
8060,-2064,88,-336,-58,30,-2
8065,-2056,80,-344,-61,27,-2
8070,-2064,72,-320,-63,23,0
8075,-2048,88,-312,-60,22,0
8080,-2056,72,-304,-56,21,3
8085,-2072,104,-296,-52,20,0
8090,-2048,64,-296,-48,20,3
8095,-2064,80,-272,-47,21,1
8100,-2056,88,-312,-45,24,3
8105,-2064,64,-320,-41,28,0
8110,-2064,72,-312,-36,30,3
8115,-2096,72,-336,-31,35,1
8120,-2096,104,-304,-29,39,2
8125,-2064,96,-280,-29,42,1
8130,-2072,96,-312,-28,48,1
8135,-2072,120,-312,-29,51,-2
8140,-2080,120,-296,-29,56,-1
8145,-2080,112,-312,-29,60,-3
8150,-2072,112,-280,-34,66,-1
8155,-2072,120,-312,-37,69,-5
8160,-2056,136,-272,-41,73,-5
8165,-2056,120,-280,-43,78,-7
8170,-2056,128,-280,-47,80,-6
8175,-2080,120,-304,-49,82,-9
8180,-2064,88,-304,-50,83,-10
8185,-2072,80,-320,-49,84,-14
8190,-2064,104,-320,-49,81,-14
8195,-2064,112,-336,-48,81,-13
8200,-2072,112,-328,-49,80,-9
8205,-2048,120,-336,-48,77,-10
8210,-2048,96,-328,-45,76,-8
8215,-2072,112,-320,-44,75,-8
8220,-2064,112,-328,-42,75,-6
8225,-2064,104,-304,-39,74,-7
8230,-2064,112,-312,-38,74,-5
8235,-2080,96,-320,-38,76,-5
8240,-2088,96,-296,-38,77,-4
8245,-2080,88,-312,-39,79,-6
8250,-2096,96,-328,-42,81,-3
8255,-2080,96,-304,-44,80,-6
8260,-2096,88,-336,-45,81,-5
8265,-2088,88,-344,-46,82,-4
8270,-2064,72,-344,-47,82,-3
8275,-2088,88,-328,-48,83,-3
8280,-2064,40,-320,-46,84,-2
8285,-2072,72,-352,-46,86,-3
8290,-2064,80,-336,-43,87,-2
8295,-2096,104,-352,-42,85,-5
8300,-2088,104,-344,-42,83,-5
8305,-2088,80,-344,-41,81,-7
8310,-2088,104,-328,-39,78,-6
8315,-2088,104,-344,-37,77,-6
8320,-2088,104,-336,-36,72,-5
8325,-2096,104,-328,-36,69,-7
8330,-2064,120,-344,-35,68,-6
8335,-2088,96,-376,-36,66,-7
8340,-2072,80,-320,-35,63,-7
8345,-2056,104,-336,-38,61,-7
8350,-2080,96,-336,-43,59,-7
8355,-2088,104,-320,-45,58,-6
8360,-2072,96,-344,-47,58,-3
8365,-2072,88,-328,-46,59,-4
8370,-2064,120,-344,-48,59,-3
8375,-2096,88,-328,-49,61,-5
8380,-2080,128,-352,-49,61,-5
8385,-2096,104,-336,-45,64,-5
8390,-2072,88,-352,-46,66,-4
8395,-2072,80,-352,-43,65,-3
8400,-2040,56,-352,-38,63,-1
8405,-2064,72,-368,-31,62,1
8410,-2064,80,-368,-28,60,0
8415,-2056,80,-344,-26,57,1
8420,-2056,72,-352,-24,56,1
8425,-2072,104,-344,-23,52,2
8430,-2088,128,-328,-23,51,2
8435,-2080,136,-312,-23,48,3
8440,-2080,112,-320,-24,45,3
8445,-2056,104,-328,-28,46,4
8450,-2096,104,-304,-30,46,5
8455,-2096,104,-344,-32,45,3
8460,-2064,96,-344,-33,48,3
8465,-2072,96,-320,-31,47,3
8470,-2064,104,-328,-27,51,4
8475,-2088,80,-352,-25,52,6
8480,-2048,72,-344,-21,55,4
8485,-2064,72,-320,-20,56,6
8490,-2096,88,-360,-17,58,6
8495,-2064,112,-328,-17,59,5
8500,-2088,104,-368,-15,60,6
8505,-2088,96,-344,-13,61,3
8510,-2080,96,-328,-11,62,2
8515,-2080,104,-344,-10,62,2
8520,-2072,104,-384,-9,61,2
8525,-2080,104,-344,-7,58,3
8530,-2064,88,-344,-7,56,2
8535,-2064,80,-328,-6,53,4
8540,-2072,104,-328,-6,51,6
8545,-2040,88,-336,-6,48,8
8550,-2088,88,-304,-6,45,9
8555,-2072,80,-328,-8,43,10
8560,-2080,112,-328,-9,44,9
8565,-2048,88,-320,-9,44,10
8570,-2080,112,-320,-9,45,8
8575,-2048,80,-368,-9,46,7
8580,-2088,128,-320,-9,49,8
8585,-2056,104,-336,-9,51,8
8590,-2088,104,-320,-8,51,5
8595,-2056,96,-336,-11,52,8
8600,-2080,104,-312,-13,53,8
8605,-2088,96,-304,-13,54,9
8610,-2064,96,-328,-14,54,8
8615,-2064,96,-336,-14,57,8
8620,-2080,96,-320,-16,56,8
8625,-2072,104,-336,-17,60,8
8630,-2096,112,-336,-18,57,7
8635,-2080,120,-336,-18,56,7
8640,-2080,96,-328,-17,58,6
8645,-2072,80,-328,-17,58,7
8650,-2080,64,-320,-15,57,6
8655,-2064,104,-336,-10,58,7
8660,-2064,80,-312,-8,59,5
8665,-2072,104,-328,-8,59,5
8670,-2048,112,-336,-7,58,3
8675,-2080,112,-320,-6,55,5
8680,-2080,104,-304,-6,54,3
8685,-2096,112,-336,-6,52,6
8690,-2072,104,-312,-5,52,4
8695,-2056,112,-304,-2,54,4
8700,-2064,72,-320,-2,57,2
8705,-2064,128,-328,-3,57,4
8710,-2064,96,-328,-5,57,2
8715,-2088,128,-320,-4,60,2
8720,-2072,120,-312,-7,59,1
8725,-2056,80,-328,-8,62,2
8730,-2096,144,-312,-10,64,-1
8735,-2088,96,-296,-10,66,3
8740,-2072,112,-288,-10,67,1
8745,-2088,104,-320,-11,66,2
8750,-2072,88,-336,-10,64,1
8755,-2080,104,-312,-10,64,4
8760,-2096,96,-328,-10,63,2
8765,-2072,80,-336,-10,65,3
8770,-2104,88,-312,-8,65,2
8775,-2080,88,-360,-7,62,4
8780,-2080,88,-336,-5,63,1
8785,-2056,96,-344,-2,62,3
8790,-2088,112,-352,0,61,0
8795,-2096,112,-336,1,62,2
8800,-2080,96,-312,1,60,-1
8805,-2088,112,-320,4,59,1
8810,-2064,88,-312,5,57,-1
8815,-2080,88,-336,6,55,1
8820,-2064,96,-344,6,55,0
8825,-2064,96,-312,6,54,2
8830,-2064,104,-344,7,53,1
8835,-2096,96,-336,8,54,2
8840,-2072,96,-320,9,56,-1
8845,-2088,104,-368,9,56,1
8850,-2064,80,-336,8,58,0
8855,-2104,128,-280,6,59,3
8860,-2088,128,-336,5,62,1
8865,-2064,72,-296,3,63,3
8870,-2072,128,-328,2,65,0
8875,-2064,80,-304,0,64,4
8880,-2088,104,-320,-2,65,3
8885,-2080,88,-336,-1,64,6
8890,-2080,96,-328,-1,62,4
8895,-2080,112,-312,-2,62,4
8900,-2072,120,-312,-7,65,0
8905,-2088,112,-336,-9,64,0
8910,-2064,112,-312,-11,64,-2
8915,-2080,104,-336,-11,62,1
8920,-2064,112,-312,-8,59,-2
8925,-2080,88,-336,-3,56,2
8930,-2064,88,-320,1,52,-1
8935,-2096,104,-328,4,51,1
8940,-2088,120,-328,7,52,-3
8945,-2064,104,-328,10,54,-2
8950,-2088,104,-328,8,52,-4
8955,-2064,72,-352,11,52,-2
8960,-2096,120,-360,14,51,-4
8965,-2088,88,-376,16,50,-1
8970,-2088,56,-344,19,49,-2
8975,-2064,104,-328,21,49,1
8980,-2064,88,-288,22,49,-2
8985,-2056,80,-320,20,49,1
8990,-2048,96,-320,17,48,-1
8995,-2056,96,-304,18,54,2
9000,-2032,88,-336,16,56,1
9005,-2080,104,-344,17,59,3
9010,-2080,112,-320,19,60,1
9015,-2080,152,-376,18,61,4
9020,-2096,120,-336,18,62,2
9025,-2080,120,-344,16,63,4
9030,-2096,144,-328,14,64,2
9035,-2072,96,-336,9,66,2
9040,-2096,136,-328,6,66,0
9045,-2064,88,-312,-1,65,4
9050,-2064,112,-312,-9,65,2
9055,-2056,80,-304,-10,63,5
9060,-2096,120,-272,-11,59,4
9065,-2056,88,-296,-10,57,6
9070,-2056,104,-296,-9,55,3
9075,-2048,88,-312,-9,54,5
9080,-2056,88,-320,-5,51,3
9085,-2056,104,-336,-4,51,6
9090,-2080,88,-328,-1,51,5
9095,-2072,80,-328,1,53,9
9100,-2072,88,-312,2,55,7
9105,-2040,96,-344,2,58,11
9110,-2072,112,-320,6,62,8
9115,-2104,112,-320,7,63,10
9120,-2096,168,-296,5,66,7
9125,-2088,112,-320,3,66,8
9130,-2104,144,-312,1,68,5
9135,-2088,112,-336,-2,68,6
9140,-2080,144,-328,-3,69,3
9145,-2080,104,-320,-5,71,4
9150,-2072,120,-336,-5,73,2
9155,-2048,104,-288,-6,76,3
9160,-2072,112,-296,-5,78,2
9165,-2056,96,-368,-7,76,4
9170,-2080,104,-320,-6,79,2
9175,-2096,104,-336,-9,77,4
9180,-2072,104,-336,-8,73,2
9185,-2080,104,-336,-6,70,4
9190,-2072,88,-336,-3,68,3
9195,-2064,112,-344,-1,65,4
9200,-2056,112,-344,0,60,0
9205,-2080,112,-320,2,56,4
9210,-2064,96,-336,1,52,2
9215,-2064,104,-344,2,52,4
9220,-2064,96,-336,3,52,3
9225,-2080,88,-344,7,52,3
9230,-2096,104,-368,9,54,1
9235,-2088,112,-312,11,56,2
9240,-2088,120,-304,11,58,0
9245,-2088,96,-336,8,59,3
9250,-2072,96,-320,4,61,0
9255,-2072,104,-360,2,63,4
9260,-2096,120,-328,3,63,0
9265,-2088,120,-336,3,61,1
9270,-2080,112,-336,2,62,-1
9275,-2080,120,-312,-1,62,0
9280,-2112,120,-312,-4,63,-2
9285,-2056,104,-344,-7,63,0
9290,-2088,104,-320,-9,63,-1
9295,-2056,104,-336,-9,62,2
9300,-2064,112,-344,-8,63,0
9305,-2064,88,-304,-7,59,4
9310,-2056,104,-320,-4,60,3
9315,-2072,112,-344,-5,58,3
9320,-2072,96,-320,-7,56,3
9325,-2080,120,-328,-6,55,2
9330,-2056,88,-320,-5,53,0
9335,-2072,88,-320,-3,53,1
9340,-2088,96,-368,-3,54,1
9345,-2072,96,-304,-1,53,2
9350,-2080,104,-336,-2,55,1
9355,-2088,112,-328,-2,55,3
9360,-2080,88,-344,-2,56,1
9365,-2096,128,-320,0,57,1
9370,-2072,112,-312,-2,57,1
9375,-2064,120,-312,-2,56,3
9380,-2080,120,-312,-7,56,3
9385,-2072,112,-328,-8,56,3
9390,-2056,104,-296,-9,57,4
9395,-2072,104,-352,-7,58,6
9400,-2056,104,-344,-10,56,4
9405,-2072,80,-328,-7,54,6
9410,-2072,112,-312,-5,53,4
9415,-2080,88,-336,-5,53,6
9420,-2064,112,-344,-4,55,5
9425,-2072,136,-320,-2,56,4
9430,-2080,104,-312,-2,60,2
9435,-2080,112,-336,-1,59,1
9440,-2064,112,-376,-1,60,-1
9445,-2088,112,-336,2,62,0
9450,-2072,96,-328,1,61,-3
9455,-2064,104,-344,1,63,-2
9460,-2072,120,-352,3,62,-5
9465,-2072,112,-336,3,62,-3
9470,-2072,104,-304,6,63,-5
9475,-2088,136,-336,4,60,-5
9480,-2088,120,-312,3,61,-4
9485,-2088,120,-360,-1,61,-4
9490,-2104,120,-312,-1,63,-2
9495,-2096,136,-312,-4,64,-1
9500,-2064,120,-360,-6,66,-3
9505,-2088,120,-344,-7,69,-3
9510,-2048,80,-328,-7,73,-2
9515,-2048,112,-328,-8,74,-1
9520,-2072,112,-320,-8,74,-2
9525,-2056,72,-304,-9,75,-1
9530,-2056,104,-320,-10,72,-1
9535,-2072,88,-320,-8,72,0
9540,-2056,104,-312,-9,71,-1
9545,-2056,104,-288,-8,70,2
9550,-2056,96,-304,-7,70,1
9555,-2104,112,-328,-6,70,3
9560,-2064,120,-344,-6,70,3
9565,-2072,120,-320,-6,71,3
9570,-2080,120,-328,-9,68,4
9575,-2208,112,-320,-10,68,4
9580,-2040,88,-320,-10,66,4
9585,-2072,104,-328,-12,66,4
9590,-2072,96,-352,-11,64,6
9595,-2080,72,-352,-12,62,7
9600,-2080,112,-336,-11,63,7
9605,-2096,112,-352,-10,62,7
9610,-2072,104,-336,-12,61,6
9615,-2072,112,-336,-14,61,7
9620,-2096,104,-328,-13,61,8
9625,-2080,120,-320,-12,62,8
9630,-2080,136,-296,-13,62,7
9635,-2064,104,-328,-13,63,7
9640,-2056,96,-312,-12,65,6
9645,-2072,88,-336,-12,65,6
9650,-2064,104,-304,-11,65,6
9655,-2064,104,-296,-10,64,4
9660,-2064,80,-344,-9,63,4
9665,-2072,104,-344,-7,64,3
9670,-2096,128,-304,-7,64,3
9675,-2096,112,-336,-6,64,3
9680,-2080,128,-328,-5,62,2
9685,-2088,112,-320,-2,61,1
9690,-2072,112,-320,-7,59,0
9695,-2064,112,-328,-12,58,-2
9700,-2080,112,-344,-13,61,0
9705,-2072,112,-320,-11,62,-1
9710,-2072,120,-352,-10,62,1
9715,-2072,112,-336,-12,60,1
9720,-2088,104,-320,-13,59,2
9725,-2096,128,-320,-12,57,1
9730,-2064,120,-320,-14,57,2
9735,-2096,104,-320,-13,58,-2
9740,-2080,112,-328,-15,59,0
9745,-2088,104,-312,-17,62,-1
9750,-2088,136,-312,-19,62,-1
9755,-2080,104,-344,-21,61,-3
9760,-2064,120,-320,-23,61,-3
9765,-2048,120,-328,-23,62,-7
9770,-2072,128,-328,-24,64,-5
9775,-2056,104,-328,-24,65,-8
9780,-2064,112,-336,-26,65,-8
9785,-2072,120,-336,-26,64,-13
9790,-2072,128,-336,-26,66,-13
9795,-2080,144,-344,-26,65,-15
9800,-2088,104,-320,-25,65,-16
9805,-2104,136,-336,-26,67,-18
9810,-2080,112,-328,-26,66,-20
9815,-2072,112,-336,-25,68,-24
9820,-2080,96,-328,-24,66,-23
9825,-2088,112,-352,-24,67,-26
9830,-2072,104,-352,-25,68,-25
9835,-2080,96,-344,-26,70,-27
9840,-2096,96,-352,-27,71,-26
9845,-2064,80,-360,-25,73,-28
9850,-2088,88,-312,-25,73,-25
9855,-2080,104,-360,-22,74,-26
9860,-2080,112,-336,-21,72,-23
9865,-2080,88,-312,-20,71,-24
9870,-2072,112,-344,-19,71,-19
9875,-2048,112,-288,-20,72,-21
9880,-2056,112,-296,-22,69,-17
9885,-2056,120,-328,-25,68,-18
9890,-2072,104,-320,-29,67,-14
9895,-2064,112,-312,-32,66,-15
9900,-2064,104,-320,-34,65,-11
9905,-2088,112,-336,-38,64,-14
9910,-2072,112,-304,-40,65,-10
9915,-2064,96,-320,-44,65,-12
9920,-2080,112,-336,-48,65,-9
9925,-2072,104,-328,-51,64,-11
9930,-2064,64,-312,-53,63,-6
9935,-2088,96,-328,-52,61,-6
9940,-2064,80,-328,-47,60,-2
9945,-2088,104,-336,-40,59,-4
9950,-2080,96,-320,-34,59,-2
9955,-2072,96,-328,-31,60,-4
9960,-2056,120,-320,-31,60,-4
9965,-2080,120,-328,-33,62,-10
9970,-2088,120,-336,-34,60,-9
9975,-2080,112,-312,-36,62,-12
9980,-2088,80,-368,-34,62,-8
9985,-2080,80,-360,-29,62,-9
9990,-2072,72,-368,-21,59,-6
9995,-2096,64,-360,-17,58,-7
10000,-2048,80,-296,-16,58,-7
10005,-2080,104,-312,-17,58,-10
10010,-2064,96,-304,-20,61,-9
10015,-2056,80,-304,-25,63,-11
10020,-2064,96,-328,-30,67,-10
10025,-2064,120,-352,-33,72,-10
10030,-2080,136,-352,-35,71,-6
10035,-2080,128,-352,-37,72,-8
10040,-2096,152,-328,-41,75,-5
10045,-2088,136,-352,-47,73,-7
10050,-2080,120,-304,-51,73,-5
10055,-2080,120,-344,-51,72,-10
10060,-2080,112,-312,-52,69,-7
10065,-2088,96,-328,-53,69,-9
10070,-2064,120,-304,-53,66,-5
10075,-2072,104,-320,-51,64,-7
10080,-2080,128,-320,-47,61,-6
10085,-2072,120,-328,-45,59,-9
10090,-2040,104,-344,-45,55,-11
10095,-2072,128,-336,-45,51,-14
10100,-2072,104,-304,-42,50,-12
10105,-2080,120,-312,-41,50,-16
10110,-2096,128,-328,-41,48,-12
10115,-2056,104,-344,-40,52,-15
10120,-2072,120,-328,-40,53,-12
10125,-2056,96,-336,-40,56,-14
10130,-2088,152,-312,-41,58,-11
10135,-2080,152,-328,-44,63,-17
10140,-2120,160,-304,-50,70,-14
10145,-2088,136,-312,-55,76,-17
10150,-2072,120,-328,-61,80,-17
10155,-2088,96,-304,-66,85,-20
10160,-2080,112,-352,-69,89,-21
10165,-2072,88,-336,-68,92,-22
10170,-2080,96,-360,-64,92,-18
10175,-2080,88,-336,-60,92,-21
10180,-2064,96,-328,-57,89,-19
10185,-2048,80,-360,-51,86,-21
10190,-2080,104,-344,-45,81,-20
10195,-2080,112,-352,-40,76,-22
10200,-2048,96,-344,-39,71,-20
10205,-2064,120,-320,-38,65,-22
10210,-2048,88,-344,-36,63,-19
10215,-2072,88,-352,-34,60,-19
10220,-2056,104,-360,-34,59,-15
10225,-2088,104,-336,-33,55,-17
10230,-2072,96,-336,-36,53,-13
10235,-2048,88,-368,-40,52,-15
10240,-2080,104,-352,-43,50,-13
10245,-2072,80,-336,-44,51,-15
10250,-2096,72,-328,-47,51,-12
10255,-2064,72,-304,-46,53,-14
10260,-2104,104,-304,-43,55,-12
10265,-2072,104,-328,-43,57,-14
10270,-2064,88,-312,-45,60,-11
10275,-2056,72,-336,-46,62,-13
10280,-2072,80,-328,-47,63,-12
10285,-2088,112,-320,-51,62,-15
10290,-2064,96,-336,-53,61,-11
10295,-2080,88,-320,-56,60,-10
10300,-2072,104,-312,-53,61,-6
10305,-2072,80,-352,-51,58,-8
10310,-2080,120,-328,-48,59,-6
10315,-2072,104,-320,-48,55,-8
10320,-2072,88,-344,-49,56,-4
10325,-2080,104,-344,-48,56,-7
10330,-2088,88,-344,-49,54,-5
10335,-2096,128,-328,-50,54,-5
10340,-2080,104,-328,-50,58,-3
10345,-2064,96,-344,-49,59,-6
10350,-2096,88,-336,-47,59,-6
10355,-2080,112,-312,-49,61,-10
10360,-2096,112,-328,-49,63,-9
10365,-2072,112,-320,-52,65,-12
10370,-2072,104,-288,-53,66,-12
10375,-2072,104,-336,-54,68,-13
10380,-2064,104,-304,-54,70,-11
10385,-2064,88,-328,-54,71,-13
10390,-2088,96,-328,-51,72,-10
10395,-2064,88,-344,-50,70,-13
10400,-2064,104,-336,-48,70,-11
10405,-2072,96,-352,-48,67,-12
10410,-2088,120,-328,-48,65,-11
10415,-2072,88,-344,-49,63,-13
10420,-2072,120,-336,-48,63,-12
10425,-2080,128,-296,-50,63,-14
10430,-2064,120,-304,-57,65,-14
10435,-2072,96,-328,-60,63,-14
10440,-2064,80,-328,-64,64,-11
10445,-2080,120,-344,-66,62,-11
10450,-2072,72,-344,-64,64,-9
10455,-2048,96,-352,-62,62,-9
10460,-2072,80,-360,-60,62,-6
10465,-2080,104,-336,-58,61,-6
10470,-2088,96,-352,-58,59,-4
10475,-2104,128,-328,-54,55,-4
10480,-2096,104,-360,-49,56,-1
10485,-2080,96,-336,-47,53,-2
10490,-2080,88,-344,-46,54,-2
10495,-2088,64,-360,-46,53,-4
10500,-2072,112,-352,-48,54,-3
10505,-2088,104,-360,-47,55,-5
10510,-2080,88,-336,-46,55,-3
10515,-2080,104,-336,-46,55,-5
10520,-2056,72,-328,-45,55,-4
10525,-2064,80,-376,-43,56,-3
10530,-2072,80,-352,-42,55,-1
10535,-2064,80,-320,-38,54,-2
10540,-2072,104,-328,-33,55,0
10545,-2080,72,-352,-31,54,-2
10550,-2064,72,-328,-29,54,-1
10555,-2064,80,-328,-25,54,-2
10560,-2080,80,-328,-23,54,-2
10565,-2064,104,-336,-21,54,-2
10570,-2064,72,-328,-19,56,-2
10575,-2096,112,-360,-17,56,-3
10580,-2088,88,-336,-15,54,-1
10585,-2072,88,-360,-14,55,-1
10590,-2064,96,-344,-15,54,0
10595,-2072,96,-336,-16,56,-1
10600,-2080,96,-352,-16,59,1
10605,-2072,96,-352,-16,60,0
10610,-2056,104,-328,-17,58,2
10615,-2080,96,-320,-16,58,2
10620,-2088,128,-336,-16,56,3
10625,-2056,88,-328,-15,58,3
10630,-2072,72,-320,-13,58,2
10635,-2072,88,-368,-12,57,0
10640,-2072,112,-336,-12,58,1
10645,-2112,88,-360,-8,56,1
10650,-2040,88,-360,-8,57,0
10655,-2056,88,-368,-7,56,0
10660,-2088,96,-344,-6,55,0
10665,-2088,96,-352,-5,56,2
10670,-2096,104,-352,-4,56,1
10675,-2080,112,-344,-4,56,0
10680,-2080,120,-336,-2,59,2
10685,-2072,104,-328,-3,59,0
10690,-2088,112,-328,-4,60,0
10695,-2064,112,-352,-5,60,0
10700,-2048,96,-328,-8,62,0
10705,-2088,120,-336,-10,65,0
10710,-2072,104,-344,-11,67,1
10715,-2080,96,-344,-11,68,-1
10720,-2072,96,-336,-13,68,0
10725,-2072,120,-320,-16,68,3
10730,-2072,80,-328,-16,67,4
10735,-2056,136,-320,-16,66,4
10740,-2064,88,-344,-16,64,6
10745,-2056,112,-328,-16,63,4
10750,-2056,96,-408,-14,63,3
10755,-2040,80,-280,-13,62,5
10760,-2088,112,-296,-12,59,4
10765,-2056,96,-320,-13,57,6
10770,-2088,96,-296,-14,56,5
10775,-2064,112,-296,-14,57,6
10780,-2080,120,-344,-15,55,7
10785,-2080,112,-344,-14,56,7
10790,-2072,104,-320,-12,57,6
10795,-2088,104,-344,-13,58,5
10800,-2104,104,-344,-11,57,4
10805,-2112,128,-336,-9,56,2
10810,-2048,64,-360,-5,56,1
10815,-2080,72,-344,-6,56,2
10820,-2096,96,-360,-5,58,2
10825,-2064,96,-336,-5,60,2
10830,-2080,104,-320,-5,60,2
10835,-2072,112,-304,-4,61,3
10840,-2064,96,-344,-4,61,3
10845,-2080,120,-312,-4,60,5
10850,-2064,88,-312,-4,59,5
10855,-2088,88,-336,0,58,8
10860,-2080,120,-336,4,59,7
10865,-2064,112,-312,7,59,9
10870,-2088,104,-312,10,59,8
10875,-2096,120,-312,8,60,7
10880,-2096,136,-304,4,60,4
10885,-2096,112,-312,-1,60,4
10890,-2072,144,-312,-6,61,1
10895,-2096,104,-328,-5,59,2
10900,-2080,104,-320,-3,57,2
10905,-2072,80,-344,2,55,5
10910,-2072,80,-352,9,55,4
10915,-2080,88,-344,17,55,3
10920,-2072,96,-328,22,55,-1
10925,-2088,120,-368,25,56,-3
10930,-2080,128,-368,27,54,-6
10935,-2104,160,-328,27,53,-4
10940,-2080,96,-352,27,50,-6
10945,-2080,104,-320,27,48,-2
10950,-2080,104,-344,29,47,-2
10955,-2080,80,-320,30,43,2
10960,-2064,80,-328,29,37,1
10965,-2080,96,-312,28,36,2
10970,-2040,56,-328,24,36,0
10975,-2056,80,-280,20,41,2
10980,-2048,72,-328,17,44,2
10985,-2056,112,-320,14,50,4
10990,-2080,104,-344,13,53,5
10995,-2056,112,-344,12,59,6
11000,-2096,128,-328,11,62,4
11005,-2088,120,-312,7,65,4
11010,-2096,120,-360,4,66,3
11015,-2064,96,-376,2,65,4
11020,-2064,112,-344,2,62,2
11025,-2088,96,-352,-1,60,5
11030,-2056,104,-336,-1,58,7
11035,-2080,120,-336,-2,54,9
11040,-2072,120,-336,-3,49,8
11045,-2056,112,-328,0,45,8
11050,-2064,104,-328,3,44,5
11055,-2088,144,-352,6,40,6
11060,-2064,88,-336,10,40,4
11065,-2088,120,-336,14,40,4
11070,-2088,104,-328,16,43,3
11075,-2064,120,-352,20,46,5
11080,-2064,120,-312,20,48,3
11085,-2080,120,-304,21,52,5
11090,-2064,112,-320,20,57,4
11095,-2056,136,-304,21,60,5
11100,-2064,120,-296,19,60,2
11105,-2080,136,-312,15,61,2
11110,-2064,136,-304,12,62,-2
11115,-2072,112,-288,5,60,1
11120,-2096,136,-312,1,62,-2
11125,-2064,112,-288,-2,65,2
11130,-2072,96,-272,-6,65,-1
11135,-2080,88,-312,-7,67,0
11140,-2056,80,-328,-9,69,-4
11145,-2072,104,-344,-8,71,-4
11150,-2080,96,-328,-5,73,-8
11155,-2072,88,-328,2,72,-6
11160,-2080,96,-328,4,70,-10
11165,-2120,128,-392,7,70,-7
11170,-2064,80,-312,10,67,-7
11175,-2072,104,-352,13,67,-4
11180,-2096,128,-312,15,65,-5
11185,-2080,104,-320,16,64,-4
11190,-2056,112,-360,15,62,-5
11195,-2088,88,-336,17,62,-2
11200,-2088,96,-320,16,59,-4
11205,-2040,80,-328,14,57,-2
11210,-2088,96,-336,18,58,-7
11215,-2072,104,-320,18,57,-5
11220,-2072,104,-336,17,57,-8
11225,-2080,96,-336,17,59,-5
11230,-2072,96,-304,16,61,-9
11235,-2072,112,-312,12,59,-5
11240,-2064,88,-336,6,59,-8
11245,-2072,96,-344,3,59,-4
11250,-2048,80,-312,3,60,-5
11255,-2080,80,-328,5,60,-1
11260,-2072,88,-352,4,59,-3
11265,-2088,104,-344,3,60,0
11270,-2064,96,-344,2,60,-3
11275,-2080,96,-328,5,59,-3
11280,-2080,96,-336,7,60,-4
11285,-2048,72,-336,4,60,-1
11290,-2056,112,-352,5,60,-1
11295,-2048,80,-328,9,58,3
11300,-2088,104,-328,12,59,0
11305,-2048,96,-320,12,57,2
11310,-2072,112,-320,12,56,-1
11315,-2096,104,-320,12,55,2
11320,-2056,104,-360,11,53,-1
11325,-2080,96,-312,10,53,3
11330,-2072,88,-312,9,51,0
11335,-2080,120,-352,8,51,3
11340,-2048,120,-336,6,50,2
11345,-2080,120,-320,7,53,6
11350,-2104,112,-336,5,53,4
11355,-2112,88,-320,4,57,7
11360,-2072,104,-328,4,57,5
11365,-2072,96,-304,4,56,10
11370,-2080,88,-328,0,57,9
11375,-2088,128,-336,0,60,12
11380,-2064,120,-312,-4,61,9
11385,-2080,120,-320,-8,61,10
11390,-2040,96,-304,-14,62,7
11395,-2064,96,-312,-18,62,9
11400,-2064,128,-304,-21,63,7
11405,-2048,104,-304,-24,62,11
11410,-2072,120,-336,-26,61,10
11415,-2064,104,-328,-28,60,10
11420,-2104,112,-328,-26,59,6
11425,-2080,120,-336,-22,59,7
11430,-2080,104,-328,-17,61,5
11435,-2080,88,-328,-12,61,4
11440,-2096,112,-328,-7,62,2
11445,-2080,96,-360,-2,63,3
11450,-2072,112,-352,1,65,1
11455,-2064,112,-360,3,64,2
11460,-2080,120,-304,6,66,0
11465,-2072,128,-328,7,68,0
11470,-2088,136,-352,5,69,-3
11475,-2080,136,-368,3,69,0
11480,-2072,144,-304,0,72,-3
11485,-2080,136,-304,-1,69,2
11490,-2072,96,-296,-6,69,0
11495,-2072,120,-352,-9,69,0
11500,-2056,80,-344,-13,69,-1
11505,-2096,104,-312,-12,70,2
11510,-2064,112,-336,-13,71,1
11515,-2080,96,-336,-12,71,4
11520,-2072,96,-320,-12,70,4
11525,-2072,112,-360,-10,71,7
11530,-2056,80,-312,-6,73,5
11535,-2072,96,-320,-5,69,7
11540,-2064,104,-344,-10,68,5
11545,-2056,104,-368,-10,64,7
11550,-2080,96,-368,-10,62,5
11555,-2096,104,-312,-7,61,5
11560,-2080,104,-344,-8,60,2
11565,-2088,96,-344,-7,59,4
11570,-2072,88,-328,-9,57,1
11575,-2088,96,-328,-8,57,4
11580,-2080,96,-328,-7,58,2
11585,-2072,96,-328,-8,58,4
11590,-2064,88,-312,-8,59,3
11595,-2096,128,-328,-8,60,5
11600,-2080,128,-336,-8,63,4
11605,-2080,120,-304,-10,65,4
11610,-2080,120,-328,-10,65,4
11615,-2096,96,-320,-10,69,5
11620,-2080,104,-336,-10,69,3
11625,-2048,72,-336,-9,71,5
11630,-2072,88,-336,-7,72,3
11635,-2040,88,-360,-8,70,4
11640,-2072,104,-368,-8,69,3
11645,-2040,96,-344,-6,68,5
11650,-2088,96,-320,1,69,5
11655,-2072,88,-336,-2,65,6
11660,-2056,120,-320,-5,63,4
11665,-2080,104,-328,-8,61,7
11670,-2048,104,-328,-9,62,5
11675,-2080,104,-344,-9,61,7
11680,-2080,112,-312,-10,61,6
11685,-2080,104,-344,-13,61,7
11690,-2080,136,-368,-15,64,6
11695,-2072,104,-320,-14,66,9
11700,-2096,136,-352,-15,68,9
11705,-2088,136,-320,-18,69,9
11710,-2072,128,-320,-20,71,10
11715,-2072,120,-328,-21,74,13
11720,-2112,104,-336,-20,77,12
11725,-2080,96,-328,-22,80,13
11730,-2080,120,-336,-20,82,15
11735,-2056,88,-360,-18,79,16
11740,-2056,112,-336,-17,77,16
11745,-2080,104,-336,-14,75,16
11750,-2080,104,-336,-12,72,15
11755,-2080,112,-360,-11,69,15
11760,-2088,136,-344,-8,66,13
11765,-2080,120,-336,-9,63,11
11770,-2088,136,-312,-9,63,9
11775,-2064,128,-328,-10,62,9
11780,-2080,128,-320,-8,61,7
11785,-2080,104,-360,-6,60,7
11790,-2072,104,-360,-6,61,6
11795,-2072,128,-344,-6,64,4
11800,-2088,128,-376,-9,64,2
11805,-2064,112,-336,-11,64,0
11810,-2088,136,-336,-11,66,-1
11815,-2096,120,-344,-15,64,0
11820,-2080,112,-344,-15,62,0
11825,-2072,104,-304,-14,61,2
11830,-2064,104,-336,-12,60,3
11835,-2072,88,-360,-10,59,4
11840,-2064,112,-344,-9,57,3
11845,-2080,160,-352,-8,57,3
11850,-2080,144,-344,-7,56,0
11855,-2096,136,-352,-9,57,-2
11860,-2080,128,-328,-9,59,-4
11865,-2064,96,-328,-8,58,-4
11870,-2064,72,-352,-5,56,-2
11875,-2064,96,-344,-3,54,-2
11880,-2072,88,-352,-2,51,1
11885,-2088,96,-336,1,48,2
11890,-2072,80,-376,4,47,1
11895,-2064,112,-336,5,48,1
11900,-2064,112,-312,5,50,2
11905,-2048,88,-344,4,51,0
11910,-2056,88,-344,1,54,2
11915,-2080,120,-384,-1,55,2
11920,-2120,160,-368,-6,58,4
11925,-2112,144,-320,-10,60,5
11930,-2088,128,-328,-5,68,7
11935,-2104,120,-352,-6,68,5
11940,-2064,120,-336,-11,71,4
11945,-2088,120,-352,-8,72,2
11950,-2064,136,-344,-11,71,4
11955,-2096,136,-304,-14,70,4
11960,-2072,128,-320,-19,65,6
11965,-2064,120,-344,-17,63,6
11970,-2064,128,-328,-18,61,7
11975,-2048,144,-312,-19,57,6
11980,-2048,104,-320,-18,54,7
11985,-2056,112,-336,-18,51,7
11990,-2056,120,-312,-17,50,10
11995,-2072,96,-336,-16,49,10
12000,-2064,120,-328,-15,53,11
12005,-2080,128,-328,-16,57,10
12010,-2104,120,-312,-15,60,11
12015,-2072,144,-320,-17,64,9
12020,-2096,144,-336,-18,67,7
12025,-2072,152,-320,-19,71,6
12030,-2080,136,-328,-20,74,6
12035,-2064,136,-320,-20,77,3
12040,-2080,128,-352,-21,78,3
12045,-2056,144,-320,-25,80,1
12050,-2064,128,-360,-26,82,1
12055,-2088,144,-312,-25,82,0
12060,-2064,104,-336,-26,78,0
12065,-2056,136,-360,-24,77,0
12070,-2080,128,-352,-24,76,0
12075,-2056,128,-328,-24,75,-2
12080,-2080,136,-336,-23,73,0
12085,-2056,144,-328,-25,72,-2
12090,-2080,96,-304,-27,72,1
12095,-2072,128,-288,-29,69,0
12100,-2080,104,-344,-31,68,4
12105,-2088,112,-328,-31,64,3
12110,-2080,128,-328,-32,62,3
12115,-2064,136,-328,-34,62,2
12120,-2064,128,-312,-35,59,2
12125,-2080,128,-336,-37,59,-1
12130,-2088,136,-328,-38,60,-1
12135,-2064,120,-344,-39,59,-4
12140,-2056,136,-320,-41,61,-4
12145,-2096,152,-344,-43,61,-5
12150,-2080,88,-312,-45,62,-5
12155,-2072,96,-336,-45,65,-6
12160,-2056,88,-352,-45,67,-4
12165,-2080,104,-312,-46,66,-7
12170,-2072,96,-376,-45,67,-4
12175,-2064,88,-352,-44,67,-4
12180,-2064,88,-320,-44,68,-3
12185,-2080,112,-352,-44,67,-7
12190,-2080,120,-336,-42,66,-4
12195,-2064,104,-336,-40,63,-7
12200,-2072,112,-336,-41,63,-4
12205,-2056,104,-312,-40,62,-7
12210,-2088,128,-352,-39,61,-5
12215,-2048,120,-336,-39,60,-6
12220,-2040,104,-336,-39,60,-4
12225,-2080,136,-360,-39,60,-5
12230,-2056,104,-352,-40,61,-2
12235,-2072,112,-328,-40,62,-4
12240,-2104,144,-328,-40,62,-3
12245,-2072,128,-344,-40,61,-4
12250,-2072,104,-328,-40,61,-2
12255,-2056,120,-312,-43,63,-7
12260,-2080,128,-336,-40,66,-5
12265,-2064,112,-320,-39,64,-7
12270,-2080,120,-344,-40,65,-5
12275,-2056,120,-336,-42,65,-6
12280,-2088,104,-368,-42,62,-2
12285,-2048,120,-344,-40,63,-6
12290,-2088,112,-344,-37,62,-2
12295,-2080,120,-336,-35,60,-4
12300,-2064,112,-368,-34,62,0
12305,-2088,128,-336,-35,60,0
12310,-2088,128,-320,-34,59,2
12315,-2072,112,-336,-33,61,1
12320,-2080,136,-336,-33,62,2
12325,-2096,136,-320,-37,61,-2
12330,-2080,104,-320,-40,61,-1
12335,-2080,112,-336,-39,63,-2
12340,-2056,88,-328,-40,61,-1
12345,-2080,120,-360,-39,61,-2
12350,-2072,120,-344,-40,61,-2
12355,-2064,120,-352,-39,64,-4
12360,-2072,128,-328,-39,64,-3
12365,-2072,120,-336,-42,65,-7
12370,-2048,112,-360,-40,65,-4
12375,-2072,96,-336,-37,65,-6
12380,-2072,112,-360,-38,64,-3
12385,-2072,136,-344,-35,63,-5
12390,-2088,128,-352,-35,62,-2
12395,-2064,120,-344,-33,61,-4
12400,-2080,112,-336,-35,60,-3
12405,-2088,112,-360,-32,60,-5
12410,-2096,120,-328,-34,59,-4
12415,-2080,120,-368,-33,59,-6
12420,-2096,136,-360,-33,57,-6
12425,-2088,128,-352,-34,55,-7
12430,-2072,112,-344,-37,53,-5
12435,-2080,128,-336,-38,53,-9
12440,-2088,120,-312,-38,54,-6
12445,-2072,136,-328,-41,53,-9
12450,-2064,120,-312,-43,53,-7
12455,-2080,112,-312,-48,54,-8
12460,-2088,112,-304,-49,56,-6
12465,-2080,120,-336,-47,57,-9
12470,-2096,128,-352,-46,56,-5
12475,-2072,112,-328,-43,55,-7
12480,-2088,128,-328,-42,56,-5
12485,-2064,104,-344,-44,54,-10
12490,-2072,112,-344,-44,53,-7
12495,-2080,136,-304,-42,53,-11
12500,-2064,120,-336,-42,49,-8
12505,-2080,120,-336,-41,51,-10
12510,-2080,120,-352,-41,48,-8
12515,-2072,104,-336,-39,50,-9
12520,-2088,120,-352,-40,49,-5
12525,-2080,136,-336,-42,52,-8
12530,-2072,144,-296,-46,54,-6
12535,-2072,136,-344,-47,55,-7
12540,-2064,120,-328,-49,56,-4
12545,-2088,144,-328,-50,59,-6
12550,-2064,120,-328,-51,60,-3
12555,-2048,136,-328,-51,59,-6
12560,-2064,120,-344,-53,62,-5
12565,-2088,144,-320,-55,63,-7
12570,-2080,120,-352,-55,64,-4
12575,-2096,120,-344,-58,65,-5
12580,-2080,152,-360,-60,64,-3
12585,-2064,112,-320,-61,64,-7
12590,-2064,104,-368,-60,64,-6
12595,-2072,104,-360,-61,66,-9
12600,-2072,120,-344,-58,68,-8
12605,-2080,128,-320,-59,66,-9
12610,-2072,152,-352,-59,69,-7
12615,-2088,128,-304,-60,69,-8
12620,-2088,128,-344,-60,72,-5
12625,-2080,120,-304,-62,74,-5
12630,-2080,104,-328,-63,76,-2
12635,-2072,136,-304,-64,79,-3
12640,-2088,104,-336,-70,80,0
12645,-2056,112,-344,-73,81,-2
12650,-2072,104,-328,-72,82,0
12655,-2112,120,-320,-70,84,-2
12660,-2064,136,-312,-67,85,1
12665,-2072,112,-368,-68,84,0
12670,-2056,96,-344,-68,82,1
12675,-2056,128,-328,-64,81,-2
12680,-2064,112,-296,-63,76,1
12685,-2064,120,-320,-61,74,0
12690,-2072,112,-336,-64,72,3
12695,-2072,128,-344,-61,70,1
12700,-2056,104,-352,-63,67,2
12705,-2072,112,-344,-62,65,-1
12710,-2064,112,-320,-60,64,3
12715,-2072,104,-360,-58,64,0
12720,-2064,104,-352,-59,64,1
12725,-2072,120,-368,-59,64,-2
12730,-2080,112,-328,-59,63,-1
12735,-2080,136,-352,-60,62,-4
12740,-2080,136,-328,-61,63,-4
12745,-2088,120,-368,-64,61,-4
12750,-2096,152,-328,-65,60,-3
12755,-2072,120,-352,-69,60,-4
12760,-2088,112,-336,-66,59,1
12765,-2048,96,-352,-62,59,2
12770,-2064,112,-328,-59,59,6
12775,-2064,88,-352,-58,58,3
12780,-2096,112,-352,-56,60,5
12785,-2088,120,-352,-60,62,2
12790,-2064,128,-352,-66,64,3
12795,-2064,128,-344,-70,65,1
12800,-2080,128,-360,-71,62,4
12805,-2072,112,-352,-69,60,4
12810,-2064,128,-312,-60,56,7
12815,-2080,128,-384,-54,54,6
12820,-2064,96,-352,-46,53,5
12825,-2088,128,-336,-38,54,0
12830,-2072,128,-344,-31,56,-3
12835,-2080,136,-368,-29,60,-8
12840,-2096,128,-352,-28,63,-9
12845,-2096,144,-368,-27,65,-11
12850,-2088,120,-336,-25,65,-10
12855,-2072,120,-328,-23,62,-7
12860,-2072,104,-360,-25,59,-6
12865,-2072,96,-328,-27,55,-6
12870,-2072,128,-328,-31,52,-5
12875,-2064,112,-344,-40,50,-6
12880,-2056,96,-344,-47,51,-6
12885,-2040,96,-328,-50,55,-4
12890,-2064,88,-336,-53,61,-3
12895,-2048,104,-368,-56,65,-4
12900,-2088,120,-344,-55,67,-1
12905,-2088,144,-344,-54,70,1
12910,-2096,136,-368,-54,72,4
12915,-2080,104,-360,-55,71,3
12920,-2072,120,-360,-55,69,6
12925,-2072,128,-344,-54,66,5
12930,-2056,112,-368,-52,61,8
12935,-2064,104,-344,-51,56,8
12940,-2056,136,-320,-49,51,9
12945,-2064,120,-312,-44,46,10
12950,-2048,136,-328,-39,45,9
12955,-2064,136,-336,-34,42,7
12960,-2080,136,-320,-32,43,9
12965,-2064,120,-352,-30,43,6
12970,-2088,144,-328,-27,47,7
12975,-2080,136,-336,-24,50,6
12980,-2096,136,-296,-22,51,6
12985,-2080,144,-312,-21,55,5
12990,-2080,128,-336,-16,57,5
12995,-2088,136,-344,-13,59,3
13000,-2104,160,-320,-12,60,3
13005,-2088,136,-344,-8,62,0
13010,-2072,136,-344,-6,65,-2
13015,-2048,144,-368,-6,67,-4
13020,-2072,104,-328,-6,67,-5
13025,-2064,112,-336,-6,67,-6
13030,-2088,136,-368,-7,67,-7
13035,-2048,120,-360,-9,65,-6
13040,-2080,136,-344,-10,65,-6
13045,-2072,120,-328,-10,63,-4
13050,-2080,112,-336,-11,64,-1
13055,-2080,120,-296,-9,64,0
13060,-2080,112,-352,-9,63,0
13065,-2064,112,-360,-7,64,1
13070,-2056,96,-336,-5,63,0
13075,-2064,120,-352,-3,63,1
13080,-2080,120,-360,-4,63,1
13085,-2080,136,-360,-3,62,1
13090,-2080,112,-352,-2,62,1
13095,-2056,136,-344,-2,61,3
13100,-2080,136,-336,-1,59,3
13105,-2088,112,-336,0,55,5
13110,-2072,144,-360,2,53,3
13115,-2072,104,-352,2,50,3
13120,-2112,128,-344,2,50,1
13125,-2088,144,-320,1,51,1
13130,-2072,96,-328,2,51,-1
13135,-2080,136,-352,1,53,-2
13140,-2088,120,-336,-2,54,-2
13145,-2096,136,-328,-4,54,0
13150,-2096,128,-320,-6,54,-1
13155,-2088,168,-312,-6,54,-2
13160,-2080,120,-320,-8,55,-2
13165,-2096,136,-336,-10,55,-1
13170,-2064,136,-328,-10,56,-2
13175,-2072,120,-336,-11,54,-2
13180,-2072,128,-360,-9,52,-3
13185,-2080,128,-320,-9,52,-2
13190,-2072,120,-376,-8,51,-3
13195,-2072,128,-336,-5,51,-1
13200,-2064,144,-312,-4,48,-1
13205,-2048,144,-344,-4,48,-2
13210,-2088,144,-336,-2,47,-2
13215,-2080,136,-328,-4,48,-1
13220,-2056,136,-352,-7,48,-3
13225,-2072,104,-344,-8,48,-3
13230,-2072,112,-336,-5,50,-5
13235,-2096,120,-344,-5,52,-3
13240,-2080,120,-280,-3,54,-6
13245,-2112,128,-344,-1,56,-5
13250,-2080,120,-328,2,56,-6
13255,-2088,136,-336,3,57,-6
13260,-2072,136,-344,5,59,-6
13265,-2064,128,-336,7,59,-4
13270,-2088,120,-352,7,58,-6
13275,-2080,160,-320,6,58,-4
13280,-2064,120,-336,5,58,-4
13285,-2072,112,-320,6,55,-1
13290,-2056,112,-312,6,56,-4
13295,-2040,112,-344,7,54,-4
13300,-2064,136,-320,8,53,-4
13305,-2072,152,-352,7,53,-2
13310,-2096,120,-352,4,52,-4
13315,-2072,144,-320,6,51,0
13320,-2064,104,-328,8,50,-3
13325,-2088,136,-352,12,53,-3
13330,-2072,120,-336,13,53,-6
13335,-2080,112,-328,14,52,-5
13340,-2080,128,-344,14,52,-6
13345,-2096,120,-336,14,51,-5
13350,-2096,136,-344,15,51,-7
13355,-2064,120,-336,16,53,-5
13360,-2056,104,-336,18,53,-7
13365,-2072,112,-344,15,56,-4
13370,-2104,128,-336,12,57,-5
13375,-2072,88,-304,11,57,-2
13380,-2072,128,-312,11,57,-4
13385,-2080,112,-288,12,57,-1
13390,-2064,128,-296,12,56,-4
13395,-2072,104,-320,12,56,-1
13400,-2072,136,-336,12,57,-3
13405,-2080,136,-328,12,56,-1
13410,-2056,112,-344,13,55,-3
13415,-2056,120,-336,11,54,0
13420,-2072,104,-272,12,53,0
13425,-2080,144,-328,10,53,3
13430,-2080,120,-328,10,53,2
13435,-2064,136,-336,10,50,5
13440,-2072,120,-336,10,50,3
13445,-2064,136,-328,10,51,4
13450,-2072,112,-320,11,52,4
13455,-2056,120,-344,11,52,6
13460,-2088,96,-328,13,54,3
13465,-2072,128,-328,15,54,6
13470,-2080,120,-360,17,54,5
13475,-2072,120,-344,18,53,6
13480,-2072,112,-352,22,53,3
13485,-2088,112,-344,22,54,5
13490,-2104,120,-360,24,52,2
13495,-2072,104,-368,25,51,3
13500,-2096,112,-352,27,50,-2
13505,-2064,96,-336,29,52,0
13510,-2048,96,-328,31,52,-2
13515,-2072,120,-328,34,54,0
13520,-2072,112,-336,35,55,-2
13525,-2072,112,-344,34,57,0
13530,-2080,136,-360,38,58,-3
13535,-2072,128,-336,38,58,-1
13540,-2064,112,-352,36,60,-4
13545,-2080,128,-328,35,59,-1
13550,-2088,160,-304,34,60,-2
13555,-2088,160,-360,34,58,2
13560,-2072,144,-304,31,56,0
13565,-2072,128,-328,27,56,3
13570,-2056,144,-320,25,54,0
13575,-2096,136,-320,22,55,2
13580,-2048,112,-352,22,54,0
13585,-2064,104,-344,25,54,4
13590,-2072,128,-336,26,51,0
13595,-2088,128,-320,25,48,2
13600,-2064,136,-312,25,47,0
13605,-2080,112,-344,25,47,2
13610,-2072,112,-344,25,48,-1
13615,-2080,152,-320,24,49,-1
13620,-2088,136,-320,24,49,-1
13625,-2072,120,-336,22,49,1
13630,-2048,128,-328,22,49,0
13635,-2088,128,-320,23,51,2
13640,-2088,152,-312,22,52,-2
13645,-2096,144,-288,21,53,0
13650,-2096,136,-312,18,51,-3
13655,-2072,128,-360,15,53,0
13660,-2064,120,-304,16,52,-2
13665,-2080,144,-344,14,52,0
13670,-2048,120,-320,16,51,-3
13675,-2088,128,-328,17,51,0
13680,-2080,136,-304,16,50,-2
13685,-2120,120,-264,20,51,0
13690,-2056,112,-328,19,50,-3
13695,-2072,120,-336,25,50,-2
13700,-2064,120,-328,24,51,-5
13705,-2088,128,-336,22,51,-3
13710,-2096,144,-352,22,48,-5
13715,-2056,112,-296,18,48,-4
13720,-2056,136,-320,16,49,-7
13725,-2056,136,-328,14,49,-4
13730,-2064,120,-336,15,51,-7
13735,-2080,120,-304,14,49,-6
13740,-2080,120,-344,12,52,-8
13745,-2104,120,-304,9,53,-5
13750,-2088,112,-328,6,57,-9
13755,-2064,120,-312,2,59,-6
13760,-2072,112,-328,2,60,-9
13765,-2096,136,-344,1,62,-5
13770,-2064,120,-336,5,61,-6
13775,-2080,144,-344,11,59,-4
13780,-2072,112,-320,12,58,-6
13785,-2072,136,-320,15,58,-5
13790,-2088,136,-360,21,59,-10
13795,-2088,120,-352,28,58,-9
13800,-2064,120,-320,28,59,-11
13805,-2072,96,-328,26,58,-11
13810,-2104,128,-368,26,59,-12
13815,-2104,144,-304,27,57,-8
13820,-2064,104,-344,29,56,-7
13825,-2080,88,-376,32,54,-3
13830,-2056,96,-336,37,50,-3
13835,-2080,96,-320,41,46,0
13840,-2048,88,-304,41,44,-1
13845,-2064,104,-328,40,42,2
13850,-2064,112,-328,42,42,2
13855,-2048,112,-352,42,44,4
13860,-2072,128,-320,44,46,3
13865,-2064,112,-336,43,45,7
13870,-2080,144,-336,42,45,5
13875,-2112,152,-312,41,47,6
13880,-2080,160,-336,35,51,4
13885,-2088,136,-336,26,53,4
13890,-2096,152,-336,18,57,0
13895,-2096,136,-304,13,62,2
13900,-2080,120,-328,8,63,3
13905,-2064,120,-320,4,63,5
13910,-2088,112,-296,4,62,3
13915,-2072,112,-312,8,61,6
13920,-2080,136,-328,13,58,3
13925,-2048,112,-344,18,53,3
13930,-2056,120,-328,22,52,0
13935,-2104,120,-344,26,46,3
13940,-2080,128,-344,28,44,1
13945,-2064,112,-336,29,42,1
13950,-2072,112,-312,31,40,-1
13955,-2080,104,-320,30,41,1
13960,-2096,152,-296,30,42,-1
13965,-2096,144,-328,29,45,1
13970,-2080,136,-304,24,49,-2
13975,-2080,144,-312,24,54,-1
13980,-2096,152,-296,20,59,-4
13985,-2072,152,-312,18,63,-3
13990,-2072,128,-312,17,66,-5
13995,-2080,144,-320,17,68,-4
14000,-2056,128,-328,16,69,-6
14005,-2072,152,-344,15,71,-6
14010,-2064,136,-312,13,70,-6
14015,-2088,128,-360,12,70,-4
14020,-2056,120,-344,13,67,-6
14025,-2088,120,-368,13,65,-5
14030,-2064,136,-312,16,63,-6
14035,-2064,112,-344,17,62,-5
14040,-2096,112,-336,17,59,-7
14045,-2072,120,-336,19,59,-5
14050,-2064,160,-328,20,57,-6
14055,-2064,112,-320,18,54,-4
14060,-2088,136,-312,18,51,-4
14065,-2080,120,-312,17,50,-3
14070,-2080,120,-320,14,48,-5
14075,-2080,112,-312,13,47,-4
14080,-2080,112,-296,11,47,-6
14085,-2080,144,-336,10,46,-7
14090,-2080,96,-344,11,49,-8
14095,-2080,120,-320,16,49,-7
14100,-2096,112,-320,15,50,-9
14105,-2104,112,-312,12,51,-7
14110,-2080,120,-312,9,53,-5
14115,-2072,120,-312,7,54,-4
14120,-2080,112,-328,7,57,-2
14125,-2080,120,-312,7,56,-1
14130,-2072,104,-320,6,56,-2
14135,-2064,112,-312,4,55,0
14140,-2072,112,-304,1,56,-3
14145,-2104,120,-296,-2,57,-2
14150,-2064,128,-328,-2,58,-3
14155,-2072,104,-344,-2,57,-3
14160,-2072,136,-288,-2,55,-2
14165,-2080,128,-336,-1,55,-2
14170,-2080,128,-328,3,55,-3
14175,-2080,120,-328,5,54,-4
14180,-2088,120,-328,9,54,-3
14185,-2088,96,-344,9,53,-3
14190,-2080,120,-344,8,51,-2
14195,-2080,136,-328,4,53,0
14200,-2064,120,-312,4,53,-1
14205,-2088,128,-312,4,52,2
14210,-2072,136,-344,2,52,1
14215,-2072,128,-312,1,54,2
14220,-2072,136,-296,-4,53,1
14225,-2064,120,-328,-6,54,3
14230,-2080,136,-344,-8,55,4
14235,-2064,120,-328,-7,57,3
14240,-2088,144,-296,-7,59,3
14245,-2088,136,-312,-4,61,3
14250,-2040,96,-328,-2,64,4
14255,-2104,128,-336,3,66,4
14260,-2104,120,-312,3,63,3
14265,-2072,120,-296,2,62,2
14270,-2104,144,-296,4,62,2
14275,-2080,128,-288,6,62,1
14280,-2072,136,-344,4,61,0
14285,-2064,104,-304,2,60,0
14290,-2080,120,-296,3,60,0
14295,-2096,120,-312,0,58,1
14300,-2072,112,-328,-3,56,1
14305,-2072,120,-320,-5,57,3
14310,-2080,136,-312,-6,60,3
14315,-2104,160,-320,-3,59,2
14320,-2072,120,-336,-6,57,2
14325,-2072,120,-312,-7,57,0
14330,-2088,128,-328,-7,58,2
14335,-2080,112,-328,-6,58,0
14340,-2072,112,-328,-3,58,0
14345,-2048,96,-336,-2,58,-1
14350,-2088,120,-352,-2,57,-3
14355,-2088,128,-312,-4,56,-2
14360,-2080,128,-320,-3,55,-1
14365,-2064,96,-320,-4,55,-2
14370,-2080,136,-320,-5,53,-2
14375,-2072,136,-288,-5,53,-3
14380,-2048,112,-304,-8,53,-2
14385,-2072,120,-344,-10,53,-3
14390,-2072,120,-312,-13,57,-2
14395,-2072,96,-312,-14,57,-3
14400,-2064,112,-296,-16,57,0
14405,-2080,104,-328,-20,59,-1
14410,-2080,120,-312,-20,61,-1
14415,-2096,120,-336,-19,61,-3
14420,-2080,120,-328,-20,63,-2
14425,-2088,120,-320,-22,66,-7
14430,-2072,112,-320,-24,65,-4
14435,-2072,112,-304,-26,65,-5
14440,-2088,128,-368,-29,64,-3
14445,-2064,120,-296,-33,65,-4
14450,-2048,104,-336,-35,66,-3
14455,-2088,128,-312,-36,66,-5
14460,-2088,128,-328,-37,67,-2
14465,-2080,136,-288,-39,66,-4
14470,-2080,160,-304,-39,69,-3
14475,-2096,168,-312,-42,67,-5
14480,-2088,120,-296,-44,66,-4
14485,-2072,160,-344,-45,67,-5
14490,-2080,120,-328,-46,66,-5
14495,-2104,128,-352,-47,67,-7
14500,-2064,120,-376,-47,68,-8
14505,-2064,104,-328,-48,68,-9
14510,-2096,112,-336,-47,67,-7
14515,-2064,112,-344,-45,65,-7
14520,-2080,112,-320,-45,67,-4
14525,-2056,152,-336,-44,67,-6
14530,-2096,152,-312,-46,66,-3
14535,-2056,112,-312,-47,67,-4
14540,-2072,144,-320,-45,68,-3
14545,-2072,112,-320,-44,66,-5
14550,-2072,120,-312,-47,68,-5
14555,-2080,136,-328,-49,67,-6
14560,-2088,104,-328,-52,66,-5
14565,-2096,120,-336,-53,67,-7
14570,-2080,96,-288,-51,67,-6
14575,-2080,112,-328,-53,66,-8
14580,-2080,120,-344,-54,66,-7
14585,-2088,120,-320,-56,65,-8
14590,-2064,120,-320,-56,65,-7
14595,-2072,136,-336,-53,67,-8
14600,-2080,120,-336,-52,67,-6
14605,-2080,136,-312,-52,70,-8
14610,-2072,128,-360,-49,70,-8
14615,-2064,120,-384,-47,70,-9
14620,-2080,120,-328,-44,72,-7
14625,-2056,112,-296,-45,72,-11
14630,-2088,104,-328,-46,71,-8
14635,-2056,104,-320,-45,69,-8
14640,-2096,128,-352,-47,68,-6
14645,-2072,104,-328,-46,69,-9
14650,-2088,128,-296,-46,67,-7
14655,-2088,112,-312,-47,64,-11
14660,-2048,136,-352,-49,65,-9
14665,-2080,128,-320,-50,66,-10
14670,-2088,144,-304,-51,67,-8
14675,-2088,120,-344,-53,66,-10
14680,-2080,120,-328,-55,63,-6
14685,-2056,128,-320,-57,64,-8
14690,-2072,128,-344,-57,65,-6
14695,-2056,120,-360,-55,65,-8
14700,-2072,120,-360,-53,64,-6
14705,-2072,128,-336,-52,62,-8
14710,-2064,96,-312,-54,61,-7
14715,-2064,104,-368,-52,59,-10
14720,-2048,120,-336,-50,57,-6
14725,-2088,128,-344,-48,57,-10
14730,-2072,112,-328,-47,55,-8
14735,-2072,128,-336,-46,57,-11
14740,-2080,136,-328,-47,57,-11
14745,-2088,128,-320,-46,57,-13
14750,-2072,112,-304,-45,57,-12
14755,-2064,128,-328,-44,56,-16
14760,-2104,120,-312,-43,56,-13
14765,-2080,96,-304,-42,55,-17
14770,-2088,136,-336,-41,56,-14
14775,-2064,112,-320,-41,58,-17
14780,-2088,96,-328,-40,60,-15
14785,-2088,136,-304,-44,62,-18
14790,-2064,120,-304,-47,65,-17
14795,-2072,104,-304,-46,67,-18
14800,-2072,128,-344,-45,70,-15
14805,-2080,120,-328,-45,71,-15
14810,-2056,104,-312,-44,72,-11
14815,-2072,120,-296,-44,72,-13
14820,-2072,112,-328,-46,71,-10
14825,-2088,120,-312,-49,71,-13
14830,-2080,104,-304,-53,70,-11
14835,-2072,128,-344,-57,66,-12
14840,-2064,96,-344,-58,62,-8
14845,-2064,112,-320,-53,61,-10
14850,-2096,112,-360,-48,59,-6
14855,-2032,88,-344,-42,56,-8
14860,-2048,80,-344,-36,55,-8
14865,-2016,104,-224,-32,56,-12
14870,-2080,120,-304,-31,57,-11
14875,-2080,112,-336,-32,58,-16
14880,-2080,136,-336,-31,57,-15
14885,-2096,128,-344,-29,59,-17
14890,-2104,112,-352,-25,58,-13
14895,-2072,88,-320,-22,57,-12
14900,-2064,88,-344,-20,56,-6
14905,-2080,104,-304,-22,55,-8
14910,-2064,128,-312,-28,53,-5
14915,-2056,112,-312,-35,54,-9
14920,-2064,96,-312,-40,59,-8
14925,-2040,88,-312,-44,63,-9
14930,-2064,88,-312,-49,69,-6
14935,-2088,128,-368,-51,74,-7
14940,-2096,136,-328,-53,77,-4
14945,-2088,136,-336,-51,78,-5
14950,-2096,136,-344,-51,81,-2
14955,-2088,120,-328,-50,81,-3
14960,-2072,128,-376,-51,80,-1
14965,-2056,128,-352,-52,77,-4
14970,-2072,120,-312,-55,72,-1
14975,-2048,128,-328,-55,70,-3
14980,-2056,104,-320,-52,67,0
14985,-2072,112,-336,-49,62,-2
14990,-2064,128,-320,-45,57,-2
14995,-2072,128,-336,-40,53,-5
