timestamp,accel_x,accel_y,accel_z,gyro_x,gyro_y,gyro_z
0,160,-1672,1024,51,9,-12
5,152,-1648,1040,52,8,-12
10,152,-1672,1032,52,9,-11
15,144,-1664,1056,52,10,-11
20,144,-1680,1048,52,11,-12
25,160,-1680,1048,52,11,-11
30,128,-1664,1064,52,12,-11
35,144,-1656,1056,53,12,-12
40,128,-1656,1088,53,12,-12
45,144,-1664,1040,52,11,-10
50,160,-1680,1064,54,12,-11
55,176,-1672,1064,56,12,-11
60,160,-1688,1048,56,11,-11
65,168,-1656,1040,57,11,-11
70,136,-1640,1032,56,11,-11
75,152,-1664,1056,55,11,-10
80,136,-1656,1040,55,11,-11
85,152,-1672,1072,54,10,-10
90,168,-1648,1048,53,9,-10
95,160,-1672,1040,52,10,-12
100,176,-1656,1024,51,10,-11
105,152,-1664,1056,50,11,-12
110,144,-1664,1040,50,11,-10
115,168,-1672,1064,50,12,-9
120,152,-1688,1064,50,12,-9
125,152,-1656,1040,50,12,-9
130,136,-1664,1064,51,12,-9
135,136,-1696,1048,51,12,-11
140,144,-1656,1072,52,12,-10
145,144,-1672,1056,50,12,-8
150,168,-1672,1048,52,12,-9
155,152,-1648,1048,54,12,-10
160,152,-1656,1056,54,12,-11
165,144,-1656,1056,54,12,-12
170,128,-1656,1048,54,12,-10
175,168,-1664,1040,54,13,-12
180,152,-1672,1056,55,11,-12
185,152,-1656,1064,55,11,-11
190,144,-1656,1080,54,12,-9
195,168,-1696,1080,53,12,-9
200,144,-1664,1040,53,10,-10
205,160,-1672,1032,52,12,-11
210,160,-1680,1080,52,12,-11
215,136,-1648,1064,52,12,-9
220,144,-1672,1040,51,12,-10
225,136,-1640,1040,51,12,-10
230,144,-1680,1080,52,12,-9
235,128,-1672,1040,52,12,-9
240,152,-1664,1056,53,13,-8
245,160,-1696,1048,55,13,-10
250,168,-1680,1040,56,14,-10
255,176,-1664,1080,58,14,-9
260,160,-1640,1048,59,13,-11
265,144,-1640,1064,57,14,-10
270,160,-1648,1072,56,15,-11
275,152,-1664,1040,54,14,-10
280,144,-1648,1072,52,14,-9
285,160,-1656,1064,50,13,-8
290,160,-1648,1056,47,13,-7
295,152,-1672,1048,46,12,-8
300,144,-1664,1064,47,12,-11
305,168,-1688,1072,48,12,-12
310,160,-1704,1072,49,11,-12
315,152,-1688,1056,52,10,-13
320,168,-1704,1032,58,10,-12
325,144,-1696,1032,65,10,-14
330,152,-1656,1040,66,12,-13
335,144,-1664,1008,68,12,-12
340,168,-1672,1032,68,13,-11
345,160,-1688,1048,68,14,-9
350,144,-1672,1024,67,14,-9
355,176,-1672,1032,66,16,-8
360,152,-1696,1232,66,18,-9
365,144,-1664,1048,63,19,-8
370,144,-1656,1056,66,19,-9
375,152,-1648,1080,67,17,-12
380,160,-1648,1064,68,16,-13
385,144,-1680,1064,70,14,-14
390,136,-1664,1048,69,13,-15
395,136,-1632,1048,69,14,-16
400,144,-1664,1072,68,14,-14
405,120,-1656,1056,65,13,-13
410,128,-1640,1032,63,14,-14
415,144,-1624,1048,61,14,-14
420,144,-1648,1048,58,15,-13
425,168,-1664,1048,58,16,-12
430,144,-1656,1040,56,16,-11
435,144,-1640,1072,55,16,-10
440,136,-1640,1064,54,16,-11
445,160,-1656,1064,54,15,-11
450,144,-1664,1064,55,15,-10
455,168,-1664,1064,55,13,-11
460,168,-1656,1048,54,12,-10
465,176,-1680,1056,53,13,-10
470,144,-1656,1048,52,12,-10
475,144,-1664,1080,53,13,-10
480,192,-1664,1072,54,13,-8
485,168,-1696,1064,54,13,-10
490,160,-1680,1072,55,14,-8
495,176,-1664,1056,54,14,-9
500,160,-1624,1024,54,15,-9
505,136,-1656,1064,55,14,-9
510,144,-1648,1048,55,12,-10
515,136,-1656,1072,55,12,-9
520,160,-1680,1064,53,12,-10
525,144,-1656,1024,51,11,-10
530,168,-1688,1040,49,10,-8
535,160,-1656,1080,50,10,-9
540,184,-1672,1040,50,11,-7
545,168,-1680,1064,50,11,-6
550,184,-1688,1080,52,13,-7
555,152,-1680,1056,54,13,-7
560,152,-1680,1064,56,14,-9
565,136,-1688,1072,57,15,-6
570,136,-1672,1048,60,17,-9
575,136,-1688,1048,64,17,-9
580,160,-1664,1056,66,16,-10
585,160,-1672,1064,69,16,-11
590,152,-1672,1048,70,15,-12
595,168,-1688,1056,69,15,-13
600,136,-1656,1048,68,16,-13
605,136,-1624,1072,65,15,-12
610,120,-1672,1080,61,16,-12
615,144,-1664,1080,60,15,-10
620,152,-1656,1080,59,14,-10
625,160,-1672,1064,59,14,-10
630,152,-1688,1064,61,13,-13
635,120,-1656,1096,65,13,-12
640,128,-1680,1080,68,12,-11
645,144,-1648,1048,71,14,-13
650,136,-1664,1104,71,13,-12
655,152,-1680,1096,71,13,-14
660,136,-1672,1088,70,11,-15
665,136,-1664,1088,68,10,-13
670,160,-1664,1064,67,8,-14
675,176,-1664,1048,64,7,-15
680,128,-1680,1080,63,4,-14
685,136,-1648,1048,64,0,-12
690,176,-1656,1080,64,-2,-8
695,176,-1680,1072,70,-2,-5
700,176,-1672,1064,72,-1,-3
705,160,-1656,1032,74,0,-4
710,152,-1672,1072,75,-1,-4
715,176,-1648,1040,75,-2,-4
720,184,-1648,1048,75,0,-7
725,160,-1648,1048,73,2,-8
730,160,-1624,1056,69,0,-7
735,176,-1624,1048,64,2,-10
740,152,-1632,1056,57,3,-11
745,160,-1616,1072,52,3,-10
750,160,-1640,1080,48,4,-10
755,144,-1656,1064,47,5,-8
760,152,-1656,1032,48,5,-7
765,184,-1656,1064,50,3,-7
770,152,-1648,1056,53,3,-6
775,160,-1672,1040,53,3,-7
780,160,-1664,1032,53,4,-7
785,120,-1632,1032,54,4,-7
790,144,-1640,1024,54,4,-6
795,136,-1648,1048,51,8,-5
800,136,-1656,1040,50,11,-6
805,160,-1640,1056,51,12,-7
810,152,-1656,1040,50,13,-8
815,144,-1648,1056,50,14,-7
820,120,-1688,1048,51,14,-8
825,176,-1672,1064,52,12,-6
830,152,-1672,1032,53,13,-7
835,144,-1656,1064,53,13,-6
840,152,-1656,1040,56,15,-6
845,144,-1680,1064,56,15,-6
850,152,-1648,1056,57,14,-6
855,168,-1680,1064,60,16,-7
860,144,-1664,1056,63,16,-7
865,144,-1672,1032,64,17,-8
870,120,-1640,1056,65,17,-7
875,136,-1648,1072,64,16,-9
880,136,-1640,1064,62,15,-8
885,144,-1664,1040,60,13,-8
890,160,-1640,1048,57,13,-7
895,168,-1672,1064,56,13,-7
900,160,-1672,1064,54,13,-8
905,128,-1648,1040,51,12,-7
910,160,-1704,1064,53,12,-8
915,152,-1656,1040,52,12,-8
920,112,-1696,1064,56,12,-8
925,176,-1688,1056,56,13,-9
930,160,-1712,1056,58,14,-9
935,160,-1680,1040,61,15,-9
940,152,-1688,1080,62,15,-11
945,168,-1664,1056,64,16,-10
950,184,-1664,1040,66,16,-12
955,136,-1656,1056,66,17,-10
960,128,-1648,1040,64,17,-10
965,128,-1664,1032,63,17,-10
970,144,-1688,1024,63,16,-10
975,184,-1664,1048,63,14,-11
980,152,-1672,1048,63,13,-9
985,160,-1656,1048,63,15,-8
990,152,-1656,1024,63,14,-7
995,160,-1680,1064,65,14,-9
1000,176,-1672,1056,68,14,-9
1005,152,-1648,1040,70,15,-10
1010,168,-1688,1056,70,16,-11
1015,160,-1624,1088,70,16,-11
1020,168,-1632,1056,68,16,-11
1025,144,-1656,1056,67,16,-12
1030,160,-1624,1056,65,17,-12
1035,152,-1648,1056,63,17,-13
1040,144,-1640,1080,61,16,-12
1045,128,-1648,1080,60,16,-10
1050,136,-1632,1080,59,16,-8
1055,144,-1648,1080,59,15,-9
1060,144,-1656,1104,60,15,-9
1065,152,-1624,1096,59,16,-8
1070,160,-1632,1088,59,15,-7
1075,168,-1656,1072,56,14,-7
1080,168,-1640,1088,54,13,-7
1085,152,-1632,1104,51,13,-7
1090,144,-1648,1112,47,14,-8
1095,144,-1632,1104,45,12,-9
1100,144,-1640,1112,43,11,-8
1105,144,-1632,1096,41,12,-7
1110,136,-1624,1104,39,11,-6
1115,136,-1640,1120,37,11,-5
1120,128,-1632,1096,34,11,-7
1125,160,-1656,1080,32,12,-7
1130,160,-1664,1088,32,14,-7
1135,176,-1640,1104,31,13,-8
1140,152,-1664,1088,31,12,-10
1145,120,-1648,1096,30,12,-10
1150,160,-1672,1080,32,12,-10
1155,136,-1648,1048,32,12,-11
1160,120,-1640,1040,32,12,-12
1165,160,-1648,1080,33,12,-13
1170,128,-1672,1072,32,10,-12
1175,168,-1680,1040,32,11,-13
1180,144,-1672,1056,33,9,-12
1185,144,-1688,1040,33,8,-13
1190,160,-1656,1048,33,9,-13
1195,136,-1656,1056,34,8,-12
1200,152,-1704,1040,35,8,-12
1205,128,-1664,1048,36,8,-15
1210,144,-1672,1024,38,7,-15
1215,144,-1672,1056,40,8,-15
1220,112,-1664,1056,42,9,-14
1225,152,-1664,1032,43,8,-14
1230,128,-1648,1040,43,9,-14
1235,144,-1672,1032,43,8,-13
1240,128,-1672,1032,43,9,-12
1245,176,-1688,1032,42,9,-13
1250,144,-1672,1048,43,9,-13
1255,176,-1712,1056,44,9,-15
1260,152,-1672,1040,46,8,-16
1265,160,-1704,1072,47,7,-16
1270,160,-1728,1048,50,8,-15
1275,144,-1696,1048,53,9,-17
1280,152,-1696,1008,60,7,-20
1285,176,-1672,1048,65,7,-16
1290,152,-1688,1024,65,8,-16
1295,176,-1664,1048,64,9,-15
1300,144,-1664,1032,65,11,-17
1305,176,-1672,1040,64,10,-16
1310,136,-1664,1040,64,9,-15
1315,152,-1680,1056,64,11,-13
1320,168,-1656,1048,64,12,-13
1325,152,-1664,1056,63,13,-13
1330,136,-1656,1080,64,14,-15
1335,136,-1664,1064,65,12,-13
1340,152,-1656,1064,66,12,-14
1345,136,-1656,1072,67,12,-14
1350,144,-1664,1072,70,12,-13
1355,160,-1656,1072,71,13,-16
1360,152,-1664,1064,70,13,-14
1365,168,-1664,1064,70,15,-14
1370,152,-1648,1040,70,15,-14
1375,160,-1680,1040,70,17,-14
1380,128,-1632,1056,70,16,-13
1385,144,-1656,1048,70,15,-10
1390,144,-1656,1072,68,16,-12
1395,160,-1664,1040,68,16,-12
1400,168,-1664,1072,66,17,-10
1405,152,-1640,1040,67,16,-10
1410,168,-1648,1096,70,16,-8
1415,168,-1656,1072,73,17,-9
1420,160,-1648,1072,74,18,-8
1425,168,-1640,1056,76,18,-5
1430,168,-1640,1064,75,19,-6
1435,152,-1648,1040,74,17,-7
1440,152,-1656,1072,71,16,-6
1445,160,-1640,1088,67,15,-7
1450,144,-1624,1080,67,14,-6
1455,160,-1640,1080,64,11,-8
1460,152,-1624,1064,64,10,-7
1465,136,-1624,1104,63,10,-6
1470,168,-1608,1064,62,11,-5
1475,152,-1608,1072,60,11,-6
1480,144,-1616,1064,60,13,-7
1485,176,-1640,1088,61,13,-6
1490,152,-1632,1096,61,14,-5
1495,160,-1648,1040,60,15,-6
1500,136,-1672,1080,57,17,-6
1505,168,-1720,1112,55,17,-5
1510,152,-1640,1112,53,15,-3
1515,144,-1624,1112,51,14,-5
1520,136,-1632,1096,48,14,-5
1525,152,-1664,1104,45,13,-5
1530,152,-1648,1064,44,13,-6
1535,136,-1632,1104,43,12,-6
1540,144,-1648,1104,41,12,-6
1545,152,-1672,1088,41,13,-6
1550,136,-1688,1088,39,13,-8
1555,136,-1672,1080,39,12,-6
1560,136,-1688,1104,40,11,-7
1565,152,-1656,1096,41,12,-5
1570,128,-1672,1096,41,15,-5
1575,160,-1672,1056,41,17,-3
1580,160,-1656,1072,43,16,-4
1585,160,-1664,1056,43,15,-2
1590,144,-1664,1048,41,15,-4
1595,152,-1672,1040,42,16,-6
1600,144,-1664,1056,42,16,-7
1605,168,-1688,1056,41,18,-7
1610,128,-1664,1064,41,17,-8
1615,152,-1624,1064,42,18,-8
1620,128,-1664,1040,42,16,-8
1625,152,-1632,1024,42,16,-6
1630,152,-1656,1040,41,15,-6
1635,152,-1656,1056,42,16,-6
1640,144,-1664,1016,41,16,-6
1645,168,-1672,1064,41,17,-7
1650,152,-1672,1024,41,16,-7
1655,144,-1680,1024,41,17,-8
1660,160,-1688,1032,43,16,-8
1665,160,-1704,1056,46,17,-9
1670,152,-1672,1040,47,18,-9
1675,152,-1656,1016,51,19,-8
1680,144,-1680,1056,53,19,-8
1685,176,-1680,1040,55,19,-8
1690,168,-1664,1072,57,21,-10
1695,176,-1648,1024,58,21,-9
1700,136,-1656,1048,58,20,-6
1705,152,-1672,1072,57,21,-8
1710,128,-1624,1048,58,22,-8
1715,168,-1664,1064,58,22,-9
1720,144,-1688,1056,56,21,-13
1725,152,-1672,1056,56,20,-13
1730,144,-1656,1056,57,21,-14
1735,128,-1648,1064,58,19,-14
1740,136,-1688,1120,56,19,-12
1745,136,-1656,1056,57,19,-13
1750,152,-1648,1096,58,18,-12
1755,104,-1640,1056,56,18,-11
1760,128,-1648,1064,57,18,-10
1765,152,-1624,1056,58,18,-10
1770,160,-1664,1088,57,18,-8
1775,160,-1664,1064,59,17,-9
1780,144,-1648,1072,57,17,-9
1785,152,-1656,1080,56,16,-10
1790,120,-1648,1088,55,17,-12
1795,144,-1648,1080,55,16,-13
1800,144,-1632,1080,54,18,-13
1805,144,-1616,1080,52,18,-14
1810,168,-1672,1104,49,17,-13
1815,152,-1624,1104,48,16,-13
1820,160,-1648,1064,47,15,-13
1825,176,-1648,1088,47,16,-13
1830,136,-1656,1080,46,16,-13
1835,136,-1648,1080,46,15,-12
1840,144,-1664,1104,47,14,-11
1845,160,-1656,1088,47,13,-10
1850,144,-1640,1064,47,13,-11
1855,128,-1640,1064,46,12,-12
1860,120,-1616,1056,45,11,-11
1865,112,-1648,1064,44,9,-11
1870,152,-1664,1064,41,9,-11
1875,152,-1656,1080,41,9,-9
1880,152,-1656,1096,41,8,-8
1885,184,-1656,1072,39,8,-10
1890,160,-1664,1088,38,9,-9
1895,152,-1680,1072,40,8,-9
1900,144,-1656,1056,39,9,-9
1905,128,-1648,1040,38,9,-10
1910,160,-1664,1048,37,8,-11
1915,152,-1648,1040,38,8,-11
1920,176,-1664,1072,38,7,-10
1925,152,-1680,1064,38,8,-9
1930,144,-1656,1072,38,9,-9
1935,136,-1672,1056,40,10,-9
1940,136,-1664,1040,41,10,-7
1945,136,-1672,1032,40,8,-7
1950,128,-1672,1056,41,9,-7
1955,152,-1672,1040,41,9,-7
1960,160,-1664,1072,42,9,-7
1965,176,-1680,1048,45,8,-6
1970,120,-1664,1032,47,8,-8
1975,144,-1664,1056,48,8,-7
1980,152,-1680,1040,49,9,-7
1985,144,-1656,1032,49,9,-5
1990,144,-1696,1048,49,10,-4
1995,144,-1664,1048,48,9,-7
2000,136,-1696,1040,48,10,-7
2005,176,-1680,1040,49,12,-8
2010,152,-1680,1056,49,11,-10
2015,152,-1704,1056,49,12,-10
2020,152,-1688,1048,49,12,-9
2025,136,-1656,1056,51,11,-9
2030,144,-1640,1040,54,11,-10
2035,144,-1656,1040,56,11,-10
2040,136,-1648,1024,57,11,-10
2045,168,-1664,1072,58,11,-8
2050,144,-1688,1040,58,11,-7
2055,144,-1656,1072,58,12,-9
2060,136,-1664,1056,58,13,-10
2065,152,-1680,1072,57,13,-10
2070,136,-1656,1080,58,12,-8
2075,152,-1648,1072,56,12,-9
2080,144,-1656,1048,56,14,-10
2085,152,-1648,1064,56,14,-8
2090,152,-1640,1064,57,14,-8
2095,160,-1648,1096,55,15,-7
2100,136,-1624,1056,53,16,-9
2105,152,-1664,1064,53,16,-9
2110,144,-1656,1048,52,17,-10
2115,168,-1656,1080,51,17,-9
2120,176,-1648,1096,49,18,-9
2125,144,-1664,1048,48,17,-10
2130,152,-1664,1064,47,18,-9
2135,168,-1656,1088,44,19,-8
2140,160,-1680,1080,44,19,-10
2145,160,-1648,1056,43,19,-10
2150,152,-1680,1072,44,20,-10
2155,160,-1664,1056,44,19,-9
2160,152,-1680,1080,47,20,-8
2165,144,-1664,1080,51,20,-7
2170,136,-1640,1056,53,20,-10
2175,144,-1656,1056,56,20,-7
2180,128,-1640,1072,55,20,-8
2185,152,-1656,1048,56,19,-9
2190,144,-1632,1032,54,20,-8
2195,128,-1640,1088,49,20,-6
2200,144,-1648,1056,46,21,-8
2205,152,-1656,1080,42,19,-9
2210,144,-1664,1064,42,19,-8
2215,144,-1656,1040,39,18,-10
2220,160,-1696,1048,38,17,-8
2225,160,-1688,1088,38,18,-10
2230,152,-1712,1080,41,17,-9
2235,168,-1680,1048,48,16,-8
2240,144,-1680,1048,54,16,-8
2245,160,-1696,1048,59,16,-6
2250,136,-1672,1024,61,18,-6
2255,144,-1696,1024,60,20,-8
2260,136,-1672,1040,58,20,-7
2265,144,-1624,896,57,20,-7
2270,144,-1648,1048,58,18,-7
2275,128,-1632,1048,58,18,-7
2280,120,-1640,1048,56,19,-6
2285,152,-1632,1048,58,20,-6
2290,168,-1648,1072,56,20,-5
2295,144,-1664,1072,56,22,-5
2300,136,-1656,1064,56,21,-6
2305,152,-1688,1088,56,19,-8
2310,152,-1680,1064,57,20,-7
2315,144,-1656,1088,58,19,-6
2320,136,-1680,1072,58,19,-7
2325,144,-1664,1064,58,19,-6
2330,128,-1616,1064,57,18,-7
2335,144,-1632,1072,56,18,-6
2340,128,-1632,1080,54,18,-5
2345,128,-1656,1056,53,18,-5
2350,144,-1656,1040,52,16,-5
2355,152,-1656,1064,52,15,-7
2360,136,-1656,1056,51,15,-7
2365,152,-1672,1072,49,14,-6
2370,152,-1680,1080,49,14,-7
2375,144,-1664,1064,50,13,-6
2380,120,-1648,1088,50,13,-7
2385,152,-1656,1080,50,13,-7
2390,104,-1648,1088,50,13,-7
2395,128,-1624,1056,51,13,-8
2400,120,-1632,1064,51,13,-7
2405,128,-1632,1072,50,15,-6
2410,144,-1672,1072,50,14,-5
2415,120,-1656,1088,50,13,-8
2420,120,-1664,1072,51,12,-7
2425,136,-1648,1048,51,11,-8
2430,160,-1632,960,48,11,-7
2435,128,-1664,1056,47,11,-7
2440,120,-1656,1080,45,11,-9
2445,120,-1648,1080,45,9,-10
2450,112,-1648,1048,44,9,-9
2455,128,-1656,1056,44,8,-10
2460,144,-1664,1072,45,8,-11
2465,144,-1672,1080,45,8,-10
2470,144,-1672,1048,45,7,-10
2475,128,-1680,1048,45,7,-12
2480,136,-1680,1048,45,8,-12
2485,128,-1648,1064,44,7,-11
2490,120,-1648,1064,45,7,-11
2495,128,-1672,1056,44,6,-10
2500,136,-1648,1048,44,7,-10
2505,152,-1656,1040,43,8,-10
2510,144,-1672,1064,42,8,-9
2515,128,-1664,1048,41,8,-11
2520,152,-1680,1048,42,8,-10
2525,152,-1672,1056,40,7,-10
2530,136,-1640,1064,42,7,-11
2535,136,-1680,1048,42,6,-10
2540,120,-1672,1032,44,5,-9
2545,144,-1680,1064,45,6,-11
2550,128,-1680,1048,45,6,-10
2555,176,-1664,1056,45,9,-12
2560,144,-1640,1064,45,9,-10
2565,152,-1672,1064,44,8,-13
2570,168,-1656,1040,45,8,-12
2575,144,-1680,1032,44,9,-11
2580,144,-1656,1032,43,7,-11
2585,152,-1640,1040,44,6,-11
2590,152,-1632,1072,43,7,-12
2595,128,-1648,1008,43,7,-11
2600,144,-1664,1064,40,7,-10
2605,136,-1664,1072,39,6,-10
2610,152,-1656,1064,38,6,-10
2615,136,-1656,1032,38,6,-9
2620,152,-1656,1040,39,5,-10
2625,144,-1664,1056,40,7,-10
2630,152,-1664,1072,42,9,-11
2635,144,-1680,1040,43,8,-12
2640,144,-1680,1080,46,9,-9
2645,144,-1664,1056,48,10,-12
2650,144,-1664,1064,49,11,-10
2655,152,-1648,1072,52,10,-10
2660,168,-1664,1048,50,13,-12
2665,120,-1640,1056,51,12,-12
2670,160,-1672,1040,49,14,-11
2675,128,-1648,1056,48,13,-10
2680,168,-1672,1032,46,12,-9
2685,160,-1656,1056,45,12,-9
2690,144,-1656,1072,45,11,-10
2695,152,-1672,1032,43,12,-13
2700,160,-1688,1040,44,10,-12
2705,144,-1680,1040,46,10,-11
2710,152,-1664,1016,45,12,-10
2715,168,-1664,1080,46,12,-9
2720,160,-1648,1056,46,13,-8
2725,160,-1672,1088,47,13,-8
2730,144,-1648,1032,47,13,-9
2735,144,-1672,1056,48,13,-8
2740,152,-1672,1064,47,13,-8
2745,168,-1680,1032,47,14,-7
2750,128,-1672,1096,48,15,-7
2755,136,-1656,1056,48,13,-7
2760,160,-1672,1064,46,14,-8
2765,152,-1672,1048,47,14,-7
2770,128,-1656,1056,46,14,-7
2775,144,-1664,1048,45,13,-7
2780,144,-1656,1040,43,12,-6
2785,120,-1656,1048,43,11,-9
2790,120,-1656,1040,43,12,-9
2795,152,-1688,1080,42,12,-10
2800,136,-1680,1064,43,12,-9
2805,152,-1648,1048,44,12,-11
2810,168,-1600,912,45,11,-11
2815,144,-1672,1056,45,11,-8
2820,144,-1672,1048,45,12,-11
2825,160,-1680,1040,47,12,-9
2830,144,-1672,1040,47,12,-8
2835,144,-1656,1040,46,12,-7
2840,136,-1624,1056,45,12,-8
2845,128,-1664,1032,44,13,-8
2850,128,-1664,1040,43,12,-6
2855,136,-1648,1056,44,12,-10
2860,152,-1696,1072,44,12,-9
2865,144,-1680,1056,43,8,-7
2870,120,-1656,1024,45,8,-10
2875,144,-1680,1064,45,8,-10
2880,152,-1688,1048,44,8,-10
2885,136,-1672,1072,45,11,-11
2890,136,-1656,1040,47,11,-12
2895,144,-1664,1040,48,13,-11
2900,128,-1664,1096,49,13,-11
2905,144,-1672,1032,49,12,-10
2910,136,-1656,1056,49,11,-11
2915,120,-1664,1016,49,12,-11
2920,152,-1640,1040,49,10,-13
2925,136,-1672,1040,48,11,-12
2930,144,-1680,1064,47,9,-13
2935,152,-1648,1056,48,9,-12
2940,144,-1648,1032,46,8,-13
2945,120,-1656,1072,46,7,-13
2950,160,-1664,1056,45,5,-14
2955,136,-1648,1032,44,4,-13
2960,144,-1664,1024,44,5,-11
2965,136,-1656,1056,43,5,-12
2970,152,-1680,1048,44,4,-10
2975,144,-1704,1040,45,6,-11
2980,160,-1696,1040,47,7,-10
2985,144,-1664,1048,48,8,-10
2990,152,-1688,1056,49,7,-11
2995,136,-1672,1080,50,8,-14
3000,152,-1680,1064,50,10,-13
3005,144,-1664,1048,50,9,-13
3010,152,-1672,1056,50,9,-13
3015,136,-1656,1056,51,9,-12
3020,160,-1664,1048,49,8,-12
3025,144,-1656,1072,49,7,-11
3030,144,-1656,1040,50,7,-12
3035,136,-1632,1056,48,7,-11
3040,144,-1640,1056,49,7,-9
3045,168,-1680,1048,50,7,-10
3050,152,-1656,1064,50,6,-10
3055,168,-1672,1040,49,6,-10
3060,128,-1656,1056,49,6,-9
3065,160,-1664,1072,49,6,-8
3070,176,-1688,1056,50,6,-11
3075,136,-1656,1072,48,5,-10
3080,152,-1680,1064,48,6,-11
3085,152,-1680,1080,50,6,-10
3090,160,-1640,1056,49,6,-10
3095,160,-1672,1088,49,7,-9
3100,168,-1672,1048,49,8,-9
3105,176,-1672,1048,50,10,-8
3110,168,-1648,1080,51,10,-6
3115,184,-1664,1080,51,11,-6
3120,168,-1640,1048,50,11,-7
3125,160,-1656,1040,51,11,-8
3130,144,-1624,1032,51,13,-8
3135,152,-1640,1032,52,15,-7
3140,160,-1616,1088,51,16,-8
3145,152,-1656,1064,49,15,-7
3150,168,-1664,1048,45,16,-8
3155,136,-1664,1048,43,14,-8
3160,144,-1624,1080,42,14,-9
3165,144,-1680,1080,40,12,-8
3170,160,-1680,1080,39,10,-11
3175,144,-1704,1056,37,8,-11
3180,144,-1696,1080,37,9,-11
3185,128,-1696,1072,41,9,-10
3190,96,-1680,1032,45,7,-11
3195,152,-1680,1040,52,6,-9
3200,136,-1648,1024,56,5,-8
3205,152,-1672,1032,56,8,-7
3210,144,-1664,1032,54,10,-7
3215,136,-1656,1032,54,9,-7
3220,144,-1664,1024,51,11,-6
3225,192,-1648,1064,50,11,-6
3230,144,-1656,1064,49,10,-7
3235,144,-1656,1032,46,12,-7
3240,120,-1648,1032,44,13,-8
3245,152,-1672,1064,44,15,-7
3250,136,-1664,1072,42,15,-8
3255,160,-1664,1064,44,15,-10
3260,152,-1680,1056,46,16,-11
3265,120,-1672,1048,44,16,-11
3270,152,-1680,1056,44,15,-12
3275,136,-1672,1064,45,14,-11
3280,144,-1648,1056,45,15,-10
3285,160,-1680,1056,44,14,-10
3290,144,-1664,1032,43,13,-12
3295,160,-1656,1064,44,14,-11
3300,136,-1664,1064,44,13,-11
3305,168,-1704,1040,43,13,-9
3310,152,-1672,1064,45,13,-12
3315,136,-1672,1040,46,14,-11
3320,128,-1680,1032,47,13,-12
3325,136,-1672,1032,47,11,-12
3330,160,-1656,1024,47,11,-13
3335,152,-1648,1032,46,10,-12
3340,120,-1656,1048,47,10,-11
3345,128,-1656,1048,46,10,-11
3350,152,-1672,1056,47,10,-11
3355,208,-1640,1112,48,10,-9
3360,144,-1680,1040,48,10,-7
3365,160,-1672,1056,48,11,-9
3370,168,-1672,1056,48,12,-10
3375,152,-1664,1040,48,13,-11
3380,136,-1680,1056,49,13,-10
3385,136,-1672,1056,49,12,-12
3390,160,-1680,1048,49,13,-13
3395,152,-1672,1040,50,13,-14
3400,128,-1672,1048,51,13,-14
3405,136,-1664,1040,52,14,-14
3410,112,-1640,1048,53,14,-12
3415,136,-1664,1064,56,14,-11
3420,136,-1680,1040,56,14,-12
3425,136,-1664,1040,54,13,-12
3430,136,-1680,1040,53,12,-13
3435,152,-1664,1056,52,11,-12
3440,144,-1680,1032,50,10,-13
3445,144,-1664,1040,49,10,-12
3450,168,-1688,1024,50,10,-10
3455,160,-1696,1032,51,11,-11
3460,144,-1704,1016,52,11,-12
3465,136,-1680,1032,53,11,-13
3470,144,-1672,1048,54,11,-10
3475,144,-1664,1048,55,11,-11
3480,152,-1688,1064,55,12,-11
3485,144,-1664,1024,56,11,-11
3490,128,-1664,1056,57,11,-11
3495,168,-1672,1064,55,10,-11
3500,152,-1664,1016,54,10,-10
3505,160,-1648,1056,54,10,-9
3510,160,-1664,1064,54,10,-10
3515,144,-1672,1064,54,9,-8
3520,104,-1608,1032,53,10,-8
3525,128,-1648,1064,53,10,-10
3530,176,-1664,1064,53,9,-11
3535,136,-1656,1032,53,10,-11
3540,136,-1664,1048,53,11,-10
3545,160,-1656,1056,54,9,-10
3550,152,-1664,1032,52,11,-10
3555,144,-1632,1040,51,11,-11
3560,160,-1680,1064,49,10,-11
3565,144,-1680,1040,48,10,-10
3570,152,-1680,1040,47,9,-10
3575,136,-1672,1056,50,10,-8
3580,144,-1664,1048,49,11,-10
3585,152,-1672,1064,51,12,-11
3590,152,-1656,1112,52,11,-10
3595,112,-1648,1056,52,11,-9
3600,136,-1664,1040,54,12,-9
3605,136,-1640,1056,54,12,-8
3610,136,-1672,1040,53,14,-9
3615,168,-1656,1040,53,14,-8
3620,136,-1688,1048,51,13,-10
3625,152,-1648,1048,48,13,-9
3630,136,-1648,1040,45,13,-9
3635,144,-1664,1072,45,13,-10
3640,160,-1672,1048,44,13,-9
3645,160,-1648,1056,43,13,-11
3650,160,-1664,1048,44,14,-11
3655,128,-1664,1048,44,13,-10
3660,152,-1672,1056,45,13,-11
3665,160,-1648,1048,43,12,-11
3670,152,-1672,1024,42,14,-10
3675,152,-1672,1064,42,16,-10
3680,144,-1672,1040,43,15,-10
3685,144,-1672,1048,44,16,-9
3690,176,-1656,1040,43,16,-9
3695,184,-1640,1040,42,15,-9
3700,176,-1688,1032,40,15,-8
3705,144,-1672,1040,39,16,-9
3710,144,-1680,1032,38,17,-9
3715,104,-1672,1040,40,17,-7
3720,152,-1672,1056,40,17,-7
3725,176,-1680,1032,37,15,-3
3730,192,-1696,1056,37,18,-5
3735,176,-1704,1048,38,19,-4
3740,160,-1672,1064,39,19,-3
3745,152,-1664,1032,40,22,-6
3750,168,-1688,1064,40,22,-5
3755,160,-1680,1056,40,22,-6
3760,152,-1672,1048,40,22,-7
3765,144,-1680,1048,39,22,-5
3770,168,-1672,1032,40,21,-5
3775,136,-1664,1048,38,21,-5
3780,144,-1640,1024,37,20,-6
3785,160,-1680,1056,38,19,-5
3790,136,-1672,1024,36,19,-3
3795,144,-1664,1040,34,18,-5
3800,144,-1688,1048,31,16,-6
3805,136,-1664,1064,31,17,-6
3810,152,-1680,1072,31,16,-8
3815,120,-1664,1056,31,15,-9
3820,152,-1664,1040,31,15,-7
3825,96,-1664,1032,29,15,-7
3830,128,-1672,1072,30,15,-9
3835,136,-1672,1056,30,14,-8
3840,168,-1672,1056,31,14,-9
3845,144,-1680,1040,30,12,-9
3850,120,-1664,1056,30,14,-9
3855,136,-1672,1040,30,15,-12
3860,144,-1680,1040,30,16,-9
3865,144,-1688,1064,32,16,-9
3870,152,-1672,1072,33,14,-11
3875,152,-1672,1064,33,13,-11
3880,144,-1680,1056,31,13,-11
3885,152,-1664,1024,30,12,-12
3890,136,-1664,1032,31,14,-13
3895,128,-1664,1072,30,12,-12
3900,104,-1696,1048,29,12,-13
3905,136,-1672,1048,29,12,-14
3910,160,-1688,1024,29,13,-13
3915,144,-1680,1024,27,14,-13
3920,144,-1680,1048,28,13,-15
3925,144,-1688,1024,28,13,-14
3930,152,-1696,1048,30,12,-13
3935,176,-1696,1048,31,13,-13
3940,144,-1688,1024,33,13,-14
3945,136,-1672,1056,34,12,-14
3950,128,-1664,1072,36,11,-14
3955,128,-1672,1048,36,12,-16
3960,144,-1672,1032,36,12,-15
3965,144,-1672,1040,36,12,-13
3970,168,-1680,1040,35,11,-11
3975,144,-1664,1016,35,11,-12
3980,152,-1664,1032,35,10,-13
3985,176,-1672,1008,34,10,-13
3990,152,-1664,1024,35,11,-14
3995,120,-1688,1024,34,10,-13
4000,160,-1672,1024,33,9,-13
4005,112,-1656,1056,34,9,-13
4010,144,-1672,1024,34,9,-16
4015,136,-1696,1048,34,9,-16
4020,160,-1696,1048,34,10,-17
4025,144,-1704,1048,34,10,-17
4030,152,-1680,1032,34,9,-19
4035,144,-1688,1040,36,9,-19
4040,144,-1664,1048,37,8,-16
4045,144,-1704,1032,38,10,-17
4050,144,-1688,1024,38,11,-16
4055,160,-1680,1008,38,11,-17
4060,128,-1656,1032,40,9,-15
4065,144,-1688,1064,39,9,-15
4070,152,-1680,1040,38,8,-14
4075,160,-1688,1040,36,6,-14
4080,160,-1696,1024,35,6,-14
4085,144,-1688,1056,36,8,-13
4090,144,-1704,1056,33,6,-13
4095,160,-1680,1072,32,5,-14
4100,120,-1688,1048,33,1,-14
4105,160,-1720,1056,32,0,-14
4110,120,-1704,1024,33,-1,-15
4115,144,-1720,1040,37,-2,-14
4120,160,-1720,1024,41,-2,-17
4125,144,-1688,1008,47,-1,-17
4130,160,-1704,1024,50,0,-17
4135,152,-1680,1008,50,2,-18
4140,144,-1680,1016,49,4,-17
4145,144,-1672,1008,48,4,-14
4150,136,-1640,1024,46,6,-12
4155,152,-1656,1048,45,6,-11
4160,136,-1656,1040,44,7,-11
4165,160,-1680,1024,44,6,-11
4170,168,-1696,1032,43,7,-10
4175,128,-1656,1056,43,8,-11
4180,136,-1672,1048,44,6,-11
4185,152,-1672,1056,46,4,-11
4190,168,-1680,1048,47,4,-11
4195,144,-1680,1032,48,3,-13
4200,136,-1672,1024,47,3,-12
4205,144,-1656,1016,45,3,-12
4210,184,-1688,1048,43,2,-10
4215,160,-1680,1032,40,2,-10
4220,160,-1672,1048,40,3,-9
4225,168,-1656,1032,38,4,-10
4230,168,-1696,1040,38,5,-8
4235,152,-1688,1032,37,6,-7
4240,136,-1688,1024,38,9,-8
4245,160,-1656,1032,41,9,-7
4250,144,-1672,1064,42,9,-7
4255,168,-1696,1048,43,9,-7
4260,136,-1672,1040,43,11,-7
4265,152,-1656,1040,42,10,-9
4270,136,-1672,1032,42,9,-7
4275,136,-1664,1056,41,10,-8
4280,96,-1736,1040,39,8,-7
4285,144,-1664,1032,37,8,-8
4290,136,-1680,1032,36,7,-6
4295,160,-1648,1032,35,8,-4
4300,168,-1656,1064,33,9,-4
4305,152,-1656,1032,32,10,-3
4310,160,-1696,1032,30,10,-2
4315,152,-1680,1040,30,9,-3
4320,160,-1688,1040,30,9,-3
4325,136,-1688,1008,28,8,-4
4330,168,-1704,1040,26,8,-3
4335,176,-1712,1024,27,10,-6
4340,152,-1672,1048,28,10,-6
4345,152,-1688,1040,28,10,-5
4350,168,-1696,1016,27,11,-7
4355,144,-1664,1032,27,13,-8
4360,144,-1696,1024,27,13,-7
4365,168,-1704,1032,27,15,-6
4370,152,-1680,1048,29,14,-5
4375,136,-1672,1024,29,15,-6
4380,152,-1680,1024,29,14,-6
4385,160,-1688,1032,28,15,-5
4390,128,-1680,1056,27,13,-4
4395,152,-1672,1016,27,13,-3
4400,176,-1672,1016,26,14,-4
4405,160,-1688,1024,26,14,-5
4410,168,-1704,1032,26,13,-6
4415,152,-1704,1048,27,15,-4
4420,160,-1696,1016,26,15,-5
4425,152,-1688,1016,27,16,-7
4430,168,-1712,1024,26,16,-7
4435,136,-1680,1000,25,17,-6
4440,168,-1672,1040,25,18,-6
4445,176,-1656,976,24,19,-7
4450,152,-1720,1016,27,18,-7
4455,160,-1704,1016,27,18,-6
4460,144,-1704,1016,29,17,-8
4465,144,-1680,1016,31,17,-7
4470,136,-1664,1024,34,17,-6
4475,136,-1688,1032,35,17,-6
4480,144,-1704,1016,36,17,-7
4485,152,-1720,1000,35,18,-6
4490,120,-1696,1080,36,18,-7
4495,136,-1680,1008,37,18,-7
4500,160,-1672,1016,36,18,-6
4505,144,-1688,1024,36,18,-6
4510,160,-1664,984,34,16,-7
4515,144,-1664,1040,34,16,-6
4520,144,-1696,1032,33,16,-5
4525,136,-1704,1016,33,15,-5
4530,160,-1680,1048,33,14,-5
4535,144,-1712,1024,34,14,-4
4540,152,-1712,1008,34,14,-5
4545,152,-1696,1016,35,14,-5
4550,144,-1696,1032,36,16,-6
4555,144,-1688,1024,36,16,-7
4560,176,-1720,1024,36,18,-7
4565,144,-1704,1024,37,18,-7
4570,136,-1704,1032,37,19,-8
4575,160,-1688,1008,37,19,-8
4580,152,-1688,1008,37,20,-8
4585,128,-1672,1008,36,19,-10
4590,152,-1696,1008,37,19,-10
4595,120,-1664,1024,37,19,-7
4600,144,-1704,1000,37,19,-6
4605,136,-1696,1032,38,18,-7
4610,96,-1744,904,39,17,-6
4615,128,-1704,984,40,16,-4
4620,152,-1704,1016,41,14,-4
4625,176,-1704,992,41,14,-5
4630,160,-1680,992,39,13,-4
4635,136,-1688,1024,39,15,-6
4640,152,-1696,1024,37,15,-5
4645,152,-1704,1032,37,15,-8
4650,160,-1696,1016,38,15,-8
4655,120,-1680,1016,39,16,-9
4660,152,-1696,1008,40,15,-10
4665,128,-1688,984,43,14,-7
4670,160,-1680,1032,45,14,-5
4675,144,-1680,992,43,15,-7
4680,120,-1680,1016,44,15,-7
4685,136,-1664,1016,44,14,-6
4690,136,-1680,1024,43,13,-4
4695,136,-1664,1000,43,11,-5
4700,152,-1672,1024,42,11,-6
4705,144,-1672,1016,39,10,-7
4710,120,-1648,1016,38,9,-7
4715,144,-1688,1040,36,10,-7
4720,128,-1688,1008,32,10,-7
4725,136,-1696,1024,30,9,-5
4730,152,-1704,1008,30,9,-5
4735,184,-1696,1064,30,7,-1
4740,120,-1680,1016,34,7,-7
4745,144,-1680,1032,33,7,-8
4750,144,-1696,1016,32,6,-9
4755,152,-1696,1032,32,7,-6
4760,136,-1664,1040,32,9,-5
4765,136,-1688,1032,32,8,-5
4770,120,-1664,1016,32,8,-6
4775,136,-1656,1016,31,7,-5
4780,128,-1656,1016,27,6,-5
4785,136,-1680,1040,24,5,-6
4790,144,-1688,1008,19,5,-8
4795,128,-1672,1032,16,4,-6
4800,120,-1672,1024,13,4,-8
4805,136,-1672,1000,11,4,-7
4810,136,-1704,1032,9,4,-9
4815,144,-1688,1016,9,5,-10
4820,168,-1736,1040,9,4,-10
4825,144,-1632,904,10,5,-9
4830,144,-1704,1024,10,6,-10
4835,152,-1696,1032,10,7,-9
4840,160,-1704,1024,10,5,-10
4845,144,-1672,1016,8,5,-12
4850,192,-1688,1024,7,5,-10
4855,160,-1656,992,3,5,-10
4860,152,-1680,1016,0,3,-7
4865,152,-1672,1040,-5,1,-6
4870,160,-1696,1032,-6,1,-5
4875,160,-1688,1032,-8,3,-3
4880,120,-1680,1016,-9,3,-6
4885,160,-1720,1032,-10,2,-9
4890,176,-1696,1016,-10,2,-9
4895,160,-1704,1024,-10,4,-12
4900,160,-1728,1016,-11,4,-10
4905,128,-1720,1016,-11,4,-11
4910,192,-1736,1024,-10,5,-10
4915,152,-1744,1008,-8,4,-12
4920,136,-1712,1000,-6,4,-11
4925,136,-1728,1000,-2,4,-8
4930,144,-1712,1016,0,5,-8
4935,136,-1664,984,4,5,-9
4940,136,-1696,1016,5,6,-7
4945,152,-1664,1000,6,6,-4
4950,160,-1688,1016,4,7,-3
4955,144,-1696,1024,1,5,-4
4960,152,-1680,1016,-1,3,-4
4965,144,-1704,992,-4,3,-5
4970,200,-1712,1016,-9,1,-6
4975,184,-1728,1024,-12,0,-9
4980,152,-1712,984,-13,-1,-10
4985,144,-1736,984,-11,-2,-9
4990,176,-1824,936,-6,-1,-10
4995,144,-1736,984,0,1,-12
5000,152,-1744,984,3,2,-11
5005,128,-1736,984,6,5,-9
5010,152,-1712,984,6,5,-10
5015,160,-1704,1000,9,6,-9
5020,136,-1688,1000,11,9,-7
5025,136,-1672,984,11,9,-7
5030,152,-1672,968,8,10,-5
5035,144,-1696,992,5,9,-6
5040,160,-1696,992,2,9,-5
5045,120,-1680,1016,0,9,-5
5050,160,-1688,1008,-2,7,-5
5055,136,-1680,1000,-4,6,-5
5060,144,-1688,1024,-6,5,-3
5065,120,-1688,1008,-8,4,-2
5070,160,-1696,992,-11,1,-3
5075,152,-1704,984,-15,0,-2
5080,176,-1696,984,-19,0,-2
5085,160,-1696,968,-22,2,-2
5090,160,-1712,968,-27,3,-1
5095,168,-1720,952,-30,3,-1
5100,160,-1704,984,-31,3,-3
5105,160,-1736,1008,-32,5,-4
5110,176,-1752,1008,-33,6,2
5115,152,-1736,976,-27,7,-1
5120,152,-1728,1000,-23,8,-4
5125,152,-1744,960,-23,7,-4
5130,168,-1720,992,-22,6,-4
5135,160,-1728,976,-21,7,-4
5140,152,-1704,984,-20,7,-5
5145,152,-1696,976,-20,8,-4
5150,160,-1736,968,-21,6,-4
5155,176,-1712,944,-23,8,-2
5160,160,-1704,944,-26,6,-1
5165,152,-1720,984,-31,6,0
5170,136,-1712,976,-34,3,2
5175,144,-1720,976,-37,5,2
5180,128,-1688,984,-40,7,1
5185,152,-1728,960,-42,6,1
5190,144,-1712,960,-43,6,0
5195,160,-1720,976,-43,8,-3
5200,152,-1704,968,-43,8,-2
5205,144,-1736,976,-42,9,0
5210,152,-1720,976,-41,10,4
5215,144,-1728,1008,-41,10,5
5220,168,-1744,960,-42,9,4
5225,160,-1744,1008,-41,9,3
5230,152,-1728,960,-42,11,3
5235,144,-1736,984,-43,8,3
5240,128,-1728,1016,-43,9,3
5245,152,-1720,960,-41,12,3
5250,152,-1736,1000,-41,13,3
5255,128,-1712,920,-40,12,0
5260,160,-1720,976,-39,11,0
5265,160,-1744,968,-39,11,1
5270,144,-1736,1008,-39,12,1
5275,200,-1712,968,-35,11,2
5280,176,-1736,960,-33,8,6
5285,184,-1744,936,-35,11,8
5290,168,-1704,944,-35,12,7
5295,144,-1704,920,-42,13,2
5300,136,-1736,960,-49,14,1
5305,112,-1712,952,-53,15,1
5310,128,-1720,952,-54,16,1
5315,120,-1688,960,-55,16,1
5320,144,-1688,984,-56,15,-1
5325,120,-1720,952,-57,13,-2
5330,120,-1680,952,-58,12,-2
5335,144,-1696,960,-59,11,-4
5340,128,-1720,936,-60,11,-5
5345,120,-1704,952,-62,12,-6
5350,144,-1712,952,-64,9,-5
5355,128,-1712,944,-68,8,-5
5360,128,-1712,944,-72,8,-8
5365,120,-1712,944,-76,9,-5
5370,144,-1760,952,-79,10,-5
5375,152,-1736,960,-83,11,-5
5380,136,-1728,960,-85,12,-4
5385,152,-1744,944,-87,12,-3
5390,128,-1744,912,-89,11,-1
5395,176,-1760,912,-89,11,-3
5400,120,-1744,920,-92,11,-3
5405,128,-1760,880,-92,12,-2
5410,104,-1744,904,-94,11,-2
5415,112,-1744,896,-97,10,1
5420,120,-1744,912,-102,10,0
5425,136,-1768,912,-104,9,1
5430,112,-1744,912,-106,10,2
5435,48,-1840,824,-109,14,10
5440,184,-1736,864,-117,22,26
5445,152,-1744,888,-115,18,0
5450,152,-1768,880,-127,16,-6
5455,136,-1736,896,-130,16,-4
5460,136,-1776,904,-133,14,-1
5465,128,-1768,896,-137,9,2
5470,128,-1784,904,-138,6,3
5475,112,-1784,904,-140,4,5
5480,144,-1792,896,-139,2,9
5485,168,-1808,912,-138,-1,10
5490,152,-1784,880,-134,-2,11
5495,160,-1800,904,-136,-4,10
5500,152,-1808,904,-136,-4,9
5505,200,-1808,880,-138,-4,5
5510,120,-1776,872,-143,-4,-3
5515,112,-1768,904,-141,-1,-4
5520,136,-1744,864,-136,-1,-5
5525,152,-1776,864,-136,-2,-4
5530,128,-1752,888,-135,-1,-5
5535,136,-1848,832,-134,0,-4
5540,168,-1784,880,-132,0,-6
5545,176,-1792,880,-132,-1,-3
5550,104,-1776,880,-134,1,-10
5555,152,-1768,872,-129,3,-7
5560,152,-1752,872,-126,2,-6
5565,144,-1776,896,-122,1,-6
5570,160,-1768,856,-121,0,-7
5575,128,-1776,856,-123,0,-9
5580,160,-1768,872,-122,-2,-7
5585,144,-1792,872,-123,-5,-6
5590,104,-1744,840,-125,-6,-5
5595,80,-1720,952,-138,-6,5
5600,192,-1712,816,-126,-7,35
5605,152,-1768,784,-115,-11,5
5610,144,-1784,840,-121,-5,2
5615,160,-1792,840,-127,-1,0
5620,152,-1784,880,-132,0,2
5625,160,-1832,856,-132,0,0
5630,152,-1808,856,-127,3,-2
5635,152,-1840,816,-125,4,-2
5640,104,-1824,816,-127,5,-4
5645,136,-1800,872,-118,6,0
5650,128,-1792,848,-112,5,2
5655,136,-1776,792,-109,4,5
5660,136,-1800,824,-109,2,8
5665,128,-1728,832,-109,1,8
5670,160,-1808,824,-110,0,7
5675,160,-1752,816,-116,1,8
5680,144,-1800,808,-121,1,4
5685,160,-1800,848,-125,2,2
5690,136,-1800,840,-124,2,-1
5695,136,-1832,840,-120,1,-1
5700,168,-1912,792,-119,0,-1
5705,80,-1808,792,-120,0,-7
5710,128,-1824,816,-114,3,-3
5715,144,-1832,784,-108,1,2
5720,168,-1744,856,-113,3,8
5725,160,-1800,768,-98,12,17
5730,144,-1784,776,-91,3,4
5735,144,-1824,784,-98,-4,0
5740,136,-1816,792,-105,-8,-2
5745,120,-1808,744,-106,-10,-2
5750,120,-1824,784,-105,-12,-1
5755,112,-1800,744,-106,-12,-2
5760,136,-1808,752,-105,-13,0
5765,128,-1816,744,-105,-14,0
5770,144,-1816,744,-110,-12,-2
5775,160,-1816,736,-116,-11,-3
5780,136,-1864,744,-120,-10,-5
5785,120,-1824,784,-116,-13,-4
5790,136,-1832,744,-114,-14,-4
5795,128,-1832,768,-113,-19,-9
5800,72,-1800,728,-115,-18,-11
5805,128,-1832,784,-107,-18,-5
5810,144,-1824,760,-101,-17,-1
5815,144,-1840,752,-99,-13,-1
5820,152,-1832,776,-101,-11,2
5825,136,-1840,744,-104,-8,2
5830,120,-1840,760,-107,-7,2
5835,128,-1880,752,-109,-5,4
5840,104,-1880,776,-109,-1,4
5845,144,-1880,768,-107,0,8
5850,144,-1896,776,-101,2,9
5855,136,-1888,736,-96,3,10
5860,128,-1856,728,-93,4,11
5865,128,-1848,736,-90,4,12
5870,96,-1832,712,-94,4,11
5875,136,-1824,720,-98,0,11
5880,120,-1848,752,-98,-3,10
5885,136,-1816,744,-96,-6,10
5890,152,-1840,712,-96,-8,8
5895,152,-1800,720,-99,-7,6
5900,168,-1824,688,-106,-5,4
5905,160,-1832,680,-115,1,-3
5910,112,-1800,736,-121,7,-7
5915,128,-1800,688,-120,12,-4
5920,128,-1784,720,-119,13,-1
5925,88,-1792,712,-122,15,0
5930,168,-1784,712,-123,14,3
5935,152,-1848,696,-127,12,2
5940,128,-2000,680,-151,15,6
5945,200,-1768,800,-147,28,32
5950,104,-1832,680,-123,14,1
5955,144,-1840,680,-137,10,-4
5960,112,-1856,736,-143,9,-8
5965,128,-1864,672,-138,10,-5
5970,128,-1848,696,-133,14,-2
5975,120,-1832,656,-128,14,1
5980,104,-1840,656,-124,17,3
5985,120,-1864,648,-126,16,2
5990,96,-1848,664,-127,18,-1
5995,136,-1864,664,-125,15,2
6000,120,-1832,696,-124,13,3
6005,144,-1864,656,-123,11,4
6010,128,-1864,672,-127,10,5
6015,40,-1968,672,-138,13,11
6020,176,-1864,688,-138,25,31
6025,184,-1840,616,-116,14,12
6030,184,-1896,608,-122,12,5
6035,176,-1896,648,-132,13,-1
6040,192,-1896,624,-138,15,-4
6045,96,-1888,632,-142,19,-10
6050,136,-1880,672,-136,23,-6
6055,120,-1856,656,-130,21,-1
6060,128,-1872,656,-126,20,2
6065,88,-1864,640,-124,22,5
6070,56,-1896,640,-122,22,10
6075,104,-1912,608,-119,21,15
6080,208,-1776,752,-150,29,35
6085,152,-1864,600,-115,33,40
6090,96,-1880,640,-114,23,12
6095,104,-1888,672,-127,17,9
6100,128,-1872,648,-133,15,5
6105,120,-1880,632,-134,12,2
6110,112,-1896,632,-135,13,-3
6115,104,-1856,672,-137,14,-4
6120,168,-1880,648,-130,16,1
6125,160,-1872,624,-130,17,3
6130,160,-1872,624,-136,20,5
6135,160,-1880,656,-141,24,5
6140,128,-1896,624,-146,27,5
6145,136,-1808,680,-162,35,14
6150,120,-1840,640,-154,48,31
6155,144,-1880,616,-141,39,8
6160,112,-1872,640,-144,41,2
6165,104,-1864,648,-141,42,6
6170,120,-1872,608,-138,39,10
6175,144,-1864,632,-135,38,11
6180,152,-1872,608,-137,38,9
6185,144,-1880,600,-140,41,6
6190,160,-1864,600,-144,42,-2
6195,112,-1872,608,-147,43,-5
6200,136,-1856,600,-149,46,-9
6205,144,-1864,600,-151,47,-12
6210,120,-1848,592,-153,50,-16
6215,104,-1888,624,-156,53,-17
6220,144,-1880,592,-158,57,-18
6225,152,-1888,592,-158,59,-19
6230,160,-1848,592,-165,61,-18
6235,168,-1896,616,-170,64,-20
6240,128,-1896,592,-175,71,-20
6245,192,-1824,688,-197,79,-10
6250,136,-1856,536,-174,90,4
6255,144,-1840,584,-158,85,-10
6260,112,-1888,576,-169,80,-24
6265,112,-1888,560,-173,82,-26
6270,128,-1896,584,-171,83,-23
6275,80,-1872,568,-169,83,-22
6280,104,-1872,552,-167,84,-21
6285,128,-1896,576,-168,83,-23
6290,152,-1880,560,-172,85,-24
6295,128,-1912,576,-174,90,-26
6300,152,-1904,552,-176,92,-28
6305,136,-1896,568,-177,98,-26
6310,128,-1904,600,-176,102,-25
6315,128,-1888,560,-176,105,-27
6320,112,-1912,544,-176,106,-30
6325,136,-1912,544,-175,107,-31
6330,136,-1896,560,-174,108,-31
6335,120,-1896,544,-171,110,-34
6340,136,-1920,552,-170,112,-34
6345,128,-1912,528,-170,113,-37
6350,112,-1920,520,-171,114,-39
6355,104,-1904,536,-173,115,-44
6360,88,-1872,536,-172,114,-45
6365,88,-1896,536,-173,115,-45
6370,80,-1896,528,-175,114,-44
6375,88,-1864,536,-176,113,-42
6380,120,-1896,512,-179,115,-43
6385,136,-1904,528,-186,115,-44
6390,136,-1920,504,-190,117,-44
6395,120,-1904,536,-194,119,-43
6400,88,-1888,528,-196,122,-41
6405,96,-1920,528,-198,123,-38
6410,200,-1864,576,-208,127,-29
6415,112,-1928,504,-197,132,-25
6420,152,-1984,496,-196,125,-39
6425,120,-1944,512,-203,125,-47
6430,96,-1904,504,-200,127,-42
6435,136,-1936,488,-197,126,-39
6440,144,-1912,472,-194,126,-36
6445,144,-1920,472,-194,129,-38
6450,144,-1928,472,-196,130,-40
6455,128,-1912,464,-197,132,-39
6460,128,-1928,496,-195,137,-43
6465,136,-1936,480,-194,140,-42
6470,120,-1952,488,-193,141,-45
6475,120,-1936,456,-191,143,-44
6480,104,-1936,464,-192,142,-46
6485,112,-1928,432,-191,141,-46
6490,80,-1952,456,-192,142,-46
6495,128,-1952,448,-191,139,-45
6500,152,-1968,456,-194,140,-47
6505,144,-1928,416,-196,141,-48
6510,128,-1944,416,-199,141,-49
6515,128,-1928,440,-198,143,-50
6520,88,-1904,432,-194,143,-48
6525,96,-1928,464,-191,143,-47
6530,120,-1928,432,-189,141,-44
6535,128,-1912,400,-184,140,-43
6540,144,-1944,456,-180,141,-46
6545,128,-1936,416,-181,142,-45
6550,120,-1912,432,-185,140,-47
6555,112,-1928,400,-188,140,-47
6560,120,-1936,392,-189,139,-49
6565,80,-1928,440,-191,138,-50
6570,112,-1968,408,-190,135,-47
6575,48,-1912,424,-193,132,-50
6580,72,-1952,432,-188,129,-44
6585,112,-1928,400,-180,125,-39
6590,112,-1952,392,-178,124,-37
6595,96,-1960,392,-178,121,-37
6600,104,-1952,392,-182,119,-39
6605,80,-1944,384,-184,120,-42
6610,96,-1944,384,-187,119,-43
6615,88,-1944,392,-190,121,-41
6620,96,-1928,424,-190,123,-40
6625,112,-1936,384,-187,123,-37
6630,104,-1968,368,-185,123,-35
6635,128,-1952,360,-184,123,-35
6640,136,-1960,336,-182,123,-34
6645,136,-1936,376,-184,124,-36
6650,152,-1952,368,-180,121,-39
6655,112,-1912,336,-178,121,-41
6660,128,-1888,368,-181,119,-38
6665,112,-1936,336,-181,118,-33
6670,88,-1936,336,-177,120,-32
6675,136,-1928,360,-178,119,-28
6680,144,-1968,352,-184,120,-27
6685,128,-1952,320,-186,117,-32
6690,120,-1968,328,-189,113,-39
6695,136,-1952,336,-195,109,-40
6700,136,-1968,344,-197,107,-41
6705,120,-2000,360,-195,105,-40
6710,168,-2016,352,-192,103,-40
6715,136,-2024,312,-189,100,-40
6720,144,-1984,280,-183,99,-40
6725,112,-1944,312,-174,99,-42
6730,128,-1960,288,-169,100,-40
6735,136,-1976,264,-169,101,-40
6740,160,-1968,264,-174,99,-39
6745,136,-1960,272,-175,99,-42
6750,128,-1944,288,-175,99,-44
6755,168,-1936,264,-175,99,-41
6760,128,-1936,312,-172,102,-41
6765,128,-1928,304,-171,101,-41
6770,136,-1944,296,-173,98,-41
6775,144,-1960,280,-174,96,-41
6780,128,-1968,272,-173,97,-42
6785,136,-1944,280,-174,97,-43
6790,176,-1960,296,-176,96,-42
6795,144,-1960,272,-179,97,-40
6800,144,-1952,296,-180,100,-39
6805,128,-1960,304,-181,99,-37
6810,128,-1960,296,-179,101,-35
6815,128,-1952,280,-178,99,-32
6820,120,-1944,288,-177,101,-34
6825,112,-1944,272,-177,99,-36
6830,120,-1920,272,-177,98,-35
6835,112,-1968,272,-181,96,-35
6840,112,-1968,272,-183,94,-37
6845,88,-1936,240,-186,90,-37
6850,120,-1968,256,-189,87,-39
6855,104,-1936,272,-194,83,-41
6860,112,-1960,280,-199,84,-42
6865,80,-1944,224,-201,83,-41
6870,120,-1960,264,-204,84,-36
6875,112,-1968,248,-204,87,-33
6880,144,-1984,256,-203,90,-27
6885,144,-1944,256,-200,94,-23
6890,144,-1936,264,-197,97,-17
6895,144,-1968,232,-195,99,-12
6900,168,-1952,248,-192,100,-8
6905,136,-1976,216,-190,100,-3
6910,152,-1976,224,-190,100,1
6915,136,-1928,256,-189,99,3
6920,128,-1960,232,-189,96,6
6925,144,-1952,232,-188,95,5
6930,144,-1960,248,-187,93,9
6935,128,-1960,256,-186,90,9
6940,128,-1952,224,-187,87,7
6945,136,-1944,248,-188,84,5
6950,128,-1968,192,-189,79,6
6955,112,-1928,208,-190,76,6
6960,144,-1968,240,-193,72,5
6965,144,-1960,248,-194,67,4
6970,152,-1944,216,-194,66,3
6975,160,-1968,216,-195,62,3
6980,160,-1968,184,-194,59,4
6985,144,-1944,224,-196,58,6
6990,144,-1936,176,-197,56,4
6995,136,-1976,192,-198,54,6
7000,160,-1800,208,-200,54,6
7005,176,-1936,168,-203,54,9
7010,128,-1960,200,-204,53,10
7015,128,-1936,136,-206,53,11
7020,144,-1928,160,-209,53,15
7025,160,-1968,224,-210,54,16
7030,144,-1936,168,-212,55,20
7035,128,-1952,168,-214,57,21
7040,136,-1944,160,-214,56,23
7045,112,-1928,160,-219,56,24
7050,96,-1928,168,-220,55,25
7055,104,-1944,184,-222,55,26
7060,136,-1920,144,-225,55,29
7065,120,-1968,152,-228,55,28
7070,120,-1952,144,-231,55,31
7075,104,-1944,160,-232,54,32
7080,128,-1960,144,-235,54,32
7085,120,-1984,160,-238,55,33
7090,96,-1928,144,-242,55,33
7095,104,-1944,128,-243,54,36
7100,96,-1952,184,-247,55,37
7105,120,-1960,136,-248,55,38
7110,112,-1944,136,-250,55,38
7115,104,-1936,136,-254,57,40
7120,128,-1992,104,-259,60,41
7125,64,-1920,160,-264,62,39
7130,72,-1944,128,-264,61,48
7135,88,-1920,120,-267,59,56
7140,104,-1928,120,-270,59,66
7145,128,-1928,152,-276,58,71
7150,88,-1936,144,-281,57,75
7155,120,-1936,128,-287,57,76
7160,120,-1952,144,-291,57,80
7165,136,-1936,112,-297,58,81
7170,120,-1936,144,-301,59,78
7175,144,-1944,112,-307,62,76
7180,136,-1960,128,-314,67,74
7185,96,-1936,112,-321,74,70
7190,120,-1960,104,-326,81,69
7195,104,-1944,128,-330,86,66
7200,112,-1936,120,-333,91,66
7205,112,-1976,144,-335,96,67
7210,104,-1920,112,-337,99,68
7215,176,-1880,216,-338,101,69
7220,88,-1920,112,-338,104,72
7225,64,-1952,128,-337,104,74
7230,104,-1952,120,-335,102,74
7235,56,-1912,96,-334,101,74
7240,64,-1896,88,-335,98,75
7245,88,-1880,72,-337,98,77
7250,80,-1864,48,-344,101,80
7255,96,-1888,48,-353,101,85
7260,80,-1872,24,-364,104,91
7265,72,-1840,16,-382,105,92
7270,96,-1832,16,-398,107,96
7275,96,-1864,80,-412,109,98
7280,104,-1840,24,-417,113,87
7285,96,-1840,40,-429,114,87
7290,80,-1840,40,-438,117,86
7295,72,-1840,64,-443,117,84
7300,48,-1912,24,-450,116,83
7305,104,-1872,64,-466,119,85
7310,96,-1856,32,-467,113,82
7315,112,-1864,32,-478,109,78
7320,112,-1872,24,-490,106,72
7325,120,-1872,32,-507,104,68
7330,120,-1856,8,-521,104,65
7335,104,-1856,-16,-532,108,61
7340,136,-1880,-16,-539,112,61
7345,120,-1888,-16,-548,119,58
7350,96,-1856,-48,-558,125,55
7355,80,-1864,-48,-570,130,53
7360,56,-1840,-56,-589,134,50
7365,72,-1856,-56,-610,139,50
7370,24,-1848,-48,-629,143,51
7375,16,-1984,-176,-647,145,53
7380,72,-1872,-16,-677,150,55
7385,48,-1864,-64,-663,152,64
7390,56,-1848,-16,-660,155,67
7395,64,-1840,-32,-659,154,73
7400,72,-1824,-24,-659,154,77
7405,120,-1832,-72,-661,153,80
7410,96,-1800,-56,-670,153,81
7415,72,-1784,-96,-680,154,80
7420,72,-1760,-88,-691,156,80
7425,96,-1768,-96,-706,159,76
7430,120,-1696,0,-740,160,73
7435,88,-1752,-64,-749,163,79
7440,64,-1728,-40,-757,165,67
7445,80,-1704,-24,-777,168,61
7450,104,-1704,-40,-799,170,57
7455,96,-1696,-24,-819,174,53
7460,128,-1584,112,-879,177,60
7465,128,-1664,-80,-862,183,56
7470,144,-1624,-56,-864,185,45
7475,160,-1624,-40,-884,192,39
7480,184,-1592,-24,-904,197,31
7485,160,-1832,-160,-930,201,18
7490,152,-1344,104,-981,210,13
7495,136,-1512,-72,-919,231,2
7500,136,-1544,8,-921,246,-9
7505,168,-1568,32,-925,260,-21
7510,184,-1784,-96,-921,274,-30
7515,152,-1408,160,-942,288,-26
7520,160,-1520,16,-854,306,-35
7525,200,-1512,64,-793,313,-53
7530,112,-1664,-136,-757,324,-55
7535,168,-1368,168,-760,343,-23
7540,112,-1336,0,-650,359,-33
7545,112,-1384,-96,-566,356,-39
7550,120,-1280,-96,-540,356,-28
7555,88,-1312,-128,-482,364,-30
7560,144,-1352,-160,-411,367,-19
7565,208,-1424,-112,-340,377,-4
7570,56,-1432,-16,-236,406,10
7575,-56,-1408,104,-107,446,36
7580,8,-1432,240,40,466,64
7585,72,-1408,416,178,480,88
7590,104,-1408,464,308,488,102
7595,152,-1376,472,421,498,108
7600,232,-1328,352,508,514,109
7605,256,-1352,200,565,537,104
7610,144,-1432,128,594,576,83
7615,104,-1504,-8,594,611,54
7620,80,-1696,-176,557,639,13
7625,112,-1896,-288,481,666,-51
7630,160,-2120,-416,376,693,-148
7635,88,-2344,-512,262,733,-248
7640,72,-2512,-736,140,789,-342
7645,48,-2680,-896,-5,841,-448
7650,128,-2920,-1056,-157,894,-530
7655,80,-3184,-1296,-318,928,-609
7660,56,-3480,-1552,-494,946,-640
7665,24,-3776,-1784,-667,934,-641
7670,-24,-4016,-1960,-852,875,-624
7675,-88,-4312,-2144,-1034,790,-562
7680,-72,-4616,-2352,-1197,669,-470
7685,24,-4832,-2656,-1352,523,-363
7690,120,-4992,-3024,-1511,377,-247
7695,160,-5088,-3200,-1689,231,-123
7700,136,-5088,-3232,-1867,111,10
7705,136,-4936,-3080,-2031,2,130
7710,80,-4672,-2744,-2170,-119,205
7715,-48,-4472,-2408,-2303,-235,238
7720,-128,-4184,-1992,-2439,-319,257
7725,-88,-3880,-1536,-2578,-371,262
7730,-56,-3584,-1160,-2706,-405,221
7735,104,-3336,-824,-2808,-411,151
7740,200,-3128,-640,-2892,-380,72
7745,352,-2976,-424,-2964,-325,-9
7750,464,-2848,-360,-3031,-242,-77
7755,496,-2728,-304,-3093,-147,-129
7760,416,-2656,-376,-3151,-43,-163
7765,288,-2576,-336,-3201,58,-170
7770,216,-2552,-376,-3224,132,-161
7775,24,-2456,-376,-3218,181,-144
7780,-40,-2344,-448,-3170,211,-123
7785,-136,-2200,-536,-3087,222,-96
7790,-168,-2104,-600,-3000,221,-51
7795,-144,-2048,-568,-2928,219,14
7800,-168,-1872,-536,-2830,216,46
7805,-208,-1704,-544,-2698,194,65
7810,-176,-1568,-672,-2574,154,111
7815,-72,-1496,-672,-2489,123,175
7820,-16,-1416,-568,-2424,102,231
7825,40,-1264,-504,-2341,84,264
7830,48,-1120,-496,-2232,54,265
7835,80,-1008,-448,-2116,12,250
7840,112,-944,-520,-2017,-33,226
7845,144,-872,-560,-1952,-66,189
7850,144,-864,-592,-1916,-86,144
7855,176,-848,-536,-1903,-106,102
7860,160,-896,-560,-1902,-116,71
7865,208,-928,-512,-1906,-120,38
7870,200,-944,-496,-1916,-114,0
7875,184,-984,-472,-1905,-94,-35
7880,136,-984,-464,-1873,-70,-61
7885,120,-968,-488,-1818,-50,-62
7890,80,-976,-504,-1760,-35,-59
7895,128,-992,-608,-1702,-15,-38
7900,104,-1024,-648,-1643,6,-39
7905,112,-1008,-688,-1592,20,-59
7910,104,-976,-760,-1552,15,-89
7915,112,-848,-832,-1529,-6,-131
7920,56,-752,-936,-1506,-37,-173
7925,72,-624,-1040,-1503,-75,-204
7930,80,-576,-1208,-1518,-103,-234
7935,40,-440,-1280,-1515,-124,-253
7940,40,-504,-1376,-1516,-140,-235
7945,8,-600,-1344,-1564,-169,-224
7950,16,-696,-1312,-1639,-207,-224
7955,0,-728,-1152,-1719,-261,-231
7960,0,-896,-1200,-1750,-328,-213
7965,-40,-960,-1264,-1773,-397,-180
7970,-24,-1072,-1344,-1818,-456,-121
7975,0,-1256,-1400,-1895,-501,-59
7980,-16,-1192,-1336,-1979,-533,-10
7985,-8,-1160,-1264,-2016,-550,51
7990,88,-1136,-1224,-2019,-554,124
7995,136,-1088,-1144,-2009,-548,158
8000,216,-1016,-1128,-1983,-534,172
8005,200,-976,-1216,-1952,-516,138
8010,224,-752,-1224,-1947,-507,71
8015,200,-608,-1264,-1892,-494,34
8020,248,-608,-1496,-1772,-476,73
8025,336,-560,-1592,-1690,-438,121
8030,344,-536,-1648,-1687,-385,137
8035,432,-536,-1672,-1730,-317,141
8040,416,-584,-1648,-1800,-231,139
8045,392,-672,-1648,-1887,-130,146
8050,400,-712,-1584,-1985,-24,170
8055,408,-816,-1528,-2060,88,189
8060,384,-872,-1456,-2121,187,201
8065,312,-880,-1376,-2169,279,206
8070,352,-904,-1376,-2189,376,222
8075,328,-824,-1336,-2210,442,215
8080,296,-576,-1152,-2198,492,174
8085,152,-416,-1016,-2111,519,119
8090,8,-248,-992,-2015,501,64
8095,-16,-160,-952,-1967,435,20
8100,-72,-96,-1088,-1951,365,-21
8105,-120,-72,-1224,-1958,308,-41
8110,-136,-88,-1456,-1975,274,-51
8115,-168,-144,-1552,-1988,276,-59
8120,-240,-200,-1632,-1989,314,-61
8125,-280,-240,-1656,-1976,372,-47
8130,-360,-296,-1640,-1918,435,-41
8135,-472,-312,-1664,-1814,501,-43
8140,-504,-304,-1584,-1692,565,-40
8145,-512,-312,-1560,-1570,606,-42
8150,-520,-288,-1584,-1441,615,-40
8155,-464,-272,-1664,-1311,606,-43
8160,-464,-224,-1712,-1210,601,-40
8165,-376,-168,-1720,-1121,596,-17
8170,-320,-48,-1664,-1011,609,13
8175,-312,48,-1640,-880,637,61
8180,-264,200,-1664,-749,669,143
8185,-152,328,-1728,-644,708,251
8190,-56,344,-1760,-561,755,359
8195,104,392,-1800,-494,826,445
8200,216,448,-1808,-434,921,492
8205,248,568,-1760,-369,1027,503
8210,232,688,-1712,-299,1123,458
8215,216,776,-1680,-232,1177,368
8220,136,928,-1720,-176,1190,245
8225,96,992,-1840,-136,1185,125
8230,40,1040,-1928,-126,1174,41
8235,-40,968,-2000,-153,1166,-4
8240,-144,1040,-1952,-188,1167,-10
8245,-264,1000,-2008,-196,1171,10
8250,-312,840,-2136,-187,1163,54
8255,-360,696,-2296,-178,1147,106
8260,-400,608,-2320,-160,1134,162
8265,-416,512,-2304,-106,1143,213
8270,-344,432,-2296,-7,1181,252
8275,-376,416,-2176,150,1238,275
8280,-272,416,-2000,375,1305,295
8285,-264,352,-2072,676,1378,309
8290,-200,408,-2024,984,1458,324
8295,-120,432,-2032,1273,1542,345
8300,32,552,-1832,1509,1606,350
8305,8,648,-1744,1758,1668,321
8310,96,720,-1688,1966,1726,280
8315,168,832,-1712,2090,1799,234
8320,256,1000,-1632,2113,1906,201
8325,320,1136,-1552,2041,2055,178
8330,424,1224,-1448,1888,2234,167
8335,536,1256,-1368,1691,2436,180
8340,696,1184,-1216,1485,2642,219
8345,872,1136,-1160,1312,2826,268
8350,1024,1032,-1128,1176,2970,302
8355,1160,968,-1088,1060,3068,331
8360,1320,880,-1088,955,3149,350
8365,1480,792,-1016,869,3231,360
8370,1608,680,-960,802,3318,369
8375,1720,576,-832,743,3413,372
8380,1800,472,-848,737,3520,365
8385,1856,360,-856,741,3625,327
8390,1872,320,-952,739,3726,251
8395,1824,344,-1096,717,3816,144
8400,1712,304,-1264,662,3885,17
8405,1536,344,-1392,599,3919,-138
8410,1264,288,-1472,535,3938,-244
8415,1216,144,-1480,497,3987,-321
8420,1072,160,-1520,496,4028,-428
8425,1104,176,-1464,488,4032,-542
8430,776,192,-1184,439,4051,-624
8435,280,200,-1432,485,4052,-693
8440,80,320,-1560,468,4089,-726
8445,-64,432,-1496,337,4078,-725
8450,-296,384,-1448,201,3923,-711
8455,-352,352,-1576,109,3637,-654
8460,-128,336,-1728,22,3266,-557
8465,312,224,-1696,-74,2899,-483
8470,1064,320,-1488,-101,2572,-470
8475,2224,600,-1224,-28,2394,-574
8480,3336,912,-904,8,2534,-690
8485,3632,760,-1032,-97,2769,-677
8490,3720,384,-1096,-405,2860,-536
8495,3744,-112,-1088,-755,2892,-392
8500,4256,-576,-672,-999,3010,-297
8505,5376,-792,-976,-897,3180,-304
8510,7616,-968,-848,-947,3277,-171
8515,7352,-1648,-1120,-1252,3507,58
8520,7440,-1824,-960,-1367,3450,12
8525,7816,-1632,-1304,-1069,3060,-350
8530,8056,-1136,-2096,-571,2497,-902
8535,7856,-448,-2312,-189,2022,-1560
8540,7336,128,-2648,256,1783,-1913
8545,6600,488,-2968,808,1662,-2023
8550,5496,832,-3248,1405,1720,-1853
8555,4544,1000,-3296,1916,1848,-1413
8560,3856,1008,-2880,2243,1932,-823
8565,3312,976,-2256,2438,1912,-300
8570,2832,952,-1744,2502,1737,21
8575,2176,960,-1344,2415,1379,107
8580,1544,1128,-1016,2209,899,68
8585,1096,1336,-752,1860,350,-33
8590,456,1464,-592,1292,-196,-162
8595,16,1624,-448,505,-670,-231
8600,-552,1744,-144,-421,-940,-209
8605,-688,1680,280,-1318,-1024,-108
8610,-648,1504,688,-2054,-955,1
8615,-368,1088,960,-2524,-812,121
8620,264,552,1392,-2715,-682,192
8625,848,24,1824,-2584,-670,218
8630,1208,-264,1416,-2131,-760,210
8635,1456,-368,920,-1656,-891,202
8640,1608,-416,648,-1283,-978,222
8645,1752,-488,416,-956,-966,268
8650,1832,-512,144,-632,-857,334
8655,1840,-512,72,-318,-662,395
8660,1776,-472,48,-30,-429,436
8665,1704,-384,72,185,-213,457
8670,1560,-232,112,313,-47,470
8675,1536,-56,160,354,69,492
8680,1528,24,216,327,152,517
8685,1504,56,232,255,205,542
8690,1312,112,208,172,219,555
8695,1120,160,128,110,208,555
8700,1000,184,8,70,181,552
8705,936,216,-80,26,138,552
8710,920,176,-104,-38,87,553
8715,984,152,-176,-113,34,551
8720,992,160,-168,-194,-16,544
8725,1080,40,-224,-275,-81,532
8730,1184,-40,-224,-356,-152,518
8735,1264,-120,-272,-425,-221,501
8740,1328,-280,-360,-471,-270,487
8745,1584,-488,-416,-476,-294,478
8750,1752,-584,-504,-427,-302,446
8755,1872,-632,-520,-365,-300,393
8760,1976,-648,-552,-302,-284,336
8765,2160,-696,-600,-235,-268,289
8770,2272,-712,-664,-171,-256,252
8775,2392,-696,-712,-111,-272,220
8780,2496,-728,-704,-60,-316,191
8785,2448,-664,-856,29,-382,130
8790,2304,-632,-1024,88,-475,87
8795,2096,-608,-1224,117,-599,74
8800,2152,-568,-1320,109,-726,111
8805,2224,-544,-1216,57,-789,177
8810,2344,-528,-1240,51,-782,210
8815,2336,-488,-1240,74,-760,197
8820,2368,-408,-1256,81,-771,179
8825,2392,-384,-1272,69,-803,165
8830,2368,-352,-1272,37,-841,155
8835,2312,-344,-1320,1,-877,143
8840,2296,-336,-1328,-37,-901,126
8845,2248,-360,-1336,-82,-900,112
8850,2240,-384,-1304,-127,-869,97
8855,2176,-424,-1272,-160,-818,75
8860,2168,-440,-1216,-180,-765,47
8865,2104,-432,-1176,-189,-711,17
8870,2048,-432,-1144,-191,-648,-14
8875,2040,-416,-1112,-185,-603,-41
8880,1984,-384,-1080,-175,-561,-66
8885,1944,-400,-1064,-156,-522,-86
8890,1904,-368,-1048,-136,-485,-103
8895,1840,-336,-1040,-111,-451,-121
8900,1840,-352,-1024,-84,-412,-129
8905,1800,-296,-1032,-58,-372,-137
8910,1784,-328,-992,-33,-334,-143
8915,1688,-264,-928,-6,-299,-146
8920,1704,-248,-944,18,-268,-147
8925,1704,-208,-896,42,-245,-148
8930,1640,-192,-896,58,-233,-147
8935,1664,-200,-872,75,-228,-146
8940,1632,-192,-880,89,-229,-145
8945,1656,-168,-872,103,-233,-142
8950,1664,-144,-904,112,-236,-136
8955,1632,-96,-824,120,-234,-129
8960,1600,-136,-952,132,-234,-124
8965,1712,-80,-984,142,-238,-122
8970,1624,-88,-976,131,-211,-119
8975,1688,-16,-1088,127,-198,-115
8980,1624,-96,-1048,127,-196,-113
8985,1992,-16,-976,113,-167,-115
8990,1496,-176,-1040,73,-83,-107
8995,1528,-144,-1152,102,-100,-110
9000,1648,-120,-1064,104,-128,-116
9005,1744,-152,-1064,95,-111,-117
9010,1760,-112,-1128,94,-74,-121
9015,1760,-96,-1152,88,-43,-122
9020,1760,-24,-1168,83,-26,-118
9025,1824,-64,-1152,72,-18,-117
9030,1848,-8,-1168,57,-19,-120
9035,1856,-24,-1168,39,-22,-122
9040,1880,72,-1112,28,-26,-122
9045,1872,-32,-1176,25,-26,-118
9050,1896,-16,-1200,23,-25,-112
9055,1872,-8,-1168,20,-23,-105
9060,1912,-24,-1160,15,-23,-99
9065,1904,-72,-1096,9,-21,-92
9070,1912,-56,-1192,-2,-17,-82
9075,1928,-56,-1208,-15,-7,-75
9080,1920,-64,-1176,-25,7,-67
9085,1912,-112,-1176,-31,23,-59
9090,2008,-160,-1232,-32,44,-51
9095,1896,-64,-1128,-32,68,-46
9100,1936,-88,-1128,-32,94,-41
9105,1880,-112,-1136,-33,120,-37
9110,1864,-56,-1112,-30,142,-30
9115,1912,-96,-1104,-31,165,-23
9120,1864,-72,-1112,-33,185,-17
9125,1864,-56,-1104,-33,201,-11
9130,1824,-64,-1048,-39,218,-3
9135,1840,-64,-1080,-45,233,2
9140,1808,-40,-1048,-51,247,7
9145,1824,-136,-1024,-57,260,12
9150,1824,-96,-1024,-65,272,17
9155,1824,-96,-872,-68,282,22
9160,1832,-104,-976,-67,288,26
9165,1792,-128,-960,-65,290,31
9170,1784,-136,-968,-63,289,37
9175,1784,-152,-920,-61,287,40
9180,1768,-144,-896,-55,283,40
9185,1776,-192,-880,-48,276,44
9190,1768,-192,-888,-43,266,42
9195,1776,-208,-888,-37,254,41
9200,1784,-184,-888,-27,239,40
9205,1752,-192,-888,-17,226,39
9210,1784,-216,-872,-8,211,38
9215,1768,-192,-832,4,197,35
9220,1792,-176,-864,11,182,31
9225,1776,-200,-824,15,169,29
9230,1800,-200,-840,19,157,25
9235,1776,-184,-872,24,147,21
9240,1784,-192,-896,25,140,17
9245,1792,-176,-896,26,131,13
9250,1816,-176,-872,27,126,8
9255,1800,-184,-888,25,120,3
9260,1808,-184,-872,26,113,-3
9265,1824,-208,-888,27,107,-8
9270,1824,-192,-872,29,101,-12
9275,1824,-192,-824,31,92,-18
9280,1808,-176,-880,34,84,-24
9285,1824,-160,-856,35,72,-27
9290,1808,-160,-896,36,62,-30
9295,1832,-144,-856,38,51,-36
9300,1832,-160,-888,39,39,-40
9305,1840,-152,-896,38,30,-40
9310,1832,-152,-896,37,17,-43
9315,1808,-128,-888,35,4,-45
9320,1904,-136,-848,33,-9,-44
9325,1784,-136,-888,33,-21,-42
9330,1800,-128,-872,32,-34,-41
9335,1816,-144,-896,33,-45,-40
9340,1800,-96,-904,34,-56,-39
9345,1776,-112,-920,34,-67,-38
9350,1848,-152,-968,34,-76,-39
9355,1816,-136,-920,33,-85,-38
9360,1816,-136,-936,32,-92,-38
9365,1816,-112,-936,29,-95,-38
9370,1816,-104,-936,30,-98,-36
9375,1816,-88,-920,29,-98,-35
9380,1808,-112,-936,29,-98,-32
9385,1824,-96,-928,30,-99,-31
9390,1816,-104,-968,29,-100,-30
9395,1832,-128,-944,31,-101,-27
9400,1840,-120,-960,34,-102,-25
9405,1816,-120,-960,37,-102,-22
9410,1816,-112,-984,40,-102,-21
9415,1840,-104,-928,42,-102,-18
9420,1848,-144,-952,42,-104,-16
9425,1792,-112,-992,41,-106,-17
9430,1824,-136,-1000,41,-106,-17
9435,1808,-64,-992,42,-106,-15
9440,1816,-136,-984,40,-105,-16
9445,1832,-144,-984,39,-104,-18
9450,1800,-120,-1024,39,-102,-18
9455,1840,-136,-984,39,-98,-19
9460,1824,-120,-1024,39,-90,-21
9465,1856,-136,-1016,40,-82,-23
9470,1840,-136,-1016,41,-71,-24
9475,1840,-128,-1056,44,-59,-23
9480,1832,-144,-1032,46,-47,-25
9485,1840,-152,-992,47,-35,-25
9490,1824,-136,-992,48,-25,-25
9495,1840,-120,-1040,49,-15,-25
9500,1808,-120,-984,49,-7,-25
9505,1824,-120,-1008,50,3,-25
9510,1840,-120,-992,51,11,-26
9515,1824,-88,-1000,51,17,-26
9520,1808,-96,-1008,49,23,-26
9525,1824,-112,-976,50,30,-25
9530,1776,-104,-992,49,34,-25
9535,1792,-112,-1008,48,38,-25
9540,1824,-136,-1000,50,44,-23
9545,1824,-128,-1000,50,47,-24
9550,1800,-128,-960,52,51,-23
9555,1808,-128,-984,52,51,-23
9560,1824,-104,-968,53,55,-23
9565,1808,-120,-1000,57,58,-22
9570,1808,-80,-1000,57,59,-20
9575,1816,-104,-960,58,59,-21
9580,1816,-96,-1000,58,61,-18
9585,1840,-96,-1008,58,64,-15
9590,1848,-104,-992,58,66,-12
9595,1800,-96,-944,59,67,-10
9600,1800,-120,-968,58,69,-8
9605,1800,-104,-976,58,71,-6
9610,1824,-104,-920,57,71,-4
9615,1832,-96,-984,53,70,-3
9620,1800,-112,-992,49,70,-2
9625,1824,-96,-968,46,70,-4
9630,1784,-112,-960,44,69,-5
9635,1816,-128,-952,44,67,-6
9640,1816,-120,-968,44,64,-6
9645,1816,-128,-960,45,61,-7
9650,1824,-136,-944,46,57,-6
9655,1800,-112,-960,46,56,-6
9660,1792,-112,-952,46,54,-5
9665,1824,-136,-952,45,52,-4
9670,1808,-128,-904,45,51,-4
9675,1800,-144,-928,45,49,-2
9680,1792,-104,-960,45,48,-4
9685,1824,-144,-944,46,46,-5
9690,1808,-152,-960,46,45,-6
9695,1800,-128,-944,48,44,-5
9700,1872,-104,-1016,50,42,-3
9705,1824,-136,-952,51,40,-5
9710,1824,-120,-976,50,39,-6
9715,1808,-104,-944,49,35,-5
9720,1832,-112,-944,48,32,-4
9725,1800,-120,-920,47,27,-4
9730,1840,-128,-960,45,23,-4
9735,1824,-128,-904,45,18,-4
9740,1816,-136,-960,44,15,-5
9745,1816,-112,-936,45,10,-7
9750,1808,-136,-944,46,4,-7
9755,1800,-120,-952,47,-1,-7
9760,1816,-128,-936,48,-4,-8
9765,1824,-136,-976,49,-7,-10
9770,1816,-136,-968,50,-10,-11
9775,1792,-120,-976,49,-12,-12
9780,1816,-112,-936,47,-12,-14
9785,1816,-112,-968,48,-15,-14
9790,1800,-128,-960,48,-14,-16
9795,1816,-104,-968,47,-14,-17
9800,1816,-120,-984,47,-14,-17
9805,1808,-120,-992,48,-15,-18
9810,1784,-112,-992,48,-15,-18
9815,1840,-112,-976,45,-15,-20
9820,1832,-120,-976,45,-14,-22
9825,1840,-144,-992,47,-13,-23
9830,1832,-128,-952,46,-12,-22
9835,1832,-136,-968,47,-11,-21
9840,1816,-120,-984,47,-12,-19
9845,1816,-120,-976,48,-10,-19
9850,1840,-120,-944,48,-11,-19
9855,1824,-112,-976,48,-11,-20
9860,1832,-120,-952,50,-11,-19
9865,1840,-104,-1016,48,-10,-17
9870,1832,-112,-984,50,-9,-16
9875,1808,-104,-1008,50,-7,-16
9880,1800,-120,-968,51,-4,-15
9885,1824,-152,-976,51,0,-16
9890,1824,-104,-1000,50,2,-17
9895,1824,-112,-992,50,5,-15
9900,1824,-128,-976,50,8,-16
9905,1800,-136,-960,48,12,-15
9910,1824,-112,-976,48,15,-14
9915,1808,-120,-976,48,18,-14
9920,1792,-128,-960,49,21,-14
9925,1832,-120,-1008,49,23,-15
9930,1800,-104,-968,47,24,-13
9935,1840,-128,-984,46,24,-11
9940,1816,-136,-984,44,23,-10
9945,1824,-88,-984,42,24,-9
9950,1824,-112,-992,43,24,-7
9955,1824,-112,-984,44,24,-8
9960,1832,-120,-968,45,24,-7
9965,1808,-136,-968,45,23,-7
9970,1816,-112,-968,47,23,-7
9975,1792,-112,-976,47,23,-8
9980,1816,-112,-960,47,22,-8
9985,1824,-144,-968,47,24,-7
9990,1816,-104,-984,47,23,-4
9995,1840,-144,-952,47,24,-5
10000,1792,-104,-984,48,25,-4
10005,1832,-104,-976,50,26,-4
10010,1816,-88,-976,50,26,-4
10015,1840,-104,-984,51,28,-2
10020,1824,-112,-960,52,30,-1
10025,1816,-104,-1000,50,31,-2
10030,1880,-80,-944,50,31,0
10035,1824,-104,-952,49,31,-1
10040,1824,-136,-960,47,32,0
10045,1832,-120,-952,44,33,0
10050,1800,-128,-936,42,31,-1
10055,1824,-112,-960,40,30,1
10060,1816,-112,-960,40,28,1
10065,1800,-104,-960,40,27,1
10070,1824,-144,-952,38,26,1
10075,1792,-128,-944,39,26,0
10080,1752,-160,-968,37,23,0
10085,1792,-128,-944,37,20,-2
10090,1840,-136,-944,36,19,-5
10095,1824,-152,-960,37,17,-4
10100,1824,-112,-960,40,14,-5
10105,1832,-128,-960,43,12,-6
10110,1816,-120,-968,46,12,-7
10115,1824,-112,-968,48,11,-7
10120,1808,-112,-968,49,13,-10
10125,1824,-128,-960,49,15,-12
10130,1808,-136,-968,48,16,-14
10135,1824,-128,-936,47,17,-14
10140,1824,-136,-968,43,15,-13
10145,1824,-96,-952,44,15,-16
10150,1824,-128,-936,42,14,-16
10155,1816,-112,-952,41,13,-15
10160,1824,-120,-920,42,13,-14
10165,1832,-128,-984,41,12,-14
10170,1816,-96,-952,43,12,-13
10175,1832,-104,-944,43,11,-14
10180,1824,-112,-976,44,9,-14
10185,1840,-128,-968,42,11,-12
10190,1840,-120,-976,43,16,-12
10195,1848,-136,-952,44,17,-9
10200,1808,-128,-968,46,15,-10
10205,1832,-112,-968,47,12,-10
10210,1816,-112,-976,47,10,-10
10215,1800,-104,-968,49,10,-10
10220,1816,-120,-976,50,10,-9
10225,1816,-112,-968,49,10,-9
10230,1832,-112,-992,50,10,-10
10235,1808,-120,-976,49,12,-11
10240,1816,-112,-992,50,12,-10
10245,1704,-96,-1048,48,14,-11
10250,1832,-104,-944,48,18,-9
10255,1816,-104,-984,47,21,-9
10260,1832,-136,-984,46,23,-10
10265,1832,-112,-936,45,26,-12
10270,1832,-88,-1000,45,28,-12
10275,1808,-104,-960,44,29,-12
10280,1824,-120,-968,45,31,-13
10285,1832,-128,-960,45,33,-13
10290,1832,-120,-976,45,35,-14
10295,1808,-128,-976,45,36,-13
10300,1832,-120,-976,46,40,-13
10305,1832,-120,-960,42,44,-13
10310,1816,-104,-976,42,43,-12
10315,1840,-136,-944,41,40,-13
10320,1824,-120,-968,41,39,-15
10325,1816,-120,-976,39,36,-14
10330,1800,-112,-952,38,32,-14
10335,1816,-120,-920,36,27,-15
10340,1816,-112,-936,36,22,-15
10345,1800,-112,-968,34,13,-17
10350,1832,-112,-920,32,8,-16
10355,1808,-136,-928,32,3,-17
10360,1824,-112,-944,34,1,-18
10365,1832,-104,-944,35,-4,-18
10370,1832,-128,-944,36,-5,-20
10375,1840,-120,-968,37,-7,-17
10380,1832,-112,-1000,38,-7,-18
10385,1848,-120,-960,42,-7,-18
10390,1816,-104,-952,44,-4,-16
10395,1840,-120,-984,48,-3,-16
10400,1864,-128,-976,52,-1,-15
10405,1824,-88,-952,53,2,-15
10410,1896,-128,-952,54,4,-14
10415,1832,-128,-992,56,8,-15
10420,1816,-104,-952,55,11,-15
10425,1808,-88,-944,56,12,-16
10430,1808,-112,-936,53,13,-16
10435,1824,-120,-960,52,16,-14
10440,1848,-80,-976,50,16,-14
10445,1832,-144,-960,48,15,-15
10450,1808,-96,-936,45,16,-15
10455,1816,-96,-944,45,16,-13
10460,1792,-96,-1000,45,14,-13
10465,1816,-144,-960,44,12,-13
10470,1824,-112,-952,44,10,-13
10475,1824,-104,-952,44,8,-14
10480,1816,-112,-984,43,8,-12
10485,1816,-104,-976,44,7,-12
10490,1824,-112,-944,44,5,-11
10495,1824,-120,-936,44,6,-11
10500,1840,-120,-960,44,6,-10
10505,1832,-96,-952,45,5,-9
10510,1808,-112,-992,46,6,-9
10515,1816,-80,-960,45,7,-7
10520,1808,-112,-976,47,9,-8
10525,1816,-120,-968,48,10,-7
10530,1840,-128,-976,48,12,-6
10535,1840,-112,-984,49,15,-6
10540,1832,-96,-968,50,15,-6
10545,1832,-112,-976,52,17,-6
10550,1808,-120,-968,50,18,-6
10555,1808,-104,-936,50,19,-8
10560,1832,-112,-960,50,19,-7
10565,1808,-88,-968,50,21,-8
10570,1808,-104,-960,48,22,-8
10575,1864,-72,-936,49,22,-7
10580,1792,-104,-1000,49,21,-4
10585,1816,-120,-944,50,22,-4
10590,1824,-96,-968,50,23,-4
10595,1808,-120,-944,52,22,-4
10600,1832,-128,-968,53,22,-5
10605,1824,-120,-944,54,21,-6
10610,1832,-112,-960,55,19,-5
10615,1824,-120,-960,57,18,-4
10620,1808,-112,-976,59,18,-4
10625,1824,-120,-960,61,17,-6
10630,1840,-120,-960,60,14,-9
10635,1816,-152,-968,62,9,-8
10640,1832,-96,-992,63,8,-9
10645,1816,-128,-968,62,8,-11
10650,1832,-88,-968,61,8,-9
10655,1832,-96,-968,59,9,-9
10660,1832,-136,-968,58,9,-9
10665,1800,-112,-968,56,10,-8
10670,1824,-112,-944,55,11,-7
10675,1816,-104,-976,55,12,-9
10680,1816,-96,-920,57,13,-10
10685,1848,-112,-968,57,15,-9
10690,1832,-120,-928,56,15,-11
10695,1824,-120,-968,55,16,-11
10700,1824,-128,-968,55,18,-12
10705,1816,-136,-968,54,19,-13
10710,1800,-72,-952,53,19,-13
10715,1800,-120,-976,53,19,-13
10720,1824,-128,-968,53,20,-14
10725,1800,-112,-960,53,18,-13
10730,1800,-96,-944,51,17,-13
10735,1808,-112,-944,53,13,-13
10740,1832,-136,-920,52,11,-15
10745,1816,-120,-944,51,9,-14
10750,1808,-112,-992,51,8,-14
10755,1800,-112,-968,51,8,-14
10760,1832,-136,-952,50,7,-15
10765,1840,-112,-984,50,7,-16
10770,1824,-112,-952,51,7,-14
10775,1824,-120,-976,51,8,-15
10780,1848,-112,-928,50,9,-16
10785,1808,-104,-976,52,10,-16
10790,1824,-80,-968,51,12,-16
10795,1816,-112,-968,51,11,-17
10800,1832,-112,-976,51,10,-16
10805,1808,-112,-952,50,12,-17
10810,1824,-104,-944,49,12,-15
10815,1832,-120,-960,49,13,-14
10820,1832,-88,-984,50,13,-17
10825,1832,-88,-960,49,15,-15
10830,1800,-128,-960,50,14,-16
10835,1824,-112,-944,50,15,-15
10840,1832,-104,-968,50,15,-16
10845,1816,-88,-984,50,13,-14
10850,1824,-88,-968,49,13,-12
10855,1800,-88,-968,50,12,-15
10860,1800,-96,-944,50,12,-13
10865,1800,-96,-944,51,12,-12
10870,1832,-112,-968,51,12,-12
10875,1808,-104,-992,50,12,-13
10880,1816,-112,-928,50,12,-14
10885,1824,-136,-992,48,12,-13
10890,1824,-88,-960,48,13,-14
10895,1824,-136,-968,49,13,-14
10900,1808,-104,-920,50,14,-15
10905,1816,-80,-952,51,15,-13
10910,1808,-96,-968,51,16,-13
10915,1808,-88,-1000,50,18,-13
10920,1824,-80,-984,48,19,-12
10925,1824,-80,-968,48,19,-11
10930,1824,-112,-992,47,19,-9
10935,1832,-112,-960,46,21,-9
10940,1808,-104,-944,46,20,-10
10945,1832,-112,-960,46,20,-8
10950,1824,-120,-936,46,20,-8
10955,1760,-104,-952,44,19,-9
10960,1824,-136,-928,45,20,-10
10965,1800,-120,-952,43,21,-11
10970,1816,-120,-944,41,21,-10
10975,1816,-144,-976,42,20,-12
10980,1800,-104,-968,45,19,-11
10985,1808,-88,-992,48,20,-10
10990,1832,-88,-976,49,20,-10
10995,1832,-136,-936,48,20,-12
11000,1816,-88,-952,48,20,-11
11005,1824,-104,-984,45,21,-10
11010,1816,-96,-960,44,21,-11
11015,1824,-104,-968,43,21,-11
11020,1840,-104,-960,43,21,-11
11025,1824,-104,-960,41,21,-12
11030,1832,-112,-960,40,21,-11
11035,1824,-112,-952,39,23,-10
11040,1832,-112,-960,38,22,-10
11045,1848,-104,-952,38,23,-10
11050,1816,-120,-952,40,24,-9
11055,1816,-128,-952,38,24,-7
11060,1816,-120,-976,38,23,-10
11065,1832,-96,-928,39,19,-8
11070,1800,-88,-984,39,16,-8
11075,1816,-128,-968,40,14,-7
11080,1832,-112,-928,41,14,-8
11085,1808,-120,-944,43,11,-9
11090,1824,-104,-968,45,12,-9
11095,1840,-120,-976,47,11,-8
11100,1824,-128,-976,48,11,-8
11105,1848,-128,-952,49,11,-7
11110,1848,-112,-968,50,11,-10
11115,1824,-120,-952,51,12,-10
11120,1832,-120,-960,51,12,-10
11125,1824,-104,-976,50,13,-8
11130,1816,-96,-952,49,12,-6
11135,1816,-96,-944,50,12,-6
11140,1832,-112,-960,50,12,-8
11145,1824,-112,-960,48,14,-10
11150,1808,-112,-944,48,14,-9
11155,1816,-144,-960,48,14,-10
11160,1832,-120,-960,46,14,-12
11165,1848,-112,-960,46,13,-13
11170,1840,-120,-960,45,11,-13
11175,1808,-88,-952,43,12,-12
11180,1824,-88,-960,42,10,-14
11185,1808,-104,-936,39,9,-15
11190,1816,-88,-936,38,8,-14
11195,1808,-112,-960,36,8,-16
11200,1816,-104,-960,36,7,-16
11205,1832,-104,-968,36,8,-14
11210,1816,-104,-960,36,8,-13
11215,1784,-96,-968,37,9,-13
11220,1824,-112,-944,37,9,-13
11225,1848,-80,-952,37,9,-13
11230,1848,-120,-944,37,11,-12
11235,1832,-104,-968,38,12,-11
11240,1824,-88,-944,38,14,-10
11245,1816,-112,-960,38,14,-8
11250,1832,-96,-944,37,16,-8
11255,1808,-96,-944,36,18,-8
11260,1832,-104,-968,35,19,-7
11265,1816,-120,-968,35,19,-6
11270,1800,-88,-968,35,19,-5
11275,1824,-120,-920,35,19,-5
11280,1808,-112,-960,35,20,-3
11285,1824,-88,-960,35,21,-4
11290,1816,-112,-968,33,22,-4
11295,1816,-96,-960,33,22,-3
11300,1792,-88,-952,32,23,-2
11305,1816,-104,-976,33,22,-3
11310,1816,-120,-984,31,24,-3
11315,1832,-112,-992,31,23,-3
11320,1832,-120,-960,31,24,-4
11325,1808,-120,-936,31,23,-5
11330,1800,-112,-920,31,23,-6
11335,1824,-104,-944,29,24,-7
11340,1824,-88,-968,27,23,-6
11345,1816,-120,-944,26,22,-10
11350,1808,-104,-944,25,22,-10
11355,1808,-96,-968,23,23,-8
11360,1816,-120,-968,22,23,-11
11365,1808,-88,-952,20,25,-10
11370,1824,-88,-968,19,26,-12
11375,1824,-104,-936,18,26,-12
11380,1824,-104,-960,18,26,-11
11385,1808,-80,-960,17,26,-11
11390,1816,-104,-968,15,27,-10
11395,1832,-96,-952,16,25,-10
11400,1808,-80,-968,16,26,-10
11405,1832,-104,-976,17,26,-9
11410,1832,-104,-968,18,23,-7
11415,1832,-104,-928,19,22,-6
11420,1848,-112,-976,16,22,-6
11425,1832,-128,-960,15,20,-6
11430,1792,-112,-944,17,18,-8
11435,1816,-112,-952,19,16,-9
11440,1792,-112,-960,20,14,-8
11445,1824,-104,-960,20,12,-6
11450,1840,-128,-984,20,12,-9
11455,1840,-112,-944,21,11,-10
11460,1824,-88,-944,24,11,-13
11465,1816,-112,-976,23,11,-14
11470,1840,-88,-968,23,12,-14
11475,1808,-104,-968,24,12,-13
11480,1832,-112,-944,25,10,-12
11485,1848,-104,-952,26,9,-13
11490,1816,-112,-984,25,7,-14
11495,1824,-128,-976,26,5,-15
11500,1816,-112,-952,28,3,-14
11505,1832,-88,-952,29,2,-15
11510,1816,-112,-952,30,2,-14
11515,1832,-104,-936,29,2,-15
11520,1840,-112,-960,29,2,-15
11525,1824,-96,-976,30,3,-16
11530,1824,-104,-968,31,3,-16
11535,1840,-88,-960,32,2,-15
11540,1840,-112,-952,33,2,-13
11545,1840,-88,-960,35,2,-14
11550,1824,-96,-992,37,1,-12
11555,1824,-112,-944,37,1,-13
11560,1824,-120,-952,38,0,-12
11565,1816,-64,-952,40,1,-14
11570,1832,-88,-984,39,1,-15
11575,1848,-112,-952,38,0,-13
11580,1824,-72,-984,40,0,-14
11585,1824,-88,-976,40,0,-15
11590,1840,-152,-1000,40,-1,-14
11595,1784,-72,-960,39,-4,-15
11600,1816,-88,-952,39,-3,-12
11605,1808,-64,-952,39,-5,-11
11610,1824,-80,-936,38,-7,-11
11615,1824,-96,-976,39,-8,-11
11620,1816,-80,-976,37,-9,-13
11625,1808,-72,-952,35,-9,-11
11630,1808,-104,-968,31,-8,-11
11635,1824,-88,-968,29,-8,-11
11640,1800,-64,-936,26,-9,-14
11645,1800,-56,-968,25,-9,-13
11650,1800,-112,-1000,25,-7,-13
11655,1824,-112,-960,25,-6,-13
11660,1824,-80,-976,25,-6,-14
11665,1832,-104,-968,27,-4,-12
11670,1840,-104,-960,29,-1,-14
11675,1832,-96,-944,29,1,-15
11680,1832,-80,-968,29,1,-15
11685,1816,-104,-968,29,5,-14
11690,1824,-104,-1008,30,5,-14
11695,1832,-104,-992,31,6,-14
11700,1824,-80,-992,32,10,-17
11705,1816,-96,-984,30,12,-16
11710,1824,-112,-992,28,10,-15
11715,1832,-104,-976,29,11,-13
11720,1848,-104,-976,30,12,-11
11725,1816,-104,-944,30,13,-10
11730,1840,-104,-960,32,14,-10
11735,1832,-88,-952,33,14,-9
11740,1808,-96,-968,33,14,-9
11745,1808,-80,-960,34,13,-11
11750,1840,-80,-936,32,12,-10
11755,1816,-104,-984,33,9,-8
11760,1824,-104,-928,34,9,-8
11765,1816,-72,-1000,36,7,-11
11770,1816,-88,-960,36,8,-10
11775,1848,-104,-976,35,8,-10
11780,1824,-96,-976,38,9,-9
11785,1824,-96,-984,39,11,-9
11790,1816,-80,-1000,40,13,-10
11795,1824,-96,-984,41,16,-6
11800,1840,-96,-920,41,16,-6
11805,1816,-96,-968,42,16,-6
11810,1824,-88,-944,43,15,-5
11815,1808,-96,-984,41,16,-6
11820,1800,-64,-928,42,16,-7
11825,1824,-104,-992,40,13,-11
11830,1808,-80,-936,36,11,-12
11835,1800,-88,-944,37,11,-13
11840,1800,-88,-968,34,8,-15
11845,1808,-96,-952,32,5,-18
11850,1808,-104,-984,32,2,-18
11855,1816,-88,-960,34,0,-19
11860,1832,-104,-992,35,-2,-20
11865,1816,-72,-960,35,-2,-20
11870,1808,-96,-952,34,-3,-22
11875,1824,-80,-1008,33,-3,-21
11880,1816,-80,-960,33,-3,-23
11885,1808,-80,-984,31,-3,-26
11890,1808,-96,-960,30,-1,-26
11895,1848,-88,-984,29,-1,-27
11900,1816,-72,-984,29,2,-28
11905,1808,-88,-952,29,2,-27
11910,1816,-72,-960,30,2,-25
11915,1824,-72,-968,33,3,-23
11920,1832,-64,-992,33,3,-23
11925,1832,-64,-928,36,4,-20
11930,1816,-72,-968,38,5,-19
11935,1824,-88,-968,39,5,-18
11940,1800,-64,-960,41,4,-16
11945,1824,-72,-960,42,4,-12
11950,1824,-104,-952,45,2,-10
11955,1840,-64,-960,46,2,-11
11960,1832,-88,-952,47,1,-10
11965,1824,-56,-984,49,1,-8
11970,1816,-88,-960,48,-1,-10
11975,1832,-80,-984,45,-3,-11
11980,1824,-88,-944,46,-4,-9
11985,1808,-88,-984,45,-4,-10
11990,1824,-80,-1000,44,-2,-9
11995,1832,-88,-976,42,-2,-11
12000,1832,-72,-976,41,-2,-9
12005,1808,-56,-944,41,-2,-10
12010,1808,-72,-984,40,-2,-11
12015,1832,-96,-952,38,-1,-9
12020,1816,-64,-960,38,1,-9
12025,1816,-96,-976,38,2,-11
12030,1800,-80,-984,37,4,-10
12035,1824,-96,-968,38,5,-10
12040,1848,-72,-992,37,4,-11
12045,1848,-88,-944,36,6,-12
12050,1824,-80,-976,35,7,-13
12055,1816,-64,-984,34,6,-14
12060,1832,-80,-968,35,7,-16
12065,1824,-88,-992,34,10,-13
12070,1808,-64,-984,34,8,-14
12075,1824,-88,-992,35,9,-13
12080,1816,-64,-992,37,10,-17
12085,1824,-64,-992,35,10,-16
12090,1824,-96,-920,34,11,-14
12095,1832,-120,-984,35,10,-14
12100,1808,-96,-992,36,10,-12
12105,1800,-72,-960,36,10,-14
12110,1824,-80,-960,35,11,-13
12115,1840,-88,-968,36,10,-13
12120,1840,-96,-968,36,10,-15
12125,1808,-80,-960,36,11,-15
12130,1832,-88,-984,34,11,-17
12135,1808,-104,-976,37,13,-16
12140,1800,-96,-952,37,13,-18
12145,1824,-80,-960,38,12,-18
12150,1824,-88,-952,39,10,-17
12155,1840,-80,-984,39,10,-17
12160,1808,-56,-984,40,10,-17
12165,1840,-80,-976,39,8,-17
12170,1832,-96,-976,40,8,-14
12175,1808,-64,-984,40,7,-14
12180,1824,-80,-992,41,8,-14
12185,1832,-80,-968,41,7,-14
12190,1848,-96,-952,40,7,-14
12195,1832,-80,-968,41,8,-14
12200,1824,-104,-960,42,10,-13
12205,1840,-72,-984,43,8,-11
12210,1824,-72,-976,44,8,-12
12215,1824,-72,-992,45,7,-11
12220,1808,-80,-968,44,6,-12
12225,1832,-88,-1000,47,4,-9
12230,1808,-64,-984,47,5,-9
12235,1816,-96,-936,48,5,-8
12240,1832,-64,-960,47,3,-9
12245,1816,-64,-984,48,4,-10
12250,1824,-56,-976,45,4,-10
12255,1816,-40,-976,44,3,-11
12260,1808,-72,-976,45,2,-12
12265,1816,-96,-976,45,3,-12
12270,1808,-56,-1000,44,3,-12
12275,1816,-64,-968,43,3,-14
12280,1816,-40,-944,44,3,-12
12285,1832,-80,-1008,42,4,-11
12290,1824,-64,-992,42,4,-13
12295,1816,-56,-968,43,7,-11
12300,1808,-72,-944,43,7,-11
12305,1824,-72,-984,42,7,-11
12310,1824,-72,-976,43,9,-10
12315,1840,-80,-976,43,9,-10
12320,1816,-80,-968,43,9,-10
12325,1800,-88,-944,43,10,-11
12330,1816,-80,-960,43,9,-12
12335,1800,-80,-976,41,10,-12
12340,1824,-64,-984,43,12,-12
12345,1808,-56,-968,43,11,-12
12350,1824,-72,-968,42,10,-12
12355,1800,-80,-968,42,8,-12
12360,1816,-96,-984,41,8,-13
12365,1816,-80,-984,42,7,-14
12370,1816,-72,-952,41,8,-13
12375,1800,-64,-968,41,7,-14
12380,1792,-72,-968,40,7,-13
12385,1800,-88,-960,39,7,-13
12390,1824,-96,-960,37,7,-14
12395,1808,-80,-1000,35,8,-16
12400,1840,-72,-968,33,9,-16
12405,1824,-64,-944,30,8,-14
12410,1816,-80,-968,29,8,-13
12415,1808,-48,-960,26,10,-14
12420,1816,-104,-976,24,11,-19
12425,1824,-72,-968,24,7,-23
12430,1824,-72,-960,23,4,-22
12435,1848,-64,-984,24,3,-23
12440,1824,-72,-936,19,4,-25
12445,1816,-80,-976,16,5,-25
12450,1816,-64,-944,16,4,-24
12455,1808,-72,-960,17,2,-24
12460,1824,-64,-952,15,-2,-23
12465,1832,-64,-984,15,-3,-20
12470,1808,-56,-984,17,-4,-19
12475,1800,-64,-976,20,-4,-17
12480,1816,-24,-952,19,-6,-16
12485,1808,-64,-1000,18,-5,-15
12490,1832,-56,-1000,17,-5,-13
12495,1840,-88,-984,17,-5,-13
12500,1808,-88,-944,18,-7,-16
12505,1808,-56,-976,18,-7,-15
12510,1816,-56,-968,17,-4,-16
12515,1792,-40,-992,19,-4,-17
12520,1800,-64,-1000,21,-2,-16
12525,1808,-72,-1000,19,2,-17
12530,1800,-56,-1000,17,5,-15
12535,1816,-80,-944,16,7,-13
12540,1816,-56,-960,19,10,-12
12545,1824,-48,-1008,21,12,-11
12550,1816,-72,-968,21,14,-10
12555,1832,-104,-1000,21,12,-9
12560,1816,-80,-960,21,10,-8
12565,1816,-72,-976,23,9,-8
12570,1816,-88,-1000,25,9,-9
12575,1800,-56,-976,23,4,-9
12580,1808,-64,-992,21,1,-10
12585,1800,-80,-952,21,0,-12
12590,1808,-64,-968,20,0,-14
12595,1800,-64,-1000,20,0,-14
12600,1768,-32,-968,20,-2,-16
12605,1808,-72,-984,21,-2,-16
12610,1808,-80,-976,22,-3,-13
12615,1816,-56,-1000,24,-4,-15
12620,1800,-80,-976,25,-2,-15
12625,1816,-64,-976,26,-3,-16
12630,1816,-64,-968,26,-2,-20
12635,1824,-48,-1000,27,0,-20
12640,1808,-48,-992,29,2,-21
12645,1840,-80,-984,33,6,-22
12650,1816,-88,-1000,35,7,-23
12655,1832,-64,-984,36,8,-24
12660,1816,-48,-1008,39,9,-23
12665,1824,-72,-1008,41,7,-22
12670,1808,-40,-968,43,6,-20
12675,1832,-80,-992,43,6,-19
12680,1784,-64,-960,46,5,-19
12685,1808,-64,-992,49,4,-15
12690,1832,-88,-976,52,7,-16
12695,1800,-64,-992,53,7,-13
12700,1824,-56,-984,53,8,-13
12705,1824,-72,-1000,53,9,-11
12710,1800,-48,-984,55,11,-10
12715,1808,-32,-1008,53,11,-11
12720,1824,-64,-976,52,11,-11
12725,1816,-64,-968,53,12,-11
12730,1808,-32,-968,53,13,-10
12735,1800,-64,-984,52,13,-12
12740,1816,-64,-944,50,12,-13
12745,1808,-56,-968,50,11,-14
12750,1816,-64,-920,48,11,-13
12755,1840,-56,-1000,48,11,-13
12760,1824,-64,-984,47,11,-13
12765,1840,-56,-1008,46,11,-14
12770,1832,-24,-1008,46,13,-12
12775,1808,-48,-1008,47,12,-13
12780,1808,-64,-976,47,12,-14
12785,1816,-48,-984,45,11,-14
12790,1800,-40,-1000,45,13,-14
12795,1808,-48,-1008,46,13,-14
12800,1832,-72,-976,48,13,-14
12805,1808,-56,-992,48,16,-13
12810,1832,-40,-1000,49,16,-14
12815,1840,-24,-976,50,18,-12
12820,1840,-64,-992,52,19,-11
12825,1808,-72,-984,51,20,-10
12830,1816,-56,-984,51,20,-9
12835,1824,-56,-976,52,20,-8
12840,1792,-56,-992,52,21,-9
12845,1800,-48,-968,52,20,-8
12850,1824,-64,-944,51,18,-8
12855,1808,-40,-976,52,18,-7
12860,1824,-56,-992,53,17,-6
12865,1792,-48,-1008,55,17,-6
12870,1816,-72,-976,54,18,-9
12875,1824,-80,-992,54,20,-7
12880,1816,-56,-968,56,19,-8
12885,1824,-56,-992,54,19,-7
12890,1816,-48,-984,56,20,-6
12895,1784,-56,-984,57,20,-6
12900,1816,-64,-1000,56,20,-6
12905,1816,-88,-1016,56,21,-5
12910,1808,-48,-1008,58,22,-5
12915,1920,-48,-984,58,22,-7
12920,1808,-56,-1008,58,25,-6
12925,1800,-80,-984,60,26,-7
12930,1808,-64,-984,61,28,-9
12935,1816,-72,-1000,61,31,-7
12940,1816,-64,-992,63,31,-9
12945,1800,-64,-1000,61,33,-10
12950,1800,-64,-968,63,33,-12
12955,1816,-96,-984,65,35,-15
12960,1792,-80,-976,66,36,-18
12965,1792,-72,-992,66,36,-17
12970,1800,-80,-1016,65,37,-18
12975,1832,-72,-992,64,39,-18
12980,1808,-40,-1000,65,41,-20
12985,1800,-64,-968,65,41,-21
12990,1808,-72,-992,66,41,-22
12995,1816,-72,-960,66,41,-23
13000,1800,-56,-976,64,44,-21
13005,1848,-72,-984,63,44,-19
13010,1800,-24,-968,63,43,-20
13015,1808,-80,-984,62,40,-22
13020,1792,-48,-952,59,38,-21
13025,1824,-48,-960,59,35,-20
13030,1832,-48,-952,60,35,-18
13035,1824,-24,-960,60,33,-18
13040,1840,-40,-992,61,29,-19
13045,1800,-56,-904,58,29,-16
13050,1832,-104,-1000,59,30,-13
13055,1832,-56,-960,61,27,-14
13060,1800,-48,-960,60,25,-17
13065,1816,-56,-984,63,24,-17
13070,1808,-64,-968,62,22,-18
13075,1816,-64,-968,63,23,-14
13080,1864,-80,-944,64,22,-15
13085,1816,-40,-992,64,21,-18
13090,1840,-72,-984,64,20,-19
13095,1816,-48,-968,64,22,-16
13100,1824,0,-984,62,24,-18
13105,1784,-48,-960,58,25,-16
13110,1816,-24,-944,57,25,-11
13115,1832,-64,-976,58,26,-8
13120,1808,-40,-952,57,28,-10
13125,1824,-56,-984,57,26,-11
13130,1824,-40,-968,58,24,-13
13135,1792,-16,-944,52,23,-11
13140,1832,-64,-944,51,22,-10
13145,1848,-56,-992,51,20,-11
13150,1816,-56,-944,50,17,-11
13155,1808,-72,-968,50,16,-10
13160,1840,-96,-952,50,16,-11
13165,1824,-56,-960,51,14,-12
13170,1808,-56,-976,48,12,-11
13175,1816,-88,-952,47,10,-13
13180,1800,-32,-960,47,9,-13
13185,1808,-64,-976,47,7,-12
13190,1840,-72,-976,48,6,-14
13195,1824,-48,-952,48,4,-16
13200,1808,-64,-1008,47,0,-14
13205,1832,-56,-944,48,1,-14
13210,1824,-88,-968,48,2,-13
13215,1824,-80,-984,46,4,-12
13220,1832,-56,-960,46,3,-13
13225,1840,-56,-976,47,3,-13
13230,1824,-80,-960,48,1,-12
13235,1816,-48,-976,51,1,-12
13240,1840,-64,-952,50,3,-11
13245,1832,-88,-984,49,2,-14
13250,1840,-72,-984,50,3,-16
13255,1824,-64,-984,50,2,-15
13260,1816,-64,-968,47,3,-17
13265,1800,-32,-976,46,4,-17
13270,1808,-72,-976,45,2,-18
13275,1816,-80,-976,46,0,-20
13280,1832,-64,-984,47,-3,-19
13285,1832,-72,-1008,49,-6,-18
13290,1832,-104,-992,50,-6,-17
13295,1824,-72,-976,54,-6,-18
13300,1832,-64,-976,57,-5,-18
13305,1824,-48,-968,59,-5,-17
13310,1824,-64,-984,59,-4,-17
13315,1832,-56,-984,59,-3,-18
13320,1824,-56,-984,59,-2,-19
13325,1816,-40,-984,57,1,-21
13330,1816,-40,-960,57,3,-23
13335,1848,-56,-992,55,3,-23
13340,1808,-64,-1000,57,4,-22
13345,1808,-72,-984,56,7,-22
13350,1808,-32,-976,58,10,-21
13355,1824,-64,-1008,59,11,-19
13360,1856,-40,-952,60,16,-18
13365,1824,-56,-952,59,19,-18
13370,1808,-32,-984,58,21,-17
13375,1800,-24,-1000,58,22,-15
13380,1824,-48,-968,59,24,-13
13385,1824,-40,-984,60,25,-12
13390,1824,-80,-984,60,25,-12
13395,1840,-40,-976,61,25,-12
13400,1824,-56,-1008,61,24,-12
13405,1848,-48,-968,60,26,-11
13410,1840,-48,-968,61,26,-11
13415,1816,-16,-984,61,27,-11
13420,1824,-56,-952,61,25,-12
13425,1808,-56,-992,60,25,-13
13430,1816,-40,-960,61,26,-12
13435,1808,-56,-1008,61,26,-9
13440,1792,-24,-992,63,26,-9
13445,1824,-64,-984,62,27,-8
13450,1816,-48,-1000,63,27,-5
13455,1832,-56,-976,64,28,-3
13460,1800,-48,-1000,63,31,-1
13465,1824,-56,-1000,64,34,0
13470,1800,-64,-984,65,34,2
13475,1824,-64,-944,66,35,4
13480,1816,-64,-984,67,37,2
13485,1816,-88,-952,69,39,4
13490,1832,-64,-936,72,39,4
13495,1808,-64,-984,72,40,5
13500,1808,-56,-984,74,39,4
13505,1816,-80,-976,74,40,4
13510,1800,-72,-952,75,41,4
13515,1808,-48,-1000,77,42,3
13520,1808,-64,-960,76,43,2
13525,1808,-40,-936,75,43,4
13530,1824,-56,-976,75,42,6
13535,1800,-64,-976,75,42,5
13540,1840,-80,-952,73,39,3
13545,1816,-64,-944,70,35,2
13550,1792,-56,-944,69,33,1
13555,1816,-104,-936,65,29,-2
13560,1816,-88,-920,62,25,-4
13565,1824,-80,-944,59,20,-8
13570,1808,-96,-960,56,16,-11
13575,1816,-80,-920,54,10,-14
13580,1832,-80,-936,52,6,-16
13585,1816,-64,-936,50,3,-20
13590,1800,-56,-976,49,2,-22
13595,1824,-72,-984,48,0,-22
13600,1824,-56,-976,49,-1,-24
13605,1832,-24,-992,46,-2,-23
13610,1816,-56,-976,45,-2,-22
13615,1808,-24,-992,45,-1,-22
13620,1816,-48,-952,45,-1,-20
13625,1800,-8,-976,44,0,-19
13630,1832,-48,-984,44,2,-19
13635,1848,-72,-960,44,2,-16
13640,1816,-48,-976,43,4,-15
13645,1872,-40,-976,45,2,-16
13650,1840,-32,-960,46,6,-12
13655,1840,-72,-968,44,12,-10
13660,1848,-72,-976,46,10,-11
13665,1824,-72,-976,49,10,-11
13670,1840,-72,-1008,53,10,-11
13675,1848,-64,-976,54,10,-8
13680,1824,-40,-960,56,11,-8
13685,1816,-64,-1008,56,11,-6
13690,1824,-64,-992,56,10,-7
13695,1824,-64,-992,58,10,-8
13700,1824,-80,-1000,57,12,-6
13705,1824,-48,-984,56,15,-5
13710,1808,-64,-976,56,17,-5
13715,1816,-56,-952,57,21,-5
13720,1808,-40,-944,58,22,-4
13725,1816,-56,-1008,57,24,-3
13730,1816,-80,-960,58,25,-5
13735,1840,-88,-992,58,25,-6
13740,1824,-72,-984,58,24,-7
13745,1832,-64,-992,58,25,-9
13750,1824,-72,-984,58,29,-7
13755,1816,-56,-960,58,29,-8
13760,1808,-56,-984,59,31,-8
13765,1816,-80,-952,57,33,-9
13770,1792,-64,-968,57,32,-8
13775,1824,-72,-960,57,36,-7
13780,1808,-88,-944,57,34,-9
13785,1800,-48,-952,59,30,-10
13790,1776,-72,-984,59,26,-11
13795,1808,-40,-952,59,23,-13
13800,1816,-56,-968,59,21,-13
13805,1808,-56,-992,58,18,-15
13810,1840,-88,-968,59,17,-15
13815,1808,-56,-984,57,17,-17
13820,1816,-72,-968,56,17,-18
13825,1800,-48,-960,55,18,-18
13830,1816,-48,-976,55,17,-18
13835,1832,-48,-952,54,17,-20
13840,1848,-56,-928,53,17,-20
13845,1816,-32,-968,50,17,-18
13850,1808,-32,-992,49,17,-17
13855,1832,-32,-936,48,17,-15
13860,1848,-64,-968,48,14,-15
13865,1832,-48,-928,47,13,-15
13870,1832,-72,-952,47,11,-12
13875,1824,-32,-984,47,10,-11
13880,1840,-48,-984,47,8,-10
13885,1816,-40,-928,48,8,-10
13890,1816,-64,-968,48,7,-10
13895,1824,-80,-984,48,5,-10
13900,1832,-48,-952,49,4,-11
13905,1800,-56,-968,47,6,-9
13910,1808,-56,-936,49,5,-9
13915,1824,-40,-968,49,6,-10
13920,1808,-56,-1000,51,7,-8
13925,1816,-56,-976,50,8,-10
13930,1832,-56,-936,52,7,-9
13935,1832,-40,-1000,53,7,-9
13940,1832,-32,-968,53,5,-7
13945,1816,-56,-952,52,7,-9
13950,1776,-56,-984,50,8,-7
13955,1816,-72,-976,50,9,-8
13960,1824,-48,-968,49,11,-11
13965,1808,-48,-984,49,13,-9
13970,1800,-48,-968,48,12,-8
13975,1832,-72,-952,48,14,-10
13980,1824,-48,-944,48,12,-10
13985,1824,-32,-936,48,12,-12
13990,1824,-48,-976,47,12,-14
13995,1808,-56,-960,47,11,-15
14000,1808,-72,-960,46,12,-18
14005,1792,-56,-984,44,12,-17
14010,1832,-64,-952,45,10,-17
14015,1848,-72,-968,47,8,-17
14020,1800,-40,-1000,47,8,-19
14025,1824,-88,-992,50,6,-19
14030,1832,-64,-968,51,7,-17
14035,1816,-72,-960,54,8,-19
14040,1824,-56,-960,52,8,-18
14045,1832,-64,-952,52,11,-18
14050,1824,-40,-976,50,12,-18
14055,1840,-56,-944,49,13,-19
14060,1840,-40,-928,46,14,-19
14065,1832,-72,-952,45,15,-19
14070,1816,-40,-960,44,13,-20
14075,1816,-32,-976,44,12,-19
14080,1816,-40,-960,44,8,-17
14085,1832,-32,-968,44,8,-14
14090,1840,-48,-1000,44,8,-13
14095,1856,-72,-968,44,7,-13
14100,1824,-16,-984,44,7,-12
14105,1808,-40,-952,44,7,-10
14110,1808,-32,-960,45,5,-11
14115,1824,-56,-960,46,3,-9
14120,1832,-24,-976,46,3,-10
14125,1848,-32,-1000,47,4,-9
14130,1816,-40,-976,47,2,-9
14135,1848,-56,-960,49,2,-8
14140,1832,-48,-984,49,3,-9
14145,1808,-40,-1000,51,5,-8
14150,1800,-32,-984,50,7,-9
14155,1832,-64,-984,51,7,-10
14160,1800,-64,-984,52,8,-10
14165,1888,-16,-944,53,9,-9
14170,1808,-56,-992,54,10,-9
14175,1832,-56,-960,54,10,-6
14180,1816,-8,-992,54,11,-8
14185,1824,-48,-976,53,12,-9
14190,1824,-56,-984,52,14,-10
14195,1824,-32,-984,51,15,-8
14200,1808,-56,-976,51,17,-8
14205,1824,-48,-1000,51,19,-10
14210,1824,-64,-968,51,21,-10
14215,1816,-48,-984,51,21,-11
14220,1808,-56,-968,52,22,-8
14225,1824,-72,-984,52,22,-9
14230,1816,-48,-976,50,21,-9
14235,1824,-72,-960,50,21,-9
14240,1824,-56,-976,51,20,-10
14245,1816,-56,-952,51,17,-10
14250,1784,-32,-976,52,16,-11
14255,1816,-64,-992,50,15,-11
14260,1840,-56,-960,50,13,-11
14265,1824,-48,-976,49,11,-11
14270,1816,-72,-952,48,9,-11
14275,1832,-64,-960,47,10,-11
14280,1816,-56,-984,46,9,-11
14285,1800,-24,-976,44,7,-12
14290,1808,-72,-952,41,6,-11
14295,1816,-40,-936,40,4,-13
14300,1808,-48,-968,37,4,-12
14305,1832,-64,-976,37,2,-12
14310,1824,-40,-1008,36,2,-14
14315,1840,-48,-920,35,3,-13
14320,1808,-16,-976,36,3,-13
14325,1808,-56,-960,35,2,-14
14330,1856,-88,-928,34,1,-13
14335,1824,-72,-960,35,-1,-12
14340,1824,-48,-992,36,-1,-12
14345,1840,-56,-960,37,-2,-13
14350,1808,-56,-968,37,-4,-12
14355,1832,-64,-960,39,-4,-10
14360,1808,-88,-992,39,-6,-12
14365,1832,-72,-984,39,-6,-12
14370,1816,-72,-936,39,-7,-13
14375,1832,-32,-976,40,-9,-12
14380,1832,-56,-992,41,-10,-13
14385,1824,-72,-984,41,-9,-14
14390,1832,-48,-976,42,-11,-14
14395,1824,-40,-968,44,-8,-12
14400,1840,-64,-960,44,-5,-13
14405,1832,-48,-992,46,-3,-14
14410,1808,-32,-984,46,-1,-13
14415,1840,-48,-1000,48,1,-14
14420,1824,-64,-968,50,3,-12
14425,1824,-32,-960,49,4,-12
14430,1840,-40,-936,48,4,-11
14435,1840,-48,-992,47,6,-12
14440,1808,-24,-968,49,3,-11
14445,1808,-48,-984,47,4,-12
14450,1824,-48,-960,48,2,-12
14455,1816,-72,-968,48,0,-12
14460,1824,-48,-968,46,1,-12
14465,1784,-32,-976,45,0,-12
14470,1832,-32,-976,46,1,-10
14475,1832,-48,-976,46,1,-13
14480,1816,-40,-936,47,2,-13
14485,1816,0,-1000,47,2,-9
14490,1800,-24,-1000,49,3,-7
14495,1896,-32,-1016,51,4,-9
14500,1816,-64,-992,53,6,-6
14505,1816,-56,-960,55,7,-6
14510,1840,-40,-992,55,9,-5
14515,1832,-40,-1016,56,11,-4
14520,1808,-64,-976,56,12,-4
14525,1808,-40,-1008,56,13,-5
14530,1824,-72,-960,56,13,-4
14535,1824,-56,-960,57,12,-6
14540,1808,-56,-992,56,14,-5
14545,1800,-32,-952,56,15,-9
14550,1800,-48,-1008,55,14,-7
14555,1832,-64,-1008,54,15,-8
14560,1800,-32,-976,54,16,-8
14565,1816,-32,-936,54,18,-11
14570,1816,-72,-976,52,18,-12
14575,1808,-48,-952,52,18,-13
14580,1808,-24,-984,52,19,-13
14585,1816,-56,-976,51,21,-13
14590,1824,-56,-992,52,20,-16
14595,1808,-48,-984,51,20,-16
14600,1800,-32,-984,50,21,-18
14605,1816,-40,-960,50,21,-18
14610,1816,-40,-960,52,18,-17
14615,1840,-32,-976,53,18,-18
14620,1816,-48,-992,51,16,-17
14625,1824,-72,-960,53,15,-16
14630,1800,-32,-944,52,16,-16
14635,1816,-56,-936,54,16,-15
14640,1832,-56,-960,53,17,-15
14645,1848,-40,-968,53,18,-14
14650,1816,-64,-992,51,19,-15
14655,1832,-48,-976,51,20,-15
14660,1808,-24,-992,50,20,-13
14665,1832,-56,-960,49,20,-11
14670,1840,-48,-968,49,18,-12
14675,1808,-32,-968,50,18,-13
14680,1832,-32,-960,49,17,-13
14685,1824,-24,-968,48,15,-12
14690,1824,-32,-992,45,14,-12
14695,1832,-24,-960,42,13,-14
14700,1800,-48,-960,37,10,-13
14705,1832,-48,-952,32,9,-13
14710,1808,-8,-976,25,8,-12
14715,1800,-16,-928,20,7,-9
14720,1800,8,-952,14,7,-10
14725,1832,-16,-936,9,4,-12
14730,1800,-24,-968,4,1,-10
14735,1792,-16,-968,-1,-3,-10
14740,1792,-24,-992,-6,-8,-9
14745,1824,-40,-952,-10,-9,-9
14750,1824,-24,-936,-13,-11,-8
14755,1800,-8,-960,-16,-14,-6
14760,1792,-48,-944,-18,-19,-3
14765,1800,-40,-968,-18,-29,4
14770,1832,-40,-960,-12,-38,9
14775,1832,-80,-952,-7,-46,11
14780,1816,-80,-1008,0,-51,12
14785,1816,-88,-1008,9,-52,12
14790,1840,-80,-1000,19,-53,12
14795,1832,-72,-1024,28,-51,9
14800,1864,-72,-1008,32,-50,8
14805,1808,-88,-1000,33,-44,4
14810,1808,-32,-1008,34,-37,2
14815,1824,-56,-1016,32,-32,0
14820,1808,-48,-1000,28,-26,-5
14825,1816,-16,-1000,24,-18,-6
14830,1816,-40,-976,21,-14,-8
14835,1808,-40,-976,18,-11,-9
14840,1800,-8,-984,16,-13,-8
14845,1824,-32,-968,11,-18,-4
14850,1824,-64,-1008,10,-17,-4
14855,1808,-56,-984,10,-15,-5
14860,1808,-72,-992,14,-15,-4
14865,1784,-48,-1000,15,-13,-8
14870,1784,-80,-968,15,-14,-9
14875,1792,-48,-984,15,-16,-8
14880,1800,-56,-992,17,-16,-7
14885,1808,-56,-1016,21,-11,-9
14890,1800,-64,-984,25,-8,-12
14895,1808,-56,-1008,29,-6,-14
14900,1824,-56,-1000,33,-5,-15
14905,1816,-32,-1016,34,-2,-16
14910,1792,-48,-1000,35,1,-15
14915,1832,-48,-992,34,2,-15
14920,1816,-56,-1016,36,5,-15
14925,1824,-56,-1024,37,7,-15
14930,1824,-48,-1032,40,9,-14
14935,1808,-40,-1024,39,14,-12
14940,1760,-24,-1008,37,15,-11
14945,1808,-48,-992,37,16,-11
14950,1792,-40,-984,36,16,-11
14955,1808,-40,-992,36,15,-11
14960,1800,-24,-1000,36,15,-11
14965,1792,-32,-1016,33,14,-10
14970,1808,-24,-984,32,13,-10
14975,1800,-24,-992,33,14,-13
14980,1816,-56,-984,31,14,-9
14985,1800,-24,-992,30,15,-8
14990,1816,-40,-1000,33,15,-7
14995,1808,-8,-968,35,15,-6
