timestamp,accel_x,accel_y,accel_z,gyro_x,gyro_y,gyro_z
0,120,-1752,-904,70,8,-9
5,96,-1760,-880,71,8,-10
10,112,-1792,-920,70,9,-11
15,104,-1784,-928,68,8,-11
20,104,-1760,-896,66,9,-12
25,96,-1760,-816,64,9,-12
30,104,-1760,-928,61,10,-14
35,80,-1768,-952,62,12,-14
40,120,-1760,-912,60,14,-13
45,96,-1752,-904,59,14,-12
50,120,-1784,-920,60,14,-12
55,104,-1736,-912,59,15,-11
60,112,-1760,-888,57,14,-11
65,120,-1784,-896,58,13,-10
70,104,-1744,-944,56,14,-11
75,152,-1784,-928,56,12,-10
80,64,-1776,-864,56,11,-10
85,128,-1768,-896,56,11,-9
90,136,-1776,-880,56,9,-9
95,112,-1752,-864,59,11,-12
100,120,-1760,-904,59,10,-10
105,144,-1768,-896,60,11,-9
110,104,-1768,-896,59,12,-11
115,128,-1792,-928,59,13,-11
120,96,-1792,-904,61,13,-11
125,144,-1776,-880,61,13,-10
130,80,-1784,-856,60,13,-8
135,120,-1760,-896,58,14,-9
140,104,-1760,-896,58,14,-8
145,96,-1752,-896,58,15,-9
150,120,-1768,-928,59,13,-7
155,96,-1744,-888,60,13,-6
160,128,-1792,-888,58,13,-7
165,120,-1776,-880,57,13,-10
170,112,-1768,-928,56,12,-9
175,112,-1776,-880,57,14,-9
180,128,-1784,-896,56,14,-10
185,120,-1784,-808,56,15,-8
190,120,-1792,-904,56,14,-10
195,112,-1776,-904,55,14,-10
200,120,-1752,-904,55,14,-9
205,120,-1792,-896,55,14,-10
210,120,-1792,-920,56,16,-10
215,120,-1768,-888,57,17,-11
220,104,-1752,-888,58,18,-12
225,112,-1776,-856,58,20,-12
230,128,-1760,-896,58,20,-12
235,88,-1744,-904,57,20,-14
240,144,-1792,-888,56,19,-12
245,80,-1768,-864,54,20,-12
250,96,-1784,-888,51,21,-12
255,104,-1760,-912,50,22,-11
260,104,-1768,-856,51,22,-12
265,128,-1776,-888,51,22,-11
270,104,-1792,-880,52,21,-11
275,96,-1768,-904,53,20,-10
280,112,-1776,-896,55,18,-10
285,56,-1760,-872,57,17,-9
290,120,-1752,-896,55,16,-9
295,64,-1728,-936,56,14,-10
300,120,-1776,-880,56,13,-14
305,104,-1760,-896,57,11,-13
310,120,-1784,-920,57,11,-16
315,104,-1760,-904,57,9,-18
320,120,-1784,-912,57,8,-19
325,96,-1784,-920,56,7,-20
330,88,-1760,-904,55,9,-19
335,96,-1784,-920,55,10,-16
340,112,-1800,-896,54,10,-17
345,88,-1784,-952,57,11,-18
350,80,-1800,-888,61,10,-16
355,120,-1784,-896,67,10,-17
360,120,-1752,-920,71,10,-16
365,104,-1784,-928,75,10,-15
370,120,-1760,-896,77,7,-15
375,136,-1752,-920,79,6,-14
380,112,-1744,-920,78,6,-15
385,128,-1776,-888,76,7,-14
390,120,-1728,-896,76,6,-14
395,128,-1736,-920,74,6,-13
400,128,-1792,-896,70,6,-13
405,160,-1760,-920,66,8,-12
410,112,-1768,-904,63,9,-11
415,96,-1768,-872,63,12,-13
420,104,-1784,-856,61,13,-13
425,104,-1768,-880,60,15,-11
430,112,-1752,-880,59,16,-12
435,128,-1776,-888,60,16,-14
440,128,-1768,-880,61,16,-11
445,128,-1776,-888,59,15,-11
450,104,-1768,-888,59,15,-11
455,112,-1752,-864,59,12,-12
460,136,-1824,-864,58,12,-12
465,128,-1776,-888,56,10,-11
470,128,-1792,-904,56,10,-11
475,112,-1792,-896,55,11,-13
480,120,-1760,-896,55,12,-11
485,120,-1768,-864,56,13,-11
490,136,-1776,-888,54,14,-9
495,128,-1752,-840,54,15,-10
500,104,-1752,-856,54,16,-9
505,128,-1792,-880,55,15,-10
510,120,-1784,-864,53,14,-9
515,136,-1752,-856,52,13,-10
520,96,-1736,-856,49,12,-9
525,112,-1760,-904,47,12,-9
530,120,-1776,-920,43,13,-9
535,128,-1760,-896,42,12,-8
540,104,-1776,-888,45,12,-9
545,120,-1784,-912,44,12,-8
550,112,-1808,-912,45,12,-9
555,120,-1776,-912,46,13,-9
560,96,-1752,-880,45,13,-10
565,168,-1800,-904,46,14,-9
570,120,-1776,-880,47,16,-9
575,120,-1792,-928,47,14,-10
580,128,-1760,-904,47,15,-10
585,112,-1768,-912,48,14,-11
590,128,-1776,-872,49,13,-11
595,120,-1760,-896,48,13,-9
600,120,-1776,-888,49,13,-8
605,128,-1768,-872,50,12,-8
610,136,-1792,-888,51,13,-9
615,120,-1792,-896,52,13,-9
620,144,-1784,-904,52,12,-9
625,104,-1760,-904,54,13,-10
630,96,-1776,-896,54,13,-12
635,120,-1744,-904,54,12,-12
640,96,-1752,-904,56,11,-11
645,128,-1776,-896,55,11,-10
650,88,-1752,-904,54,9,-11
655,128,-1776,-896,53,8,-14
660,120,-1728,-880,52,8,-13
665,104,-1768,-888,51,8,-12
670,104,-1752,-888,51,10,-13
675,88,-1752,-864,51,9,-14
680,104,-1768,-888,50,9,-15
685,128,-1768,-896,48,10,-14
690,120,-1760,-880,47,11,-15
695,120,-1752,-904,45,13,-15
700,104,-1752,-904,44,13,-16
705,128,-1760,-872,44,12,-14
710,128,-1800,-904,44,13,-14
715,144,-1800,-920,44,13,-14
720,96,-1768,-912,43,12,-12
725,96,-1760,-896,42,12,-13
730,104,-1800,-880,40,9,-11
735,136,-1792,-912,41,9,-12
740,112,-1776,-888,42,8,-11
745,112,-1752,-872,40,7,-11
750,128,-1752,-880,41,7,-11
755,128,-1768,-880,41,8,-11
760,104,-1760,-904,42,10,-13
765,112,-1800,-896,42,10,-13
770,120,-1776,-896,42,11,-11
775,96,-1736,-920,42,10,-11
780,128,-1800,-880,43,10,-11
785,112,-1760,-864,41,12,-9
790,128,-1800,-904,40,13,-10
795,112,-1784,-872,40,14,-11
800,112,-1760,-912,41,15,-9
805,120,-1760,-936,42,15,-10
810,104,-1776,-880,44,14,-10
815,120,-1784,-912,43,14,-10
820,120,-1784,-896,43,14,-11
825,136,-1800,-880,42,15,-10
830,120,-1760,-896,42,15,-9
835,112,-1760,-936,42,15,-9
840,112,-1784,-936,42,15,-10
845,128,-1776,-888,42,15,-11
850,104,-1768,-896,40,16,-11
855,120,-1760,-848,40,16,-9
860,104,-1752,-896,42,17,-11
865,136,-1776,-888,42,17,-9
870,112,-1776,-896,43,16,-11
875,96,-1728,-920,43,15,-12
880,128,-1752,-872,44,15,-11
885,128,-1752,-888,43,14,-9
890,80,-1752,-936,43,15,-10
895,80,-1784,-952,43,13,-9
900,96,-1760,-888,42,14,-10
905,120,-1784,-912,40,16,-11
910,112,-1776,-904,38,16,-11
915,144,-1776,-888,38,17,-12
920,112,-1792,-944,37,17,-10
925,80,-1776,-864,40,16,-11
930,96,-1768,-928,40,17,-10
935,112,-1768,-880,40,15,-10
940,104,-1760,-928,38,14,-11
945,128,-1792,-928,38,15,-12
950,136,-1784,-880,39,15,-12
955,120,-1784,-904,39,14,-12
960,104,-1776,-896,40,12,-12
965,96,-1744,-880,41,12,-11
970,96,-1776,-904,39,10,-11
975,96,-1776,-896,37,10,-11
980,96,-1784,-944,34,10,-13
985,112,-1776,-896,35,10,-14
990,128,-1776,-896,34,11,-14
995,104,-1792,-904,39,11,-13
1000,88,-1760,-952,43,13,-11
1005,136,-1784,-936,49,12,-10
1010,112,-1760,-896,53,12,-9
1015,120,-1784,-912,56,12,-8
1020,128,-1752,-872,58,9,-6
1025,104,-1776,-904,57,9,-7
1030,112,-1760,-896,56,6,-8
1035,128,-1760,-896,55,5,-8
1040,128,-1744,-912,50,3,-8
1045,128,-1784,-912,48,2,-9
1050,96,-1752,-912,44,2,-8
1055,104,-1752,-944,41,2,-7
1060,128,-1784,-912,37,2,-7
1065,112,-1784,-896,35,4,-5
1070,112,-1776,-872,32,6,-6
1075,104,-1744,-872,29,9,-7
1080,120,-1776,-896,27,10,-8
1085,112,-1776,-896,26,11,-7
1090,120,-1776,-880,23,11,-8
1095,104,-1760,-880,21,10,-7
1100,144,-1792,-848,21,8,-7
1105,128,-1776,-872,20,7,-6
1110,136,-1792,-920,22,6,-6
1115,136,-1744,-880,23,5,-5
1120,104,-1760,-888,25,4,-5
1125,128,-1784,-880,25,2,-4
1130,112,-1776,-888,24,3,-5
1135,96,-1768,-864,25,0,-6
1140,112,-1776,-880,25,-1,-7
1145,104,-1792,-888,27,-2,-6
1150,104,-1760,-920,28,-3,-6
1155,96,-1768,-888,30,-3,-7
1160,112,-1776,-920,33,-3,-8
1165,120,-1776,-912,35,-2,-9
1170,136,-1752,-904,34,-2,-9
1175,120,-1760,-896,33,0,-11
1180,104,-1752,-896,32,0,-10
1185,128,-1768,-912,30,1,-11
1190,104,-1752,-912,27,1,-12
1195,136,-1752,-904,26,2,-12
1200,112,-1784,-928,26,3,-13
1205,104,-1744,-904,27,4,-12
1210,128,-1744,-896,27,5,-11
1215,88,-1752,-896,30,5,-12
1220,136,-1824,-912,32,5,-13
1225,104,-1768,-912,33,6,-13
1230,96,-1792,-912,35,9,-13
1235,128,-1784,-912,37,7,-13
1240,128,-1760,-896,38,8,-14
1245,104,-1744,-904,39,7,-12
1250,80,-1736,-904,40,8,-13
1255,72,-1776,-928,40,8,-11
1260,96,-1776,-912,39,8,-11
1265,112,-1792,-888,39,8,-11
1270,88,-1752,-920,40,8,-10
1275,96,-1720,-968,39,8,-10
1280,104,-1760,-896,41,7,-12
1285,104,-1776,-944,43,5,-12
1290,112,-1752,-896,42,5,-13
1295,112,-1744,-928,42,6,-14
1300,64,-1736,-912,41,7,-13
1305,112,-1736,-936,39,8,-12
1310,88,-1736,-888,37,8,-11
1315,136,-1760,-912,36,8,-12
1320,112,-1744,-944,34,8,-12
1325,112,-1736,-920,31,7,-11
1330,112,-1736,-896,28,7,-11
1335,96,-1744,-928,27,6,-14
1340,104,-1736,-888,27,6,-12
1345,96,-1736,-904,25,6,-13
1350,96,-1744,-936,24,5,-13
1355,112,-1768,-920,21,5,-12
1360,104,-1744,-888,17,4,-10
1365,128,-1768,-880,15,4,-9
1370,96,-1752,-920,16,4,-9
1375,104,-1768,-912,18,4,-8
1380,104,-1752,-896,21,4,-9
1385,112,-1784,-896,22,4,-8
1390,112,-1784,-888,23,5,-8
1395,96,-1784,-952,25,3,-7
1400,96,-1760,-928,27,1,-6
1405,104,-1792,-912,29,-1,-6
1410,120,-1776,-944,31,0,-6
1415,128,-1752,-936,34,-1,-5
1420,112,-1776,-912,36,-1,-4
1425,128,-1744,-904,40,-3,-6
1430,88,-1792,-920,43,-3,-7
1435,128,-1776,-904,43,-2,-7
1440,88,-1744,-912,41,-1,-5
1445,136,-1752,-928,39,-1,-5
1450,128,-1768,-896,36,-1,-5
1455,88,-1728,-912,32,1,-4
1460,128,-1768,-904,31,1,-6
1465,120,-1760,-896,29,1,-9
1470,120,-1752,-888,27,2,-7
1475,112,-1776,-920,28,2,-7
1480,120,-1760,-896,29,3,-6
1485,128,-1760,-912,28,2,-6
1490,112,-1776,-912,30,2,-7
1495,88,-1776,-936,31,1,-7
1500,120,-1776,-928,31,1,-7
1505,120,-1768,-928,32,2,-8
1510,120,-1752,-928,33,4,-9
1515,96,-1752,-920,34,5,-10
1520,128,-1744,-912,35,5,-11
1525,96,-1752,-920,36,6,-11
1530,112,-1752,-952,36,8,-13
1535,88,-1760,-912,36,9,-13
1540,96,-1744,-912,35,8,-11
1545,104,-1760,-904,34,9,-11
1550,96,-1744,-912,32,9,-11
1555,104,-1760,-896,33,9,-12
1560,88,-1760,-904,29,10,-12
1565,104,-1760,-920,29,10,-10
1570,88,-1760,-944,29,10,-10
1575,128,-1768,-944,29,8,-12
1580,104,-1752,-960,30,7,-12
1585,96,-1744,-920,31,7,-10
1590,112,-1760,-880,31,7,-12
1595,112,-1776,-912,31,5,-12
1600,120,-1736,-928,31,4,-12
1605,112,-1728,-928,29,3,-14
1610,104,-1760,-920,27,3,-15
1615,104,-1760,-920,24,3,-17
1620,88,-1768,-896,25,4,-16
1625,136,-1736,-928,27,4,-17
1630,96,-1760,-952,26,3,-15
1635,120,-1768,-920,26,4,-16
1640,112,-1768,-904,24,3,-16
1645,112,-1760,-944,22,5,-16
1650,104,-1768,-960,19,6,-15
1655,96,-1752,-960,19,8,-15
1660,120,-1752,-912,19,7,-14
1665,112,-1736,-952,18,6,-14
1670,112,-1728,-936,17,5,-15
1675,144,-1728,-952,16,6,-14
1680,112,-1736,-936,15,4,-13
1685,128,-1752,-944,11,3,-14
1690,112,-1736,-936,9,3,-13
1695,112,-1776,-928,4,3,-16
1700,96,-1752,-920,1,2,-16
1705,64,-1712,-912,-1,2,-16
1710,56,-1744,-920,-2,2,-17
1715,96,-1744,-888,-4,3,-16
1720,88,-1744,-904,-4,5,-16
1725,88,-1744,-952,-4,6,-16
1730,96,-1760,-912,-3,8,-13
1735,104,-1768,-928,-3,9,-15
1740,72,-1736,-904,-4,9,-14
1745,96,-1760,-912,-2,8,-15
1750,96,-1760,-936,1,8,-17
1755,120,-1744,-944,3,5,-15
1760,120,-1744,-936,7,6,-13
1765,104,-1744,-928,10,6,-13
1770,120,-1760,-944,13,4,-14
1775,120,-1768,-960,17,3,-15
1780,96,-1752,-936,19,3,-14
1785,120,-1744,-944,20,1,-14
1790,104,-1736,-968,20,2,-15
1795,104,-1720,-944,22,3,-16
1800,96,-1728,-952,20,4,-18
1805,112,-1712,-968,19,5,-19
1810,88,-1728,-968,17,5,-18
1815,120,-1752,-968,12,4,-17
1820,152,-1736,-952,9,5,-18
1825,216,-1736,-1016,8,4,-16
1830,128,-1736,-960,7,4,-18
1835,136,-1760,-944,4,4,-18
1840,96,-1728,-952,3,3,-17
1845,104,-1744,-976,2,2,-16
1850,104,-1736,-920,1,2,-15
1855,128,-1752,-952,1,2,-17
1860,144,-1736,-928,2,2,-18
1865,136,-1744,-960,2,1,-19
1870,112,-1752,-976,3,1,-20
1875,136,-1808,-936,5,2,-21
1880,128,-1784,-992,11,3,-19
1885,120,-1800,-976,23,5,-21
1890,120,-1800,-960,36,7,-24
1895,96,-1784,-960,53,9,-22
1900,120,-1808,-968,71,10,-23
1905,96,-1784,-976,85,11,-23
1910,104,-1784,-960,96,10,-22
1915,112,-1744,-984,103,10,-20
1920,104,-1728,-976,104,9,-19
1925,88,-1744,-976,103,7,-21
1930,64,-1712,-976,98,7,-23
1935,104,-1712,-944,90,8,-25
1940,120,-1720,-936,81,6,-27
1945,128,-1712,-944,71,6,-27
1950,88,-1680,-944,64,6,-25
1955,96,-1680,-952,58,5,-25
1960,96,-1712,-944,53,6,-26
1965,96,-1728,-936,48,8,-26
1970,80,-1704,-912,44,9,-23
1975,80,-1704,-944,38,11,-24
1980,72,-1712,-920,34,11,-21
1985,136,-1728,-904,29,11,-19
1990,104,-1744,-936,25,10,-19
1995,96,-1728,-936,22,10,-17
2000,96,-1728,-944,20,9,-15
2005,112,-1744,-920,19,8,-14
2010,96,-1728,-936,17,7,-12
2015,112,-1736,-952,13,4,-11
2020,112,-1744,-960,9,2,-9
2025,120,-1752,-968,4,1,-11
2030,136,-1760,-928,1,0,-11
2035,120,-1768,-952,-2,-1,-12
2040,96,-1728,-944,-2,-2,-13
2045,136,-1760,-912,0,-1,-11
2050,128,-1736,-944,3,-2,-10
2055,112,-1744,-928,4,-3,-12
2060,144,-1744,-944,5,-3,-10
2065,120,-1744,-904,5,-1,-10
2070,120,-1720,-936,5,0,-11
2075,112,-1736,-928,4,2,-10
2080,112,-1720,-944,4,2,-9
2085,120,-1704,-928,4,2,-10
2090,96,-1728,-880,3,2,-8
2095,112,-1720,-936,0,0,-7
2100,104,-1744,-944,-4,-1,-9
2105,104,-1712,-960,-8,-3,-9
2110,88,-1712,-976,-11,-5,-10
2115,120,-1720,-960,-14,-5,-11
2120,80,-1720,-944,-16,-7,-14
2125,120,-1784,-968,-16,-7,-14
2130,120,-1736,-984,-15,-8,-15
2135,112,-1768,-952,-14,-9,-16
2140,88,-1752,-944,-13,-10,-18
2145,88,-1744,-984,-11,-11,-17
2150,144,-1760,-960,-11,-11,-19
2155,128,-1736,-984,-9,-12,-19
2160,120,-1720,-968,-6,-11,-19
2165,112,-1728,-928,-6,-10,-17
2170,128,-1720,-976,-5,-8,-13
2175,112,-1744,-992,-5,-6,-14
2180,128,-1712,-960,-8,-5,-10
2185,88,-1688,-968,-11,-2,-6
2190,136,-1696,-960,-15,-2,-3
2195,128,-1688,-960,-22,-1,-2
2200,128,-1680,-936,-29,1,1
2205,136,-1704,-960,-38,-1,4
2210,120,-1696,-952,-47,-1,6
2215,128,-1712,-984,-55,0,6
2220,128,-1712,-984,-64,0,7
2225,144,-1704,-960,-73,1,8
2230,120,-1688,-976,-80,2,9
2235,128,-1728,-968,-88,4,8
2240,128,-1680,-992,-96,5,10
2245,128,-1712,-992,-104,6,14
2250,88,-1672,-992,-112,6,16
2255,184,-1664,-968,-121,7,17
2260,120,-1696,-968,-130,8,19
2265,128,-1696,-984,-139,9,20
2270,96,-1704,-976,-144,10,21
2275,136,-1696,-984,-147,13,20
2280,120,-1728,-992,-149,15,19
2285,120,-1704,-1008,-151,18,18
2290,104,-1704,-1016,-153,18,19
2295,120,-1712,-984,-154,19,21
2300,120,-1712,-960,-159,20,21
2305,104,-1696,-992,-165,19,19
2310,96,-1712,-976,-171,18,19
2315,120,-1704,-992,-178,20,18
2320,104,-1672,-968,-183,21,18
2325,104,-1704,-984,-189,20,16
2330,112,-1696,-1024,-196,19,16
2335,80,-1680,-1016,-202,16,16
2340,96,-1688,-1032,-209,14,17
2345,112,-1680,-1000,-216,11,16
2350,112,-1696,-1016,-223,8,18
2355,96,-1680,-1032,-229,4,19
2360,120,-1696,-1048,-234,1,18
2365,104,-1680,-1024,-242,-2,17
2370,112,-1704,-1024,-249,-6,15
2375,96,-1704,-1040,-257,-8,13
2380,96,-1688,-1016,-263,-9,10
2385,96,-1696,-1032,-267,-9,8
2390,80,-1728,-1072,-269,-10,7
2395,96,-1712,-1040,-263,-12,7
2400,104,-1720,-1056,-256,-13,5
2405,72,-1712,-1120,-241,-13,4
2410,120,-1768,-1080,-221,-17,3
2415,104,-1760,-1080,-199,-21,2
2420,112,-1704,-1080,-171,-27,2
2425,104,-1768,-1120,-140,-32,2
2430,88,-1744,-1080,-105,-33,-2
2435,104,-1680,-1104,-73,-34,-3
2440,96,-1688,-1080,-51,-33,-6
2445,72,-1656,-1072,-38,-31,-9
2450,64,-1648,-1064,-35,-28,-10
2455,56,-1632,-1032,-38,-24,-14
2460,56,-1608,-1024,-47,-22,-15
2465,56,-1600,-1064,-61,-18,-15
2470,72,-1624,-1072,-75,-17,-17
2475,56,-1576,-1008,-91,-18,-16
2480,56,-1616,-1024,-108,-20,-16
2485,64,-1616,-1040,-127,-22,-14
2490,96,-1632,-1048,-147,-23,-11
2495,72,-1648,-1032,-166,-26,-9
2500,96,-1672,-1024,-184,-28,-6
2505,72,-1656,-1040,-199,-30,-5
2510,112,-1680,-1048,-208,-33,-3
2515,104,-1672,-1008,-214,-36,-1
2520,72,-1664,-1024,-219,-40,3
2525,88,-1672,-1072,-225,-46,2
2530,64,-1728,-1032,-228,-50,2
2535,80,-1672,-1048,-234,-53,1
2540,88,-1688,-1064,-238,-56,-1
2545,104,-1704,-1080,-240,-57,2
2550,96,-1680,-1056,-240,-58,4
2555,80,-1672,-1056,-240,-56,6
2560,72,-1632,-1064,-241,-55,8
2565,72,-1656,-1072,-240,-54,9
2570,72,-1632,-1104,-243,-55,11
2575,96,-1640,-1088,-246,-54,12
2580,112,-1648,-1088,-249,-55,10
2585,48,-1608,-1152,-249,-55,10
2590,88,-1624,-1096,-251,-55,11
2595,80,-1608,-1088,-255,-55,11
2600,56,-1584,-1096,-261,-54,11
2605,40,-1600,-1112,-269,-52,10
2610,56,-1592,-1136,-278,-50,8
2615,88,-1616,-1104,-286,-51,6
2620,96,-1624,-1160,-293,-52,4
2625,112,-1576,-1152,-301,-55,2
2630,88,-1592,-1152,-310,-58,0
2635,104,-1600,-1128,-319,-61,-1
2640,104,-1584,-1168,-326,-66,-4
2645,112,-1592,-1136,-330,-70,-5
2650,88,-1560,-1144,-333,-71,-7
2655,96,-1584,-1200,-341,-71,-13
2660,104,-1600,-1136,-348,-71,-17
2665,64,-1584,-1152,-356,-69,-21
2670,80,-1560,-1136,-364,-64,-22
2675,72,-1576,-1184,-376,-62,-24
2680,80,-1608,-1168,-389,-59,-24
2685,56,-1592,-1168,-400,-56,-23
2690,96,-1632,-1152,-406,-55,-22
2695,56,-1584,-1216,-408,-52,-20
2700,64,-1568,-1232,-406,-52,-18
2705,56,-1568,-1224,-399,-52,-15
2710,16,-1560,-1232,-393,-52,-12
2715,24,-1552,-1256,-388,-51,-10
2720,32,-1576,-1248,-380,-50,-11
2725,24,-1552,-1224,-375,-49,-11
2730,40,-1592,-1224,-367,-49,-12
2735,24,-1576,-1216,-363,-51,-12
2740,16,-1568,-1240,-362,-51,-13
2745,48,-1520,-1240,-363,-50,-15
2750,56,-1544,-1240,-364,-52,-18
2755,80,-1552,-1272,-364,-54,-19
2760,72,-1552,-1256,-366,-56,-20
2765,72,-1544,-1264,-369,-58,-21
2770,88,-1520,-1304,-373,-61,-21
2775,80,-1528,-1264,-376,-62,-21
2780,96,-1496,-1288,-379,-63,-22
2785,48,-1520,-1288,-383,-61,-23
2790,40,-1496,-1280,-391,-58,-23
2795,24,-1480,-1336,-403,-56,-23
2800,80,-1488,-1368,-416,-55,-22
2805,40,-1472,-1272,-431,-55,-24
2810,24,-1472,-1264,-448,-52,-25
2815,8,-1440,-1304,-467,-52,-24
2820,16,-1448,-1304,-484,-53,-23
2825,16,-1472,-1312,-501,-58,-23
2830,24,-1448,-1304,-516,-61,-25
2835,16,-1448,-1320,-530,-65,-25
2840,40,-1480,-1288,-543,-69,-28
2845,24,-1472,-1296,-552,-74,-29
2850,24,-1424,-1376,-559,-77,-31
2855,32,-1440,-1320,-566,-79,-29
2860,56,-1472,-1336,-571,-80,-29
2865,48,-1424,-1352,-577,-80,-30
2870,56,-1424,-1352,-585,-79,-29
2875,80,-1432,-1376,-592,-75,-26
2880,32,-1392,-1344,-601,-69,-27
2885,32,-1408,-1384,-612,-65,-24
2890,40,-1408,-1376,-624,-61,-23
2895,56,-1392,-1376,-634,-58,-19
2900,56,-1384,-1392,-644,-55,-17
2905,40,-1400,-1400,-653,-51,-14
2910,56,-1424,-1368,-662,-50,-13
2915,80,-1416,-1376,-666,-47,-11
2920,72,-1432,-1392,-666,-42,-9
2925,72,-1416,-1392,-664,-37,-5
2930,72,-1416,-1440,-661,-33,1
2935,80,-1424,-1448,-656,-31,4
2940,80,-1400,-1416,-652,-26,8
2945,88,-1408,-1392,-649,-22,12
2950,64,-1392,-1448,-645,-19,15
2955,96,-1456,-1432,-644,-15,17
2960,72,-1392,-1472,-644,-11,19
2965,64,-1392,-1448,-640,-8,22
2970,56,-1400,-1448,-635,-6,25
2975,80,-1440,-1456,-628,-6,26
2980,56,-1416,-1448,-618,-5,25
2985,64,-1416,-1456,-603,-4,24
2990,40,-1408,-1480,-585,-3,23
2995,56,-1392,-1496,-566,-2,22
3000,48,-1384,-1512,-543,-1,22
3005,48,-1352,-1512,-522,-2,21
3010,40,-1352,-1488,-503,-3,21
3015,40,-1360,-1488,-484,-4,20
3020,24,-1304,-1536,-467,-5,20
3025,72,-1296,-1520,-453,-6,21
3030,56,-1304,-1528,-443,-6,21
3035,64,-1304,-1528,-433,-4,19
3040,64,-1296,-1528,-425,-2,17
3045,64,-1288,-1520,-417,2,15
3050,56,-1288,-1528,-408,6,14
3055,64,-1280,-1512,-394,12,12
3060,72,-1280,-1488,-379,16,12
3065,72,-1232,-1512,-364,15,15
3070,56,-1224,-1504,-352,11,17
3075,56,-1248,-1536,-344,6,19
3080,64,-1224,-1536,-340,1,16
3085,72,-1216,-1552,-340,1,15
3090,72,-1224,-1568,-343,2,11
3095,56,-1224,-1592,-348,5,4
3100,40,-1208,-1624,-354,12,2
3105,40,-1208,-1576,-355,21,-2
3110,72,-1216,-1584,-356,26,-3
3115,56,-1200,-1576,-356,30,-3
3120,48,-1176,-1624,-351,34,1
3125,16,-1152,-1592,-345,36,1
3130,24,-1128,-1640,-340,37,-1
3135,32,-1152,-1592,-336,37,-2
3140,40,-1112,-1608,-330,33,0
3145,40,-1120,-1608,-326,28,-2
3150,48,-1136,-1632,-324,21,-2
3155,32,-1104,-1608,-324,14,-5
3160,32,-1088,-1648,-323,8,-7
3165,48,-1120,-1640,-320,3,-8
3170,24,-1112,-1680,-315,-1,-7
3175,32,-1064,-1656,-309,-4,-10
3180,56,-1080,-1656,-303,-5,-12
3185,40,-1064,-1688,-298,-7,-13
3190,24,-1040,-1656,-294,-5,-14
3195,40,-1056,-1672,-293,-5,-13
3200,48,-1032,-1704,-293,-5,-9
3205,24,-1064,-1672,-296,-3,-8
3210,16,-1040,-1640,-304,-5,-3
3215,40,-1024,-1696,-309,-2,-3
3220,40,-1056,-1704,-316,-1,-2
3225,0,-1024,-1680,-321,-1,-1
3230,0,-1040,-1688,-324,-2,1
3235,8,-1048,-1672,-327,0,1
3240,0,-1024,-1688,-327,0,0
3245,8,-1024,-1712,-326,1,0
3250,16,-1040,-1736,-326,2,1
3255,0,-1024,-1704,-325,4,0
3260,0,-1016,-1736,-324,2,-1
3265,8,-1016,-1776,-323,2,-3
3270,0,-1016,-1736,-319,4,-4
3275,0,-984,-1752,-317,4,-3
3280,24,-1008,-1784,-313,2,-3
3285,56,-1000,-1752,-306,2,-2
3290,0,-992,-1720,-301,2,-2
3295,32,-976,-1728,-296,-1,1
3300,40,-984,-1736,-294,-3,0
3305,32,-976,-1728,-293,-1,-1
3310,32,-936,-1728,-293,2,0
3315,88,-992,-1728,-293,2,2
3320,40,-992,-1760,-290,10,1
3325,32,-936,-1720,-288,16,0
3330,56,-944,-1736,-287,18,1
3335,72,-984,-1744,-288,19,2
3340,56,-984,-1776,-289,27,2
3345,40,-952,-1760,-291,34,3
3350,48,-968,-1768,-294,36,6
3355,48,-1000,-1768,-296,39,7
3360,24,-944,-1784,-299,45,9
3365,32,-936,-1768,-305,45,11
3370,32,-944,-1760,-310,46,13
3375,24,-936,-1776,-320,49,15
3380,8,-896,-1792,-325,50,17
3385,16,-928,-1760,-333,46,20
3390,24,-944,-1824,-340,41,22
3395,-16,-872,-1792,-352,35,23
3400,24,-904,-1784,-361,28,23
3405,16,-904,-1840,-364,20,23
3410,0,-880,-1832,-364,12,20
3415,-8,-856,-1832,-364,4,19
3420,0,-880,-1832,-358,-7,18
3425,8,-904,-1840,-357,-15,15
3430,-8,-832,-1840,-361,-23,15
3435,8,-832,-1792,-362,-30,15
3440,24,-888,-1840,-360,-35,15
3445,16,-840,-1816,-365,-35,16
3450,16,-840,-1792,-368,-33,15
3455,48,-952,-1816,-362,-34,17
3460,56,-896,-1792,-359,-31,18
3465,24,-840,-1800,-357,-26,21
3470,24,-864,-1792,-349,-23,26
3475,64,-912,-1752,-342,-22,30
3480,32,-864,-1760,-343,-14,32
3485,48,-840,-1760,-343,-8,35
3490,48,-872,-1768,-340,-3,36
3495,40,-888,-1760,-340,2,37
3500,32,-816,-1752,-344,9,40
3505,32,-824,-1760,-346,15,43
3510,48,-840,-1784,-347,18,46
3515,8,-776,-1824,-350,20,49
3520,16,-776,-1784,-353,27,51
3525,8,-800,-1760,-345,27,53
3530,0,-800,-1800,-334,28,56
3535,0,-808,-1736,-329,28,60
3540,8,-808,-1760,-318,28,65
3545,0,-816,-1736,-305,27,69
3550,0,-832,-1776,-294,27,69
3555,8,-840,-1752,-282,26,72
3560,0,-848,-1752,-267,23,74
3565,8,-872,-1680,-250,22,76
3570,24,-880,-1744,-231,20,78
3575,8,-832,-1736,-210,19,79
3580,0,-824,-1712,-192,17,81
3585,16,-824,-1728,-180,19,84
3590,32,-808,-1704,-167,20,82
3595,32,-840,-1720,-158,24,85
3600,24,-816,-1760,-151,26,87
3605,32,-816,-1712,-142,29,90
3610,32,-792,-1736,-133,33,94
3615,72,-808,-1784,-124,36,97
3620,24,-776,-1720,-111,38,100
3625,32,-776,-1736,-99,38,101
3630,24,-744,-1776,-86,39,103
3635,24,-744,-1784,-74,38,108
3640,8,-744,-1744,-63,36,110
3645,16,-752,-1736,-55,31,114
3650,32,-768,-1784,-50,28,115
3655,24,-728,-1784,-43,23,114
3660,56,-736,-1792,-34,21,113
3665,32,-720,-1816,-25,17,110
3670,48,-712,-1808,-21,15,109
3675,48,-776,-1816,-17,18,103
3680,24,-752,-1824,-21,23,102
3685,24,-680,-1840,-28,30,99
3690,40,-656,-1888,-42,36,97
3695,40,-632,-1896,-61,40,99
3700,16,-584,-1872,-83,42,98
3705,8,-616,-1904,-104,39,98
3710,64,-608,-1880,-115,39,96
3715,48,-600,-1864,-116,38,92
3720,32,-576,-1904,-109,36,87
3725,80,-624,-1880,-102,34,81
3730,48,-600,-1888,-95,35,76
3735,16,-632,-1896,-92,35,71
3740,40,-624,-1936,-93,36,69
3745,0,-640,-1904,-95,35,67
3750,24,-656,-1872,-96,36,66
3755,32,-656,-1936,-96,36,66
3760,0,-664,-1952,-94,35,66
3765,16,-680,-1920,-93,33,67
3770,16,-672,-1912,-94,29,66
3775,48,-696,-1920,-95,30,62
3780,32,-680,-1920,-93,30,62
3785,40,-688,-1912,-89,30,59
3790,40,-656,-1920,-82,30,56
3795,72,-680,-1880,-75,33,56
3800,32,-656,-1928,-68,38,52
3805,40,-648,-1896,-60,40,49
3810,24,-688,-1936,-54,43,50
3815,32,-656,-1896,-53,47,49
3820,48,-680,-1936,-53,49,47
3825,0,-648,-1904,-51,49,48
3830,32,-680,-1856,-50,48,47
3835,16,-688,-1888,-49,45,47
3840,48,-696,-1880,-49,42,48
3845,40,-688,-1896,-49,38,46
3850,24,-672,-1880,-52,36,45
3855,32,-696,-1904,-52,33,43
3860,0,-696,-1896,-54,34,40
3865,0,-688,-1880,-60,31,38
3870,8,-696,-1888,-66,29,39
3875,24,-712,-1904,-71,23,40
3880,24,-720,-1848,-71,21,40
3885,8,-688,-1880,-67,18,39
3890,64,-720,-1840,-66,18,37
3895,24,-688,-1880,-65,21,34
3900,-8,-672,-1880,-65,28,29
3905,-8,-632,-1888,-72,35,29
3910,32,-584,-1928,-77,45,29
3915,-8,-768,-1856,-81,52,35
3920,-8,-768,-1832,-70,51,40
3925,0,-752,-1848,-53,47,44
3930,-16,-712,-1888,-37,41,47
3935,0,-688,-1904,-32,31,49
3940,-16,-744,-1856,-32,25,50
3945,-80,-736,-1848,-31,17,51
3950,-40,-704,-1896,-31,5,47
3955,-8,-664,-1912,-29,-4,46
3960,0,-656,-1880,-31,-12,43
3965,32,-648,-1872,-27,-14,38
3970,24,-624,-1848,-17,-10,36
3975,0,-576,-1832,-5,-2,31
3980,8,-480,-1872,2,13,26
3985,16,-536,-1808,-2,34,30
3990,0,-776,-1792,-2,46,38
3995,8,-752,-1800,18,53,47
4000,16,-568,-1840,33,56,53
4005,16,-672,-1832,36,57,55
4010,0,-576,-1832,30,52,57
4015,32,-768,-1824,20,42,63
4020,64,-904,-1848,28,30,62
4025,56,-888,-1864,40,28,54
4030,8,-736,-1872,43,32,47
4035,16,-712,-1904,33,39,41
4040,0,-704,-1880,14,44,40
4045,0,-624,-1840,-11,45,43
4050,32,-600,-1888,-27,36,48
4055,32,-608,-1792,-24,25,51
4060,32,-600,-1824,-11,19,50
4065,8,-600,-1832,10,15,46
4070,24,-608,-1808,27,22,43
4075,8,-592,-1808,39,32,38
4080,0,-616,-1816,42,41,33
4085,-8,-616,-1840,39,51,30
4090,56,-560,-1808,31,58,32
4095,0,-728,-1840,25,65,37
4100,-32,-768,-1888,33,60,43
4105,0,-720,-1896,41,51,45
4110,24,-712,-1840,51,37,44
4115,0,-656,-1896,56,25,42
4120,0,-648,-1888,52,16,34
4125,0,-664,-1912,48,10,25
4130,8,-672,-1912,50,7,17
4135,0,-664,-1896,56,6,12
4140,16,-648,-1848,68,8,7
4145,8,-672,-1872,82,11,5
4150,0,-640,-1864,93,14,2
4155,0,-672,-1864,100,17,5
4160,80,-680,-1904,107,21,7
4165,-8,-648,-1880,116,24,7
4170,0,-672,-1880,124,28,6
4175,8,-688,-1864,132,33,5
4180,32,-680,-1880,135,36,3
4185,0,-688,-1880,137,36,3
4190,24,-688,-1896,139,37,1
4195,8,-688,-1904,140,39,1
4200,8,-688,-1920,138,38,0
4205,8,-712,-1888,136,36,-1
4210,-8,-672,-1888,131,33,-3
4215,-8,-688,-1888,130,31,-3
4220,0,-688,-1872,129,28,-4
4225,-8,-712,-1840,129,26,-4
4230,0,-688,-1856,127,21,-5
4235,0,-712,-1856,127,17,-4
4240,0,-704,-1872,128,12,-5
4245,0,-696,-1880,129,7,-5
4250,0,-696,-1864,129,3,-6
4255,0,-704,-1888,130,1,-9
4260,16,-704,-1848,130,0,-10
4265,0,-696,-1864,131,0,-13
4270,-16,-720,-1888,130,0,-16
4275,0,-712,-1888,129,-1,-17
4280,-16,-696,-1840,124,-1,-19
4285,8,-704,-1872,119,-2,-20
4290,0,-704,-1872,114,-2,-21
4295,8,-704,-1848,110,-1,-22
4300,16,-696,-1848,110,-2,-22
4305,16,-560,-1880,108,-8,-20
4310,8,-528,-1840,94,-16,-20
4315,72,-816,-1856,69,-14,-27
4320,72,-944,-1848,77,-5,-34
4325,40,-824,-1888,93,9,-45
4330,0,-488,-1920,102,28,-52
4335,0,-504,-1872,65,56,-53
4340,-48,-664,-1800,26,77,-38
4345,-8,-824,-1736,35,72,-22
4350,32,-888,-1760,79,54,-9
4355,72,-880,-1848,117,34,-5
4360,80,-880,-1840,134,19,-10
4365,40,-872,-1896,126,8,-21
4370,24,-864,-1856,98,8,-31
4375,-16,-784,-1904,73,13,-38
4380,16,-792,-1848,60,18,-41
4385,0,-720,-1832,61,20,-38
4390,8,-704,-1824,67,17,-35
4395,8,-680,-1832,72,14,-30
4400,24,-704,-1784,73,12,-26
4405,0,-696,-1784,69,12,-26
4410,8,-728,-1768,63,15,-25
4415,0,-712,-1784,57,17,-26
4420,0,-736,-1792,49,20,-27
4425,0,-760,-1808,40,22,-29
4430,16,-720,-1808,32,22,-28
4435,-16,-776,-1864,24,22,-29
4440,8,-760,-1832,18,20,-27
4445,24,-760,-1856,12,18,-28
4450,48,-768,-1824,13,16,-26
4455,16,-768,-1808,18,12,-25
4460,8,-744,-1824,23,8,-23
4465,8,-752,-1816,30,3,-21
4470,40,-760,-1824,31,-2,-22
4475,24,-728,-1832,29,-5,-25
4480,0,-704,-1824,22,-5,-21
4485,8,-728,-1824,15,-5,-21
4490,8,-760,-1760,12,-2,-22
4495,16,-728,-1824,12,1,-22
4500,16,-736,-1832,14,1,-21
4505,16,-752,-1824,15,6,-21
4510,8,-728,-1832,17,10,-22
4515,16,-744,-1832,18,10,-24
4520,16,-728,-1800,19,11,-27
4525,8,-784,-1800,17,12,-27
4530,32,-704,-1824,11,11,-30
4535,48,-728,-1800,6,13,-29
4540,40,-704,-1816,5,13,-28
4545,8,-760,-1824,3,14,-28
4550,16,-704,-1816,7,16,-30
4555,8,-720,-1824,11,18,-27
4560,16,-712,-1816,16,19,-26
4565,32,-728,-1808,20,20,-25
4570,24,-720,-1856,24,19,-25
4575,16,-720,-1832,26,18,-24
4580,24,-712,-1808,28,16,-21
4585,48,-728,-1824,28,10,-20
4590,32,-696,-1840,27,7,-20
4595,24,-704,-1840,25,2,-19
4600,24,-728,-1848,21,-1,-17
4605,0,-704,-1840,19,-2,-15
4610,16,-728,-1840,18,-1,-14
4615,8,-728,-1832,18,1,-12
4620,24,-720,-1816,15,3,-13
4625,0,-720,-1832,12,6,-9
4630,8,-736,-1856,9,7,-10
4635,8,-712,-1872,7,10,-9
4640,16,-720,-1896,7,15,-6
4645,8,-704,-1872,7,18,-6
4650,32,-704,-1904,8,21,-4
4655,16,-696,-1888,8,22,-4
4660,24,-704,-1896,7,23,-1
4665,24,-704,-1872,8,22,0
4670,24,-704,-1848,5,23,2
4675,24,-656,-1856,2,23,4
4680,8,-688,-1856,-5,22,3
4685,8,-680,-1840,-14,21,6
4690,16,-688,-1848,-23,20,8
4695,-8,-648,-1864,-33,19,9
4700,-16,-688,-1872,-43,20,9
4705,16,-680,-1848,-48,20,9
4710,16,-688,-1840,-53,19,11
4715,8,-672,-1872,-57,18,11
4720,8,-680,-1856,-61,17,11
4725,0,-696,-1848,-66,14,11
4730,0,-672,-1856,-71,14,11
4735,0,-656,-1848,-73,14,11
4740,24,-664,-1872,-79,13,10
4745,24,-656,-1840,-81,14,10
4750,16,-656,-1888,-85,14,10
4755,16,-664,-1832,-91,16,9
4760,0,-672,-1864,-98,16,7
4765,24,-688,-1848,-106,18,7
4770,8,-664,-1856,-116,17,8
4775,16,-656,-1848,-126,16,9
4780,24,-672,-1880,-133,15,10
4785,16,-648,-1864,-138,12,11
4790,0,-672,-1872,-141,9,10
4795,8,-688,-1856,-145,5,9
4800,8,-664,-1872,-149,1,7
4805,0,-680,-1840,-153,-3,3
4810,16,-704,-1864,-155,-7,1
4815,8,-680,-1904,-156,-9,-1
4820,8,-664,-1848,-157,-12,-3
4825,0,-672,-1848,-158,-12,-6
4830,16,-688,-1832,-158,-13,-7
4835,32,-672,-1888,-158,-11,-9
4840,32,-680,-1880,-159,-10,-9
4845,32,-680,-1864,-159,-9,-9
4850,32,-656,-1832,-160,-9,-6
4855,24,-664,-1912,-158,-10,-8
4860,48,-640,-1880,-157,-10,-8
4865,32,-640,-1864,-160,-11,-9
4870,48,-624,-1872,-165,-10,-11
4875,32,-640,-1840,-172,-8,-10
4880,24,-640,-1856,-176,-7,-12
4885,16,-592,-1832,-180,-6,-13
4890,24,-632,-1848,-183,-3,-14
4895,8,-616,-1856,-186,-1,-15
4900,0,-592,-1888,-191,1,-16
4905,24,-632,-1832,-199,1,-16
4910,32,-648,-1864,-208,-1,-16
4915,16,-672,-1880,-216,-3,-16
4920,24,-640,-1880,-223,-7,-18
4925,8,-640,-1848,-224,-11,-24
4930,8,-616,-1896,-224,-16,-31
4935,8,-608,-1872,-226,-21,-37
4940,8,-592,-1888,-231,-27,-42
4945,16,-584,-1904,-239,-33,-46
4950,24,-568,-1936,-251,-41,-47
4955,32,-600,-1896,-260,-47,-48
4960,24,-560,-1872,-269,-53,-50
4965,8,-576,-1896,-277,-59,-52
4970,16,-536,-1880,-284,-64,-54
4975,8,-568,-1888,-291,-69,-58
4980,0,-576,-1944,-299,-70,-62
4985,0,-544,-1960,-309,-70,-68
4990,0,-536,-1936,-319,-71,-73
4995,0,-544,-1944,-328,-73,-79
5000,16,-536,-1936,-332,-74,-83
5005,40,-512,-1904,-338,-75,-84
5010,48,-512,-1920,-351,-75,-85
5015,8,-488,-1936,-369,-75,-85
5020,72,-480,-1952,-387,-75,-81
5025,16,-504,-1936,-408,-74,-77
5030,8,-472,-1944,-422,-74,-71
5035,8,-528,-1968,-430,-76,-68
5040,8,-512,-1976,-437,-79,-65
5045,16,-504,-1976,-443,-82,-65
5050,0,-504,-1984,-450,-87,-64
5055,0,-496,-2024,-453,-90,-67
5060,0,-512,-2040,-455,-95,-68
5065,0,-456,-1992,-458,-99,-73
5070,0,-464,-2008,-462,-103,-76
5075,-8,-448,-1984,-472,-105,-77
5080,0,-392,-1992,-482,-107,-78
5085,0,-400,-2032,-493,-111,-78
5090,72,-384,-2000,-506,-115,-81
5095,24,-432,-1984,-515,-120,-84
5100,24,-456,-2000,-523,-122,-88
5105,16,-472,-1968,-529,-123,-93
5110,48,-472,-1984,-529,-121,-98
5115,24,-488,-1952,-523,-116,-101
5120,48,-504,-1960,-515,-110,-102
5125,32,-504,-1952,-505,-104,-100
5130,32,-520,-1944,-495,-97,-99
5135,24,-512,-1928,-483,-90,-97
5140,24,-496,-1928,-474,-84,-94
5145,40,-544,-1952,-464,-79,-89
5150,40,-544,-1936,-454,-70,-87
5155,8,-544,-1928,-445,-63,-84
5160,24,-560,-1936,-435,-56,-85
5165,24,-568,-1936,-429,-47,-85
5170,8,-528,-1920,-423,-37,-87
5175,0,-560,-1928,-418,-29,-87
5180,-8,-576,-1928,-407,-22,-89
5185,8,-560,-1896,-398,-16,-88
5190,8,-592,-1920,-390,-14,-88
5195,-8,-608,-1872,-379,-17,-87
5200,-32,-568,-1896,-369,-20,-86
5205,-24,-568,-1896,-359,-23,-86
5210,-16,-592,-1920,-352,-29,-88
5215,-32,-600,-1904,-344,-40,-89
5220,-8,-584,-1896,-335,-54,-88
5225,-8,-576,-1880,-327,-65,-89
5230,-64,-536,-1888,-318,-72,-92
5235,-16,-544,-1888,-310,-79,-96
5240,-56,-544,-1888,-302,-83,-99
5245,-72,-560,-1880,-298,-87,-97
5250,-40,-528,-1888,-293,-91,-94
5255,-48,-536,-1896,-284,-94,-94
5260,-48,-528,-1888,-278,-96,-92
5265,-64,-552,-1848,-273,-98,-91
5270,-48,-568,-1904,-272,-97,-90
5275,-32,-584,-1880,-275,-94,-89
5280,-24,-584,-1896,-277,-89,-88
5285,-48,-576,-1920,-275,-81,-90
5290,-48,-584,-1912,-270,-73,-89
5295,-48,-576,-1896,-266,-67,-86
5300,-48,-616,-1888,-266,-60,-83
5305,-56,-624,-1904,-267,-55,-80
5310,-56,-584,-1904,-268,-52,-78
5315,-40,-600,-1920,-266,-52,-78
5320,-64,-600,-1872,-260,-58,-80
5325,-56,-624,-1888,-253,-66,-81
5330,-64,-616,-1896,-246,-78,-83
5335,-96,-600,-1888,-232,-92,-88
5340,-96,-584,-1920,-221,-107,-95
5345,-104,-568,-1976,-211,-121,-104
5350,-96,-568,-1896,-204,-132,-115
5355,-120,-528,-1968,-201,-140,-124
5360,-96,-560,-1928,-203,-146,-130
5365,-120,-520,-1920,-207,-152,-132
5370,-72,-536,-1888,-214,-159,-135
5375,-96,-520,-1888,-226,-167,-136
5380,-88,-528,-1920,-240,-176,-137
5385,-104,-520,-1936,-258,-185,-141
5390,-80,-528,-1920,-272,-196,-143
5395,-88,-536,-1896,-284,-205,-146
5400,-80,-536,-1896,-294,-213,-150
5405,-104,-528,-1896,-302,-222,-155
5410,-88,-536,-1912,-315,-231,-162
5415,-120,-488,-1896,-331,-240,-168
5420,-128,-512,-1840,-349,-251,-174
5425,-160,-520,-1864,-368,-259,-179
5430,-176,-512,-1832,-384,-265,-182
5435,-160,-520,-1824,-396,-270,-183
5440,-152,-544,-1800,-405,-275,-184
5445,-168,-528,-1792,-413,-283,-184
5450,-160,-568,-1768,-422,-288,-183
5455,-168,-536,-1784,-431,-296,-185
5460,-192,-560,-1744,-439,-308,-186
5465,-168,-536,-1792,-440,-320,-188
5470,-232,-552,-1840,-437,-332,-194
5475,-208,-504,-1832,-435,-345,-201
5480,-200,-472,-1760,-434,-357,-206
5485,-168,-464,-1744,-434,-368,-214
5490,-192,-448,-1744,-439,-379,-221
5495,-192,-448,-1704,-449,-390,-223
5500,-176,-432,-1696,-463,-403,-225
5505,-192,-408,-1672,-476,-413,-227
5510,-192,-408,-1696,-495,-428,-224
5515,-216,-400,-1672,-518,-440,-218
5520,-184,-456,-1608,-546,-455,-214
5525,-208,-392,-1624,-581,-472,-207
5530,-216,-392,-1648,-624,-488,-200
5535,-240,-384,-1640,-669,-500,-191
5540,-224,-384,-1632,-712,-509,-182
5545,-200,-400,-1648,-749,-516,-174
5550,-240,-376,-1616,-776,-518,-164
5555,-192,-416,-1600,-800,-524,-154
5560,-224,-400,-1568,-815,-525,-144
5565,-232,-376,-1592,-829,-528,-131
5570,-200,-384,-1576,-839,-531,-117
5575,-272,-392,-1608,-844,-532,-103
5580,-240,-344,-1592,-844,-529,-84
5585,-280,-352,-1616,-842,-523,-62
5590,-272,-296,-1640,-838,-515,-37
5595,-264,-296,-1696,-832,-502,-10
5600,-256,-216,-1712,-828,-485,19
5605,-232,-160,-1744,-822,-463,49
5610,-224,-136,-1712,-816,-439,84
5615,-184,-64,-1728,-811,-413,120
5620,-160,0,-1752,-812,-383,158
5625,-200,24,-1808,-821,-352,198
5630,-160,96,-1896,-838,-324,233
5635,-144,128,-1920,-860,-289,266
5640,-104,176,-1976,-892,-252,298
5645,-120,216,-1960,-930,-215,327
5650,-128,208,-1960,-973,-184,350
5655,-128,216,-1968,-1012,-158,369
5660,-120,200,-1960,-1043,-137,385
5665,-160,128,-1976,-1072,-123,396
5670,-136,184,-1952,-1097,-108,410
5675,-152,160,-1944,-1134,-94,417
5680,-184,128,-1992,-1177,-72,411
5685,-224,56,-2040,-1220,-45,394
5690,-224,64,-2096,-1259,-16,363
5695,-280,64,-2144,-1282,10,324
5700,-328,80,-2208,-1287,31,287
5705,-440,120,-2232,-1274,42,256
5710,-488,160,-2312,-1248,44,234
5715,-520,136,-2368,-1209,43,224
5720,-504,32,-2344,-1168,47,220
5725,-456,-64,-2392,-1119,62,225
5730,-456,-104,-2392,-1050,84,234
5735,-448,-104,-2424,-965,117,260
5740,-504,16,-2432,-854,153,316
5745,-472,144,-2488,-731,200,392
5750,-424,296,-2568,-615,263,478
5755,-408,392,-2584,-544,341,562
5760,-344,464,-2528,-525,433,624
5765,-320,440,-2368,-544,537,656
5770,-320,408,-2296,-564,647,661
5775,-328,400,-2112,-553,767,651
5780,-312,352,-2104,-488,901,641
5785,-352,352,-2088,-356,1054,650
5790,-392,320,-2144,-191,1219,688
5795,-336,248,-2280,-39,1375,744
5800,-304,224,-2280,61,1511,797
5805,-240,208,-2240,106,1618,845
5810,-200,160,-2136,90,1694,864
5815,-232,216,-2000,38,1750,861
5820,-264,224,-1824,-57,1789,829
5825,-408,256,-1704,-173,1802,771
5830,-496,280,-1640,-287,1786,701
5835,-576,416,-1576,-384,1736,626
5840,-736,456,-1504,-470,1661,547
5845,-888,496,-1456,-527,1558,456
5850,-928,496,-1424,-562,1446,393
5855,-960,440,-1368,-571,1333,361
5860,-968,384,-1328,-554,1233,359
5865,-888,328,-1248,-528,1134,386
5870,-744,248,-1120,-506,1066,428
5875,-592,200,-1056,-478,1003,498
5880,-496,192,-984,-442,953,575
5885,-368,200,-912,-403,915,655
5890,-272,280,-824,-384,891,744
5895,-184,344,-752,-393,876,816
5900,-40,360,-688,-414,872,875
5905,16,504,-680,-445,892,913
5910,112,616,-800,-490,936,936
5915,280,728,-896,-551,1001,945
5920,376,904,-1000,-629,1079,949
5925,496,976,-1008,-712,1152,949
5930,600,1096,-1024,-781,1207,952
5935,728,1168,-992,-851,1243,964
5940,856,1248,-1000,-915,1259,987
5945,936,1256,-992,-969,1265,1027
5950,928,1312,-1000,-1002,1276,1075
5955,984,1240,-1032,-1011,1303,1126
5960,1008,1240,-1048,-1000,1349,1168
5965,1040,1200,-1040,-964,1405,1202
5970,1032,1168,-1072,-901,1459,1228
5975,1040,1064,-1088,-816,1509,1237
5980,984,1000,-1072,-712,1559,1229
5985,904,920,-1032,-587,1612,1217
5990,936,896,-1104,-439,1679,1199
5995,1032,896,-1104,-284,1758,1184
6000,1168,1008,-1160,-151,1830,1166
6005,1272,1072,-1152,-53,1866,1148
6010,1400,1168,-1272,7,1843,1138
6015,1512,1272,-1400,46,1772,1134
6020,1592,1312,-1544,83,1676,1134
6025,1616,1456,-1688,116,1572,1129
6030,1592,1512,-1800,143,1477,1120
6035,1464,1512,-1816,171,1407,1109
6040,1280,1472,-1704,220,1360,1096
6045,1152,1456,-1664,280,1319,1084
6050,1016,1400,-1576,338,1285,1082
6055,904,1392,-1552,400,1251,1086
6060,880,1432,-1576,456,1218,1095
6065,864,1432,-1568,489,1187,1100
6070,920,1472,-1576,508,1158,1103
6075,992,1464,-1544,514,1128,1098
6080,1136,1432,-1520,521,1109,1081
6085,1232,1384,-1504,533,1099,1058
6090,1336,1312,-1520,552,1092,1041
6095,1432,1216,-1560,560,1082,1032
6100,1536,1160,-1592,553,1068,1029
6105,1680,1144,-1656,545,1050,1025
6110,1744,1088,-1776,549,1045,1026
6115,1744,1120,-1752,570,1055,1034
6120,1816,1048,-1752,606,1078,1051
6125,1928,1048,-1744,655,1109,1084
6130,2096,1184,-1760,719,1141,1099
6135,2096,1288,-1784,782,1176,1083
6140,2088,1248,-1792,828,1210,1058
6145,2264,1280,-1928,884,1228,1042
6150,2600,1672,-1944,898,1273,1015
6155,2376,1704,-2104,949,1211,930
6160,2168,1672,-1920,971,1248,878
6165,2104,1704,-1936,895,1324,803
6170,1968,1696,-1944,800,1397,710
6175,1872,1744,-1936,714,1457,616
6180,1776,1696,-1912,615,1533,528
6185,1640,1664,-1944,531,1561,437
6190,1552,1632,-1968,474,1560,359
6195,1608,1576,-1896,396,1545,298
6200,1648,1496,-1904,255,1503,236
6205,1560,1736,-2168,154,1397,180
6210,1360,1928,-2216,223,1229,88
6215,1072,1784,-2112,309,1145,8
6220,976,1504,-1896,347,1102,-16
6225,928,1240,-1840,337,1082,-12
6230,1000,1064,-1752,287,1078,-8
6235,1024,1064,-1680,162,1067,-14
6240,1024,1032,-1608,-6,1033,-47
6245,1064,984,-1560,-160,978,-100
6250,1160,840,-1560,-282,891,-160
6255,1168,712,-1512,-383,801,-204
6260,1192,680,-1480,-467,714,-250
6265,1192,592,-1440,-528,621,-295
6270,1240,504,-1328,-563,530,-329
6275,1288,560,-1304,-567,442,-366
6280,1288,568,-1280,-548,341,-396
6285,1264,504,-1288,-490,226,-423
6290,1272,520,-1240,-449,98,-496
6295,1256,600,-1320,-419,-25,-567
6300,1248,640,-1352,-367,-172,-649
6305,1304,664,-1296,-323,-276,-696
6310,1208,696,-1304,-268,-337,-731
6315,1120,704,-1216,-247,-389,-760
6320,1144,656,-1208,-250,-508,-801
6325,1248,696,-1240,-236,-617,-821
6330,1272,696,-1200,-202,-716,-821
6335,1392,704,-1184,-143,-803,-808
6340,1376,672,-1192,-95,-891,-801
6345,1440,624,-1112,-72,-966,-785
6350,1544,696,-1208,-25,-1035,-776
6355,1568,608,-1088,-19,-1067,-768
6360,1568,528,-928,-28,-1087,-754
6365,1720,688,-952,-67,-1123,-748
6370,1744,800,-1040,-111,-1134,-720
6375,1896,952,-1120,-142,-1115,-676
6380,1920,1080,-1144,-158,-1064,-642
6385,1992,1144,-1200,-171,-995,-588
6390,2064,1184,-1392,-174,-928,-522
6395,2064,1256,-1352,-185,-831,-452
6400,1976,1248,-1392,-186,-728,-381
6405,2088,1296,-1448,-134,-618,-310
6410,2000,1088,-1376,-67,-505,-240
6415,1920,1248,-1536,45,-431,-193
6420,1920,1184,-1616,143,-372,-174
6425,1736,1016,-1488,240,-309,-134
6430,1712,960,-1552,396,-265,-86
6435,1648,904,-1528,517,-221,-62
6440,1696,824,-1536,638,-163,-14
6445,1480,896,-1472,705,-99,16
6450,1456,984,-1432,720,-78,-5
6455,1392,976,-1424,719,-77,-9
6460,1328,1200,-1392,685,-85,-27
6465,1240,1096,-1328,616,-106,-52
6470,1176,1176,-1384,612,-112,-25
6475,1056,1304,-1352,587,-126,-36
6480,992,1240,-1368,537,-160,-57
6485,912,1280,-1376,502,-177,-44
6490,808,1392,-1448,483,-199,-60
6495,800,1400,-1456,491,-240,-104
6500,872,1336,-1408,505,-274,-123
6505,832,1296,-1424,499,-302,-114
6510,824,1232,-1456,471,-335,-99
6515,840,1184,-1488,430,-362,-85
6520,872,1072,-1464,354,-395,-71
6525,960,856,-1512,299,-427,-44
6530,1024,680,-1488,314,-440,-17
6535,1032,632,-1552,339,-448,0
6540,1032,584,-1600,360,-452,13
6545,1048,568,-1608,383,-447,25
6550,1056,624,-1664,394,-438,36
6555,1024,568,-1640,399,-424,45
6560,1008,576,-1608,404,-403,54
6565,1016,560,-1648,417,-380,64
6570,1032,528,-1592,429,-348,75
6575,1032,544,-1600,438,-313,90
6580,1016,552,-1584,443,-289,104
6585,992,552,-1544,439,-272,115
6590,984,568,-1544,438,-258,124
6595,1032,528,-1552,443,-247,135
6600,992,528,-1592,454,-237,151
6605,1040,480,-1640,468,-230,165
6610,1032,520,-1608,475,-219,177
6615,1040,504,-1624,484,-207,191
6620,1016,496,-1656,496,-188,200
6625,1040,472,-1720,509,-167,212
6630,1048,488,-1712,520,-143,220
6635,1088,456,-1728,529,-116,226
6640,1064,464,-1720,533,-92,237
6645,1056,464,-1752,523,-72,243
6650,1112,432,-1752,514,-51,248
6655,1112,416,-1736,501,-26,247
6660,1104,464,-1792,486,-1,246
6665,1120,400,-1776,466,20,245
6670,1096,384,-1736,448,43,243
6675,1120,432,-1816,432,70,235
6680,1128,384,-1792,418,101,231
6685,1136,360,-1824,405,126,227
6690,1120,408,-1832,390,151,221
6695,1104,480,-1880,375,171,218
6700,1168,440,-1832,357,187,214
6705,1216,304,-1752,363,200,226
6710,1192,400,-1800,354,194,231
6715,1096,432,-1808,340,191,226
6720,1152,360,-1848,327,191,218
6725,1184,352,-1832,311,198,212
6730,1176,304,-1848,300,207,203
6735,1184,272,-1824,289,221,187
6740,1168,296,-1856,275,237,171
6745,1136,336,-1800,249,251,161
6750,1144,336,-1768,219,260,159
6755,1152,296,-1800,205,264,162
6760,1160,296,-1776,211,263,152
6765,1152,296,-1744,210,268,145
6770,1184,232,-1768,206,274,138
6775,1112,352,-1760,195,278,129
6780,1176,304,-1720,168,286,121
6785,1160,312,-1712,167,285,117
6790,1168,312,-1672,161,281,112
6795,1176,320,-1704,149,281,99
6800,1176,304,-1696,134,282,90
6805,1168,272,-1688,120,281,81
6810,1168,272,-1680,107,280,71
6815,1200,304,-1680,90,282,60
6820,1136,416,-1656,66,286,45
6825,1240,288,-1664,46,293,37
6830,1208,280,-1624,42,288,33
6835,1224,320,-1632,31,284,25
6840,1200,336,-1616,21,280,18
6845,1200,336,-1584,13,275,10
6850,1208,336,-1560,4,266,5
6855,1208,344,-1536,-7,257,-1
6860,1192,344,-1544,-16,247,-7
6865,1200,328,-1536,-26,233,-13
6870,1184,360,-1528,-35,220,-17
6875,1168,360,-1528,-41,207,-22
6880,1176,344,-1536,-45,192,-26
6885,1160,360,-1504,-51,177,-29
6890,1184,328,-1496,-55,160,-30
6895,1192,328,-1512,-57,144,-30
6900,1208,344,-1480,-59,126,-34
6905,1208,344,-1472,-58,111,-36
6910,1200,360,-1488,-58,96,-38
6915,1160,360,-1488,-56,81,-41
6920,1176,328,-1512,-52,67,-41
6925,1184,392,-1504,-49,57,-43
6930,1168,360,-1536,-46,50,-42
6935,1184,384,-1528,-43,45,-43
6940,1192,360,-1536,-41,42,-44
6945,1192,360,-1552,-39,40,-43
6950,1216,360,-1536,-36,39,-44
6955,1200,368,-1520,-35,40,-45
6960,1184,352,-1536,-33,41,-45
6965,1200,384,-1552,-32,39,-42
6970,1192,376,-1536,-30,34,-42
6975,1200,384,-1544,-29,30,-42
6980,1200,376,-1560,-26,25,-40
6985,1208,384,-1544,-26,18,-39
6990,1216,392,-1536,-23,10,-40
6995,1216,376,-1568,-19,1,-42
7000,1232,392,-1560,-14,-5,-40
7005,1208,368,-1552,-9,-11,-38
7010,1208,392,-1576,-6,-14,-37
7015,1216,392,-1568,-1,-17,-36
7020,1208,392,-1608,5,-20,-34
7025,1256,368,-1584,9,-22,-34
7030,1208,400,-1608,13,-23,-33
7035,1224,408,-1624,16,-25,-33
7040,1200,360,-1600,19,-26,-32
7045,1200,392,-1616,19,-28,-32
7050,1256,408,-1616,16,-29,-32
7055,1216,400,-1608,14,-29,-33
7060,1224,400,-1600,11,-28,-34
7065,1200,408,-1592,10,-27,-31
7070,1216,416,-1656,13,-27,-30
7075,1208,424,-1640,19,-27,-27
7080,1240,408,-1624,26,-26,-24
7085,1208,392,-1640,36,-26,-20
7090,1216,400,-1616,46,-28,-19
7095,1192,376,-1624,56,-31,-16
7100,1232,376,-1624,63,-34,-15
7105,1224,392,-1616,68,-37,-15
7110,1208,392,-1632,69,-40,-15
7115,1208,376,-1616,68,-41,-16
7120,1208,400,-1584,64,-38,-19
7125,1200,384,-1576,59,-37,-20
7130,1208,400,-1592,52,-36,-21
7135,1176,392,-1600,48,-36,-20
7140,1176,400,-1560,46,-36,-22
7145,1152,392,-1600,44,-36,-22
7150,1152,384,-1552,47,-39,-22
7155,1176,376,-1600,50,-41,-19
7160,1192,400,-1576,52,-43,-18
7165,1168,408,-1552,55,-44,-17
7170,1184,376,-1576,57,-42,-19
7175,1176,400,-1552,61,-41,-17
7180,1168,408,-1584,61,-38,-15
7185,1160,408,-1568,60,-32,-14
7190,1168,408,-1608,60,-28,-14
7195,1168,400,-1592,57,-23,-15
7200,1168,376,-1592,53,-19,-15
7205,1176,368,-1584,51,-17,-16
7210,1176,400,-1592,49,-15,-15
7215,1160,376,-1584,47,-13,-16
7220,1192,408,-1616,48,-13,-18
7225,1168,384,-1600,48,-13,-15
7230,1184,408,-1608,51,-12,-15
7235,1176,392,-1616,53,-11,-15
7240,1200,384,-1584,55,-9,-12
7245,1160,384,-1608,56,-5,-10
7250,1208,376,-1616,56,-1,-10
7255,1168,408,-1584,57,3,-10
7260,1152,384,-1600,57,8,-10
7265,1176,400,-1632,58,13,-9
7270,1176,392,-1616,58,17,-10
7275,1200,392,-1600,56,22,-8
7280,1192,400,-1648,57,24,-9
7285,1160,400,-1632,53,28,-9
7290,1200,400,-1640,53,30,-10
7295,1200,384,-1600,52,33,-10
7300,1216,392,-1576,52,34,-10
7305,1216,376,-1608,49,34,-11
7310,1168,424,-1584,47,34,-11
7315,1208,400,-1624,48,32,-11
7320,1192,384,-1624,49,30,-10
7325,1224,368,-1592,48,28,-11
7330,1184,392,-1640,50,28,-9
7335,1200,408,-1624,50,31,-9
7340,1200,392,-1616,49,33,-10
7345,1200,384,-1592,47,36,-10
7350,1208,384,-1576,45,38,-12
7355,1200,392,-1608,44,39,-12
7360,1184,384,-1592,43,39,-12
7365,1160,368,-1624,42,39,-13
7370,1208,392,-1576,41,38,-12
7375,1208,368,-1584,41,38,-14
7380,1192,384,-1608,39,37,-14
7385,1208,376,-1560,39,35,-14
7390,1200,384,-1592,39,33,-15
7395,1184,392,-1584,40,31,-13
7400,1200,392,-1592,41,27,-11
7405,1200,368,-1592,41,24,-13
7410,1184,432,-1592,40,22,-15
7415,1208,376,-1600,41,19,-15
7420,1184,424,-1616,38,17,-14
7425,1208,392,-1592,39,16,-17
7430,1192,400,-1600,38,15,-15
7435,1192,384,-1568,39,14,-15
7440,1192,408,-1600,36,14,-16
7445,1200,392,-1608,35,16,-17
7450,1184,400,-1592,34,14,-17
7455,1176,384,-1592,33,15,-17
7460,1200,384,-1592,31,15,-17
7465,1224,384,-1592,31,13,-18
7470,1216,376,-1576,30,13,-17
7475,1152,384,-1568,30,11,-17
7480,1192,408,-1600,30,10,-20
7485,1208,376,-1560,30,9,-17
7490,1208,400,-1560,31,7,-17
7495,1192,368,-1576,31,5,-18
7500,1200,400,-1560,32,4,-17
7505,1200,424,-1584,32,1,-17
7510,1216,400,-1608,32,-2,-20
7515,1192,392,-1552,33,-5,-19
7520,1216,400,-1584,32,-9,-17
7525,1192,392,-1608,33,-9,-17
7530,1256,384,-1568,32,-9,-17
7535,1200,408,-1592,34,-9,-18
7540,1216,400,-1592,34,-8,-17
7545,1208,368,-1592,35,-8,-17
7550,1192,408,-1576,36,-8,-19
7555,1208,408,-1576,36,-8,-17
7560,1200,392,-1592,36,-8,-17
7565,1168,408,-1560,35,-10,-18
7570,1200,400,-1600,35,-11,-19
7575,1176,400,-1560,34,-13,-19
7580,1192,400,-1600,33,-14,-20
7585,1200,432,-1576,33,-15,-19
7590,1200,408,-1608,36,-17,-20
7595,1176,408,-1600,38,-17,-17
7600,1184,400,-1592,40,-17,-16
7605,1200,400,-1592,40,-18,-16
7610,1200,384,-1608,41,-15,-18
7615,1216,400,-1600,42,-15,-18
7620,1176,456,-1616,41,-15,-18
7625,1184,440,-1624,41,-15,-18
7630,1168,368,-1608,37,-15,-17
7635,1176,400,-1616,41,-17,-16
7640,1168,400,-1664,42,-15,-16
7645,1152,432,-1616,42,-14,-17
7650,1200,416,-1576,39,-13,-17
7655,1168,432,-1608,38,-13,-18
7660,1208,400,-1592,40,-12,-17
7665,1168,392,-1560,44,-13,-16
7670,1192,408,-1592,46,-11,-17
7675,1176,400,-1592,47,-11,-14
7680,1184,400,-1624,47,-10,-15
7685,1168,424,-1600,45,-10,-15
7690,1208,416,-1552,44,-9,-16
7695,1264,400,-1616,42,-8,-16
7700,1168,416,-1608,40,-9,-16
7705,1176,392,-1592,41,-8,-16
7710,1192,424,-1592,39,-7,-18
7715,1176,384,-1584,40,-6,-16
7720,1168,424,-1592,44,-6,-16
7725,1168,400,-1584,45,-4,-17
7730,1192,408,-1600,42,-1,-17
7735,1168,408,-1584,39,0,-17
7740,1176,416,-1616,36,1,-17
7745,1168,416,-1608,37,2,-18
7750,1192,416,-1592,38,5,-16
7755,1176,440,-1608,38,8,-16
7760,1192,400,-1592,39,8,-15
7765,1168,408,-1624,39,10,-14
7770,1184,416,-1616,41,11,-15
7775,1160,408,-1600,41,13,-16
7780,1184,392,-1592,41,13,-16
7785,1192,416,-1608,43,11,-14
7790,1160,384,-1616,43,11,-14
7795,1208,416,-1592,44,9,-13
7800,1152,408,-1592,43,8,-14
7805,1192,400,-1592,44,8,-13
7810,1168,392,-1600,42,8,-12
7815,1168,408,-1592,43,7,-12
7820,1168,408,-1592,42,7,-11
7825,1192,416,-1576,42,9,-12
7830,1192,384,-1616,37,9,-10
7835,1184,408,-1592,43,10,-9
7840,1160,400,-1592,47,10,-10
7845,1192,416,-1600,48,12,-12
7850,1152,408,-1584,45,13,-13
7855,1176,360,-1600,44,13,-12
7860,1192,416,-1616,45,13,-12
7865,1216,408,-1592,49,16,-10
7870,1192,432,-1624,51,16,-9
7875,1184,392,-1600,54,17,-9
7880,1192,432,-1608,55,17,-9
7885,1192,400,-1616,54,17,-7
7890,1192,408,-1608,53,17,-8
7895,1176,400,-1640,52,15,-9
7900,1184,416,-1592,51,14,-10
7905,1192,416,-1624,51,15,-9
7910,1200,400,-1648,50,13,-10
7915,1200,408,-1608,51,13,-11
7920,1200,424,-1592,53,12,-10
7925,1192,400,-1608,54,11,-10
7930,1192,392,-1592,55,11,-9
7935,1176,408,-1600,56,10,-10
7940,1200,416,-1624,56,11,-9
7945,1176,424,-1568,54,11,-10
7950,1200,384,-1640,54,9,-11
7955,1152,448,-1624,53,9,-10
7960,1160,408,-1568,53,8,-11
7965,1152,392,-1616,52,7,-10
7970,1160,400,-1600,52,6,-11
7975,1176,408,-1632,52,5,-12
7980,1184,392,-1600,52,4,-12
7985,1176,408,-1592,52,2,-12
7990,1176,400,-1592,54,1,-11
7995,1192,400,-1624,54,2,-9
8000,1200,384,-1592,54,3,-9
8005,1184,416,-1608,54,3,-8
8010,1192,408,-1584,54,4,-9
8015,1168,408,-1592,56,5,-10
8020,1136,448,-1560,55,7,-9
8025,1176,392,-1616,55,7,-8
8030,1168,416,-1592,55,9,-8
8035,1192,416,-1624,54,9,-9
8040,1168,424,-1592,54,9,-9
8045,1168,432,-1592,55,10,-6
8050,1176,392,-1592,60,12,-8
8055,1184,424,-1568,53,8,-11
8060,1192,400,-1608,51,5,-11
8065,1192,416,-1584,52,5,-9
8070,1184,400,-1616,52,5,-10
8075,1168,416,-1600,52,4,-9
8080,1168,400,-1608,54,4,-10
8085,1160,416,-1592,56,4,-8
8090,1176,408,-1584,55,5,-7
8095,1192,392,-1640,56,7,-6
8100,1184,392,-1632,56,8,-8
8105,1176,408,-1568,55,10,-8
8110,1176,400,-1624,53,11,-8
8115,1184,392,-1632,50,11,-8
8120,1184,424,-1616,50,13,-8
8125,1152,440,-1632,48,13,-9
8130,1152,384,-1568,48,10,-10
8135,1184,400,-1608,53,8,-10
8140,1176,416,-1584,54,8,-9
8145,1160,424,-1600,52,6,-10
8150,1184,408,-1560,46,6,-12
8155,1176,392,-1624,43,5,-13
8160,1168,416,-1592,44,5,-12
8165,1144,432,-1600,45,5,-11
8170,1192,384,-1600,47,6,-12
8175,1176,432,-1624,48,6,-11
8180,1176,400,-1592,50,7,-11
8185,1208,440,-1592,50,8,-10
8190,1192,408,-1608,50,9,-11
8195,1192,408,-1600,50,9,-11
8200,1192,400,-1600,50,8,-12
8205,1184,384,-1608,50,7,-10
8210,1192,416,-1616,50,8,-11
8215,1200,408,-1584,51,8,-12
8220,1160,408,-1632,51,7,-11
8225,1184,432,-1616,50,8,-10
8230,1168,400,-1600,52,8,-10
8235,1192,408,-1624,52,9,-9
8240,1144,384,-1624,53,7,-10
8245,1168,448,-1624,60,8,-7
8250,1200,384,-1584,63,11,-8
8255,1176,416,-1624,55,9,-9
8260,1168,400,-1600,51,6,-11
8265,1176,392,-1608,51,9,-9
8270,1160,424,-1624,51,8,-10
8275,1184,400,-1608,53,10,-9
8280,1160,416,-1608,55,11,-9
8285,1168,424,-1592,56,10,-11
8290,1160,408,-1608,54,10,-9
8295,1184,408,-1616,55,9,-8
8300,1184,408,-1608,55,9,-10
8305,1184,400,-1608,55,6,-10
8310,1192,424,-1600,56,6,-9
8315,1168,408,-1600,57,6,-10
8320,1192,400,-1576,57,7,-12
8325,1160,416,-1584,54,6,-10
8330,1168,408,-1592,54,8,-10
8335,1176,408,-1600,54,7,-10
8340,1192,400,-1576,54,8,-10
8345,1192,424,-1616,56,9,-9
8350,1176,400,-1600,56,11,-9
8355,1184,400,-1608,57,11,-9
8360,1160,416,-1600,58,12,-10
8365,1184,416,-1600,57,12,-9
8370,1184,424,-1640,56,14,-9
8375,1168,408,-1616,55,15,-11
8380,1168,384,-1568,51,14,-11
8385,1152,408,-1592,50,15,-12
8390,1160,416,-1568,48,15,-13
8395,1176,392,-1608,48,14,-12
8400,1192,384,-1576,49,13,-11
8405,1192,392,-1600,51,11,-10
8410,1168,400,-1616,53,11,-10
8415,1208,384,-1576,54,10,-9
8420,1184,432,-1592,56,11,-9
8425,1176,416,-1584,56,12,-9
8430,1192,408,-1616,56,12,-10
8435,1168,408,-1648,54,12,-10
8440,1152,408,-1608,52,14,-11
8445,1152,416,-1624,51,15,-12
8450,1160,408,-1592,50,15,-10
8455,1152,400,-1600,48,15,-11
8460,1176,424,-1640,50,15,-11
8465,1184,408,-1584,51,14,-10
8470,1184,384,-1632,52,15,-10
8475,1168,416,-1640,54,14,-9
8480,1176,408,-1600,55,13,-8
8485,1200,384,-1616,55,13,-8
8490,1168,384,-1616,57,13,-7
8495,1208,416,-1632,56,13,-10
8500,1184,408,-1600,54,13,-9
8505,1168,424,-1560,53,12,-9
8510,1184,400,-1528,52,10,-11
8515,1184,408,-1608,49,11,-11
8520,1168,392,-1600,49,12,-11
8525,1168,400,-1592,48,10,-11
8530,1208,376,-1592,47,10,-13
8535,1184,408,-1600,47,11,-11
8540,1168,416,-1592,48,10,-13
8545,1200,376,-1592,49,10,-12
8550,1160,392,-1608,50,9,-13
8555,1176,416,-1608,51,10,-12
8560,1200,392,-1584,51,10,-10
8565,1176,424,-1656,52,10,-12
8570,1176,400,-1600,52,9,-11
8575,1184,392,-1624,52,10,-11
8580,1216,376,-1608,53,11,-11
8585,1176,432,-1584,52,11,-11
8590,1160,408,-1608,52,10,-10
8595,1176,416,-1592,53,11,-11
8600,1192,408,-1568,53,11,-10
8605,1184,416,-1616,54,10,-10
8610,1184,408,-1576,53,8,-10
8615,1168,448,-1656,53,7,-10
8620,1184,376,-1600,53,7,-11
8625,1192,424,-1600,54,6,-11
8630,1152,400,-1600,55,6,-12
8635,1168,408,-1616,55,7,-12
8640,1168,408,-1568,55,7,-12
8645,1160,432,-1576,56,8,-10
8650,1168,424,-1592,57,8,-9
8655,1160,416,-1600,56,8,-10
8660,1152,408,-1584,57,8,-10
8665,1168,384,-1616,57,8,-10
8670,1208,384,-1592,57,8,-9
8675,1176,416,-1592,57,8,-8
8680,1168,408,-1608,57,9,-10
8685,1176,408,-1584,56,8,-9
8690,1192,408,-1592,57,8,-9
8695,1192,400,-1600,56,8,-10
8700,1184,392,-1592,56,7,-11
8705,1176,400,-1592,56,7,-9
8710,1200,424,-1600,57,7,-9
8715,1160,440,-1592,57,9,-9
8720,1144,416,-1624,57,9,-10
8725,1152,416,-1592,56,10,-10
8730,1160,392,-1576,56,9,-10
8735,1176,400,-1592,55,10,-9
8740,1184,384,-1584,53,9,-10
8745,1152,432,-1600,53,11,-10
8750,1184,384,-1608,52,13,-10
8755,1192,392,-1624,52,13,-10
8760,1176,416,-1616,51,13,-9
8765,1160,424,-1616,51,15,-9
8770,1168,416,-1600,52,15,-11
8775,1184,416,-1616,52,16,-10
8780,1152,400,-1608,53,14,-11
8785,1136,408,-1592,53,14,-10
8790,1144,464,-1624,53,14,-10
8795,1168,376,-1616,52,14,-9
8800,1192,416,-1632,53,13,-10
8805,1168,424,-1624,53,13,-10
8810,1184,408,-1568,52,13,-11
8815,1184,416,-1624,51,11,-11
8820,1176,384,-1608,50,12,-11
8825,1184,408,-1616,51,13,-11
8830,1168,416,-1608,51,15,-11
8835,1184,432,-1600,50,16,-11
8840,1168,408,-1600,50,15,-9
8845,1176,408,-1592,51,15,-12
8850,1176,400,-1616,50,15,-12
8855,1208,384,-1592,50,16,-10
8860,1168,408,-1592,49,16,-10
8865,1168,416,-1592,48,16,-10
8870,1168,392,-1600,48,16,-11
8875,1168,424,-1560,47,17,-12
8880,1200,408,-1592,48,18,-11
8885,1168,424,-1584,49,18,-10
8890,1208,392,-1640,49,18,-10
8895,1184,376,-1584,49,18,-11
8900,1192,424,-1592,48,16,-10
8905,1184,416,-1600,48,16,-11
8910,1184,392,-1608,50,15,-11
8915,1208,432,-1600,50,13,-10
8920,1176,408,-1608,51,13,-9
8925,1208,384,-1592,51,12,-10
8930,1176,384,-1576,52,12,-10
8935,1176,392,-1584,53,12,-10
8940,1152,400,-1648,52,12,-11
8945,1224,384,-1624,50,13,-11
8950,1184,376,-1584,50,14,-12
8955,1192,384,-1616,50,13,-10
8960,1176,432,-1616,50,14,-11
8965,1176,424,-1600,51,13,-10
8970,1152,424,-1608,53,12,-11
8975,1160,424,-1616,54,11,-10
8980,1160,408,-1600,54,11,-11
8985,1160,408,-1632,55,11,-10
8990,1152,400,-1600,53,10,-12
8995,1208,368,-1600,53,10,-12
9000,1128,400,-1544,53,11,-10
9005,1176,400,-1592,54,10,-11
9010,1184,408,-1608,54,10,-9
9015,1168,408,-1576,55,13,-11
9020,1184,384,-1624,55,12,-9
9025,1184,408,-1592,55,14,-10
9030,1176,392,-1576,54,15,-9
9035,1192,392,-1608,55,16,-8
9040,1160,416,-1600,54,15,-9
9045,1176,400,-1608,54,16,-8
9050,1144,400,-1584,52,16,-9
9055,1176,344,-1608,52,14,-11
9060,1192,408,-1576,52,13,-10
9065,1176,416,-1592,53,12,-10
9070,1168,400,-1616,53,12,-10
9075,1200,400,-1592,53,11,-9
9080,1192,408,-1608,53,11,-8
9085,1184,424,-1584,55,10,-8
9090,1176,392,-1632,54,11,-8
9095,1184,376,-1600,55,11,-8
9100,1192,400,-1616,55,11,-10
9105,1192,456,-1624,52,12,-9
9110,1152,416,-1616,51,13,-10
9115,1200,400,-1624,48,13,-10
9120,1176,416,-1616,50,13,-12
9125,1168,400,-1584,49,12,-12
9130,1176,408,-1600,49,11,-11
9135,1176,408,-1600,48,9,-12
9140,1160,416,-1600,49,9,-12
9145,1160,416,-1616,49,10,-14
9150,1176,408,-1600,50,10,-11
9155,1176,392,-1584,50,10,-13
9160,1176,416,-1592,48,10,-14
9165,1184,504,-1640,46,11,-14
9170,1176,416,-1584,45,14,-14
9175,1160,408,-1600,46,13,-13
9180,1176,400,-1600,45,14,-12
9185,1184,408,-1592,45,13,-13
9190,1200,400,-1616,47,14,-12
9195,1184,400,-1616,50,14,-13
9200,1144,392,-1592,50,12,-12
9205,1168,408,-1632,51,12,-12
9210,1176,400,-1608,52,12,-11
9215,1184,392,-1624,52,11,-11
9220,1176,376,-1624,51,10,-12
9225,1168,392,-1608,50,10,-10
9230,1176,392,-1592,49,10,-10
9235,1168,432,-1592,47,10,-12
9240,1176,432,-1584,47,10,-12
9245,1168,392,-1576,48,9,-13
9250,1184,416,-1584,47,8,-12
9255,1192,440,-1584,48,7,-12
9260,1176,440,-1600,48,6,-12
9265,1176,432,-1608,49,5,-12
9270,1168,416,-1576,52,7,-13
9275,1120,408,-1608,51,6,-11
9280,1184,408,-1600,51,5,-11
9285,1200,432,-1600,48,8,-10
9290,1160,400,-1608,50,8,-11
9295,1200,392,-1608,53,8,-11
9300,1176,408,-1568,55,9,-11
9305,1160,424,-1608,50,9,-13
9310,1184,424,-1600,45,8,-15
9315,1192,392,-1624,43,8,-14
9320,1176,424,-1600,47,7,-15
9325,1200,384,-1616,50,8,-13
9330,1176,352,-1584,52,8,-14
9335,1184,400,-1624,53,6,-12
9340,1192,408,-1648,55,7,-12
9345,1176,416,-1616,55,7,-13
9350,1168,392,-1568,53,7,-13
9355,1176,408,-1608,55,6,-13
9360,1160,400,-1608,55,7,-14
9365,1200,392,-1600,54,7,-12
9370,1168,400,-1592,54,7,-14
9375,1176,400,-1600,52,7,-13
9380,1216,400,-1600,51,6,-14
9385,1168,416,-1584,49,7,-15
9390,1184,400,-1592,49,7,-13
9395,1192,416,-1600,50,7,-13
9400,1176,408,-1600,52,5,-13
9405,1184,400,-1616,52,6,-12
9410,1152,408,-1600,52,6,-12
9415,1176,400,-1584,53,5,-12
9420,1168,416,-1616,55,5,-12
9425,1176,392,-1592,55,5,-12
9430,1168,400,-1608,54,5,-12
9435,1208,408,-1648,53,6,-14
9440,1144,416,-1592,52,8,-13
9445,1184,408,-1600,50,7,-12
9450,1168,416,-1584,51,7,-12
9455,1176,408,-1616,49,8,-13
9460,1160,424,-1600,48,9,-13
9465,1184,400,-1608,48,9,-13
9470,1152,440,-1616,47,10,-12
9475,1168,416,-1608,48,9,-12
9480,1168,400,-1616,47,8,-12
9485,1176,416,-1584,46,8,-12
9490,1176,344,-1616,48,10,-11
9495,1152,408,-1608,50,10,-13
9500,1160,424,-1632,51,10,-14
9505,1168,424,-1608,52,9,-12
9510,1176,400,-1640,52,11,-13
9515,1160,408,-1640,52,10,-13
9520,1152,432,-1608,50,9,-14
9525,1176,408,-1624,49,10,-14
9530,1176,384,-1616,47,10,-14
9535,1176,392,-1600,47,10,-16
9540,1120,408,-1592,45,9,-15
9545,1168,416,-1552,45,9,-14
9550,1144,424,-1616,45,8,-15
9555,1184,424,-1592,43,8,-16
9560,1176,400,-1608,44,8,-16
9565,1168,424,-1568,40,9,-15
9570,1160,368,-1616,43,8,-11
9575,1184,416,-1656,50,8,-13
9580,1152,440,-1600,49,8,-14
9585,1152,432,-1584,45,9,-18
9590,1160,400,-1592,41,9,-17
9595,1160,400,-1576,41,10,-16
9600,1192,392,-1688,44,11,-15
9605,1192,400,-1624,46,11,-13
9610,1176,424,-1608,49,12,-14
9615,1176,408,-1608,49,12,-14
9620,1192,416,-1600,50,11,-14
9625,1168,416,-1608,51,11,-12
9630,1160,400,-1592,50,11,-12
9635,1176,416,-1632,51,12,-12
9640,1160,456,-1624,49,13,-13
9645,1192,400,-1616,49,13,-13
9650,1184,408,-1584,49,13,-12
9655,1152,432,-1640,48,13,-13
9660,1160,416,-1616,49,13,-11
9665,1184,416,-1568,50,13,-12
9670,1168,384,-1584,49,13,-11
9675,1184,408,-1600,52,14,-11
9680,1176,384,-1600,51,13,-11
9685,1184,424,-1608,52,12,-13
9690,1160,408,-1608,52,13,-12
9695,1176,384,-1576,52,12,-11
9700,1176,408,-1600,52,12,-11
9705,1184,416,-1560,52,12,-12
9710,1176,376,-1648,52,12,-11
9715,1176,408,-1632,52,12,-13
9720,1192,408,-1624,52,10,-12
9725,1176,432,-1608,51,10,-11
9730,1168,416,-1616,51,10,-12
9735,1168,424,-1616,52,9,-10
9740,1184,408,-1592,52,11,-10
9745,1168,400,-1600,53,9,-9
9750,1168,416,-1608,54,8,-11
9755,1152,424,-1624,54,8,-12
9760,1176,408,-1584,54,7,-11
9765,1136,424,-1624,53,7,-11
9770,1176,424,-1600,54,7,-11
9775,1160,416,-1600,54,6,-11
9780,1168,424,-1600,54,7,-9
9785,1144,408,-1592,53,7,-10
9790,1168,424,-1584,53,8,-11
9795,1168,392,-1600,53,7,-9
9800,1160,432,-1624,54,8,-11
9805,1168,416,-1608,52,8,-10
9810,1176,384,-1640,51,10,-8
9815,1136,432,-1584,52,10,-8
9820,1112,440,-1608,52,10,-8
9825,1168,424,-1600,51,10,-9
9830,1160,416,-1600,52,10,-8
9835,1176,416,-1608,53,10,-8
9840,1184,392,-1624,53,10,-7
9845,1192,408,-1624,53,9,-7
9850,1184,416,-1600,54,10,-8
9855,1184,416,-1592,53,9,-9
9860,1184,400,-1576,53,9,-9
9865,1184,400,-1584,52,10,-8
9870,1176,360,-1616,49,11,-9
9875,1168,400,-1600,48,11,-10
9880,1184,400,-1592,47,11,-11
9885,1176,432,-1592,47,12,-12
9890,1184,416,-1600,48,12,-12
9895,1168,424,-1608,48,11,-12
9900,1136,408,-1584,49,9,-12
9905,1136,424,-1592,49,9,-11
9910,1160,432,-1616,50,8,-11
9915,1168,392,-1584,49,8,-12
9920,1176,376,-1592,49,8,-11
9925,1176,384,-1624,48,9,-11
9930,1168,408,-1600,48,10,-12
9935,1160,432,-1616,47,11,-12
9940,1176,400,-1592,49,12,-11
9945,1160,400,-1608,50,12,-11
9950,1192,408,-1608,52,13,-10
9955,1168,400,-1640,54,12,-11
9960,1152,416,-1600,54,12,-10
9965,1160,416,-1632,55,12,-9
9970,1144,424,-1560,54,10,-10
9975,1144,432,-1584,54,9,-9
9980,1136,472,-1672,53,9,-10
9985,1168,384,-1608,51,9,-10
9990,1176,408,-1584,50,7,-11
9995,1144,400,-1592,48,7,-11
10000,1144,424,-1616,48,8,-13
10005,1160,408,-1576,48,8,-11
10010,1152,408,-1608,49,8,-11
10015,1144,416,-1616,50,7,-10
10020,1168,432,-1584,53,5,-11
10025,1152,432,-1656,54,6,-10
10030,1168,440,-1624,56,7,-8
10035,1200,400,-1568,54,6,-9
10040,1152,408,-1608,54,7,-8
10045,1168,416,-1592,55,8,-8
10050,1168,408,-1600,54,11,-8
10055,1200,416,-1600,54,11,-9
10060,1168,416,-1600,54,10,-10
10065,1176,416,-1600,53,11,-9
10070,1176,408,-1632,55,12,-8
10075,1168,400,-1632,56,13,-8
10080,1200,392,-1608,56,12,-9
10085,1184,392,-1648,57,11,-8
10090,1208,352,-1584,57,9,-9
10095,1168,416,-1576,56,10,-9
10100,1160,416,-1600,56,10,-10
10105,1168,432,-1616,56,12,-10
10110,1152,392,-1592,56,11,-8
10115,1144,440,-1584,55,11,-10
10120,1168,400,-1608,56,11,-8
10125,1160,432,-1608,56,11,-7
10130,1184,368,-1616,56,10,-8
10135,1152,424,-1624,56,10,-8
10140,1144,424,-1616,56,10,-9
10145,1192,408,-1512,56,9,-8
10150,1176,432,-1600,57,10,-8
10155,1176,392,-1616,58,8,-9
10160,1136,416,-1624,56,9,-9
10165,1168,392,-1616,57,9,-9
10170,1152,400,-1632,57,10,-10
10175,1168,416,-1632,57,10,-10
10180,1160,408,-1624,56,10,-9
10185,1168,424,-1624,57,11,-9
10190,1160,408,-1600,54,11,-7
10195,1144,440,-1632,55,11,-7
10200,1136,424,-1632,56,12,-7
10205,1152,416,-1600,55,11,-9
10210,1160,408,-1600,55,11,-8
10215,1160,416,-1592,55,11,-8
10220,1144,408,-1624,54,10,-10
10225,1168,424,-1616,53,10,-9
10230,1184,416,-1600,52,11,-8
10235,1160,408,-1592,54,11,-8
10240,1152,432,-1624,51,10,-8
10245,1160,424,-1624,51,11,-9
10250,1168,408,-1616,51,10,-9
10255,1152,408,-1624,51,11,-9
10260,1176,392,-1616,52,11,-9
10265,1152,416,-1624,52,12,-10
10270,1176,416,-1608,53,12,-10
10275,1192,392,-1576,52,12,-12
10280,1176,400,-1584,52,12,-10
10285,1160,408,-1592,51,11,-10
10290,1144,408,-1624,50,10,-11
10295,1192,392,-1624,50,10,-11
10300,1160,408,-1592,48,10,-13
10305,1168,400,-1600,48,9,-10
10310,1184,400,-1600,49,9,-10
10315,1160,416,-1584,49,9,-12
10320,1168,432,-1600,50,9,-12
10325,1176,400,-1616,50,9,-12
10330,1144,416,-1608,52,10,-11
10335,1176,400,-1600,51,12,-11
10340,1176,400,-1600,51,13,-10
10345,1152,408,-1616,50,12,-10
10350,1168,392,-1608,50,12,-13
10355,1160,424,-1608,50,13,-10
10360,1160,408,-1584,49,13,-10
10365,1160,408,-1600,51,14,-9
10370,1160,416,-1592,52,13,-11
10375,1184,392,-1608,52,13,-10
10380,1168,400,-1600,53,13,-10
10385,1160,432,-1624,53,12,-9
10390,1184,416,-1592,54,13,-11
10395,1160,400,-1616,55,12,-11
10400,1184,416,-1600,56,11,-11
10405,1176,400,-1616,56,11,-12
10410,1152,432,-1616,56,10,-9
10415,1144,408,-1584,54,12,-9
10420,1160,408,-1584,54,12,-10
10425,1168,432,-1592,54,15,-10
10430,1144,408,-1608,53,13,-9
10435,1160,432,-1600,55,13,-9
10440,1160,392,-1624,56,14,-10
10445,1168,440,-1576,57,13,-10
10450,1192,408,-1616,57,13,-9
10455,1176,400,-1640,56,12,-9
10460,1168,408,-1608,56,14,-10
10465,1160,384,-1608,55,13,-9
10470,1152,416,-1600,55,13,-9
10475,1160,416,-1592,55,15,-8
10480,1168,400,-1600,54,14,-9
10485,1176,360,-1624,55,13,-9
10490,1184,392,-1576,54,14,-9
10495,1176,424,-1616,54,15,-9
10500,1144,424,-1584,55,15,-9
10505,1184,392,-1592,56,15,-10
10510,1176,400,-1600,56,14,-8
10515,1136,432,-1616,56,15,-9
10520,1168,408,-1624,54,14,-10
10525,1136,392,-1640,54,13,-11
10530,1152,392,-1584,53,13,-10
10535,1144,408,-1616,53,13,-9
10540,1168,400,-1624,53,12,-10
10545,1176,408,-1616,53,14,-8
10550,1168,416,-1592,54,14,-9
10555,1176,400,-1616,54,14,-10
10560,1152,392,-1600,54,14,-8
10565,1184,384,-1600,54,15,-8
10570,1144,416,-1576,54,15,-7
10575,1152,432,-1576,54,14,-8
10580,1168,392,-1592,52,15,-10
10585,1168,392,-1576,51,15,-8
10590,1176,408,-1632,51,15,-11
10595,1160,408,-1608,51,14,-9
10600,1160,408,-1568,53,13,-9
10605,1168,424,-1616,53,12,-9
10610,1168,408,-1608,55,14,-10
10615,1168,400,-1568,54,14,-10
10620,1160,472,-1640,54,12,-10
10625,1152,416,-1632,54,12,-9
10630,1144,384,-1640,54,13,-11
10635,1128,424,-1688,55,13,-10
10640,1176,408,-1584,54,12,-9
10645,1168,408,-1616,56,14,-10
10650,1152,408,-1608,56,12,-10
10655,1168,416,-1616,55,9,-9
10660,1168,400,-1624,56,8,-9
10665,1144,400,-1640,55,10,-9
10670,1168,384,-1584,57,10,-8
10675,1192,376,-1592,55,11,-9
10680,1184,416,-1616,54,12,-10
10685,1160,432,-1608,53,11,-10
10690,1168,416,-1536,51,13,-11
10695,1152,416,-1584,50,13,-11
10700,1184,408,-1592,51,11,-11
10705,1152,424,-1624,52,13,-11
10710,1184,400,-1576,53,11,-11
10715,1176,416,-1608,55,11,-10
10720,1176,408,-1608,54,10,-10
10725,1160,400,-1616,54,10,-11
10730,1184,384,-1616,54,10,-11
10735,1160,424,-1640,52,12,-9
10740,1184,392,-1616,51,13,-10
10745,1176,464,-1592,50,12,-12
10750,1168,400,-1616,50,12,-11
10755,1160,400,-1608,48,12,-11
10760,1184,384,-1624,49,13,-10
10765,1176,408,-1600,51,12,-10
10770,1168,392,-1608,52,13,-11
10775,1184,376,-1616,55,13,-9
10780,1144,416,-1632,55,13,-9
10785,1168,408,-1624,56,12,-9
10790,1144,400,-1616,57,13,-8
10795,1160,400,-1600,54,12,-8
10800,1152,368,-1608,53,11,-10
10805,1184,400,-1560,50,13,-11
10810,1168,400,-1624,49,13,-9
10815,1160,416,-1592,49,12,-12
10820,1152,400,-1616,49,12,-11
10825,1160,408,-1592,49,11,-10
10830,1168,408,-1584,49,10,-11
10835,1160,408,-1608,51,10,-11
10840,1152,392,-1624,52,11,-10
10845,1152,424,-1584,53,9,-9
10850,1168,400,-1584,53,10,-9
10855,1216,400,-1640,54,11,-10
10860,1176,424,-1600,55,10,-9
10865,1168,392,-1584,55,11,-11
10870,1168,408,-1600,55,10,-10
10875,1168,424,-1616,53,12,-9
10880,1192,408,-1600,52,10,-9
10885,1168,440,-1632,51,10,-10
10890,1168,376,-1624,53,10,-9
10895,1144,448,-1640,52,11,-9
10900,1168,432,-1560,53,9,-10
10905,1176,384,-1624,53,10,-10
10910,1168,400,-1608,53,8,-10
10915,1168,424,-1624,55,9,-10
10920,1176,392,-1584,56,10,-9
10925,1176,400,-1600,55,10,-8
10930,1168,400,-1608,56,9,-9
10935,1176,400,-1608,56,9,-11
10940,1160,408,-1600,57,10,-11
10945,1168,376,-1600,56,8,-10
10950,1168,408,-1616,57,10,-10
10955,1160,392,-1632,57,9,-10
10960,1232,384,-1552,57,10,-10
10965,1184,408,-1624,58,10,-9
10970,1176,416,-1584,59,10,-10
10975,1176,416,-1624,58,10,-9
10980,1152,408,-1648,58,10,-9
10985,1184,384,-1600,58,10,-9
10990,1176,416,-1616,59,9,-8
10995,1184,400,-1584,58,8,-9
11000,1152,408,-1648,60,9,-9
11005,1176,392,-1584,60,9,-7
11010,1152,408,-1608,60,10,-7
11015,1136,392,-1600,59,10,-8
11020,1176,408,-1616,58,11,-8
11025,1168,384,-1584,56,11,-8
11030,1176,408,-1608,55,12,-9
11035,1176,400,-1584,53,14,-10
11040,1136,432,-1592,53,13,-10
11045,1168,400,-1592,51,13,-11
11050,1152,384,-1648,51,15,-10
11055,1184,408,-1608,49,14,-9
11060,1160,384,-1608,49,14,-10
11065,1168,416,-1608,49,14,-10
11070,1168,392,-1600,51,13,-11
11075,1160,400,-1592,53,13,-10
11080,1168,416,-1608,54,13,-10
11085,1176,392,-1592,55,11,-10
11090,1176,392,-1616,55,12,-10
11095,1144,424,-1616,54,12,-10
11100,1160,392,-1592,54,13,-10
11105,1152,416,-1648,52,11,-10
11110,1176,392,-1592,52,12,-11
11115,1184,408,-1616,49,12,-11
11120,1152,384,-1632,50,12,-11
11125,1208,408,-1600,49,12,-11
11130,1176,408,-1616,49,13,-12
11135,1152,408,-1616,48,13,-12
11140,1160,400,-1608,49,14,-11
11145,1168,408,-1608,47,12,-11
11150,1168,392,-1624,48,14,-10
11155,1160,408,-1632,48,15,-12
11160,1160,368,-1624,49,16,-11
11165,1184,384,-1576,51,15,-11
11170,1152,416,-1592,51,16,-12
11175,1168,400,-1616,52,17,-9
11180,1176,360,-1584,52,17,-10
11185,1176,408,-1616,52,16,-9
11190,1160,400,-1584,52,16,-10
11195,1176,400,-1592,51,17,-9
11200,1184,408,-1640,51,16,-9
11205,1176,424,-1648,52,15,-12
11210,1160,416,-1624,51,16,-12
11215,1184,416,-1616,52,15,-11
11220,1176,392,-1640,50,15,-11
11225,1184,392,-1544,50,14,-12
11230,1160,416,-1616,50,14,-11
11235,1144,432,-1664,50,14,-9
11240,1144,400,-1632,57,16,-9
11245,1184,384,-1600,56,14,-9
11250,1176,384,-1640,52,13,-10
11255,1192,400,-1600,54,13,-9
11260,1168,416,-1592,54,13,-9
11265,1176,416,-1616,55,13,-9
11270,1160,424,-1592,54,12,-8
11275,1160,424,-1576,54,13,-10
11280,1152,400,-1608,53,13,-11
11285,1160,400,-1600,52,14,-12
11290,1152,400,-1568,52,13,-11
11295,1168,416,-1584,52,12,-12
11300,1152,408,-1616,52,13,-13
11305,1160,376,-1624,53,14,-12
11310,1184,392,-1600,53,13,-11
11315,1192,392,-1600,54,15,-10
11320,1160,416,-1616,55,12,-8
11325,1176,408,-1608,56,13,-10
11330,1200,384,-1576,55,12,-11
11335,1208,384,-1584,55,12,-11
11340,1176,416,-1624,56,13,-12
11345,1176,400,-1600,55,12,-10
11350,1168,400,-1608,55,11,-10
11355,1168,400,-1600,55,11,-10
11360,1168,408,-1584,54,11,-11
11365,1184,384,-1576,51,12,-10
11370,1168,408,-1608,52,13,-10
11375,1160,392,-1624,53,14,-11
11380,1176,424,-1608,54,13,-12
11385,1160,408,-1608,53,13,-11
11390,1168,392,-1624,54,13,-10
11395,1168,376,-1576,54,12,-11
11400,1192,400,-1600,54,12,-10
11405,1168,392,-1624,53,13,-10
11410,1168,400,-1648,54,13,-10
11415,1160,408,-1592,52,14,-9
11420,1176,408,-1640,51,14,-9
11425,1176,408,-1608,52,13,-10
11430,1152,400,-1632,52,15,-10
11435,1176,416,-1640,51,15,-10
11440,1184,408,-1616,52,14,-11
11445,1160,408,-1608,52,13,-11
11450,1152,376,-1600,52,13,-12
11455,1168,384,-1616,51,12,-12
11460,1216,392,-1624,51,13,-12
11465,1160,424,-1608,51,13,-12
11470,1176,400,-1632,51,11,-10
11475,1168,416,-1600,51,12,-10
11480,1184,400,-1600,51,10,-10
11485,1160,416,-1608,51,10,-14
11490,1176,400,-1664,50,11,-13
11495,1176,400,-1632,52,11,-11
11500,1160,384,-1600,52,12,-13
11505,1112,408,-1632,52,11,-12
11510,1176,416,-1600,50,11,-12
11515,1160,416,-1584,51,13,-11
11520,1176,408,-1624,51,13,-12
11525,1168,384,-1608,52,13,-11
11530,1184,392,-1632,52,14,-10
11535,1144,424,-1608,54,13,-9
11540,1152,384,-1608,53,12,-9
11545,1152,392,-1664,54,12,-10
11550,1168,416,-1600,55,13,-10
11555,1176,408,-1608,55,13,-10
11560,1128,456,-1608,56,12,-9
11565,1176,424,-1592,55,13,-10
11570,1168,440,-1600,54,13,-8
11575,1168,400,-1592,54,15,-9
11580,1168,392,-1608,52,14,-10
11585,1152,408,-1608,53,15,-9
11590,1160,416,-1608,53,17,-10
11595,1168,408,-1600,53,17,-9
11600,1144,400,-1576,53,15,-11
11605,1160,432,-1640,54,16,-10
11610,1152,392,-1584,53,16,-10
11615,1160,400,-1576,52,15,-9
11620,1168,400,-1624,53,15,-9
11625,1144,416,-1584,51,14,-10
11630,1192,392,-1600,51,14,-10
11635,1168,408,-1616,51,13,-11
11640,1176,392,-1600,51,12,-11
11645,1160,432,-1616,52,10,-11
11650,1184,376,-1608,53,9,-12
11655,1168,416,-1600,54,10,-12
11660,1168,392,-1584,53,10,-12
11665,1144,400,-1616,51,11,-13
11670,1152,400,-1592,50,12,-13
11675,1176,416,-1584,48,12,-13
11680,1152,424,-1616,48,13,-14
11685,1192,400,-1608,48,13,-13
11690,1176,424,-1632,47,13,-13
11695,1168,400,-1600,49,12,-13
11700,1192,400,-1592,49,10,-11
11705,1176,416,-1608,50,9,-11
11710,1168,400,-1592,51,10,-12
11715,1160,408,-1600,53,9,-11
11720,1152,400,-1616,54,7,-12
11725,1176,368,-1592,53,7,-10
11730,1176,416,-1576,51,5,-11
11735,1168,424,-1600,51,5,-11
11740,1160,416,-1576,50,4,-13
11745,1192,408,-1624,50,4,-12
11750,1176,392,-1592,49,4,-12
11755,1168,416,-1624,47,4,-12
11760,1192,392,-1608,47,3,-12
11765,1200,368,-1592,48,4,-12
11770,1168,400,-1640,50,5,-12
11775,1184,416,-1608,49,5,-11
11780,1176,448,-1624,49,5,-12
11785,1160,400,-1616,49,5,-14
11790,1160,432,-1608,49,6,-14
11795,1176,400,-1584,49,5,-12
11800,1184,408,-1672,50,6,-13
11805,1200,408,-1608,51,5,-11
11810,1152,416,-1616,51,6,-11
11815,1152,432,-1616,51,6,-13
11820,1192,384,-1624,50,6,-13
11825,1136,400,-1608,49,5,-12
11830,1144,448,-1624,49,5,-11
11835,1160,384,-1624,49,6,-12
11840,1168,392,-1616,51,6,-13
11845,1192,408,-1584,51,6,-12
11850,1160,416,-1632,50,7,-13
11855,1160,408,-1600,50,7,-12
11860,1160,400,-1592,50,8,-14
11865,1176,392,-1632,52,6,-14
11870,1168,392,-1648,53,6,-15
11875,1176,400,-1616,51,7,-14
11880,1160,400,-1608,51,6,-12
11885,1152,416,-1632,51,6,-13
11890,1192,392,-1584,51,6,-13
11895,1168,408,-1616,51,6,-12
11900,1168,408,-1632,51,5,-12
11905,1144,432,-1600,51,6,-12
11910,1160,400,-1592,49,5,-12
11915,1168,416,-1600,50,6,-14
11920,1160,416,-1624,49,4,-13
11925,1136,416,-1640,51,5,-13
11930,1176,384,-1616,51,6,-13
11935,1184,408,-1640,51,5,-13
11940,1192,400,-1568,52,7,-12
11945,1168,408,-1616,52,7,-13
11950,1160,408,-1624,53,8,-11
11955,1152,408,-1616,53,9,-10
11960,1160,408,-1640,53,10,-10
11965,1176,424,-1616,51,12,-11
11970,1160,408,-1600,50,13,-10
11975,1176,400,-1632,50,12,-10
11980,1160,408,-1624,48,14,-10
11985,1152,376,-1624,47,14,-11
11990,1160,424,-1600,46,13,-12
11995,1128,392,-1656,46,14,-12
12000,1160,408,-1616,46,14,-14
12005,1152,432,-1616,47,14,-13
12010,1160,424,-1616,47,13,-12
12015,1184,392,-1608,50,12,-11
12020,1160,392,-1616,50,12,-12
12025,1152,424,-1584,50,12,-10
12030,1168,400,-1608,51,13,-12
12035,1152,384,-1624,50,12,-12
12040,1160,416,-1624,48,12,-12
12045,1160,416,-1584,46,11,-13
12050,1096,464,-1584,47,12,-14
12055,1184,384,-1576,45,11,-12
12060,1144,400,-1624,46,11,-14
12065,1168,408,-1584,47,11,-14
12070,1152,416,-1624,47,10,-13
12075,1160,416,-1616,47,11,-14
12080,1176,424,-1632,48,10,-14
12085,1168,392,-1600,48,11,-11
12090,1152,392,-1624,48,9,-12
12095,1144,400,-1608,48,9,-11
12100,1168,392,-1600,48,10,-12
12105,1144,440,-1600,50,10,-13
12110,1160,416,-1632,49,9,-13
12115,1168,432,-1632,49,9,-13
12120,1136,400,-1624,49,10,-13
12125,1184,408,-1592,49,10,-12
12130,1168,400,-1616,48,12,-12
12135,1176,392,-1616,47,10,-13
12140,1160,424,-1608,48,11,-13
12145,1152,448,-1616,48,10,-12
12150,1144,432,-1592,48,10,-11
12155,1120,408,-1616,48,9,-10
12160,1160,384,-1592,54,9,-13
12165,1160,432,-1600,50,9,-13
12170,1168,416,-1600,46,7,-13
12175,1144,400,-1608,42,5,-13
12180,1168,416,-1632,41,6,-13
12185,1176,408,-1632,45,8,-14
12190,1176,416,-1616,48,7,-13
12195,1176,392,-1632,49,8,-13
12200,1176,416,-1600,50,8,-12
12205,1176,392,-1592,53,9,-10
12210,1160,424,-1640,53,9,-11
12215,1160,408,-1616,51,9,-13
12220,1168,400,-1616,51,9,-12
12225,1160,424,-1616,50,9,-12
12230,1176,416,-1608,50,10,-12
12235,1144,400,-1648,49,10,-13
12240,1168,416,-1648,49,10,-13
12245,1168,376,-1600,50,8,-12
12250,1160,416,-1664,49,9,-12
12255,1168,408,-1584,50,7,-12
12260,1168,384,-1584,51,7,-11
12265,1184,416,-1608,51,6,-11
12270,1128,400,-1672,50,6,-12
12275,1176,400,-1624,52,6,-12
12280,1168,376,-1616,50,5,-12
12285,1144,424,-1616,52,6,-11
12290,1152,416,-1616,53,8,-11
12295,1160,424,-1616,51,9,-9
12300,1168,424,-1624,51,9,-10
12305,1152,400,-1608,51,11,-12
12310,1136,416,-1616,53,10,-10
12315,1136,408,-1632,54,9,-11
12320,1144,400,-1616,54,9,-9
12325,1176,384,-1600,53,9,-9
12330,1136,424,-1608,53,10,-10
12335,1168,408,-1608,55,11,-10
12340,1160,440,-1656,54,10,-10
12345,1160,408,-1624,54,10,-9
12350,1152,424,-1600,53,11,-8
12355,1152,416,-1616,53,11,-8
12360,1168,384,-1608,54,12,-10
12365,1184,400,-1616,54,12,-10
12370,1160,384,-1648,54,12,-8
12375,1152,424,-1608,54,13,-8
12380,1152,392,-1608,52,13,-8
12385,1168,392,-1624,52,14,-8
12390,1160,408,-1616,52,14,-10
12395,1176,400,-1584,52,14,-10
12400,1184,400,-1616,51,13,-9
12405,1128,416,-1592,50,14,-9
12410,1144,400,-1600,52,13,-10
12415,1160,424,-1600,51,12,-9
12420,1152,424,-1600,51,10,-9
12425,1128,408,-1600,50,10,-9
12430,1144,392,-1560,51,12,-10
12435,1152,432,-1640,49,11,-10
12440,1168,400,-1624,49,12,-11
12445,1160,392,-1592,48,11,-9
12450,1168,408,-1608,49,11,-11
12455,1192,416,-1600,49,11,-10
12460,1128,400,-1600,49,10,-10
12465,1152,408,-1600,48,10,-11
12470,1152,440,-1656,48,11,-12
12475,1160,432,-1624,50,11,-10
12480,1168,400,-1640,48,11,-9
12485,1128,480,-1592,49,11,-11
12490,1160,416,-1600,49,11,-10
12495,1168,392,-1608,48,11,-12
12500,1160,416,-1608,47,11,-11
12505,1176,416,-1608,47,11,-10
12510,1152,424,-1624,48,10,-11
12515,1192,408,-1608,49,11,-12
12520,1152,392,-1600,51,9,-9
12525,1144,416,-1632,52,9,-10
12530,1176,384,-1592,52,9,-11
12535,1152,424,-1600,53,9,-11
12540,1176,408,-1576,51,9,-10
12545,1160,440,-1616,52,10,-12
12550,1176,392,-1616,51,10,-13
12555,1152,400,-1624,50,9,-13
12560,1152,424,-1608,50,10,-13
12565,1136,432,-1616,50,11,-11
12570,1184,416,-1608,50,11,-11
12575,1168,392,-1632,50,12,-10
12580,1208,400,-1608,50,13,-10
12585,1144,408,-1616,50,13,-10
12590,1160,440,-1592,51,12,-11
12595,1192,368,-1632,53,13,-9
12600,1136,408,-1616,54,11,-9
12605,1160,400,-1600,55,10,-9
12610,1160,424,-1600,55,8,-10
12615,1168,392,-1600,54,9,-9
12620,1160,408,-1616,53,7,-11
12625,1160,392,-1608,54,6,-10
12630,1136,416,-1608,53,7,-10
12635,1168,408,-1616,53,8,-10
12640,1184,400,-1600,54,9,-10
12645,1152,416,-1616,54,9,-9
12650,1216,392,-1640,54,11,-10
12655,1176,376,-1624,54,10,-7
12660,1152,416,-1632,55,10,-8
12665,1160,416,-1616,55,11,-8
12670,1192,440,-1656,55,11,-7
12675,1152,400,-1600,55,11,-8
12680,1176,392,-1632,54,12,-8
12685,1144,424,-1624,54,12,-9
12690,1168,400,-1648,53,12,-8
12695,1176,424,-1632,53,14,-11
12700,1152,432,-1624,52,13,-10
12705,1152,440,-1616,53,11,-9
12710,1152,400,-1600,53,11,-9
12715,1160,416,-1624,52,12,-8
12720,1168,408,-1600,52,12,-10
12725,1184,408,-1624,51,12,-10
12730,1160,408,-1624,52,13,-9
12735,1160,384,-1584,52,12,-10
12740,1160,424,-1592,52,13,-9
12745,1168,424,-1608,52,11,-12
12750,1184,400,-1632,52,11,-10
12755,1176,408,-1616,54,11,-10
12760,1144,408,-1640,53,11,-9
12765,1152,392,-1640,53,10,-8
12770,1152,408,-1560,53,11,-10
12775,1168,408,-1616,54,11,-10
12780,1160,400,-1616,53,12,-11
12785,1152,408,-1640,54,13,-9
12790,1160,384,-1600,54,13,-10
12795,1152,432,-1592,54,14,-10
12800,1160,400,-1616,55,13,-9
12805,1152,376,-1632,54,14,-7
12810,1160,400,-1616,53,14,-10
12815,1144,408,-1608,53,15,-9
12820,1160,408,-1624,53,14,-10
12825,1160,424,-1616,52,13,-8
12830,1168,424,-1608,53,14,-8
12835,1152,392,-1600,54,13,-9
12840,1160,408,-1624,52,15,-8
12845,1144,432,-1624,51,15,-8
12850,1160,424,-1624,52,16,-9
12855,1152,384,-1640,51,16,-9
12860,1184,400,-1608,52,15,-8
12865,1184,392,-1608,52,15,-8
12870,1160,400,-1600,52,15,-8
12875,1176,408,-1632,51,16,-9
12880,1144,408,-1616,50,16,-11
12885,1168,400,-1624,51,16,-9
12890,1144,440,-1632,53,15,-11
12895,1152,408,-1656,54,16,-11
12900,1216,424,-1624,54,14,-10
12905,1168,424,-1664,54,14,-10
12910,1144,408,-1624,53,15,-11
12915,1144,432,-1640,54,14,-10
12920,1144,432,-1592,52,15,-10
12925,1200,416,-1568,51,15,-9
12930,1152,416,-1640,52,14,-9
12935,1184,416,-1608,52,15,-11
12940,1144,416,-1608,53,14,-9
12945,1144,408,-1600,52,14,-9
12950,1176,408,-1584,51,14,-10
12955,1144,408,-1600,50,14,-9
12960,1184,392,-1600,50,12,-11
12965,1168,416,-1608,51,13,-11
12970,1176,424,-1632,51,13,-10
12975,1192,384,-1632,52,13,-10
12980,1168,384,-1632,53,12,-10
12985,1160,400,-1592,53,13,-12
12990,1152,400,-1568,53,12,-12
12995,1176,400,-1616,53,13,-10
13000,1168,408,-1592,53,12,-10
13005,1160,400,-1632,51,12,-9
13010,1160,424,-1648,52,13,-10
13015,1168,416,-1608,53,13,-10
13020,1152,408,-1632,53,14,-11
13025,1176,416,-1592,53,14,-9
13030,1160,440,-1624,52,14,-10
13035,1184,408,-1608,53,13,-10
13040,1192,392,-1592,53,13,-10
13045,1160,392,-1600,53,13,-10
13050,1168,416,-1624,54,13,-11
13055,1160,424,-1608,52,13,-10
13060,1184,400,-1672,52,13,-11
13065,1160,392,-1624,52,13,-10
13070,1152,400,-1600,52,12,-10
13075,1160,424,-1592,52,12,-9
13080,1152,400,-1568,53,12,-11
13085,1192,392,-1584,52,12,-12
13090,1176,408,-1608,52,12,-10
13095,1160,400,-1616,52,13,-10
13100,1168,408,-1624,52,13,-10
13105,1152,400,-1616,53,13,-9
13110,1160,408,-1600,53,12,-10
13115,1168,400,-1592,52,13,-10
13120,1176,416,-1624,53,11,-11
13125,1144,384,-1608,53,12,-10
13130,1160,392,-1600,52,14,-12
13135,1184,408,-1640,51,13,-10
13140,1136,448,-1632,52,13,-10
13145,1152,384,-1600,51,13,-11
13150,1160,400,-1592,51,13,-12
13155,1168,384,-1600,52,11,-11
13160,1144,416,-1616,50,12,-10
13165,1192,408,-1592,51,12,-9
13170,1168,392,-1608,52,12,-9
13175,1152,408,-1600,52,10,-9
13180,1160,440,-1616,53,10,-10
13185,1168,392,-1624,53,11,-9
13190,1152,400,-1616,52,11,-9
13195,1128,368,-1680,52,11,-9
13200,1168,416,-1608,50,12,-10
13205,1152,408,-1608,50,12,-9
13210,1176,384,-1592,50,13,-10
13215,1176,400,-1616,49,13,-11
13220,1160,416,-1632,50,13,-12
13225,1176,424,-1624,50,14,-10
13230,1144,408,-1632,49,14,-9
13235,1184,416,-1616,51,13,-11
13240,1160,384,-1616,51,12,-11
13245,1152,400,-1640,52,13,-9
13250,1176,376,-1624,51,12,-10
13255,1144,416,-1632,52,12,-11
13260,1168,408,-1648,51,12,-11
13265,1152,400,-1616,52,12,-10
13270,1152,408,-1592,53,12,-10
13275,1176,400,-1640,53,13,-10
13280,1160,392,-1616,51,13,-10
13285,1168,384,-1624,50,14,-11
13290,1176,416,-1608,50,14,-11
13295,1160,408,-1624,51,13,-12
13300,1160,392,-1624,49,13,-11
13305,1160,408,-1592,51,14,-10
13310,1152,408,-1616,53,12,-8
13315,1152,424,-1632,55,11,-9
13320,1176,392,-1648,55,11,-10
13325,1152,416,-1616,55,11,-10
13330,1160,400,-1600,55,12,-9
13335,1160,400,-1648,54,11,-10
13340,1144,416,-1608,54,12,-10
13345,1160,400,-1592,52,13,-11
13350,1160,424,-1632,52,13,-11
13355,1144,424,-1616,51,13,-11
13360,1136,392,-1648,52,13,-10
13365,1160,424,-1608,53,13,-10
13370,1152,392,-1608,54,13,-10
13375,1160,424,-1616,54,12,-9
13380,1168,432,-1624,54,11,-10
13385,1152,416,-1624,53,13,-9
13390,1184,416,-1600,52,13,-10
13395,1160,408,-1624,52,13,-10
13400,1152,416,-1576,51,13,-12
13405,1168,384,-1600,51,13,-10
13410,1168,432,-1584,52,11,-11
13415,1184,400,-1576,54,11,-12
13420,1160,400,-1608,54,12,-12
13425,1168,384,-1584,54,10,-11
13430,1152,424,-1592,53,13,-11
13435,1168,400,-1616,52,13,-11
13440,1176,416,-1656,51,14,-12
13445,1152,416,-1608,50,14,-11
13450,1144,400,-1624,50,16,-11
13455,1176,400,-1608,49,15,-10
13460,1176,392,-1616,49,15,-10
13465,1128,392,-1608,50,14,-10
13470,1152,416,-1616,51,14,-11
13475,1152,408,-1624,50,14,-10
13480,1184,384,-1584,51,13,-9
13485,1168,408,-1600,53,14,-8
13490,1184,408,-1608,55,12,-9
13495,1160,416,-1584,55,12,-10
13500,1176,376,-1608,53,10,-10
13505,1160,392,-1600,54,10,-10
13510,1168,392,-1608,52,10,-11
13515,1168,416,-1624,52,8,-11
13520,1128,416,-1568,50,8,-11
13525,1168,416,-1632,49,8,-12
13530,1152,416,-1608,49,7,-11
13535,1176,416,-1616,48,8,-10
13540,1168,384,-1624,50,9,-9
13545,1168,400,-1608,50,9,-10
13550,1152,416,-1632,50,8,-11
13555,1168,424,-1632,50,8,-12
13560,1168,416,-1640,52,9,-11
13565,1152,384,-1608,52,9,-10
13570,1176,400,-1592,52,10,-11
13575,1136,416,-1616,53,11,-11
13580,1160,416,-1616,54,11,-9
13585,1160,408,-1608,53,11,-11
13590,1176,408,-1640,54,10,-11
13595,1168,400,-1624,53,10,-11
13600,1136,432,-1600,53,11,-12
13605,1168,408,-1632,53,11,-11
13610,1176,440,-1624,53,10,-10
13615,1168,400,-1576,53,11,-12
13620,1168,400,-1632,54,11,-12
13625,1144,416,-1608,53,11,-12
13630,1136,400,-1552,52,10,-12
13635,1152,416,-1648,54,9,-12
13640,1168,392,-1608,54,9,-12
13645,1168,408,-1592,53,9,-12
13650,1168,384,-1624,53,8,-12
13655,1160,384,-1608,53,9,-10
13660,1152,400,-1616,53,10,-8
13665,1160,408,-1624,53,10,-8
13670,1152,400,-1600,55,11,-8
13675,1176,408,-1632,56,11,-9
13680,1168,400,-1616,56,11,-9
13685,1120,408,-1608,56,12,-8
13690,1184,400,-1576,57,11,-9
13695,1144,424,-1632,56,12,-8
13700,1176,408,-1616,56,13,-10
13705,1168,408,-1632,54,13,-9
13710,1160,408,-1624,54,14,-10
13715,1168,416,-1600,53,15,-10
13720,1168,400,-1608,52,14,-10
13725,1152,400,-1656,51,13,-10
13730,1160,400,-1608,53,14,-9
13735,1152,408,-1624,53,14,-9
13740,1128,360,-1592,51,15,-9
13745,1160,400,-1592,52,15,-10
13750,1168,400,-1600,51,14,-9
13755,1168,424,-1640,52,15,-9
13760,1160,432,-1608,53,15,-10
13765,1136,424,-1600,52,15,-9
13770,1184,416,-1608,51,16,-8
13775,1144,408,-1632,50,16,-10
13780,1176,408,-1600,51,18,-10
13785,1160,408,-1656,51,17,-9
13790,1160,400,-1576,53,17,-10
13795,1168,392,-1640,53,17,-9
13800,1168,416,-1616,52,17,-8
13805,1144,408,-1616,52,17,-11
13810,1152,416,-1632,52,17,-11
13815,1160,400,-1640,52,16,-10
13820,1160,384,-1624,51,17,-10
13825,1184,416,-1616,50,15,-11
13830,1160,392,-1576,50,14,-11
13835,1144,416,-1616,48,13,-11
13840,1176,416,-1560,49,14,-12
13845,1184,400,-1592,50,13,-11
13850,1160,368,-1576,50,12,-11
13855,1168,400,-1640,50,12,-10
13860,1160,400,-1600,51,14,-11
13865,1168,416,-1616,52,14,-10
13870,1160,408,-1624,52,15,-10
13875,1160,416,-1632,53,15,-10
13880,1168,392,-1616,53,15,-9
13885,1144,392,-1608,54,15,-9
13890,1152,424,-1624,54,15,-10
13895,1168,408,-1616,52,15,-8
13900,1160,392,-1600,52,15,-8
13905,1128,392,-1696,52,13,-7
13910,1152,448,-1592,52,12,-10
13915,1176,408,-1616,51,13,-10
13920,1160,400,-1624,53,14,-9
13925,1160,424,-1600,53,12,-10
13930,1160,408,-1624,52,12,-10
13935,1160,416,-1616,52,12,-9
13940,1168,408,-1640,53,12,-9
13945,1152,408,-1616,53,11,-9
13950,1192,392,-1616,54,11,-9
13955,1152,408,-1600,54,11,-10
13960,1152,408,-1616,54,9,-10
13965,1168,408,-1616,54,12,-12
13970,1176,424,-1632,54,11,-12
13975,1160,400,-1600,55,13,-11
13980,1160,408,-1624,55,12,-10
13985,1144,416,-1616,54,14,-11
13990,1152,376,-1648,54,14,-10
13995,1152,432,-1592,55,13,-8
14000,1152,400,-1616,52,14,-9
14005,1152,416,-1616,52,13,-9
14010,1144,416,-1640,51,13,-9
14015,1200,408,-1632,51,12,-9
14020,1144,408,-1616,52,13,-10
14025,1184,392,-1600,52,13,-10
14030,1152,416,-1632,53,11,-10
14035,1168,392,-1592,53,11,-10
14040,1184,408,-1624,53,11,-11
14045,1168,416,-1592,53,10,-10
14050,1144,424,-1624,54,10,-10
14055,1160,392,-1624,53,10,-11
14060,1176,416,-1584,53,11,-9
14065,1144,408,-1584,54,11,-11
14070,1168,416,-1608,54,11,-10
14075,1152,416,-1624,54,12,-9
14080,1152,392,-1600,53,14,-9
14085,1168,384,-1632,53,14,-11
14090,1160,416,-1632,52,15,-10
14095,1168,408,-1584,52,15,-9
14100,1168,408,-1608,52,15,-9
14105,1168,384,-1640,52,14,-9
14110,1184,384,-1632,52,15,-10
14115,1144,392,-1576,52,14,-10
14120,1168,456,-1632,51,14,-10
14125,1184,392,-1616,51,13,-11
14130,1168,424,-1600,51,12,-10
14135,1176,416,-1608,50,12,-10
14140,1152,408,-1616,51,13,-9
14145,1152,416,-1608,52,13,-12
14150,1176,392,-1584,52,12,-10
14155,1168,384,-1616,52,12,-10
14160,1160,392,-1648,49,11,-9
14165,1144,400,-1624,52,13,-9
14170,1152,432,-1616,52,12,-11
14175,1168,448,-1640,54,14,-9
14180,1144,432,-1616,54,13,-9
14185,1152,400,-1600,53,13,-9
14190,1168,400,-1632,53,15,-11
14195,1152,408,-1584,52,15,-10
14200,1152,408,-1624,53,13,-11
14205,1152,408,-1624,53,15,-8
14210,1184,424,-1616,52,15,-8
14215,1152,408,-1600,52,15,-10
14220,1160,392,-1632,52,15,-9
14225,1192,384,-1624,52,14,-10
14230,1192,400,-1648,53,14,-10
14235,1168,400,-1608,52,13,-11
14240,1160,408,-1600,53,13,-11
14245,1176,392,-1624,53,11,-10
14250,1184,384,-1616,53,12,-9
14255,1160,368,-1632,53,12,-9
14260,1144,416,-1624,52,12,-11
14265,1136,424,-1632,52,11,-11
14270,1176,416,-1632,52,11,-10
14275,1160,432,-1616,52,11,-10
14280,1160,384,-1632,53,10,-9
14285,1152,496,-1584,53,11,-11
14290,1168,400,-1624,52,11,-11
14295,1160,424,-1640,53,12,-9
14300,1176,424,-1616,51,12,-10
14305,1168,408,-1584,51,13,-10
14310,1168,400,-1608,51,13,-11
14315,1168,408,-1608,51,13,-8
14320,1192,376,-1608,52,13,-11
14325,1144,400,-1616,53,11,-10
14330,1168,392,-1616,54,10,-11
14335,1168,384,-1600,55,10,-9
14340,1152,400,-1616,55,9,-11
14345,1160,408,-1600,54,9,-11
14350,1168,424,-1608,52,11,-12
14355,1184,408,-1616,50,13,-12
14360,1152,400,-1632,50,12,-12
14365,1160,416,-1616,48,13,-11
14370,1152,416,-1608,50,14,-10
14375,1184,400,-1592,51,13,-11
14380,1168,408,-1584,51,12,-10
14385,1152,400,-1608,51,13,-9
14390,1136,400,-1592,53,13,-10
14395,1128,392,-1600,53,13,-10
14400,1160,408,-1608,54,13,-11
14405,1160,392,-1624,54,13,-10
14410,1144,400,-1600,53,13,-10
14415,1152,432,-1600,53,11,-10
14420,1152,392,-1592,51,9,-9
14425,1168,384,-1568,52,9,-12
14430,1168,376,-1624,51,8,-11
14435,1152,424,-1608,50,7,-11
14440,1160,392,-1600,50,8,-10
14445,1152,400,-1616,49,8,-11
14450,1160,376,-1624,50,9,-11
14455,1168,408,-1616,51,7,-12
14460,1184,400,-1640,51,8,-13
14465,1168,408,-1624,51,9,-11
14470,1168,384,-1624,50,9,-10
14475,1176,400,-1632,52,10,-9
14480,1160,416,-1608,53,11,-11
14485,1184,392,-1632,52,14,-10
14490,1160,432,-1616,51,13,-10
14495,1208,392,-1672,50,14,-11
14500,1160,368,-1520,51,14,-10
14505,1176,416,-1600,51,14,-10
14510,1184,416,-1608,50,14,-10
14515,1160,424,-1600,51,13,-10
14520,1168,416,-1600,51,12,-11
14525,1184,400,-1640,51,11,-12
14530,1160,416,-1616,53,11,-12
14535,1200,408,-1616,52,10,-12
14540,1168,392,-1608,52,10,-11
14545,1144,408,-1640,52,11,-11
14550,1184,424,-1616,51,10,-12
14555,1152,400,-1592,53,10,-12
14560,1160,424,-1624,53,10,-11
14565,1176,408,-1608,53,11,-11
14570,1160,392,-1600,53,11,-12
14575,1160,408,-1616,52,11,-12
14580,1152,408,-1600,52,11,-11
14585,1160,408,-1616,54,10,-12
14590,1184,400,-1616,53,11,-11
14595,1160,408,-1640,54,9,-11
14600,1144,400,-1640,55,9,-11
14605,1160,384,-1624,53,10,-12
14610,1232,440,-1568,54,10,-11
14615,1184,408,-1616,52,11,-10
14620,1152,400,-1640,52,12,-10
14625,1168,440,-1592,51,11,-11
14630,1144,400,-1600,52,11,-11
14635,1168,392,-1616,52,11,-12
14640,1168,392,-1608,53,12,-11
14645,1192,400,-1608,52,13,-12
14650,1184,376,-1640,52,12,-9
14655,1168,416,-1624,52,14,-9
14660,1160,408,-1648,51,14,-10
14665,1176,376,-1640,50,15,-11
14670,1176,432,-1608,50,15,-11
14675,1192,392,-1624,50,16,-10
14680,1144,376,-1624,49,17,-11
14685,1176,400,-1584,48,16,-12
14690,1160,392,-1600,49,16,-12
14695,1168,424,-1600,49,15,-11
14700,1160,432,-1592,50,14,-10
14705,1160,400,-1616,50,14,-11
14710,1160,408,-1640,52,12,-11
14715,1184,392,-1600,52,10,-11
14720,1216,376,-1624,51,11,-11
14725,1160,408,-1592,50,12,-11
14730,1152,424,-1632,49,13,-10
14735,1184,400,-1624,48,14,-11
14740,1152,408,-1624,48,14,-12
14745,1160,400,-1592,48,13,-14
14750,1160,424,-1600,49,13,-12
14755,1192,368,-1576,48,13,-12
14760,1152,400,-1632,49,14,-12
14765,1168,384,-1608,49,12,-13
14770,1152,408,-1624,49,12,-14
14775,1152,400,-1592,50,12,-11
14780,1160,408,-1600,50,12,-10
14785,1176,392,-1600,50,12,-9
14790,1152,416,-1592,51,12,-11
14795,1168,424,-1592,51,13,-12
14800,1168,408,-1600,51,13,-12
14805,1152,400,-1600,50,12,-12
14810,1176,384,-1616,51,12,-10
14815,1176,384,-1600,51,13,-12
14820,1168,408,-1624,51,13,-12
14825,1200,376,-1608,50,13,-11
14830,1176,392,-1624,51,13,-12
14835,1144,408,-1616,52,13,-11
14840,1160,416,-1656,53,13,-10
14845,1152,392,-1600,53,13,-10
14850,1184,408,-1600,53,11,-12
14855,1152,416,-1648,51,11,-11
14860,1176,392,-1632,51,12,-11
14865,1176,400,-1616,51,11,-12
14870,1168,408,-1592,51,12,-12
14875,1160,424,-1616,50,11,-12
14880,1160,400,-1592,50,11,-12
14885,1176,424,-1624,50,11,-11
14890,1160,400,-1608,49,11,-13
14895,1160,416,-1616,51,12,-12
14900,1168,408,-1600,50,11,-11
14905,1192,400,-1632,50,12,-12
14910,1160,424,-1616,51,12,-11
14915,1152,432,-1608,51,11,-11
14920,1144,376,-1648,52,11,-11
14925,1128,416,-1632,52,11,-12
14930,1160,400,-1608,51,10,-11
14935,1160,400,-1584,51,11,-12
14940,1160,408,-1640,51,12,-11
14945,1168,408,-1608,49,12,-13
14950,1144,416,-1584,49,12,-13
14955,1176,392,-1624,49,11,-13
14960,1208,392,-1624,49,10,-11
14965,1152,424,-1624,49,10,-13
14970,1160,424,-1616,48,9,-12
14975,1160,400,-1640,49,10,-11
14980,1192,384,-1584,50,9,-11
14985,1176,384,-1624,50,9,-11
14990,1112,400,-1632,50,9,-12
14995,1160,408,-1616,51,11,-11
