timestamp,accel_x,accel_y,accel_z,gyro_x,gyro_y,gyro_z
0,136,-2048,120,8,65,-6
5,144,-2056,120,10,65,-5
10,136,-2056,128,13,65,-3
15,128,-2024,136,15,65,-2
20,136,-2048,120,17,67,-2
25,120,-2024,144,18,68,-1
30,112,-2024,112,19,69,0
35,136,-2032,120,18,68,-2
40,128,-2024,112,17,68,-1
45,136,-2040,128,17,68,-2
50,112,-2032,104,16,67,-3
55,136,-2008,144,14,66,-3
60,128,-2016,136,14,67,-4
65,120,-2016,96,13,69,-3
70,120,-2024,136,13,68,-3
75,112,-2016,168,12,68,-2
80,128,-2008,128,11,69,-3
85,96,-2008,112,9,71,-1
90,112,-2000,112,6,69,0
95,104,-2032,128,6,71,2
100,120,-2008,112,3,71,2
105,128,-2024,144,3,69,2
110,128,-2016,136,3,68,2
115,128,-2000,144,3,66,3
120,128,-2008,136,4,64,3
125,152,-2024,136,6,61,3
130,136,-2032,136,7,60,2
135,152,-2024,120,7,57,2
140,152,-2032,128,8,56,1
145,152,-2032,128,8,54,-1
150,168,-2032,120,7,52,-3
155,160,-2032,136,8,51,-3
160,136,-2032,112,7,50,-5
165,128,-2024,136,7,50,-4
170,128,-2024,152,5,51,-5
175,168,-2040,128,7,51,-6
180,128,-2024,152,7,52,-5
185,128,-2040,144,8,53,-3
190,120,-2008,144,8,53,-4
195,144,-2048,136,9,54,-1
200,104,-2024,160,11,55,-2
205,120,-2024,144,11,56,0
210,136,-2056,120,11,55,-2
215,136,-2024,160,10,54,0
220,128,-2008,176,9,55,-1
225,120,-2016,144,10,55,1
230,128,-2032,144,9,56,0
235,160,-2024,136,11,55,2
240,136,-2008,160,10,55,3
245,104,-2000,120,11,55,7
250,144,-2008,144,11,54,5
255,112,-2000,176,12,55,6
260,152,-2008,160,11,54,5
265,120,-2016,160,10,54,7
270,144,-2016,128,12,55,5
275,128,-2024,152,11,55,7
280,112,-2016,144,10,56,5
285,144,-2008,152,10,56,7
290,144,-2032,160,9,57,5
295,128,-2032,168,9,57,7
300,112,-2024,144,9,59,5
305,144,-2000,152,9,60,6
310,112,-2032,136,9,61,5
315,120,-2032,128,9,60,6
320,136,-2016,136,11,63,5
325,128,-2032,144,11,63,6
330,120,-2032,152,10,62,5
335,112,-2024,128,11,64,7
340,136,-2024,128,10,63,4
345,104,-2016,136,10,65,5
350,120,-2016,144,11,65,3
355,120,-2016,136,10,66,6
360,104,-2008,128,10,65,4
365,112,-2024,128,9,66,5
370,112,-2032,128,8,63,3
375,104,-2016,144,6,63,4
380,96,-2024,152,5,66,1
385,144,-2032,152,3,67,3
390,136,-2008,152,0,66,2
395,112,-2008,168,-1,67,4
400,128,-2024,144,-3,69,1
405,136,-2008,128,-5,69,4
410,136,-2008,168,-7,69,4
415,136,-2024,152,-7,69,6
420,136,-2008,160,-6,70,5
425,144,-2024,144,-4,70,8
430,152,-2016,176,-6,70,6
435,120,-2008,168,-8,69,7
440,112,-2008,184,-9,69,5
445,144,-2032,144,-7,69,8
450,104,-2032,160,-7,68,5
455,120,-2032,152,-7,67,6
460,112,-2024,152,-10,66,2
465,120,-2032,168,-11,63,4
470,128,-2024,136,-11,63,2
475,112,-2024,176,-15,63,3
480,104,-2016,128,-15,63,-1
485,120,-2024,144,-16,63,0
490,96,-2024,168,-18,63,-2
495,128,-2016,168,-22,62,-1
500,104,-2024,136,-26,62,-4
505,128,-2040,176,-29,62,-3
510,104,-2024,168,-30,65,-6
515,128,-2040,160,-30,64,-3
520,136,-2048,176,-29,65,-5
525,120,-2024,160,-25,66,-3
530,120,-2032,160,-22,67,-4
535,136,-2040,168,-19,68,0
540,144,-2040,160,-16,67,-2
545,128,-2016,184,-13,67,0
550,120,-2024,152,-9,67,-1
555,112,-2056,144,-7,66,3
560,120,-2024,144,-6,64,2
565,120,-2016,160,-3,63,4
570,104,-2024,152,-1,62,3
575,128,-2040,152,2,61,5
580,128,-2032,144,5,63,3
585,96,-2032,136,7,62,4
590,104,-2056,152,8,62,1
595,112,-2040,136,9,62,1
600,112,-2048,176,6,63,-2
605,120,-2024,152,3,63,0
610,96,-2016,184,2,64,-3
615,104,-2024,160,-2,65,-1
620,120,-2048,136,-7,67,-3
625,104,-1992,160,-9,68,0
630,120,-2000,152,-11,69,0
635,104,-2016,160,-15,69,4
640,120,-2008,168,-15,70,3
645,120,-2000,152,-17,69,7
650,120,-1992,152,-17,66,6
655,104,-1984,136,-17,65,9
660,104,-2000,168,-15,63,5
665,112,-2000,168,-13,62,8
670,120,-1992,184,-12,58,5
675,128,-2000,168,-11,55,6
680,128,-1976,152,-11,51,2
685,104,-2008,144,-10,49,3
690,120,-2000,136,-9,46,-1
695,128,-2016,128,-10,44,-1
700,120,-2016,168,-14,44,-5
705,120,-2048,144,-13,43,-4
710,128,-2032,176,-16,44,-8
715,128,-2016,152,-17,44,-7
720,120,-2016,128,-18,44,-11
725,104,-2040,104,-19,44,-9
730,120,-2032,160,-20,47,-11
735,120,-2032,168,-20,47,-8
740,120,-2048,144,-20,49,-11
745,120,-2040,136,-18,49,-8
750,104,-2024,136,-16,49,-10
755,104,-2032,144,-14,50,-8
760,96,-2016,168,-14,49,-9
765,112,-2032,176,-14,50,-7
770,120,-2000,160,-14,51,-11
775,112,-2008,160,-13,50,-10
780,112,-2016,160,-13,50,-10
785,136,-2008,176,-12,51,-8
790,120,-2008,184,-13,49,-9
795,96,-2008,184,-12,50,-7
800,136,-2008,168,-12,50,-8
805,104,-2008,160,-11,49,-6
810,120,-2008,160,-11,49,-7
815,112,-2016,136,-10,50,-6
820,80,-2008,168,-12,51,-8
825,96,-1992,168,-13,49,-6
830,128,-2024,152,-14,50,-7
835,120,-2000,152,-14,51,-6
840,128,-2024,200,-16,52,-7
845,120,-2016,176,-15,52,-7
850,128,-2024,160,-16,53,-8
855,96,-2016,160,-18,55,-6
860,104,-2024,144,-19,55,-7
865,96,-2008,152,-19,56,-6
870,128,-2024,152,-19,53,-7
875,112,-2024,176,-22,54,-6
880,128,-2032,144,-23,54,-7
885,96,-2000,176,-25,55,-6
890,120,-2032,104,-26,56,-7
895,128,-2024,136,-27,58,-6
900,120,-2024,136,-30,58,-7
905,120,-2024,152,-32,59,-7
910,112,-2024,128,-34,59,-10
915,136,-2032,128,-35,60,-7
920,112,-2024,136,-36,61,-9
925,144,-2040,120,-37,60,-8
930,128,-2008,184,-37,62,-9
935,120,-2024,152,-38,61,-9
940,128,-2032,144,-37,62,-10
945,112,-2024,160,-39,63,-9
950,144,-2040,152,-39,62,-10
955,136,-2032,168,-36,63,-8
960,144,-2008,144,-36,62,-10
965,136,-2008,184,-36,62,-8
970,120,-2024,152,-36,62,-10
975,152,-2016,160,-36,61,-10
980,136,-2032,136,-35,59,-9
985,136,-2024,168,-35,59,-9
990,112,-1992,152,-39,58,-9
995,120,-2000,136,-39,57,-9
1000,144,-2000,144,-38,58,-8
1005,120,-2016,96,-42,55,-8
1010,120,-2016,168,-44,55,-8
1015,104,-2024,160,-42,55,-7
1020,128,-2024,160,-43,54,-8
1025,120,-2008,184,-44,51,-8
1030,136,-2032,144,-43,50,-9
1035,120,-2016,88,-46,50,-10
1040,112,-2008,168,-47,48,-11
1045,128,-2024,144,-49,50,-11
1050,112,-2024,136,-48,49,-12
1055,128,-2016,160,-47,50,-12
1060,128,-2008,128,-46,51,-11
1065,120,-2024,144,-45,51,-12
1070,144,-2040,136,-41,51,-10
1075,144,-2040,168,-39,53,-10
1080,128,-2024,144,-36,54,-9
1085,128,-2032,136,-35,54,-8
1090,144,-2040,160,-34,52,-10
1095,136,-2016,112,-37,52,-11
1100,120,-2040,120,-38,48,-11
1105,144,-2024,144,-40,47,-13
1110,128,-2016,152,-41,47,-13
1115,136,-2016,144,-43,45,-14
1120,128,-2024,144,-42,44,-14
1125,112,-2032,152,-39,44,-16
1130,128,-2040,152,-38,45,-15
1135,136,-2032,136,-35,48,-17
1140,120,-2056,128,-34,50,-15
1145,136,-2048,160,-34,52,-16
1150,120,-2048,136,-35,53,-14
1155,120,-2056,120,-37,55,-17
1160,136,-2056,152,-39,56,-16
1165,120,-2024,144,-40,56,-15
1170,112,-2008,112,-40,57,-13
1175,136,-2024,128,-40,57,-13
1180,120,-2008,144,-38,58,-12
1185,112,-2024,128,-36,58,-10
1190,144,-2016,120,-34,57,-8
1195,128,-2000,112,-32,56,-8
1200,144,-2024,112,-31,56,-7
1205,136,-1984,136,-31,54,-7
1210,128,-2000,112,-32,54,-4
1215,136,-2000,112,-33,51,-5
1220,136,-2024,144,-32,52,-3
1225,120,-2024,104,-35,50,-5
1230,136,-2016,112,-36,49,-5
1235,112,-2016,128,-35,48,-7
1240,128,-2008,120,-36,47,-8
1245,136,-2024,136,-36,46,-8
1250,128,-2024,144,-35,46,-8
1255,128,-2032,104,-35,46,-12
1260,152,-2024,96,-36,45,-12
1265,128,-2032,144,-34,46,-14
1270,144,-2056,120,-35,46,-12
1275,136,-2032,104,-35,47,-14
1280,152,-2024,112,-33,49,-13
1285,144,-2040,104,-34,51,-15
1290,120,-2032,112,-34,51,-12
1295,136,-2048,104,-31,51,-14
1300,152,-2064,136,-29,52,-13
1305,96,-2024,104,-26,52,-15
1310,136,-2024,88,-24,53,-12
1315,128,-2008,120,-24,54,-13
1320,128,-2032,128,-29,53,-11
1325,144,-2016,152,-32,54,-13
1330,152,-2016,120,-34,53,-11
1335,136,-2008,120,-36,55,-13
1340,128,-2008,104,-35,55,-9
1345,120,-2008,112,-34,56,-9
1350,144,-2016,128,-32,57,-7
1355,120,-2008,120,-32,58,-9
1360,144,-2024,136,-31,60,-7
1365,144,-2008,104,-28,59,-9
1370,120,-2032,128,-28,59,-6
1375,104,-2008,104,-28,59,-9
1380,136,-2032,136,-25,59,-7
1385,136,-2024,144,-25,60,-10
1390,152,-2000,128,-23,62,-8
1395,136,-2032,136,-21,62,-10
1400,136,-2032,136,-22,60,-8
1405,112,-2008,136,-22,60,-11
1410,128,-2024,136,-22,61,-7
1415,136,-2016,112,-20,62,-10
1420,152,-2024,152,-20,62,-8
1425,120,-2032,136,-22,63,-11
1430,96,-2024,120,-22,64,-9
1435,104,-2016,112,-23,64,-12
1440,128,-2024,104,-23,66,-10
1445,136,-2008,120,-24,66,-12
1450,128,-2016,152,-24,68,-10
1455,120,-2024,120,-24,67,-13
1460,136,-2040,112,-25,68,-9
1465,152,-2008,128,-24,68,-13
1470,144,-2032,136,-25,68,-10
1475,152,-2016,104,-23,68,-12
1480,136,-2048,120,-22,69,-9
1485,152,-2040,128,-21,69,-11
1490,136,-2024,104,-21,67,-8
1495,152,-2032,144,-20,68,-9
1500,136,-2016,112,-20,69,-6
1505,136,-2032,120,-20,67,-8
1510,128,-2048,120,-19,68,-7
1515,128,-2024,120,-19,69,-10
1520,120,-2024,112,-17,67,-7
1525,144,-2016,128,-17,67,-8
1530,128,-2040,120,-16,67,-5
1535,120,-2024,112,-16,67,-8
1540,144,-2040,120,-16,68,-7
1545,104,-2008,128,-14,65,-9
1550,128,-2016,112,-14,65,-6
1555,104,-2032,136,-14,63,-10
1560,144,-2024,112,-13,63,-9
1565,120,-2024,120,-15,62,-13
1570,128,-2016,136,-16,63,-12
1575,136,-2024,120,-19,63,-16
1580,128,-2024,112,-22,64,-15
1585,136,-2048,104,-24,63,-19
1590,144,-2016,120,-24,65,-16
1595,144,-2000,128,-27,65,-17
1600,144,-2024,104,-25,67,-15
1605,144,-2024,112,-24,68,-16
1610,144,-2032,128,-21,68,-12
1615,152,-2040,120,-18,66,-14
1620,120,-2032,112,-16,65,-11
1625,160,-2040,136,-18,63,-14
1630,168,-2032,88,-20,61,-12
1635,120,-2008,120,-23,60,-16
1640,128,-2024,96,-25,59,-13
1645,136,-2024,128,-28,60,-15
1650,152,-2040,112,-28,59,-12
1655,136,-2040,136,-26,61,-14
1660,128,-2024,112,-24,61,-13
1665,128,-2024,128,-22,62,-14
1670,128,-2032,120,-21,65,-13
1675,120,-2024,112,-20,65,-12
1680,120,-2040,152,-21,67,-10
1685,128,-2040,120,-22,67,-11
1690,144,-2056,104,-21,68,-9
1695,136,-2032,136,-20,67,-9
1700,144,-2032,152,-19,68,-7
1705,128,-2008,120,-18,68,-7
1710,136,-2000,96,-15,67,-5
1715,128,-1992,104,-12,66,-5
1720,152,-1992,152,-9,66,-2
1725,136,-2016,120,-8,65,-3
1730,128,-2000,144,-8,65,-1
1735,128,-1992,128,-8,63,-2
1740,136,-2000,144,-9,63,0
1745,136,-2008,120,-10,62,-2
1750,152,-2016,128,-9,62,0
1755,152,-2000,144,-10,60,-2
1760,120,-2024,128,-9,58,-1
1765,144,-2032,104,-10,57,-3
1770,144,-2032,112,-10,54,-2
1775,128,-2032,168,-10,53,-5
1780,160,-2032,136,-9,52,-4
1785,136,-2024,128,-7,51,-6
1790,136,-2016,112,-5,52,-8
1795,144,-2040,96,-6,53,-9
1800,120,-2032,80,-5,54,-11
1805,136,-2040,112,-5,54,-12
1810,144,-2040,112,-5,55,-10
1815,144,-2032,104,-5,57,-10
1820,136,-2024,128,-6,57,-10
1825,144,-2032,120,-3,58,-11
1830,152,-2040,112,-3,62,-9
1835,144,-2048,120,0,62,-10
1840,120,-2032,144,3,61,-11
1845,128,-2024,96,3,61,-12
1850,160,-2024,136,3,62,-11
1855,144,-2032,144,-1,60,-11
1860,144,-1984,120,-1,57,-9
1865,128,-1992,120,-2,58,-11
1870,128,-1984,112,-3,58,-10
1875,144,-2032,104,-2,56,-9
1880,152,-2024,144,0,57,-8
1885,144,-2008,104,1,56,-7
1890,160,-2016,104,3,57,-8
1895,160,-2008,112,3,55,-7
1900,160,-2032,120,4,56,-7
1905,136,-2008,136,7,57,-6
1910,144,-2024,120,7,57,-7
1915,128,-2024,128,8,60,-8
1920,144,-2016,144,10,61,-5
1925,144,-2024,120,10,64,-7
1930,128,-2016,136,12,65,-6
1935,144,-2040,136,14,67,-5
1940,136,-2016,120,15,69,-4
1945,144,-2016,112,16,71,-4
1950,144,-2032,136,17,72,-3
1955,144,-2016,96,18,75,-3
1960,152,-2032,120,19,74,-2
1965,152,-2032,168,19,75,-2
1970,168,-2032,128,19,77,-1
1975,152,-2008,152,20,77,-2
1980,136,-2008,96,19,79,-2
1985,144,-2008,152,17,80,-3
1990,136,-2040,128,18,79,-3
1995,152,-2000,136,17,79,-3
2000,136,-2008,112,16,78,-1
2005,120,-2008,128,16,80,-2
2010,144,-2016,144,16,79,-3
2015,120,-2016,144,15,80,-3
2020,136,-1992,144,15,79,-4
2025,144,-2032,144,16,79,-2
2030,144,-2032,120,15,78,0
2035,136,-2024,128,15,77,0
2040,152,-2024,152,15,75,-2
2045,144,-2016,88,14,75,-1
2050,144,-2024,128,14,75,-2
2055,152,-2040,96,13,75,-1
2060,128,-2032,128,13,73,-2
2065,136,-2040,112,13,74,-1
2070,120,-2024,144,13,71,-2
2075,112,-2024,112,14,70,-1
2080,112,-2040,112,14,70,-3
2085,120,-2048,120,14,70,-2
2090,128,-2040,128,12,68,-5
2095,128,-2016,136,10,70,-5
2100,136,-2008,128,8,69,-5
2105,144,-2040,144,6,70,-6
2110,144,-2048,152,5,71,-7
2115,144,-2040,128,5,71,-6
2120,136,-2048,184,6,72,-7
2125,144,-2024,128,7,72,-4
2130,160,-2024,152,8,71,-3
2135,136,-2040,152,11,71,-1
2140,136,-2024,152,13,70,-2
2145,152,-2024,136,16,67,0
2150,152,-2048,144,16,64,-1
2155,144,-2040,152,15,61,-1
2160,152,-2024,136,15,59,-2
2165,152,-2032,136,13,56,1
2170,144,-2032,152,12,54,-2
2175,144,-2024,136,11,55,0
2180,144,-2032,136,13,53,-1
2185,136,-2032,112,14,53,1
2190,144,-2008,120,16,53,-1
2195,136,-2024,128,17,54,-1
2200,112,-2064,176,14,55,-3
2205,128,-2040,104,13,57,-4
2210,64,-2008,128,10,57,-6
2215,176,-1944,96,7,59,-5
2220,56,-1960,176,6,61,-7
2225,104,-2008,144,6,64,-5
2230,120,-2000,152,7,66,-7
2235,120,-1992,168,8,66,-4
2240,144,-2016,136,7,68,-5
2245,160,-2008,144,8,69,-2
2250,144,-1984,144,7,69,-3
2255,128,-2008,152,5,68,0
2260,144,-2008,160,3,67,-2
2265,144,-1984,144,1,65,1
2270,136,-2008,144,1,65,-1
2275,144,-2016,152,1,62,0
2280,144,-2016,168,0,59,-3
2285,144,-2024,152,2,58,0
2290,136,-2016,168,2,56,-3
2295,152,-2016,176,3,53,-2
2300,120,-2024,144,4,52,-5
2305,144,-2048,168,7,51,-3
2310,128,-2032,160,11,51,-7
2315,160,-2048,112,13,50,-7
2320,136,-2032,144,13,52,-9
2325,128,-2016,144,11,51,-6
2330,160,-2056,176,11,52,-9
2335,160,-2032,152,10,54,-7
2340,152,-2048,176,9,54,-8
2345,152,-2064,144,11,55,-6
2350,128,-2032,120,12,57,-9
2355,136,-2040,144,12,56,-6
2360,112,-2008,144,13,57,-8
2365,128,-2008,160,13,57,-4
2370,120,-2040,128,12,57,-7
2375,136,-2000,152,11,58,-5
2380,120,-2000,176,10,57,-7
2385,136,-2000,160,9,58,-4
2390,128,-1992,152,9,59,-7
2395,128,-1984,144,9,58,-4
2400,144,-1992,168,8,60,-6
2405,152,-1984,144,7,62,-3
2410,160,-2024,152,6,60,-5
2415,160,-2032,192,6,60,-4
2420,136,-2000,160,4,59,-7
2425,144,-1984,168,2,61,-6
2430,144,-2016,152,2,61,-9
2435,144,-2024,176,1,61,-7
2440,152,-2016,144,-1,61,-9
2445,120,-1992,176,-1,62,-7
2450,144,-2016,144,-2,61,-10
2455,112,-2008,120,-2,63,-8
2460,144,-2024,160,-1,62,-10
2465,128,-2008,144,-1,61,-9
2470,144,-2048,168,0,63,-11
2475,144,-2024,168,-1,63,-8
2480,136,-2016,192,2,65,-11
2485,160,-2032,168,2,65,-10
2490,120,-2000,160,2,64,-11
2495,136,-2032,152,2,65,-9
2500,152,-2032,160,2,67,-12
2505,136,-2024,144,2,67,-10
2510,144,-2024,184,2,68,-13
2515,144,-2008,168,4,67,-11
2520,136,-2048,144,2,68,-13
2525,128,-2008,144,2,69,-11
2530,168,-2016,144,0,69,-13
2535,160,-2016,176,0,70,-10
2540,160,-2024,120,0,70,-10
2545,160,-2048,184,1,71,-9
2550,152,-2008,168,1,70,-10
2555,152,-2032,128,2,70,-8
2560,160,-2024,176,2,71,-8
2565,144,-2032,160,2,70,-6
2570,160,-2008,144,1,71,-8
2575,136,-2000,152,3,71,-6
2580,160,-2016,184,1,69,-7
2585,136,-2016,168,2,69,-4
2590,112,-2016,160,1,71,-5
2595,136,-1992,184,4,70,-3
2600,136,-2032,152,5,71,-4
2605,112,-2016,176,6,71,-4
2610,136,-2016,144,6,70,-5
2615,136,-2016,176,4,70,-4
2620,120,-2008,152,1,70,-7
2625,136,-2024,160,-3,71,-5
2630,160,-2032,168,-6,69,-8
2635,128,-2008,160,-8,70,-7
2640,152,-2008,176,-10,70,-8
2645,136,-2040,168,-11,71,-8
2650,152,-2024,168,-12,70,-10
2655,128,-2016,168,-12,70,-7
2660,144,-2016,168,-11,68,-8
2665,144,-2016,168,-9,67,-8
2670,160,-2040,192,-8,66,-8
2675,144,-2024,168,-5,64,-8
2680,152,-2032,176,-6,62,-10
2685,152,-2000,192,-6,61,-8
2690,152,-2016,176,-6,61,-6
2695,160,-2008,184,-5,62,-5
2700,152,-2016,184,-4,64,-4
2705,176,-2016,160,-1,63,-4
2710,136,-2000,200,-1,64,-4
2715,144,-1992,152,1,65,-2
2720,144,-2008,136,1,66,-4
2725,144,-2032,152,2,64,-3
2730,160,-2024,184,3,64,-5
2735,120,-2000,184,2,63,-4
2740,144,-2024,184,3,62,-5
2745,128,-2008,152,4,64,-6
2750,120,-2040,184,5,62,-6
2755,136,-2016,200,8,62,-5
2760,136,-2016,168,8,64,-4
2765,144,-2008,168,8,63,-3
2770,120,-1984,160,9,63,-2
2775,144,-2000,168,8,62,0
2780,128,-2000,176,7,63,0
2785,160,-2016,176,6,62,1
2790,144,-2016,176,4,60,0
2795,160,-2016,168,4,60,1
2800,160,-2016,176,3,59,0
2805,168,-2008,128,0,59,0
2810,152,-2032,176,0,57,0
2815,160,-2024,176,0,55,1
2820,136,-2008,184,1,53,0
2825,136,-2016,184,1,54,0
2830,160,-2032,192,0,52,-1
2835,152,-2024,144,0,53,-3
2840,144,-2024,144,1,54,-2
2845,160,-2032,168,2,53,-3
2850,136,-1992,152,1,54,-3
2855,160,-2032,184,-2,57,-5
2860,136,-2024,152,-2,58,-4
2865,144,-2032,176,-5,59,-5
2870,152,-2032,160,-5,58,-5
2875,160,-2032,176,-5,58,-5
2880,144,-2016,160,-6,57,-4
2885,120,-2016,152,-7,57,-6
2890,128,-2024,184,-10,57,-5
2895,152,-2008,152,-11,56,-6
2900,160,-2024,176,-12,56,-6
2905,144,-1992,208,-13,54,-7
2910,144,-2016,176,-14,53,-5
2915,160,-2000,192,-11,53,-5
2920,144,-2032,152,-11,54,-5
2925,152,-2024,160,-9,53,-4
2930,152,-2016,184,-7,51,-3
2935,144,-2000,168,-7,52,-4
2940,144,-2032,160,-8,52,-3
2945,144,-2024,192,-8,54,-6
2950,144,-2008,168,-10,55,-4
2955,152,-2016,176,-11,56,-5
2960,128,-1992,168,-13,58,-3
2965,152,-2032,176,-13,59,-4
2970,128,-2008,184,-13,59,-4
2975,152,-2008,192,-15,61,-5
2980,136,-2000,160,-15,63,-3
2985,136,-2016,184,-15,64,-5
2990,152,-2056,184,-14,64,-3
2995,152,-2032,176,-14,65,-4
3000,144,-2024,176,-13,65,-2
3005,136,-2024,160,-11,65,-4
3010,128,-1992,136,-12,67,-2
3015,160,-2008,192,-12,66,-3
3020,168,-2016,168,-13,65,-3
3025,152,-2048,200,-14,65,-6
3030,136,-2024,136,-14,66,-5
3035,136,-2016,168,-13,65,-7
3040,152,-2008,144,-14,65,-6
3045,160,-2016,136,-15,64,-8
3050,144,-2032,184,-16,63,-6
3055,112,-2008,184,-16,62,-9
3060,152,-2016,200,-17,63,-6
3065,168,-2024,168,-17,62,-7
3070,128,-2016,192,-16,64,-4
3075,144,-2000,184,-15,64,-6
3080,144,-2024,168,-15,64,-2
3085,144,-2024,216,-14,64,-4
3090,144,-2008,176,-15,62,-1
3095,176,-2016,168,-15,62,-1
3100,160,-2000,184,-16,61,1
3105,152,-2000,192,-15,60,0
3110,136,-2008,184,-16,59,2
3115,144,-2008,200,-17,58,-1
3120,144,-2016,168,-15,57,1
3125,120,-2016,184,-12,56,-2
3130,144,-2008,160,-11,55,0
3135,144,-2032,176,-11,54,-3
3140,128,-2016,176,-13,54,-4
3145,152,-2024,176,-16,53,-7
3150,168,-2008,160,-20,52,-7
3155,136,-2024,160,-23,51,-10
3160,152,-2040,176,-23,51,-8
3165,176,-2032,152,-23,51,-12
3170,144,-2024,184,-24,54,-9
3175,136,-2016,192,-24,56,-11
3180,168,-2048,168,-23,56,-8
3185,128,-1912,136,-20,57,-10
3190,176,-2040,184,-20,57,-6
3195,152,-2016,144,-20,56,-8
3200,152,-2016,160,-22,55,-5
3205,160,-2016,160,-23,55,-7
3210,152,-2008,184,-25,55,-4
3215,144,-2000,152,-26,54,-7
3220,152,-2008,136,-26,53,-2
3225,168,-2032,184,-26,52,-5
3230,152,-2032,176,-26,53,-3
3235,144,-2008,184,-24,55,-5
3240,160,-2016,136,-23,57,-2
3245,168,-2024,176,-23,59,-5
3250,136,-2008,184,-24,59,-2
3255,136,-2040,144,-25,61,-5
3260,136,-2040,192,-27,62,-2
3265,128,-2016,184,-29,63,-6
3270,136,-2016,184,-30,63,-4
3275,136,-2048,176,-32,64,-4
3280,136,-2024,192,-31,64,-3
3285,144,-2008,176,-31,63,-4
3290,128,-2008,176,-30,61,0
3295,136,-2016,176,-30,60,-1
3300,128,-1992,152,-30,59,4
3305,152,-2016,184,-30,55,2
3310,152,-2000,160,-31,55,5
3315,168,-2016,168,-30,52,4
3320,128,-2000,152,-28,49,6
3325,144,-1992,176,-29,47,4
3330,128,-2000,136,-30,46,7
3335,160,-2024,160,-29,45,5
3340,144,-2016,152,-29,45,5
3345,144,-2032,184,-31,43,2
3350,160,-2032,176,-30,42,2
3355,152,-2024,176,-29,42,-1
3360,152,-2032,168,-29,42,-2
3365,160,-2008,184,-27,43,-4
3370,160,-2016,144,-27,43,-3
3375,152,-2024,144,-25,43,-6
3380,152,-2064,160,-26,45,-3
3385,160,-2024,144,-25,45,-5
3390,128,-2008,160,-23,44,-3
3395,152,-2024,144,-24,46,-6
3400,152,-2032,192,-22,46,-6
3405,136,-2040,160,-21,44,-6
3410,144,-2024,160,-22,44,-6
3415,152,-2032,160,-23,44,-7
3420,152,-2024,144,-25,46,-7
3425,136,-2008,184,-29,46,-8
3430,136,-2008,192,-29,45,-7
3435,152,-2000,152,-32,46,-9
3440,120,-2016,152,-35,46,-6
3445,136,-2032,176,-37,46,-7
3450,152,-2016,152,-39,46,-6
3455,136,-2024,144,-39,47,-5
3460,152,-2016,168,-40,47,-4
3465,144,-2024,128,-41,46,-6
3470,152,-2016,168,-43,47,-3
3475,120,-2024,184,-44,47,-3
3480,128,-2016,184,-42,48,-3
3485,168,-2032,176,-42,49,-4
3490,128,-2016,160,-40,51,-2
3495,144,-2024,144,-39,50,-3
3500,152,-2016,160,-38,52,-1
3505,192,-2024,176,-37,52,0
3510,160,-2016,144,-36,53,1
3515,136,-2024,136,-37,54,1
3520,144,-2016,152,-36,55,1
3525,128,-2008,152,-36,54,0
3530,152,-2040,136,-37,54,1
3535,144,-2032,152,-37,54,0
3540,136,-2016,168,-37,55,-2
3545,168,-2032,144,-38,53,-2
3550,136,-2016,136,-38,52,-3
3555,168,-2016,168,-38,53,-4
3560,160,-2040,184,-39,53,-5
3565,152,-2024,136,-38,52,-5
3570,152,-2016,144,-37,53,-5
3575,128,-2008,136,-37,54,-6
3580,152,-2024,136,-36,54,-5
3585,152,-2032,152,-36,54,-6
3590,160,-2016,136,-35,54,-6
3595,160,-2024,136,-35,56,-5
3600,152,-2032,144,-35,57,-5
3605,152,-2008,128,-35,57,-4
3610,168,-2000,128,-35,58,-5
3615,120,-2008,152,-36,59,-4
3620,160,-2008,144,-35,59,-3
3625,136,-2008,152,-36,58,-2
3630,168,-2008,152,-35,56,-1
3635,144,-2016,144,-35,54,-2
3640,152,-2008,152,-33,53,-4
3645,144,-2024,152,-30,50,-2
3650,168,-2048,144,-28,50,-4
3655,152,-2024,136,-28,48,-4
3660,152,-2024,144,-28,45,-7
3665,144,-1984,112,-29,42,-7
3670,128,-1992,160,-31,41,-6
3675,176,-2008,144,-33,40,-6
3680,160,-2000,136,-34,40,-7
3685,152,-2000,136,-34,40,-5
3690,144,-2008,112,-35,42,-4
3695,152,-2008,136,-37,45,-2
3700,144,-2032,152,-38,46,-2
3705,168,-2024,152,-41,49,0
3710,160,-2024,168,-44,52,-1
3715,168,-2040,128,-49,53,-1
3720,152,-2016,144,-55,51,-3
3725,160,-2032,144,-60,52,-4
3730,184,-2024,160,-65,53,-6
3735,152,-2016,176,-70,52,-4
3740,144,-2024,136,-69,52,-4
3745,160,-2032,168,-67,53,-4
3750,168,-2024,160,-60,57,-4
3755,160,-2032,144,-55,57,0
3760,144,-2016,136,-50,60,1
3765,160,-2048,136,-43,63,3
3770,160,-2048,160,-40,64,3
3775,136,-2040,160,-36,67,5
3780,136,-2032,136,-34,69,4
3785,144,-2040,144,-33,68,6
3790,152,-2048,184,-34,69,5
3795,120,-2024,128,-33,67,7
3800,144,-2032,152,-32,64,6
3805,136,-2016,128,-27,62,8
3810,136,-2016,136,-25,60,6
3815,128,-2024,152,-22,59,7
3820,136,-2016,112,-20,56,6
3825,160,-2008,152,-20,53,8
3830,136,-2000,152,-20,51,6
3835,160,-2000,120,-21,48,6
3840,144,-2008,136,-23,45,3
3845,168,-2016,120,-25,44,5
3850,168,-2024,144,-25,43,3
3855,160,-2016,136,-26,41,3
3860,160,-2008,136,-28,39,1
3865,152,-2000,128,-28,38,1
3870,160,-1992,120,-28,38,-1
3875,168,-2024,128,-28,37,-1
3880,152,-2024,128,-27,37,-5
3885,128,-2008,168,-27,37,-4
3890,168,-2016,136,-27,38,-8
3895,160,-2040,152,-25,38,-6
3900,144,-2024,96,-25,39,-8
3905,120,-2000,128,-26,41,-6
3910,136,-2040,120,-25,42,-7
3915,160,-2016,152,-24,43,-6
3920,136,-2024,128,-22,43,-8
3925,128,-2016,104,-18,45,-6
3930,144,-2024,120,-15,46,-10
3935,144,-2032,112,-16,45,-7
3940,144,-2024,104,-17,44,-7
3945,136,-2008,104,-20,46,-5
3950,152,-2032,104,-25,46,-7
3955,136,-2008,136,-25,45,-5
3960,128,-2016,128,-28,46,-5
3965,160,-2032,104,-28,46,-2
3970,136,-2008,104,-26,46,-3
3975,152,-2032,152,-27,47,0
3980,136,-2024,120,-25,49,-1
3985,136,-2048,128,-23,47,0
3990,144,-2008,152,-23,48,-2
3995,168,-2064,104,-20,52,0
4000,152,-2016,136,-19,53,-1
4005,168,-2040,112,-18,52,1
4010,168,-2024,144,-18,54,-2
4015,160,-2032,144,-17,56,0
4020,160,-2024,128,-17,57,-1
4025,168,-2056,136,-16,59,1
4030,176,-2024,144,-14,61,-1
4035,160,-2008,136,-14,64,2
4040,136,-2024,120,-14,65,-1
4045,168,-2024,112,-15,66,0
4050,176,-2032,144,-14,67,-2
4055,152,-2056,136,-14,67,1
4060,144,-2008,120,-13,70,-2
4065,136,-2040,136,-11,71,0
4070,136,-2016,136,-10,71,-3
4075,168,-2024,136,-10,73,-2
4080,152,-2016,152,-9,74,-5
4085,160,-2016,120,-9,74,-3
4090,168,-2024,136,-9,76,-4
4095,152,-2032,96,-9,76,-2
4100,152,-2024,88,-7,76,-5
4105,152,-2032,120,-8,75,-3
4110,152,-2048,144,-7,75,-5
4115,128,-2024,136,-6,76,-4
4120,144,-2040,136,-6,74,-5
4125,144,-2048,112,-7,73,-3
4130,128,-2000,136,-6,72,-5
4135,152,-2024,136,-7,71,-4
4140,136,-2016,112,-8,71,-5
4145,136,-2032,152,-6,72,-2
4150,152,-2008,136,-6,69,-4
4155,152,-2040,104,-7,66,-2
4160,176,-2008,160,-7,65,-5
4165,136,-2016,152,-9,63,-5
4170,128,-2032,104,-8,64,-6
4175,136,-2024,128,-6,63,-6
4180,128,-2048,136,-5,61,-9
4185,120,-2024,96,-5,61,-9
4190,160,-2048,96,-6,63,-13
4195,168,-2016,136,-9,64,-12
4200,144,-2008,160,-11,67,-16
4205,144,-2032,152,-10,70,-16
4210,152,-2016,128,-10,70,-16
4215,152,-2032,128,-10,72,-13
4220,168,-2032,136,-10,74,-14
4225,160,-2024,112,-8,75,-12
4230,160,-2008,144,-5,74,-11
4235,152,-2032,160,-5,74,-10
4240,160,-2000,152,-3,71,-13
4245,152,-2032,160,-7,67,-12
4250,152,-2016,168,-12,66,-13
4255,160,-2024,152,-15,67,-12
4260,144,-1984,168,-19,65,-13
4265,176,-2056,128,-18,66,-11
4270,152,-2024,136,-17,66,-12
4275,136,-2024,168,-17,68,-12
4280,160,-2040,160,-15,69,-13
4285,160,-2032,152,-13,73,-12
4290,152,-2040,160,-12,75,-11
4295,152,-2024,128,-12,75,-10
4300,184,-2024,136,-12,76,-10
4305,144,-2024,136,-14,74,-9
4310,160,-2024,176,-15,76,-9
4315,144,-2016,168,-13,75,-8
4320,160,-2024,152,-9,75,-7
4325,160,-2016,128,-5,74,-7
4330,144,-1992,136,-2,75,-7
4335,168,-2000,120,2,76,-7
4340,152,-2016,104,6,75,-7
4345,160,-2000,144,8,75,-6
4350,168,-2000,152,8,75,-6
4355,144,-2016,136,9,75,-6
4360,176,-2032,136,10,74,-6
4365,160,-2024,128,11,74,-6
4370,168,-2024,136,11,74,-7
4375,144,-2048,136,12,73,-8
4380,160,-2032,168,16,70,-8
4385,168,-2032,128,17,68,-10
4390,136,-2024,120,18,64,-11
4395,120,-2048,144,20,63,-12
4400,160,-2032,120,20,62,-14
4405,160,-2040,152,21,61,-16
4410,144,-2024,168,22,60,-17
4415,152,-2032,144,22,58,-18
4420,128,-2016,136,21,57,-18
4425,136,-2024,128,19,57,-20
4430,160,-2032,128,16,54,-19
4435,136,-2024,112,17,54,-19
4440,136,-2008,120,18,53,-16
4445,152,-2016,144,20,52,-18
4450,152,-2032,128,23,52,-16
4455,152,-2048,136,23,50,-17
4460,152,-2032,120,23,53,-16
4465,152,-2016,112,21,54,-16
4470,160,-2000,128,19,54,-15
4475,152,-2016,152,16,55,-14
4480,168,-2016,120,16,55,-12
4485,152,-2000,144,15,56,-12
4490,160,-2016,128,15,57,-7
4495,160,-2016,144,16,58,-8
4500,136,-2016,112,17,60,-5
4505,160,-2016,112,17,59,-5
4510,168,-2016,136,17,61,-3
4515,152,-2032,144,19,62,-3
4520,168,-2016,152,18,63,-2
4525,144,-2024,160,19,64,-3
4530,160,-2008,144,21,65,-1
4535,168,-2016,136,20,68,-1
4540,184,-2024,152,20,68,3
4545,160,-2024,128,22,68,0
4550,160,-1984,152,22,69,4
4555,160,-2008,120,22,68,3
4560,152,-2016,160,23,67,5
4565,160,-2008,144,22,68,5
4570,160,-2024,160,24,67,6
4575,176,-2032,176,24,66,4
4580,168,-2032,160,23,67,6
4585,160,-2016,168,22,67,4
4590,144,-2008,144,21,67,4
4595,160,-2008,168,21,65,3
4600,160,-2040,152,20,66,4
4605,144,-2016,120,20,66,0
4610,176,-2008,168,19,66,2
4615,152,-2008,200,19,68,1
4620,184,-2024,152,18,68,2
4625,176,-2016,184,17,68,0
4630,160,-2016,176,19,70,4
4635,168,-2024,168,19,70,3
4640,152,-2016,192,19,70,5
4645,152,-2016,152,20,69,2
4650,160,-2032,136,19,72,6
4655,152,-2032,168,20,71,5
4660,152,-2032,136,20,70,8
4665,128,-2016,176,21,68,7
4670,136,-2024,152,22,66,10
4675,152,-2032,128,20,64,7
4680,136,-2016,152,22,61,10
4685,136,-2008,168,23,61,8
4690,136,-2008,160,22,59,12
4695,120,-2008,192,21,57,7
4700,168,-2040,152,20,55,8
4705,128,-1984,152,19,53,5
4710,128,-2008,128,13,51,5
4715,152,-2024,168,10,49,2
4720,120,-2016,168,5,50,3
4725,136,-2024,192,2,49,-1
4730,168,-2008,184,-1,52,0
4735,152,-2016,176,-5,52,-3
4740,152,-2008,192,-5,55,-1
4745,168,-2032,184,-5,55,-4
4750,176,-2016,192,-4,55,0
4755,152,-2040,200,-3,56,-2
4760,168,-2040,176,-1,58,1
4765,168,-2032,192,1,59,0
4770,160,-2024,176,-1,60,4
4775,160,-2016,168,-1,62,2
4780,168,-2048,192,-1,64,6
4785,168,-2008,152,3,66,5
4790,168,-2008,176,5,71,9
4795,184,-2016,176,9,77,7
4800,176,-2008,184,13,80,11
4805,176,-2016,168,16,83,9
4810,168,-2000,152,18,83,12
4815,160,-2008,160,17,81,7
4820,152,-1992,176,16,80,7
4825,136,-2008,192,14,78,5
4830,144,-2000,152,11,76,4
4835,120,-2000,184,9,75,1
4840,136,-2024,168,5,74,4
4845,160,-2032,200,2,77,1
4850,120,-2016,224,2,77,6
4855,128,-2016,184,2,79,5
4860,120,-2016,216,3,79,8
4865,136,-2008,192,4,76,6
4870,128,-2008,192,3,72,7
4875,136,-2024,192,0,67,5
4880,120,-1984,192,-1,61,8
4885,136,-2000,184,-2,55,5
4890,160,-2016,200,-2,50,6
4895,144,-1992,232,-1,46,4
4900,152,-2000,192,0,43,5
4905,152,-2016,216,1,40,3
4910,136,-1992,232,2,37,2
4915,160,-2024,208,3,35,0
4920,152,-2032,200,5,31,0
4925,160,-2008,200,9,29,-1
4930,144,-2000,256,13,28,-1
4935,152,-2024,216,19,25,-2
4940,136,-1992,224,22,24,-1
4945,160,-2016,232,26,22,-1
4950,128,-2016,224,28,19,2
4955,120,-2008,216,30,17,3
4960,128,-2024,208,31,14,5
4965,152,-2008,224,32,12,5
4970,144,-2016,200,30,10,7
4975,112,-2000,192,26,6,6
4980,136,-2008,200,23,4,9
4985,128,-2008,192,19,1,9
4990,136,-2016,184,15,-3,12
4995,160,-2000,176,14,-5,10
5000,168,-2024,144,11,-7,11
5005,152,-2016,176,9,-6,12
5010,184,-2032,200,9,-4,12
5015,160,-2024,184,9,-2,13
5020,184,-2016,216,9,0,14
5025,184,-2032,176,11,2,13
5030,184,-2008,192,9,6,16
5035,192,-2016,176,12,10,16
5040,176,-2016,184,14,15,20
5045,152,-2024,208,18,22,21
5050,176,-2040,176,18,27,24
5055,136,-2040,176,21,33,24
5060,144,-2040,216,24,39,27
5065,136,-2016,208,27,45,27
5070,160,-2024,224,31,49,29
5075,136,-2016,224,32,53,29
5080,152,-2024,184,34,53,30
5085,152,-2000,200,37,54,29
5090,136,-2008,176,39,51,27
5095,152,-2008,192,39,49,25
5100,152,-2000,184,38,47,23
5105,136,-1992,184,37,44,18
5110,176,-2016,184,35,42,15
5115,176,-2000,216,31,38,12
5120,176,-2008,216,30,35,10
5125,168,-1984,192,30,34,8
5130,160,-2024,192,32,35,5
5135,152,-2024,248,33,36,2
5140,152,-2016,192,34,38,0
5145,144,-1992,208,36,39,0
5150,144,-2016,200,39,39,0
5155,136,-2024,216,42,40,1
5160,144,-2040,208,48,38,3
5165,120,-2024,208,52,37,4
5170,120,-2032,184,53,34,4
5175,112,-2048,184,54,31,8
5180,104,-2024,208,54,28,11
5185,96,-2048,208,52,21,16
5190,104,-2048,152,52,14,20
5195,88,-2040,192,50,11,26
5200,96,-2024,192,48,6,28
5205,104,-2056,200,45,3,31
5210,104,-2024,192,46,1,34
5215,104,-2048,176,47,-1,37
5220,96,-2048,176,49,-1,38
5225,96,-2032,200,52,0,38
5230,112,-2048,208,55,1,36
5235,88,-2016,200,58,0,38
5240,128,-2032,232,58,-1,33
5245,120,-2016,216,57,-1,30
5250,144,-2008,200,57,-2,23
5255,176,-2040,208,56,-3,18
5260,160,-2032,216,54,-2,11
5265,152,-2040,208,50,-1,5
5270,144,-2016,232,51,0,-1
5275,152,-2008,216,52,2,-4
5280,176,-2032,224,50,6,-11
5285,176,-2016,216,51,9,-15
5290,176,-2016,208,52,12,-21
5295,184,-2032,208,55,18,-24
5300,144,-2000,232,56,25,-30
5305,208,-1976,152,56,33,-32
5310,152,-2152,280,54,43,-36
5315,216,-2008,200,48,52,-38
5320,200,-1944,248,44,60,-43
5325,112,-1984,256,42,72,-43
5330,192,-1944,216,40,82,-48
5335,224,-1984,216,40,92,-47
5340,192,-1976,272,40,98,-50
5345,168,-1976,248,38,107,-49
5350,168,-1984,240,35,112,-51
5355,144,-1944,248,30,115,-49
5360,144,-1944,272,23,117,-51
5365,120,-1968,232,14,119,-48
5370,136,-1984,240,8,120,-48
5375,112,-1992,232,7,120,-41
5380,80,-1976,224,1,119,-39
5385,80,-1976,256,-7,116,-34
5390,64,-1968,272,-15,110,-33
5395,72,-1944,272,-20,105,-25
5400,56,-1992,280,-20,98,-22
5405,72,-2000,288,-20,92,-15
5410,96,-1960,248,-21,85,-12
5415,80,-1984,304,-20,78,-6
5420,112,-1968,304,-18,72,-7
5425,96,-1968,304,-15,65,-4
5430,136,-1984,296,-11,60,-7
5435,160,-1984,320,-11,55,-7
5440,144,-1976,312,-12,52,-13
5445,168,-1976,288,-12,49,-15
5450,216,-1984,288,-13,48,-22
5455,224,-1976,288,-13,47,-25
5460,240,-1976,280,-17,47,-32
5465,248,-1984,296,-20,47,-35
5470,280,-2016,288,-23,46,-43
5475,248,-2024,248,-27,46,-47
5480,248,-2008,264,-28,48,-56
5485,224,-2000,264,-30,50,-57
5490,224,-2008,248,-30,51,-63
5495,200,-2008,248,-29,52,-60
5500,216,-2032,232,-30,54,-62
5505,176,-2032,240,-33,53,-57
5510,152,-2032,232,-34,51,-53
5515,152,-2040,248,-31,48,-46
5520,144,-2032,192,-28,47,-43
5525,144,-2024,232,-23,45,-37
5530,112,-2016,216,-23,45,-34
5535,88,-1976,224,-30,41,-29
5540,112,-1968,224,-33,36,-28
5545,96,-1976,216,-37,33,-23
5550,120,-1976,224,-38,30,-23
5555,96,-1968,216,-40,27,-20
5560,128,-2016,240,-41,24,-21
5565,120,-1984,240,-44,18,-18
5570,120,-2000,184,-48,15,-23
5575,96,-1968,192,-54,8,-23
5580,128,-2008,192,-64,4,-28
5585,128,-1992,184,-73,0,-30
5590,136,-2008,208,-81,-3,-35
5595,136,-1992,192,-87,-9,-38
5600,136,-1976,200,-94,-13,-41
5605,136,-1984,184,-100,-18,-41
5610,152,-2000,192,-105,-20,-44
5615,160,-1992,176,-107,-21,-44
5620,160,-2024,208,-107,-22,-43
5625,136,-2008,176,-107,-21,-37
5630,136,-1992,224,-107,-20,-37
5635,144,-2016,184,-105,-17,-31
5640,144,-2016,224,-105,-12,-32
5645,152,-2032,184,-104,-10,-26
5650,136,-2024,216,-107,-7,-25
5655,160,-2008,192,-110,-8,-21
5660,152,-2016,200,-114,-8,-21
5665,120,-1968,176,-116,-6,-18
5670,136,-1992,184,-118,-8,-19
5675,144,-2008,200,-118,-11,-19
5680,144,-2000,208,-121,-14,-19
5685,136,-1992,208,-122,-15,-18
5690,136,-1992,200,-125,-18,-20
5695,144,-1984,192,-127,-20,-20
5700,176,-2000,176,-128,-25,-23
5705,152,-1992,224,-127,-29,-23
5710,152,-1984,192,-130,-34,-28
5715,152,-1984,176,-132,-38,-28
5720,168,-1960,184,-139,-41,-31
5725,160,-1960,184,-144,-44,-33
5730,168,-1960,168,-151,-48,-35
5735,160,-1992,184,-157,-51,-33
5740,152,-1984,152,-164,-53,-35
5745,160,-1976,128,-169,-57,-35
5750,152,-1976,152,-173,-58,-32
5755,168,-1992,160,-175,-59,-29
5760,152,-1984,168,-175,-62,-26
5765,144,-2008,160,-176,-64,-23
5770,160,-2008,160,-178,-64,-22
5775,152,-2016,144,-181,-65,-19
5780,160,-2024,128,-185,-65,-18
5785,160,-2016,120,-191,-67,-14
5790,152,-2024,168,-195,-69,-13
5795,184,-2040,128,-200,-70,-13
5800,176,-2016,160,-204,-70,-12
5805,192,-2032,120,-207,-70,-8
5810,208,-2032,168,-211,-70,-8
5815,208,-2008,136,-214,-69,-7
5820,184,-2024,136,-214,-69,-7
5825,216,-2032,112,-217,-69,-6
5830,216,-2000,112,-220,-69,-10
5835,216,-2016,136,-223,-69,-10
5840,232,-2016,136,-228,-67,-14
5845,216,-2000,152,-231,-65,-18
5850,240,-2008,136,-233,-64,-22
5855,240,-2024,144,-234,-59,-24
5860,248,-2016,136,-233,-54,-28
5865,232,-2000,112,-233,-48,-30
5870,240,-2032,136,-233,-43,-33
5875,216,-2040,112,-233,-34,-34
5880,224,-2032,128,-235,-28,-35
5885,216,-2032,160,-236,-22,-34
5890,192,-2040,120,-242,-19,-34
5895,200,-2064,120,-246,-17,-35
5900,184,-2008,112,-251,-16,-31
5905,208,-2008,120,-253,-14,-30
5910,216,-2040,120,-255,-14,-27
5915,192,-2008,112,-254,-14,-24
5920,192,-2000,112,-252,-15,-21
5925,168,-2016,128,-249,-17,-18
5930,184,-2008,112,-247,-19,-14
5935,184,-1992,104,-246,-19,-13
5940,192,-1992,96,-246,-21,-10
5945,208,-2000,96,-246,-22,-11
5950,192,-1984,104,-249,-21,-12
5955,208,-1968,104,-256,-22,-13
5960,184,-1984,104,-260,-23,-13
5965,216,-2000,112,-266,-24,-17
5970,216,-2008,96,-271,-24,-19
5975,192,-1992,88,-277,-24,-22
5980,192,-1984,72,-284,-26,-22
5985,184,-1984,96,-287,-28,-25
5990,184,-1984,72,-288,-30,-26
5995,216,-1992,88,-289,-31,-29
6000,208,-1984,80,-288,-32,-29
6005,224,-2016,72,-288,-33,-30
6010,216,-1984,80,-289,-34,-30
6015,216,-1992,88,-292,-34,-32
6020,232,-2000,112,-296,-33,-33
6025,200,-1984,56,-297,-33,-34
6030,224,-2016,72,-300,-33,-33
6035,208,-1984,80,-301,-33,-35
6040,216,-2032,72,-305,-31,-35
6045,224,-2000,72,-312,-31,-38
6050,200,-1992,64,-318,-31,-37
6055,224,-1992,64,-325,-30,-40
6060,224,-2000,64,-333,-30,-38
6065,208,-1984,40,-339,-31,-41
6070,232,-2000,64,-344,-30,-40
6075,224,-1992,8,-351,-37,-45
6080,216,-1976,56,-362,-38,-41
6085,192,-1984,16,-373,-39,-41
6090,224,-1976,24,-384,-42,-35
6095,184,-1984,16,-392,-46,-35
6100,216,-1992,56,-399,-52,-31
6105,184,-1968,24,-404,-55,-29
6110,184,-1976,0,-409,-62,-24
6115,168,-2000,0,-412,-67,-20
6120,144,-1984,32,-416,-73,-10
6125,128,-1960,0,-423,-80,-5
6130,112,-2016,16,-428,-89,5
6135,128,-2000,-24,-433,-98,9
6140,120,-2024,8,-436,-108,20
6145,120,-2016,0,-438,-116,26
6150,104,-2016,-32,-447,-123,36
6155,104,-2032,-32,-457,-132,40
6160,72,-2008,-40,-472,-143,46
6165,128,-2000,-48,-491,-152,49
6170,136,-1992,-16,-509,-165,52
6175,152,-1992,-32,-519,-174,50
6180,152,-2000,-24,-529,-184,51
6185,200,-1984,-24,-537,-192,44
6190,224,-1984,-40,-546,-200,41
6195,200,-1968,-40,-557,-203,32
6200,280,-1984,-48,-567,-207,27
6205,256,-1960,-64,-577,-206,16
6210,256,-1960,-64,-586,-202,8
6215,272,-1944,-80,-597,-200,-7
6220,288,-1968,-56,-602,-194,-15
6225,272,-1976,-88,-611,-184,-28
6230,288,-1960,-120,-615,-176,-34
6235,288,-1968,-88,-620,-165,-44
6240,288,-1984,-144,-627,-154,-49
6245,280,-1960,-120,-633,-144,-58
6250,264,-1952,-144,-643,-134,-61
6255,256,-1960,-176,-651,-127,-69
6260,248,-1944,-168,-662,-119,-72
6265,224,-1936,-176,-678,-114,-77
6270,200,-1936,-184,-691,-113,-72
6275,192,-1936,-184,-702,-111,-73
6280,168,-1936,-160,-709,-109,-69
6285,168,-1936,-176,-716,-110,-71
6290,160,-1944,-136,-721,-112,-67
6295,128,-1912,-128,-725,-117,-66
6300,152,-1936,-184,-731,-124,-60
6305,136,-1928,-168,-740,-129,-60
6310,152,-1912,-152,-751,-138,-58
6315,168,-1896,-184,-756,-146,-58
6320,152,-1912,-168,-764,-153,-56
6325,160,-1904,-184,-772,-159,-56
6330,152,-1888,-168,-777,-163,-53
6335,184,-1920,-192,-781,-169,-55
6340,184,-1904,-200,-785,-172,-52
6345,176,-1912,-184,-790,-175,-52
6350,200,-1904,-248,-797,-178,-52
6355,216,-1880,-240,-810,-182,-57
6360,224,-1904,-256,-826,-186,-59
6365,208,-1872,-280,-842,-187,-64
6370,240,-1904,-304,-858,-186,-67
6375,224,-1880,-312,-873,-185,-74
6380,256,-1896,-320,-887,-181,-76
6385,272,-1912,-312,-898,-173,-83
6390,280,-1944,-352,-909,-166,-86
6395,256,-1936,-360,-919,-156,-93
6400,296,-1944,-400,-931,-143,-96
6405,304,-1952,-400,-948,-131,-103
6410,304,-1944,-432,-966,-116,-107
6415,280,-1920,-432,-984,-103,-114
6420,288,-1936,-440,-1004,-93,-118
6425,256,-1904,-456,-1025,-82,-125
6430,232,-1920,-456,-1043,-74,-127
6435,216,-1928,-456,-1059,-67,-132
6440,232,-1896,-472,-1073,-66,-130
6445,216,-1936,-464,-1086,-65,-134
6450,184,-1936,-512,-1102,-63,-134
6455,168,-1912,-496,-1111,-65,-134
6460,152,-1928,-496,-1121,-69,-131
6465,136,-1920,-496,-1133,-71,-131
6470,152,-1920,-544,-1148,-75,-127
6475,152,-1920,-520,-1162,-80,-125
6480,120,-1912,-544,-1177,-85,-119
6485,152,-1912,-496,-1192,-91,-118
6490,160,-1912,-536,-1208,-96,-112
6495,160,-1936,-536,-1224,-103,-111
6500,192,-1920,-504,-1236,-112,-108
6505,184,-1904,-496,-1247,-124,-109
6510,224,-1912,-520,-1257,-134,-110
6515,240,-1912,-520,-1267,-146,-113
6520,232,-1904,-496,-1273,-161,-117
6525,216,-1888,-512,-1279,-175,-124
6530,240,-1880,-568,-1282,-189,-128
6535,208,-1888,-552,-1288,-203,-134
6540,184,-1880,-600,-1295,-225,-138
6545,168,-1872,-592,-1303,-243,-141
6550,152,-1872,-624,-1311,-264,-142
6555,112,-1840,-640,-1325,-286,-143
6560,88,-1832,-680,-1344,-305,-142
6565,64,-1816,-672,-1365,-330,-140
6570,32,-1832,-704,-1385,-352,-135
6575,24,-1832,-736,-1405,-374,-131
6580,24,-1840,-720,-1424,-396,-126
6585,-16,-1824,-744,-1443,-417,-116
6590,0,-1824,-784,-1460,-440,-105
6595,8,-1832,-760,-1471,-459,-93
6600,-16,-1816,-752,-1477,-478,-82
6605,-24,-1792,-776,-1475,-496,-63
6610,-24,-1776,-784,-1468,-518,-40
6615,-24,-1760,-784,-1456,-540,-16
6620,-16,-1768,-784,-1442,-560,7
6625,-48,-1712,-800,-1425,-579,30
6630,-56,-1688,-808,-1412,-598,53
6635,-40,-1680,-776,-1401,-619,78
6640,-40,-1656,-792,-1394,-636,95
6645,-48,-1624,-744,-1389,-650,113
6650,-56,-1632,-776,-1389,-662,127
6655,-8,-1608,-792,-1392,-672,139
6660,0,-1576,-768,-1394,-682,151
6665,0,-1576,-736,-1394,-693,161
6670,-8,-1568,-760,-1394,-705,160
6675,32,-1560,-760,-1394,-719,159
6680,24,-1512,-736,-1387,-725,164
6685,32,-1504,-728,-1379,-728,177
6690,56,-1480,-784,-1374,-727,186
6695,72,-1480,-752,-1370,-728,194
6700,56,-1424,-792,-1364,-728,198
6705,32,-1400,-800,-1361,-722,206
6710,56,-1392,-800,-1357,-713,215
6715,40,-1336,-824,-1351,-700,227
6720,16,-1320,-832,-1343,-686,242
6725,40,-1288,-856,-1332,-673,259
6730,16,-1256,-912,-1322,-657,269
6735,16,-1192,-936,-1316,-644,286
6740,24,-1168,-928,-1317,-630,304
6745,32,-1144,-968,-1321,-617,328
6750,16,-1096,-992,-1327,-608,349
6755,40,-1072,-1072,-1334,-601,374
6760,40,-1056,-1120,-1341,-591,398
6765,40,-1040,-1144,-1345,-581,420
6770,24,-1008,-1264,-1346,-567,440
6775,24,-1000,-1312,-1346,-546,461
6780,0,-944,-1368,-1354,-523,474
6785,24,-936,-1464,-1369,-497,486
6790,8,-928,-1496,-1393,-467,488
6795,-48,-864,-1536,-1427,-431,492
6800,-40,-856,-1672,-1463,-392,491
6805,-24,-856,-1744,-1510,-346,490
6810,0,-808,-1808,-1560,-292,481
6815,8,-784,-1896,-1612,-226,472
6820,64,-768,-1968,-1666,-149,452
6825,104,-768,-2072,-1735,-42,429
6830,136,-744,-2144,-1792,59,393
6835,192,-776,-2224,-1850,162,360
6840,264,-784,-2360,-1912,260,319
6845,264,-768,-2496,-1979,361,280
6850,280,-792,-2600,-2063,464,232
6855,312,-784,-2728,-2161,564,179
6860,296,-784,-2840,-2277,654,121
6865,280,-864,-2936,-2403,734,69
6870,248,-976,-3056,-2528,813,5
6875,144,-1040,-3136,-2597,862,-23
6880,64,-1144,-3208,-2628,903,-40
6885,-8,-1240,-3232,-2610,929,-48
6890,-56,-1320,-3248,-2558,945,-53
6895,-136,-1400,-3136,-2507,964,-51
6900,-240,-1432,-3040,-2472,973,-51
6905,-384,-1464,-2912,-2464,960,-33
6910,-504,-1520,-2784,-2493,923,-2
6915,-592,-1560,-2656,-2553,855,60
6920,-608,-1640,-2512,-2644,782,122
6925,-624,-1720,-2384,-2722,705,192
6930,-616,-1832,-2216,-2787,637,255
6935,-600,-1920,-1976,-2829,584,320
6940,-568,-2008,-1824,-2844,547,375
6945,-528,-2032,-1656,-2830,535,428
6950,-448,-2056,-1472,-2798,548,472
6955,-376,-2032,-1264,-2748,578,515
6960,-304,-1984,-1192,-2697,625,544
6965,-192,-1864,-1072,-2645,702,558
6970,-128,-1720,-1056,-2613,771,554
6975,-88,-1552,-968,-2590,832,542
6980,-8,-1400,-936,-2573,885,522
6985,56,-1232,-856,-2561,938,505
6990,112,-1080,-864,-2540,992,476
6995,240,-952,-808,-2513,1054,454
7000,272,-856,-816,-2495,1135,434
7005,392,-760,-800,-2472,1227,419
7010,440,-600,-816,-2438,1352,380
7015,464,-544,-856,-2396,1468,359
7020,536,-456,-944,-2362,1601,344
7025,632,-432,-968,-2309,1732,354
7030,808,-464,-1096,-2216,1860,346
7035,816,-432,-1216,-2105,2016,322
7040,816,-448,-1288,-1987,2168,293
7045,816,-416,-1368,-1862,2299,267
7050,832,-392,-1512,-1739,2398,243
7055,848,-296,-1592,-1633,2481,244
7060,896,-200,-1728,-1556,2577,258
7065,896,-80,-1752,-1525,2658,280
7070,848,0,-1712,-1502,2727,300
7075,808,24,-1688,-1450,2780,326
7080,744,8,-1752,-1372,2806,357
7085,576,-40,-1800,-1277,2801,397
7090,448,-128,-1864,-1187,2776,430
7095,296,-200,-1872,-1118,2745,454
7100,192,-304,-1840,-1071,2713,449
7105,96,-376,-1768,-985,2705,394
7110,-32,-392,-1712,-873,2720,306
7115,-144,-328,-1704,-750,2745,212
7120,-200,-248,-1632,-637,2780,128
7125,-248,-144,-1632,-568,2817,73
7130,-264,-80,-1568,-537,2834,29
7135,-264,16,-1624,-536,2830,-20
7140,-240,72,-1624,-538,2820,-85
7145,-192,184,-1664,-537,2807,-135
7150,-168,272,-1704,-531,2785,-170
7155,-144,344,-1712,-507,2765,-178
7160,-80,432,-1760,-465,2738,-190
7165,0,528,-1744,-404,2719,-208
7170,64,584,-1760,-323,2719,-236
7175,232,768,-1776,-212,2739,-271
7180,480,984,-1520,-104,2790,-324
7185,656,1040,-1456,92,2873,-386
7190,976,1184,-1552,396,2994,-410
7195,1664,1608,-1824,638,3091,-299
7200,1984,2184,-1408,641,3265,-302
7205,2840,2712,-1536,741,3573,-369
7210,3184,3456,-1928,800,3882,-496
7215,3944,3824,-2496,652,3905,-648
7220,5568,3888,-3968,220,3442,-806
7225,8864,3776,-5440,-1240,1971,-1271
7230,7480,4240,-5160,-3200,20,-2316
7235,4096,4632,-4792,-4400,-1015,-2959
7240,1200,4336,-3968,-4546,-1228,-2633
7245,696,3144,-3528,-3733,-630,-1523
7250,1016,2480,-3656,-1775,583,-792
7255,1528,2288,-3640,-64,2033,-146
7260,1552,1936,-3240,957,3032,73
7265,1528,2072,-3048,1507,3627,62
7270,1712,2136,-3032,1690,3962,-16
7275,1872,1952,-2856,1587,4312,2
7280,2160,1584,-2464,1262,4708,127
7285,2336,1200,-2160,831,5117,269
7290,2552,1048,-1848,386,5469,427
7295,2760,1024,-1616,-114,5615,474
7300,2688,1344,-1152,-382,5477,451
7305,2688,1584,-1064,-492,5133,410
7310,2696,1888,-984,-489,4785,404
7315,2736,1984,-864,-410,4477,467
7320,2856,2000,-872,-283,4187,581
7325,3016,1960,-960,-135,3877,701
7330,3088,2032,-1080,23,3538,783
7335,3240,2064,-1232,159,3196,831
7340,3216,2096,-1432,267,2882,836
7345,3160,2072,-1616,309,2740,824
7350,3040,2040,-1776,286,2669,785
7355,2552,1920,-1624,198,2655,730
7360,2192,1784,-1640,72,2621,683
7365,1880,1640,-1464,-96,2592,692
7370,1712,1408,-1224,-288,2544,759
7375,1656,1208,-952,-446,2523,842
7380,1608,1032,-648,-560,2530,899
7385,1552,864,-416,-627,2529,905
7390,1496,760,-168,-660,2488,865
7395,1376,656,-16,-675,2422,789
7400,1248,512,224,-673,2336,700
7405,1104,384,464,-646,2252,598
7410,808,248,640,-577,2162,484
7415,512,120,848,-463,2066,361
7420,328,48,880,-311,1983,239
7425,176,24,936,-145,1940,120
7430,56,32,944,6,1937,1
7435,16,120,848,146,1940,-86
7440,32,208,704,211,1912,-153
7445,80,328,632,222,1855,-211
7450,152,416,536,207,1777,-256
7455,184,488,456,173,1688,-279
7460,184,496,328,111,1581,-263
7465,272,488,232,12,1456,-218
7470,408,408,176,-124,1312,-146
7475,536,304,136,-282,1162,-64
7480,728,232,96,-429,1004,49
7485,976,48,128,-561,918,142
7490,1224,-32,96,-616,882,235
7495,1432,-144,80,-631,886,323
7500,1696,-208,128,-614,914,417
7505,1984,-232,288,-553,948,497
7510,2216,-232,312,-428,976,547
7515,2416,-240,336,-251,955,587
7520,2760,-240,400,-31,919,617
7525,3016,-88,352,227,874,600
7530,3168,16,408,514,794,575
7535,3320,56,384,706,706,551
7540,3400,160,392,834,603,540
7545,3432,184,416,905,484,531
7550,3368,184,400,925,356,544
7555,3216,200,352,898,222,586
7560,3176,136,224,814,84,685
7565,3056,-16,152,687,7,794
7570,2832,-48,88,530,-42,846
7575,2576,-24,144,394,-128,803
7580,2344,-16,72,289,-187,711
7585,2152,-32,56,237,-227,599
7590,2056,-64,80,195,-237,491
7595,1928,-24,48,151,-205,402
7600,1832,-64,80,99,-127,356
7605,1744,-32,96,58,-41,337
7610,1640,8,168,13,23,346
7615,1640,24,232,-33,61,354
7620,1592,40,264,-62,68,356
7625,1600,8,384,-57,45,340
7630,1608,24,384,-16,19,312
7635,1664,40,384,30,-2,273
7640,1680,8,416,88,-21,243
7645,1728,8,376,148,-42,211
7650,1736,16,384,200,-59,193
7655,1760,-16,408,239,-78,185
7660,1808,-48,384,263,-108,184
7665,1800,-112,360,261,-154,179
7670,1872,-168,320,222,-225,180
7675,1888,-168,320,184,-279,166
7680,1864,-144,224,141,-336,147
7685,1856,-120,192,88,-389,114
7690,1872,-144,96,29,-431,83
7695,1824,-120,64,-36,-453,47
7700,1824,-104,64,-98,-458,20
7705,1824,-40,24,-150,-448,-4
7710,1800,-32,40,-183,-432,-21
7715,1840,-32,8,-204,-408,-44
7720,1856,8,0,-207,-388,-61
7725,1896,24,-24,-202,-370,-81
7730,1912,56,-32,-190,-363,-94
7735,1952,64,-80,-174,-365,-107
7740,1952,96,-88,-154,-368,-114
7745,1984,104,-120,-129,-376,-127
7750,1984,128,-160,-101,-384,-134
7755,2000,136,-184,-78,-388,-144
7760,2016,144,-240,-58,-386,-150
7765,2072,128,-232,-42,-377,-159
7770,2056,152,-264,-32,-366,-164
7775,2088,176,-256,-34,-353,-170
7780,2136,176,-240,-33,-337,-167
7785,2176,192,-304,-34,-320,-169
7790,2232,200,-304,-34,-304,-162
7795,2256,200,-336,-33,-288,-158
7800,2296,184,-312,-33,-272,-147
7805,2296,192,-312,-35,-257,-140
7810,2296,168,-336,-37,-244,-125
7815,2320,168,-328,-41,-234,-118
7820,2320,152,-336,-43,-228,-108
7825,2320,168,-296,-47,-229,-106
7830,2296,120,-296,-49,-228,-103
7835,2304,120,-288,-52,-231,-106
7840,2280,120,-320,-50,-234,-107
7845,2280,104,-216,-45,-241,-109
7850,2272,88,-272,-36,-247,-109
7855,2224,96,-264,-25,-252,-115
7860,2232,80,-256,-10,-263,-116
7865,2216,88,-256,4,-269,-125
7870,2184,80,-304,16,-269,-133
7875,2128,104,-288,25,-270,-145
7880,2136,136,-280,28,-269,-156
7885,2096,160,-304,23,-269,-169
7890,2104,144,-272,16,-266,-177
7895,2080,168,-272,10,-259,-184
7900,2032,192,-264,7,-251,-186
7905,2032,216,-296,13,-236,-184
7910,2000,256,-328,27,-222,-174
7915,2008,296,-336,40,-206,-163
7920,2000,296,-336,59,-187,-147
7925,1976,328,-312,78,-162,-131
7930,1992,352,-328,98,-141,-109
7935,1992,376,-344,115,-127,-88
7940,1984,400,-360,129,-121,-66
7945,2016,400,-328,135,-119,-50
7950,2024,424,-304,135,-121,-33
7955,1992,448,-352,127,-126,-21
7960,2008,416,-384,119,-133,-10
7965,2016,416,-384,102,-144,-4
7970,2032,400,-360,76,-157,3
7975,2040,392,-392,50,-163,5
7980,2072,352,-408,24,-164,8
7985,2064,336,-352,2,-162,7
7990,2072,328,-400,-15,-158,9
7995,2096,296,-408,-23,-145,9
8000,2088,272,-384,-23,-128,9
8005,2112,264,-408,-19,-117,10
8010,2152,232,-408,-13,-112,11
8015,2136,280,-456,-12,-110,15
8020,2128,280,-456,-14,-98,21
8025,2168,296,-464,-17,-81,30
8030,2144,296,-464,-20,-60,40
8035,2168,272,-448,-19,-40,52
8040,2144,272,-456,-16,-26,67
8045,2120,280,-464,-10,-12,81
8050,2144,288,-456,-4,4,93
8055,2144,248,-448,-1,15,104
8060,2128,280,-448,0,29,113
8065,2136,248,-424,1,41,120
8070,2104,256,-432,0,55,125
8075,2104,248,-432,-1,68,128
8080,2104,248,-392,-3,79,133
8085,2120,192,-408,-6,95,136
8090,2096,200,-400,-6,111,136
8095,2112,200,-408,-5,132,136
8100,2096,224,-408,-2,148,133
8105,2104,216,-424,0,168,136
8110,2088,184,-400,0,183,138
8115,2088,192,-352,-1,193,138
8120,2088,160,-360,-2,204,141
8125,2072,152,-352,-3,210,141
8130,2024,200,-384,-8,206,135
8135,2064,192,-352,-25,199,132
8140,2064,168,-328,-41,200,129
8145,2072,160,-296,-51,206,131
8150,2064,168,-336,-52,217,137
8155,2064,144,-296,-55,228,145
8160,2064,128,-272,-57,226,144
8165,2056,136,-272,-55,216,138
8170,2064,112,-272,-63,203,130
8175,2064,128,-200,-73,191,127
8180,2120,112,-224,-76,176,119
8185,2096,88,-216,-73,161,111
8190,2120,96,-208,-65,141,99
8195,2120,80,-224,-55,123,90
8200,2144,64,-248,-44,108,79
8205,2144,88,-248,-37,93,75
8210,2136,88,-248,-29,84,70
8215,2128,64,-232,-21,74,67
8220,2096,72,-272,-12,67,60
8225,2120,72,-280,-7,62,56
8230,2104,48,-248,-3,60,51
8235,2072,40,-288,2,61,44
8240,2064,56,-304,4,64,34
8245,2064,48,-264,2,70,25
8250,2048,56,-272,-1,80,13
8255,2040,72,-256,-7,89,6
8260,2064,64,-288,-13,98,-6
8265,2040,112,-264,-19,104,-15
8270,2040,112,-280,-24,111,-25
8275,2032,136,-280,-31,115,-31
8280,2056,136,-232,-36,117,-39
8285,2056,144,-248,-41,114,-39
8290,2040,136,-264,-42,109,-42
8295,2064,136,-240,-43,103,-42
8300,2064,136,-224,-39,92,-42
8305,2056,144,-240,-36,84,-40
8310,2072,144,-264,-31,72,-40
8315,2080,152,-232,-26,61,-38
8320,2072,136,-272,-22,52,-39
8325,2064,136,-240,-22,43,-36
8330,2064,152,-280,-21,33,-38
8335,2088,176,-272,-21,28,-37
8340,2112,208,-304,-22,25,-39
8345,2000,144,-272,-24,21,-37
8350,2120,64,-320,-27,21,-41
8355,2040,176,-216,-29,21,-40
8360,2056,72,-224,-33,22,-46
8365,2096,200,-312,-34,24,-46
8370,2080,160,-264,-36,27,-50
8375,2088,168,-280,-39,30,-50
8380,2080,136,-280,-37,36,-51
8385,2064,160,-264,-35,38,-49
8390,2048,168,-296,-32,38,-50
8395,2064,184,-288,-29,37,-46
8400,2072,176,-280,-24,37,-47
8405,2056,152,-296,-21,35,-43
8410,2024,184,-328,-14,36,-43
8415,2024,200,-288,-9,38,-40
8420,2064,176,-280,0,42,-40
8425,2040,168,-280,7,44,-33
8430,2072,168,-336,16,49,-33
8435,2064,176,-296,21,53,-27
8440,2064,192,-312,25,56,-26
8445,2088,200,-304,29,61,-22
8450,2080,176,-304,34,63,-21
8455,2072,192,-304,36,65,-14
8460,2072,176,-312,37,63,-12
8465,2088,184,-264,33,62,-7
8470,2080,184,-280,29,61,-6
8475,2088,184,-264,23,58,-2
8480,2088,160,-280,17,52,-3
8485,2096,152,-264,11,44,2
8490,2104,192,-256,4,37,0
8495,2112,152,-264,-1,31,3
8500,2080,168,-240,-8,23,3
8505,2072,184,-288,-10,15,6
8510,2072,176,-272,-12,5,6
8515,2096,184,-280,-12,-2,9
8520,2064,176,-280,-11,-8,7
8525,2072,160,-304,-13,-11,9
8530,2064,192,-304,-14,-11,10
8535,2056,200,-320,-15,-10,13
8540,2080,184,-320,-13,-8,12
8545,2064,176,-336,-14,-5,16
8550,2048,200,-304,-13,1,16
8555,2064,200,-328,-13,7,20
8560,2088,184,-336,-11,10,21
8565,2064,176,-328,-11,14,25
8570,2080,176,-344,-7,19,28
8575,2072,176,-336,-4,24,33
8580,2088,168,-352,-2,30,32
8585,2080,176,-304,5,35,36
8590,2112,168,-320,10,39,36
8595,2088,160,-328,14,42,40
8600,2104,176,-304,18,45,41
8605,2104,128,-312,18,48,43
8610,2072,160,-304,19,50,41
8615,2112,152,-320,19,54,42
8620,2112,152,-344,15,56,42
8625,2096,136,-320,12,57,43
8630,2080,152,-336,6,57,43
8635,2088,136,-320,3,57,44
8640,2088,152,-296,-1,58,42
8645,2112,128,-328,-2,59,42
8650,2080,160,-328,0,61,39
8655,2080,152,-352,0,61,39
8660,2096,120,-320,2,61,37
8665,2088,128,-352,5,64,35
8670,2088,136,-312,7,69,32
8675,2064,136,-312,9,74,31
8680,2080,136,-328,8,78,28
8685,2080,152,-288,6,83,26
8690,2072,144,-296,5,88,22
8695,2088,144,-320,2,91,23
8700,2072,136,-312,0,92,19
8705,2064,128,-280,1,90,18
8710,2088,152,-296,0,87,17
8715,2072,136,-328,1,86,16
8720,2112,120,-304,0,85,13
8725,2088,144,-304,0,84,13
8730,2080,120,-344,2,80,10
8735,2064,144,-312,0,78,8
8740,2072,144,-320,1,76,7
8745,2064,152,-288,0,74,10
8750,2080,144,-320,-1,74,8
8755,2080,120,-296,-1,74,3
8760,2080,120,-296,0,76,1
8765,2048,152,-304,1,76,0
8770,2064,144,-280,-1,77,-3
8775,2096,144,-296,-3,79,-5
8780,2056,152,-304,-5,78,-6
8785,2080,120,-296,-8,77,-7
8790,2072,120,-288,-12,77,-9
8795,2056,144,-328,-14,76,-10
8800,2104,120,-304,-17,74,-9
8805,2048,152,-280,-18,73,-12
8810,2072,144,-304,-17,71,-10
8815,2072,128,-304,-17,72,-11
8820,2072,144,-296,-18,72,-12
8825,2072,128,-328,-18,72,-13
8830,2064,144,-296,-18,72,-14
8835,2104,152,-320,-19,72,-15
8840,2104,152,-280,-20,73,-15
8845,2080,136,-288,-20,76,-16
8850,2088,152,-312,-22,78,-17
8855,2104,144,-296,-20,80,-19
8860,2096,160,-320,-19,82,-18
8865,2096,136,-304,-17,82,-19
8870,2088,128,-304,-14,83,-19
8875,2112,120,-304,-11,85,-19
8880,2088,160,-304,-6,86,-20
8885,2088,136,-320,-1,89,-21
8890,2080,160,-312,2,93,-21
8895,2088,136,-336,6,95,-23
8900,2088,144,-320,7,103,-23
8905,2080,152,-304,8,108,-25
8910,2088,152,-320,10,113,-24
8915,2080,152,-336,8,118,-26
8920,2080,168,-304,7,125,-24
8925,2048,176,-312,5,130,-23
8930,2048,176,-304,6,132,-21
8935,2088,160,-288,6,134,-19
8940,2064,184,-304,9,134,-16
8945,2072,168,-272,13,130,-16
8950,2072,152,-280,16,128,-13
8955,2072,144,-272,16,129,-13
8960,2080,168,-256,18,130,-10
8965,2080,144,-240,21,124,-13
8970,2080,136,-248,24,121,-12
8975,2080,144,-248,26,118,-12
8980,2072,160,-256,26,114,-11
8985,2072,168,-232,20,105,-10
8990,2080,168,-288,14,99,-5
8995,2080,144,-288,9,87,-8
9000,2096,152,-256,4,80,-5
9005,2088,136,-272,1,72,-5
9010,2056,152,-264,-3,62,-1
9015,2056,160,-272,-4,54,-2
9020,2048,144,-280,-5,48,1
9025,2024,144,-264,-2,46,-1
9030,2056,136,-264,-2,43,1
9035,2072,136,-264,0,44,-4
9040,2056,120,-272,3,46,-1
9045,2040,144,-264,7,49,-4
9050,2032,160,-264,8,52,-3
9055,2032,144,-256,5,54,-6
9060,2032,168,-272,4,55,-4
9065,2032,176,-256,0,56,-6
9070,2056,176,-264,-5,57,-4
9075,2064,160,-304,-10,59,-7
9080,2088,152,-288,-16,60,-4
9085,2056,184,-264,-18,60,-6
9090,2080,152,-296,-21,58,-2
9095,2088,152,-280,-21,58,-5
9100,2072,144,-280,-20,60,-2
9105,2112,144,-304,-19,60,-5
9110,2096,144,-288,-15,60,-3
9115,2096,136,-288,-11,59,-5
9120,2072,168,-304,-7,60,-1
9125,2112,152,-328,-1,59,-2
9130,2096,144,-336,3,61,0
9135,2096,152,-272,10,62,-1
9140,2072,160,-280,16,63,1
9145,2096,160,-296,20,67,-1
9150,2104,136,-304,21,70,0
9155,2056,168,-288,21,72,-1
9160,2064,168,-304,21,76,2
9165,2080,168,-288,18,79,1
9170,2064,152,-296,16,82,3
9175,2088,112,-296,15,81,3
9180,2064,160,-272,10,82,5
9185,2056,184,-280,8,80,3
9190,2072,152,-264,6,81,5
9195,2048,152,-288,3,83,4
9200,2072,160,-256,0,83,7
9205,2072,160,-272,1,84,6
9210,2080,176,-272,1,84,10
9215,2088,144,-264,3,83,9
9220,2072,136,-272,3,82,11
9225,2072,176,-312,4,82,11
9230,2096,144,-288,6,82,11
9235,2080,144,-288,8,79,10
9240,2088,168,-280,7,77,11
9245,2104,144,-240,4,73,13
9250,2088,136,-264,2,73,15
9255,2080,120,-288,2,74,13
9260,2080,136,-296,1,72,15
9265,2088,128,-288,2,70,9
9270,2080,136,-288,2,68,10
9275,2096,128,-272,2,67,6
9280,2080,128,-280,4,68,6
9285,2112,128,-288,6,70,2
9290,2072,144,-280,8,71,0
9295,2088,128,-304,14,71,-2
9300,2088,152,-288,13,74,-3
9305,2096,152,-296,15,78,-6
9310,2080,168,-280,16,80,-5
9315,2064,120,-264,15,85,-5
9320,2072,152,-256,13,88,-3
9325,2064,152,-296,10,91,-2
9330,2080,168,-264,8,90,0
9335,2056,136,-240,9,91,1
9340,2064,160,-264,9,90,2
9345,2056,136,-280,10,87,1
9350,2088,120,-272,11,83,1
9355,2056,152,-288,14,80,1
9360,2072,152,-280,13,79,1
9365,2064,128,-256,15,79,0
9370,2064,136,-280,18,79,-2
9375,2056,152,-280,18,78,-4
9380,2064,128,-280,17,74,-3
9385,2096,136,-232,13,73,-4
9390,2064,128,-272,11,74,-2
9395,2064,152,-256,10,73,-3
9400,2064,160,-272,6,72,0
9405,2064,152,-256,5,71,-1
9410,2080,168,-272,4,70,-1
9415,2096,136,-264,1,68,-1
9420,2096,144,-248,0,67,0
9425,2088,160,-248,-4,67,0
9430,2120,128,-272,-6,62,0
9435,2104,152,-264,-4,60,-1
9440,2080,160,-264,-6,55,1
9445,2112,152,-256,-5,54,2
9450,2096,144,-280,-4,52,0
9455,2104,144,-264,-3,49,0
9460,2096,152,-256,-2,48,1
9465,2096,136,-296,0,48,0
9470,2080,144,-288,0,49,-1
9475,2088,152,-280,0,50,-1
9480,2080,160,-288,-2,49,-2
9485,2088,128,-264,-3,50,-3
9490,2072,144,-296,-5,51,-5
9495,2064,176,-296,-5,53,-5
9500,2080,144,-272,-5,55,-4
9505,2088,120,-288,-3,57,-4
9510,2080,144,-288,-3,58,-6
9515,2072,160,-288,-2,60,-5
9520,2064,160,-280,0,62,-4
9525,2080,136,-272,3,67,-4
9530,2056,152,-280,5,70,-4
9535,2072,168,-280,4,71,-1
9540,2080,136,-280,4,74,-1
9545,2064,128,-256,3,77,-2
9550,2072,144,-288,1,78,-1
9555,2080,144,-264,-1,78,1
9560,2088,144,-248,-2,80,0
9565,2056,152,-288,-2,77,4
9570,2080,144,-272,-4,76,5
9575,2072,128,-272,-5,74,7
9580,2080,144,-272,-6,74,7
9585,2104,136,-248,-8,72,9
9590,2080,128,-272,-8,70,7
9595,2056,136,-272,-8,68,5
9600,2088,136,-272,-6,68,-2
9605,2096,120,-272,-8,70,-4
9610,2088,160,-272,-12,71,-7
9615,2080,152,-256,-15,72,-7
9620,2088,144,-288,-17,72,-9
9625,2088,160,-256,-20,72,-9
9630,2096,144,-256,-21,69,-9
9635,2112,152,-264,-22,68,-7
9640,2088,160,-280,-20,68,-6
9645,2072,136,-264,-17,68,-2
9650,2088,136,-272,-12,67,-4
9655,2072,152,-240,-11,67,0
9660,2088,152,-240,-8,67,-2
9665,2072,144,-272,-2,66,0
9670,2072,160,-248,0,67,-4
9675,2064,152,-296,4,68,-3
9680,2048,136,-256,8,68,-3
9685,2072,136,-264,9,67,-2
9690,2048,168,-264,9,69,-3
9695,2056,144,-264,8,69,-3
9700,2064,160,-264,2,72,-4
9705,2056,120,-264,-5,75,-2
9710,2072,144,-264,-10,76,-4
9715,2096,152,-264,-15,78,-3
9720,2088,152,-288,-16,77,-6
9725,2088,144,-264,-18,75,-4
9730,2104,136,-280,-19,76,-5
9735,2080,128,-264,-18,76,-2
9740,2080,176,-264,-17,75,-5
9745,2088,136,-272,-15,73,-3
9750,2104,152,-288,-14,71,-4
9755,2072,128,-264,-11,72,-2
9760,2088,152,-272,-10,71,-5
9765,2072,144,-240,-10,72,-3
9770,2096,144,-256,-8,72,-7
9775,2088,152,-256,-7,74,-6
9780,2080,152,-304,-9,76,-9
9785,2096,136,-264,-11,79,-7
9790,2072,152,-240,-13,81,-8
9795,2096,152,-280,-11,79,-5
9800,2064,144,-288,-10,75,-7
9805,2080,128,-272,-10,75,-4
9810,2080,160,-240,-10,72,-8
9815,2056,136,-248,-12,71,-5
9820,2080,136,-280,-14,70,-5
9825,2096,136,-256,-16,67,-1
9830,2072,136,-304,-17,63,-3
9835,2088,128,-256,-17,57,3
9840,2080,152,-256,-16,58,-1
9845,2088,152,-232,-14,58,-1
9850,2064,168,-232,-16,57,-2
9855,2072,160,-272,-16,54,0
9860,2072,144,-216,-19,54,-3
9865,2056,136,-240,-20,54,0
9870,2064,144,-264,-22,56,-2
9875,2072,136,-240,-25,56,-2
9880,2080,160,-240,-28,55,-2
9885,2080,136,-256,-32,52,0
9890,2064,136,-232,-37,48,1
9895,2104,136,-280,-41,45,4
9900,2072,128,-256,-46,41,4
9905,2096,144,-264,-49,38,7
9910,2072,120,-272,-49,36,4
9915,2080,152,-264,-50,36,6
9920,2064,168,-288,-52,33,3
9925,2080,160,-264,-52,34,4
9930,2080,136,-256,-50,34,1
9935,2088,128,-288,-47,36,3
9940,2064,136,-264,-43,37,-1
9945,2064,128,-232,-42,39,1
9950,2056,152,-248,-40,38,-2
9955,2056,144,-280,-39,40,0
9960,2072,152,-256,-37,40,0
9965,2056,152,-248,-36,42,3
9970,2080,152,-256,-38,41,1
9975,2064,152,-280,-38,42,5
9980,2088,152,-280,-40,42,3
9985,2048,168,-264,-43,41,7
9990,2056,152,-256,-46,42,5
9995,2072,152,-288,-49,43,8
10000,2064,168,-288,-50,43,6
10005,2104,144,-280,-49,42,8
10010,2080,168,-256,-49,42,6
10015,2080,152,-288,-46,41,9
10020,2088,152,-304,-45,40,8
10025,2080,160,-280,-44,41,9
10030,2072,168,-280,-42,39,7
10035,2088,120,-272,-42,38,10
10040,2088,144,-304,-41,36,11
10045,2088,120,-272,-42,35,12
10050,2088,152,-256,-42,35,12
10055,2096,120,-280,-43,34,13
10060,2080,128,-288,-44,33,10
10065,2080,152,-272,-44,33,13
10070,2072,152,-288,-43,35,12
10075,2096,160,-296,-45,36,13
10080,2080,128,-264,-43,37,12
10085,2080,144,-280,-42,40,13
10090,2080,136,-256,-38,41,10
10095,2072,136,-288,-36,42,11
10100,2080,152,-264,-35,44,11
10105,2064,144,-272,-33,45,12
10110,2072,128,-264,-34,45,10
10115,2096,136,-272,-35,44,12
10120,2072,144,-272,-36,45,12
10125,2072,136,-272,-36,42,12
10130,2080,152,-296,-37,40,12
10135,2080,128,-272,-39,38,13
10140,2072,152,-296,-39,36,12
10145,2072,136,-256,-40,34,11
10150,2088,128,-248,-40,32,10
10155,2072,128,-272,-40,31,10
10160,2072,136,-280,-41,28,10
10165,2080,136,-248,-41,25,10
10170,2072,128,-280,-41,24,12
10175,2088,136,-280,-41,24,11
10180,2072,144,-264,-42,22,12
10185,2080,160,-312,-43,23,12
10190,2064,136,-272,-41,22,11
10195,2072,136,-280,-41,21,11
10200,2072,136,-304,-41,21,10
10205,2064,136,-288,-43,22,11
10210,2080,112,-256,-40,21,9
10215,2072,120,-264,-40,19,9
10220,2072,144,-288,-39,20,8
10225,2104,136,-264,-38,22,7
10230,2080,128,-280,-38,20,7
10235,2072,136,-296,-39,22,7
10240,2072,128,-272,-41,25,8
10245,2096,144,-288,-41,24,5
10250,2072,152,-280,-40,24,5
10255,2088,136,-280,-42,24,5
10260,2064,144,-288,-45,27,7
10265,2080,136,-256,-45,29,7
10270,2080,136,-272,-47,29,8
10275,2080,128,-296,-50,30,6
10280,2072,168,-272,-51,32,8
10285,2056,152,-296,-53,35,7
10290,2048,152,-272,-56,39,9
10295,2072,136,-264,-58,42,9
10300,2072,168,-280,-61,45,10
10305,2064,136,-296,-65,49,12
10310,2088,144,-264,-67,52,13
10315,2088,144,-264,-68,55,11
10320,2088,120,-296,-68,56,13
10325,2080,160,-296,-66,56,11
10330,2080,152,-296,-67,55,10
10335,2096,120,-272,-63,55,8
10340,2120,136,-304,-57,52,8
10345,2128,112,-312,-50,48,7
10350,2136,136,-352,-38,42,11
10355,2112,144,-320,-26,38,10
10360,2104,128,-312,-18,33,11
10365,2144,128,-296,-9,31,10
10370,2088,128,-344,-4,31,11
10375,2080,128,-296,-2,32,8
10380,2096,112,-320,-1,32,7
10385,2096,128,-304,-4,33,2
10390,2088,136,-288,-9,33,3
10395,2088,144,-280,-14,35,1
10400,2072,136,-264,-22,36,3
10405,2064,136,-288,-28,36,1
10410,2056,120,-280,-32,37,3
10415,2056,136,-312,-36,38,-1
10420,2056,144,-288,-37,39,0
10425,2040,144,-304,-37,43,-4
10430,2048,136,-296,-36,44,-3
10435,2056,104,-312,-35,44,-5
10440,2064,136,-304,-30,46,-8
10445,2064,152,-288,-28,50,-9
10450,2072,128,-296,-28,56,-7
10455,2064,144,-288,-27,57,-8
10460,2056,160,-296,-26,60,-5
10465,2080,144,-280,-23,61,-4
10470,2072,160,-280,-20,61,0
10475,2080,120,-288,-17,60,0
10480,2096,112,-264,-14,56,3
10485,2096,160,-304,-14,54,2
10490,2096,128,-280,-16,50,7
10495,2080,128,-312,-19,48,6
10500,2072,104,-280,-23,46,8
10505,2088,120,-256,-26,43,4
10510,2080,128,-280,-30,40,7
10515,2072,120,-264,-33,37,1
10520,2080,120,-264,-37,36,3
10525,2072,104,-256,-38,32,-1
10530,2064,128,-248,-41,28,-2
10535,2072,136,-272,-43,23,-8
10540,2064,120,-288,-48,19,-8
10545,2064,128,-272,-46,16,-12
10550,2088,128,-248,-47,14,-10
10555,2064,144,-296,-44,13,-13
10560,2056,160,-288,-41,14,-10
10565,2072,144,-328,-38,14,-13
10570,2064,136,-304,-36,15,-10
10575,2064,160,-296,-33,18,-11
10580,2080,184,-328,-31,23,-9
10585,2072,152,-344,-30,30,-8
10590,2064,144,-320,-30,35,-6
10595,2064,152,-328,-28,40,-6
10600,2080,152,-304,-26,41,-2
10605,2064,168,-312,-27,45,-3
10610,2080,160,-320,-29,49,1
10615,2088,152,-336,-29,51,1
10620,2080,152,-328,-26,54,2
10625,2080,152,-312,-23,55,1
10630,2072,152,-296,-19,56,2
10635,2088,160,-312,-14,56,1
10640,2088,136,-296,-12,55,3
10645,2088,144,-336,-7,53,2
10650,2096,128,-312,-6,53,6
10655,2088,136,-304,-3,52,4
10660,2104,144,-296,-2,51,7
10665,2104,112,-312,-3,50,5
10670,2088,136,-288,-2,50,8
10675,2120,128,-336,-4,50,7
10680,2104,112,-304,-4,50,9
10685,2080,144,-336,-7,49,7
10690,2096,152,-312,-6,51,8
10695,2056,152,-320,-9,56,6
10700,2080,136,-312,-8,58,8
10705,2048,120,-320,-10,61,5
10710,2064,128,-280,-9,65,7
10715,2056,128,-288,-10,70,5
10720,2072,152,-280,-10,73,7
10725,2072,136,-304,-9,75,7
10730,2056,128,-256,-8,76,10
10735,2072,144,-312,-6,78,8
10740,2072,136,-320,-4,79,11
10745,2064,144,-288,-3,78,9
10750,2048,104,-312,-3,78,10
10755,2064,136,-264,-2,77,6
10760,2080,120,-304,0,77,8
10765,2072,120,-296,0,78,5
10770,2072,112,-264,2,78,6
10775,2040,136,-288,0,79,5
10780,2088,120,-328,-1,78,6
10785,2072,120,-304,-3,76,3
10790,2088,112,-296,-5,75,4
10795,2056,128,-296,-9,74,3
10800,2072,136,-320,-12,73,3
10805,2080,120,-304,-14,72,1
10810,2096,144,-280,-17,71,1
10815,2080,136,-280,-19,69,-2
10820,2048,136,-320,-23,68,-3
10825,2088,112,-304,-25,66,-4
10830,2072,128,-288,-26,67,-5
10835,2072,120,-312,-26,66,-7
10840,2072,120,-320,-25,64,-5
10845,2072,128,-264,-25,64,-6
10850,2080,144,-296,-23,64,-7
10855,2072,128,-312,-22,64,-9
10860,2072,144,-312,-24,64,-5
10865,2096,152,-304,-25,67,-5
10870,2080,136,-272,-26,68,-4
10875,2088,168,-296,-25,69,-3
10880,2064,168,-312,-25,71,-4
10885,2080,152,-328,-25,70,-3
10890,2096,152,-328,-25,71,-4
10895,2080,136,-352,-23,70,-4
10900,2104,120,-320,-20,73,-3
10905,2064,136,-320,-19,72,-5
10910,2096,128,-328,-17,71,-6
10915,2112,136,-320,-15,73,-5
10920,2080,112,-320,-13,72,-7
10925,2080,136,-280,-11,71,-6
10930,2088,120,-288,-12,70,-6
10935,2072,144,-304,-10,70,-6
10940,2088,136,-320,-10,70,-7
10945,2072,144,-304,-11,70,-7
10950,2080,128,-312,-10,70,-7
10955,2096,112,-296,-9,71,-5
10960,2072,136,-272,-9,72,-7
10965,2072,144,-304,-11,73,-5
10970,2072,144,-296,-10,73,-6
10975,2072,136,-288,-10,73,-5
10980,2072,136,-296,-9,75,-4
10985,2072,144,-312,-9,74,-3
10990,2080,144,-296,-7,75,-4
10995,2048,144,-288,-6,76,-4
11000,2064,152,-280,-4,77,-4
11005,2064,144,-312,-2,76,-3
11010,2072,160,-296,0,78,-5
11015,2088,128,-304,2,80,-2
11020,2048,136,-304,3,84,-3
11025,2072,128,-288,4,86,-2
11030,2056,152,-288,6,88,-4
11035,2104,128,-296,6,92,-2
11040,2072,120,-280,9,94,-4
11045,2088,128,-296,9,97,-3
11050,2096,152,-304,9,97,-6
11055,2088,112,-296,11,99,-4
11060,2072,144,-280,12,100,-6
11065,2080,144,-304,12,100,-4
11070,2056,144,-296,12,100,-5
11075,2072,136,-288,12,99,-3
11080,2080,136,-288,11,99,-2
11085,2096,144,-304,11,100,1
11090,2072,128,-264,8,102,2
11095,2064,152,-312,6,102,6
11100,2088,144,-272,2,103,6
11105,2064,152,-288,-2,104,11
11110,2056,144,-248,-5,101,12
11115,2048,144,-240,-7,100,16
11120,2056,128,-280,-12,98,16
11125,2056,112,-264,-17,96,18
11130,2048,128,-304,-22,96,16
11135,2072,128,-288,-25,96,19
11140,2088,112,-272,-27,97,15
11145,2072,136,-288,-24,99,15
11150,2072,136,-304,-14,100,12
11155,2104,128,-328,-2,104,14
11160,2104,104,-328,9,107,10
11165,2112,104,-328,18,112,11
11170,2096,112,-320,25,116,6
11175,2136,104,-312,29,122,6
11180,2104,120,-304,28,127,2
11185,2104,112,-256,23,129,3
11190,2120,112,-272,17,128,2
11195,2088,128,-272,10,125,6
11200,2128,120,-272,5,119,5
11205,2080,128,-272,4,113,9
11210,2088,144,-248,1,106,9
11215,2088,112,-264,1,98,13
11220,2080,112,-256,2,92,11
11225,2072,104,-256,2,86,15
11230,2056,104,-248,3,82,12
11235,2064,88,-216,2,79,13
11240,2040,120,-232,1,77,10
11245,2064,104,-232,-2,76,8
11250,2056,120,-248,-5,72,2
11255,2056,112,-248,-7,72,2
11260,2072,120,-256,-11,71,-4
11265,2088,136,-248,-15,71,-4
11270,2064,136,-264,-18,71,-7
11275,2088,88,-216,-21,70,-6
11280,2000,128,-136,-21,68,-10
11285,2104,128,-336,-21,67,-9
11290,2104,64,-264,-20,67,-10
11295,2072,136,-408,-20,65,-10
11300,2080,120,-344,-18,65,-12
11305,2104,128,-320,-20,64,-9
11310,2048,104,-224,-19,63,-11
11315,2088,128,-272,-17,62,-8
11320,2080,112,-272,-15,61,-9
11325,2080,120,-304,-14,59,-6
11330,2080,128,-264,-13,58,-7
11335,2208,200,-224,-13,59,-6
11340,2096,136,-280,-12,57,-8
11345,2072,120,-248,-12,57,-5
11350,2056,128,-248,-13,57,-7
11355,2080,104,-264,-12,56,-5
11360,2072,144,-240,-16,56,-7
11365,2064,128,-272,-16,56,-3
11370,2072,136,-256,-17,54,-5
11375,2088,120,-248,-17,56,-5
11380,2088,144,-256,-17,57,-5
11385,2104,144,-296,-16,55,-4
11390,2080,152,-288,-15,56,-5
11395,2080,144,-280,-14,55,-3
11400,2080,152,-272,-12,56,-5
11405,2096,136,-288,-10,58,-3
11410,2088,120,-264,-7,61,-5
11415,2064,120,-296,-2,63,-3
11420,2080,128,-320,-1,67,-5
11425,2096,128,-272,-1,68,-4
11430,2080,152,-288,1,71,-7
11435,2104,128,-280,2,74,-5
11440,2104,136,-288,1,77,-5
11445,2072,144,-264,-1,77,-3
11450,2072,152,-280,-3,78,-4
11455,2072,136,-272,-2,79,-3
11460,2120,128,-288,-4,80,-4
11465,2088,88,-264,-3,81,-2
11470,2104,120,-312,-2,80,-5
11475,2072,136,-288,-1,80,-4
11480,2104,128,-232,-2,80,-7
11485,2096,112,-256,0,80,-7
11490,2064,128,-280,2,79,-10
11495,2024,136,-168,4,80,-7
11500,2112,96,-216,6,79,-10
11505,2064,136,-264,7,79,-8
11510,2064,144,-232,9,79,-9
11515,2072,120,-264,10,78,-7
11520,2080,120,-264,11,77,-7
11525,2064,144,-248,6,76,-6
11530,2088,152,-248,3,74,-3
11535,2064,160,-272,0,73,-3
11540,2088,144,-248,-4,70,-4
11545,2080,112,-208,-6,68,-2
11550,2088,128,-280,-9,64,-3
11555,2072,128,-248,-10,63,-2
11560,2064,120,-256,-11,60,-2
11565,2072,136,-248,-11,59,-2
11570,2064,112,-248,-11,59,-2
11575,2080,112,-232,-9,59,-2
11580,2072,128,-264,-8,59,-2
11585,2064,120,-248,-10,61,-2
11590,2072,144,-280,-9,61,-3
11595,2064,112,-256,-9,62,-1
11600,2080,128,-272,-10,63,-2
11605,2072,136,-232,-11,63,-2
11610,2088,112,-280,-10,62,-1
11615,2048,136,-288,-8,62,1
11620,2096,136,-264,-5,59,3
11625,2072,136,-240,-5,57,4
11630,2064,104,-256,-2,55,5
11635,2064,104,-296,0,52,6
11640,2080,144,-272,1,52,6
11645,2088,120,-264,0,49,7
11650,2080,120,-280,1,48,8
11655,2072,128,-264,1,47,7
11660,2080,128,-272,0,46,8
11665,2080,136,-272,1,44,6
11670,2080,128,-240,-1,46,6
11675,2080,128,-272,-1,45,2
11680,2080,120,-272,-1,46,0
11685,2112,120,-264,-2,45,0
11690,2072,128,-280,-2,45,-1
11695,2112,112,-280,-1,46,-4
11700,2104,128,-312,-2,46,-5
11705,2080,136,-272,-1,45,-8
11710,2112,120,-272,-1,44,-6
11715,2104,112,-256,0,43,-8
11720,2120,128,-280,-2,42,-6
11725,2104,128,-312,-2,40,-6
11730,2088,152,-288,-3,37,-5
11735,2080,128,-304,-3,34,-4
11740,2088,128,-280,-3,32,-3
11745,2112,136,-272,-3,28,-4
11750,2088,128,-272,-3,24,0
11755,2088,136,-288,0,19,-1
11760,2112,120,-248,5,17,3
11765,2104,128,-312,6,16,1
11770,2104,136,-280,10,16,3
11775,2096,112,-312,12,20,0
11780,2080,128,-296,11,25,1
11785,2088,128,-288,10,33,-1
11790,2064,120,-272,10,44,-2
11795,2056,136,-288,9,55,-6
11800,2040,120,-304,7,67,-5
11805,2048,120,-280,8,76,-8
11810,2064,136,-248,7,86,-8
11815,2072,104,-280,7,95,-12
11820,2048,144,-280,9,102,-8
11825,2072,104,-240,10,106,-9
11830,2064,120,-264,12,109,-7
11835,2072,104,-272,14,110,-9
11840,2064,120,-240,16,111,-7
11845,2072,112,-272,18,109,-9
11850,2072,128,-248,19,108,-5
11855,2080,128,-264,22,104,-6
11860,2064,128,-240,20,99,-2
11865,2072,152,-232,19,95,-4
11870,2056,128,-248,18,90,-1
11875,2072,112,-240,17,84,-3
11880,2080,128,-256,16,79,0
11885,2080,96,-248,14,76,-2
11890,2080,136,-256,15,73,0
11895,2080,136,-264,15,71,-1
11900,2072,120,-256,15,68,1
11905,2064,128,-240,12,68,0
11910,2104,136,-264,11,67,2
11915,2072,128,-272,8,67,-1
11920,2088,136,-296,7,68,1
11925,2080,120,-264,5,68,-2
11930,2088,104,-256,4,69,-1
11935,2088,104,-264,2,70,-5
11940,2096,136,-248,-2,72,-4
11945,2072,136,-288,-2,72,-8
11950,2072,128,-280,-1,73,-5
11955,2072,144,-264,-3,74,-8
11960,2088,136,-240,-3,73,-5
11965,2088,128,-264,-2,73,-6
11970,2080,136,-288,0,74,-4
11975,2096,120,-272,2,73,-8
11980,2072,128,-256,4,72,-6
11985,2088,128,-280,3,71,-7
11990,2088,96,-248,4,71,-5
11995,2088,120,-256,6,70,-7
12000,2072,112,-256,9,71,-2
12005,2088,144,-288,12,72,-5
12010,2096,120,-264,14,69,-1
12015,2064,128,-296,13,68,-3
12020,2080,152,-280,13,69,-2
12025,2064,120,-272,12,69,-3
12030,2080,144,-256,10,67,-2
12035,2080,112,-272,6,66,-5
12040,2080,128,-264,5,67,-3
12045,2056,120,-264,4,68,-3
12050,2088,152,-272,3,70,0
12055,2056,120,-280,4,67,-3
12060,2072,136,-264,4,64,1
12065,2072,120,-232,4,62,-1
12070,2080,112,-264,3,59,0
12075,2064,136,-248,2,58,-2
12080,2088,136,-256,2,58,-3
12085,2072,128,-240,0,59,-6
12090,2064,112,-288,-1,62,-4
12095,2080,112,-296,-2,64,-6
12100,2088,136,-240,-5,65,-4
12105,2064,144,-272,-8,65,-7
12110,2088,136,-256,-8,65,-4
12115,2080,144,-264,-10,63,-7
12120,2080,144,-288,-11,63,-7
12125,2080,120,-248,-7,63,-8
12130,2072,144,-296,-4,62,-6
12135,2080,120,-272,-2,62,-8
12140,2072,136,-280,-2,61,-5
12145,2072,152,-264,-2,61,-8
12150,2056,136,-256,-1,62,-4
12155,2072,128,-288,-1,61,-7
12160,2072,136,-280,-2,62,-5
12165,2088,120,-240,-2,64,-6
12170,2080,112,-248,-1,65,-6
12175,2056,136,-272,0,67,-8
12180,2064,128,-240,-2,70,-7
12185,2056,144,-240,-4,72,-8
12190,2072,128,-224,-9,74,-9
12195,2048,120,-264,-12,73,-10
12200,2048,136,-192,-17,72,-9
12205,2064,136,-240,-22,69,-10
12210,2064,136,-224,-24,63,-8
12215,2072,128,-224,-27,52,-5
12220,2088,128,-232,-31,46,-2
12225,2064,136,-240,-35,39,2
12230,2072,128,-272,-36,29,4
12235,2080,144,-240,-37,22,7
12240,2056,160,-232,-39,14,11
12245,2064,136,-240,-39,10,14
12250,2096,128,-224,-41,4,18
12255,2072,144,-240,-39,0,19
12260,2072,144,-264,-39,-4,21
12265,2088,136,-296,-41,-5,22
12270,2072,152,-304,-45,-4,23
12275,2080,120,-288,-46,-3,21
12280,2120,128,-280,-49,0,20
12285,2088,104,-312,-52,2,19
12290,2096,104,-264,-54,8,18
12295,2096,144,-304,-54,13,17
12300,2104,136,-304,-51,17,17
12305,2128,112,-304,-48,23,19
12310,2120,128,-256,-42,28,19
12315,2120,112,-304,-37,31,19
12320,2104,112,-312,-31,33,18
12325,2120,88,-296,-28,36,18
12330,2096,120,-280,-26,40,16
12335,2112,120,-296,-25,42,16
12340,2088,120,-256,-23,42,17
12345,2096,120,-304,-23,39,17
12350,2072,136,-248,-22,35,17
12355,2096,120,-304,-22,31,18
12360,2088,120,-256,-23,27,18
12365,2080,120,-288,-23,25,20
12370,2072,112,-256,-22,22,20
12375,2096,112,-272,-24,19,22
12380,2112,112,-288,-27,18,22
12385,2080,136,-256,-30,16,23
12390,2080,128,-280,-32,17,23
12395,2072,112,-312,-35,19,24
12400,2088,104,-288,-36,20,22
12405,2072,104,-248,-36,22,23
12410,2072,112,-272,-34,25,20
12415,2048,120,-288,-35,28,19
12420,2080,104,-288,-33,31,17
12425,2080,104,-328,-32,36,14
12430,2064,112,-280,-31,39,11
12435,2064,104,-288,-29,41,12
12440,2080,112,-280,-26,45,11
12445,2064,120,-264,-25,46,11
12450,2064,128,-304,-23,47,9
12455,2064,136,-264,-23,47,9
12460,2064,128,-280,-24,46,8
12465,2064,120,-296,-25,45,11
12470,2088,88,-304,-28,41,10
12475,2080,104,-264,-30,40,11
12480,2072,96,-296,-34,39,10
12485,2088,88,-264,-38,37,12
12490,2096,80,-312,-43,35,8
12495,2072,112,-288,-47,34,11
12500,2080,112,-272,-48,32,8
12505,2080,120,-312,-50,34,10
12510,2072,120,-312,-52,33,7
12515,2096,120,-288,-51,34,7
12520,2096,112,-320,-50,35,4
12525,2112,104,-296,-49,36,5
12530,2096,120,-304,-47,36,5
12535,2088,160,-280,-47,38,6
12540,2096,120,-312,-46,35,5
12545,2088,120,-264,-44,33,9
12550,2080,136,-312,-44,33,7
12555,2096,128,-320,-43,31,11
12560,2096,128,-304,-42,29,11
12565,2080,96,-320,-43,29,15
12570,2048,128,-296,-44,28,13
12575,2056,144,-328,-45,29,16
12580,2064,128,-280,-45,28,12
12585,2056,120,-296,-41,32,15
12590,2048,112,-288,-40,34,11
12595,2056,120,-304,-37,35,13
12600,2096,104,-320,-34,38,9
12605,2056,112,-296,-32,41,11
12610,2072,104,-280,-28,45,8
12615,2080,120,-304,-24,47,10
12620,2088,120,-272,-21,50,9
12625,2080,128,-304,-19,51,11
12630,2080,112,-296,-18,51,10
12635,2072,96,-272,-18,53,12
12640,2080,112,-296,-19,53,9
12645,2088,80,-280,-21,51,10
12650,2072,120,-288,-24,50,7
12655,2064,112,-256,-26,48,9
12660,2064,104,-280,-27,44,7
12665,2088,112,-296,-30,42,10
12670,2072,136,-288,-31,37,8
12675,2080,96,-280,-33,33,11
12680,2080,120,-248,-34,30,10
12685,2080,104,-296,-34,29,13
12690,2072,112,-304,-35,27,11
12695,2056,120,-304,-36,28,16
12700,2064,128,-296,-37,28,14
12705,2088,136,-312,-36,30,18
12710,2072,104,-304,-37,29,15
12715,2064,128,-304,-36,31,19
12720,2072,96,-328,-37,31,18
12725,2072,128,-280,-36,31,19
12730,2064,128,-312,-38,32,18
12735,2088,112,-288,-38,32,20
12740,2104,104,-288,-39,32,18
12745,2048,112,-304,-39,31,20
12750,2080,96,-320,-40,29,15
12755,2072,112,-304,-39,27,18
12760,2088,96,-304,-40,26,14
12765,2088,96,-312,-40,25,15
12770,2088,120,-320,-37,23,13
12775,2096,104,-336,-39,23,14
12780,2080,104,-320,-39,23,11
12785,2080,112,-312,-41,23,12
12790,2096,96,-336,-41,23,11
12795,2080,96,-312,-40,22,12
12800,2064,104,-304,-41,20,9
12805,2080,112,-328,-41,23,12
12810,2072,96,-304,-42,23,10
12815,2064,96,-320,-40,24,10
12820,2080,104,-304,-41,26,9
12825,2080,88,-320,-41,28,10
12830,2088,88,-320,-41,29,8
12835,2072,88,-288,-42,29,9
12840,2064,112,-312,-42,30,7
12845,2080,96,-320,-43,29,8
12850,2072,112,-320,-43,29,7
12855,2088,104,-304,-44,29,9
12860,2072,88,-304,-43,28,8
12865,2072,104,-320,-44,28,8
12870,2072,120,-328,-44,27,6
12875,2064,96,-328,-44,26,7
12880,2088,104,-328,-47,27,5
12885,2064,96,-296,-47,26,8
12890,2072,112,-304,-49,27,6
12895,2080,88,-328,-49,26,9
12900,2096,112,-312,-50,25,7
12905,2096,104,-312,-51,23,9
12910,2080,96,-320,-51,23,11
12915,2088,96,-336,-51,23,12
12920,2080,104,-312,-48,21,11
12925,2104,88,-328,-47,20,12
12930,2088,88,-336,-46,19,11
12935,2064,112,-312,-44,20,11
12940,2080,88,-304,-43,22,8
12945,2088,64,-304,-42,21,6
12950,2080,88,-344,-41,24,3
12955,2080,96,-344,-40,27,2
12960,2080,96,-320,-41,30,-1
12965,2072,104,-328,-41,33,-1
12970,2072,104,-320,-42,36,-3
12975,2080,104,-328,-42,37,-2
12980,2088,104,-320,-41,38,-1
12985,2088,120,-344,-40,41,-2
12990,2080,112,-344,-40,45,0
12995,2064,112,-320,-39,47,2
13000,2056,112,-328,-39,48,3
13005,2072,112,-320,-39,48,4
13010,2056,104,-320,-39,47,6
13015,2072,88,-288,-39,44,7
13020,2088,80,-336,-39,43,10
13025,2088,88,-288,-41,40,11
13030,2096,88,-280,-43,37,11
13035,2072,104,-296,-45,33,11
13040,2064,104,-288,-46,26,11
13045,2072,80,-296,-48,17,10
13050,2096,88,-328,-49,12,10
13055,2072,80,-320,-52,5,9
13060,2056,88,-336,-49,1,7
13065,2080,112,-328,-46,-4,4
13070,2072,80,-312,-47,-6,3
13075,2080,104,-344,-47,-5,1
13080,2072,96,-352,-42,-3,-1
13085,2080,128,-344,-41,0,-2
13090,2072,112,-336,-40,9,-3
13095,2064,96,-336,-37,16,-7
13100,2080,96,-344,-33,23,-6
13105,2064,120,-344,-31,29,-7
13110,2080,120,-368,-32,36,-2
13115,2096,120,-352,-33,43,-1
13120,2096,128,-320,-33,47,1
13125,2096,120,-368,-31,50,3
13130,2088,128,-296,-30,51,6
13135,2064,128,-328,-26,51,6
13140,2096,104,-344,-23,50,9
13145,2080,120,-344,-19,48,9
13150,2080,88,-328,-17,48,11
13155,2064,104,-344,-16,45,9
13160,2088,104,-328,-15,44,11
13165,2072,96,-320,-14,43,9
13170,2088,80,-360,-14,44,11
13175,2056,104,-360,-13,44,8
13180,2088,80,-352,-14,44,10
13185,2072,96,-336,-16,46,8
13190,2064,96,-328,-17,45,9
13195,2056,96,-352,-17,46,7
13200,2072,88,-352,-17,46,10
13205,2072,88,-304,-18,46,9
13210,2072,88,-352,-17,49,10
13215,2056,80,-344,-17,48,8
13220,2072,80,-336,-16,49,8
13225,2064,112,-296,-17,49,6
13230,2056,96,-360,-18,49,7
13235,2048,112,-352,-20,48,5
13240,2064,96,-336,-18,47,9
13245,2064,88,-320,-18,47,7
13250,2072,104,-344,-20,49,8
13255,2072,104,-344,-21,49,5
13260,2048,120,-360,-23,50,6
13265,2088,88,-344,-23,51,4
13270,2088,96,-344,-23,50,5
13275,2088,88,-336,-22,52,4
13280,2072,120,-360,-21,54,4
13285,2072,104,-328,-20,56,0
13290,2072,80,-352,-20,57,3
13295,2088,120,-352,-18,60,-1
13300,2088,104,-368,-16,62,2
13305,2056,120,-336,-13,62,-1
13310,2088,104,-376,-12,64,1
13315,2080,80,-336,-11,64,-3
13320,2048,104,-352,-12,67,0
13325,2072,104,-320,-14,66,-3
13330,2056,104,-336,-16,65,-1
13335,2064,80,-352,-17,63,-4
13340,2080,88,-328,-17,63,-3
13345,2072,96,-344,-20,62,-8
13350,2088,72,-288,-20,60,-8
13355,2080,80,-312,-22,60,-11
13360,2080,80,-328,-21,59,-8
13365,2056,96,-320,-19,57,-8
13370,2072,112,-336,-19,55,-6
13375,2080,88,-328,-19,55,-7
13380,2064,96,-336,-17,55,-4
13385,2064,120,-344,-17,55,-7
13390,2064,88,-328,-17,57,-4
13395,2088,88,-336,-17,57,-6
13400,2072,112,-336,-16,58,-3
13405,2080,80,-384,-15,60,-6
13410,2064,120,-360,-11,61,-4
13415,2072,104,-344,-10,61,-6
13420,2088,88,-320,-7,63,-4
13425,2072,120,-352,-5,62,-5
13430,2080,96,-360,-3,61,-3
13435,2080,112,-360,-1,63,-6
13440,2080,72,-344,-1,64,-3
13445,2072,88,-352,-1,66,-6
13450,2072,104,-352,-3,68,-5
13455,2040,104,-328,-5,69,-8
13460,2080,88,-328,-7,71,-8
13465,2056,96,-344,-13,73,-11
13470,2064,96,-336,-15,75,-8
13475,2056,104,-328,-18,76,-11
13480,2064,88,-344,-20,76,-8
13485,2080,104,-336,-19,76,-9
13490,2072,80,-336,-18,76,-7
13495,2056,120,-344,-16,76,-9
13500,2080,96,-328,-14,76,-5
13505,2072,104,-320,-11,72,-5
13510,2080,88,-344,-9,72,-2
13515,2072,96,-368,-6,70,-2
13520,2080,88,-344,-3,68,-1
13525,2064,80,-360,0,67,-3
13530,2064,88,-336,0,67,-1
13535,2056,96,-320,0,66,-3
13540,2072,104,-328,1,66,-2
13545,2056,88,-328,1,67,-4
13550,2064,120,-344,-3,68,-4
13555,2088,104,-296,-6,68,-4
13560,2064,112,-360,-7,70,-4
13565,2072,88,-344,-11,74,-6
13570,2072,104,-344,-13,73,-3
13575,2072,104,-344,-13,74,-5
13580,2064,96,-328,-14,74,-3
13585,2088,96,-336,-15,74,-4
13590,2088,104,-336,-13,74,-1
13595,2096,96,-320,-11,75,-1
13600,2088,104,-360,-9,74,2
13605,2080,112,-328,-8,75,2
13610,2096,104,-344,-4,75,1
13615,2064,96,-344,-2,74,-1
13620,2072,88,-344,-1,77,0
13625,2096,96,-336,0,78,-1
13630,2064,80,-360,-1,80,-3
13635,2104,88,-320,-2,81,-5
13640,2080,104,-328,-4,82,-4
13645,2080,128,-304,-6,83,-7
13650,2080,96,-368,-8,84,-7
13655,2080,112,-320,-9,83,-8
13660,2096,96,-328,-8,82,-9
13665,2088,96,-336,-7,81,-10
13670,2048,128,-344,-8,78,-9
13675,2096,112,-336,-7,76,-7
13680,2064,88,-344,-6,74,-5
13685,2072,104,-296,-7,72,-4
13690,2080,112,-328,-6,69,-3
13695,2072,80,-328,-7,65,-2
13700,2048,104,-304,-8,64,-2
13705,2056,80,-280,-10,62,-1
13710,2056,120,-296,-11,59,-3
13715,2040,80,-344,-13,57,-4
13720,2056,96,-304,-15,53,-3
13725,2064,104,-328,-15,51,-3
13730,2056,112,-312,-17,48,-4
13735,2080,88,-312,-18,43,-6
13740,2080,104,-304,-18,42,-7
13745,2040,112,-328,-20,40,-8
13750,2072,136,-336,-18,41,-11
13755,2088,96,-344,-18,43,-10
13760,2056,128,-336,-18,45,-12
13765,2080,88,-320,-18,49,-11
13770,2096,80,-328,-17,51,-13
13775,2088,96,-336,-16,56,-12
13780,2056,96,-328,-15,60,-13
13785,2072,136,-360,-14,63,-11
13790,2104,96,-360,-14,67,-13
13795,2096,96,-312,-10,70,-9
13800,2080,112,-336,-9,73,-8
13805,2088,112,-344,-5,73,-6
13810,2072,128,-344,-2,73,-4
13815,2072,104,-328,1,75,-3
13820,2088,120,-344,3,73,-2
13825,2080,112,-344,4,72,-1
13830,2064,96,-336,5,72,-1
13835,2072,104,-336,5,72,0
13840,2088,72,-336,4,73,0
13845,2088,88,-336,4,73,1
13850,2088,96,-312,3,74,-1
13855,2064,112,-344,4,75,-1
13860,2072,104,-328,3,75,-2
13865,2080,88,-320,3,73,-1
13870,2072,112,-352,2,73,-2
13875,2072,120,-328,2,75,-1
13880,2080,104,-336,3,77,-5
13885,2080,104,-320,5,78,-3
13890,2080,104,-352,6,79,-6
13895,2088,88,-320,6,80,-4
13900,2088,104,-336,7,81,-6
13905,2080,96,-328,8,80,-4
13910,2064,112,-336,6,82,-5
13915,2088,80,-344,6,83,-5
13920,2064,104,-344,3,83,-6
13925,2064,80,-344,2,85,-2
13930,2072,96,-336,2,84,-5
13935,2064,96,-320,2,85,-2
13940,2056,112,-320,4,85,-4
13945,2072,112,-312,4,85,-2
13950,2072,96,-304,2,84,-6
13955,2080,80,-336,2,85,-7
13960,2064,104,-312,0,86,-8
13965,2048,96,-312,-1,88,-8
13970,2056,96,-304,0,88,-11
13975,2056,120,-304,1,89,-9
13980,2096,96,-328,2,89,-12
13985,2056,104,-344,4,89,-11
13990,2088,120,-336,4,89,-15
13995,2056,96,-336,3,86,-11
14000,2072,96,-344,3,87,-12
14005,2072,104,-328,3,84,-10
14010,2064,104,-328,3,83,-14
14015,2088,96,-344,1,82,-11
14020,2080,88,-328,-1,81,-14
14025,2072,128,-328,-5,79,-11
14030,2056,104,-312,-6,79,-15
14035,2056,96,-304,-7,77,-13
14040,2080,96,-328,-6,77,-15
14045,2056,96,-304,-7,76,-12
14050,2088,104,-312,-7,76,-14
14055,2072,120,-304,-5,75,-12
14060,2080,88,-320,-6,74,-14
14065,2088,104,-312,-7,73,-12
14070,2080,112,-320,-6,73,-15
14075,2088,88,-360,-6,73,-12
14080,2096,120,-312,-7,73,-14
14085,2096,104,-336,-6,74,-11
14090,2088,104,-320,-7,76,-14
14095,2080,112,-376,-6,78,-12
14100,2088,88,-320,-4,82,-16
14105,2096,96,-336,-2,85,-15
14110,2056,72,-288,2,88,-18
14115,2040,88,-248,4,94,-18
14120,2080,160,-288,6,98,-21
14125,2144,144,-328,9,104,-19
14130,2064,72,-336,11,108,-23
14135,2080,88,-336,14,111,-20
14140,2056,176,-272,15,114,-23
14145,2008,24,-288,13,116,-19
14150,2096,96,-320,14,120,-22
14155,2096,104,-304,13,120,-20
14160,2080,112,-288,15,117,-23
14165,2064,104,-328,15,114,-21
14170,2080,112,-288,16,113,-23
14175,2080,120,-288,16,111,-20
14180,2072,88,-272,15,106,-22
14185,2080,112,-304,14,104,-19
14190,2056,120,-288,11,104,-20
14195,2056,120,-280,8,102,-15
14200,2056,136,-272,7,99,-15
14205,2064,120,-328,8,96,-14
14210,2064,136,-272,9,93,-15
14215,2056,128,-328,11,92,-12
14220,2072,120,-288,13,92,-13
14225,2064,104,-272,12,93,-10
14230,2072,96,-264,10,94,-12
14235,2072,104,-264,10,92,-9
14240,2064,104,-296,8,93,-10
14245,2072,120,-312,8,92,-8
14250,2072,96,-296,6,93,-10
14255,2072,104,-328,5,94,-9
14260,2064,88,-344,6,94,-12
14265,2080,136,-280,6,94,-11
14270,2064,128,-296,5,94,-15
14275,2056,120,-312,4,93,-15
14280,2056,136,-312,2,94,-18
14285,2048,120,-304,1,96,-18
14290,2072,128,-288,0,95,-20
14295,2072,128,-280,1,95,-21
14300,2064,128,-312,1,95,-20
14305,2096,104,-280,3,93,-19
14310,2056,136,-280,3,92,-18
14315,2088,96,-304,4,90,-17
14320,2064,120,-304,4,88,-17
14325,2088,96,-288,6,86,-14
14330,2088,104,-296,6,85,-13
14335,2080,80,-304,7,85,-11
14340,2048,128,-272,8,85,-12
14345,2088,112,-304,9,86,-11
14350,2064,112,-288,8,88,-14
14355,2072,80,-304,6,87,-14
14360,2088,120,-328,4,89,-16
14365,2064,136,-288,3,91,-15
14370,2096,120,-288,0,95,-16
14375,2104,104,-256,-1,94,-15
14380,2064,144,-280,-3,93,-15
14385,2096,112,-296,-1,92,-13
14390,2096,120,-312,0,92,-12
14395,2080,104,-312,0,91,-12
14400,2072,128,-304,0,89,-11
14405,2080,128,-312,0,91,-10
14410,2072,96,-296,1,90,-9
14415,2072,104,-344,3,89,-9
14420,2080,104,-320,3,87,-9
14425,2072,120,-296,5,88,-9
14430,2096,120,-280,4,88,-8
14435,2064,120,-288,4,88,-10
14440,2064,128,-264,3,88,-7
14445,2072,112,-288,5,88,-7
14450,2072,96,-264,6,85,-8
14455,2072,128,-272,9,79,-8
14460,2072,96,-296,9,75,-8
14465,2088,112,-280,9,72,-9
14470,2080,120,-280,8,68,-10
14475,2072,120,-296,7,66,-11
14480,2072,120,-288,4,65,-11
14485,2048,128,-264,3,65,-11
14490,2064,128,-264,1,65,-10
14495,2080,112,-272,-1,64,-11
14500,2072,120,-280,-1,65,-8
14505,2080,104,-320,0,66,-8
14510,2064,120,-304,-2,67,-8
14515,2072,120,-304,-1,68,-8
14520,2096,112,-264,-1,69,-6
14525,2072,128,-280,-1,70,-6
14530,2072,112,-272,0,69,-3
14535,2072,120,-280,-2,69,-5
14540,2072,136,-304,-1,69,-1
14545,2064,112,-288,-1,71,-2
14550,2072,96,-312,-1,70,0
14555,2064,136,-288,-1,70,-3
14560,2088,104,-256,-1,68,-1
14565,2088,112,-256,-3,67,-2
14570,2072,112,-288,-6,65,0
14575,2088,136,-272,-6,64,-1
14580,2072,112,-280,-7,63,2
14585,2056,112,-264,-7,60,-1
14590,2080,136,-248,-7,59,2
14595,2080,112,-296,-7,59,1
14600,2072,112,-280,-7,59,4
14605,2080,128,-312,-7,59,2
14610,2104,128,-288,-9,59,2
14615,2048,128,-304,-9,58,0
14620,2096,96,-264,-8,61,2
14625,2064,120,-280,-8,63,0
14630,2064,120,-264,-9,64,2
14635,2088,112,-280,-10,64,-2
14640,2056,144,-280,-12,67,-1
14645,2080,112,-304,-14,68,-2
14650,2088,112,-288,-15,69,1
14655,2064,128,-296,-17,69,-1
14660,2088,112,-304,-19,68,1
14665,2072,104,-264,-20,66,0
14670,2088,120,-280,-18,64,2
14675,2072,104,-264,-18,63,0
14680,2088,112,-304,-17,61,1
14685,2088,96,-264,-16,61,-1
14690,2088,112,-288,-17,60,2
14695,2104,96,-280,-16,58,-1
14700,2088,120,-248,-17,58,2
14705,2072,112,-296,-17,57,0
14710,2096,104,-272,-16,55,2
14715,2072,128,-264,-16,54,-1
14720,2072,104,-256,-17,53,3
14725,2064,104,-304,-18,53,0
14730,2080,112,-312,-20,51,4
14735,2088,120,-288,-23,49,1
14740,2080,96,-288,-26,48,4
14745,2056,120,-272,-30,45,2
14750,2088,112,-264,-33,43,5
14755,2096,120,-280,-38,40,3
14760,2048,128,-264,-44,38,5
14765,2064,112,-288,-46,34,4
14770,2064,128,-280,-48,33,6
14775,2072,112,-320,-51,30,5
14780,2088,80,-264,-54,27,7
14785,2080,120,-256,-54,26,5
14790,2080,128,-312,-54,25,6
14795,2104,104,-312,-54,23,7
14800,2088,96,-288,-53,21,10
14805,2072,120,-288,-52,17,8
14810,2072,112,-312,-52,18,11
14815,2104,128,-304,-52,17,10
14820,2080,120,-288,-52,16,14
14825,2072,120,-320,-52,17,13
14830,2088,104,-288,-50,17,16
14835,2064,120,-304,-50,15,14
14840,2096,136,-304,-48,16,16
14845,2064,112,-288,-48,16,15
14850,2072,104,-304,-48,17,18
14855,2064,104,-312,-48,16,17
14860,2088,112,-336,-47,16,17
14865,2072,104,-272,-48,19,15
14870,2080,104,-264,-47,19,19
14875,2080,96,-320,-47,20,16
14880,2096,104,-280,-49,21,19
14885,2080,96,-272,-50,22,17
14890,2064,128,-280,-51,21,19
14895,2080,104,-304,-54,22,18
14900,2096,96,-328,-55,22,22
14905,2064,96,-304,-56,20,18
14910,2072,112,-296,-57,19,20
14915,2096,104,-280,-55,20,20
14920,2064,104,-320,-56,17,22
14925,2064,128,-296,-55,17,19
14930,2056,88,-312,-54,17,20
14935,2080,96,-272,-51,16,20
14940,2080,104,-288,-49,15,21
14945,2064,96,-296,-47,14,19
14950,2064,104,-288,-44,13,21
14955,2056,112,-304,-44,14,19
14960,2088,112,-312,-42,16,18
14965,2072,120,-312,-42,15,15
14970,2080,112,-304,-41,18,17
14975,2096,96,-312,-43,18,15
14980,2088,96,-312,-44,20,16
14985,2072,104,-320,-44,21,15
14990,2088,96,-336,-45,23,15
14995,2088,128,-328,-46,25,13
