timestamp,accel_x,accel_y,accel_z,gyro_x,gyro_y,gyro_z
0,-80,-1904,624,-10,60,0
5,-96,-1896,592,-9,60,0
10,-88,-1912,656,-8,60,-1
15,-88,-1904,624,-8,59,-1
20,-88,-1904,600,-5,59,0
25,-88,-1896,616,-4,58,1
30,-88,-1896,608,-4,58,1
35,-96,-1904,600,-3,59,1
40,-64,-1896,624,-3,60,3
45,-80,-1888,616,-3,58,1
50,-80,-1888,640,-4,59,3
55,-72,-1896,640,-3,59,2
60,-96,-1888,616,-1,59,1
65,-88,-1904,608,-3,58,2
70,-88,-1896,632,-2,58,2
75,-88,-1872,656,-2,58,1
80,-96,-1888,624,-3,58,1
85,-88,-1896,624,-1,56,-1
90,-80,-1888,616,-1,57,0
95,-88,-1864,608,-2,55,-4
100,-88,-1896,624,-3,56,-2
105,-96,-1896,632,-2,55,-2
110,-96,-1888,616,-3,55,-2
115,-80,-1912,624,-5,58,-3
120,-80,-1904,592,-5,59,-2
125,-88,-1880,608,-7,60,-3
130,-80,-1904,616,-8,61,-2
135,-80,-1896,608,-9,60,-5
140,-80,-1872,608,-10,61,-3
145,-80,-1896,656,-9,62,-5
150,-80,-1896,624,-9,61,-3
155,-88,-1904,624,-8,61,-4
160,-80,-1920,616,-8,60,-2
165,-96,-1896,616,-9,59,-5
170,-88,-1896,632,-9,59,-2
175,-80,-1904,584,-8,60,-4
180,-72,-1888,600,-8,58,0
185,-96,-1896,616,-9,59,-3
190,-80,-1896,600,-9,61,0
195,-88,-1904,576,-10,62,-3
200,-80,-1896,608,-11,61,1
205,-80,-1920,600,-11,61,-2
210,-88,-1880,600,-12,60,1
215,-80,-1904,608,-13,60,-1
220,-88,-1912,624,-12,59,3
225,-96,-1896,600,-11,58,0
230,-80,-1920,616,-10,58,3
235,-88,-1904,624,-8,58,0
240,-80,-1904,608,-8,58,2
245,-80,-1920,600,-7,57,-1
250,-88,-1912,640,-7,57,1
255,-88,-1912,616,-6,56,0
260,-96,-1888,624,-6,56,1
265,-72,-1888,648,-3,57,-1
270,-96,-1880,624,-1,60,2
275,-80,-1904,592,-1,58,1
280,-96,-1896,600,1,59,4
285,-88,-1904,624,3,59,2
290,-88,-1864,592,4,59,4
295,-112,-1848,648,5,59,2
300,-64,-1904,688,7,59,4
305,-96,-1888,624,8,56,2
310,-88,-1896,616,9,55,2
315,-88,-1888,616,10,54,1
320,-96,-1864,632,10,51,3
325,-80,-1880,608,8,53,1
330,-96,-1904,656,9,50,3
335,-96,-1888,624,8,50,2
340,-88,-1880,608,9,52,2
345,-96,-1880,632,7,52,0
350,-88,-1888,600,7,52,2
355,-88,-1904,624,6,52,-1
360,-96,-1888,640,6,53,1
365,-72,-1888,624,4,53,-2
370,-96,-1888,640,1,55,2
375,-80,-1904,632,-1,55,0
380,-88,-1896,632,-3,55,1
385,-80,-1888,624,-5,55,0
390,-80,-1880,592,-9,57,1
395,-88,-1896,608,-11,57,0
400,-88,-1896,616,-12,55,1
405,-64,-1896,624,-12,56,-1
410,-80,-1920,616,-12,58,2
415,-96,-1888,608,-13,59,-1
420,-96,-1896,632,-12,60,1
425,-96,-1880,600,-13,56,0
430,-80,-1896,608,-11,58,1
435,-88,-1896,624,-11,59,-1
440,-96,-1896,608,-7,58,-1
445,-96,-1920,584,-7,58,1
450,-80,-1904,624,-4,60,1
455,-80,-1880,600,-3,59,0
460,-88,-1888,600,-2,59,0
465,-72,-1904,600,-2,59,0
470,-88,-1880,600,-1,59,0
475,-88,-1880,616,-1,57,1
480,-96,-1896,648,-1,57,-1
485,-80,-1880,608,-2,59,1
490,-72,-1896,624,-4,58,0
495,-80,-1904,600,-3,57,1
500,-96,-1888,608,-2,57,1
505,-104,-1888,616,-3,58,1
510,-96,-1888,640,-5,57,-1
515,-96,-1880,600,-9,57,-1
520,-80,-1880,616,-8,57,-1
525,-88,-1880,616,-9,58,2
530,-80,-1864,664,-9,58,1
535,-88,-1880,608,-10,59,1
540,-88,-1912,624,-9,61,-3
545,-72,-1896,624,-8,61,-1
550,-96,-1888,632,-8,60,-1
555,-80,-1896,632,-8,61,0
560,-88,-1872,624,-7,59,-2
565,-88,-1912,624,-6,59,1
570,-64,-1920,608,-4,61,0
575,-88,-1896,632,-4,61,0
580,-88,-1888,656,-4,60,0
585,-80,-1856,632,-5,61,2
590,-72,-1880,616,-4,62,0
595,-88,-1888,624,-4,61,1
600,-80,-1896,624,-4,61,-1
605,-88,-1888,624,-3,61,1
610,-80,-1904,616,-5,62,0
615,-80,-1880,608,-6,61,2
620,-88,-1888,656,-6,62,-1
625,-96,-1880,608,-6,61,1
630,-96,-1896,632,-7,61,-2
635,-96,-1880,624,-7,60,1
640,-96,-1880,648,-9,60,-2
645,-96,-1896,624,-10,61,0
650,-88,-1896,624,-10,62,-2
655,-96,-1904,624,-11,61,2
660,-88,-1872,608,-12,61,-2
665,-96,-1880,616,-12,61,1
670,-88,-1872,632,-12,62,-3
675,-96,-1888,616,-11,60,1
680,-104,-1896,632,-12,61,-2
685,-80,-1912,600,-12,61,0
690,-88,-1888,624,-12,60,-1
695,-96,-1904,624,-12,61,2
700,-96,-1912,632,-12,61,-1
705,-88,-1896,624,-11,61,1
710,-96,-1888,608,-11,61,-2
715,-88,-1904,632,-10,62,1
720,-96,-1880,632,-11,61,-2
725,-88,-1896,640,-10,61,0
730,-80,-1880,600,-10,62,-1
735,-80,-1888,624,-11,62,2
740,-96,-1872,608,-12,61,-1
745,-88,-1856,632,-11,62,1
750,-96,-1896,632,-12,61,0
755,-88,-1872,608,-13,62,1
760,-88,-1872,600,-14,61,-2
765,-72,-1920,616,-16,60,0
770,-96,-1888,632,-14,61,-3
775,-96,-1896,648,-15,62,-1
780,-88,-1872,616,-14,59,-3
785,-80,-1912,640,-15,61,-2
790,-88,-1888,600,-18,60,-4
795,-88,-1888,600,-17,62,-2
800,-88,-1880,608,-16,64,-2
805,-88,-1904,624,-17,63,0
810,-80,-1912,616,-18,62,-1
815,-64,-1880,616,-18,62,-1
820,-88,-1920,624,-19,63,-2
825,-104,-1872,616,-19,61,-2
830,-80,-1896,640,-19,60,-1
835,-88,-1880,624,-19,58,-2
840,-80,-1904,640,-18,58,-3
845,-72,-1896,632,-17,57,-4
850,-96,-1896,624,-16,58,-4
855,-88,-1896,648,-15,58,-4
860,-88,-1904,632,-14,58,-5
865,-80,-1920,608,-13,59,-6
870,-88,-1912,648,-13,61,-5
875,-96,-1888,632,-13,62,-5
880,-96,-1888,624,-10,63,-3
885,-88,-1904,616,-6,63,-4
890,-72,-1888,592,-7,64,-2
895,-88,-1896,608,-5,64,-3
900,-96,-1904,616,-4,62,-1
905,-96,-1880,632,-3,60,-2
910,-88,-1880,592,-2,60,-2
915,-88,-1888,616,-3,59,-3
920,-96,-1872,616,-5,59,-1
925,-96,-1880,624,-3,59,-3
930,-96,-1872,640,-4,57,-3
935,-96,-1888,616,-5,57,-4
940,-88,-1872,624,-8,56,-2
945,-88,-1880,640,-9,57,-3
950,-88,-1880,640,-10,57,-2
955,-96,-1896,664,-13,57,-3
960,-80,-1896,608,-13,58,-3
965,-96,-1872,640,-14,58,-5
970,-72,-1880,624,-16,59,-3
975,-96,-1904,632,-19,60,-6
980,-88,-1888,616,-22,62,-4
985,-88,-1896,632,-23,62,-6
990,-88,-1888,616,-26,63,-5
995,-88,-1912,616,-29,63,-7
1000,-80,-1896,656,-28,61,-4
1005,-96,-1896,640,-31,62,-6
1010,-96,-1888,632,-33,63,-3
1015,-88,-1896,592,-30,63,-3
1020,-96,-1888,648,-31,61,-1
1025,-96,-1872,664,-30,63,-5
1030,-88,-1920,584,-29,62,-2
1035,-96,-1896,648,-28,63,-5
1040,-96,-1920,600,-27,63,-2
1045,-80,-1888,616,-27,62,-5
1050,-104,-1888,632,-26,62,-4
1055,-80,-1888,600,-26,62,-5
1060,-96,-1880,616,-27,64,-4
1065,-88,-1896,592,-27,64,-6
1070,-88,-1864,608,-27,63,-4
1075,-96,-1904,616,-29,65,-7
1080,-96,-1912,632,-31,64,-4
1085,-88,-1904,608,-32,64,-8
1090,-96,-1872,608,-32,63,-5
1095,-96,-1888,632,-35,63,-8
1100,-80,-1888,616,-35,63,-6
1105,-80,-1880,648,-36,63,-8
1110,-88,-1896,640,-37,64,-6
1115,-80,-1896,664,-40,63,-7
1120,-88,-1888,632,-41,62,-4
1125,-88,-1888,600,-42,63,-7
1130,-96,-1872,616,-43,65,-5
1135,-80,-1896,616,-44,65,-7
1140,-96,-1896,608,-45,65,-6
1145,-80,-1904,616,-46,65,-9
1150,-96,-1888,624,-49,64,-6
1155,-88,-1896,608,-48,65,-9
1160,-88,-1888,616,-50,65,-8
1165,-88,-1888,616,-50,66,-10
1170,-88,-1904,656,-51,65,-9
1175,-88,-1904,632,-52,66,-11
1180,-96,-1896,616,-54,66,-10
1185,-72,-1896,632,-52,66,-12
1190,-88,-1888,616,-53,66,-10
1195,-88,-1888,632,-53,65,-13
1200,-88,-1888,616,-51,65,-12
1205,-96,-1912,600,-51,67,-15
1210,-88,-1888,648,-51,67,-13
1215,-88,-1888,584,-50,68,-15
1220,-88,-1888,624,-52,68,-14
1225,-88,-1912,616,-50,67,-15
1230,-88,-1920,656,-51,67,-15
1235,-88,-1904,608,-50,66,-15
1240,-96,-1904,592,-49,64,-13
1245,-88,-1896,616,-48,64,-15
1250,-96,-1896,624,-48,63,-14
1255,-80,-1888,616,-46,63,-13
1260,-88,-1888,592,-44,62,-12
1265,-80,-1896,608,-43,61,-12
1270,-72,-1904,592,-42,61,-11
1275,-80,-1872,688,-43,60,-10
1280,-48,-1912,512,-44,60,-10
1285,-48,-1888,712,-44,60,-9
1290,-24,-1832,568,-45,60,-8
1295,-72,-1968,608,-45,60,-8
1300,-64,-1872,624,-45,61,-7
1305,-64,-1912,776,-46,63,-6
1310,-88,-1888,592,-48,63,-6
1315,-64,-1896,608,-49,63,-4
1320,-72,-1880,608,-51,62,-5
1325,-96,-1864,616,-52,63,-3
1330,-80,-1880,608,-53,62,-5
1335,-80,-1904,616,-56,62,-3
1340,-96,-1896,600,-57,63,-4
1345,-96,-1880,616,-60,63,-3
1350,-88,-1896,632,-60,62,-3
1355,-64,-1880,632,-61,62,-2
1360,-64,-1888,600,-63,63,-2
1365,-96,-1888,608,-63,62,0
1370,-96,-1888,600,-64,62,-1
1375,-80,-1896,616,-63,62,1
1380,-64,-1896,616,-64,61,0
1385,-80,-1888,600,-64,61,2
1390,-88,-1920,608,-65,62,0
1395,-80,-1888,608,-66,63,3
1400,-72,-1904,608,-66,64,2
1405,-80,-1912,584,-67,63,3
1410,-64,-1896,592,-68,64,2
1415,-96,-1880,600,-67,64,3
1420,-88,-1912,592,-68,64,2
1425,-72,-1904,640,-68,66,4
1430,-88,-1912,616,-68,66,3
1435,-80,-1896,592,-69,65,5
1440,-96,-1904,584,-69,65,2
1445,-96,-1880,592,-69,65,5
1450,-72,-1920,592,-67,66,3
1455,-80,-1920,592,-68,68,4
1460,-64,-1920,592,-66,68,3
1465,-80,-1912,592,-63,68,5
1470,-80,-1912,600,-62,68,3
1475,-80,-1904,592,-59,68,5
1480,-80,-1912,576,-57,70,2
1485,-64,-1920,600,-57,69,3
1490,-88,-1896,592,-56,70,2
1495,-88,-1904,608,-55,72,5
1500,-88,-1920,600,-53,71,2
1505,-96,-1920,584,-53,71,4
1510,-80,-1912,576,-50,72,1
1515,-88,-1896,568,-48,73,4
1520,-80,-1912,552,-47,74,2
1525,-72,-1928,576,-46,74,5
1530,-80,-1920,568,-45,74,5
1535,-72,-1912,576,-46,74,7
1540,-88,-1896,560,-46,73,4
1545,-80,-1896,576,-48,72,6
1550,-88,-1896,584,-49,71,4
1555,-88,-1888,576,-50,72,5
1560,-80,-1904,584,-51,72,3
1565,-80,-1920,584,-51,72,5
1570,-96,-1888,576,-49,70,2
1575,-96,-1888,592,-50,70,4
1580,-96,-1920,592,-48,69,1
1585,-88,-1912,568,-50,68,3
1590,-80,-1912,584,-48,69,2
1595,-88,-1912,576,-46,68,3
1600,-96,-1896,608,-47,67,1
1605,-96,-1920,576,-45,67,5
1610,-88,-1912,584,-44,68,2
1615,-80,-1920,560,-45,67,3
1620,-80,-1896,576,-42,67,2
1625,-88,-1920,560,-42,68,4
1630,-96,-1896,568,-41,67,2
1635,-96,-1912,592,-40,68,4
1640,-80,-1912,560,-40,67,4
1645,-80,-1920,576,-38,66,5
1650,-96,-1912,592,-40,66,4
1655,-88,-1888,560,-37,66,7
1660,-112,-1912,592,-37,63,4
1665,-96,-1912,584,-34,64,5
1670,-104,-1920,576,-34,64,5
1675,-96,-1912,576,-31,64,6
1680,-88,-1920,560,-30,63,5
1685,-88,-1888,544,-31,62,6
1690,-96,-1904,560,-29,62,6
1695,-96,-1896,552,-30,62,7
1700,-88,-1912,536,-29,62,5
1705,-96,-1928,528,-28,63,5
1710,-88,-1912,552,-25,64,2
1715,-88,-1920,568,-21,62,2
1720,-96,-1928,544,-17,62,1
1725,-88,-1936,560,-13,61,0
1730,-104,-1920,560,-6,59,-1
1735,-96,-1944,568,-1,58,-1
1740,-96,-1920,544,4,58,-2
1745,-96,-1912,552,9,57,-1
1750,-96,-1928,552,13,57,0
1755,-96,-1920,568,16,56,0
1760,-96,-1920,544,18,56,-1
1765,-96,-1912,568,19,55,0
1770,-88,-1928,544,20,54,1
1775,-88,-1936,552,20,53,0
1780,-88,-1912,568,21,53,1
1785,-72,-1904,560,20,54,1
1790,-88,-1904,568,21,55,0
1795,-88,-1912,568,22,56,-1
1800,-88,-1912,560,23,56,0
1805,-80,-1912,576,23,60,-2
1810,-88,-1920,576,21,56,-1
1815,-104,-1904,584,20,57,-3
1820,-88,-1912,584,20,57,-3
1825,-104,-1920,592,20,56,-4
1830,-136,-1912,584,18,55,-2
1835,-96,-1896,576,17,55,-3
1840,-88,-1912,600,18,57,-2
1845,-96,-1904,576,17,56,-3
1850,-96,-1912,600,15,57,-1
1855,-80,-1936,584,17,57,-1
1860,-96,-1904,576,18,56,1
1865,-88,-1904,576,21,56,-1
1870,-96,-1912,592,25,59,0
1875,-80,-1920,576,27,57,-3
1880,-96,-1920,576,31,57,-1
1885,-88,-1904,560,31,55,-4
1890,-88,-1912,576,32,56,-5
1895,-64,-1904,560,31,58,-7
1900,-88,-1920,600,31,57,-7
1905,-96,-1928,600,29,57,-8
1910,-88,-1880,592,26,59,-5
1915,-96,-1888,584,25,60,-7
1920,-96,-1896,584,23,62,-5
1925,-96,-1880,616,22,61,-7
1930,-96,-1920,600,21,61,-4
1935,-96,-1896,576,20,60,-6
1940,-96,-1912,584,19,59,-2
1945,-96,-1904,600,18,60,-5
1950,-88,-1896,576,19,59,-1
1955,-96,-1896,568,17,59,-3
1960,-88,-1920,600,15,58,-1
1965,-88,-1888,600,16,57,-3
1970,-88,-1888,592,16,58,0
1975,-80,-1904,600,17,58,-1
1980,-88,-1912,584,17,56,2
1985,-88,-1904,608,18,55,-4
1990,-88,-1912,592,17,53,0
1995,-88,-1912,600,19,54,-3
2000,-88,-1904,592,18,54,0
2005,-80,-1912,584,18,54,-2
2010,-96,-1896,592,20,54,0
2015,-96,-1880,592,17,56,-2
2020,-88,-1912,608,17,55,-1
2025,-88,-1912,584,16,55,-3
2030,-88,-1912,600,16,54,0
2035,-88,-1904,592,15,53,-3
2040,-88,-1896,576,13,53,-1
2045,-88,-1912,576,12,53,-4
2050,-96,-1912,592,10,54,-2
2055,-88,-1872,600,8,54,-4
2060,-80,-1904,616,7,55,-3
2065,-88,-1872,584,6,55,-3
2070,-96,-1896,616,5,55,-2
2075,-96,-1896,608,4,55,-2
2080,-88,-1896,584,3,57,-1
2085,-96,-1872,584,2,58,-3
2090,-80,-1904,624,2,58,-1
2095,-96,-1904,616,1,58,-4
2100,-88,-1904,584,0,57,-2
2105,-96,-1896,584,1,57,-4
2110,-96,-1872,624,1,56,-3
2115,-88,-1904,576,1,56,-5
2120,-96,-1912,592,1,57,-6
2125,-88,-1920,608,-2,55,-6
2130,-72,-1888,608,1,56,-5
2135,-88,-1896,624,2,56,-6
2140,-88,-1920,624,2,56,-3
2145,-72,-1920,616,3,59,-4
2150,-88,-1904,600,3,58,-2
2155,-96,-1912,600,3,59,-1
2160,-96,-1888,600,1,58,0
2165,-88,-1872,600,0,56,-2
2170,-72,-1904,576,-4,53,-1
2175,-56,-1872,576,-8,54,-2
2180,-72,-1856,600,-12,60,-4
2185,-88,-1856,584,-22,65,-9
2190,-80,-1848,600,-39,64,-9
2195,-72,-1864,640,-50,70,-9
2200,-80,-1856,632,-49,77,-14
2205,-80,-1864,624,-46,81,-21
2210,-80,-1856,592,-50,81,-28
2215,-80,-1888,600,-53,80,-29
2220,-88,-1888,608,-58,80,-32
2225,-88,-1888,648,-67,84,-30
2230,-88,-1864,584,-69,87,-35
2235,-72,-1864,600,-75,86,-37
2240,-80,-1856,632,-83,82,-37
2245,-80,-1864,592,-91,79,-38
2250,-80,-1824,600,-100,74,-42
2255,-96,-1832,600,-114,71,-44
2260,-96,-1824,584,-128,69,-49
2265,-96,-1856,616,-142,69,-53
2270,-104,-1832,584,-155,65,-60
2275,-128,-1824,608,-166,59,-69
2280,-104,-1848,584,-179,53,-79
2285,-128,-1864,608,-190,48,-87
2290,-128,-1856,600,-199,45,-97
2295,-112,-1896,600,-208,43,-105
2300,-96,-1896,576,-217,44,-114
2305,-96,-1920,568,-226,48,-120
2310,-80,-1936,560,-230,52,-128
2315,-72,-1944,536,-235,59,-133
2320,-48,-1944,520,-240,67,-140
2325,-32,-1976,560,-241,75,-142
2330,-32,-1992,544,-242,80,-145
2335,-8,-2000,544,-240,85,-144
2340,-16,-2000,544,-233,87,-145
2345,-24,-2008,528,-222,85,-142
2350,-8,-2024,544,-206,82,-139
2355,-8,-2008,560,-191,77,-133
2360,-40,-1984,536,-173,72,-129
2365,-32,-2000,536,-156,66,-119
2370,-64,-2000,512,-138,59,-114
2375,-40,-1984,552,-116,54,-103
2380,-88,-1968,536,-99,49,-97
2385,-96,-1968,552,-81,44,-85
2390,-80,-1944,544,-64,43,-78
2395,-88,-1968,544,-49,41,-66
2400,-96,-1944,560,-36,41,-59
2405,-96,-1944,560,-23,39,-47
2410,-96,-1944,552,-10,39,-41
2415,-88,-1920,552,2,36,-32
2420,-112,-1920,568,14,34,-27
2425,-96,-1936,576,26,33,-20
2430,-104,-1896,584,33,31,-16
2435,-120,-1912,552,42,32,-8
2440,-96,-1912,552,46,33,-5
2445,-96,-1920,552,49,36,2
2450,-96,-1888,552,49,38,5
2455,-88,-1912,568,48,39,12
2460,-80,-1920,528,46,45,13
2465,-80,-1920,568,42,48,18
2470,-64,-1920,560,42,52,19
2475,-64,-1904,568,38,54,21
2480,-56,-1920,576,36,58,18
2485,-56,-1912,568,34,61,19
2490,-32,-1936,568,30,63,15
2495,-48,-1928,576,26,66,14
2500,-48,-1928,584,23,68,9
2505,-48,-1936,568,23,70,10
2510,-24,-1944,576,22,72,7
2515,-24,-1952,600,24,74,9
2520,-32,-1944,576,25,75,6
2525,-40,-1928,560,28,74,10
2530,-48,-1952,584,31,72,9
2535,-40,-1944,600,34,69,14
2540,-72,-1952,600,39,67,14
2545,-64,-1928,576,44,65,17
2550,-80,-1896,600,50,63,17
2555,-64,-1960,568,55,61,19
2560,-80,-1944,560,58,60,20
2565,-56,-1936,584,61,59,24
2570,-72,-1944,576,65,60,22
2575,-64,-1936,576,63,61,24
2580,-40,-1952,560,60,62,22
2585,-56,-1912,576,59,64,22
2590,-32,-1912,568,55,64,20
2595,-48,-1928,560,50,65,17
2600,-32,-1928,520,43,65,14
2605,-40,-1936,488,35,65,14
2610,-16,-1920,512,26,63,12
2615,-32,-1928,504,16,61,11
2620,-16,-1928,520,6,57,8
2625,0,-1920,480,0,55,7
2630,0,-1936,480,-7,53,5
2635,-16,-1936,480,-13,50,5
2640,-16,-1896,488,-17,48,3
2645,0,-1920,464,-19,45,1
2650,0,-1904,480,-21,46,-3
2655,-8,-1936,480,-20,45,-4
2660,-8,-1896,488,-19,44,-7
2665,8,-1904,464,-14,45,-8
2670,-8,-1912,448,-10,45,-11
2675,-16,-1936,488,-3,44,-10
2680,-24,-1920,528,3,44,-11
2685,-32,-1944,520,11,42,-11
2690,-24,-1968,536,17,42,-9
2695,-40,-1936,552,24,44,-8
2700,-56,-1936,536,32,45,-5
2705,-48,-1944,544,42,46,-4
2710,-48,-1968,552,50,50,1
2715,-56,-1968,568,58,54,2
2720,-64,-1968,584,66,57,6
2725,-64,-1960,592,73,61,10
2730,-64,-1952,568,80,63,14
2735,-56,-1960,576,85,66,16
2740,-72,-1928,616,86,69,22
2745,-40,-1920,576,86,74,22
2750,-64,-1928,584,87,75,27
2755,-72,-1896,576,84,76,26
2760,-56,-1928,576,80,77,29
2765,-80,-1928,584,71,76,28
2770,-72,-1904,560,66,77,28
2775,-88,-1872,592,59,75,26
2780,-80,-1888,568,52,73,25
2785,-64,-1912,592,46,73,22
2790,-64,-1912,592,41,69,22
2795,-72,-1904,576,37,66,19
2800,-72,-1896,600,34,66,21
2805,-72,-1928,576,31,64,18
2810,-80,-1912,608,29,62,19
2815,-80,-1920,600,28,60,18
2820,-72,-1920,584,28,58,19
2825,-64,-1912,592,28,59,17
2830,-48,-1920,584,28,59,20
2835,-64,-1928,592,28,60,18
2840,-80,-1920,584,29,60,20
2845,-64,-1912,584,30,63,17
2850,-72,-1896,560,31,63,19
2855,-32,-1928,576,33,63,17
2860,-72,-1928,616,34,65,18
2865,-64,-1896,616,35,65,16
2870,-64,-1912,616,37,67,18
2875,-80,-1904,624,37,66,15
2880,-88,-1904,624,39,66,16
2885,-80,-1912,624,39,68,13
2890,-88,-1904,624,41,67,15
2895,-80,-1912,584,42,66,13
2900,-96,-1888,616,43,66,13
2905,-80,-1904,576,44,66,11
2910,-88,-1880,592,46,66,13
2915,-72,-1896,600,45,66,10
2920,-80,-1896,608,46,66,12
2925,-56,-1856,592,46,67,9
2930,-88,-1872,592,43,67,11
2935,-96,-1872,584,41,67,8
2940,-64,-1888,576,38,67,9
2945,-88,-1864,600,33,67,8
2950,-88,-1872,592,31,70,10
2955,-80,-1888,600,30,68,7
2960,-88,-1896,616,26,67,10
2965,-64,-1872,600,25,67,7
2970,-88,-1904,608,24,66,9
2975,-72,-1896,640,24,67,9
2980,-80,-1904,640,23,65,10
2985,-80,-1896,632,22,65,10
2990,-64,-1904,640,21,63,13
2995,-80,-1880,648,19,63,12
3000,-88,-1864,640,17,63,14
3005,-64,-1904,648,16,64,11
3010,-88,-1888,624,16,63,15
3015,-80,-1888,648,15,62,14
3020,-72,-1896,632,14,63,16
3025,-88,-1880,616,12,62,14
3030,-96,-1904,624,11,63,15
3035,-80,-1888,608,10,61,13
3040,-80,-1912,616,8,62,14
3045,-80,-1904,608,7,61,12
3050,-72,-1904,616,4,61,13
3055,-88,-1896,640,5,61,9
3060,-80,-1888,608,4,62,11
3065,-72,-1904,608,2,64,8
3070,-64,-1912,592,0,62,9
3075,-80,-1888,616,0,65,8
3080,-80,-1904,584,-2,64,7
3085,-80,-1872,608,-3,62,6
3090,-80,-1888,608,-5,63,5
3095,-96,-1880,616,-6,61,4
3100,-80,-1896,592,-8,61,4
3105,-80,-1904,616,-8,60,2
3110,-88,-1896,584,-7,59,3
3115,-56,-1920,592,-7,59,1
3120,-72,-1880,608,-7,59,1
3125,-80,-1896,568,-9,58,0
3130,-80,-1888,600,-9,60,1
3135,-72,-1888,608,-8,60,2
3140,-80,-1880,600,-7,60,0
3145,-80,-1896,584,-4,60,0
3150,-48,-1912,584,-1,61,0
3155,-80,-1912,560,2,61,0
3160,-72,-1912,600,4,61,0
3165,-80,-1896,616,6,60,0
3170,-80,-1896,600,7,59,0
3175,-96,-1872,576,7,60,0
3180,-72,-1880,584,6,59,-2
3185,-72,-1928,608,5,58,0
3190,-88,-1896,592,2,57,-2
3195,-64,-1912,632,-1,58,-1
3200,-72,-1888,592,-5,59,-2
3205,-64,-1896,592,-9,57,-1
3210,-72,-1888,600,-10,57,-3
3215,-96,-1904,576,-16,56,-3
3220,-72,-1888,624,-16,56,-4
3225,-88,-1888,592,-17,56,-3
3230,-88,-1888,616,-20,56,-6
3235,-64,-1928,624,-20,56,-4
3240,-88,-1920,616,-23,57,-5
3245,-72,-1912,624,-23,57,-4
3250,-72,-1912,600,-25,56,-6
3255,-80,-1912,624,-25,58,-3
3260,-80,-1888,592,-26,60,-4
3265,-80,-1912,632,-26,60,-4
3270,-72,-1896,616,-26,61,-6
3275,-64,-1920,608,-27,62,-3
3280,-64,-1904,608,-25,62,-4
3285,-88,-1888,616,-25,64,-1
3290,-72,-1896,592,-25,62,-2
3295,-72,-1896,616,-23,63,-1
3300,-72,-1880,632,-22,63,-2
3305,-88,-1880,608,-21,61,1
3310,-56,-1904,600,-20,62,-1
3315,-72,-1904,600,-18,60,0
3320,-80,-1904,584,-17,59,-2
3325,-72,-1896,616,-19,60,0
3330,-64,-1896,624,-18,61,-4
3335,-88,-1896,608,-18,60,-2
3340,-88,-1920,584,-20,61,-3
3345,-80,-1904,640,-19,63,-1
3350,-72,-1928,600,-18,64,-3
3355,-64,-1912,576,-17,66,0
3360,-64,-1896,592,-16,67,-1
3365,-40,-1936,616,-16,67,2
3370,-56,-1904,592,-17,68,0
3375,-64,-1896,608,-15,66,3
3380,-64,-1896,592,-14,66,1
3385,-72,-1920,584,-13,65,3
3390,-80,-1912,600,-14,66,0
3395,-80,-1912,584,-13,64,2
3400,-80,-1904,592,-14,65,0
3405,-72,-1896,592,-13,65,1
3410,-80,-1896,600,-13,66,0
3415,-88,-1872,592,-14,67,2
3420,-80,-1872,592,-15,67,-1
3425,-72,-1872,608,-17,66,2
3430,-80,-1904,616,-16,67,0
3435,-64,-1920,616,-18,67,2
3440,-88,-1896,616,-20,66,-1
3445,-88,-1896,584,-23,68,1
3450,-56,-1920,608,-25,68,-2
3455,-88,-1904,608,-25,69,1
3460,-80,-1896,600,-26,70,-3
3465,-64,-1896,608,-27,68,-2
3470,-72,-1920,608,-29,69,-3
3475,-56,-1888,616,-30,69,-2
3480,-64,-1904,576,-30,68,-3
3485,-72,-1928,608,-30,68,-1
3490,-88,-1896,568,-30,68,-4
3495,-88,-1888,616,-30,66,-3
3500,-64,-1912,576,-26,66,-5
3505,-80,-1896,552,-25,65,-3
3510,-80,-1888,600,-24,67,-4
3515,-64,-1904,568,-24,66,-3
3520,-64,-1896,592,-24,66,-4
3525,-80,-1912,600,-23,66,-3
3530,-80,-1904,584,-23,67,-6
3535,-56,-1904,592,-22,66,-5
3540,-80,-1888,608,-21,67,-5
3545,-88,-1896,584,-22,66,-3
3550,-80,-1896,608,-20,65,-4
3555,-72,-1904,592,-21,66,-3
3560,-88,-1912,608,-22,66,-4
3565,-88,-1920,592,-21,66,-4
3570,-88,-1920,592,-20,66,-4
3575,-80,-1904,592,-21,66,-4
3580,-80,-1904,608,-20,66,-4
3585,-72,-1912,608,-18,68,-2
3590,-88,-1896,600,-19,69,-3
3595,-80,-1936,592,-18,68,-2
3600,-64,-1928,600,-18,68,-4
3605,-88,-1912,600,-16,70,-3
3610,-80,-1920,600,-15,72,-5
3615,-80,-1920,608,-16,71,-5
3620,-72,-1912,616,-17,71,-6
3625,-96,-1912,608,-18,71,-6
3630,-80,-1920,560,-17,71,-6
3635,-80,-1912,584,-18,73,-6
3640,-80,-1904,584,-17,72,-7
3645,-88,-1888,600,-17,73,-8
3650,-80,-1920,600,-17,73,-8
3655,-88,-1904,584,-16,74,-9
3660,-88,-1904,592,-16,75,-7
3665,-64,-1912,576,-16,76,-8
3670,-72,-1896,592,-17,75,-6
3675,-64,-1888,608,-19,77,-6
3680,-64,-1888,600,-21,76,-4
3685,-64,-1888,600,-21,76,-5
3690,-88,-1888,592,-23,76,-5
3695,-80,-1896,600,-24,78,-6
3700,-80,-1880,592,-23,77,-5
3705,-56,-1896,616,-22,76,-6
3710,-72,-1896,592,-23,77,-5
3715,-80,-1888,592,-23,75,-7
3720,-80,-1880,608,-21,76,-6
3725,-88,-1896,600,-22,78,-8
3730,-88,-1872,592,-22,77,-8
3735,-88,-1880,624,-23,77,-9
3740,-88,-1872,600,-23,76,-9
3745,-64,-1896,616,-23,78,-11
3750,-64,-1888,608,-24,81,-10
3755,-56,-1912,616,-26,83,-13
3760,-48,-1904,624,-27,82,-11
3765,-56,-1880,632,-26,84,-15
3770,-64,-1920,640,-26,87,-14
3775,-64,-1928,592,-25,87,-15
3780,-88,-1904,624,-25,84,-14
3785,-80,-1880,624,-24,82,-14
3790,-88,-1904,592,-24,81,-11
3795,-96,-1888,640,-21,79,-14
3800,-96,-1896,632,-21,74,-9
3805,-96,-1888,640,-19,73,-11
3810,-104,-1888,600,-15,71,-7
3815,-96,-1896,640,-15,69,-7
3820,-88,-1912,624,-15,67,-3
3825,-80,-1904,640,-16,67,-4
3830,-72,-1880,624,-14,65,-2
3835,-80,-1912,616,-12,62,-4
3840,-96,-1896,608,-13,62,-3
3845,-96,-1888,624,-14,60,-6
3850,-80,-1912,616,-13,59,-4
3855,-96,-1888,592,-13,58,-8
3860,-80,-1904,600,-14,56,-8
3865,-80,-1904,592,-15,53,-10
3870,-96,-1888,592,-14,51,-7
3875,-96,-1880,592,-13,50,-9
3880,-72,-1888,608,-14,48,-7
3885,-48,-1896,584,-13,48,-8
3890,-72,-1888,584,-13,47,-5
3895,-56,-1920,592,-14,48,-6
3900,-64,-1904,592,-15,51,-2
3905,-56,-1896,584,-16,52,-4
3910,-88,-1904,592,-16,52,-2
3915,-64,-1896,576,-16,51,-5
3920,-96,-1880,584,-17,50,-4
3925,-80,-1896,576,-15,49,-6
3930,-64,-1888,576,-14,49,-3
3935,-88,-1888,592,-13,47,-7
3940,-80,-1896,584,-13,47,-5
3945,-80,-1912,576,-12,47,-8
3950,-72,-1912,568,-10,49,-4
3955,-64,-1920,584,-11,51,-7
3960,-72,-1904,576,-11,52,-5
3965,-88,-1920,576,-11,51,-6
3970,-64,-1904,576,-11,53,-3
3975,-72,-1912,584,-11,54,-7
3980,-48,-1928,584,-13,54,-2
3985,-72,-1896,560,-13,53,-3
3990,-56,-1912,584,-11,53,-3
3995,-48,-1904,576,-11,53,-5
4000,-64,-1904,568,-10,54,-4
4005,-80,-1896,592,-11,54,-5
4010,-80,-1896,576,-10,53,-4
4015,-40,-1912,568,-9,52,-6
4020,-48,-1936,568,-8,54,-5
4025,-64,-1904,608,-7,56,-6
4030,-56,-1904,592,-6,55,-4
4035,-56,-1896,568,-3,59,-5
4040,-64,-1904,592,-2,60,-5
4045,-56,-1928,592,-2,60,-6
4050,-72,-1920,576,3,60,-5
4055,-64,-1904,584,5,58,-6
4060,-72,-1920,592,8,57,-5
4065,-96,-1912,568,9,56,-8
4070,-72,-1912,592,11,55,-5
4075,-80,-1904,608,10,55,-5
4080,-80,-1912,584,11,55,-4
4085,-72,-1896,608,9,55,-5
4090,-64,-1904,592,8,57,-3
4095,-72,-1896,592,7,59,-2
4100,-56,-1888,568,4,60,-1
4105,-40,-1912,584,4,62,-1
4110,-72,-1896,600,2,61,-1
4115,-72,-1896,584,1,62,-1
4120,-64,-1904,576,1,63,-2
4125,-88,-1912,584,1,61,-2
4130,-64,-1912,624,2,59,-3
4135,-80,-1904,584,3,60,-4
4140,-88,-1920,600,4,58,-2
4145,-80,-1912,592,7,57,-2
4150,-88,-1888,608,9,55,-1
4155,-88,-1896,608,10,54,0
4160,-72,-1920,576,11,55,1
4165,-80,-1904,592,12,56,2
4170,-88,-1912,584,14,57,3
4175,-88,-1912,576,14,58,5
4180,-72,-1912,584,15,60,2
4185,-80,-1888,592,15,57,4
4190,-88,-1888,616,15,57,3
4195,-80,-1896,616,16,57,5
4200,-80,-1904,600,17,56,2
4205,-88,-1920,616,17,56,3
4210,-72,-1912,592,17,58,2
4215,-80,-1904,608,16,57,4
4220,-80,-1896,632,16,58,2
4225,-88,-1864,600,16,58,2
4230,-88,-1880,616,15,57,1
4235,-88,-1880,608,15,58,3
4240,-80,-1880,584,14,57,1
4245,-80,-1896,592,13,59,5
4250,-96,-1864,592,12,59,2
4255,-88,-1872,592,12,56,5
4260,-88,-1888,616,10,58,3
4265,-80,-1888,616,10,56,4
4270,-88,-1904,600,10,55,2
4275,-40,-1896,640,10,56,5
4280,-88,-1880,824,10,55,3
4285,-40,-1880,656,10,56,4
4290,-128,-1928,672,10,56,1
4295,8,-1880,664,8,54,4
4300,-80,-1792,600,8,55,1
4305,-88,-1896,624,7,55,4
4310,-96,-1888,664,5,56,3
4315,-80,-1888,632,4,55,5
4320,-64,-1888,624,2,54,3
4325,-88,-1888,600,3,54,7
4330,-80,-1912,600,2,53,3
4335,-72,-1904,616,2,54,4
4340,-48,-1888,616,2,54,2
4345,-72,-1912,624,2,55,5
4350,-88,-1888,616,1,55,4
4355,-72,-1904,616,0,56,6
4360,-72,-1888,640,0,56,3
4365,-72,-1888,624,-2,58,4
4370,-72,-1888,624,-2,57,1
4375,-80,-1896,624,-1,56,5
4380,-88,-1888,616,-2,56,2
4385,-88,-1896,616,-3,57,3
4390,-80,-1896,616,-3,56,2
4395,-72,-1904,592,-4,57,5
4400,-80,-1904,592,-5,58,4
4405,-64,-1888,600,-6,57,6
4410,-96,-1904,608,-6,58,4
4415,-72,-1904,640,-7,58,7
4420,-88,-1896,624,-7,57,4
4425,-64,-1880,600,-8,60,6
4430,-80,-1872,608,-8,59,3
4435,-64,-1896,608,-8,60,4
4440,-240,-1856,504,-8,62,2
4445,-72,-1888,600,-7,61,3
4450,-72,-1920,600,-7,61,2
4455,-72,-1880,584,-8,60,4
4460,-88,-1888,616,-8,59,1
4465,-80,-1896,624,-7,59,2
4470,-80,-1896,600,-7,60,1
4475,-72,-1896,632,-6,60,2
4480,-80,-1888,616,-6,61,1
4485,-80,-1896,616,-7,59,2
4490,-80,-1896,608,-7,61,-1
4495,-72,-1896,608,-7,60,0
4500,-80,-1872,624,-10,62,-1
4505,-80,-1920,608,-9,62,1
4510,-80,-1888,600,-10,64,1
4515,-88,-1888,624,-11,63,0
4520,-80,-1896,624,-11,65,1
4525,-88,-1904,600,-10,62,2
4530,-88,-1864,600,-9,62,1
4535,-72,-1888,632,-9,60,1
4540,-96,-1920,640,-8,61,0
4545,-96,-1904,616,-7,60,1
4550,-88,-1896,632,-5,58,-1
4555,-80,-1920,632,-6,58,0
4560,-64,-1896,632,-6,58,0
4565,-72,-1920,624,-6,61,1
4570,-80,-1904,624,-6,60,0
4575,-80,-1920,632,-5,61,0
4580,-88,-1896,624,-6,62,1
4585,-64,-1904,632,-6,63,-1
4590,-56,-1904,624,-5,62,0
4595,-80,-1896,616,-5,63,-2
4600,-80,-1896,608,-5,64,-1
4605,-88,-1896,624,-3,62,-1
4610,-88,-1896,592,-3,60,-1
4615,-72,-1896,592,0,59,0
4620,-80,-1880,608,0,58,2
4625,-88,-1904,624,0,57,2
4630,-72,-1872,600,1,57,4
4635,-80,-1880,592,3,55,4
4640,-64,-1920,584,4,57,5
4645,-88,-1888,616,5,57,5
4650,-64,-1896,632,4,57,6
4655,-72,-1880,600,4,57,5
4660,-80,-1872,608,2,57,5
4665,-88,-1888,640,3,56,4
4670,-88,-1880,616,3,56,3
4675,-72,-1888,600,3,56,2
4680,-80,-1880,608,1,56,3
4685,-88,-1864,600,-1,57,1
4690,-80,-1896,600,-2,57,1
4695,-80,-1904,600,-5,57,0
4700,-80,-1928,656,-7,58,0
4705,-96,-1888,640,-9,59,0
4710,-88,-1888,624,-10,60,1
4715,-96,-1904,624,-10,59,-1
4720,-88,-1912,600,-8,59,2
4725,-96,-1888,632,-9,60,0
4730,-64,-1904,616,-11,61,3
4735,-80,-1904,624,-10,61,-1
4740,-80,-1888,600,-9,61,1
4745,-80,-1888,624,-10,59,0
4750,-96,-1880,624,-9,58,2
4755,-88,-1896,632,-9,59,0
4760,-88,-1904,624,-7,59,1
4765,-80,-1888,600,-5,58,-1
4770,-80,-1912,616,-4,59,1
4775,-80,-1880,600,-3,59,1
4780,-64,-1912,624,-3,59,2
4785,-88,-1880,624,-4,59,0
4790,-80,-1888,600,-4,59,1
4795,-96,-1880,600,-5,58,0
4800,-96,-1888,640,-6,59,0
4805,-64,-1904,648,-7,59,-2
4810,-72,-1880,624,-8,60,0
4815,-96,-1904,608,-9,59,-3
4820,-96,-1896,608,-9,60,0
4825,-96,-1888,632,-9,59,-3
4830,-80,-1912,640,-9,59,0
4835,-80,-1896,648,-8,59,-3
4840,-72,-1920,608,-9,60,-1
4845,-88,-1880,608,-11,59,-4
4850,-80,-1896,600,-11,60,-1
4855,-96,-1872,632,-13,60,-5
4860,-96,-1872,600,-15,62,-3
4865,-88,-1880,592,-17,62,-6
4870,-80,-1912,624,-17,65,-5
4875,-48,-1912,576,-19,64,-7
4880,-80,-1904,616,-20,66,-5
4885,-56,-1888,632,-22,68,-8
4890,-56,-1880,592,-25,68,-7
4895,-56,-1880,576,-25,69,-9
4900,-88,-1864,592,-28,70,-6
4905,-64,-1864,592,-32,73,-8
4910,-48,-1896,600,-37,73,-7
4915,-72,-1872,576,-46,75,-10
4920,-72,-1880,576,-56,75,-10
4925,-64,-1856,544,-69,74,-14
4930,-56,-1856,576,-85,72,-14
4935,-88,-1840,568,-107,75,-17
4940,-80,-1832,584,-125,77,-19
4945,-88,-1832,552,-140,81,-23
4950,-80,-1848,552,-158,85,-25
4955,-88,-1832,520,-170,89,-28
4960,-96,-1824,520,-181,93,-31
4965,-80,-1864,512,-185,97,-39
4970,-96,-1880,512,-188,100,-41
4975,-96,-1864,544,-188,102,-47
4980,-88,-1904,512,-185,104,-47
4985,-88,-1920,552,-175,103,-50
4990,-96,-1896,560,-167,101,-48
4995,-80,-1944,560,-158,99,-51
5000,-96,-1912,568,-152,96,-50
5005,-88,-1920,552,-150,92,-50
5010,-96,-1952,568,-146,90,-46
5015,-96,-1928,560,-144,90,-46
5020,-112,-1912,568,-140,91,-43
5025,-88,-1928,584,-137,93,-41
5030,-56,-1944,584,-135,94,-39
5035,-64,-1952,536,-135,96,-41
5040,-48,-1920,576,-134,97,-37
5045,-64,-1936,584,-133,97,-36
5050,-48,-1920,584,-133,97,-35
5055,-40,-1912,600,-134,97,-33
5060,-64,-1920,568,-137,97,-31
5065,-56,-1912,600,-140,95,-27
5070,-32,-1904,600,-142,91,-25
5075,-48,-1912,576,-145,88,-24
5080,-48,-1904,592,-150,83,-19
5085,-64,-1872,616,-154,81,-18
5090,-72,-1888,584,-157,77,-17
5095,-80,-1880,584,-159,75,-14
5100,-88,-1872,600,-162,74,-12
5105,-80,-1896,576,-165,72,-11
5110,-96,-1920,600,-165,69,-10
5115,-72,-1904,600,-165,69,-8
5120,-80,-1888,600,-163,68,-9
5125,-88,-1880,584,-163,68,-7
5130,-80,-1880,584,-162,69,-6
5135,-88,-1912,576,-165,70,-6
5140,-88,-1904,584,-165,68,-7
5145,-96,-1904,560,-167,66,-6
5150,-88,-1896,560,-172,68,-6
5155,-64,-1888,560,-175,68,-6
5160,-104,-1904,544,-180,67,-6
5165,-104,-1888,568,-183,66,-4
5170,-96,-1888,520,-191,64,-4
5175,-96,-1928,552,-195,64,-3
5180,-96,-1888,528,-197,63,-1
5185,-96,-1928,552,-200,64,0
5190,-96,-1920,536,-201,65,-1
5195,-88,-1880,576,-202,68,1
5200,-88,-1904,568,-206,69,0
5205,-88,-1904,536,-211,70,5
5210,-80,-1904,560,-217,70,2
5215,-80,-1888,568,-223,70,2
5220,-88,-1904,552,-227,67,-4
5225,-48,-1896,544,-234,60,-7
5230,-80,-1880,568,-244,57,-12
5235,-72,-1880,576,-252,54,-14
5240,-72,-1904,560,-260,51,-20
5245,-88,-1896,568,-265,48,-22
5250,-64,-1904,576,-267,45,-27
5255,-96,-1904,544,-270,41,-30
5260,-80,-1896,576,-273,35,-38
5265,-88,-1888,544,-276,30,-37
5270,-88,-1888,576,-281,25,-41
5275,-88,-1920,592,-282,20,-42
5280,-88,-1904,568,-285,18,-47
5285,-88,-1896,560,-288,16,-47
5290,-64,-1904,568,-292,14,-50
5295,-72,-1904,568,-298,13,-49
5300,-88,-1888,552,-306,12,-54
5305,-80,-1904,520,-312,10,-54
5310,-80,-1904,528,-317,10,-58
5315,-64,-1936,528,-322,9,-57
5320,-88,-1960,528,-325,8,-62
5325,-40,-1920,536,-328,7,-62
5330,-64,-1944,528,-329,5,-65
5335,-40,-1960,552,-329,4,-64
5340,-48,-1936,520,-331,7,-67
5345,-32,-1928,520,-336,8,-64
5350,-32,-1928,504,-341,9,-67
5355,-40,-1880,472,-347,12,-66
5360,-8,-1920,456,-355,16,-69
5365,-24,-1928,456,-363,20,-67
5370,16,-1936,440,-376,21,-72
5375,-24,-1936,448,-384,22,-70
5380,-40,-1952,408,-389,23,-72
5385,-40,-1952,456,-395,25,-72
5390,-32,-1984,448,-397,25,-76
5395,-32,-1992,440,-396,24,-76
5400,-24,-2016,416,-392,24,-78
5405,-48,-1992,432,-390,27,-77
5410,-48,-1992,400,-390,31,-79
5415,-56,-2016,400,-387,31,-74
5420,-32,-2000,368,-382,35,-77
5425,-56,-1984,408,-379,33,-73
5430,-64,-1992,376,-377,36,-75
5435,-48,-1992,360,-375,36,-74
5440,-56,-1968,376,-376,38,-75
5445,-32,-1992,368,-377,39,-73
5450,-48,-1992,352,-378,39,-76
5455,-40,-1960,320,-381,42,-75
5460,-48,-1976,344,-386,41,-82
5465,-40,-2000,336,-390,44,-81
5470,-48,-1968,296,-394,44,-84
5475,-64,-1992,320,-395,44,-83
5480,-48,-1976,312,-398,47,-85
5485,-56,-2000,312,-399,45,-82
5490,-32,-1984,296,-399,47,-82
5495,-56,-1992,288,-397,47,-78
5500,-56,-2000,280,-397,48,-76
5505,-48,-1976,272,-397,48,-72
5510,-64,-2008,256,-398,49,-68
5515,-40,-1976,256,-398,48,-64
5520,-32,-1992,264,-397,49,-62
5525,-32,-2008,272,-399,49,-55
5530,-40,-2008,200,-399,46,-52
5535,-32,-1976,184,-401,45,-48
5540,-24,-1992,200,-405,45,-46
5545,-72,-1968,176,-410,44,-43
5550,-24,-1960,184,-416,46,-41
5555,-48,-1976,200,-427,48,-38
5560,-16,-1976,168,-436,50,-37
5565,-16,-1984,160,-447,55,-35
5570,-24,-1976,152,-455,57,-34
5575,-24,-1992,168,-464,60,-35
5580,-24,-1992,184,-473,64,-33
5585,-40,-1984,152,-479,67,-32
5590,8,-1992,160,-484,71,-30
5595,0,-1960,120,-492,75,-31
5600,0,-2008,136,-497,78,-31
5605,-16,-1992,152,-501,83,-29
5610,-24,-1984,152,-507,85,-31
5615,8,-1992,136,-515,87,-30
5620,16,-1984,176,-520,90,-32
5625,8,-1992,128,-526,90,-34
5630,-24,-1992,104,-531,90,-37
5635,8,-2008,112,-540,92,-39
5640,8,-2008,144,-550,93,-40
5645,8,-1992,136,-559,93,-42
5650,-8,-2008,144,-567,89,-41
5655,16,-2016,120,-578,88,-44
5660,24,-2032,120,-588,88,-44
5665,16,-2016,120,-596,87,-45
5670,0,-2008,96,-602,84,-45
5675,16,-2032,128,-608,84,-46
5680,24,-2032,112,-612,80,-49
5685,-8,-2000,80,-616,78,-51
5690,24,-2032,72,-619,76,-54
5695,16,-2040,88,-622,75,-59
5700,32,-2056,96,-625,74,-62
5705,24,-2048,96,-626,73,-67
5710,24,-2040,64,-629,77,-70
5715,8,-2040,56,-630,77,-75
5720,24,-2040,56,-634,81,-75
5725,16,-2024,48,-642,84,-77
5730,24,-2000,56,-649,85,-77
5735,32,-2000,24,-654,86,-83
5740,24,-2016,56,-659,90,-83
5745,32,-2008,24,-666,92,-88
5750,16,-2016,8,-675,94,-88
5755,8,-2048,32,-687,95,-90
5760,0,-2032,-32,-692,92,-88
5765,16,-2016,-32,-699,93,-88
5770,0,-2000,32,-705,88,-86
5775,8,-2000,16,-709,87,-86
5780,0,-2032,-16,-712,83,-84
5785,-32,-2008,-32,-715,81,-84
5790,-16,-2024,8,-716,76,-79
5795,-32,-2008,-24,-717,70,-79
5800,-24,-2024,-40,-719,65,-73
5805,-24,-2032,-56,-720,61,-75
5810,-16,-2040,-32,-723,53,-74
5815,-8,-2048,-56,-725,49,-76
5820,-8,-2040,-56,-725,42,-77
5825,-24,-2016,-72,-729,39,-83
5830,-32,-2016,-104,-733,37,-84
5835,-8,-2008,-112,-740,38,-86
5840,0,-2008,-136,-747,35,-84
5845,24,-2008,-128,-759,36,-84
5850,0,-2008,-104,-768,35,-85
5855,-16,-2032,-128,-775,38,-89
5860,0,-2056,-128,-780,37,-89
5865,8,-2016,-176,-788,40,-91
5870,8,-2016,-152,-799,41,-88
5875,24,-2024,-200,-810,42,-91
5880,24,-2032,-176,-823,43,-91
5885,32,-2000,-168,-831,43,-96
5890,32,-2024,-208,-838,44,-95
5895,40,-2000,-208,-848,48,-99
5900,40,-2024,-264,-855,48,-100
5905,32,-2032,-264,-858,47,-104
5910,40,-2024,-248,-864,43,-106
5915,-16,-2024,-240,-873,44,-110
5920,40,-2016,-296,-880,37,-109
5925,0,-2008,-264,-891,39,-112
5930,0,-2024,-256,-904,39,-107
5935,32,-2048,-288,-920,40,-110
5940,32,-2008,-296,-929,38,-114
5945,32,-2008,-280,-944,34,-120
5950,48,-2024,-328,-954,33,-123
5955,48,-2024,-352,-964,31,-133
5960,32,-2016,-328,-972,27,-137
5965,32,-2024,-344,-978,22,-148
5970,48,-2032,-320,-981,15,-155
5975,48,-2040,-368,-982,6,-167
5980,56,-2024,-360,-979,2,-175
5985,48,-2016,-368,-979,-7,-186
5990,24,-2024,-384,-978,-15,-197
5995,16,-2048,-384,-981,-22,-207
6000,40,-2040,-392,-984,-28,-209
6005,8,-2016,-392,-992,-32,-216
6010,32,-2000,-464,-1007,-37,-220
6015,0,-1984,-464,-1027,-38,-224
6020,0,-1984,-520,-1052,-39,-225
6025,24,-1976,-544,-1083,-43,-229
6030,8,-1944,-584,-1118,-45,-231
6035,8,-1952,-528,-1157,-50,-237
6040,0,-1936,-536,-1196,-54,-240
6045,8,-1952,-576,-1225,-62,-247
6050,-80,-1936,-592,-1250,-65,-246
6055,32,-1952,-616,-1274,-66,-236
6060,72,-1984,-624,-1300,-64,-235
6065,72,-1984,-600,-1324,-71,-239
6070,88,-2008,-632,-1337,-75,-242
6075,80,-2008,-624,-1347,-78,-247
6080,88,-2032,-616,-1359,-82,-247
6085,80,-1992,-640,-1368,-92,-249
6090,80,-1968,-664,-1381,-100,-245
6095,80,-1968,-704,-1395,-107,-242
6100,88,-1968,-680,-1409,-115,-242
6105,64,-1976,-728,-1422,-125,-242
6110,72,-1936,-760,-1436,-136,-240
6115,40,-1912,-808,-1456,-145,-241
6120,56,-1880,-824,-1478,-148,-239
6125,40,-1880,-824,-1505,-150,-238
6130,64,-1848,-816,-1525,-149,-233
6135,32,-1872,-832,-1547,-143,-230
6140,16,-1840,-856,-1563,-143,-228
6145,16,-1840,-816,-1582,-141,-225
6150,-80,-1880,-936,-1607,-142,-221
6155,40,-1848,-768,-1642,-143,-219
6160,64,-1848,-936,-1654,-148,-219
6165,56,-1816,-960,-1667,-150,-218
6170,80,-1832,-968,-1687,-151,-218
6175,40,-1824,-1016,-1710,-147,-210
6180,56,-1816,-1000,-1738,-140,-195
6185,48,-1712,-1024,-1778,-137,-180
6190,72,-1768,-1080,-1806,-136,-168
6195,56,-1744,-1120,-1829,-134,-158
6200,80,-1720,-1136,-1858,-133,-144
6205,72,-1704,-1184,-1881,-131,-127
6210,72,-1704,-1184,-1898,-128,-111
6215,64,-1672,-1216,-1917,-127,-94
6220,88,-1648,-1216,-1936,-128,-83
6225,56,-1640,-1280,-1956,-136,-68
6230,64,-1648,-1280,-1983,-144,-59
6235,48,-1616,-1320,-2008,-157,-50
6240,48,-1632,-1392,-2028,-168,-46
6245,48,-1600,-1456,-2045,-182,-43
6250,48,-1616,-1424,-2058,-193,-41
6255,8,-1600,-1496,-2063,-205,-39
6260,40,-1584,-1472,-2063,-215,-45
6265,40,-1600,-1488,-2053,-226,-47
6270,64,-1576,-1544,-2040,-233,-54
6275,64,-1560,-1592,-2026,-235,-52
6280,80,-1560,-1656,-2004,-230,-54
6285,112,-1560,-1648,-1986,-223,-50
6290,152,-1576,-1712,-1970,-214,-51
6295,152,-1568,-1728,-1956,-205,-47
6300,192,-1560,-1728,-1936,-198,-45
6305,224,-1560,-1760,-1910,-188,-37
6310,280,-1504,-1784,-1881,-176,-34
6315,320,-1496,-1760,-1851,-162,-27
6320,304,-1504,-1816,-1815,-144,-25
6325,304,-1472,-1800,-1769,-124,-19
6330,312,-1456,-1800,-1734,-108,-21
6335,296,-1416,-1824,-1703,-92,-18
6340,344,-1424,-1816,-1674,-75,-20
6345,312,-1392,-1832,-1648,-59,-22
6350,312,-1368,-1848,-1626,-44,-33
6355,280,-1344,-1856,-1609,-32,-36
6360,272,-1328,-1824,-1589,-22,-50
6365,224,-1312,-1824,-1571,-11,-60
6370,224,-1272,-1824,-1550,-1,-76
6375,200,-1280,-1832,-1528,10,-88
6380,168,-1248,-1816,-1510,19,-105
6385,176,-1208,-1816,-1494,27,-116
6390,168,-1232,-1808,-1477,32,-136
6395,192,-1192,-1824,-1461,35,-149
6400,152,-1192,-1808,-1448,31,-169
6405,152,-1176,-1784,-1438,26,-180
6410,168,-1176,-1808,-1426,20,-193
6415,184,-1136,-1824,-1408,14,-199
6420,216,-1088,-1792,-1382,11,-208
6425,216,-1104,-1768,-1355,8,-211
6430,248,-1096,-1752,-1327,3,-216
6435,224,-1096,-1760,-1294,2,-215
6440,240,-1104,-1744,-1259,-2,-217
6445,240,-1096,-1720,-1222,-4,-213
6450,264,-1072,-1736,-1187,-8,-214
6455,232,-1056,-1728,-1157,-16,-213
6460,216,-1032,-1696,-1131,-19,-212
6465,192,-976,-1688,-1109,-23,-209
6470,208,-976,-1664,-1084,-25,-210
6475,208,-928,-1672,-1064,-26,-205
6480,192,-920,-1664,-1047,-25,-206
6485,168,-920,-1632,-1030,-23,-198
6490,184,-920,-1640,-1009,-24,-194
6495,168,-912,-1576,-983,-19,-184
6500,176,-896,-1576,-953,-13,-176
6505,184,-904,-1632,-922,-7,-167
6510,168,-896,-1640,-898,1,-164
6515,152,-904,-1632,-868,6,-160
6520,160,-936,-1576,-838,3,-161
6525,152,-936,-1592,-803,1,-157
6530,104,-936,-1568,-765,-5,-155
6535,80,-952,-1592,-725,-13,-153
6540,40,-928,-1568,-687,-20,-151
6545,8,-896,-1576,-654,-27,-145
6550,56,-888,-1640,-621,-32,-141
6555,40,-872,-1640,-590,-33,-135
6560,40,-848,-1624,-560,-28,-130
6565,48,-832,-1640,-527,-25,-124
6570,56,-824,-1680,-498,-22,-121
6575,88,-832,-1656,-470,-19,-113
6580,112,-808,-1656,-443,-17,-109
6585,104,-784,-1696,-419,-12,-104
6590,120,-800,-1704,-398,-15,-99
6595,120,-800,-1704,-377,-13,-94
6600,96,-808,-1696,-358,-10,-92
6605,88,-808,-1736,-341,-9,-89
6610,40,-808,-1728,-325,-12,-89
6615,8,-784,-1728,-309,-21,-93
6620,0,-816,-1744,-296,-31,-99
6625,-16,-808,-1736,-284,-40,-99
6630,-80,-816,-1792,-272,-51,-102
6635,8,-824,-1784,-263,-67,-105
6640,8,-832,-1848,-245,-72,-106
6645,40,-840,-1848,-230,-76,-105
6650,32,-816,-1864,-218,-80,-102
6655,96,-824,-1864,-210,-89,-99
6660,120,-824,-1880,-198,-93,-97
6665,128,-816,-1880,-192,-102,-98
6670,112,-808,-1920,-189,-110,-100
6675,120,-800,-1928,-186,-116,-104
6680,112,-816,-1944,-188,-120,-104
6685,88,-816,-1960,-191,-125,-102
6690,112,-816,-1984,-197,-131,-99
6695,112,-824,-1984,-203,-135,-101
6700,96,-840,-2008,-216,-145,-100
6705,120,-832,-2008,-230,-150,-102
6710,88,-832,-2056,-245,-152,-107
6715,72,-848,-2008,-259,-153,-114
6720,64,-856,-2016,-270,-154,-118
6725,72,-848,-2032,-285,-155,-125
6730,96,-864,-2080,-298,-159,-130
6735,48,-848,-2048,-315,-166,-138
6740,64,-832,-2056,-337,-172,-146
6745,72,-856,-2072,-358,-179,-157
6750,56,-856,-2048,-379,-189,-170
6755,72,-840,-2056,-402,-194,-178
6760,96,-856,-2072,-415,-198,-185
6765,72,-856,-2064,-431,-202,-195
6770,104,-888,-2056,-446,-211,-199
6775,104,-896,-2048,-459,-220,-207
6780,88,-912,-2040,-474,-238,-213
6785,80,-904,-2016,-489,-251,-222
6790,56,-880,-2040,-501,-262,-227
6795,72,-864,-2032,-508,-273,-236
6800,96,-896,-2064,-522,-283,-240
6805,88,-904,-2032,-533,-288,-245
6810,104,-920,-2048,-548,-292,-246
6815,96,-904,-2008,-567,-298,-249
6820,104,-896,-1984,-587,-307,-248
6825,112,-928,-1984,-597,-316,-251
6830,96,-944,-1976,-605,-325,-249
6835,80,-936,-1992,-616,-336,-252
6840,64,-968,-1960,-631,-345,-248
6845,56,-952,-1960,-644,-355,-249
6850,80,-968,-1968,-652,-361,-248
6855,112,-968,-1976,-658,-367,-251
6860,104,-1000,-1952,-668,-372,-251
6865,88,-968,-1904,-684,-378,-260
6870,40,-960,-1896,-704,-386,-264
6875,48,-984,-1864,-727,-397,-272
6880,32,-936,-1872,-748,-412,-277
6885,48,-952,-1840,-771,-433,-287
6890,40,-936,-1832,-797,-448,-295
6895,32,-920,-1832,-826,-465,-306
6900,64,-912,-1848,-848,-476,-308
6905,88,-856,-1848,-881,-480,-307
6910,72,-824,-1856,-928,-479,-296
6915,80,-808,-1848,-976,-472,-286
6920,136,-848,-1864,-1028,-468,-270
6925,144,-888,-1832,-1071,-465,-260
6930,192,-904,-1816,-1103,-469,-247
6935,184,-896,-1824,-1123,-476,-234
6940,184,-904,-1816,-1138,-486,-211
6945,184,-912,-1784,-1140,-505,-189
6950,152,-888,-1816,-1139,-541,-170
6955,136,-848,-1720,-1136,-582,-165
6960,128,-824,-1744,-1128,-623,-160
6965,88,-816,-1704,-1131,-661,-164
6970,40,-808,-1608,-1138,-696,-168
6975,-88,-752,-1560,-1133,-742,-163
6980,-120,-688,-1576,-1143,-785,-152
6985,-136,-568,-1528,-1159,-830,-159
6990,-144,-496,-1520,-1179,-892,-145
6995,-280,-472,-1440,-1211,-961,-149
7000,-144,-520,-1384,-1253,-1042,-159
7005,-240,-536,-1288,-1273,-1093,-187
7010,-296,-488,-1264,-1285,-1151,-205
7015,-360,-456,-1224,-1297,-1225,-221
7020,-336,-408,-1088,-1318,-1304,-222
7025,-376,-424,-1088,-1328,-1375,-241
7030,-408,-496,-1024,-1320,-1441,-257
7035,-352,-456,-992,-1299,-1503,-280
7040,-312,-480,-984,-1288,-1535,-279
7045,-280,-448,-968,-1289,-1553,-277
7050,-128,-336,-944,-1305,-1570,-273
7055,-72,-328,-856,-1330,-1591,-279
7060,80,-288,-800,-1350,-1615,-287
7065,128,-296,-768,-1350,-1656,-317
7070,184,-280,-712,-1327,-1711,-358
7075,216,-280,-672,-1289,-1759,-400
7080,224,-264,-704,-1244,-1806,-446
7085,168,-240,-672,-1181,-1854,-483
7090,144,-232,-640,-1114,-1897,-505
7095,112,-184,-600,-1040,-1941,-528
7100,168,-144,-592,-960,-1975,-547
7105,96,-88,-592,-889,-1991,-557
7110,112,-32,-552,-834,-1996,-556
7115,96,8,-592,-791,-1989,-547
7120,96,32,-560,-765,-1967,-530
7125,40,88,-568,-741,-1936,-506
7130,104,104,-568,-716,-1903,-452
7135,96,88,-568,-708,-1871,-409
7140,80,160,-768,-703,-1836,-358
7145,144,200,-840,-715,-1784,-295
7150,176,136,-800,-736,-1727,-230
7155,64,104,-744,-761,-1662,-165
7160,256,184,-760,-781,-1599,-104
7165,272,208,-944,-794,-1529,-50
7170,192,80,-904,-797,-1446,-10
7175,312,72,-1056,-810,-1344,31
7180,336,-32,-1128,-864,-1199,70
7185,328,-112,-1200,-919,-1065,106
7190,440,-224,-1312,-958,-922,143
7195,544,-296,-1320,-976,-782,165
7200,616,-424,-1320,-981,-654,188
7205,704,-504,-1304,-982,-535,194
7210,704,-608,-1336,-981,-443,166
7215,664,-720,-1376,-975,-373,123
7220,640,-840,-1360,-955,-313,73
7225,504,-928,-1384,-914,-276,19
7230,400,-1000,-1472,-834,-272,-24
7235,96,-1088,-1408,-743,-288,-76
7240,-264,-1152,-1440,-639,-339,-129
7245,-680,-1136,-1456,-534,-423,-178
7250,-1176,-968,-1440,-454,-530,-227
7255,-1728,-936,-1232,-388,-672,-269
7260,-2440,-584,-1208,-299,-902,-300
7265,-3088,-48,-1264,-211,-1177,-324
7270,-3864,664,-1416,-150,-1476,-362
7275,-4904,1632,-1888,-115,-1889,-365
7280,-5464,2376,-2184,-170,-2227,-284
7285,-6320,3832,-2472,-315,-2579,-224
7290,-6688,5744,-2384,-523,-2930,-38
7295,-6032,6920,-2328,-882,-3232,193
7300,-5600,6552,-3376,-1257,-3330,208
7305,-6008,5408,-4304,-1416,-3074,185
7310,-6840,2264,-4336,-1377,-2674,13
7315,-7256,-368,-3784,-1115,-2865,-287
7320,-7384,-288,-3848,-694,-3389,-463
7325,-6576,840,-3848,-463,-3712,-340
7330,-5928,1768,-3600,-495,-3956,-211
7335,-4656,2280,-3416,-660,-4137,-79
7340,-3760,3024,-3040,-919,-4287,8
7345,-3376,3168,-2544,-1228,-4427,66
7350,-3312,3304,-2360,-1447,-4500,38
7355,-3552,3648,-2504,-1519,-4480,67
7360,-3872,4008,-2776,-1462,-4337,122
7365,-4208,3568,-3216,-1322,-3906,176
7370,-4416,3056,-3544,-1069,-3357,101
7375,-4464,2456,-3712,-882,-2796,-66
7380,-4088,2176,-3568,-787,-2358,-257
7385,-3400,1984,-3400,-753,-2021,-382
7390,-2528,2008,-3272,-748,-1697,-507
7395,-2304,2080,-3064,-746,-1336,-662
7400,-2048,2152,-2760,-737,-939,-814
7405,-1824,2144,-2704,-786,-556,-954
7410,-1496,2032,-2440,-878,-136,-1051
7415,-1320,1720,-1952,-994,305,-1157
7420,-1104,1440,-1640,-990,634,-1200
7425,-976,1200,-1336,-891,1005,-1170
7430,-1064,992,-816,-755,1318,-1114
7435,-968,912,-456,-599,1538,-1004
7440,-904,976,-232,-454,1707,-857
7445,-816,1048,48,-333,1820,-656
7450,-576,1168,184,-227,1883,-449
7455,-472,1248,288,-150,1926,-261
7460,-616,1336,392,-87,1946,-88
7465,-824,1448,464,-2,1918,51
7470,-680,1496,480,73,1849,169
7475,-928,1584,352,211,1815,273
7480,-880,1560,104,391,1816,368
7485,-1104,1528,-64,542,1835,451
7490,-1152,1376,-128,662,1837,535
7495,-1208,1240,-224,736,1797,621
7500,-1184,984,-312,748,1739,688
7505,-1184,704,-328,722,1680,724
7510,-1216,488,-304,679,1602,720
7515,-1256,408,-224,623,1528,705
7520,-1312,272,-168,579,1453,684
7525,-1384,248,-160,543,1381,666
7530,-1432,208,-152,498,1311,648
7535,-1488,224,-200,439,1241,643
7540,-1520,264,-200,367,1172,644
7545,-1504,328,-200,287,1105,661
7550,-1544,408,-200,208,1033,683
7555,-1584,504,-168,128,953,711
7560,-1560,648,-112,46,836,723
7565,-1536,744,-120,5,727,737
7570,-1560,872,-136,-11,611,730
7575,-1632,936,-168,-7,489,703
7580,-1712,992,-136,11,360,661
7585,-1808,1064,-192,43,230,616
7590,-1888,1120,-232,82,106,556
7595,-1968,1176,-296,118,-7,489
7600,-2016,1200,-352,161,-107,418
7605,-2064,1200,-424,208,-202,335
7610,-2096,1200,-448,258,-258,273
7615,-2080,1200,-440,286,-306,228
7620,-2056,1272,-424,299,-352,188
7625,-2032,1304,-440,290,-398,151
7630,-1952,1320,-456,261,-433,105
7635,-1888,1264,-544,228,-463,55
7640,-1840,1200,-632,196,-480,2
7645,-1776,1136,-728,173,-480,-48
7650,-1752,1080,-848,155,-474,-105
7655,-1728,1032,-920,134,-460,-146
7660,-1696,968,-968,118,-456,-187
7665,-1728,952,-1008,104,-458,-229
7670,-1704,912,-1048,100,-460,-270
7675,-1712,928,-1088,102,-461,-316
7680,-1760,936,-1128,116,-456,-364
7685,-1752,968,-1168,142,-446,-404
7690,-1800,1008,-1264,172,-420,-432
7695,-1808,1032,-1272,190,-388,-453
7700,-1808,1040,-1328,192,-340,-464
7705,-1832,1080,-1368,174,-296,-465
7710,-1816,1104,-1416,145,-250,-458
7715,-1832,1072,-1432,102,-200,-454
7720,-1800,1064,-1472,50,-149,-450
7725,-1784,1048,-1512,-8,-99,-445
7730,-1800,1080,-1520,-66,-47,-430
7735,-1816,1064,-1560,-115,3,-409
7740,-1744,1008,-1576,-158,49,-383
7745,-1784,984,-1496,-190,92,-355
7750,-1752,936,-1504,-203,135,-329
7755,-1736,880,-1512,-201,167,-307
7760,-1736,792,-1536,-194,203,-290
7765,-1664,760,-1512,-187,235,-283
7770,-1712,696,-1504,-176,266,-275
7775,-1728,696,-1504,-160,293,-265
7780,-1728,688,-1480,-148,315,-248
7785,-1696,640,-1488,-138,334,-234
7790,-1720,640,-1480,-130,352,-219
7795,-1744,608,-1480,-119,368,-200
7800,-1792,616,-1472,-115,375,-178
7805,-1744,600,-1424,-114,376,-151
7810,-1752,568,-1424,-112,373,-120
7815,-1688,544,-1440,-105,371,-91
7820,-1648,528,-1440,-102,370,-61
7825,-1672,504,-1424,-95,368,-32
7830,-1616,488,-1448,-87,362,5
7835,-1592,480,-1400,-81,355,36
7840,-1552,448,-1456,-76,348,73
7845,-1552,448,-1440,-73,344,96
7850,-1568,456,-1432,-74,340,119
7855,-1512,416,-1392,-75,333,139
7860,-1456,392,-1448,-74,329,151
7865,-1440,392,-1424,-74,328,153
7870,-1432,376,-1416,-70,332,158
7875,-1400,368,-1424,-58,329,156
7880,-1432,352,-1432,-54,333,159
7885,-1432,384,-1448,-44,334,160
7890,-1400,392,-1440,-37,337,165
7895,-1376,352,-1448,-35,335,155
7900,-1400,336,-1456,-36,336,149
7905,-1424,328,-1432,-32,334,139
7910,-1424,360,-1432,-28,331,135
7915,-1424,368,-1472,-28,329,129
7920,-1448,368,-1480,-32,328,126
7925,-1448,384,-1472,-42,324,123
7930,-1480,392,-1488,-58,317,121
7935,-1480,368,-1464,-78,307,113
7940,-1464,344,-1480,-103,300,109
7945,-1480,360,-1472,-122,292,99
7950,-1464,312,-1488,-140,285,93
7955,-1496,328,-1472,-157,276,82
7960,-1520,312,-1472,-170,265,74
7965,-1520,288,-1472,-181,251,57
7970,-1528,280,-1472,-185,236,46
7975,-1544,256,-1480,-184,221,26
7980,-1560,296,-1480,-179,207,13
7985,-1536,272,-1472,-166,189,2
7990,-1576,296,-1472,-153,176,-1
7995,-1560,312,-1480,-136,162,-8
8000,-1560,304,-1472,-115,148,-7
8005,-1560,336,-1504,-93,135,-10
8010,-1528,360,-1488,-66,121,-7
8015,-1544,352,-1496,-42,107,-8
8020,-1552,400,-1504,-19,94,-4
8025,-1560,416,-1528,1,78,-2
8030,-1560,416,-1504,19,59,3
8035,-1560,432,-1512,35,46,5
8040,-1544,464,-1472,44,33,10
8045,-1552,480,-1464,48,20,12
8050,-1552,488,-1464,53,9,14
8055,-1544,496,-1424,54,-2,13
8060,-1552,520,-1440,53,-11,14
8065,-1568,536,-1432,51,-18,10
8070,-1568,536,-1416,48,-22,10
8075,-1568,560,-1392,47,-23,9
8080,-1544,568,-1384,42,-22,12
8085,-1552,584,-1408,39,-18,13
8090,-1568,600,-1384,36,-16,17
8095,-1568,624,-1360,33,-14,20
8100,-1560,616,-1392,31,-9,27
8105,-1568,632,-1360,29,-4,31
8110,-1592,624,-1400,24,3,38
8115,-1560,632,-1376,22,9,43
8120,-1568,640,-1400,17,14,50
8125,-1560,624,-1392,12,21,58
8130,-1560,656,-1384,10,29,66
8135,-1568,656,-1384,8,34,71
8140,-1552,632,-1384,9,41,79
8145,-1560,656,-1392,10,47,83
8150,-1560,656,-1408,12,53,89
8155,-1552,656,-1376,13,56,91
8160,-1552,672,-1368,13,62,93
8165,-1568,680,-1384,14,70,92
8170,-1552,664,-1376,16,76,96
8175,-1544,664,-1360,17,82,97
8180,-1544,656,-1360,15,88,99
8185,-1544,672,-1360,15,94,99
8190,-1536,648,-1376,14,97,101
8195,-1512,640,-1352,11,101,100
8200,-1520,648,-1368,10,104,99
8205,-1544,656,-1344,6,109,98
8210,-1512,640,-1360,2,111,96
8215,-1504,648,-1360,-1,112,95
8220,-1496,640,-1368,-6,114,92
8225,-1512,648,-1360,-8,114,89
8230,-1512,648,-1368,-12,115,85
8235,-1480,624,-1360,-16,116,81
8240,-1520,640,-1368,-19,117,77
8245,-1504,632,-1336,-23,116,72
8250,-1512,624,-1368,-26,117,65
8255,-1504,624,-1360,-28,118,59
8260,-1504,640,-1376,-29,117,51
8265,-1488,608,-1408,-32,118,46
8270,-1528,624,-1368,-34,119,41
8275,-1520,624,-1392,-35,121,39
8280,-1480,616,-1400,-37,119,35
8285,-1512,608,-1408,-41,115,33
8290,-1512,600,-1400,-42,112,28
8295,-1512,624,-1448,-43,107,24
8300,-1512,608,-1432,-43,104,18
8305,-1504,608,-1416,-46,100,16
8310,-1496,608,-1408,-48,99,11
8315,-1504,624,-1456,-50,98,9
8320,-1488,616,-1424,-53,96,4
8325,-1472,600,-1440,-57,95,2
8330,-1512,624,-1416,-58,92,-2
8335,-1504,616,-1400,-61,91,-5
8340,-1512,608,-1424,-62,88,-9
8345,-1496,592,-1440,-65,87,-11
8350,-1504,600,-1456,-67,86,-15
8355,-1512,608,-1448,-68,85,-15
8360,-1496,584,-1440,-67,84,-19
8365,-1512,592,-1480,-67,81,-18
8370,-1504,568,-1408,-67,81,-21
8375,-1520,584,-1424,-65,77,-19
8380,-1504,592,-1408,-65,75,-20
8385,-1520,592,-1432,-64,71,-16
8390,-1528,584,-1408,-65,69,-16
8395,-1488,576,-1400,-64,68,-14
8400,-1520,584,-1424,-65,65,-14
8405,-1496,592,-1400,-66,62,-11
8410,-1520,600,-1424,-66,63,-12
8415,-1496,584,-1416,-68,61,-10
8420,-1512,608,-1408,-70,61,-12
8425,-1496,592,-1400,-70,60,-10
8430,-1512,600,-1400,-71,60,-13
8435,-1496,584,-1360,-71,59,-11
8440,-1504,568,-1408,-71,61,-12
8445,-1512,584,-1408,-70,62,-9
8450,-1496,552,-1400,-70,60,-10
8455,-1520,560,-1416,-68,61,-6
8460,-1512,576,-1408,-64,60,-6
8465,-1496,576,-1400,-63,59,-1
8470,-1496,584,-1384,-61,58,1
8475,-1512,568,-1408,-59,59,5
8480,-1504,560,-1400,-57,59,7
8485,-1512,584,-1408,-54,57,10
8490,-1512,560,-1408,-53,59,11
8495,-1520,576,-1400,-50,58,15
8500,-1536,576,-1408,-47,57,11
8505,-1528,560,-1424,-45,59,13
8510,-1520,600,-1424,-43,60,10
8515,-1536,584,-1408,-39,61,12
8520,-1528,600,-1416,-35,62,10
8525,-1520,576,-1432,-30,62,12
8530,-1520,576,-1424,-26,62,10
8535,-1528,568,-1432,-24,62,13
8540,-1512,592,-1432,-21,61,10
8545,-1528,584,-1448,-16,62,11
8550,-1512,584,-1440,-13,62,8
8555,-1512,608,-1424,-10,62,11
8560,-1528,584,-1424,-9,61,8
8565,-1544,616,-1424,-9,61,12
8570,-1512,616,-1384,-9,59,9
8575,-1528,584,-1400,-9,56,10
8580,-1512,616,-1416,-9,56,7
8585,-1512,624,-1400,-9,54,7
8590,-1512,632,-1400,-9,55,2
8595,-1488,608,-1408,-8,54,1
8600,-1504,616,-1376,-10,53,-2
8605,-1400,648,-1448,-11,54,-3
8610,-1512,632,-1416,-11,53,-6
8615,-1504,584,-1392,-11,55,-6
8620,-1504,624,-1432,-12,55,-8
8625,-1504,592,-1408,-13,55,-5
8630,-1488,608,-1400,-14,55,-7
8635,-1512,600,-1376,-17,56,-5
8640,-1512,616,-1400,-18,56,-3
8645,-1488,608,-1376,-19,59,0
8650,-1504,608,-1392,-22,61,-2
8655,-1520,592,-1424,-24,61,0
8660,-1512,600,-1376,-25,63,-1
8665,-1520,624,-1376,-23,64,2
8670,-1496,624,-1392,-24,68,1
8675,-1496,648,-1424,-24,69,2
8680,-1496,640,-1408,-24,70,3
8685,-1472,608,-1392,-27,72,4
8690,-1488,608,-1392,-28,72,3
8695,-1480,616,-1400,-30,73,5
8700,-1520,640,-1392,-32,75,6
8705,-1496,616,-1384,-32,74,9
8710,-1488,624,-1368,-34,75,9
8715,-1496,608,-1384,-36,74,10
8720,-1504,624,-1400,-36,75,11
8725,-1512,616,-1376,-37,74,11
8730,-1512,600,-1384,-38,75,11
8735,-1512,632,-1400,-39,78,12
8740,-1504,632,-1392,-41,80,12
8745,-1520,600,-1392,-40,80,12
8750,-1512,600,-1416,-40,81,11
8755,-1528,608,-1416,-38,80,10
8760,-1496,600,-1408,-38,78,8
8765,-1520,608,-1440,-39,79,8
8770,-1496,576,-1400,-40,79,7
8775,-1504,632,-1408,-39,77,6
8780,-1528,624,-1424,-38,76,7
8785,-1488,592,-1432,-40,74,8
8790,-1496,608,-1416,-39,74,7
8795,-1504,616,-1400,-37,74,7
8800,-1504,600,-1400,-38,74,8
8805,-1488,632,-1448,-37,73,8
8810,-1504,656,-1432,-36,74,10
8815,-1488,616,-1408,-36,74,10
8820,-1488,616,-1400,-36,72,13
8825,-1488,624,-1408,-34,72,12
8830,-1496,616,-1424,-33,72,12
8835,-1488,632,-1408,-31,72,12
8840,-1488,608,-1400,-32,71,14
8845,-1496,632,-1448,-32,69,13
8850,-1504,608,-1432,-33,69,14
8855,-1504,608,-1400,-33,69,13
8860,-1488,608,-1416,-33,69,14
8865,-1512,592,-1416,-30,69,12
8870,-1512,624,-1416,-28,69,13
8875,-1512,616,-1440,-24,69,12
8880,-1512,632,-1424,-21,69,13
8885,-1528,608,-1408,-19,68,12
8890,-1512,632,-1416,-17,66,13
8895,-1496,608,-1416,-17,66,12
8900,-1512,632,-1440,-15,65,15
8905,-1520,616,-1448,-16,64,12
8910,-1512,616,-1448,-16,62,15
8915,-1496,624,-1416,-17,61,13
8920,-1488,616,-1424,-18,60,16
8925,-1480,624,-1408,-18,60,12
8930,-1504,608,-1416,-19,58,13
8935,-1496,632,-1416,-18,56,11
8940,-1536,664,-1384,-20,54,13
8945,-1504,656,-1424,-19,55,8
8950,-1504,616,-1400,-20,54,9
8955,-1512,624,-1424,-20,54,5
8960,-1520,640,-1400,-20,54,7
8965,-1520,616,-1408,-18,54,3
8970,-1512,624,-1416,-18,53,3
8975,-1528,616,-1416,-16,52,0
8980,-1520,600,-1384,-12,51,1
8985,-1528,600,-1416,-10,49,-1
8990,-1512,624,-1424,-10,50,1
8995,-1512,616,-1440,-7,49,-2
9000,-1504,600,-1416,-4,48,1
9005,-1512,624,-1408,-2,48,-2
9010,-1520,624,-1432,-1,46,1
9015,-1504,624,-1416,-1,45,0
9020,-1472,632,-1416,-2,45,4
9025,-1488,624,-1360,-5,44,4
9030,-1496,616,-1408,-4,44,6
9035,-1480,632,-1392,-2,43,5
9040,-1496,608,-1392,0,43,7
9045,-1504,616,-1416,3,41,3
9050,-1472,608,-1424,5,42,4
9055,-1504,640,-1392,5,42,2
9060,-1496,656,-1384,9,41,4
9065,-1488,648,-1360,11,40,0
9070,-1496,640,-1416,14,41,3
9075,-1504,656,-1400,14,42,-1
9080,-1480,640,-1424,13,41,1
9085,-1488,640,-1432,12,40,-1
9090,-1480,616,-1392,9,40,1
9095,-1512,640,-1424,8,38,-4
9100,-1520,648,-1400,5,37,-3
9105,-1496,656,-1368,4,37,-7
9110,-1488,632,-1376,4,35,-7
9115,-1504,648,-1392,1,34,-10
9120,-1496,624,-1384,-1,36,-9
9125,-1520,624,-1416,-4,36,-10
9130,-1504,616,-1384,-6,37,-9
9135,-1496,624,-1384,-7,38,-11
9140,-1496,608,-1392,-10,38,-9
9145,-1504,616,-1376,-12,39,-9
9150,-1504,640,-1392,-15,39,-7
9155,-1480,640,-1384,-18,40,-7
9160,-1496,624,-1400,-21,43,-3
9165,-1512,624,-1424,-22,44,-5
9170,-1496,616,-1408,-24,46,-3
9175,-1496,616,-1392,-26,46,-5
9180,-1496,600,-1408,-26,47,-2
9185,-1520,600,-1400,-25,48,-4
9190,-1504,616,-1432,-23,50,-3
9195,-1504,592,-1392,-22,51,-4
9200,-1496,592,-1416,-21,54,-1
9205,-1512,600,-1384,-20,54,-3
9210,-1520,592,-1416,-19,56,1
9215,-1528,600,-1416,-18,56,-1
9220,-1528,592,-1424,-18,56,2
9225,-1536,608,-1392,-14,56,2
9230,-1544,616,-1416,-12,56,2
9235,-1528,608,-1400,-9,55,2
9240,-1528,592,-1384,-5,55,4
9245,-1528,600,-1400,-3,56,6
9250,-1544,568,-1392,-1,56,8
9255,-1520,608,-1392,2,56,7
9260,-1504,616,-1424,4,55,9
9265,-1520,600,-1400,3,55,9
9270,-1528,600,-1384,3,57,10
9275,-1496,600,-1384,4,57,10
9280,-1504,632,-1408,5,57,11
9285,-1512,608,-1400,6,57,12
9290,-1504,624,-1384,8,58,12
9295,-1512,624,-1392,9,61,14
9300,-1496,616,-1384,10,60,14
9305,-1512,656,-1392,9,60,15
9310,-1512,640,-1432,7,60,13
9315,-1504,616,-1416,6,60,14
9320,-1496,608,-1392,4,61,15
9325,-1472,600,-1424,-2,61,18
9330,-1496,592,-1400,-5,62,19
9335,-1496,600,-1376,-8,61,23
9340,-1504,600,-1376,-8,58,24
9345,-1496,624,-1368,-9,57,26
9350,-1512,632,-1376,-9,60,26
9355,-1552,656,-1376,-8,62,27
9360,-1512,632,-1384,-7,65,28
9365,-1512,648,-1408,-7,68,31
9370,-1520,624,-1392,-9,72,31
9375,-1504,616,-1400,-12,74,31
9380,-1504,624,-1424,-14,76,28
9385,-1504,632,-1432,-14,77,31
9390,-1496,616,-1416,-16,76,29
9395,-1504,640,-1400,-15,74,31
9400,-1496,600,-1408,-16,71,32
9405,-1488,624,-1416,-15,68,34
9410,-1488,608,-1408,-12,66,32
9415,-1504,616,-1408,-8,62,31
9420,-1504,632,-1400,-5,58,27
9425,-1504,632,-1368,0,58,28
9430,-1496,624,-1424,4,56,24
9435,-1504,640,-1392,9,56,23
9440,-1496,648,-1400,13,55,17
9445,-1496,648,-1416,16,53,17
9450,-1512,640,-1424,18,54,13
9455,-1504,664,-1376,17,53,12
9460,-1480,640,-1392,16,52,10
9465,-1488,648,-1384,16,52,13
9470,-1504,632,-1416,11,52,9
9475,-1504,656,-1384,8,51,10
9480,-1496,624,-1408,4,49,9
9485,-1520,640,-1408,0,48,10
9490,-1520,640,-1392,-4,47,10
9495,-1480,648,-1400,-6,46,11
9500,-1496,648,-1400,-10,47,10
9505,-1504,648,-1408,-12,50,11
9510,-1472,648,-1392,-12,49,8
9515,-1504,624,-1368,-13,49,10
9520,-1488,624,-1376,-14,51,6
9525,-1488,632,-1408,-13,51,8
9530,-1528,624,-1384,-13,51,5
9535,-1504,616,-1368,-14,53,8
9540,-1496,640,-1360,-15,53,5
9545,-1504,640,-1384,-15,56,7
9550,-1504,640,-1368,-14,56,5
9555,-1504,640,-1384,-16,55,7
9560,-1520,624,-1432,-18,56,5
9565,-1528,632,-1368,-20,56,8
9570,-1504,616,-1360,-21,57,5
9575,-1512,672,-1424,-21,57,8
9580,-1512,624,-1400,-19,60,7
9585,-1512,616,-1400,-19,62,8
9590,-1496,608,-1376,-19,66,7
9595,-1504,592,-1416,-20,64,10
9600,-1504,616,-1416,-20,63,8
9605,-1520,600,-1392,-14,61,12
9610,-1496,632,-1400,-13,57,11
9615,-1528,632,-1400,-9,56,11
9620,-1520,632,-1368,-5,56,11
9625,-1512,648,-1392,0,57,14
9630,-1520,656,-1400,3,58,13
9635,-1520,640,-1424,5,62,16
9640,-1512,632,-1416,4,65,13
9645,-1520,632,-1416,-1,66,14
9650,-1520,640,-1408,-5,69,10
9655,-1504,672,-1408,-7,71,10
9660,-1520,656,-1408,-8,71,7
9665,-1520,640,-1408,-10,71,8
9670,-1512,656,-1400,-12,72,7
9675,-1504,640,-1392,-13,70,9
9680,-1512,632,-1384,-16,68,8
9685,-1504,616,-1440,-17,67,11
9690,-1496,632,-1392,-19,66,9
9695,-1512,632,-1400,-19,68,10
9700,-1488,640,-1416,-20,67,8
9705,-1480,640,-1392,-18,66,11
9710,-1496,624,-1384,-18,67,10
9715,-1480,648,-1400,-19,66,10
9720,-1496,640,-1400,-19,67,9
9725,-1488,648,-1360,-20,69,9
9730,-1512,632,-1384,-21,68,6
9735,-1496,640,-1392,-23,68,6
9740,-1488,640,-1400,-25,68,4
9745,-1480,632,-1392,-28,69,5
9750,-1512,640,-1400,-28,69,4
9755,-1496,632,-1432,-28,67,5
9760,-1480,608,-1384,-28,69,2
9765,-1504,632,-1392,-28,70,5
9770,-1480,600,-1408,-27,69,3
9775,-1488,624,-1408,-26,69,4
9780,-1504,640,-1392,-26,68,2
9785,-1496,616,-1400,-25,70,4
9790,-1488,624,-1408,-24,70,3
9795,-1488,656,-1440,-24,70,3
9800,-1504,640,-1384,-24,71,3
9805,-1512,624,-1384,-23,71,3
9810,-1504,640,-1384,-23,71,3
9815,-1512,656,-1416,-24,71,2
9820,-1504,624,-1400,-25,71,2
9825,-1504,640,-1408,-26,73,3
9830,-1496,624,-1408,-26,73,1
9835,-1512,632,-1432,-26,73,1
9840,-1496,640,-1376,-25,73,-1
9845,-1512,632,-1376,-22,72,0
9850,-1512,632,-1400,-19,71,1
9855,-1504,616,-1400,-17,70,0
9860,-1512,616,-1408,-15,69,3
9865,-1512,616,-1408,-13,69,1
9870,-1496,624,-1408,-13,70,2
9875,-1512,632,-1408,-12,70,1
9880,-1504,632,-1400,-15,71,1
9885,-1512,640,-1432,-14,70,0
9890,-1520,624,-1416,-13,72,2
9895,-1520,640,-1416,-13,73,0
9900,-1528,632,-1392,-11,73,2
9905,-1496,584,-1432,-11,72,1
9910,-1496,656,-1480,-8,73,3
9915,-1568,704,-1504,-6,72,1
9920,-1504,656,-1432,-3,70,3
9925,-1544,696,-1368,-2,70,2
9930,-1504,536,-1352,-1,69,4
9935,-1432,640,-1488,-1,67,1
9940,-1488,720,-1536,-2,66,2
9945,-1496,648,-1400,-2,67,1
9950,-1504,640,-1408,-3,66,3
9955,-1480,648,-1392,-5,66,1
9960,-1496,656,-1400,-7,66,0
9965,-1504,632,-1384,-10,67,0
9970,-1504,632,-1416,-11,67,-1
9975,-1472,640,-1384,-11,67,-2
9980,-1512,664,-1384,-12,66,0
9985,-1496,632,-1408,-13,67,-2
9990,-1480,648,-1392,-12,68,0
9995,-1488,632,-1400,-13,66,-2
10000,-1480,632,-1384,-12,66,1
10005,-1480,640,-1424,-11,65,-2
10010,-1488,640,-1416,-11,64,-1
10015,-1464,616,-1376,-10,63,-4
10020,-1472,632,-1384,-10,62,-3
10025,-1488,648,-1384,-10,60,-6
10030,-1488,648,-1416,-9,60,-3
10035,-1496,648,-1400,-10,59,-5
10040,-1496,632,-1432,-11,58,-4
10045,-1488,640,-1400,-11,57,-7
10050,-1488,648,-1424,-13,56,-6
10055,-1488,624,-1432,-14,57,-8
10060,-1496,640,-1424,-13,56,-6
10065,-1512,640,-1416,-13,57,-10
10070,-1520,656,-1424,-11,57,-8
10075,-1488,648,-1416,-13,54,-11
10080,-1472,632,-1400,-12,55,-8
10085,-1512,656,-1408,-13,57,-11
10090,-1496,664,-1408,-13,57,-9
10095,-1496,624,-1400,-16,55,-12
10100,-1496,632,-1400,-18,55,-8
10105,-1504,640,-1400,-19,56,-10
10110,-1504,656,-1392,-22,57,-8
10115,-1504,656,-1408,-24,58,-10
10120,-1520,640,-1432,-26,58,-8
10125,-1512,624,-1392,-28,59,-11
10130,-1488,632,-1384,-29,59,-7
10135,-1512,632,-1368,-29,60,-11
10140,-1496,632,-1408,-30,60,-10
10145,-1488,624,-1408,-31,60,-11
10150,-1472,640,-1416,-32,61,-10
10155,-1488,624,-1392,-31,63,-12
10160,-1480,616,-1416,-31,64,-11
10165,-1504,632,-1408,-30,65,-11
10170,-1512,632,-1400,-28,67,-8
10175,-1496,632,-1400,-26,68,-11
10180,-1504,616,-1416,-27,68,-8
10185,-1504,624,-1384,-27,68,-9
10190,-1488,608,-1424,-27,67,-6
10195,-1504,624,-1392,-28,68,-7
10200,-1504,648,-1424,-27,67,-4
10205,-1512,648,-1416,-25,68,-5
10210,-1496,656,-1416,-25,67,-3
10215,-1520,616,-1440,-23,68,-5
10220,-1496,656,-1400,-22,68,-4
10225,-1488,632,-1408,-21,68,-6
10230,-1496,616,-1416,-21,68,-5
10235,-1512,632,-1416,-20,67,-6
10240,-1520,624,-1400,-19,68,-4
10245,-1480,632,-1440,-19,67,-5
10250,-1488,640,-1384,-19,69,-2
10255,-1496,648,-1432,-21,69,-3
10260,-1496,640,-1408,-21,69,-1
10265,-1496,656,-1376,-24,69,-3
10270,-1488,632,-1400,-24,70,-1
10275,-1472,648,-1424,-25,71,-3
10280,-1496,640,-1424,-24,73,-3
10285,-1480,656,-1392,-24,76,-3
10290,-1504,656,-1400,-25,77,-2
10295,-1496,648,-1432,-25,77,-3
10300,-1488,616,-1416,-24,75,-1
10305,-1504,632,-1408,-24,76,-2
10310,-1496,640,-1416,-23,75,0
10315,-1488,624,-1384,-23,74,0
10320,-1496,616,-1440,-21,73,3
10325,-1496,624,-1392,-23,73,4
10330,-1480,608,-1392,-23,71,4
10335,-1496,616,-1400,-23,70,5
10340,-1488,648,-1392,-22,69,7
10345,-1488,648,-1400,-21,68,8
10350,-1488,640,-1408,-18,69,8
10355,-1496,632,-1400,-18,69,10
10360,-1488,632,-1432,-20,69,9
10365,-1472,616,-1448,-17,70,10
10370,-1488,648,-1416,-16,69,9
10375,-1464,640,-1416,-15,68,9
10380,-1496,648,-1432,-13,67,9
10385,-1456,648,-1440,-13,64,7
10390,-1480,640,-1416,-13,64,6
10395,-1480,624,-1416,-12,60,7
10400,-1504,648,-1400,-9,60,5
10405,-1496,656,-1408,-10,59,7
10410,-1488,640,-1432,-9,57,6
10415,-1488,608,-1416,-10,57,7
10420,-1496,664,-1432,-10,56,6
10425,-1504,640,-1424,-10,56,9
10430,-1504,632,-1400,-8,58,9
10435,-1480,648,-1424,-9,56,9
10440,-1528,664,-1432,-9,56,10
10445,-1496,656,-1408,-10,56,12
10450,-1504,672,-1408,-12,56,12
10455,-1496,656,-1408,-11,55,12
10460,-1496,648,-1432,-14,55,11
10465,-1480,624,-1416,-14,54,11
10470,-1488,640,-1384,-14,54,9
10475,-1488,648,-1392,-15,54,9
10480,-1480,632,-1416,-15,52,9
10485,-1480,640,-1400,-15,53,10
10490,-1496,640,-1416,-14,54,8
10495,-1488,624,-1424,-12,54,9
10500,-1480,648,-1416,-11,53,7
10505,-1496,632,-1376,-11,52,9
10510,-1488,640,-1416,-12,52,7
10515,-1496,624,-1408,-12,52,9
10520,-1496,680,-1392,-12,51,8
10525,-1496,656,-1440,-10,52,9
10530,-1480,640,-1408,-9,52,7
10535,-1464,632,-1368,-7,51,8
10540,-1480,664,-1408,-7,52,6
10545,-1512,664,-1384,-6,53,6
10550,-1472,656,-1416,-8,53,4
10555,-1480,632,-1408,-8,54,6
10560,-1472,656,-1408,-8,52,3
10565,-1488,640,-1408,-10,54,7
10570,-1496,656,-1400,-11,56,3
10575,-1496,648,-1384,-12,54,4
10580,-1488,624,-1392,-12,53,2
10585,-1496,640,-1416,-13,53,3
10590,-1488,632,-1416,-14,53,1
10595,-1488,664,-1416,-16,55,2
10600,-1488,648,-1400,-17,54,0
10605,-1512,664,-1432,-18,55,1
10610,-1488,648,-1400,-19,55,-2
10615,-1472,632,-1384,-20,54,1
10620,-1488,624,-1424,-21,55,-3
10625,-1504,664,-1368,-22,56,0
10630,-1496,648,-1400,-20,57,-4
10635,-1504,648,-1408,-20,57,-1
10640,-1520,664,-1400,-20,57,-3
10645,-1504,656,-1408,-20,58,0
10650,-1512,656,-1400,-20,60,-4
10655,-1504,648,-1400,-20,60,-1
10660,-1496,632,-1400,-20,61,-3
10665,-1520,648,-1440,-20,62,-1
10670,-1512,648,-1400,-21,63,-2
10675,-1496,632,-1432,-23,61,1
10680,-1512,640,-1408,-23,61,-1
10685,-1504,640,-1392,-25,65,1
10690,-1504,648,-1400,-23,66,-1
10695,-1480,632,-1408,-21,66,1
10700,-1504,656,-1408,-19,67,0
10705,-1504,640,-1408,-19,67,4
10710,-1512,648,-1400,-18,67,1
10715,-1496,656,-1408,-16,69,3
10720,-1472,632,-1408,-16,69,2
10725,-1496,632,-1408,-15,72,4
10730,-1488,648,-1416,-16,71,3
10735,-1488,632,-1424,-16,72,6
10740,-1520,640,-1432,-15,72,5
10745,-1504,664,-1384,-15,70,8
10750,-1496,664,-1408,-15,71,5
10755,-1496,648,-1432,-14,70,6
10760,-1472,632,-1392,-13,69,4
10765,-1488,664,-1432,-13,68,6
10770,-1472,640,-1432,-12,67,3
10775,-1496,664,-1424,-13,67,4
10780,-1472,616,-1408,-14,66,3
10785,-1472,632,-1416,-15,65,5
10790,-1496,640,-1376,-14,64,2
10795,-1488,624,-1376,-14,64,3
10800,-1472,632,-1416,-12,62,2
10805,-1480,648,-1416,-13,62,3
10810,-1496,656,-1440,-11,62,0
10815,-1464,632,-1384,-12,61,2
10820,-1480,656,-1400,-13,60,0
10825,-1496,648,-1400,-13,60,2
10830,-1480,648,-1416,-13,59,0
10835,-1464,656,-1400,-13,60,-1
10840,-1488,656,-1400,-13,59,-1
10845,-1472,648,-1384,-13,59,-1
10850,-1464,656,-1400,-14,57,-2
10855,-1464,656,-1400,-15,57,-1
10860,-1472,632,-1408,-15,58,-2
10865,-1480,648,-1464,-17,58,-2
10870,-1480,680,-1416,-16,57,-3
10875,-1480,648,-1424,-16,58,-2
10880,-1480,640,-1424,-17,57,-3
10885,-1472,648,-1416,-16,57,-4
10890,-1480,656,-1408,-17,57,-3
10895,-1480,640,-1400,-17,56,-4
10900,-1480,640,-1400,-17,55,-6
10905,-1496,640,-1392,-14,55,-3
10910,-1496,632,-1400,-15,55,-4
10915,-1512,624,-1408,-14,54,-3
10920,-1496,648,-1408,-14,54,-4
10925,-1504,656,-1416,-13,56,-3
10930,-1504,664,-1400,-13,57,-3
10935,-1488,632,-1424,-12,56,-4
10940,-1496,632,-1400,-13,56,-1
10945,-1512,640,-1392,-14,56,0
10950,-1488,672,-1384,-14,55,-1
10955,-1480,648,-1424,-15,55,-1
10960,-1496,648,-1424,-15,55,-1
10965,-1496,648,-1408,-16,55,-3
10970,-1496,648,-1400,-17,56,-4
10975,-1464,640,-1416,-18,55,-3
10980,-1536,672,-1400,-18,57,-3
10985,-1496,648,-1392,-18,58,-5
10990,-1504,640,-1400,-16,59,-4
10995,-1488,632,-1416,-15,59,-4
11000,-1480,648,-1432,-15,60,-2
11005,-1480,624,-1432,-12,59,-4
11010,-1472,624,-1392,-12,60,-4
11015,-1512,664,-1416,-10,61,-4
11020,-1504,640,-1400,-9,61,-3
11025,-1512,648,-1424,-7,59,-6
11030,-1488,640,-1408,-7,61,-3
11035,-1504,656,-1416,-7,61,-6
11040,-1480,632,-1384,-6,60,-5
11045,-1488,680,-1400,-6,60,-7
11050,-1496,640,-1432,-5,61,-4
11055,-1504,648,-1392,-5,61,-5
11060,-1496,640,-1424,-5,61,-4
11065,-1488,656,-1408,-6,60,-4
11070,-1480,640,-1416,-8,60,0
11075,-1480,648,-1400,-11,60,-1
11080,-1488,656,-1392,-13,62,0
11085,-1504,648,-1376,-12,62,0
11090,-1504,648,-1408,-13,63,3
11095,-1488,664,-1392,-13,64,0
11100,-1472,632,-1416,-16,66,2
11105,-1488,624,-1392,-15,68,-1
11110,-1480,648,-1400,-14,67,1
11115,-1472,640,-1424,-15,68,1
11120,-1504,632,-1400,-17,70,6
11125,-1504,656,-1408,-16,70,2
11130,-1480,648,-1408,-17,69,4
11135,-1504,640,-1392,-16,67,2
11140,-1512,672,-1400,-15,66,3
11145,-1496,632,-1424,-15,66,-2
11150,-1512,664,-1408,-15,64,1
11155,-1512,648,-1416,-12,65,0
11160,-1504,672,-1432,-10,68,4
11165,-1504,648,-1448,-8,69,2
11170,-1480,640,-1400,-8,69,5
11175,-1496,648,-1416,-7,69,1
11180,-1488,664,-1424,-5,70,5
11185,-1504,664,-1400,-6,72,3
11190,-1504,648,-1408,-7,71,4
11195,-1480,688,-1408,-8,71,4
11200,-1480,656,-1400,-11,72,7
11205,-1472,648,-1424,-14,73,4
11210,-1456,664,-1400,-16,72,6
11215,-1464,664,-1408,-21,72,2
11220,-1496,664,-1432,-21,73,4
11225,-1512,664,-1408,-23,72,3
11230,-1464,656,-1416,-24,73,5
11235,-1496,656,-1408,-25,74,0
11240,-1488,648,-1432,-27,72,2
11245,-1472,648,-1408,-27,71,-1
11250,-1504,656,-1392,-28,71,1
11255,-1496,640,-1416,-29,70,0
11260,-1472,648,-1400,-30,71,2
11265,-1496,656,-1392,-30,71,0
11270,-1464,640,-1416,-30,72,1
11275,-1472,640,-1416,-31,73,0
11280,-1488,632,-1416,-29,72,2
11285,-1488,656,-1384,-29,73,-1
11290,-1472,624,-1408,-25,72,0
11295,-1480,632,-1400,-23,71,-3
11300,-1472,648,-1424,-21,73,-1
11305,-1488,640,-1408,-19,71,-4
11310,-1480,640,-1416,-19,70,-3
11315,-1504,680,-1400,-18,69,-7
11320,-1480,656,-1432,-18,67,-4
11325,-1488,648,-1416,-16,65,-6
11330,-1472,632,-1416,-14,65,-6
11335,-1464,632,-1424,-11,62,-8
11340,-1488,640,-1416,-11,61,-6
11345,-1496,632,-1400,-11,58,-8
11350,-1488,640,-1432,-10,56,-7
11355,-1480,656,-1432,-9,56,-7
11360,-1496,640,-1408,-8,54,-5
11365,-1480,648,-1416,-8,54,-6
11370,-1472,640,-1416,-9,52,-5
11375,-1488,648,-1432,-9,51,-7
11380,-1488,672,-1432,-10,52,-5
11385,-1496,648,-1424,-11,51,-6
11390,-1480,640,-1384,-13,52,-4
11395,-1480,640,-1376,-14,49,-5
11400,-1464,640,-1400,-14,51,-5
11405,-1472,640,-1416,-15,51,-5
11410,-1456,664,-1416,-14,53,-4
11415,-1448,632,-1416,-15,55,-5
11420,-1472,640,-1408,-16,54,-3
11425,-1504,648,-1376,-17,55,-4
11430,-1472,648,-1440,-17,56,-3
11435,-1488,656,-1408,-17,57,-5
11440,-1512,656,-1424,-18,58,-4
11445,-1488,624,-1392,-19,59,-3
11450,-1496,656,-1424,-19,59,-2
11455,-1488,656,-1408,-20,60,-1
11460,-1496,664,-1416,-20,60,-1
11465,-1488,624,-1408,-20,58,-3
11470,-1512,624,-1408,-20,60,-2
11475,-1488,656,-1432,-20,61,-1
11480,-1496,624,-1440,-19,61,-1
11485,-1472,648,-1432,-19,61,1
11490,-1496,640,-1384,-20,63,1
11495,-1496,664,-1432,-19,62,4
11500,-1480,632,-1408,-18,61,3
11505,-1504,640,-1384,-18,61,5
11510,-1464,632,-1424,-18,60,3
11515,-1504,648,-1408,-17,62,6
11520,-1472,632,-1408,-16,62,6
11525,-1480,632,-1400,-14,62,7
11530,-1464,640,-1400,-12,61,6
11535,-1448,656,-1392,-12,62,7
11540,-1496,640,-1392,-12,62,5
11545,-1496,648,-1416,-10,60,6
11550,-1488,656,-1408,-10,59,5
11555,-1488,664,-1440,-10,58,5
11560,-1520,672,-1384,-11,60,6
11565,-1464,624,-1432,-11,60,6
11570,-1480,656,-1400,-11,60,5
11575,-1488,656,-1424,-10,60,6
11580,-1512,656,-1408,-12,60,3
11585,-1488,672,-1384,-12,61,5
11590,-1496,672,-1432,-13,61,4
11595,-1496,656,-1400,-14,62,6
11600,-1480,664,-1400,-14,62,3
11605,-1464,640,-1432,-13,63,9
11610,-1480,664,-1416,-13,63,6
11615,-1472,640,-1416,-14,62,7
11620,-1480,640,-1416,-14,64,5
11625,-1480,648,-1392,-13,63,7
11630,-1480,640,-1432,-12,61,5
11635,-1480,648,-1424,-12,61,8
11640,-1504,664,-1416,-11,62,4
11645,-1504,664,-1392,-11,60,6
11650,-1480,664,-1400,-10,60,3
11655,-1496,656,-1400,-10,60,5
11660,-1480,648,-1432,-9,60,3
11665,-1480,648,-1392,-9,59,4
11670,-1504,664,-1424,-10,61,3
11675,-1464,672,-1408,-11,59,3
11680,-1488,664,-1448,-11,61,1
11685,-1512,648,-1440,-12,61,3
11690,-1488,688,-1408,-14,60,2
11695,-1480,664,-1424,-11,59,4
11700,-1480,672,-1384,-11,57,4
11705,-1496,656,-1408,-11,56,5
11710,-1488,656,-1432,-12,55,3
11715,-1472,656,-1384,-11,56,5
11720,-1480,640,-1416,-12,55,2
11725,-1480,648,-1408,-11,57,4
11730,-1472,640,-1424,-11,57,0
11735,-1488,632,-1400,-12,57,3
11740,-1488,648,-1408,-13,58,0
11745,-1464,640,-1432,-14,58,2
11750,-1488,648,-1424,-13,59,-2
11755,-1520,664,-1408,-10,58,0
11760,-1488,648,-1424,-10,59,-3
11765,-1488,648,-1408,-11,59,0
11770,-1496,656,-1392,-10,59,-3
11775,-1504,664,-1448,-11,59,0
11780,-1488,664,-1392,-12,59,-2
11785,-1496,656,-1400,-11,60,1
11790,-1496,656,-1432,-11,59,-2
11795,-1488,640,-1408,-12,58,1
11800,-1480,640,-1416,-11,57,0
11805,-1488,640,-1408,-10,58,1
11810,-1480,664,-1400,-11,58,-1
11815,-1496,640,-1416,-12,58,1
11820,-1496,640,-1408,-13,57,0
11825,-1456,640,-1392,-12,56,3
11830,-1504,656,-1424,-10,56,2
11835,-1504,640,-1392,-8,55,4
11840,-1496,672,-1376,-8,55,3
11845,-1488,648,-1416,-8,56,5
11850,-1488,648,-1400,-7,55,4
11855,-1464,648,-1408,-8,56,5
11860,-1456,648,-1400,-7,56,3
11865,-1480,632,-1392,-8,55,5
11870,-1472,648,-1432,-9,56,3
11875,-1496,672,-1416,-10,57,4
11880,-1488,664,-1368,-10,55,2
11885,-1472,656,-1368,-11,54,2
11890,-1496,664,-1400,-12,55,0
11895,-1496,664,-1392,-11,54,2
11900,-1488,656,-1432,-10,54,1
11905,-1488,664,-1424,-10,55,1
11910,-1480,656,-1416,-11,56,1
11915,-1528,656,-1408,-11,57,2
11920,-1488,624,-1416,-10,58,1
11925,-1496,656,-1424,-9,59,1
11930,-1488,640,-1424,-7,60,0
11935,-1496,672,-1416,-9,60,2
11940,-1480,648,-1424,-8,60,0
11945,-1448,640,-1400,-8,61,2
11950,-1504,672,-1424,-8,61,1
11955,-1488,648,-1416,-9,61,2
11960,-1488,672,-1392,-12,62,2
11965,-1472,648,-1400,-12,62,2
11970,-1472,664,-1408,-15,62,4
11975,-1496,664,-1408,-17,64,4
11980,-1480,648,-1408,-18,64,1
11985,-1480,680,-1416,-18,64,4
11990,-1480,664,-1440,-17,64,1
11995,-1480,656,-1392,-18,62,2
12000,-1488,664,-1408,-17,62,1
12005,-1464,656,-1392,-16,63,1
12010,-1472,656,-1424,-15,61,1
12015,-1488,632,-1352,-15,61,1
12020,-1496,640,-1400,-15,63,2
12025,-1480,656,-1408,-15,62,1
12030,-1480,656,-1416,-16,62,1
12035,-1472,648,-1416,-17,61,3
12040,-1488,656,-1392,-19,63,2
12045,-1488,664,-1400,-20,63,2
12050,-1480,640,-1376,-22,64,4
12055,-1496,656,-1384,-22,64,3
12060,-1480,648,-1392,-22,64,2
12065,-1480,664,-1408,-22,64,2
12070,-1464,648,-1400,-21,64,1
12075,-1488,656,-1408,-20,62,1
12080,-1464,648,-1408,-19,62,1
12085,-1496,656,-1432,-16,62,1
12090,-1504,664,-1392,-14,61,1
12095,-1456,640,-1400,-13,60,0
12100,-1496,648,-1416,-10,62,3
12105,-1480,672,-1448,-7,61,2
12110,-1472,672,-1416,-7,60,3
12115,-1504,648,-1408,-5,59,1
12120,-1480,664,-1440,-4,59,4
12125,-1480,656,-1432,-5,58,2
12130,-1472,680,-1432,-5,59,4
12135,-1496,664,-1424,-2,58,4
12140,-1488,664,-1400,-2,58,4
12145,-1480,680,-1424,-3,59,1
12150,-1504,696,-1392,-5,58,2
12155,-1472,656,-1424,-5,57,-1
12160,-1464,648,-1416,-6,56,2
12165,-1496,664,-1424,-8,56,-1
12170,-1472,680,-1408,-9,56,0
12175,-1472,664,-1416,-13,57,-1
12180,-1480,656,-1424,-15,58,0
12185,-1504,680,-1400,-18,58,-1
12190,-1472,656,-1408,-19,58,0
12195,-1456,656,-1416,-19,58,0
12200,-1504,656,-1416,-20,58,2
12205,-1480,656,-1424,-21,58,0
12210,-1504,664,-1416,-19,60,3
12215,-1456,648,-1376,-20,60,2
12220,-1488,656,-1392,-18,60,4
12225,-1496,664,-1416,-17,60,4
12230,-1480,664,-1400,-16,60,6
12235,-1488,640,-1392,-16,59,3
12240,-1480,656,-1384,-14,60,6
12245,-1504,664,-1384,-13,59,3
12250,-1512,688,-1448,-13,57,7
12255,-1480,648,-1424,-14,58,5
12260,-1496,672,-1400,-14,59,6
12265,-1472,672,-1384,-13,60,4
12270,-1472,680,-1408,-13,58,4
12275,-1488,664,-1408,-12,57,1
12280,-1480,648,-1416,-13,57,3
12285,-1488,664,-1416,-12,57,1
12290,-1472,672,-1392,-10,57,2
12295,-1496,664,-1424,-10,57,-1
12300,-1480,672,-1392,-11,57,2
12305,-1472,664,-1416,-11,57,-1
12310,-1480,664,-1400,-11,58,-1
12315,-1488,664,-1440,-11,58,-3
12320,-1480,656,-1392,-12,59,-1
12325,-1488,664,-1400,-15,58,-4
12330,-1464,656,-1416,-15,58,-1
12335,-1480,656,-1416,-15,58,-3
12340,-1480,648,-1368,-15,58,0
12345,-1480,664,-1408,-16,57,-3
12350,-1456,640,-1432,-15,57,0
12355,-1480,672,-1424,-13,57,-2
12360,-1512,656,-1416,-13,58,1
12365,-1488,648,-1400,-13,57,-1
12370,-1480,648,-1416,-12,56,0
12375,-1488,640,-1416,-11,55,-2
12380,-1464,680,-1440,-10,56,1
12385,-1472,664,-1408,-13,57,-3
12390,-1464,672,-1416,-12,58,1
12395,-1456,680,-1408,-13,57,0
12400,-1488,656,-1408,-14,57,2
12405,-1488,664,-1408,-15,58,0
12410,-1464,640,-1424,-17,61,1
12415,-1480,656,-1424,-17,62,-1
12420,-1472,640,-1392,-17,64,1
12425,-1488,664,-1392,-21,65,0
12430,-1480,656,-1376,-21,66,2
12435,-1472,656,-1392,-22,66,1
12440,-1496,648,-1408,-23,66,3
12445,-1472,656,-1408,-24,68,2
12450,-1488,648,-1416,-25,69,3
12455,-1472,680,-1416,-24,69,1
12460,-1488,624,-1424,-23,69,3
12465,-1480,632,-1432,-23,70,1
12470,-1480,656,-1400,-22,70,2
12475,-1512,664,-1400,-20,70,0
12480,-1480,664,-1424,-19,71,3
12485,-1472,656,-1424,-17,71,4
12490,-1464,648,-1424,-18,70,5
12495,-1520,648,-1432,-18,72,6
12500,-1496,648,-1448,-18,72,7
12505,-1480,664,-1400,-17,72,7
12510,-1488,656,-1416,-18,70,8
12515,-1472,656,-1416,-17,72,7
12520,-1464,672,-1416,-15,71,7
12525,-1480,664,-1432,-10,71,7
12530,-1504,656,-1440,-12,69,7
12535,-1480,664,-1392,-12,70,6
12540,-1504,664,-1392,-13,69,5
12545,-1488,672,-1424,-12,67,3
12550,-1464,640,-1432,-10,68,4
12555,-1456,648,-1400,-10,68,3
12560,-1496,696,-1408,-9,66,5
12565,-1504,664,-1400,-8,64,5
12570,-1456,672,-1408,-6,63,4
12575,-1464,656,-1424,-6,63,6
12580,-1480,648,-1416,-6,61,6
12585,-1488,672,-1384,-3,64,5
12590,-1488,664,-1392,-5,63,6
12595,-1424,640,-1440,-6,62,7
12600,-1504,680,-1424,-7,63,6
12605,-1480,664,-1392,-7,63,7
12610,-1464,648,-1416,-8,65,6
12615,-1496,656,-1416,-9,65,5
12620,-1456,664,-1424,-11,65,3
12625,-1480,672,-1400,-12,64,2
12630,-1496,768,-1368,-11,64,1
12635,-1496,680,-1504,-12,65,2
12640,-1504,648,-1368,-13,64,1
12645,-1464,728,-1440,-13,64,2
12650,-1480,680,-1472,-13,64,1
12655,-1536,688,-1368,-14,65,1
12660,-1472,736,-1432,-15,63,-1
12665,-1608,664,-1480,-15,63,-1
12670,-1456,664,-1400,-15,65,-1
12675,-1488,696,-1416,-16,65,1
12680,-1488,664,-1416,-16,67,-1
12685,-1472,664,-1416,-17,66,0
12690,-1464,728,-1448,-17,67,-3
12695,-1480,696,-1440,-19,66,-1
12700,-1488,688,-1440,-18,66,-4
12705,-1472,664,-1416,-19,66,-4
12710,-1480,656,-1432,-18,66,-6
12715,-1496,664,-1408,-18,67,-5
12720,-1472,656,-1408,-19,67,-7
12725,-1480,672,-1432,-21,66,-5
12730,-1488,672,-1432,-21,66,-9
12735,-1488,672,-1408,-22,67,-8
12740,-1480,664,-1424,-24,67,-8
12745,-1432,712,-1448,-25,67,-8
12750,-1488,672,-1440,-26,68,-10
12755,-1496,680,-1392,-28,68,-8
12760,-1480,664,-1392,-26,69,-9
12765,-1472,680,-1416,-26,68,-7
12770,-1488,656,-1408,-26,68,-9
12775,-1488,656,-1440,-27,69,-7
12780,-1488,672,-1408,-27,69,-11
12785,-1480,648,-1400,-28,68,-8
12790,-1520,640,-1368,-29,68,-11
12795,-1472,648,-1440,-29,71,-9
12800,-1456,648,-1416,-30,70,-11
12805,-1464,664,-1400,-30,71,-9
12810,-1456,648,-1400,-31,70,-10
12815,-1488,664,-1440,-31,70,-8
12820,-1488,656,-1432,-30,71,-10
12825,-1448,672,-1424,-28,71,-9
12830,-1496,664,-1384,-28,70,-10
12835,-1472,656,-1432,-26,71,-7
12840,-1480,656,-1440,-24,71,-9
12845,-1448,648,-1424,-22,70,-6
12850,-1464,672,-1432,-21,69,-7
12855,-1464,656,-1432,-18,70,-4
12860,-1480,648,-1424,-17,71,-7
12865,-1496,672,-1408,-17,70,-5
12870,-1480,672,-1416,-17,69,-7
12875,-1456,664,-1416,-18,70,-4
12880,-1472,672,-1416,-19,70,-6
12885,-1488,680,-1400,-20,70,-3
12890,-1472,656,-1424,-22,69,-8
12895,-1456,672,-1432,-23,69,-5
12900,-1504,688,-1384,-25,70,-9
12905,-1456,640,-1424,-27,70,-5
12910,-1464,664,-1416,-28,69,-9
12915,-1472,672,-1408,-28,69,-7
12920,-1472,688,-1400,-29,70,-8
12925,-1480,672,-1416,-29,69,-7
12930,-1480,664,-1400,-30,70,-9
12935,-1488,664,-1392,-30,70,-5
12940,-1464,640,-1416,-30,71,-9
12945,-1464,664,-1408,-31,71,-5
12950,-1464,664,-1416,-32,72,-7
12955,-1472,656,-1440,-32,72,-5
12960,-1456,656,-1440,-30,74,-8
12965,-1456,672,-1448,-29,74,-5
12970,-1496,664,-1424,-29,74,-6
12975,-1472,672,-1416,-30,74,-4
12980,-1464,672,-1432,-28,74,-5
12985,-1496,664,-1440,-29,76,-4
12990,-1488,656,-1424,-29,75,-6
12995,-1488,656,-1424,-29,76,-4
13000,-1464,672,-1432,-30,75,-4
13005,-1456,648,-1392,-29,75,-3
13010,-1472,672,-1424,-31,75,-5
13015,-1464,656,-1424,-31,76,-3
13020,-1472,688,-1400,-34,76,-4
13025,-1488,688,-1408,-35,78,-3
13030,-1496,680,-1424,-37,78,-5
13035,-1480,664,-1416,-38,77,-4
13040,-1488,672,-1384,-40,79,-5
13045,-1488,664,-1432,-41,79,-5
13050,-1472,688,-1440,-40,81,-5
13055,-1472,672,-1408,-42,84,-4
13060,-1480,672,-1392,-42,84,-5
13065,-1464,672,-1424,-42,81,-4
13070,-1464,656,-1432,-39,83,-6
13075,-1488,656,-1424,-36,81,-5
13080,-1480,648,-1432,-32,80,-6
13085,-1456,664,-1408,-30,79,-5
13090,-1488,672,-1416,-28,77,-5
13095,-1448,664,-1416,-26,75,-5
13100,-1472,656,-1424,-24,73,-5
13105,-1456,664,-1424,-23,74,-4
13110,-1464,680,-1440,-23,74,-6
13115,-1480,672,-1432,-22,74,-6
13120,-1488,664,-1456,-23,71,-5
13125,-1440,664,-1416,-22,73,-3
13130,-1488,704,-1416,-23,72,-4
13135,-1464,680,-1448,-22,71,-5
13140,-1496,672,-1408,-22,71,-7
13145,-1448,688,-1432,-22,69,-7
13150,-1496,688,-1408,-22,69,-7
13155,-1464,664,-1440,-22,68,-8
13160,-1456,680,-1408,-24,68,-10
13165,-1472,672,-1440,-24,69,-10
13170,-1464,672,-1408,-24,70,-10
13175,-1464,656,-1416,-27,70,-9
13180,-1448,688,-1416,-27,69,-9
13185,-1448,680,-1416,-27,68,-7
13190,-1456,680,-1392,-28,70,-6
13195,-1456,664,-1424,-30,71,-8
13200,-1456,672,-1424,-31,71,-6
13205,-1480,680,-1408,-32,72,-6
13210,-1456,680,-1416,-32,71,-7
13215,-1472,672,-1376,-35,71,-10
13220,-1472,672,-1392,-36,71,-8
13225,-1472,680,-1408,-38,72,-12
13230,-1464,672,-1400,-40,73,-10
13235,-1480,672,-1432,-43,73,-12
13240,-1480,672,-1408,-44,75,-11
13245,-1472,656,-1424,-45,74,-14
13250,-1464,656,-1432,-44,75,-11
13255,-1464,648,-1424,-42,72,-11
13260,-1472,672,-1408,-40,72,-10
13265,-1448,664,-1424,-40,72,-10
13270,-1456,664,-1440,-37,70,-7
13275,-1472,640,-1432,-32,70,-7
13280,-1448,688,-1456,-28,70,-3
13285,-1472,688,-1416,-26,69,-6
13290,-1480,704,-1440,-22,70,-4
13295,-1480,696,-1416,-22,69,-5
13300,-1448,664,-1424,-21,69,-2
13305,-1456,656,-1432,-19,72,-5
13310,-1472,672,-1440,-19,71,-4
13315,-1464,696,-1408,-20,69,-4
13320,-1464,680,-1424,-20,71,-2
13325,-1472,688,-1424,-21,69,-5
13330,-1456,656,-1416,-22,68,-3
13335,-1456,664,-1432,-24,66,-5
13340,-1464,656,-1424,-25,67,-3
13345,-1480,656,-1408,-25,67,-5
13350,-1464,672,-1424,-28,67,-3
13355,-1472,680,-1432,-29,67,-3
13360,-1448,680,-1440,-29,68,-3
13365,-1480,656,-1432,-28,70,-4
13370,-1480,672,-1416,-28,72,-2
13375,-1480,696,-1416,-30,73,-4
13380,-1448,664,-1416,-30,73,-2
13385,-1472,688,-1424,-30,74,-5
13390,-1456,672,-1424,-29,74,-1
13395,-1464,672,-1408,-27,72,-5
13400,-1456,672,-1424,-24,71,-1
13405,-1472,680,-1432,-22,70,-4
13410,-1488,696,-1456,-21,70,0
13415,-1456,704,-1400,-20,69,-3
13420,-1464,696,-1424,-20,68,0
13425,-1440,680,-1408,-20,68,-2
13430,-1440,688,-1432,-20,69,-1
13435,-1480,680,-1432,-20,69,-5
13440,-1456,672,-1448,-20,69,-3
13445,-1472,688,-1416,-19,68,-7
13450,-1480,720,-1448,-22,67,-4
13455,-1456,696,-1424,-22,65,-7
13460,-1480,688,-1416,-24,66,-4
13465,-1480,704,-1424,-26,65,-6
13470,-1472,672,-1432,-28,65,-3
13475,-1456,640,-1408,-31,65,-6
13480,-1472,696,-1424,-35,66,-5
13485,-1464,696,-1456,-37,67,-6
13490,-1464,664,-1400,-38,67,-3
13495,-1464,664,-1424,-39,68,-6
13500,-1448,656,-1448,-38,69,-3
13505,-1448,680,-1432,-36,68,-6
13510,-1464,672,-1424,-34,69,-5
13515,-1456,680,-1416,-33,68,-8
13520,-1472,688,-1416,-31,67,-7
13525,-1456,648,-1432,-27,66,-8
13530,-1456,672,-1424,-25,66,-7
13535,-1456,672,-1416,-23,67,-8
13540,-1456,680,-1432,-22,67,-7
13545,-1464,704,-1416,-21,66,-9
13550,-1456,680,-1424,-21,68,-6
13555,-1464,712,-1440,-21,66,-8
13560,-1480,704,-1408,-24,67,-6
13565,-1448,688,-1464,-25,66,-8
13570,-1448,680,-1448,-25,67,-8
13575,-1480,712,-1440,-28,66,-8
13580,-1464,688,-1432,-27,65,-8
13585,-1464,664,-1440,-27,64,-9
13590,-1456,664,-1432,-27,63,-8
13595,-1472,672,-1400,-27,62,-10
13600,-1456,672,-1440,-27,61,-7
13605,-1464,672,-1432,-26,58,-9
13610,-1464,672,-1384,-23,59,-8
13615,-1464,664,-1424,-20,59,-8
13620,-1440,680,-1448,-19,58,-7
13625,-1464,696,-1384,-19,58,-7
13630,-1448,680,-1440,-19,57,-7
13635,-1432,672,-1432,-20,57,-8
13640,-1464,656,-1400,-21,58,-7
13645,-1472,672,-1416,-23,59,-8
13650,-1448,688,-1424,-25,60,-8
13655,-1464,672,-1424,-28,60,-8
13660,-1448,688,-1416,-29,60,-8
13665,-1464,680,-1424,-30,60,-8
13670,-1464,664,-1440,-31,61,-7
13675,-1456,680,-1424,-31,62,-7
13680,-1440,672,-1440,-31,63,-7
13685,-1472,672,-1424,-32,64,-6
13690,-1464,688,-1424,-31,66,-5
13695,-1464,696,-1432,-32,67,-3
13700,-1456,688,-1400,-31,69,-4
13705,-1456,688,-1408,-33,69,-3
13710,-1496,688,-1424,-32,70,-4
13715,-1472,696,-1416,-33,72,-3
13720,-1456,704,-1440,-31,72,-6
13725,-1472,680,-1432,-31,73,-5
13730,-1464,680,-1416,-30,72,-6
13735,-1488,688,-1424,-32,69,-6
13740,-1456,688,-1432,-31,70,-6
13745,-1480,696,-1408,-31,71,-4
13750,-1440,688,-1416,-31,71,-5
13755,-1472,696,-1424,-32,69,-3
13760,-1464,712,-1416,-34,71,-3
13765,-1472,680,-1440,-37,71,1
13770,-1448,688,-1440,-38,73,0
13775,-1488,712,-1432,-40,74,2
13780,-1448,672,-1408,-39,75,2
13785,-1480,680,-1448,-38,76,2
13790,-1472,680,-1416,-37,74,1
13795,-1448,680,-1416,-38,74,2
13800,-1448,672,-1416,-38,72,0
13805,-1456,680,-1448,-35,73,2
13810,-1456,672,-1424,-34,74,-1
13815,-1440,704,-1416,-34,72,2
13820,-1472,680,-1416,-34,72,-1
13825,-1472,680,-1424,-36,72,1
13830,-1448,688,-1432,-37,72,-1
13835,-1440,720,-1424,-37,75,1
13840,-1464,696,-1432,-40,74,-2
13845,-1448,688,-1432,-42,75,-1
13850,-1448,672,-1400,-43,76,-4
13855,-1472,672,-1384,-43,75,-2
13860,-1448,664,-1448,-44,74,-6
13865,-1472,680,-1408,-44,74,-4
13870,-1456,696,-1432,-44,73,-7
13875,-1472,712,-1448,-41,73,-5
13880,-1448,664,-1448,-40,74,-6
13885,-1448,680,-1432,-38,73,-3
13890,-1488,688,-1432,-37,74,-5
13895,-1456,688,-1424,-35,72,-1
13900,-1456,688,-1448,-34,73,-1
13905,-1456,680,-1424,-34,71,2
13910,-1472,664,-1440,-33,70,0
13915,-1440,664,-1416,-32,71,4
13920,-1440,696,-1416,-31,69,1
13925,-1472,688,-1432,-31,69,3
13930,-1448,680,-1424,-33,69,1
13935,-1432,696,-1408,-33,69,2
13940,-1440,680,-1424,-33,68,0
13945,-1456,688,-1456,-32,66,2
13950,-1472,704,-1440,-30,66,-2
13955,-1448,680,-1440,-28,65,1
13960,-1456,688,-1432,-27,63,0
13965,-1440,688,-1448,-26,60,1
13970,-1440,656,-1416,-23,60,0
13975,-1440,680,-1432,-21,56,2
13980,-1472,672,-1424,-16,55,-1
13985,-1464,672,-1432,-12,53,1
13990,-1448,696,-1448,-8,51,-1
13995,-1456,680,-1432,-6,50,1
14000,-1456,680,-1432,-1,50,-1
14005,-1440,680,-1432,1,50,3
14010,-1440,672,-1456,4,49,0
14015,-1432,664,-1424,6,48,3
14020,-1432,664,-1464,9,47,1
14025,-1424,664,-1432,10,47,3
14030,-1448,680,-1448,11,45,1
14035,-1448,672,-1440,10,45,5
14040,-1464,656,-1424,11,44,4
14045,-1456,672,-1432,12,41,5
14050,-1448,672,-1424,13,39,6
14055,-1424,656,-1408,14,37,9
14060,-1440,680,-1440,15,33,11
14065,-1448,656,-1424,17,31,15
14070,-1432,664,-1464,21,29,14
14075,-1432,680,-1440,24,28,19
14080,-1432,672,-1432,26,25,18
14085,-1432,664,-1432,28,23,22
14090,-1424,680,-1448,32,20,23
14095,-1424,664,-1464,34,19,24
14100,-1448,656,-1448,38,16,24
14105,-1448,648,-1480,40,13,25
14110,-1448,656,-1464,47,9,22
14115,-1448,656,-1440,51,7,23
14120,-1432,664,-1432,56,1,20
14125,-1480,664,-1448,61,-3,19
14130,-1472,672,-1440,67,-6,16
14135,-1488,680,-1424,70,-11,17
14140,-1472,632,-1432,72,-15,16
14145,-1456,640,-1424,71,-19,14
14150,-1472,696,-1440,72,-21,11
14155,-1496,704,-1416,72,-23,13
14160,-1472,688,-1440,70,-23,10
14165,-1480,672,-1408,66,-22,11
14170,-1480,696,-1424,63,-22,9
14175,-1464,680,-1440,61,-20,9
14180,-1464,696,-1384,58,-18,8
14185,-1504,704,-1424,53,-15,8
14190,-1456,680,-1440,48,-11,8
14195,-1480,688,-1392,45,-9,7
14200,-1488,696,-1400,42,-6,6
14205,-1480,704,-1400,38,-5,8
14210,-1480,688,-1416,38,-4,8
14215,-1480,688,-1392,38,-1,10
14220,-1480,696,-1424,36,2,10
14225,-1488,704,-1376,35,3,11
14230,-1488,696,-1400,34,5,10
14235,-1496,688,-1384,33,9,10
14240,-1504,680,-1368,32,13,10
14245,-1472,688,-1408,31,15,9
14250,-1480,680,-1400,27,19,9
14255,-1488,720,-1408,24,22,10
14260,-1496,696,-1392,21,25,11
14265,-1472,696,-1432,19,28,12
14270,-1488,712,-1408,15,30,14
14275,-1488,704,-1400,12,33,13
14280,-1480,680,-1392,7,36,16
14285,-1472,680,-1392,5,38,16
14290,-1480,712,-1392,2,40,18
14295,-1464,688,-1400,0,43,16
14300,-1488,712,-1368,-4,44,17
14305,-1464,696,-1392,-6,44,16
14310,-1480,704,-1392,-8,46,16
14315,-1504,704,-1384,-8,47,14
14320,-1472,672,-1416,-7,48,12
14325,-1480,672,-1376,-4,49,11
14330,-1480,680,-1416,-3,51,13
14335,-1488,672,-1408,-4,50,10
14340,-1480,680,-1368,-2,53,11
14345,-1448,680,-1400,-1,54,10
14350,-1472,688,-1416,0,53,11
14355,-1488,672,-1416,2,53,10
14360,-1472,680,-1384,4,54,10
14365,-1480,664,-1416,2,53,9
14370,-1488,688,-1408,3,56,9
14375,-1456,656,-1392,4,57,6
14380,-1496,704,-1408,3,59,8
14385,-1472,664,-1416,3,57,5
14390,-1480,672,-1392,4,56,6
14395,-1488,696,-1416,1,54,4
14400,-1464,728,-1424,1,55,5
14405,-1464,680,-1424,-1,57,2
14410,-1472,680,-1392,-4,56,3
14415,-1472,672,-1416,-4,56,1
14420,-1504,680,-1424,-6,56,2
14425,-1472,680,-1384,-9,56,-2
14430,-1472,680,-1400,-10,55,0
14435,-1488,688,-1408,-11,57,-2
14440,-1488,648,-1400,-12,56,0
14445,-1480,680,-1400,-12,55,0
14450,-1480,672,-1400,-13,55,3
14455,-1472,680,-1424,-16,54,0
14460,-1488,680,-1392,-15,56,3
14465,-1472,688,-1408,-17,57,3
14470,-1480,648,-1400,-17,58,6
14475,-1464,688,-1408,-16,57,3
14480,-1488,680,-1416,-16,58,6
14485,-1480,696,-1416,-15,59,4
14490,-1440,640,-1424,-15,58,6
14495,-1464,656,-1416,-13,57,4
14500,-1504,680,-1392,-12,57,7
14505,-1504,688,-1408,-10,58,6
14510,-1480,664,-1408,-9,56,9
14515,-1472,688,-1416,-8,57,7
14520,-1472,640,-1440,-7,55,7
14525,-1488,680,-1424,-7,56,5
14530,-1496,688,-1424,-6,56,5
14535,-1480,688,-1392,-6,55,4
14540,-1448,680,-1400,-7,55,7
14545,-1488,672,-1432,-7,55,4
14550,-1448,680,-1424,-9,55,6
14555,-1432,656,-1400,-11,55,5
14560,-1472,664,-1416,-9,55,8
14565,-1472,648,-1400,-6,52,10
14570,-1472,664,-1384,-3,46,14
14575,-1496,696,-1384,-3,41,14
14580,-1480,688,-1416,-2,42,14
14585,-1488,720,-1408,-1,45,10
14590,-1488,704,-1432,0,51,11
14595,-1488,712,-1424,0,58,9
14600,-1480,696,-1432,-3,61,9
14605,-1488,688,-1392,-7,64,3
14610,-1464,680,-1416,-10,66,3
14615,-1496,688,-1392,-11,66,1
14620,-1464,688,-1400,-11,65,2
14625,-1464,672,-1376,-11,61,1
14630,-1456,704,-1416,-15,58,1
14635,-1472,672,-1424,-17,57,-2
14640,-1480,664,-1400,-17,56,0
14645,-1488,696,-1384,-18,55,-2
14650,-1456,672,-1376,-19,54,-1
14655,-1464,664,-1392,-17,53,-2
14660,-1496,688,-1368,-17,55,0
14665,-1464,680,-1424,-16,54,-1
14670,-1488,672,-1392,-14,54,0
14675,-1456,688,-1400,-13,55,-3
14680,-1480,672,-1408,-14,54,0
14685,-1480,664,-1424,-14,55,-2
14690,-1472,672,-1416,-16,56,0
14695,-1480,672,-1408,-18,54,-3
14700,-1480,680,-1400,-18,55,-2
14705,-1480,688,-1408,-20,56,-2
14710,-1480,664,-1424,-20,55,-2
14715,-1464,672,-1432,-21,56,-3
14720,-1512,672,-1424,-21,56,-2
14725,-1480,672,-1400,-21,57,-4
14730,-1480,656,-1384,-20,58,-2
14735,-1488,656,-1400,-18,59,-2
14740,-1456,656,-1384,-15,59,0
14745,-1488,688,-1408,-14,61,0
14750,-1472,664,-1400,-12,63,1
14755,-1464,664,-1432,-13,65,3
14760,-1496,656,-1408,-12,66,2
14765,-1488,672,-1392,-11,64,2
14770,-1480,688,-1392,-11,64,4
14775,-1488,648,-1408,-11,67,4
14780,-1496,688,-1384,-11,66,6
14785,-1488,664,-1440,-11,65,5
14790,-1488,672,-1384,-11,66,5
14795,-1472,656,-1384,-11,66,6
14800,-1480,664,-1432,-11,67,6
14805,-1472,656,-1408,-11,66,6
14810,-1480,672,-1408,-9,65,7
14815,-1480,672,-1416,-9,66,10
14820,-1496,680,-1392,-9,66,11
14825,-1480,680,-1424,-9,67,12
14830,-1472,680,-1400,-9,68,12
14835,-1504,696,-1416,-9,68,12
14840,-1464,696,-1416,-9,68,12
14845,-1472,664,-1400,-11,68,13
14850,-1464,640,-1416,-11,68,11
14855,-1472,664,-1416,-11,68,13
14860,-1488,688,-1432,-11,68,12
14865,-1480,672,-1408,-9,69,12
14870,-1504,688,-1400,-8,69,11
14875,-1472,688,-1400,-8,70,12
14880,-1480,688,-1416,-6,70,11
14885,-1472,696,-1432,-6,69,11
14890,-1480,688,-1400,-6,70,10
14895,-1472,680,-1424,-5,70,11
14900,-1472,696,-1408,-6,69,11
14905,-1448,696,-1392,-7,69,10
14910,-1456,680,-1376,-9,70,9
14915,-1432,680,-1416,-12,69,10
14920,-1472,696,-1400,-11,70,7
14925,-1448,688,-1408,-11,70,9
14930,-1440,688,-1384,-13,70,9
14935,-1472,688,-1392,-13,68,10
14940,-1480,688,-1416,-14,69,8
14945,-1464,680,-1392,-14,69,10
14950,-1496,696,-1416,-14,69,8
14955,-1472,664,-1408,-13,69,8
14960,-1464,688,-1400,-11,69,6
14965,-1456,688,-1408,-12,67,9
14970,-1472,664,-1408,-12,66,8
14975,-1456,696,-1432,-14,66,9
14980,-1448,688,-1432,-15,67,6
14985,-1472,696,-1432,-15,65,8
14990,-1472,704,-1424,-16,65,3
14995,-1464,704,-1408,-16,63,4
