timestamp,accel_x,accel_y,accel_z,gyro_x,gyro_y,gyro_z
0,136,-2016,184,-31,65,-15
5,128,-2024,152,-30,63,-13
10,128,-2024,168,-28,64,-14
15,128,-2024,184,-24,61,-15
20,120,-2024,208,-20,59,-16
25,128,-2032,184,-16,57,-14
30,128,-2016,200,-12,52,-16
35,128,-2040,200,-8,51,-13
40,112,-2016,176,-7,49,-16
45,120,-2016,192,-5,47,-14
50,136,-2048,176,-5,47,-16
55,136,-2008,192,-5,46,-12
60,136,-2032,152,-7,46,-13
65,152,-2032,168,-7,47,-9
70,136,-1992,152,-8,47,-11
75,144,-2000,160,-7,47,-9
80,136,-2016,176,-7,46,-9
85,152,-2000,192,-7,46,-6
90,168,-2040,176,-6,43,-7
95,136,-2024,176,-6,41,-5
100,168,-2040,168,-8,38,-6
105,144,-2008,168,-7,35,-3
110,168,-2032,152,-8,33,-6
115,144,-2024,136,-9,30,-4
120,152,-2056,176,-10,30,-6
125,136,-2040,152,-8,30,-5
130,144,-2024,136,-7,29,-6
135,168,-2040,176,-6,31,-5
140,144,-2040,136,-5,32,-7
145,144,-2040,160,-5,33,-5
150,136,-2040,144,-7,34,-8
155,136,-2016,136,-9,35,-6
160,144,-2024,112,-10,37,-8
165,144,-2032,176,-13,37,-6
170,152,-2064,160,-16,40,-8
175,168,-2024,144,-17,39,-4
180,136,-2024,160,-19,41,-3
185,160,-2024,128,-20,42,-1
190,144,-2016,200,-22,42,-3
195,144,-2000,128,-24,44,0
200,136,-2008,168,-24,45,-1
205,160,-2024,144,-24,45,1
210,152,-2000,136,-25,45,-1
215,176,-2032,160,-27,45,1
220,168,-2016,160,-28,45,0
225,160,-1992,144,-29,43,0
230,152,-2016,152,-30,40,-3
235,192,-1992,136,-31,39,-2
240,192,-2032,136,-31,38,-4
245,184,-2008,160,-31,37,-3
250,176,-2016,168,-30,37,-6
255,176,-2032,144,-30,37,-4
260,168,-2032,152,-30,35,-8
265,152,-2008,160,-27,35,-6
270,184,-2008,160,-26,38,-8
275,144,-2000,160,-22,39,-9
280,160,-2040,176,-19,40,-10
285,168,-2008,152,-16,43,-9
290,136,-2008,160,-16,45,-10
295,176,-1992,144,-16,49,-6
300,168,-2000,112,-15,50,-8
305,168,-2000,152,-16,52,-5
310,152,-2008,160,-14,56,-6
315,144,-2008,152,-11,55,-5
320,168,-2032,160,-7,56,-5
325,144,-2048,168,-3,59,-3
330,144,-2000,152,0,58,-3
335,160,-2040,160,3,60,-3
340,120,-2008,160,3,62,-6
345,152,-2016,168,0,63,-4
350,152,-2040,136,-3,65,-3
355,160,-2000,160,-5,66,0
360,144,-2008,136,-7,66,0
365,152,-2024,160,-9,70,1
370,120,-2008,168,-10,70,1
375,168,-2024,208,-11,70,2
380,144,-2016,152,-10,68,1
385,160,-2024,144,-8,68,3
390,152,-2040,128,-7,67,0
395,144,-2016,112,-8,68,1
400,144,-2024,160,-6,67,-2
405,136,-2024,160,-6,67,-2
410,184,-2032,136,-6,69,-1
415,168,-2032,168,-5,71,-2
420,120,-2024,112,-4,74,-2
425,152,-2016,120,-3,73,-3
430,160,-2032,160,-1,75,-4
435,136,-2000,136,-2,77,-4
440,144,-2024,160,-2,77,-3
445,152,-2032,136,0,78,-2
450,128,-2000,120,-1,80,-4
455,152,-2024,128,-2,81,-2
460,160,-2048,112,-4,80,-3
465,152,-2032,152,-8,79,-4
470,136,-2032,144,-9,80,-5
475,128,-2024,128,-9,79,-5
480,144,-2008,120,-10,78,-4
485,144,-2040,128,-11,76,-4
490,144,-2024,136,-10,75,-4
495,136,-2040,144,-10,74,-4
500,144,-2024,176,-11,72,-4
505,144,-2040,160,-9,71,-2
510,152,-2008,176,-8,70,-1
515,128,-2032,144,-8,69,0
520,136,-2016,200,-7,70,1
525,144,-2040,160,-7,71,1
530,144,-2024,184,-5,71,4
535,136,-2008,176,-1,71,4
540,160,-2032,160,-1,71,5
545,112,-2024,160,1,71,6
550,120,-2000,152,3,72,7
555,160,-2024,168,3,70,7
560,144,-2024,144,5,70,7
565,168,-2024,168,5,71,6
570,184,-2008,144,5,71,6
575,136,-2000,136,5,72,4
580,144,-2016,168,4,72,5
585,136,-2000,152,4,72,2
590,144,-2008,152,5,69,1
595,152,-2000,136,5,70,0
600,136,-2032,176,7,70,1
605,128,-2000,152,6,68,-2
610,112,-2000,160,6,66,-1
615,136,-2032,136,6,64,-5
620,152,-2016,152,6,63,-6
625,144,-2032,160,6,62,-7
630,136,-2016,168,6,62,-6
635,152,-2032,184,8,63,-8
640,152,-2016,160,8,63,-8
645,144,-2032,200,12,62,-10
650,160,-2040,192,15,62,-10
655,136,-2016,160,18,63,-11
660,168,-2024,192,21,63,-6
665,152,-2024,168,22,63,-8
670,160,-2032,160,22,61,-6
675,152,-2000,152,21,61,-6
680,168,-2000,176,19,60,-4
685,176,-2032,168,17,58,-5
690,160,-2008,208,16,60,-2
695,152,-2024,200,18,60,-2
700,160,-2040,160,18,60,-1
705,160,-2016,176,20,60,-2
710,160,-2016,176,20,61,0
715,152,-2040,168,22,61,-1
720,152,-2008,176,24,58,1
725,152,-2016,160,23,59,-3
730,144,-2016,184,22,59,-2
735,120,-2008,200,20,56,-5
740,144,-2008,144,16,55,-4
745,152,-2024,168,14,54,-7
750,152,-2016,168,11,55,-6
755,136,-2016,176,8,54,-8
760,144,-2016,152,9,54,-5
765,136,-2024,224,6,55,-5
770,120,-2000,184,5,55,-2
775,144,-2008,200,4,57,-3
780,128,-2016,144,5,58,0
785,144,-2000,144,6,58,0
790,216,-1944,168,5,58,3
795,152,-2000,160,6,59,2
800,152,-2016,152,4,60,3
805,152,-2016,200,4,60,3
810,152,-2008,160,5,59,6
815,152,-2008,200,7,58,5
820,160,-2040,184,4,59,7
825,160,-2016,152,3,58,5
830,184,-2024,160,3,58,7
835,160,-2024,192,4,57,6
840,168,-2040,152,3,56,6
845,168,-2024,208,6,55,3
850,160,-2024,176,7,54,4
855,144,-2024,184,8,55,3
860,160,-2016,208,7,55,4
865,168,-2024,184,5,54,2
870,144,-2008,192,3,56,4
875,136,-2000,168,3,55,1
880,160,-2032,168,0,56,5
885,152,-2032,184,-1,58,3
890,152,-2016,168,-2,60,6
895,152,-2024,184,-1,59,4
900,160,-2032,168,-3,59,6
905,168,-2016,160,-5,58,3
910,144,-2016,176,-8,59,5
915,168,-2016,184,-10,59,5
920,136,-2024,168,-14,59,7
925,128,-2024,144,-15,58,4
930,160,-2016,144,-18,59,8
935,144,-2016,208,-18,58,6
940,160,-2040,160,-17,60,9
945,152,-2016,176,-17,58,7
950,160,-2016,168,-16,58,10
955,160,-2032,144,-18,58,6
960,144,-2024,152,-17,57,10
965,136,-2008,176,-17,56,7
970,128,-2000,184,-18,55,9
975,136,-2016,160,-18,57,8
980,160,-2024,152,-18,56,10
985,144,-2032,128,-19,59,7
990,144,-2024,160,-20,59,9
995,144,-2024,192,-20,60,8
1000,160,-2024,184,-23,62,10
1005,160,-2064,176,-22,63,9
1010,136,-1992,152,-24,64,10
1015,144,-2024,184,-24,65,8
1020,136,-2016,160,-25,65,10
1025,160,-2024,176,-24,63,9
1030,144,-2024,168,-24,62,11
1035,144,-2032,184,-24,62,9
1040,144,-2008,208,-24,61,11
1045,152,-2016,208,-22,59,8
1050,152,-2000,144,-23,60,10
1055,144,-2024,176,-22,59,7
1060,176,-2024,168,-22,61,9
1065,152,-2016,176,-22,59,6
1070,152,-2024,192,-23,59,8
1075,136,-2000,176,-21,60,5
1080,152,-2000,152,-23,61,8
1085,128,-2024,208,-22,63,6
1090,152,-2024,184,-21,65,7
1095,120,-1992,184,-20,64,5
1100,160,-2016,168,-20,64,8
1105,144,-2016,160,-19,64,5
1110,152,-2024,160,-16,63,7
1115,136,-2032,176,-14,64,5
1120,136,-2032,160,-13,65,9
1125,136,-1992,192,-10,65,6
1130,136,-2024,200,-8,64,8
1135,152,-2016,200,-5,63,7
1140,144,-2024,200,-3,63,9
1145,128,-2000,208,-1,63,7
1150,136,-1992,184,-1,63,9
1155,144,-2008,176,-2,62,7
1160,144,-2016,184,-2,63,8
1165,128,-2032,192,-2,63,7
1170,144,-2016,160,0,62,11
1175,136,-2024,224,-1,63,8
1180,120,-2008,184,-1,62,10
1185,152,-2016,192,0,63,7
1190,120,-2016,168,0,61,9
1195,136,-2008,168,-2,62,7
1200,136,-2032,168,-4,62,7
1205,128,-2016,184,-6,62,6
1210,136,-2032,192,-7,63,5
1215,144,-2040,176,-8,65,5
1220,136,-2032,184,-6,66,6
1225,128,-2032,176,-2,69,4
1230,136,-2016,192,-1,71,5
1235,144,-2024,192,2,73,5
1240,144,-2032,168,4,73,8
1245,136,-2048,192,5,73,6
1250,144,-2024,176,5,73,10
1255,136,-2008,200,4,74,10
1260,152,-2040,184,4,73,13
1265,144,-2032,200,5,72,14
1270,128,-2040,176,6,73,16
1275,128,-1984,176,6,74,15
1280,136,-2016,160,8,72,17
1285,128,-2000,176,8,72,16
1290,128,-2024,168,9,70,17
1295,128,-2016,176,8,68,13
1300,128,-2000,184,7,67,12
1305,128,-2008,176,4,66,11
1310,104,-2008,176,2,64,9
1315,104,-1984,176,0,63,8
1320,120,-2016,144,-3,62,9
1325,136,-2032,176,-6,61,7
1330,112,-2008,176,-7,61,8
1335,128,-2024,176,-9,60,9
1340,120,-2008,200,-12,60,11
1345,128,-1992,168,-14,61,11
1350,128,-2024,200,-16,61,13
1355,120,-2008,184,-17,62,13
1360,128,-1992,184,-18,63,14
1365,120,-2016,176,-19,62,13
1370,104,-2024,176,-18,59,14
1375,136,-2000,176,-19,59,13
1380,128,-2016,144,-19,58,14
1385,128,-2016,152,-20,55,13
1390,128,-1992,152,-21,53,13
1395,120,-2008,192,-21,52,13
1400,136,-2056,176,-23,52,11
1405,152,-2048,184,-22,52,13
1410,128,-2040,184,-21,50,10
1415,128,-2048,200,-21,49,10
1420,144,-2032,168,-20,51,9
1425,136,-2040,192,-18,49,8
1430,136,-2032,168,-18,51,7
1435,128,-2048,176,-16,50,6
1440,152,-2040,192,-18,51,4
1445,128,-2024,192,-15,53,3
1450,144,-2032,208,-15,52,1
1455,160,-2016,208,-16,54,4
1460,136,-2016,184,-16,56,3
1465,136,-2016,176,-14,58,4
1470,136,-2024,176,-14,58,1
1475,152,-2040,192,-13,58,1
1480,152,-2032,184,-12,58,1
1485,112,-2016,184,-11,55,-1
1490,120,-1976,168,-11,52,0
1495,144,-2000,200,-9,51,0
1500,120,-2008,216,-10,50,-3
1505,136,-2008,192,-9,49,-2
1510,120,-2008,224,-9,51,-4
1515,112,-2016,216,-6,51,-3
1520,128,-2016,208,-4,51,-6
1525,136,-2032,192,-4,52,-6
1530,144,-2016,208,-1,55,-7
1535,112,-2016,200,-3,58,-9
1540,128,-2008,184,-3,61,-9
1545,112,-2024,200,-3,63,-8
1550,136,-2024,176,-2,66,-11
1555,128,-2048,168,0,67,-10
1560,144,-2016,168,1,69,-11
1565,128,-2024,216,4,72,-11
1570,120,-2016,208,5,72,-12
1575,136,-2040,216,9,74,-12
1580,120,-2024,216,10,76,-11
1585,136,-2024,200,13,75,-10
1590,152,-2024,216,15,74,-11
1595,120,-2024,160,18,74,-9
1600,120,-2024,152,21,73,-10
1605,120,-2008,200,24,74,-8
1610,128,-2000,168,22,74,-8
1615,104,-2000,160,21,73,-4
1620,104,-2000,184,21,72,-7
1625,144,-2024,176,18,72,-4
1630,120,-1968,168,19,71,-5
1635,136,-1992,184,19,72,-4
1640,104,-1984,168,16,71,-5
1645,144,-1992,176,14,69,-3
1650,136,-2008,200,12,69,-6
1655,120,-2008,184,10,69,-5
1660,152,-1984,160,10,70,-5
1665,136,-1984,184,9,70,-4
1670,112,-1992,176,9,73,-6
1675,136,-2016,184,10,73,-4
1680,112,-2024,176,10,76,-6
1685,128,-2000,192,10,76,-3
1690,136,-2000,184,10,77,-5
1695,136,-2024,176,7,76,-3
1700,144,-2016,216,6,76,-6
1705,136,-2016,176,5,75,-2
1710,120,-2000,160,1,75,-4
1715,128,-2016,176,-2,74,-1
1720,144,-2024,216,-3,73,-4
1725,128,-2008,184,-4,72,-2
1730,120,-2032,192,-5,69,-6
1735,136,-2032,176,-5,70,-4
1740,144,-2024,184,-3,70,-8
1745,128,-2024,160,-1,69,-5
1750,112,-2008,192,-2,69,-5
1755,120,-2000,168,-5,69,-4
1760,136,-2024,200,-8,69,-7
1765,136,-2008,208,-8,66,-6
1770,112,-2016,160,-12,67,-10
1775,144,-2024,184,-13,67,-8
1780,144,-2032,192,-14,69,-10
1785,152,-1992,160,-14,69,-8
1790,128,-2008,208,-13,67,-11
1795,136,-2000,216,-12,68,-10
1800,128,-2024,192,-11,67,-12
1805,160,-2016,176,-9,66,-10
1810,120,-2032,168,-8,65,-12
1815,136,-2008,208,-9,63,-10
1820,120,-2024,208,-10,61,-12
1825,128,-2024,176,-14,61,-9
1830,136,-2016,200,-16,57,-13
1835,128,-2016,208,-20,57,-11
1840,144,-2024,176,-22,56,-12
1845,120,-2024,200,-23,56,-10
1850,128,-2024,216,-23,56,-11
1855,128,-2000,168,-23,58,-9
1860,136,-2040,168,-22,58,-11
1865,128,-2024,200,-21,58,-9
1870,136,-2032,184,-22,58,-13
1875,128,-1992,168,-23,59,-10
1880,128,-1992,192,-24,58,-13
1885,112,-2008,208,-27,59,-8
1890,112,-1984,192,-27,59,-10
1895,120,-2024,224,-29,60,-8
1900,120,-2008,208,-30,61,-9
1905,128,-2000,184,-30,61,-6
1910,136,-2008,168,-29,59,-7
1915,120,-2024,176,-27,59,-6
1920,144,-2000,200,-27,60,-7
1925,128,-2008,192,-24,58,-5
1930,136,-1976,192,-22,59,-6
1935,136,-2024,176,-20,58,-4
1940,136,-2016,184,-17,58,-4
1945,144,-1992,208,-16,57,-3
1950,144,-2008,192,-14,56,-5
1955,144,-2024,184,-11,55,-2
1960,128,-2016,192,-11,53,-4
1965,128,-2040,176,-10,52,-1
1970,144,-2032,192,-12,52,-3
1975,112,-2008,192,-12,51,-1
1980,144,-2032,192,-13,49,-4
1985,144,-2032,184,-12,47,-4
1990,136,-2024,192,-10,47,-7
1995,152,-2032,184,-9,47,-7
2000,128,-2016,184,-7,47,-9
2005,152,-2024,216,-5,48,-6
2010,136,-2040,200,-5,49,-9
2015,144,-2040,184,-4,49,-9
2020,144,-2040,176,-3,48,-12
2025,144,-2008,216,-2,48,-12
2030,120,-2024,184,1,48,-14
2035,152,-2048,200,2,48,-15
2040,128,-2016,168,4,45,-18
2045,144,-2040,168,5,45,-17
2050,128,-2016,192,2,46,-20
2055,120,-1992,200,0,47,-18
2060,144,-2000,200,-2,47,-21
2065,160,-1992,184,-5,46,-19
2070,120,-1984,184,-7,47,-20
2075,176,-2000,200,-8,49,-17
2080,136,-1992,184,-9,48,-18
2085,144,-2024,168,-10,48,-16
2090,152,-2000,184,-7,48,-18
2095,136,-1976,184,-9,46,-17
2100,144,-1992,176,-9,45,-19
2105,152,-2008,232,-8,45,-16
2110,160,-2016,216,-7,46,-18
2115,136,-1984,176,-6,46,-16
2120,136,-2024,248,-5,46,-17
2125,136,-2032,168,-3,48,-15
2130,128,-2016,192,-1,50,-14
2135,152,-2008,200,2,51,-12
2140,152,-1992,168,6,54,-13
2145,144,-2016,184,7,57,-13
2150,152,-2000,208,10,57,-13
2155,120,-2008,176,12,58,-12
2160,144,-2008,192,12,60,-13
2165,128,-2008,192,12,60,-12
2170,168,-1984,192,12,60,-13
2175,144,-2008,184,12,60,-12
2180,136,-1992,176,11,61,-14
2185,152,-2024,208,9,61,-12
2190,120,-2008,184,8,59,-13
2195,152,-2016,192,7,59,-13
2200,144,-1992,152,6,60,-14
2205,136,-1992,176,5,59,-12
2210,120,-1992,216,5,59,-14
2215,152,-1984,176,4,59,-13
2220,136,-1984,184,4,58,-15
2225,144,-2000,184,4,59,-12
2230,144,-2000,152,4,60,-14
2235,144,-2016,184,6,59,-12
2240,152,-2032,192,6,57,-11
2245,128,-1992,216,8,58,-9
2250,128,-1992,208,8,57,-9
2255,104,-2008,184,7,58,-9
2260,128,-2016,200,6,58,-10
2265,144,-2016,168,4,59,-8
2270,136,-2032,152,3,61,-9
2275,144,-2016,208,-1,61,-7
2280,144,-2024,192,-3,60,-8
2285,128,-1992,184,-8,63,-9
2290,152,-2008,168,-12,64,-8
2295,144,-2016,184,-14,66,-9
2300,128,-2024,168,-17,68,-10
2305,128,-2032,176,-21,69,-10
2310,136,-2032,168,-24,69,-12
2315,120,-2024,176,-25,70,-13
2320,144,-2040,176,-28,71,-15
2325,152,-2056,168,-29,70,-17
2330,144,-2040,184,-29,70,-17
2335,160,-2048,200,-30,72,-18
2340,168,-2040,168,-29,75,-19
2345,160,-2032,176,-28,75,-20
2350,128,-2032,184,-24,76,-20
2355,144,-2024,168,-23,78,-19
2360,144,-2024,208,-21,78,-20
2365,128,-2024,192,-19,78,-19
2370,128,-2000,216,-17,76,-17
2375,144,-2008,208,-17,75,-15
2380,152,-2008,184,-18,72,-14
2385,144,-1992,208,-20,69,-13
2390,144,-2016,208,-21,67,-11
2395,136,-2016,224,-22,68,-12
2400,152,-2008,224,-19,67,-10
2405,152,-2016,216,-19,65,-10
2410,152,-2024,216,-17,65,-8
2415,152,-2040,216,-14,65,-8
2420,144,-2032,240,-12,65,-9
2425,152,-2032,216,-7,64,-9
2430,120,-2032,208,-5,63,-7
2435,128,-2016,200,-6,63,-8
2440,144,-2008,184,-6,63,-7
2445,152,-2032,216,-6,62,-9
2450,160,-2032,208,-7,63,-8
2455,160,-1992,224,-5,62,-8
2460,152,-2024,224,-6,63,-9
2465,152,-2008,224,-5,62,-9
2470,152,-2000,192,-4,62,-8
2475,136,-2000,208,-4,62,-9
2480,160,-1968,168,-3,64,-7
2485,160,-1992,200,-3,64,-9
2490,144,-1976,200,-5,65,-9
2495,160,-2000,200,-7,64,-12
2500,160,-2008,216,-9,62,-12
2505,136,-2016,184,-11,61,-15
2510,152,-1984,224,-11,60,-14
2515,168,-2024,208,-12,57,-16
2520,176,-2008,224,-12,55,-17
2525,176,-2016,200,-11,54,-20
2530,168,-2008,216,-12,51,-20
2535,152,-2000,208,-7,49,-24
2540,168,-2016,224,-4,49,-23
2545,136,-2008,208,0,48,-25
2550,168,-2032,224,5,46,-23
2555,144,-2016,216,12,47,-26
2560,152,-2024,224,16,49,-24
2565,144,-2016,224,18,50,-24
2570,152,-2040,224,21,53,-21
2575,152,-2024,224,23,55,-22
2580,160,-2048,232,25,57,-21
2585,144,-2040,224,28,60,-22
2590,152,-2048,248,31,62,-20
2595,144,-2000,224,35,63,-21
2600,152,-2032,216,37,64,-19
2605,152,-2016,224,38,65,-21
2610,168,-2024,208,37,65,-18
2615,144,-2024,224,36,64,-19
2620,160,-2000,224,33,63,-15
2625,192,-2000,192,32,62,-17
2630,152,-1992,224,32,62,-12
2635,152,-2016,224,31,63,-11
2640,144,-1992,208,32,60,-9
2645,144,-1968,216,33,61,-11
2650,176,-2008,216,32,61,-8
2655,152,-1992,208,32,61,-10
2660,152,-1992,216,33,62,-7
2665,168,-1992,200,33,63,-9
2670,168,-1992,216,34,63,-7
2675,136,-1984,240,33,62,-10
2680,152,-2008,232,33,64,-7
2685,168,-1992,256,32,64,-9
2690,128,-1984,224,31,66,-7
2695,160,-1992,216,29,65,-11
2700,144,-2000,208,29,66,-8
2705,168,-2024,184,27,69,-9
2710,176,-2000,184,26,69,-7
2715,160,-2008,192,24,70,-11
2720,144,-2000,216,18,71,-9
2725,160,-2008,208,17,68,-10
2730,136,-2000,208,13,69,-9
2735,160,-2016,200,10,70,-11
2740,168,-2032,224,7,69,-9
2745,160,-2008,224,5,70,-10
2750,160,-1992,200,4,70,-8
2755,152,-2008,208,2,68,-8
2760,144,-2000,216,0,66,-5
2765,144,-2000,216,-2,66,-6
2770,136,-2008,184,-4,66,-3
2775,136,-2008,208,-7,66,-3
2780,152,-2024,192,-8,68,0
2785,160,-2016,216,-10,66,-1
2790,160,-2024,184,-11,67,4
2795,128,-2008,208,-12,65,3
2800,144,-2040,200,-13,64,6
2805,152,-2024,232,-14,64,6
2810,160,-2056,240,-14,63,9
2815,152,-2016,216,-16,63,7
2820,152,-2048,200,-14,64,11
2825,152,-2016,224,-15,62,9
2830,136,-2008,216,-15,61,12
2835,160,-2000,208,-16,60,11
2840,152,-2032,192,-18,59,12
2845,176,-2016,232,-20,58,8
2850,144,-2024,208,-19,57,10
2855,144,-2016,224,-19,55,7
2860,136,-2000,216,-21,56,8
2865,144,-2024,232,-21,56,6
2870,160,-2008,216,-21,57,8
2875,144,-2000,200,-22,56,5
2880,144,-2000,216,-24,55,5
2885,160,-2000,248,-25,55,1
2890,160,-2024,248,-25,57,4
2895,152,-1992,224,-25,56,-1
2900,168,-2016,232,-26,57,1
2905,176,-2024,248,-26,57,-5
2910,160,-2016,240,-24,58,-4
2915,184,-2016,232,-20,59,-6
2920,160,-2024,216,-19,61,-6
2925,160,-2008,232,-18,60,-9
2930,176,-2024,240,-16,59,-6
2935,168,-2008,240,-15,59,-8
2940,168,-2008,232,-13,57,-5
2945,160,-2000,240,-14,56,-7
2950,184,-2008,240,-13,57,-2
2955,184,-2008,224,-11,57,-2
2960,152,-2000,224,-9,56,0
2965,184,-2016,232,-6,57,0
2970,160,-2016,224,-3,56,3
2975,184,-2008,248,0,56,2
2980,168,-1992,256,2,55,4
2985,176,-2000,232,4,53,2
2990,136,-1992,224,4,51,4
2995,160,-2008,224,6,52,1
3000,152,-2000,224,6,51,3
3005,144,-1992,224,5,51,2
3010,152,-1992,248,5,52,2
3015,152,-2008,248,3,53,3
3020,136,-1992,224,2,55,4
3025,136,-1984,232,1,56,5
3030,160,-2008,224,1,57,7
3035,152,-2000,248,0,59,6
3040,152,-2000,248,-1,61,7
3045,144,-2016,232,-1,62,10
3050,144,-1992,248,-3,63,10
3055,168,-2008,232,-3,64,10
3060,160,-2000,224,-2,65,10
3065,152,-1984,232,-3,64,10
3070,168,-2040,232,-4,64,10
3075,176,-2016,224,-4,62,9
3080,168,-2000,256,-5,61,9
3085,168,-2000,232,-6,61,9
3090,144,-2000,224,-7,61,7
3095,176,-2008,240,-6,60,5
3100,168,-2024,240,-7,60,4
3105,152,-1984,208,-8,59,3
3110,168,-1992,216,-9,59,2
3115,152,-2000,216,-10,59,3
3120,152,-2016,240,-10,58,2
3125,136,-2016,208,-11,60,0
3130,152,-1984,232,-11,59,2
3135,136,-2016,216,-13,59,1
3140,152,-2016,216,-14,58,1
3145,144,-2032,224,-16,58,0
3150,152,-2008,208,-20,58,0
3155,160,-2016,232,-23,55,-1
3160,152,-2016,208,-26,55,-1
3165,128,-1984,216,-29,54,0
3170,144,-1984,208,-33,54,0
3175,144,-2008,200,-32,53,2
3180,128,-1992,216,-34,52,3
3185,152,-1992,192,-36,50,3
3190,144,-2016,176,-36,48,3
3195,152,-2016,216,-37,47,5
3200,152,-2016,208,-38,49,3
3205,152,-2008,200,-38,49,4
3210,160,-2000,240,-37,50,3
3215,152,-2016,224,-37,50,3
3220,152,-2032,224,-37,53,4
3225,152,-2016,208,-37,56,5
3230,136,-2024,224,-37,56,5
3235,152,-2032,224,-37,57,4
3240,152,-1976,200,-35,59,4
3245,144,-2008,216,-36,62,6
3250,144,-2000,224,-35,64,4
3255,128,-2000,200,-35,63,6
3260,144,-2024,200,-35,63,4
3265,144,-2008,232,-36,64,6
3270,136,-2008,224,-38,63,4
3275,160,-2016,224,-39,64,4
3280,144,-2000,224,-39,64,3
3285,152,-2000,200,-39,61,4
3290,160,-2000,216,-39,62,2
3295,120,-2008,232,-38,60,3
3300,144,-2016,208,-37,60,2
3305,152,-2032,216,-36,60,4
3310,160,-2048,216,-36,62,3
3315,152,-2032,216,-36,62,4
3320,160,-2000,208,-34,61,2
3325,152,-2024,216,-35,62,3
3330,168,-2008,256,-34,62,3
3335,136,-2040,216,-34,65,4
3340,152,-2032,248,-33,65,2
3345,168,-2008,232,-34,67,5
3350,160,-2008,208,-32,68,4
3355,160,-2008,216,-31,69,4
3360,144,-1976,240,-29,69,4
3365,168,-2024,208,-27,70,3
3370,144,-2016,200,-27,71,2
3375,152,-2032,224,-24,70,3
3380,168,-2016,216,-22,69,0
3385,144,-2016,216,-22,69,-1
3390,160,-2008,200,-22,68,-5
3395,168,-2008,192,-21,68,-3
3400,176,-2040,240,-17,67,-6
3405,144,-2008,216,-14,69,-4
3410,160,-2040,208,-10,68,-6
3415,152,-2016,208,-10,66,-5
3420,136,-2016,224,-10,67,-6
3425,152,-2024,208,-10,66,-7
3430,152,-2008,216,-11,64,-10
3435,160,-2008,224,-11,62,-9
3440,144,-2008,216,-13,61,-13
3445,160,-2000,256,-13,60,-11
3450,176,-2008,248,-13,60,-14
3455,160,-2016,264,-10,60,-11
3460,152,-2000,256,-9,61,-15
3465,152,-2008,224,-4,61,-12
3470,144,-2000,224,-1,61,-14
3475,160,-2008,256,3,61,-13
3480,168,-2008,208,5,60,-14
3485,152,-2024,232,6,61,-11
3490,144,-2008,224,7,61,-11
3495,144,-2032,208,7,61,-8
3500,160,-2016,224,8,63,-7
3505,160,-2024,232,8,62,-5
3510,144,-2024,192,9,65,-5
3515,272,-1992,312,11,66,-2
3520,160,-1920,168,13,66,-4
3525,160,-2008,240,16,66,-1
3530,136,-2032,208,17,64,-5
3535,128,-2016,200,16,64,-3
3540,152,-1992,184,15,64,-7
3545,136,-2016,208,13,64,-4
3550,128,-2008,232,9,64,-6
3555,136,-2040,192,6,64,-5
3560,136,-2016,224,5,64,-6
3565,120,-2016,192,2,64,-3
3570,120,-2024,200,1,64,-5
3575,136,-2000,208,-1,63,-2
3580,128,-2016,216,-4,64,-2
3585,128,-2008,216,-6,63,1
3590,152,-2008,192,-8,63,0
3595,160,-2032,232,-9,63,3
3600,152,-1984,192,-12,62,1
3605,168,-2016,192,-14,59,4
3610,136,-2024,192,-15,59,1
3615,152,-2040,184,-17,58,2
3620,160,-2016,208,-19,56,-1
3625,144,-2008,192,-22,53,1
3630,152,-2008,224,-24,50,-4
3635,144,-2024,224,-26,50,-3
3640,136,-2024,224,-26,48,-6
3645,136,-2040,200,-27,46,-3
3650,144,-2032,208,-28,46,-8
3655,136,-2016,192,-27,44,-5
3660,144,-2016,200,-26,44,-8
3665,136,-2032,200,-26,46,-5
3670,136,-2000,184,-26,47,-7
3675,152,-2016,224,-26,48,-4
3680,144,-2024,224,-26,51,-6
3685,144,-2024,208,-28,49,-5
3690,144,-2024,176,-30,51,-8
3695,136,-2024,184,-31,50,-7
3700,160,-2024,232,-33,51,-10
3705,136,-2008,192,-35,49,-8
3710,136,-2000,216,-39,49,-12
3715,128,-2016,208,-42,48,-9
3720,136,-1992,224,-45,49,-11
3725,160,-2048,192,-46,49,-12
3730,152,-1984,184,-49,49,-15
3735,160,-2008,200,-49,49,-13
3740,168,-2016,208,-47,49,-14
3745,168,-2024,216,-46,49,-13
3750,160,-2024,200,-44,49,-16
3755,152,-2016,208,-43,48,-15
3760,168,-2016,200,-38,49,-18
3765,168,-2016,248,-36,49,-15
3770,160,-2008,224,-32,50,-17
3775,168,-2016,200,-28,52,-17
3780,144,-2016,248,-25,53,-18
3785,176,-2032,216,-22,54,-16
3790,152,-1992,216,-18,54,-16
3795,176,-2000,264,-14,55,-15
3800,168,-1984,200,-12,56,-15
3805,152,-2000,224,-10,57,-13
3810,168,-1984,240,-8,59,-14
3815,152,-1984,240,-8,59,-12
3820,160,-1968,224,-6,60,-14
3825,168,-2000,240,-7,61,-11
3830,144,-1976,240,-6,62,-12
3835,152,-1992,264,-6,61,-12
3840,152,-2000,216,-6,61,-12
3845,168,-2000,224,-7,63,-10
3850,160,-2000,208,-8,63,-12
3855,136,-1976,240,-9,66,-9
3860,168,-2008,240,-10,66,-11
3865,168,-1992,208,-12,66,-10
3870,144,-2000,208,-11,66,-10
3875,136,-2008,200,-9,67,-9
3880,152,-2000,232,-8,68,-8
3885,176,-2024,216,-3,68,-9
3890,160,-2008,224,-1,69,-7
3895,152,-1992,256,2,69,-6
3900,152,-2024,224,4,71,-6
3905,160,-2016,264,5,69,-4
3910,160,-2008,224,7,70,-5
3915,152,-2008,224,8,69,-4
3920,152,-2008,200,8,69,-3
3925,168,-2008,200,7,69,-3
3930,152,-1992,216,6,68,-4
3935,160,-2016,208,4,68,-5
3940,144,-2016,216,1,66,-6
3945,160,-2016,224,-1,65,-5
3950,144,-2032,232,-1,64,-7
3955,160,-2024,232,0,63,-7
3960,144,-2008,208,-1,61,-9
3965,152,-2008,216,-2,59,-9
3970,144,-2024,240,-7,58,-9
3975,160,-2040,224,-10,57,-8
3980,168,-2032,224,-12,57,-9
3985,152,-2040,192,-14,58,-10
3990,152,-2024,200,-18,57,-11
3995,160,-2016,224,-23,57,-12
4000,176,-2032,200,-26,57,-13
4005,160,-2032,200,-27,60,-12
4010,160,-2032,192,-27,62,-13
4015,176,-1992,224,-27,60,-12
4020,176,-2016,200,-26,61,-11
4025,168,-1992,216,-23,60,-11
4030,168,-2024,216,-22,58,-11
4035,144,-1976,192,-23,57,-10
4040,160,-1992,200,-23,55,-12
4045,168,-2032,216,-23,54,-13
4050,176,-2024,240,-26,51,-13
4055,152,-2008,184,-24,49,-15
4060,160,-2024,176,-24,49,-15
4065,176,-2016,200,-25,49,-16
4070,168,-2016,224,-23,48,-16
4075,152,-2064,192,-24,48,-18
4080,176,-2032,192,-24,48,-17
4085,160,-2024,216,-27,48,-16
4090,168,-2008,200,-28,47,-17
4095,136,-2008,200,-32,48,-16
4100,160,-2016,184,-34,47,-17
4105,160,-2024,184,-37,45,-17
4110,160,-2024,200,-41,45,-13
4115,152,-2008,216,-42,42,-14
4120,176,-2000,184,-44,44,-12
4125,152,-1992,208,-46,46,-12
4130,176,-1984,184,-47,43,-12
4135,168,-1992,192,-45,45,-9
4140,176,-1968,184,-45,45,-7
4145,168,-1984,208,-44,47,-9
4150,184,-2016,192,-41,48,-8
4155,176,-1992,176,-40,50,-9
4160,176,-1984,192,-37,51,-8
4165,160,-2024,216,-36,52,-9
4170,152,-1984,200,-36,55,-7
4175,168,-1992,200,-33,56,-8
4180,152,-1992,200,-31,56,-7
4185,176,-2008,248,-28,57,-8
4190,168,-2016,208,-24,59,-6
4195,152,-2016,216,-20,59,-8
4200,160,-2024,208,-18,59,-5
4205,160,-2008,232,-15,60,-5
4210,152,-1992,200,-13,62,-2
4215,176,-2000,200,-12,64,-3
4220,144,-2024,216,-11,64,1
4225,184,-2032,216,-10,67,0
4230,176,-2008,184,-7,66,2
4235,160,-2024,184,-3,67,0
4240,168,-2032,208,2,68,2
4245,160,-2016,240,6,67,2
4250,136,-2000,224,10,67,5
4255,144,-2016,200,15,65,5
4260,152,-2032,208,19,64,8
4265,128,-2000,232,19,62,9
4270,152,-2024,264,22,60,12
4275,160,-2016,232,26,58,12
4280,120,-2008,256,29,56,15
4285,128,-2008,248,31,53,14
4290,120,-2000,200,34,50,14
4295,128,-2008,232,32,48,14
4300,152,-2000,200,33,47,13
4305,152,-2016,224,31,45,7
4310,168,-2000,224,30,44,7
4315,176,-1976,216,27,41,-1
4320,160,-2024,200,23,41,-2
4325,192,-2008,216,22,40,-9
4330,192,-1984,208,20,40,-12
4335,192,-2024,200,20,42,-18
4340,176,-2016,224,20,43,-20
4345,208,-2008,184,22,45,-27
4350,176,-2016,216,21,49,-27
4355,192,-2008,192,20,54,-30
4360,160,-1992,184,18,56,-28
4365,184,-2024,184,19,61,-30
4370,168,-1992,216,19,64,-28
4375,160,-2000,176,20,67,-28
4380,168,-2008,192,23,69,-21
4385,160,-2016,208,22,71,-19
4390,176,-2016,216,24,72,-12
4395,144,-2000,232,25,71,-9
4400,136,-2008,240,26,70,0
4405,128,-1992,200,28,68,4
4410,112,-1992,216,31,65,12
4415,112,-2000,200,32,61,15
4420,128,-2008,216,32,57,23
4425,104,-1984,208,35,52,27
4430,136,-2016,192,38,47,35
4435,112,-2000,200,38,43,38
4440,128,-2000,248,40,38,45
4445,128,-2000,208,41,30,46
4450,136,-2016,248,43,25,53
4455,144,-2016,184,43,20,53
4460,152,-2016,200,44,15,57
4465,144,-2016,224,45,10,56
4470,160,-2032,240,47,7,58
4475,144,-2008,224,48,5,54
4480,160,-2032,240,47,3,57
4485,168,-2032,248,46,1,52
4490,168,-2040,232,45,1,50
4495,200,-2024,208,46,0,45
4500,176,-2024,232,50,-1,41
4505,176,-2032,200,51,-2,37
4510,160,-2016,232,54,0,34
4515,168,-2016,216,57,-2,27
4520,144,-2016,248,57,-1,25
4525,144,-2016,208,56,-1,20
4530,168,-2016,248,60,0,18
4535,160,-2024,248,62,0,12
4540,152,-2016,264,67,2,12
4545,176,-2024,256,73,2,9
4550,160,-2024,232,77,3,9
4555,160,-2016,256,80,3,7
4560,152,-2000,272,83,3,8
4565,136,-1992,280,86,1,6
4570,128,-2016,248,89,0,12
4575,120,-1976,264,90,-3,11
4580,128,-1976,256,90,-4,15
4585,120,-2000,248,88,-7,13
4590,96,-1976,256,85,-8,18
4595,104,-1976,256,82,-14,19
4600,128,-1968,272,79,-16,23
4605,136,-1976,256,78,-16,25
4610,136,-1984,272,79,-16,30
4615,160,-1992,312,80,-16,30
4620,136,-1992,256,82,-16,35
4625,152,-1968,264,85,-17,36
4630,144,-1952,296,84,-17,38
4635,168,-1960,280,84,-20,38
4640,144,-1968,232,81,-20,40
4645,152,-1960,296,80,-24,39
4650,168,-1968,296,78,-27,39
4655,144,-1976,304,80,-30,37
4660,152,-1968,264,80,-32,40
4665,128,-2000,296,81,-35,38
4670,160,-2016,288,86,-37,40
4675,136,-1992,280,91,-37,41
4680,144,-2024,320,96,-39,45
4685,120,-2016,304,99,-41,47
4690,120,-2016,296,100,-42,54
4695,112,-2008,296,101,-43,60
4700,120,-2024,288,102,-45,67
4705,112,-2000,288,102,-46,73
4710,104,-2040,288,105,-51,81
4715,112,-2032,304,108,-56,88
4720,112,-2032,296,109,-60,96
4725,104,-2032,288,109,-64,103
4730,96,-1992,328,107,-70,108
4735,88,-2000,320,108,-73,111
4740,80,-2000,312,109,-75,113
4745,128,-2000,296,108,-79,115
4750,120,-1992,280,105,-82,114
4755,136,-2024,288,100,-85,113
4760,144,-1992,280,93,-87,111
4765,128,-2000,304,88,-85,107
4770,144,-2016,264,83,-85,102
4775,152,-2000,320,82,-85,95
4780,168,-2016,328,83,-86,87
4785,152,-2032,312,82,-86,80
4790,152,-2032,296,79,-86,73
4795,152,-2040,288,78,-85,67
4800,152,-2016,296,78,-86,58
4805,160,-2008,296,77,-84,52
4810,192,-2000,328,77,-83,48
4815,184,-1992,320,77,-80,41
4820,176,-1992,296,77,-76,34
4825,176,-1984,320,78,-71,32
4830,176,-1968,328,80,-63,28
4835,184,-1968,256,80,-58,26
4840,168,-1920,336,81,-51,23
4845,184,-1936,312,82,-44,21
4850,176,-1936,288,79,-36,19
4855,152,-1904,336,78,-29,16
4860,184,-1920,336,78,-22,15
4865,168,-1912,336,77,-15,13
4870,208,-1912,368,77,-6,11
4875,168,-1904,352,78,2,10
4880,160,-1920,360,78,9,8
4885,176,-1928,360,78,17,7
4890,160,-1936,344,77,25,5
4895,168,-1936,352,74,33,5
4900,168,-1928,368,71,39,4
4905,168,-1936,368,68,44,3
4910,168,-1968,368,65,49,2
4915,176,-1936,368,61,53,3
4920,200,-1960,344,59,57,3
4925,168,-1952,368,59,56,8
4930,176,-1968,368,59,57,10
4935,168,-1944,376,61,56,17
4940,160,-1968,376,65,55,19
4945,152,-1968,384,69,53,27
4950,160,-1976,424,73,49,32
4955,112,-1976,448,77,46,41
4960,128,-1976,368,82,43,47
4965,120,-1976,408,88,40,60
4970,96,-1976,408,90,38,67
4975,112,-1992,360,91,37,74
4980,96,-2000,368,87,36,76
4985,48,-1984,480,79,36,83
4990,120,-2024,328,71,36,84
4995,112,-2032,360,63,36,88
5000,128,-2056,296,53,35,87
5005,120,-2032,328,43,35,89
5010,120,-2064,296,33,33,87
5015,136,-2064,312,21,31,85
5020,120,-2064,320,13,28,79
5025,96,-2072,296,8,26,79
5030,128,-2064,296,5,23,74
5035,80,-2048,296,4,19,75
5040,88,-2080,288,3,15,72
5045,64,-2056,272,3,11,73
5050,64,-2040,264,2,7,70
5055,40,-2048,320,-1,2,69
5060,40,-2040,304,-6,-2,63
5065,40,-2000,312,-7,-6,62
5070,40,-2000,304,-9,-9,56
5075,56,-1984,352,-11,-10,54
5080,64,-1992,360,-11,-13,47
5085,80,-1992,352,-9,-13,45
5090,120,-1976,368,-7,-14,37
5095,88,-1968,384,-9,-15,33
5100,96,-1968,368,-10,-17,26
5105,120,-1936,416,-11,-15,19
5110,104,-1960,384,-11,-13,7
5115,104,-1944,408,-9,-13,2
5120,136,-1952,400,-11,-12,-5
5125,128,-1944,392,-10,-10,-8
5130,136,-1912,416,-10,-7,-13
5135,96,-1920,400,-13,-5,-12
5140,144,-1928,416,-12,-3,-16
5145,96,-1904,432,-11,-1,-15
5150,88,-1920,416,-6,1,-16
5155,64,-1888,448,-4,0,-14
5160,56,-1896,456,2,-2,-15
5165,64,-1912,448,9,-4,-11
5170,56,-1912,440,14,-8,-13
5175,64,-1920,440,20,-10,-9
5180,40,-1904,472,24,-19,-8
5185,32,-1936,480,30,-26,-2
5190,16,-1920,480,33,-34,-2
5195,24,-1960,456,36,-43,4
5200,16,-1968,440,41,-53,6
5205,8,-1968,400,44,-63,13
5210,24,-1976,400,46,-71,16
5215,16,-1984,400,44,-79,23
5220,48,-2016,392,42,-85,23
5225,48,-1992,352,35,-92,28
5230,80,-2000,360,26,-95,26
5235,80,-2024,352,10,-95,28
5240,112,-2024,320,-10,-96,26
5245,136,-2024,304,-29,-93,25
5250,168,-2024,288,-49,-87,19
5255,176,-2008,304,-73,-80,17
5260,224,-2024,288,-93,-73,11
5265,232,-1984,280,-112,-64,6
5270,232,-1976,296,-123,-55,-4
5275,256,-2000,256,-133,-47,-10
5280,248,-1984,304,-135,-36,-21
5285,248,-2000,288,-136,-26,-27
5290,264,-2008,288,-134,-17,-36
5295,232,-1992,272,-133,-6,-40
5300,224,-2000,312,-133,7,-48
5305,208,-2016,288,-129,28,-49
5310,184,-2016,312,-129,45,-52
5315,144,-2016,296,-129,64,-49
5320,152,-2016,312,-131,84,-48
5325,112,-2016,304,-135,101,-42
5330,120,-1992,256,-140,117,-41
5335,120,-1984,248,-148,130,-37
5340,96,-1968,272,-157,139,-34
5345,104,-1960,264,-167,148,-29
5350,96,-1952,336,-179,155,-26
5355,80,-1952,288,-191,159,-22
5360,96,-1928,296,-202,162,-22
5365,88,-1928,280,-211,164,-18
5370,88,-1936,280,-216,164,-18
5375,72,-1936,296,-218,164,-16
5380,96,-1936,304,-219,164,-18
5385,96,-1936,320,-220,164,-18
5390,120,-1952,320,-220,161,-22
5395,80,-1920,320,-221,159,-23
5400,80,-1952,328,-222,153,-27
5405,120,-1936,296,-221,147,-27
5410,136,-1968,288,-222,140,-30
5415,88,-1976,320,-222,130,-31
5420,96,-1968,320,-224,120,-39
5425,128,-1992,312,-225,110,-35
5430,96,-1992,296,-228,101,-36
5435,104,-1976,296,-233,91,-34
5440,112,-2008,280,-239,83,-34
5445,80,-2008,312,-242,75,-33
5450,104,-1984,296,-247,69,-32
5455,88,-2016,288,-249,67,-27
5460,80,-2016,264,-250,64,-24
5465,112,-2032,312,-250,62,-22
5470,88,-1984,304,-251,63,-18
5475,80,-1992,320,-249,67,-13
5480,72,-1992,264,-249,69,-11
5485,96,-1984,280,-250,72,-5
5490,72,-2000,288,-251,75,-4
5495,96,-1984,296,-254,77,1
5500,96,-2000,256,-257,79,3
5505,72,-1944,224,-262,84,4
5510,88,-1968,272,-266,90,8
5515,80,-1968,256,-271,96,15
5520,64,-1944,224,-276,100,17
5525,88,-1960,304,-280,107,23
5530,80,-1952,272,-284,112,26
5535,56,-1944,208,-289,114,27
5540,96,-1976,240,-293,119,30
5545,80,-1944,264,-297,123,34
5550,88,-1960,224,-301,124,36
5555,80,-1952,224,-303,125,37
5560,96,-1960,232,-308,122,36
5565,88,-1976,232,-315,120,32
5570,104,-1960,232,-322,114,29
5575,96,-1976,224,-328,109,26
5580,104,-1976,200,-333,103,21
5585,80,-1984,192,-336,96,13
5590,104,-1976,216,-340,86,7
5595,88,-1968,200,-344,78,-1
5600,120,-1976,224,-348,67,-6
5605,112,-1976,232,-355,59,-15
5610,128,-1984,232,-360,51,-23
5615,128,-1976,208,-363,44,-30
5620,136,-1992,200,-365,37,-39
5625,144,-1992,200,-366,30,-45
5630,152,-1984,232,-363,23,-54
5635,152,-1984,200,-359,21,-64
5640,168,-1992,200,-354,18,-68
5645,168,-1984,184,-353,17,-75
5650,168,-1976,192,-352,16,-81
5655,160,-2000,232,-353,15,-88
5660,168,-1952,184,-357,16,-90
5665,176,-1992,160,-361,16,-97
5670,176,-1984,152,-366,20,-101
5675,192,-1968,160,-373,23,-107
5680,184,-1976,144,-379,27,-110
5685,184,-1984,128,-389,35,-118
5690,208,-1992,120,-396,43,-118
5695,192,-1984,104,-404,49,-123
5700,200,-1976,104,-412,57,-123
5705,192,-2016,80,-421,63,-127
5710,200,-2016,96,-431,69,-127
5715,200,-2000,96,-440,75,-127
5720,200,-1984,88,-449,79,-125
5725,192,-2008,80,-456,83,-125
5730,184,-1984,72,-464,85,-118
5735,184,-2008,72,-472,88,-115
5740,160,-1984,80,-477,91,-108
5745,168,-2000,64,-480,91,-104
5750,160,-1968,64,-485,91,-95
5755,168,-2008,64,-487,92,-89
5760,144,-1968,72,-490,94,-82
5765,152,-1976,48,-495,93,-76
5770,160,-1968,40,-502,92,-68
5775,160,-1968,40,-511,92,-63
5780,152,-1984,64,-524,91,-53
5785,176,-1984,24,-534,89,-50
5790,160,-1960,8,-547,87,-44
5795,144,-1968,8,-559,84,-43
5800,144,-1976,24,-568,80,-37
5805,152,-1976,8,-580,76,-37
5810,152,-1960,24,-591,76,-33
5815,136,-1976,-8,-601,74,-34
5820,128,-1952,0,-612,72,-31
5825,152,-1984,8,-619,70,-32
5830,136,-1976,-32,-630,69,-29
5835,136,-1952,-24,-637,67,-28
5840,160,-1976,8,-647,67,-24
5845,120,-1960,-8,-651,64,-27
5850,136,-1960,0,-656,63,-24
5855,144,-1952,-56,-659,60,-24
5860,144,-1960,8,-663,59,-23
5865,128,-1968,8,-666,57,-23
5870,128,-1968,-16,-670,56,-22
5875,128,-1944,-56,-674,52,-25
5880,120,-1952,-40,-681,51,-24
5885,136,-1920,-64,-690,49,-27
5890,144,-1912,-24,-701,46,-26
5895,144,-1912,-104,-713,43,-29
5900,136,-1928,-72,-726,40,-29
5905,120,-1920,-64,-740,37,-32
5910,152,-1912,-80,-754,33,-33
5915,120,-1904,-64,-765,28,-37
5920,120,-1912,-120,-778,21,-38
5925,136,-1904,-104,-794,18,-43
5930,144,-1904,-104,-806,13,-44
5935,128,-1912,-152,-816,9,-48
5940,128,-1928,-160,-826,4,-48
5945,144,-1896,-152,-835,-2,-53
5950,160,-1920,-168,-841,-7,-52
5955,152,-1912,-184,-849,-13,-54
5960,160,-1928,-208,-856,-18,-53
5965,152,-1920,-200,-860,-24,-56
5970,160,-1928,-232,-869,-26,-54
5975,152,-1928,-184,-877,-30,-57
5980,168,-1928,-224,-885,-33,-56
5985,168,-1944,-240,-896,-33,-59
5990,160,-1936,-248,-908,-34,-57
5995,176,-1944,-264,-920,-36,-57
6000,184,-1928,-272,-932,-36,-55
6005,184,-1952,-288,-945,-40,-58
6010,168,-1944,-264,-962,-40,-55
6015,176,-1944,-296,-976,-39,-56
6020,160,-1912,-304,-992,-38,-53
6025,184,-1936,-320,-1009,-39,-56
6030,168,-1936,-328,-1026,-39,-54
6035,192,-1936,-320,-1043,-39,-55
6040,216,-1912,-344,-1060,-37,-53
6045,168,-1920,-384,-1078,-38,-54
6050,184,-1920,-376,-1096,-40,-52
6055,200,-1888,-384,-1115,-42,-53
6060,184,-1896,-400,-1134,-44,-49
6065,176,-1888,-400,-1153,-48,-51
6070,184,-1880,-392,-1170,-52,-51
6075,208,-1888,-440,-1190,-54,-54
6080,208,-1872,-432,-1211,-57,-55
6085,184,-1848,-424,-1231,-59,-61
6090,208,-1872,-448,-1254,-62,-62
6095,200,-1824,-432,-1274,-68,-69
6100,248,-1840,-480,-1295,-73,-70
6105,200,-1832,-472,-1312,-77,-75
6110,216,-1816,-488,-1327,-80,-75
6115,216,-1792,-520,-1344,-85,-77
6120,192,-1808,-488,-1356,-86,-76
6125,224,-1792,-512,-1370,-88,-79
6130,216,-1776,-528,-1385,-92,-78
6135,224,-1768,-560,-1400,-98,-83
6140,216,-1792,-584,-1414,-103,-82
6145,208,-1792,-576,-1427,-110,-86
6150,192,-1768,-600,-1438,-113,-87
6155,248,-1792,-600,-1450,-119,-89
6160,248,-1776,-688,-1460,-119,-91
6165,240,-1800,-648,-1472,-121,-90
6170,240,-1776,-688,-1485,-128,-89
6175,208,-1752,-664,-1503,-131,-93
6180,232,-1768,-696,-1522,-136,-88
6185,232,-1736,-720,-1538,-140,-90
6190,208,-1720,-720,-1559,-145,-88
6195,224,-1728,-736,-1584,-151,-90
6200,184,-1696,-736,-1613,-155,-90
6205,184,-1688,-696,-1643,-159,-91
6210,192,-1672,-688,-1672,-168,-90
6215,176,-1664,-736,-1692,-175,-91
6220,152,-1656,-704,-1707,-185,-91
6225,144,-1640,-712,-1720,-196,-93
6230,104,-1632,-744,-1732,-211,-92
6235,112,-1632,-760,-1738,-228,-94
6240,96,-1640,-752,-1741,-243,-93
6245,96,-1680,-784,-1745,-259,-96
6250,88,-1664,-800,-1743,-273,-97
6255,64,-1680,-808,-1742,-289,-102
6260,72,-1672,-832,-1739,-314,-103
6265,72,-1688,-816,-1736,-335,-105
6270,96,-1688,-800,-1732,-357,-106
6275,88,-1704,-832,-1725,-382,-109
6280,72,-1680,-864,-1715,-408,-110
6285,80,-1688,-864,-1701,-439,-113
6290,64,-1688,-864,-1685,-471,-114
6295,48,-1680,-864,-1668,-506,-116
6300,48,-1680,-912,-1652,-545,-114
6305,32,-1648,-896,-1635,-595,-115
6310,24,-1632,-896,-1615,-639,-114
6315,24,-1616,-912,-1597,-682,-115
6320,48,-1592,-944,-1575,-720,-117
6325,32,-1592,-928,-1550,-753,-119
6330,80,-1576,-888,-1522,-781,-118
6335,80,-1536,-928,-1495,-803,-120
6340,120,-1496,-960,-1471,-819,-121
6345,160,-1480,-936,-1451,-830,-126
6350,216,-1448,-944,-1431,-834,-130
6355,256,-1416,-976,-1412,-829,-137
6360,288,-1344,-960,-1396,-824,-147
6365,328,-1328,-984,-1382,-817,-165
6370,376,-1240,-1040,-1371,-819,-198
6375,424,-1208,-1120,-1364,-798,-205
6380,440,-1176,-1128,-1355,-765,-205
6385,488,-1112,-1176,-1339,-733,-210
6390,488,-1064,-1296,-1319,-705,-214
6395,472,-1024,-1400,-1304,-672,-218
6400,488,-968,-1520,-1294,-630,-224
6405,488,-896,-1672,-1292,-593,-228
6410,496,-880,-1728,-1299,-557,-232
6415,456,-848,-1904,-1316,-523,-232
6420,432,-824,-2040,-1341,-491,-229
6425,416,-824,-2208,-1374,-471,-221
6430,424,-816,-2376,-1415,-454,-215
6435,384,-848,-2512,-1472,-440,-208
6440,368,-952,-2600,-1532,-428,-198
6445,352,-976,-2664,-1592,-413,-182
6450,312,-1064,-2712,-1665,-387,-166
6455,272,-1168,-2792,-1724,-365,-146
6460,232,-1232,-2872,-1790,-344,-127
6465,200,-1368,-2832,-1859,-323,-108
6470,128,-1464,-2800,-1924,-304,-92
6475,128,-1536,-2720,-1977,-294,-79
6480,152,-1568,-2656,-2014,-289,-73
6485,152,-1568,-2624,-2028,-287,-81
6490,120,-1576,-2560,-2027,-285,-91
6495,96,-1560,-2536,-2022,-282,-91
6500,32,-1496,-2592,-2025,-277,-87
6505,-8,-1448,-2592,-2037,-272,-74
6510,-32,-1456,-2616,-2040,-267,-69
6515,-16,-1464,-2640,-2026,-262,-61
6520,-16,-1440,-2680,-1994,-261,-56
6525,-40,-1440,-2720,-1969,-260,-50
6530,-88,-1416,-2776,-1963,-261,-51
6535,-96,-1376,-2768,-1980,-267,-51
6540,-112,-1336,-2760,-2015,-283,-52
6545,-120,-1312,-2688,-2072,-302,-47
6550,-184,-1288,-2600,-2120,-330,-48
6555,-200,-1264,-2496,-2159,-363,-49
6560,-240,-1272,-2400,-2184,-401,-57
6565,-240,-1280,-2248,-2190,-445,-60
6570,-280,-1296,-2120,-2177,-497,-66
6575,-272,-1296,-1984,-2147,-559,-65
6580,-288,-1288,-1856,-2102,-630,-66
6585,-264,-1280,-1680,-2053,-710,-67
6590,-264,-1264,-1520,-1984,-810,-67
6595,-272,-1240,-1448,-1928,-890,-57
6600,-256,-1240,-1352,-1879,-962,-48
6605,-248,-1248,-1216,-1826,-1022,-29
6610,-232,-1264,-1168,-1764,-1070,3
6615,-232,-1240,-1048,-1696,-1101,30
6620,-224,-1216,-1032,-1619,-1125,52
6625,-216,-1192,-992,-1531,-1135,74
6630,-216,-1144,-992,-1447,-1138,85
6635,-176,-1080,-984,-1374,-1139,95
6640,-184,-1040,-1000,-1304,-1126,98
6645,-184,-936,-1040,-1266,-1113,99
6650,-176,-848,-1056,-1246,-1105,75
6655,-168,-776,-1088,-1254,-1108,44
6660,-112,-696,-1104,-1279,-1120,-2
6665,-88,-688,-1104,-1310,-1138,-52
6670,-40,-672,-1160,-1314,-1146,-110
6675,-24,-664,-1184,-1271,-1144,-164
6680,-8,-648,-1216,-1185,-1148,-233
6685,8,-576,-1296,-1056,-1170,-276
6690,-48,-568,-1328,-954,-1199,-310
6695,-80,-552,-1376,-875,-1233,-330
6700,-144,-560,-1368,-833,-1277,-350
6705,-192,-552,-1376,-834,-1331,-366
6710,-280,-536,-1376,-887,-1398,-380
6715,-384,-496,-1320,-996,-1470,-393
6720,-504,-424,-1280,-1143,-1537,-416
6725,-592,-352,-1216,-1305,-1584,-437
6730,-632,-296,-1240,-1462,-1595,-466
6735,-680,-232,-1184,-1622,-1554,-475
6740,-736,-168,-1248,-1725,-1464,-477
6745,-792,-72,-1280,-1813,-1333,-458
6750,-800,-32,-1256,-1873,-1188,-432
6755,-768,0,-1264,-1901,-1047,-397
6760,-816,24,-1208,-1892,-929,-364
6765,-784,48,-1144,-1851,-854,-318
6770,-744,64,-1088,-1794,-842,-272
6775,-640,96,-1088,-1733,-890,-205
6780,-592,112,-1040,-1678,-1004,-155
6785,-528,176,-1024,-1639,-1127,-103
6790,-488,248,-1088,-1592,-1265,-51
6795,-392,336,-1152,-1537,-1408,6
6800,-376,400,-1168,-1479,-1534,54
6805,-424,440,-1192,-1424,-1648,102
6810,-512,464,-1312,-1361,-1767,137
6815,-616,480,-1416,-1309,-1888,171
6820,-720,544,-1456,-1286,-2028,207
6825,-808,504,-1576,-1289,-2239,247
6830,-912,496,-1656,-1293,-2444,255
6835,-1120,440,-1752,-1224,-2695,238
6840,-1200,368,-1792,-1103,-2979,183
6845,-1192,408,-1984,-927,-3237,115
6850,-1432,344,-2000,-694,-3415,112
6855,-1856,400,-2144,-453,-3639,98
6860,-2032,264,-2080,-295,-3882,98
6865,-1608,-112,-2288,-198,-4067,31
6870,-2176,280,-2488,-5,-4091,-252
6875,-2192,456,-2240,289,-4074,-351
6880,-2184,392,-2000,582,-4049,-450
6885,-3328,808,-2096,876,-4042,-644
6890,-3824,1064,-2440,887,-4029,-767
6895,-3952,1352,-2296,694,-3815,-820
6900,-5136,2976,-1856,584,-3485,-713
6905,-6808,4440,-2104,324,-3380,-5
6910,-5288,3288,-3520,-209,-3273,1134
6915,-3960,2264,-2816,-427,-2483,1490
6920,-3176,1928,-2512,-31,-1781,834
6925,-2376,2152,-2648,778,-1885,264
6930,-2120,2760,-2952,1363,-2320,4
6935,-1488,4352,-4072,1946,-2783,-14
6940,-1304,7832,-5320,2489,-3128,43
6945,-1112,856,-3792,2760,-3601,-128
6950,-1232,496,-3160,1768,-3998,-227
6955,-1456,992,-2592,499,-4235,-56
6960,-1648,960,-1968,-360,-4380,63
6965,-1608,-40,-1336,-854,-4499,48
6970,-1656,672,-1360,-914,-4530,-6
6975,-2104,1440,-1560,-790,-4499,-111
6980,-2536,2088,-1696,-707,-4490,-226
6985,-2976,2440,-1584,-708,-4515,-389
6990,-3200,2352,-1392,-762,-4505,-536
6995,-3224,2136,-1280,-832,-4394,-612
7000,-3376,1864,-1152,-936,-4170,-622
7005,-3448,1592,-1048,-1059,-3907,-549
7010,-3480,1376,-1024,-1098,-3680,-424
7015,-3376,1096,-1112,-1025,-3472,-229
7020,-3224,928,-1208,-891,-3348,-66
7025,-3056,688,-1272,-714,-3263,90
7030,-2896,464,-1224,-510,-3225,227
7035,-2752,224,-1144,-311,-3226,347
7040,-2600,112,-1048,-124,-3253,447
7045,-2616,48,-936,29,-3270,539
7050,-2568,-16,-744,131,-3265,618
7055,-2640,-96,-520,200,-3252,692
7060,-2544,-64,-360,257,-3257,763
7065,-2400,-168,-136,308,-3228,794
7070,-2072,-136,-72,338,-3143,796
7075,-1840,-264,208,338,-2991,744
7080,-1632,-232,352,380,-2820,636
7085,-1496,-328,648,474,-2616,505
7090,-1200,-352,688,652,-2409,375
7095,-1120,-344,872,823,-2168,264
7100,-1016,-352,1040,972,-1943,169
7105,-872,-296,1080,1106,-1747,113
7110,-792,-240,1048,1240,-1528,90
7115,-696,-160,1016,1309,-1376,89
7120,-656,-32,920,1294,-1260,106
7125,-624,16,736,1213,-1179,125
7130,-760,48,600,1092,-1141,140
7135,-816,184,360,943,-1174,125
7140,-848,384,80,745,-1303,70
7145,-952,520,-80,486,-1490,5
7150,-920,520,-88,217,-1696,-46
7155,-1024,480,40,5,-1900,-92
7160,-1216,408,176,-77,-2019,-121
7165,-1384,280,264,8,-2075,-131
7170,-1544,208,344,168,-2051,-128
7175,-1664,136,464,347,-1959,-120
7180,-1696,104,560,509,-1830,-122
7185,-1792,32,696,636,-1682,-130
7190,-1816,40,784,743,-1526,-145
7195,-1872,32,920,817,-1380,-155
7200,-1912,56,1008,840,-1237,-138
7205,-1944,80,1072,801,-1150,-111
7210,-1920,80,1112,723,-1086,-88
7215,-1888,112,1152,615,-1041,-69
7220,-1880,200,1128,496,-1001,-56
7225,-1920,200,1120,378,-958,-41
7230,-1904,240,1088,273,-910,-27
7235,-1920,360,992,180,-842,-14
7240,-1880,424,912,101,-761,-5
7245,-1808,536,808,35,-673,-18
7250,-1760,632,744,-39,-550,-37
7255,-1744,680,736,-86,-445,-64
7260,-1704,664,720,-105,-351,-84
7265,-1672,648,792,-101,-271,-96
7270,-1632,640,728,-81,-207,-101
7275,-1600,584,816,-58,-156,-102
7280,-1584,504,800,-32,-126,-91
7285,-1568,488,840,-11,-102,-79
7290,-1560,448,840,7,-84,-63
7295,-1576,384,840,18,-61,-49
7300,-1592,344,888,19,-35,-29
7305,-1616,280,928,19,-14,-18
7310,-1592,256,944,57,-27,-17
7315,-1672,224,800,157,-95,-29
7320,-1656,248,608,311,-243,-28
7325,-1624,248,536,402,-365,-42
7330,-1768,264,632,389,-386,-63
7335,-1808,232,768,355,-361,-72
7340,-1872,272,800,337,-336,-72
7345,-1896,280,720,320,-315,-79
7350,-1952,384,816,322,-310,-94
7355,-1904,360,608,314,-297,-105
7360,-1976,336,584,282,-260,-97
7365,-1968,344,672,245,-200,-88
7370,-1928,336,656,193,-73,-65
7375,-1976,272,768,137,92,-45
7380,-1920,376,784,85,283,-34
7385,-1880,320,872,20,511,-25
7390,-1928,408,944,-21,777,-14
7395,-1872,384,800,-49,946,-16
7400,-1832,448,752,-76,1075,-19
7405,-1888,464,648,-100,1176,-29
7410,-1840,488,536,-113,1224,-35
7415,-1832,504,616,-148,1261,-55
7420,-1880,496,544,-188,1284,-71
7425,-1848,488,368,-213,1269,-88
7430,-1912,496,336,-231,1220,-104
7435,-1920,456,304,-243,1160,-122
7440,-1928,384,312,-244,1073,-133
7445,-1984,384,288,-237,998,-148
7450,-2000,368,240,-223,932,-155
7455,-2040,288,224,-202,874,-166
7460,-2016,264,128,-184,822,-169
7465,-2056,240,120,-157,775,-174
7470,-2096,200,176,-129,727,-175
7475,-2096,208,168,-119,686,-178
7480,-2128,184,152,-111,648,-174
7485,-2144,216,160,-101,601,-171
7490,-2112,184,144,-92,561,-162
7495,-2112,144,176,-86,524,-155
7500,-2120,184,160,-77,483,-147
7505,-2112,216,160,-75,444,-145
7510,-2120,184,168,-79,413,-136
7515,-2088,200,192,-87,385,-132
7520,-2080,192,184,-93,359,-122
7525,-2088,216,232,-98,338,-116
7530,-2088,224,232,-99,319,-105
7535,-2064,232,232,-94,302,-100
7540,-2080,216,232,-86,291,-90
7545,-2096,240,224,-76,278,-86
7550,-2064,216,216,-66,267,-80
7555,-2096,248,184,-56,255,-76
7560,-2128,224,184,-48,242,-71
7565,-2128,208,200,-39,229,-70
7570,-2008,192,176,-32,220,-64
7575,-2128,232,208,-30,208,-66
7580,-2104,240,216,-27,192,-59
7585,-2136,224,224,-34,178,-58
7590,-2128,232,184,-39,166,-53
7595,-2136,208,200,-43,153,-49
7600,-2144,200,240,-49,145,-42
7605,-2112,200,224,-58,135,-38
7610,-2136,200,240,-68,127,-30
7615,-2136,208,184,-75,118,-28
7620,-2136,232,200,-83,108,-21
7625,-2128,216,224,-89,101,-19
7630,-2120,232,192,-95,93,-13
7635,-2128,224,240,-99,86,-14
7640,-2120,216,232,-103,78,-9
7645,-2096,232,216,-105,71,-11
7650,-2112,264,208,-106,62,-6
7655,-2080,248,240,-106,54,-8
7660,-2112,232,232,-106,45,-7
7665,-2104,240,248,-103,34,-8
7670,-2072,256,240,-103,24,-6
7675,-2072,256,208,-102,11,-6
7680,-2120,208,240,-104,4,-5
7685,-2120,224,216,-96,-7,-6
7690,-2120,224,224,-89,-19,-1
7695,-2120,200,248,-84,-26,1
7700,-2104,200,232,-81,-35,8
7705,-2112,240,216,-79,-40,10
7710,-2104,200,256,-73,-51,14
7715,-2104,232,240,-71,-62,14
7720,-2104,240,248,-70,-75,18
7725,-2080,216,248,-69,-88,21
7730,-2048,224,256,-68,-98,24
7735,-2056,224,256,-68,-109,24
7740,-2048,200,272,-71,-121,25
7745,-2048,200,264,-73,-134,25
7750,-2048,184,296,-71,-146,26
7755,-2072,184,272,-67,-156,23
7760,-2048,176,288,-61,-164,23
7765,-2056,176,296,-55,-170,21
7770,-2056,168,288,-47,-177,21
7775,-2048,200,320,-39,-178,16
7780,-2040,192,288,-33,-177,15
7785,-2024,208,336,-25,-174,12
7790,-2008,200,328,-17,-169,9
7795,-1968,192,376,-8,-165,5
7800,-1928,200,376,2,-158,5
7805,-1944,208,400,10,-149,4
7810,-1912,176,392,21,-142,8
7815,-1912,232,448,25,-134,9
7820,-1904,200,480,27,-128,11
7825,-1928,248,448,28,-121,11
7830,-1944,248,448,29,-116,9
7835,-1960,240,416,30,-106,4
7840,-1968,232,416,33,-96,-2
7845,-2016,240,384,37,-86,-9
7850,-2048,240,360,41,-75,-13
7855,-2064,240,328,42,-65,-17
7860,-2080,232,344,39,-56,-17
7865,-2096,232,368,34,-50,-15
7870,-2080,224,328,26,-48,-12
7875,-2096,216,352,21,-46,-8
7880,-2056,224,368,17,-44,-4
7885,-2048,208,360,14,-43,2
7890,-2064,200,376,13,-40,4
7895,-2048,192,376,11,-38,6
7900,-2048,224,392,8,-35,9
7905,-2032,240,392,5,-29,9
7910,-2032,256,416,-1,-22,12
7915,-2000,232,416,-7,-9,11
7920,-2024,272,440,-13,3,9
7925,-1984,272,448,-17,17,7
7930,-1992,264,464,-20,29,4
7935,-2032,256,464,-23,43,0
7940,-2008,288,472,-24,58,-6
7945,-2000,280,464,-25,73,-11
7950,-1984,272,456,-24,86,-15
7955,-2000,264,464,-24,98,-19
7960,-1984,264,440,-26,108,-21
7965,-1968,288,424,-27,118,-21
7970,-2000,272,400,-30,123,-22
7975,-2000,296,392,-34,127,-22
7980,-2016,248,376,-40,131,-24
7985,-2000,256,376,-47,135,-24
7990,-2008,256,368,-52,140,-26
7995,-2008,248,360,-57,145,-28
8000,-2016,232,376,-62,150,-29
8005,-2000,248,368,-67,157,-30
8010,-2000,240,408,-72,164,-32
8015,-2016,240,392,-74,171,-32
8020,-2008,256,376,-74,178,-34
8025,-1992,232,360,-76,184,-35
8030,-1992,224,368,-75,188,-37
8035,-2016,240,360,-78,193,-39
8040,-2008,224,376,-80,198,-43
8045,-1992,248,360,-80,201,-44
8050,-2016,256,352,-77,201,-47
8055,-1984,224,328,-75,201,-46
8060,-1992,224,376,-73,198,-48
8065,-1992,240,360,-72,197,-48
8070,-1984,232,376,-72,192,-52
8075,-1984,248,344,-71,185,-51
8080,-2016,232,328,-69,180,-52
8085,-2024,216,344,-66,175,-52
8090,-2024,224,344,-66,171,-53
8095,-2016,224,328,-62,167,-54
8100,-2024,208,320,-61,161,-55
8105,-2032,224,296,-60,157,-54
8110,-2024,168,328,-59,153,-58
8115,-2056,200,288,-61,148,-57
8120,-2056,216,288,-62,143,-59
8125,-2072,216,328,-59,139,-58
8130,-2064,208,296,-58,136,-59
8135,-2088,240,304,-55,134,-56
8140,-2040,176,312,-52,132,-56
8145,-2032,176,304,-49,127,-52
8150,-2064,200,312,-49,121,-50
8155,-2072,200,288,-51,114,-45
8160,-2048,192,304,-54,107,-43
8165,-2048,192,304,-57,101,-39
8170,-2064,208,296,-60,96,-38
8175,-2056,200,304,-61,92,-36
8180,-2064,192,304,-60,89,-36
8185,-2080,208,312,-59,86,-31
8190,-2072,176,296,-58,85,-32
8195,-2056,208,288,-58,84,-28
8200,-2040,168,304,-55,83,-29
8205,-2080,168,320,-53,84,-25
8210,-2048,176,336,-49,84,-25
8215,-2048,208,280,-45,88,-22
8220,-2056,168,272,-41,87,-21
8225,-2072,184,328,-37,87,-18
8230,-2048,160,288,-35,87,-20
8235,-2040,168,312,-33,85,-17
8240,-2040,168,328,-35,84,-19
8245,-2040,192,328,-38,82,-17
8250,-2048,208,320,-39,81,-21
8255,-2040,208,328,-40,80,-17
8260,-2024,200,320,-39,81,-21
8265,-2032,216,312,-36,81,-16
8270,-2040,176,328,-31,85,-16
8275,-2048,208,336,-27,89,-12
8280,-2056,184,304,-24,94,-13
8285,-2056,176,304,-21,100,-10
8290,-2080,184,320,-18,109,-9
8295,-2064,168,320,-15,121,-6
8300,-2056,168,336,-12,135,-8
8305,-2072,192,312,-8,148,-4
8310,-2064,176,312,-3,164,-5
8315,-2064,152,320,-1,178,-2
8320,-2032,176,320,-2,187,-3
8325,-2016,192,320,0,195,2
8330,-1992,184,304,4,196,2
8335,-2024,184,304,5,191,8
8340,-1992,200,304,5,181,10
8345,-1992,216,288,0,166,15
8350,-1984,184,312,-5,147,15
8355,-2000,216,288,-10,127,18
8360,-2032,232,280,-16,107,16
8365,-2008,232,264,-21,89,17
8370,-2024,216,280,-27,73,12
8375,-2024,208,296,-29,61,13
8380,-2040,232,288,-31,54,9
8385,-2064,200,304,-30,51,8
8390,-2088,208,272,-29,53,5
8395,-2072,192,272,-26,55,6
8400,-2080,208,272,-24,62,4
8405,-2056,216,312,-21,68,7
8410,-2056,200,296,-21,74,4
8415,-2064,216,312,-24,77,7
8420,-2056,208,304,-25,79,5
8425,-2072,232,304,-27,81,7
8430,-2056,216,304,-29,82,5
8435,-2024,208,304,-32,84,5
8440,-2024,232,312,-34,84,1
8445,-2008,200,296,-36,84,0
8450,-2024,240,304,-37,82,-4
8455,-2016,240,320,-38,81,-6
8460,-2016,224,296,-38,79,-10
8465,-2024,224,320,-36,76,-11
8470,-2016,200,304,-36,76,-14
8475,-2008,184,288,-35,73,-13
8480,-2032,216,320,-32,70,-16
8485,-2024,192,312,-30,67,-15
8490,-2024,176,272,-28,65,-16
8495,-2024,208,296,-27,64,-14
8500,-2040,208,280,-27,63,-14
8505,-2032,224,296,-26,62,-12
8510,-2040,200,272,-24,61,-12
8515,-2024,184,296,-23,59,-11
8520,-2040,208,328,-21,60,-12
8525,-2016,200,312,-20,60,-11
8530,-2080,216,296,-18,60,-11
8535,-2040,192,280,-18,61,-9
8540,-2040,208,296,-20,63,-10
8545,-2048,200,288,-22,63,-8
8550,-2064,192,336,-25,64,-9
8555,-2032,224,312,-25,66,-7
8560,-2040,208,288,-25,68,-7
8565,-2040,208,312,-26,70,-5
8570,-2040,176,296,-27,71,-5
8575,-2048,208,328,-29,73,-6
8580,-2032,192,296,-29,75,-6
8585,-2048,216,288,-29,76,-4
8590,-2048,208,304,-32,76,-6
8595,-2040,184,288,-32,77,-6
8600,-2064,160,312,-34,79,-7
8605,-2032,168,296,-35,79,-7
8610,-2056,184,304,-36,79,-8
8615,-2048,192,304,-36,81,-7
8620,-2064,184,304,-38,80,-8
8625,-2048,192,304,-40,81,-8
8630,-2056,192,280,-42,80,-9
8635,-2048,200,248,-43,78,-10
8640,-2048,216,272,-45,76,-9
8645,-2024,200,272,-50,73,-9
8650,-2040,192,280,-55,70,-8
8655,-2032,184,280,-57,67,-6
8660,-2048,192,280,-61,62,-6
8665,-2048,192,272,-63,61,-3
8670,-2040,184,288,-63,58,-1
8675,-2040,176,288,-62,60,-2
8680,-2032,192,304,-59,59,1
8685,-2032,192,320,-57,60,2
8690,-2064,192,304,-54,63,4
8695,-2040,200,312,-49,66,5
8700,-2032,184,328,-44,69,5
8705,-2024,200,296,-39,76,5
8710,-2056,192,328,-34,82,6
8715,-2040,208,296,-33,86,4
8720,-2032,208,280,-30,87,4
8725,-2056,208,304,-28,89,2
8730,-2048,192,296,-28,90,2
8735,-2040,216,304,-27,88,1
8740,-2048,208,272,-27,85,1
8745,-2024,192,280,-24,82,-1
8750,-2040,208,288,-24,77,0
8755,-2056,200,272,-23,73,0
8760,-2072,216,248,-24,68,-1
8765,-2032,200,272,-25,65,-2
8770,-2040,192,272,-23,60,-2
8775,-2032,216,304,-23,58,-4
8780,-2024,208,272,-20,55,-3
8785,-2032,208,296,-18,53,-4
8790,-2040,200,264,-16,50,-3
8795,-2024,184,280,-17,48,-2
8800,-2048,176,288,-14,45,-2
8805,-2040,192,248,-12,43,-1
8810,-2040,200,304,-9,42,-1
8815,-2040,200,296,-8,41,-3
8820,-2048,200,320,-7,41,-2
8825,-2032,200,304,-8,42,-5
8830,-2048,216,296,-9,42,-5
8835,-2040,216,288,-13,40,-7
8840,-2032,208,312,-17,41,-6
8845,-2040,200,328,-19,44,-8
8850,-2048,200,320,-22,44,-9
8855,-2048,192,336,-23,46,-10
8860,-2024,192,288,-22,52,-8
8865,-2048,192,312,-19,54,-10
8870,-2032,168,336,-17,57,-6
8875,-2032,176,320,-14,59,-7
8880,-2040,176,296,-10,60,-4
8885,-2048,208,304,-8,62,-6
8890,-2048,208,288,-6,65,-2
8895,-2032,200,256,-6,64,-5
8900,-2048,208,304,-3,64,-5
8905,-2064,200,280,-1,63,-7
8910,-2064,216,264,-1,60,-5
8915,-2064,216,280,-2,56,-6
8920,-2040,200,264,-4,53,-6
8925,-2040,200,256,-5,50,-7
8930,-2032,176,280,-8,46,-6
8935,-2040,184,288,-10,44,-7
8940,-2016,200,256,-10,44,-4
8945,-2040,192,312,-13,42,-5
8950,-2040,208,280,-16,44,-2
8955,-2056,216,312,-18,45,-5
8960,-2000,208,328,-20,46,-2
8965,-2016,216,320,-22,45,-4
8970,-2024,216,320,-26,48,-2
8975,-2032,216,296,-29,50,-4
8980,-2032,216,320,-33,53,-3
8985,-2024,200,336,-37,53,-7
8990,-2024,192,336,-41,55,-7
8995,-2016,184,296,-42,58,-9
9000,-2032,200,312,-43,62,-8
9005,-2032,184,328,-43,66,-11
9010,-2016,184,352,-40,69,-9
9015,-2048,176,288,-38,72,-14
9020,-2040,176,304,-35,77,-10
9025,-2040,184,288,-32,82,-12
9030,-2056,168,296,-30,85,-10
9035,-2024,160,280,-27,89,-8
9040,-2040,168,296,-25,91,-3
9045,-2056,168,296,-21,89,-3
9050,-2072,192,272,-20,86,2
9055,-2072,184,232,-17,84,0
9060,-2064,192,272,-14,80,5
9065,-2032,184,256,-12,76,1
9070,-2024,184,272,-14,70,4
9075,-2048,200,264,-13,65,0
9080,-2064,216,296,-13,60,2
9085,-2072,192,256,-14,57,-1
9090,-2024,208,296,-15,52,2
9095,-2056,176,280,-16,49,-1
9100,-2056,208,320,-16,47,0
9105,-2048,200,288,-16,48,-4
9110,-2056,192,296,-16,49,-3
9115,-2048,192,304,-15,47,-5
9120,-2032,208,320,-14,48,-3
9125,-2048,184,304,-13,50,-5
9130,-1968,200,224,-13,50,-3
9135,-2040,184,288,-13,51,-5
9140,-2040,192,288,-12,53,-2
9145,-2024,200,272,-11,55,-3
9150,-2048,216,312,-12,54,-1
9155,-2032,192,272,-13,54,-3
9160,-2040,192,288,-13,53,-1
9165,-2048,192,272,-14,53,-3
9170,-2056,200,312,-15,50,1
9175,-2056,216,312,-15,49,-3
9180,-2024,192,304,-15,46,0
9185,-2032,200,288,-14,45,-4
9190,-2024,192,304,-12,43,-2
9195,-2024,192,296,-13,43,-3
9200,-2032,184,320,-12,41,-2
9205,-2040,192,296,-11,38,-4
9210,-2032,176,312,-12,38,-4
9215,-2040,216,312,-11,37,-5
9220,-2040,192,280,-12,37,-2
9225,-2040,192,336,-13,37,-4
9230,-2056,192,288,-15,36,-2
9235,-2064,192,320,-14,38,-3
9240,-2048,192,304,-16,40,0
9245,-2056,200,312,-16,41,-1
9250,-2088,192,264,-16,44,1
9255,-2040,192,296,-17,41,-1
9260,-2040,200,256,-16,42,2
9265,-2048,208,288,-17,42,2
9270,-2032,224,288,-19,40,5
9275,-2024,208,304,-22,38,3
9280,-2000,184,304,-26,33,6
9285,-2032,208,280,-32,28,7
9290,-2032,208,288,-39,20,10
9295,-2032,216,280,-45,12,10
9300,-2024,224,328,-48,7,15
9305,-2008,208,296,-53,1,13
9310,-2024,184,304,-57,-4,14
9315,-2040,216,304,-61,-8,12
9320,-2024,184,320,-64,-12,13
9325,-2032,192,328,-65,-13,11
9330,-2032,200,336,-64,-12,9
9335,-2048,200,352,-60,-10,7
9340,-2040,176,304,-58,-3,5
9345,-2040,208,352,-53,3,6
9350,-2048,192,352,-49,11,5
9355,-2048,200,312,-43,17,5
9360,-2064,216,328,-39,22,8
9365,-2040,176,304,-35,26,7
9370,-2072,176,312,-32,32,8
9375,-2072,176,296,-29,37,7
9380,-2056,184,304,-26,42,8
9385,-2032,160,320,-23,48,8
9390,-2032,168,288,-19,54,8
9395,-2040,160,320,-17,57,10
9400,-2048,192,312,-16,57,11
9405,-2032,160,304,-15,56,12
9410,-2032,200,336,-13,53,11
9415,-2056,208,272,-11,50,9
9420,-2040,192,328,-12,45,10
9425,-2040,192,328,-13,39,11
9430,-2040,200,312,-18,35,10
9435,-2048,192,312,-21,32,8
9440,-2040,176,352,-21,33,7
9445,-2048,192,320,-24,32,8
9450,-2024,200,296,-23,32,7
9455,-2048,208,312,-22,32,7
9460,-2056,208,320,-21,34,6
9465,-2032,160,328,-16,38,6
9470,-2032,184,336,-13,41,5
9475,-2040,192,328,-10,42,7
9480,-2040,208,328,-9,42,6
9485,-2024,184,360,-8,47,8
9490,-2032,184,320,-5,48,7
9495,-2024,176,312,-3,49,8
9500,-2032,168,320,-3,50,7
9505,-2048,200,312,-1,49,6
9510,-2016,200,328,0,50,4
9515,-2032,200,344,0,50,4
9520,-2040,200,320,1,51,1
9525,-2016,200,304,0,50,3
9530,-2040,200,296,1,50,1
9535,-2040,216,280,2,49,1
9540,-2048,208,320,0,47,0
9545,-2048,200,336,-1,46,2
9550,-2048,232,296,-3,42,0
9555,-2032,208,304,-5,40,1
9560,-2032,208,312,-6,39,0
9565,-2024,208,344,-6,40,2
9570,-2032,184,344,-7,39,-1
9575,-2032,200,304,-7,42,1
9580,-2040,200,328,-6,42,-1
9585,-2048,200,320,-5,44,1
9590,-2040,192,320,-5,45,-1
9595,-2032,184,328,-5,46,1
9600,-2040,200,336,-6,46,1
9605,-2056,208,304,-5,47,4
9610,-2032,208,320,-4,49,5
9615,-2032,184,336,-5,48,6
9620,-2032,216,336,-7,48,4
9625,-2048,216,336,-8,45,6
9630,-2016,216,328,-10,44,5
9635,-2040,200,304,-9,42,7
9640,-2008,200,328,-10,43,4
9645,-2032,192,352,-8,43,7
9650,-2024,200,336,-9,43,4
9655,-2040,208,328,-7,43,6
9660,-2032,184,328,-5,44,2
9665,-2016,200,320,-6,45,5
9670,-2032,192,344,-7,45,4
9675,-2032,200,320,-5,46,5
9680,-2024,208,344,-6,46,1
9685,-2048,192,328,-7,47,6
9690,-2032,216,344,-9,46,3
9695,-2040,192,360,-9,46,3
9700,-2040,200,320,-11,46,0
9705,-2056,200,320,-11,47,5
9710,-2040,176,336,-10,46,2
9715,-2032,176,312,-9,48,5
9720,-2064,184,336,-8,50,2
9725,-2032,192,320,-7,52,4
9730,-2032,200,328,-9,52,3
9735,-2048,192,344,-10,53,6
9740,-2032,184,344,-11,52,5
9745,-2024,200,360,-13,53,6
9750,-2008,192,320,-14,51,4
9755,-2040,192,328,-13,52,6
9760,-2032,184,344,-10,50,4
9765,-2000,216,320,-9,45,6
9770,-2008,176,344,-10,41,5
9775,-1992,184,336,-13,36,9
9780,-2016,192,344,-14,33,6
9785,-2024,184,336,-16,29,9
9790,-2032,192,320,-14,25,8
9795,-2016,176,328,-16,22,11
9800,-2048,224,312,-16,18,8
9805,-2032,216,352,-21,15,9
9810,-2016,200,352,-22,14,7
9815,-2024,232,336,-24,11,9
9820,-2040,240,344,-28,11,3
9825,-2008,232,352,-30,10,3
9830,-2016,192,352,-34,11,-1
9835,-2040,232,336,-36,12,0
9840,-2016,200,392,-38,13,-4
9845,-2040,240,352,-40,19,-1
9850,-2008,208,344,-42,26,-7
9855,-2016,224,368,-42,32,-5
9860,-2040,224,376,-41,38,-8
9865,-2016,208,368,-40,45,-8
9870,-2024,192,376,-38,52,-9
9875,-2024,208,384,-34,60,-7
9880,-2024,200,344,-33,68,-11
9885,-2032,200,360,-28,78,-7
9890,-2056,192,336,-22,85,-9
9895,-2040,200,328,-17,92,-4
9900,-2040,160,336,-14,96,-4
9905,-2032,192,336,-11,99,-1
9910,-2056,192,328,-8,100,-2
9915,-2032,200,296,-7,101,1
9920,-2040,208,312,-7,98,0
9925,-2048,200,320,-7,94,4
9930,-2048,200,296,-8,90,2
9935,-2040,240,312,-8,83,5
9940,-2040,208,296,-10,76,4
9945,-2040,216,312,-12,66,4
9950,-2040,208,336,-13,60,2
9955,-2040,200,328,-14,53,2
9960,-2040,224,328,-16,47,-1
9965,-2064,216,312,-18,43,0
9970,-2032,200,352,-19,39,-2
9975,-2040,200,312,-18,34,0
9980,-2032,192,352,-19,35,-3
9985,-2032,192,336,-15,35,-1
9990,-2032,208,352,-14,38,-4
9995,-2024,184,304,-14,38,-3
10000,-2040,208,344,-14,41,-5
10005,-2016,200,360,-12,44,-4
10010,-2040,192,296,-12,46,-4
10015,-2040,216,320,-9,51,-5
10020,-2040,232,336,-10,51,-5
10025,-2016,192,352,-9,50,-3
10030,-2024,184,336,-6,50,-4
10035,-2016,160,336,-5,50,-1
10040,-2032,192,336,-3,48,0
10045,-2024,192,320,0,47,1
10050,-2040,200,344,-1,44,2
10055,-2024,208,360,0,40,1
10060,-2040,208,336,-2,38,2
10065,-2032,216,280,-6,38,2
10070,-2032,184,344,-7,36,1
10075,-2024,192,352,-7,35,3
10080,-2032,216,368,-7,37,2
10085,-2016,200,376,-8,34,3
10090,-2024,224,352,-8,31,5
10095,-2024,208,352,-9,30,5
10100,-2032,184,336,-10,29,5
10105,-2032,208,344,-11,30,7
10110,-2040,216,360,-11,31,7
10115,-2024,208,344,-10,30,6
10120,-2016,208,360,-11,32,6
10125,-2024,200,344,-12,34,7
10130,-2072,208,352,-13,35,6
10135,-2032,200,312,-13,38,6
10140,-2040,192,344,-13,39,6
10145,-2016,192,336,-13,41,4
10150,-2048,216,328,-8,42,5
10155,-2016,224,336,-6,41,5
10160,-2032,200,360,-6,42,6
10165,-2008,200,352,-8,40,5
10170,-2024,192,360,-8,43,6
10175,-2032,208,336,-6,43,6
10180,-2056,208,360,-4,44,8
10185,-2024,200,376,-2,45,7
10190,-2032,208,336,-1,47,7
10195,-2008,152,352,0,48,5
10200,-2024,184,344,2,47,6
10205,-2016,192,352,4,46,4
10210,-2032,192,336,2,46,6
10215,-2032,200,336,1,44,5
10220,-1992,192,352,-1,42,4
10225,-2032,200,360,-2,39,4
10230,-2032,200,344,-4,38,4
10235,-2032,192,352,-5,36,2
10240,-2008,192,352,-3,36,3
10245,-2016,200,352,-3,35,1
10250,-2024,200,376,-3,38,2
10255,-2016,216,376,-2,38,2
10260,-2056,216,352,0,39,4
10265,-2048,208,376,1,39,3
10270,-2040,208,352,1,39,5
10275,-2016,200,352,0,39,5
10280,-2024,216,376,0,41,6
10285,-2024,192,352,0,41,4
10290,-2016,208,336,-2,44,5
10295,-2024,216,376,-1,45,6
10300,-2040,240,344,1,45,8
10305,-2048,216,376,-1,44,7
10310,-2016,184,344,-3,44,10
10315,-2024,216,392,-6,43,8
10320,-2032,192,384,-8,44,8
10325,-2024,224,368,-9,45,5
10330,-2032,184,376,-10,46,7
10335,-2024,216,344,-10,47,5
10340,-2016,224,352,-10,47,7
10345,-2000,208,352,-8,46,5
10350,-2016,200,352,-9,46,7
10355,-2024,240,344,-9,47,5
10360,-2032,200,352,-7,48,7
10365,-2024,216,328,-4,46,6
10370,-2016,200,360,-5,45,7
10375,-1992,216,360,-4,44,5
10380,-2008,200,352,-9,44,8
10385,-2032,208,368,-11,42,6
10390,-2024,216,336,-13,43,5
10395,-2040,232,352,-15,42,2
10400,-2024,240,328,-14,43,3
10405,-2032,208,376,-17,43,1
10410,-2032,200,360,-18,44,2
10415,-2032,208,336,-17,46,0
10420,-2032,184,344,-17,46,2
10425,-2056,216,344,-17,51,-1
10430,-2016,192,368,-16,52,2
10435,-2056,224,344,-14,54,-1
10440,-2048,208,336,-12,54,4
10445,-2040,216,344,-11,56,2
10450,-2040,208,352,-9,57,5
10455,-2048,216,320,-6,57,5
10460,-2032,232,376,-6,57,7
10465,-2040,224,352,-4,56,6
10470,-2048,216,352,-3,55,10
10475,-2008,200,344,-3,56,8
10480,-2000,200,352,-1,56,10
10485,-2040,216,344,3,56,8
10490,-2032,232,360,3,51,13
10495,-2048,224,328,2,50,12
10500,-2032,224,336,3,49,18
10505,-2056,200,360,7,47,17
10510,-2048,224,360,12,48,21
10515,-2048,192,360,19,49,22
10520,-2024,184,344,26,49,27
10525,-2064,208,360,32,52,26
10530,-2040,200,352,39,53,30
10535,-2064,184,312,42,56,27
10540,-2040,224,328,43,55,30
10545,-2032,224,360,42,55,27
10550,-2016,216,368,42,52,30
10555,-2024,208,368,42,49,28
10560,-2040,224,368,36,46,29
10565,-2024,216,368,31,42,25
10570,-2000,224,360,28,38,27
10575,-2032,216,400,23,35,24
10580,-2032,208,368,20,34,24
10585,-2016,216,384,18,35,20
10590,-2008,216,368,18,37,20
10595,-2016,208,368,20,41,17
10600,-2032,232,344,21,43,18
10605,-2000,232,384,22,45,14
10610,-2024,232,360,23,49,16
10615,-2024,224,368,24,49,13
10620,-2008,256,344,24,48,15
10625,-2000,224,360,21,47,12
10630,-1976,192,376,17,47,13
10635,-2016,232,384,14,45,7
10640,-2008,256,360,14,41,8
10645,-2008,216,368,9,39,6
10650,-2016,232,376,4,37,5
10655,-2008,232,360,-2,34,3
10660,-2000,224,392,-5,33,2
10665,-2000,216,400,-8,35,-1
10670,-2024,200,392,-9,37,0
10675,-2032,232,384,-7,41,-2
10680,-2024,232,360,-5,46,-3
10685,-2032,232,384,-6,52,-5
10690,-2024,224,392,-5,58,-3
10695,-2040,208,376,-4,64,-7
10700,-2048,224,368,-4,71,-5
10705,-2048,240,360,-4,77,-7
10710,-2024,232,376,-5,81,-6
10715,-2024,224,336,-5,83,-7
10720,-2024,232,368,-7,85,-6
10725,-2048,232,376,-8,85,-7
10730,-2040,232,344,-8,84,-5
10735,-2040,240,360,-7,82,-8
10740,-2032,216,376,-7,79,-7
10745,-2024,232,384,-8,76,-8
10750,-2016,240,336,-9,71,-8
10755,-2040,248,352,-11,68,-8
10760,-2016,240,352,-11,66,-10
10765,-2040,240,344,-12,63,-11
10770,-2016,232,360,-12,60,-9
10775,-2032,224,360,-11,60,-11
10780,-2032,224,360,-12,60,-11
10785,-2032,200,368,-11,63,-13
10790,-2032,208,376,-11,64,-12
10795,-2008,208,368,-11,68,-13
10800,-2032,248,368,-11,70,-12
10805,-2032,248,376,-12,71,-13
10810,-2024,232,360,-12,74,-13
10815,-2032,232,336,-11,77,-13
10820,-2032,208,336,-11,78,-12
10825,-2024,208,384,-10,80,-11
10830,-2040,232,344,-8,80,-11
10835,-2032,248,344,-8,81,-12
10840,-2008,224,368,-9,81,-10
10845,-2048,224,384,-9,79,-10
10850,-2032,224,336,-10,78,-10
10855,-2040,248,352,-12,77,-8
10860,-2016,232,360,-12,74,-6
10865,-2024,232,376,-14,73,-6
10870,-2048,240,352,-15,71,-7
10875,-2048,216,328,-15,70,-5
10880,-2056,208,360,-14,70,-5
10885,-2040,216,392,-12,72,-5
10890,-2032,208,320,-13,73,-5
10895,-2016,216,376,-13,75,-5
10900,-2032,208,376,-11,77,-6
10905,-2032,216,368,-10,78,-4
10910,-2024,224,360,-9,78,-6
10915,-2032,192,368,-8,78,-6
10920,-2024,224,360,-5,78,-6
10925,-2032,216,360,-4,75,-4
10930,-2024,216,368,-3,73,-6
10935,-2016,216,352,0,71,-3
10940,-2016,224,384,0,70,-4
10945,-2016,216,344,-2,69,-3
10950,-2008,224,384,-4,67,-6
10955,-2032,232,344,-4,68,-5
10960,-2000,200,376,-7,67,-6
10965,-2032,240,368,-7,70,-5
10970,-2024,232,352,-7,71,-6
10975,-2008,208,352,-9,72,-5
10980,-2024,240,360,-6,73,-5
10985,-2016,224,344,-6,73,-4
10990,-2000,216,384,-8,74,-4
10995,-2000,208,352,-8,74,-4
11000,-2016,224,360,-8,73,-5
11005,-2008,208,336,-10,74,-2
11010,-2032,216,344,-11,75,-3
11015,-2016,232,328,-13,75,-1
11020,-2016,256,360,-13,75,-2
11025,-2032,224,352,-16,71,-1
11030,-2016,224,384,-18,69,-4
11035,-2008,216,344,-18,66,-3
11040,-2008,224,352,-18,63,-5
11045,-2008,232,384,-15,59,-5
11050,-2016,224,376,-14,55,-8
11055,-2016,232,368,-13,53,-8
11060,-2016,224,392,-11,51,-10
11065,-2008,192,368,-9,51,-11
11070,-2040,232,344,-5,53,-16
11075,-2048,224,392,-3,57,-18
11080,-2064,232,352,0,61,-21
11085,-2064,232,376,5,66,-21
11090,-2064,224,368,9,73,-26
11095,-2064,216,328,12,78,-25
11100,-2048,200,360,17,82,-28
11105,-2056,240,344,21,85,-26
11110,-2056,192,336,24,87,-27
11115,-2048,216,328,26,88,-24
11120,-2048,232,312,26,85,-23
11125,-2080,224,336,24,83,-20
11130,-2056,216,344,21,80,-19
11135,-2040,208,336,19,75,-15
11140,-2048,192,320,16,71,-15
11145,-2032,240,304,12,66,-12
11150,-2024,216,312,7,62,-13
11155,-2016,200,328,2,57,-8
11160,-2024,224,344,-1,55,-11
11165,-2000,200,360,-3,53,-7
11170,-2008,216,344,-3,52,-9
11175,-2024,192,392,-4,53,-5
11180,-2016,200,360,-2,53,-7
11185,-2008,184,376,-1,54,-2
11190,-2024,216,344,-3,54,-4
11195,-2024,224,352,-1,52,-1
11200,-2016,232,360,0,50,-4
11205,-2024,232,344,-1,51,-3
11210,-2008,240,344,-2,48,-8
11215,-2008,256,360,-2,45,-8
11220,-2016,240,352,-3,42,-11
11225,-2008,224,352,-4,40,-12
11230,-2024,216,336,-8,37,-16
11235,-2008,224,336,-10,35,-14
11240,-2000,200,416,-13,32,-17
11245,-2032,248,336,-14,32,-17
11250,-2016,248,368,-15,34,-17
11255,-2032,232,368,-15,35,-14
11260,-2024,216,360,-15,37,-15
11265,-2032,216,368,-16,39,-14
11270,-2032,200,352,-17,40,-15
11275,-2024,208,344,-17,42,-13
11280,-2032,216,384,-20,45,-15
11285,-2032,184,344,-19,47,-12
11290,-2024,208,336,-19,50,-14
11295,-2032,216,352,-21,51,-11
11300,-2024,224,360,-22,53,-12
11305,-2016,224,352,-24,55,-12
11310,-2008,224,368,-23,56,-15
11315,-2016,200,320,-24,58,-14
11320,-2016,232,344,-22,60,-15
11325,-2024,200,360,-22,63,-13
11330,-2024,224,360,-21,65,-15
11335,-2024,216,360,-20,68,-12
11340,-2048,232,352,-21,69,-14
11345,-2040,224,352,-18,69,-13
11350,-2016,224,336,-14,72,-16
11355,-2024,224,336,-12,74,-12
11360,-2040,208,352,-11,76,-12
11365,-2016,216,352,-9,78,-11
11370,-2040,208,360,-9,80,-12
11375,-2048,224,344,-8,80,-8
11380,-2040,208,336,-7,80,-9
11385,-2040,248,376,-9,82,-6
11390,-2024,208,352,-11,80,-7
11395,-2008,216,360,-11,77,-5
11400,-2040,216,352,-14,74,-6
11405,-2024,232,320,-15,70,-5
11410,-2040,232,344,-19,68,-5
11415,-2008,208,352,-20,65,-5
11420,-2016,224,368,-24,62,-6
11425,-2016,216,360,-24,60,-4
11430,-2016,208,376,-24,58,-7
11435,-2000,232,344,-22,57,-7
11440,-2016,200,344,-22,58,-9
11445,-2032,208,376,-21,58,-7
11450,-2024,216,344,-18,61,-9
11455,-2024,216,376,-17,63,-8
11460,-2000,200,360,-15,66,-10
11465,-2048,96,368,-14,70,-11
11470,-2056,104,416,-14,72,-11
11475,-2040,232,288,-12,74,-10
11480,-1960,184,376,-11,77,-11
11485,-2008,200,352,-13,78,-10
11490,-2048,224,344,-15,78,-11
11495,-2040,208,352,-16,77,-9
11500,-2048,224,352,-17,75,-10
11505,-2016,192,352,-16,72,-9
11510,-2000,216,352,-19,70,-10
11515,-2016,208,344,-20,67,-9
11520,-2024,232,360,-22,65,-9
11525,-2032,208,328,-23,60,-9
11530,-2024,208,360,-25,58,-9
11535,-2024,216,344,-26,55,-8
11540,-2032,208,344,-28,53,-9
11545,-2016,224,352,-30,53,-10
11550,-2032,216,328,-30,51,-9
11555,-2048,256,344,-32,51,-9
11560,-2032,208,336,-33,52,-9
11565,-2040,216,344,-35,54,-8
11570,-2032,224,336,-36,56,-9
11575,-2040,224,360,-37,58,-9
11580,-2024,216,352,-38,60,-9
11585,-2024,208,384,-38,62,-10
11590,-2032,192,368,-37,65,-9
11595,-2048,192,360,-36,70,-9
11600,-2024,184,352,-31,74,-8
11605,-2032,184,384,-29,77,-8
11610,-2048,200,328,-27,80,-6
11615,-2056,200,392,-24,86,-6
11620,-2056,184,352,-22,92,-5
11625,-2040,192,320,-19,96,-6
11630,-2040,176,320,-18,100,-5
11635,-2040,192,336,-15,104,-3
11640,-2048,200,336,-14,107,-2
11645,-2032,184,360,-13,108,-2
11650,-2032,184,336,-14,105,1
11655,-2040,200,344,-14,105,1
11660,-2040,208,304,-15,103,1
11665,-2040,184,304,-14,100,1
11670,-2048,192,320,-13,96,2
11675,-2024,184,328,-11,92,3
11680,-2040,232,368,-14,89,3
11685,-2024,208,352,-16,85,3
11690,-2016,216,352,-16,78,5
11695,-2016,232,344,-15,71,3
11700,-2000,224,344,-14,64,5
11705,-2008,216,344,-13,59,3
11710,-2016,224,360,-13,54,4
11715,-2024,216,360,-11,49,2
11720,-2008,208,352,-10,46,3
11725,-2016,200,336,-6,42,3
11730,-2016,232,352,-6,40,3
11735,-2024,224,360,-5,40,-1
11740,-2000,192,368,-6,41,1
11745,-2024,224,376,-8,41,-2
11750,-2032,224,328,-10,41,0
11755,-2024,216,360,-13,42,-3
11760,-2008,224,360,-16,44,-3
11765,-2024,232,368,-17,47,-4
11770,-2016,200,368,-19,50,-1
11775,-2024,200,352,-18,54,-3
11780,-2016,184,368,-16,57,-1
11785,-2024,192,344,-13,61,-2
11790,-2032,200,360,-11,65,-1
11795,-2016,208,352,-9,67,-2
11800,-2056,232,336,-8,69,1
11805,-2016,224,376,-8,69,-1
11810,-1992,216,344,-10,68,2
11815,-2032,208,344,-13,64,0
11820,-2024,208,352,-16,60,1
11825,-2000,200,376,-17,57,1
11830,-2024,200,344,-18,51,1
11835,-2032,224,336,-20,46,-3
11840,-2048,200,320,-20,42,-2
11845,-2016,208,336,-21,38,-4
11850,-2024,200,368,-22,34,-3
11855,-2024,216,336,-19,35,-6
11860,-2032,240,312,-19,33,-2
11865,-2040,208,344,-17,35,-6
11870,-2024,224,328,-17,33,-3
11875,-2040,208,352,-16,33,-6
11880,-2000,184,352,-13,33,-6
11885,-2032,192,352,-11,34,-8
11890,-2032,224,320,-8,35,-7
11895,-2056,200,328,-6,35,-9
11900,-2048,192,352,-3,38,-6
11905,-2056,192,352,-1,39,-8
11910,-2040,216,360,1,40,-4
11915,-2072,224,336,3,40,-7
11920,-2048,192,352,2,41,-4
11925,-2072,216,360,1,40,-7
11930,-2064,224,352,1,41,-4
11935,-2064,208,368,0,42,-7
11940,-2024,200,344,-1,42,-4
11945,-2048,200,328,-1,42,-7
11950,-2016,208,360,1,42,-4
11955,-2024,200,328,0,41,-6
11960,-2024,192,360,0,42,-3
11965,-2040,224,408,-1,41,-3
11970,-2024,200,368,-4,39,0
11975,-2032,192,328,-3,37,-1
11980,-2024,192,344,-2,36,2
11985,-2032,208,376,-3,35,0
11990,-2008,200,328,-3,33,2
11995,-2032,216,336,-4,31,1
12000,-2024,200,344,-5,31,3
12005,-2008,208,368,-7,30,1
12010,-2024,208,344,-7,29,3
12015,-2032,224,352,-8,29,2
12020,-2024,208,344,-11,31,5
12025,-2016,208,360,-11,30,4
12030,-2008,216,376,-12,32,6
12035,-2000,216,384,-12,32,5
12040,-2024,200,376,-12,33,6
12045,-2032,208,336,-15,36,4
12050,-1992,200,384,-16,36,6
12055,-2024,216,408,-17,38,5
12060,-1992,224,352,-16,39,7
12065,-2024,200,360,-16,42,2
12070,-2024,208,376,-16,44,5
12075,-2016,216,376,-18,44,4
12080,-2016,232,392,-19,46,5
12085,-2024,224,360,-19,48,3
12090,-2040,224,360,-18,49,3
12095,-2048,216,320,-17,50,1
12100,-2024,208,384,-18,50,2
12105,-2032,232,360,-17,51,0
12110,-2024,200,384,-18,54,1
12115,-2024,200,352,-17,55,-1
12120,-2032,216,344,-16,54,-2
12125,-2048,208,336,-15,55,-3
12130,-2032,192,360,-14,55,-2
12135,-2032,208,352,-13,54,-3
12140,-2024,240,352,-12,53,-2
12145,-2016,224,352,-14,53,-4
12150,-2032,232,360,-12,52,-3
12155,-2032,208,384,-13,50,-6
12160,-2032,224,376,-14,48,-4
12165,-2000,192,392,-15,51,-5
12170,-2024,208,344,-15,51,-5
12175,-2016,224,344,-13,50,-5
12180,-2024,208,368,-13,51,-6
12185,-2008,216,400,-13,52,-7
12190,-2008,216,376,-12,52,-4
12195,-2016,216,352,-11,54,-6
12200,-2016,216,392,-9,55,-4
12205,-2024,208,328,-9,57,-5
12210,-2032,232,384,-10,57,-4
12215,-2024,216,328,-9,59,-6
12220,-2032,200,376,-11,59,-5
12225,-2016,208,376,-11,61,-7
12230,-2024,216,392,-11,60,-7
12235,-2032,208,328,-12,60,-8
12240,-2016,240,368,-12,59,-8
12245,-2024,208,376,-11,59,-9
12250,-2016,208,384,-11,58,-8
12255,-2040,232,392,-11,58,-9
12260,-2032,224,352,-11,57,-9
12265,-2008,208,368,-12,56,-8
12270,-2024,216,344,-14,55,-9
12275,-2024,208,392,-16,54,-9
12280,-2016,224,360,-16,54,-10
12285,-2016,200,376,-17,55,-9
12290,-2048,224,360,-18,55,-9
12295,-2032,208,352,-18,56,-9
12300,-2040,192,384,-19,57,-10
12305,-2032,208,392,-17,57,-9
12310,-2016,216,312,-16,59,-9
12315,-2032,192,376,-15,60,-8
12320,-2032,216,392,-14,62,-7
12325,-2016,184,376,-14,62,-6
12330,-2008,176,368,-14,62,-6
12335,-2032,200,328,-15,65,-5
12340,-2008,184,352,-15,66,-3
12345,-2024,200,336,-13,68,-4
12350,-2016,208,344,-14,69,-2
12355,-2024,200,376,-15,68,-2
12360,-2024,216,352,-16,68,-1
12365,-2032,200,368,-16,68,0
12370,-2040,224,368,-16,66,-1
12375,-2016,216,368,-16,63,0
12380,-2032,224,344,-18,62,-1
12385,-2032,216,368,-20,58,1
12390,-2008,200,368,-21,57,-1
12395,-2016,224,328,-21,55,-1
12400,-2008,192,360,-21,54,-2
12405,-2024,184,352,-18,54,-1
12410,-2040,216,376,-16,56,-2
12415,-2016,184,368,-14,56,1
12420,-2032,200,360,-13,58,-2
12425,-2048,240,368,-14,60,-1
12430,-2040,208,376,-13,60,-3
12435,-2040,208,352,-12,61,-1
12440,-2016,224,368,-10,59,-3
12445,-2040,192,368,-10,57,-1
12450,-2040,192,352,-10,55,-3
12455,-2040,216,336,-10,54,0
12460,-2032,208,376,-9,52,-1
12465,-2008,192,392,-8,51,2
12470,-2032,224,376,-7,49,1
12475,-2024,208,360,-5,48,3
12480,-2024,200,352,-3,48,2
12485,-2032,184,360,-3,48,3
12490,-2016,200,368,-5,44,1
12495,-2024,216,344,-5,46,3
12500,-2032,232,376,-6,45,1
12505,-2040,224,384,-8,44,4
12510,-2008,208,408,-10,43,1
12515,-2008,224,392,-11,44,4
12520,-2024,208,408,-11,45,2
12525,-2008,192,360,-8,46,4
12530,-2024,176,392,-8,48,2
12535,-2008,208,368,-6,50,4
12540,-2024,208,384,-8,53,2
12545,-2048,216,408,-6,56,4
12550,-2032,200,384,-6,58,2
12555,-2024,224,344,-5,59,5
12560,-2032,224,344,-7,60,2
12565,-2032,216,360,-7,61,5
12570,-2032,224,336,-6,60,1
12575,-2032,200,368,-8,59,4
12580,-2024,224,352,-8,56,1
12585,-2024,232,384,-8,53,4
12590,-1992,224,376,-9,52,2
12595,-2000,208,368,-8,50,4
12600,-2016,200,352,-7,48,0
12605,-2008,216,344,-8,46,5
12610,-2032,224,360,-9,46,2
12615,-2016,224,384,-9,46,3
12620,-2024,224,392,-9,44,0
12625,-2024,208,376,-11,44,2
12630,-2024,224,352,-11,43,0
12635,-1992,216,392,-11,44,1
12640,-2008,240,344,-11,43,-2
12645,-2024,208,368,-11,44,0
12650,-2016,216,336,-13,44,-2
12655,-2032,232,416,-12,44,0
12660,-2024,192,376,-12,46,-4
12665,-2048,216,376,-13,48,0
12670,-2048,224,352,-12,47,-4
12675,-2024,208,392,-12,48,-1
12680,-2016,208,352,-12,51,-2
12685,-2024,216,416,-10,53,1
12690,-2024,208,384,-8,54,-2
12695,-2032,208,368,-9,53,2
12700,-2008,216,352,-9,54,-1
12705,-2024,208,360,-9,55,0
12710,-2024,216,360,-10,55,-2
12715,-2032,200,360,-10,54,2
12720,-2032,208,352,-11,51,1
12725,-2024,216,392,-10,50,4
12730,-2024,200,384,-7,47,4
12735,-2032,200,376,-7,45,6
12740,-2016,200,368,-7,44,3
12745,-2000,200,384,-8,45,7
12750,-2032,232,400,-9,43,3
12755,-2016,224,360,-10,42,3
12760,-2032,216,384,-10,42,1
12765,-2000,208,344,-11,41,3
12770,-2016,208,416,-12,41,1
12775,-2000,192,376,-12,42,1
12780,-2016,208,360,-11,43,-1
12785,-2008,216,376,-11,44,1
12790,-2016,192,384,-11,44,-1
12795,-2048,224,368,-11,46,0
12800,-2016,224,376,-13,48,-2
12805,-2024,192,368,-13,49,0
12810,-2040,224,360,-14,49,-3
12815,-2024,240,360,-16,50,-2
12820,-2016,200,352,-17,52,-4
12825,-2016,240,360,-18,54,-3
12830,-2016,216,368,-19,55,-4
12835,-2032,216,344,-18,56,-3
12840,-2008,200,328,-18,58,-4
12845,-2024,200,360,-19,60,-3
12850,-2016,192,376,-18,60,-3
12855,-2024,200,392,-17,61,-1
12860,-2024,216,360,-17,63,-3
12865,-2040,208,368,-16,63,-1
12870,-2016,208,360,-14,62,-1
12875,-1992,216,384,-12,62,0
12880,-2032,200,368,-13,60,-2
12885,-2008,184,392,-10,58,0
12890,-2016,224,384,-9,59,0
12895,-2016,200,368,-9,58,0
12900,-2024,208,368,-9,56,-1
12905,-2032,232,384,-8,56,0
12910,-2024,224,360,-8,56,-1
12915,-2016,208,368,-11,55,1
12920,-2024,208,368,-10,54,-1
12925,-2016,216,376,-11,52,0
12930,-2032,216,352,-11,51,1
12935,-2040,216,368,-12,50,0
12940,-2008,216,392,-14,51,0
12945,-2048,224,376,-14,49,0
12950,-2016,208,384,-15,48,0
12955,-2032,232,368,-14,49,1
12960,-2008,232,352,-13,49,1
12965,-2016,208,400,-11,51,1
12970,-2016,208,424,-12,53,1
12975,-2008,216,368,-11,54,1
12980,-2024,224,392,-11,55,1
12985,-2008,208,368,-10,55,0
12990,-1992,208,392,-10,55,0
12995,-2040,216,360,-8,56,0
13000,-2008,208,384,-9,55,0
13005,-2040,224,384,-9,54,-1
13010,-1992,192,368,-10,53,-1
13015,-2032,232,376,-9,50,-1
13020,-2008,240,400,-10,51,-1
13025,-2016,216,376,-10,49,-2
13030,-2040,232,376,-10,50,-2
13035,-2016,200,368,-8,48,-3
13040,-2032,208,400,-9,49,-1
13045,-2000,192,376,-8,48,-1
13050,-2024,208,352,-7,48,1
13055,-2024,224,352,-5,47,1
13060,-2024,208,360,-3,47,1
13065,-2024,232,384,-2,44,-1
13070,-2024,208,352,-3,43,1
13075,-2016,216,392,-2,43,1
13080,-2000,224,368,0,43,3
13085,-2016,232,376,-1,41,3
13090,-2024,248,368,-2,40,4
13095,-2024,224,376,-3,38,5
13100,-2008,216,392,-3,36,6
13105,-2000,208,416,-6,37,4
13110,-2008,208,384,-9,37,6
13115,-2000,216,376,-12,38,4
13120,-2000,216,416,-13,39,6
13125,-2008,200,432,-17,41,4
13130,-1992,224,376,-19,43,5
13135,-2000,200,400,-19,47,2
13140,-2000,200,400,-19,49,2
13145,-2000,216,384,-21,52,0
13150,-1992,216,408,-21,54,1
13155,-2016,216,392,-21,59,-2
13160,-2008,200,400,-20,63,-1
13165,-2016,208,392,-18,64,-4
13170,-2016,192,384,-17,68,-3
13175,-2016,184,384,-16,70,-5
13180,-2024,232,352,-16,72,-5
13185,-2016,200,384,-14,73,-6
13190,-2008,192,384,-12,73,-5
13195,-2008,224,368,-11,74,-7
13200,-2040,224,408,-11,75,-3
13205,-2048,224,376,-10,74,-4
13210,-2016,216,368,-11,75,-1
13215,-2016,232,384,-11,73,-2
13220,-2016,216,392,-11,71,0
13225,-2024,224,360,-11,70,0
13230,-2024,200,360,-11,68,2
13235,-2040,248,368,-10,67,1
13240,-2024,184,368,-8,65,4
13245,-2032,216,360,-7,64,1
13250,-2040,224,368,-8,62,5
13255,-2024,224,376,-6,59,3
13260,-2032,232,376,-6,58,4
13265,-2024,216,392,-7,57,2
13270,-2032,216,352,-6,57,4
13275,-2016,208,376,-6,54,1
13280,-2056,240,368,-4,50,4
13285,-2040,232,368,-2,48,2
13290,-2024,208,352,-2,46,4
13295,-2016,232,384,-1,44,1
13300,-2032,192,368,0,42,5
13305,-2016,192,368,2,41,1
13310,-2032,208,360,3,42,4
13315,-2032,208,416,2,40,3
13320,-1992,200,328,3,41,5
13325,-2024,200,384,3,41,4
13330,-2016,216,400,2,40,6
13335,-2000,216,368,1,40,5
13340,-1992,216,376,2,41,6
13345,-2008,232,384,3,41,7
13350,-2016,232,392,4,40,10
13355,-2016,232,432,3,40,8
13360,-1984,208,432,3,41,11
13365,-2016,240,376,6,41,10
13370,-2016,224,384,5,40,12
13375,-2024,232,408,6,39,9
13380,-2008,224,360,4,39,13
13385,-2008,232,360,2,38,10
13390,-2024,224,408,-2,39,11
13395,-2024,224,352,-5,39,8
13400,-2008,216,400,-7,38,9
13405,-2016,224,376,-9,37,6
13410,-2024,216,384,-10,36,7
13415,-2000,208,400,-13,36,5
13420,-2024,224,392,-13,36,7
13425,-2008,216,384,-14,35,4
13430,-2008,200,392,-12,38,5
13435,-2008,208,376,-11,39,5
13440,-2016,224,408,-10,42,6
13445,-2008,224,392,-8,43,3
13450,-2000,216,384,-6,46,6
13455,-2024,232,400,-5,48,4
13460,-1992,208,400,-5,50,5
13465,-2024,208,392,-6,52,3
13470,-2024,216,368,-4,54,4
13475,-2008,216,384,-5,56,3
13480,-2008,224,400,-6,59,5
13485,-2008,224,392,-6,59,2
13490,-2016,216,400,-7,58,4
13495,-2024,216,400,-5,58,2
13500,-2032,224,392,-7,56,4
13505,-2024,216,376,-6,55,2
13510,-2024,224,384,-7,54,4
13515,-2024,200,376,-6,54,2
13520,-2008,216,384,-6,52,4
13525,-2032,200,400,-6,51,3
13530,-2032,232,392,-6,52,3
13535,-2000,208,376,-5,52,1
13540,-2024,216,384,-6,52,3
13545,-2024,208,400,-5,53,2
13550,-2016,216,384,-3,54,3
13555,-2024,208,416,-5,55,3
13560,-2032,224,416,-5,53,5
13565,-2024,224,376,-4,53,5
13570,-2016,216,384,-5,52,5
13575,-1992,200,376,-7,52,5
13580,-2024,232,408,-8,50,6
13585,-2040,248,440,-11,49,3
13590,-2016,232,400,-10,49,4
13595,-2000,224,424,-10,49,2
13600,-2008,216,360,-10,50,2
13605,-2016,224,384,-10,52,1
13610,-2032,216,360,-10,52,1
13615,-2008,224,416,-8,54,0
13620,-2016,248,392,-8,53,0
13625,-2008,216,408,-6,55,0
13630,-2016,240,416,-5,58,0
13635,-2000,240,408,-4,58,-1
13640,-2000,208,384,-6,59,0
13645,-2008,240,408,-7,58,0
13650,-2024,224,384,-10,57,0
13655,-2024,232,424,-13,56,-3
13660,-2024,224,392,-15,57,-3
13665,-2032,232,368,-18,59,-3
13670,-2008,200,376,-18,60,-5
13675,-2032,224,408,-17,62,-5
13680,-2016,224,344,-19,65,-5
13685,-2016,248,392,-19,66,-5
13690,-2024,216,392,-20,67,-5
13695,-2008,200,408,-19,71,-5
13700,-2032,208,400,-17,72,-5
13705,-2008,216,392,-17,74,-5
13710,-2024,232,400,-17,74,-6
13715,-2008,208,440,-16,74,-5
13720,-2016,224,400,-16,75,-6
13725,-2016,224,384,-16,75,-6
13730,-2000,216,352,-16,76,-7
13735,-2008,224,376,-14,76,-6
13740,-2008,224,416,-14,76,-7
13745,-2008,208,392,-14,75,-9
13750,-2008,216,392,-15,77,-8
13755,-2024,232,408,-16,77,-8
13760,-2016,240,392,-16,77,-11
13765,-2032,240,400,-16,77,-8
13770,-2016,224,424,-17,78,-9
13775,-2032,208,376,-18,78,-9
13780,-2008,208,392,-17,78,-10
13785,-2016,256,376,-16,79,-10
13790,-2008,216,400,-16,79,-10
13795,-2024,224,392,-16,81,-10
13800,-2008,200,376,-17,80,-12
13805,-2024,208,360,-18,80,-10
13810,-2040,232,392,-17,80,-13
13815,-2024,240,392,-17,78,-11
13820,-2000,224,384,-17,80,-13
13825,-2032,216,392,-15,80,-11
13830,-2024,240,416,-17,80,-11
13835,-2016,216,400,-16,79,-11
13840,-2016,216,400,-16,79,-11
13845,-2016,208,360,-16,78,-9
13850,-2032,216,376,-17,76,-11
13855,-2000,224,360,-18,74,-11
13860,-2008,224,392,-18,74,-13
13865,-2040,240,384,-19,75,-11
13870,-2024,200,368,-20,74,-13
13875,-2008,224,384,-20,74,-12
13880,-2000,224,384,-22,75,-13
13885,-2016,216,408,-22,74,-11
13890,-2016,224,400,-22,77,-13
13895,-2032,216,384,-21,77,-13
13900,-2008,224,368,-21,79,-16
13905,-2016,208,368,-20,81,-11
13910,-2016,216,360,-17,83,-13
13915,-2016,200,376,-17,86,-11
13920,-2040,208,360,-17,88,-12
13925,-2048,208,368,-19,87,-9
13930,-2040,216,408,-18,87,-10
13935,-2016,216,376,-18,89,-9
13940,-2040,224,376,-18,89,-11
13945,-2016,216,368,-18,87,-7
13950,-2000,216,392,-20,85,-9
13955,-2024,232,368,-20,84,-7
13960,-2000,240,376,-21,82,-10
13965,-2024,232,376,-21,79,-9
13970,-2000,232,384,-22,76,-11
13975,-1984,216,392,-22,74,-10
13980,-2016,224,400,-23,73,-11
13985,-2008,216,392,-23,71,-10
13990,-1992,200,392,-22,70,-12
13995,-2024,232,368,-23,71,-10
14000,-2024,224,392,-21,70,-13
14005,-2032,208,368,-20,70,-11
14010,-2008,216,384,-20,72,-13
14015,-2040,232,384,-20,74,-10
14020,-2032,224,368,-19,76,-13
14025,-2016,216,368,-17,79,-10
14030,-2032,232,392,-16,81,-12
14035,-2048,216,392,-17,85,-9
14040,-2032,224,360,-18,84,-12
14045,-2008,216,336,-20,84,-9
14050,-2016,200,384,-19,85,-11
14055,-2016,200,368,-20,84,-9
14060,-2024,208,344,-22,82,-12
14065,-2008,184,352,-22,79,-9
14070,-2032,208,384,-22,78,-10
14075,-1992,200,368,-22,75,-9
14080,-2016,208,336,-22,74,-13
14085,-2016,200,384,-22,76,-12
14090,-1992,216,360,-20,74,-13
14095,-2008,200,376,-20,77,-10
14100,-2032,232,360,-19,77,-12
14105,-2024,208,440,-19,78,-11
14110,-2016,208,368,-19,78,-13
14115,-2024,224,352,-19,78,-11
14120,-2016,224,336,-20,79,-12
14125,-2016,208,360,-21,79,-11
14130,-2032,200,368,-22,79,-12
14135,-2016,200,368,-22,79,-10
14140,-2000,224,384,-23,79,-12
14145,-2032,224,360,-24,80,-9
14150,-2000,216,408,-24,78,-13
14155,-2016,200,376,-25,77,-10
14160,-2008,208,368,-26,75,-13
14165,-2024,224,384,-26,73,-12
14170,-2024,216,400,-28,75,-13
14175,-2040,224,360,-25,74,-11
14180,-2000,176,336,-23,75,-13
14185,-2016,192,376,-21,77,-11
14190,-2032,192,392,-21,76,-14
14195,-2032,200,336,-22,75,-11
14200,-2024,200,408,-21,75,-12
14205,-2048,184,352,-22,74,-11
14210,-2032,224,376,-23,76,-14
14215,-2024,200,368,-22,75,-11
14220,-2024,232,368,-23,74,-12
14225,-2024,208,376,-25,76,-11
14230,-2024,192,368,-25,74,-11
14235,-2040,184,368,-23,73,-8
14240,-2040,232,376,-20,72,-7
14245,-2016,192,384,-20,73,-5
14250,-2032,208,368,-16,75,-7
14255,-2024,200,392,-13,76,-7
14260,-2016,200,360,-12,78,-7
14265,-2032,200,360,-12,79,-3
14270,-2024,184,376,-12,80,-5
14275,-2024,232,376,-14,82,-5
14280,-2016,192,384,-14,81,-5
14285,-2016,192,352,-18,81,-5
14290,-2032,192,368,-19,81,-6
14295,-2016,208,384,-19,81,-6
14300,-2024,200,368,-20,82,-7
14305,-1992,200,360,-18,82,-7
14310,-2008,208,376,-19,83,-7
14315,-2016,208,360,-15,84,-6
14320,-2000,200,400,-15,87,-7
14325,-2032,224,320,-14,87,-6
14330,-2024,224,360,-14,87,-5
14335,-2008,216,376,-14,87,-6
14340,-2008,224,352,-14,85,-6
14345,-2032,240,368,-17,82,-7
14350,-2008,176,336,-16,81,-7
14355,-2024,200,352,-17,79,-8
14360,-2016,192,352,-18,77,-9
14365,-2032,200,368,-17,76,-9
14370,-2048,224,352,-16,76,-9
14375,-2032,200,328,-14,76,-10
14380,-2056,224,336,-15,77,-10
14385,-2024,224,360,-15,77,-9
14390,-2024,208,352,-15,78,-9
14395,-2032,224,352,-15,78,-10
14400,-2048,216,328,-14,78,-10
14405,-2000,224,384,-14,78,-10
14410,-2032,232,376,-17,77,-10
14415,-2032,208,344,-19,76,-11
14420,-2024,208,376,-20,75,-10
14425,-2056,224,344,-21,73,-10
14430,-2024,200,376,-22,74,-10
14435,-2032,224,376,-24,75,-13
14440,-2024,192,360,-23,73,-12
14445,-2024,232,368,-22,74,-12
14450,-2032,208,336,-22,74,-12
14455,-2024,216,360,-22,74,-12
14460,-2032,208,368,-22,74,-11
14465,-2024,208,344,-21,73,-12
14470,-2032,200,408,-19,74,-10
14475,-2016,208,352,-20,74,-11
14480,-2032,216,336,-19,73,-11
14485,-2032,216,336,-19,73,-10
14490,-2024,208,344,-20,72,-11
14495,-2040,200,360,-21,72,-10
14500,-2008,216,368,-22,70,-8
14505,-2032,200,320,-25,68,-8
14510,-2040,200,360,-28,66,-5
14515,-2048,208,288,-27,65,-6
14520,-2048,224,336,-26,61,-3
14525,-2032,208,320,-26,60,-5
14530,-2024,192,360,-26,59,-3
14535,-2024,208,360,-26,59,-4
14540,-2024,200,344,-28,58,-2
14545,-2040,200,352,-28,58,-2
14550,-2024,216,344,-27,57,0
14555,-2032,224,336,-27,53,-1
14560,-2024,224,368,-25,52,1
14565,-2024,200,376,-26,50,-1
14570,-2016,224,336,-26,49,-1
14575,-2024,200,352,-27,49,-2
14580,-2032,232,376,-27,47,-1
14585,-2032,200,368,-29,45,-3
14590,-2024,200,352,-28,48,-3
14595,-2040,208,360,-28,52,-5
14600,-2024,208,376,-28,55,-3
14605,-2032,200,376,-27,58,-6
14610,-2016,200,368,-25,60,-3
14615,-2024,216,344,-25,63,-4
14620,-2024,184,344,-25,65,-2
14625,-2016,200,368,-25,63,-4
14630,-2016,184,392,-25,63,-3
14635,-2032,200,376,-25,63,-5
14640,-2016,200,336,-25,59,-3
14645,-1992,192,360,-26,56,-6
14650,-2000,208,360,-27,55,-3
14655,-2024,208,392,-26,51,-6
14660,-2024,224,384,-26,49,-3
14665,-2024,224,368,-27,48,-7
14670,-2008,200,384,-27,45,-4
14675,-2008,200,384,-27,44,-7
14680,-2008,216,376,-27,42,-4
14685,-2016,192,352,-27,41,-7
14690,-2016,216,376,-26,42,-5
14695,-2016,184,376,-27,43,-8
14700,-2040,208,368,-24,45,-6
14705,-2048,200,376,-23,48,-9
14710,-2040,208,376,-22,51,-7
14715,-2000,216,376,-21,56,-8
14720,-2032,200,376,-18,60,-5
14725,-2024,192,392,-15,64,-7
14730,-2040,192,336,-14,66,-4
14735,-2048,208,368,-13,68,-6
14740,-2048,176,360,-12,69,-3
14745,-2048,216,328,-14,71,-4
14750,-2024,208,336,-12,70,0
14755,-2024,216,344,-13,68,-3
14760,-2024,200,360,-14,67,-2
14765,-2032,200,312,-15,67,-4
14770,-2016,200,352,-15,63,-2
14775,-2024,200,344,-14,60,-4
14780,-2024,184,360,-15,57,-1
14785,-2040,200,368,-15,55,-4
14790,-2032,184,376,-13,53,-2
14795,-2056,192,352,-15,51,-5
14800,-2016,216,368,-14,50,-2
14805,-2016,200,352,-15,49,-4
14810,-2040,200,336,-14,49,-2
14815,-2008,192,336,-14,49,-4
14820,-2024,200,368,-15,49,-1
14825,-2024,208,376,-18,49,-2
14830,-2016,216,360,-16,49,-1
14835,-2032,216,352,-18,51,-3
14840,-2040,208,368,-16,53,0
14845,-2024,200,352,-17,54,-1
14850,-2048,216,352,-17,57,1
14855,-2024,200,360,-15,59,-1
14860,-2024,184,368,-16,62,2
14865,-2032,200,376,-16,66,1
14870,-2024,200,368,-15,67,5
14875,-2032,200,328,-15,67,4
14880,-2024,200,360,-15,67,7
14885,-2016,208,344,-16,65,5
14890,-2040,200,336,-16,65,8
14895,-2008,200,344,-17,63,6
14900,-2016,208,360,-17,59,7
14905,-2040,184,360,-17,56,5
14910,-2016,184,368,-20,54,5
14915,-2024,192,344,-21,51,3
14920,-2024,192,392,-22,48,2
14925,-2016,192,352,-22,46,0
14930,-2024,224,328,-20,44,1
14935,-2008,216,336,-20,42,-2
14940,-2024,216,360,-18,39,-1
14945,-2016,184,352,-17,36,-2
14950,-2008,208,352,-17,34,1
14955,-2016,208,368,-18,33,0
14960,-2016,216,392,-16,31,2
14965,-2000,184,336,-16,32,2
14970,-2032,184,376,-16,29,2
14975,-2016,176,376,-17,32,2
14980,-2024,200,368,-16,35,3
14985,-2048,200,368,-17,39,2
14990,-2048,208,376,-15,42,3
14995,-2032,176,360,-17,47,1
