timestamp,accel_x,accel_y,accel_z,gyro_x,gyro_y,gyro_z
0,32,-1792,656,-35,25,-2
5,16,-1760,688,-35,24,-2
10,0,-1760,688,-35,26,-3
15,16,-1784,656,-35,25,-3
20,8,-1792,704,-31,24,-3
25,48,-1800,696,-29,21,-2
30,24,-1776,720,-26,18,-2
35,16,-1768,704,-26,16,-3
40,16,-1760,680,-28,14,-5
45,-8,-1776,688,-31,13,-6
50,24,-1800,656,-33,11,-9
55,40,-1784,680,-34,10,-11
60,8,-1768,680,-36,8,-12
65,16,-1784,688,-36,8,-13
70,40,-1768,640,-32,9,-12
75,32,-1792,664,-28,8,-13
80,24,-1776,688,-23,10,-14
85,32,-1784,664,-18,14,-15
90,40,-1784,688,-15,16,-16
95,24,-1760,696,-11,18,-17
100,0,-1776,672,-11,20,-18
105,24,-1776,704,-10,22,-19
110,24,-1784,672,-12,22,-17
115,24,-1760,680,-13,21,-15
120,32,-1776,704,-17,22,-15
125,0,-1784,688,-20,21,-11
130,40,-1736,640,-25,20,-9
135,24,-1776,712,-27,20,-6
140,0,-1752,672,-32,18,-6
145,16,-1776,672,-33,18,-4
150,16,-1760,680,-33,19,-3
155,8,-1760,680,-33,16,-2
160,-8,-1768,704,-32,17,-1
165,0,-1776,688,-34,18,0
170,0,-1784,680,-34,16,0
175,8,-1760,688,-34,17,-2
180,32,-1768,680,-34,17,-3
185,16,-1760,696,-33,15,-4
190,8,-1752,680,-32,16,-6
195,24,-1752,664,-31,15,-8
200,8,-1752,672,-31,13,-8
205,32,-1744,656,-34,15,-11
210,16,-1744,672,-37,14,-10
215,16,-1760,656,-38,12,-12
220,-16,-1776,688,-41,11,-13
225,16,-1760,664,-43,9,-12
230,40,-1784,664,-46,9,-12
235,8,-1752,696,-47,7,-12
240,40,-1760,656,-48,7,-11
245,0,-1768,672,-49,7,-10
250,24,-1792,672,-48,6,-9
255,24,-1800,688,-50,7,-10
260,32,-1800,680,-50,8,-10
265,0,-1768,680,-46,7,-10
270,16,-1800,704,-45,9,-11
275,16,-1768,704,-42,10,-10
280,24,-1784,688,-41,10,-11
285,24,-1792,688,-39,11,-13
290,24,-1776,680,-37,11,-14
295,-8,-1816,664,-37,10,-13
300,8,-1768,712,-35,9,-12
305,24,-1760,672,-38,8,-14
310,32,-1784,648,-40,9,-13
315,0,-1752,648,-42,10,-14
320,24,-1760,656,-46,9,-13
325,16,-1768,664,-50,11,-14
330,16,-1768,672,-52,12,-14
335,16,-1760,648,-52,15,-14
340,24,-1752,680,-52,15,-16
345,24,-1776,672,-52,16,-15
350,16,-1784,680,-54,18,-16
355,48,-1760,672,-56,18,-19
360,24,-1784,680,-58,19,-20
365,40,-1776,704,-60,20,-21
370,40,-1792,680,-61,19,-22
375,24,-1784,672,-65,21,-20
380,40,-1792,680,-66,22,-21
385,32,-1776,680,-68,21,-21
390,16,-1784,680,-71,19,-21
395,32,-1768,656,-74,19,-20
400,32,-1784,664,-77,18,-19
405,40,-1832,616,-78,17,-18
410,16,-1824,576,-76,16,-19
415,40,-1752,672,-73,17,-18
420,16,-1800,680,-69,15,-19
425,16,-1808,640,-67,14,-20
430,48,-1752,680,-65,14,-22
435,24,-1664,608,-62,11,-24
440,64,-1736,680,-61,13,-24
445,64,-1776,688,-58,13,-25
450,72,-1728,704,-54,11,-27
455,104,-1760,728,-53,11,-28
460,24,-1776,704,-52,10,-30
465,40,-1760,736,-49,9,-30
470,16,-1744,696,-49,10,-30
475,32,-1784,720,-48,9,-32
480,112,-1720,640,-48,9,-30
485,-8,-1752,704,-47,8,-30
490,32,-1720,696,-48,6,-28
495,0,-1752,680,-51,5,-25
500,16,-1744,672,-54,3,-24
505,16,-1728,736,-59,1,-22
510,64,-1728,704,-62,0,-20
515,56,-1768,696,-66,-2,-19
520,-24,-1752,648,-67,-4,-17
525,-16,-1752,672,-69,-3,-17
530,88,-1648,664,-68,0,-18
535,32,-1768,688,-68,1,-18
540,16,-1744,736,-69,-1,-20
545,40,-1784,728,-70,-1,-21
550,32,-1768,680,-71,-1,-24
555,24,-1760,712,-73,-1,-25
560,80,-1760,704,-77,-1,-25
565,8,-1760,696,-81,-1,-25
570,72,-1752,736,-87,-1,-25
575,64,-1800,696,-93,-2,-25
580,8,-1792,696,-96,-3,-24
585,32,-1792,624,-101,-3,-24
590,96,-1784,712,-103,-6,-25
595,8,-1792,688,-104,-5,-25
600,8,-1784,648,-104,-5,-25
605,16,-1704,624,-103,-5,-25
610,32,-1776,632,-103,-2,-25
615,48,-1792,680,-104,0,-25
620,40,-1800,672,-106,0,-26
625,32,-1816,688,-107,0,-26
630,-8,-1736,568,-107,1,-25
635,24,-1816,656,-107,1,-23
640,0,-1760,672,-109,1,-22
645,48,-1776,640,-111,-1,-21
650,32,-1760,664,-114,-2,-18
655,8,-1776,672,-115,-5,-15
660,-16,-1824,808,-113,-7,-10
665,48,-1816,640,-110,-9,-6
670,48,-1800,768,-106,-10,-3
675,32,-1768,712,-105,-13,0
680,8,-1752,760,-111,-13,0
685,136,-1680,528,-119,-10,-2
690,32,-1760,608,-129,-6,-3
695,40,-1792,592,-137,-2,-6
700,40,-1760,592,-140,3,-10
705,56,-1776,616,-142,6,-14
710,8,-1784,632,-134,9,-16
715,48,-1776,600,-127,12,-19
720,112,-1776,600,-119,12,-22
725,56,-1728,568,-111,13,-23
730,24,-1792,584,-102,13,-25
735,80,-1784,680,-98,11,-25
740,32,-1760,616,-91,10,-26
745,64,-1832,656,-91,8,-24
750,32,-1808,592,-93,6,-25
755,96,-1776,720,-94,6,-24
760,48,-1824,664,-95,5,-26
765,48,-1800,624,-97,5,-27
770,56,-1808,632,-101,4,-28
775,64,-1816,632,-104,6,-29
780,56,-1808,640,-109,5,-31
785,128,-1872,720,-113,6,-31
790,32,-1824,720,-119,7,-35
795,-16,-1680,616,-124,7,-37
800,32,-1808,792,-129,6,-38
805,32,-1680,536,-133,5,-42
810,8,-1776,704,-136,3,-43
815,8,-1800,664,-137,4,-46
820,152,-1880,816,-139,5,-46
825,120,-1808,624,-140,9,-49
830,80,-1808,584,-142,15,-51
835,64,-1856,680,-146,21,-56
840,120,-1672,592,-150,26,-61
845,64,-1800,624,-155,26,-63
850,80,-1792,648,-156,23,-69
855,96,-1792,664,-156,16,-75
860,88,-1808,656,-157,8,-84
865,184,-1776,648,-166,0,-92
870,88,-1816,640,-180,-1,-100
875,128,-1816,592,-193,5,-107
880,112,-1792,584,-212,19,-111
885,104,-1792,624,-233,34,-113
890,104,-1784,568,-254,51,-115
895,112,-1768,536,-274,63,-111
900,80,-1760,560,-289,74,-106
905,48,-1808,560,-298,83,-97
910,80,-1760,552,-300,92,-88
915,120,-1768,536,-304,97,-77
920,104,-1792,552,-303,101,-70
925,96,-1784,576,-295,104,-62
930,176,-1736,784,-284,104,-58
935,80,-1792,616,-266,103,-54
940,96,-1816,640,-248,100,-50
945,80,-1824,616,-229,93,-49
950,88,-1816,616,-211,87,-48
955,-72,-1848,672,-198,81,-50
960,56,-1816,640,-186,77,-49
965,48,-1800,600,-177,72,-51
970,48,-1792,656,-175,72,-53
975,40,-1784,624,-172,70,-56
980,48,-1776,592,-170,69,-56
985,16,-1760,576,-169,68,-58
990,32,-1752,584,-174,66,-60
995,64,-1784,584,-177,63,-63
1000,48,-1744,584,-181,61,-65
1005,72,-1720,536,-187,58,-64
1010,64,-1776,584,-195,55,-64
1015,64,-1792,584,-205,53,-63
1020,80,-1808,576,-219,50,-65
1025,96,-1840,584,-233,48,-66
1030,64,-1840,584,-245,44,-67
1035,96,-1872,592,-255,41,-66
1040,104,-1888,592,-262,40,-68
1045,112,-1888,616,-263,39,-70
1050,120,-1912,600,-262,38,-70
1055,112,-1888,624,-258,39,-70
1060,136,-1912,600,-250,38,-71
1065,128,-1912,584,-241,36,-69
1070,136,-1896,568,-233,34,-69
1075,144,-1912,544,-224,33,-70
1080,144,-1928,544,-220,32,-72
1085,136,-1880,552,-216,31,-74
1090,120,-1880,504,-214,31,-79
1095,104,-1872,464,-217,29,-83
1100,104,-1896,512,-219,27,-87
1105,80,-1840,504,-218,21,-92
1110,120,-1800,536,-217,13,-96
1115,88,-1864,536,-212,2,-101
1120,48,-1856,544,-205,-9,-102
1125,64,-1848,544,-198,-20,-103
1130,64,-1856,568,-189,-30,-104
1135,40,-1864,576,-183,-38,-101
1140,40,-1864,576,-178,-42,-100
1145,48,-1840,584,-177,-44,-99
1150,40,-1832,536,-178,-43,-96
1155,64,-1824,544,-183,-43,-96
1160,40,-1816,520,-190,-40,-96
1165,56,-1808,480,-199,-40,-98
1170,40,-1776,488,-213,-40,-100
1175,48,-1792,464,-229,-40,-104
1180,40,-1768,456,-249,-42,-105
1185,40,-1784,424,-266,-41,-108
1190,64,-1792,408,-282,-40,-109
1195,48,-1808,384,-302,-37,-111
1200,64,-1824,392,-320,-36,-115
1205,64,-1848,376,-342,-36,-119
1210,64,-1848,384,-366,-39,-124
1215,80,-1864,400,-388,-41,-127
1220,64,-1864,368,-407,-42,-128
1225,88,-1848,416,-424,-45,-131
1230,64,-1880,416,-435,-48,-137
1235,88,-1904,440,-443,-53,-137
1240,80,-1872,440,-447,-58,-137
1245,56,-1872,424,-445,-63,-135
1250,104,-1912,424,-436,-67,-128
1255,88,-1904,456,-426,-69,-127
1260,88,-1896,408,-414,-71,-125
1265,120,-1888,408,-399,-75,-117
1270,88,-1880,392,-390,-80,-110
1275,96,-1880,400,-385,-81,-103
1280,96,-1880,376,-382,-84,-100
1285,80,-1880,376,-387,-83,-93
1290,112,-1872,352,-391,-81,-85
1295,80,-1880,400,-399,-79,-78
1300,96,-1872,392,-408,-75,-74
1305,80,-1880,384,-416,-74,-72
1310,40,-1872,416,-420,-72,-68
1315,72,-1896,424,-419,-68,-59
1320,88,-1880,424,-416,-62,-56
1325,72,-1912,456,-406,-56,-53
1330,64,-1864,456,-395,-51,-42
1335,48,-1904,448,-382,-47,-33
1340,72,-1896,448,-366,-44,-22
1345,48,-1888,448,-354,-45,-16
1350,72,-1856,456,-344,-46,-15
1355,80,-1896,464,-340,-44,-11
1360,112,-1880,448,-332,-44,-6
1365,56,-1848,408,-341,-49,-24
1370,56,-1864,448,-354,-57,-30
1375,56,-1872,472,-369,-67,-29
1380,32,-1840,504,-383,-81,-30
1385,56,-1864,456,-394,-99,-28
1390,40,-1880,480,-401,-116,-25
1395,32,-1880,480,-409,-137,-26
1400,40,-1888,520,-410,-160,-23
1405,8,-1912,488,-410,-179,-20
1410,-32,-1912,512,-408,-193,-20
1415,8,-1976,504,-401,-204,-14
1420,8,-1984,464,-395,-211,-15
1425,-16,-2000,456,-385,-219,-18
1430,-8,-2032,440,-371,-223,-21
1435,-8,-2016,432,-359,-230,-27
1440,-32,-2048,408,-350,-237,-32
1445,8,-2040,408,-344,-252,-37
1450,32,-2040,368,-341,-267,-43
1455,64,-2032,360,-337,-282,-48
1460,64,-2032,368,-328,-299,-52
1465,104,-2024,376,-319,-318,-50
1470,104,-2016,384,-309,-339,-44
1475,128,-2056,400,-295,-364,-39
1480,160,-2056,376,-273,-390,-28
1485,144,-2040,416,-245,-412,-19
1490,168,-2064,400,-217,-433,-2
1495,160,-2064,400,-185,-447,9
1500,176,-2088,392,-147,-457,22
1505,200,-2080,432,-118,-466,34
1510,184,-2088,368,-91,-474,43
1515,168,-2048,336,-73,-481,56
1520,176,-2056,368,-68,-491,65
1525,184,-2040,320,-71,-498,75
1530,184,-2016,288,-80,-507,82
1535,168,-1992,304,-91,-516,88
1540,176,-1984,256,-103,-526,94
1545,184,-1952,256,-110,-534,99
1550,224,-1976,264,-119,-538,102
1555,192,-1944,280,-127,-540,106
1560,216,-1944,264,-127,-540,106
1565,264,-1960,272,-127,-541,112
1570,248,-1944,256,-123,-538,112
1575,264,-1944,216,-119,-539,118
1580,288,-1936,216,-117,-538,121
1585,296,-1904,176,-113,-537,126
1590,288,-1928,184,-107,-536,128
1595,288,-1904,160,-103,-536,130
1600,264,-1880,120,-104,-537,130
1605,312,-1880,128,-112,-538,134
1610,320,-1872,104,-123,-538,133
1615,280,-1872,128,-133,-536,131
1620,320,-1880,88,-142,-535,128
1625,312,-1872,96,-152,-531,119
1630,312,-1880,72,-161,-526,111
1635,312,-1880,72,-173,-522,103
1640,240,-1880,64,-183,-513,93
1645,296,-1896,88,-192,-505,87
1650,360,-1928,96,-198,-497,72
1655,336,-1944,112,-192,-491,52
1660,376,-1960,160,-175,-485,41
1665,368,-1992,216,-154,-471,28
1670,368,-2000,200,-129,-458,15
1675,360,-1992,128,-116,-446,2
1680,352,-1968,56,-117,-442,-14
1685,352,-1928,40,-134,-444,-28
1690,312,-1896,16,-160,-451,-38
1695,304,-1944,112,-185,-448,-39
1700,328,-1992,224,-177,-409,-25
1705,384,-2008,264,-135,-340,-5
1710,392,-1976,136,-89,-281,3
1715,392,-1920,56,-69,-263,3
1720,384,-1832,-32,-72,-276,5
1725,376,-1752,-56,-83,-293,19
1730,384,-1728,-24,-97,-302,42
1735,360,-1672,8,-109,-301,66
1740,368,-1688,-40,-134,-296,92
1745,352,-1680,-8,-174,-285,117
1750,328,-1720,8,-226,-274,141
1755,304,-1736,8,-283,-263,162
1760,280,-1768,32,-344,-256,185
1765,264,-1768,16,-404,-248,206
1770,256,-1808,112,-453,-239,227
1775,248,-1856,88,-489,-231,245
1780,248,-1888,80,-520,-224,257
1785,248,-1920,96,-544,-220,266
1790,200,-1936,120,-567,-213,271
1795,248,-1960,128,-586,-212,277
1800,232,-1992,120,-605,-209,278
1805,224,-2000,120,-616,-206,280
1810,224,-2032,120,-617,-204,276
1815,248,-2072,144,-612,-203,274
1820,288,-2104,136,-597,-193,268
1825,312,-2120,184,-571,-179,261
1830,328,-2128,176,-536,-158,252
1835,352,-2144,168,-495,-132,242
1840,384,-2160,176,-442,-102,235
1845,384,-2160,216,-392,-61,222
1850,432,-2176,184,-340,-19,210
1855,440,-2144,208,-290,24,201
1860,456,-2176,168,-241,65,191
1865,448,-2152,176,-204,105,180
1870,472,-2136,152,-183,142,172
1875,448,-2096,72,-178,177,168
1880,392,-2072,48,-187,206,169
1885,376,-2040,48,-207,230,176
1890,336,-2024,0,-233,245,188
1895,312,-2032,16,-260,251,204
1900,272,-2016,32,-284,250,222
1905,248,-2008,40,-302,247,243
1910,152,-2000,56,-328,246,259
1915,128,-1976,56,-358,239,275
1920,120,-1952,48,-388,232,288
1925,64,-1992,40,-418,226,296
1930,64,-1992,48,-454,229,297
1935,24,-1976,24,-497,230,291
1940,-8,-1968,40,-543,233,285
1945,0,-1984,0,-583,231,277
1950,-8,-1976,8,-617,227,264
1955,-16,-1984,16,-644,227,246
1960,0,-1984,-32,-660,230,231
1965,48,-1992,32,-666,233,214
1970,40,-2024,0,-661,238,198
1975,64,-2032,-48,-641,243,184
1980,112,-2024,-16,-606,245,172
1985,128,-2008,-8,-568,250,164
1990,128,-2008,-40,-536,265,156
1995,120,-1992,-48,-503,282,149
2000,144,-2008,-88,-472,296,147
2005,136,-1984,-128,-450,314,145
2010,136,-1976,-128,-441,331,145
2015,136,-1968,-120,-437,346,145
2020,184,-1976,-120,-436,356,144
2025,144,-1976,-128,-434,361,144
2030,136,-1984,-80,-431,365,147
2035,112,-1968,-128,-430,367,152
2040,144,-2000,-112,-428,364,156
2045,128,-2000,-96,-423,360,159
2050,136,-2008,-104,-415,351,162
2055,112,-2016,-104,-408,342,164
2060,64,-2024,-88,-393,331,163
2065,80,-2008,-136,-367,314,168
2070,56,-2032,-136,-356,305,173
2075,16,-2040,-144,-350,301,174
2080,40,-2040,-168,-347,296,179
2085,48,-2048,-232,-345,294,188
2090,8,-2032,-216,-358,291,193
2095,-40,-2024,-184,-383,293,200
2100,-40,-2056,-200,-408,294,204
2105,-32,-2048,-208,-420,289,208
2110,-16,-2064,-224,-427,279,213
2115,-40,-2056,-224,-438,280,210
2120,-48,-2064,-216,-448,277,210
2125,-64,-2056,-216,-456,270,211
2130,-64,-2104,-224,-466,261,209
2135,-32,-2128,-224,-477,251,208
2140,-64,-2128,-240,-482,242,205
2145,-72,-2144,-216,-491,234,202
2150,-24,-2128,-240,-495,223,199
2155,-24,-2128,-232,-505,221,193
2160,-48,-2128,-216,-514,216,182
2165,-40,-2176,-256,-519,205,177
2170,-32,-2144,-240,-517,194,170
2175,-32,-2136,-248,-509,181,162
2180,-48,-2104,-232,-495,170,154
2185,-64,-2112,-224,-485,162,148
2190,-56,-2112,-224,-475,150,144
2195,-64,-2088,-216,-461,139,142
2200,-64,-2112,-208,-447,129,138
2205,-88,-2080,-240,-431,118,133
2210,-88,-2080,-288,-419,108,129
2215,-96,-2048,-248,-407,101,125
2220,-96,-2056,-256,-395,97,123
2225,-96,-2000,-280,-382,98,121
2230,-112,-2016,-256,-364,104,121
2235,-96,-2000,-240,-351,111,119
2240,-88,-1992,-288,-340,118,117
2245,-80,-1984,-232,-328,126,115
2250,-104,-1984,-248,-316,133,114
2255,-88,-1944,-248,-304,137,112
2260,-72,-1976,-216,-293,141,107
2265,-88,-1968,-256,-280,142,106
2270,-80,-1976,-232,-268,141,103
2275,-96,-1952,-256,-260,142,102
2280,-88,-1960,-248,-247,139,101
2285,-88,-1960,-240,-239,137,101
2290,-72,-1968,-256,-233,132,102
2295,-72,-1984,-272,-230,126,102
2300,-88,-1976,-272,-225,122,102
2305,-80,-1904,-248,-223,118,101
2310,-88,-1984,-240,-217,116,98
2315,-104,-1976,-248,-210,114,93
2320,-104,-1984,-272,-202,114,89
2325,-88,-1992,-272,-196,115,83
2330,-80,-2000,-288,-187,117,75
2335,-104,-1984,-264,-175,120,66
2340,-112,-1976,-272,-164,120,58
2345,-104,-2000,-288,-150,121,53
2350,-112,-2008,-280,-137,122,49
2355,-112,-2008,-280,-128,124,47
2360,-128,-2000,-288,-122,126,46
2365,-120,-1984,-320,-119,125,47
2370,-120,-2000,-320,-118,123,50
2375,-120,-1984,-352,-117,120,51
2380,-128,-2008,-328,-116,117,52
2385,-120,-1984,-328,-122,113,52
2390,-144,-1984,-344,-126,110,53
2395,-128,-2000,-344,-131,105,51
2400,-128,-1984,-344,-136,103,47
2405,-144,-1992,-360,-142,99,44
2410,-128,-2024,-344,-149,97,40
2415,-128,-1992,-304,-152,96,36
2420,-136,-2016,-304,-155,96,32
2425,-128,-2016,-312,-151,98,29
2430,-128,-2024,-336,-148,98,24
2435,-112,-2016,-336,-145,98,21
2440,-128,-2008,-304,-144,100,19
2445,-112,-2016,-336,-141,99,18
2450,-112,-2016,-368,-137,101,19
2455,-104,-1992,-352,-135,104,20
2460,-80,-2000,-328,-135,105,21
2465,-72,-2016,-336,-132,106,21
2470,-72,-1992,-328,-131,105,23
2475,-80,-2008,-392,-130,106,21
2480,-40,-2032,-360,-127,105,21
2485,-56,-2008,-360,-122,104,22
2490,-56,-2008,-384,-120,103,20
2495,-56,-2024,-344,-122,103,19
2500,-56,-2008,-400,-123,102,14
2505,-64,-2016,-392,-124,100,8
2510,-72,-2000,-400,-122,99,5
2515,-72,-2016,-448,-126,97,0
2520,-96,-2008,-416,-127,96,-5
2525,-104,-2032,-368,-126,96,-9
2530,-88,-2040,-392,-122,98,-12
2535,-104,-2032,-384,-116,99,-14
2540,-112,-2024,-408,-113,100,-14
2545,-120,-2040,-360,-109,99,-19
2550,-112,-2032,-384,-103,98,-20
2555,-112,-2000,-384,-99,99,-23
2560,-112,-2032,-416,-97,99,-26
2565,-112,-2048,-360,-92,99,-27
2570,-112,-2032,-392,-84,102,-29
2575,-104,-2032,-416,-78,104,-30
2580,-88,-2040,-400,-71,106,-33
2585,-96,-2016,-424,-67,106,-37
2590,-104,-2016,-408,-62,105,-40
2595,-80,-2016,-432,-57,105,-45
2600,-104,-2032,-424,-53,106,-48
2605,-64,-2008,-392,-49,104,-53
2610,-80,-2000,-432,-48,103,-57
2615,-72,-2032,-432,-45,102,-63
2620,-80,-2000,-456,-40,103,-66
2625,-64,-2008,-440,-40,101,-68
2630,-88,-2008,-440,-42,101,-70
2635,-96,-2040,-424,-43,99,-72
2640,-96,-2000,-440,-46,96,-71
2645,-72,-1984,-400,-50,94,-70
2650,-104,-1968,-424,-56,92,-67
2655,-104,-1992,-416,-62,88,-65
2660,-96,-1992,-416,-66,85,-61
2665,-96,-2008,-448,-68,82,-59
2670,-88,-1984,-440,-72,78,-57
2675,-96,-1976,-424,-74,77,-53
2680,-80,-1984,-416,-75,76,-51
2685,-88,-1976,-448,-79,75,-50
2690,-80,-1976,-432,-82,74,-50
2695,-72,-1992,-448,-86,72,-50
2700,-88,-1984,-424,-90,72,-52
2705,-64,-1968,-440,-94,71,-54
2710,-96,-1992,-416,-99,69,-56
2715,-72,-2000,-400,-104,65,-57
2720,-88,-1992,-416,-109,63,-58
2725,-64,-2008,-400,-112,61,-59
2730,-48,-1992,-416,-119,57,-60
2735,-88,-1984,-432,-125,54,-61
2740,-88,-1992,-400,-131,49,-62
2745,-80,-2016,-408,-138,43,-61
2750,-104,-2024,-432,-146,37,-62
2755,-104,-2008,-424,-152,34,-62
2760,-80,-2032,-392,-155,29,-61
2765,-72,-2040,-424,-160,25,-62
2770,-56,-2040,-416,-165,21,-59
2775,-88,-2016,-400,-167,18,-59
2780,-88,-2016,-432,-170,14,-57
2785,-48,-2024,-424,-174,10,-55
2790,-80,-2008,-424,-176,6,-49
2795,-80,-2016,-416,-179,6,-46
2800,-64,-2000,-424,-180,5,-42
2805,-64,-2016,-424,-181,5,-37
2810,-48,-2016,-424,-184,8,-35
2815,-48,-2000,-440,-186,9,-31
2820,-24,-1992,-416,-187,9,-28
2825,-40,-1976,-440,-188,7,-28
2830,-48,-2008,-432,-193,4,-27
2835,0,-2000,-400,-193,2,-28
2840,-32,-1976,-392,-195,-1,-28
2845,-16,-1992,-416,-197,-6,-28
2850,-72,-1992,-424,-199,-11,-29
2855,-16,-1976,-408,-203,-18,-30
2860,0,-1984,-432,-205,-25,-31
2865,-16,-1984,-416,-209,-32,-31
2870,-40,-1992,-392,-211,-38,-33
2875,-16,-1984,-400,-212,-41,-34
2880,-40,-1976,-376,-212,-43,-36
2885,-32,-1984,-400,-212,-44,-36
2890,-64,-1976,-392,-211,-46,-38
2895,-24,-2000,-400,-212,-47,-40
2900,-16,-1992,-416,-214,-45,-42
2905,-48,-1976,-384,-217,-45,-42
2910,-40,-1992,-392,-220,-43,-42
2915,-16,-1992,-416,-223,-44,-41
2920,-16,-2000,-416,-226,-43,-40
2925,-8,-1968,-424,-231,-43,-42
2930,-16,-2000,-400,-232,-43,-43
2935,-8,-2000,-424,-236,-44,-42
2940,-16,-1984,-424,-233,-42,-42
2945,-24,-1976,-408,-232,-43,-42
2950,-16,-1992,-432,-235,-45,-41
2955,-24,-2000,-440,-236,-47,-39
2960,-16,-1984,-432,-240,-50,-35
2965,-32,-1984,-400,-244,-54,-36
2970,-32,-2000,-416,-248,-58,-32
2975,-32,-1992,-416,-247,-63,-30
2980,-24,-1992,-408,-249,-67,-31
2985,-32,-1968,-392,-245,-69,-31
2990,-40,-1976,-416,-244,-69,-31
2995,-8,-1984,-432,-246,-72,-30
3000,8,-1992,-432,-247,-73,-30
3005,-24,-1960,-440,-247,-71,-28
3010,-16,-1976,-392,-247,-71,-28
3015,-16,-1960,-408,-248,-70,-28
3020,0,-1968,-392,-243,-69,-25
3025,8,-1968,-400,-242,-69,-25
3030,8,-1984,-400,-241,-70,-24
3035,16,-1976,-400,-241,-72,-24
3040,8,-1952,-384,-239,-70,-24
3045,-24,-1928,-408,-240,-67,-24
3050,8,-1960,-384,-244,-67,-23
3055,0,-1952,-400,-245,-66,-20
3060,8,-1944,-424,-247,-65,-18
3065,-8,-1944,-400,-248,-62,-18
3070,16,-1944,-432,-251,-59,-15
3075,-32,-1944,-352,-258,-58,-13
3080,-8,-1928,-400,-263,-57,-12
3085,-24,-1936,-392,-267,-57,-11
3090,0,-1936,-368,-269,-59,-9
3095,-40,-1928,-360,-272,-60,-8
3100,-24,-1936,-368,-277,-65,-5
3105,-40,-1944,-392,-285,-73,-3
3110,-48,-1928,-392,-288,-76,-1
3115,-24,-1920,-400,-292,-79,2
3120,-16,-1936,-432,-295,-79,6
3125,-24,-1936,-416,-301,-76,8
3130,0,-1920,-416,-304,-73,12
3135,-8,-1912,-424,-304,-70,15
3140,-24,-1912,-440,-304,-64,19
3145,0,-1904,-432,-305,-59,19
3150,-8,-1904,-432,-305,-50,22
3155,16,-1912,-440,-306,-45,24
3160,-16,-1904,-392,-307,-37,27
3165,-16,-1920,-424,-309,-33,28
3170,0,-1920,-400,-309,-28,31
3175,8,-1920,-432,-310,-20,35
3180,16,-1936,-432,-317,-15,38
3185,16,-1904,-384,-324,-13,40
3190,8,-1888,-448,-328,-14,40
3195,24,-1888,-408,-333,-14,42
3200,-16,-1896,-424,-339,-19,45
3205,-8,-1912,-432,-342,-19,47
3210,-32,-1880,-416,-344,-21,50
3215,-48,-1880,-448,-344,-22,53
3220,-48,-1880,-424,-347,-22,56
3225,-40,-1896,-440,-348,-20,60
3230,-72,-1864,-424,-348,-17,64
3235,-72,-1888,-400,-348,-14,69
3240,-80,-1888,-416,-346,-9,73
3245,-96,-1880,-400,-345,-1,73
3250,-64,-1896,-376,-343,8,69
3255,-72,-1856,-416,-340,16,64
3260,-48,-1888,-392,-336,24,57
3265,-56,-1872,-392,-332,32,49
3270,-8,-1864,-384,-325,39,41
3275,-16,-1848,-416,-319,45,32
3280,8,-1824,-424,-314,51,23
3285,-32,-1848,-384,-309,60,14
3290,32,-1824,-368,-302,65,8
3295,8,-1824,-384,-292,74,3
3300,16,-1840,-392,-283,82,0
3305,0,-1800,-352,-275,92,0
3310,24,-1840,-352,-266,98,0
3315,16,-1840,-344,-260,104,0
3320,-8,-1832,-344,-256,109,2
3325,0,-1808,-328,-256,113,2
3330,16,-1832,-288,-260,117,2
3335,16,-1816,-304,-261,121,1
3340,-8,-1792,-280,-263,128,-2
3345,0,-1816,-272,-262,135,-5
3350,32,-1808,-272,-257,145,-11
3355,0,-1776,-264,-250,152,-22
3360,32,-1816,-248,-242,160,-31
3365,24,-1752,-240,-227,170,-41
3370,40,-1744,-224,-208,179,-51
3375,32,-1744,-208,-192,189,-61
3380,48,-1728,-184,-175,196,-73
3385,48,-1744,-184,-159,205,-84
3390,40,-1712,-184,-147,206,-94
3395,104,-1696,-152,-137,205,-103
3400,56,-1680,-136,-129,206,-110
3405,56,-1640,-144,-124,205,-114
3410,72,-1616,-112,-119,204,-117
3415,80,-1600,-128,-118,203,-118
3420,48,-1600,-88,-118,204,-120
3425,56,-1592,-88,-125,207,-118
3430,64,-1600,-96,-136,215,-113
3435,0,-1592,-104,-146,219,-107
3440,-16,-1608,-56,-153,221,-95
3445,16,-1664,-88,-163,219,-81
3450,8,-1664,-168,-182,222,-68
3455,32,-1704,-176,-207,225,-54
3460,-16,-1712,-160,-239,230,-39
3465,0,-1720,-208,-267,225,-23
3470,-48,-1744,-200,-295,221,-12
3475,-56,-1792,-200,-317,212,-1
3480,-48,-1808,-240,-325,197,7
3485,-56,-1848,-224,-332,188,12
3490,-56,-1832,-264,-335,176,15
3495,-96,-1864,-256,-342,172,14
3500,-112,-1864,-264,-349,165,15
3505,-112,-1872,-264,-351,153,15
3510,-104,-1864,-272,-360,143,12
3515,-120,-1872,-328,-375,142,9
3520,-120,-1848,-304,-395,138,6
3525,-120,-1856,-304,-415,133,2
3530,-144,-1856,-328,-434,124,-3
3535,-136,-1880,-360,-460,112,-7
3540,-128,-1864,-416,-483,100,-12
3545,-136,-1896,-448,-511,91,-18
3550,-128,-1936,-464,-543,92,-26
3555,-128,-1944,-520,-581,95,-35
3560,-120,-1992,-536,-620,99,-49
3565,-128,-2008,-616,-650,101,-64
3570,-128,-2048,-720,-677,102,-78
3575,-128,-2120,-792,-712,106,-89
3580,-128,-2152,-936,-754,108,-102
3585,-144,-2224,-1112,-803,109,-115
3590,-192,-2264,-1320,-864,106,-122
3595,-240,-2296,-1616,-942,104,-121
3600,-240,-2392,-2008,-1050,99,-114
3605,-288,-2456,-2432,-1194,92,-99
3610,-368,-2536,-2880,-1369,86,-76
3615,-400,-2632,-3344,-1576,77,-49
3620,-456,-2752,-3808,-1816,76,-14
3625,-480,-2856,-4144,-2089,82,22
3630,-464,-3000,-4360,-2382,93,52
3635,-432,-3152,-4368,-2683,103,70
3640,-336,-3320,-4224,-2950,116,74
3645,-328,-3472,-3904,-3143,145,61
3650,-368,-3568,-3528,-3239,191,60
3655,-344,-3680,-3072,-3269,244,75
3660,-344,-3696,-2584,-3262,290,87
3665,-304,-3704,-2048,-3225,324,105
3670,-224,-3704,-1472,-3143,351,118
3675,-168,-3640,-944,-2992,377,122
3680,-136,-3608,-456,-2754,398,109
3685,-144,-3504,-152,-2431,405,91
3690,-144,-3328,40,-2062,404,79
3695,-136,-3120,72,-1693,393,71
3700,-56,-2800,-64,-1373,382,53
3705,-40,-2424,-312,-1175,384,23
3710,-16,-2064,-480,-1138,401,-23
3715,80,-1784,-512,-1225,418,-77
3720,104,-1440,-520,-1373,425,-139
3725,168,-1120,-456,-1540,426,-205
3730,248,-792,-384,-1691,438,-277
3735,272,-464,-360,-1827,463,-354
3740,336,-144,-424,-1984,495,-426
3745,352,120,-432,-2200,542,-492
3750,296,352,-464,-2442,599,-535
3755,256,280,-416,-2672,629,-556
3760,256,216,-464,-2836,608,-577
3765,264,88,-560,-2915,546,-599
3770,256,-128,-616,-2932,484,-622
3775,304,-344,-728,-2891,459,-649
3780,264,-464,-776,-2800,476,-674
3785,200,-648,-816,-2665,512,-674
3790,224,-760,-824,-2500,562,-657
3795,152,-752,-912,-2314,602,-651
3800,144,-720,-928,-2141,643,-626
3805,128,-728,-944,-2005,676,-588
3810,104,-744,-920,-1901,708,-549
3815,184,-752,-880,-1804,736,-509
3820,168,-792,-864,-1717,762,-475
3825,176,-816,-840,-1636,787,-441
3830,240,-848,-856,-1581,822,-408
3835,248,-944,-832,-1574,873,-383
3840,296,-1024,-832,-1597,930,-371
3845,312,-1112,-784,-1622,996,-367
3850,328,-1224,-760,-1647,1067,-369
3855,328,-1280,-800,-1664,1122,-374
3860,344,-1376,-784,-1683,1155,-384
3865,312,-1432,-792,-1697,1166,-391
3870,288,-1456,-776,-1705,1161,-396
3875,296,-1464,-776,-1702,1145,-399
3880,272,-1424,-816,-1697,1123,-406
3885,224,-1360,-840,-1709,1100,-414
3890,184,-1296,-848,-1741,1084,-423
3895,112,-1280,-816,-1788,1078,-437
3900,80,-1224,-752,-1842,1072,-447
3905,32,-1176,-736,-1897,1053,-465
3910,-8,-1088,-696,-1964,1031,-477
3915,-24,-1016,-664,-2048,1015,-489
3920,24,-992,-568,-2135,994,-496
3925,64,-912,-656,-2215,969,-508
3930,128,-944,-536,-2294,948,-523
3935,152,-984,-512,-2336,930,-542
3940,232,-960,-496,-2319,906,-555
3945,256,-904,-552,-2231,876,-562
3950,328,-840,-672,-2105,830,-551
3955,384,-1040,-696,-1971,764,-537
3960,336,-1056,-1000,-1796,684,-553
3965,392,-1104,-1080,-1576,615,-561
3970,480,-864,-1448,-1278,560,-544
3975,584,-840,-1648,-1000,544,-482
3980,624,-688,-1728,-755,544,-431
3985,648,-528,-1960,-467,542,-376
3990,728,-344,-2128,-169,559,-258
3995,840,-368,-2232,91,575,-87
4000,1056,-440,-2248,365,583,63
4005,1112,-104,-2672,680,618,170
4010,1320,-24,-2856,887,709,280
4015,1344,128,-3056,961,791,358
4020,1760,552,-6856,892,866,424
4025,1896,696,-7648,-450,431,264
4030,1920,1616,-4704,-3277,-19,245
4035,2272,944,-3168,-4521,-250,541
4040,2584,328,-2784,-4216,-466,641
4045,1008,1128,-3104,-3128,124,462
4050,1928,2520,-6328,-2641,913,273
4055,4152,2288,-2136,-4868,366,86
4060,3416,2080,-2528,-5122,-588,-64
4065,2264,2952,-3040,-3521,-1124,-384
4070,1504,2976,-4032,-2443,-1066,-601
4075,1008,2352,-3504,-2095,-1005,-657
4080,1536,2864,-5472,-1663,-787,-674
4085,456,2424,-3912,-1986,-1103,-823
4090,544,2648,-4032,-1844,-714,-770
4095,648,2712,-4456,-1799,-259,-734
4100,432,2568,-3736,-1867,76,-726
4105,152,2384,-3992,-1743,214,-737
4110,-128,1856,-3904,-1683,320,-616
4115,304,1760,-4656,-1643,302,-530
4120,392,1152,-4400,-1708,348,-482
4125,824,1008,-4696,-1762,373,-433
4130,1040,920,-3816,-1901,345,-407
4135,968,536,-3792,-1762,267,-341
4140,1104,392,-3800,-1535,184,-262
4145,1064,112,-3752,-1317,88,-207
4150,1096,-160,-3600,-1159,45,-152
4155,1080,-384,-3496,-1043,57,-96
4160,1024,-464,-3312,-931,115,-39
4165,1144,-520,-3232,-803,196,3
4170,1064,-464,-3112,-704,296,10
4175,976,-264,-3056,-654,427,-22
4180,864,-88,-3000,-641,572,-105
4185,848,80,-2880,-635,730,-204
4190,768,112,-2792,-641,901,-300
4195,752,248,-2864,-659,1059,-382
4200,784,176,-2808,-686,1207,-445
4205,608,160,-2744,-723,1338,-492
4210,560,200,-2696,-711,1493,-491
4215,496,120,-2624,-660,1655,-519
4220,616,176,-2600,-638,1804,-535
4225,784,64,-2464,-618,1905,-558
4230,472,400,-2520,-571,1961,-637
4235,824,616,-2584,-618,2002,-634
4240,752,696,-2536,-764,2044,-573
4245,672,840,-2520,-947,2085,-483
4250,1448,512,-2088,-1148,2125,-403
4255,1400,384,-2040,-1059,2240,-490
4260,408,848,-2064,-951,2252,-610
4265,680,976,-2168,-1054,2044,-559
4270,912,864,-2120,-1104,1927,-428
4275,1096,528,-2008,-1013,1925,-325
4280,864,616,-2112,-833,1980,-326
4285,816,752,-2168,-808,1971,-310
4290,872,672,-2072,-898,1936,-242
4295,992,512,-1960,-988,1899,-164
4300,768,392,-1712,-1011,1851,-127
4305,984,296,-1464,-921,2012,-73
4310,952,384,-1464,-756,2127,-46
4315,1024,520,-1560,-599,2137,-26
4320,1056,544,-1640,-476,2090,13
4325,1120,552,-1616,-387,2039,57
4330,1080,584,-1616,-310,1979,73
4335,1160,624,-1640,-247,1917,75
4340,1136,688,-1600,-216,1869,79
4345,1136,800,-1488,-173,1814,87
4350,1128,872,-1480,-120,1755,87
4355,1136,824,-1416,-77,1704,92
4360,1144,896,-1464,-58,1657,100
4365,1136,904,-1480,-48,1596,118
4370,1144,880,-1512,-9,1527,146
4375,1080,792,-1504,55,1437,172
4380,1320,736,-1528,137,1335,190
4385,1328,688,-1536,211,1253,179
4390,1256,648,-1480,241,1219,161
4395,1120,600,-1384,213,1221,138
4400,1008,768,-1336,142,1213,101
4405,1120,960,-1248,53,1192,62
4410,1200,968,-1280,-13,1160,6
4415,1256,1064,-1328,-35,1098,-41
4420,1272,1080,-1336,-105,1010,-82
4425,1248,1056,-1136,-203,939,-108
4430,1144,856,-976,-215,907,-99
4435,1296,696,-976,-138,860,-78
4440,1392,608,-1040,-47,797,-64
4445,1480,560,-1080,13,727,-54
4450,1528,512,-1112,48,660,-43
4455,1384,512,-1160,80,570,-32
4460,1448,480,-1208,130,461,-10
4465,1560,352,-1232,187,363,0
4470,1648,480,-1296,248,283,6
4475,1600,448,-1368,301,216,2
4480,1496,488,-1384,342,151,6
4485,1528,440,-1456,368,91,17
4490,1600,448,-1464,388,39,16
4495,1616,456,-1464,397,-7,22
4500,1656,392,-1456,409,-51,31
4505,1680,392,-1416,435,-98,38
4510,1656,344,-1472,484,-148,43
4515,1520,352,-1464,533,-213,48
4520,1464,312,-1496,571,-300,49
4525,1480,168,-1496,605,-373,47
4530,1592,264,-1512,623,-426,45
4535,1640,328,-1496,643,-421,20
4540,1408,368,-1568,657,-409,-16
4545,1392,280,-1576,644,-408,-9
4550,1528,280,-1528,615,-404,8
4555,1528,304,-1600,617,-403,-18
4560,1488,328,-1624,613,-408,-37
4565,1504,416,-1672,618,-408,-52
4570,1632,400,-1808,617,-409,-81
4575,1568,480,-1656,590,-410,-87
4580,1608,544,-1712,568,-395,-115
4585,1488,440,-1712,502,-389,-125
4590,1416,512,-1736,420,-405,-112
4595,1680,352,-1760,355,-424,-116
4600,1488,528,-1736,294,-425,-108
4605,1608,552,-1816,244,-440,-116
4610,1528,560,-1792,187,-458,-121
4615,1408,592,-1832,152,-472,-91
4620,1840,400,-1768,113,-499,-75
4625,1552,216,-1616,94,-493,-62
4630,1392,312,-1648,154,-447,-11
4635,1616,312,-1752,198,-455,-5
4640,1296,448,-1760,199,-465,1
4645,1168,576,-1880,194,-462,53
4650,1648,432,-1896,143,-479,92
4655,1744,256,-1736,107,-485,58
4660,1176,440,-1672,154,-414,70
4665,1072,672,-1944,195,-405,108
4670,1368,608,-2016,118,-431,158
4675,1632,320,-1872,45,-436,143
4680,1408,432,-1848,63,-391,140
4685,1184,560,-1872,83,-330,150
4690,1176,488,-1952,67,-308,183
4695,1344,384,-1968,45,-297,219
4700,1384,312,-1928,51,-256,229
4705,1384,320,-1952,66,-205,224
4710,1416,320,-1944,75,-151,221
4715,1472,320,-1920,83,-100,217
4720,1416,344,-1928,95,-57,213
4725,1448,344,-1984,103,-38,203
4730,1408,344,-1936,104,-17,200
4735,1424,344,-1944,110,-2,202
4740,1440,304,-1912,115,25,203
4745,1456,264,-1928,117,51,195
4750,1416,256,-1888,108,78,186
4755,1424,240,-1840,105,108,175
4760,1376,224,-1896,99,125,159
4765,1400,232,-1856,82,128,140
4770,1488,176,-1872,62,146,118
4775,1408,184,-1848,57,176,97
4780,1408,176,-1888,41,182,70
4785,1512,160,-1872,11,197,43
4790,1416,120,-1792,-7,229,18
4795,1424,200,-1896,-25,243,-6
4800,1528,184,-1856,-57,257,-29
4805,1448,208,-1832,-76,289,-49
4810,1408,192,-1880,-82,305,-63
4815,1488,208,-1904,-105,312,-76
4820,1432,264,-1840,-123,340,-96
4825,1416,264,-1840,-134,354,-109
4830,1504,248,-1848,-144,362,-117
4835,1496,272,-1816,-149,385,-128
4840,1432,320,-1856,-153,397,-138
4845,1480,280,-1816,-176,388,-148
4850,1552,240,-1784,-181,401,-153
4855,1496,216,-1736,-162,432,-161
4860,1504,272,-1816,-146,431,-164
4865,1480,288,-1752,-155,426,-173
4870,1496,264,-1768,-165,421,-178
4875,1488,272,-1728,-168,422,-185
4880,1472,304,-1696,-164,418,-192
4885,1512,288,-1680,-154,408,-192
4890,1448,288,-1640,-141,397,-187
4895,1464,280,-1632,-128,371,-180
4900,1488,384,-1616,-109,342,-179
4905,1480,336,-1616,-93,320,-180
4910,1472,360,-1600,-75,296,-181
4915,1480,360,-1552,-63,274,-182
4920,1488,344,-1520,-48,242,-174
4925,1464,296,-1496,-27,204,-174
4930,1488,288,-1496,2,162,-174
4935,1472,328,-1504,28,121,-181
4940,1480,312,-1496,45,77,-180
4945,1440,328,-1464,61,30,-184
4950,1464,320,-1480,58,-16,-185
4955,1448,344,-1504,49,-66,-176
4960,1456,360,-1472,39,-122,-170
4965,1448,376,-1480,31,-169,-167
4970,1496,408,-1520,23,-214,-159
4975,1464,392,-1552,1,-249,-156
4980,1456,384,-1568,-15,-283,-142
4985,1456,376,-1568,-23,-314,-134
4990,1464,416,-1600,-22,-335,-124
4995,1464,376,-1592,-12,-353,-110
5000,1424,416,-1656,4,-367,-97
5005,1456,392,-1680,14,-380,-89
5010,1336,304,-1704,24,-387,-76
5015,1448,368,-1736,44,-390,-59
5020,1504,360,-1736,50,-387,-48
5025,1472,392,-1760,51,-369,-34
5030,1432,456,-1792,59,-362,-30
5035,1456,456,-1800,61,-351,-25
5040,1456,440,-1816,50,-337,-23
5045,1456,400,-1800,40,-320,-21
5050,1400,416,-1792,25,-300,-16
5055,1760,232,-1792,7,-294,-16
5060,1408,344,-1808,-2,-309,-48
5065,1408,400,-1760,-9,-298,-37
5070,1376,400,-1784,-2,-274,-21
5075,1416,400,-1808,-5,-267,-13
5080,1408,400,-1864,-15,-261,-11
5085,1416,400,-1832,-24,-251,-9
5090,1408,376,-1816,-29,-242,-6
5095,1440,352,-1808,-26,-235,-3
5100,1408,344,-1832,-21,-228,0
5105,1408,352,-1816,-20,-222,0
5110,1408,352,-1792,-21,-217,0
5115,1408,360,-1840,-17,-213,1
5120,1488,296,-1792,-14,-214,3
5125,1656,224,-1816,-6,-226,-15
5130,1152,448,-1848,-5,-238,-45
5135,1320,392,-1768,-33,-214,-27
5140,1344,328,-1800,-26,-198,-8
5145,1360,344,-1784,-17,-193,0
5150,1384,328,-1800,-25,-186,0
5155,1352,360,-1808,-28,-180,2
5160,1352,360,-1816,-25,-175,4
5165,1400,328,-1824,-22,-174,9
5170,1368,352,-1808,-20,-171,10
5175,1376,336,-1800,-20,-172,12
5180,1384,328,-1792,-19,-176,16
5185,1376,336,-1800,-18,-179,18
5190,1360,344,-1760,-20,-184,19
5195,1376,312,-1776,-20,-189,17
5200,1384,312,-1832,-22,-194,16
5205,1416,280,-1776,-24,-197,14
5210,1376,320,-1808,-30,-200,8
5215,1360,336,-1808,-37,-204,4
5220,1384,304,-1824,-39,-206,0
5225,1368,352,-1856,-41,-206,-5
5230,1368,312,-1856,-49,-202,-9
5235,1344,352,-1872,-58,-198,-13
5240,1376,344,-1848,-63,-191,-16
5245,1376,336,-1856,-66,-183,-17
5250,1368,336,-1880,-66,-177,-20
5255,1352,320,-1864,-66,-171,-20
5260,1344,328,-1864,-63,-162,-23
5265,1336,320,-1864,-59,-153,-26
5270,1344,352,-1880,-56,-145,-24
5275,1328,360,-1848,-57,-135,-25
5280,1352,320,-1880,-56,-128,-25
5285,1400,368,-1880,-53,-118,-28
5290,1368,352,-1880,-58,-106,-31
5295,1352,344,-1864,-56,-98,-28
5300,1352,328,-1872,-52,-86,-25
5305,1352,352,-1864,-52,-77,-28
5310,1368,344,-1864,-57,-69,-29
5315,1360,360,-1840,-61,-62,-28
5320,1344,352,-1872,-61,-54,-29
5325,1360,312,-1832,-62,-47,-25
5330,1360,336,-1864,-60,-39,-25
5335,1312,344,-1840,-63,-36,-24
5340,1360,392,-1848,-62,-34,-23
5345,1360,344,-1848,-63,-33,-23
5350,1320,352,-1840,-58,-32,-20
5355,1336,352,-1880,-56,-31,-17
5360,1352,352,-1848,-55,-31,-15
5365,1328,368,-1824,-53,-33,-14
5370,1304,368,-1808,-49,-34,-12
5375,1320,336,-1816,-43,-35,-9
5380,1352,336,-1816,-38,-37,-3
5385,1336,344,-1808,-36,-37,1
5390,1336,376,-1832,-31,-41,3
5395,1288,368,-1864,-32,-43,4
5400,1336,344,-1848,-25,-39,7
5405,1360,312,-1848,-20,-37,10
5410,1344,344,-1840,-19,-34,11
5415,1336,352,-1824,-23,-34,7
5420,1336,344,-1856,-24,-33,7
5425,1328,328,-1856,-22,-30,10
5430,1352,336,-1872,-19,-30,13
5435,1344,352,-1848,-21,-29,12
5440,1344,360,-1872,-24,-28,9
5445,1320,368,-1864,-25,-27,10
5450,1312,352,-1848,-22,-25,15
5455,1344,320,-1864,-21,-23,16
5460,1336,352,-1840,-23,-21,12
5465,1336,352,-1856,-27,-19,10
5470,1320,368,-1888,-27,-20,12
5475,1320,328,-1832,-24,-15,15
5480,1320,328,-1848,-22,-14,15
5485,1344,328,-1864,-26,-12,13
5490,1336,360,-1864,-28,-8,9
5495,1296,328,-1864,-29,-5,9
5500,1344,304,-1864,-24,0,13
5505,1320,320,-1856,-21,2,13
5510,1328,336,-1864,-23,2,12
5515,1312,360,-1856,-28,1,9
5520,1320,328,-1864,-30,2,7
5525,1304,336,-1840,-29,3,10
5530,1312,336,-1864,-29,4,8
5535,1312,344,-1824,-29,3,10
5540,1328,344,-1864,-33,4,7
5545,1304,344,-1888,-35,3,6
5550,1296,344,-1848,-33,3,8
5555,1296,344,-1888,-34,3,9
5560,1328,320,-1832,-32,5,10
5565,1328,320,-1848,-32,4,10
5570,1328,328,-1864,-33,2,8
5575,1320,344,-1872,-36,2,7
5580,1320,336,-1848,-36,1,6
5585,1304,328,-1840,-34,1,8
5590,1328,304,-1872,-35,3,5
5595,1320,336,-1872,-34,2,5
5600,1336,352,-1824,-37,2,5
5605,1344,312,-1864,-40,0,4
5610,1336,320,-1864,-41,1,3
5615,1328,352,-1864,-40,3,3
5620,1320,312,-1856,-38,4,3
5625,1328,312,-1864,-39,4,1
5630,1312,344,-1864,-39,5,0
5635,1344,304,-1888,-41,5,-2
5640,1328,320,-1864,-38,7,0
5645,1344,320,-1832,-38,8,2
5650,1312,336,-1848,-39,8,1
5655,1360,344,-1880,-42,8,0
5660,1336,328,-1864,-42,9,-2
5665,1296,328,-1888,-41,8,-1
5670,1320,328,-1824,-40,9,0
5675,1320,320,-1832,-39,12,0
5680,1312,336,-1864,-39,13,-1
5685,1344,344,-1880,-41,11,1
5690,1312,336,-1880,-40,9,1
5695,1320,336,-1848,-38,10,2
5700,1296,328,-1872,-38,12,3
5705,1312,352,-1880,-36,12,5
5710,1328,344,-1872,-35,14,6
5715,1328,344,-1856,-34,15,7
5720,1320,320,-1864,-33,17,9
5725,1312,328,-1840,-29,19,9
5730,1320,336,-1864,-27,18,11
5735,1312,320,-1872,-28,20,10
5740,1320,320,-1832,-27,19,11
5745,1296,336,-1864,-30,21,10
5750,1288,328,-1816,-31,20,8
5755,1304,336,-1824,-34,19,6
5760,1312,320,-1824,-35,18,5
5765,1328,328,-1808,-37,15,4
5770,1312,312,-1864,-39,11,2
5775,1312,320,-1872,-42,8,1
5780,1320,312,-1808,-43,2,1
5785,1304,328,-1856,-43,-1,0
5790,1312,328,-1856,-45,-6,2
5795,1344,312,-1856,-46,-12,1
5800,1304,320,-1816,-47,-15,1
5805,1296,328,-1848,-47,-19,1
5810,1320,320,-1856,-48,-20,3
5815,1296,336,-1848,-48,-22,2
5820,1320,328,-1848,-47,-23,4
5825,1320,352,-1848,-45,-25,5
5830,1312,320,-1856,-43,-26,5
5835,1312,336,-1848,-42,-25,6
5840,1304,312,-1840,-40,-25,6
5845,1312,336,-1872,-40,-26,6
5850,1320,328,-1848,-38,-24,6
5855,1304,312,-1904,-39,-25,5
5860,1312,336,-1872,-37,-23,5
5865,1344,328,-1864,-40,-20,4
5870,1328,336,-1872,-41,-19,3
5875,1312,312,-1864,-40,-16,3
5880,1320,312,-1864,-41,-14,1
5885,1312,336,-1880,-42,-12,2
5890,1280,336,-1872,-41,-10,2
5895,1296,336,-1856,-41,-10,3
5900,1304,320,-1840,-41,-10,3
5905,1296,336,-1872,-42,-9,4
5910,1304,328,-1856,-41,-9,5
5915,1296,328,-1840,-41,-8,6
5920,1312,336,-1856,-41,-8,5
5925,1312,328,-1872,-40,-10,6
5930,1304,320,-1864,-40,-10,7
5935,1304,336,-1832,-39,-11,7
5940,1304,320,-1856,-38,-10,6
5945,1328,336,-1872,-40,-9,8
5950,1304,320,-1872,-39,-10,8
5955,1304,328,-1840,-38,-10,8
5960,1304,336,-1872,-36,-9,10
5965,1312,320,-1864,-37,-8,10
5970,1312,304,-1880,-37,-8,10
5975,1312,304,-1848,-36,-7,8
5980,1296,304,-1864,-38,-6,8
5985,1304,304,-1872,-39,-7,7
5990,1328,352,-1888,-41,-6,7
5995,1280,352,-1880,-41,-6,6
6000,1304,320,-1848,-41,-6,6
6005,1328,312,-1880,-42,-6,6
6010,1304,328,-1872,-43,-6,5
6015,1280,312,-1856,-41,-5,6
6020,1312,312,-1848,-41,-6,6
6025,1296,328,-1864,-41,-8,5
6030,1304,336,-1856,-40,-8,5
6035,1296,320,-1856,-41,-8,6
6040,1304,296,-1800,-42,-9,7
6045,1272,320,-1888,-43,-10,6
6050,1296,304,-1872,-43,-9,5
6055,1320,328,-1848,-43,-8,5
6060,1304,304,-1904,-43,-7,6
6065,1280,312,-1856,-44,-6,4
6070,1320,328,-1856,-44,-6,3
6075,1288,304,-1872,-46,-4,2
6080,1296,320,-1880,-48,-3,2
6085,1312,368,-1880,-47,-2,0
6090,1296,272,-1856,-47,1,0
6095,1320,312,-1880,-47,2,-2
6100,1296,320,-1888,-47,3,-3
6105,1304,304,-1840,-46,5,-4
6110,1312,312,-1864,-45,6,-3
6115,1328,304,-1880,-46,9,-3
6120,1320,312,-1856,-46,12,-4
6125,1288,336,-1848,-47,13,-4
6130,1296,312,-1856,-46,17,-4
6135,1312,328,-1880,-47,20,-5
6140,1296,336,-1880,-45,20,-6
6145,1336,272,-1920,-46,23,-7
6150,1296,320,-1888,-46,24,-6
6155,1312,320,-1872,-47,25,-6
6160,1296,336,-1856,-47,26,-7
6165,1312,320,-1888,-47,27,-6
6170,1296,320,-1848,-48,26,-7
6175,1312,328,-1856,-49,26,-8
6180,1280,312,-1880,-51,27,-7
6185,1320,328,-1872,-52,26,-9
6190,1280,328,-1864,-51,25,-10
6195,1304,320,-1840,-52,24,-10
6200,1312,288,-1824,-55,23,-8
6205,1312,304,-1840,-54,22,-11
6210,1304,328,-1872,-54,20,-11
6215,1296,328,-1856,-52,17,-9
6220,1296,336,-1848,-51,15,-9
6225,1296,312,-1880,-51,14,-7
6230,1288,328,-1896,-51,13,-8
6235,1296,320,-1864,-50,12,-7
6240,1312,312,-1848,-48,13,-7
6245,1296,328,-1888,-47,14,-6
6250,1304,312,-1880,-44,14,-6
6255,1288,328,-1864,-45,15,-4
6260,1312,304,-1872,-43,15,-4
6265,1304,328,-1856,-42,14,-5
6270,1304,296,-1872,-42,12,-6
6275,1304,328,-1880,-43,11,-5
6280,1296,304,-1864,-45,9,-7
6285,1288,336,-1856,-46,7,-8
6290,1288,320,-1864,-50,5,-8
6295,1296,312,-1856,-52,2,-10
6300,1288,320,-1832,-54,-2,-12
6305,1336,320,-1856,-54,-6,-14
6310,1312,336,-1856,-57,-11,-13
6315,1320,264,-1880,-57,-12,-12
6320,1304,328,-1872,-59,-11,-13
6325,1304,352,-1872,-59,-10,-13
6330,1296,328,-1888,-58,-10,-13
6335,1304,312,-1872,-58,-9,-12
6340,1304,312,-1880,-56,-8,-11
6345,1328,328,-1832,-55,-7,-11
6350,1296,336,-1864,-54,-4,-10
6355,1288,336,-1880,-53,-2,-8
6360,1320,312,-1880,-52,-2,-9
6365,1280,328,-1880,-53,-1,-10
6370,1288,344,-1872,-52,-1,-11
6375,1296,312,-1864,-53,1,-10
6380,1296,328,-1872,-51,3,-10
6385,1296,336,-1880,-51,4,-10
6390,1288,336,-1880,-50,7,-10
6395,1304,336,-1880,-50,7,-10
6400,1288,344,-1880,-51,11,-10
6405,1296,336,-1896,-51,12,-10
6410,1304,328,-1864,-50,14,-10
6415,1320,312,-1904,-51,14,-9
6420,1296,336,-1864,-51,15,-9
6425,1288,312,-1880,-52,16,-9
6430,1296,344,-1864,-50,15,-8
6435,1288,320,-1896,-49,15,-10
6440,1296,320,-1872,-50,16,-10
6445,1288,328,-1872,-47,13,-9
6450,1280,320,-1864,-48,13,-8
6455,1304,328,-1864,-48,12,-8
6460,1320,328,-1848,-47,11,-8
6465,1296,320,-1872,-48,12,-8
6470,1312,312,-1880,-49,12,-8
6475,1296,336,-1856,-49,12,-9
6480,1312,336,-1856,-50,14,-8
6485,1296,328,-1896,-49,16,-10
6490,1280,352,-1880,-48,15,-8
6495,1296,312,-1896,-50,18,-9
6500,1296,320,-1880,-49,17,-8
6505,1296,328,-1904,-48,16,-8
6510,1312,328,-1848,-50,17,-8
6515,1304,344,-1880,-50,17,-8
6520,1288,320,-1896,-50,17,-7
6525,1280,336,-1872,-50,15,-7
6530,1280,336,-1856,-49,15,-7
6535,1328,344,-1864,-49,12,-7
6540,1296,344,-1872,-49,11,-7
6545,1296,336,-1872,-48,9,-7
6550,1320,336,-1864,-47,6,-4
6555,1320,328,-1864,-47,5,-4
6560,1280,344,-1864,-45,5,-4
6565,1288,320,-1904,-46,3,-3
6570,1272,328,-1896,-46,2,-3
6575,1288,312,-1864,-45,2,-4
6580,1288,336,-1888,-46,2,-5
6585,1296,328,-1888,-48,4,-5
6590,1296,304,-1856,-47,5,-7
6595,1296,320,-1872,-48,7,-7
6600,1304,344,-1856,-51,7,-8
6605,1312,336,-1912,-52,7,-7
6610,1328,328,-1856,-54,8,-9
6615,1304,320,-1880,-54,9,-10
6620,1304,312,-1872,-54,10,-9
6625,1304,336,-1888,-55,12,-9
6630,1288,328,-1888,-55,13,-9
6635,1288,368,-1880,-53,13,-9
6640,1280,328,-1856,-52,15,-8
6645,1288,344,-1872,-52,17,-7
6650,1288,328,-1856,-51,17,-7
6655,1304,336,-1888,-50,16,-6
6660,1328,320,-1880,-48,19,-5
6665,1304,336,-1840,-49,19,-6
6670,1288,344,-1880,-47,20,-6
6675,1280,312,-1888,-46,19,-4
6680,1296,312,-1864,-47,18,-4
6685,1296,320,-1880,-46,17,-5
6690,1304,312,-1880,-47,15,-6
6695,1320,336,-1880,-49,14,-6
6700,1296,320,-1872,-49,14,-6
6705,1320,336,-1896,-49,12,-7
6710,1280,320,-1896,-51,12,-7
6715,1312,328,-1848,-51,9,-8
6720,1296,336,-1848,-52,9,-7
6725,1296,360,-1848,-52,7,-8
6730,1312,304,-1864,-52,6,-8
6735,1304,328,-1864,-55,6,-6
6740,1304,320,-1848,-52,3,-6
6745,1304,320,-1856,-52,0,-6
6750,1304,352,-1936,-51,0,-5
6755,1288,352,-1856,-51,0,-7
6760,1272,336,-1872,-50,0,-7
6765,1288,344,-1864,-50,1,-5
6770,1280,336,-1872,-47,2,-4
6775,1304,344,-1856,-46,3,-4
6780,1288,336,-1896,-46,6,-5
6785,1296,336,-1896,-45,8,-4
6790,1296,336,-1880,-43,10,-5
6795,1288,320,-1864,-43,12,-4
6800,1312,328,-1872,-44,12,-6
6805,1280,320,-1888,-45,13,-6
6810,1296,320,-1864,-46,13,-8
6815,1296,336,-1848,-48,14,-9
6820,1288,328,-1904,-50,13,-10
6825,1272,328,-1864,-52,11,-12
6830,1288,344,-1896,-53,9,-12
6835,1280,328,-1864,-56,7,-13
6840,1288,344,-1864,-55,5,-12
6845,1280,320,-1856,-56,2,-12
6850,1264,336,-1872,-57,5,-13
6855,1296,344,-1848,-56,5,-13
6860,1264,280,-1936,-57,7,-13
6865,1264,360,-1856,-56,5,-13
6870,1280,352,-1872,-54,5,-11
6875,1304,336,-1888,-54,4,-12
6880,1304,344,-1920,-53,6,-12
6885,1304,328,-1864,-52,6,-10
6890,1312,336,-1896,-51,5,-10
6895,1320,328,-1864,-51,5,-10
6900,1280,368,-1888,-50,6,-8
6905,1288,336,-1912,-51,7,-8
6910,1296,328,-1896,-49,9,-9
6915,1288,328,-1880,-49,10,-10
6920,1304,304,-1880,-49,11,-9
6925,1288,344,-1888,-50,12,-10
6930,1304,336,-1888,-50,14,-10
6935,1320,312,-1880,-49,15,-10
6940,1280,352,-1872,-51,16,-10
6945,1296,328,-1848,-49,16,-10
6950,1296,328,-1872,-50,15,-9
6955,1304,320,-1856,-53,14,-9
6960,1304,304,-1872,-52,12,-8
6965,1272,328,-1848,-50,13,-8
6970,1232,288,-1904,-49,11,-7
6975,1288,352,-1872,-49,10,-8
6980,1264,328,-1864,-48,10,-7
6985,1280,352,-1872,-47,9,-7
6990,1280,328,-1888,-47,8,-7
6995,1288,320,-1880,-49,9,-5
7000,1296,328,-1888,-47,9,-4
7005,1272,336,-1864,-46,9,-6
7010,1280,344,-1872,-48,9,-7
7015,1304,352,-1896,-47,11,-6
7020,1288,328,-1880,-45,12,-7
7025,1280,320,-1880,-46,12,-6
7030,1272,344,-1888,-47,15,-7
7035,1296,328,-1872,-46,15,-7
7040,1296,336,-1856,-47,15,-8
7045,1312,328,-1872,-47,15,-8
7050,1296,344,-1880,-48,16,-8
7055,1288,328,-1872,-50,16,-8
7060,1296,336,-1872,-48,16,-7
7065,1288,320,-1872,-49,15,-7
7070,1296,312,-1896,-49,12,-6
7075,1288,344,-1888,-47,13,-8
7080,1336,336,-1856,-50,12,-6
7085,1288,336,-1888,-49,12,-8
7090,1320,328,-1880,-50,12,-9
7095,1288,344,-1856,-51,14,-7
7100,1288,336,-1880,-51,13,-7
7105,1288,304,-1888,-50,15,-7
7110,1304,336,-1888,-49,15,-9
7115,1304,344,-1896,-48,15,-6
7120,1304,336,-1880,-49,16,-8
7125,1296,344,-1880,-50,16,-7
7130,1296,344,-1848,-49,17,-8
7135,1296,344,-1896,-50,18,-9
7140,1288,344,-1856,-50,17,-8
7145,1304,328,-1872,-50,18,-8
7150,1288,336,-1912,-50,18,-9
7155,1280,352,-1912,-52,19,-10
7160,1296,320,-1896,-53,21,-9
7165,1304,344,-1864,-53,21,-11
7170,1280,352,-1872,-52,21,-11
7175,1296,360,-1896,-53,23,-10
7180,1272,336,-1896,-54,24,-11
7185,1296,344,-1856,-54,23,-10
7190,1280,344,-1880,-53,24,-9
7195,1288,368,-1880,-51,23,-11
7200,1296,304,-1856,-50,24,-9
7205,1288,328,-1872,-49,25,-11
7210,1304,320,-1864,-50,25,-10
7215,1288,336,-1896,-50,26,-11
7220,1280,352,-1872,-48,25,-11
7225,1288,344,-1864,-47,24,-9
7230,1296,344,-1864,-47,25,-7
7235,1288,352,-1848,-47,24,-8
7240,1296,360,-1872,-46,21,-8
7245,1280,328,-1864,-45,22,-8
7250,1288,336,-1856,-49,21,-7
7255,1296,352,-1872,-49,20,-7
7260,1272,344,-1888,-48,19,-7
7265,1288,344,-1872,-47,20,-8
7270,1280,344,-1848,-47,19,-7
7275,1280,320,-1864,-48,18,-8
7280,1272,344,-1888,-46,17,-9
7285,1296,344,-1848,-47,16,-10
7290,1288,352,-1872,-45,14,-8
7295,1272,352,-1872,-46,14,-9
7300,1296,328,-1856,-47,14,-8
7305,1296,352,-1872,-47,11,-9
7310,1280,352,-1888,-48,11,-8
7315,1288,352,-1864,-49,11,-8
7320,1272,328,-1840,-47,10,-8
7325,1288,344,-1872,-48,10,-7
7330,1280,328,-1872,-48,9,-7
7335,1312,336,-1872,-48,7,-6
7340,1296,320,-1880,-48,7,-5
7345,1272,336,-1888,-49,8,-6
7350,1304,320,-1864,-47,8,-4
7355,1296,328,-1896,-46,8,-4
7360,1280,344,-1864,-45,9,-5
7365,1312,320,-1880,-47,12,-5
7370,1296,312,-1888,-46,15,-5
7375,1296,328,-1880,-45,16,-5
7380,1288,352,-1896,-44,18,-6
7385,1272,328,-1880,-46,17,-5
7390,1304,336,-1864,-47,18,-6
7395,1296,328,-1904,-47,19,-6
7400,1296,336,-1864,-47,19,-6
7405,1288,328,-1872,-47,18,-7
7410,1280,360,-1864,-49,16,-8
7415,1288,344,-1848,-50,16,-10
7420,1304,328,-1864,-50,18,-11
7425,1288,328,-1864,-51,18,-12
7430,1296,352,-1888,-53,20,-13
7435,1280,352,-1880,-55,21,-15
7440,1280,328,-1872,-55,23,-16
7445,1296,336,-1880,-56,21,-15
7450,1296,344,-1872,-56,20,-16
7455,1288,360,-1880,-56,19,-16
7460,1296,336,-1872,-56,16,-18
7465,1296,352,-1864,-55,15,-18
7470,1328,320,-1880,-54,12,-16
7475,1296,352,-1896,-52,8,-19
7480,1296,344,-1856,-53,9,-18
7485,1280,344,-1864,-52,9,-16
7490,1280,328,-1880,-51,10,-15
7495,1296,352,-1880,-49,10,-11
7500,1312,336,-1880,-48,10,-10
7505,1296,344,-1864,-46,13,-9
7510,1304,328,-1856,-47,13,-9
7515,1296,352,-1920,-45,14,-8
7520,1296,336,-1872,-44,14,-9
7525,1296,336,-1920,-46,15,-9
7530,1296,328,-1880,-45,16,-9
7535,1296,336,-1904,-46,15,-9
7540,1280,360,-1888,-46,16,-8
7545,1288,352,-1864,-45,15,-8
7550,1288,336,-1896,-43,15,-9
7555,1288,360,-1888,-45,16,-9
7560,1304,344,-1864,-45,15,-10
7565,1304,328,-1880,-43,15,-8
7570,1288,320,-1880,-45,15,-10
7575,1288,344,-1864,-44,12,-9
7580,1296,360,-1872,-45,12,-9
7585,1312,328,-1880,-44,12,-9
7590,1280,360,-1864,-45,13,-10
7595,1304,320,-1880,-44,13,-10
7600,1288,336,-1888,-44,13,-11
7605,1280,336,-1880,-43,12,-9
7610,1288,336,-1864,-44,14,-11
7615,1272,336,-1880,-45,17,-11
7620,1288,320,-1856,-44,16,-11
7625,1272,320,-1880,-42,17,-14
7630,1272,368,-1888,-41,17,-18
7635,1272,344,-1888,-45,18,-18
7640,1288,344,-1880,-46,20,-17
7645,1288,352,-1872,-47,21,-16
7650,1272,384,-1864,-45,20,-14
7655,1288,320,-1904,-44,20,-11
7660,1264,344,-1880,-43,20,-11
7665,1312,344,-1872,-46,22,-12
7670,1280,352,-1864,-47,22,-13
7675,1328,368,-1936,-48,21,-14
7680,1280,360,-1864,-47,23,-13
7685,1280,360,-1864,-47,23,-14
7690,1272,376,-1888,-49,24,-14
7695,1296,344,-1880,-50,24,-13
7700,1304,336,-1880,-52,24,-15
7705,1304,344,-1888,-51,24,-16
7710,1288,352,-1880,-51,25,-16
7715,1304,352,-1872,-50,25,-16
7720,1288,352,-1872,-50,25,-15
7725,1304,352,-1864,-49,25,-16
7730,1336,352,-1832,-50,25,-18
7735,1296,352,-1864,-49,25,-21
7740,1280,360,-1864,-49,24,-22
7745,1296,344,-1880,-49,24,-23
7750,1288,360,-1864,-48,23,-24
7755,1304,360,-1840,-48,24,-22
7760,1280,320,-1888,-48,26,-21
7765,1296,336,-1888,-49,25,-20
7770,1296,352,-1864,-48,27,-19
7775,1296,344,-1880,-47,25,-17
7780,1264,352,-1880,-46,25,-16
7785,1288,368,-1872,-46,26,-13
7790,1272,344,-1896,-45,24,-14
7795,1296,360,-1864,-44,23,-11
7800,1296,352,-1848,-45,23,-14
7805,1304,352,-1880,-44,23,-12
7810,1280,352,-1880,-43,22,-11
7815,1296,368,-1856,-43,21,-10
7820,1296,336,-1848,-42,18,-10
7825,1280,352,-1864,-43,17,-11
7830,1304,328,-1880,-42,16,-8
7835,1312,352,-1848,-39,14,-9
7840,1296,320,-1872,-38,14,-9
7845,1288,344,-1880,-39,13,-9
7850,1288,344,-1880,-38,12,-8
7855,1288,368,-1856,-37,10,-10
7860,1320,344,-1880,-36,9,-10
7865,1304,344,-1864,-35,10,-9
7870,1296,360,-1864,-31,10,-10
7875,1296,344,-1872,-30,8,-10
7880,1280,360,-1912,-30,7,-10
7885,1304,328,-1872,-31,8,-10
7890,1280,360,-1856,-28,7,-10
7895,1288,376,-1896,-27,6,-10
7900,1288,360,-1888,-30,6,-11
7905,1280,352,-1856,-33,7,-10
7910,1296,344,-1872,-36,5,-9
7915,1288,352,-1880,-38,4,-7
7920,1296,352,-1872,-39,5,-6
7925,1280,352,-1864,-41,5,-7
7930,1288,352,-1864,-41,4,-5
7935,1296,336,-1880,-41,5,-5
7940,1296,320,-1872,-43,5,-5
7945,1328,352,-1864,-43,4,-5
7950,1296,344,-1872,-43,6,-3
7955,1304,328,-1872,-45,6,-4
7960,1288,360,-1856,-42,7,-5
7965,1288,368,-1888,-43,8,-6
7970,1296,336,-1872,-43,9,-6
7975,1296,336,-1880,-44,10,-6
7980,1296,328,-1856,-42,11,-8
7985,1296,344,-1912,-45,12,-9
7990,1288,360,-1896,-45,12,-9
7995,1296,344,-1848,-46,12,-9
8000,1304,328,-1872,-44,12,-9
8005,1288,344,-1880,-43,13,-8
8010,1280,352,-1880,-43,14,-8
8015,1280,352,-1856,-43,15,-9
8020,1312,344,-1872,-44,15,-8
8025,1280,368,-1888,-43,14,-9
8030,1312,328,-1864,-45,14,-8
8035,1264,352,-1896,-45,15,-8
8040,1280,336,-1848,-45,15,-8
8045,1280,344,-1856,-45,16,-8
8050,1296,344,-1848,-46,16,-8
8055,1288,344,-1880,-45,16,-6
8060,1264,360,-1888,-45,15,-6
8065,1288,336,-1848,-45,15,-8
8070,1288,320,-1864,-45,14,-8
8075,1280,360,-1864,-42,11,-11
8080,1264,368,-1888,-44,11,-13
8085,1280,360,-1872,-47,12,-11
8090,1280,368,-1896,-44,12,-10
8095,1280,344,-1880,-45,14,-10
8100,1288,384,-1848,-44,14,-8
8105,1296,368,-1888,-42,13,-5
8110,1288,344,-1888,-41,15,-5
8115,1280,360,-1856,-42,14,-6
8120,1312,360,-1872,-43,14,-5
8125,1280,320,-1888,-41,15,-3
8130,1272,336,-1880,-43,15,-4
8135,1296,336,-1864,-41,15,-4
8140,1280,336,-1864,-43,14,-5
8145,1304,352,-1856,-43,13,-4
8150,1296,344,-1864,-42,14,-5
8155,1280,344,-1904,-42,16,-4
8160,1352,360,-1848,-43,16,-5
8165,1296,328,-1904,-44,16,-5
8170,1280,344,-1864,-45,16,-4
8175,1296,336,-1864,-44,14,-4
8180,1296,360,-1840,-43,15,-6
8185,1296,344,-1888,-45,16,-5
8190,1296,360,-1848,-46,15,-5
8195,1288,344,-1864,-46,15,-5
8200,1304,352,-1856,-45,14,-4
8205,1288,344,-1840,-44,13,-4
8210,1288,328,-1872,-44,13,-2
8215,1280,320,-1888,-45,12,-3
8220,1288,336,-1888,-46,11,-3
8225,1304,352,-1864,-43,9,-3
8230,1288,336,-1840,-44,9,-2
8235,1280,336,-1880,-44,8,-3
8240,1296,368,-1872,-44,7,-3
8245,1304,336,-1880,-45,6,-2
8250,1296,344,-1888,-44,5,-3
8255,1280,352,-1888,-44,5,-2
8260,1296,336,-1872,-45,6,-2
8265,1288,352,-1888,-46,6,-3
8270,1288,344,-1864,-46,6,-3
8275,1304,344,-1888,-45,6,-4
8280,1280,344,-1864,-45,6,-4
8285,1304,336,-1864,-45,5,-4
8290,1272,352,-1864,-46,5,-7
8295,1280,352,-1888,-47,5,-6
8300,1280,328,-1880,-46,4,-7
8305,1304,344,-1872,-45,4,-4
8310,1280,352,-1888,-45,4,-4
8315,1304,360,-1888,-43,3,-2
8320,1288,320,-1896,-41,5,-1
8325,1288,376,-1848,-42,5,-1
8330,1280,344,-1872,-42,6,0
8335,1280,336,-1872,-40,8,0
8340,1280,336,-1896,-40,10,0
8345,1280,344,-1856,-40,11,0
8350,1280,352,-1840,-42,13,0
8355,1256,336,-1912,-41,13,-1
8360,1280,336,-1856,-44,12,-1
8365,1288,336,-1832,-42,12,-1
8370,1280,368,-1872,-42,10,-3
8375,1312,336,-1856,-43,10,-5
8380,1288,360,-1896,-41,8,-3
8385,1192,344,-1880,-42,7,-4
8390,1288,344,-1904,-43,7,-5
8395,1272,344,-1880,-46,9,-6
8400,1280,336,-1904,-46,10,-7
8405,1280,328,-1880,-47,14,-9
8410,1296,336,-1856,-49,17,-9
8415,1296,336,-1864,-48,19,-11
8420,1304,360,-1904,-47,20,-11
8425,1288,336,-1896,-46,22,-12
8430,1304,320,-1872,-47,22,-12
8435,1296,344,-1872,-45,21,-14
8440,1320,320,-1872,-47,20,-16
8445,1288,336,-1896,-47,18,-19
8450,1280,352,-1896,-45,17,-19
8455,1272,352,-1864,-45,17,-20
8460,1264,360,-1912,-44,19,-18
8465,1296,384,-1880,-43,19,-11
8470,1272,344,-1896,-38,20,-8
8475,1304,320,-1872,-36,23,-6
8480,1304,336,-1880,-39,25,-6
8485,1280,328,-1920,-40,26,-6
8490,1288,336,-1896,-41,27,-4
8495,1272,352,-1912,-42,28,-6
8500,1288,360,-1880,-41,30,-6
8505,1272,344,-1880,-40,30,-7
8510,1288,344,-1864,-42,29,-8
8515,1304,336,-1880,-42,30,-8
8520,1288,320,-1880,-42,28,-6
8525,1296,320,-1856,-42,28,-7
8530,1296,352,-1872,-41,25,-7
8535,1296,352,-1840,-40,23,-6
8540,1296,352,-1856,-41,21,-5
8545,1280,344,-1864,-40,19,-5
8550,1280,336,-1856,-39,16,-4
8555,1288,352,-1864,-40,13,-2
8560,1280,344,-1888,-39,11,-2
8565,1288,352,-1880,-39,10,1
8570,1280,328,-1872,-37,11,1
8575,1296,344,-1864,-36,11,2
8580,1264,344,-1872,-36,7,2
8585,1280,352,-1880,-36,6,4
8590,1296,344,-1880,-35,5,5
8595,1288,368,-1864,-37,4,6
8600,1280,344,-1872,-35,4,6
8605,1312,376,-1912,-32,4,5
8610,1280,352,-1864,-35,4,7
8615,1280,368,-1848,-36,3,7
8620,1304,360,-1888,-32,2,8
8625,1280,328,-1864,-32,1,8
8630,1280,312,-1872,-34,2,6
8635,1312,336,-1888,-33,2,7
8640,1280,336,-1864,-34,2,6
8645,1272,336,-1888,-34,1,7
8650,1296,368,-1872,-36,2,8
8655,1304,360,-1888,-33,4,7
8660,1296,320,-1872,-35,6,7
8665,1288,344,-1872,-36,5,6
8670,1296,312,-1880,-36,7,6
8675,1296,336,-1888,-37,8,7
8680,1272,344,-1904,-37,9,5
8685,1272,360,-1896,-36,11,5
8690,1296,336,-1896,-37,12,6
8695,1280,336,-1888,-37,12,6
8700,1296,344,-1896,-37,14,5
8705,1288,328,-1880,-36,14,6
8710,1336,328,-1904,-37,15,5
8715,1304,352,-1872,-39,15,4
8720,1304,320,-1856,-40,14,4
8725,1280,336,-1880,-39,15,4
8730,1272,344,-1880,-39,16,5
8735,1288,344,-1872,-39,17,3
8740,1280,344,-1880,-40,17,3
8745,1288,336,-1856,-41,18,2
8750,1280,344,-1880,-40,17,4
8755,1272,344,-1840,-41,17,3
8760,1288,344,-1848,-42,16,4
8765,1288,344,-1872,-41,16,3
8770,1280,336,-1896,-42,15,3
8775,1280,344,-1896,-41,15,4
8780,1288,328,-1856,-42,16,5
8785,1288,328,-1872,-40,16,5
8790,1272,344,-1864,-41,13,5
8795,1296,352,-1880,-39,12,5
8800,1280,336,-1872,-38,11,5
8805,1272,344,-1840,-37,11,5
8810,1272,336,-1880,-36,9,7
8815,1296,328,-1872,-37,8,7
8820,1304,296,-1848,-38,5,6
8825,1288,320,-1880,-37,5,8
8830,1304,320,-1896,-34,4,8
8835,1296,352,-1888,-33,3,8
8840,1264,344,-1872,-37,1,8
8845,1280,344,-1880,-35,1,9
8850,1280,344,-1872,-35,2,8
8855,1296,336,-1856,-39,0,7
8860,1288,312,-1896,-38,0,5
8865,1280,336,-1880,-39,1,6
8870,1272,352,-1856,-38,0,6
8875,1320,336,-1888,-38,-1,6
8880,1288,328,-1864,-40,-1,6
8885,1280,344,-1888,-40,0,4
8890,1280,352,-1896,-39,0,4
8895,1288,336,-1880,-39,0,4
8900,1296,312,-1856,-39,-1,5
8905,1288,344,-1880,-40,0,4
8910,1288,320,-1896,-41,1,4
8915,1272,352,-1896,-41,1,3
8920,1312,320,-1904,-40,1,2
8925,1296,328,-1888,-44,1,3
8930,1272,368,-1920,-43,1,2
8935,1272,336,-1872,-42,2,2
8940,1288,328,-1880,-43,2,1
8945,1296,344,-1880,-43,1,0
8950,1280,344,-1864,-42,0,0
8955,1272,352,-1880,-44,-1,2
8960,1288,360,-1864,-45,-2,3
8965,1280,360,-1880,-44,-1,3
8970,1288,320,-1880,-44,-2,3
8975,1304,336,-1856,-44,-3,2
8980,1288,320,-1872,-43,-4,3
8985,1272,320,-1912,-42,-3,5
8990,1264,360,-1872,-41,-3,5
8995,1280,344,-1896,-42,-2,4
9000,1280,336,-1880,-42,-3,4
9005,1248,320,-1888,-42,-2,5
9010,1264,344,-1872,-42,-2,5
9015,1312,320,-1872,-40,-3,4
9020,1280,320,-1888,-42,-3,4
9025,1296,288,-1856,-42,-3,3
9030,1280,336,-1872,-41,-3,5
9035,1288,328,-1856,-41,-5,4
9040,1296,352,-1888,-41,-6,6
9045,1272,344,-1856,-41,-5,6
9050,1280,320,-1880,-40,-4,6
9055,1280,336,-1872,-41,-4,5
9060,1296,328,-1872,-41,-5,6
9065,1280,344,-1872,-41,-6,7
9070,1288,320,-1872,-43,-7,5
9075,1272,352,-1872,-43,-6,5
9080,1280,344,-1864,-43,-7,7
9085,1280,320,-1872,-41,-9,5
9090,1288,328,-1904,-42,-8,6
9095,1280,352,-1896,-42,-8,7
9100,1296,312,-1888,-42,-7,8
9105,1272,320,-1888,-42,-4,7
9110,1272,344,-1912,-43,-1,7
9115,1272,328,-1912,-42,0,8
9120,1264,352,-1896,-42,1,7
9125,1296,312,-1872,-41,5,8
9130,1264,352,-1864,-41,7,7
9135,1304,336,-1880,-40,8,6
9140,1288,336,-1880,-39,10,5
9145,1288,312,-1896,-41,12,5
9150,1256,296,-1864,-44,13,4
9155,1264,336,-1896,-46,13,3
9160,1296,320,-1872,-47,12,2
9165,1272,312,-1880,-50,9,0
9170,1264,328,-1864,-52,8,-1
9175,1264,336,-1848,-52,5,-1
9180,1296,320,-1888,-52,0,-2
9185,1288,328,-1872,-52,-5,-2
9190,1272,312,-1872,-51,-7,-1
9195,1272,344,-1896,-52,-9,0
9200,1272,336,-1888,-53,-9,1
9205,1296,328,-1880,-55,-10,2
9210,1256,352,-1880,-49,-7,4
9215,1248,336,-1912,-50,-7,3
9220,1288,344,-1888,-50,-8,4
9225,1280,320,-1888,-49,-6,4
9230,1272,312,-1864,-48,-5,5
9235,1296,312,-1840,-50,-5,4
9240,1280,320,-1888,-50,-3,4
9245,1272,328,-1896,-52,-3,2
9250,1256,344,-1896,-49,-4,3
9255,1280,336,-1880,-48,-6,3
9260,1296,328,-1888,-46,-4,5
9265,1256,344,-1880,-46,-4,4
9270,1272,336,-1928,-46,-3,4
9275,1272,328,-1904,-45,-2,2
9280,1280,328,-1904,-46,0,2
9285,1256,344,-1880,-47,3,2
9290,1288,336,-1896,-46,6,2
9295,1280,320,-1912,-47,8,1
9300,1256,328,-1872,-46,8,2
9305,1288,336,-1872,-45,10,2
9310,1272,344,-1904,-44,12,2
9315,1272,344,-1912,-45,10,3
9320,1288,312,-1880,-44,10,2
9325,1280,336,-1880,-43,10,3
9330,1264,352,-1888,-44,11,3
9335,1264,344,-1896,-44,11,3
9340,1256,344,-1856,-43,12,5
9345,1296,304,-1896,-45,13,3
9350,1248,328,-1920,-46,14,2
9355,1272,352,-1912,-47,15,2
9360,1296,352,-1928,-48,18,2
9365,1256,320,-1896,-48,19,3
9370,1272,320,-1872,-46,20,3
9375,1272,312,-1912,-44,22,3
9380,1272,328,-1856,-45,22,2
9385,1264,312,-1888,-44,24,1
9390,1272,336,-1896,-45,27,1
9395,1256,336,-1880,-44,27,2
9400,1272,328,-1912,-41,26,1
9405,1264,320,-1888,-42,26,2
9410,1288,320,-1896,-44,26,2
9415,1280,320,-1888,-42,24,2
9420,1272,320,-1904,-44,23,2
9425,1256,336,-1880,-44,22,2
9430,1280,360,-1920,-43,19,2
9435,1280,352,-1904,-43,19,2
9440,1280,320,-1864,-46,19,1
9445,1288,336,-1896,-44,18,0
9450,1272,328,-1880,-46,18,1
9455,1272,320,-1872,-46,20,0
9460,1280,320,-1888,-47,22,0
9465,1264,328,-1912,-47,22,0
9470,1272,320,-1912,-47,23,-2
9475,1280,336,-1896,-48,23,-2
9480,1264,312,-1896,-48,24,-3
9485,1280,312,-1896,-46,26,-3
9490,1280,320,-1896,-47,26,-3
9495,1272,328,-1888,-47,25,-3
9500,1272,336,-1896,-48,23,-4
9505,1272,328,-1880,-48,24,-4
9510,1280,320,-1880,-48,25,-5
9515,1280,312,-1880,-48,25,-7
9520,1288,304,-1888,-49,26,-7
9525,1280,328,-1920,-48,26,-6
9530,1248,352,-1880,-47,25,-6
9535,1272,344,-1872,-48,27,-5
9540,1280,328,-1872,-47,26,-5
9545,1296,336,-1896,-48,26,-5
9550,1256,344,-1864,-48,26,-6
9555,1264,336,-1864,-47,26,-6
9560,1288,328,-1864,-47,25,-6
9565,1288,312,-1896,-47,22,-5
9570,1288,328,-1856,-45,21,-4
9575,1264,344,-1864,-45,19,-4
9580,1288,336,-1888,-45,17,-3
9585,1272,304,-1896,-46,15,-4
9590,1272,344,-1920,-47,14,-3
9595,1264,320,-1864,-46,12,-2
9600,1264,312,-1872,-46,12,-3
9605,1280,328,-1872,-45,11,-4
9610,1280,304,-1912,-43,11,-3
9615,1280,328,-1888,-44,10,-3
9620,1272,328,-1880,-44,9,-3
9625,1264,336,-1872,-45,8,-3
9630,1280,320,-1896,-45,8,-2
9635,1264,344,-1912,-44,9,-3
9640,1280,328,-1888,-45,10,-2
9645,1256,304,-1880,-46,10,-4
9650,1272,328,-1896,-47,11,-4
9655,1280,320,-1864,-47,12,-5
9660,1256,344,-1888,-46,12,-6
9665,1272,344,-1896,-46,12,-6
9670,1272,320,-1904,-48,9,-5
9675,1296,304,-1896,-48,9,-5
9680,1256,336,-1880,-48,9,-4
9685,1280,344,-1896,-50,7,-5
9690,1232,352,-1896,-51,6,-4
9695,1280,320,-1904,-50,7,-5
9700,1280,328,-1888,-51,5,-6
9705,1264,320,-1888,-49,6,-5
9710,1272,336,-1864,-50,6,-5
9715,1272,344,-1896,-51,6,-4
9720,1272,336,-1864,-51,7,-6
9725,1288,320,-1888,-49,8,-6
9730,1264,336,-1872,-50,9,-6
9735,1288,328,-1896,-50,7,-6
9740,1240,344,-1888,-48,8,-5
9745,1240,336,-1920,-49,7,-6
9750,1272,320,-1904,-49,9,-5
9755,1272,320,-1896,-48,10,-6
9760,1272,352,-1880,-47,12,-5
9765,1264,336,-1904,-47,12,-3
9770,1264,328,-1888,-45,14,-3
9775,1272,328,-1888,-43,13,-3
9780,1280,320,-1896,-44,15,-3
9785,1296,312,-1888,-44,13,-4
9790,1240,336,-1888,-45,12,-4
9795,1272,384,-1904,-47,12,-2
9800,1280,304,-1888,-48,11,-5
9805,1280,304,-1856,-51,10,-6
9810,1264,328,-1888,-51,7,-7
9815,1280,320,-1904,-52,6,-8
9820,1256,304,-1912,-53,3,-9
9825,1264,336,-1880,-52,0,-8
9830,1272,328,-1896,-52,-1,-7
9835,1272,312,-1888,-53,-2,-7
9840,1280,336,-1896,-52,-3,-7
9845,1264,328,-1880,-51,-4,-7
9850,1296,320,-1912,-51,-3,-6
9855,1272,336,-1920,-49,-1,-5
9860,1272,328,-1904,-49,-1,-6
9865,1280,328,-1904,-50,0,-7
9870,1272,328,-1904,-50,-2,-5
9875,1256,328,-1888,-52,-1,-6
9880,1272,336,-1904,-50,-1,-5
9885,1272,312,-1904,-47,0,-4
9890,1264,336,-1920,-47,2,-4
9895,1280,320,-1912,-48,3,-3
9900,1280,328,-1896,-46,5,-5
9905,1248,328,-1936,-46,5,-5
9910,1272,344,-1896,-45,5,-3
9915,1264,344,-1912,-46,8,-4
9920,1280,320,-1896,-47,11,-3
9925,1280,320,-1872,-46,12,-3
9930,1272,328,-1896,-46,12,-3
9935,1272,320,-1888,-45,12,-4
9940,1288,336,-1920,-46,12,-5
9945,1288,328,-1920,-46,13,-6
9950,1264,336,-1896,-48,14,-4
9955,1256,320,-1912,-49,14,-7
9960,1288,344,-1936,-48,15,-6
9965,1272,320,-1880,-47,15,-7
9970,1256,336,-1880,-46,16,-5
9975,1248,328,-1920,-46,15,-3
9980,1272,312,-1872,-46,15,-2
9985,1288,336,-1880,-46,15,-4
9990,1272,312,-1904,-45,14,-5
9995,1272,328,-1888,-46,13,-3
10000,1288,320,-1912,-46,14,-3
10005,1288,328,-1880,-45,13,-3
10010,1280,312,-1880,-45,12,-3
10015,1296,336,-1936,-45,12,-2
10020,1256,336,-1888,-45,12,-3
10025,1264,320,-1888,-43,11,-3
10030,1264,328,-1912,-43,11,-3
10035,1264,320,-1872,-44,10,-3
10040,1288,344,-1880,-43,10,-3
10045,1264,336,-1848,-44,10,-2
10050,1264,336,-1904,-44,11,-1
10055,1264,312,-1880,-46,10,-3
10060,1248,312,-1896,-44,11,-3
10065,1256,312,-1912,-45,11,-3
10070,1280,320,-1832,-46,11,-5
10075,1272,304,-1912,-48,12,-5
10080,1272,328,-1904,-48,12,-5
10085,1280,320,-1896,-49,11,-6
10090,1288,344,-1888,-48,11,-6
10095,1280,320,-1896,-50,10,-8
10100,1248,344,-1880,-51,11,-7
10105,1256,344,-1896,-50,12,-7
10110,1264,328,-1880,-51,11,-6
10115,1272,296,-1896,-49,11,-6
10120,1280,304,-1896,-50,10,-6
10125,1256,320,-1904,-51,10,-6
10130,1248,344,-1856,-53,9,-8
10135,1280,344,-1912,-53,10,-8
10140,1280,320,-1880,-52,10,-6
10145,1272,320,-1888,-51,10,-8
10150,1264,352,-1896,-52,9,-6
10155,1248,344,-1904,-53,10,-7
10160,1264,312,-1896,-52,9,-8
10165,1272,312,-1888,-52,10,-8
10170,1256,336,-1888,-53,11,-7
10175,1272,328,-1888,-52,10,-7
10180,1280,344,-1872,-49,8,-7
10185,1264,344,-1888,-48,7,-5
10190,1280,328,-1920,-47,8,-5
10195,1256,344,-1888,-46,8,-5
10200,1264,328,-1880,-46,8,-5
10205,1256,344,-1904,-47,7,-3
10210,1264,320,-1880,-45,8,-5
10215,1280,336,-1888,-44,8,-4
10220,1248,344,-1920,-44,8,-3
10225,1256,360,-1888,-43,8,-2
10230,1256,336,-1896,-44,8,-4
10235,1280,392,-1816,-46,8,-4
10240,1264,336,-1904,-47,8,-6
10245,1248,352,-1896,-47,8,-5
10250,1272,336,-1896,-46,10,-5
10255,1248,336,-1896,-45,11,-4
10260,1272,328,-1904,-47,11,-5
10265,1272,360,-1928,-45,10,-4
10270,1264,336,-1888,-44,12,-3
10275,1272,360,-1888,-47,12,-4
10280,1264,336,-1888,-46,13,-4
10285,1264,312,-1896,-46,15,-4
10290,1272,328,-1896,-46,16,-3
10295,1288,328,-1888,-45,17,-3
10300,1272,336,-1880,-45,16,-4
10305,1248,336,-1896,-45,16,-5
10310,1264,336,-1904,-46,15,-4
10315,1272,320,-1904,-45,15,-4
10320,1264,336,-1880,-45,14,-3
10325,1256,336,-1936,-45,16,-5
10330,1264,360,-1904,-46,16,-3
10335,1288,336,-1912,-47,16,-3
10340,1272,344,-1896,-47,17,-3
10345,1296,368,-1888,-46,18,-3
10350,1288,320,-1880,-46,19,-2
10355,1256,336,-1912,-46,20,-2
10360,1272,336,-1920,-45,20,-3
10365,1272,328,-1896,-43,21,-3
10370,1280,336,-1880,-43,23,-3
10375,1280,320,-1864,-43,23,-3
10380,1296,320,-1904,-43,24,-4
10385,1264,328,-1888,-44,21,-5
10390,1272,304,-1888,-46,20,-7
10395,1248,328,-1872,-48,19,-8
10400,1280,336,-1880,-50,18,-9
10405,1240,360,-1880,-50,17,-10
10410,1256,328,-1904,-52,14,-10
10415,1304,336,-1888,-52,12,-10
10420,1248,328,-1888,-52,12,-10
10425,1280,328,-1912,-53,10,-11
10430,1264,344,-1880,-54,10,-11
10435,1272,312,-1888,-54,11,-11
10440,1288,328,-1896,-54,12,-11
10445,1272,352,-1880,-52,10,-12
10450,1264,344,-1888,-53,9,-11
10455,1240,320,-1872,-52,8,-11
10460,1248,328,-1920,-53,5,-8
10465,1280,320,-1920,-52,4,-8
10470,1288,336,-1904,-52,3,-8
10475,1256,320,-1888,-50,4,-8
10480,1272,328,-1928,-50,4,-6
10485,1272,352,-1880,-48,5,-7
10490,1264,320,-1896,-46,7,-8
10495,1272,312,-1872,-48,9,-7
10500,1264,328,-1888,-47,11,-6
10505,1264,352,-1888,-47,13,-6
10510,1280,336,-1904,-47,15,-6
10515,1272,328,-1920,-47,17,-7
10520,1272,344,-1912,-47,18,-7
10525,1256,344,-1888,-47,17,-8
10530,1272,344,-1896,-48,18,-8
10535,1256,336,-1888,-47,18,-8
10540,1264,336,-1912,-48,17,-8
10545,1264,320,-1888,-50,17,-7
10550,1280,328,-1912,-48,17,-8
10555,1256,312,-1912,-48,18,-9
10560,1264,328,-1920,-47,19,-9
10565,1280,288,-1904,-47,19,-10
10570,1264,328,-1896,-47,19,-8
10575,1288,336,-1888,-48,21,-8
10580,1280,336,-1912,-47,22,-9
10585,1272,320,-1904,-48,23,-10
10590,1272,344,-1912,-47,23,-8
10595,1248,352,-1880,-48,25,-8
10600,1272,336,-1872,-47,26,-7
10605,1240,360,-1896,-47,26,-7
10610,1248,344,-1912,-46,24,-5
10615,1256,336,-1872,-45,23,-6
10620,1272,352,-1888,-44,23,-6
10625,1256,328,-1888,-46,23,-6
10630,1264,320,-1880,-47,23,-6
10635,1264,328,-1880,-46,23,-5
10640,1248,352,-1896,-46,22,-5
10645,1272,344,-1880,-46,22,-5
10650,1264,336,-1904,-45,21,-4
10655,1264,320,-1864,-45,18,-5
10660,1256,344,-1888,-46,18,-7
10665,1272,328,-1872,-46,16,-5
10670,1280,344,-1864,-46,17,-4
10675,1224,336,-1928,-46,15,-5
10680,1248,344,-1864,-47,16,-5
10685,1272,320,-1880,-48,17,-6
10690,1280,328,-1904,-48,16,-7
10695,1264,328,-1896,-49,16,-8
10700,1264,344,-1904,-50,15,-8
10705,1264,336,-1896,-52,16,-10
10710,1264,336,-1896,-53,17,-10
10715,1264,320,-1880,-52,17,-11
10720,1272,328,-1912,-52,17,-10
10725,1264,352,-1904,-53,17,-10
10730,1264,336,-1928,-53,16,-12
10735,1280,336,-1888,-54,18,-12
10740,1272,344,-1944,-53,19,-13
10745,1280,336,-1880,-54,20,-13
10750,1248,360,-1888,-55,21,-13
10755,1256,344,-1880,-55,22,-12
10760,1256,344,-1880,-54,22,-11
10765,1280,336,-1888,-53,21,-11
10770,1288,320,-1888,-53,21,-11
10775,1256,336,-1888,-52,22,-12
10780,1248,312,-1912,-52,24,-12
10785,1272,328,-1888,-52,21,-12
10790,1264,344,-1864,-50,22,-11
10795,1264,328,-1856,-52,21,-11
10800,1264,352,-1864,-49,20,-11
10805,1296,336,-1888,-52,20,-10
10810,1264,368,-1880,-49,20,-8
10815,1264,336,-1896,-48,18,-7
10820,1280,336,-1880,-47,17,-7
10825,1256,352,-1912,-47,17,-8
10830,1264,336,-1920,-47,17,-7
10835,1272,336,-1896,-46,16,-6
10840,1280,352,-1904,-46,16,-8
10845,1280,320,-1904,-45,15,-7
10850,1264,344,-1888,-46,16,-7
10855,1256,352,-1856,-47,15,-7
10860,1256,352,-1872,-47,15,-7
10865,1320,320,-1888,-48,16,-7
10870,1264,336,-1912,-48,16,-6
10875,1256,336,-1864,-48,16,-5
10880,1232,344,-1904,-48,16,-6
10885,1256,336,-1912,-49,17,-6
10890,1256,352,-1920,-46,17,-6
10895,1272,360,-1872,-46,18,-6
10900,1272,336,-1904,-46,18,-5
10905,1280,336,-1880,-45,20,-6
10910,1280,328,-1896,-45,20,-6
10915,1280,344,-1872,-44,21,-6
10920,1280,344,-1880,-45,20,-6
10925,1272,336,-1896,-46,21,-7
10930,1264,344,-1888,-45,20,-8
10935,1272,344,-1896,-46,20,-9
10940,1272,352,-1896,-45,20,-9
10945,1288,312,-1880,-46,22,-9
10950,1272,344,-1880,-46,21,-10
10955,1272,328,-1888,-46,22,-8
10960,1264,328,-1920,-46,23,-8
10965,1280,336,-1912,-48,24,-9
10970,1272,336,-1912,-49,23,-10
10975,1280,344,-1888,-47,24,-9
10980,1272,352,-1880,-48,24,-8
10985,1272,328,-1896,-49,25,-9
10990,1272,328,-1880,-48,25,-8
10995,1280,336,-1888,-49,26,-8
11000,1304,328,-1888,-50,26,-11
11005,1256,336,-1888,-50,26,-10
11010,1256,352,-1912,-49,26,-10
11015,1280,328,-1880,-50,25,-10
11020,1256,336,-1864,-49,24,-10
11025,1264,336,-1896,-49,23,-9
11030,1256,336,-1896,-49,24,-9
11035,1256,336,-1896,-48,22,-9
11040,1288,328,-1880,-47,22,-8
11045,1272,336,-1896,-48,23,-7
11050,1264,336,-1920,-49,23,-8
11055,1264,336,-1896,-48,22,-8
11060,1256,344,-1904,-45,23,-9
11065,1248,328,-1864,-48,21,-9
11070,1280,344,-1888,-48,21,-9
11075,1272,336,-1904,-48,21,-9
11080,1248,368,-1880,-48,22,-11
11085,1256,352,-1920,-48,22,-10
11090,1272,344,-1888,-48,20,-9
11095,1280,328,-1896,-48,18,-11
11100,1280,336,-1912,-48,17,-10
11105,1264,336,-1896,-49,18,-9
11110,1256,344,-1904,-49,17,-10
11115,1272,360,-1872,-48,15,-10
11120,1272,320,-1856,-47,15,-10
11125,1272,352,-1872,-44,11,-13
11130,1264,352,-1880,-46,9,-14
11135,1264,344,-1888,-47,11,-15
11140,1256,360,-1920,-47,11,-16
11145,1272,360,-1896,-46,13,-13
11150,1264,376,-1872,-47,13,-12
11155,1280,328,-1880,-47,15,-11
11160,1280,344,-1888,-46,16,-12
11165,1272,328,-1872,-47,15,-12
11170,1264,344,-1904,-47,15,-12
11175,1256,320,-1896,-49,15,-11
11180,1272,328,-1872,-47,14,-10
11185,1264,352,-1872,-49,14,-9
11190,1272,328,-1848,-49,15,-10
11195,1272,368,-1888,-48,15,-9
11200,1264,344,-1888,-46,17,-9
11205,1280,336,-1888,-46,17,-8
11210,1256,328,-1888,-46,16,-8
11215,1296,344,-1936,-45,17,-8
11220,1264,344,-1896,-43,16,-7
11225,1264,360,-1864,-45,17,-8
11230,1304,328,-1888,-45,18,-9
11235,1272,360,-1856,-44,18,-8
11240,1272,368,-1880,-43,19,-9
11245,1264,344,-1904,-46,21,-9
11250,1272,344,-1904,-46,20,-9
11255,1248,360,-1888,-46,21,-9
11260,1272,328,-1848,-48,22,-11
11265,1280,304,-1896,-47,21,-10
11270,1280,328,-1904,-46,20,-9
11275,1272,352,-1904,-44,21,-9
11280,1264,344,-1880,-47,20,-9
11285,1272,336,-1896,-46,19,-9
11290,1256,352,-1888,-46,19,-9
11295,1288,320,-1896,-44,18,-9
11300,1272,360,-1896,-45,17,-8
11305,1288,328,-1880,-46,17,-8
11310,1272,352,-1904,-47,17,-8
11315,1248,336,-1880,-46,15,-8
11320,1256,360,-1880,-45,15,-7
11325,1264,368,-1920,-44,14,-7
11330,1248,360,-1880,-44,14,-6
11335,1280,344,-1888,-43,14,-7
11340,1280,344,-1912,-43,15,-6
11345,1264,344,-1888,-42,15,-5
11350,1280,344,-1888,-42,14,-4
11355,1280,336,-1912,-42,16,-8
11360,1280,328,-1872,-42,17,-6
11365,1272,344,-1880,-43,17,-6
11370,1272,336,-1880,-43,18,-7
11375,1264,336,-1880,-44,18,-7
11380,1288,328,-1872,-44,18,-5
11385,1264,352,-1888,-44,15,-7
11390,1288,320,-1912,-43,16,-7
11395,1272,336,-1888,-43,15,-9
11400,1280,344,-1896,-43,12,-11
11405,1272,352,-1896,-45,12,-10
11410,1272,352,-1888,-44,12,-11
11415,1248,352,-1912,-46,13,-14
11420,1256,344,-1904,-47,15,-14
11425,1272,328,-1896,-46,16,-16
11430,1264,336,-1912,-47,19,-17
11435,1312,336,-1904,-44,20,-21
11440,1280,328,-1888,-44,19,-23
11445,1288,336,-1880,-47,18,-26
11450,1264,352,-1896,-48,18,-25
11455,1280,344,-1888,-48,17,-24
11460,1280,360,-1896,-47,16,-23
11465,1264,336,-1896,-46,14,-22
11470,1280,336,-1872,-45,12,-23
11475,1288,344,-1888,-45,12,-19
11480,1272,352,-1880,-46,12,-18
11485,1264,352,-1880,-46,10,-16
11490,1256,360,-1904,-44,11,-13
11495,1288,336,-1896,-43,10,-12
11500,1280,344,-1880,-43,12,-12
11505,1256,344,-1888,-44,12,-12
11510,1264,352,-1904,-43,13,-10
11515,1288,336,-1928,-41,15,-8
11520,1272,352,-1896,-43,17,-9
11525,1256,360,-1904,-41,17,-9
11530,1272,336,-1888,-42,16,-8
11535,1264,344,-1872,-40,15,-8
11540,1264,360,-1896,-40,16,-10
11545,1264,336,-1872,-40,18,-8
11550,1272,328,-1896,-40,17,-7
11555,1288,328,-1912,-40,19,-10
11560,1296,336,-1880,-39,18,-8
11565,1288,360,-1896,-38,17,-8
11570,1280,328,-1912,-37,17,-8
11575,1280,344,-1904,-36,19,-10
11580,1272,344,-1896,-36,20,-10
11585,1280,336,-1904,-36,20,-10
11590,1280,360,-1872,-36,22,-10
11595,1280,328,-1904,-36,21,-9
11600,1272,352,-1912,-34,23,-7
11605,1272,344,-1872,-34,21,-6
11610,1272,344,-1872,-34,24,-7
11615,1256,336,-1888,-32,23,-8
11620,1272,336,-1888,-32,24,-7
11625,1264,352,-1904,-32,24,-7
11630,1280,344,-1880,-31,25,-7
11635,1256,352,-1848,-34,25,-6
11640,1264,352,-1872,-35,23,-7
11645,1264,360,-1880,-37,23,-7
11650,1256,368,-1896,-37,24,-8
11655,1264,360,-1880,-41,23,-7
11660,1272,352,-1880,-42,22,-6
11665,1264,360,-1888,-41,22,-7
11670,1296,352,-1872,-43,22,-6
11675,1288,312,-1872,-43,22,-6
11680,1256,384,-1912,-43,20,-7
11685,1280,336,-1896,-43,20,-6
11690,1304,328,-1872,-43,21,-5
11695,1288,344,-1896,-41,20,-6
11700,1256,336,-1896,-40,21,-5
11705,1288,344,-1856,-42,21,-7
11710,1264,352,-1912,-42,23,-8
11715,1272,320,-1880,-43,21,-8
11720,1272,336,-1880,-43,23,-9
11725,1272,320,-1888,-41,21,-14
11730,1272,336,-1904,-45,19,-16
11735,1272,360,-1888,-46,18,-18
11740,1296,320,-1872,-46,20,-15
11745,1288,344,-1896,-45,20,-15
11750,1288,336,-1888,-45,20,-13
11755,1248,328,-1872,-43,18,-9
11760,1248,360,-1872,-43,17,-9
11765,1272,352,-1856,-43,14,-8
11770,1280,344,-1864,-41,13,-6
11775,1288,376,-1880,-42,13,-5
11780,1280,344,-1872,-40,10,-4
11785,1280,352,-1872,-40,5,-3
11790,1272,344,-1872,-39,4,-1
11795,1296,336,-1864,-39,3,0
11800,1280,360,-1888,-39,1,1
11805,1264,336,-1888,-38,0,2
11810,1312,344,-1832,-39,-2,4
11815,1272,368,-1872,-36,-3,4
11820,1256,344,-1872,-37,-4,4
11825,1248,352,-1888,-36,-5,5
11830,1288,352,-1856,-36,-5,6
11835,1280,360,-1912,-33,-4,5
11840,1264,360,-1912,-33,-4,6
11845,1264,336,-1864,-33,-5,5
11850,1296,336,-1872,-34,-5,5
11855,1288,336,-1880,-34,-5,8
11860,1272,360,-1888,-33,-4,5
11865,1280,304,-1816,-35,-4,6
11870,1280,336,-1896,-36,-3,7
11875,1312,312,-1880,-36,-3,6
11880,1280,352,-1888,-35,-2,6
11885,1256,352,-1912,-33,-2,8
11890,1272,336,-1896,-33,-1,7
11895,1264,328,-1904,-33,0,5
11900,1256,368,-1896,-34,2,4
11905,1296,328,-1880,-34,3,5
11910,1240,352,-1888,-36,5,4
11915,1256,328,-1904,-35,4,5
11920,1312,344,-1888,-36,5,4
11925,1264,328,-1888,-36,7,3
11930,1272,344,-1912,-36,6,4
11935,1272,336,-1920,-36,7,3
11940,1272,336,-1880,-39,7,2
11945,1256,328,-1888,-39,8,2
11950,1272,352,-1920,-38,10,1
11955,1256,344,-1904,-40,10,1
11960,1256,328,-1888,-41,11,1
11965,1288,336,-1904,-40,11,1
11970,1272,344,-1896,-43,10,2
11975,1264,344,-1848,-43,10,1
11980,1256,336,-1872,-41,10,1
11985,1272,336,-1888,-41,11,-2
11990,1256,344,-1896,-41,11,0
11995,1264,352,-1880,-40,11,0
12000,1272,360,-1880,-41,10,1
12005,1272,328,-1896,-41,11,0
12010,1304,320,-1904,-41,9,0
12015,1272,312,-1880,-41,9,-1
12020,1256,368,-1928,-41,9,0
12025,1272,320,-1880,-41,9,1
12030,1288,280,-1880,-39,10,2
12035,1280,328,-1896,-41,8,1
12040,1264,344,-1888,-40,8,2
12045,1280,328,-1888,-41,8,2
12050,1280,328,-1888,-40,9,1
12055,1264,344,-1872,-39,8,1
12060,1272,312,-1888,-40,9,2
12065,1280,336,-1888,-40,8,0
12070,1264,328,-1880,-41,8,2
12075,1248,352,-1896,-42,7,1
12080,1280,320,-1888,-40,6,1
12085,1248,352,-1864,-39,6,2
12090,1320,296,-1896,-40,6,2
12095,1280,328,-1912,-39,7,1
12100,1264,344,-1904,-37,5,1
12105,1280,336,-1888,-39,6,2
12110,1264,360,-1912,-38,5,1
12115,1256,344,-1896,-40,7,1
12120,1256,336,-1888,-40,7,0
12125,1256,344,-1896,-39,7,0
12130,1272,320,-1912,-39,7,0
12135,1272,368,-1880,-39,6,0
12140,1280,336,-1904,-37,5,1
12145,1264,320,-1912,-38,6,1
12150,1256,336,-1904,-38,7,1
12155,1256,336,-1880,-38,6,2
12160,1256,328,-1896,-37,7,1
12165,1272,312,-1896,-38,9,2
12170,1248,320,-1888,-36,9,3
12175,1264,328,-1904,-34,9,4
12180,1272,304,-1888,-34,10,4
12185,1280,304,-1896,-35,11,3
12190,1256,328,-1880,-34,13,2
12195,1264,344,-1880,-37,14,3
12200,1280,320,-1912,-36,16,1
12205,1264,336,-1896,-39,17,-1
12210,1264,328,-1904,-41,19,-3
12215,1272,328,-1904,-45,18,-4
12220,1264,328,-1864,-45,19,-4
12225,1272,328,-1912,-45,17,-5
12230,1256,344,-1888,-45,16,-6
12235,1264,320,-1896,-47,13,-7
12240,1248,336,-1888,-48,13,-8
12245,1288,328,-1936,-48,12,-7
12250,1256,320,-1920,-49,13,-8
12255,1280,336,-1848,-49,13,-7
12260,1248,344,-1888,-48,15,-5
12265,1248,336,-1896,-48,14,-5
12270,1272,328,-1904,-47,14,-4
12275,1272,336,-1904,-47,15,-2
12280,1280,336,-1880,-43,15,-2
12285,1280,312,-1912,-43,13,-1
12290,1264,320,-1872,-44,11,-1
12295,1272,360,-1904,-43,11,0
12300,1296,328,-1912,-43,10,1
12305,1304,304,-1864,-41,8,2
12310,1280,328,-1904,-42,7,1
12315,1264,320,-1920,-41,8,1
12320,1272,344,-1856,-41,9,0
12325,1272,320,-1936,-40,10,-1
12330,1256,328,-1896,-39,11,-1
12335,1264,328,-1928,-41,11,-1
12340,1264,312,-1896,-42,12,-1
12345,1264,328,-1896,-41,12,-1
12350,1264,336,-1896,-41,13,-2
12355,1264,336,-1920,-41,13,-1
12360,1264,320,-1888,-41,12,-2
12365,1232,344,-1912,-40,12,-1
12370,1280,328,-1896,-41,11,-2
12375,1256,352,-1904,-41,10,-1
12380,1272,328,-1872,-41,9,1
12385,1272,328,-1896,-40,10,1
12390,1264,328,-1904,-40,10,1
12395,1272,336,-1856,-40,9,2
12400,1248,344,-1904,-39,8,2
12405,1256,328,-1864,-38,10,2
12410,1248,344,-1896,-39,9,2
12415,1264,336,-1920,-38,9,3
12420,1256,352,-1896,-38,8,4
12425,1248,328,-1888,-38,8,4
12430,1256,336,-1872,-38,7,5
12435,1248,328,-1912,-37,7,4
12440,1280,320,-1896,-38,8,3
12445,1256,328,-1912,-38,9,3
12450,1280,336,-1896,-39,9,3
12455,1264,312,-1864,-39,7,2
12460,1280,312,-1904,-40,7,2
12465,1272,312,-1904,-41,8,3
12470,1280,312,-1904,-43,7,1
12475,1256,328,-1896,-42,7,1
12480,1288,336,-1888,-42,8,1
12485,1264,336,-1904,-43,7,2
12490,1272,344,-1896,-44,8,1
12495,1272,320,-1896,-43,7,2
12500,1248,344,-1896,-43,7,0
12505,1264,320,-1880,-43,8,0
12510,1280,328,-1952,-44,10,-1
12515,1256,320,-1896,-44,11,-1
12520,1240,344,-1912,-43,10,-1
12525,1224,320,-1928,-45,11,-2
12530,1256,336,-1904,-46,9,-2
12535,1288,304,-1912,-47,9,-2
12540,1256,336,-1920,-46,9,-4
12545,1280,328,-1896,-47,8,-4
12550,1264,336,-1912,-47,7,-3
12555,1256,312,-1928,-46,7,-2
12560,1248,328,-1928,-48,7,-2
12565,1280,328,-1888,-48,6,-3
12570,1232,328,-1928,-49,6,-4
12575,1272,328,-1888,-48,6,-3
12580,1264,344,-1896,-49,6,-3
12585,1248,320,-1880,-45,6,-3
12590,1272,328,-1904,-44,7,-1
12595,1256,336,-1888,-45,8,-1
12600,1240,336,-1904,-46,9,-2
12605,1272,336,-1960,-46,10,-3
12610,1248,304,-1896,-45,10,-2
12615,1264,344,-1920,-45,10,-3
12620,1256,312,-1912,-46,9,-3
12625,1272,320,-1880,-45,10,-3
12630,1272,336,-1872,-44,9,-3
12635,1256,360,-1840,-43,7,-1
12640,1288,344,-1904,-43,7,0
12645,1264,328,-1912,-42,5,-1
12650,1256,336,-1896,-43,5,0
12655,1264,320,-1880,-42,3,2
12660,1248,336,-1904,-42,3,2
12665,1256,320,-1888,-40,2,2
12670,1248,320,-1880,-40,3,3
12675,1240,328,-1888,-38,2,4
12680,1256,328,-1872,-39,1,3
12685,1240,328,-1896,-39,-1,4
12690,1264,328,-1928,-39,-2,4
12695,1272,304,-1888,-38,-3,4
12700,1272,320,-1904,-39,-4,5
12705,1264,344,-1872,-39,-3,5
12710,1256,312,-1888,-40,-3,4
12715,1240,344,-1880,-38,-2,4
12720,1264,304,-1928,-39,0,5
12725,1256,312,-1904,-41,0,5
12730,1264,312,-1904,-41,-1,4
12735,1272,312,-1912,-41,-1,6
12740,1248,312,-1896,-41,-1,6
12745,1240,312,-1888,-41,-1,6
12750,1272,312,-1912,-42,-2,6
12755,1240,344,-1904,-41,-3,6
12760,1272,296,-1896,-40,-3,5
12765,1248,304,-1920,-39,-1,5
12770,1264,320,-1880,-42,-2,6
12775,1240,320,-1920,-43,-1,4
12780,1240,320,-1920,-42,0,3
12785,1264,320,-1880,-44,0,2
12790,1240,312,-1928,-45,1,3
12795,1240,304,-1896,-44,1,2
12800,1280,328,-1880,-46,1,1
12805,1280,304,-1912,-46,1,1
12810,1280,312,-1936,-46,1,3
12815,1256,352,-1904,-44,2,1
12820,1272,328,-1936,-47,3,1
12825,1264,328,-1880,-45,3,2
12830,1240,328,-1848,-45,5,3
12835,1232,328,-1928,-43,6,2
12840,1248,336,-1912,-42,7,2
12845,1248,328,-1928,-42,8,3
12850,1216,344,-1904,-41,9,3
12855,1256,336,-1920,-39,10,3
12860,1240,328,-1904,-39,11,4
12865,1240,328,-1896,-39,10,3
12870,1248,312,-1912,-40,9,3
12875,1272,304,-1880,-43,9,2
12880,1248,312,-1888,-46,8,2
12885,1248,312,-1904,-46,6,-1
12890,1256,312,-1896,-48,3,-2
12895,1248,328,-1872,-50,0,-2
12900,1248,304,-1888,-52,-4,-2
12905,1256,336,-1896,-51,-8,-1
12910,1256,304,-1888,-48,-13,0
12915,1256,336,-1912,-47,-13,0
12920,1256,336,-1904,-48,-14,1
12925,1256,320,-1912,-48,-14,1
12930,1240,312,-1872,-48,-12,0
12935,1256,344,-1904,-47,-11,0
12940,1264,304,-1928,-47,-9,1
12945,1248,344,-1888,-46,-6,-1
12950,1240,328,-1904,-46,-4,-2
12955,1272,320,-1896,-46,-2,-3
12960,1232,328,-1944,-48,0,-3
12965,1232,328,-1936,-47,0,-3
12970,1264,320,-1904,-48,4,-3
12975,1256,320,-1920,-48,5,-4
12980,1256,320,-1888,-46,8,-4
12985,1232,328,-1912,-46,9,-5
12990,1256,328,-1896,-46,11,-5
12995,1272,304,-1904,-46,13,-6
13000,1240,320,-1936,-47,13,-4
13005,1256,336,-1896,-47,15,-5
13010,1256,336,-1896,-47,16,-5
13015,1240,320,-1920,-47,16,-5
13020,1256,320,-1904,-48,16,-7
13025,1272,320,-1928,-47,18,-5
13030,1232,336,-1888,-49,17,-5
13035,1248,320,-1896,-49,17,-5
13040,1272,312,-1920,-49,17,-5
13045,1264,320,-1928,-48,18,-4
13050,1248,304,-1880,-48,17,-5
13055,1256,352,-1912,-48,18,-3
13060,1256,328,-1904,-46,18,-5
13065,1248,312,-1920,-47,19,-4
13070,1256,328,-1920,-47,20,-3
13075,1232,328,-1928,-47,19,-5
13080,1272,304,-1904,-47,20,-3
13085,1248,320,-1912,-47,21,-3
13090,1216,320,-1920,-47,21,-3
13095,1256,312,-1920,-49,21,-3
13100,1248,328,-1928,-49,22,-4
13105,1248,320,-1904,-48,21,-4
13110,1208,320,-1904,-47,20,-4
13115,1256,320,-1904,-47,21,-5
13120,1248,312,-1896,-46,20,-5
13125,1256,336,-1896,-46,20,-4
13130,1248,320,-1912,-46,18,-4
13135,1256,336,-1896,-46,20,-4
13140,1264,312,-1904,-47,20,-4
13145,1248,336,-1912,-48,19,-2
13150,1240,320,-1888,-48,19,-4
13155,1264,320,-1936,-48,18,-4
13160,1256,320,-1880,-49,19,-6
13165,1256,312,-1904,-49,18,-4
13170,1256,328,-1888,-49,18,-5
13175,1240,328,-1928,-49,18,-5
13180,1240,312,-1920,-50,18,-6
13185,1264,312,-1920,-49,17,-7
13190,1248,352,-1904,-50,18,-5
13195,1264,328,-1888,-51,18,-5
13200,1272,304,-1912,-52,17,-7
13205,1256,328,-1904,-52,18,-6
13210,1248,328,-1936,-52,18,-6
13215,1256,320,-1920,-52,16,-6
13220,1240,328,-1904,-52,15,-7
13225,1272,336,-1920,-52,16,-8
13230,1264,312,-1920,-51,16,-7
13235,1256,312,-1904,-51,16,-8
13240,1232,328,-1920,-51,17,-7
13245,1264,296,-1888,-51,17,-7
13250,1264,336,-1880,-51,16,-7
13255,1232,336,-1888,-51,17,-7
13260,1232,312,-1904,-50,17,-6
13265,1264,328,-1896,-51,16,-6
13270,1272,344,-1856,-49,14,-6
13275,1264,344,-1896,-50,15,-8
13280,1256,312,-1896,-48,14,-7
13285,1232,328,-1952,-47,13,-7
13290,1248,328,-1944,-47,14,-6
13295,1256,304,-1904,-49,12,-5
13300,1256,344,-1912,-49,13,-4
13305,1256,320,-1920,-48,13,-4
13310,1280,320,-1944,-47,12,-4
13315,1240,328,-1904,-45,14,-3
13320,1240,360,-1912,-44,14,-2
13325,1272,336,-1904,-44,14,-2
13330,1256,336,-1864,-44,14,-2
13335,1240,336,-1904,-45,14,-2
13340,1264,328,-1896,-44,14,-3
13345,1264,320,-1920,-44,15,-3
13350,1256,344,-1888,-44,14,-3
13355,1256,328,-1896,-44,13,-3
13360,1240,304,-1888,-44,15,-3
13365,1256,328,-1912,-45,15,-3
13370,1256,320,-1904,-46,16,-2
13375,1264,344,-1880,-46,15,-3
13380,1240,320,-1872,-47,15,-4
13385,1256,328,-1912,-48,16,-4
13390,1248,336,-1880,-49,17,-5
13395,1256,320,-1904,-49,16,-6
13400,1240,320,-1928,-49,17,-7
13405,1256,336,-1920,-49,17,-5
13410,1264,328,-1936,-51,16,-5
13415,1256,312,-1904,-49,16,-4
13420,1264,312,-1928,-48,16,-5
13425,1264,312,-1880,-48,16,-5
13430,1264,320,-1896,-47,17,-5
13435,1240,328,-1904,-49,19,-4
13440,1256,320,-1912,-48,21,-3
13445,1232,312,-1864,-46,24,-4
13450,1248,360,-1936,-46,25,-2
13455,1248,328,-1880,-44,25,-2
13460,1272,312,-1904,-42,27,-2
13465,1264,336,-1920,-43,28,-3
13470,1256,312,-1888,-44,29,-5
13475,1264,336,-1888,-44,31,-5
13480,1256,328,-1904,-44,31,-6
13485,1256,328,-1888,-47,31,-6
13490,1248,312,-1896,-47,29,-8
13495,1264,320,-1912,-51,27,-9
13500,1240,312,-1848,-53,26,-9
13505,1248,344,-1936,-53,23,-11
13510,1264,312,-1912,-53,20,-10
13515,1248,328,-1880,-52,16,-9
13520,1232,328,-1896,-53,12,-10
13525,1272,320,-1920,-52,10,-9
13530,1240,328,-1904,-51,11,-8
13535,1240,344,-1920,-52,10,-8
13540,1240,320,-1920,-51,8,-7
13545,1256,320,-1904,-51,8,-7
13550,1248,336,-1864,-51,9,-7
13555,1288,320,-1896,-51,7,-7
13560,1248,336,-1888,-50,6,-8
13565,1264,304,-1880,-49,6,-8
13570,1264,328,-1912,-49,6,-7
13575,1232,344,-1944,-48,5,-7
13580,1264,312,-1888,-49,7,-5
13585,1280,320,-1896,-50,7,-6
13590,1256,336,-1904,-50,7,-6
13595,1256,336,-1920,-48,7,-5
13600,1248,336,-1888,-47,8,-4
13605,1248,320,-1912,-49,8,-6
13610,1256,320,-1888,-48,9,-7
13615,1256,328,-1888,-47,10,-5
13620,1256,328,-1936,-47,10,-5
13625,1264,312,-1912,-45,12,-6
13630,1272,312,-1920,-48,12,-7
13635,1248,304,-1888,-49,13,-5
13640,1248,344,-1912,-48,14,-6
13645,1264,344,-1920,-49,14,-6
13650,1248,336,-1928,-50,15,-7
13655,1256,336,-1912,-48,14,-7
13660,1256,344,-1920,-48,15,-6
13665,1280,328,-1904,-47,15,-5
13670,1248,344,-1920,-48,16,-7
13675,1256,360,-1856,-48,17,-6
13680,1240,352,-1920,-47,18,-4
13685,1248,312,-1912,-46,19,-6
13690,1240,320,-1896,-46,20,-6
13695,1240,320,-1936,-44,21,-4
13700,1240,312,-1912,-47,23,-3
13705,1232,328,-1888,-47,25,-5
13710,1240,312,-1920,-47,25,-5
13715,1248,328,-1920,-46,27,-5
13720,1240,360,-1912,-46,27,-5
13725,1264,336,-1904,-47,28,-6
13730,1256,344,-1928,-47,30,-7
13735,1272,312,-1912,-48,30,-7
13740,1264,312,-1888,-48,30,-7
13745,1272,320,-1896,-50,31,-5
13750,1248,328,-1912,-49,29,-6
13755,1232,336,-1904,-48,28,-6
13760,1256,344,-1936,-49,27,-6
13765,1256,328,-1904,-50,28,-6
13770,1280,320,-1928,-49,26,-7
13775,1256,320,-1888,-49,27,-7
13780,1256,328,-1920,-48,28,-7
13785,1240,344,-1904,-48,27,-6
13790,1256,336,-1920,-47,27,-8
13795,1232,320,-1888,-50,27,-8
13800,1264,336,-1896,-48,28,-7
13805,1256,328,-1912,-48,26,-7
13810,1256,352,-1864,-49,27,-8
13815,1240,328,-1928,-48,27,-8
13820,1272,328,-1912,-48,27,-8
13825,1248,352,-1896,-50,27,-8
13830,1232,336,-1928,-50,25,-7
13835,1240,328,-1888,-53,26,-9
13840,1264,328,-1896,-53,25,-8
13845,1264,328,-1888,-51,24,-10
13850,1240,320,-1912,-51,24,-10
13855,1256,344,-1912,-52,23,-9
13860,1264,328,-1904,-53,23,-9
13865,1248,352,-1912,-52,23,-9
13870,1256,360,-1880,-52,23,-9
13875,1264,312,-1904,-51,22,-9
13880,1280,320,-1880,-50,21,-7
13885,1256,328,-1904,-48,21,-7
13890,1264,312,-1920,-47,20,-6
13895,1240,336,-1896,-47,20,-6
13900,1240,336,-1888,-47,18,-5
13905,1240,336,-1888,-48,19,-5
13910,1256,320,-1904,-46,17,-5
13915,1248,344,-1872,-48,18,-6
13920,1264,320,-1928,-47,16,-6
13925,1256,320,-1904,-48,17,-7
13930,1256,336,-1888,-46,17,-6
13935,1264,344,-1904,-46,15,-6
13940,1232,344,-1904,-45,16,-6
13945,1256,352,-1912,-46,17,-6
13950,1248,328,-1920,-45,18,-5
13955,1264,352,-1888,-46,18,-5
13960,1264,320,-1904,-45,18,-4
13965,1240,344,-1944,-45,19,-3
13970,1256,328,-1912,-44,20,-2
13975,1264,344,-1912,-45,20,-3
13980,1240,336,-1920,-44,20,-4
13985,1264,328,-1920,-46,20,-3
13990,1256,336,-1872,-44,21,-3
13995,1272,328,-1920,-45,20,-3
14000,1264,328,-1896,-44,19,-3
14005,1248,344,-1896,-44,19,-2
14010,1272,320,-1928,-44,20,-3
14015,1248,320,-1888,-43,21,-3
14020,1264,336,-1888,-45,22,-4
14025,1248,336,-1912,-46,21,-5
14030,1256,336,-1888,-46,23,-6
14035,1264,312,-1872,-49,23,-6
14040,1240,352,-1920,-51,23,-7
14045,1264,352,-1880,-52,24,-8
14050,1272,328,-1864,-50,24,-8
14055,1272,336,-1896,-52,23,-7
14060,1264,312,-1920,-52,23,-7
14065,1256,344,-1920,-49,22,-7
14070,1256,328,-1920,-49,24,-7
14075,1272,336,-1888,-50,24,-7
14080,1248,344,-1920,-51,26,-7
14085,1280,320,-1872,-49,26,-6
14090,1264,328,-1880,-47,27,-5
14095,1256,352,-1904,-45,28,-6
14100,1280,328,-1904,-45,28,-5
14105,1272,336,-1904,-44,29,-5
14110,1256,328,-1904,-43,30,-5
14115,1272,304,-1888,-43,30,-4
14120,1256,344,-1904,-44,31,-5
14125,1280,320,-1904,-45,29,-6
14130,1248,336,-1872,-45,30,-6
14135,1264,336,-1832,-47,29,-8
14140,1256,336,-1904,-48,27,-9
14145,1264,312,-1856,-48,24,-10
14150,1256,336,-1872,-48,23,-10
14155,1272,336,-1888,-50,20,-11
14160,1240,384,-1912,-51,19,-12
14165,1232,352,-1904,-51,18,-11
14170,1272,344,-1912,-53,21,-13
14175,1280,328,-1888,-53,21,-13
14180,1240,352,-1896,-54,22,-13
14185,1264,336,-1896,-54,21,-13
14190,1272,328,-1896,-52,20,-13
14195,1256,344,-1880,-51,18,-11
14200,1248,328,-1904,-51,18,-11
14205,1264,352,-1888,-49,18,-10
14210,1256,344,-1904,-49,17,-10
14215,1216,352,-1864,-49,17,-11
14220,1272,352,-1920,-49,16,-9
14225,1256,328,-1888,-48,16,-8
14230,1264,328,-1888,-48,17,-8
14235,1288,328,-1896,-48,17,-8
14240,1264,336,-1920,-47,17,-7
14245,1240,336,-1912,-47,19,-8
14250,1264,336,-1904,-46,22,-9
14255,1256,336,-1896,-46,23,-8
14260,1264,336,-1904,-48,24,-9
14265,1240,336,-1880,-49,24,-9
14270,1272,408,-1904,-47,25,-8
14275,1240,336,-1936,-49,23,-9
14280,1256,352,-1888,-47,24,-10
14285,1248,312,-1912,-48,24,-10
14290,1272,336,-1912,-47,25,-10
14295,1272,344,-1896,-49,25,-9
14300,1264,320,-1896,-49,24,-8
14305,1264,344,-1920,-50,23,-9
14310,1256,312,-1888,-49,23,-9
14315,1264,352,-1888,-48,23,-9
14320,1264,336,-1920,-49,24,-9
14325,1264,344,-1896,-50,25,-9
14330,1280,328,-1888,-48,26,-9
14335,1264,328,-1912,-48,25,-9
14340,1256,336,-1888,-47,27,-9
14345,1256,352,-1872,-48,28,-10
14350,1256,304,-1880,-47,29,-8
14355,1264,344,-1880,-47,29,-8
14360,1264,352,-1928,-46,28,-7
14365,1264,328,-1896,-46,29,-9
14370,1248,336,-1888,-47,30,-8
14375,1240,384,-1888,-47,31,-8
14380,1272,296,-1880,-46,30,-7
14385,1272,336,-1912,-47,30,-6
14390,1288,320,-1888,-46,29,-7
14395,1248,344,-1872,-46,29,-5
14400,1256,328,-1872,-46,28,-6
14405,1264,336,-1872,-46,27,-7
14410,1264,344,-1904,-47,27,-6
14415,1264,352,-1896,-47,28,-6
14420,1248,376,-1888,-47,27,-7
14425,1256,320,-1904,-49,27,-7
14430,1272,320,-1888,-50,28,-8
14435,1264,352,-1888,-51,28,-9
14440,1264,336,-1888,-50,29,-7
14445,1280,312,-1896,-50,29,-9
14450,1272,336,-1928,-50,28,-8
14455,1240,352,-1904,-49,30,-9
14460,1256,344,-1880,-50,30,-10
14465,1264,336,-1904,-49,29,-10
14470,1280,328,-1904,-51,29,-9
14475,1264,336,-1872,-50,30,-9
14480,1240,344,-1904,-50,31,-11
14485,1248,328,-1880,-51,30,-10
14490,1272,328,-1904,-51,30,-10
14495,1248,344,-1848,-49,30,-9
14500,1280,352,-1928,-49,29,-10
14505,1280,336,-1864,-49,29,-10
14510,1272,328,-1880,-49,29,-10
14515,1272,344,-1880,-48,28,-11
14520,1280,368,-1904,-48,29,-10
14525,1280,320,-1864,-48,27,-11
14530,1280,344,-1912,-48,28,-11
14535,1264,344,-1864,-49,28,-10
14540,1280,336,-1880,-49,26,-9
14545,1256,336,-1896,-49,25,-9
14550,1256,368,-1872,-50,25,-9
14555,1280,344,-1888,-50,24,-9
14560,1248,360,-1912,-49,24,-9
14565,1272,344,-1864,-48,24,-10
14570,1264,344,-1872,-47,24,-9
14575,1248,344,-1912,-46,23,-10
14580,1272,328,-1896,-48,23,-10
14585,1256,344,-1888,-48,23,-9
14590,1272,320,-1912,-47,24,-8
14595,1288,304,-1888,-48,23,-7
14600,1280,344,-1912,-47,24,-7
14605,1256,344,-1920,-48,23,-7
14610,1288,352,-1896,-49,21,-7
14615,1264,360,-1896,-46,22,-8
14620,1288,344,-1888,-46,23,-9
14625,1264,344,-1896,-48,22,-8
14630,1264,352,-1896,-48,22,-9
14635,1264,360,-1888,-48,22,-9
14640,1256,328,-1872,-47,21,-9
14645,1232,368,-1888,-46,21,-9
14650,1272,336,-1888,-47,21,-8
14655,1280,336,-1912,-47,21,-9
14660,1256,336,-1904,-47,23,-9
14665,1280,336,-1872,-46,24,-10
14670,1288,336,-1896,-46,25,-8
14675,1272,336,-1856,-46,25,-9
14680,1272,360,-1920,-46,26,-9
14685,1264,336,-1888,-45,27,-9
14690,1256,352,-1880,-45,26,-10
14695,1280,336,-1888,-44,27,-10
14700,1272,320,-1872,-43,26,-8
14705,1272,328,-1896,-42,25,-8
14710,1272,328,-1896,-43,27,-9
14715,1272,328,-1888,-45,27,-10
14720,1264,320,-1888,-46,28,-11
14725,1248,344,-1928,-45,29,-10
14730,1264,344,-1880,-46,28,-11
14735,1296,344,-1896,-45,28,-10
14740,1256,360,-1912,-45,28,-9
14745,1296,336,-1872,-47,29,-9
14750,1272,336,-1904,-44,28,-10
14755,1256,336,-1888,-44,30,-9
14760,1272,328,-1912,-43,28,-9
14765,1240,352,-1896,-45,26,-8
14770,1272,328,-1864,-45,27,-9
14775,1248,344,-1888,-43,27,-8
14780,1264,344,-1888,-43,27,-8
14785,1280,344,-1920,-42,27,-9
14790,1280,336,-1896,-43,27,-8
14795,1272,328,-1888,-44,26,-9
14800,1280,360,-1880,-44,25,-8
14805,1256,352,-1896,-44,24,-8
14810,1264,304,-1872,-45,25,-8
14815,1280,336,-1888,-45,25,-8
14820,1272,344,-1880,-45,24,-8
14825,1272,360,-1904,-45,24,-8
14830,1288,336,-1888,-44,23,-7
14835,1288,360,-1904,-44,22,-7
14840,1280,352,-1896,-45,21,-6
14845,1264,360,-1888,-45,20,-6
14850,1272,336,-1904,-44,20,-6
14855,1288,328,-1888,-44,18,-7
14860,1264,360,-1896,-44,18,-7
14865,1256,320,-1888,-44,18,-5
14870,1288,344,-1864,-45,17,-7
14875,1264,336,-1872,-45,17,-7
14880,1296,328,-1880,-44,18,-6
14885,1272,336,-1848,-44,17,-5
14890,1264,352,-1896,-45,16,-5
14895,1272,328,-1904,-45,16,-5
14900,1288,320,-1880,-45,16,-4
14905,1280,328,-1904,-45,16,-6
14910,1288,312,-1912,-43,17,-7
14915,1280,352,-1920,-42,17,-7
14920,1272,344,-1912,-44,17,-7
14925,1272,344,-1912,-45,19,-6
14930,1272,352,-1880,-43,19,-6
14935,1288,352,-1912,-43,20,-7
14940,1280,344,-1880,-43,20,-6
14945,1256,336,-1888,-43,22,-6
14950,1264,360,-1864,-44,21,-6
14955,1264,352,-1904,-44,23,-7
14960,1264,352,-1912,-42,22,-6
14965,1272,328,-1872,-42,24,-6
14970,1280,336,-1904,-41,25,-7
14975,1264,344,-1896,-43,26,-7
14980,1280,352,-1904,-42,28,-8
14985,1264,328,-1928,-42,28,-8
14990,1288,352,-1864,-42,27,-7
14995,1288,344,-1848,-40,29,-6
