timestamp,accel_x,accel_y,accel_z,gyro_x,gyro_y,gyro_z
0,48,-2104,-448,23,25,30
5,48,-2064,-464,19,31,27
10,72,-2056,-472,15,37,23
15,104,-2072,-464,9,42,21
20,88,-2072,-456,-2,47,17
25,128,-2040,-424,-11,52,14
30,104,-2056,-456,-16,56,9
35,112,-2072,-480,-22,58,7
40,104,-2048,-488,-29,59,3
45,104,-2048,-464,-32,62,1
50,120,-2048,-448,-40,66,-3
55,104,-1960,-392,-45,70,-8
60,160,-2080,-448,-53,71,-13
65,128,-2056,-424,-57,71,-18
70,128,-2048,-392,-60,73,-23
75,112,-2048,-408,-61,73,-26
80,136,-2048,-432,-64,75,-31
85,152,-2048,-408,-68,75,-34
90,80,-2056,-440,-74,75,-36
95,80,-2048,-408,-81,74,-38
100,128,-2048,-400,-87,73,-37
105,104,-2040,-400,-94,72,-37
110,112,-2056,-408,-96,68,-35
115,96,-2056,-384,-101,63,-34
120,88,-2072,-384,-102,58,-32
125,72,-2072,-416,-101,51,-32
130,88,-2104,-320,-102,44,-31
135,80,-2072,-360,-104,39,-31
140,56,-2072,-368,-108,34,-28
145,88,-2072,-320,-114,30,-28
150,56,-2088,-344,-117,27,-25
155,64,-2096,-320,-117,28,-25
160,80,-2104,-344,-114,31,-23
165,80,-2104,-360,-106,33,-25
170,104,-2112,-376,-98,37,-26
175,104,-2080,-352,-91,42,-28
180,144,-2088,-336,-84,48,-32
185,136,-2080,-336,-78,55,-34
190,144,-2080,-352,-75,64,-38
195,136,-2080,-336,-79,72,-40
200,128,-2088,-352,-85,80,-40
205,144,-2104,-376,-89,87,-41
210,112,-2080,-360,-91,94,-42
215,104,-2112,-392,-93,101,-42
220,120,-2120,-368,-91,108,-42
225,80,-2112,-384,-85,114,-42
230,96,-2136,-392,-79,116,-43
235,128,-2160,-400,-70,119,-43
240,80,-2120,-400,-65,120,-45
245,40,-2136,-408,-62,119,-45
250,48,-2152,-368,-58,116,-47
255,48,-2144,-384,-52,113,-50
260,56,-2152,-416,-45,108,-52
265,40,-2120,-392,-40,106,-52
270,32,-2112,-408,-37,103,-51
275,24,-2080,-392,-37,102,-50
280,24,-2104,-416,-38,97,-50
285,48,-2104,-384,-41,94,-51
290,80,-2048,-424,-49,89,-50
295,48,-2104,-392,-51,86,-51
300,64,-2096,-360,-55,85,-48
305,40,-2088,-368,-59,83,-47
310,72,-2064,-384,-62,81,-45
315,72,-2112,-384,-64,82,-45
320,72,-2064,-384,-67,82,-42
325,72,-2088,-376,-67,81,-41
330,112,-2072,-392,-69,81,-38
335,112,-2056,-368,-71,84,-38
340,96,-2072,-352,-73,87,-38
345,152,-2096,-352,-73,89,-37
350,112,-2080,-360,-72,93,-36
355,104,-2088,-336,-72,94,-36
360,112,-2104,-352,-71,96,-35
365,136,-2112,-344,-68,96,-37
370,120,-2112,-368,-65,95,-36
375,128,-2120,-336,-62,95,-37
380,128,-2128,-352,-58,94,-36
385,120,-2136,-352,-53,95,-32
390,104,-2112,-360,-50,95,-34
395,144,-2120,-376,-49,96,-32
400,128,-2120,-368,-46,95,-32
405,112,-2104,-352,-46,94,-31
410,120,-2088,-368,-50,94,-28
415,112,-2072,-360,-57,94,-27
420,104,-2080,-392,-62,95,-26
425,120,-2072,-360,-66,98,-24
430,136,-2072,-360,-70,100,-22
435,128,-2080,-384,-73,103,-21
440,128,-2064,-368,-75,107,-17
445,120,-2072,-400,-79,109,-16
450,128,-2080,-384,-84,112,-14
455,104,-2056,-392,-87,114,-13
460,128,-2088,-400,-90,113,-12
465,104,-2080,-408,-89,114,-11
470,104,-2088,-416,-88,111,-12
475,112,-2096,-376,-84,111,-14
480,112,-2096,-376,-79,109,-14
485,112,-2112,-368,-72,109,-16
490,120,-2088,-400,-63,109,-17
495,120,-2136,-408,-56,108,-21
500,96,-2104,-384,-47,106,-21
505,80,-2104,-400,-40,105,-21
510,96,-2096,-400,-34,101,-22
515,88,-2096,-400,-29,98,-22
520,72,-2096,-376,-26,96,-25
525,80,-2120,-408,-23,92,-26
530,64,-2096,-392,-22,90,-28
535,56,-2096,-416,-20,87,-30
540,72,-2096,-360,-18,84,-32
545,48,-2104,-400,-16,82,-36
550,80,-2080,-400,-17,79,-36
555,64,-2112,-408,-17,77,-39
560,88,-2112,-408,-18,74,-41
565,56,-2088,-408,-16,73,-43
570,80,-2064,-392,-16,71,-43
575,88,-2096,-400,-17,67,-44
580,80,-2096,-416,-18,65,-44
585,88,-2080,-408,-21,64,-44
590,80,-2088,-408,-23,61,-46
595,64,-2064,-408,-25,62,-44
600,96,-2088,-448,-25,63,-44
605,104,-2080,-432,-25,63,-45
610,88,-2080,-432,-26,63,-45
615,96,-2072,-472,-28,63,-45
620,128,-2064,-432,-32,63,-46
625,112,-2072,-480,-38,64,-48
630,104,-2072,-416,-44,65,-48
635,136,-2064,-456,-51,67,-48
640,160,-2040,-456,-59,69,-49
645,128,-2048,-424,-69,70,-50
650,144,-2040,-440,-79,71,-51
655,136,-2056,-440,-90,70,-53
660,136,-2048,-472,-102,67,-56
665,144,-2080,-456,-112,66,-60
670,152,-2088,-448,-123,62,-64
675,176,-2080,-456,-132,56,-69
680,144,-2120,-480,-136,50,-75
685,120,-2120,-488,-136,43,-78
690,96,-2120,-456,-136,35,-80
695,96,-2144,-480,-135,28,-81
700,104,-2136,-440,-130,20,-83
705,88,-2136,-464,-125,14,-83
710,80,-2144,-456,-120,7,-84
715,96,-2160,-456,-114,4,-82
720,88,-2128,-440,-107,1,-81
725,80,-2112,-432,-102,-2,-78
730,80,-2112,-488,-98,-6,-75
735,48,-2072,-440,-96,-10,-74
740,96,-2112,-456,-97,-14,-72
745,96,-2096,-472,-98,-17,-68
750,88,-2120,-432,-98,-19,-66
755,88,-2096,-440,-100,-18,-64
760,88,-2080,-424,-101,-20,-64
765,96,-2104,-456,-102,-20,-62
770,88,-2112,-448,-103,-20,-64
775,88,-2080,-440,-105,-20,-66
780,104,-2096,-472,-106,-19,-66
785,96,-2088,-416,-107,-16,-68
790,96,-2096,-440,-105,-17,-69
795,112,-2096,-416,-102,-18,-69
800,104,-2104,-416,-98,-21,-68
805,112,-2104,-488,-94,-24,-67
810,136,-2088,-456,-93,-27,-67
815,112,-2080,-448,-90,-29,-66
820,136,-2104,-384,-89,-34,-64
825,136,-2120,-424,-88,-38,-65
830,152,-2112,-400,-88,-41,-66
835,128,-2080,-424,-83,-40,-66
840,144,-2096,-456,-78,-41,-68
845,160,-2088,-440,-71,-41,-67
850,168,-2072,-440,-67,-40,-70
855,184,-2088,-416,-64,-39,-70
860,184,-2072,-416,-62,-37,-70
865,192,-2096,-416,-61,-39,-70
870,176,-2072,-416,-61,-39,-69
875,168,-2080,-448,-60,-38,-65
880,120,-2128,-368,-59,-37,-65
885,176,-2088,-424,-57,-36,-61
890,192,-2096,-424,-56,-35,-57
895,192,-2072,-416,-56,-34,-54
900,192,-2096,-440,-55,-34,-52
905,192,-2104,-456,-53,-35,-49
910,200,-2088,-416,-54,-34,-47
915,224,-2104,-400,-54,-38,-45
920,208,-2096,-432,-53,-41,-41
925,216,-2120,-432,-51,-42,-41
930,200,-2096,-448,-47,-45,-39
935,200,-2024,-304,-42,-47,-38
940,192,-2120,-424,-38,-47,-34
945,224,-2120,-424,-33,-46,-32
950,176,-2096,-424,-31,-47,-29
955,176,-2080,-440,-28,-46,-28
960,200,-2104,-424,-28,-46,-27
965,184,-2072,-464,-29,-44,-24
970,208,-2080,-424,-30,-43,-21
975,208,-2088,-456,-31,-41,-19
980,208,-2080,-432,-32,-39,-18
985,208,-2080,-432,-36,-39,-17
990,184,-2088,-392,-37,-38,-16
995,200,-2080,-424,-37,-35,-16
1000,208,-2104,-432,-38,-33,-14
1005,192,-2096,-408,-38,-31,-13
1010,176,-2080,-432,-41,-29,-11
1015,176,-2088,-416,-46,-28,-11
1020,176,-2080,-456,-51,-29,-11
1025,160,-2072,-440,-58,-31,-12
1030,192,-2080,-448,-67,-31,-13
1035,176,-2080,-464,-73,-33,-14
1040,160,-2080,-496,-81,-35,-13
1045,168,-2088,-472,-87,-34,-13
1050,152,-2080,-488,-89,-35,-14
1055,136,-2088,-488,-92,-34,-15
1060,136,-2112,-464,-94,-37,-16
1065,152,-2096,-472,-93,-36,-15
1070,152,-2128,-472,-96,-36,-15
1075,128,-2120,-448,-99,-35,-15
1080,144,-2088,-480,-100,-33,-16
1085,160,-2120,-472,-102,-33,-16
1090,168,-2072,-464,-105,-31,-17
1095,168,-2096,-464,-106,-28,-19
1100,152,-2104,-480,-106,-28,-20
1105,168,-2104,-464,-105,-27,-21
1110,176,-2120,-456,-103,-26,-21
1115,160,-2128,-464,-101,-25,-22
1120,168,-2088,-496,-101,-23,-22
1125,168,-2120,-472,-99,-23,-22
1130,152,-2096,-472,-97,-23,-22
1135,160,-2096,-472,-94,-22,-21
1140,160,-2088,-456,-90,-20,-22
1145,160,-2112,-448,-89,-19,-21
1150,176,-2088,-496,-87,-17,-20
1155,160,-2112,-488,-82,-16,-20
1160,168,-2120,-456,-79,-13,-20
1165,136,-2080,-408,-78,-13,-21
1170,152,-2096,-472,-73,-12,-21
1175,192,-2104,-496,-70,-12,-22
1180,168,-2080,-440,-67,-12,-23
1185,176,-2080,-480,-63,-10,-24
1190,176,-2096,-480,-62,-8,-25
1195,216,-2112,-456,-58,-7,-26
1200,192,-2080,-456,-55,-5,-26
1205,200,-2088,-448,-52,-2,-27
1210,200,-2112,-472,-52,0,-27
1215,216,-2104,-456,-50,3,-28
1220,192,-2104,-448,-51,4,-28
1225,200,-2088,-448,-48,6,-27
1230,200,-2080,-408,-47,9,-25
1235,184,-2064,-440,-47,12,-25
1240,200,-2088,-432,-45,13,-25
1245,192,-2080,-424,-45,16,-25
1250,200,-2072,-416,-43,21,-23
1255,208,-2096,-424,-40,23,-22
1260,200,-2104,-432,-39,27,-22
1265,200,-2096,-408,-38,29,-21
1270,184,-2088,-440,-35,32,-20
1275,184,-2104,-400,-35,34,-20
1280,192,-2080,-384,-35,37,-20
1285,176,-2072,-400,-35,41,-20
1290,176,-2088,-400,-36,44,-19
1295,192,-2088,-400,-36,46,-18
1300,184,-2088,-400,-36,48,-17
1305,176,-2064,-392,-39,51,-17
1310,208,-2080,-400,-40,54,-18
1315,184,-2080,-384,-42,58,-18
1320,216,-2096,-408,-44,62,-18
1325,176,-2072,-392,-45,64,-19
1330,176,-2088,-432,-48,66,-21
1335,192,-2080,-392,-49,67,-21
1340,192,-2096,-392,-50,68,-20
1345,168,-2064,-400,-53,70,-21
1350,192,-2088,-432,-54,71,-20
1355,192,-2088,-408,-55,73,-21
1360,168,-2080,-384,-53,77,-22
1365,192,-2088,-424,-53,79,-22
1370,192,-2080,-392,-54,82,-24
1375,192,-2088,-408,-54,85,-25
1380,200,-2072,-408,-54,88,-26
1385,176,-2080,-440,-53,89,-27
1390,216,-2096,-424,-53,89,-28
1395,200,-2096,-448,-54,89,-29
1400,184,-2088,-440,-54,90,-30
1405,160,-2080,-440,-55,89,-29
1410,192,-2088,-456,-55,89,-29
1415,184,-2104,-424,-59,91,-28
1420,192,-2112,-432,-61,90,-28
1425,176,-2088,-400,-62,90,-29
1430,192,-2088,-416,-64,92,-28
1435,168,-2080,-456,-65,94,-29
1440,176,-2080,-480,-65,98,-30
1445,184,-2064,-472,-68,101,-31
1450,184,-2072,-448,-73,103,-32
1455,184,-2056,-464,-80,104,-33
1460,200,-2064,-488,-86,102,-34
1465,192,-2072,-496,-95,100,-34
1470,200,-2064,-472,-98,98,-35
1475,184,-2064,-464,-101,97,-34
1480,176,-2096,-480,-103,95,-32
1485,200,-2104,-480,-104,93,-31
1490,184,-2096,-480,-106,91,-29
1495,184,-2096,-496,-106,90,-31
1500,176,-2088,-488,-108,90,-31
1505,192,-2112,-480,-109,90,-30
1510,200,-2120,-488,-107,90,-29
1515,224,-2104,-480,-107,88,-29
1520,200,-2104,-496,-104,88,-27
1525,200,-2104,-488,-103,86,-26
1530,200,-2128,-480,-101,83,-25
1535,200,-2080,-496,-98,81,-24
1540,216,-2096,-472,-95,78,-24
1545,208,-2112,-488,-93,76,-22
1550,200,-2096,-488,-90,75,-22
1555,216,-2104,-496,-89,72,-24
1560,192,-2072,-488,-91,70,-25
1565,168,-2072,-488,-92,68,-24
1570,184,-2072,-496,-96,66,-23
1575,192,-2072,-496,-97,66,-22
1580,184,-2080,-448,-102,66,-23
1585,240,-1960,-552,-106,66,-21
1590,200,-2072,-480,-108,64,-20
1595,200,-2056,-480,-110,63,-20
1600,184,-2072,-456,-111,60,-17
1605,192,-2080,-488,-111,58,-19
1610,208,-2080,-480,-109,56,-19
1615,184,-2088,-512,-108,54,-17
1620,192,-2088,-496,-106,51,-17
1625,184,-2104,-480,-103,49,-15
1630,184,-2120,-472,-101,48,-14
1635,288,-2080,-480,-102,46,-14
1640,192,-2096,-504,-100,46,-16
1645,168,-2072,-488,-100,44,-13
1650,192,-2088,-496,-98,43,-12
1655,184,-2096,-504,-96,42,-14
1660,176,-2096,-488,-93,39,-13
1665,216,-2096,-496,-88,38,-13
1670,184,-2104,-480,-83,36,-12
1675,192,-2112,-480,-79,34,-12
1680,184,-2120,-472,-75,30,-13
1685,176,-2080,-472,-74,29,-12
1690,176,-2088,-496,-73,27,-11
1695,176,-2096,-512,-74,26,-12
1700,192,-2088,-504,-76,25,-13
1705,168,-2072,-472,-76,23,-12
1710,152,-2056,-504,-77,21,-10
1715,192,-2064,-488,-80,21,-10
1720,176,-2088,-512,-80,17,-11
1725,192,-2080,-488,-79,15,-13
1730,192,-2080,-496,-78,14,-12
1735,184,-2096,-512,-79,11,-11
1740,176,-2112,-496,-75,9,-12
1745,192,-2088,-496,-74,9,-11
1750,168,-2072,-496,-72,8,-11
1755,184,-2072,-456,-70,7,-12
1760,184,-2096,-464,-67,7,-11
1765,152,-2088,-488,-66,8,-11
1770,192,-2120,-496,-65,9,-9
1775,184,-2096,-488,-63,9,-7
1780,200,-2072,-512,-61,9,-7
1785,208,-2096,-504,-59,9,-7
1790,192,-2088,-496,-56,10,-9
1795,216,-2096,-480,-54,8,-6
1800,200,-2112,-496,-52,7,-7
1805,192,-2088,-472,-49,6,-8
1810,192,-2088,-488,-49,5,-6
1815,216,-2120,-520,-47,3,-6
1820,200,-2088,-504,-46,3,-6
1825,176,-2080,-504,-46,4,-7
1830,200,-2088,-496,-48,3,-8
1835,200,-2080,-496,-46,2,-8
1840,216,-2088,-488,-45,2,-7
1845,200,-2088,-496,-45,1,-8
1850,208,-2072,-488,-45,1,-9
1855,208,-2080,-496,-46,0,-8
1860,208,-2080,-488,-44,-1,-9
1865,184,-2064,-472,-46,-1,-7
1870,184,-2080,-504,-45,-1,-9
1875,192,-2096,-504,-45,-1,-8
1880,192,-2104,-488,-45,-1,-9
1885,192,-2072,-504,-46,0,-9
1890,216,-2080,-496,-48,2,-9
1895,208,-2080,-488,-48,2,-9
1900,216,-2104,-488,-47,2,-9
1905,200,-2064,-488,-47,1,-9
1910,200,-2072,-496,-50,1,-9
1915,200,-2088,-472,-50,0,-9
1920,192,-2080,-488,-52,1,-9
1925,192,-2088,-488,-54,1,-10
1930,200,-2104,-448,-55,1,-9
1935,208,-2096,-488,-56,1,-10
1940,176,-2080,-480,-56,3,-11
1945,184,-2096,-480,-56,4,-12
1950,208,-2088,-488,-57,7,-11
1955,184,-2088,-496,-59,9,-12
1960,224,-2096,-496,-60,10,-11
1965,192,-2080,-456,-62,13,-11
1970,192,-2072,-464,-61,15,-11
1975,200,-2088,-496,-61,15,-11
1980,216,-2096,-488,-57,16,-10
1985,192,-2080,-504,-56,16,-10
1990,208,-2120,-488,-56,18,-8
1995,216,-2120,-512,-56,17,-8
2000,216,-2104,-488,-57,18,-7
2005,232,-2096,-488,-57,19,-8
2010,216,-2088,-496,-58,19,-9
2015,200,-2088,-512,-56,21,-9
2020,216,-2088,-512,-53,22,-9
2025,208,-2088,-496,-51,24,-10
2030,208,-2072,-504,-51,28,-11
2035,208,-2056,-512,-49,29,-10
2040,200,-2064,-480,-51,28,-10
2045,200,-2072,-504,-53,26,-11
2050,192,-2056,-488,-56,27,-12
2055,200,-2080,-480,-58,25,-11
2060,224,-2072,-504,-59,25,-11
2065,200,-2080,-488,-60,23,-12
2070,200,-2080,-504,-61,23,-11
2075,200,-2080,-504,-62,23,-11
2080,208,-2096,-496,-61,24,-12
2085,192,-2064,-488,-59,23,-12
2090,224,-2104,-528,-60,22,-11
2095,192,-2088,-496,-59,23,-13
2100,200,-2072,-504,-59,23,-13
2105,232,-2088,-496,-58,23,-14
2110,192,-2064,-512,-56,24,-12
2115,216,-2088,-472,-55,24,-11
2120,216,-2096,-504,-55,25,-10
2125,200,-2088,-480,-53,24,-12
2130,224,-2080,-512,-52,25,-11
2135,216,-2072,-504,-50,25,-11
2140,224,-2096,-504,-51,25,-9
2145,216,-2088,-504,-48,26,-8
2150,200,-2072,-496,-47,27,-8
2155,216,-2088,-488,-46,25,-8
2160,224,-2104,-496,-47,25,-8
2165,208,-2096,-496,-45,27,-6
2170,208,-2080,-504,-48,28,-6
2175,208,-2080,-496,-48,30,-7
2180,216,-2088,-504,-49,30,-7
2185,192,-2080,-488,-50,29,-8
2190,200,-2064,-496,-52,30,-7
2195,208,-2072,-504,-52,31,-8
2200,208,-2088,-504,-52,31,-8
2205,216,-2088,-504,-54,31,-9
2210,216,-2112,-504,-56,30,-8
2215,208,-2080,-504,-58,28,-8
2220,200,-2064,-496,-60,28,-7
2225,208,-2088,-520,-59,29,-9
2230,192,-2088,-480,-59,27,-9
2235,208,-2096,-480,-59,27,-10
2240,216,-2104,-504,-57,27,-10
2245,192,-2088,-472,-58,28,-10
2250,208,-2080,-488,-58,28,-11
2255,200,-2104,-504,-58,27,-11
2260,216,-2080,-496,-59,28,-10
2265,208,-2104,-512,-58,32,-10
2270,208,-2112,-504,-59,33,-9
2275,208,-2096,-488,-59,35,-9
2280,232,-2080,-496,-60,37,-12
2285,280,-2032,-640,-60,39,-11
2290,184,-2080,-496,-61,42,-11
2295,192,-2096,-512,-63,43,-13
2300,208,-2064,-512,-61,44,-12
2305,200,-2080,-512,-61,46,-12
2310,192,-2088,-512,-61,47,-13
2315,168,-2064,-504,-59,49,-12
2320,176,-2072,-496,-59,52,-12
2325,216,-2104,-496,-59,53,-13
2330,200,-2064,-504,-61,55,-14
2335,184,-2080,-496,-61,56,-16
2340,224,-2176,-456,-62,58,-16
2345,192,-2088,-520,-62,59,-18
2350,192,-2080,-464,-62,63,-19
2355,208,-2088,-520,-63,66,-20
2360,192,-2096,-512,-64,70,-22
2365,184,-2088,-512,-66,75,-24
2370,200,-2072,-504,-65,75,-26
2375,176,-2080,-504,-65,75,-31
2380,184,-2088,-536,-67,74,-31
2385,200,-2088,-512,-66,74,-34
2390,200,-2096,-496,-64,71,-35
2395,200,-2072,-480,-63,67,-35
2400,184,-2072,-512,-62,64,-38
2405,208,-2080,-504,-61,59,-38
2410,192,-2096,-488,-59,55,-40
2415,184,-2088,-504,-60,53,-40
2420,200,-2072,-520,-59,49,-40
2425,200,-2096,-488,-57,46,-39
2430,216,-2104,-512,-58,45,-39
2435,208,-2088,-520,-58,44,-39
2440,208,-2080,-520,-57,42,-36
2445,200,-2088,-504,-58,41,-37
2450,216,-2088,-480,-56,40,-35
2455,216,-2080,-496,-56,38,-35
2460,224,-2096,-512,-56,37,-34
2465,208,-2104,-488,-54,36,-32
2470,232,-2072,-544,-54,35,-34
2475,232,-2096,-480,-53,35,-32
2480,232,-2096,-520,-52,35,-34
2485,240,-2080,-496,-51,35,-32
2490,224,-2072,-504,-50,35,-32
2495,232,-2088,-488,-52,34,-31
2500,216,-2080,-520,-53,33,-32
2505,232,-2112,-512,-54,31,-31
2510,224,-2080,-512,-55,30,-31
2515,200,-2080,-536,-55,28,-31
2520,208,-2088,-520,-58,29,-29
2525,232,-2080,-528,-57,28,-28
2530,224,-2072,-528,-58,27,-28
2535,224,-2096,-496,-60,27,-29
2540,224,-2072,-528,-62,27,-30
2545,224,-2088,-512,-63,25,-30
2550,240,-2096,-496,-63,24,-29
2555,224,-2080,-496,-62,23,-28
2560,240,-2088,-512,-62,20,-27
2565,248,-2080,-504,-58,20,-27
2570,216,-2072,-504,-55,18,-26
2575,232,-2096,-504,-53,16,-27
2580,216,-2096,-512,-51,15,-25
2585,240,-2112,-520,-52,15,-24
2590,232,-2096,-480,-51,15,-24
2595,240,-2104,-528,-50,14,-23
2600,240,-2088,-480,-49,15,-22
2605,248,-2096,-512,-46,16,-20
2610,232,-2096,-480,-45,18,-20
2615,216,-2056,-504,-42,19,-20
2620,232,-2072,-552,-43,21,-19
2625,240,-2088,-504,-46,21,-20
2630,240,-2064,-528,-50,20,-20
2635,256,-2080,-512,-52,17,-19
2640,240,-2072,-520,-57,15,-17
2645,208,-2072,-504,-58,14,-18
2650,224,-2104,-504,-58,14,-18
2655,216,-2080,-512,-57,14,-17
2660,208,-2088,-512,-56,15,-17
2665,240,-2080,-488,-57,17,-17
2670,240,-2072,-504,-57,20,-16
2675,224,-2104,-504,-58,20,-16
2680,256,-2088,-512,-57,23,-15
2685,240,-2080,-528,-58,22,-15
2690,232,-2072,-496,-56,22,-15
2695,224,-2088,-504,-55,21,-14
2700,240,-2072,-488,-55,20,-15
2705,240,-2080,-504,-57,19,-15
2710,240,-2080,-528,-54,18,-14
2715,232,-2088,-520,-54,17,-14
2720,240,-2080,-496,-52,17,-12
2725,256,-2088,-520,-52,16,-12
2730,256,-2080,-504,-52,16,-13
2735,224,-2088,-512,-54,16,-13
2740,232,-2080,-520,-54,16,-13
2745,240,-2064,-520,-54,14,-12
2750,232,-2072,-504,-55,14,-11
2755,232,-2096,-504,-56,14,-10
2760,248,-2104,-504,-58,14,-9
2765,232,-2072,-512,-58,16,-11
2770,224,-2080,-504,-58,18,-10
2775,248,-2080,-512,-59,18,-11
2780,224,-2072,-504,-61,20,-10
2785,224,-2104,-512,-62,19,-10
2790,240,-2104,-512,-62,20,-9
2795,232,-2080,-520,-62,22,-11
2800,224,-2096,-488,-63,23,-11
2805,224,-2088,-520,-63,23,-11
2810,224,-2104,-512,-62,25,-11
2815,248,-2104,-520,-62,25,-9
2820,224,-2072,-512,-63,25,-11
2825,216,-2104,-520,-62,23,-11
2830,232,-2096,-544,-60,23,-11
2835,232,-2080,-528,-60,22,-11
2840,232,-2088,-480,-58,22,-9
2845,216,-2096,-488,-57,22,-11
2850,248,-2080,-520,-56,21,-11
2855,232,-2080,-512,-56,22,-12
2860,208,-2088,-528,-59,23,-11
2865,232,-2080,-512,-59,24,-10
2870,232,-2064,-512,-60,23,-10
2875,240,-2064,-504,-62,25,-10
2880,240,-2080,-528,-64,24,-10
2885,224,-2072,-488,-64,22,-10
2890,224,-2088,-512,-65,22,-11
2895,232,-2080,-504,-67,21,-11
2900,216,-2072,-512,-66,22,-10
2905,248,-2080,-528,-65,22,-10
2910,240,-2080,-504,-68,22,-9
2915,224,-2072,-512,-68,22,-10
2920,224,-2064,-496,-67,23,-11
2925,240,-2080,-520,-67,22,-13
2930,224,-2088,-504,-67,22,-12
2935,208,-2096,-512,-66,23,-12
2940,192,-2032,-592,-66,24,-13
2945,208,-2080,-520,-67,25,-12
2950,240,-2080,-552,-66,23,-13
2955,232,-2072,-480,-65,23,-12
2960,240,-2072,-496,-66,24,-12
2965,240,-2064,-544,-65,24,-13
2970,224,-2072,-520,-66,24,-13
2975,192,-2056,-512,-68,25,-14
2980,232,-2096,-528,-66,28,-13
2985,232,-2064,-536,-66,29,-14
2990,240,-2072,-520,-66,29,-15
2995,192,-2080,-432,-68,30,-16
3000,216,-2064,-512,-67,30,-16
3005,224,-2072,-536,-69,30,-15
3010,216,-2080,-512,-66,30,-15
3015,232,-2088,-520,-66,29,-15
3020,240,-2080,-504,-67,29,-15
3025,208,-2080,-464,-66,29,-16
3030,208,-2080,-520,-65,30,-16
3035,232,-2088,-504,-66,30,-16
3040,200,-2088,-544,-67,29,-17
3045,240,-2088,-504,-67,29,-18
3050,232,-2080,-560,-66,29,-18
3055,240,-2088,-536,-65,27,-18
3060,208,-2064,-520,-64,28,-16
3065,232,-2096,-520,-65,29,-18
3070,224,-2080,-528,-64,28,-18
3075,224,-2064,-528,-67,27,-17
3080,240,-2064,-512,-68,26,-17
3085,248,-2088,-528,-68,25,-16
3090,248,-2080,-512,-69,26,-18
3095,232,-2056,-528,-70,23,-19
3100,232,-2072,-560,-70,23,-18
3105,224,-2096,-544,-70,20,-17
3110,240,-2120,-512,-71,19,-16
3115,256,-2104,-560,-69,19,-17
3120,240,-2096,-512,-66,17,-16
3125,256,-2096,-544,-65,18,-15
3130,240,-2080,-512,-65,19,-16
3135,248,-2096,-528,-66,19,-16
3140,248,-2088,-504,-66,19,-16
3145,232,-2056,-520,-66,20,-16
3150,248,-2096,-552,-66,17,-17
3155,248,-2064,-544,-66,17,-16
3160,240,-2064,-552,-65,16,-15
3165,256,-2080,-520,-64,15,-14
3170,232,-2080,-512,-63,12,-14
3175,216,-2080,-528,-64,13,-13
3180,248,-2080,-520,-64,12,-12
3185,256,-2104,-512,-64,13,-12
3190,224,-2088,-520,-62,14,-12
3195,224,-2120,-512,-61,14,-10
3200,248,-2072,-536,-58,15,-10
3205,240,-2072,-536,-57,15,-9
3210,272,-2056,-528,-55,15,-7
3215,248,-2080,-512,-57,16,-8
3220,248,-2056,-528,-61,14,-8
3225,256,-2040,-520,-66,12,-8
3230,248,-2096,-520,-68,13,-7
3235,224,-2064,-544,-71,14,-6
3240,224,-2080,-520,-74,13,-7
3245,240,-2072,-536,-74,12,-6
3250,224,-2088,-536,-74,12,-5
3255,232,-2080,-536,-72,11,-6
3260,240,-2064,-528,-73,10,-7
3265,256,-2096,-552,-73,10,-7
3270,264,-2080,-560,-74,10,-7
3275,240,-2088,-544,-72,8,-5
3280,272,-2096,-536,-72,9,-6
3285,248,-2072,-520,-71,9,-5
3290,240,-2088,-528,-70,8,-5
3295,232,-2080,-520,-71,8,-5
3300,248,-2104,-536,-70,7,-6
3305,240,-2080,-536,-68,6,-5
3310,248,-2080,-528,-68,5,-5
3315,232,-2072,-520,-67,5,-3
3320,232,-2096,-544,-66,5,-3
3325,240,-2080,-520,-66,6,-3
3330,264,-2096,-536,-66,7,-2
3335,256,-2096,-544,-66,8,-3
3340,200,-2064,-520,-66,10,0
3345,232,-2088,-544,-67,11,-1
3350,248,-2072,-544,-68,12,0
3355,232,-2080,-544,-67,12,-2
3360,224,-2096,-552,-69,13,-2
3365,232,-2064,-528,-69,15,-2
3370,248,-2064,-544,-72,16,-3
3375,224,-2072,-528,-72,16,-3
3380,232,-2080,-528,-75,16,-5
3385,232,-2096,-552,-74,15,-5
3390,232,-2064,-536,-75,15,-4
3395,232,-2072,-544,-74,15,-4
3400,248,-2080,-520,-73,15,-3
3405,224,-2104,-544,-75,16,-5
3410,216,-2096,-544,-74,16,-5
3415,248,-2072,-536,-74,16,-4
3420,248,-2104,-528,-74,17,-4
3425,240,-2080,-520,-75,18,-3
3430,232,-2104,-544,-73,18,-5
3435,232,-2088,-480,-73,18,-6
3440,232,-2080,-544,-71,18,-5
3445,256,-2088,-528,-72,19,-6
3450,240,-2080,-528,-71,20,-5
3455,232,-2080,-552,-70,20,-6
3460,256,-2088,-544,-71,22,-8
3465,216,-2064,-552,-70,23,-8
3470,224,-2096,-552,-71,23,-8
3475,240,-2088,-536,-71,22,-8
3480,240,-2072,-544,-70,23,-9
3485,224,-2080,-544,-73,23,-11
3490,232,-2080,-536,-75,22,-12
3495,240,-2080,-560,-75,23,-10
3500,256,-2096,-560,-75,22,-12
3505,224,-2072,-544,-75,23,-13
3510,232,-2080,-544,-75,22,-12
3515,240,-2096,-552,-72,23,-13
3520,208,-2064,-560,-71,23,-13
3525,208,-2080,-520,-70,22,-13
3530,224,-2072,-528,-71,23,-15
3535,232,-2064,-544,-71,23,-16
3540,240,-2064,-552,-71,24,-15
3545,248,-2072,-544,-70,23,-15
3550,224,-2072,-536,-71,23,-14
3555,248,-2096,-528,-71,23,-14
3560,240,-2072,-568,-69,25,-14
3565,216,-2072,-536,-70,26,-16
3570,232,-2080,-560,-68,24,-16
3575,256,-2072,-536,-69,25,-16
3580,248,-2088,-528,-69,23,-16
3585,224,-2080,-544,-70,22,-16
3590,248,-2088,-544,-70,20,-15
3595,248,-2080,-568,-71,19,-14
3600,232,-2064,-536,-72,19,-15
3605,224,-2072,-536,-71,19,-15
3610,232,-2080,-552,-70,18,-15
3615,232,-2064,-544,-71,19,-15
3620,232,-2064,-568,-72,20,-15
3625,272,-2072,-568,-71,20,-15
3630,232,-2064,-560,-70,21,-13
3635,248,-2080,-576,-70,20,-14
3640,232,-2080,-544,-70,21,-13
3645,264,-2048,-640,-71,20,-12
3650,240,-2072,-536,-71,22,-14
3655,248,-2080,-568,-70,22,-12
3660,224,-2080,-544,-68,22,-13
3665,256,-2088,-560,-67,20,-11
3670,224,-2072,-560,-68,20,-11
3675,248,-2088,-544,-66,20,-10
3680,232,-2064,-544,-65,21,-11
3685,240,-2080,-552,-65,20,-11
3690,256,-2088,-576,-65,19,-11
3695,256,-2056,-592,-64,20,-11
3700,280,-2048,-600,-62,19,-12
3705,232,-2080,-520,-63,19,-13
3710,240,-2072,-544,-65,20,-12
3715,256,-2056,-536,-66,20,-12
3720,232,-2072,-568,-68,19,-10
3725,256,-2080,-560,-67,20,-11
3730,248,-2064,-552,-67,18,-12
3735,232,-2096,-552,-65,17,-11
3740,240,-2072,-592,-63,17,-11
3745,240,-2096,-568,-64,19,-10
3750,240,-2072,-568,-63,17,-10
3755,216,-2064,-648,-62,18,-10
3760,248,-2056,-544,-63,20,-10
3765,232,-2056,-584,-65,20,-11
3770,248,-2056,-552,-65,20,-11
3775,192,-2080,-544,-63,19,-10
3780,248,-2096,-552,-61,19,-11
3785,224,-2096,-576,-59,20,-11
3790,240,-2088,-552,-58,20,-10
3795,232,-2088,-552,-56,19,-8
3800,248,-2096,-568,-56,18,-8
3805,240,-2096,-544,-55,18,-9
3810,264,-2104,-560,-56,18,-9
3815,264,-2104,-520,-56,17,-9
3820,256,-2096,-552,-56,18,-10
3825,224,-2056,-576,-54,19,-11
3830,248,-2072,-568,-53,21,-12
3835,256,-2064,-592,-53,22,-11
3840,240,-2056,-576,-53,22,-11
3845,240,-2072,-560,-55,21,-12
3850,248,-2072,-584,-60,19,-12
3855,224,-2072,-568,-60,18,-12
3860,240,-2088,-560,-58,17,-10
3865,256,-2064,-568,-56,16,-11
3870,240,-2096,-576,-55,16,-10
3875,264,-2072,-584,-56,17,-9
3880,256,-2088,-568,-55,17,-11
3885,248,-2072,-576,-54,18,-10
3890,240,-2072,-584,-54,19,-10
3895,248,-2072,-584,-52,18,-9
3900,240,-2080,-560,-51,19,-9
3905,264,-2064,-568,-52,19,-10
3910,264,-2080,-544,-49,19,-9
3915,256,-2048,-552,-50,19,-9
3920,264,-2064,-576,-49,19,-10
3925,240,-2072,-584,-48,18,-10
3930,264,-2056,-552,-49,17,-9
3935,248,-2072,-536,-51,18,-9
3940,256,-2080,-552,-51,19,-11
3945,240,-2088,-552,-53,20,-10
3950,248,-2088,-544,-53,20,-9
3955,232,-2064,-552,-53,20,-9
3960,240,-2088,-552,-55,20,-9
3965,232,-2080,-536,-55,19,-9
3970,256,-2080,-568,-56,20,-9
3975,224,-2072,-568,-55,21,-10
3980,248,-2072,-552,-55,21,-12
3985,232,-2072,-544,-55,20,-11
3990,264,-2096,-536,-55,22,-10
3995,264,-2080,-560,-57,22,-11
4000,248,-2072,-576,-58,21,-9
4005,256,-2088,-576,-59,23,-10
4010,208,-2064,-568,-60,22,-10
4015,256,-2080,-568,-60,23,-10
4020,240,-2096,-584,-59,23,-11
4025,256,-2088,-544,-59,23,-10
4030,232,-2096,-552,-60,22,-9
4035,248,-2072,-560,-62,21,-9
4040,264,-2088,-552,-60,21,-9
4045,248,-2096,-552,-62,21,-9
4050,248,-2064,-528,-63,22,-9
4055,248,-2096,-568,-64,23,-9
4060,256,-2088,-576,-65,23,-10
4065,232,-2096,-584,-65,21,-10
4070,240,-2056,-552,-65,22,-11
4075,256,-2072,-568,-65,21,-11
4080,224,-2072,-528,-65,20,-10
4085,248,-2064,-584,-65,20,-10
4090,240,-2056,-568,-65,20,-11
4095,216,-2064,-560,-67,20,-12
4100,248,-2072,-552,-70,20,-12
4105,232,-2056,-576,-70,19,-13
4110,240,-2048,-592,-71,18,-13
4115,256,-2104,-560,-70,17,-11
4120,248,-2064,-576,-69,18,-12
4125,256,-2056,-568,-68,19,-12
4130,264,-2072,-544,-69,18,-12
4135,232,-2072,-568,-68,18,-12
4140,272,-2112,-552,-68,19,-12
4145,264,-2104,-568,-67,19,-12
4150,240,-2088,-576,-67,18,-11
4155,216,-2072,-576,-67,19,-11
4160,240,-2064,-552,-67,19,-11
4165,256,-2056,-552,-68,19,-11
4170,256,-2072,-600,-68,20,-11
4175,248,-2056,-600,-68,18,-11
4180,248,-2064,-592,-66,18,-11
4185,248,-2064,-576,-66,17,-10
4190,248,-2064,-568,-68,18,-10
4195,232,-2056,-568,-68,18,-10
4200,240,-2072,-584,-66,19,-11
4205,272,-2072,-560,-65,19,-11
4210,256,-2072,-552,-67,19,-11
4215,280,-2072,-600,-67,19,-12
4220,256,-2072,-592,-65,19,-11
4225,272,-2088,-552,-63,18,-11
4230,232,-2072,-592,-61,19,-11
4235,248,-2072,-560,-61,19,-10
4240,248,-2080,-584,-61,19,-10
4245,256,-2072,-576,-59,19,-11
4250,256,-2096,-576,-60,18,-12
4255,240,-2064,-568,-60,19,-12
4260,312,-2096,-560,-59,17,-11
4265,256,-2056,-568,-59,17,-13
4270,240,-2080,-560,-60,17,-12
4275,256,-2088,-552,-59,16,-13
4280,232,-2080,-576,-60,16,-11
4285,240,-2088,-592,-59,16,-13
4290,240,-2064,-568,-58,16,-12
4295,256,-2080,-600,-61,16,-13
4300,264,-2056,-576,-61,17,-13
4305,240,-2056,-568,-61,17,-13
4310,272,-2088,-544,-63,15,-12
4315,240,-2072,-576,-66,14,-12
4320,264,-2088,-560,-70,14,-13
4325,256,-2064,-600,-70,15,-12
4330,256,-2056,-576,-69,15,-12
4335,248,-2064,-576,-72,15,-12
4340,248,-2104,-600,-72,15,-12
4345,248,-2088,-600,-71,15,-12
4350,256,-2072,-600,-70,14,-12
4355,208,-2064,-608,-68,13,-11
4360,264,-2072,-576,-70,16,-11
4365,256,-2064,-568,-70,16,-10
4370,264,-2048,-560,-71,17,-11
4375,248,-2056,-576,-72,17,-11
4380,248,-2080,-560,-72,18,-12
4385,256,-2056,-584,-70,18,-10
4390,256,-2064,-584,-71,17,-10
4395,232,-2080,-592,-69,16,-10
4400,256,-2072,-568,-67,15,-11
4405,248,-2072,-584,-68,14,-11
4410,192,-2096,-568,-67,14,-11
4415,232,-2080,-560,-67,14,-11
4420,248,-2088,-576,-70,14,-12
4425,240,-2088,-568,-69,12,-12
4430,240,-2088,-568,-69,13,-12
4435,248,-2080,-576,-69,14,-12
4440,264,-2088,-576,-69,16,-11
4445,272,-2064,-536,-68,16,-13
4450,248,-2064,-592,-69,17,-12
4455,240,-2056,-616,-69,17,-13
4460,264,-2072,-576,-71,16,-13
4465,240,-2072,-504,-73,15,-14
4470,248,-2080,-576,-76,13,-14
4475,264,-2072,-600,-75,12,-14
4480,240,-2080,-592,-76,14,-13
4485,248,-2072,-600,-76,14,-14
4490,256,-2064,-592,-75,14,-14
4495,256,-2064,-584,-74,16,-14
4500,272,-2072,-576,-75,16,-14
4505,256,-2072,-600,-74,15,-14
4510,256,-2072,-576,-75,17,-13
4515,280,-2048,-576,-76,16,-12
4520,272,-2088,-576,-77,17,-13
4525,264,-2072,-592,-77,16,-13
4530,240,-2056,-616,-77,16,-13
4535,256,-2072,-608,-75,15,-13
4540,248,-2056,-560,-74,15,-13
4545,256,-2064,-576,-77,16,-13
4550,232,-2056,-584,-76,17,-15
4555,256,-2072,-616,-76,18,-15
4560,264,-2056,-608,-77,17,-14
4565,248,-2088,-608,-79,17,-13
4570,264,-2080,-600,-80,17,-15
4575,240,-2080,-608,-78,17,-15
4580,256,-2064,-584,-78,16,-15
4585,240,-2072,-568,-81,17,-14
4590,224,-2080,-584,-80,17,-13
4595,248,-2072,-600,-80,17,-15
4600,256,-2064,-640,-80,18,-15
4605,264,-2080,-616,-81,19,-16
4610,264,-2080,-584,-81,18,-15
4615,256,-2064,-592,-81,18,-16
4620,264,-2072,-608,-82,18,-15
4625,256,-2088,-592,-83,17,-15
4630,248,-2064,-600,-85,18,-15
4635,248,-2088,-608,-87,17,-16
4640,256,-2056,-592,-88,16,-15
4645,264,-2096,-584,-88,17,-16
4650,272,-2064,-600,-90,17,-15
4655,272,-2088,-584,-89,18,-16
4660,264,-2072,-576,-87,17,-16
4665,264,-2072,-608,-86,16,-17
4670,256,-2064,-608,-85,15,-17
4675,256,-2064,-592,-84,16,-16
4680,264,-2096,-616,-84,15,-15
4685,264,-2064,-632,-83,14,-17
4690,272,-2064,-608,-83,15,-17
4695,272,-2056,-640,-84,16,-14
4700,264,-2064,-608,-83,17,-15
4705,256,-2064,-624,-85,17,-16
4710,280,-2072,-616,-86,17,-15
4715,248,-2064,-584,-87,16,-16
4720,264,-2064,-640,-86,16,-16
4725,264,-2064,-616,-88,18,-17
4730,280,-2072,-592,-87,18,-16
4735,248,-2072,-608,-87,15,-16
4740,264,-2072,-624,-86,15,-16
4745,256,-2080,-616,-88,17,-17
4750,256,-2056,-624,-88,16,-16
4755,256,-2064,-616,-87,17,-16
4760,240,-2072,-608,-87,16,-16
4765,272,-2072,-640,-87,15,-16
4770,256,-2064,-600,-88,15,-16
4775,280,-2056,-624,-87,17,-16
4780,256,-2040,-624,-88,16,-16
4785,288,-2064,-640,-88,16,-16
4790,264,-2080,-632,-89,15,-16
4795,264,-2096,-600,-91,14,-16
4800,256,-2064,-616,-92,15,-16
4805,280,-2064,-608,-95,15,-17
4810,256,-2056,-616,-94,16,-16
4815,280,-2080,-592,-94,15,-16
4820,256,-2048,-632,-94,15,-16
4825,280,-2064,-592,-95,17,-17
4830,272,-2064,-592,-96,19,-17
4835,248,-2056,-616,-97,20,-16
4840,264,-2072,-616,-96,20,-17
4845,248,-2088,-624,-94,20,-17
4850,272,-2080,-624,-94,19,-16
4855,280,-2064,-624,-93,21,-16
4860,280,-2072,-608,-93,21,-16
4865,272,-2080,-616,-93,20,-16
4870,256,-2072,-616,-93,20,-17
4875,232,-2072,-608,-92,19,-17
4880,264,-2088,-632,-93,21,-17
4885,296,-2080,-608,-92,20,-16
4890,248,-2072,-624,-91,20,-16
4895,248,-2048,-632,-89,20,-16
4900,288,-2080,-608,-88,21,-14
4905,264,-2064,-648,-89,21,-15
4910,288,-2072,-640,-89,20,-15
4915,264,-2072,-656,-87,20,-14
4920,256,-2064,-592,-87,22,-14
4925,256,-2056,-640,-89,21,-14
4930,280,-2072,-624,-89,21,-14
4935,280,-2056,-664,-89,20,-14
4940,264,-2072,-648,-89,21,-13
4945,280,-2064,-616,-92,21,-12
4950,280,-2080,-656,-94,21,-13
4955,256,-2048,-616,-95,20,-14
4960,264,-2056,-664,-95,19,-13
4965,280,-2064,-632,-94,19,-15
4970,264,-2056,-624,-94,19,-15
4975,256,-2048,-616,-94,19,-14
4980,256,-2064,-640,-96,18,-15
4985,280,-2096,-648,-96,19,-16
4990,280,-2080,-648,-96,19,-16
4995,280,-2064,-624,-96,19,-17
5000,248,-2056,-680,-97,20,-15
5005,256,-2048,-664,-98,21,-15
5010,272,-2072,-624,-100,22,-16
5015,264,-2048,-624,-103,21,-15
5020,280,-2048,-632,-105,22,-16
5025,272,-2064,-640,-105,21,-16
5030,272,-2064,-656,-106,20,-14
5035,280,-2056,-648,-105,20,-15
5040,288,-2080,-648,-103,19,-15
5045,248,-2072,-616,-102,17,-14
5050,272,-2064,-632,-101,17,-15
5055,272,-2056,-664,-101,15,-14
5060,264,-2064,-632,-100,15,-12
5065,192,-2096,-664,-102,17,-13
5070,272,-2072,-632,-102,18,-14
5075,288,-2072,-672,-102,21,-14
5080,256,-2048,-648,-100,23,-14
5085,256,-2056,-648,-100,25,-15
5090,256,-2048,-672,-101,27,-13
5095,256,-2056,-656,-102,29,-14
5100,272,-2064,-648,-103,30,-13
5105,264,-2072,-664,-106,31,-15
5110,272,-2080,-656,-111,32,-15
5115,216,-2016,-728,-114,34,-15
5120,280,-2064,-672,-118,36,-13
5125,288,-2080,-640,-120,37,-14
5130,264,-2064,-640,-122,39,-14
5135,288,-2056,-672,-124,40,-15
5140,264,-2056,-672,-124,40,-16
5145,280,-2056,-688,-126,40,-17
5150,280,-2056,-680,-126,41,-19
5155,280,-2032,-672,-128,41,-20
5160,296,-2064,-656,-128,39,-21
5165,296,-2048,-624,-126,38,-20
5170,296,-2048,-680,-127,35,-20
5175,296,-2056,-656,-127,35,-20
5180,296,-2072,-632,-126,33,-19
5185,272,-2048,-656,-126,32,-19
5190,272,-2040,-632,-131,33,-20
5195,280,-2048,-656,-133,34,-19
5200,280,-2048,-648,-134,37,-17
5205,256,-2064,-680,-131,40,-16
5210,288,-2064,-672,-138,43,-15
5215,288,-2056,-688,-143,46,-13
5220,272,-2064,-672,-148,47,-12
5225,256,-2072,-664,-156,46,-11
5230,272,-2056,-584,-153,47,-11
5235,272,-2072,-648,-119,52,-12
5240,264,-2080,-632,-108,56,-14
5245,248,-2056,-680,-114,57,-11
5250,288,-2040,-696,-121,57,-13
5255,248,-2040,-696,-125,53,-14
5260,264,-2024,-728,-130,55,-15
5265,296,-2040,-712,-137,55,-17
5270,288,-2048,-704,-145,55,-18
5275,280,-2064,-696,-153,56,-19
5280,272,-2040,-696,-157,54,-21
5285,288,-2040,-688,-157,54,-21
5290,296,-2056,-680,-158,51,-22
5295,304,-2048,-696,-157,49,-23
5300,304,-2064,-688,-158,45,-23
5305,304,-2064,-768,-158,43,-22
5310,296,-2048,-712,-179,41,-19
5315,296,-2080,-680,-172,42,-19
5320,280,-2088,-728,-163,45,-19
5325,296,-2064,-632,-166,48,-15
5330,288,-2072,-688,-148,50,-14
5335,280,-2072,-688,-130,56,-13
5340,312,-2072,-696,-133,59,-10
5345,296,-2048,-696,-137,60,-10
5350,304,-2040,-720,-141,61,-10
5355,288,-2032,-696,-150,59,-12
5360,280,-2000,-712,-159,61,-12
5365,280,-2040,-736,-170,62,-16
5370,272,-2048,-728,-178,62,-16
5375,280,-2056,-720,-189,61,-16
5380,280,-2040,-712,-193,61,-18
5385,248,-2040,-752,-194,59,-20
5390,296,-2040,-768,-207,55,-20
5395,288,-2040,-776,-217,52,-20
5400,288,-2056,-728,-223,52,-19
5405,280,-2048,-648,-219,51,-19
5410,280,-2056,-752,-193,57,-19
5415,280,-2080,-728,-186,59,-17
5420,296,-2064,-736,-192,59,-16
5425,304,-2040,-736,-196,56,-14
5430,296,-2056,-736,-198,54,-15
5435,288,-2032,-784,-202,53,-16
5440,296,-2024,-760,-211,50,-17
5445,288,-2024,-744,-221,47,-17
5450,272,-2016,-768,-236,45,-17
5455,272,-2008,-760,-245,41,-20
5460,272,-2048,-776,-251,39,-22
5465,280,-2016,-784,-259,34,-25
5470,288,-2008,-784,-267,32,-26
5475,312,-2008,-760,-275,25,-29
5480,296,-2032,-800,-284,22,-31
5485,312,-2008,-776,-292,19,-33
5490,304,-2000,-784,-297,15,-33
5495,328,-2040,-800,-304,13,-34
5500,304,-2040,-784,-310,12,-32
5505,280,-2048,-760,-314,10,-31
5510,304,-2040,-768,-314,7,-32
5515,288,-2048,-768,-313,4,-31
5520,296,-2048,-800,-314,-2,-30
5525,264,-2048,-752,-316,-7,-30
5530,256,-2040,-792,-321,-13,-28
5535,248,-2016,-808,-328,-16,-28
5540,256,-2032,-800,-336,-21,-30
5545,256,-2032,-808,-346,-27,-30
5550,240,-2040,-768,-353,-31,-30
5555,264,-2016,-856,-365,-34,-33
5560,296,-2040,-832,-371,-37,-35
5565,240,-2032,-800,-379,-38,-35
5570,248,-2048,-840,-386,-42,-38
5575,256,-2024,-824,-393,-45,-38
5580,264,-2040,-840,-396,-48,-39
5585,288,-2064,-824,-399,-48,-43
5590,256,-2048,-848,-399,-50,-43
5595,272,-2048,-832,-399,-52,-43
5600,272,-2040,-808,-398,-56,-44
5605,248,-2048,-832,-394,-60,-45
5610,280,-2056,-840,-391,-65,-46
5615,272,-2024,-832,-388,-68,-45
5620,256,-2032,-840,-381,-70,-43
5625,248,-2024,-816,-378,-73,-40
5630,272,-2024,-824,-374,-77,-41
5635,264,-2016,-816,-372,-81,-42
5640,280,-1992,-840,-368,-83,-41
5645,256,-2032,-816,-365,-84,-40
5650,248,-2000,-840,-364,-88,-41
5655,248,-1984,-872,-367,-92,-40
5660,272,-2000,-848,-373,-94,-41
5665,256,-2000,-832,-374,-95,-43
5670,280,-1984,-832,-377,-98,-43
5675,272,-2000,-896,-381,-98,-45
5680,296,-2016,-904,-384,-102,-46
5685,272,-2008,-840,-392,-106,-47
5690,288,-2000,-904,-391,-108,-48
5695,280,-2024,-888,-389,-109,-47
5700,272,-2016,-864,-390,-111,-47
5705,272,-2016,-944,-397,-114,-46
5710,272,-2016,-904,-402,-118,-47
5715,280,-2016,-888,-390,-119,-49
5720,288,-2016,-928,-387,-121,-49
5725,264,-2008,-912,-401,-123,-48
5730,264,-2008,-896,-403,-127,-49
5735,280,-2024,-912,-380,-126,-49
5740,312,-2024,-920,-362,-125,-47
5745,272,-1992,-936,-360,-125,-46
5750,272,-1984,-992,-372,-128,-44
5755,272,-1960,-976,-393,-132,-41
5760,280,-1976,-992,-404,-134,-42
5765,296,-1984,-904,-407,-133,-44
5770,344,-1912,-1032,-409,-135,-46
5775,264,-1984,-912,-413,-138,-46
5780,264,-1992,-856,-410,-139,-43
5785,272,-2024,-856,-394,-142,-43
5790,264,-2008,-856,-369,-142,-42
5795,312,-2040,-832,-344,-141,-42
5800,296,-2040,-848,-320,-140,-40
5805,280,-2000,-904,-310,-138,-37
5810,288,-1992,-928,-306,-136,-34
5815,280,-2000,-960,-309,-134,-34
5820,304,-1976,-920,-312,-134,-34
5825,296,-1976,-968,-318,-134,-33
5830,272,-1960,-888,-322,-135,-32
5835,280,-1968,-936,-322,-135,-33
5840,288,-1944,-928,-326,-138,-32
5845,296,-1960,-952,-326,-142,-34
5850,272,-1944,-912,-328,-144,-33
5855,272,-1952,-968,-331,-149,-35
5860,280,-1968,-952,-337,-153,-37
5865,272,-1928,-952,-342,-157,-39
5870,312,-1968,-952,-347,-159,-42
5875,288,-1968,-976,-352,-163,-42
5880,304,-1976,-960,-356,-164,-43
5885,280,-1960,-952,-356,-165,-45
5890,288,-1968,-984,-352,-164,-46
5895,304,-1960,-984,-349,-164,-48
5900,312,-1952,-992,-346,-165,-49
5905,296,-1928,-992,-344,-167,-51
5910,304,-1952,-1000,-345,-170,-51
5915,304,-1936,-1008,-348,-172,-50
5920,304,-1920,-984,-351,-175,-51
5925,296,-1920,-976,-360,-180,-51
5930,304,-1920,-1016,-366,-181,-51
5935,264,-1896,-1008,-374,-182,-49
5940,240,-1912,-992,-382,-184,-48
5945,288,-1912,-968,-389,-185,-46
5950,280,-1912,-1000,-397,-188,-45
5955,248,-1888,-984,-406,-188,-43
5960,288,-1912,-1008,-415,-190,-42
5965,280,-1888,-1000,-423,-193,-40
5970,264,-1872,-1032,-431,-194,-39
5975,280,-1872,-1016,-442,-197,-38
5980,288,-1880,-1032,-451,-200,-36
5985,272,-1872,-1048,-460,-203,-35
5990,280,-1864,-1056,-472,-205,-35
5995,272,-1896,-1048,-482,-208,-33
6000,288,-1864,-1048,-492,-209,-32
6005,296,-1896,-1048,-502,-212,-31
6010,272,-1864,-1056,-514,-213,-32
6015,280,-1864,-1096,-525,-213,-30
6020,288,-1856,-1096,-536,-215,-29
6025,264,-1848,-1088,-545,-216,-27
6030,264,-1848,-1104,-556,-218,-27
6035,256,-1840,-1096,-569,-218,-27
6040,256,-1832,-1128,-582,-219,-24
6045,264,-1848,-1088,-598,-220,-22
6050,256,-1848,-1120,-612,-222,-21
6055,248,-1856,-1136,-625,-223,-18
6060,232,-1816,-1136,-638,-225,-16
6065,272,-1840,-1112,-651,-227,-14
6070,280,-1824,-1088,-666,-228,-13
6075,248,-1792,-1112,-678,-229,-10
6080,248,-1808,-1112,-691,-232,-7
6085,264,-1776,-1136,-704,-232,-5
6090,248,-1800,-1144,-718,-233,-3
6095,224,-1768,-1160,-729,-234,0
6100,240,-1792,-1144,-742,-236,2
6105,240,-1768,-1136,-755,-236,4
6110,248,-1776,-1160,-768,-236,5
6115,240,-1776,-1168,-782,-239,8
6120,240,-1760,-1168,-796,-240,10
6125,240,-1752,-1152,-812,-241,12
6130,240,-1704,-1152,-826,-240,14
6135,232,-1728,-1192,-843,-240,16
6140,232,-1736,-1168,-857,-237,18
6145,224,-1728,-1160,-875,-235,22
6150,232,-1720,-1200,-889,-231,21
6155,240,-1712,-1200,-903,-229,24
6160,256,-1728,-1168,-919,-225,26
6165,240,-1704,-1208,-932,-220,27
6170,256,-1704,-1184,-944,-216,30
6175,248,-1712,-1176,-955,-213,30
6180,232,-1696,-1184,-964,-208,32
6185,224,-1672,-1184,-971,-203,35
6190,232,-1704,-1168,-977,-197,38
6195,256,-1688,-1160,-986,-193,42
6200,224,-1656,-1192,-993,-187,46
6205,264,-1656,-1176,-1002,-178,50
6210,240,-1656,-1176,-1011,-169,55
6215,256,-1656,-1184,-1019,-158,59
6220,248,-1616,-1152,-1025,-146,66
6225,272,-1584,-1128,-1028,-132,72
6230,280,-1592,-1120,-1029,-117,78
6235,280,-1560,-1096,-1029,-103,84
6240,304,-1544,-1104,-1035,-85,88
6245,328,-1536,-1088,-1042,-66,95
6250,344,-1512,-1080,-1051,-44,99
6255,320,-1520,-1056,-1063,-20,105
6260,368,-1512,-1072,-1076,7,107
6265,392,-1480,-1064,-1085,35,110
6270,400,-1456,-1064,-1098,63,113
6275,392,-1408,-1032,-1112,93,113
6280,408,-1368,-1008,-1122,122,114
6285,400,-1352,-1024,-1127,151,114
6290,368,-1296,-976,-1136,179,115
6295,392,-1232,-992,-1144,204,118
6300,360,-1160,-976,-1158,227,122
6305,352,-1064,-1024,-1182,245,129
6310,352,-1016,-1024,-1217,261,138
6315,328,-912,-1016,-1260,273,145
6320,328,-848,-1064,-1310,279,152
6325,296,-768,-1056,-1364,282,159
6330,312,-704,-1120,-1427,280,165
6335,328,-592,-1168,-1505,278,163
6340,328,-528,-1224,-1592,279,160
6345,344,-464,-1280,-1678,283,149
6350,352,-376,-1304,-1762,289,136
6355,376,-312,-1432,-1842,296,123
6360,416,-336,-1504,-1926,301,96
6365,360,-304,-1584,-2010,299,54
6370,384,-296,-1648,-2070,298,7
6375,360,-280,-1704,-2109,299,-48
6380,320,-240,-1696,-2131,299,-102
6385,256,-288,-1760,-2128,298,-147
6390,192,-272,-1832,-2105,303,-180
6395,112,-360,-1920,-2060,319,-190
6400,40,-512,-1952,-2005,333,-185
6405,40,-776,-1920,-1941,336,-188
6410,112,-992,-1880,-1850,332,-194
6415,192,-1232,-1824,-1736,332,-208
6420,240,-1592,-1656,-1602,325,-230
6425,112,-2000,-1560,-1420,300,-241
6430,-8,-2184,-1528,-1174,268,-209
6435,-176,-2328,-1616,-924,217,-176
6440,-192,-2072,-1752,-742,121,-169
6445,-96,-1904,-1888,-679,-4,-134
6450,40,-1680,-2080,-711,-155,-117
6455,256,-1288,-2256,-806,-326,-194
6460,536,-640,-2376,-960,-487,-335
6465,880,-464,-2488,-1132,-610,-538
6470,1176,-520,-2640,-1315,-687,-694
6475,1264,-672,-2888,-1561,-738,-796
6480,1392,-1016,-3136,-1860,-793,-842
6485,1400,-1368,-3360,-2134,-841,-843
6490,1432,-1688,-3640,-2315,-859,-812
6495,1528,-2024,-3896,-2409,-844,-770
6500,1472,-2280,-4128,-2447,-801,-738
6505,1400,-2432,-4376,-2477,-738,-709
6510,1224,-2440,-4600,-2536,-652,-679
6515,1032,-2224,-4672,-2649,-538,-664
6520,840,-1904,-4608,-2832,-419,-654
6525,632,-1432,-4392,-3037,-317,-606
6530,488,-1032,-4120,-3138,-263,-446
6535,408,-712,-3896,-3118,-264,-261
6540,376,-512,-3664,-3016,-289,-142
6545,416,-488,-3584,-2901,-319,-109
6550,456,-584,-3544,-2838,-347,-149
6555,488,-696,-3520,-2870,-377,-229
6560,480,-880,-3552,-2987,-406,-319
6565,504,-1000,-3568,-3150,-440,-401
6570,496,-1080,-3520,-3308,-477,-481
6575,448,-1192,-3464,-3436,-517,-559
6580,384,-1216,-3416,-3522,-552,-632
6585,328,-1200,-3272,-3567,-587,-693
6590,224,-1192,-3184,-3575,-623,-732
6595,160,-1168,-3072,-3560,-661,-753
6600,96,-1072,-3024,-3531,-696,-764
6605,56,-952,-2952,-3501,-730,-766
6610,48,-888,-2856,-3473,-758,-764
6615,8,-816,-2608,-3456,-785,-767
6620,144,-776,-2592,-3438,-807,-768
6625,256,-720,-2536,-3421,-838,-770
6630,296,-696,-2440,-3417,-875,-774
6635,384,-648,-2336,-3418,-920,-772
6640,472,-640,-2280,-3403,-974,-770
6645,496,-600,-2232,-3364,-1045,-778
6650,560,-648,-2184,-3305,-1129,-772
6655,520,-680,-2152,-3211,-1212,-776
6660,384,-600,-2176,-3068,-1308,-765
6665,360,-656,-2152,-2921,-1408,-762
6670,376,-648,-2072,-2783,-1495,-770
6675,360,-680,-1984,-2655,-1571,-773
6680,336,-680,-1904,-2516,-1641,-767
6685,320,-736,-1848,-2362,-1728,-777
6690,264,-808,-1784,-2210,-1821,-793
6695,256,-864,-1720,-2061,-1913,-820
6700,216,-896,-1584,-1915,-2007,-838
6705,128,-896,-1520,-1739,-2122,-808
6710,112,-1000,-1416,-1626,-2263,-828
6715,120,-968,-1232,-1490,-2377,-897
6720,80,-896,-1208,-1262,-2488,-950
6725,152,-896,-1240,-989,-2587,-988
6730,144,-728,-1072,-703,-2660,-1010
6735,96,-632,-1064,-489,-2718,-1030
6740,40,-560,-936,-360,-2780,-1053
6745,0,-568,-800,-319,-2854,-1096
6750,8,-680,-616,-302,-2935,-1177
6755,-80,-752,-544,-258,-3046,-1307
6760,-144,-736,-512,-148,-3151,-1463
6765,-248,-752,-536,21,-3245,-1528
6770,-520,-568,-552,159,-3334,-1532
6775,-296,-672,-464,220,-3430,-1603
6780,-680,-568,-640,350,-3463,-1601
6785,-440,-624,-504,439,-3520,-1579
6790,-536,-616,-448,524,-3610,-1645
6795,-904,-440,-560,614,-3732,-1685
6800,-840,-440,-304,656,-3820,-1658
6805,-872,-392,-280,652,-3884,-1599
6810,-1056,-192,-392,615,-3965,-1586
6815,-944,-256,-248,520,-3979,-1555
6820,-1000,-464,-128,428,-3978,-1526
6825,-1016,-512,-64,415,-3985,-1556
6830,-864,-784,-88,412,-3968,-1609
6835,-1112,-952,-216,406,-3914,-1699
6840,-2088,-608,-96,320,-3807,-1769
6845,-1824,80,456,209,-3790,-1732
6850,-1728,1256,712,480,-3910,-1511
6855,-2704,2824,552,903,-4234,-1138
6860,-3088,4160,-656,1020,-4663,-453
6865,-1912,3960,-1584,507,-4844,166
6870,-1008,3792,-1520,-363,-4723,412
6875,-616,4280,-1408,-1253,-4486,669
6880,-1016,3992,-1232,-2284,-4343,1008
6885,-2176,2920,-1328,-3278,-4119,1155
6890,-4040,1720,-1968,-3457,-3434,1032
6895,-4488,392,-1992,-2852,-2676,770
6900,-3792,-328,-2120,-2053,-2300,616
6905,-3616,-272,-2184,-1256,-2227,419
6910,-3256,-72,-2504,-757,-2279,378
6915,-3960,1008,-2128,-726,-2211,303
6920,-4464,1528,-1760,-931,-2117,219
6925,-4120,2120,-1608,-1102,-2011,130
6930,-4528,2936,-1504,-1206,-1870,95
6935,-4560,2936,-1216,-1293,-1824,70
6940,-3984,3080,-1320,-1257,-1808,27
6945,-4600,3400,-1152,-1172,-1710,-58
6950,-4272,2760,-1064,-1201,-1690,-120
6955,-4408,2800,-1128,-1130,-1610,-185
6960,-4448,2648,-1016,-1077,-1499,-195
6965,-3944,2312,-1104,-1068,-1401,-150
6970,-4016,2136,-1024,-999,-1207,-95
6975,-3784,1976,-976,-945,-1048,-50
6980,-3352,1688,-1080,-891,-890,53
6985,-2888,1544,-976,-807,-675,107
6990,-2656,1296,-720,-724,-396,133
6995,-2520,1040,-624,-606,-140,143
7000,-2304,928,-440,-462,85,168
7005,-2032,776,-320,-334,311,210
7010,-1648,624,-248,-181,561,241
7015,-1504,560,-112,-30,903,258
7020,-1576,488,96,101,1252,292
7025,-1576,528,112,239,1506,354
7030,-1448,704,-104,364,1686,428
7035,-1392,744,-312,427,1861,489
7040,-1464,824,-368,427,2019,523
7045,-1592,808,-336,409,2119,545
7050,-1712,792,-360,390,2153,569
7055,-1648,832,-496,364,2166,596
7060,-1656,920,-536,285,2207,635
7065,-1968,856,-304,179,2209,677
7070,-2024,784,-320,93,2138,709
7075,-1968,792,-424,49,2089,732
7080,-1848,848,-512,19,2044,761
7085,-2096,792,-352,-33,1987,771
7090,-2024,728,-328,-41,1906,773
7095,-1840,688,-416,-22,1813,770
7100,-1904,648,-432,-24,1746,762
7105,-2088,584,-296,-45,1675,738
7110,-2072,624,-424,-52,1554,721
7115,-2072,744,-376,-41,1478,712
7120,-2024,624,-392,-80,1363,724
7125,-1960,608,-512,-41,1284,714
7130,-2000,752,-584,-45,1157,696
7135,-2016,704,-600,-125,1031,679
7140,-1864,696,-656,-156,933,690
7145,-1672,640,-632,-163,830,705
7150,-1600,712,-712,-199,705,712
7155,-1312,728,-808,-250,616,742
7160,-976,592,-920,-334,595,790
7165,-960,488,-888,-374,618,785
7170,-1152,400,-800,-343,658,754
7175,-1216,440,-760,-275,697,704
7180,-1296,488,-768,-185,756,650
7185,-1416,552,-752,-91,820,613
7190,-1416,648,-760,12,893,581
7195,-1504,728,-800,123,960,551
7200,-1432,792,-888,239,1028,539
7205,-1392,856,-976,351,1100,529
7210,-1360,912,-1088,436,1167,518
7215,-1424,752,-1080,514,1209,499
7220,-1240,952,-1312,616,1214,480
7225,-1160,1008,-1368,645,1241,484
7230,-1088,1056,-1440,654,1277,486
7235,-1088,1072,-1504,656,1302,468
7240,-1072,968,-1576,656,1328,459
7245,-1064,952,-1600,652,1341,457
7250,-1160,928,-1664,644,1346,458
7255,-1200,952,-1696,630,1346,462
7260,-1176,992,-1728,618,1340,474
7265,-1112,1016,-1776,600,1337,496
7270,-1192,992,-1736,578,1345,517
7275,-1200,1016,-1784,564,1338,519
7280,-1088,1008,-1816,551,1334,548
7285,-1072,992,-1856,522,1319,554
7290,-1144,984,-1816,485,1307,551
7295,-1136,952,-1840,444,1282,538
7300,-1144,880,-1816,402,1239,529
7305,-1152,856,-1864,384,1193,523
7310,-1240,888,-1856,373,1147,521
7315,-1232,864,-1920,351,1100,518
7320,-1240,880,-1896,344,1063,529
7325,-1168,848,-1896,354,1027,547
7330,-1208,776,-1920,369,991,562
7335,-1080,848,-1968,378,948,558
7340,-1112,848,-1968,373,900,558
7345,-1088,768,-1912,377,850,547
7350,-1112,792,-1936,403,784,528
7355,-1040,792,-1904,424,713,513
7360,-1024,800,-1936,429,652,499
7365,-1032,792,-1880,428,589,469
7370,-1048,848,-1896,424,530,445
7375,-1032,808,-1904,439,474,423
7380,-1032,816,-1864,451,419,397
7385,-1024,808,-1832,460,371,369
7390,-1016,744,-1872,476,324,353
7395,-1064,736,-1848,493,276,327
7400,-1024,784,-1872,503,230,297
7405,-1056,768,-1808,519,199,287
7410,-1088,768,-1864,526,151,264
7415,-1072,752,-1816,527,114,247
7420,-1016,720,-1792,525,81,228
7425,-992,784,-1824,527,47,216
7430,-984,744,-1768,521,23,201
7435,-1016,752,-1736,515,13,195
7440,-992,808,-1784,527,-1,189
7445,-904,760,-1784,539,-9,186
7450,-976,832,-1784,544,-10,177
7455,-896,784,-1832,552,-10,167
7460,-872,800,-1800,539,-5,146
7465,-848,832,-1848,524,9,132
7470,-864,800,-1784,510,20,112
7475,-816,816,-1840,494,19,75
7480,-784,776,-1824,466,28,49
7485,-752,800,-1848,440,41,29
7490,-800,808,-1920,418,61,11
7495,-744,864,-1888,394,81,-4
7500,-712,808,-1928,376,113,-6
7505,-688,872,-1928,359,146,-8
7510,-640,768,-1960,334,177,-4
7515,-792,760,-1896,283,192,-33
7520,-856,688,-1896,245,190,-73
7525,-880,720,-1928,212,174,-111
7530,-936,752,-1920,185,158,-138
7535,-984,744,-1904,172,148,-153
7540,-992,728,-1936,170,142,-161
7545,-976,720,-1912,168,140,-169
7550,-976,704,-1960,170,142,-180
7555,-968,736,-1960,175,142,-188
7560,-960,720,-1976,177,134,-193
7565,-1016,728,-1968,175,122,-200
7570,-1000,696,-1968,172,110,-209
7575,-992,664,-1976,167,97,-215
7580,-984,656,-1984,157,86,-217
7585,-1032,632,-1992,149,72,-216
7590,-1008,656,-1928,136,59,-211
7595,-1000,648,-1936,124,47,-208
7600,-1016,640,-1952,113,33,-203
7605,-1032,632,-1944,106,19,-198
7610,-1040,632,-1968,98,7,-191
7615,-1032,616,-1944,91,-5,-182
7620,-1040,640,-1920,85,-16,-173
7625,-1032,656,-1944,76,-26,-165
7630,-1024,648,-1912,65,-37,-156
7635,-1008,640,-1904,58,-46,-149
7640,-1016,648,-1912,49,-56,-143
7645,-1000,608,-1920,44,-62,-139
7650,-1008,616,-1896,41,-68,-132
7655,-992,608,-1912,34,-71,-126
7660,-1008,616,-1864,33,-72,-121
7665,-1000,640,-1904,34,-70,-117
7670,-1016,608,-1904,32,-68,-117
7675,-1008,640,-1872,33,-68,-118
7680,-1024,656,-1896,35,-66,-119
7685,-1016,640,-1872,38,-63,-121
7690,-1048,640,-1864,38,-58,-124
7695,-1056,656,-1864,42,-52,-126
7700,-1032,640,-1896,46,-43,-130
7705,-1048,616,-1904,48,-37,-132
7710,-1032,624,-1920,51,-31,-133
7715,-1040,624,-1896,54,-27,-133
7720,-1064,624,-1912,54,-23,-134
7725,-1040,616,-1904,55,-22,-133
7730,-1064,608,-1944,56,-22,-133
7735,-1080,616,-1912,53,-22,-133
7740,-1056,592,-1920,51,-22,-127
7745,-1056,584,-1904,50,-22,-124
7750,-1072,592,-1920,44,-23,-120
7755,-1072,584,-1936,44,-22,-117
7760,-1072,608,-1920,42,-25,-111
7765,-1056,568,-1904,38,-26,-107
7770,-1056,608,-1904,35,-26,-102
7775,-1056,568,-1904,32,-27,-101
7780,-1056,592,-1928,27,-27,-99
7785,-1048,592,-1912,23,-27,-95
7790,-1064,584,-1936,21,-28,-93
7795,-1056,592,-1928,19,-29,-92
7800,-1072,584,-1944,16,-29,-90
7805,-1056,568,-1936,14,-31,-88
7810,-976,496,-1872,9,-33,-85
7815,-1064,592,-1952,7,-37,-82
7820,-1072,592,-1920,1,-42,-79
7825,-1056,592,-1944,-4,-44,-76
7830,-1072,584,-1936,-7,-47,-73
7835,-1056,584,-1960,-10,-51,-70
7840,-1056,584,-1928,-11,-52,-67
7845,-1072,600,-1920,-14,-54,-65
7850,-1056,600,-1896,-17,-54,-62
7855,-1056,576,-1928,-19,-52,-61
7860,-1080,568,-1896,-23,-51,-58
7865,-1176,496,-1952,-24,-51,-56
7870,-1072,552,-1872,-27,-48,-53
7875,-1048,568,-1904,-31,-46,-51
7880,-1040,576,-1872,-32,-41,-48
7885,-1064,576,-1896,-34,-36,-45
7890,-1072,560,-1848,-34,-32,-45
7895,-1056,568,-1872,-34,-28,-46
7900,-1056,568,-1880,-32,-23,-46
7905,-1048,576,-1904,-31,-17,-45
7910,-1056,552,-1848,-30,-13,-44
7915,-1048,560,-1856,-29,-12,-45
7920,-1048,552,-1904,-29,-8,-46
7925,-1040,552,-1888,-28,-6,-44
7930,-1032,560,-1912,-30,-5,-46
7935,-1056,552,-1920,-30,-5,-44
7940,-1048,560,-1888,-31,-5,-43
7945,-1040,560,-1896,-32,-7,-43
7950,-1072,576,-1896,-33,-8,-40
7955,-1048,568,-1888,-35,-9,-39
7960,-1072,576,-1904,-35,-11,-39
7965,-1048,560,-1912,-29,-15,-37
7970,-1080,552,-1856,-36,-15,-40
7975,-1064,552,-1880,-34,-15,-37
7980,-1072,544,-1888,-38,-12,-35
7985,-1056,544,-1872,-39,-12,-34
7990,-1064,552,-1872,-41,-14,-32
7995,-1056,544,-1824,-41,-14,-30
8000,-1072,568,-1848,-41,-15,-31
8005,-1072,576,-1864,-39,-16,-34
8010,-1056,584,-1880,-40,-17,-34
8015,-1056,568,-1888,-37,-17,-34
8020,-1056,568,-1872,-35,-19,-34
8025,-1056,576,-1896,-34,-19,-37
8030,-1072,560,-1920,-31,-19,-38
8035,-1072,560,-1888,-28,-21,-39
8040,-1064,568,-1888,-27,-20,-40
8045,-1064,560,-1904,-26,-20,-40
8050,-1080,552,-1904,-25,-19,-42
8055,-1080,592,-1896,-22,-18,-42
8060,-1048,552,-1896,-22,-16,-42
8065,-1080,576,-1912,-23,-14,-42
8070,-1088,552,-1888,-24,-12,-42
8075,-1048,576,-1880,-25,-8,-41
8080,-1064,576,-1896,-22,-9,-42
8085,-1088,520,-1888,-19,-10,-43
8090,-1080,560,-1920,-18,-12,-45
8095,-1088,576,-1896,-21,-12,-45
8100,-1064,544,-1904,-22,-13,-45
8105,-1064,536,-1936,-22,-15,-44
8110,-1072,552,-1904,-21,-16,-44
8115,-1072,552,-1888,-21,-18,-42
8120,-1088,536,-1888,-23,-19,-41
8125,-1072,536,-1872,-25,-20,-39
8130,-1088,544,-1888,-26,-20,-39
8135,-1072,536,-1864,-26,-19,-37
8140,-1056,552,-1888,-28,-19,-37
8145,-1080,544,-1872,-30,-19,-34
8150,-1056,568,-1888,-28,-19,-35
8155,-1096,544,-1896,-28,-15,-35
8160,-1072,544,-1888,-29,-14,-31
8165,-1064,528,-1864,-30,-10,-31
8170,-1096,536,-1872,-28,-8,-30
8175,-1064,544,-1864,-28,-5,-29
8180,-1072,528,-1856,-29,-2,-28
8185,-1096,544,-1880,-28,1,-28
8190,-1088,552,-1864,-27,2,-28
8195,-1048,528,-1880,-25,5,-28
8200,-1080,544,-1888,-24,7,-29
8205,-1064,528,-1880,-24,10,-29
8210,-1072,536,-1864,-24,12,-28
8215,-1056,528,-1880,-24,15,-29
8220,-1080,536,-1888,-23,16,-29
8225,-1080,544,-1872,-23,16,-29
8230,-1088,560,-1888,-26,17,-30
8235,-1088,536,-1880,-25,19,-31
8240,-1064,536,-1896,-25,18,-32
8245,-1072,552,-1872,-27,18,-31
8250,-1064,560,-1888,-27,17,-29
8255,-1064,528,-1904,-28,18,-30
8260,-1064,552,-1904,-29,18,-29
8265,-1072,536,-1880,-31,18,-27
8270,-1088,520,-1880,-31,16,-25
8275,-1088,552,-1896,-32,17,-25
8280,-1096,520,-1904,-34,17,-25
8285,-1088,536,-1896,-36,17,-24
8290,-1096,536,-1888,-37,17,-24
8295,-1056,512,-1896,-38,16,-24
8300,-1072,544,-1880,-39,17,-23
8305,-1080,544,-1912,-39,19,-22
8310,-1088,536,-1824,-40,17,-21
8315,-1080,544,-1904,-40,17,-19
8320,-1096,528,-1872,-41,16,-18
8325,-1088,504,-1888,-44,15,-18
8330,-1088,512,-1880,-43,15,-15
8335,-1080,544,-1880,-44,16,-14
8340,-1080,528,-1904,-45,14,-14
8345,-1080,536,-1888,-45,16,-12
8350,-1080,536,-1904,-48,17,-10
8355,-1096,552,-1896,-50,16,-10
8360,-1088,528,-1880,-51,14,-9
8365,-1088,552,-1904,-53,12,-10
8370,-1088,544,-1888,-54,10,-10
8375,-1080,568,-1888,-54,10,-10
8380,-1088,544,-1888,-56,10,-10
8385,-1064,544,-1872,-56,9,-10
8390,-1088,552,-1888,-54,10,-10
8395,-1104,544,-1888,-54,9,-11
8400,-1088,528,-1880,-49,11,-11
8405,-1072,544,-1864,-49,12,-10
8410,-1080,536,-1888,-47,14,-12
8415,-1088,560,-1888,-45,13,-12
8420,-1064,544,-1864,-44,13,-11
8425,-1080,536,-1856,-42,12,-11
8430,-1080,552,-1920,-44,12,-10
8435,-1096,544,-1896,-45,12,-9
8440,-1072,528,-1848,-48,12,-8
8445,-1064,504,-1856,-49,12,-8
8450,-1072,520,-1864,-51,14,-8
8455,-1072,520,-1856,-49,16,-7
8460,-1104,552,-1888,-48,16,-8
8465,-1080,528,-1896,-48,20,-6
8470,-1056,560,-1880,-46,24,-8
8475,-1088,560,-1904,-45,26,-8
8480,-1096,552,-1904,-45,26,-8
8485,-1072,552,-1880,-46,26,-10
8490,-1072,520,-1888,-46,24,-10
8495,-1096,552,-1880,-46,22,-9
8500,-1104,576,-1904,-48,20,-10
8505,-1096,544,-1904,-48,19,-11
8510,-1080,544,-1904,-48,16,-11
8515,-1096,608,-1904,-50,15,-8
8520,-1064,536,-1888,-50,15,-7
8525,-1064,536,-1864,-49,15,-7
8530,-1088,528,-1880,-48,16,-6
8535,-1088,576,-1880,-49,17,-5
8540,-1040,528,-1928,-50,18,-5
8545,-1064,528,-1896,-50,18,-5
8550,-1096,536,-1864,-50,19,-5
8555,-1080,552,-1904,-50,21,-7
8560,-1072,544,-1872,-52,21,-6
8565,-1072,528,-1880,-51,22,-6
8570,-1048,496,-1840,-50,21,-7
8575,-1088,528,-1872,-51,21,-8
8580,-1080,536,-1904,-49,20,-9
8585,-1064,544,-1896,-50,19,-9
8590,-1088,528,-1888,-51,19,-9
8595,-1072,552,-1912,-50,20,-9
8600,-1088,536,-1888,-50,20,-9
8605,-1080,552,-1880,-50,20,-10
8610,-1096,536,-1896,-49,19,-10
8615,-1088,560,-1912,-50,19,-10
8620,-1088,544,-1856,-49,18,-9
8625,-1080,560,-1904,-49,19,-10
8630,-1080,544,-1856,-48,19,-9
8635,-1088,544,-1904,-48,19,-9
8640,-1072,536,-1896,-49,19,-10
8645,-1064,544,-1880,-49,18,-11
8650,-1096,544,-1920,-49,17,-10
8655,-1080,536,-1904,-48,16,-11
8660,-1080,536,-1888,-48,16,-11
8665,-1088,528,-1880,-48,15,-11
8670,-1088,552,-1880,-46,16,-11
8675,-1096,552,-1848,-47,17,-10
8680,-1072,536,-1880,-46,17,-11
8685,-1080,544,-1880,-48,18,-13
8690,-1088,544,-1880,-47,18,-11
8695,-1096,536,-1904,-46,17,-13
8700,-1072,560,-1872,-45,20,-13
8705,-1072,528,-1880,-42,21,-13
8710,-1112,552,-1872,-43,21,-13
8715,-1072,536,-1904,-41,20,-13
8720,-1072,544,-1872,-42,21,-13
8725,-1064,528,-1888,-42,21,-12
8730,-1072,512,-1888,-42,21,-10
8735,-1064,552,-1888,-43,21,-11
8740,-1088,536,-1880,-44,20,-10
8745,-1080,536,-1872,-44,21,-10
8750,-1072,528,-1888,-44,20,-10
8755,-1088,536,-1872,-47,21,-10
8760,-1088,528,-1896,-46,19,-9
8765,-1096,528,-1896,-49,19,-9
8770,-1088,520,-1880,-48,19,-9
8775,-1080,544,-1904,-50,18,-10
8780,-1088,536,-1880,-50,19,-8
8785,-1096,552,-1872,-50,19,-9
8790,-1080,544,-1880,-50,19,-9
8795,-1088,592,-1896,-49,18,-9
8800,-1056,536,-1896,-49,17,-10
8805,-1072,528,-1880,-50,18,-10
8810,-1072,528,-1880,-50,15,-9
8815,-1064,536,-1904,-51,16,-8
8820,-1088,536,-1872,-50,17,-10
8825,-1096,568,-1896,-51,16,-10
8830,-1064,536,-1864,-51,16,-8
8835,-1096,544,-1888,-51,16,-9
8840,-1064,520,-1896,-51,15,-7
8845,-1080,544,-1856,-50,15,-8
8850,-1056,520,-1904,-51,16,-8
8855,-1064,536,-1896,-51,17,-8
8860,-1088,536,-1856,-53,18,-7
8865,-1080,552,-1880,-51,18,-6
8870,-1088,544,-1880,-52,20,-6
8875,-1072,528,-1888,-50,21,-7
8880,-1088,552,-1880,-51,21,-7
8885,-1064,536,-1888,-51,23,-7
8890,-1064,552,-1896,-52,23,-7
8895,-1088,536,-1896,-51,25,-7
8900,-1064,520,-1864,-51,27,-8
8905,-1072,536,-1904,-50,27,-9
8910,-1080,552,-1880,-49,29,-7
8915,-1056,520,-1896,-51,29,-6
8920,-1104,536,-1864,-52,31,-6
8925,-1056,544,-1888,-51,30,-6
8930,-1080,528,-1880,-52,30,-8
8935,-1080,528,-1896,-54,28,-9
8940,-1072,544,-1880,-54,26,-7
8945,-1048,512,-1856,-54,24,-8
8950,-1080,552,-1904,-56,23,-8
8955,-1048,528,-1888,-57,22,-9
8960,-1080,536,-1856,-55,19,-9
8965,-1072,520,-1936,-54,17,-9
8970,-1072,536,-1904,-55,16,-10
8975,-1064,552,-1904,-54,15,-10
8980,-1080,544,-1888,-53,15,-9
8985,-1072,544,-1880,-52,16,-10
8990,-1072,544,-1872,-53,16,-10
8995,-1088,528,-1880,-53,15,-9
9000,-1088,544,-1896,-53,14,-9
9005,-1064,544,-1880,-54,15,-10
9010,-1056,528,-1872,-54,16,-8
9015,-1088,544,-1896,-51,15,-9
9020,-1080,560,-1840,-51,16,-10
9025,-1080,544,-1904,-51,14,-10
9030,-1104,544,-1888,-52,15,-11
9035,-1064,536,-1848,-53,15,-11
9040,-1064,536,-1872,-51,15,-11
9045,-1080,568,-1888,-51,16,-11
9050,-1064,544,-1912,-51,15,-11
9055,-1096,536,-1864,-53,15,-12
9060,-1088,568,-1904,-51,15,-12
9065,-1088,544,-1904,-51,15,-12
9070,-1080,528,-1880,-52,15,-12
9075,-1072,544,-1888,-50,14,-12
9080,-1072,536,-1896,-50,14,-13
9085,-1080,544,-1872,-51,14,-14
9090,-1088,544,-1896,-50,13,-14
9095,-1064,552,-1888,-52,12,-13
9100,-1064,544,-1928,-44,9,-18
9105,-1096,560,-1896,-49,11,-17
9110,-1096,544,-1880,-50,12,-15
9115,-1088,544,-1896,-52,12,-14
9120,-1096,552,-1888,-54,12,-12
9125,-1064,528,-1904,-58,11,-12
9130,-1088,560,-1880,-58,10,-10
9135,-1056,520,-1872,-59,10,-9
9140,-1088,528,-1880,-60,10,-10
9145,-1064,528,-1896,-61,9,-9
9150,-1096,560,-1872,-61,8,-9
9155,-1072,544,-1896,-62,8,-8
9160,-1072,552,-1872,-62,8,-8
9165,-1080,544,-1912,-63,6,-9
9170,-1104,544,-1880,-64,6,-8
9175,-1088,576,-1872,-66,4,-8
9180,-1064,552,-1880,-67,4,-8
9185,-1096,544,-1880,-70,5,-9
9190,-1096,568,-1872,-69,5,-8
9195,-1120,528,-1888,-69,6,-7
9200,-1032,528,-1872,-73,20,-1
9205,-1096,544,-1880,-77,17,-5
9210,-1056,528,-1848,-69,10,-7
9215,-1080,552,-1872,-65,5,-8
9220,-1104,536,-1832,-68,4,-8
9225,-1136,632,-2008,-67,3,-8
9230,-1088,552,-1872,-66,2,-9
9235,-1096,536,-1880,-66,2,-8
9240,-1048,544,-1880,-69,1,-8
9245,-1104,560,-1896,-70,-1,-6
9250,-1088,544,-1896,-71,-1,-8
9255,-1096,560,-1896,-72,-2,-10
9260,-1064,552,-1864,-71,-4,-10
9265,-1072,552,-1864,-71,-4,-11
9270,-1064,544,-1880,-70,-4,-12
9275,-1064,536,-1904,-67,-4,-12
9280,-1088,512,-1816,-67,-4,-12
9285,-1088,536,-1864,-66,-3,-13
9290,-1088,552,-1896,-67,-3,-14
9295,-1056,544,-1872,-66,0,-11
9300,-1096,552,-1896,-67,1,-13
9305,-1056,576,-1888,-66,1,-14
9310,-1088,536,-1872,-64,2,-12
9315,-1088,544,-1888,-64,0,-15
9320,-1072,536,-1904,-60,-4,-16
9325,-1088,552,-1904,-59,-6,-17
9330,-1088,560,-1872,-58,-9,-18
9335,-1080,544,-1888,-60,-8,-17
9340,-1064,544,-1840,-60,-8,-15
9345,-1080,544,-1888,-60,-9,-15
9350,-1080,544,-1864,-62,-8,-14
9355,-1088,544,-1856,-62,-7,-11
9360,-1096,560,-1888,-63,-5,-10
9365,-1072,552,-1864,-64,-2,-11
9370,-1096,544,-1848,-64,0,-12
9375,-1088,560,-1896,-65,1,-12
9380,-1064,552,-1872,-66,3,-13
9385,-1080,536,-1872,-66,4,-14
9390,-1104,544,-1872,-66,4,-14
9395,-1080,536,-1872,-67,3,-14
9400,-1096,568,-1864,-67,2,-13
9405,-1104,568,-1888,-66,-1,-12
9410,-1096,560,-1888,-69,-2,-13
9415,-1112,552,-1848,-68,-3,-11
9420,-1080,544,-1896,-69,-3,-10
9425,-1080,552,-1880,-68,-4,-8
9430,-1088,560,-1880,-66,-4,-10
9435,-1096,560,-1888,-65,-5,-10
9440,-1096,536,-1872,-64,-3,-10
9445,-1112,584,-1856,-66,-1,-10
9450,-1096,552,-1896,-62,3,-9
9455,-1096,552,-1920,-61,4,-9
9460,-1096,560,-1864,-60,4,-10
9465,-1096,560,-1872,-62,5,-9
9470,-1096,560,-1880,-61,5,-8
9475,-1064,536,-1880,-60,7,-8
9480,-1096,552,-1856,-59,6,-9
9485,-1104,544,-1832,-60,8,-7
9490,-1064,536,-1888,-61,8,-7
9495,-1088,544,-1856,-61,10,-8
9500,-1112,576,-1872,-60,10,-7
9505,-1104,568,-1896,-56,13,-5
9510,-1072,560,-1856,-59,20,-5
9515,-1088,544,-1904,-59,20,-7
9520,-1112,544,-1872,-56,17,-7
9525,-1104,552,-1840,-54,16,-7
9530,-1096,576,-1880,-54,17,-8
9535,-1080,576,-1872,-51,15,-10
9540,-1120,552,-1880,-53,16,-8
9545,-1096,568,-1888,-50,17,-8
9550,-1080,544,-1864,-47,18,-9
9555,-1120,544,-1880,-49,18,-10
9560,-1096,552,-1864,-52,15,-8
9565,-1096,560,-1840,-54,16,-6
9570,-1096,584,-1864,-55,16,-6
9575,-1072,552,-1872,-56,16,-8
9580,-1088,552,-1864,-57,14,-8
9585,-1096,592,-1864,-57,12,-8
9590,-1080,552,-1856,-57,12,-8
9595,-1104,560,-1864,-57,12,-10
9600,-1096,568,-1864,-55,11,-11
9605,-1088,560,-1872,-53,11,-9
9610,-1096,528,-1856,-53,12,-9
9615,-1104,560,-1832,-53,12,-8
9620,-1072,520,-1896,-55,12,-9
9625,-1096,544,-1880,-55,13,-9
9630,-1096,552,-1840,-56,12,-8
9635,-1064,536,-1864,-53,10,-10
9640,-1088,544,-1880,-58,12,-9
9645,-1088,536,-1856,-56,12,-9
9650,-1088,544,-1872,-53,12,-9
9655,-1088,536,-1848,-55,10,-9
9660,-1112,552,-1856,-59,8,-7
9665,-1080,560,-1864,-60,6,-7
9670,-1072,560,-1888,-62,5,-7
9675,-1080,544,-1880,-62,5,-8
9680,-1080,568,-1872,-65,5,-7
9685,-1104,552,-1856,-63,5,-10
9690,-1064,528,-1896,-61,5,-9
9695,-1120,560,-1880,-60,5,-10
9700,-1136,576,-1896,-60,3,-8
9705,-1088,544,-1856,-60,4,-11
9710,-1080,560,-1864,-60,3,-9
9715,-1096,552,-1880,-61,3,-11
9720,-1096,552,-1864,-62,3,-11
9725,-1120,560,-1912,-60,2,-11
9730,-1096,528,-1880,-60,3,-10
9735,-1080,584,-1888,-60,4,-11
9740,-1096,576,-1880,-62,1,-11
9745,-1104,568,-1864,-61,1,-11
9750,-1104,560,-1864,-61,1,-11
9755,-1104,536,-1872,-61,2,-12
9760,-1080,576,-1872,-58,-1,-13
9765,-1136,536,-1840,-62,3,-9
9770,-1072,592,-1872,-61,5,-10
9775,-1128,544,-1872,-54,10,-8
9780,-1088,552,-1848,-55,13,-7
9785,-1128,552,-1864,-59,6,-11
9790,-1104,576,-1840,-60,2,-12
9795,-1080,544,-1840,-61,-1,-13
9800,-1096,568,-1888,-62,-1,-14
9805,-1096,568,-1864,-62,-2,-12
9810,-1104,560,-1856,-60,-3,-11
9815,-1096,552,-1856,-62,-2,-12
9820,-1104,552,-1864,-61,-2,-11
9825,-1096,552,-1856,-62,-1,-12
9830,-1112,560,-1848,-59,-2,-13
9835,-1080,552,-1856,-58,-2,-13
9840,-1096,568,-1856,-58,-2,-12
9845,-1096,560,-1848,-60,-2,-12
9850,-1120,560,-1832,-61,-1,-13
9855,-1096,560,-1864,-60,-1,-12
9860,-1128,592,-1856,-60,2,-12
9865,-1096,560,-1824,-60,2,-11
9870,-1088,552,-1840,-61,1,-12
9875,-1088,576,-1872,-59,2,-11
9880,-1112,608,-1848,-62,4,-10
9885,-1072,544,-1824,-60,1,-11
9890,-1112,576,-1848,-63,4,-10
9895,-1088,552,-1864,-59,6,-11
9900,-1088,544,-1888,-55,7,-12
9905,-1096,560,-1872,-54,6,-13
9910,-1096,560,-1848,-56,4,-12
9915,-1088,544,-1872,-57,3,-8
9920,-1112,568,-1872,-59,4,-10
9925,-1120,560,-1872,-59,3,-9
9930,-1096,568,-1880,-59,3,-9
9935,-1120,608,-1880,-59,3,-10
9940,-1104,568,-1856,-58,4,-9
9945,-1104,520,-1832,-58,3,-10
9950,-1120,552,-1848,-57,4,-8
9955,-1104,576,-1864,-56,4,-9
9960,-1104,544,-1856,-56,5,-10
9965,-1112,552,-1856,-56,5,-9
9970,-1088,584,-1848,-54,6,-10
9975,-1120,568,-1872,-55,6,-10
9980,-1104,536,-1880,-53,7,-11
9985,-1104,568,-1848,-53,7,-11
9990,-1112,616,-1840,-50,7,-10
9995,-1096,544,-1832,-51,6,-11
10000,-1104,552,-1872,-50,5,-12
10005,-1104,528,-1864,-50,8,-11
10010,-1112,544,-1888,-48,7,-11
10015,-1112,576,-1848,-48,6,-14
10020,-1128,576,-1856,-45,6,-14
10025,-1112,568,-1840,-46,4,-14
10030,-1112,560,-1864,-44,4,-13
10035,-1104,560,-1832,-47,4,-14
10040,-1120,560,-1840,-46,5,-13
10045,-1128,568,-1848,-45,4,-14
10050,-1120,568,-1888,-45,4,-14
10055,-1096,568,-1856,-45,3,-12
10060,-1120,568,-1864,-45,4,-13
10065,-1104,552,-1856,-45,3,-13
10070,-1104,552,-1856,-44,4,-13
10075,-1112,576,-1864,-45,4,-13
10080,-1096,560,-1864,-45,3,-12
10085,-1128,576,-1840,-43,4,-12
10090,-1112,560,-1880,-44,5,-13
10095,-1096,544,-1848,-45,4,-13
10100,-1112,568,-1848,-45,5,-12
10105,-1104,544,-1816,-46,5,-12
10110,-1104,552,-1856,-46,5,-12
10115,-1120,536,-1816,-45,6,-13
10120,-1088,544,-1856,-45,5,-12
10125,-1120,560,-1872,-43,6,-12
10130,-1072,520,-1856,-44,11,-7
10135,-1104,568,-1856,-49,16,-11
10140,-1088,552,-1856,-45,12,-11
10145,-1120,544,-1832,-44,7,-13
10150,-1104,552,-1848,-44,5,-13
10155,-1104,592,-1840,-46,6,-13
10160,-1112,576,-1840,-45,7,-13
10165,-1104,552,-1904,-39,6,-14
10170,-1104,576,-1856,-42,6,-12
10175,-1120,568,-1888,-45,4,-11
10180,-1104,584,-1864,-46,3,-11
10185,-1112,584,-1872,-46,4,-10
10190,-1104,552,-1840,-47,2,-9
10195,-1128,568,-1856,-48,3,-8
10200,-1088,552,-1848,-47,3,-8
10205,-1112,576,-1880,-46,4,-8
10210,-1120,536,-1864,-48,5,-7
10215,-1120,544,-1872,-48,5,-7
10220,-1144,576,-1864,-50,5,-9
10225,-1088,544,-1864,-50,5,-9
10230,-1104,568,-1848,-51,4,-10
10235,-1104,568,-1816,-50,4,-11
10240,-1120,544,-1824,-51,5,-11
10245,-1136,592,-1880,-50,6,-9
10250,-1112,536,-1856,-50,8,-8
10255,-1112,544,-1824,-51,10,-7
10260,-1136,568,-1856,-49,11,-9
10265,-1112,568,-1872,-50,11,-10
10270,-1128,544,-1856,-47,11,-9
10275,-1104,544,-1864,-46,14,-10
10280,-1120,568,-1840,-45,12,-11
10285,-1136,568,-1816,-44,11,-11
10290,-1120,544,-1832,-45,10,-10
10295,-1096,560,-1848,-45,11,-10
10300,-1120,560,-1864,-47,10,-10
10305,-1104,544,-1856,-49,9,-9
10310,-1112,552,-1848,-50,8,-8
10315,-1080,536,-1832,-52,10,-8
10320,-1120,552,-1848,-49,10,-6
10325,-1120,536,-1848,-48,13,-6
10330,-1136,552,-1880,-50,15,-6
10335,-1128,568,-1888,-50,16,-5
10340,-1128,576,-1880,-52,15,-4
10345,-1104,552,-1848,-55,13,-5
10350,-1112,568,-1864,-54,10,-6
10355,-1096,552,-1848,-54,8,-7
10360,-1120,576,-1856,-54,6,-8
10365,-1112,584,-1848,-52,4,-8
10370,-1136,584,-1824,-53,1,-9
10375,-1072,560,-1856,-54,0,-9
10380,-1104,536,-1880,-53,-1,-9
10385,-1112,560,-1856,-54,-3,-8
10390,-1136,552,-1896,-53,-3,-9
10395,-1128,568,-1848,-55,-2,-10
10400,-1120,576,-1848,-54,-1,-8
10405,-1120,552,-1816,-54,0,-7
10410,-1096,544,-1856,-54,1,-7
10415,-1128,584,-1848,-55,1,-7
10420,-1136,560,-1856,-53,0,-8
10425,-1104,568,-1840,-52,1,-9
10430,-1176,560,-1856,-48,1,-8
10435,-1072,552,-1840,-51,15,-4
10440,-1112,560,-1808,-51,10,-8
10445,-1128,560,-1824,-45,4,-11
10450,-1104,576,-1848,-42,3,-12
10455,-1120,560,-1816,-43,2,-13
10460,-1120,560,-1832,-42,3,-13
10465,-1128,576,-1856,-40,5,-12
10470,-1120,568,-1824,-36,6,-13
10475,-1104,560,-1840,-38,9,-15
10480,-1128,560,-1864,-37,9,-14
10485,-1104,560,-1824,-36,11,-14
10490,-1104,552,-1880,-36,14,-14
10495,-1096,536,-1840,-36,16,-14
10500,-1112,560,-1840,-36,18,-13
10505,-1120,568,-1840,-36,20,-15
10510,-1128,544,-1856,-37,21,-14
10515,-1128,552,-1824,-35,23,-14
10520,-1120,560,-1832,-34,26,-14
10525,-1120,552,-1832,-34,26,-15
10530,-1104,536,-1848,-34,25,-15
10535,-1120,560,-1824,-33,27,-15
10540,-1128,552,-1856,-34,26,-16
10545,-1104,560,-1864,-35,25,-15
10550,-1096,560,-1880,-35,24,-16
10555,-1136,560,-1864,-38,22,-15
10560,-1128,568,-1920,-40,19,-14
10565,-1136,544,-1872,-42,17,-13
10570,-1104,536,-1840,-43,16,-11
10575,-1112,560,-1872,-45,12,-10
10580,-1136,552,-1872,-48,10,-9
10585,-1104,456,-1848,-48,10,-9
10590,-1136,544,-1808,-50,6,-8
10595,-1112,552,-1800,-50,5,-7
10600,-1112,552,-1872,-50,5,-6
10605,-1120,568,-1848,-50,4,-6
10610,-1136,552,-1880,-50,7,-6
10615,-1136,544,-1872,-49,7,-6
10620,-1112,536,-1840,-50,8,-5
10625,-1128,568,-1864,-52,8,-3
10630,-1144,576,-1864,-53,9,-3
10635,-1128,560,-1800,-54,10,-1
10640,-1176,608,-1904,-55,11,-2
10645,-1112,560,-1848,-53,12,-1
10650,-1128,576,-1816,-53,13,-2
10655,-1128,592,-1856,-53,15,-2
10660,-1128,544,-1872,-52,16,-1
10665,-1120,544,-1880,-53,17,-2
10670,-1120,560,-1856,-52,18,-1
10675,-1128,560,-1840,-52,18,-1
10680,-1128,568,-1864,-51,20,-1
10685,-1104,560,-1848,-50,19,-3
10690,-1120,552,-1840,-52,19,-1
10695,-1128,632,-1792,-50,19,-2
10700,-1128,552,-1848,-51,18,-2
10705,-1120,568,-1840,-49,18,-4
10710,-1104,560,-1856,-49,17,-3
10715,-1136,592,-1832,-48,17,-5
10720,-1128,560,-1856,-48,16,-5
10725,-1120,552,-1848,-46,16,-5
10730,-1136,544,-1848,-45,16,-6
10735,-1120,552,-1816,-44,14,-5
10740,-1112,552,-1840,-45,15,-6
10745,-1136,560,-1840,-44,14,-6
10750,-1128,584,-1832,-45,15,-6
10755,-1096,560,-1864,-44,16,-5
10760,-1128,560,-1848,-43,17,-6
10765,-1104,536,-1848,-43,17,-7
10770,-1088,560,-1864,-43,18,-6
10775,-1120,568,-1848,-44,18,-7
10780,-1136,584,-1832,-42,19,-7
10785,-1128,568,-1840,-43,20,-6
10790,-1120,544,-1800,-42,20,-5
10795,-1120,544,-1848,-40,22,-7
10800,-1112,552,-1832,-40,22,-7
10805,-1096,576,-1824,-40,23,-7
10810,-1120,544,-1856,-39,22,-8
10815,-1088,552,-1840,-39,23,-8
10820,-1128,552,-1848,-40,23,-7
10825,-1136,560,-1848,-41,24,-7
10830,-1128,560,-1840,-41,23,-7
10835,-1128,568,-1832,-40,24,-7
10840,-1088,536,-1856,-41,25,-8
10845,-1112,576,-1840,-41,23,-7
10850,-1128,568,-1840,-40,23,-7
10855,-1112,568,-1864,-42,24,-6
10860,-1104,560,-1880,-42,24,-7
10865,-1128,552,-1848,-42,23,-7
10870,-1096,536,-1848,-42,23,-5
10875,-1096,560,-1848,-43,22,-6
10880,-1120,568,-1864,-44,22,-5
10885,-1128,568,-1872,-46,21,-5
10890,-1096,544,-1872,-46,21,-4
10895,-1128,560,-1864,-47,19,-5
10900,-1144,568,-1840,-46,17,-5
10905,-1112,560,-1832,-47,16,-4
10910,-1104,560,-1824,-48,16,-4
10915,-1136,568,-1856,-48,17,-3
10920,-1104,568,-1872,-49,16,-3
10925,-1112,544,-1848,-48,15,-3
10930,-1112,544,-1840,-49,15,-2
10935,-1152,608,-1848,-50,15,-3
10940,-1104,568,-1824,-51,15,-1
10945,-1104,536,-1824,-50,16,-2
10950,-1136,568,-1840,-51,16,-4
10955,-1112,552,-1824,-50,17,-3
10960,-1136,568,-1832,-51,18,-1
10965,-1104,568,-1832,-50,17,-2
10970,-1112,552,-1856,-48,18,-2
10975,-1136,576,-1832,-49,19,-2
10980,-1104,552,-1848,-50,20,-2
10985,-1128,552,-1856,-48,20,-1
10990,-1120,560,-1848,-49,20,-2
10995,-1136,576,-1840,-48,21,-2
11000,-1120,568,-1832,-48,21,-3
11005,-1120,576,-1832,-48,21,-2
11010,-1096,560,-1856,-45,21,-2
11015,-1112,560,-1872,-47,22,-2
11020,-1128,568,-1856,-45,21,-2
11025,-1096,552,-1864,-47,22,-3
11030,-1112,568,-1864,-45,21,-2
11035,-1128,576,-1832,-45,22,-3
11040,-1144,560,-1816,-46,22,-3
11045,-1120,560,-1832,-47,22,-3
11050,-1120,576,-1864,-46,23,-3
11055,-1136,560,-1896,-44,24,-2
11060,-1096,544,-1832,-44,25,-4
11065,-1112,544,-1856,-44,25,-2
11070,-1120,544,-1832,-45,26,-4
11075,-1128,560,-1872,-43,26,-4
11080,-1120,560,-1856,-44,27,-5
11085,-1128,576,-1864,-44,28,-4
11090,-1104,544,-1832,-43,28,-5
11095,-1136,568,-1856,-44,28,-4
11100,-1104,568,-1840,-44,29,-4
11105,-1104,544,-1832,-43,27,-4
11110,-1112,552,-1864,-45,27,-4
11115,-1120,552,-1824,-46,28,-4
11120,-1120,560,-1856,-42,28,-4
11125,-1120,568,-1840,-44,28,-4
11130,-1112,536,-1824,-44,28,-4
11135,-1128,584,-1864,-44,27,-4
11140,-1112,536,-1840,-42,27,-4
11145,-1120,568,-1832,-42,28,-3
11150,-1128,568,-1832,-43,27,-3
11155,-1128,568,-1880,-41,26,-3
11160,-1128,568,-1864,-42,27,-4
11165,-1120,576,-1864,-42,27,-3
11170,-1128,568,-1872,-43,27,-3
11175,-1128,560,-1864,-43,27,-1
11180,-1112,568,-1848,-44,26,0
11185,-1104,544,-1816,-46,25,-1
11190,-1144,560,-1856,-46,25,-2
11195,-1096,560,-1856,-46,23,-3
11200,-1088,536,-1864,-47,22,-3
11205,-1120,584,-1840,-47,23,-3
11210,-1120,544,-1856,-48,23,-4
11215,-1136,568,-1864,-48,25,-3
11220,-1128,552,-1832,-46,26,-3
11225,-1136,584,-1864,-44,28,-4
11230,-1112,560,-1856,-42,30,-5
11235,-1096,544,-1856,-41,29,-4
11240,-1096,560,-1840,-37,30,-6
11245,-1112,552,-1848,-38,28,-6
11250,-1104,552,-1880,-37,25,-7
11255,-1120,576,-1848,-36,24,-7
11260,-1104,568,-1880,-35,22,-8
11265,-1096,552,-1864,-37,21,-7
11270,-1120,568,-1848,-39,21,-6
11275,-1104,544,-1856,-40,19,-5
11280,-1120,568,-1856,-45,19,-3
11285,-1112,568,-1824,-47,20,-3
11290,-1112,536,-1848,-47,22,-2
11295,-1080,560,-1920,-45,22,-3
11300,-1136,584,-1904,-44,24,-3
11305,-1104,568,-1832,-44,27,-2
11310,-1104,576,-1856,-44,29,-5
11315,-1128,576,-1824,-43,28,-5
11320,-1120,584,-1840,-42,26,-4
11325,-1104,568,-1832,-42,23,-5
11330,-1112,536,-1840,-41,22,-6
11335,-1120,584,-1832,-43,20,-6
11340,-1104,576,-1856,-44,19,-5
11345,-1128,560,-1864,-44,18,-6
11350,-1096,664,-1792,-46,19,-4
11355,-1128,568,-1864,-48,18,-2
11360,-1112,552,-1840,-46,19,-4
11365,-1112,568,-1832,-48,20,-4
11370,-1120,568,-1856,-48,21,-4
11375,-1128,552,-1864,-47,21,-3
11380,-1128,576,-1856,-47,22,-3
11385,-1120,560,-1864,-46,22,-3
11390,-1128,568,-1864,-45,22,-2
11395,-1128,576,-1832,-48,22,-1
11400,-1128,568,-1848,-46,23,-2
11405,-1120,560,-1752,-45,23,-1
11410,-1096,568,-1880,-44,23,-2
11415,-1112,560,-1832,-43,23,-3
11420,-1120,576,-1848,-44,22,-2
11425,-1120,560,-1864,-43,23,-3
11430,-1128,552,-1840,-42,24,-4
11435,-1136,592,-1848,-42,24,-4
11440,-1128,576,-1832,-39,24,-4
11445,-1112,560,-1880,-37,25,-5
11450,-1104,560,-1848,-40,24,-4
11455,-1112,552,-1832,-38,24,-4
11460,-1104,552,-1872,-39,24,-4
11465,-1112,544,-1864,-41,23,-4
11470,-1144,576,-1832,-41,24,-5
11475,-1136,576,-1888,-40,23,-6
11480,-1112,568,-1840,-42,21,-6
11485,-1112,544,-1856,-43,21,-6
11490,-1112,544,-1864,-41,21,-5
11495,-1120,568,-1864,-40,20,-5
11500,-1096,552,-1840,-41,20,-6
11505,-1104,552,-1856,-42,21,-5
11510,-1120,552,-1856,-44,21,-7
11515,-1128,544,-1864,-44,20,-7
11520,-1128,576,-1864,-43,21,-8
11525,-1136,560,-1840,-44,20,-6
11530,-1120,584,-1832,-41,19,-6
11535,-1104,560,-1848,-40,18,-8
11540,-1112,552,-1880,-40,18,-8
11545,-1136,568,-1872,-39,19,-7
11550,-1112,544,-1824,-42,17,-7
11555,-1096,552,-1872,-42,18,-6
11560,-1112,544,-1856,-41,18,-7
11565,-1112,552,-1856,-43,16,-7
11570,-1104,560,-1856,-43,16,-7
11575,-1104,552,-1880,-44,17,-7
11580,-1128,552,-1864,-44,16,-6
11585,-1104,552,-1872,-42,15,-6
11590,-1104,592,-1856,-45,15,-6
11595,-1096,568,-1856,-45,15,-6
11600,-1120,560,-1856,-44,14,-6
11605,-1112,560,-1832,-44,12,-6
11610,-1096,544,-1848,-46,12,-7
11615,-1104,560,-1864,-45,12,-7
11620,-1096,560,-1864,-45,11,-7
11625,-1136,568,-1856,-46,11,-6
11630,-1096,560,-1864,-47,10,-7
11635,-1112,536,-1872,-46,9,-7
11640,-1096,568,-1856,-46,9,-7
11645,-1112,552,-1880,-45,10,-7
11650,-1120,552,-1808,-47,9,-7
11655,-1128,568,-1856,-47,9,-7
11660,-1096,576,-1872,-47,8,-8
11665,-1112,552,-1864,-46,9,-8
11670,-1104,560,-1880,-45,9,-8
11675,-1104,528,-1864,-46,9,-8
11680,-1104,552,-1840,-45,9,-8
11685,-1128,576,-1848,-44,7,-8
11690,-1120,552,-1856,-45,9,-9
11695,-1104,552,-1880,-44,9,-8
11700,-1120,568,-1872,-44,9,-8
11705,-1120,544,-1872,-44,9,-9
11710,-1096,544,-1864,-43,10,-10
11715,-1128,560,-1856,-43,10,-8
11720,-1096,576,-1856,-42,10,-8
11725,-1112,560,-1848,-42,11,-8
11730,-1104,560,-1872,-42,12,-8
11735,-1120,576,-1856,-43,12,-8
11740,-1128,560,-1872,-43,12,-8
11745,-1120,584,-1888,-41,12,-9
11750,-1112,568,-1856,-41,11,-8
11755,-1104,560,-1840,-41,14,-7
11760,-1112,608,-1824,-41,13,-8
11765,-1096,560,-1856,-42,13,-8
11770,-1096,560,-1872,-41,13,-7
11775,-1144,560,-1816,-42,14,-8
11780,-1136,576,-1848,-40,12,-8
11785,-1112,560,-1832,-42,12,-8
11790,-1128,560,-1840,-41,14,-8
11795,-1120,568,-1832,-41,14,-8
11800,-1120,552,-1872,-42,14,-9
11805,-1112,552,-1864,-42,13,-9
11810,-1104,608,-1864,-43,11,-9
11815,-1112,560,-1840,-43,11,-8
11820,-1096,568,-1848,-43,13,-7
11825,-1120,536,-1856,-42,12,-7
11830,-1096,552,-1856,-43,11,-8
11835,-1112,544,-1880,-45,11,-8
11840,-1088,536,-1888,-45,11,-8
11845,-1112,552,-1864,-44,10,-7
11850,-1104,560,-1832,-45,10,-8
11855,-1112,552,-1864,-45,10,-9
11860,-1120,568,-1848,-44,9,-8
11865,-1112,576,-1848,-46,9,-9
11870,-1136,544,-1848,-44,9,-10
11875,-1112,576,-1864,-45,10,-8
11880,-1136,552,-1872,-45,10,-10
11885,-1128,552,-1856,-44,8,-10
11890,-1112,568,-1840,-43,9,-9
11895,-1104,544,-1832,-44,9,-7
11900,-1112,544,-1848,-44,8,-9
11905,-1112,536,-1864,-45,8,-9
11910,-1112,576,-1824,-45,8,-9
11915,-1104,544,-1856,-45,8,-8
11920,-1120,560,-1856,-45,8,-8
11925,-1120,544,-1856,-46,7,-9
11930,-1112,560,-1864,-45,7,-7
11935,-1136,584,-1848,-47,7,-8
11940,-1112,536,-1840,-47,6,-8
11945,-1128,568,-1864,-46,7,-8
11950,-1128,552,-1848,-46,6,-8
11955,-1120,560,-1848,-45,8,-8
11960,-1136,560,-1832,-48,7,-8
11965,-1112,536,-1880,-48,8,-9
11970,-1104,568,-1840,-47,7,-7
11975,-1096,536,-1856,-47,8,-7
11980,-1120,552,-1816,-48,8,-6
11985,-1128,568,-1864,-48,8,-7
11990,-1136,576,-1856,-46,9,-7
11995,-1128,560,-1864,-47,9,-8
12000,-1128,528,-1848,-47,10,-8
12005,-1184,592,-1944,-46,10,-8
12010,-1136,560,-1864,-47,10,-8
12015,-1112,552,-1840,-45,12,-8
12020,-1112,552,-1840,-46,12,-8
12025,-1112,552,-1848,-47,11,-6
12030,-1120,560,-1872,-44,12,-6
12035,-1104,528,-1848,-45,12,-7
12040,-1128,544,-1848,-46,11,-7
12045,-1120,544,-1832,-46,11,-7
12050,-1144,576,-1808,-47,11,-7
12055,-1112,552,-1832,-47,10,-8
12060,-1056,584,-1880,-46,9,-8
12065,-1128,560,-1832,-47,9,-8
12070,-1136,544,-1856,-48,10,-9
12075,-1112,568,-1840,-47,11,-9
12080,-1136,552,-1816,-47,13,-7
12085,-1120,568,-1848,-46,15,-7
12090,-1120,536,-1864,-46,16,-7
12095,-1120,568,-1832,-46,19,-7
12100,-1112,544,-1856,-44,18,-8
12105,-1144,536,-1856,-44,19,-7
12110,-1120,568,-1928,-42,19,-8
12115,-1104,552,-1808,-40,18,-9
12120,-1128,568,-1856,-40,16,-9
12125,-1128,552,-1856,-38,14,-10
12130,-1136,536,-1872,-38,13,-9
12135,-1112,552,-1832,-40,12,-9
12140,-1120,528,-1832,-43,13,-7
12145,-1136,536,-1840,-45,13,-6
12150,-1112,536,-1840,-47,13,-6
12155,-1088,552,-1824,-47,15,-6
12160,-1120,552,-1848,-47,17,-6
12165,-1112,552,-1864,-47,18,-6
12170,-1096,552,-1864,-45,21,-6
12175,-1136,560,-1840,-45,21,-6
12180,-1128,568,-1864,-46,20,-7
12185,-1112,552,-1864,-45,18,-7
12190,-1120,568,-1848,-44,17,-7
12195,-1128,560,-1864,-45,15,-6
12200,-1144,544,-1848,-43,13,-7
12205,-1120,552,-1832,-43,12,-6
12210,-1136,552,-1840,-45,11,-6
12215,-1144,560,-1824,-47,9,-7
12220,-1136,552,-1864,-47,9,-6
12225,-1104,552,-1840,-48,9,-8
12230,-1112,536,-1896,-49,9,-5
12235,-1088,528,-1840,-47,10,-6
12240,-1136,568,-1880,-47,11,-3
12245,-1120,544,-1856,-48,12,-5
12250,-1128,536,-1840,-47,11,-6
12255,-1112,576,-1848,-46,10,-6
12260,-1128,552,-1824,-46,10,-5
12265,-1136,552,-1848,-46,11,-6
12270,-1112,560,-1856,-46,12,-6
12275,-1120,560,-1848,-45,12,-6
12280,-1128,560,-1848,-44,11,-7
12285,-1120,568,-1888,-45,10,-6
12290,-1136,568,-1848,-45,11,-6
12295,-1120,568,-1856,-44,12,-6
12300,-1120,568,-1840,-43,12,-6
12305,-1120,544,-1840,-43,12,-6
12310,-1112,568,-1840,-42,13,-6
12315,-1120,560,-1832,-41,13,-7
12320,-1128,552,-1856,-42,12,-7
12325,-1120,552,-1856,-42,13,-8
12330,-1120,560,-1848,-42,13,-8
12335,-1144,552,-1840,-45,13,-8
12340,-1104,544,-1848,-43,13,-8
12345,-1128,544,-1832,-44,14,-8
12350,-1120,536,-1864,-44,14,-8
12355,-1144,552,-1848,-44,14,-8
12360,-1136,544,-1848,-43,14,-7
12365,-1112,544,-1840,-44,14,-7
12370,-1112,560,-1848,-45,13,-7
12375,-1136,552,-1832,-45,14,-8
12380,-1120,544,-1880,-44,14,-9
12385,-1120,568,-1864,-44,15,-7
12390,-1144,568,-1840,-46,14,-8
12395,-1128,544,-1864,-45,14,-8
12400,-1136,568,-1864,-46,13,-9
12405,-1144,584,-1832,-47,13,-8
12410,-1128,568,-1840,-46,14,-7
12415,-1136,552,-1872,-45,14,-7
12420,-1112,544,-1832,-46,15,-7
12425,-1120,560,-1856,-45,14,-6
12430,-1112,552,-1848,-46,15,-6
12435,-1152,560,-1872,-46,15,-4
12440,-1128,536,-1864,-46,16,-5
12445,-1112,536,-1832,-46,16,-6
12450,-1136,552,-1840,-48,16,-5
12455,-1112,552,-1864,-49,15,-4
12460,-1128,568,-1856,-49,16,-3
12465,-1112,552,-1856,-48,15,-4
12470,-1128,528,-1808,-47,15,-6
12475,-1120,552,-1840,-49,13,-4
12480,-1120,560,-1808,-49,13,-4
12485,-1112,560,-1840,-48,12,-6
12490,-1120,544,-1848,-48,11,-6
12495,-1120,552,-1864,-47,12,-6
12500,-1136,592,-1832,-46,12,-6
12505,-1128,560,-1840,-46,11,-6
12510,-1120,544,-1872,-46,12,-7
12515,-1120,552,-1856,-48,12,-7
12520,-1112,528,-1856,-48,12,-7
12525,-1120,544,-1848,-47,12,-6
12530,-1112,528,-1832,-47,12,-6
12535,-1136,544,-1848,-46,10,-6
12540,-1128,560,-1880,-46,11,-5
12545,-1120,552,-1848,-46,10,-7
12550,-1120,544,-1856,-46,9,-7
12555,-1120,552,-1848,-46,9,-8
12560,-1120,552,-1848,-47,10,-7
12565,-1120,552,-1872,-47,10,-7
12570,-1136,536,-1824,-48,9,-7
12575,-1120,560,-1824,-46,10,-7
12580,-1120,560,-1856,-45,10,-8
12585,-1152,552,-1848,-45,10,-5
12590,-1128,552,-1848,-46,11,-6
12595,-1128,568,-1840,-47,13,-6
12600,-1136,544,-1872,-48,14,-7
12605,-1112,544,-1848,-47,14,-5
12610,-1168,568,-1824,-47,14,-6
12615,-1136,552,-1832,-45,14,-4
12620,-1112,560,-1864,-44,14,-6
12625,-1120,568,-1840,-44,14,-6
12630,-1112,552,-1864,-44,13,-6
12635,-1144,544,-1832,-45,14,-8
12640,-1136,552,-1840,-45,13,-6
12645,-1112,560,-1856,-43,13,-7
12650,-1104,544,-1840,-43,13,-7
12655,-1128,560,-1824,-44,13,-7
12660,-1120,536,-1824,-44,12,-7
12665,-1128,568,-1864,-42,13,-7
12670,-1112,560,-1840,-43,12,-7
12675,-1136,568,-1880,-44,13,-8
12680,-1136,560,-1848,-43,13,-7
12685,-1136,560,-1888,-41,14,-9
12690,-1136,560,-1832,-42,13,-8
12695,-1128,560,-1856,-43,13,-9
12700,-1144,552,-1872,-44,13,-9
12705,-1136,552,-1864,-44,12,-8
12710,-1264,488,-1792,-44,13,-9
12715,-1112,544,-1832,-44,12,-8
12720,-1136,560,-1840,-43,12,-10
12725,-1136,560,-1848,-44,10,-9
12730,-1144,576,-1848,-45,10,-8
12735,-1120,568,-1832,-46,10,-9
12740,-1144,568,-1856,-47,10,-9
12745,-1136,560,-1840,-46,10,-8
12750,-1128,544,-1856,-49,13,-8
12755,-1136,576,-1824,-48,13,-7
12760,-1160,568,-1848,-48,13,-6
12765,-1144,536,-1752,-47,11,-7
12770,-1144,568,-1808,-47,13,-7
12775,-1128,552,-1832,-47,12,-7
12780,-1104,560,-1840,-47,12,-7
12785,-1152,568,-1824,-46,12,-7
12790,-1128,568,-1856,-46,13,-8
12795,-1144,560,-1824,-45,11,-7
12800,-1144,584,-1832,-45,12,-6
12805,-1120,552,-1840,-45,11,-7
12810,-1112,568,-1856,-46,10,-8
12815,-1128,552,-1856,-47,11,-7
12820,-1112,552,-1824,-43,11,-8
12825,-1136,568,-1832,-46,12,-7
12830,-1152,568,-1856,-47,11,-7
12835,-1144,568,-1840,-45,11,-7
12840,-1136,584,-1832,-46,11,-7
12845,-1136,568,-1864,-44,10,-8
12850,-1144,568,-1840,-45,11,-8
12855,-1136,560,-1848,-47,12,-7
12860,-1136,552,-1864,-47,10,-7
12865,-1128,560,-1816,-47,10,-5
12870,-1144,552,-1856,-46,11,-6
12875,-1128,544,-1832,-46,12,-7
12880,-1112,552,-1856,-46,12,-7
12885,-1120,528,-1840,-48,12,-8
12890,-1128,560,-1880,-47,13,-6
12895,-1112,544,-1856,-46,12,-7
12900,-1136,552,-1872,-48,12,-6
12905,-1128,568,-1840,-47,13,-6
12910,-1152,568,-1824,-48,11,-8
12915,-1144,576,-1864,-49,11,-9
12920,-1120,568,-1840,-48,11,-7
12925,-1136,552,-1856,-48,12,-6
12930,-1104,536,-1816,-46,11,-5
12935,-1128,560,-1856,-47,12,-6
12940,-1144,576,-1832,-47,11,-5
12945,-1120,576,-1840,-47,12,-5
12950,-1136,560,-1832,-45,12,-5
12955,-1120,544,-1848,-45,12,-5
12960,-1160,560,-1848,-46,13,-5
12965,-1136,544,-1848,-48,12,-5
12970,-1136,552,-1840,-47,11,-7
12975,-1152,576,-1848,-48,11,-6
12980,-1120,560,-1840,-47,11,-7
12985,-1144,560,-1848,-49,11,-6
12990,-1120,544,-1840,-48,10,-6
12995,-1120,552,-1848,-49,12,-6
13000,-1136,560,-1864,-49,13,-5
13005,-1128,568,-1848,-51,13,-7
13010,-1152,560,-1832,-49,14,-7
13015,-1128,552,-1840,-48,16,-6
13020,-1112,560,-1848,-46,16,-6
13025,-1144,568,-1856,-45,16,-8
13030,-1112,536,-1864,-43,16,-7
13035,-1136,544,-1848,-43,16,-8
13040,-1120,560,-1840,-43,15,-8
13045,-1120,536,-1840,-43,13,-6
13050,-1128,552,-1864,-44,12,-7
13055,-1128,544,-1832,-45,13,-5
13060,-1128,536,-1840,-48,13,-4
13065,-1128,552,-1800,-51,12,-4
13070,-1128,528,-1824,-51,13,-4
13075,-1128,552,-1824,-49,15,-4
13080,-1136,576,-1872,-47,18,-4
13085,-1144,560,-1864,-47,20,-4
13090,-1128,552,-1840,-47,21,-4
13095,-1128,536,-1888,-46,20,-4
13100,-1144,552,-1840,-47,19,-5
13105,-1128,544,-1848,-47,16,-6
13110,-1128,560,-1840,-46,14,-6
13115,-1104,552,-1848,-46,11,-7
13120,-1144,552,-1864,-46,10,-8
13125,-1136,552,-1880,-46,10,-9
13130,-1128,560,-1816,-47,8,-8
13135,-1128,568,-1856,-46,8,-7
13140,-1136,560,-1848,-46,10,-7
13145,-1128,552,-1856,-47,9,-6
13150,-1128,552,-1840,-47,10,-4
13155,-1136,568,-1808,-46,11,-5
13160,-1136,560,-1848,-48,11,-5
13165,-1128,552,-1848,-47,11,-5
13170,-1120,544,-1856,-47,12,-7
13175,-1136,592,-1800,-46,12,-5
13180,-1136,560,-1832,-46,12,-6
13185,-1120,552,-1848,-47,13,-6
13190,-1112,552,-1840,-45,11,-6
13195,-1152,544,-1848,-43,12,-7
13200,-1144,560,-1816,-44,11,-6
13205,-1120,544,-1800,-42,11,-7
13210,-1128,552,-1840,-43,11,-7
13215,-1120,544,-1840,-43,11,-6
13220,-1096,544,-1808,-42,13,-8
13225,-1112,528,-1816,-38,12,-10
13230,-1160,560,-1832,-40,14,-11
13235,-1152,584,-1848,-36,15,-11
13240,-1136,568,-1848,-33,15,-12
13245,-1152,536,-1872,-37,15,-11
13250,-1152,560,-1824,-40,14,-8
13255,-1128,568,-1856,-44,14,-7
13260,-1120,544,-1808,-45,13,-7
13265,-1144,544,-1856,-46,12,-7
13270,-1120,536,-1848,-45,12,-8
13275,-1128,544,-1832,-45,12,-7
13280,-1120,560,-1832,-45,12,-8
13285,-1120,536,-1848,-45,13,-7
13290,-1136,576,-1840,-44,14,-8
13295,-1120,560,-1824,-44,15,-9
13300,-1120,560,-1848,-44,14,-8
13305,-1128,544,-1824,-46,14,-8
13310,-1136,544,-1824,-44,13,-8
13315,-1144,552,-1816,-46,12,-8
13320,-1128,544,-1880,-46,13,-8
13325,-1128,560,-1832,-47,13,-7
13330,-1120,536,-1848,-47,13,-7
13335,-1112,544,-1848,-48,13,-7
13340,-1128,560,-1864,-48,14,-6
13345,-1120,552,-1832,-48,13,-5
13350,-1168,552,-1832,-48,12,-6
13355,-1128,568,-1848,-49,13,-5
13360,-1136,568,-1856,-49,14,-4
13365,-1112,560,-1864,-49,15,-5
13370,-1152,552,-1840,-50,16,-3
13375,-1144,576,-1832,-52,21,-3
13380,-1136,568,-1856,-51,18,-4
13385,-1136,552,-1848,-50,15,-4
13390,-1160,584,-1864,-50,13,-4
13395,-1120,544,-1888,-49,12,-5
13400,-1136,552,-1848,-48,12,-5
13405,-1128,568,-1848,-49,11,-6
13410,-1136,544,-1840,-48,12,-6
13415,-1136,568,-1824,-48,12,-6
13420,-1040,632,-1896,-48,12,-7
13425,-1136,544,-1856,-48,11,-8
13430,-1128,568,-1848,-48,10,-7
13435,-1136,568,-1816,-48,12,-6
13440,-1120,560,-1840,-49,12,-6
13445,-1152,560,-1872,-48,13,-6
13450,-1152,560,-1872,-49,14,-6
13455,-1136,536,-1864,-48,14,-8
13460,-1152,584,-1872,-47,15,-7
13465,-1128,552,-1816,-47,13,-7
13470,-1152,560,-1840,-47,12,-6
13475,-1072,624,-1856,-47,13,-6
13480,-1128,576,-1816,-45,12,-5
13485,-1136,552,-1872,-45,13,-6
13490,-1144,584,-1824,-47,14,-5
13495,-1128,552,-1840,-45,14,-7
13500,-1120,568,-1816,-44,13,-7
13505,-1120,552,-1824,-45,14,-6
13510,-1128,544,-1864,-44,14,-7
13515,-1128,560,-1832,-45,15,-7
13520,-1128,552,-1832,-43,15,-6
13525,-1128,544,-1808,-43,14,-6
13530,-1112,568,-1832,-43,14,-7
13535,-1128,560,-1840,-44,15,-6
13540,-1160,576,-1824,-43,15,-6
13545,-1144,568,-1832,-42,15,-5
13550,-1144,560,-1864,-43,17,-6
13555,-1152,560,-1840,-43,15,-7
13560,-1128,544,-1856,-41,15,-7
13565,-1112,536,-1856,-44,16,-8
13570,-1128,560,-1832,-42,15,-8
13575,-1120,560,-1840,-42,15,-7
13580,-1128,552,-1840,-42,16,-8
13585,-1144,544,-1840,-43,18,-6
13590,-1144,544,-1840,-45,16,-6
13595,-1152,560,-1832,-46,18,-5
13600,-1112,536,-1824,-46,16,-6
13605,-1128,560,-1816,-46,17,-5
13610,-1144,560,-1856,-46,17,-6
13615,-1128,568,-1848,-44,17,-7
13620,-1136,600,-1848,-45,16,-6
13625,-1112,560,-1816,-46,17,-6
13630,-1128,552,-1840,-45,17,-7
13635,-1104,544,-1840,-45,16,-6
13640,-1144,560,-1832,-46,15,-5
13645,-1144,568,-1832,-47,15,-5
13650,-1144,544,-1848,-48,15,-5
13655,-1136,552,-1832,-47,14,-4
13660,-1128,536,-1840,-48,15,-4
13665,-1136,560,-1872,-48,15,-5
13670,-1128,552,-1856,-50,15,-5
13675,-1136,560,-1840,-49,15,-5
13680,-1120,552,-1848,-48,14,-5
13685,-1144,560,-1832,-47,16,-4
13690,-1128,552,-1832,-47,17,-4
13695,-1128,560,-1856,-48,16,-5
13700,-1136,552,-1848,-48,16,-5
13705,-1128,560,-1872,-49,17,-5
13710,-1136,552,-1848,-47,17,-5
13715,-1136,536,-1824,-48,19,-6
13720,-1104,552,-1856,-47,18,-5
13725,-1112,544,-1848,-45,17,-4
13730,-1144,552,-1824,-47,17,-4
13735,-1144,552,-1840,-47,17,-3
13740,-1136,544,-1808,-46,18,-3
13745,-1128,560,-1824,-47,19,-4
13750,-1128,536,-1840,-48,19,-3
13755,-1120,544,-1832,-47,21,-4
13760,-1136,544,-1856,-46,21,-4
13765,-1120,544,-1840,-47,23,-3
13770,-1136,560,-1824,-46,21,-4
13775,-1136,552,-1840,-46,22,-3
13780,-1120,560,-1840,-45,22,-4
13785,-1128,560,-1856,-45,21,-4
13790,-1144,560,-1824,-46,21,-4
13795,-1136,560,-1856,-45,22,-3
13800,-1128,544,-1864,-45,22,-4
13805,-1136,528,-1856,-45,22,-4
13810,-1128,568,-1856,-44,20,-5
13815,-1096,520,-1832,-45,20,-5
13820,-1136,560,-1832,-45,20,-5
13825,-1144,568,-1840,-45,21,-5
13830,-1136,560,-1832,-45,23,-4
13835,-1128,560,-1824,-44,22,-4
13840,-1120,584,-1848,-45,21,-5
13845,-1144,560,-1848,-47,20,-3
13850,-1128,544,-1840,-46,22,-4
13855,-1136,560,-1848,-46,22,-4
13860,-1144,560,-1848,-47,23,-3
13865,-1128,536,-1848,-45,23,-3
13870,-1136,536,-1840,-44,21,-2
13875,-1136,568,-1824,-45,24,-3
13880,-1144,568,-1832,-46,22,-3
13885,-1152,560,-1840,-46,22,-5
13890,-1128,544,-1832,-46,22,-4
13895,-1136,544,-1832,-46,22,-4
13900,-1144,568,-1856,-46,23,-4
13905,-1144,544,-1832,-44,22,-3
13910,-1144,560,-1840,-46,22,-4
13915,-1112,560,-1816,-47,22,-4
13920,-1120,552,-1808,-44,22,-4
13925,-1128,568,-1848,-45,23,-3
13930,-1152,544,-1832,-45,22,-3
13935,-1120,552,-1824,-45,22,-2
13940,-1128,544,-1848,-45,23,-4
13945,-1160,560,-1856,-45,24,-4
13950,-1120,552,-1832,-45,24,-3
13955,-1128,552,-1864,-45,25,-2
13960,-1136,568,-1856,-46,24,-1
13965,-1120,544,-1832,-47,24,0
13970,-1144,584,-1832,-47,22,-2
13975,-1128,568,-1848,-48,22,-2
13980,-1128,560,-1848,-48,23,-2
13985,-1136,584,-1840,-48,24,-2
13990,-1128,552,-1840,-48,23,-3
13995,-1144,560,-1880,-47,25,-2
14000,-1152,568,-1824,-47,26,-2
14005,-1128,560,-1832,-46,29,-3
14010,-1136,560,-1856,-46,32,-3
14015,-1128,568,-1816,-43,32,-3
14020,-1128,536,-1840,-43,32,-4
14025,-1136,544,-1848,-42,32,-4
14030,-1144,544,-1840,-41,30,-5
14035,-1128,584,-1848,-40,29,-5
14040,-1152,568,-1848,-39,28,-5
14045,-1120,560,-1872,-41,29,-4
14050,-1144,536,-1792,-43,29,-4
14055,-1128,544,-1864,-45,28,-2
14060,-1128,560,-1824,-47,28,-1
14065,-1128,544,-1824,-50,28,1
14070,-1128,528,-1848,-50,30,2
14075,-1128,552,-1824,-45,32,2
14080,-1160,576,-1864,-47,35,2
14085,-1136,584,-1856,-46,37,2
14090,-1120,544,-1888,-48,37,1
14095,-1128,560,-1824,-49,35,1
14100,-1136,552,-1864,-46,32,-1
14105,-1136,568,-1856,-46,29,-2
14110,-1128,544,-1840,-46,27,-1
14115,-1120,560,-1824,-46,25,-2
14120,-1112,544,-1872,-48,23,-2
14125,-1104,536,-1832,-47,25,-1
14130,-1096,464,-1840,-47,25,-2
14135,-1136,552,-1840,-50,25,0
14140,-1120,568,-1848,-50,27,0
14145,-1112,552,-1848,-49,27,0
14150,-1120,552,-1856,-49,27,1
14155,-1144,576,-1848,-47,28,0
14160,-1144,544,-1864,-49,28,-1
14165,-1120,560,-1824,-48,30,0
14170,-1128,552,-1848,-48,29,0
14175,-1120,568,-1824,-48,29,1
14180,-1064,560,-1744,-49,28,0
14185,-1136,568,-1824,-46,28,-1
14190,-1144,576,-1832,-44,28,-1
14195,-1136,544,-1848,-45,29,-2
14200,-1128,552,-1832,-44,28,-2
14205,-1144,528,-1840,-45,30,0
14210,-1136,544,-1824,-44,30,0
14215,-1120,552,-1824,-45,30,-1
14220,-1128,568,-1856,-44,31,-1
14225,-1112,560,-1848,-43,32,-1
14230,-1136,568,-1856,-42,33,-2
14235,-1096,552,-1824,-41,32,-1
14240,-1120,552,-1864,-42,32,-2
14245,-1136,552,-1840,-42,33,-2
14250,-1120,552,-1848,-42,33,-3
14255,-1104,544,-1856,-41,32,-2
14260,-1112,560,-1840,-41,32,-4
14265,-1136,544,-1832,-41,31,-4
14270,-1096,544,-1848,-42,31,-4
14275,-1128,568,-1856,-39,30,-3
14280,-1128,552,-1848,-42,29,-4
14285,-1104,560,-1880,-42,29,-4
14290,-1128,568,-1848,-41,30,-3
14295,-1104,560,-1848,-43,30,-4
14300,-1128,568,-1872,-43,30,-4
14305,-1120,560,-1832,-43,28,-3
14310,-1128,560,-1816,-44,28,-4
14315,-1112,544,-1856,-44,27,-5
14320,-1136,576,-1872,-42,28,-5
14325,-1104,560,-1848,-41,29,-4
14330,-1120,560,-1848,-44,29,-4
14335,-1128,544,-1832,-43,28,-3
14340,-1112,568,-1848,-44,28,-3
14345,-1128,528,-1824,-45,28,-3
14350,-1136,560,-1848,-44,29,-2
14355,-1120,560,-1824,-45,28,-3
14360,-1112,544,-1832,-44,26,-3
14365,-1088,528,-1864,-46,27,-3
14370,-1120,568,-1832,-45,27,-1
14375,-1128,560,-1816,-45,26,-2
14380,-1128,552,-1832,-46,27,-2
14385,-1120,560,-1840,-47,26,-3
14390,-1160,560,-1848,-46,25,-2
14395,-1112,544,-1856,-46,23,-3
14400,-1136,536,-1848,-47,24,-2
14405,-1104,560,-1848,-46,24,-2
14410,-1136,552,-1840,-47,23,-4
14415,-1112,568,-1848,-48,23,-3
14420,-1120,560,-1848,-46,22,-3
14425,-1136,544,-1848,-47,23,-3
14430,-1136,560,-1848,-49,23,-2
14435,-1112,576,-1888,-48,23,0
14440,-1104,552,-1832,-48,23,-3
14445,-1120,576,-1848,-48,24,-3
14450,-1128,584,-1864,-47,24,-3
14455,-1144,560,-1832,-47,22,-4
14460,-1120,552,-1832,-48,23,-2
14465,-1128,576,-1840,-46,24,-2
14470,-1144,576,-1824,-45,23,-3
14475,-1112,552,-1848,-46,23,-2
14480,-1120,568,-1824,-45,24,-3
14485,-1120,560,-1872,-45,24,-2
14490,-1104,544,-1856,-44,24,-2
14495,-1080,544,-1864,-44,25,-1
14500,-1128,544,-1832,-43,26,-3
14505,-1120,560,-1824,-44,25,-3
14510,-1144,560,-1856,-44,26,-3
14515,-1104,560,-1840,-44,27,-2
14520,-1120,568,-1816,-43,27,-2
14525,-1112,536,-1840,-43,27,-2
14530,-1128,576,-1856,-43,27,-2
14535,-1128,552,-1856,-43,27,-2
14540,-1128,568,-1864,-42,27,-2
14545,-1128,544,-1832,-40,27,-2
14550,-1104,568,-1856,-41,27,-3
14555,-1120,576,-1840,-42,28,-3
14560,-1112,568,-1864,-42,29,-4
14565,-1128,576,-1824,-42,28,-4
14570,-1120,576,-1848,-42,30,-4
14575,-1128,568,-1896,-40,28,-4
14580,-1120,560,-1880,-41,28,-3
14585,-1120,552,-1880,-41,27,-5
14590,-1120,568,-1848,-40,28,-4
14595,-1160,552,-1872,-40,28,-4
14600,-1128,568,-1848,-42,27,-5
14605,-1104,544,-1856,-42,28,-3
14610,-1120,560,-1840,-42,27,-3
14615,-1120,560,-1888,-41,28,-4
14620,-1128,544,-1848,-42,26,-4
14625,-1104,552,-1856,-43,25,-4
14630,-1112,568,-1840,-42,25,-4
14635,-1120,552,-1848,-43,25,-4
14640,-1120,560,-1872,-43,24,-4
14645,-1104,568,-1848,-42,24,-4
14650,-1112,584,-1864,-43,25,-5
14655,-1112,560,-1840,-43,24,-4
14660,-1120,552,-1832,-44,23,-4
14665,-1104,560,-1856,-46,24,-4
14670,-1144,592,-1856,-44,23,-5
14675,-1096,568,-1848,-43,24,-5
14680,-1128,544,-1872,-44,23,-4
14685,-1136,552,-1856,-43,21,-3
14690,-1128,560,-1848,-44,23,-4
14695,-1104,560,-1832,-44,22,-4
14700,-1112,552,-1824,-45,21,-4
14705,-1104,576,-1880,-45,22,-4
14710,-1128,568,-1864,-43,22,-4
14715,-1128,576,-1848,-42,21,-3
14720,-1128,552,-1848,-43,21,-4
14725,-1112,552,-1848,-43,20,-3
14730,-1120,552,-1872,-43,20,-3
14735,-1104,560,-1840,-45,20,-3
14740,-1120,568,-1840,-44,20,-3
14745,-1128,552,-1848,-44,21,-3
14750,-1136,576,-1880,-43,19,-4
14755,-1104,552,-1856,-43,18,-5
14760,-1112,544,-1848,-42,18,-5
14765,-1120,552,-1888,-43,18,-5
14770,-1112,552,-1864,-43,17,-6
14775,-1136,576,-1864,-42,18,-6
14780,-1088,536,-1848,-42,16,-7
14785,-1128,576,-1856,-42,17,-7
14790,-1128,576,-1872,-43,18,-5
14795,-1096,536,-1856,-44,17,-6
14800,-1088,552,-1856,-44,17,-6
14805,-1128,560,-1864,-43,17,-7
14810,-1096,536,-1848,-44,16,-6
14815,-1120,544,-1872,-42,15,-7
14820,-1120,560,-1856,-42,15,-8
14825,-1120,560,-1848,-41,13,-7
14830,-1112,552,-1848,-42,13,-6
14835,-1120,624,-1800,-42,12,-6
14840,-1112,552,-1856,-43,14,-7
14845,-1128,568,-1872,-43,13,-7
14850,-1112,568,-1840,-44,12,-6
14855,-1112,560,-1864,-44,12,-6
14860,-1112,552,-1856,-44,12,-6
14865,-1104,544,-1856,-46,11,-7
14870,-1120,576,-1856,-47,10,-7
14875,-1096,552,-1856,-47,9,-8
14880,-1112,560,-1832,-47,8,-9
14885,-1128,552,-1832,-48,9,-9
14890,-1112,544,-1832,-45,10,-9
14895,-1112,576,-1840,-45,11,-9
14900,-1112,552,-1864,-44,14,-7
14905,-1120,528,-1864,-45,16,-8
14910,-1096,552,-1840,-45,15,-11
14915,-1088,536,-1856,-42,15,-9
14920,-1112,560,-1856,-43,14,-9
14925,-1128,552,-1872,-41,14,-10
14930,-1104,568,-1872,-41,12,-9
14935,-1104,568,-1880,-40,11,-11
14940,-1112,560,-1864,-42,10,-10
14945,-1120,552,-1848,-42,8,-9
14950,-1136,576,-1840,-44,7,-9
14955,-1128,544,-1864,-46,5,-7
14960,-1128,544,-1856,-49,7,-5
14965,-1104,560,-1848,-51,8,-4
14970,-1120,552,-1824,-51,8,-6
14975,-1120,576,-1872,-50,9,-6
14980,-1136,552,-1864,-47,13,-6
14985,-1096,568,-1840,-48,13,-6
14990,-1120,568,-1872,-47,16,-6
14995,-1136,584,-1872,-46,15,-7
