timestamp,accel_x,accel_y,accel_z,gyro_x,gyro_y,gyro_z
0,8,-2016,64,-42,51,-11
5,0,-2040,88,-43,52,-13
10,0,-2032,56,-44,54,-14
15,0,-2032,40,-45,57,-15
20,0,-2048,64,-44,57,-16
25,56,-2080,-136,-41,59,-17
30,24,-2088,-72,-39,59,-15
35,56,-1984,24,-34,56,-14
40,-32,-2080,-48,-28,54,-11
45,8,-2104,96,-21,50,-9
50,0,-2080,56,-16,49,-6
55,0,-2024,40,-14,49,-5
60,16,-2064,72,-12,51,-4
65,16,-2016,32,-14,49,-2
70,-32,-2040,72,-16,50,-2
75,-72,-2024,120,-16,51,-2
80,0,-2056,48,-19,51,-1
85,0,-2048,48,-19,53,-2
90,0,-2064,32,-21,56,-2
95,0,-2056,56,-22,57,-2
100,8,-2064,56,-22,57,-3
105,8,-2048,16,-22,59,-3
110,0,-2048,48,-21,61,-3
115,-8,-2064,64,-19,62,-3
120,-48,-2056,72,-15,64,-4
125,0,-2072,56,-13,63,-3
130,-8,-2048,56,-8,64,-2
135,0,-2048,48,-5,67,-1
140,-16,-2032,40,-3,65,0
145,16,-2032,40,-1,66,2
150,0,-2032,48,-1,66,3
155,0,-2032,24,-2,69,4
160,-8,-2032,56,-5,71,5
165,0,-2040,56,-6,73,6
170,-24,-2024,40,-6,76,6
175,0,-2032,64,-7,77,8
180,0,-2048,40,-8,78,9
185,16,-2040,56,-7,80,10
190,-8,-2040,56,-7,80,11
195,0,-2056,32,-7,80,11
200,0,-2048,40,-7,80,11
205,0,-2048,56,-5,80,11
210,8,-2048,64,-6,80,11
215,0,-2040,48,-4,80,11
220,0,-2040,40,-6,78,12
225,0,-2032,48,-7,78,12
230,0,-2016,40,-8,77,12
235,0,-2032,32,-11,76,11
240,0,-2024,24,-13,77,10
245,0,-2032,24,-14,78,11
250,-32,-2040,16,-14,78,10
255,0,-2032,40,-13,78,10
260,0,-2040,48,-11,77,11
265,0,-2032,24,-8,75,11
270,0,-2064,24,-6,76,10
275,-8,-2064,48,-3,75,12
280,0,-2064,24,1,72,13
285,0,-2064,40,2,72,13
290,-8,-2056,8,2,73,13
295,0,-2048,24,5,71,14
300,-8,-2048,16,5,72,14
305,0,-2048,24,7,72,15
310,-16,-2072,24,6,72,15
315,-24,-2056,48,7,73,14
320,-40,-2056,24,9,72,14
325,-8,-2056,0,10,72,14
330,-48,-2040,40,12,71,12
335,-24,-2056,24,14,70,13
340,-40,-2048,32,16,70,12
345,-16,-2056,72,16,70,11
350,-24,-2048,48,18,70,11
355,-24,-2080,56,20,69,11
360,0,-2064,32,22,71,8
365,-32,-2032,56,22,69,8
370,-8,-2056,40,20,72,8
375,-40,-2048,64,18,73,5
380,-32,-2048,64,17,75,4
385,-24,-2056,48,15,75,4
390,-32,-2040,48,12,76,3
395,-40,-2040,64,7,76,3
400,-72,-2048,64,4,78,2
405,-16,-2056,32,1,78,1
410,-24,-2032,56,-2,78,2
415,-16,-2048,48,-5,77,2
420,-40,-2040,48,-6,79,2
425,-40,-2048,56,-5,77,2
430,-32,-2024,32,-3,77,1
435,-16,-2072,32,1,76,2
440,-8,-2064,8,5,76,4
445,-16,-2064,48,9,75,4
450,0,-2040,32,14,76,5
455,-16,-2064,72,18,74,5
460,-32,-2048,48,22,73,7
465,-24,-2056,72,26,72,7
470,-24,-2064,48,28,69,7
475,-16,-2032,56,29,67,8
480,-40,-2032,56,32,66,9
485,-8,-2040,48,34,65,10
490,-32,-2040,48,35,65,12
495,-16,-2016,88,34,65,10
500,0,-2032,64,34,64,10
505,-16,-2048,56,33,62,10
510,-40,-2048,64,33,62,11
515,0,-2064,32,33,61,11
520,-16,-2056,64,33,60,13
525,-8,-2048,56,33,59,14
530,-8,-2048,48,35,59,16
535,-40,-2032,56,37,58,16
540,0,-2048,56,38,59,16
545,-8,-2048,56,40,59,15
550,-32,-2040,48,38,58,17
555,-16,-2064,64,37,59,17
560,-24,-2056,96,35,59,17
565,-16,-2056,64,34,58,18
570,-32,-2056,64,34,56,19
575,-8,-2080,48,37,54,18
580,-40,-2056,88,39,53,18
585,-24,-2072,40,43,51,18
590,-32,-2072,64,47,49,19
595,-32,-2072,64,52,48,19
600,-40,-2072,48,57,46,22
605,-8,-2064,24,61,44,23
610,-16,-2040,40,63,43,25
615,0,-2016,64,64,41,26
620,-8,-2032,80,62,42,26
625,-24,-2048,64,60,39,26
630,-40,-2048,64,58,40,24
635,-8,-2040,64,58,41,23
640,-16,-2024,64,60,43,22
645,-24,-2056,64,63,48,22
650,-16,-2040,88,64,50,20
655,-32,-2024,80,63,53,18
660,-32,-2048,96,62,57,16
665,-16,-2040,96,61,57,15
670,-8,-2040,72,59,60,13
675,-8,-2056,72,55,60,13
680,-8,-2032,104,52,61,13
685,-8,-2048,72,51,62,12
690,-8,-2032,96,50,63,10
695,0,-2064,72,51,63,10
700,0,-2032,96,51,64,10
705,0,-2048,96,53,66,10
710,-32,-2040,112,52,68,9
715,-8,-2048,80,52,69,8
720,0,-2016,88,50,71,10
725,-16,-2064,24,50,74,10
730,-16,-2008,112,50,75,9
735,-32,-2056,88,50,77,10
740,-16,-2016,88,50,80,10
745,-56,-2016,80,47,81,11
750,-24,-2040,80,47,81,11
755,-16,-2040,88,46,81,10
760,-32,-2040,96,45,81,11
765,-16,-2040,96,44,80,10
770,-16,-2016,112,43,78,9
775,-24,-2016,104,39,77,9
780,-24,-2040,128,35,77,10
785,-24,-2016,72,32,76,9
790,-32,-2016,152,29,76,10
795,-40,-2016,88,28,76,10
800,-32,-2024,120,25,75,10
805,-56,-2024,120,22,75,12
810,-48,-2048,120,22,74,13
815,-40,-2032,120,20,72,15
820,-40,-2064,112,19,72,15
825,-24,-2040,152,20,72,14
830,-56,-2048,152,18,70,15
835,-24,-2056,176,16,69,15
840,-16,-2088,128,17,68,15
845,-16,-2056,96,15,66,14
850,-56,-2040,128,15,67,14
855,-48,-2040,136,17,67,14
860,-24,-2032,144,16,67,13
865,-56,-2040,120,15,68,12
870,-56,-2056,104,15,66,10
875,-40,-2048,160,16,66,12
880,-40,-2064,112,17,66,12
885,-72,-2024,112,17,67,11
890,-40,-2040,144,15,65,11
895,-56,-2040,136,15,64,10
900,-16,-2032,112,16,64,10
905,-72,-2040,120,16,63,12
910,-56,-2048,136,14,61,12
915,-8,-2048,96,15,60,11
920,-56,-2024,120,13,60,11
925,-72,-2024,128,13,60,13
930,-48,-2032,120,11,59,12
935,-40,-2024,112,10,59,11
940,-72,-2032,128,8,60,12
945,-48,-2016,112,7,61,12
950,-24,-2048,96,6,61,10
955,-24,-2024,112,4,61,8
960,-56,-2040,120,3,62,7
965,-24,-2032,120,0,63,5
970,-16,-2040,120,0,63,4
975,-56,-2024,96,1,65,2
980,-40,-2056,104,1,65,1
985,-40,-2048,112,2,66,0
990,-48,-2056,120,1,66,-2
995,-56,-2032,136,4,66,-2
1000,-64,-2040,128,3,66,-2
1005,-32,-2064,128,3,66,-3
1010,-40,-2064,136,4,66,-3
1015,-56,-2048,88,7,66,-3
1020,-72,-2024,120,8,65,-2
1025,-48,-2024,128,7,66,-3
1030,-72,-2048,120,5,64,-4
1035,-80,-2056,128,7,64,-4
1040,-32,-2032,120,6,64,-4
1045,-48,-2016,128,5,65,-5
1050,-32,-2024,104,4,65,-5
1055,-40,-2040,168,3,66,-6
1060,-40,-2016,88,0,66,-5
1065,-40,-2048,96,-1,67,-7
1070,-32,-2032,112,-3,68,-8
1075,-24,-2032,112,-5,69,-7
1080,-56,-2040,88,-6,70,-7
1085,-64,-2048,120,-8,70,-6
1090,-24,-2072,120,-10,72,-6
1095,-48,-2056,152,-11,72,-5
1100,-24,-2056,96,-12,70,-4
1105,-32,-2032,104,-11,69,-4
1110,-40,-2048,112,-8,69,-4
1115,-32,-2016,96,-7,68,-6
1120,-64,-2048,112,-7,68,-8
1125,-32,-2048,144,-7,68,-9
1130,-40,-2008,104,-11,67,-9
1135,-64,-2000,120,-14,67,-10
1140,-24,-2032,120,-19,68,-10
1145,-48,-2056,120,-22,69,-12
1150,-40,-2008,136,-22,68,-13
1155,-48,-2072,136,-20,68,-13
1160,-40,-2040,192,-19,69,-13
1165,-24,-2056,144,-16,69,-14
1170,-48,-2088,120,-12,71,-13
1175,-24,-2056,104,-7,70,-12
1180,-32,-2048,104,-5,69,-10
1185,0,-2048,104,-3,68,-8
1190,-32,-2056,96,-4,68,-8
1195,-16,-2048,80,-4,68,-8
1200,-32,-2024,88,-8,68,-9
1205,-64,-2032,88,-11,68,-10
1210,-8,-2016,152,-13,68,-11
1215,-24,-2032,96,-15,69,-12
1220,-48,-2032,104,-16,67,-11
1225,-40,-2024,112,-17,67,-12
1230,-40,-2024,120,-18,67,-12
1235,-32,-2032,136,-20,67,-11
1240,-56,-2024,144,-23,66,-9
1245,-40,-2032,144,-24,66,-9
1250,-40,-2008,120,-24,68,-10
1255,-40,-2040,136,-26,69,-8
1260,-48,-2032,136,-26,70,-8
1265,-32,-2040,128,-28,68,-9
1270,-24,-2032,120,-29,68,-9
1275,-24,-2032,128,-28,67,-9
1280,-16,-2040,128,-30,68,-10
1285,-8,-2064,136,-32,66,-9
1290,-16,-2048,112,-34,68,-12
1295,-24,-2032,120,-34,70,-10
1300,-40,-2048,136,-36,70,-8
1305,-8,-2032,128,-36,71,-7
1310,-24,-2040,96,-36,71,-8
1315,-24,-2032,144,-35,72,-8
1320,-48,-2040,144,-34,72,-7
1325,-24,-2056,136,-31,71,-5
1330,-48,-2048,112,-29,70,-5
1335,-48,-2056,96,-28,70,-5
1340,-8,-2056,104,-27,70,-4
1345,-32,-2032,96,-25,70,-3
1350,-40,-2056,144,-23,71,-4
1355,-64,-2032,96,-22,69,-4
1360,-32,-2024,120,-20,68,-4
1365,-8,-2016,104,-20,69,-1
1370,-24,-2024,96,-18,69,-2
1375,-32,-2024,112,-18,70,0
1380,-8,-2056,128,-16,70,1
1385,-24,-2056,96,-17,69,0
1390,-56,-2024,112,-18,68,0
1395,-8,-2032,96,-18,68,0
1400,-24,-2032,120,-17,69,0
1405,-56,-2048,64,-16,68,0
1410,-40,-2056,104,-15,67,2
1415,-40,-2064,88,-14,70,1
1420,-16,-2032,96,-13,71,2
1425,-48,-2032,104,-13,72,2
1430,-32,-2040,120,-14,73,3
1435,-16,-2048,112,-16,73,2
1440,-56,-2024,112,-19,74,1
1445,-40,-2056,80,-24,76,1
1450,-32,-2040,104,-28,77,-2
1455,-24,-2040,96,-35,78,-3
1460,-40,-2040,96,-45,81,-5
1465,-56,-2008,112,-54,83,-8
1470,-40,-2008,136,-62,86,-11
1475,-64,-2016,112,-68,89,-13
1480,-24,-2048,104,-74,92,-15
1485,-72,-2008,96,-78,93,-17
1490,-56,-2064,24,-81,95,-18
1495,-32,-2048,80,-84,100,-20
1500,-40,-2048,144,-85,103,-21
1505,-32,-2040,96,-86,105,-23
1510,-24,-2056,88,-87,107,-23
1515,-16,-2064,64,-88,109,-22
1520,-40,-2072,96,-84,108,-22
1525,-40,-2056,80,-81,109,-21
1530,-40,-2048,96,-79,108,-21
1535,-16,-2048,96,-74,108,-22
1540,-64,-2048,112,-69,107,-21
1545,-48,-2056,104,-66,102,-22
1550,-48,-2048,64,-61,101,-23
1555,-24,-2032,80,-58,101,-22
1560,-32,-2048,88,-54,99,-22
1565,-56,-2032,104,-48,98,-21
1570,-48,-2032,104,-44,99,-22
1575,-56,-2048,80,-40,95,-20
1580,-32,-2032,88,-39,92,-19
1585,-40,-2040,112,-37,91,-17
1590,-32,-2048,72,-35,90,-17
1595,-32,-2024,48,-33,87,-15
1600,-32,-2040,120,-33,83,-11
1605,-32,-2064,96,-33,80,-12
1610,-24,-2040,104,-31,78,-11
1615,-16,-2064,88,-32,77,-11
1620,-24,-2040,96,-33,74,-10
1625,-16,-2040,96,-30,74,-9
1630,-24,-2072,96,-30,75,-9
1635,-16,-2016,80,-29,75,-10
1640,-40,-2056,72,-31,74,-10
1645,-16,-2056,40,-30,76,-8
1650,-24,-2056,96,-29,76,-7
1655,-24,-2032,80,-27,75,-6
1660,-8,-2072,96,-23,75,-6
1665,-40,-2040,64,-21,74,-6
1670,-24,-2064,64,-18,73,-7
1675,-40,-2032,80,-14,73,-6
1680,-32,-2032,88,-10,71,-7
1685,-64,-2040,72,-7,70,-7
1690,-48,-2048,104,-4,67,-8
1695,-8,-2064,72,-3,69,-9
1700,-48,-2040,104,-3,69,-9
1705,-16,-2048,88,-2,68,-10
1710,-8,-2032,104,-3,69,-9
1715,0,-2040,72,-5,68,-9
1720,-16,-2032,88,-5,67,-6
1725,-8,-2048,56,-7,66,-5
1730,-16,-2040,80,-6,65,-5
1735,-40,-2040,96,-6,64,-5
1740,-16,-2040,88,-6,62,-4
1745,-64,-2008,88,-8,61,-4
1750,0,-2064,96,-9,60,-2
1755,-40,-2032,88,-13,61,-2
1760,-16,-2048,96,-16,62,-3
1765,-40,-2040,80,-20,61,-2
1770,-32,-2040,96,-22,63,-2
1775,-56,-2024,112,-24,61,-3
1780,-24,-2088,96,-22,63,-3
1785,-32,-2072,80,-21,66,-2
1790,-8,-2112,80,-16,67,-2
1795,-24,-2064,64,-15,66,-1
1800,0,-2040,64,-12,68,1
1805,-24,-2024,80,-10,67,3
1810,-24,-2024,80,-10,67,2
1815,-16,-2024,88,-9,68,3
1820,-8,-2048,72,-11,67,4
1825,-32,-2048,104,-14,68,4
1830,-16,-2016,96,-16,67,3
1835,-24,-2032,96,-15,68,1
1840,-64,-2016,88,-16,69,0
1845,-32,-2040,96,-16,69,-2
1850,-16,-2048,88,-15,72,-2
1855,-32,-2040,112,-15,73,-2
1860,-32,-2040,112,-15,75,-4
1865,-32,-2024,128,-13,77,-5
1870,-32,-2056,128,-14,80,-4
1875,-16,-2056,80,-15,83,-6
1880,-16,-2064,120,-17,84,-4
1885,-16,-2048,104,-16,86,-5
1890,-40,-2048,96,-17,92,-4
1895,-16,-2032,112,-19,92,-4
1900,-32,-2032,104,-18,94,-2
1905,-56,-2032,104,-19,93,-1
1910,-48,-2032,112,-18,94,0
1915,-8,-2048,104,-16,94,0
1920,-24,-2032,120,-17,95,2
1925,-16,-2048,80,-15,95,3
1930,-48,-2040,88,-13,95,3
1935,-40,-2048,80,-12,95,4
1940,-40,-2032,128,-12,97,2
1945,-40,-2040,72,-12,96,3
1950,-48,-2040,80,-12,93,3
1955,-72,-2064,88,-11,89,1
1960,-40,-2056,104,-11,83,2
1965,-64,-2040,72,-12,83,4
1970,-64,-2048,88,-14,86,4
1975,-40,-2048,88,-15,88,1
1980,-40,-2040,96,-14,89,0
1985,-64,-2032,96,-15,89,0
1990,-32,-2032,64,-18,87,-1
1995,-56,-2032,96,-25,90,-3
2000,-16,-2056,104,-34,89,-2
2005,-48,-2048,112,-41,89,-5
2010,-56,-2032,80,-46,92,-8
2015,-8,-2048,40,-50,93,-8
2020,-48,-2048,88,-53,94,-10
2025,-40,-2056,72,-56,96,-10
2030,-64,-2048,80,-55,100,-11
2035,-48,-2056,72,-53,102,-13
2040,-32,-2056,48,-49,104,-14
2045,-40,-2064,80,-46,107,-16
2050,-8,-2064,72,-44,110,-18
2055,-24,-2040,72,-41,112,-20
2060,-24,-2032,88,-39,111,-22
2065,-16,-2056,96,-39,112,-24
2070,0,-2040,32,-40,116,-25
2075,-32,-2032,64,-38,118,-27
2080,-24,-2024,48,-37,120,-28
2085,-16,-2040,80,-37,120,-29
2090,0,-2048,80,-38,120,-33
2095,-16,-2056,80,-35,121,-34
2100,0,-2056,56,-34,121,-33
2105,-8,-2040,56,-31,119,-34
2110,0,-2040,64,-26,119,-34
2115,-8,-2048,72,-19,118,-34
2120,-16,-2016,72,-15,117,-34
2125,-16,-2024,96,-8,116,-34
2130,0,-2024,72,-3,115,-34
2135,0,-2032,96,2,113,-33
2140,-8,-2072,24,4,109,-35
2145,-16,-2032,72,7,109,-33
2150,0,-2040,56,10,108,-31
2155,-16,-2024,112,12,107,-32
2160,-8,-2072,80,15,108,-32
2165,-16,-2048,64,17,107,-31
2170,-8,-2024,104,20,108,-29
2175,-8,-2056,80,23,107,-29
2180,-16,-2032,64,29,106,-27
2185,-8,-2056,72,31,105,-26
2190,0,-2048,104,36,105,-22
2195,-24,-2032,88,38,105,-20
2200,-24,-2040,96,43,105,-18
2205,-8,-2024,80,45,103,-15
2210,-16,-2048,80,46,101,-14
2215,-16,-2024,80,46,99,-12
2220,0,-2048,112,43,97,-12
2225,0,-2064,96,42,99,-11
2230,-8,-2032,120,42,100,-10
2235,0,-2040,96,41,103,-10
2240,0,-2056,96,40,104,-11
2245,-32,-2056,96,36,106,-11
2250,-8,-2024,104,36,106,-10
2255,-24,-2056,88,35,109,-10
2260,-8,-2032,96,34,110,-11
2265,0,-2064,112,33,113,-11
2270,-24,-2048,88,29,115,-9
2275,-24,-2048,96,28,117,-10
2280,0,-2072,72,26,119,-10
2285,-16,-2048,104,27,117,-8
2290,-8,-2056,96,26,117,-9
2295,-16,-2040,120,25,116,-9
2300,-56,-2016,48,23,114,-6
2305,-8,-2024,112,23,113,-6
2310,-16,-2016,120,23,112,-4
2315,-32,-2048,120,23,110,-3
2320,-56,-2032,80,23,107,-1
2325,-32,-2064,128,25,105,1
2330,-16,-2024,112,25,101,3
2335,-8,-2040,104,25,100,7
2340,-16,-2056,88,24,96,9
2345,-24,-2048,104,22,93,11
2350,-32,-2032,96,22,90,10
2355,-48,-2040,80,26,86,10
2360,-32,-2032,88,27,84,11
2365,-16,-2024,120,29,83,10
2370,-24,-2016,128,29,80,11
2375,0,-2032,128,27,78,13
2380,-40,-2024,136,24,74,13
2385,-16,-2040,120,24,72,14
2390,-16,-2072,120,27,69,14
2395,-32,-2056,152,32,65,15
2400,-24,-2088,136,34,60,16
2405,-72,-2096,128,42,59,14
2410,-32,-2072,112,49,54,15
2415,-32,-2080,104,56,51,17
2420,-40,-2072,96,60,47,19
2425,-32,-2056,120,62,44,23
2430,-32,-2048,104,63,45,23
2435,-32,-2040,120,64,43,22
2440,-24,-2024,120,59,43,21
2445,-56,-2016,104,53,43,21
2450,-40,-2008,128,45,44,20
2455,-48,-2008,112,36,47,18
2460,-40,-2000,80,28,48,15
2465,-40,-2032,144,22,49,12
2470,-40,-2056,168,14,52,9
2475,-32,-2040,128,8,56,7
2480,-16,-2072,120,1,59,4
2485,-16,-2064,136,-6,63,4
2490,-32,-2056,128,-10,66,4
2495,-16,-2056,144,-17,71,3
2500,-40,-2056,120,-21,73,3
2505,-40,-2032,112,-25,75,3
2510,-48,-2048,136,-28,77,4
2515,-40,-2064,128,-30,77,4
2520,-72,-2064,104,-31,78,6
2525,-56,-2032,128,-32,78,8
2530,-48,-2080,112,-32,79,9
2535,-88,-2032,96,-30,79,11
2540,-48,-2056,88,-28,78,14
2545,-48,-2056,120,-22,77,16
2550,-32,-2056,96,-17,74,18
2555,-32,-2040,72,-12,71,18
2560,-8,-2056,104,-6,68,20
2565,-32,-2080,104,-2,66,21
2570,-32,-2040,96,4,63,22
2575,-24,-2112,120,8,59,24
2580,-16,-2056,88,13,55,23
2585,-32,-2040,112,20,54,23
2590,-8,-2040,120,26,53,23
2595,-24,-2048,112,31,52,23
2600,-8,-2032,96,35,51,22
2605,0,-2040,120,39,51,19
2610,-8,-2032,120,40,52,18
2615,-24,-2024,144,42,51,16
2620,0,-2024,136,42,51,14
2625,0,-2032,120,39,52,11
2630,-32,-2048,128,37,51,8
2635,-24,-2032,120,34,51,6
2640,-8,-2048,112,31,52,4
2645,-32,-2040,144,26,51,4
2650,-56,-2032,128,21,53,2
2655,-40,-2040,112,17,53,3
2660,-48,-2056,128,14,55,4
2665,-32,-2040,128,11,57,4
2670,-32,-2056,112,7,59,4
2675,-64,-2048,112,5,62,5
2680,-24,-2048,104,2,63,4
2685,-72,-2088,128,-1,62,3
2690,-16,-2032,104,-3,65,3
2695,-8,-2024,112,-3,65,2
2700,-48,-2048,88,-2,68,2
2705,-56,-2048,104,-3,69,3
2710,-40,-2024,120,-2,73,4
2715,-16,-2056,144,1,75,4
2720,-24,-2032,144,3,77,5
2725,-8,-2024,144,5,78,7
2730,-56,-2056,120,9,78,7
2735,-40,-2056,152,12,78,9
2740,-32,-2040,120,14,78,10
2745,-40,-2024,128,15,76,12
2750,-56,-2048,120,17,74,12
2755,-40,-2056,152,17,73,12
2760,-56,-2032,152,16,69,11
2765,-32,-2056,120,17,69,12
2770,-40,-2040,80,17,68,11
2775,-64,-2016,120,15,67,9
2780,-24,-2040,136,15,66,9
2785,-40,-2024,136,14,66,7
2790,-48,-2024,144,12,66,5
2795,-24,-2064,160,12,67,2
2800,0,-2032,152,12,67,1
2805,-24,-2032,152,12,69,1
2810,-32,-2048,120,14,68,1
2815,-8,-2048,168,16,68,0
2820,-24,-2048,160,19,68,1
2825,-24,-2008,120,21,67,1
2830,-24,-2032,144,24,68,0
2835,-24,-2032,144,24,68,0
2840,-8,-2040,152,24,69,-1
2845,-40,-2016,128,22,66,-1
2850,-40,-2016,120,19,67,0
2855,-40,-2032,152,16,65,0
2860,-56,-2016,160,16,64,0
2865,-16,-2032,128,15,62,-1
2870,-32,-2040,152,13,62,-1
2875,-56,-2040,128,12,61,0
2880,-32,-2056,160,11,62,0
2885,-48,-2032,136,10,63,1
2890,-32,-2032,152,7,64,1
2895,-32,-2016,128,6,64,1
2900,-24,-2024,144,4,63,0
2905,-16,-2040,144,3,63,0
2910,-32,-2032,136,1,63,0
2915,-24,-2048,136,-1,62,0
2920,-24,-2024,128,-2,63,-1
2925,-56,-2032,136,-3,62,-1
2930,-32,-2048,128,-3,62,-1
2935,-48,-2040,168,-2,63,1
2940,-24,-2056,144,-1,63,1
2945,-64,-2024,160,2,64,3
2950,-40,-2024,160,4,67,2
2955,-64,-2040,136,6,68,3
2960,-24,-2024,128,5,70,3
2965,-24,-2032,160,5,71,3
2970,-32,-2040,152,6,73,5
2975,-56,-2032,144,3,74,6
2980,-72,-2024,136,-2,75,8
2985,-40,-2040,168,-4,72,8
2990,-40,-2048,128,-4,71,9
2995,-56,-2056,144,-3,70,7
3000,-56,-2016,136,-2,70,6
3005,-48,-2024,184,-1,70,8
3010,-40,-2032,88,0,67,6
3015,-32,-2024,176,0,66,6
3020,-48,-2008,192,-1,65,4
3025,-56,-2024,176,-3,64,3
3030,-56,-2032,160,-7,64,1
3035,-40,-2048,136,-10,63,1
3040,-48,-2040,128,-11,60,-1
3045,-24,-2080,144,-12,58,0
3050,-56,-2064,152,-10,59,1
3055,-40,-2072,152,-5,57,2
3060,-48,-2096,184,-1,58,1
3065,-32,-2072,144,4,56,2
3070,-56,-2040,152,8,55,5
3075,-16,-2040,136,10,54,5
3080,-40,-2024,128,10,54,4
3085,-8,-2048,120,9,54,4
3090,-48,-2008,136,6,54,3
3095,-48,-2040,136,4,54,0
3100,-56,-2008,160,2,54,0
3105,-48,-2008,168,0,54,-1
3110,-56,-2008,152,0,54,0
3115,-48,-2032,136,-1,53,1
3120,-48,-2048,128,-2,53,0
3125,-72,-2048,160,-3,52,1
3130,-24,-2040,160,-3,52,2
3135,-48,-2016,168,-5,51,2
3140,-56,-2016,160,-5,51,5
3145,-64,-2040,152,-5,50,6
3150,-88,-2024,160,-6,50,7
3155,-32,-2040,136,-5,49,6
3160,-72,-2048,160,-6,48,4
3165,-56,-2008,168,-7,46,5
3170,-64,-2024,144,-10,47,6
3175,-40,-2040,192,-12,46,4
3180,-48,-2056,144,-12,44,3
3185,-40,-2048,144,-12,45,2
3190,-40,-2024,152,-13,45,2
3195,-32,-2064,152,-12,45,2
3200,-32,-2040,152,-14,45,0
3205,-32,-2040,136,-14,47,-1
3210,-24,-2064,128,-13,48,-2
3215,-64,-2040,160,-13,47,-1
3220,-24,-2008,144,-14,49,-3
3225,-56,-2048,128,-15,50,-1
3230,-40,-2024,152,-15,50,-1
3235,-32,-2048,152,-13,51,-2
3240,-8,-2048,152,-13,51,0
3245,-48,-2064,144,-12,52,1
3250,-72,-2032,120,-12,51,2
3255,-48,-2048,144,-11,52,2
3260,-56,-2024,152,-15,52,2
3265,-48,-2032,168,-16,52,3
3270,-40,-2024,120,-19,52,2
3275,-56,-2040,152,-24,54,1
3280,-40,-2008,152,-28,56,0
3285,-56,-2024,200,-35,58,-2
3290,-32,-2016,136,-39,61,-2
3295,-56,-2032,168,-45,62,-3
3300,-32,-2008,152,-50,65,-5
3305,-48,-2024,176,-56,65,-6
3310,-24,-2032,152,-61,68,-8
3315,-24,-2032,112,-64,70,-10
3320,-48,-2040,120,-69,72,-12
3325,-40,-2024,128,-72,77,-14
3330,-40,-2032,152,-77,79,-16
3335,0,-2040,192,-82,78,-17
3340,-16,-2040,112,-86,80,-18
3345,-24,-2048,144,-89,81,-19
3350,-24,-2072,144,-91,83,-19
3355,-56,-2032,128,-91,83,-18
3360,-48,-2032,136,-89,84,-19
3365,-16,-2056,128,-88,83,-18
3370,-32,-2064,136,-82,85,-18
3375,-48,-2056,128,-77,86,-17
3380,-56,-2048,120,-74,87,-15
3385,-48,-2032,168,-68,87,-17
3390,-32,-2048,136,-65,86,-15
3395,-32,-2048,160,-62,87,-15
3400,-40,-2032,160,-60,86,-13
3405,-48,-2040,160,-58,86,-13
3410,-40,-2048,112,-58,87,-11
3415,-48,-2056,104,-61,86,-11
3420,-48,-2032,120,-63,85,-11
3425,-8,-2024,120,-66,83,-10
3430,-48,-2040,120,-66,82,-9
3435,-48,-2016,104,-64,85,-8
3440,-40,-2024,88,-62,82,-7
3445,-32,-2040,112,-59,82,-7
3450,-48,-2032,104,-56,80,-7
3455,-32,-2040,112,-55,80,-5
3460,-40,-2040,128,-51,81,-4
3465,-32,-2056,112,-48,81,-4
3470,-16,-2040,120,-46,80,-4
3475,-32,-2040,112,-45,80,-4
3480,-40,-2032,136,-42,80,-4
3485,-40,-2032,144,-40,78,-4
3490,-16,-2048,112,-40,77,-6
3495,-48,-2024,104,-40,76,-4
3500,-40,-2024,136,-39,77,-7
3505,-32,-2040,104,-38,79,-6
3510,-16,-2040,112,-40,80,-7
3515,-16,-2056,136,-40,79,-8
3520,-64,-2032,96,-43,79,-11
3525,-40,-2040,120,-45,80,-9
3530,-24,-2032,96,-49,79,-9
3535,-48,-2032,120,-52,79,-10
3540,-32,-2032,88,-54,77,-11
3545,-16,-2032,104,-57,77,-9
3550,-16,-2056,112,-57,77,-9
3555,-64,-2064,128,-57,77,-9
3560,-40,-2032,88,-59,78,-8
3565,-40,-2024,120,-58,78,-7
3570,-8,-2048,88,-55,77,-7
3575,-24,-2032,112,-54,78,-7
3580,-8,-2032,80,-52,78,-5
3585,0,-2048,80,-57,78,-4
3590,-24,-2024,120,-63,79,-2
3595,-32,-2040,104,-61,78,-2
3600,-48,-2056,120,-59,76,-4
3605,-56,-2040,96,-56,76,-3
3610,-40,-2048,112,-53,75,-4
3615,-40,-2072,96,-49,74,-3
3620,-40,-2024,128,-46,73,-2
3625,-40,-2048,112,-45,73,-2
3630,-8,-2048,88,-44,74,-3
3635,-24,-2064,72,-44,73,-2
3640,-56,-2032,112,-44,72,0
3645,-48,-2056,96,-44,71,-1
3650,-24,-2032,64,-44,69,-1
3655,-16,-2064,128,-42,68,-2
3660,-32,-2032,96,-42,67,-2
3665,-16,-2064,56,-41,68,-2
3670,-32,-2048,96,-41,68,-1
3675,-32,-2048,104,-41,69,-2
3680,-40,-2040,64,-39,69,0
3685,-56,-2024,88,-39,67,0
3690,-32,-2048,96,-40,69,3
3695,-72,-2032,104,-39,69,3
3700,-32,-2048,120,-38,68,2
3705,-56,-2056,120,-37,69,2
3710,-40,-2048,72,-36,69,3
3715,-56,-2040,96,-35,68,2
3720,-32,-2056,88,-35,68,1
3725,-32,-2032,104,-35,69,1
3730,-64,-2032,120,-37,70,1
3735,-56,-2048,104,-39,72,2
3740,-56,-2048,104,-43,72,3
3745,-40,-2064,128,-45,71,3
3750,-64,-2032,112,-45,72,4
3755,-48,-2024,112,-44,71,3
3760,-32,-2032,112,-43,72,3
3765,-40,-2040,112,-42,69,2
3770,-16,-2056,72,-39,68,3
3775,-8,-2040,104,-35,68,2
3780,-16,-2064,88,-37,67,3
3785,-56,-2040,72,-36,67,2
3790,-24,-2064,128,-36,67,4
3795,-32,-2064,144,-36,65,2
3800,-40,-2056,128,-34,66,0
3805,-56,-2048,128,-31,65,1
3810,-40,-2048,96,-29,64,0
3815,-24,-2072,80,-29,66,1
3820,-48,-2056,96,-26,66,-1
3825,-32,-2080,72,-27,64,1
3830,-32,-2064,96,-25,62,3
3835,-56,-2032,128,-24,62,2
3840,-40,-2032,104,-24,64,1
3845,-64,-2008,128,-24,63,-1
3850,-24,-2032,112,-26,63,-1
3855,-32,-2040,80,-28,64,-1
3860,-48,-2032,88,-29,65,-2
3865,-56,-2016,96,-29,66,-2
3870,-64,-2032,104,-32,68,-3
3875,-64,-2048,88,-31,68,-3
3880,-48,-2048,80,-31,68,-4
3885,-56,-2032,80,-32,68,-2
3890,-32,-2048,96,-32,68,-2
3895,-40,-2048,80,-31,68,-3
3900,-48,-2048,88,-29,69,-2
3905,-40,-2064,96,-27,69,-1
3910,-16,-2072,80,-24,69,-1
3915,-40,-2056,88,-20,69,1
3920,-16,-2048,80,-16,69,2
3925,-8,-2064,80,-14,68,0
3930,-16,-2048,80,-12,66,1
3935,-32,-2056,80,-9,65,2
3940,-48,-2040,88,-9,65,2
3945,-16,-2040,72,-8,63,1
3950,-24,-2048,80,-7,63,1
3955,-48,-2048,80,-6,63,1
3960,-40,-2048,96,-5,65,0
3965,-48,-2032,88,-3,66,1
3970,-16,-2040,88,-1,66,2
3975,-56,-2048,88,-1,67,3
3980,-48,-2048,88,2,67,3
3985,-48,-2024,48,2,68,2
3990,-40,-2040,72,5,68,4
3995,-24,-2056,88,5,69,2
4000,-80,-2024,64,8,70,2
4005,0,-2040,80,8,71,2
4010,-48,-2016,104,9,70,4
4015,-24,-2024,80,9,70,3
4020,-48,-2024,88,10,70,4
4025,-40,-2040,64,8,69,3
4030,-32,-2048,88,8,69,3
4035,-56,-2016,96,5,66,2
4040,-56,-2048,104,5,66,1
4045,-40,-2064,96,3,66,1
4050,-24,-2080,112,3,66,2
4055,-32,-2064,56,4,66,3
4060,-24,-2064,96,7,65,4
4065,-56,-2056,104,8,64,4
4070,-24,-2056,112,10,65,5
4075,0,-2024,96,11,66,5
4080,-8,-2072,104,11,66,5
4085,-32,-2048,96,11,67,3
4090,-32,-2056,112,11,68,3
4095,-64,-2048,112,10,68,3
4100,-24,-2024,104,8,69,3
4105,-24,-2048,56,9,69,3
4110,-32,-2040,96,8,69,4
4115,-48,-2048,120,7,69,2
4120,-8,-2048,88,7,69,2
4125,-56,-2032,120,8,70,2
4130,-48,-2048,104,8,70,3
4135,-32,-2032,104,9,69,5
4140,-24,-2056,96,11,70,3
4145,-80,-2056,192,13,69,5
4150,-72,-2040,80,14,70,4
4155,-48,-2048,96,17,70,6
4160,-56,-2064,136,18,70,5
4165,-48,-2048,120,19,69,5
4170,-24,-2072,64,21,67,4
4175,-48,-2040,96,21,67,5
4180,-16,-2056,104,21,66,4
4185,-24,-2032,104,22,66,4
4190,-32,-2048,120,21,67,3
4195,-72,-2032,96,22,66,5
4200,-48,-2024,112,22,67,4
4205,-40,-2040,96,22,66,4
4210,-40,-2024,96,22,68,5
4215,-24,-2048,136,23,69,4
4220,-32,-2032,112,23,70,5
4225,-40,-2032,104,23,72,3
4230,-24,-2040,88,25,72,4
4235,-24,-2056,96,26,73,3
4240,-32,-2032,104,29,73,4
4245,-56,-2048,112,28,73,5
4250,-64,-2040,136,30,73,5
4255,-40,-2056,120,31,74,5
4260,-48,-2048,120,32,74,6
4265,-24,-2040,128,33,74,7
4270,-56,-2040,80,33,73,6
4275,-48,-2040,72,32,72,6
4280,-56,-2040,120,31,71,6
4285,-16,-2056,104,29,70,5
4290,-40,-2040,80,29,70,6
4295,-32,-2056,104,27,70,5
4300,-40,-2048,112,27,70,5
4305,-24,-2040,112,28,68,7
4310,-40,-2064,112,27,67,5
4315,-64,-2064,128,27,67,5
4320,-40,-2064,96,27,65,5
4325,-64,-2032,96,26,66,5
4330,-56,-2024,104,27,65,5
4335,-64,-2048,128,27,65,6
4340,-40,-2032,128,27,66,5
4345,-40,-2032,96,28,63,6
4350,-48,-2032,80,29,62,7
4355,-64,-2040,120,29,64,6
4360,-40,-2056,112,29,64,5
4365,-56,-2056,104,28,64,5
4370,-72,-2072,144,28,65,5
4375,-56,-2048,136,29,66,5
4380,-64,-2024,152,29,68,5
4385,-24,-2064,104,30,68,4
4390,-48,-2048,104,30,69,4
4395,-56,-2048,136,30,70,3
4400,-48,-2048,120,27,70,3
4405,-64,-2032,168,26,70,2
4410,-48,-2056,112,24,70,2
4415,-32,-2032,120,23,70,3
4420,-48,-2000,128,20,69,4
4425,-16,-2008,184,18,67,5
4430,-56,-2048,128,17,66,5
4435,-56,-2032,152,17,66,6
4440,-64,-2032,144,16,64,6
4445,-32,-2032,152,14,65,5
4450,-56,-2016,152,11,65,3
4455,-64,-2016,160,10,66,4
4460,-48,-2016,128,8,68,3
4465,-48,-2048,112,5,68,1
4470,-56,-2040,104,3,68,1
4475,-48,-2072,120,1,68,-2
4480,-72,-2056,120,2,69,-2
4485,-32,-2064,136,5,69,-4
4490,-48,-2064,128,10,71,-4
4495,-32,-2088,96,14,69,-2
4500,-32,-2064,128,18,69,-2
4505,-40,-2032,152,24,69,0
4510,-24,-2072,112,29,69,1
4515,-56,-2024,144,31,67,0
4520,-72,-2016,152,33,67,1
4525,-56,-2048,136,33,66,1
4530,-80,-2104,96,30,67,1
4535,-56,-2024,144,30,68,-1
4540,-56,-2000,128,29,67,-2
4545,-64,-2016,152,27,69,-3
4550,-64,-2016,144,22,71,-4
4555,-88,-2016,120,19,70,-6
4560,-72,-2016,176,17,70,-6
4565,-32,-2024,144,12,68,-4
4570,-72,-2040,152,9,68,-4
4575,-32,-2056,152,5,64,-3
4580,-64,-2032,160,3,63,-4
4585,-48,-2056,160,1,60,-3
4590,-40,-2040,160,-1,59,-2
4595,-72,-2064,144,-3,56,0
4600,-72,-2016,168,-3,55,1
4605,-48,-2008,160,-5,54,0
4610,-56,-2032,152,-8,54,-1
4615,-64,-2056,160,-10,55,-1
4620,-56,-2040,144,-12,52,-3
4625,-48,-2056,144,-13,54,-5
4630,-48,-2040,120,-14,55,-6
4635,-48,-2048,136,-15,56,-5
4640,-24,-2024,152,-15,55,-6
4645,-48,-2032,144,-15,57,-6
4650,-64,-2032,152,-15,58,-7
4655,-64,-2032,144,-15,60,-6
4660,-64,-2032,120,-15,61,-7
4665,-40,-2040,120,-14,61,-6
4670,-48,-2040,144,-13,62,-5
4675,-64,-2016,160,-14,63,-6
4680,-8,-2048,136,-13,63,-6
4685,-48,-2040,136,-13,63,-2
4690,-48,-2024,176,-15,62,-3
4695,-56,-2016,112,-16,63,-4
4700,-40,-2024,152,-19,61,-3
4705,-72,-2032,144,-21,61,-5
4710,-80,-2016,144,-25,59,-7
4715,-80,-2008,176,-30,58,-6
4720,-72,-2032,144,-33,57,-7
4725,-56,-2024,152,-36,56,-7
4730,-40,-2048,168,-38,55,-8
4735,-40,-2048,168,-38,55,-7
4740,-48,-2008,192,-40,56,-7
4745,-48,-2000,120,-40,57,-7
4750,-32,-2032,88,-43,57,-6
4755,-56,-2040,136,-45,56,-5
4760,-80,-1968,152,-48,57,-5
4765,-24,-2096,224,-52,57,-7
4770,-40,-2072,136,-57,55,-6
4775,-72,-2128,64,-60,55,-7
4780,-40,-1984,160,-65,55,-8
4785,-112,-2048,160,-67,57,-7
4790,-32,-1944,200,-71,56,-8
4795,-32,-1888,112,-74,57,-6
4800,-56,-2048,208,-78,56,-7
4805,-56,-2016,128,-79,56,-9
4810,-48,-2024,168,-82,56,-10
4815,-40,-2024,160,-83,55,-12
4820,-32,-2040,160,-84,55,-12
4825,-56,-2024,208,-86,53,-15
4830,-8,-2088,136,-87,50,-14
4835,-40,-1968,72,-90,47,-16
4840,-88,-2080,216,-92,44,-17
4845,-8,-2032,176,-95,42,-18
4850,-88,-2056,184,-99,39,-18
4855,-64,-2016,216,-103,38,-19
4860,-48,-2040,200,-104,35,-19
4865,-120,-2072,184,-106,35,-21
4870,-72,-2056,232,-106,36,-20
4875,-32,-2096,184,-108,38,-21
4880,-72,-2024,64,-110,38,-21
4885,-80,-2064,152,-113,41,-21
4890,-64,-2032,136,-116,45,-21
4895,-64,-2040,136,-119,46,-20
4900,-40,-2032,112,-122,50,-21
4905,-48,-1992,128,-129,55,-20
4910,-72,-2008,48,-135,60,-18
4915,32,-2064,56,-138,63,-16
4920,-176,-1960,48,-142,67,-15
4925,-80,-2096,176,-148,70,-12
4930,-72,-2056,208,-154,73,-11
4935,-72,-1976,24,-157,74,-10
4940,-80,-2040,144,-160,78,-8
4945,-64,-1976,136,-160,79,-8
4950,-128,-2072,128,-164,77,-7
4955,-104,-2024,184,-165,76,-8
4960,-24,-2056,96,-165,76,-10
4965,-64,-2032,104,-165,74,-10
4970,-48,-2088,88,-164,72,-12
4975,-32,-2048,88,-163,70,-14
4980,-32,-2104,80,-162,67,-16
4985,-48,-2032,48,-164,63,-18
4990,-16,-2016,128,-165,61,-20
4995,-48,-2040,160,-166,59,-24
5000,-80,-2184,72,-168,58,-28
5005,-88,-2128,128,-170,58,-29
5010,-16,-2056,48,-172,58,-32
5015,56,-1960,56,-175,60,-32
5020,24,-2064,120,-179,62,-37
5025,-64,-1984,72,-183,63,-38
5030,32,-2032,48,-187,65,-40
5035,-24,-2024,72,-189,68,-41
5040,-56,-2024,48,-190,70,-41
5045,-8,-2040,8,-193,72,-42
5050,-24,-2008,24,-196,76,-41
5055,8,-2072,-40,-198,77,-41
5060,-48,-1936,144,-202,79,-40
5065,64,-1992,16,-206,81,-38
5070,-8,-2184,136,-208,83,-37
5075,-40,-2064,80,-212,85,-35
5080,-88,-2008,40,-216,87,-35
5085,24,-1992,72,-218,86,-34
5090,-56,-2024,32,-224,88,-34
5095,-32,-2016,128,-229,88,-35
5100,-48,-2008,24,-233,88,-35
5105,-56,-2040,32,-239,86,-35
5110,-56,-2056,24,-244,87,-36
5115,-48,-2064,8,-250,87,-37
5120,-32,-2064,24,-255,86,-39
5125,-40,-2040,40,-258,86,-40
5130,-56,-2096,40,-262,86,-42
5135,-64,-2056,8,-267,87,-47
5140,-32,-2032,40,-269,88,-48
5145,-8,-2064,8,-272,89,-49
5150,-24,-2064,16,-276,90,-52
5155,-24,-2056,24,-279,91,-54
5160,-16,-2072,-8,-284,91,-53
5165,8,-2096,-8,-287,92,-55
5170,-8,-2072,-56,-292,95,-55
5175,32,-2040,-32,-295,96,-54
5180,40,-1992,24,-300,96,-54
5185,-16,-2040,0,-302,98,-55
5190,0,-2016,0,-302,100,-57
5195,-24,-2048,-56,-303,102,-57
5200,-24,-2024,-48,-305,102,-60
5205,-40,-2024,-16,-309,102,-62
5210,-8,-2040,-8,-313,103,-62
5215,0,-2056,-88,-318,104,-61
5220,-24,-2000,-16,-326,105,-62
5225,-32,-2024,-40,-334,106,-62
5230,-88,-2024,40,-341,106,-63
5235,-32,-2056,-56,-344,106,-64
5240,-8,-2064,-64,-349,106,-66
5245,-24,-2064,-64,-349,105,-68
5250,-24,-2072,-56,-348,105,-70
5255,-24,-2088,-48,-348,103,-73
5260,-8,-2096,-96,-350,104,-76
5265,-8,-2096,-104,-349,103,-73
5270,0,-2064,-120,-351,102,-74
5275,-16,-2040,-96,-351,103,-73
5280,-24,-2008,-152,-351,101,-74
5285,-8,-2040,-112,-352,100,-74
5290,-16,-2040,-96,-357,104,-70
5295,-32,-2016,-120,-370,109,-68
5300,-8,-2024,-136,-372,108,-70
5305,-16,-2008,-120,-371,108,-74
5310,-8,-2040,-128,-372,103,-76
5315,0,-2040,-120,-374,105,-76
5320,0,-2000,-120,-376,107,-77
5325,48,-2112,-120,-382,107,-76
5330,-16,-2016,-128,-387,106,-77
5335,-16,-2008,-136,-390,108,-78
5340,-8,-2024,-136,-395,113,-76
5345,-8,-2000,-112,-403,117,-75
5350,-32,-2080,-88,-407,120,-78
5355,0,-2024,-120,-409,123,-78
5360,0,-2024,-152,-409,125,-81
5365,8,-2016,-144,-412,127,-84
5370,-16,-2016,-160,-420,127,-87
5375,-24,-2032,-144,-433,128,-91
5380,8,-2048,-160,-447,128,-92
5385,16,-2016,-168,-457,127,-92
5390,16,-2032,-160,-469,130,-90
5395,0,-2016,-176,-479,136,-91
5400,-8,-2024,-208,-490,140,-94
5405,0,-2008,-176,-507,145,-98
5410,0,-2008,-224,-517,149,-101
5415,8,-2008,-200,-527,147,-103
5420,16,-2032,-232,-533,148,-106
5425,8,-2040,-232,-539,145,-108
5430,8,-2016,-208,-539,145,-113
5435,0,-2000,-224,-544,149,-114
5440,16,-2048,-272,-548,149,-119
5445,32,-2048,-256,-555,152,-119
5450,8,-2032,-272,-567,157,-122
5455,8,-2024,-288,-571,161,-120
5460,8,-2016,-288,-578,159,-120
5465,16,-2016,-304,-580,159,-120
5470,0,-2000,-320,-585,162,-119
5475,16,-2008,-304,-599,163,-117
5480,24,-2008,-304,-609,165,-123
5485,16,-2008,-304,-613,172,-130
5490,16,-2000,-312,-620,174,-129
5495,8,-2016,-360,-628,170,-132
5500,16,-2016,-360,-635,164,-140
5505,40,-2008,-352,-643,159,-142
5510,24,-1992,-360,-655,151,-143
5515,40,-2016,-360,-667,146,-145
5520,16,-2000,-376,-680,148,-141
5525,56,-2024,-392,-688,148,-145
5530,56,-2008,-408,-696,151,-151
5535,56,-2024,-408,-702,160,-160
5540,48,-2024,-384,-708,166,-163
5545,80,-2016,-432,-710,166,-163
5550,56,-2016,-408,-715,171,-156
5555,48,-2008,-440,-723,180,-151
5560,72,-1992,-440,-720,175,-167
5565,72,-1984,-456,-715,167,-176
5570,96,-1984,-496,-719,164,-184
5575,40,-1992,-448,-728,165,-188
5580,72,-1976,-432,-733,160,-194
5585,72,-1968,-520,-738,159,-194
5590,72,-1976,-504,-753,165,-196
5595,80,-2000,-520,-778,174,-185
5600,48,-1976,-536,-786,177,-194
5605,96,-1976,-512,-787,173,-200
5610,80,-1984,-536,-792,168,-207
5615,128,-1992,-520,-799,172,-214
5620,96,-1968,-552,-804,178,-215
5625,88,-1976,-536,-808,178,-214
5630,136,-1984,-584,-815,188,-205
5635,104,-1992,-600,-822,191,-215
5640,88,-1984,-592,-824,186,-227
5645,128,-1976,-560,-833,187,-231
5650,120,-1992,-608,-840,188,-226
5655,144,-1984,-640,-846,189,-226
5660,144,-1960,-632,-853,190,-226
5665,56,-1920,-576,-869,199,-219
5670,120,-1968,-608,-866,164,-208
5675,112,-1968,-680,-846,153,-226
5680,152,-1960,-672,-841,169,-235
5685,120,-1944,-688,-853,185,-240
5690,80,-1952,-680,-867,191,-245
5695,176,-1952,-672,-884,202,-235
5700,96,-1920,-712,-890,211,-232
5705,120,-1904,-704,-884,208,-248
5710,144,-1896,-696,-877,203,-254
5715,104,-1920,-728,-872,203,-257
5720,136,-1952,-720,-875,203,-263
5725,168,-1904,-744,-882,209,-263
5730,136,-1872,-720,-904,219,-243
5735,152,-1896,-744,-894,225,-259
5740,104,-1912,-728,-883,228,-265
5745,136,-1904,-768,-886,222,-267
5750,176,-1992,-760,-889,231,-273
5755,136,-1872,-776,-909,245,-263
5760,160,-1888,-792,-908,239,-285
5765,120,-1816,-800,-892,239,-294
5770,168,-1840,-792,-894,229,-296
5775,144,-1800,-784,-908,222,-315
5780,224,-1888,-824,-922,218,-313
5785,264,-1936,-848,-934,223,-314
5790,104,-1832,-848,-963,236,-289
5795,136,-1776,-856,-973,218,-319
5800,192,-1800,-872,-976,208,-336
5805,232,-1864,-880,-972,215,-342
5810,144,-1792,-872,-982,223,-357
5815,240,-1840,-896,-1005,217,-357
5820,224,-1832,-864,-1020,216,-361
5825,144,-1768,-864,-1046,229,-348
5830,232,-1872,-912,-1044,213,-363
5835,264,-1776,-936,-1043,203,-386
5840,184,-1792,-904,-1038,203,-389
5845,152,-1816,-952,-1034,197,-380
5850,232,-1808,-984,-1052,187,-385
5855,240,-1872,-1016,-1063,191,-396
5860,72,-1760,-992,-1089,195,-367
5865,256,-1840,-1064,-1090,171,-372
5870,248,-1888,-1080,-1119,158,-374
5875,168,-1744,-1064,-1141,158,-428
5880,144,-1704,-1096,-1157,143,-436
5885,200,-1704,-1096,-1162,126,-422
5890,320,-1784,-1112,-1183,112,-430
5895,224,-2000,-1248,-1224,105,-447
5900,384,-1696,-1128,-1292,109,-476
5905,336,-1800,-1128,-1273,132,-426
5910,336,-1800,-1176,-1191,160,-440
5915,368,-1816,-1176,-1143,166,-454
5920,280,-1608,-1152,-1148,178,-494
5925,392,-1624,-1144,-1114,164,-467
5930,408,-1720,-1216,-1043,162,-421
5935,384,-1720,-1256,-1001,177,-406
5940,376,-1888,-1320,-987,185,-411
5945,344,-1576,-1152,-1030,190,-457
5950,368,-1624,-1216,-984,184,-407
5955,288,-1560,-1152,-911,170,-360
5960,288,-1664,-1136,-853,130,-329
5965,328,-1728,-1136,-798,118,-324
5970,304,-1792,-1136,-745,124,-328
5975,296,-1728,-1120,-694,123,-332
5980,328,-1664,-1136,-662,115,-342
5985,408,-1720,-1128,-631,108,-329
5990,336,-1640,-1152,-626,114,-321
5995,368,-1672,-1176,-599,113,-351
6000,352,-1664,-1192,-576,114,-366
6005,240,-1560,-1096,-591,112,-399
6010,488,-1464,-1104,-669,101,-447
6015,392,-1592,-1168,-605,83,-388
6020,424,-1608,-1160,-566,64,-363
6025,448,-1608,-1208,-555,49,-351
6030,440,-1616,-1184,-551,36,-348
6035,448,-1624,-1200,-542,21,-344
6040,488,-1568,-1208,-528,4,-344
6045,504,-1616,-1224,-517,-12,-346
6050,496,-1520,-1264,-517,-30,-354
6055,488,-1552,-1208,-508,-46,-353
6060,472,-1528,-1208,-496,-62,-355
6065,488,-1520,-1240,-483,-76,-359
6070,448,-1520,-1264,-466,-88,-364
6075,432,-1528,-1248,-455,-100,-370
6080,456,-1536,-1248,-443,-116,-372
6085,456,-1608,-1304,-431,-131,-383
6090,440,-1168,-1144,-520,-135,-470
6095,400,-1504,-1224,-456,-146,-410
6100,432,-1504,-1280,-373,-157,-373
6105,424,-1520,-1272,-321,-169,-348
6110,440,-1528,-1272,-285,-185,-330
6115,424,-1568,-1264,-255,-194,-317
6120,424,-1568,-1264,-221,-203,-303
6125,456,-1560,-1264,-185,-212,-292
6130,424,-1568,-1272,-147,-218,-282
6135,448,-1560,-1312,-111,-223,-272
6140,456,-1560,-1288,-79,-226,-265
6145,432,-1520,-1320,-53,-229,-262
6150,464,-1544,-1272,-32,-232,-259
6155,448,-1536,-1272,-16,-235,-256
6160,416,-1504,-1296,-2,-240,-255
6165,440,-1520,-1280,11,-243,-252
6170,416,-1520,-1320,22,-246,-252
6175,376,-1504,-1320,31,-253,-249
6180,400,-1496,-1360,38,-258,-247
6185,384,-1480,-1336,41,-267,-244
6190,384,-1472,-1344,42,-276,-243
6195,344,-1448,-1336,43,-288,-242
6200,384,-1456,-1328,38,-302,-239
6205,360,-1464,-1360,35,-316,-235
6210,352,-1464,-1384,30,-329,-233
6215,344,-1440,-1360,26,-344,-230
6220,360,-1456,-1352,26,-357,-224
6225,368,-1456,-1352,28,-372,-217
6230,392,-1456,-1352,32,-383,-207
6235,376,-1464,-1352,37,-399,-199
6240,384,-1440,-1352,45,-412,-190
6245,392,-1464,-1360,56,-426,-182
6250,400,-1456,-1392,65,-434,-176
6255,392,-1472,-1368,72,-440,-169
6260,400,-1440,-1400,76,-443,-164
6265,384,-1456,-1368,77,-442,-159
6270,368,-1480,-1424,79,-439,-157
6275,416,-1472,-1336,80,-433,-156
6280,384,-1456,-1352,78,-427,-154
6285,344,-1472,-1352,74,-421,-154
6290,384,-1464,-1320,75,-418,-155
6295,368,-1448,-1312,68,-415,-154
6300,360,-1456,-1328,60,-417,-152
6305,352,-1456,-1288,53,-420,-150
6310,312,-1440,-1304,44,-424,-149
6315,328,-1472,-1304,38,-433,-150
6320,312,-1480,-1296,36,-439,-154
6325,352,-1480,-1280,34,-442,-158
6330,320,-1480,-1288,37,-445,-165
6335,336,-1472,-1256,35,-447,-169
6340,296,-1464,-1280,30,-447,-175
6345,304,-1448,-1256,27,-447,-184
6350,312,-1464,-1272,20,-451,-189
6355,280,-1464,-1272,14,-455,-191
6360,304,-1480,-1288,10,-458,-193
6365,264,-1472,-1264,10,-468,-194
6370,272,-1448,-1232,8,-479,-196
6375,272,-1472,-1216,6,-491,-193
6380,208,-1456,-1256,10,-504,-191
6385,272,-1480,-1200,14,-514,-190
6390,264,-1480,-1216,21,-526,-189
6395,280,-1488,-1176,25,-536,-185
6400,312,-1480,-1176,35,-543,-187
6405,256,-1480,-1160,46,-553,-190
6410,256,-1480,-1168,53,-559,-192
6415,240,-1464,-1136,61,-568,-191
6420,232,-1472,-1144,67,-579,-193
6425,208,-1512,-1120,72,-591,-194
6430,216,-1536,-1120,76,-604,-198
6435,168,-1504,-1096,80,-618,-201
6440,192,-1512,-1104,89,-632,-206
6445,168,-1504,-1096,101,-648,-214
6450,168,-1512,-1096,110,-661,-222
6455,184,-1504,-1072,119,-671,-230
6460,152,-1504,-1064,134,-676,-236
6465,120,-1536,-1024,152,-687,-243
6470,128,-1496,-1016,173,-699,-250
6475,160,-1512,-1032,197,-711,-249
6480,120,-1488,-1048,220,-724,-248
6485,152,-1472,-1032,241,-741,-243
6490,112,-1472,-1008,269,-765,-240
6495,112,-1464,-1024,294,-791,-244
6500,136,-1472,-952,312,-815,-237
6505,136,-1480,-952,329,-829,-232
6510,128,-1504,-968,348,-845,-235
6515,128,-1496,-960,365,-866,-243
6520,88,-1544,-1000,378,-882,-251
6525,128,-1584,-968,394,-902,-265
6530,80,-1616,-992,412,-917,-287
6535,104,-1600,-1032,440,-927,-310
6540,56,-1616,-1000,462,-931,-332
6545,40,-1664,-1008,484,-940,-343
6550,0,-1648,-1080,498,-957,-358
6555,-8,-1632,-1064,501,-975,-372
6560,16,-1704,-1128,499,-999,-375
6565,8,-1672,-1136,501,-1019,-376
6570,88,-1680,-1168,499,-1035,-382
6575,128,-1704,-1184,503,-1041,-392
6580,224,-1712,-1216,508,-1047,-405
6585,256,-1744,-1208,519,-1050,-417
6590,304,-1728,-1240,538,-1051,-435
6595,360,-1736,-1248,564,-1062,-451
6600,352,-1752,-1240,608,-1078,-458
6605,328,-1768,-1312,685,-1087,-475
6610,352,-1768,-1320,766,-1096,-496
6615,368,-1808,-1304,821,-1098,-507
6620,328,-1856,-1352,883,-1074,-499
6625,232,-1880,-1344,934,-1036,-473
6630,232,-1968,-1320,952,-992,-431
6635,136,-1984,-1368,956,-948,-377
6640,64,-2072,-1360,956,-906,-310
6645,216,-2064,-1408,935,-870,-241
6650,96,-2136,-1440,885,-827,-171
6655,184,-2160,-1416,834,-799,-100
6660,184,-2280,-1432,767,-779,-35
6665,128,-2184,-1456,685,-756,32
6670,80,-2256,-1440,571,-753,118
6675,48,-2288,-1472,454,-764,191
6680,120,-2280,-1552,367,-769,247
6685,184,-2232,-1488,292,-758,285
6690,64,-2184,-1560,232,-751,318
6695,72,-2104,-1656,184,-743,339
6700,96,-2096,-1592,124,-711,339
6705,40,-2032,-1576,58,-687,318
6710,128,-1984,-1496,-11,-658,287
6715,120,-1960,-1472,-81,-617,271
6720,192,-1944,-1416,-150,-584,265
6725,224,-1896,-1416,-214,-535,263
6730,280,-1880,-1384,-281,-463,280
6735,352,-1832,-1328,-342,-386,287
6740,448,-1792,-1368,-412,-308,312
6745,496,-1728,-1352,-486,-233,328
6750,592,-1736,-1416,-555,-163,348
6755,624,-1672,-1408,-629,-87,368
6760,712,-1680,-1464,-699,4,380
6765,752,-1640,-1448,-777,110,387
6770,728,-1608,-1488,-859,218,377
6775,736,-1584,-1504,-945,327,368
6780,712,-1576,-1544,-1032,438,359
6785,632,-1520,-1584,-1111,553,351
6790,632,-1496,-1616,-1179,668,334
6795,544,-1488,-1656,-1237,778,308
6800,456,-1448,-1632,-1283,879,285
6805,448,-1360,-1704,-1322,940,269
6810,384,-1304,-1704,-1364,986,243
6815,304,-1264,-1784,-1409,1012,215
6820,280,-1240,-1824,-1456,1020,180
6825,216,-1184,-1856,-1522,1017,131
6830,160,-1088,-1896,-1602,997,88
6835,128,-1080,-1904,-1677,948,59
6840,152,-1040,-1896,-1740,878,29
6845,112,-992,-1976,-1787,800,-9
6850,80,-968,-1960,-1848,718,-43
6855,64,-960,-1960,-1916,609,-85
6860,88,-976,-1984,-1985,488,-133
6865,-8,-1000,-1840,-2054,358,-178
6870,-32,-1064,-1824,-2092,188,-220
6875,-112,-1048,-1704,-2133,27,-271
6880,-144,-1104,-1680,-2169,-142,-315
6885,-224,-1144,-1640,-2214,-313,-344
6890,-288,-1192,-1584,-2260,-481,-372
6895,-384,-1192,-1464,-2288,-658,-394
6900,-392,-1232,-1432,-2293,-849,-399
6905,-432,-1240,-1392,-2283,-1034,-389
6910,-408,-1256,-1296,-2265,-1201,-371
6915,-456,-1192,-1304,-2234,-1350,-343
6920,-368,-1200,-1248,-2191,-1486,-311
6925,-344,-1192,-1272,-2145,-1604,-273
6930,-288,-1152,-1232,-2108,-1704,-235
6935,-184,-1072,-1216,-2076,-1777,-200
6940,-104,-1056,-1200,-2052,-1827,-172
6945,-8,-984,-1184,-2034,-1859,-154
6950,80,-928,-1200,-2028,-1874,-147
6955,192,-904,-1168,-2029,-1882,-141
6960,304,-808,-1176,-2027,-1878,-144
6965,384,-776,-1168,-2034,-1865,-147
6970,472,-728,-1144,-2045,-1861,-160
6975,512,-688,-1176,-2043,-1852,-183
6980,544,-680,-1160,-2039,-1826,-200
6985,568,-656,-1144,-2031,-1801,-213
6990,560,-656,-1184,-2023,-1791,-229
6995,568,-656,-1168,-2014,-1790,-244
7000,544,-664,-1152,-1999,-1786,-252
7005,496,-632,-1168,-1981,-1785,-260
7010,480,-680,-1144,-1961,-1784,-265
7015,424,-704,-1104,-1947,-1783,-276
7020,352,-776,-1064,-1937,-1793,-282
7025,232,-808,-1096,-1916,-1818,-281
7030,120,-808,-1024,-1888,-1856,-267
7035,32,-864,-984,-1845,-1915,-252
7040,-40,-832,-952,-1797,-1984,-247
7045,-72,-896,-896,-1754,-2057,-237
7050,-200,-896,-872,-1692,-2138,-224
7055,-224,-912,-824,-1617,-2234,-215
7060,-320,-896,-792,-1543,-2341,-215
7065,-376,-896,-784,-1465,-2463,-225
7070,-384,-840,-784,-1390,-2595,-224
7075,-440,-768,-696,-1348,-2721,-215
7080,-512,-672,-640,-1305,-2847,-186
7085,-512,-632,-592,-1252,-2969,-142
7090,-576,-576,-416,-1195,-3079,-107
7095,-592,-488,-248,-1130,-3183,-84
7100,-640,-448,-120,-1068,-3276,-74
7105,-688,-376,16,-1026,-3336,-92
7110,-840,-344,112,-999,-3369,-140
7115,-992,-360,104,-985,-3375,-214
7120,-1048,-432,16,-983,-3348,-310
7125,-1160,-472,-216,-1010,-3293,-430
7130,-1304,-616,-496,-1083,-3213,-571
7135,-1520,-752,-848,-1192,-3139,-727
7140,-1608,-960,-1112,-1295,-3099,-870
7145,-1664,-1112,-1320,-1304,-3092,-1020
7150,-1752,-1280,-1496,-1182,-3065,-1176
7155,-1848,-1368,-1688,-948,-2997,-1297
7160,-1872,-1408,-1752,-643,-2925,-1368
7165,-1904,-1376,-1648,-303,-2897,-1395
7170,-1848,-1248,-1568,41,-2964,-1386
7175,-1880,-1080,-1496,360,-3109,-1352
7180,-1912,-816,-1512,620,-3296,-1286
7185,-1984,-448,-1480,791,-3505,-1189
7190,-1968,-72,-1496,865,-3721,-1044
7195,-1920,248,-1560,843,-3938,-871
7200,-2192,528,-1576,745,-4140,-707
7205,-2488,776,-1528,573,-4310,-560
7210,-2504,1032,-1664,395,-4485,-409
7215,-2656,1344,-1712,209,-4604,-243
7220,-2856,1632,-1888,16,-4667,-5
7225,-3184,1864,-1728,-123,-4714,331
7230,-3288,2200,-2120,-98,-4743,775
7235,-3376,2496,-2424,-85,-4660,1283
7240,-3472,2616,-2832,-100,-4521,1832
7245,-3992,2264,-3216,-225,-4359,2355
7250,-5640,1752,-3136,-634,-4194,2689
7255,-7376,1720,-2696,-1289,-4143,2893
7260,-8056,1440,-1784,-1949,-4277,3097
7265,-8064,1424,-1184,-2343,-4527,3278
7270,-7432,1312,-848,-2449,-4756,3489
7275,-6464,1256,-512,-2314,-4837,3811
7280,-5360,1128,-304,-1900,-4626,4173
7285,-4296,888,-392,-1285,-4114,4436
7290,-3352,624,-480,-674,-3395,4532
7295,-2792,392,-448,-262,-2592,4474
7300,-2688,248,-448,-107,-1850,4328
7305,-2928,0,-624,-125,-1203,4168
7310,-3208,-376,-784,-192,-708,4009
7315,-3464,-832,-1008,-190,-467,3762
7320,-3552,-1336,-1296,-77,-550,3382
7325,-3312,-1752,-1456,205,-908,2919
7330,-2712,-1952,-1416,734,-1376,2383
7335,-2000,-1672,-1368,1420,-1735,1851
7340,-1248,-1200,-1056,1961,-1749,1383
7345,-616,-816,-528,2311,-1413,927
7350,-208,-272,-96,2606,-930,458
7355,80,344,144,2856,-464,21
7360,32,1008,256,3025,-42,-366
7365,-40,1568,312,3090,369,-677
7370,-208,2032,312,3022,774,-937
7375,-608,2544,296,2880,1109,-1181
7380,-952,2864,240,2603,1306,-1388
7385,-1288,3056,136,2191,1297,-1524
7390,-1512,3144,-16,1613,1114,-1518
7395,-1576,3064,-96,904,776,-1376
7400,-1656,2760,-248,153,332,-1139
7405,-1888,2400,-368,-503,-126,-874
7410,-1944,2024,-496,-993,-440,-640
7415,-2008,1696,-536,-1355,-726,-452
7420,-2136,1304,-496,-1627,-909,-290
7425,-2248,960,-416,-1770,-1020,-130
7430,-2136,608,-296,-1790,-1063,4
7435,-2032,256,-264,-1689,-1057,102
7440,-1928,72,-136,-1495,-995,148
7445,-2024,-24,200,-1244,-938,159
7450,-1744,-144,384,-954,-952,172
7455,-1544,-152,584,-653,-982,202
7460,-1352,-72,856,-386,-1027,207
7465,-1224,8,1064,-155,-1111,198
7470,-1032,120,1248,34,-1216,178
7475,-920,352,1328,191,-1329,144
7480,-792,592,1272,296,-1412,124
7485,-752,840,1192,350,-1439,123
7490,-832,1064,984,364,-1396,135
7495,-928,1136,800,336,-1276,164
7500,-1280,1128,728,251,-1134,176
7505,-1528,1080,672,147,-1047,182
7510,-1688,1000,536,56,-1007,195
7515,-1880,896,520,-26,-993,214
7520,-2024,800,488,-86,-974,234
7525,-2144,752,456,-95,-938,270
7530,-2296,696,408,-52,-889,304
7535,-2416,632,352,21,-830,327
7540,-2488,688,336,117,-756,335
7545,-2488,712,352,226,-673,347
7550,-2496,720,416,325,-573,355
7555,-2416,744,376,415,-452,354
7560,-2312,736,456,489,-317,340
7565,-2184,728,440,545,-185,309
7570,-2064,720,448,586,-61,258
7575,-2000,712,384,619,56,183
7580,-1936,664,344,650,157,91
7585,-1896,688,264,681,229,-12
7590,-1952,784,208,718,268,-117
7595,-1976,784,120,752,276,-220
7600,-2040,816,64,784,266,-310
7605,-2032,808,40,811,259,-390
7610,-2064,848,32,817,263,-452
7615,-2056,800,16,792,286,-500
7620,-2080,736,64,753,326,-529
7625,-2064,680,72,723,367,-541
7630,-2032,656,80,704,412,-542
7635,-2008,616,88,695,460,-539
7640,-1968,600,88,670,507,-525
7645,-1952,536,104,637,547,-513
7650,-1912,472,128,610,576,-483
7655,-1864,456,208,595,587,-453
7660,-1920,424,136,588,580,-437
7665,-1904,440,80,578,563,-421
7670,-1888,376,48,544,556,-398
7675,-1904,320,88,511,542,-379
7680,-1904,312,48,490,517,-361
7685,-1928,344,40,479,498,-341
7690,-1920,312,8,476,487,-321
7695,-1944,320,0,474,487,-306
7700,-1984,304,-16,475,500,-301
7705,-1952,304,-16,474,525,-300
7710,-1984,296,-56,471,570,-299
7715,-1984,272,-72,476,621,-303
7720,-1992,296,-112,488,674,-313
7725,-1992,256,-144,506,727,-331
7730,-2008,296,-120,518,786,-349
7735,-1984,320,-192,536,840,-348
7740,-1968,312,-232,550,884,-351
7745,-1928,272,-256,549,934,-362
7750,-1952,248,-264,538,994,-362
7755,-2000,168,-280,532,1044,-363
7760,-2016,160,-312,531,1068,-369
7765,-2056,80,-304,531,1065,-371
7770,-2048,80,-336,539,1048,-367
7775,-2072,64,-360,556,1022,-359
7780,-2016,32,-488,571,1002,-354
7785,-2104,64,-496,549,1018,-332
7790,-2360,72,-448,521,1038,-292
7795,-2352,96,-496,517,1024,-225
7800,-2256,136,-592,505,996,-162
7805,-2240,176,-616,476,1000,-116
7810,-2240,240,-608,439,1021,-88
7815,-2112,312,-704,408,1045,-61
7820,-2080,336,-752,378,1078,-36
7825,-2240,344,-648,328,1099,-26
7830,-2160,360,-624,293,1063,-15
7835,-2040,376,-648,269,1019,-16
7840,-1936,352,-640,237,1005,-28
7845,-1792,216,-552,203,1004,-61
7850,-1840,384,-608,227,996,-112
7855,-1816,240,-568,280,971,-99
7860,-1808,296,-568,317,918,-112
7865,-1848,304,-552,320,859,-138
7870,-1816,336,-568,307,811,-151
7875,-1832,352,-592,289,771,-171
7880,-1864,360,-592,271,740,-193
7885,-1856,320,-664,245,712,-205
7890,-1920,344,-648,209,678,-214
7895,-1944,288,-688,163,638,-217
7900,-1968,304,-696,113,601,-215
7905,-1976,272,-744,65,558,-211
7910,-1992,248,-768,14,520,-206
7915,-2080,216,-760,-30,485,-197
7920,-2088,208,-816,-59,443,-182
7925,-2064,208,-856,-87,405,-164
7930,-2096,184,-856,-116,378,-151
7935,-2112,184,-840,-131,353,-138
7940,-2152,184,-888,-140,319,-124
7945,-2176,216,-888,-148,281,-114
7950,-2136,200,-904,-146,244,-104
7955,-2144,184,-944,-143,216,-100
7960,-2168,184,-936,-145,197,-103
7965,-2152,192,-952,-146,173,-109
7970,-2152,168,-944,-147,150,-116
7975,-2136,208,-920,-148,134,-124
7980,-2232,208,-928,-147,120,-131
7985,-2112,208,-872,-147,104,-133
7990,-2088,176,-808,-148,88,-141
7995,-2064,160,-776,-150,75,-145
8000,-2072,144,-704,-138,67,-147
8005,-2048,120,-752,-108,57,-146
8010,-2040,128,-736,-94,49,-131
8015,-2080,128,-720,-105,42,-118
8020,-2072,128,-696,-114,19,-109
8025,-2048,128,-672,-123,-13,-104
8030,-2048,112,-656,-126,-29,-94
8035,-2040,120,-672,-111,-44,-91
8040,-2024,88,-632,-104,-49,-82
8045,-2000,112,-632,-103,-52,-68
8050,-2008,80,-552,-105,-44,-58
8055,-2000,72,-552,-90,-52,-48
8060,-1984,72,-552,-68,-60,-37
8065,-1968,64,-552,-45,-58,-29
8070,-1936,72,-552,-33,-50,-10
8075,-1944,96,-512,-32,-41,9
8080,-1984,168,-552,-26,-28,33
8085,-1944,72,-544,-25,-24,71
8090,-1944,120,-568,-43,-26,81
8095,-1952,120,-552,-67,-20,84
8100,-1984,160,-576,-85,-17,89
8105,-1968,160,-568,-92,-16,102
8110,-1960,184,-624,-91,-14,113
8115,-1968,168,-592,-91,-12,121
8120,-1992,216,-616,-91,-11,126
8125,-1992,208,-592,-95,-16,129
8130,-1992,208,-616,-104,-17,127
8135,-2024,232,-632,-114,-17,120
8140,-2040,240,-624,-119,-18,114
8145,-2048,288,-648,-122,-20,106
8150,-2056,248,-672,-124,-21,94
8155,-2048,288,-664,-129,-19,84
8160,-2064,272,-672,-140,-13,78
8165,-2072,240,-648,-152,-16,67
8170,-2056,264,-648,-159,-24,59
8175,-2016,232,-656,-161,-31,48
8180,-2048,240,-648,-163,-33,45
8185,-2040,208,-632,-163,-37,44
8190,-2032,216,-632,-157,-44,39
8195,-2016,240,-624,-152,-51,38
8200,-2016,248,-632,-146,-57,36
8205,-2024,232,-608,-141,-64,36
8210,-2024,240,-592,-131,-71,31
8215,-2008,224,-608,-118,-76,28
8220,-2032,240,-592,-105,-86,26
8225,-2016,240,-600,-96,-95,23
8230,-2008,240,-568,-91,-100,21
8235,-2000,224,-560,-87,-109,18
8240,-1992,216,-544,-79,-115,12
8245,-2000,232,-536,-71,-117,11
8250,-1984,240,-544,-63,-119,11
8255,-2008,224,-560,-56,-117,9
8260,-1992,264,-528,-51,-109,9
8265,-1992,248,-520,-47,-99,10
8270,-1984,256,-504,-42,-87,9
8275,-1992,256,-472,-36,-72,10
8280,-1960,264,-480,-34,-56,11
8285,-1976,256,-464,-35,-40,9
8290,-2000,256,-472,-36,-23,9
8295,-1984,240,-472,-37,-10,9
8300,-1984,280,-504,-41,2,11
8305,-1976,272,-464,-45,14,12
8310,-1928,232,-464,-52,21,14
8315,-1944,240,-456,-57,27,16
8320,-1952,248,-480,-60,34,16
8325,-1944,248,-464,-61,42,15
8330,-1968,248,-432,-59,51,11
8335,-1960,248,-456,-55,57,8
8340,-1968,264,-488,-52,64,5
8345,-1968,256,-464,-47,75,-1
8350,-1968,256,-464,-44,85,-6
8355,-1984,272,-472,-41,94,-13
8360,-1976,272,-504,-38,99,-21
8365,-1976,248,-504,-38,107,-29
8370,-1992,256,-504,-37,113,-37
8375,-1952,264,-528,-38,115,-44
8380,-1992,264,-528,-38,115,-48
8385,-1952,240,-528,-38,114,-52
8390,-2024,256,-528,-38,118,-55
8395,-1976,208,-512,-39,118,-56
8400,-2000,232,-512,-36,116,-60
8405,-1984,208,-520,-31,120,-61
8410,-2024,216,-520,-24,121,-60
8415,-2048,184,-560,-19,121,-57
8420,-2024,200,-560,-17,123,-57
8425,-2024,200,-568,-12,125,-54
8430,-2032,208,-544,-6,129,-54
8435,-2016,248,-568,-2,130,-50
8440,-2008,208,-568,2,133,-47
8445,-1992,224,-544,3,135,-43
8450,-2000,208,-592,6,135,-39
8455,-1992,232,-600,8,134,-35
8460,-1992,192,-576,10,132,-32
8465,-1992,240,-584,12,127,-28
8470,-1984,200,-608,12,123,-24
8475,-2008,208,-584,14,116,-21
8480,-1992,216,-568,16,107,-16
8485,-1992,224,-608,18,102,-10
8490,-2008,216,-608,21,94,-5
8495,-2000,216,-584,23,85,0
8500,-1992,208,-592,24,76,5
8505,-1976,216,-568,28,66,8
8510,-2008,208,-568,29,56,13
8515,-1976,208,-600,30,45,19
8520,-2024,208,-600,32,37,23
8525,-2008,216,-616,36,29,26
8530,-2000,224,-592,38,21,30
8535,-1992,224,-584,41,17,31
8540,-2016,256,-592,44,12,31
8545,-2000,256,-584,43,11,33
8550,-2000,224,-544,43,12,33
8555,-2000,232,-560,41,13,30
8560,-2000,248,-544,36,14,30
8565,-2016,232,-560,27,17,28
8570,-2008,264,-536,20,20,28
8575,-2008,240,-528,9,22,26
8580,-2000,248,-560,-1,26,23
8585,-1992,248,-560,-13,29,23
8590,-1992,256,-520,-23,34,22
8595,-2008,240,-544,-29,39,20
8600,-2016,248,-520,-30,44,19
8605,-2024,224,-552,-31,51,19
8610,-2016,224,-544,-31,57,21
8615,-2024,216,-560,-28,61,23
8620,-2032,216,-576,-24,66,25
8625,-2024,208,-592,-21,68,27
8630,-2024,240,-560,-18,70,30
8635,-2024,224,-576,-16,69,31
8640,-2040,216,-552,-15,68,31
8645,-2032,224,-504,-15,65,34
8650,-2040,256,-576,-13,62,35
8655,-2024,248,-568,-14,58,36
8660,-2024,240,-584,-14,54,36
8665,-2008,264,-544,-14,51,35
8670,-2008,224,-560,-10,48,35
8675,-2032,256,-552,-5,47,34
8680,-1984,232,-568,0,48,32
8685,-2000,216,-528,8,47,32
8690,-2024,240,-568,17,49,29
8695,-2008,264,-544,21,50,29
8700,-2008,232,-536,24,48,28
8705,-1984,248,-528,26,47,27
8710,-2000,256,-528,26,47,27
8715,-2000,256,-544,25,47,26
8720,-2008,272,-544,21,46,24
8725,-2016,256,-544,17,45,23
8730,-1992,264,-544,14,46,20
8735,-2024,272,-536,13,46,18
8740,-2008,312,-544,15,48,16
8745,-2008,248,-536,17,49,12
8750,-2008,248,-504,21,53,10
8755,-2008,240,-528,24,55,8
8760,-2016,248,-560,30,59,6
8765,-2040,264,-568,38,60,5
8770,-2016,248,-536,43,63,5
8775,-2008,240,-536,45,65,5
8780,-2016,272,-560,47,64,4
8785,-2024,256,-560,50,64,4
8790,-2008,264,-536,48,63,5
8795,-1992,256,-544,44,64,3
8800,-2016,280,-560,39,66,1
8805,-2016,272,-536,34,67,0
8810,-1992,240,-560,30,69,-2
8815,-2000,232,-552,23,69,-6
8820,-2008,248,-560,18,67,-5
8825,-1992,240,-560,17,66,-8
8830,-1976,224,-528,17,66,-7
8835,-2000,216,-544,19,66,-8
8840,-2016,232,-544,19,67,-8
8845,-2000,208,-528,22,67,-6
8850,-2000,248,-552,31,65,-5
8855,-1992,240,-584,40,64,-1
8860,-2000,232,-552,40,65,0
8865,-2000,240,-568,39,63,2
8870,-2016,216,-552,37,62,4
8875,-2024,248,-552,35,56,7
8880,-1984,224,-552,33,50,8
8885,-2024,248,-576,30,43,7
8890,-2000,216,-536,26,38,8
8895,-2008,232,-584,21,34,10
8900,-2032,256,-584,18,31,9
8905,-2008,256,-576,18,26,6
8910,-1976,232,-552,17,25,9
8915,-2032,248,-528,16,24,11
8920,-2024,240,-560,15,24,11
8925,-2016,248,-560,14,26,11
8930,-2008,224,-552,14,26,7
8935,-2040,248,-528,12,25,8
8940,-2008,232,-560,11,25,10
8945,-2008,216,-544,10,24,10
8950,-2000,232,-576,13,21,5
8955,-2000,224,-552,13,20,8
8960,-2000,224,-528,13,21,10
8965,-2008,232,-544,16,20,11
8970,-2016,248,-584,18,17,13
8975,-2008,240,-544,17,18,13
8980,-1992,240,-536,15,18,12
8985,-1992,248,-528,19,18,10
8990,-2000,232,-544,20,16,9
8995,-2024,248,-544,22,15,5
9000,-2008,272,-504,21,10,3
9005,-2016,248,-528,17,7,9
9010,-2016,280,-520,12,5,10
9015,-2000,256,-520,11,3,9
9020,-2008,256,-504,10,3,10
9025,-2032,256,-520,8,7,10
9030,-2016,248,-512,4,9,9
9035,-2032,248,-536,2,13,7
9040,-2032,240,-520,2,17,8
9045,-2024,280,-528,3,23,6
9050,-2032,256,-536,3,27,7
9055,-2000,240,-520,1,30,7
9060,-2008,240,-512,-3,33,4
9065,-2016,272,-496,-4,38,3
9070,-2016,248,-520,-4,42,1
9075,-2000,240,-496,-2,48,-1
9080,-2016,264,-512,-2,55,-3
9085,-2008,232,-520,-4,61,-4
9090,-2000,216,-512,-6,66,-5
9095,-2008,256,-536,-5,69,-5
9100,-2032,256,-520,-3,71,-5
9105,-2016,232,-504,-3,67,-5
9110,-2032,256,-496,-5,64,-3
9115,-2000,248,-536,-3,64,-1
9120,-2008,232,-512,-3,63,-3
9125,-2008,240,-536,-3,64,-4
9130,-1992,224,-504,-5,63,-4
9135,-2016,264,-536,-5,61,-6
9140,-2000,264,-520,-8,59,-7
9145,-2024,240,-520,-10,58,-8
9150,-2024,240,-536,-9,59,-7
9155,-2016,248,-536,-9,61,-6
9160,-2000,232,-536,-9,63,-5
9165,-2016,248,-520,-9,62,-3
9170,-2016,224,-552,-9,60,-2
9175,-2024,248,-512,-5,60,0
9180,-2032,240,-520,-5,63,1
9185,-2000,232,-544,-5,65,1
9190,-2024,248,-536,-4,66,1
9195,-2056,232,-504,-2,63,-4
9200,-1992,256,-536,-3,57,-1
9205,-2008,216,-488,-8,60,3
9210,-2000,240,-496,-9,66,3
9215,-2000,248,-552,-7,68,3
9220,-2016,232,-536,-7,71,2
9225,-2008,248,-528,-7,70,1
9230,-2016,248,-496,-7,69,2
9235,-2016,248,-536,-8,67,2
9240,-2024,240,-496,-10,62,0
9245,-1984,216,-520,-10,60,0
9250,-2000,248,-520,-10,60,0
9255,-2000,232,-536,-10,59,2
9260,-2016,240,-520,-13,58,2
9265,-1992,232,-528,-13,57,2
9270,-2008,256,-520,-12,57,5
9275,-2008,240,-512,-12,53,5
9280,-2008,272,-488,-13,53,7
9285,-2016,232,-536,-13,52,8
9290,-2016,264,-504,-13,52,7
9295,-2000,224,-512,-13,51,7
9300,-2032,256,-504,-7,51,6
9305,-2000,232,-520,-6,53,10
9310,-2008,224,-536,-6,55,9
9315,-2040,216,-520,-8,56,10
9320,-2000,224,-536,-6,55,10
9325,-2016,248,-512,-6,58,10
9330,-2016,240,-528,-8,60,11
9335,-2024,240,-520,-8,63,9
9340,-2016,256,-536,-7,63,9
9345,-1992,248,-528,-5,65,10
9350,-2008,248,-536,-5,67,10
9355,-2024,248,-496,-6,67,11
9360,-1976,248,-512,-3,67,10
9365,-2008,256,-536,-2,67,9
9370,-2000,256,-520,-4,63,8
9375,-2016,272,-528,-7,58,7
9380,-2008,264,-560,-9,55,6
9385,-2016,264,-544,-12,49,5
9390,-2024,264,-528,-13,44,3
9395,-1960,288,-536,-14,39,4
9400,-2024,248,-512,-14,36,3
9405,-1992,256,-536,-17,33,3
9410,-2024,256,-512,-17,36,2
9415,-2016,248,-512,-18,42,0
9420,-2016,280,-480,-18,50,-2
9425,-2016,264,-488,-17,54,-5
9430,-2000,264,-504,-13,60,-8
9435,-2000,240,-496,-12,67,-11
9440,-2000,264,-504,-14,72,-13
9445,-1976,256,-520,-14,75,-13
9450,-2016,232,-520,-13,76,-14
9455,-2008,264,-496,-14,75,-11
9460,-2016,240,-544,-13,72,-9
9465,-2032,248,-520,-10,70,-7
9470,-2016,256,-504,-8,67,-2
9475,-2016,256,-512,0,70,5
9480,-2040,240,-488,6,71,1
9485,-2032,272,-520,1,64,-2
9490,-1984,248,-504,-8,56,-2
9495,-2000,264,-512,-13,51,-2
9500,-2008,232,-504,-13,53,-6
9505,-1992,240,-512,-11,53,-6
9510,-2008,264,-488,-9,54,-10
9515,-2016,280,-472,-9,56,-16
9520,-2016,272,-512,-8,61,-22
9525,-2008,248,-512,-7,66,-31
9530,-2024,272,-520,-6,70,-38
9535,-2024,272,-520,-5,74,-44
9540,-2008,264,-528,-5,76,-48
9545,-2016,248,-504,-6,81,-52
9550,-2024,264,-560,-7,86,-55
9555,-2016,272,-528,-10,89,-58
9560,-2048,248,-544,-10,92,-60
9565,-2024,224,-528,-10,96,-61
9570,-2040,232,-552,-12,97,-59
9575,-2016,248,-552,-14,100,-57
9580,-2024,248,-528,-18,100,-53
9585,-2024,216,-512,-23,101,-50
9590,-2008,208,-520,-26,100,-46
9595,-2008,232,-512,-24,95,-43
9600,-2008,216,-512,-20,90,-38
9605,-2000,224,-496,-17,85,-34
9610,-1984,240,-520,-12,80,-31
9615,-1984,232,-488,-12,74,-28
9620,-1992,216,-512,-11,71,-24
9625,-2000,232,-520,-12,69,-24
9630,-2024,224,-496,-13,64,-22
9635,-2008,232,-528,-14,62,-19
9640,-2016,240,-520,-14,60,-18
9645,-2024,232,-512,-13,58,-18
9650,-2008,248,-504,-10,56,-19
9655,-2000,248,-512,-7,58,-18
9660,-2000,216,-536,-8,61,-19
9665,-2008,224,-528,-10,63,-16
9670,-2000,256,-528,-10,64,-17
9675,-2008,216,-528,-10,66,-15
9680,-2016,232,-544,-11,69,-14
9685,-2008,240,-528,-10,70,-12
9690,-2032,256,-520,-11,69,-10
9695,-2008,208,-520,-14,68,-9
9700,-2024,232,-520,-13,67,-6
9705,-2008,224,-520,-13,68,-5
9710,-2024,248,-544,-13,69,-4
9715,-2000,248,-512,-12,68,-3
9720,-2008,224,-536,-10,67,-4
9725,-2024,232,-568,-10,66,-4
9730,-2000,248,-520,-11,65,-2
9735,-2024,240,-512,-11,62,-3
9740,-2000,248,-536,-12,61,-4
9745,-2016,240,-512,-13,61,-4
9750,-2000,248,-520,-13,60,-5
9755,-2016,224,-528,-13,61,-5
9760,-2016,240,-512,-14,61,-6
9765,-2008,240,-504,-12,63,-7
9770,-2016,232,-520,-15,63,-9
9775,-2024,264,-528,-14,63,-10
9780,-2016,240,-536,-14,64,-9
9785,-2016,240,-536,-15,64,-9
9790,-2016,224,-528,-14,66,-7
9795,-2000,216,-504,-13,66,-6
9800,-2008,256,-528,-14,67,-5
9805,-2016,216,-528,-16,67,-4
9810,-2008,216,-488,-16,69,-1
9815,-2032,232,-488,-17,69,0
9820,-2008,224,-512,-16,70,0
9825,-2008,240,-536,-16,70,0
9830,-2000,280,-544,-17,69,-1
9835,-2000,232,-488,-18,69,0
9840,-2016,224,-512,-16,68,1
9845,-1992,224,-512,-16,69,-1
9850,-2032,232,-512,-16,67,0
9855,-2032,240,-536,-15,66,1
9860,-2008,224,-544,-14,67,1
9865,-2032,224,-496,-13,68,2
9870,-2032,208,-528,-12,68,1
9875,-2008,232,-520,-13,68,0
9880,-2008,216,-528,-14,67,1
9885,-2016,232,-496,-14,66,2
9890,-2024,256,-520,-15,65,0
9895,-2008,224,-520,-16,66,0
9900,-2008,216,-512,-16,64,1
9905,-2000,224,-528,-14,65,1
9910,-2008,208,-512,-13,66,-1
9915,-2024,248,-488,-12,67,-1
9920,-2008,248,-520,-12,66,-1
9925,-2000,248,-504,-14,67,-2
9930,-2016,256,-512,-13,69,-2
9935,-2008,248,-536,-13,68,-3
9940,-2000,264,-504,-11,69,-2
9945,-2024,232,-504,-12,69,-2
9950,-2016,240,-544,-13,69,-3
9955,-2024,240,-496,-12,69,-2
9960,-1992,216,-528,-14,71,-2
9965,-2000,200,-528,-13,72,-3
9970,-2008,208,-528,-13,71,-2
9975,-2032,248,-520,-13,71,-2
9980,-2040,240,-488,-13,70,-2
9985,-2016,240,-544,-13,71,-1
9990,-2016,248,-520,-14,72,-3
9995,-2040,264,-520,-15,73,-1
10000,-2016,208,-544,-14,75,-2
10005,-2024,256,-512,-12,76,-3
10010,-2024,256,-536,-13,76,-2
10015,-2000,216,-504,-14,78,-3
10020,-2024,224,-512,-16,78,-2
10025,-2024,240,-528,-15,77,-2
10030,-2000,224,-504,-16,77,-3
10035,-2024,224,-520,-14,77,-2
10040,-2024,240,-472,-13,77,-2
10045,-2000,232,-528,-12,78,-3
10050,-2024,240,-512,-10,78,-3
10055,-2016,248,-512,-9,76,-3
10060,-2024,248,-496,-10,77,-4
10065,-2000,200,-528,-8,74,-2
10070,-2024,216,-496,-9,75,-2
10075,-2024,232,-536,-9,75,-1
10080,-2032,232,-544,-11,73,1
10085,-2032,192,-512,-10,72,2
10090,-2024,224,-520,-10,73,4
10095,-1992,224,-536,-9,74,4
10100,-2016,264,-480,-8,76,5
10105,-2024,232,-512,-6,77,6
10110,-2000,224,-544,-8,83,7
10115,-2016,232,-520,-11,86,6
10120,-1992,248,-520,-14,87,7
10125,-2032,264,-536,-17,86,5
10130,-2016,272,-528,-17,84,5
10135,-2000,248,-520,-16,83,3
10140,-2008,272,-528,-17,81,2
10145,-2016,240,-512,-18,77,-1
10150,-2008,248,-512,-19,76,-2
10155,-2024,200,-480,-20,77,-2
10160,-2016,240,-520,-20,74,-3
10165,-2024,248,-520,-19,76,-4
10170,-1984,208,-552,-20,76,-5
10175,-2008,224,-504,-20,77,-5
10180,-2016,232,-520,-21,78,-6
10185,-2008,208,-496,-19,82,-6
10190,-2024,240,-512,-20,83,-5
10195,-2024,256,-512,-20,87,-6
10200,-2016,240,-512,-20,90,-5
10205,-1984,224,-512,-19,90,-5
10210,-2016,224,-512,-18,93,-6
10215,-2016,248,-512,-17,92,-5
10220,-2016,248,-488,-18,92,-6
10225,-2024,240,-520,-17,91,-5
10230,-2000,232,-528,-17,91,-6
10235,-2016,248,-536,-19,89,-7
10240,-2008,232,-520,-20,86,-6
10245,-1992,240,-560,-19,85,-7
10250,-2016,232,-544,-18,84,-9
10255,-2024,264,-520,-19,84,-9
10260,-2032,240,-544,-19,84,-10
10265,-2000,208,-512,-18,85,-9
10270,-2008,264,-528,-17,87,-10
10275,-1984,248,-512,-16,89,-11
10280,-2032,240,-536,-16,92,-11
10285,-2008,240,-512,-16,95,-12
10290,-2024,272,-512,-13,101,-12
10295,-2016,248,-496,-14,101,-15
10300,-2008,224,-520,-15,101,-15
10305,-2000,232,-544,-20,102,-15
10310,-1992,232,-520,-22,103,-14
10315,-2008,256,-552,-25,103,-13
10320,-2016,240,-544,-27,102,-13
10325,-2008,208,-520,-28,101,-12
10330,-2008,208,-536,-32,101,-10
10335,-2008,208,-504,-32,99,-11
10340,-2024,232,-528,-33,97,-12
10345,-2008,216,-552,-31,98,-10
10350,-2008,224,-544,-32,98,-11
10355,-2024,224,-528,-30,98,-11
10360,-1992,200,-544,-29,100,-9
10365,-2032,224,-504,-28,99,-9
10370,-2016,224,-528,-27,98,-6
10375,-1984,240,-576,-28,99,-6
10380,-2024,232,-552,-27,97,-4
10385,-2016,240,-544,-26,98,-4
10390,-2024,232,-528,-27,98,-4
10395,-2000,232,-528,-28,98,-2
10400,-1992,240,-568,-30,97,-1
10405,-2008,232,-528,-34,97,-2
10410,-2024,248,-520,-35,95,-3
10415,-2000,248,-552,-35,95,-5
10420,-2016,272,-544,-35,95,-6
10425,-2040,264,-552,-38,92,-6
10430,-2000,224,-536,-35,91,-7
10435,-2000,216,-560,-33,89,-9
10440,-2000,224,-552,-30,87,-9
10445,-2008,232,-536,-26,86,-9
10450,-2008,240,-560,-22,85,-8
10455,-2024,232,-528,-19,85,-8
10460,-1984,208,-552,-16,84,-6
10465,-2008,232,-584,-12,81,-3
10470,-2024,216,-544,-8,78,-3
10475,-2008,224,-536,-6,73,0
10480,-1976,224,-576,-4,71,2
10485,-2016,248,-568,-5,66,4
10490,-2000,248,-536,-5,62,7
10495,-2016,208,-552,-5,60,8
10500,-2016,224,-552,-4,57,7
10505,-2000,232,-544,-2,55,7
10510,-2008,232,-536,0,56,9
10515,-2040,240,-576,2,56,9
10520,-2008,240,-536,4,57,8
10525,-2016,232,-560,5,59,6
10530,-2008,216,-552,6,62,5
10535,-2032,264,-528,8,66,5
10540,-2000,256,-544,7,69,4
10545,-2016,240,-552,5,72,3
10550,-2000,248,-544,4,72,1
10555,-1992,248,-528,3,74,0
10560,-1976,224,-520,1,75,-1
10565,-2008,248,-528,-1,78,-2
10570,-2016,248,-512,-1,80,-1
10575,-2000,248,-536,-1,81,-2
10580,-2008,240,-528,-2,81,-2
10585,-1992,232,-504,-2,82,-3
10590,-1984,224,-544,-3,84,-4
10595,-2008,248,-520,-4,84,-6
10600,-2008,224,-544,-7,86,-7
10605,-2024,256,-552,-9,87,-9
10610,-2000,240,-544,-14,89,-7
10615,-2016,248,-536,-16,91,-8
10620,-1992,248,-544,-14,92,-10
10625,-2008,216,-512,-11,93,-9
10630,-2000,232,-536,-11,95,-11
10635,-1992,248,-568,-10,97,-13
10640,-2000,248,-520,-11,98,-12
10645,-2000,224,-568,-14,98,-12
10650,-1992,224,-560,-15,98,-12
10655,-2016,240,-552,-14,100,-12
10660,-1984,216,-528,-13,98,-12
10665,-2016,240,-576,-13,99,-12
10670,-1992,224,-520,-15,99,-10
10675,-2024,224,-528,-18,97,-10
10680,-2032,248,-560,-17,96,-12
10685,-2000,208,-560,-15,96,-10
10690,-1992,232,-576,-15,95,-10
10695,-2024,248,-544,-15,94,-10
10700,-2016,248,-544,-13,93,-9
10705,-2032,232,-560,-14,94,-9
10710,-1992,248,-552,-14,93,-10
10715,-2016,248,-576,-12,94,-9
10720,-2000,240,-568,-14,93,-11
10725,-2016,256,-552,-18,93,-10
10730,-2000,232,-560,-19,93,-13
10735,-2000,232,-552,-18,90,-15
10740,-2016,216,-552,-19,92,-15
10745,-2016,240,-584,-19,90,-18
10750,-2008,224,-552,-16,87,-19
10755,-2008,208,-576,-14,85,-20
10760,-1984,216,-552,-12,84,-19
10765,-2008,224,-544,-11,81,-19
10770,-1992,240,-552,-13,79,-19
10775,-2000,240,-584,-14,75,-18
10780,-2016,248,-568,-12,73,-18
10785,-2016,224,-568,-12,72,-17
10790,-2000,216,-568,-13,69,-17
10795,-2024,232,-552,-13,68,-15
10800,-2016,232,-552,-12,64,-14
10805,-1984,200,-552,-10,61,-10
10810,-1984,200,-568,-9,58,-9
10815,-2000,224,-552,-8,55,-5
10820,-1992,224,-576,-8,50,-2
10825,-2008,224,-552,-8,47,-1
10830,-2008,224,-544,-6,42,-1
10835,-2008,216,-560,-7,39,-1
10840,-2024,232,-512,-8,35,2
10845,-2008,224,-560,-7,32,4
10850,-2008,232,-568,-7,32,3
10855,-2008,208,-552,-10,30,4
10860,-2008,224,-560,-10,31,7
10865,-2008,248,-528,-12,32,7
10870,-2008,224,-552,-14,37,7
10875,-1992,216,-528,-15,41,7
10880,-2008,216,-536,-14,46,7
10885,-2000,232,-560,-14,50,7
10890,-2008,216,-552,-15,55,7
10895,-2024,240,-520,-15,58,7
10900,-1992,232,-520,-15,59,7
10905,-1976,232,-512,-15,59,7
10910,-2016,240,-544,-13,57,9
10915,-1992,232,-544,-13,56,10
10920,-2024,200,-560,-11,55,9
10925,-2008,264,-552,-9,53,8
10930,-2008,216,-576,-9,51,6
10935,-2024,224,-560,-7,50,8
10940,-2024,248,-560,-10,49,7
10945,-2000,224,-528,-13,48,8
10950,-2008,248,-552,-13,47,7
10955,-2000,232,-536,-13,47,6
10960,-2000,248,-536,-14,48,8
10965,-1992,232,-552,-13,52,7
10970,-2000,200,-544,-10,54,5
10975,-2000,240,-552,-6,56,2
10980,-2008,248,-520,-3,58,2
10985,-1992,232,-536,-1,59,2
10990,-1992,224,-528,2,56,0
10995,-1992,232,-560,3,55,-1
11000,-2000,216,-520,3,52,-1
11005,-2008,248,-520,4,50,-1
11010,-2024,224,-536,5,46,-3
11015,-2008,240,-512,4,43,-3
11020,-2000,240,-560,7,41,-4
11025,-2008,224,-568,9,38,-5
11030,-1992,224,-560,10,36,-5
11035,-2008,232,-520,11,34,-4
11040,-2016,232,-528,14,34,-4
11045,-2008,224,-544,16,33,-2
11050,-2016,232,-544,20,32,-1
11055,-2008,232,-552,23,32,-2
11060,-2024,208,-552,25,31,0
11065,-2024,256,-544,29,31,1
11070,-2040,248,-520,31,27,3
11075,-2000,200,-496,32,24,5
11080,-2008,232,-560,32,21,6
11085,-2016,248,-544,30,17,8
11090,-2024,248,-512,27,14,12
11095,-2024,240,-512,25,13,11
11100,-2008,232,-560,22,11,13
11105,-2008,232,-544,17,11,11
11110,-2000,224,-552,13,10,10
11115,-2016,240,-552,8,10,9
11120,-2000,240,-544,4,10,8
11125,-2008,208,-552,1,11,7
11130,-2016,240,-536,1,13,6
11135,-2000,232,-528,1,15,6
11140,-2016,240,-536,2,15,5
11145,-2016,224,-536,5,17,5
11150,-1992,192,-496,9,20,6
11155,-2032,216,-504,12,23,6
11160,-2008,240,-520,14,26,5
11165,-2008,248,-560,18,27,7
11170,-2016,240,-520,17,28,9
11175,-2016,248,-512,14,27,8
11180,-2024,240,-496,10,26,8
11185,-2000,232,-496,7,24,9
11190,-2016,240,-536,4,24,8
11195,-2024,264,-520,1,25,8
11200,-2000,248,-528,-2,26,7
11205,-2024,248,-504,-3,26,4
11210,-1992,232,-504,-6,29,3
11215,-2024,240,-520,-5,30,3
11220,-2000,224,-528,-3,33,0
11225,-2008,240,-520,-1,35,1
11230,-2032,240,-512,3,36,0
11235,-1992,224,-536,4,35,-1
11240,-2000,208,-512,9,36,-1
11245,-1976,232,-504,13,36,-1
11250,-2024,232,-520,18,35,0
11255,-2024,216,-520,21,34,2
11260,-2000,232,-528,23,35,3
11265,-2016,216,-472,23,33,4
11270,-2024,216,-504,24,31,4
11275,-2016,224,-504,24,29,5
11280,-2016,224,-520,26,29,5
11285,-2008,240,-528,23,28,5
11290,-2024,232,-536,22,29,4
11295,-2016,232,-520,22,31,3
11300,-2024,240,-496,22,32,1
11305,-2024,248,-528,20,32,-2
11310,-2024,248,-520,20,31,-3
11315,-2016,216,-520,17,33,-2
11320,-2032,248,-504,12,32,-4
11325,-2016,224,-520,9,32,-3
11330,-2000,216,-528,7,33,-3
11335,-2024,200,-520,7,35,-6
11340,-2024,224,-504,9,35,-8
11345,-2024,240,-520,13,28,-11
11350,-2008,224,-504,14,23,-6
11355,-2008,312,-488,10,25,-4
11360,-2024,240,-488,9,32,-3
11365,-2008,248,-520,12,39,0
11370,-2016,208,-528,14,42,4
11375,-2016,224,-496,12,40,0
11380,-2016,232,-496,8,35,1
11385,-2024,240,-520,5,31,1
11390,-2032,240,-512,-1,26,1
11395,-2000,216,-520,-6,22,2
11400,-2024,232,-480,-5,23,2
11405,-2040,248,-496,-5,24,2
11410,-2080,144,-496,-2,25,2
11415,-2040,224,-480,-1,29,0
11420,-2016,232,-512,-1,32,1
11425,-2000,240,-488,1,33,2
11430,-2016,240,-520,3,37,4
11435,-2032,240,-472,4,40,4
11440,-2040,232,-528,7,40,2
11445,-2016,216,-528,10,31,-3
11450,-1992,216,-528,10,18,4
11455,-1984,192,-472,7,19,8
11460,-2016,224,-472,4,31,9
11465,-2056,216,-520,3,41,5
11470,-2016,216,-488,2,45,3
11475,-2032,256,-504,3,47,2
11480,-2008,240,-488,4,45,3
11485,-2008,224,-472,3,45,3
11490,-2016,224,-496,2,46,3
11495,-1976,208,-496,1,45,3
11500,-2008,240,-488,-2,44,2
11505,-2040,240,-472,-5,45,3
11510,-2008,224,-472,-8,46,3
11515,-2000,224,-496,-6,48,1
11520,-2008,232,-480,-2,50,-1
11525,-2016,232,-464,0,54,-1
11530,-2024,256,-488,0,55,-2
11535,-2024,240,-480,1,57,-2
11540,-2008,248,-488,0,59,-2
11545,-2032,240,-488,-2,61,-2
11550,-2000,256,-472,-4,63,-2
11555,-2032,216,-488,-5,65,-2
11560,-2016,232,-512,-5,64,-3
11565,-2016,216,-456,-7,64,-2
11570,-2024,232,-512,-6,64,-3
11575,-2032,240,-512,-7,63,-2
11580,-2040,232,-464,-7,64,-2
11585,-2016,248,-512,-7,60,-1
11590,-2016,216,-512,-5,58,1
11595,-2024,224,-496,-4,56,1
11600,-2024,216,-488,-5,55,1
11605,-1992,208,-544,-1,50,3
11610,-2016,208,-512,3,49,4
11615,-2016,240,-464,5,47,5
11620,-2008,216,-512,5,46,7
11625,-2032,216,-512,8,45,9
11630,-2016,216,-504,8,44,11
11635,-2008,224,-488,8,44,11
11640,-2000,240,-488,9,43,12
11645,-2024,208,-488,10,42,12
11650,-2032,208,-504,10,38,13
11655,-2032,256,-528,12,33,12
11660,-2024,264,-496,9,30,11
11665,-2040,264,-512,6,28,8
11670,-2024,264,-512,-1,24,9
11675,-2032,240,-488,-5,23,9
11680,-2032,256,-480,-11,20,9
11685,-2024,224,-536,-14,21,8
11690,-2024,232,-464,-17,25,7
11695,-2008,248,-472,-18,29,4
11700,-2000,224,-440,-17,36,1
11705,-2000,256,-464,-14,40,-2
11710,-2016,232,-496,-15,47,-3
11715,-2016,240,-464,-16,50,-3
11720,-2024,224,-488,-17,54,-3
11725,-2008,232,-456,-17,57,-4
11730,-2024,288,-504,-15,61,-6
11735,-2040,232,-448,-12,63,-7
11740,-2032,224,-456,-11,64,-8
11745,-2016,248,-464,-6,60,-9
11750,-2016,240,-472,-6,57,-9
11755,-2040,240,-496,-6,52,-6
11760,-2016,224,-488,-5,45,-7
11765,-2008,240,-464,-3,44,-6
11770,-2000,224,-496,-2,49,-8
11775,-2032,224,-456,-5,55,-8
11780,-2024,224,-488,-8,56,-8
11785,-2008,248,-480,-11,58,-6
11790,-2032,192,-480,-12,62,-7
11795,-2016,224,-464,-11,63,-4
11800,-2040,264,-520,-8,64,-4
11805,-2016,224,-456,-4,65,-4
11810,-2024,232,-440,-2,66,-3
11815,-2024,208,-472,-1,66,-3
11820,-2040,240,-464,0,66,-3
11825,-2024,248,-496,-3,67,-3
11830,-2040,240,-480,-2,69,-4
11835,-2016,240,-488,-2,70,-4
11840,-2032,240,-464,-3,72,-4
11845,-2016,248,-472,-4,74,-3
11850,-2024,248,-464,-4,74,-3
11855,-2008,208,-472,-4,74,-2
11860,-2024,216,-488,-5,75,-2
11865,-2016,256,-496,-8,76,-2
11870,-2032,232,-488,-7,76,-2
11875,-2000,224,-496,-8,78,-1
11880,-2024,232,-488,-7,78,-1
11885,-2040,256,-488,-8,75,-1
11890,-1992,216,-464,-8,75,0
11895,-2008,248,-488,-9,75,0
11900,-2008,240,-512,-9,75,1
11905,-2032,248,-512,-9,73,0
11910,-1992,224,-440,-10,71,0
11915,-2040,232,-480,-10,69,0
11920,-2016,208,-472,-12,68,-1
11925,-2016,232,-488,-14,67,0
11930,-2032,248,-496,-16,67,-2
11935,-2032,248,-480,-19,66,-1
11940,-2016,216,-448,-22,66,-1
11945,-2032,224,-488,-22,66,-1
11950,-2016,240,-464,-22,65,-1
11955,-2032,232,-488,-24,66,0
11960,-2008,224,-464,-23,66,0
11965,-2016,240,-480,-21,66,-1
11970,-2016,232,-472,-21,66,-1
11975,-2032,240,-488,-20,67,0
11980,-2024,240,-480,-19,69,-1
11985,-2032,240,-472,-17,71,-4
11990,-2008,224,-504,-15,72,-4
11995,-2032,240,-448,-13,76,-7
12000,-2032,240,-488,-10,80,-9
12005,-2008,240,-512,-9,84,-11
12010,-2008,232,-456,-7,88,-12
12015,-2032,224,-488,-6,92,-12
12020,-2008,240,-472,-5,95,-13
12025,-2024,232,-488,-3,97,-13
12030,-2016,232,-480,-2,98,-12
12035,-2040,240,-512,0,98,-13
12040,-2032,200,-488,4,98,-12
12045,-2040,248,-496,8,97,-13
12050,-2024,216,-480,13,96,-14
12055,-2040,216,-488,18,91,-13
12060,-2016,216,-488,24,85,-12
12065,-2024,224,-520,28,77,-10
12070,-2008,208,-504,31,68,-7
12075,-2024,208,-504,33,58,0
12080,-2032,224,-520,32,48,4
12085,-2016,216,-512,31,42,9
12090,-2016,224,-488,29,36,14
12095,-2024,232,-504,26,30,15
12100,-2040,232,-456,22,25,17
12105,-2008,240,-496,20,23,16
12110,-2016,248,-472,17,25,16
12115,-1984,296,-464,17,28,15
12120,-1992,248,-480,16,33,13
12125,-2000,240,-480,13,39,10
12130,-2008,232,-496,12,48,4
12135,-2024,248,-472,12,55,3
12140,-2024,240,-456,13,61,-2
12145,-2000,224,-480,13,66,-7
12150,-2016,272,-448,13,67,-9
12155,-2008,224,-480,13,70,-9
12160,-2032,240,-472,11,71,-8
12165,-2016,248,-480,11,72,-8
12170,-2008,240,-472,10,71,-7
12175,-2024,232,-504,9,70,-8
12180,-2024,248,-496,8,69,-8
12185,-2024,248,-504,5,70,-8
12190,-2016,232,-464,4,68,-9
12195,-2024,240,-464,5,69,-8
12200,-2016,224,-480,7,68,-7
12205,-2040,232,-464,7,68,-6
12210,-2016,200,-512,5,69,-6
12215,-2008,224,-464,5,71,-6
12220,-2016,224,-480,4,72,-4
12225,-2024,224,-496,6,72,-4
12230,-2040,232,-480,7,74,-4
12235,-2032,240,-472,6,75,-4
12240,-2016,224,-472,5,76,-4
12245,-2016,216,-504,6,76,-3
12250,-2032,224,-480,5,76,-4
12255,-2024,232,-480,4,77,-5
12260,-2032,240,-480,5,79,-4
12265,-2016,232,-472,7,81,-4
12270,-2032,232,-464,8,83,-3
12275,-2016,232,-472,9,83,-2
12280,-2032,224,-496,11,84,-2
12285,-2024,232,-488,12,83,-1
12290,-2040,232,-472,14,85,0
12295,-2016,240,-472,15,83,0
12300,-2032,232,-488,15,85,1
12305,-2016,216,-488,15,84,1
12310,-2032,240,-488,14,83,2
12315,-2032,264,-456,13,82,3
12320,-2024,248,-472,13,82,2
12325,-2016,232,-464,11,83,2
12330,-2016,232,-488,10,82,3
12335,-2056,248,-496,11,84,3
12340,-2016,256,-488,9,83,4
12345,-2040,256,-488,10,84,2
12350,-2016,232,-488,12,84,1
12355,-2032,256,-512,15,85,0
12360,-2024,232,-496,17,84,-2
12365,-1992,224,-512,17,85,-2
12370,-2016,248,-496,18,87,-2
12375,-2016,240,-520,17,88,-3
12380,-2008,248,-504,17,88,-3
12385,-2016,216,-496,15,86,-2
12390,-2008,232,-520,10,86,-1
12395,-2032,232,-496,8,83,1
12400,-2040,264,-464,4,80,3
12405,-2032,240,-496,0,78,4
12410,-2024,240,-472,-2,76,4
12415,-2016,216,-480,-1,74,6
12420,-2040,232,-504,-1,76,5
12425,-2032,224,-512,-1,79,4
12430,-2040,224,-504,-1,80,3
12435,-2016,240,-512,-2,81,2
12440,-2016,248,-512,-4,79,2
12445,-2016,224,-544,-3,77,2
12450,-2024,240,-504,-4,75,1
12455,-2016,216,-528,-6,72,-1
12460,-2032,232,-496,-8,68,-1
12465,-2016,232,-512,-10,64,-2
12470,-2024,256,-480,-11,60,-1
12475,-2032,232,-480,-11,56,-1
12480,-2040,256,-504,-12,54,2
12485,-2008,256,-504,-11,52,3
12490,-2032,224,-504,-10,53,3
12495,-2032,224,-480,-10,55,3
12500,-2016,216,-496,-8,58,3
12505,-2032,248,-504,-6,58,2
12510,-2024,248,-496,-5,61,1
12515,-2000,240,-448,-1,62,1
12520,-2016,232,-488,-1,62,-1
12525,-2032,248,-464,-2,62,-1
12530,-2016,232,-496,-2,60,-1
12535,-2016,224,-488,-3,58,-1
12540,-2032,232,-496,-5,54,-2
12545,-2008,248,-512,-6,53,-2
12550,-2016,232,-512,-10,51,-3
12555,-2040,264,-496,-11,51,-4
12560,-2032,232,-504,-11,51,-4
12565,-2016,216,-512,-10,51,-7
12570,-2040,232,-464,-11,51,-7
12575,-2016,232,-472,-10,53,-7
12580,-2024,192,-488,-11,54,-7
12585,-2024,224,-464,-11,56,-5
12590,-2024,216,-496,-11,58,-6
12595,-2024,240,-480,-11,60,-6
12600,-2016,216,-488,-12,61,-7
12605,-2032,256,-472,-13,64,-6
12610,-2000,224,-480,-14,64,-4
12615,-2000,200,-480,-16,65,-6
12620,-2016,224,-488,-15,64,-6
12625,-2008,224,-456,-17,64,-5
12630,-2016,256,-480,-18,65,-3
12635,-2008,216,-504,-18,63,-3
12640,-2016,232,-472,-17,67,-2
12645,-2024,240,-472,-16,68,-4
12650,-2032,224,-472,-16,68,-3
12655,-2016,216,-424,-15,68,-3
12660,-2032,232,-496,-16,66,-2
12665,-2016,240,-488,-15,64,-1
12670,-2008,232,-528,-16,64,1
12675,-2016,232,-488,-15,63,2
12680,-2016,232,-496,-17,63,2
12685,-2000,232,-480,-18,64,3
12690,-2040,248,-496,-18,65,4
12695,-2008,264,-480,-18,65,4
12700,-2016,248,-472,-18,66,3
12705,-2032,240,-488,-20,66,3
12710,-2016,248,-480,-20,67,2
12715,-2016,232,-512,-20,67,2
12720,-2000,256,-512,-19,69,0
12725,-2024,240,-480,-20,68,-1
12730,-2032,256,-496,-21,70,-2
12735,-2008,264,-520,-22,70,-3
12740,-2016,240,-488,-22,71,-2
12745,-2000,232,-488,-22,71,-2
12750,-2016,216,-488,-21,72,-2
12755,-2016,216,-472,-22,72,-2
12760,-2032,216,-488,-20,73,-1
12765,-1992,232,-488,-20,71,-1
12770,-2040,272,-536,-19,72,-1
12775,-1992,224,-488,-18,71,1
12780,-2024,240,-496,-18,71,2
12785,-2008,224,-504,-19,71,2
12790,-2024,248,-480,-18,71,1
12795,-2032,256,-504,-21,71,2
12800,-2008,240,-480,-23,70,1
12805,-2032,264,-496,-24,69,0
12810,-2016,208,-480,-27,67,1
12815,-2008,240,-504,-29,67,1
12820,-2032,248,-504,-31,67,0
12825,-2024,232,-488,-32,66,-1
12830,-2032,256,-472,-30,66,-2
12835,-2008,240,-504,-29,65,-3
12840,-2024,200,-512,-28,66,-4
12845,-2024,248,-480,-27,67,-5
12850,-2024,248,-472,-26,65,-5
12855,-2040,240,-504,-24,66,-4
12860,-2016,224,-472,-24,66,-5
12865,-2024,224,-480,-24,66,-4
12870,-2024,216,-512,-23,66,-3
12875,-2016,240,-488,-23,66,-3
12880,-2040,232,-464,-24,64,-3
12885,-2032,232,-480,-25,62,-1
12890,-2000,248,-480,-26,62,1
12895,-2016,232,-488,-25,61,0
12900,-2016,264,-480,-25,58,1
12905,-2016,240,-504,-24,57,2
12910,-2008,240,-488,-26,56,0
12915,-2032,240,-504,-28,56,-1
12920,-2024,232,-504,-26,57,0
12925,-2024,232,-504,-26,57,-1
12930,-2024,248,-496,-25,57,0
12935,-2016,248,-488,-22,58,0
12940,-2040,264,-488,-22,58,-1
12945,-2024,248,-480,-21,58,-1
12950,-2032,256,-488,-20,57,1
12955,-2032,248,-496,-20,56,3
12960,-2032,248,-504,-22,57,4
12965,-2032,248,-488,-24,58,4
12970,-2032,232,-520,-24,58,3
12975,-2024,232,-456,-24,56,2
12980,-2024,240,-488,-25,56,3
12985,-2040,272,-520,-26,56,3
12990,-2024,248,-480,-27,57,1
12995,-2024,232,-472,-27,56,2
13000,-2016,256,-488,-26,55,1
13005,-2008,240,-480,-26,55,2
13010,-2008,240,-480,-25,54,0
13015,-2008,232,-480,-25,54,0
13020,-2024,240,-496,-23,54,-1
13025,-2016,232,-488,-24,54,-2
13030,-2016,248,-496,-23,54,-1
13035,-2032,224,-464,-23,53,-1
13040,-2032,232,-480,-25,53,0
13045,-2024,256,-480,-25,53,2
13050,-2032,248,-480,-24,54,2
13055,-2024,240,-496,-25,52,2
13060,-2016,256,-440,-27,53,4
13065,-2016,216,-488,-29,53,4
13070,-2032,240,-488,-30,54,6
13075,-2024,224,-504,-31,53,6
13080,-2032,240,-480,-29,53,6
13085,-2024,232,-464,-27,52,7
13090,-2008,248,-512,-24,52,6
13095,-2008,264,-528,-23,52,6
13100,-2040,240,-488,-20,53,5
13105,-2032,232,-504,-19,53,4
13110,-2040,232,-496,-18,52,5
13115,-2040,240,-472,-17,53,6
13120,-2040,224,-496,-20,52,5
13125,-2032,240,-488,-21,53,7
13130,-2032,216,-480,-23,51,8
13135,-2048,256,-480,-25,51,8
13140,-2024,248,-496,-25,51,9
13145,-2024,232,-488,-25,51,11
13150,-2032,232,-448,-25,52,13
13155,-2040,224,-480,-23,54,14
13160,-2016,224,-472,-21,56,13
13165,-2024,232,-504,-21,55,13
13170,-2008,224,-480,-21,55,16
13175,-2024,240,-472,-20,53,16
13180,-2040,240,-488,-20,50,15
13185,-2024,240,-480,-18,46,14
13190,-2008,248,-472,-15,42,12
13195,-2016,216,-488,-14,38,11
13200,-2024,224,-520,-15,34,9
13205,-2008,240,-376,-15,31,10
13210,-2032,232,-504,-14,30,11
13215,-2032,256,-480,-15,29,11
13220,-2040,248,-488,-14,29,12
13225,-2056,248,-456,-9,27,9
13230,-2016,248,-504,-1,18,5
13235,-2000,240,-472,0,20,10
13240,-2032,256,-472,5,30,4
13245,-2032,240,-472,8,38,9
13250,-2016,240,-464,11,58,13
13255,-2032,248,-456,8,72,5
13260,-2032,240,-472,2,74,2
13265,-2016,248,-456,0,69,4
13270,-2016,264,-456,0,63,4
13275,-2040,216,-456,3,58,4
13280,-2000,232,-464,2,55,4
13285,-2008,232,-496,3,51,5
13290,-2024,248,-464,2,47,5
13295,-2024,232,-472,2,43,5
13300,-2000,224,-480,9,33,1
13305,-2016,216,-480,14,30,3
13310,-2008,256,-504,14,33,2
13315,-2024,256,-464,12,41,2
13320,-2024,272,-488,5,44,1
13325,-2016,256,-480,3,44,2
13330,-2024,240,-440,6,43,0
13335,-2008,256,-448,11,42,0
13340,-2032,248,-456,14,43,0
13345,-2008,256,-456,14,44,-1
13350,-2032,232,-448,12,47,0
13355,-2024,240,-464,10,50,2
13360,-2024,272,-472,7,49,0
13365,-2032,264,-432,4,46,0
13370,-2032,280,-480,1,40,0
13375,-2032,256,-464,1,39,1
13380,-2032,288,-488,1,43,1
13385,-2024,256,-480,-5,42,0
13390,-2008,240,-464,-6,40,-4
13395,-2008,240,-464,-2,43,-4
13400,-2008,248,-456,-1,43,-2
13405,-2032,248,-456,0,47,-2
13410,-2024,256,-456,-1,50,-2
13415,-2024,240,-432,-1,52,-1
13420,-2008,248,-440,1,54,-1
13425,-2016,248,-464,0,55,0
13430,-2032,240,-456,-1,55,1
13435,-2032,256,-440,-3,54,2
13440,-2000,248,-464,-3,55,2
13445,-2000,256,-472,2,63,6
13450,-2048,248,-464,4,64,4
13455,-2032,240,-464,0,59,3
13460,-2016,240,-472,-4,58,1
13465,-2048,240,-488,-6,56,-3
13470,-2016,256,-440,-6,56,-2
13475,-2016,240,-448,-4,59,-4
13480,-2040,232,-456,0,60,-3
13485,-2040,248,-480,3,62,-4
13490,-2040,224,-440,7,60,-8
13495,-2000,248,-464,18,54,-10
13500,-2024,248,-456,25,52,-7
13505,-2024,264,-464,21,55,-5
13510,-2032,248,-448,13,60,-3
13515,-2024,256,-448,7,62,-3
13520,-2024,240,-480,5,64,-2
13525,-2040,240,-472,5,65,-1
13530,-2040,224,-464,3,62,-2
13535,-2040,240,-464,-2,63,-1
13540,-2024,256,-440,-2,66,-2
13545,-2024,232,-440,-4,69,-3
13550,-2032,232,-440,-3,72,-3
13555,-2024,264,-464,-3,73,-3
13560,-2032,264,-472,-4,73,-4
13565,-2032,264,-432,-1,74,-5
13570,-2032,248,-488,-1,73,-3
13575,-2032,232,-456,-2,72,-3
13580,-2040,272,-472,-2,69,-1
13585,-2040,248,-456,-4,68,-1
13590,-2040,224,-448,-4,70,-2
13595,-2032,240,-480,-4,70,-3
13600,-2040,248,-440,-3,72,-1
13605,-2016,248,-480,-3,72,-1
13610,-2032,232,-472,-3,73,-3
13615,-2024,240,-448,-5,73,-2
13620,-2008,232,-464,-5,76,-1
13625,-2000,216,-456,-4,76,-3
13630,-2016,240,-424,-3,76,-3
13635,-2024,208,-456,-1,76,-3
13640,-2024,224,-448,-2,76,-3
13645,-2048,264,-440,-3,75,-4
13650,-2016,264,-464,-3,75,-2
13655,-2024,240,-464,-4,74,-1
13660,-2040,240,-440,-5,73,-1
13665,-2016,248,-472,-5,71,-1
13670,-2032,256,-456,-7,69,0
13675,-2032,248,-456,-13,60,0
13680,-2040,240,-464,-9,57,-4
13685,-2024,248,-432,-6,55,-1
13690,-2008,240,-464,-7,60,-4
13695,-2040,248,-456,-9,66,-2
13700,-2024,240,-472,-14,67,-1
13705,-2016,224,-448,-15,67,-1
13710,-2024,232,-472,-10,69,-1
13715,-2032,232,-456,-8,69,-2
13720,-2000,232,-480,-9,69,-3
13725,-2008,248,-464,-9,70,-2
13730,-2000,224,-448,-10,69,-1
13735,-2024,224,-488,-12,69,-1
13740,-2008,248,-480,-12,66,0
13745,-2032,248,-440,-10,66,0
13750,-2016,248,-408,-12,64,-1
13755,-2016,240,-448,-11,64,-1
13760,-2000,232,-464,-11,63,-1
13765,-2024,248,-456,-11,64,-2
13770,-2032,272,-456,-11,63,-3
13775,-2016,240,-448,-12,65,-3
13780,-2016,248,-472,-11,66,-2
13785,-2008,248,-488,-10,67,-4
13790,-2032,248,-496,-9,68,-4
13795,-2016,240,-456,-9,71,-3
13800,-2024,240,-456,-9,73,-5
13805,-2024,224,-480,-7,75,-6
13810,-2048,232,-456,-6,78,-6
13815,-2040,272,-472,-6,81,-6
13820,-2032,240,-456,-4,80,-6
13825,-2048,256,-440,0,82,-7
13830,-2040,248,-448,0,84,-7
13835,-2040,256,-456,3,87,-8
13840,-2024,232,-448,4,87,-7
13845,-2032,248,-464,6,90,-8
13850,-2016,224,-456,8,93,-8
13855,-2024,248,-480,8,95,-9
13860,-1992,272,-360,6,97,-9
13865,-2016,256,-488,4,98,-9
13870,-2040,232,-456,1,99,-9
13875,-2016,248,-456,0,102,-11
13880,-2024,232,-456,0,103,-12
13885,-2048,248,-496,0,106,-14
13890,-2040,216,-488,1,105,-14
13895,-2024,256,-456,0,104,-13
13900,-2032,240,-464,1,103,-14
13905,-2040,264,-456,1,102,-13
13910,-2000,256,-480,2,101,-14
13915,-2000,232,-480,1,100,-16
13920,-2016,240,-480,-4,101,-15
13925,-2032,232,-464,-7,101,-14
13930,-2008,248,-488,-9,101,-15
13935,-2024,248,-472,-10,103,-15
13940,-2024,240,-464,-10,103,-18
13945,-2040,240,-472,-9,105,-18
13950,-2000,248,-464,-5,107,-20
13955,-2032,240,-520,-5,107,-20
13960,-2016,200,-472,-5,107,-22
13965,-2072,224,-464,-4,106,-23
13970,-2024,232,-496,-2,105,-23
13975,-2040,248,-448,-3,104,-21
13980,-2016,224,-488,-2,101,-21
13985,-2024,216,-504,-2,99,-19
13990,-2024,240,-480,-3,98,-16
13995,-2024,208,-440,-5,94,-14
14000,-2024,216,-480,-8,93,-13
14005,-2032,256,-488,-8,95,-13
14010,-2008,224,-448,-11,96,-13
14015,-2016,232,-480,-15,98,-12
14020,-2024,232,-496,-22,102,-13
14025,-2016,256,-480,-29,104,-10
14030,-2024,248,-488,-35,105,-11
14035,-2008,248,-472,-38,104,-12
14040,-2032,248,-488,-40,100,-14
14045,-2040,240,-512,-45,96,-14
14050,-2032,240,-488,-48,89,-15
14055,-2024,264,-536,-51,83,-14
14060,-2016,232,-496,-56,76,-15
14065,-2040,264,-536,-62,74,-13
14070,-2016,264,-504,-67,78,-13
14075,-2024,264,-512,-74,81,-12
14080,-2016,240,-512,-78,87,-14
14085,-2032,280,-496,-84,94,-16
14090,-2008,264,-504,-89,102,-19
14095,-2016,256,-512,-93,109,-25
14100,-2024,272,-512,-98,113,-27
14105,-2032,240,-504,-103,114,-28
14110,-2024,216,-464,-107,112,-28
14115,-2032,248,-504,-108,108,-27
14120,-2024,184,-496,-108,103,-25
14125,-2048,232,-512,-107,96,-23
14130,-2040,240,-472,-105,89,-20
14135,-2040,224,-488,-100,84,-19
14140,-2032,248,-472,-94,80,-18
14145,-2040,248,-496,-88,79,-17
14150,-2024,232,-480,-83,79,-17
14155,-2024,216,-464,-81,79,-16
14160,-2024,224,-456,-79,80,-17
14165,-2016,232,-456,-77,81,-16
14170,-2008,208,-464,-76,84,-15
14175,-2032,240,-488,-71,87,-13
14180,-2000,208,-464,-68,90,-14
14185,-1992,256,-504,-62,93,-12
14190,-2032,232,-464,-56,93,-11
14195,-2016,224,-440,-48,94,-9
14200,-2016,232,-464,-42,97,-6
14205,-2008,216,-464,-36,96,-6
14210,-2016,232,-480,-33,96,-6
14215,-1984,240,-480,-31,95,-2
14220,-2008,248,-472,-31,95,-2
14225,-2024,240,-464,-33,95,-1
14230,-2000,224,-464,-36,95,-3
14235,-2000,224,-504,-38,94,-4
14240,-2016,224,-472,-38,93,-5
14245,-2016,232,-496,-37,92,-5
14250,-2024,248,-496,-37,92,-6
14255,-2008,224,-472,-34,90,-6
14260,-2016,208,-480,-33,89,-6
14265,-2016,232,-464,-32,89,-7
14270,-2008,240,-504,-31,89,-7
14275,-2016,216,-496,-30,90,-5
14280,-2024,224,-472,-28,90,-7
14285,-2032,232,-496,-27,89,-6
14290,-2024,232,-480,-24,88,-5
14295,-2024,200,-520,-25,88,-5
14300,-2040,264,-480,-27,87,-3
14305,-2040,240,-512,-28,84,-3
14310,-2040,272,-496,-28,81,-3
14315,-2016,240,-488,-30,78,-4
14320,-2040,232,-536,-31,76,-4
14325,-2040,248,-496,-33,76,-5
14330,-2008,240,-512,-34,74,-5
14335,-2016,264,-504,-33,73,-6
14340,-2024,264,-528,-40,74,-4
14345,-2024,232,-528,-45,77,-7
14350,-2032,264,-472,-42,75,-8
14355,-2016,232,-488,-39,78,-9
14360,-2024,240,-504,-37,80,-10
14365,-2040,232,-496,-35,80,-10
14370,-2024,224,-480,-30,79,-9
14375,-2024,224,-504,-26,81,-8
14380,-2024,240,-504,-23,80,-9
14385,-2016,232,-496,-20,80,-8
14390,-2032,248,-488,-19,80,-7
14395,-2040,232,-488,-21,77,-6
14400,-2016,216,-496,-23,75,-3
14405,-2048,232,-512,-24,74,-4
14410,-2000,256,-528,-25,71,0
14415,-2000,224,-504,-24,70,-1
14420,-2032,256,-504,-24,69,0
14425,-2024,240,-480,-24,68,0
14430,-2008,216,-488,-24,68,-1
14435,-2024,240,-464,-24,69,0
14440,-2032,248,-472,-22,71,0
14445,-2016,232,-488,-19,72,-1
14450,-2000,208,-472,-17,73,-2
14455,-2008,232,-472,-15,74,-3
14460,-2016,216,-472,-15,77,-4
14465,-2024,232,-496,-13,78,-4
14470,-2016,240,-504,-12,80,-6
14475,-2008,248,-496,-13,80,-5
14480,-2016,256,-504,-12,79,-4
14485,-1976,216,-512,-12,79,-3
14490,-2024,264,-504,-11,77,-3
14495,-2032,248,-520,-11,73,-1
14500,-2016,216,-480,-12,71,0
14505,-2000,256,-552,-9,67,1
14510,-2016,232,-496,-10,66,0
14515,-2024,240,-496,-11,64,1
14520,-2016,232,-504,-10,61,1
14525,-2032,240,-496,-9,58,3
14530,-2016,256,-504,-9,55,4
14535,-2000,216,-504,-8,53,5
14540,-2032,216,-528,-7,50,6
14545,-2024,224,-480,-7,51,6
14550,-2040,248,-504,-8,51,6
14555,-2008,216,-488,-10,51,7
14560,-2016,232,-488,-9,52,6
14565,-2000,256,-512,-10,53,6
14570,-2024,256,-496,-9,54,6
14575,-2016,256,-456,-8,55,5
14580,-2032,248,-496,-8,57,5
14585,-2024,256,-480,-9,58,3
14590,-2016,232,-472,-9,58,3
14595,-2024,232,-512,-9,60,3
14600,-2024,232,-504,-9,61,3
14605,-2000,240,-488,-9,62,3
14610,-2008,232,-504,-7,61,3
14615,-2016,232,-496,-7,61,3
14620,-1936,264,-400,-8,61,4
14625,-2000,240,-504,-8,60,5
14630,-2024,256,-496,-11,59,6
14635,-2016,240,-456,-11,59,5
14640,-2032,248,-488,-13,58,5
14645,-2024,256,-488,-12,59,5
14650,-2032,256,-512,-12,60,5
14655,-2040,232,-488,-13,58,6
14660,-2040,240,-504,-13,59,6
14665,-2008,232,-480,-11,59,7
14670,-2008,216,-512,-9,58,7
14675,-2008,240,-488,-6,58,9
14680,-2040,240,-496,-3,58,9
14685,-2008,232,-496,2,56,10
14690,-2032,240,-488,6,57,10
14695,-2032,264,-520,9,55,10
14700,-2024,240,-488,9,53,11
14705,-2032,240,-488,8,52,10
14710,-2032,240,-464,6,51,11
14715,-2016,240,-472,4,50,9
14720,-2040,256,-496,2,48,10
14725,-2024,256,-464,2,49,9
14730,-2032,264,-456,2,49,8
14735,-2016,240,-472,2,52,6
14740,-2016,224,-456,3,54,6
14745,-2032,256,-504,5,56,4
14750,-2008,208,-464,7,59,5
14755,-2024,208,-488,8,63,4
14760,-2048,240,-504,8,64,3
14765,-2032,240,-496,8,65,6
14770,-2024,240,-504,7,63,7
14775,-2024,264,-504,5,63,7
14780,-2000,232,-472,5,59,7
14785,-2000,216,-456,3,56,8
14790,-2008,232,-472,1,53,8
14795,-2024,232,-488,-2,50,9
14800,-2024,256,-488,-3,48,9
14805,-2016,248,-472,-2,44,10
14810,-2032,248,-488,-3,43,9
14815,-2016,232,-504,-4,41,10
14820,-2016,264,-488,-7,41,10
14825,-2000,264,-488,-8,44,9
14830,-2000,232,-496,-7,47,8
14835,-2032,248,-480,-4,52,6
14840,-2024,256,-520,-1,54,3
14845,-2032,256,-464,-1,58,2
14850,-2032,248,-496,0,58,1
14855,-2016,240,-464,-1,58,1
14860,-2008,256,-480,0,57,2
14865,-2016,248,-472,1,55,1
14870,-2032,256,-520,0,56,1
14875,-2008,240,-496,0,55,2
14880,-2040,264,-496,-2,51,2
14885,-2032,256,-504,-7,48,3
14890,-2032,272,-480,-12,43,4
14895,-2032,248,-464,-13,42,4
14900,-2024,256,-472,-14,42,2
14905,-2032,264,-504,-16,42,1
14910,-2008,248,-496,-20,43,2
14915,-2040,256,-464,-19,44,3
14920,-2016,232,-448,-14,49,2
14925,-2032,232,-472,-9,53,-1
14930,-2024,248,-496,-7,54,-2
14935,-2024,224,-480,-5,56,-2
14940,-2024,224,-504,-3,57,-3
14945,-2032,200,-512,-2,57,-3
14950,-2032,256,-488,-1,57,-3
14955,-2024,256,-472,-3,57,0
14960,-2040,240,-504,-4,55,-1
14965,-2024,256,-472,-6,55,0
14970,-2032,288,-488,-10,53,0
14975,-2016,264,-488,-15,47,4
14980,-2024,256,-464,-15,47,2
14985,-2008,240,-464,-13,48,1
14990,-2016,232,-488,-12,50,1
14995,-2008,248,-464,-11,51,0
