timestamp,accel_x,accel_y,accel_z,gyro_x,gyro_y,gyro_z
0,96,-2008,264,47,26,6
5,80,-2032,232,47,26,6
10,56,-1992,248,45,25,6
15,88,-2016,240,46,26,6
20,88,-2008,224,46,26,3
25,72,-2000,240,45,25,3
30,72,-2008,280,46,25,3
35,88,-2024,264,48,24,5
40,48,-2000,256,50,23,5
45,64,-1984,248,51,23,4
50,88,-2024,256,54,23,5
55,88,-2016,272,54,23,1
60,32,-1984,296,53,22,-2
65,56,-2016,304,52,23,-3
70,80,-2016,280,52,23,-3
75,56,-2000,280,53,22,-4
80,88,-2016,256,52,22,-3
85,72,-2000,256,52,22,-3
90,64,-1984,264,53,20,-3
95,64,-2008,256,55,20,-3
100,72,-1984,264,54,18,-5
105,56,-2024,264,56,18,-5
110,48,-1992,248,57,17,-4
115,64,-1984,272,57,16,-7
120,72,-1992,240,57,15,-8
125,72,-1984,280,58,16,-8
130,80,-1992,248,58,15,-9
135,64,-2008,280,56,13,-9
140,32,-1976,296,57,11,-10
145,56,-2016,272,58,10,-10
150,48,-1976,240,58,10,-12
155,64,-1960,288,60,9,-10
160,72,-2024,256,58,10,-11
165,64,-2032,280,59,8,-11
170,56,-1984,272,60,8,-11
175,48,-2024,296,61,8,-11
180,80,-2016,264,61,6,-10
185,56,-1992,264,61,5,-11
190,80,-1992,264,62,1,-11
195,88,-2000,296,61,1,-12
200,96,-2016,264,61,0,-11
205,56,-2016,296,61,-1,-10
210,80,-1992,256,60,-1,-8
215,88,-2000,272,59,0,-10
220,72,-2008,256,57,-1,-9
225,88,-2016,280,57,-1,-12
230,72,-2008,264,57,-1,-11
235,72,-2024,256,56,-2,-11
240,96,-2000,248,55,-1,-13
245,56,-2000,264,54,-1,-14
250,72,-2008,280,54,-2,-16
255,72,-2008,280,55,-1,-14
260,72,-2008,256,56,-1,-15
265,88,-2000,272,56,-2,-18
270,56,-2000,248,57,-1,-19
275,56,-2008,248,58,-1,-19
280,80,-2000,240,57,-1,-18
285,72,-1864,232,56,-1,-19
290,88,-2000,272,56,-2,-22
295,80,-2000,272,55,-3,-23
300,96,-1984,264,54,-3,-23
305,72,-1992,312,54,-2,-24
310,88,-2024,288,53,-1,-24
315,104,-1984,264,51,0,-25
320,104,-2008,256,51,1,-23
325,80,-1984,232,50,2,-22
330,88,-2016,288,49,2,-22
335,88,-1984,264,49,3,-23
340,72,-1992,264,50,4,-23
345,88,-2008,280,51,6,-21
350,88,-1992,232,52,8,-22
355,96,-1976,240,53,10,-20
360,88,-2016,240,54,10,-22
365,88,-2024,264,56,10,-22
370,80,-2024,232,55,9,-24
375,104,-2024,240,55,8,-24
380,104,-2008,280,54,8,-22
385,96,-2032,264,55,9,-21
390,112,-2000,264,54,9,-20
395,104,-1992,256,55,10,-20
400,128,-2016,240,55,9,-19
405,96,-2008,256,55,11,-18
410,104,-2000,264,57,10,-17
415,104,-2016,256,56,12,-17
420,88,-1992,256,57,12,-17
425,104,-2008,272,59,12,-17
430,112,-2032,248,60,12,-17
435,120,-2000,296,64,12,-17
440,144,-2008,264,65,13,-19
445,120,-2016,256,66,14,-19
450,104,-2000,288,65,14,-17
455,96,-2008,280,66,15,-18
460,80,-2000,280,67,16,-17
465,112,-1992,272,68,17,-16
470,88,-1984,272,67,16,-17
475,80,-1976,264,68,15,-15
480,104,-2008,280,69,17,-14
485,104,-2008,256,68,17,-14
490,104,-2008,296,68,17,-14
495,112,-2000,256,68,18,-15
500,160,-2024,360,65,18,-15
505,104,-2008,280,65,17,-14
510,80,-1992,256,65,17,-14
515,80,-2024,280,65,18,-14
520,88,-2000,264,64,20,-13
525,104,-2008,288,64,19,-13
530,64,-1992,288,64,20,-15
535,112,-2000,280,64,19,-14
540,96,-2008,264,64,19,-14
545,96,-2000,288,65,17,-14
550,80,-2000,272,65,18,-14
555,80,-2000,264,67,18,-14
560,120,-2024,280,67,18,-15
565,64,-2016,272,69,17,-15
570,96,-1992,264,70,17,-17
575,88,-2016,296,74,16,-17
580,96,-2024,264,77,15,-20
585,80,-2024,288,80,15,-20
590,64,-2024,240,83,15,-19
595,72,-2000,248,84,14,-20
600,88,-2008,264,83,13,-19
605,80,-1968,248,80,14,-17
610,88,-1984,272,77,15,-14
615,56,-1992,272,73,14,-15
620,104,-2008,272,69,14,-15
625,80,-2008,280,68,15,-14
630,104,-1984,304,66,14,-14
635,120,-2000,240,66,15,-14
640,64,-2000,272,66,15,-14
645,104,-2008,272,67,15,-15
650,88,-2000,296,67,14,-16
655,96,-2024,296,65,13,-17
660,96,-2008,296,66,12,-17
665,104,-2024,272,66,12,-19
670,96,-2000,312,62,11,-19
675,112,-1984,296,61,9,-18
680,80,-1976,288,58,10,-18
685,72,-1992,304,56,10,-17
690,112,-2008,264,54,9,-16
695,96,-1992,280,53,11,-14
700,88,-1984,272,54,11,-15
705,96,-2000,272,54,12,-14
710,64,-2024,376,53,10,-11
715,88,-2000,272,54,11,-11
720,88,-2008,280,55,11,-12
725,96,-1984,336,55,11,-11
730,88,-1992,288,56,10,-11
735,80,-1976,288,56,10,-12
740,88,-2008,288,56,10,-12
745,64,-1992,304,57,9,-13
750,104,-2008,288,57,8,-14
755,104,-2032,280,60,7,-14
760,96,-2024,256,61,8,-15
765,112,-1976,288,62,7,-16
770,72,-1976,280,61,7,-16
775,96,-2008,304,61,6,-14
780,88,-2000,288,60,7,-13
785,112,-2008,248,60,7,-15
790,104,-2000,256,58,8,-14
795,96,-1992,288,58,8,-14
800,104,-2016,264,59,7,-14
805,112,-2008,288,60,7,-15
810,88,-1992,264,59,8,-16
815,80,-2008,264,60,8,-16
820,88,-1984,288,59,8,-16
825,104,-1984,280,60,7,-15
830,80,-2008,288,60,7,-17
835,88,-2000,280,58,6,-18
840,96,-2016,288,59,8,-18
845,120,-1984,264,60,8,-17
850,96,-1976,264,59,9,-16
855,104,-2032,320,59,8,-17
860,104,-1992,272,58,8,-17
865,104,-2000,288,59,7,-15
870,112,-2008,248,57,7,-16
875,96,-2016,304,57,8,-17
880,96,-2008,240,56,9,-18
885,104,-2000,304,55,10,-18
890,88,-1984,272,54,10,-18
895,104,-2000,256,54,10,-17
900,88,-1984,280,54,11,-16
905,104,-2008,240,54,11,-14
910,104,-2008,280,55,11,-15
915,96,-2024,312,54,11,-17
920,112,-2024,320,54,11,-17
925,96,-2000,264,54,10,-16
930,88,-2000,304,53,10,-16
935,96,-2000,264,55,10,-15
940,104,-1984,248,55,9,-19
945,112,-2000,280,56,10,-18
950,112,-2000,272,55,11,-17
955,88,-1976,256,57,12,-16
960,88,-2008,272,56,10,-17
965,88,-1984,296,56,11,-17
970,88,-1984,304,55,11,-16
975,96,-2000,248,55,12,-15
980,104,-2000,288,54,14,-15
985,88,-2000,320,53,14,-14
990,104,-2024,264,52,15,-14
995,112,-2000,336,52,15,-15
1000,104,-2016,256,50,15,-14
1005,96,-2016,296,49,14,-13
1010,88,-2000,288,49,14,-15
1015,96,-2016,280,50,15,-16
1020,80,-2016,288,50,15,-16
1025,112,-2008,280,50,15,-15
1030,104,-2000,272,53,16,-16
1035,80,-1984,288,54,14,-17
1040,104,-1992,264,55,15,-14
1045,104,-2000,280,56,15,-13
1050,80,-2008,264,57,14,-13
1055,96,-2000,296,57,15,-12
1060,104,-2000,304,58,14,-14
1065,104,-1992,280,58,13,-15
1070,96,-2016,280,56,12,-14
1075,104,-2016,304,56,13,-14
1080,80,-2000,288,55,13,-14
1085,80,-2016,264,54,14,-13
1090,88,-2000,288,54,14,-12
1095,104,-2024,304,53,14,-13
1100,96,-2000,304,54,13,-12
1105,72,-1968,264,53,13,-13
1110,80,-2000,288,53,13,-12
1115,72,-1984,304,50,11,-14
1120,96,-2008,280,49,13,-14
1125,64,-1984,280,50,14,-14
1130,112,-2008,296,50,14,-12
1135,120,-2000,296,50,15,-13
1140,104,-2008,256,51,13,-13
1145,88,-2008,272,51,14,-14
1150,96,-1984,272,52,12,-13
1155,112,-2000,272,52,11,-12
1160,96,-2016,304,53,11,-12
1165,96,-1984,256,53,10,-13
1170,112,-2016,280,54,10,-13
1175,104,-2000,256,54,11,-14
1180,112,-1984,288,54,11,-13
1185,80,-1976,264,53,12,-13
1190,96,-2016,288,51,12,-12
1195,72,-1984,288,49,11,-13
1200,96,-1984,280,50,11,-11
1205,96,-1984,256,50,12,-9
1210,112,-2032,288,49,11,-8
1215,96,-2000,280,49,11,-9
1220,88,-2008,296,50,11,-9
1225,96,-1992,288,51,13,-10
1230,104,-2008,264,49,11,-8
1235,88,-1968,288,50,12,-8
1240,88,-2000,288,49,13,-7
1245,96,-1992,304,49,12,-7
1250,96,-1984,272,50,14,-7
1255,96,-2016,304,51,13,-7
1260,72,-2000,304,53,13,-5
1265,104,-1960,256,52,12,-6
1270,80,-2000,272,53,13,-8
1275,96,-1984,264,52,13,-9
1280,136,-2024,304,52,12,-7
1285,88,-2000,280,49,11,-7
1290,88,-1984,264,49,12,-9
1295,88,-1984,272,50,11,-9
1300,48,-1952,264,49,11,-9
1305,104,-2040,272,50,13,-11
1310,104,-2008,280,51,11,-10
1315,88,-2008,272,50,13,-10
1320,112,-1984,312,52,13,-12
1325,120,-2040,264,51,13,-11
1330,88,-2000,288,50,14,-14
1335,112,-2032,304,50,14,-15
1340,80,-2032,256,50,13,-13
1345,120,-2008,296,51,13,-14
1350,104,-2008,288,52,13,-13
1355,112,-2000,264,54,12,-12
1360,112,-2024,280,56,12,-11
1365,88,-2016,296,59,12,-11
1370,112,-2040,264,62,12,-9
1375,88,-2000,280,65,11,-7
1380,96,-2008,280,66,10,-7
1385,80,-1992,240,64,10,-6
1390,96,-2000,264,64,9,-5
1395,112,-1992,312,60,9,-5
1400,120,-1992,272,54,9,-5
1405,136,-2008,272,50,10,-3
1410,96,-2008,288,45,9,-3
1415,88,-1992,296,42,10,-5
1420,104,-2000,336,42,11,-6
1425,120,-1984,272,42,13,-5
1430,120,-2016,304,42,12,-4
1435,112,-2000,304,44,13,-5
1440,104,-2016,280,45,13,-4
1445,112,-2008,312,44,14,-3
1450,120,-1992,280,45,13,-3
1455,112,-2008,320,46,14,-2
1460,112,-1984,288,44,14,0
1465,96,-1976,296,42,12,-2
1470,104,-1992,280,39,13,1
1475,120,-1984,272,35,13,1
1480,80,-1992,296,32,11,1
1485,120,-1984,280,29,12,3
1490,104,-2000,272,27,10,3
1495,88,-2000,288,25,12,5
1500,104,-1992,304,24,13,6
1505,96,-2000,288,23,12,6
1510,120,-2032,368,23,14,6
1515,112,-2000,312,23,13,5
1520,96,-2000,288,24,14,4
1525,120,-2032,256,26,15,5
1530,80,-1992,296,28,16,3
1535,64,-1976,272,29,15,2
1540,72,-2000,272,31,16,1
1545,96,-2008,288,31,17,0
1550,80,-2000,296,32,17,-1
1555,96,-1992,296,31,17,0
1560,120,-2024,272,31,16,-1
1565,112,-2008,280,31,17,-1
1570,88,-1976,288,31,17,-2
1575,88,-2008,288,31,17,0
1580,104,-1976,280,30,17,2
1585,104,-1984,280,30,15,4
1590,96,-1976,288,28,14,3
1595,80,-1984,288,26,13,0
1600,72,-1968,264,25,13,2
1605,88,-2008,280,23,13,1
1610,88,-2000,304,22,11,2
1615,72,-1992,280,24,10,1
1620,72,-2016,296,25,10,-1
1625,96,-2008,272,26,10,-2
1630,88,-2000,272,26,7,-3
1635,96,-2008,288,27,6,-4
1640,80,-1992,264,28,3,-6
1645,88,-2008,288,28,1,-8
1650,80,-1992,248,26,0,-8
1655,72,-2008,272,25,-1,-8
1660,80,-2000,288,24,-3,-8
1665,72,-1984,272,21,-2,-9
1670,80,-2008,280,18,-2,-10
1675,48,-2000,288,17,-4,-10
1680,88,-2008,304,14,-4,-12
1685,72,-1992,280,13,-1,-13
1690,72,-2008,256,17,-1,-14
1695,64,-2024,248,22,1,-15
1700,88,-2048,264,25,2,-15
1705,88,-2024,248,31,3,-17
1710,96,-2024,296,35,5,-15
1715,72,-2040,272,39,4,-17
1720,96,-2008,232,43,5,-17
1725,88,-2016,280,46,5,-16
1730,64,-1984,288,48,4,-15
1735,72,-2008,240,48,3,-14
1740,72,-1984,256,48,3,-14
1745,88,-1984,264,48,2,-14
1750,72,-2000,264,46,2,-13
1755,96,-2000,272,45,1,-13
1760,96,-2000,304,43,1,-12
1765,88,-2008,280,40,0,-13
1770,96,-2000,304,38,-1,-12
1775,96,-1992,272,36,-1,-10
1780,88,-1992,288,36,0,-8
1785,104,-2016,264,36,0,-10
1790,104,-2032,280,37,1,-11
1795,96,-1992,264,37,4,-10
1800,88,-1984,264,36,5,-12
1805,96,-2000,288,36,7,-12
1810,88,-1984,296,36,7,-12
1815,104,-2016,280,35,9,-12
1820,96,-2024,272,37,8,-16
1825,96,-2008,288,37,10,-15
1830,96,-2000,288,38,12,-16
1835,104,-2008,256,39,13,-17
1840,96,-1992,296,39,14,-19
1845,88,-2016,240,40,16,-19
1850,104,-2016,280,41,17,-19
1855,104,-2016,264,41,18,-20
1860,88,-1992,256,42,19,-19
1865,88,-2008,272,42,19,-19
1870,104,-2000,280,43,19,-20
1875,72,-1984,304,43,19,-22
1880,96,-2000,272,42,21,-23
1885,96,-1992,264,42,22,-25
1890,64,-1976,272,41,22,-30
1895,96,-1992,272,41,22,-32
1900,88,-2024,272,39,23,-33
1905,80,-2008,248,39,23,-34
1910,80,-2016,272,38,24,-35
1915,112,-2016,264,37,25,-37
1920,112,-2000,264,35,26,-37
1925,88,-2000,232,35,25,-38
1930,72,-1992,232,35,27,-39
1935,104,-2008,248,35,27,-42
1940,80,-2000,232,35,27,-42
1945,104,-2016,232,36,26,-43
1950,104,-1992,240,36,27,-43
1955,104,-2016,248,38,27,-43
1960,104,-2024,272,38,25,-44
1965,104,-2016,240,39,23,-44
1970,104,-1992,248,40,22,-44
1975,88,-2000,264,43,21,-44
1980,96,-2008,280,47,21,-44
1985,112,-2032,248,50,19,-45
1990,104,-2008,272,55,21,-45
1995,96,-2016,240,60,21,-45
2000,104,-2008,224,67,20,-45
2005,128,-2016,224,71,20,-43
2010,112,-1984,232,73,22,-45
2015,80,-2000,256,75,21,-45
2020,112,-1984,256,76,20,-44
2025,120,-2008,272,75,21,-43
2030,104,-2040,280,74,21,-40
2035,88,-2024,256,73,20,-38
2040,88,-2016,248,69,19,-37
2045,96,-1976,256,67,18,-34
2050,104,-1992,280,65,17,-31
2055,80,-2000,272,66,18,-29
2060,104,-2016,280,67,15,-25
2065,104,-2008,264,67,14,-25
2070,112,-2008,272,66,14,-22
2075,104,-1976,256,63,13,-19
2080,120,-2016,272,63,13,-18
2085,112,-2032,288,61,11,-17
2090,104,-1992,280,59,10,-15
2095,128,-2008,272,57,10,-17
2100,128,-2000,376,55,7,-17
2105,104,-1984,288,55,8,-15
2110,96,-2008,288,54,8,-15
2115,128,-2016,264,54,10,-14
2120,136,-1992,264,54,10,-15
2125,128,-2016,312,54,9,-15
2130,120,-1976,296,54,8,-15
2135,96,-2000,320,55,8,-15
2140,112,-1984,304,55,9,-14
2145,152,-2016,328,55,9,-14
2150,136,-2000,320,57,8,-14
2155,96,-2008,272,59,7,-14
2160,136,-1992,296,63,8,-14
2165,144,-2008,280,66,7,-13
2170,104,-1992,288,68,6,-11
2175,120,-1984,264,69,5,-10
2180,112,-1992,248,68,4,-9
2185,104,-1984,272,62,5,-8
2190,112,-2000,280,59,4,-8
2195,104,-1960,288,54,3,-8
2200,136,-1992,272,53,5,-9
2205,128,-2016,296,53,5,-10
2210,128,-1984,256,52,5,-9
2215,128,-2000,288,55,7,-9
2220,104,-1984,296,56,6,-8
2225,120,-2008,288,58,7,-11
2230,112,-2008,304,61,11,-11
2235,128,-1992,272,63,12,-14
2240,112,-2016,248,62,11,-13
2245,120,-2008,280,62,12,-13
2250,88,-1984,264,63,10,-12
2255,120,-2016,264,63,11,-12
2260,96,-2000,304,62,12,-12
2265,80,-2000,304,61,12,-11
2270,96,-1984,256,58,12,-10
2275,104,-2008,264,58,12,-7
2280,120,-2000,280,55,13,-6
2285,120,-1984,248,54,14,-6
2290,96,-2016,248,55,14,-6
2295,120,-1992,248,54,12,-4
2300,128,-2032,272,52,10,-2
2305,80,-1984,288,50,12,-6
2310,152,-2048,256,49,11,-4
2315,104,-2000,288,46,12,-4
2320,96,-2000,256,48,13,-2
2325,120,-2000,240,49,15,-3
2330,104,-2000,264,50,15,-3
2335,112,-2016,256,51,15,-2
2340,104,-1992,256,50,14,-3
2345,96,-1992,256,50,15,-2
2350,96,-2000,264,51,14,0
2355,112,-2024,256,49,14,1
2360,104,-2032,272,49,14,0
2365,88,-2008,272,49,14,1
2370,104,-2008,280,50,14,0
2375,96,-1992,256,50,13,1
2380,88,-2000,264,51,13,-1
2385,120,-2024,264,51,13,0
2390,136,-2016,288,51,14,0
2395,96,-1992,264,50,14,0
2400,112,-2000,264,51,15,-3
2405,96,-1992,256,51,15,-4
2410,120,-2032,296,52,15,-2
2415,104,-2016,264,56,14,-4
2420,104,-2024,264,56,14,-4
2425,120,-2008,256,57,14,-2
2430,104,-2016,288,58,13,0
2435,104,-1984,256,58,12,-3
2440,96,-1992,272,58,13,-4
2445,104,-2000,272,58,11,-3
2450,112,-2016,248,58,11,-4
2455,88,-2008,296,60,13,-4
2460,112,-2008,248,62,15,-5
2465,112,-2000,288,63,14,-6
2470,96,-2008,296,64,13,-6
2475,104,-2000,312,64,14,-7
2480,120,-2024,288,65,14,-8
2485,104,-1984,288,65,14,-6
2490,120,-1992,304,64,16,-6
2495,112,-2000,280,63,16,-8
2500,120,-2016,320,64,15,-8
2505,104,-2000,272,63,16,-8
2510,104,-1992,248,64,17,-8
2515,104,-1992,272,64,17,-8
2520,112,-2016,280,65,16,-7
2525,88,-1968,312,65,15,-7
2530,112,-2000,280,66,15,-7
2535,88,-1992,312,63,14,-8
2540,96,-1992,272,65,11,-8
2545,104,-2000,272,63,11,-7
2550,128,-2016,280,62,11,-6
2555,104,-2008,280,61,12,-9
2560,112,-2016,272,61,11,-7
2565,96,-2008,272,62,13,-9
2570,120,-2000,280,62,11,-11
2575,96,-1984,280,62,11,-8
2580,88,-2008,248,59,10,-8
2585,64,-1968,368,57,10,-10
2590,96,-1976,264,55,12,-8
2595,104,-2000,264,54,10,-9
2600,104,-2008,296,53,12,-9
2605,56,-2024,248,51,11,-9
2610,80,-1984,240,50,11,-8
2615,112,-2000,304,50,11,-9
2620,104,-2016,264,50,11,-9
2625,112,-2032,280,50,11,-8
2630,128,-2000,264,50,12,-9
2635,112,-2016,288,51,13,-9
2640,128,-2008,264,51,13,-9
2645,104,-2016,288,52,12,-9
2650,96,-2016,320,54,13,-8
2655,96,-2008,280,54,12,-7
2660,104,-2008,288,56,12,-6
2665,104,-1992,280,56,14,-7
2670,120,-1968,256,56,13,-9
2675,120,-2000,280,56,13,-9
2680,112,-1992,288,56,13,-9
2685,104,-2000,264,55,13,-7
2690,96,-1992,272,54,12,-8
2695,88,-2008,304,52,12,-9
2700,88,-2008,320,53,10,-8
2705,112,-1976,248,53,10,-8
2710,56,-1984,248,53,12,-7
2715,104,-2008,280,55,12,-7
2720,104,-2024,272,55,11,-9
2725,112,-2016,304,54,11,-9
2730,112,-2024,288,57,11,-8
2735,112,-1992,256,58,13,-9
2740,120,-2000,296,58,13,-9
2745,128,-1992,264,58,12,-9
2750,104,-1992,296,58,12,-9
2755,72,-2056,288,57,12,-10
2760,128,-1976,320,57,11,-10
2765,136,-1992,248,57,11,-10
2770,104,-2008,264,57,13,-9
2775,112,-2016,296,56,13,-10
2780,128,-2016,304,56,12,-10
2785,96,-2000,280,56,11,-10
2790,112,-2000,272,56,12,-9
2795,104,-1992,256,53,12,-9
2800,88,-1992,296,52,12,-8
2805,104,-1992,272,53,12,-9
2810,112,-2016,296,51,11,-8
2815,120,-2008,264,51,12,-8
2820,104,-2000,280,52,13,-7
2825,128,-2000,280,52,14,-8
2830,112,-2000,264,52,13,-8
2835,128,-2024,288,51,12,-9
2840,104,-2016,288,51,12,-9
2845,120,-2016,312,50,13,-8
2850,104,-2040,320,51,11,-10
2855,112,-2000,288,53,9,-10
2860,104,-2000,296,52,12,-9
2865,88,-2008,264,53,11,-8
2870,128,-2008,288,54,12,-8
2875,104,-1992,264,56,12,-11
2880,104,-1992,280,56,13,-11
2885,112,-1976,296,56,10,-11
2890,128,-2016,296,56,10,-11
2895,96,-2024,296,55,11,-12
2900,96,-1992,288,55,10,-10
2905,120,-1976,272,55,11,-12
2910,120,-2024,280,55,11,-12
2915,128,-2016,280,55,12,-11
2920,128,-2008,304,53,13,-12
2925,112,-1992,280,54,14,-11
2930,96,-1984,272,53,13,-11
2935,96,-1976,304,53,13,-10
2940,88,-2000,272,53,12,-12
2945,104,-2000,320,54,11,-12
2950,112,-2008,264,53,11,-12
2955,96,-2024,288,55,12,-14
2960,112,-2032,288,57,12,-16
2965,96,-2008,264,61,12,-17
2970,104,-2032,272,65,11,-16
2975,112,-1984,304,68,11,-14
2980,120,-2024,264,71,10,-14
2985,96,-2024,272,73,8,-14
2990,112,-2000,256,74,8,-13
2995,104,-2016,256,72,9,-13
3000,104,-2008,296,69,9,-12
3005,112,-1976,280,67,10,-11
3010,72,-1944,336,67,11,-13
3015,96,-2000,304,66,12,-14
3020,96,-2008,288,67,12,-12
3025,96,-2000,320,67,12,-12
3030,88,-2000,424,68,14,-14
3035,104,-2000,312,66,14,-14
3040,96,-2016,312,66,17,-15
3045,120,-1968,280,67,14,-15
3050,112,-2008,336,66,12,-16
3055,96,-1984,296,66,15,-14
3060,120,-1992,280,65,12,-15
3065,128,-2000,240,64,12,-14
3070,80,-1968,304,62,12,-14
3075,88,-1984,288,61,12,-14
3080,104,-2008,264,61,11,-11
3085,112,-2000,288,59,11,-12
3090,112,-2008,288,59,12,-11
3095,96,-1992,280,57,10,-11
3100,96,-2000,280,57,11,-10
3105,96,-2016,280,58,12,-11
3110,96,-2000,304,57,12,-13
3115,120,-2000,264,54,12,-13
3120,112,-2016,280,54,12,-12
3125,128,-2000,248,55,11,-11
3130,88,-2000,288,54,11,-12
3135,104,-2000,288,55,10,-12
3140,112,-1992,248,54,9,-14
3145,112,-2008,296,54,10,-14
3150,128,-2000,312,51,11,-14
3155,128,-2032,312,50,11,-15
3160,128,-2016,288,48,10,-14
3165,120,-2008,296,50,12,-12
3170,136,-2016,296,49,12,-12
3175,104,-2016,280,51,15,-11
3180,136,-2032,264,54,17,-9
3185,112,-2024,256,55,17,-8
3190,128,-2008,272,58,18,-4
3195,144,-2000,256,60,19,-3
3200,136,-2000,264,65,19,-3
3205,120,-1992,288,67,19,-3
3210,112,-2000,272,69,20,-1
3215,112,-1992,272,72,19,-2
3220,136,-2008,256,73,20,0
3225,104,-1960,256,73,19,0
3230,128,-2000,272,71,18,-1
3235,128,-2016,272,70,17,0
3240,120,-2000,272,69,15,1
3245,112,-2000,296,67,13,1
3250,136,-2016,304,65,12,0
3255,104,-2000,288,64,11,-1
3260,96,-1992,248,61,9,-3
3265,88,-2008,272,61,8,-6
3270,80,-1992,312,58,8,-7
3275,96,-2016,288,57,9,-7
3280,72,-1976,312,56,11,-9
3285,88,-1992,312,55,13,-11
3290,56,-1992,320,52,14,-12
3295,88,-1984,312,51,16,-12
3300,104,-2032,320,51,15,-15
3305,104,-2040,312,50,16,-15
3310,96,-2016,296,49,17,-17
3315,112,-2008,312,49,19,-19
3320,88,-2016,328,49,19,-18
3325,96,-2008,296,48,19,-18
3330,104,-2032,344,48,18,-19
3335,96,-2008,336,48,18,-19
3340,104,-2008,328,48,17,-19
3345,96,-2008,312,47,15,-18
3350,104,-2000,296,47,14,-18
3355,72,-2008,344,47,13,-17
3360,88,-1984,312,48,12,-17
3365,104,-2016,344,48,10,-18
3370,88,-1968,320,48,10,-18
3375,96,-1992,320,48,9,-19
3380,96,-1992,280,48,8,-20
3385,80,-2016,296,47,8,-20
3390,112,-2000,312,48,7,-20
3395,104,-1992,296,46,8,-20
3400,104,-2000,288,46,10,-19
3405,104,-1992,312,46,10,-19
3410,120,-2000,288,46,10,-20
3415,104,-2000,280,46,9,-19
3420,88,-2008,336,46,8,-19
3425,96,-2000,312,49,10,-20
3430,120,-1992,288,49,9,-21
3435,112,-2000,312,50,9,-19
3440,128,-2008,280,50,9,-20
3445,120,-2016,272,52,8,-20
3450,112,-2008,280,51,8,-19
3455,112,-1992,280,51,8,-19
3460,104,-2000,280,49,7,-17
3465,128,-1992,272,49,7,-18
3470,96,-1992,280,49,7,-15
3475,104,-1992,256,48,7,-14
3480,112,-2000,312,48,7,-14
3485,160,-2000,280,49,7,-15
3490,88,-2000,296,51,6,-12
3495,96,-2000,264,52,7,-11
3500,88,-1992,248,53,8,-12
3505,128,-2016,296,53,9,-12
3510,112,-2016,296,52,8,-13
3515,96,-1984,312,51,7,-14
3520,88,-1976,272,52,8,-16
3525,112,-1984,288,51,8,-15
3530,120,-2000,288,50,8,-15
3535,112,-1992,280,49,8,-15
3540,88,-1984,296,47,7,-14
3545,128,-1992,280,47,9,-13
3550,112,-2000,296,48,10,-15
3555,104,-2000,312,47,9,-15
3560,152,-2000,304,48,8,-15
3565,120,-2000,304,48,8,-14
3570,120,-1992,272,47,7,-14
3575,120,-2016,280,46,8,-15
3580,120,-1992,288,46,9,-13
3585,128,-2008,312,44,8,-12
3590,152,-2032,304,43,8,-12
3595,136,-2000,320,43,8,-13
3600,128,-2016,288,41,7,-12
3605,112,-1968,272,40,7,-12
3610,104,-1992,328,40,8,-9
3615,128,-1984,296,38,8,-8
3620,112,-2000,296,36,8,-8
3625,128,-2008,304,35,9,-8
3630,128,-2000,328,33,9,-6
3635,104,-2000,280,32,10,-7
3640,112,-2008,312,33,10,-8
3645,136,-1992,312,32,11,-5
3650,104,-1984,296,33,12,-6
3655,128,-2000,320,31,10,-7
3660,112,-2008,288,32,10,-7
3665,120,-2024,304,31,11,-7
3670,112,-2000,296,30,11,-7
3675,136,-2000,264,29,13,-5
3680,112,-2008,320,28,13,-6
3685,104,-2000,328,27,13,-6
3690,120,-1992,288,28,14,-7
3695,104,-2000,280,29,14,-6
3700,160,-2024,280,31,15,-7
3705,104,-2016,304,32,16,-8
3710,128,-2008,288,35,17,-9
3715,96,-2000,280,35,17,-8
3720,120,-2008,272,35,19,-7
3725,112,-2000,264,35,17,-8
3730,112,-2024,312,36,17,-9
3735,104,-1992,288,33,18,-9
3740,80,-1992,296,30,19,-10
3745,128,-1984,264,27,18,-8
3750,104,-2024,280,26,18,-6
3755,112,-1968,288,23,18,-6
3760,112,-1984,280,22,17,-6
3765,120,-1992,280,21,17,-4
3770,96,-1992,304,21,16,-5
3775,120,-2016,288,20,16,-6
3780,112,-2008,296,18,17,-6
3785,120,-2008,288,15,18,-6
3790,104,-1992,296,13,17,-5
3795,96,-2008,304,9,17,-6
3800,88,-2008,296,6,16,-8
3805,88,-2008,280,4,16,-7
3810,96,-2008,304,4,15,-6
3815,80,-2000,296,4,14,-6
3820,96,-1992,280,5,11,-5
3825,128,-2024,280,7,11,-5
3830,136,-2040,264,8,10,-4
3835,112,-2000,256,8,8,-4
3840,144,-2016,240,7,7,-3
3845,120,-2016,264,4,6,0
3850,120,-2024,288,0,6,0
3855,88,-1976,256,-3,6,-2
3860,120,-2008,280,-6,8,-2
3865,128,-1984,272,-8,8,-1
3870,88,-1976,288,-9,9,-3
3875,120,-2024,288,-9,10,-4
3880,104,-1992,272,-7,13,-6
3885,96,-1984,280,-6,13,-4
3890,120,-2008,304,-1,16,-7
3895,104,-2016,264,2,16,-9
3900,104,-2008,272,5,17,-8
3905,104,-1984,272,7,17,-10
3910,112,-1976,240,10,16,-11
3915,112,-2016,280,11,14,-11
3920,120,-1992,248,12,15,-11
3925,112,-2024,288,13,13,-12
3930,96,-2016,256,13,11,-13
3935,120,-2008,256,13,9,-10
3940,112,-1976,288,13,10,-10
3945,120,-2000,280,11,10,-12
3950,112,-2016,256,9,10,-9
3955,120,-1984,272,7,11,-9
3960,112,-2000,272,5,10,-10
3965,104,-2000,248,4,10,-8
3970,112,-1976,224,1,10,-9
3975,128,-2000,264,0,10,-8
3980,112,-1968,248,-1,10,-9
3985,104,-2016,240,-3,10,-7
3990,104,-2000,256,-5,10,-8
3995,120,-2008,256,-8,10,-10
4000,112,-2008,232,-10,11,-8
4005,88,-2000,256,-11,10,-8
4010,104,-2000,248,-15,9,-8
4015,88,-1992,264,-18,11,-11
4020,88,-2008,256,-22,12,-8
4025,96,-1984,280,-25,14,-10
4030,120,-1992,272,-25,13,-9
4035,128,-2048,264,-24,14,-9
4040,112,-2016,248,-22,13,-10
4045,112,-2016,248,-17,13,-10
4050,128,-1984,256,-14,12,-10
4055,104,-2016,264,-11,12,-12
4060,128,-1992,256,-8,12,-12
4065,120,-2024,264,-6,11,-13
4070,96,-2032,256,-5,11,-14
4075,104,-2008,240,-3,12,-14
4080,96,-2024,232,-3,13,-13
4085,96,-1992,248,-4,12,-13
4090,96,-1984,248,-1,13,-14
4095,104,-2000,216,0,13,-12
4100,104,-1976,272,-3,13,-12
4105,120,-2008,232,-3,13,-11
4110,128,-2024,224,-3,14,-14
4115,120,-2008,248,-4,14,-14
4120,128,-2000,240,-6,14,-13
4125,120,-2000,232,-7,14,-14
4130,120,-2000,248,-7,14,-14
4135,104,-2016,224,-7,14,-14
4140,104,-1992,240,-7,14,-14
4145,120,-2016,232,-5,14,-13
4150,120,-2000,224,-5,15,-14
4155,128,-2008,208,-5,14,-14
4160,104,-2008,248,-3,14,-14
4165,112,-2008,232,-4,13,-12
4170,96,-2016,232,-4,13,-11
4175,104,-2000,240,-5,13,-11
4180,112,-2008,240,-5,12,-12
4185,128,-2024,224,-4,12,-13
4190,88,-2008,224,-1,13,-14
4195,88,-2016,248,1,13,-15
4200,112,-2016,256,2,12,-15
4205,104,-2032,232,4,11,-14
4210,88,-1984,240,5,11,-16
4215,120,-2008,248,5,12,-15
4220,96,-2000,256,5,13,-15
4225,96,-2008,232,3,13,-14
4230,104,-2016,232,5,14,-14
4235,120,-2008,240,4,14,-11
4240,112,-2024,256,2,14,-12
4245,112,-2016,216,2,15,-12
4250,128,-2016,240,1,14,-11
4255,104,-2008,240,0,15,-12
4260,120,-2016,232,2,15,-12
4265,112,-2008,216,0,14,-13
4270,112,-1992,240,-1,13,-13
4275,144,-2016,184,-2,12,-12
4280,104,-2016,192,-4,9,-15
4285,80,-2000,296,-5,10,-15
4290,112,-2032,240,-7,10,-13
4295,104,-2008,216,-7,10,-13
4300,120,-2024,224,-7,10,-15
4305,112,-2024,200,-7,9,-15
4310,104,-2000,208,-7,9,-15
4315,96,-2008,224,-8,9,-16
4320,120,-2016,216,-9,10,-17
4325,112,-2000,216,-9,12,-16
4330,104,-2000,216,-9,13,-19
4335,104,-2032,208,-7,13,-17
4340,112,-2032,232,-6,13,-16
4345,120,-2024,216,-3,13,-18
4350,104,-2008,208,2,13,-17
4355,128,-2016,192,4,13,-17
4360,136,-2024,216,6,12,-17
4365,88,-2000,216,6,12,-19
4370,104,-1992,232,7,14,-16
4375,104,-2032,200,7,13,-16
4380,96,-2008,224,8,13,-15
4385,104,-2016,200,8,13,-16
4390,136,-2008,200,8,14,-16
4395,128,-2016,184,8,14,-17
4400,104,-2016,192,8,14,-16
4405,112,-2016,208,8,14,-15
4410,96,-2000,224,8,14,-16
4415,136,-2016,208,6,14,-17
4420,112,-2016,216,5,13,-15
4425,112,-2016,232,4,13,-16
4430,104,-2024,176,5,12,-15
4435,112,-2016,216,5,11,-16
4440,96,-1992,192,6,12,-13
4445,112,-2000,200,6,11,-14
4450,104,-2008,216,6,13,-13
4455,112,-1992,224,7,12,-12
4460,128,-2024,184,6,13,-13
4465,136,-2016,232,5,13,-11
4470,128,-2008,208,5,12,-12
4475,120,-2016,208,6,12,-13
4480,152,-2040,200,5,12,-12
4485,128,-2008,216,6,13,-12
4490,144,-2024,248,6,13,-12
4495,120,-2008,208,8,13,-12
4500,112,-2000,200,7,14,-14
4505,128,-2008,184,9,15,-13
4510,136,-2016,192,9,14,-13
4515,120,-2016,200,11,15,-13
4520,96,-2000,224,11,16,-14
4525,112,-1992,136,13,15,-14
4530,120,-2008,184,14,15,-13
4535,120,-1992,192,14,13,-12
4540,120,-1992,216,16,14,-13
4545,128,-2008,176,17,14,-13
4550,112,-2024,184,20,12,-14
4555,128,-2016,200,21,12,-14
4560,112,-2008,208,22,12,-14
4565,120,-2008,184,23,11,-13
4570,112,-2008,184,25,11,-11
4575,112,-2040,176,26,12,-11
4580,88,-2016,208,27,11,-11
4585,112,-1984,176,29,12,-12
4590,112,-2040,200,31,11,-13
4595,136,-2016,152,35,11,-13
4600,136,-2000,184,36,10,-13
4605,136,-2024,192,39,9,-14
4610,104,-2016,160,39,11,-15
4615,128,-2008,168,39,11,-14
4620,120,-2016,176,39,10,-15
4625,120,-1992,200,38,8,-14
4630,112,-2000,192,38,9,-14
4635,136,-2016,208,37,8,-13
4640,104,-2008,184,36,7,-15
4645,104,-2008,160,37,6,-17
4650,120,-2040,200,39,6,-19
4655,104,-2000,192,40,6,-18
4660,112,-1936,232,44,6,-17
4665,136,-2024,200,45,6,-18
4670,120,-2032,200,45,5,-16
4675,136,-2008,184,45,4,-15
4680,128,-2024,152,45,3,-13
4685,136,-2024,176,43,4,-13
4690,112,-2016,144,43,4,-11
4695,136,-2024,208,41,5,-11
4700,112,-2000,184,39,5,-11
4705,112,-2024,200,40,5,-11
4710,96,-2024,200,40,4,-11
4715,112,-2008,192,42,6,-13
4720,104,-2008,184,46,5,-12
4725,128,-2024,184,49,5,-13
4730,112,-2000,208,51,5,-16
4735,128,-2032,192,54,2,-14
4740,136,-2000,184,58,3,-14
4745,120,-2016,168,63,2,-15
4750,112,-2024,184,64,0,-17
4755,128,-2000,168,65,1,-16
4760,112,-1992,208,67,0,-17
4765,120,-2008,144,67,1,-16
4770,120,-2016,168,67,2,-16
4775,104,-2008,176,68,3,-16
4780,104,-2024,160,68,2,-14
4785,128,-2008,168,69,5,-13
4790,144,-2032,168,70,3,-13
4795,104,-1968,184,73,3,-16
4800,120,-1984,200,73,6,-14
4805,96,-2016,184,75,5,-14
4810,112,-2024,144,75,6,-14
4815,104,-1992,184,77,7,-14
4820,104,-2008,192,78,7,-14
4825,144,-2040,184,80,7,-16
4830,112,-2008,192,82,7,-16
4835,120,-2000,176,81,7,-14
4840,104,-2008,208,83,9,-13
4845,120,-2040,216,84,8,-13
4850,112,-2008,192,84,9,-13
4855,112,-2024,168,86,11,-14
4860,128,-2008,176,86,12,-13
4865,112,-2024,160,85,12,-12
4870,160,-1976,232,85,15,-11
4875,120,-2016,200,84,15,-9
4880,120,-2000,200,82,16,-9
4885,104,-2024,200,82,16,-8
4890,112,-2008,192,84,17,-8
4895,120,-2016,168,86,20,-9
4900,120,-2016,192,88,21,-9
4905,136,-2032,192,90,22,-8
4910,136,-2032,200,93,22,-8
4915,120,-2056,200,94,22,-9
4920,104,-2032,168,96,22,-10
4925,112,-2024,168,97,22,-11
4930,144,-2024,136,97,22,-12
4935,136,-2024,144,96,22,-12
4940,136,-2032,160,94,22,-13
4945,128,-2040,176,92,23,-12
4950,112,-2032,136,92,24,-11
4955,136,-2008,176,93,24,-11
4960,120,-2008,152,93,26,-8
4965,152,-2016,168,93,26,-7
4970,104,-2024,136,92,29,-8
4975,112,-2016,152,93,29,-7
4980,128,-2024,168,95,29,-5
4985,128,-1992,160,98,29,-6
4990,96,-1984,136,100,27,-5
4995,136,-2024,144,103,28,-6
5000,144,-1984,144,109,28,-5
5005,128,-2008,168,114,27,-6
5010,136,-1984,136,118,26,-7
5015,120,-1992,152,123,24,-9
5020,136,-2008,160,129,21,-12
5025,104,-1976,136,133,20,-14
5030,112,-2008,112,137,17,-16
5035,104,-1976,144,142,15,-19
5040,128,-1976,144,145,13,-18
5045,112,-1976,144,147,12,-20
5050,128,-2008,128,147,12,-20
5055,104,-1944,176,145,13,-22
5060,128,-1968,184,143,15,-24
5065,136,-1976,200,142,15,-23
5070,120,-1984,248,144,16,-24
5075,136,-1992,248,148,18,-25
5080,104,-2008,280,157,20,-28
5085,112,-2008,256,173,20,-30
5090,96,-2024,256,189,22,-32
5095,112,-2056,296,206,23,-35
5100,112,-2008,264,222,22,-37
5105,104,-2016,272,235,22,-39
5110,96,-2016,304,238,19,-42
5115,120,-1984,280,232,16,-43
5120,104,-1952,272,215,13,-41
5125,120,-1944,296,185,10,-40
5130,112,-1960,304,148,5,-35
5135,80,-1928,328,105,1,-31
5140,88,-1944,344,60,-2,-26
5145,112,-1936,344,16,-2,-20
5150,104,-1952,360,-25,-2,-16
5155,112,-1976,352,-62,-2,-11
5160,136,-2000,400,-95,-1,-7
5165,128,-2024,376,-121,1,-3
5170,120,-2040,416,-139,4,1
5175,128,-2072,392,-148,5,1
5180,144,-2040,424,-152,8,3
5185,176,-2056,384,-145,10,5
5190,136,-2048,376,-133,15,7
5195,144,-2072,376,-118,17,6
5200,160,-2072,360,-99,17,4
5205,144,-2056,336,-77,19,2
5210,136,-2040,328,-55,18,0
5215,128,-2040,328,-35,18,-2
5220,136,-2024,296,-16,16,-5
5225,136,-2024,280,1,13,-5
5230,120,-1984,304,13,13,-7
5235,136,-1976,232,23,12,-10
5240,120,-1976,240,27,10,-10
5245,176,-1992,288,31,11,-11
5250,136,-1976,192,32,9,-12
5255,120,-1928,216,31,9,-13
5260,104,-1928,208,29,9,-13
5265,128,-1936,184,26,10,-12
5270,80,-1928,192,22,9,-13
5275,128,-1920,168,18,7,-15
5280,128,-1928,160,14,8,-14
5285,120,-1968,160,10,7,-15
5290,112,-1960,168,7,6,-14
5295,128,-1984,152,5,4,-15
5300,128,-1984,176,4,2,-15
5305,128,-1992,168,7,0,-16
5310,128,-1976,152,6,0,-17
5315,120,-2016,152,6,-3,-18
5320,120,-2008,152,7,-3,-18
5325,128,-2024,168,8,-4,-19
5330,144,-2048,128,9,-4,-18
5335,112,-2040,136,11,-5,-18
5340,152,-2048,168,10,-4,-16
5345,120,-2040,152,11,-3,-18
5350,112,-2048,136,12,-3,-17
5355,112,-2056,152,11,-3,-15
5360,128,-2048,160,10,-4,-15
5365,112,-2056,128,7,-6,-12
5370,120,-2056,128,3,-6,-10
5375,128,-2040,152,0,-8,-7
5380,112,-2008,160,-5,-8,-6
5385,136,-2024,136,-9,-9,-5
5390,112,-2016,144,-12,-8,-3
5395,112,-2016,152,-15,-10,-1
5400,104,-2008,168,-19,-9,2
5405,128,-2008,160,-23,-9,2
5410,88,-2000,144,-30,-10,4
5415,104,-1976,128,-36,-10,6
5420,104,-1984,176,-43,-10,8
5425,120,-2000,144,-48,-11,8
5430,112,-1992,112,-54,-11,10
5435,112,-1976,168,-59,-11,10
5440,120,-2000,184,-63,-11,8
5445,112,-1992,192,-66,-12,10
5450,112,-2008,176,-67,-12,9
5455,120,-2000,192,-69,-12,12
5460,120,-2000,176,-71,-14,11
5465,112,-2000,144,-72,-14,11
5470,144,-2000,232,-71,-14,12
5475,96,-1976,216,-71,-13,11
5480,120,-2000,224,-70,-15,9
5485,88,-2000,200,-67,-15,9
5490,112,-1992,184,-63,-15,9
5495,120,-2008,184,-61,-18,9
5500,144,-2000,192,-58,-20,9
5505,144,-2032,168,-55,-22,10
5510,128,-1984,192,-54,-23,12
5515,120,-1984,200,-52,-24,11
5520,128,-2008,208,-53,-24,12
5525,128,-1992,208,-55,-23,12
5530,104,-2000,176,-56,-22,12
5535,136,-2008,216,-58,-22,13
5540,128,-2008,176,-59,-21,12
5545,136,-2024,192,-59,-21,8
5550,120,-2000,224,-58,-19,7
5555,128,-2008,216,-57,-16,8
5560,136,-2000,208,-55,-17,6
5565,128,-2016,200,-53,-16,6
5570,144,-1992,208,-53,-16,5
5575,144,-2000,184,-54,-13,4
5580,136,-2000,176,-55,-14,3
5585,136,-2016,208,-58,-14,3
5590,112,-1984,184,-62,-14,2
5595,120,-2016,224,-66,-13,2
5600,96,-1992,184,-71,-13,0
5605,104,-1984,176,-74,-12,0
5610,96,-2008,184,-78,-11,1
5615,104,-2008,144,-81,-10,2
5620,80,-1960,184,-87,-10,1
5625,112,-2000,168,-90,-9,2
5630,136,-1992,160,-94,-10,3
5635,112,-2032,144,-98,-9,5
5640,104,-1992,128,-101,-7,5
5645,112,-2024,144,-104,-6,6
5650,120,-2032,120,-108,-6,6
5655,96,-2000,120,-110,-6,7
5660,80,-1992,104,-113,-5,9
5665,104,-2016,120,-116,-5,8
5670,144,-2048,96,-117,-3,9
5675,128,-2024,88,-119,-3,9
5680,120,-2024,88,-122,-3,7
5685,112,-2008,112,-124,-5,8
5690,128,-2000,128,-126,-5,10
5695,104,-2000,72,-128,-4,11
5700,128,-2024,104,-131,-5,13
5705,112,-1992,112,-134,-5,14
5710,128,-2008,72,-136,-5,13
5715,120,-1976,64,-138,-6,15
5720,88,-2000,72,-142,-4,17
5725,120,-2016,88,-146,-6,15
5730,104,-1976,80,-152,-6,17
5735,104,-1992,88,-156,-7,16
5740,96,-2000,72,-161,-6,17
5745,104,-1976,88,-164,-6,17
5750,96,-2008,96,-169,-6,20
5755,96,-2008,104,-172,-7,21
5760,112,-1992,72,-173,-6,20
5765,104,-2016,96,-174,-7,21
5770,104,-2000,64,-176,-9,20
5775,88,-2000,72,-179,-9,21
5780,104,-1992,72,-183,-9,23
5785,88,-2008,80,-185,-9,21
5790,120,-2008,72,-187,-10,19
5795,96,-2008,64,-192,-10,20
5800,112,-2008,64,-194,-9,18
5805,104,-2016,80,-198,-9,19
5810,96,-2024,64,-200,-8,19
5815,96,-2032,72,-203,-8,18
5820,104,-2040,64,-206,-7,18
5825,88,-2008,72,-205,-7,20
5830,128,-1992,56,-205,-7,20
5835,80,-2040,72,-205,-6,19
5840,88,-2000,48,-206,-6,19
5845,96,-2008,40,-207,-6,20
5850,96,-2016,48,-206,-6,19
5855,128,-2016,24,-209,-6,18
5860,112,-2016,0,-212,-6,18
5865,112,-2032,16,-215,-5,19
5870,88,-2016,40,-218,-6,20
5875,104,-2024,16,-225,-8,20
5880,88,-1984,32,-229,-7,21
5885,104,-2016,40,-234,-6,20
5890,112,-2008,56,-237,-4,19
5895,88,-2000,16,-239,-6,20
5900,80,-2024,40,-240,-5,21
5905,128,-2032,64,-243,-5,20
5910,56,-2024,24,-249,-7,20
5915,120,-2040,40,-249,-10,19
5920,88,-2048,-16,-249,-11,18
5925,72,-2048,8,-249,-9,15
5930,104,-2064,24,-247,-9,12
5935,80,-2064,0,-240,-7,13
5940,96,-2064,-16,-229,-7,11
5945,48,-2040,-40,-215,-8,9
5950,40,-2064,0,-200,-13,7
5955,96,-2040,-24,-187,-17,7
5960,96,-2056,-48,-177,-20,5
5965,104,-2048,-72,-170,-21,6
5970,120,-2032,-96,-164,-20,6
5975,88,-2040,-48,-162,-22,3
5980,104,-2016,-88,-164,-22,5
5985,56,-2024,-32,-168,-25,9
5990,96,-1992,-56,-172,-30,8
5995,80,-1992,-8,-176,-31,8
6000,112,-2016,-56,-185,-29,10
6005,80,-1968,-72,-195,-29,12
6010,104,-1960,-72,-208,-28,15
6015,40,-1960,-32,-220,-29,19
6020,104,-1960,-64,-235,-34,21
6025,136,-1976,-48,-249,-34,21
6030,112,-1976,-32,-260,-30,23
6035,136,-1976,-88,-273,-27,23
6040,104,-1984,-72,-284,-26,23
6045,64,-1960,-72,-294,-25,27
6050,96,-1960,-88,-303,-31,30
6055,112,-2000,-72,-309,-32,30
6060,112,-2016,-64,-314,-32,32
6065,88,-1992,-120,-319,-29,34
6070,56,-2000,-104,-325,-29,33
6075,96,-2000,-72,-330,-34,36
6080,120,-1992,-88,-337,-37,37
6085,96,-2000,-136,-342,-35,39
6090,88,-1984,-144,-346,-34,38
6095,96,-1984,-112,-348,-34,36
6100,32,-1992,-120,-353,-35,38
6105,112,-1984,-112,-356,-40,41
6110,96,-1984,-112,-357,-40,38
6115,88,-2016,-168,-361,-40,37
6120,24,-1976,-144,-363,-41,37
6125,88,-1984,-168,-366,-49,38
6130,80,-1984,-176,-367,-49,37
6135,88,-1976,-184,-372,-48,36
6140,72,-1984,-168,-376,-50,36
6145,16,-1992,-208,-378,-54,35
6150,80,-2000,-184,-381,-62,38
6155,72,-2000,-240,-384,-66,38
6160,80,-1992,-224,-387,-65,38
6165,16,-1968,-224,-390,-67,39
6170,32,-1984,-208,-396,-70,40
6175,88,-1992,-184,-401,-71,39
6180,88,-1992,-256,-406,-73,37
6185,40,-1968,-216,-414,-70,38
6190,32,-1976,-256,-422,-73,37
6195,104,-2008,-272,-431,-78,36
6200,72,-1984,-240,-437,-77,33
6205,104,-1992,-256,-440,-76,34
6210,40,-1976,-256,-447,-80,36
6215,72,-1984,-288,-453,-82,36
6220,64,-1976,-280,-458,-82,33
6225,72,-1984,-304,-461,-80,33
6230,56,-1984,-336,-462,-77,33
6235,80,-2008,-320,-461,-77,33
6240,80,-1992,-360,-461,-75,34
6245,88,-1992,-352,-463,-75,31
6250,40,-1960,-336,-464,-70,30
6255,72,-1960,-296,-464,-73,32
6260,72,-1968,-336,-464,-71,33
6265,80,-1992,-304,-464,-70,28
6270,64,-1968,-320,-464,-66,25
6275,48,-2000,-328,-462,-66,28
6280,64,-1968,-384,-461,-65,27
6285,24,-1952,-336,-461,-65,24
6290,24,-1960,-360,-460,-65,24
6295,64,-1960,-368,-459,-65,23
6300,56,-1968,-400,-457,-62,21
6305,16,-1952,-416,-457,-63,23
6310,56,-1968,-392,-456,-63,24
6315,56,-1952,-432,-458,-65,25
6320,32,-1968,-416,-462,-64,25
6325,40,-1936,-432,-462,-66,26
6330,64,-1952,-440,-462,-67,28
6335,48,-1952,-440,-461,-67,30
6340,64,-1968,-440,-463,-67,29
6345,48,-1952,-424,-466,-65,32
6350,176,-2088,-448,-468,-64,34
6355,40,-1960,-408,-470,-64,37
6360,48,-1952,-448,-469,-63,38
6365,24,-1952,-448,-466,-66,44
6370,16,-1960,-448,-462,-67,45
6375,56,-1944,-464,-459,-69,45
6380,48,-1952,-464,-458,-69,47
6385,24,-1944,-496,-457,-70,48
6390,32,-1952,-528,-455,-73,50
6395,56,-1944,-560,-460,-76,52
6400,48,-1888,-520,-466,-77,55
6405,32,-1920,-512,-481,-75,56
6410,32,-1912,-504,-493,-74,56
6415,0,-1952,-552,-502,-74,58
6420,16,-1864,-528,-516,-74,53
6425,24,-1896,-568,-526,-77,59
6430,24,-1920,-520,-538,-76,62
6435,16,-1912,-536,-547,-75,64
6440,24,-1888,-544,-554,-75,66
6445,24,-1912,-568,-560,-75,64
6450,32,-1920,-568,-566,-74,64
6455,32,-1912,-568,-569,-73,60
6460,16,-1904,-592,-569,-74,61
6465,8,-1896,-600,-570,-74,60
6470,32,-1880,-600,-567,-70,59
6475,16,-1912,-600,-566,-70,59
6480,24,-1896,-608,-566,-68,60
6485,40,-1896,-608,-567,-69,60
6490,56,-1920,-592,-567,-68,59
6495,32,-1896,-624,-565,-65,60
6500,0,-1872,-632,-563,-65,60
6505,24,-1880,-664,-562,-67,62
6510,8,-1896,-680,-561,-69,61
6515,16,-1864,-648,-563,-69,61
6520,8,-1864,-672,-562,-68,66
6525,8,-1872,-712,-566,-70,66
6530,0,-1872,-680,-567,-70,68
6535,-24,-1880,-712,-570,-70,67
6540,24,-1864,-704,-571,-71,67
6545,-24,-1864,-720,-573,-74,71
6550,16,-1832,-728,-573,-75,72
6555,0,-1848,-744,-577,-77,72
6560,-24,-1848,-728,-580,-78,74
6565,-16,-1808,-752,-584,-80,76
6570,-24,-1824,-752,-588,-81,76
6575,-16,-1824,-744,-594,-80,76
6580,-16,-1864,-784,-600,-79,78
6585,8,-1832,-768,-605,-77,77
6590,0,-1824,-760,-614,-75,84
6595,-24,-1816,-792,-618,-75,83
6600,-24,-1816,-824,-621,-78,84
6605,-32,-1816,-792,-621,-77,87
6610,-40,-1792,-816,-625,-80,93
6615,-40,-1816,-800,-631,-82,95
6620,-16,-1808,-832,-634,-88,98
6625,-56,-1792,-832,-638,-93,106
6630,-32,-1832,-832,-642,-104,111
6635,-88,-1800,-848,-647,-115,115
6640,-64,-1800,-856,-650,-133,124
6645,-96,-1800,-872,-651,-147,132
6650,-96,-1808,-872,-655,-163,138
6655,-104,-1808,-880,-656,-180,139
6660,-64,-1784,-896,-659,-193,143
6665,-64,-1776,-912,-661,-203,144
6670,-104,-1752,-888,-655,-211,140
6675,-72,-1776,-912,-650,-220,139
6680,-72,-1792,-912,-644,-225,134
6685,-56,-1768,-920,-638,-229,126
6690,-8,-1784,-904,-632,-230,119
6695,-16,-1768,-936,-626,-230,114
6700,-32,-1752,-904,-618,-231,105
6705,-24,-1776,-952,-611,-230,98
6710,0,-1768,-944,-606,-230,93
6715,-16,-1784,-944,-599,-228,91
6720,8,-1752,-944,-590,-225,88
6725,-32,-1720,-944,-582,-224,84
6730,-16,-1736,-952,-573,-221,80
6735,-16,-1736,-968,-567,-218,79
6740,0,-1720,-960,-563,-214,76
6745,-16,-1728,-968,-556,-211,74
6750,-24,-1704,-952,-552,-207,73
6755,-32,-1696,-944,-550,-207,73
6760,-32,-1720,-952,-543,-205,71
6765,0,-1696,-976,-538,-204,72
6770,-24,-1648,-984,-535,-201,76
6775,-16,-1656,-1000,-528,-198,75
6780,-32,-1648,-1000,-522,-196,76
6785,-40,-1632,-1040,-522,-189,80
6790,-32,-1648,-1048,-523,-181,85
6795,-24,-1672,-1000,-526,-175,87
6800,-8,-1680,-1040,-531,-173,87
6805,-32,-1680,-1040,-534,-171,87
6810,-32,-1672,-1016,-538,-171,85
6815,-32,-1648,-1048,-535,-172,89
6820,-64,-1640,-1064,-530,-170,97
6825,-40,-1592,-1088,-526,-164,103
6830,-32,-1624,-1088,-523,-154,106
6835,-64,-1616,-1112,-525,-143,108
6840,-88,-1608,-1080,-529,-136,110
6845,-64,-1608,-1120,-538,-130,112
6850,-72,-1608,-1128,-551,-126,111
6855,-80,-1624,-1136,-562,-120,112
6860,-88,-1592,-1120,-572,-116,117
6865,-88,-1560,-1136,-583,-112,119
6870,-80,-1584,-1128,-592,-104,123
6875,-88,-1568,-1120,-598,-96,128
6880,-104,-1568,-1152,-601,-87,133
6885,-72,-1560,-1160,-600,-81,144
6890,-56,-1568,-1176,-600,-74,153
6895,-80,-1544,-1200,-600,-64,164
6900,-48,-1576,-1152,-596,-56,173
6905,-24,-1576,-1184,-592,-45,182
6910,-200,-1624,-1256,-595,-31,192
6915,-72,-1552,-1208,-592,-26,196
6920,-64,-1592,-1168,-585,-19,201
6925,-48,-1576,-1208,-578,-12,206
6930,-72,-1568,-1224,-567,-5,209
6935,-64,-1560,-1216,-551,6,212
6940,-72,-1568,-1264,-532,19,213
6945,-64,-1568,-1264,-512,31,218
6950,-80,-1584,-1264,-491,45,226
6955,-72,-1584,-1280,-470,55,237
6960,-40,-1560,-1232,-451,64,247
6965,-104,-1584,-1208,-435,74,258
6970,-144,-1560,-1200,-425,79,271
6975,-152,-1552,-1128,-419,82,283
6980,-136,-1552,-1128,-413,83,298
6985,-136,-1560,-1112,-403,81,311
6990,-64,-1552,-1104,-393,77,324
6995,-128,-1520,-1128,-381,75,333
7000,-104,-1480,-1176,-369,69,339
7005,-80,-1472,-1176,-360,65,341
7010,-80,-1456,-1144,-359,64,343
7015,-96,-1456,-1224,-361,64,347
7020,-128,-1448,-1224,-374,66,353
7025,-64,-1456,-1240,-392,69,361
7030,-112,-1448,-1240,-413,77,369
7035,-136,-1432,-1288,-442,87,381
7040,-96,-1408,-1344,-475,96,393
7045,-112,-1408,-1312,-512,107,404
7050,-96,-1416,-1312,-547,122,414
7055,-136,-1416,-1264,-579,139,424
7060,-152,-1424,-1320,-618,149,438
7065,-168,-1424,-1352,-660,147,452
7070,-144,-1360,-1376,-700,143,465
7075,-168,-1424,-1328,-731,148,472
7080,-232,-1456,-1368,-751,152,482
7085,-200,-1456,-1376,-766,157,488
7090,-232,-1456,-1376,-776,161,494
7095,-264,-1448,-1392,-776,167,498
7100,-264,-1472,-1392,-766,172,509
7105,-240,-1464,-1400,-749,175,515
7110,-256,-1448,-1424,-731,178,524
7115,-280,-1480,-1376,-711,181,534
7120,-320,-1448,-1392,-691,184,540
7125,-312,-1448,-1352,-671,190,547
7130,-296,-1456,-1376,-651,198,552
7135,-312,-1384,-1376,-631,205,561
7140,-312,-1384,-1384,-613,212,566
7145,-280,-1376,-1424,-595,220,572
7150,-312,-1368,-1408,-582,229,581
7155,-360,-1320,-1408,-572,235,593
7160,-352,-1304,-1456,-567,244,605
7165,-352,-1304,-1440,-568,250,615
7170,-352,-1304,-1408,-571,257,623
7175,-368,-1312,-1424,-573,267,630
7180,-352,-1296,-1432,-575,276,637
7185,-344,-1280,-1424,-574,285,643
7190,-336,-1304,-1408,-575,293,650
7195,-384,-1248,-1464,-578,300,655
7200,-368,-1256,-1472,-581,305,662
7205,-384,-1216,-1464,-584,314,668
7210,-384,-1232,-1480,-587,318,672
7215,-384,-1232,-1488,-587,324,677
7220,-360,-1240,-1496,-587,327,682
7225,-376,-1200,-1528,-588,329,686
7230,-368,-1168,-1544,-586,327,689
7235,-368,-1192,-1544,-585,326,693
7240,-368,-1160,-1536,-584,323,698
7245,-376,-1152,-1544,-580,323,704
7250,-360,-1128,-1552,-576,326,710
7255,-336,-1144,-1528,-571,331,714
7260,-320,-1160,-1552,-565,341,715
7265,-336,-1144,-1544,-556,350,716
7270,-376,-1096,-1568,-544,362,716
7275,-360,-1136,-1544,-529,373,715
7280,-376,-1136,-1544,-514,382,713
7285,-368,-1136,-1584,-497,393,713
7290,-400,-1096,-1536,-476,399,711
7295,-400,-1120,-1544,-454,407,709
7300,-392,-1104,-1552,-434,415,705
7305,-408,-1104,-1536,-418,420,701
7310,-392,-1088,-1544,-409,425,698
7315,-384,-1104,-1528,-402,428,694
7320,-392,-1088,-1512,-397,431,689
7325,-416,-1064,-1528,-393,433,683
7330,-400,-1080,-1528,-390,433,679
7335,-408,-1064,-1536,-388,432,675
7340,-400,-1032,-1536,-385,430,672
7345,-400,-1056,-1528,-382,428,667
7350,-392,-1048,-1560,-379,424,662
7355,-400,-1024,-1504,-375,417,659
7360,-384,-1008,-1560,-371,409,657
7365,-416,-1016,-1520,-367,399,652
7370,-432,-1016,-1544,-362,390,647
7375,-432,-1000,-1512,-358,381,641
7380,-416,-1008,-1568,-357,372,634
7385,-392,-1016,-1544,-354,363,627
7390,-408,-1008,-1552,-352,354,618
7395,-400,-984,-1584,-349,342,612
7400,-368,-1016,-1496,-348,333,603
7405,-400,-952,-1616,-346,324,593
7410,-408,-976,-1576,-345,315,585
7415,-432,-1000,-1616,-343,308,575
7420,-448,-968,-1584,-340,299,566
7425,-456,-968,-1632,-339,291,554
7430,-424,-984,-1608,-337,283,543
7435,-456,-976,-1616,-334,275,531
7440,-432,-976,-1608,-329,264,522
7445,-448,-1008,-1624,-324,253,512
7450,-432,-976,-1608,-317,242,502
7455,-464,-992,-1608,-308,228,490
7460,-464,-992,-1640,-297,216,478
7465,-456,-968,-1632,-283,203,470
7470,-440,-1008,-1648,-269,191,463
7475,-432,-976,-1648,-257,178,455
7480,-408,-976,-1624,-244,168,448
7485,-416,-984,-1640,-233,159,440
7490,-416,-960,-1616,-223,152,435
7495,-416,-952,-1624,-212,147,427
7500,-400,-952,-1624,-204,142,421
7505,-416,-928,-1648,-194,138,413
7510,-424,-936,-1640,-186,135,406
7515,-416,-912,-1648,-178,133,400
7520,-400,-912,-1672,-171,130,393
7525,-400,-928,-1664,-165,128,385
7530,-384,-888,-1696,-158,127,379
7535,-392,-928,-1696,-154,127,376
7540,-408,-904,-1704,-152,128,372
7545,-408,-904,-1696,-147,127,369
7550,-384,-880,-1736,-143,127,369
7555,-376,-904,-1720,-140,128,367
7560,-400,-864,-1688,-136,129,367
7565,-448,-840,-1760,-130,131,364
7570,-400,-856,-1680,-124,132,364
7575,-392,-888,-1680,-118,134,364
7580,-408,-880,-1688,-112,134,362
7585,-400,-864,-1680,-105,136,363
7590,-400,-872,-1648,-101,140,364
7595,-408,-872,-1680,-96,142,365
7600,-368,-856,-1696,-91,145,365
7605,-384,-848,-1680,-89,149,369
7610,-384,-872,-1672,-84,152,374
7615,-408,-856,-1656,-79,155,379
7620,-392,-872,-1672,-75,158,384
7625,-416,-880,-1680,-70,162,388
7630,-424,-872,-1696,-67,166,391
7635,-392,-856,-1688,-65,174,397
7640,-400,-872,-1688,-61,181,403
7645,-384,-864,-1688,-54,187,409
7650,-392,-840,-1696,-47,194,414
7655,-384,-856,-1696,-39,203,420
7660,-384,-856,-1680,-31,214,423
7665,-416,-856,-1696,-24,225,427
7670,-416,-856,-1680,-23,234,430
7675,-408,-864,-1696,-24,242,434
7680,-400,-880,-1672,-22,250,438
7685,-400,-864,-1696,-18,256,446
7690,-384,-856,-1672,-15,260,450
7695,-408,-856,-1680,-11,267,456
7700,-384,-864,-1680,-7,274,459
7705,-360,-880,-1712,-4,281,461
7710,-384,-840,-1696,-2,290,461
7715,-392,-864,-1648,2,298,461
7720,-384,-848,-1656,10,305,465
7725,-400,-864,-1688,21,315,466
7730,-384,-864,-1680,34,324,464
7735,-408,-856,-1688,46,335,466
7740,-408,-848,-1704,59,348,469
7745,-408,-832,-1680,69,361,475
7750,-376,-832,-1688,80,374,482
7755,-384,-832,-1672,90,387,491
7760,-392,-856,-1664,99,402,500
7765,-376,-848,-1640,106,420,505
7770,-376,-864,-1672,109,441,507
7775,-392,-864,-1656,112,459,507
7780,-392,-864,-1656,119,476,507
7785,-400,-840,-1600,126,491,507
7790,-360,-856,-1600,133,506,509
7795,-376,-832,-1600,141,522,510
7800,-376,-840,-1600,147,543,508
7805,-392,-840,-1592,153,560,504
7810,-376,-856,-1632,159,574,503
7815,-360,-840,-1608,162,591,500
7820,-376,-792,-1608,163,607,495
7825,-336,-824,-1600,166,624,490
7830,-368,-816,-1600,167,638,490
7835,-360,-848,-1560,167,648,490
7840,-392,-832,-1568,169,652,491
7845,-376,-840,-1576,170,655,493
7850,-416,-800,-1560,167,655,493
7855,-424,-824,-1552,163,657,490
7860,-424,-808,-1552,159,657,486
7865,-400,-832,-1544,155,659,481
7870,-424,-816,-1536,148,664,478
7875,-384,-840,-1536,141,668,470
7880,-392,-848,-1488,132,679,464
7885,-368,-848,-1544,124,692,456
7890,-352,-840,-1440,120,706,451
7895,-344,-848,-1504,117,722,445
7900,-360,-864,-1512,116,739,438
7905,-320,-864,-1496,116,759,430
7910,-328,-848,-1504,115,780,420
7915,-320,-872,-1496,114,801,411
7920,-280,-840,-1480,112,821,402
7925,-304,-808,-1464,110,841,398
7930,-288,-824,-1464,108,863,386
7935,-304,-816,-1464,106,890,376
7940,-288,-800,-1432,106,917,365
7945,-272,-800,-1432,102,946,353
7950,-272,-792,-1416,95,977,346
7955,-256,-768,-1416,88,1010,335
7960,-240,-768,-1400,79,1047,324
7965,-216,-784,-1400,68,1082,314
7970,-232,-728,-1400,57,1119,302
7975,-200,-752,-1376,47,1161,286
7980,-176,-760,-1336,37,1209,272
7985,-208,-712,-1328,29,1263,252
7990,-192,-696,-1280,19,1327,222
7995,-176,-672,-1272,9,1399,190
8000,-128,-664,-1248,0,1473,149
8005,-112,-616,-1224,-4,1568,106
8010,-112,-608,-1200,-3,1648,53
8015,-120,-568,-1160,-1,1727,-3
8020,-112,-544,-1184,-4,1806,-66
8025,-96,-504,-1176,-8,1894,-134
8030,-104,-448,-1144,-8,1987,-212
8035,-72,-432,-1088,-5,2086,-304
8040,-136,-384,-1064,6,2183,-406
8045,-64,-360,-1064,32,2290,-521
8050,16,-336,-1048,61,2396,-637
8055,56,-248,-1168,105,2485,-765
8060,64,-352,-984,157,2567,-890
8065,88,-520,-888,179,2651,-982
8070,136,-616,-832,158,2718,-1038
8075,200,-672,-912,120,2713,-1064
8080,136,-768,-936,60,2629,-1050
8085,136,-816,-1000,-14,2488,-988
8090,152,-888,-1032,-142,2335,-874
8095,224,-1000,-1128,-310,2174,-717
8100,408,-1040,-1224,-486,2004,-532
8105,512,-992,-1328,-634,1820,-349
8110,592,-888,-1496,-737,1619,-189
8115,640,-792,-1584,-807,1392,-41
8120,656,-712,-1656,-877,1171,101
8125,584,-744,-1680,-951,955,247
8130,376,-880,-1720,-990,765,384
8135,72,-952,-1792,-953,648,475
8140,-176,-920,-1856,-846,635,476
8145,-352,-864,-2008,-700,693,404
8150,-416,-904,-2088,-554,789,278
8155,-504,-856,-2248,-413,884,122
8160,-528,-808,-2360,-305,971,-52
8165,-480,-808,-2464,-255,1038,-221
8170,-360,-752,-2584,-286,1072,-360
8175,-224,-704,-2648,-391,1069,-458
8180,-16,-624,-2744,-551,1030,-514
8185,232,-544,-2792,-747,976,-535
8190,512,-544,-2856,-956,911,-526
8195,784,-592,-2872,-1158,830,-496
8200,960,-608,-2872,-1335,744,-447
8205,1112,-720,-2904,-1484,676,-399
8210,1168,-728,-2928,-1593,639,-372
8215,1168,-728,-2912,-1658,642,-378
8220,1024,-616,-2896,-1689,699,-418
8225,952,-664,-2936,-1706,797,-490
8230,800,-600,-2976,-1740,917,-579
8235,624,-536,-2984,-1807,1027,-669
8240,448,-504,-2952,-1906,1117,-742
8245,312,-496,-2968,-2019,1176,-785
8250,184,-536,-2960,-2136,1212,-788
8255,80,-552,-2888,-2246,1231,-761
8260,128,-632,-2800,-2335,1253,-714
8265,152,-712,-2632,-2399,1288,-654
8270,216,-736,-2408,-2434,1340,-624
8275,312,-800,-2272,-2431,1431,-615
8280,448,-808,-2016,-2389,1528,-630
8285,512,-736,-1880,-2328,1638,-663
8290,600,-736,-1752,-2236,1756,-708
8295,640,-640,-1696,-2154,1885,-745
8300,680,-648,-1672,-2080,2020,-773
8305,648,-576,-1608,-2015,2149,-788
8310,624,-560,-1624,-1946,2261,-796
8315,552,-592,-1584,-1870,2353,-800
8320,560,-608,-1576,-1778,2428,-803
8325,496,-552,-1568,-1674,2497,-795
8330,424,-504,-1544,-1564,2561,-766
8335,360,-528,-1528,-1450,2625,-730
8340,408,-552,-1504,-1333,2698,-702
8345,456,-656,-1416,-1213,2789,-690
8350,432,-696,-1392,-1077,2900,-710
8355,408,-512,-1408,-924,3043,-747
8360,504,-320,-1400,-748,3203,-763
8365,608,-208,-1384,-561,3362,-759
8370,736,-48,-1424,-394,3490,-744
8375,760,72,-1352,-246,3580,-709
8380,936,168,-1248,-106,3618,-622
8385,1112,176,-1160,61,3618,-485
8390,1448,168,-1144,216,3548,-280
8395,1720,80,-1152,331,3399,-19
8400,1912,32,-1184,410,3228,266
8405,2000,168,-1136,462,3085,536
8410,2000,328,-1072,516,3031,737
8415,1968,560,-936,558,3084,855
8420,2056,928,-712,578,3232,894
8425,2016,1176,-448,587,3466,899
8430,2048,1376,-352,575,3682,925
8435,2160,1480,-256,550,3822,967
8440,2312,1632,-176,533,3893,1018
8445,2248,1552,-24,535,3916,1060
8450,2152,1568,88,552,3890,1096
8455,2096,1544,216,562,3825,1133
8460,2032,1544,328,546,3735,1160
8465,2080,1520,560,494,3616,1187
8470,2128,1368,656,407,3443,1204
8475,2096,1280,696,301,3244,1196
8480,2144,1160,656,193,3048,1166
8485,2392,1080,656,100,2878,1125
8490,2352,1008,600,43,2734,1074
8495,2304,968,504,-22,2602,1037
8500,2480,944,512,-96,2494,1010
8505,2704,936,536,-152,2416,986
8510,2840,864,576,-164,2366,956
8515,2992,816,544,-127,2335,908
8520,3208,752,528,-70,2327,840
8525,3360,784,552,-16,2352,771
8530,3448,784,552,28,2388,703
8535,3504,784,600,72,2432,632
8540,3464,832,608,110,2481,546
8545,3480,816,648,139,2525,482
8550,3384,784,664,165,2563,425
8555,3328,704,704,201,2581,367
8560,3352,680,832,239,2597,307
8565,3168,720,904,298,2601,238
8570,2952,728,992,360,2593,175
8575,2840,760,1056,409,2577,144
8580,2664,736,1112,442,2537,143
8585,2520,656,1192,468,2490,149
8590,2400,608,1224,490,2430,151
8595,2328,520,1240,503,2360,148
8600,2200,424,1328,505,2283,146
8605,2200,344,1376,516,2186,147
8610,2136,288,1400,542,2081,145
8615,2144,184,1432,573,1967,150
8620,2096,168,1392,609,1851,148
8625,2088,144,1392,648,1744,138
8630,2064,80,1392,697,1643,124
8635,2008,72,1344,748,1539,117
8640,1992,24,1344,789,1443,109
8645,1976,-8,1344,833,1353,89
8650,1888,-56,1304,879,1262,66
8655,1880,-112,1328,926,1172,38
8660,1768,-168,1248,971,1076,12
8665,1664,-176,1200,1007,983,-3
8670,1544,-184,1192,1023,893,-7
8675,1472,-240,1088,1023,804,-1
8680,1432,-248,1024,1012,728,13
8685,1456,-296,960,990,668,38
8690,1424,-360,976,967,611,64
8695,1488,-408,1000,948,552,89
8700,1496,-488,952,936,499,108
8705,1520,-536,920,915,452,136
8710,1528,-544,968,883,412,159
8715,1576,-544,960,856,363,185
8720,1648,-576,1016,832,303,205
8725,1664,-608,1032,812,228,225
8730,1712,-624,976,795,145,243
8735,1664,-616,952,766,68,258
8740,1680,-600,896,726,-10,267
8745,1680,-584,840,693,-90,270
8750,1704,-576,760,655,-165,280
8755,1752,-552,720,616,-234,287
8760,1752,-568,656,573,-296,294
8765,1864,-544,672,530,-354,292
8770,1872,-552,648,495,-404,282
8775,1888,-584,600,471,-452,268
8780,1936,-592,560,443,-498,258
8785,1976,-608,544,416,-542,238
8790,1968,-624,568,393,-577,218
8795,1976,-592,528,375,-615,195
8800,1968,-616,488,359,-647,169
8805,2000,-584,440,348,-676,140
8810,1960,-568,448,333,-701,111
8815,1984,-552,464,313,-734,80
8820,1936,-520,392,296,-761,51
8825,1992,-512,400,285,-791,20
8830,1968,-472,384,277,-822,-12
8835,1952,-416,384,264,-847,-35
8840,1952,-432,336,247,-873,-57
8845,1976,-408,352,234,-892,-88
8850,2008,-440,288,219,-910,-120
8855,2008,-400,328,203,-926,-152
8860,2024,-432,360,182,-936,-182
8865,2056,-400,320,162,-948,-210
8870,2016,-392,320,139,-961,-234
8875,2016,-368,312,115,-976,-254
8880,1992,-368,352,87,-986,-271
8885,2016,-384,320,58,-996,-286
8890,2032,-416,328,30,-1000,-303
8895,1992,-400,312,2,-1000,-318
8900,2024,-408,280,-15,-994,-336
8905,2016,-432,248,-29,-980,-355
8910,1920,-440,184,-45,-965,-367
8915,1944,-384,192,-69,-961,-372
8920,2024,-392,152,-92,-959,-380
8925,2040,-328,168,-110,-956,-392
8930,2032,-360,136,-121,-944,-408
8935,2008,-312,128,-134,-934,-418
8940,2000,-272,120,-152,-935,-415
8945,2000,-224,96,-160,-946,-418
8950,2056,-240,128,-163,-952,-420
8955,2064,-184,112,-162,-949,-423
8960,2048,-176,88,-160,-946,-419
8965,1944,-192,64,-159,-948,-406
8970,2000,-128,56,-171,-967,-378
8975,2096,-64,64,-165,-975,-370
8980,2080,-64,32,-151,-969,-365
8985,2064,-24,-24,-139,-960,-355
8990,2040,-16,-80,-132,-953,-345
8995,1960,0,-56,-135,-953,-319
9000,2064,64,-56,-143,-957,-300
9005,2104,104,-88,-146,-953,-290
9010,2088,144,-104,-156,-946,-277
9015,2016,168,-144,-173,-939,-254
9020,2072,216,-128,-201,-938,-225
9025,2128,224,-88,-222,-938,-206
9030,2144,296,-64,-241,-937,-186
9035,2152,320,-88,-255,-940,-168
9040,2136,328,-120,-273,-943,-149
9045,2152,304,-104,-300,-950,-126
9050,2176,320,-144,-322,-963,-110
9055,2152,320,-88,-332,-977,-105
9060,2136,304,-120,-342,-984,-92
9065,2104,304,-136,-362,-993,-73
9070,2016,352,-176,-384,-1002,-56
9075,2040,328,-152,-414,-1008,-36
9080,2064,320,-200,-428,-1012,-25
9085,2096,312,-224,-427,-1013,-18
9090,2040,312,-248,-419,-1012,-11
9095,2032,312,-304,-406,-1005,-13
9100,2056,328,-320,-397,-991,-12
9105,2112,336,-368,-388,-974,-13
9110,2112,296,-392,-376,-951,-16
9115,2064,304,-432,-374,-932,-8
9120,2144,312,-408,-368,-911,-5
9125,2120,304,-448,-355,-879,-2
9130,2096,288,-488,-353,-847,7
9135,2112,312,-528,-349,-809,19
9140,2048,304,-504,-349,-776,30
9145,2056,288,-480,-352,-749,46
9150,2080,288,-480,-343,-718,49
9155,2040,248,-456,-337,-687,58
9160,2040,240,-504,-333,-659,71
9165,2040,208,-512,-331,-630,84
9170,2048,184,-528,-329,-607,97
9175,1984,160,-544,-330,-585,111
9180,2040,144,-488,-331,-566,123
9185,2000,120,-552,-330,-546,129
9190,2016,104,-528,-333,-529,135
9195,2008,104,-552,-336,-513,141
9200,1984,80,-552,-334,-495,147
9205,2016,72,-536,-328,-478,149
9210,2008,48,-536,-318,-462,150
9215,1960,64,-528,-306,-446,148
9220,1928,48,-560,-298,-438,153
9225,1936,80,-536,-292,-434,161
9230,2008,56,-496,-278,-433,171
9235,2016,32,-552,-263,-425,175
9240,2016,24,-472,-253,-414,183
9245,1992,16,-488,-245,-399,188
9250,2008,24,-488,-244,-388,199
9255,1912,8,-520,-238,-379,200
9260,1936,-24,-520,-241,-375,213
9265,1928,-8,-528,-240,-374,219
9270,2064,-40,-568,-231,-367,212
9275,2056,-64,-568,-221,-348,201
9280,2056,-80,-584,-218,-332,203
9285,2000,-96,-584,-214,-323,205
9290,2008,-144,-568,-209,-313,204
9295,1952,-128,-552,-198,-306,199
9300,1920,-136,-552,-189,-302,192
9305,1960,-152,-568,-178,-305,181
9310,1984,-136,-544,-165,-306,169
9315,1960,-160,-552,-152,-302,157
9320,1944,-168,-592,-147,-298,152
9325,1872,-184,-592,-149,-293,151
9330,1896,-176,-568,-152,-296,145
9335,1928,-184,-600,-147,-289,132
9340,1992,-184,-600,-138,-277,114
9345,1944,-192,-584,-128,-259,98
9350,1976,-192,-592,-128,-236,85
9355,1984,-224,-600,-125,-219,68
9360,1904,-248,-632,-117,-200,48
9365,1976,-216,-576,-105,-184,36
9370,1984,-216,-560,-92,-169,24
9375,1928,-216,-608,-84,-154,14
9380,1936,-248,-592,-79,-143,10
9385,1928,-216,-608,-76,-139,7
9390,1928,-208,-600,-75,-136,9
9395,1936,-216,-616,-68,-136,5
9400,1920,-200,-632,-58,-133,0
9405,1896,-216,-640,-47,-126,-5
9410,1896,-152,-616,-43,-117,-7
9415,1912,-208,-624,-41,-108,-8
9420,1936,-192,-664,-35,-99,-10
9425,1896,-184,-680,-30,-92,-14
9430,1936,-200,-640,-23,-85,-19
9435,1928,-176,-664,-15,-77,-24
9440,1920,-160,-632,-7,-70,-26
9445,1912,-128,-624,1,-63,-30
9450,1936,-120,-632,10,-53,-32
9455,1936,-128,-616,20,-43,-37
9460,1960,-120,-648,26,-30,-45
9465,1968,-120,-704,30,-17,-50
9470,1976,-104,-656,35,-6,-55
9475,1960,-112,-640,38,4,-62
9480,1976,-80,-648,41,12,-67
9485,1960,-104,-656,41,20,-73
9490,1952,-40,-616,42,25,-78
9495,1968,-88,-608,42,28,-81
9500,1944,-80,-608,44,29,-86
9505,1976,-64,-584,44,30,-87
9510,1944,-88,-592,46,31,-91
9515,1936,-48,-592,48,33,-92
9520,1944,-48,-584,49,36,-93
9525,1952,-16,-592,52,40,-94
9530,1944,-32,-608,55,47,-96
9535,1976,-32,-576,57,54,-97
9540,1952,-32,-608,60,61,-99
9545,1976,-24,-624,63,70,-99
9550,1944,-24,-560,66,76,-100
9555,1952,-16,-584,68,84,-104
9560,1960,-24,-544,72,91,-106
9565,1952,-16,-568,78,97,-106
9570,1960,0,-552,81,102,-107
9575,2136,32,-488,85,104,-106
9580,1968,0,-560,87,104,-104
9585,1976,16,-552,89,105,-103
9590,1968,32,-544,87,106,-100
9595,1976,16,-544,86,103,-97
9600,1960,32,-512,86,100,-90
9605,1936,24,-568,83,96,-86
9610,1984,24,-568,80,95,-83
9615,1952,32,-536,79,94,-78
9620,1984,24,-544,78,94,-75
9625,1968,40,-536,79,96,-73
9630,1960,24,-536,80,96,-71
9635,1944,48,-520,79,96,-69
9640,1992,48,-528,78,94,-68
9645,1968,32,-544,77,93,-64
9650,1960,24,-520,77,92,-60
9655,1944,56,-528,75,89,-54
9660,1952,80,-512,74,88,-49
9665,1944,56,-520,73,87,-46
9670,1960,32,-568,71,86,-42
9675,1984,48,-536,69,85,-37
9680,1984,40,-544,69,85,-36
9685,2000,40,-528,69,84,-30
9690,1976,56,-528,70,84,-27
9695,1992,40,-560,70,83,-24
9700,1992,48,-512,70,84,-20
9705,1976,32,-520,70,84,-18
9710,1952,48,-496,69,81,-18
9715,1968,16,-504,68,80,-17
9720,1984,56,-504,70,76,-16
9725,1944,16,-512,70,70,-14
9730,1944,40,-488,68,65,-11
9735,1952,32,-536,67,58,-10
9740,1944,32,-480,64,54,-4
9745,1960,24,-504,60,50,-1
9750,1984,16,-504,57,49,1
9755,1992,-8,-480,54,48,2
9760,1992,8,-496,51,47,3
9765,1976,0,-488,49,45,0
9770,1992,-24,-488,49,44,2
9775,1968,0,-520,48,44,1
9780,1960,16,-520,48,40,2
9785,1960,8,-512,50,34,5
9790,1976,-16,-528,51,30,6
9795,1944,0,-536,51,25,9
9800,1992,0,-496,51,22,10
9805,1984,-24,-504,50,20,11
9810,1968,-32,-512,47,18,9
9815,1992,-16,-512,45,14,9
9820,1960,0,-520,45,13,6
9825,1960,-16,-536,44,13,5
9830,1968,-24,-520,45,12,4
9835,1968,-24,-528,44,11,3
9840,1960,-24,-544,45,12,3
9845,1992,-24,-536,46,10,3
9850,1960,-32,-520,47,9,3
9855,1960,-40,-520,46,9,5
9860,1976,-32,-520,46,8,3
9865,1960,-24,-528,45,6,3
9870,1952,-32,-520,43,3,2
9875,1960,-24,-488,43,1,0
9880,1960,-24,-536,42,-3,-2
9885,1928,-32,-544,42,-6,-3
9890,1976,-24,-512,41,-8,-4
9895,1968,-16,-520,40,-11,-3
9900,1968,-24,-552,40,-13,-2
9905,1968,-24,-512,38,-16,-3
9910,1960,-16,-528,36,-18,-3
9915,1960,-24,-552,35,-18,-4
9920,1984,-16,-536,34,-20,-1
9925,1984,-40,-552,34,-19,-4
9930,1960,-24,-552,32,-19,-6
9935,1968,-8,-552,33,-19,-6
9940,1952,-16,-520,33,-19,-8
9945,1968,-24,-536,33,-22,-10
9950,1936,-24,-528,33,-27,-12
9955,1936,-24,-512,35,-32,-16
9960,1936,0,-504,36,-39,-18
9965,1944,-8,-504,39,-47,-18
9970,1944,-16,-488,38,-54,-19
9975,1936,-16,-520,40,-60,-21
9980,1968,-16,-512,42,-66,-22
9985,1968,-32,-504,43,-71,-25
9990,1960,-16,-544,43,-73,-25
9995,1968,-16,-512,43,-74,-27
10000,1976,-16,-544,44,-74,-28
10005,1992,8,-520,45,-73,-30
10010,2000,-24,-512,47,-70,-32
10015,1960,0,-520,51,-66,-33
10020,1992,-8,-552,55,-61,-34
10025,1992,-8,-536,58,-59,-35
10030,1976,-8,-544,60,-56,-36
10035,1968,16,-528,61,-53,-33
10040,1960,24,-536,63,-52,-35
10045,1976,0,-544,64,-50,-35
10050,1968,-16,-544,65,-51,-35
10055,1952,8,-544,65,-51,-34
10060,1952,0,-568,64,-53,-33
10065,1992,-16,-592,62,-53,-32
10070,1944,8,-544,58,-52,-32
10075,1968,0,-584,58,-54,-31
10080,1960,-8,-568,56,-55,-28
10085,1984,8,-584,55,-54,-27
10090,1960,-16,-592,56,-52,-25
10095,1952,0,-584,57,-48,-26
10100,1960,0,-584,56,-44,-26
10105,1976,0,-592,58,-41,-22
10110,1936,-16,-568,59,-36,-21
10115,1952,-8,-584,58,-31,-21
10120,1960,-16,-584,56,-28,-19
10125,1928,-8,-600,57,-24,-17
10130,1952,-24,-584,55,-23,-20
10135,1944,-16,-544,52,-23,-21
10140,1928,-24,-576,51,-21,-21
10145,1944,-8,-560,51,-20,-19
10150,1936,-8,-592,53,-19,-18
10155,1928,-16,-560,52,-18,-15
10160,1968,-8,-560,53,-15,-14
10165,1960,0,-568,51,-11,-13
10170,1968,-16,-616,52,-7,-14
10175,1952,0,-568,50,-2,-14
10180,1952,-16,-584,51,2,-16
10185,1944,-8,-568,51,7,-17
10190,1968,-24,-560,51,9,-19
10195,1968,-8,-568,52,12,-21
10200,1960,-32,-568,54,12,-21
10205,1968,16,-544,56,13,-19
10210,1944,0,-544,58,14,-19
10215,1960,-8,-560,58,14,-18
10220,1944,0,-536,58,16,-18
10225,1952,-16,-576,57,17,-17
10230,1976,0,-536,53,20,-18
10235,1952,0,-576,51,23,-17
10240,1960,0,-536,49,26,-19
10245,1976,8,-568,48,28,-20
10250,1944,0,-568,50,29,-21
10255,1952,-8,-568,50,30,-22
10260,1952,-24,-560,51,30,-22
10265,1944,-8,-552,54,31,-23
10270,1936,16,-592,55,31,-22
10275,1960,0,-568,57,32,-21
10280,1984,-32,-512,59,33,-22
10285,1952,-8,-560,60,33,-23
10290,1968,0,-536,59,31,-24
10295,1952,0,-544,60,29,-24
10300,1976,-16,-520,59,23,-25
10305,1936,0,-584,60,19,-23
10310,1968,-16,-544,61,16,-22
10315,1960,-8,-592,61,15,-23
10320,1952,-8,-560,61,15,-21
10325,1936,24,-528,62,17,-21
10330,1952,-16,-560,63,19,-22
10335,1976,16,-560,63,21,-22
10340,1952,0,-560,64,25,-23
10345,1976,-8,-552,65,29,-24
10350,1976,-16,-608,66,31,-24
10355,1968,8,-560,67,34,-24
10360,1968,16,-576,66,33,-26
10365,1960,-8,-512,65,34,-25
10370,1984,0,-568,65,35,-25
10375,1960,-8,-568,65,35,-26
10380,1984,0,-568,65,36,-27
10385,1968,0,-560,63,35,-24
10390,1928,8,-560,61,34,-25
10395,1960,0,-536,60,33,-23
10400,1976,8,-568,58,32,-22
10405,1944,24,-552,58,33,-21
10410,1968,16,-536,57,32,-22
10415,1976,24,-544,55,32,-19
10420,1952,8,-552,52,32,-19
10425,1984,-16,-544,53,34,-18
10430,1944,0,-544,54,35,-18
10435,1976,0,-536,54,34,-16
10440,1984,-8,-528,55,33,-17
10445,1976,0,-544,54,32,-16
10450,1944,8,-544,54,30,-13
10455,1968,-8,-528,53,29,-14
10460,1968,0,-552,53,26,-15
10465,1960,8,-544,54,24,-14
10470,1944,8,-560,53,22,-15
10475,1968,16,-584,53,19,-14
10480,1944,32,-520,53,17,-12
10485,1968,8,-576,54,16,-11
10490,1968,8,-552,53,15,-8
10495,1960,8,-536,52,14,-8
10500,1960,32,-520,53,13,-8
10505,2000,8,-552,54,15,-5
10510,1976,8,-560,54,15,-3
10515,1976,0,-528,53,16,-4
10520,1960,-16,-560,52,15,-3
10525,1968,8,-552,51,16,-3
10530,1968,0,-544,52,16,-3
10535,1960,0,-544,53,14,-4
10540,1952,-8,-576,53,15,-3
10545,1960,24,-560,52,14,-5
10550,1968,8,-520,53,13,-5
10555,1960,16,-568,52,13,-6
10560,1960,40,-528,52,13,-5
10565,1984,0,-552,51,12,-5
10570,1960,0,-568,49,9,-5
10575,1952,16,-552,47,7,-4
10580,1976,8,-552,45,7,-4
10585,1976,-8,-536,45,8,-3
10590,1960,8,-560,44,7,-3
10595,1960,24,-536,45,6,-2
10600,1960,-16,-536,44,5,-2
10605,1960,0,-528,44,3,-2
10610,1944,-8,-560,43,2,-2
10615,1960,-16,-536,45,3,-1
10620,1960,-8,-560,48,1,-3
10625,1952,-32,-528,48,0,-3
10630,1944,-16,-544,48,2,-3
10635,1976,-8,-560,48,2,-2
10640,1960,-8,-560,47,3,-1
10645,1976,-8,-592,46,3,-3
10650,1984,-24,-560,48,5,-4
10655,1976,-24,-552,47,5,-7
10660,1976,0,-536,47,6,-6
10665,1960,-24,-544,51,7,-9
10670,1952,-16,-544,53,9,-11
10675,1952,0,-552,54,11,-11
10680,1952,-8,-600,54,12,-12
10685,1968,0,-608,54,15,-11
10690,1968,-24,-568,54,16,-12
10695,1976,0,-560,53,20,-12
10700,1960,-8,-592,53,24,-14
10705,1984,-24,-568,51,26,-18
10710,1960,-16,-560,49,26,-20
10715,1912,-24,-552,48,25,-20
10720,1944,-8,-592,47,23,-20
10725,1968,-8,-560,47,22,-20
10730,1936,-16,-560,48,21,-20
10735,1952,-8,-560,48,17,-18
10740,1960,8,-584,48,17,-16
10745,1992,8,-568,47,18,-16
10750,1968,-16,-560,45,19,-16
10755,1952,-16,-560,46,21,-16
10760,1968,-24,-576,46,24,-15
10765,1960,-16,-568,47,29,-14
10770,1952,-24,-664,47,32,-15
10775,1936,-8,-584,49,36,-14
10780,1944,0,-576,50,39,-16
10785,1976,0,-576,52,44,-18
10790,1952,-16,-608,53,48,-17
10795,1952,-16,-568,56,51,-19
10800,1952,-8,-568,57,55,-18
10805,1952,0,-560,57,59,-20
10810,1976,-8,-584,56,61,-22
10815,1968,16,-560,56,63,-24
10820,1944,-16,-552,57,62,-24
10825,1936,0,-568,57,62,-23
10830,1960,-16,-544,54,60,-23
10835,1960,-8,-560,53,58,-25
10840,1936,24,-560,52,55,-22
10845,1944,-8,-568,53,54,-22
10850,1960,-8,-528,52,53,-21
10855,1944,0,-568,55,53,-19
10860,1968,8,-552,57,55,-17
10865,1944,8,-568,58,58,-14
10870,1960,-32,-544,61,59,-13
10875,1968,8,-520,62,63,-13
10880,1944,-16,-552,65,65,-11
10885,1952,-8,-536,66,66,-9
10890,1960,-8,-544,68,67,-10
10895,1952,8,-536,69,68,-13
10900,1960,16,-560,71,68,-13
10905,1968,16,-536,72,69,-14
10910,1968,16,-552,70,67,-16
10915,1984,16,-536,69,66,-18
10920,1976,16,-560,65,63,-17
10925,1976,0,-560,62,60,-17
10930,1984,0,-528,59,57,-17
10935,1960,8,-520,57,55,-18
10940,1952,-8,-536,55,52,-20
10945,1960,0,-512,55,50,-21
10950,1976,8,-496,55,48,-20
10955,1976,0,-512,55,44,-19
10960,1952,24,-496,56,42,-23
10965,1968,0,-480,56,42,-20
10970,1960,0,-496,58,40,-20
10975,1976,16,-536,59,39,-20
10980,2000,-16,-520,60,39,-19
10985,1976,8,-512,61,37,-17
10990,1968,-16,-512,62,35,-18
10995,1992,-16,-488,60,37,-18
11000,1968,8,-520,60,35,-17
11005,1952,8,-472,59,32,-17
11010,1976,0,-496,56,30,-15
11015,1976,24,-512,56,28,-13
11020,1960,0,-528,57,23,-13
11025,1976,0,-528,57,20,-12
11030,1992,16,-536,58,17,-10
11035,1984,0,-520,57,14,-9
11040,1960,0,-496,57,12,-8
11045,1952,16,-544,57,13,-7
11050,1960,24,-504,59,13,-7
11055,1968,-8,-504,61,8,-5
11060,1968,40,-536,56,6,-6
11065,1976,0,-496,54,2,-6
11070,1960,32,-488,50,1,-6
11075,1992,8,-520,47,-1,-5
11080,1968,8,-528,46,0,-6
11085,1960,16,-528,44,-2,-5
11090,1976,0,-520,42,-1,-7
11095,1992,8,-520,42,-1,-8
11100,1960,8,-520,41,-2,-9
11105,1968,-8,-536,39,-1,-10
11110,1984,-8,-512,39,-2,-10
11115,1968,16,-512,36,-4,-11
11120,1960,-8,-512,36,-4,-11
11125,1968,-8,-512,35,-2,-12
11130,1984,-16,-536,36,-1,-14
11135,1952,-16,-536,35,-2,-12
11140,1976,-16,-528,38,-3,-14
11145,1952,0,-504,38,-4,-12
11150,1984,-8,-552,37,-6,-11
11155,1976,-16,-504,37,-7,-10
11160,1968,-16,-544,38,-7,-12
11165,1976,8,-504,38,-7,-11
11170,1952,-8,-512,38,-6,-10
11175,1960,24,-552,40,-4,-11
11180,1960,24,-536,38,-4,-10
11185,1952,8,-552,37,-4,-8
11190,1960,-16,-544,38,-2,-8
11195,1976,8,-568,39,-3,-6
11200,1944,16,-536,38,-4,-6
11205,1936,8,-536,38,-4,-7
11210,1968,-16,-488,38,-7,-9
11215,1944,8,-544,37,-8,-8
11220,1952,0,-528,39,-8,-8
11225,1944,-8,-544,40,-8,-6
11230,1968,16,-520,38,-10,-5
11235,1944,8,-544,38,-11,-7
11240,1968,16,-536,37,-15,-5
11245,1952,-24,-544,36,-16,-7
11250,1960,0,-536,36,-17,-8
11255,1960,8,-536,36,-18,-9
11260,2024,-8,-544,34,-17,-10
11265,1952,16,-528,34,-17,-10
11270,1960,24,-544,34,-16,-10
11275,1944,0,-544,35,-15,-11
11280,1992,-8,-544,35,-15,-11
11285,1992,-8,-528,38,-14,-11
11290,1960,-8,-544,38,-12,-12
11295,1936,-16,-536,39,-14,-10
11300,1952,8,-504,41,-13,-11
11305,1944,8,-512,40,-11,-13
11310,1944,-8,-528,40,-10,-13
11315,1960,8,-544,42,-10,-13
11320,1960,8,-544,42,-11,-13
11325,1960,0,-512,42,-9,-14
11330,1960,-8,-496,45,-13,-10
11335,1968,0,-536,45,-13,-9
11340,1968,0,-560,43,-15,-8
11345,1960,16,-552,44,-16,-9
11350,1992,-16,-528,43,-17,-8
11355,1976,-8,-544,44,-16,-8
11360,1984,-8,-560,45,-17,-8
11365,1968,24,-552,45,-18,-5
11370,1984,0,-536,44,-19,-5
11375,1960,16,-568,45,-19,-6
11380,1984,-16,-536,44,-21,-6
11385,1968,8,-552,45,-22,-6
11390,1944,8,-592,45,-23,-6
11395,1984,8,-528,44,-24,-7
11400,1928,-8,-536,45,-26,-7
11405,1968,0,-528,45,-27,-8
11410,1920,24,-496,45,-27,-6
11415,1928,8,-544,46,-29,-6
11420,1968,-8,-544,48,-31,-7
11425,1976,-8,-528,48,-31,-8
11430,1952,8,-560,48,-30,-8
11435,1976,-8,-552,48,-28,-9
11440,1960,16,-544,49,-24,-11
11445,1952,-16,-552,50,-21,-12
11450,1984,-32,-592,52,-16,-9
11455,1968,0,-552,51,-15,-7
11460,1968,-24,-560,52,-14,-4
11465,1928,8,-560,53,-16,-3
11470,1944,-16,-568,53,-19,-2
11475,1952,8,-576,56,-22,-5
11480,1968,-24,-560,57,-26,-8
11485,1960,-16,-584,60,-29,-14
11490,1952,16,-584,60,-29,-20
11495,1952,56,-576,60,-25,-24
11500,1960,32,-520,58,-18,-27
11505,1976,40,-584,54,-14,-26
11510,1960,40,-576,49,-7,-24
11515,1960,48,-568,43,-1,-21
11520,1976,8,-568,38,2,-15
11525,1984,-8,-552,35,4,-8
11530,1976,-16,-560,33,5,-5
11535,1952,8,-544,32,2,-4
11540,1944,8,-536,32,1,-2
11545,1968,16,-568,36,1,-1
11550,1952,-8,-560,39,2,-1
11555,1928,8,-552,40,4,-1
11560,1944,0,-592,42,5,-1
11565,1952,-16,-552,43,5,0
11570,1936,0,-576,43,3,-2
11575,1960,-24,-592,43,2,-4
11580,1960,-16,-584,45,2,-4
11585,1952,-16,-568,50,3,-6
11590,1952,-16,-592,54,9,-7
11595,1984,0,-576,58,15,-9
11600,1984,-8,-576,60,16,-9
11605,1992,0,-544,62,17,-8
11610,1992,-8,-552,65,17,-12
11615,1968,24,-552,67,18,-16
11620,1968,40,-560,66,19,-16
11625,1976,40,-568,62,19,-18
11630,1952,32,-560,59,19,-16
11635,1952,16,-568,49,20,-16
11640,1960,48,-528,41,20,-14
11645,1944,32,-576,36,21,-16
11650,1976,48,-560,29,19,-15
11655,1960,16,-600,25,20,-14
11660,1944,32,-552,22,20,-12
11665,1952,16,-544,25,21,-10
11670,1920,-8,-552,26,21,-6
11675,1952,-16,-568,30,22,-1
11680,1928,0,-536,34,20,3
11685,1952,-16,-536,38,18,9
11690,1936,-16,-536,41,17,11
11695,1944,-32,-544,46,16,11
11700,1992,40,-568,53,16,12
11705,1944,-24,-512,57,16,10
11710,1944,-8,-520,61,18,8
11715,1920,8,-544,65,20,8
11720,1960,-24,-576,66,23,6
11725,1968,-16,-536,65,24,2
11730,1968,0,-544,64,25,-1
11735,1968,-24,-544,62,25,-4
11740,2000,24,-544,60,24,-8
11745,1984,0,-560,56,23,-10
11750,1888,48,-504,56,24,-12
11755,1952,24,-560,56,25,-12
11760,1976,-16,-560,52,25,-14
11765,1960,8,-544,46,25,-14
11770,2000,-16,-544,42,22,-11
11775,1968,8,-560,39,23,-11
11780,1952,-8,-544,38,22,-11
11785,1944,-16,-528,37,22,-14
11790,1920,-8,-528,38,25,-16
11795,1960,-24,-520,39,25,-20
11800,1968,-24,-544,40,24,-20
11805,1960,-24,-544,43,25,-19
11810,1960,-16,-560,43,24,-17
11815,1968,-8,-592,44,23,-18
11820,1944,-16,-528,42,24,-18
11825,1968,-8,-576,42,24,-17
11830,1968,0,-584,43,22,-18
11835,1960,-16,-528,45,19,-19
11840,1960,-16,-552,46,17,-18
11845,1944,16,-568,49,15,-18
11850,1968,-16,-552,50,15,-15
11855,1976,-16,-544,51,14,-16
11860,1968,16,-560,50,13,-16
11865,1936,8,-560,50,12,-15
11870,1944,32,-536,50,12,-17
11875,1968,0,-544,50,12,-17
11880,1952,0,-544,50,14,-17
11885,1952,16,-536,50,13,-18
11890,1976,8,-544,50,13,-19
11895,1960,16,-536,49,13,-16
11900,1968,8,-568,49,14,-17
11905,1944,24,-528,47,17,-18
11910,1968,0,-552,45,19,-20
11915,1952,8,-552,43,18,-20
11920,1960,40,-576,41,17,-19
11925,1968,0,-568,40,17,-20
11930,1952,24,-584,38,15,-17
11935,1976,8,-568,39,15,-17
11940,1968,24,-528,40,15,-16
11945,1976,0,-576,41,17,-12
11950,1968,24,-552,42,15,-13
11955,1960,8,-568,43,19,-14
11960,1960,-16,-552,45,23,-15
11965,1960,0,-544,45,24,-16
11970,1936,8,-544,43,26,-14
11975,1944,8,-536,44,24,-14
11980,1936,-8,-520,47,20,-13
11985,1928,-8,-536,50,19,-11
11990,1976,8,-552,50,13,-9
11995,1968,32,-552,53,10,-10
12000,1968,16,-560,54,14,-10
12005,1976,24,-584,53,19,-10
12010,1960,48,-584,51,25,-9
12015,1968,16,-552,51,29,-6
12020,1928,16,-552,50,29,-6
12025,1952,32,-560,50,29,-3
12030,1968,16,-544,50,28,2
12035,1968,32,-536,51,26,3
12040,1968,24,-560,53,25,5
12045,1944,0,-544,54,23,5
12050,1952,16,-552,55,22,6
12055,1960,-8,-552,53,22,8
12060,1944,16,-568,52,21,10
12065,1976,0,-536,49,21,11
12070,1960,8,-552,44,23,11
12075,1976,32,-560,42,23,9
12080,2008,-8,-560,40,25,6
12085,1976,0,-552,38,27,3
12090,1976,40,-552,39,33,-3
12095,1992,24,-568,40,40,-7
12100,1992,16,-560,41,45,-10
12105,2008,0,-584,43,50,-14
12110,1976,16,-552,44,57,-15
12115,1952,-8,-528,45,61,-17
12120,1976,0,-536,45,62,-18
12125,1968,16,-576,44,64,-19
12130,1960,-8,-568,43,67,-20
12135,1984,0,-552,43,69,-22
12140,1936,8,-520,44,71,-24
12145,1944,0,-560,45,74,-28
12150,1960,-8,-528,47,77,-30
12155,1952,-8,-544,49,82,-30
12160,1968,-16,-560,51,83,-31
12165,1944,0,-536,55,85,-29
12170,1952,0,-568,56,85,-28
12175,1936,16,-544,58,83,-25
12180,1944,-16,-544,58,81,-21
12185,1944,8,-560,56,79,-14
12190,1928,120,-560,53,75,-10
12195,1936,8,-560,48,70,-7
12200,1928,16,-584,44,66,-3
12205,1944,16,-568,41,63,0
12210,1952,32,-544,38,59,2
12215,1960,-16,-568,36,57,4
12220,1944,16,-544,35,54,5
12225,1960,0,-544,35,54,4
12230,1960,-16,-536,35,54,6
12235,1960,8,-528,37,54,7
12240,2000,24,-560,38,53,4
12245,1968,8,-528,39,54,4
12250,1992,0,-520,41,56,2
12255,1984,-16,-512,42,60,1
12260,1968,-24,-520,45,61,-5
12265,1992,8,-520,47,64,-9
12270,1976,-8,-504,50,67,-12
12275,1984,-24,-480,53,68,-17
12280,1992,16,-480,57,70,-19
12285,1984,-16,-472,58,70,-20
12290,1968,0,-512,58,71,-19
12295,1944,-16,-464,55,67,-14
12300,1968,-8,-472,55,62,-10
12305,1960,-8,-456,57,53,-9
12310,1976,-8,-472,59,43,-7
12315,1960,8,-480,63,32,-7
12320,1968,-16,-488,68,22,-7
12325,1952,-8,-464,72,16,-9
12330,1952,-16,-480,75,9,-14
12335,1944,8,-512,77,5,-15
12340,1968,0,-504,77,1,-19
12345,1968,40,-528,73,-2,-23
12350,2008,40,-568,66,-3,-25
12355,2016,48,-544,58,-1,-28
12360,1976,40,-544,50,0,-30
12365,1984,48,-528,44,2,-31
12370,1984,72,-512,40,2,-32
12375,1992,64,-504,34,2,-31
12380,1984,64,-512,29,1,-30
12385,1976,56,-504,25,3,-28
12390,1960,48,-520,20,2,-26
12395,2000,24,-536,16,1,-21
12400,1976,16,-512,15,-2,-16
12405,1960,0,-528,14,-5,-11
12410,1976,8,-528,15,-9,-6
12415,1952,-24,-512,17,-13,-2
12420,1968,-16,-480,22,-18,1
12425,1968,-24,-512,27,-19,3
12430,1976,-8,-536,35,-19,5
12435,1960,-24,-528,43,-18,5
12440,1976,-24,-560,53,-15,6
12445,1976,-32,-536,61,-11,3
12450,1960,-8,-512,69,-7,2
12455,1968,-8,-568,74,-1,-2
12460,1952,-8,-552,77,3,-4
12465,1952,48,-528,79,7,-6
12470,1960,40,-536,78,11,-7
12475,1968,32,-552,75,14,-8
12480,1992,24,-544,71,16,-12
12485,1968,48,-536,64,19,-13
12490,1992,24,-536,57,20,-13
12495,1992,32,-584,53,22,-13
12500,1960,24,-528,47,24,-14
12505,1976,0,-504,43,26,-15
12510,1944,40,-544,39,25,-16
12515,1976,0,-536,37,25,-12
12520,1992,24,-512,36,24,-10
12525,1968,0,-528,36,23,-10
12530,1952,24,-576,36,25,-9
12535,1944,-8,-560,36,25,-8
12540,1968,8,-520,39,27,-5
12545,1936,-24,-560,40,29,-7
12550,1968,-16,-552,41,31,-6
12555,1968,-16,-536,45,33,-6
12560,1952,0,-536,46,35,-7
12565,1936,-16,-560,47,37,-6
12570,1960,-16,-552,48,39,-7
12575,1968,-16,-536,49,40,-8
12580,1984,-24,-528,50,40,-8
12585,1976,-24,-520,51,42,-8
12590,1984,0,-552,50,42,-10
12595,1976,8,-552,52,43,-11
12600,1976,-8,-496,53,45,-11
12605,1984,16,-528,56,45,-13
12610,1992,-16,-552,57,46,-12
12615,1976,8,-544,59,47,-11
12620,1960,0,-552,62,49,-14
12625,1976,0,-528,62,50,-15
12630,1968,8,-520,63,52,-14
12635,1968,16,-520,63,53,-15
12640,1984,0,-536,64,54,-15
12645,1976,-8,-536,64,56,-18
12650,1968,16,-496,65,58,-19
12655,1992,0,-544,66,57,-21
12660,1960,-16,-512,66,59,-21
12665,1968,16,-544,64,59,-24
12670,1976,0,-528,63,58,-23
12675,1984,-16,-536,65,59,-25
12680,1984,64,-520,64,57,-26
12685,1960,8,-512,65,56,-27
12690,1968,0,-480,66,55,-28
12695,1976,8,-552,63,52,-27
12700,1984,8,-488,65,49,-26
12705,1984,8,-496,65,45,-25
12710,1976,16,-512,63,43,-23
12715,1944,24,-504,62,41,-23
12720,1976,8,-496,61,38,-21
12725,1952,40,-496,61,37,-20
12730,1960,40,-520,62,38,-19
12735,1992,0,-504,61,38,-18
12740,1976,0,-520,62,38,-19
12745,1984,-16,-512,62,39,-17
12750,1984,8,-528,62,39,-17
12755,1968,-8,-504,63,39,-15
12760,1992,8,-488,64,38,-15
12765,1968,16,-504,65,39,-15
12770,1976,-16,-512,67,37,-15
12775,1992,0,-480,66,37,-16
12780,1952,16,-496,68,36,-16
12785,1976,0,-512,69,36,-18
12790,1968,8,-440,68,37,-17
12795,1968,8,-496,67,36,-19
12800,1976,40,-520,69,35,-19
12805,1944,16,-480,67,34,-19
12810,1984,24,-488,68,32,-21
12815,1952,8,-496,66,32,-21
12820,1968,16,-480,65,31,-20
12825,1952,56,-488,65,30,-19
12830,1976,32,-480,63,29,-20
12835,1976,8,-512,63,27,-20
12840,1976,8,-504,63,27,-20
12845,1984,0,-456,62,26,-19
12850,1976,16,-504,61,24,-16
12855,1976,8,-512,60,22,-15
12860,1960,24,-488,60,20,-15
12865,1984,8,-480,61,20,-16
12870,1960,32,-488,61,19,-13
12875,1976,16,-488,62,18,-13
12880,1976,16,-504,62,18,-13
12885,1976,16,-496,62,18,-14
12890,1976,0,-528,63,18,-15
12895,1984,40,-496,63,18,-13
12900,1992,0,-472,64,18,-13
12905,1984,16,-536,64,18,-10
12910,1976,16,-520,64,19,-12
12915,1984,8,-496,64,18,-13
12920,1992,16,-496,65,18,-11
12925,1976,24,-520,65,18,-12
12930,1960,32,-480,66,18,-13
12935,1984,24,-472,65,18,-11
12940,1968,16,-480,65,19,-9
12945,1984,32,-520,64,18,-10
12950,1968,0,-504,63,17,-11
12955,1960,8,-488,63,18,-11
12960,1976,16,-472,63,18,-12
12965,1976,8,-496,62,18,-11
12970,1968,0,-496,62,17,-12
12975,1984,8,-504,63,18,-12
12980,1984,8,-528,63,19,-15
12985,1976,24,-512,63,21,-14
12990,1984,0,-456,65,23,-15
12995,1976,8,-480,65,24,-16
13000,2000,0,-480,65,25,-18
13005,1984,64,-488,65,26,-16
13010,1968,-16,-496,65,24,-15
13015,1992,-16,-488,67,24,-15
13020,1992,-8,-496,68,23,-15
13025,1984,8,-496,68,23,-15
13030,1976,8,-496,70,24,-15
13035,1976,-16,-520,70,22,-15
13040,1992,8,-528,69,22,-13
13045,1992,40,-520,70,22,-13
13050,1976,16,-512,67,21,-15
13055,1976,24,-520,65,25,-15
13060,1976,0,-480,67,25,-15
13065,1992,40,-496,66,26,-15
13070,1976,24,-512,64,26,-16
13075,1976,16,-504,62,26,-18
13080,1984,-8,-528,62,27,-19
13085,1968,0,-496,62,25,-19
13090,1968,0,-504,62,25,-20
13095,1976,24,-504,61,26,-18
13100,1976,0,-512,61,26,-19
13105,1984,0,-496,63,27,-20
13110,1968,8,-472,64,27,-21
13115,1960,16,-480,64,27,-23
13120,1960,24,-496,63,27,-22
13125,1976,8,-496,63,28,-23
13130,1976,16,-472,63,28,-24
13135,1984,0,-528,62,29,-22
13140,1992,8,-496,60,28,-23
13145,1984,24,-512,60,29,-22
13150,1984,8,-480,57,28,-21
13155,2000,8,-488,57,29,-22
13160,1984,16,-496,56,29,-21
13165,1968,24,-512,55,28,-21
13170,2048,88,-496,55,29,-22
13175,1968,24,-488,54,28,-22
13180,1984,8,-496,54,27,-21
13185,1976,16,-520,54,24,-20
13190,1952,32,-496,55,22,-19
13195,1968,8,-488,56,22,-16
13200,2000,0,-520,56,21,-14
13205,1984,8,-480,58,21,-15
13210,1992,8,-496,61,21,-14
13215,2000,-8,-528,62,22,-16
13220,1984,8,-488,62,23,-15
13225,1984,24,-480,63,23,-15
13230,1968,24,-488,61,24,-16
13235,1984,8,-512,61,25,-15
13240,1976,24,-480,59,25,-15
13245,1968,32,-504,58,26,-16
13250,1960,32,-512,57,28,-17
13255,1976,40,-488,55,29,-17
13260,1960,24,-472,54,29,-19
13265,1984,16,-472,53,29,-16
13270,2000,-8,-488,49,28,-17
13275,2000,0,-512,47,26,-16
13280,1976,32,-488,44,24,-16
13285,1976,32,-464,45,24,-15
13290,1976,8,-496,48,22,-14
13295,1984,8,-496,48,22,-13
13300,1968,32,-496,51,21,-14
13305,1960,-8,-472,51,21,-12
13310,1968,-8,-488,54,20,-11
13315,1968,8,-496,54,18,-9
13320,1992,0,-488,54,16,-6
13325,1992,0,-464,54,18,-6
13330,1976,0,-480,55,17,-5
13335,1984,-8,-488,56,17,-5
13340,1976,8,-488,57,14,-7
13345,1976,16,-472,61,14,-7
13350,1992,40,-488,62,13,-9
13355,1976,24,-496,62,11,-9
13360,2000,0,-496,61,12,-11
13365,1976,48,-504,60,11,-10
13370,1976,-24,-576,56,10,-9
13375,1976,64,-440,54,10,-9
13380,1976,40,-488,53,10,-10
13385,1960,40,-496,49,11,-9
13390,1992,16,-496,46,12,-12
13395,1992,24,-472,45,13,-12
13400,1968,32,-464,44,14,-10
13405,1960,8,-512,41,14,-11
13410,1984,16,-480,40,14,-13
13415,2000,24,-496,41,15,-14
13420,1944,24,-496,42,12,-14
13425,1984,24,-488,44,13,-13
13430,1976,24,-496,44,13,-13
13435,1976,0,-504,46,15,-14
13440,2008,-16,-496,47,12,-13
13445,1952,-8,-520,47,11,-13
13450,1976,16,-512,49,12,-10
13455,1992,8,-512,50,12,-10
13460,1976,16,-512,52,12,-10
13465,2016,8,-472,55,12,-12
13470,1968,32,-472,55,12,-11
13475,1984,0,-520,57,13,-11
13480,1968,8,-488,56,12,-11
13485,1992,-8,-512,58,12,-10
13490,1984,-8,-480,56,11,-11
13495,1968,24,-472,56,10,-10
13500,1992,24,-464,56,8,-10
13505,1976,24,-480,55,8,-11
13510,1976,16,-480,53,8,-10
13515,1992,64,-504,53,8,-11
13520,1984,0,-528,53,9,-12
13525,1984,8,-504,52,12,-12
13530,1952,40,-512,50,14,-12
13535,1992,16,-528,49,17,-13
13540,2000,-8,-472,50,18,-13
13545,1968,32,-520,48,19,-14
13550,2008,16,-488,48,19,-15
13555,1960,8,-504,48,19,-15
13560,2000,-8,-504,49,19,-15
13565,1976,8,-488,49,20,-14
13570,1992,16,-472,50,19,-15
13575,1976,24,-480,50,20,-13
13580,1976,8,-504,50,20,-14
13585,1960,16,-480,52,20,-14
13590,1968,16,-464,53,19,-15
13595,1968,24,-488,53,19,-14
13600,1984,32,-512,56,21,-13
13605,1984,16,-496,58,22,-13
13610,1984,-8,-496,57,22,-12
13615,1968,8,-504,58,21,-12
13620,1992,-8,-512,59,21,-11
13625,1968,0,-520,60,21,-11
13630,2000,8,-480,61,21,-11
13635,1992,40,-488,61,21,-10
13640,1984,24,-504,60,19,-9
13645,1992,24,-488,58,19,-10
13650,1984,24,-528,56,21,-9
13655,1976,8,-472,57,22,-10
13660,2064,80,-488,56,22,-9
13665,1984,16,-464,55,22,-12
13670,1984,-8,-528,56,21,-11
13675,1984,0,-504,54,21,-9
13680,1992,24,-480,53,21,-10
13685,1968,16,-496,50,21,-9
13690,1976,16,-504,51,21,-12
13695,1992,8,-472,49,23,-12
13700,1960,8,-512,50,21,-12
13705,2000,16,-472,51,23,-14
13710,1968,16,-480,53,24,-14
13715,1960,8,-488,53,25,-13
13720,1976,0,-488,53,24,-14
13725,1976,8,-520,55,24,-11
13730,1976,16,-472,56,24,-12
13735,1992,16,-512,56,22,-10
13740,1984,8,-488,56,23,-12
13745,1984,-8,-480,57,25,-12
13750,1976,32,-480,58,25,-13
13755,1984,16,-504,57,26,-15
13760,1968,24,-456,56,27,-14
13765,1976,-8,-496,55,27,-15
13770,1992,32,-496,55,25,-14
13775,2000,8,-504,57,21,-14
13780,1952,0,-520,57,20,-13
13785,1968,16,-496,57,21,-11
13790,1968,16,-512,56,21,-11
13795,2008,16,-504,55,21,-8
13800,2000,16,-496,54,22,-8
13805,1976,16,-480,51,23,-8
13810,1976,8,-496,51,23,-11
13815,1984,16,-480,51,25,-11
13820,1984,24,-528,51,26,-12
13825,1968,24,-488,52,28,-14
13830,1984,16,-480,52,29,-13
13835,1976,24,-480,52,32,-12
13840,2000,16,-480,53,33,-11
13845,1984,32,-520,54,33,-13
13850,1992,-24,-472,54,31,-12
13855,1984,16,-472,53,33,-11
13860,1984,0,-480,54,33,-9
13865,1992,0,-472,55,32,-11
13870,1960,0,-480,55,32,-12
13875,1992,8,-464,55,32,-13
13880,1960,24,-480,55,29,-14
13885,1968,24,-496,55,31,-12
13890,1960,16,-456,54,29,-14
13895,1968,32,-488,55,27,-12
13900,1976,0,-488,54,27,-12
13905,1992,16,-480,54,28,-14
13910,1992,8,-496,53,29,-12
13915,1992,0,-488,53,28,-13
13920,1992,16,-464,53,29,-14
13925,2000,48,-464,52,29,-14
13930,1976,24,-456,52,29,-15
13935,1992,16,-504,51,29,-16
13940,1992,40,-488,51,29,-16
13945,2000,0,-472,52,29,-16
13950,1984,16,-480,50,29,-17
13955,1984,24,-488,49,28,-15
13960,1984,16,-480,49,27,-17
13965,1968,40,-488,48,27,-18
13970,1968,40,-456,49,28,-19
13975,1984,32,-488,49,28,-17
13980,1984,40,-488,48,27,-17
13985,2008,0,-472,49,26,-16
13990,1976,32,-472,50,25,-15
13995,1992,32,-496,50,24,-16
14000,1984,32,-504,50,21,-14
14005,1992,-8,-480,49,20,-15
14010,1992,32,-512,50,19,-14
14015,1968,8,-464,51,18,-12
14020,1992,8,-488,52,17,-14
14025,1984,0,-456,52,18,-14
14030,1976,0,-488,52,18,-14
14035,1968,16,-480,54,17,-13
14040,1992,8,-488,55,17,-12
14045,1968,16,-456,57,17,-11
14050,1984,24,-472,58,16,-12
14055,1968,16,-480,59,14,-11
14060,1976,24,-464,60,14,-10
14065,1984,0,-512,61,12,-11
14070,2000,-8,-520,61,11,-11
14075,1992,32,-472,61,9,-11
14080,1992,16,-472,59,10,-11
14085,2000,24,-504,56,10,-11
14090,2000,0,-472,53,11,-12
14095,1984,40,-504,53,11,-13
14100,2008,32,-464,51,11,-14
14105,1992,32,-488,50,11,-13
14110,1984,40,-488,50,12,-15
14115,2000,8,-464,50,14,-14
14120,1968,48,-512,49,13,-13
14125,1984,16,-464,50,13,-13
14130,2008,-8,-464,49,13,-14
14135,1976,0,-488,48,11,-12
14140,1992,0,-512,51,9,-9
14145,1976,40,-456,52,8,-8
14150,2000,24,-424,52,7,-9
14155,1976,24,-464,53,6,-12
14160,1984,16,-480,53,8,-13
14165,1968,40,-472,54,8,-14
14170,1976,32,-448,54,9,-15
14175,1992,8,-496,54,8,-14
14180,1968,24,-496,53,5,-13
14185,1976,8,-472,53,5,-11
14190,1976,16,-464,52,6,-10
14195,1992,24,-488,50,6,-10
14200,1984,8,-496,48,8,-9
14205,1976,8,-496,46,9,-11
14210,1984,16,-512,45,11,-11
14215,1968,8,-520,45,11,-10
14220,1984,16,-488,44,13,-10
14225,1952,16,-480,46,15,-10
14230,1976,16,-488,47,14,-9
14235,1992,8,-488,48,14,-9
14240,1984,8,-496,49,14,-10
14245,1984,8,-496,50,12,-11
14250,1960,16,-472,52,11,-9
14255,1968,0,-472,52,10,-11
14260,1960,24,-464,52,10,-11
14265,1984,40,-464,51,8,-10
14270,1984,48,-512,51,7,-11
14275,1968,40,-464,51,7,-10
14280,1968,16,-464,49,6,-9
14285,1968,32,-488,48,6,-10
14290,1992,24,-464,46,6,-8
14295,1976,24,-464,44,4,-8
14300,1992,16,-472,44,5,-8
14305,2000,0,-464,45,5,-10
14310,1984,-8,-464,44,7,-8
14315,2000,8,-488,45,7,-8
14320,2000,0,-504,46,7,-11
14325,2000,0,-496,48,7,-12
14330,1992,-8,-480,49,7,-13
14335,1992,24,-472,51,6,-11
14340,1968,-24,-472,51,4,-12
14345,2008,-8,-496,51,4,-14
14350,1984,8,-456,52,4,-15
14355,1952,16,-480,51,1,-17
14360,1984,8,-464,51,-2,-17
14365,1960,0,-472,51,-3,-15
14370,1976,16,-448,51,-8,-15
14375,1984,16,-480,50,-10,-13
14380,2000,8,-496,51,-13,-11
14385,1984,16,-440,51,-15,-13
14390,2000,8,-488,51,-17,-11
14395,1984,40,-464,51,-17,-11
14400,1992,32,-464,53,-16,-10
14405,1992,8,-472,52,-18,-10
14410,1984,40,-488,52,-19,-11
14415,1960,16,-496,52,-18,-10
14420,1976,0,-456,51,-18,-9
14425,2008,56,-488,50,-17,-9
14430,1984,16,-488,48,-18,-9
14435,1992,8,-496,47,-18,-9
14440,2000,32,-464,46,-19,-9
14445,1984,40,-504,44,-22,-9
14450,1984,48,-472,40,-22,-8
14455,1968,40,-488,39,-25,-9
14460,1976,8,-504,38,-26,-7
14465,1968,48,-472,38,-27,-7
14470,2008,56,-464,36,-28,-7
14475,1984,40,-464,38,-31,-4
14480,1968,56,-496,38,-29,-2
14485,1968,56,-480,38,-28,-3
14490,2008,0,-488,40,-27,-2
14495,1968,24,-512,42,-27,-1
14500,1984,16,-488,42,-25,-2
14505,2000,32,-496,41,-24,0
14510,1984,16,-480,42,-22,-1
14515,1992,32,-496,44,-20,0
14520,1968,24,-480,45,-19,1
14525,1984,32,-512,47,-16,1
14530,1984,16,-528,48,-15,2
14535,1992,8,-528,48,-12,2
14540,1984,8,-520,49,-11,1
14545,1992,0,-456,50,-10,3
14550,1968,32,-504,48,-9,2
14555,1976,24,-512,49,-8,4
14560,1984,0,-520,47,-9,4
14565,1984,8,-496,46,-8,3
14570,1960,40,-512,44,-9,3
14575,1976,0,-544,44,-7,5
14580,1968,8,-496,42,-7,6
14585,1928,40,-536,41,-7,5
14590,1936,24,-504,41,-6,6
14595,1968,48,-504,39,-3,5
14600,1984,32,-504,38,-2,6
14605,1984,0,-512,39,1,6
14610,1976,0,-520,38,2,7
14615,1968,24,-528,37,4,5
14620,1984,16,-560,39,8,6
14625,1968,16,-512,38,9,3
14630,1984,-16,-512,36,13,6
14635,1976,-8,-512,37,12,5
14640,1968,16,-456,38,14,6
14645,1992,-16,-544,38,13,4
14650,1944,-16,-504,39,14,2
14655,1976,-8,-512,39,14,1
14660,1960,32,-472,40,13,0
14665,1984,16,-464,40,13,0
14670,1992,0,-488,41,12,0
14675,1960,16,-528,41,11,-1
14680,1984,-8,-496,40,10,-1
14685,1984,-16,-512,39,9,-1
14690,1976,24,-512,39,8,1
14695,1984,16,-488,39,8,-2
14700,1976,0,-488,40,7,-3
14705,1968,-8,-496,41,7,-3
14710,1976,16,-512,40,8,-2
14715,1960,40,-472,41,8,-4
14720,1992,-8,-512,44,8,-4
14725,1960,16,-496,44,8,-6
14730,1968,0,-480,45,10,-5
14735,2000,8,-512,44,10,-6
14740,1976,8,-496,45,10,-7
14745,1992,16,-504,45,7,-6
14750,2000,8,-512,46,6,-5
14755,2008,16,-496,48,5,-5
14760,1968,8,-504,48,4,-5
14765,1984,24,-480,48,3,-5
14770,1992,8,-488,48,2,-5
14775,1992,0,-480,47,0,-6
14780,1992,-8,-488,47,0,-5
14785,1968,8,-496,45,-2,-4
14790,1952,24,-528,45,-2,-3
14795,1968,24,-528,44,-2,-7
14800,1984,8,-504,43,-2,-6
14805,1968,0,-496,42,-2,-6
14810,1968,24,-520,42,-1,-5
14815,1968,8,-520,41,-1,-5
14820,1968,0,-504,40,0,-5
14825,1968,8,-504,40,1,-5
14830,2000,-8,-512,41,2,-6
14835,2000,8,-488,42,1,-6
14840,2000,0,-496,43,2,-5
14845,1976,0,-496,45,1,-6
14850,1984,0,-480,46,2,-7
14855,1976,-16,-488,48,2,-4
14860,1968,8,-488,47,1,-5
14865,1976,24,-504,47,1,-3
14870,1968,8,-520,47,0,0
14875,1968,32,-520,47,1,-1
14880,1992,16,-496,48,1,-2
14885,1984,16,-520,45,1,-1
14890,1984,24,-504,45,2,-3
14895,2000,24,-520,45,4,-3
14900,1976,16,-504,44,6,-3
14905,1992,16,-480,42,6,-3
14910,1984,0,-512,42,5,-2
14915,1984,32,-504,41,6,-3
14920,1976,0,-504,40,6,-3
14925,1968,24,-520,40,6,-2
14930,1968,16,-504,40,4,-1
14935,1984,40,-512,40,5,-1
14940,1960,32,-520,41,6,0
14945,1968,16,-512,41,8,-4
14950,1968,8,-480,41,10,-3
14955,1976,8,-504,43,11,-1
14960,1992,-8,-480,44,12,-2
14965,1976,-8,-512,45,12,-4
14970,1968,-8,-496,47,11,-3
14975,1984,24,-552,48,13,-5
14980,1976,16,-496,49,12,-4
14985,1984,16,-536,50,13,-4
14990,1992,0,-512,51,13,-2
14995,1976,8,-488,51,13,-3
