timestamp,accel_x,accel_y,accel_z,gyro_x,gyro_y,gyro_z
0,200,-2160,-224,-1,61,-4
5,192,-2144,-248,-4,63,-1
10,192,-2184,-264,-6,63,-4
15,208,-2152,-240,-6,62,-1
20,216,-2176,-248,-6,63,-3
25,152,-2168,-208,-5,64,-1
30,200,-2168,-232,-7,63,-3
35,216,-2160,-232,-7,64,0
40,208,-2152,-256,-8,65,-1
45,200,-2168,-232,-8,63,0
50,208,-2184,-224,-9,61,-2
55,184,-2144,-240,-9,61,0
60,208,-2152,-240,-9,61,-3
65,208,-2152,-224,-9,61,1
70,192,-2144,-264,-9,61,-2
75,208,-2176,-208,-10,61,0
80,208,-2152,-224,-9,61,-2
85,216,-2152,-248,-8,62,0
90,208,-2152,-240,-8,62,-2
95,208,-2168,-232,-9,62,2
100,216,-2160,-280,-8,63,-1
105,208,-2160,-224,-7,62,1
110,208,-2144,-232,-7,62,-1
115,312,-2168,-168,-7,62,1
120,160,-2168,-232,-6,62,-1
125,184,-2192,-304,-6,61,1
130,184,-2208,-272,-7,60,-2
135,208,-2216,-232,-7,62,1
140,104,-2168,-264,-6,61,-1
145,280,-2064,-96,-6,60,2
150,192,-2128,-168,-6,59,0
155,192,-2152,-208,-8,60,1
160,152,-2192,-264,-7,60,0
165,176,-2136,-264,-5,61,1
170,176,-2184,-264,-6,62,2
175,192,-2160,-304,-6,62,3
180,240,-2200,-264,-7,63,1
185,280,-2136,-224,-4,63,3
190,144,-2192,-264,-5,64,1
195,152,-2280,-248,-6,63,2
200,192,-2144,-224,-6,63,0
205,192,-2160,-232,-5,62,1
210,200,-2176,-264,-7,61,-1
215,216,-2136,-240,-8,62,0
220,200,-2176,-304,-11,62,-1
225,200,-2160,-264,-12,61,1
230,208,-2168,-256,-11,60,0
235,216,-2152,-216,-10,60,1
240,192,-2176,-232,-8,60,-1
245,216,-2144,-216,-6,60,2
250,200,-2152,-208,-5,60,0
255,200,-2152,-216,-4,59,2
260,208,-2168,-232,-4,60,-1
265,200,-2176,-248,-5,59,0
270,208,-2168,-192,-6,61,-1
275,208,-2136,-224,-5,60,1
280,216,-2176,-240,-5,60,-2
285,192,-2160,-216,-5,60,0
290,200,-2152,-224,-7,61,-2
295,184,-2160,-256,-8,60,0
300,208,-2168,-264,-8,61,-1
305,176,-2152,-232,-8,61,-1
310,208,-2152,-240,-9,60,-4
315,216,-2168,-216,-9,60,-2
320,184,-2152,-240,-10,58,-4
325,200,-2144,-264,-9,58,0
330,192,-2152,-176,-10,59,-1
335,208,-2168,-216,-9,59,0
340,184,-2168,-216,-8,59,-2
345,192,-2168,-208,-6,58,0
350,208,-2160,-224,-6,57,-2
355,192,-2160,-232,-7,58,-1
360,208,-2168,-240,-6,60,-3
365,208,-2160,-248,-6,60,-1
370,224,-2184,-240,-7,60,-3
375,200,-2152,-216,-7,59,-2
380,208,-2168,-224,-7,61,-4
385,200,-2160,-232,-8,61,-2
390,184,-2160,-208,-6,61,-3
395,200,-2168,-208,-6,62,-2
400,208,-2160,-232,-5,60,-4
405,216,-2160,-240,-6,59,-1
410,184,-2176,-232,-4,61,-2
415,200,-2176,-256,-4,61,0
420,208,-2184,-216,-3,60,-2
425,208,-2160,-216,-3,60,-1
430,216,-2152,-216,-4,60,-1
435,192,-2160,-200,-5,60,0
440,208,-2160,-232,-5,58,-1
445,216,-2160,-208,-5,59,0
450,216,-2160,-232,-4,60,0
455,200,-2152,-240,-3,59,0
460,200,-2160,-240,-4,60,0
465,208,-2168,-248,-6,60,2
470,200,-2160,-240,-5,60,0
475,200,-2168,-248,-4,61,2
480,208,-2136,-232,-3,61,-1
485,208,-2168,-208,-4,62,0
490,208,-2168,-224,-6,61,0
495,184,-2152,-216,-6,62,2
500,208,-2168,-224,-6,61,0
505,192,-2152,-224,-7,60,0
510,200,-2160,-240,-7,59,-1
515,200,-2152,-240,-7,60,0
520,192,-2160,-208,-7,59,-2
525,200,-2168,-216,-8,61,0
530,200,-2152,-200,-7,60,-2
535,192,-2168,-232,-8,61,0
540,200,-2176,-216,-6,60,0
545,216,-2168,-248,-7,61,1
550,208,-2152,-208,-6,60,0
555,192,-2168,-208,-7,61,1
560,192,-2144,-224,-8,59,-1
565,216,-2152,-216,-8,59,1
570,200,-2176,-240,-9,58,-1
575,176,-2176,-248,-9,58,1
580,224,-2184,-240,-8,57,1
585,176,-2136,-240,-9,58,2
590,192,-2152,-232,-11,59,1
595,200,-2168,-232,-13,59,2
600,208,-2168,-224,-11,60,1
605,200,-2160,-216,-10,59,2
610,208,-2168,-208,-9,59,0
615,216,-2160,-208,-6,59,2
620,208,-2160,-240,-7,58,0
625,192,-2136,-232,-7,59,1
630,216,-2168,-240,-8,59,2
635,216,-2168,-208,-8,59,2
640,192,-2136,-240,-8,57,0
645,208,-2160,-224,-10,58,1
650,200,-2152,-216,-13,58,0
655,208,-2176,-248,-13,58,1
660,216,-2160,-224,-15,59,0
665,200,-2152,-224,-11,58,0
670,208,-2192,-192,-8,58,-1
675,192,-2160,-232,-8,58,-1
680,216,-2168,-184,-7,59,-1
685,208,-2184,-248,-7,59,-1
690,216,-2160,-240,-3,60,0
695,200,-2192,-224,-2,59,-1
700,176,-2152,-256,0,59,-2
705,208,-2144,-248,2,59,-1
710,200,-2160,-216,1,60,-3
715,208,-2160,-200,-3,61,-1
720,160,-2160,-216,-4,62,-2
725,208,-2160,-240,-5,64,-2
730,208,-2168,-208,-7,64,-3
735,208,-2184,-200,-6,65,-3
740,200,-2136,-232,-7,65,-2
745,232,-2192,-224,-7,64,-2
750,208,-2160,-224,-7,62,-3
755,168,-2176,-224,-7,62,-2
760,200,-2152,-216,-9,60,-2
765,192,-2160,-232,-8,60,-2
770,200,-2160,-200,-6,59,-3
775,200,-2152,-224,-7,60,-2
780,184,-2152,-192,-6,59,-3
785,192,-2152,-240,-7,60,-2
790,200,-2152,-248,-8,60,-2
795,200,-2184,-232,-9,59,-1
800,192,-2152,-216,-9,60,-1
805,208,-2160,-240,-11,60,-1
810,184,-2160,-216,-10,59,-2
815,208,-2160,-200,-10,61,0
820,208,-2160,-240,-9,59,-1
825,200,-2168,-216,-9,59,-1
830,224,-2152,-240,-9,59,-1
835,224,-2176,-216,-8,59,-1
840,184,-2168,-208,-8,58,-1
845,200,-2160,-200,-7,57,-1
850,224,-2152,-216,-8,59,0
855,216,-2160,-240,-7,58,0
860,192,-2176,-208,-8,56,-2
865,216,-2168,-232,-8,57,-1
870,208,-2152,-200,-8,57,-2
875,208,-2152,-192,-8,58,-1
880,192,-2168,-224,-9,59,-1
885,200,-2160,-224,-7,61,0
890,200,-2160,-248,-7,61,-2
895,192,-2136,-224,-9,60,-3
900,200,-2160,-224,-9,60,-2
905,192,-2152,-208,-9,59,-1
910,184,-2136,-240,-9,59,-3
915,216,-2176,-216,-10,60,-2
920,192,-2168,-248,-12,59,-3
925,200,-2168,-240,-12,59,-3
930,216,-2168,-224,-13,60,-3
935,216,-2160,-184,-12,59,-3
940,232,-2184,-192,-12,59,-2
945,184,-2168,-248,-13,59,-1
950,208,-2152,-232,-11,59,-2
955,224,-2160,-216,-9,58,-1
960,208,-2176,-224,-8,58,-2
965,184,-2168,-256,-8,58,-1
970,192,-2152,-224,-8,58,-1
975,200,-2160,-232,-8,58,1
980,192,-2168,-208,-8,58,-1
985,176,-2176,-192,-7,58,-1
990,192,-2160,-232,-7,58,-1
995,232,-2168,-232,-8,59,-1
1000,200,-2168,-192,-7,59,-2
1005,200,-2160,-240,-8,59,-1
1010,192,-2152,-216,-8,59,-3
1015,200,-2136,-224,-9,60,-3
1020,200,-2152,-184,-9,61,-3
1025,200,-2168,-208,-11,61,-2
1030,200,-2192,-224,-12,61,-3
1035,200,-2176,-256,-13,59,-4
1040,208,-2168,-232,-13,59,-2
1045,200,-2168,-224,-11,58,-2
1050,200,-2160,-232,-11,58,-4
1055,200,-2144,-208,-12,58,-3
1060,216,-2176,-224,-12,57,-2
1065,192,-2160,-216,-12,58,-2
1070,192,-2168,-208,-12,58,-3
1075,192,-2168,-232,-13,58,-3
1080,216,-2176,-208,-12,58,-2
1085,216,-2160,-232,-13,59,-4
1090,200,-2176,-240,-13,60,-3
1095,208,-2184,-200,-12,59,-2
1100,208,-2160,-240,-12,59,-3
1105,192,-2160,-200,-12,59,-3
1110,184,-2168,-216,-12,60,-3
1115,208,-2152,-224,-12,58,-3
1120,200,-2184,-224,-11,57,-4
1125,192,-2152,-240,-11,58,-3
1130,200,-2168,-240,-10,59,-3
1135,208,-2144,-208,-9,59,-3
1140,216,-2184,-208,-9,59,-1
1145,200,-2152,-224,-9,60,-1
1150,192,-2168,-224,-9,60,-1
1155,216,-2160,-216,-8,60,-1
1160,192,-2152,-216,-8,59,0
1165,216,-2160,-232,-8,60,-1
1170,200,-2160,-200,-10,61,0
1175,192,-2144,-240,-9,61,-1
1180,224,-2152,-200,-7,59,0
1185,192,-2160,-216,-9,58,-2
1190,184,-2160,-232,-10,58,-1
1195,200,-2168,-240,-9,58,0
1200,192,-2176,-216,-10,60,-1
1205,192,-2168,-192,-10,59,-1
1210,216,-2184,-224,-9,60,0
1215,224,-2160,-216,-8,58,-1
1220,192,-2168,-232,-7,59,0
1225,224,-2168,-240,-7,60,0
1230,216,-2160,-192,-7,59,0
1235,208,-2160,-216,-7,59,1
1240,184,-2152,-208,-6,57,0
1245,200,-2168,-232,-6,57,0
1250,200,-2144,-192,-5,58,0
1255,192,-2152,-216,-6,60,-1
1260,184,-2168,-208,-7,60,-1
1265,176,-2136,-200,-6,60,-2
1270,200,-2136,-184,-6,59,1
1275,208,-2168,-240,-5,58,-1
1280,176,-2152,-216,-6,58,1
1285,176,-2176,-200,-5,60,1
1290,200,-2160,-216,-3,59,1
1295,216,-2168,-224,-5,59,0
1300,208,-2160,-192,-3,60,0
1305,192,-2168,-216,-1,60,0
1310,208,-2160,-224,0,61,1
1315,208,-2136,-224,2,61,1
1320,184,-2152,-224,0,63,1
1325,208,-2160,-184,0,62,0
1330,208,-2168,-232,1,61,1
1335,200,-2168,-200,2,62,2
1340,208,-2176,-200,1,60,1
1345,184,-2176,-216,-1,58,1
1350,216,-2160,-224,0,59,0
1355,216,-2176,-192,-1,58,0
1360,208,-2160,-216,-2,57,0
1365,208,-2176,-200,-4,59,-1
1370,192,-2160,-232,-5,58,-1
1375,184,-2152,-208,-7,58,-1
1380,192,-2192,-200,-7,58,-1
1385,200,-2176,-240,-6,58,-2
1390,200,-2136,-248,-6,58,-3
1395,184,-2144,-232,-4,58,-3
1400,200,-2160,-224,-3,59,-2
1405,200,-2144,-232,-4,61,-3
1410,200,-2136,-216,-5,60,-3
1415,192,-2152,-224,-7,59,-4
1420,200,-2168,-200,-8,58,-3
1425,200,-2136,-216,-11,58,-4
1430,192,-2160,-192,-11,57,-3
1435,216,-2176,-192,-11,58,-3
1440,176,-2176,-208,-10,58,-2
1445,200,-2176,-224,-8,59,-2
1450,208,-2176,-216,-7,58,-2
1455,200,-2176,-216,-6,59,-3
1460,192,-2176,-200,-5,58,-2
1465,200,-2176,-208,-4,58,-4
1470,200,-2176,-208,-4,58,-3
1475,200,-2192,-224,-3,59,-5
1480,184,-2136,-240,1,60,-4
1485,192,-2136,-208,1,60,-5
1490,200,-2160,-216,0,60,-5
1495,200,-2160,-216,-2,60,-6
1500,192,-2160,-192,-4,60,-5
1505,208,-2160,-216,-7,62,-6
1510,200,-2144,-216,-8,63,-4
1515,208,-2168,-224,-10,63,-6
1520,216,-2168,-200,-12,64,-4
1525,192,-2160,-192,-11,63,-6
1530,184,-2160,-192,-11,63,-5
1535,200,-2160,-224,-13,62,-5
1540,208,-2160,-216,-13,60,-4
1545,216,-2160,-216,-13,60,-5
1550,208,-2184,-184,-16,60,-3
1555,208,-2152,-224,-16,58,-5
1560,208,-2176,-216,-17,57,-3
1565,208,-2144,-168,-17,58,-4
1570,192,-2160,-200,-15,58,-2
1575,184,-2168,-208,-17,58,-3
1580,216,-2160,-248,-17,57,-2
1585,208,-2152,-224,-17,57,-3
1590,224,-2176,-216,-18,57,-2
1595,192,-2144,-240,-18,56,-2
1600,216,-2168,-224,-19,56,-1
1605,200,-2136,-192,-20,55,-2
1610,208,-2144,-232,-21,56,-1
1615,192,-2160,-232,-20,57,-4
1620,192,-2160,-192,-20,57,-2
1625,200,-2176,-232,-20,58,-3
1630,200,-2144,-232,-23,56,-2
1635,200,-2160,-232,-24,57,-3
1640,200,-2176,-232,-24,57,-3
1645,192,-2184,-184,-24,57,-3
1650,208,-2184,-192,-24,57,-3
1655,208,-2160,-224,-24,57,-5
1660,192,-2152,-224,-24,57,-3
1665,200,-2168,-176,-25,57,-4
1670,200,-2152,-224,-27,56,-3
1675,176,-2160,-216,-27,57,-4
1680,200,-2160,-192,-27,56,-2
1685,192,-2160,-208,-27,56,-3
1690,224,-2152,-248,-27,56,-1
1695,208,-2152,-216,-27,55,-2
1700,208,-2152,-232,-28,56,-1
1705,200,-2160,-224,-29,56,-3
1710,208,-2152,-232,-31,55,-2
1715,216,-2176,-208,-31,55,-4
1720,224,-2160,-200,-32,56,-2
1725,208,-2144,-232,-32,54,-4
1730,200,-2136,-216,-34,55,-3
1735,200,-2160,-232,-33,54,-2
1740,200,-2160,-248,-36,54,-1
1745,216,-2168,-232,-35,54,-4
1750,184,-2160,-224,-36,52,-3
1755,200,-2168,-224,-35,52,-6
1760,216,-2160,-200,-36,53,-4
1765,192,-2184,-240,-38,53,-4
1770,208,-2176,-192,-39,52,-3
1775,200,-2192,-208,-40,54,-4
1780,200,-2176,-192,-40,54,-4
1785,200,-2168,-232,-41,54,-5
1790,208,-2160,-176,-42,54,-5
1795,184,-2144,-216,-44,52,-7
1800,184,-2144,-224,-45,52,-5
1805,208,-2200,-200,-47,51,-7
1810,184,-2160,-192,-48,51,-5
1815,200,-2152,-200,-48,51,-7
1820,184,-2160,-224,-50,51,-6
1825,184,-2176,-248,-48,51,-7
1830,200,-2168,-232,-48,50,-5
1835,224,-2176,-232,-47,50,-7
1840,184,-2168,-224,-47,49,-5
1845,184,-2168,-256,-47,49,-7
1850,208,-2160,-216,-46,49,-5
1855,184,-2168,-240,-46,49,-8
1860,200,-2144,-224,-46,51,-5
1865,208,-2160,-232,-46,50,-6
1870,168,-2264,-320,-46,50,-5
1875,208,-2168,-224,-46,52,-6
1880,192,-2160,-232,-46,51,-5
1885,184,-2144,-208,-44,51,-7
1890,224,-2192,-264,-43,51,-6
1895,192,-2160,-248,-43,52,-8
1900,200,-2168,-224,-43,53,-5
1905,200,-2168,-240,-43,54,-6
1910,216,-2160,-248,-43,54,-5
1915,216,-2184,-240,-42,54,-7
1920,200,-2168,-216,-43,54,-5
1925,216,-2152,-208,-44,53,-6
1930,216,-2144,-248,-45,53,-4
1935,192,-2144,-224,-46,53,-5
1940,208,-2152,-248,-46,52,-3
1945,216,-2144,-208,-46,53,-5
1950,200,-2160,-232,-46,51,-4
1955,224,-2152,-240,-47,51,-6
1960,208,-2160,-224,-48,51,-5
1965,192,-2136,-232,-47,52,-7
1970,200,-2144,-232,-47,52,-5
1975,208,-2152,-200,-48,52,-6
1980,208,-2168,-232,-49,54,-4
1985,184,-2144,-248,-50,54,-6
1990,184,-2160,-256,-51,53,-4
1995,192,-2192,-232,-51,53,-5
2000,200,-2160,-272,-50,52,-2
2005,192,-2152,-232,-50,52,-6
2010,208,-2168,-264,-51,52,-5
2015,200,-2168,-248,-50,53,-6
2020,176,-2176,-232,-50,53,-2
2025,200,-2160,-248,-51,54,-5
2030,208,-2152,-240,-50,53,-3
2035,200,-2152,-248,-50,53,-5
2040,192,-2176,-240,-50,53,-2
2045,208,-2144,-232,-50,52,-5
2050,200,-2160,-240,-51,52,-3
2055,208,-2160,-224,-50,52,-4
2060,224,-2152,-264,-51,53,-4
2065,184,-2152,-240,-50,53,-4
2070,192,-2168,-272,-52,51,-4
2075,192,-2136,-232,-54,51,-6
2080,224,-2176,-216,-57,50,-4
2085,192,-2128,-232,-58,50,-6
2090,208,-2152,-248,-60,50,-4
2095,200,-2160,-256,-62,50,-7
2100,208,-2152,-224,-65,51,-3
2105,216,-2136,-248,-67,50,-5
2110,208,-2136,-240,-70,50,-4
2115,208,-2152,-248,-71,48,-6
2120,208,-2160,-232,-72,47,-3
2125,184,-2152,-240,-74,47,-5
2130,208,-2152,-272,-75,48,-3
2135,200,-2152,-248,-74,48,-5
2140,192,-2152,-216,-75,49,-3
2145,216,-2168,-248,-77,48,-5
2150,208,-2144,-256,-79,48,-4
2155,216,-2160,-232,-81,47,-6
2160,208,-2176,-240,-80,46,-5
2165,192,-2160,-248,-82,45,-6
2170,192,-2168,-264,-82,46,-3
2175,200,-2144,-248,-83,47,-6
2180,200,-2160,-264,-85,47,-5
2185,200,-2168,-240,-87,44,-7
2190,224,-2168,-264,-90,45,-4
2195,192,-2152,-272,-94,45,-7
2200,216,-2176,-256,-96,45,-5
2205,208,-2128,-256,-97,45,-5
2210,216,-2120,-248,-100,44,-3
2215,208,-2152,-248,-103,44,-6
2220,240,-2136,-296,-108,42,-5
2225,200,-2104,-280,-114,39,-8
2230,208,-2120,-240,-117,39,-5
2235,208,-2112,-248,-126,35,-8
2240,208,-2136,-256,-132,32,-8
2245,208,-2128,-280,-144,28,-11
2250,224,-2128,-248,-150,24,-9
2255,232,-2136,-304,-158,22,-14
2260,224,-2144,-288,-164,20,-14
2265,192,-2144,-280,-171,17,-16
2270,224,-2176,-240,-176,15,-17
2275,200,-2168,-240,-181,16,-22
2280,216,-2160,-256,-181,18,-20
2285,216,-2184,-248,-181,21,-25
2290,208,-2192,-248,-177,24,-24
2295,200,-2176,-264,-170,28,-28
2300,192,-2184,-296,-168,31,-27
2305,184,-2184,-272,-164,33,-29
2310,208,-2144,-288,-166,35,-28
2315,200,-2136,-288,-165,37,-30
2320,200,-2168,-272,-167,39,-29
2325,200,-2136,-288,-169,42,-30
2330,176,-2112,-264,-171,43,-27
2335,192,-2120,-264,-174,44,-27
2340,208,-2112,-264,-179,46,-22
2345,192,-2112,-272,-183,44,-22
2350,208,-2136,-280,-189,42,-18
2355,200,-2112,-272,-196,40,-19
2360,200,-2144,-296,-200,38,-15
2365,208,-2144,-288,-208,36,-15
2370,240,-2168,-328,-214,33,-12
2375,232,-2152,-328,-220,32,-13
2380,232,-2128,-328,-225,29,-11
2385,224,-2152,-296,-229,30,-12
2390,224,-2120,-296,-232,29,-9
2395,224,-2128,-320,-234,30,-12
2400,216,-2160,-320,-238,29,-9
2405,232,-2144,-336,-240,27,-11
2410,232,-2144,-320,-241,27,-9
2415,216,-2120,-352,-242,27,-11
2420,232,-2136,-344,-242,28,-10
2425,200,-2128,-352,-241,29,-13
2430,224,-2128,-360,-244,29,-10
2435,232,-2144,-360,-248,29,-13
2440,248,-2128,-376,-250,28,-11
2445,208,-2120,-360,-254,27,-14
2450,216,-2128,-368,-259,27,-11
2455,216,-2112,-344,-262,25,-12
2460,232,-2152,-384,-267,24,-10
2465,240,-2120,-360,-275,23,-12
2470,208,-2136,-392,-282,23,-8
2475,224,-2160,-376,-288,21,-9
2480,240,-2144,-376,-292,22,-6
2485,208,-2120,-392,-298,21,-10
2490,216,-2144,-368,-302,20,-8
2495,232,-2128,-384,-306,18,-10
2500,240,-2112,-368,-308,19,-7
2505,240,-2128,-384,-312,19,-10
2510,216,-2152,-392,-317,19,-7
2515,224,-2120,-408,-324,20,-10
2520,224,-2112,-416,-329,17,-7
2525,200,-2112,-400,-335,17,-8
2530,216,-2128,-392,-341,16,-8
2535,216,-2128,-424,-345,15,-9
2540,208,-2128,-408,-351,13,-6
2545,200,-2144,-384,-355,13,-7
2550,208,-2104,-424,-359,12,-6
2555,208,-2120,-440,-362,13,-8
2560,208,-2128,-384,-364,15,-5
2565,208,-2136,-424,-369,15,-6
2570,200,-2128,-440,-375,16,-2
2575,224,-2112,-432,-380,15,-4
2580,208,-2128,-464,-387,15,0
2585,224,-2104,-432,-393,16,0
2590,232,-2128,-480,-401,15,6
2595,208,-2096,-432,-409,16,8
2600,208,-2120,-472,-420,15,13
2605,216,-2088,-448,-431,14,12
2610,200,-2072,-464,-444,13,17
2615,208,-2088,-472,-454,13,19
2620,240,-2088,-456,-465,11,26
2625,208,-2064,-432,-474,11,29
2630,200,-2088,-472,-490,9,36
2635,232,-2088,-504,-502,9,38
2640,232,-2080,-496,-510,9,45
2645,232,-2104,-504,-517,6,46
2650,240,-2120,-520,-520,3,49
2655,224,-2104,-512,-523,2,46
2660,232,-2128,-528,-526,-1,51
2665,232,-2104,-560,-528,-4,48
2670,240,-2088,-528,-533,-9,51
2675,224,-2112,-544,-537,-11,50
2680,248,-2104,-528,-541,-12,53
2685,264,-2096,-544,-547,-12,51
2690,240,-2072,-552,-557,-14,55
2695,256,-2096,-568,-565,-14,55
2700,248,-2096,-544,-572,-13,58
2705,240,-2072,-536,-578,-9,55
2710,264,-2088,-560,-588,-6,57
2715,272,-2080,-560,-598,2,55
2720,272,-2064,-544,-614,11,56
2725,264,-2072,-560,-637,18,55
2730,256,-2064,-568,-653,24,57
2735,256,-2080,-592,-664,25,54
2740,256,-2088,-600,-674,26,57
2745,248,-2088,-584,-684,27,59
2750,232,-2048,-592,-699,29,64
2755,240,-2072,-576,-720,27,63
2760,224,-2072,-624,-744,29,68
2765,216,-2048,-616,-759,32,66
2770,208,-2096,-624,-776,36,69
2775,216,-2104,-624,-788,39,66
2780,192,-2104,-616,-801,46,69
2785,192,-2112,-640,-809,48,71
2790,176,-2104,-640,-811,49,77
2795,168,-2088,-672,-817,50,80
2800,160,-2104,-664,-825,48,88
2805,144,-2072,-712,-834,46,90
2810,136,-2096,-712,-844,41,96
2815,144,-2064,-720,-849,37,94
2820,136,-2064,-720,-857,33,97
2825,128,-2104,-736,-865,30,96
2830,160,-2104,-744,-872,27,100
2835,136,-2104,-736,-878,25,102
2840,104,-2136,-768,-887,23,109
2845,136,-2128,-760,-896,22,112
2850,152,-2136,-752,-903,23,121
2855,152,-2144,-768,-911,23,122
2860,136,-2160,-784,-918,28,128
2865,136,-2152,-816,-920,34,129
2870,136,-2112,-816,-923,38,142
2875,144,-2120,-784,-934,41,152
2880,120,-2136,-808,-947,44,163
2885,152,-2112,-808,-961,43,172
2890,144,-2144,-776,-973,43,185
2895,128,-2168,-792,-979,40,191
2900,136,-2184,-824,-991,40,200
2905,160,-2192,-848,-1003,43,204
2910,152,-2200,-872,-1021,52,212
2915,168,-2184,-920,-1040,66,215
2920,208,-2208,-904,-1054,77,226
2925,208,-2216,-952,-1069,86,232
2930,208,-2216,-960,-1082,99,242
2935,200,-2232,-1000,-1096,109,246
2940,224,-2240,-1024,-1109,116,254
2945,224,-2232,-1016,-1126,123,257
2950,216,-2264,-1032,-1140,128,264
2955,192,-2256,-1032,-1150,138,264
2960,200,-2272,-1048,-1156,144,264
2965,192,-2280,-1048,-1153,148,259
2970,168,-2264,-1032,-1146,154,253
2975,128,-2272,-1088,-1139,152,238
2980,120,-2256,-1160,-1126,146,236
2985,80,-2248,-1136,-1134,132,225
2990,80,-2256,-1168,-1135,120,218
2995,40,-2232,-1160,-1140,112,207
3000,56,-2224,-1168,-1138,92,208
3005,32,-2288,-1200,-1121,70,206
3010,24,-2288,-1200,-1105,55,199
3015,56,-2264,-1216,-1090,29,184
3020,16,-2264,-1248,-1073,10,170
3025,56,-2280,-1256,-1056,-7,147
3030,48,-2264,-1256,-1035,-27,126
3035,56,-2240,-1296,-1009,-38,100
3040,40,-2200,-1288,-975,-50,75
3045,56,-2176,-1344,-933,-60,49
3050,56,-2144,-1376,-890,-68,27
3055,80,-2104,-1368,-846,-78,11
3060,56,-2080,-1352,-803,-84,-3
3065,24,-2032,-1360,-762,-97,-23
3070,0,-2008,-1312,-708,-122,-49
3075,32,-1976,-1360,-664,-147,-64
3080,16,-1920,-1344,-639,-168,-63
3085,16,-1896,-1328,-624,-199,-71
3090,32,-1888,-1320,-611,-230,-72
3095,32,-1872,-1304,-600,-250,-81
3100,96,-1864,-1328,-598,-283,-88
3105,88,-1856,-1272,-605,-314,-102
3110,88,-1880,-1272,-601,-337,-108
3115,104,-1856,-1184,-579,-355,-118
3120,104,-1848,-1104,-542,-372,-121
3125,104,-1816,-1056,-497,-391,-132
3130,112,-1792,-1056,-447,-403,-138
3135,96,-1752,-1000,-397,-413,-149
3140,112,-1728,-968,-347,-420,-154
3145,112,-1712,-912,-308,-423,-165
3150,136,-1704,-928,-273,-420,-169
3155,136,-1664,-896,-239,-414,-178
3160,152,-1616,-856,-206,-402,-184
3165,176,-1624,-832,-174,-387,-191
3170,248,-1608,-840,-150,-368,-198
3175,256,-1568,-848,-136,-346,-209
3180,240,-1560,-792,-126,-320,-211
3185,256,-1536,-880,-119,-287,-217
3190,320,-1552,-848,-105,-243,-220
3195,320,-1512,-872,-90,-185,-231
3200,296,-1552,-848,-73,-142,-234
3205,288,-1528,-840,-60,-123,-240
3210,224,-1520,-848,-50,-101,-240
3215,272,-1552,-872,-46,-87,-245
3220,216,-1552,-904,-39,-66,-243
3225,208,-1568,-912,-27,-44,-241
3230,136,-1592,-912,-18,-24,-234
3235,128,-1616,-952,-16,-23,-231
3240,144,-1640,-952,-16,-20,-223
3245,128,-1656,-960,-10,-10,-222
3250,120,-1672,-968,4,4,-212
3255,160,-1688,-976,24,22,-207
3260,120,-1688,-1000,51,42,-193
3265,112,-1696,-936,79,52,-188
3270,136,-1680,-944,106,61,-176
3275,104,-1680,-952,136,74,-167
3280,120,-1704,-944,168,89,-152
3285,120,-1704,-912,198,101,-140
3290,144,-1688,-904,232,115,-123
3295,136,-1712,-920,256,131,-115
3300,128,-1696,-912,282,151,-96
3305,136,-1688,-872,305,171,-82
3310,152,-1696,-896,328,193,-68
3315,168,-1688,-912,346,215,-61
3320,144,-1688,-904,361,240,-50
3325,152,-1696,-872,368,261,-41
3330,96,-1704,-896,377,280,-26
3335,88,-1712,-856,391,301,-8
3340,64,-1696,-840,415,317,12
3345,64,-1704,-848,440,331,28
3350,56,-1712,-840,465,342,50
3355,24,-1712,-840,481,351,64
3360,16,-1720,-808,490,356,80
3365,8,-1728,-832,499,365,93
3370,-24,-1720,-808,512,381,112
3375,-48,-1760,-816,529,398,124
3380,-64,-1744,-768,552,413,135
3385,-88,-1760,-768,578,426,138
3390,-128,-1744,-736,602,429,149
3395,-168,-1696,-696,630,429,156
3400,-224,-1648,-616,661,420,176
3405,-272,-1568,-616,690,400,195
3410,-336,-1472,-600,706,387,218
3415,-384,-1392,-584,702,361,239
3420,-408,-1312,-544,675,338,256
3425,-456,-1248,-544,638,310,270
3430,-464,-1248,-560,605,284,293
3435,-464,-1208,-544,576,263,308
3440,-424,-1136,-616,556,259,324
3445,-424,-1080,-600,535,267,330
3450,-424,-1056,-592,518,278,332
3455,-400,-1008,-568,491,290,321
3460,-368,-1032,-552,458,313,319
3465,-368,-1056,-528,426,320,300
3470,-336,-1112,-480,400,322,277
3475,-320,-1112,-472,395,326,251
3480,-256,-1104,-520,412,329,214
3485,-232,-1040,-544,422,344,188
3490,-168,-1024,-576,425,367,170
3495,-96,-960,-608,434,394,143
3500,-16,-848,-624,453,432,119
3505,32,-816,-656,457,480,106
3510,64,-776,-744,462,516,115
3515,160,-736,-800,448,556,119
3520,160,-592,-856,419,596,121
3525,280,-496,-992,404,657,127
3530,336,-432,-1056,367,765,128
3535,336,-376,-1176,311,844,127
3540,296,-288,-1336,201,885,138
3545,264,-248,-1360,27,900,142
3550,304,-288,-1536,-134,946,172
3555,240,-352,-1624,-330,988,203
3560,144,-512,-1688,-546,1036,246
3565,24,-664,-1872,-725,1097,295
3570,-80,-696,-2040,-869,1155,339
3575,-200,-640,-2224,-1027,1223,353
3580,-288,-608,-2328,-1193,1286,350
3585,-440,-584,-2456,-1401,1333,337
3590,-544,-584,-2608,-1632,1343,322
3595,-656,-640,-2840,-1887,1315,303
3600,-776,-840,-3184,-2135,1252,320
3605,-816,-952,-3672,-2341,1219,365
3610,-880,-1088,-4112,-2554,1216,418
3615,-1048,-1200,-4584,-2757,1181,450
3620,-1040,-1280,-4928,-2949,1157,479
3625,-944,-1360,-5320,-3199,1219,501
3630,-968,-1544,-5528,-3420,1314,541
3635,-824,-1784,-5544,-3602,1396,573
3640,-632,-2032,-5480,-3761,1485,591
3645,-496,-2584,-4952,-3892,1628,605
3650,-416,-3032,-4368,-3927,1739,600
3655,-336,-3352,-3808,-3900,1826,572
3660,-440,-3792,-3184,-3806,1912,512
3665,-512,-4168,-2576,-3679,1964,430
3670,-528,-4376,-2112,-3457,1938,308
3675,-592,-4352,-1800,-3211,1877,190
3680,-552,-3888,-1592,-2890,1808,68
3685,-552,-3112,-1640,-2512,1770,-24
3690,-504,-2616,-1616,-2211,1742,-58
3695,-488,-2000,-1480,-2022,1752,-84
3700,-568,-1464,-1320,-1966,1787,-119
3705,-568,-1088,-1112,-2068,1799,-168
3710,-536,-952,-944,-2278,1789,-210
3715,-416,-1000,-768,-2524,1753,-251
3720,-232,-1088,-592,-2810,1694,-266
3725,32,-1248,-488,-3038,1606,-279
3730,168,-1312,-488,-3233,1533,-290
3735,336,-1472,-464,-3380,1501,-295
3740,456,-1520,-424,-3474,1492,-281
3745,536,-1584,-448,-3529,1515,-270
3750,632,-1552,-448,-3575,1574,-266
3755,672,-1520,-448,-3626,1658,-281
3760,696,-1416,-544,-3676,1755,-278
3765,712,-1424,-576,-3745,1880,-278
3770,744,-1416,-672,-3788,1972,-268
3775,736,-1576,-744,-3815,2022,-247
3780,816,-1648,-904,-3803,2048,-207
3785,952,-1800,-960,-3763,2079,-172
3790,1016,-1880,-992,-3677,2138,-132
3795,1096,-1944,-928,-3529,2227,-106
3800,1064,-1952,-872,-3326,2333,-79
3805,1056,-1856,-776,-3061,2436,-64
3810,1016,-1544,-736,-2770,2576,-54
3815,888,-1224,-704,-2502,2722,-58
3820,704,-1056,-560,-2396,2886,-81
3825,576,-1040,-520,-2359,3031,-127
3830,496,-1000,-624,-2329,3142,-153
3835,408,-888,-688,-2323,3260,-215
3840,384,-744,-728,-2359,3337,-289
3845,448,-776,-776,-2443,3399,-328
3850,504,-880,-848,-2514,3451,-352
3855,520,-1032,-896,-2533,3494,-385
3860,608,-1120,-944,-2472,3519,-381
3865,688,-1064,-1088,-2353,3518,-385
3870,632,-1096,-1232,-2245,3536,-360
3875,712,-1144,-1168,-2199,3553,-308
3880,936,-1128,-1192,-2225,3599,-253
3885,1352,-1096,-1200,-2276,3583,-192
3890,1384,-1008,-1312,-2305,3569,-205
3895,1776,-696,-1344,-2293,3538,-330
3900,2360,-336,-1352,-2064,3491,-456
3905,2888,-136,-1648,-1768,3534,-418
3910,3184,240,-1720,-1439,3693,-498
3915,3592,688,-1760,-1188,3854,-793
3920,3528,1272,-1944,-970,4026,-1065
3925,3360,1592,-2048,-935,4200,-1305
3930,3536,1944,-2232,-1049,4225,-1557
3935,3760,2104,-2176,-1310,4185,-1729
3940,4824,2752,-1912,-1623,4147,-1877
3945,5432,3600,-2240,-1864,4154,-2188
3950,5648,4432,-2896,-2281,4046,-2469
3955,6016,4160,-3240,-3003,3996,-2291
3960,6560,2656,-3264,-3414,4070,-1877
3965,6752,1232,-3080,-3462,4145,-1509
3970,6560,264,-3048,-3135,4182,-1263
3975,6840,216,-2728,-2679,4255,-1306
3980,6664,592,-2304,-2128,4358,-1421
3985,6168,1480,-2552,-1439,4238,-1497
3990,6056,2440,-2808,-789,3997,-1440
3995,5992,3064,-2672,-395,3760,-1308
4000,5368,2784,-2312,-225,3530,-955
4005,4936,2392,-2296,-103,3285,-683
4010,4216,1680,-1920,13,3112,-326
4015,3512,1248,-1552,248,2893,-33
4020,3008,1024,-1176,539,2670,293
4025,2296,1000,-728,821,2376,560
4030,1792,1016,-208,966,2020,779
4035,1248,1120,96,1044,1680,932
4040,920,1136,240,1120,1364,1041
4045,744,1264,208,1154,1073,1120
4050,832,1360,232,1161,794,1131
4055,824,1408,328,1162,659,1101
4060,936,1400,504,1167,594,1074
4065,1008,1544,512,1189,568,984
4070,944,1592,496,1157,552,884
4075,856,1568,416,1023,541,802
4080,584,1488,336,827,521,743
4085,400,1280,352,590,484,724
4090,584,976,368,348,413,754
4095,688,752,432,119,359,807
4100,648,808,320,-3,395,738
4105,496,784,184,-15,451,637
4110,-168,584,64,-57,507,612
4115,64,136,64,-132,465,647
4120,552,16,272,-192,392,705
4125,384,56,432,-191,442,771
4130,416,-56,496,-142,483,866
4135,384,-152,512,-81,469,929
4140,384,24,416,37,418,885
4145,448,16,56,254,380,790
4150,576,72,-56,404,414,716
4155,664,168,-64,524,470,625
4160,696,304,-64,603,527,537
4165,728,400,0,647,580,448
4170,736,328,-40,625,583,419
4175,984,336,8,571,560,412
4180,1112,288,-56,577,537,409
4185,1072,360,8,627,524,388
4190,1104,496,136,719,521,373
4195,1088,664,136,845,520,319
4200,1208,800,168,872,493,261
4205,1224,896,168,857,482,249
4210,1280,1000,192,852,473,232
4215,1432,1136,216,829,477,215
4220,1448,1160,248,818,478,237
4225,1616,1272,232,798,455,238
4230,1816,1296,256,748,423,235
4235,1928,1336,200,689,400,226
4240,1976,1328,192,589,370,242
4245,2160,1264,152,491,322,250
4250,2376,1160,112,381,267,264
4255,2424,1080,96,266,204,281
4260,2464,936,16,165,158,280
4265,2688,920,8,116,164,237
4270,2848,904,-48,98,161,238
4275,2864,888,-152,93,148,233
4280,2864,848,-136,95,154,224
4285,2816,744,-248,106,147,196
4290,3016,848,-272,135,172,154
4295,3024,864,-344,166,133,157
4300,2968,816,-368,198,97,162
4305,2928,728,-424,220,83,160
4310,2936,664,-448,231,92,153
4315,2904,592,-432,233,91,187
4320,2800,496,-456,226,56,241
4325,2792,408,-488,226,32,272
4330,2832,352,-488,231,18,311
4335,2672,344,-488,252,12,328
4340,2648,312,-432,279,11,340
4345,2592,304,-448,308,22,344
4350,2544,344,-448,338,39,355
4355,2536,328,-488,369,53,370
4360,2544,272,-464,389,64,394
4365,2536,288,-488,409,78,409
4370,2520,296,-456,422,110,423
4375,2472,288,-448,432,144,438
4380,2424,240,-440,433,194,453
4385,2464,264,-416,438,241,461
4390,2456,224,-432,448,279,460
4395,2416,224,-440,442,315,464
4400,2384,208,-448,427,347,482
4405,2328,208,-456,407,386,473
4410,2232,160,-472,379,435,474
4415,2224,144,-368,342,475,468
4420,2200,112,-344,306,516,446
4425,2104,96,-312,274,558,434
4430,1984,104,-240,242,582,445
4435,1968,64,-304,221,602,471
4440,1904,-72,-280,196,619,504
4445,1800,-120,-264,172,604,486
4450,1776,-176,-224,149,590,450
4455,1728,-240,-192,135,593,408
4460,1752,-328,-136,144,593,386
4465,1744,-304,-112,173,597,358
4470,1688,-344,-184,216,594,344
4475,1704,-328,-152,262,592,343
4480,1776,-360,-184,300,580,347
4485,1704,-376,-240,345,579,333
4490,1704,-272,-200,381,583,318
4495,1696,-328,-256,426,571,319
4500,1768,-336,-256,456,569,308
4505,1736,-304,-264,483,578,272
4510,1792,-344,-272,498,582,251
4515,1792,-288,-280,513,582,230
4520,1816,-312,-320,517,579,219
4525,1880,-272,-256,505,573,206
4530,1936,-256,-320,501,567,200
4535,1960,-296,-296,490,562,187
4540,2024,-272,-312,488,563,171
4545,2080,-168,-304,471,575,149
4550,2056,-136,-328,485,580,140
4555,2096,-160,-360,480,566,158
4560,2064,-160,-352,451,567,159
4565,2112,-184,-320,423,576,141
4570,2120,-136,-296,410,588,144
4575,2112,-160,-312,401,596,141
4580,2072,-136,-272,397,614,128
4585,2160,-144,-352,390,609,123
4590,2120,-120,-288,385,613,125
4595,2152,-152,-296,373,614,121
4600,2176,-88,-264,356,628,113
4605,2128,-200,-296,345,642,100
4610,2160,-72,-168,327,662,77
4615,2200,-72,-192,352,669,75
4620,2152,-72,-176,346,666,89
4625,2176,-96,-192,329,676,68
4630,2136,-48,-168,320,680,53
4635,2200,-64,-144,312,671,59
4640,2152,-64,-136,302,658,60
4645,2096,-112,-128,290,656,44
4650,2152,-64,-72,284,654,22
4655,2136,-112,-72,277,639,23
4660,2168,-56,-56,274,626,16
4665,2136,-88,-80,275,610,14
4670,2064,-128,-56,283,607,7
4675,2096,-80,-32,294,605,-26
4680,2056,-64,-40,308,600,-32
4685,2072,-80,-8,320,594,-47
4690,2040,-64,32,328,592,-60
4695,2000,-48,24,334,585,-73
4700,1992,-16,40,338,578,-87
4705,2016,24,56,342,572,-101
4710,1960,16,88,339,557,-105
4715,2000,0,104,329,548,-122
4720,1984,16,112,320,538,-120
4725,1968,16,112,309,521,-111
4730,1984,40,112,303,514,-115
4735,1960,56,120,297,507,-121
4740,1960,32,128,279,491,-116
4745,1936,48,176,258,474,-120
4750,1928,104,176,236,462,-126
4755,1944,48,192,219,450,-119
4760,1936,56,200,203,430,-111
4765,1936,88,208,189,413,-112
4770,1960,64,184,173,398,-103
4775,1936,120,232,151,378,-91
4780,1968,96,208,126,356,-70
4785,1968,80,176,98,341,-66
4790,1992,96,216,83,332,-70
4795,1992,96,232,68,317,-67
4800,1984,96,248,49,301,-50
4805,1984,96,288,25,279,-43
4810,2040,64,232,2,260,-32
4815,2024,72,272,-16,245,-27
4820,2048,32,280,-29,230,-17
4825,2064,72,272,-42,213,-11
4830,2056,64,272,-54,197,-2
4835,2056,40,256,-65,181,2
4840,2056,32,264,-75,166,10
4845,2072,48,248,-85,153,11
4850,2072,16,280,-93,138,18
4855,2032,16,272,-103,119,13
4860,2064,8,272,-104,107,18
4865,2072,40,272,-107,95,21
4870,2048,16,296,-111,85,28
4875,2056,-24,248,-116,76,29
4880,2056,-16,272,-118,64,32
4885,2048,-24,288,-118,53,31
4890,2040,0,248,-117,40,34
4895,2048,0,240,-116,30,33
4900,2096,-16,256,-118,18,36
4905,2080,-24,232,-118,8,33
4910,2056,-32,232,-121,-2,37
4915,2088,-64,224,-121,-10,35
4920,2072,-56,256,-121,-20,37
4925,2064,-48,200,-124,-30,25
4930,2096,-72,240,-119,-40,35
4935,2064,-56,200,-120,-46,36
4940,2040,-80,224,-119,-53,38
4945,2040,-88,184,-119,-60,33
4950,2016,-72,192,-118,-66,34
4955,2000,-96,200,-117,-70,29
4960,2016,-88,200,-117,-77,28
4965,2008,-88,200,-119,-86,23
4970,1976,-96,208,-121,-94,23
4975,2008,-120,208,-121,-101,17
4980,1992,-112,200,-121,-110,15
4985,1992,-112,176,-119,-118,10
4990,2000,-112,192,-115,-124,10
4995,2008,-80,168,-112,-127,1
5000,2008,-88,168,-105,-130,0
5005,2000,-112,160,-101,-131,-5
5010,2000,-88,136,-96,-132,-6
5015,1992,-104,136,-92,-132,-13
5020,2000,-104,120,-86,-133,-13
5025,2032,-96,136,-79,-131,-17
5030,2024,-104,120,-72,-131,-17
5035,2008,-96,112,-63,-129,-23
5040,2016,-96,112,-54,-126,-22
5045,2040,-112,104,-42,-123,-26
5050,2040,-104,80,-33,-119,-26
5055,2048,-80,80,-24,-115,-30
5060,2072,-96,128,-16,-112,-29
5065,2048,-88,80,-9,-108,-32
5070,2072,-88,96,-2,-105,-30
5075,2064,-64,48,5,-101,-34
5080,2080,-56,48,6,-96,-33
5085,2096,-56,24,8,-91,-36
5090,2064,-56,48,8,-86,-34
5095,2120,-48,56,6,-80,-37
5100,2088,-16,64,4,-72,-36
5105,2112,-32,72,-1,-67,-38
5110,2096,-32,64,-5,-59,-36
5115,2120,-16,72,-8,-52,-37
5120,2152,-32,64,-12,-47,-32
5125,2128,0,48,-17,-43,-31
5130,2112,-8,80,-23,-41,-26
5135,2120,0,64,-32,-42,-24
5140,2120,-24,32,-38,-44,-19
5145,2128,-8,64,-44,-46,-18
5150,2120,-32,64,-50,-47,-14
5155,2104,0,64,-54,-47,-16
5160,2104,-24,40,-58,-48,-13
5165,2088,-16,32,-60,-45,-16
5170,2088,-8,40,-61,-46,-13
5175,2088,-24,40,-59,-46,-16
5180,2088,-16,64,-58,-45,-18
5185,2080,-32,40,-60,-42,-23
5190,2088,0,32,-62,-37,-21
5195,2080,-8,40,-65,-33,-24
5200,2096,-24,40,-67,-31,-24
5205,2072,-16,16,-67,-25,-28
5210,2064,8,32,-70,-19,-27
5215,2080,-16,48,-72,-16,-26
5220,2096,-24,32,-70,-13,-21
5225,2072,-40,64,-67,-8,-23
5230,2080,-40,56,-67,-8,-20
5235,2088,-48,24,-64,-8,-20
5240,2080,-24,80,-61,-9,-18
5245,2096,-40,32,-59,-10,-18
5250,2056,0,56,-58,-8,-16
5255,2056,-40,32,-55,-9,-17
5260,2048,-16,24,-54,-10,-15
5265,2096,-56,40,-52,-13,-19
5270,2096,-48,56,-50,-14,-16
5275,2096,-32,40,-46,-9,-20
5280,2104,-56,24,-41,-2,-17
5285,2080,-16,8,-41,4,-18
5290,2080,-16,-8,-39,5,-17
5295,2072,-24,48,-39,12,-18
5300,2088,-40,24,-37,21,-13
5305,2112,-48,32,-37,26,-17
5310,2088,-24,8,-34,27,-15
5315,2128,-40,16,-32,32,-16
5320,2104,-32,16,-30,37,-12
5325,2080,-48,40,-29,43,-14
5330,2096,-24,16,-28,47,-12
5335,2104,-56,48,-28,56,-11
5340,2112,-32,16,-33,55,-12
5345,2136,-48,8,-30,56,-13
5350,2096,-48,32,-28,64,-9
5355,2096,-72,24,-25,73,-12
5360,2088,-48,32,-20,77,-6
5365,2080,-56,24,-14,80,-8
5370,2072,-48,72,-12,83,-5
5375,2088,-48,32,-10,86,-6
5380,2104,-56,8,-6,84,-5
5385,2088,-64,32,-5,87,-9
5390,2080,-64,56,-1,86,-8
5395,2080,-40,24,2,88,-14
5400,2096,-40,32,6,91,-15
5405,2072,-40,56,8,91,-17
5410,2080,-40,24,9,95,-17
5415,2096,-40,64,10,95,-20
5420,2016,-24,112,13,93,-17
5425,2104,-56,40,13,94,-19
5430,2080,-48,40,12,94,-18
5435,2088,-40,64,16,94,-22
5440,2080,-24,40,17,94,-21
5445,2072,-16,48,16,96,-24
5450,2088,-24,40,14,95,-20
5455,2064,-16,64,12,94,-23
5460,2072,-32,40,13,94,-19
5465,2064,-32,40,11,95,-21
5470,2072,-24,64,9,96,-17
5475,2032,-48,56,9,96,-19
5480,2056,-32,48,8,95,-17
5485,2064,-48,48,7,96,-20
5490,2080,-32,72,7,95,-17
5495,2064,-16,72,6,96,-19
5500,2072,-16,72,2,95,-16
5505,2056,-24,64,0,94,-17
5510,2064,0,64,-3,92,-15
5515,2064,-8,80,-4,87,-16
5520,2080,16,80,-7,90,-12
5525,2080,-16,56,-10,90,-14
5530,2064,-32,24,-13,91,-11
5535,1960,0,96,-9,89,-20
5540,2072,-24,48,1,87,-25
5545,2160,-24,64,3,93,-11
5550,2112,-32,64,-2,83,-7
5555,2088,-16,88,-6,75,-8
5560,2080,16,88,-7,79,-4
5565,2088,0,96,-10,81,-5
5570,2104,-24,104,-11,81,-2
5575,2096,8,72,-10,80,-3
5580,2096,-24,80,-12,77,0
5585,2072,0,48,-14,77,-3
5590,2080,-24,56,-14,75,-1
5595,2064,8,56,-15,74,-3
5600,2056,-8,72,-14,72,-2
5605,2080,-16,80,-12,70,-6
5610,2064,-40,80,-10,67,-3
5615,2064,-16,72,-12,67,-5
5620,2064,-48,72,-12,64,-3
5625,2040,-40,72,-12,60,-5
5630,2064,-48,72,-12,61,-2
5635,2040,-24,80,-12,59,-5
5640,2056,-24,96,-11,58,-2
5645,2056,-16,40,-13,54,-6
5650,2056,-32,88,-13,51,-4
5655,2064,-32,56,-13,48,-6
5660,2064,-32,56,-13,46,-4
5665,2040,-56,64,-13,45,-7
5670,2064,-32,48,-11,43,-5
5675,2080,-40,48,-9,44,-8
5680,2072,-48,64,-10,45,-6
5685,2080,-16,48,-11,45,-9
5690,2072,-32,56,-11,46,-8
5695,2064,-32,64,-11,48,-10
5700,2048,-8,64,-14,51,-7
5705,2064,-32,56,-15,54,-10
5710,2064,-16,56,-14,55,-9
5715,2080,-24,88,-13,57,-10
5720,2056,-16,72,-12,57,-7
5725,2064,-24,48,-11,58,-9
5730,2088,-48,56,-10,60,-5
5735,2088,-24,72,-8,59,-7
5740,2088,-32,48,-7,58,-6
5745,2088,-24,40,-5,60,-8
5750,2088,-24,40,-1,60,-5
5755,2088,-8,56,2,61,-6
5760,2080,0,64,5,62,-4
5765,2112,-24,24,7,64,-6
5770,2088,-16,72,8,65,-3
5775,2072,-24,32,11,67,-6
5780,2088,-24,72,15,68,-4
5785,2104,-8,40,19,69,-7
5790,2080,-16,48,19,69,-5
5795,2072,0,72,18,72,-5
5800,2072,-8,64,21,74,-2
5805,2064,-8,64,24,72,-4
5810,2064,-32,56,25,72,-1
5815,2064,-8,72,21,70,-2
5820,2096,0,64,18,70,2
5825,2080,-16,56,14,68,-2
5830,2088,0,56,11,67,3
5835,2056,0,72,7,64,0
5840,2072,-24,48,1,62,4
5845,2064,-8,32,-4,61,4
5850,2088,-24,24,-6,59,5
5855,2088,-24,48,-8,59,2
5860,2064,-32,64,-10,59,4
5865,2072,-24,64,-11,58,2
5870,2064,-24,40,-12,58,5
5875,2048,0,80,-11,57,2
5880,2048,-24,56,-13,58,3
5885,2080,-56,48,-15,59,1
5890,2072,-24,40,-14,59,1
5895,2072,-8,80,-15,60,-1
5900,2056,8,56,-17,60,-1
5905,2064,-8,72,-18,61,-2
5910,2048,-32,64,-19,62,1
5915,2064,-24,72,-18,62,-1
5920,2080,-56,72,-17,63,2
5925,2072,-8,72,-15,60,0
5930,2072,-24,80,-15,60,1
5935,2072,-16,64,-14,56,-2
5940,2064,-16,88,-15,54,1
5945,2064,-8,88,-17,53,-3
5950,2088,-48,64,-19,53,0
5955,2088,-8,72,-20,52,-4
5960,2080,-48,56,-19,51,-3
5965,2048,-16,72,-22,53,-4
5970,2080,-32,64,-24,51,-2
5975,2032,0,64,-25,49,-4
5980,2040,-8,88,-25,47,-4
5985,2064,-32,80,-26,45,-5
5990,2024,-8,64,-25,45,-2
5995,2072,-24,64,-25,46,-4
6000,2056,-24,112,-25,45,-2
6005,2048,-16,80,-25,43,-3
6010,2064,-48,80,-26,42,0
6015,2064,-24,64,-25,40,-3
6020,2064,-48,64,-24,40,-1
6025,2080,-24,72,-21,40,-3
6030,2096,-40,48,-21,41,-2
6035,2080,-24,64,-22,41,-4
6040,2072,-16,72,-21,46,0
6045,2072,-16,40,-21,44,-3
6050,2080,-16,40,-17,45,0
6055,2096,-40,24,-14,45,-2
6060,2080,-48,56,-12,45,1
6065,2064,-32,56,-10,47,-1
6070,2072,-32,48,-9,47,1
6075,2072,-40,24,-7,46,-2
6080,2080,-24,48,-6,47,-1
6085,2072,-40,48,-7,48,-4
6090,2064,-32,56,-6,50,-2
6095,2072,-32,24,-7,51,-5
6100,2064,-8,40,-6,51,-2
6105,2072,-48,40,-6,52,-5
6110,2048,-32,56,-4,52,-4
6115,2072,-32,56,-2,53,-6
6120,2064,-24,48,0,53,-4
6125,2080,-56,24,3,55,-6
6130,2056,-24,56,5,56,-4
6135,2072,-24,48,6,57,-7
6140,2072,-32,32,8,58,-4
6145,2064,-16,48,8,60,-7
6150,2096,-16,64,7,61,-5
6155,2064,-16,48,9,62,-7
6160,2080,-8,40,9,64,-6
6165,2064,-24,32,9,65,-8
6170,2088,-16,40,7,66,-6
6175,2072,-8,32,6,69,-8
6180,2072,-24,64,6,71,-6
6185,2072,-8,72,5,72,-8
6190,2048,0,48,4,74,-6
6195,2080,-8,32,6,74,-8
6200,2072,-24,48,4,77,-5
6205,2088,0,24,2,77,-7
6210,2064,-32,64,3,79,-4
6215,2080,-8,48,3,81,-7
6220,2080,-8,32,3,82,-4
6225,2064,-24,80,4,83,-7
6230,2088,-32,64,5,83,-5
6235,2072,-24,56,3,82,-8
6240,2080,-16,56,1,83,-4
6245,2072,-24,56,3,83,-8
6250,2088,-8,88,3,83,-4
6255,2080,-16,56,1,84,-7
6260,2080,-16,64,0,84,-5
6265,2080,-16,72,-1,83,-7
6270,2072,-16,104,-2,82,-4
6275,2056,0,56,-4,81,-6
6280,2072,-16,56,-4,82,-4
6285,2080,8,40,-6,81,-6
6290,2072,-8,96,-7,82,-3
6295,2064,8,80,-7,82,-6
6300,2072,-8,96,-7,83,-3
6305,2064,-16,88,-7,83,-5
6310,2048,-16,56,-8,83,-3
6315,2040,-32,88,-8,80,-7
6320,2072,-8,88,-7,79,-4
6325,2080,-24,64,-5,80,-5
6330,2072,-40,80,-5,78,-1
6335,2064,-16,56,-3,76,-5
6340,2072,0,40,-1,74,-2
6345,2056,0,88,-2,73,-5
6350,2088,-24,72,-2,73,-3
6355,2064,0,88,-2,73,-5
6360,2080,-40,88,-1,72,-4
6365,2064,-16,72,-2,74,-5
6370,2064,-16,64,-4,73,-4
6375,2064,-16,64,-6,72,-6
6380,2064,-48,88,-8,72,-3
6385,2080,-40,104,-8,72,-5
6390,2088,-40,80,-8,71,-2
6395,2064,-24,80,-5,71,-5
6400,2072,-24,48,-3,70,-3
6405,2064,-24,88,-1,69,-5
6410,2064,-16,88,-1,67,-3
6415,2096,-48,64,-1,67,-6
6420,2080,-24,64,0,66,-4
6425,2040,-16,96,1,65,-7
6430,2096,-40,56,2,64,-6
6435,2072,-64,64,4,63,-8
6440,2064,-16,40,6,63,-6
6445,2064,0,80,5,65,-7
6450,2080,-8,64,4,66,-5
6455,2064,-16,40,4,67,-8
6460,2072,8,48,2,67,-6
6465,2096,-40,32,2,69,-7
6470,2056,-16,72,1,70,-4
6475,2064,8,56,3,71,-6
6480,2064,8,56,3,72,-4
6485,2064,-24,72,4,73,-8
6490,2056,-16,72,6,74,-5
6495,2088,-8,56,7,76,-8
6500,2080,-16,80,6,76,-6
6505,2072,-40,104,7,75,-8
6510,2048,-24,104,7,74,-6
6515,2056,-8,80,7,74,-8
6520,2072,-32,96,6,73,-6
6525,2064,-16,88,5,74,-9
6530,2072,-16,64,5,75,-6
6535,2080,-32,48,4,73,-8
6540,2056,-8,88,3,74,-6
6545,2056,-8,96,0,74,-8
6550,2056,-8,88,-1,76,-6
6555,2056,0,80,-5,76,-9
6560,2056,-16,96,-10,75,-6
6565,2064,0,96,-14,74,-7
6570,2072,-16,88,-18,72,-5
6575,2064,0,72,-22,70,-7
6580,2072,0,72,-26,69,-4
6585,2056,-8,104,-29,67,-7
6590,2056,-24,80,-32,65,-3
6595,2072,-24,64,-36,63,-5
6600,2056,-24,104,-40,61,-2
6605,2080,-16,112,-43,58,-5
6610,2056,0,104,-45,56,-1
6615,2080,-24,88,-46,52,-3
6620,2080,0,72,-48,51,-2
6625,2072,-16,96,-51,49,-4
6630,2064,-16,112,-52,45,0
6635,2080,-16,88,-53,43,-4
6640,2072,8,80,-54,41,0
6645,2072,-8,64,-55,37,-3
6650,2064,-8,80,-56,37,0
6655,2072,0,80,-56,38,-1
6660,2096,-32,88,-53,38,2
6665,2064,8,64,-52,39,-1
6670,2088,-16,80,-50,38,3
6675,2064,-8,88,-47,39,0
6680,2080,-24,80,-44,36,2
6685,2072,-8,72,-41,35,-2
6690,2056,-8,56,-41,34,1
6695,2056,-16,88,-36,33,-2
6700,2072,-24,48,-36,31,-1
6705,2080,-40,64,-36,31,-2
6710,2088,-32,56,-35,33,0
6715,2096,-24,88,-37,34,-3
6720,2048,-8,96,-38,37,-1
6725,2080,8,88,-40,38,-3
6730,2064,-16,64,-39,38,-1
6735,2064,-24,80,-39,39,-1
6740,2056,0,112,-38,40,2
6745,2072,-16,64,-35,38,-1
6750,2096,-8,80,-34,38,3
6755,2088,8,72,-34,38,1
6760,2064,0,24,-32,36,4
6765,2072,-16,56,-31,38,3
6770,2080,-16,72,-32,40,5
6775,2064,-32,72,-32,39,3
6780,2072,-40,72,-33,41,4
6785,2056,-8,64,-34,42,2
6790,2080,-40,72,-36,41,4
6795,2064,-40,72,-38,39,3
6800,2096,-32,72,-42,38,5
6805,2064,-32,72,-42,38,3
6810,2072,-8,120,-45,38,5
6815,2064,-16,88,-50,36,2
6820,2064,8,80,-58,35,5
6825,2080,-16,80,-65,34,4
6830,2072,-16,72,-73,30,8
6835,2048,-40,88,-81,27,4
6840,2064,-24,80,-88,23,7
6845,2056,-24,80,-93,17,5
6850,2072,-32,56,-98,14,6
6855,2056,-24,112,-98,11,4
6860,2080,-40,80,-97,6,6
6865,2096,-40,56,-98,3,2
6870,2072,-32,24,-99,1,4
6875,2080,-24,64,-100,0,1
6880,2064,-8,64,-100,-1,2
6885,2072,-40,72,-101,-5,2
6890,2072,-16,48,-101,-6,4
6895,2088,-8,80,-101,-7,2
6900,2080,-24,64,-99,-8,5
6905,2072,-24,64,-98,-10,4
6910,2096,-8,72,-95,-12,6
6915,2088,0,56,-94,-14,5
6920,2080,0,64,-94,-16,8
6925,2056,16,40,-93,-16,7
6930,2080,0,48,-94,-17,9
6935,2088,-16,40,-96,-18,8
6940,2080,-16,40,-96,-17,10
6945,2088,-8,72,-94,-20,8
6950,2064,-24,48,-90,-22,11
6955,2096,-24,24,-87,-22,8
6960,2080,-40,24,-83,-21,11
6965,2072,-16,32,-81,-19,8
6970,2072,-24,40,-77,-16,10
6975,2072,-8,48,-72,-15,9
6980,2056,-16,32,-64,-12,13
6985,2056,-24,56,-57,-9,10
6990,2072,-48,16,-51,-7,11
6995,2064,-40,32,-45,-4,10
7000,2056,-32,32,-41,-4,12
7005,2080,-24,32,-37,-2,10
7010,2040,-24,32,-32,1,11
7015,2072,-40,0,-28,4,10
7020,2048,-64,0,-23,5,11
7025,2048,-32,16,-19,9,8
7030,2056,-48,16,-12,13,9
7035,2072,-40,8,-7,14,6
7040,2064,-40,0,-2,20,7
7045,2080,-56,16,4,24,3
7050,2072,-48,8,10,27,5
7055,2080,-48,8,17,31,1
7060,2088,-48,-8,24,37,3
7065,2080,-48,0,31,43,-1
7070,2056,-16,-24,37,50,1
7075,2056,-40,24,42,59,-3
7080,2056,-56,0,46,65,-1
7085,2104,-56,0,50,72,-4
7090,2088,-64,0,55,80,-3
7095,2080,-40,-32,56,87,-5
7100,2088,-48,-8,62,95,-5
7105,2088,-64,0,66,100,-8
7110,2088,-48,16,70,106,-5
7115,2088,-48,16,72,111,-8
7120,2080,-32,16,74,118,-7
7125,2088,-40,8,74,122,-9
7130,2064,-24,8,73,126,-7
7135,2072,-48,16,72,129,-11
7140,2064,-32,16,71,130,-8
7145,2072,-48,32,69,132,-11
7150,2080,0,40,67,132,-11
7155,2072,-24,40,62,133,-14
7160,2080,-24,64,56,133,-13
7165,2080,-8,48,49,134,-16
7170,2080,-24,56,40,134,-14
7175,2080,-16,32,31,132,-17
7180,2088,-16,72,24,129,-16
7185,2104,-32,56,17,125,-19
7190,2056,0,80,13,122,-17
7195,2064,8,48,6,119,-20
7200,2048,8,40,-2,116,-18
7205,2072,-24,64,-9,112,-20
7210,2064,8,80,-15,106,-17
7215,2088,-16,96,-23,100,-19
7220,2000,-120,56,-26,94,-16
7225,2056,-8,104,-27,89,-17
7230,2040,-24,80,-25,83,-15
7235,2080,-32,88,-21,79,-17
7240,2048,8,72,-17,74,-16
7245,2080,-24,112,-15,73,-19
7250,2080,-32,56,-16,72,-17
7255,2064,-8,72,-20,70,-19
7260,2056,24,96,-24,69,-17
7265,2080,8,72,-31,65,-17
7270,2056,16,88,-36,64,-15
7275,2048,16,80,-40,61,-16
7280,2072,16,72,-42,57,-11
7285,2064,0,104,-43,52,-11
7290,2080,16,96,-46,47,-6
7295,2072,-8,64,-45,41,-5
7300,2064,-16,104,-43,37,-1
7305,2080,8,88,-41,34,-2
7310,2080,-24,80,-36,31,2
7315,2080,-24,64,-30,28,1
7320,2056,-8,64,-28,27,5
7325,2072,-32,80,-23,28,3
7330,2064,16,32,-20,27,6
7335,2080,-8,40,-17,26,4
7340,2056,-32,40,-15,25,7
7345,2104,-24,56,-11,25,5
7350,2072,0,48,-11,25,9
7355,2096,0,40,-9,28,6
7360,2096,-16,80,-9,30,9
7365,2088,-24,56,-10,32,8
7370,2072,-16,48,-11,33,11
7375,2072,-32,56,-12,34,10
7380,2112,-48,80,-11,34,13
7385,2088,-24,40,-10,34,10
7390,2088,-40,56,-7,36,13
7395,2080,-32,48,-6,37,9
7400,2080,-16,64,-6,38,10
7405,2072,-32,40,-5,40,7
7410,2064,-32,24,-9,41,8
7415,2096,-40,32,-12,42,4
7420,2064,-48,24,-13,43,6
7425,2080,-48,48,-14,43,2
7430,2072,-24,32,-16,45,3
7435,2072,-32,8,-17,45,-1
7440,2088,-40,8,-19,47,0
7445,2072,-16,48,-21,47,-3
7450,2096,-24,16,-24,50,-1
7455,2072,-24,16,-25,54,-5
7460,2080,-32,8,-29,57,-2
7465,2088,-24,16,-31,59,-5
7470,2080,-24,40,-33,61,-1
7475,2072,16,40,-33,62,-4
7480,2080,-32,24,-34,64,-1
7485,2064,-16,40,-36,65,-5
7490,2072,-16,32,-34,66,-2
7495,2056,-32,56,-34,66,-6
7500,2072,-32,40,-33,66,-3
7505,2064,-40,32,-31,66,-6
7510,2072,-16,56,-28,68,-5
7515,2080,-8,24,-27,69,-9
7520,2080,-16,40,-25,70,-8
7525,2072,-24,32,-25,71,-9
7530,2096,-40,0,-24,71,-7
7535,2096,-32,56,-23,72,-10
7540,2072,-24,64,-21,73,-7
7545,2072,-24,40,-18,74,-8
7550,2064,-48,48,-18,74,-5
7555,2072,-24,64,-16,72,-6
7560,2088,-24,48,-15,73,-4
7565,2056,-40,72,-13,71,-5
7570,2104,-8,56,-13,71,-1
7575,2072,-24,56,-13,69,-3
7580,2072,0,48,-12,68,-1
7585,2104,-16,40,-11,66,-4
7590,2080,0,72,-11,67,-1
7595,2088,-24,64,-12,65,-3
7600,2088,-16,56,-11,63,0
7605,2056,-16,32,-12,63,-2
7610,2072,-16,64,-8,61,0
7615,2104,-48,40,-10,60,0
7620,2072,-32,56,-9,60,2
7625,2072,-8,80,-7,58,1
7630,2072,-16,72,-6,58,5
7635,2072,-24,40,-5,57,3
7640,2080,-24,48,-6,56,5
7645,2080,8,40,-6,56,3
7650,2096,-16,56,-6,56,6
7655,2080,-16,48,-8,56,3
7660,2088,-40,64,-6,55,6
7665,2088,0,24,-7,54,2
7670,2056,-16,16,-9,56,6
7675,2096,-32,32,-8,57,2
7680,2072,-24,24,-10,57,6
7685,2080,-32,24,-8,59,2
7690,2072,-32,32,-8,58,4
7695,2080,-48,48,-6,58,1
7700,2072,-24,32,-5,59,2
7705,2056,-8,48,-3,58,0
7710,2064,-24,64,-3,61,2
7715,2088,-16,40,-4,62,-1
7720,2048,-16,56,-6,63,0
7725,2096,-8,56,-9,62,-3
7730,2080,-32,24,-11,62,0
7735,2080,-8,72,-15,63,-2
7740,2048,-32,40,-17,64,1
7745,2080,-32,64,-17,65,0
7750,2064,-32,56,-17,64,1
7755,2040,0,40,-17,65,1
7760,2048,-8,40,-17,62,3
7765,2064,-24,40,-17,62,1
7770,2072,-48,48,-18,61,3
7775,2056,-32,32,-20,61,1
7780,2056,-32,64,-19,62,3
7785,2056,-16,56,-21,63,-1
7790,2056,-24,40,-22,63,1
7795,2048,-40,48,-22,63,-3
7800,2080,-32,72,-22,62,-1
7805,2072,-48,64,-21,60,-3
7810,2064,-32,32,-20,61,-1
7815,2080,-32,56,-18,62,-4
7820,2080,-56,40,-18,61,-2
7825,2064,-40,48,-17,59,-6
7830,2064,-32,96,-17,59,-3
7835,2064,-40,72,-17,59,-5
7840,2072,-16,56,-16,58,-2
7845,2056,-40,72,-18,58,-5
7850,2088,-48,72,-17,57,-4
7855,2088,-40,56,-18,55,-5
7860,2080,-16,48,-17,56,-4
7865,2064,-24,56,-13,56,-6
7870,2080,-24,32,-11,58,-4
7875,2080,-16,32,-9,58,-7
7880,2072,8,32,-8,61,-4
7885,2080,-32,40,-4,64,-6
7890,2080,-32,64,-3,65,-4
7895,2104,-48,40,1,66,-6
7900,2072,-8,48,5,68,-4
7905,2080,-24,32,8,68,-6
7910,2088,-8,24,10,70,-4
7915,2080,-32,56,11,71,-7
7920,2064,-16,72,10,72,-3
7925,2056,-16,56,11,71,-6
7930,2080,-32,48,14,73,-2
7935,2056,-8,72,14,72,-7
7940,2088,-32,56,17,72,-5
7945,2072,-24,56,17,71,-7
7950,2056,-24,56,17,69,-5
7955,2072,-24,104,15,68,-9
7960,2072,8,48,13,67,-7
7965,2064,-8,80,11,66,-8
7970,2056,-24,72,7,67,-4
7975,2096,-24,56,3,65,-5
7980,2080,0,56,-1,64,-2
7985,2104,-40,56,-3,61,-3
7990,2080,0,32,-5,61,-1
7995,2080,-24,24,-7,61,-2
8000,2072,-48,40,-7,62,1
8005,2064,-24,48,-9,59,-1
8010,2056,-16,40,-11,59,0
8015,2072,-16,64,-13,58,-4
8020,2056,-16,24,-16,59,-2
8025,2056,-16,48,-19,60,-5
8030,2048,-24,64,-20,58,-3
8035,2064,-16,40,-20,57,-7
8040,2080,-24,40,-21,56,-6
8045,2056,0,32,-23,55,-8
8050,2064,-24,40,-26,56,-4
8055,2064,-32,48,-30,56,-6
8060,2064,-8,64,-32,55,-3
8065,2064,-24,48,-34,55,-5
8070,2072,-32,64,-33,56,-1
8075,2080,-24,56,-32,58,-4
8080,2072,-48,56,-30,58,-1
8085,2080,-40,80,-27,56,-4
8090,2088,-32,48,-21,57,-3
8095,2072,-32,64,-16,60,-5
8100,2072,-24,40,-12,62,-4
8105,2080,-24,48,-8,64,-6
8110,2096,-32,40,-4,66,-4
8115,2080,-24,64,0,67,-5
8120,2080,-16,56,3,68,-3
8125,2072,0,40,7,70,-5
8130,2096,-32,16,10,69,-3
8135,2064,16,64,13,70,-6
8140,2088,-32,56,14,68,-4
8145,2096,8,40,14,68,-6
8150,2088,-8,64,10,69,-4
8155,2072,-8,88,8,69,-7
8160,2072,8,56,5,70,-3
8165,2072,8,80,-1,69,-5
8170,2064,-16,40,-5,68,-2
8175,2064,-24,64,-7,67,-2
8180,2064,-24,40,-8,63,0
8185,2072,-24,24,-9,62,-2
8190,2072,-16,72,-7,59,2
8195,2080,-24,64,-9,58,0
8200,2088,0,64,-9,58,3
8205,2080,-40,40,-9,56,0
8210,2080,-16,80,-12,56,4
8215,2072,-40,48,-13,56,2
8220,2072,-16,72,-13,56,4
8225,2088,-24,24,-14,56,1
8230,2064,-16,40,-14,56,3
8235,2080,-8,64,-14,56,0
8240,2088,-24,40,-16,55,2
8245,2080,0,32,-19,57,-1
8250,2088,-24,56,-22,56,2
8255,2064,-24,32,-22,58,-2
8260,2080,-40,64,-21,58,0
8265,2048,-16,64,-21,58,-2
8270,2088,-32,48,-20,59,0
8275,2080,-24,40,-17,59,-2
8280,2072,-32,40,-16,61,0
8285,2048,-40,40,-14,59,-1
8290,2096,-40,64,-11,61,1
8295,2056,-32,88,-9,59,-3
8300,2080,-8,48,-9,62,-1
8305,2056,-40,40,-7,63,-4
8310,2072,-32,40,-8,63,-2
8315,2064,-32,64,-8,64,-6
8320,2048,-32,40,-8,64,-3
8325,2080,-48,56,-6,66,-6
8330,2072,-8,56,-5,66,-4
8335,2056,-16,64,-6,66,-7
8340,2056,-8,72,-6,67,-5
8345,2064,-24,88,-8,66,-7
8350,2096,-24,64,-9,65,-6
8355,2080,-16,56,-10,65,-6
8360,2088,-8,88,-10,65,-4
8365,2080,-24,80,-12,64,-6
8370,2072,-16,88,-13,64,-3
8375,2096,-8,56,-14,63,-5
8380,2072,-24,72,-13,63,-3
8385,2088,-32,64,-14,63,-4
8390,2072,-24,56,-15,63,-1
8395,2104,-24,56,-15,61,-3
8400,2072,-40,64,-14,61,-1
8405,2080,0,24,-14,60,-4
8410,2088,-16,48,-12,61,-2
8415,2080,0,40,-13,61,-3
8420,2080,8,40,-12,63,-3
8425,2072,-8,40,-11,62,-4
8430,2080,-24,56,-11,64,-1
8435,2088,-32,72,-10,63,-5
8440,2072,-40,48,-9,63,-2
8445,2064,-32,16,-8,64,-5
8450,2096,-16,88,-8,64,-2
8455,2088,-24,64,-7,64,-6
8460,2088,-40,40,-6,67,-3
8465,2064,-8,48,-5,66,-6
8470,2080,-32,48,-8,67,-2
8475,2072,-16,64,-8,65,-4
8480,2064,-8,64,-8,65,-1
8485,2056,-24,48,-7,65,-3
8490,2056,-16,72,-7,63,1
8495,2056,-16,40,-7,61,0
8500,2048,-16,48,-8,60,0
8505,2048,-8,24,-9,60,-2
8510,2064,-8,40,-10,60,2
8515,2056,-24,72,-10,60,-1
8520,2056,-16,48,-14,60,1
8525,2064,-32,64,-14,60,-1
8530,2072,-8,40,-15,59,0
8535,2072,-16,80,-18,58,-2
8540,2072,0,32,-19,58,1
8545,2096,-40,64,-20,57,-2
8550,2064,-40,48,-21,55,0
8555,2064,-16,72,-21,56,-2
8560,2088,-16,80,-22,57,1
8565,2096,-32,80,-22,58,-2
8570,2072,-40,40,-23,57,1
8575,2072,8,32,-24,56,-1
8580,2072,-24,64,-23,56,0
8585,2072,-16,64,-24,58,-2
8590,2064,-32,56,-22,57,0
8595,2056,-16,24,-22,56,-3
8600,2080,-16,72,-22,58,-1
8605,2080,-24,56,-23,59,-2
8610,2096,-32,96,-22,58,1
8615,2072,-16,56,-20,59,-1
8620,2048,-16,72,-21,59,1
8625,2072,-24,56,-20,59,-2
8630,2048,-40,56,-19,60,1
8635,2064,-32,56,-18,59,-1
8640,2056,-32,56,-18,58,0
8645,2080,-16,80,-17,58,-2
8650,2080,-8,72,-19,57,0
8655,2064,-8,56,-16,57,-3
8660,2072,-8,56,-18,57,0
8665,2080,-8,48,-16,57,-2
8670,2064,-16,80,-17,56,0
8675,2064,8,56,-16,57,-2
8680,2048,-16,40,-15,57,0
8685,2064,-32,64,-14,57,-2
8690,2072,-32,64,-14,58,-1
8695,2072,-16,80,-14,58,-3
8700,2080,-40,72,-15,57,-2
8705,2064,-32,56,-15,57,-3
8710,2096,-24,40,-15,57,-2
8715,2080,-16,56,-15,55,-4
8720,2064,-16,32,-15,55,-1
8725,2072,-8,88,-15,54,-2
8730,2056,-48,56,-15,53,0
8735,2064,-8,56,-15,53,-2
8740,2072,-16,88,-16,53,-2
8745,2064,-32,96,-15,51,-4
8750,2064,-16,56,-16,50,-2
8755,2088,-32,72,-18,51,-4
8760,2080,-8,24,-17,53,-2
8765,2080,0,40,-15,52,-4
8770,2064,0,88,-15,53,-1
8775,2072,-16,56,-15,53,-2
8780,2072,-24,40,-15,54,-1
8785,2080,-24,80,-14,55,-3
8790,2088,-32,40,-13,55,0
8795,2048,-16,40,-9,55,-2
8800,2048,-16,32,-6,56,-1
8805,2056,-8,48,-6,56,-3
8810,2064,-32,48,-6,57,-2
8815,2072,-32,24,-9,58,-5
8820,2056,-16,88,-11,57,-3
8825,2072,-24,64,-13,57,-5
8830,2072,-32,40,-12,56,-4
8835,2064,-8,56,-10,55,-6
8840,2072,-24,32,-10,54,-4
8845,2104,-24,40,-12,56,-6
8850,2088,0,24,-14,58,-3
8855,2088,-40,48,-15,60,-5
8860,2080,-16,56,-17,61,-4
8865,2072,-8,24,-19,62,-5
8870,2056,-16,88,-18,64,-3
8875,2064,0,56,-17,65,-4
8880,2096,16,48,-16,66,-2
8885,2080,-24,56,-14,66,-4
8890,2056,-16,48,-16,66,-2
8895,2064,8,80,-15,66,-4
8900,2080,-8,24,-14,65,-1
8905,2080,-16,32,-14,64,-4
8910,2040,0,72,-15,64,-2
8915,2080,-24,64,-18,63,-4
8920,2072,-16,48,-17,63,-1
8925,2072,-24,72,-18,64,-3
8930,2072,-24,72,-18,63,-1
8935,2080,8,40,-19,63,-2
8940,2072,-40,80,-19,63,0
8945,2080,-16,24,-18,64,-1
8950,2088,-32,56,-15,62,3
8955,2080,-24,80,-12,62,1
8960,2056,-16,64,-9,64,3
8965,2080,-24,64,-7,66,0
8970,2064,-24,40,-5,66,0
8975,2072,-16,24,-5,68,-1
8980,2080,0,72,-4,67,0
8985,2064,-8,32,-3,68,-2
8990,2064,-8,48,-4,69,0
8995,2064,-32,88,-5,69,-1
9000,2072,-8,88,-4,70,0
9005,2080,-32,40,-4,69,-2
9010,2080,-32,48,-4,70,0
9015,2168,128,176,-3,70,-3
9020,2048,-24,48,-3,70,-1
9025,2064,-16,96,-4,70,-4
9030,2088,-24,72,-4,71,-2
9035,2048,-16,48,-4,70,-5
9040,2048,-40,72,-4,70,-2
9045,2056,-32,32,-4,68,-6
9050,2056,-16,32,-6,69,-3
9055,2080,-24,40,-8,69,-5
9060,2072,-40,88,-8,69,-5
9065,2072,-16,48,-10,68,-7
9070,2088,-48,32,-12,68,-4
9075,2088,-16,56,-14,67,-6
9080,2072,-40,72,-12,67,-4
9085,2064,-16,104,-11,66,-7
9090,2080,-48,112,-9,67,-5
9095,2072,-32,48,-9,65,-7
9100,2064,-24,56,-7,65,-7
9105,2080,-24,80,-7,63,-10
9110,2080,-16,80,-8,65,-7
9115,2064,-32,72,-8,66,-10
9120,2072,-32,32,-6,66,-8
9125,2096,-32,56,-6,66,-11
9130,2048,-16,56,-7,67,-9
9135,2064,-8,48,-8,67,-11
9140,2080,-24,88,-10,66,-9
9145,2064,-8,64,-10,65,-10
9150,2064,-8,48,-10,65,-9
9155,2088,-40,88,-9,65,-10
9160,2056,8,88,-10,64,-8
9165,2080,-8,56,-11,64,-9
9170,2072,-24,72,-10,63,-8
9175,2056,-32,72,-10,61,-8
9180,2048,-16,48,-9,61,-7
9185,2056,-8,64,-7,60,-9
9190,2048,0,32,-9,60,-6
9195,2048,8,72,-7,58,-7
9200,2080,-24,72,-8,58,-4
9205,2064,-8,64,-9,59,-6
9210,2072,-16,64,-8,59,-3
9215,2064,-24,48,-8,60,-6
9220,2072,0,64,-9,62,-4
9225,2072,0,64,-9,61,-5
9230,2072,-8,64,-9,59,-3
9235,2080,-16,80,-7,59,-4
9240,2048,-8,64,-6,61,-3
9245,2072,-24,48,-5,60,-5
9250,2056,-40,80,-4,61,-4
9255,2088,-8,48,-4,60,-6
9260,2072,-24,64,-2,60,-5
9265,2064,-32,48,-2,61,-7
9270,2080,-16,40,-1,61,-4
9275,2072,-16,40,-1,63,-8
9280,2072,-8,40,-1,65,-5
9285,2072,-24,64,-1,66,-8
9290,2072,-16,64,-2,67,-8
9295,2080,-16,72,-2,68,-9
9300,2080,-32,64,-6,66,-7
9305,2088,8,64,-5,67,-9
9310,2080,0,80,-6,69,-7
9315,2080,-8,72,-7,70,-9
9320,2072,-16,64,-11,69,-6
9325,2080,-32,56,-12,71,-10
9330,2072,-8,64,-15,70,-7
9335,2064,-8,56,-17,69,-10
9340,2048,0,64,-19,68,-7
9345,2072,-24,80,-20,67,-9
9350,2072,0,88,-22,66,-6
9355,2064,-32,88,-25,66,-8
9360,2064,0,80,-26,64,-6
9365,2064,-32,96,-25,64,-7
9370,2072,-32,80,-26,65,-4
9375,2072,-8,72,-26,62,-8
9380,2072,-8,64,-26,61,-7
9385,2080,-8,72,-24,61,-6
9390,2064,-24,72,-23,60,-4
9395,2048,-16,72,-23,59,-6
9400,2072,-16,64,-24,59,-5
9405,2056,-8,56,-24,59,-6
9410,2080,-24,80,-22,58,-4
9415,2072,-32,56,-23,58,-7
9420,2048,0,80,-24,58,-4
9425,2048,-8,64,-23,58,-5
9430,2080,-32,88,-23,59,-4
9435,2056,0,56,-23,58,-5
9440,2096,-16,64,-21,57,-3
9445,2064,-8,80,-20,57,-5
9450,2064,-32,96,-18,57,-3
9455,2088,-16,80,-17,56,-4
9460,2064,-40,96,-18,55,-1
9465,2064,-24,72,-16,56,-4
9470,2072,-16,56,-15,57,-2
9475,2080,-40,80,-13,58,-4
9480,2064,-24,64,-13,59,-2
9485,2064,-24,48,-11,60,-4
9490,2072,-32,80,-10,60,-2
9495,2080,-16,72,-9,59,-3
9500,2080,-24,48,-7,61,-1
9505,2088,-16,72,-5,60,-2
9510,2064,-24,80,-3,60,0
9515,2064,-40,64,-1,61,-2
9520,2080,-48,80,0,60,-1
9525,2080,-32,48,2,60,-3
9530,2080,-24,40,3,61,-2
9535,2088,-32,48,6,63,-5
9540,2064,-16,56,7,64,-3
9545,2088,-24,80,8,63,-6
9550,2088,-16,32,6,67,-4
9555,2072,8,48,5,69,-7
9560,2056,8,64,4,71,-6
9565,2088,-8,48,2,72,-9
9570,2088,0,80,-4,71,-8
9575,2072,-24,112,-5,73,-8
9580,2064,-8,64,-6,74,-5
9585,2072,-16,48,-6,75,-7
9590,2064,-32,64,-8,73,-6
9595,2048,-8,64,-9,74,-8
9600,2080,-16,56,-11,75,-6
9605,2064,-32,80,-16,72,-8
9610,2048,24,64,-19,73,-5
9615,2056,-16,80,-22,70,-9
9620,2064,-16,88,-24,68,-5
9625,2080,-24,80,-23,68,-7
9630,2048,-16,104,-21,66,-5
9635,2080,-16,48,-18,65,-7
9640,2064,-16,40,-19,64,-5
9645,2064,-8,80,-19,66,-7
9650,2080,-24,72,-20,65,-6
9655,2072,0,72,-21,66,-8
9660,2088,-8,72,-19,69,-5
9665,2072,-8,56,-18,72,-7
9670,2056,0,32,-19,73,-5
9675,2064,8,80,-17,73,-7
9680,2064,-8,80,-16,72,-4
9685,2072,-8,64,-15,71,-5
9690,2064,-24,64,-14,70,-2
9695,2064,-8,72,-11,69,-5
9700,2056,8,80,-11,66,-2
9705,2072,-24,88,-11,67,-4
9710,2072,-8,72,-9,66,-3
9715,2056,-24,72,-8,66,-3
9720,2072,24,72,-8,66,-2
9725,2056,16,72,-8,64,-3
9730,2056,-8,80,-8,65,-2
9735,2056,0,88,-9,64,-3
9740,2048,-16,80,-8,63,1
9745,2064,-16,72,-8,61,-2
9750,2072,-32,80,-9,62,1
9755,2048,0,104,-7,63,-1
9760,2088,0,56,-6,62,0
9765,2056,-16,64,-4,60,-1
9770,2080,-24,40,-5,58,1
9775,2064,-32,96,-3,57,-2
9780,2080,-40,80,-4,57,0
9785,2096,-8,80,-3,57,-2
9790,2064,-16,80,-4,58,0
9795,2080,-24,40,-3,58,-3
9800,2072,-32,64,-3,57,-3
9805,2080,0,16,-3,57,-3
9810,2056,-8,80,-3,58,-2
9815,2080,-24,64,-3,60,-4
9820,2096,-16,72,-4,60,-1
9825,2072,-8,48,-5,60,-4
9830,2064,-16,48,-7,61,-2
9835,2064,-24,64,-7,61,-5
9840,2088,-16,72,-7,63,-3
9845,2072,0,64,-11,62,-6
9850,2088,-8,48,-10,63,-4
9855,2104,-32,64,-10,64,-5
9860,2072,-8,64,-10,65,-4
9865,2072,-8,72,-11,66,-5
9870,2056,-32,72,-12,68,-2
9875,2080,-16,72,-12,67,-4
9880,2064,-16,64,-11,67,-4
9885,2096,-24,80,-11,68,-5
9890,2064,-16,64,-12,67,-3
9895,2056,-24,80,-9,68,-5
9900,2072,-8,64,-11,67,-6
9905,2056,-16,72,-13,67,-8
9910,2064,-16,80,-14,67,-7
9915,2072,0,56,-14,67,-9
9920,2048,0,88,-14,68,-8
9925,2048,-8,88,-15,68,-8
9930,2056,-24,80,-16,69,-6
9935,2072,-8,80,-16,68,-7
9940,2064,-16,64,-17,67,-6
9945,2048,0,128,-18,66,-8
9950,2072,0,72,-16,65,-6
9955,2072,-24,128,-16,64,-7
9960,2064,8,64,-16,64,-5
9965,2072,-32,72,-15,64,-7
9970,2072,-24,64,-14,63,-5
9975,2088,-24,72,-15,63,-6
9980,2088,16,88,-14,62,-4
9985,2072,-24,80,-15,60,-6
9990,2056,-8,56,-16,59,-3
9995,2080,-16,56,-13,59,-5
10000,2064,0,56,-14,59,-3
10005,2064,-16,72,-14,59,-3
10010,2080,-32,88,-12,60,-2
10015,2072,-8,104,-13,59,-4
10020,2056,8,72,-12,59,-2
10025,2080,-8,56,-11,59,-3
10030,2056,-8,80,-10,59,0
10035,2072,-16,72,-10,60,-3
10040,2064,0,72,-9,60,-2
10045,2080,-24,64,-8,59,-2
10050,2064,-16,72,-6,58,-1
10055,2096,-8,96,-6,60,-3
10060,2064,-24,64,-6,60,-1
10065,2088,-16,56,-6,61,-2
10070,2072,0,56,-5,62,-1
10075,2064,-16,72,-6,61,-4
10080,2072,-16,80,-6,62,-2
10085,2064,-32,48,-5,62,-5
10090,2088,-16,56,-7,62,-1
10095,2064,-24,40,-7,61,-2
10100,2064,-8,56,-6,63,-2
10105,2088,0,48,-4,63,-3
10110,2048,8,48,-4,64,-2
10115,2040,0,88,-7,65,-4
10120,2088,-8,72,-8,64,-3
10125,2072,-24,88,-6,66,-5
10130,2056,-16,88,-7,66,-3
10135,2088,0,40,-6,65,-4
10140,2080,0,80,-4,67,-4
10145,2064,-16,104,-4,66,-6
10150,2072,-16,48,-3,67,-4
10155,2064,-24,32,-2,68,-5
10160,2080,-8,80,-2,69,-5
10165,2080,-16,56,-2,71,-7
10170,2072,-32,72,-2,71,-4
10175,2080,8,56,0,73,-5
10180,2072,-16,72,0,72,-5
10185,2056,0,72,-2,74,-5
10190,2080,-32,72,0,74,-3
10195,2056,8,72,5,77,-4
10200,2088,-8,40,4,77,-2
10205,2072,-8,96,2,76,-4
10210,2080,-16,72,0,75,-2
10215,2048,-8,64,0,76,-3
10220,2048,-24,72,1,76,-3
10225,2080,-8,104,-1,76,-4
10230,2056,8,80,-1,77,-3
10235,2080,-24,96,0,77,-4
10240,2072,-8,88,0,75,-2
10245,2072,-8,56,-1,75,-4
10250,2064,-16,80,0,76,-3
10255,2048,-16,96,-1,75,-4
10260,2048,-16,88,-2,76,-3
10265,2064,24,80,-3,75,-6
10270,2072,-16,80,-3,73,-2
10275,2048,-24,64,-4,71,-4
10280,2064,-8,72,-5,70,-2
10285,2064,-16,80,-6,70,-2
10290,2064,-8,72,-6,69,-1
10295,2064,-8,88,-7,68,-4
10300,2064,0,72,-6,70,-2
10305,2072,0,88,-5,70,-3
10310,2064,0,112,-5,70,-2
10315,2064,-24,80,-6,69,-3
10320,2064,-8,64,-6,69,-3
10325,2064,-24,72,-5,70,-3
10330,2088,-16,80,-5,70,-2
10335,2072,-24,80,-6,70,-2
10340,2072,8,64,-7,70,0
10345,2072,-8,88,-8,69,-2
10350,2056,-24,80,-8,70,-1
10355,2056,8,88,-6,68,-2
10360,2072,0,72,-8,69,-1
10365,2088,-40,88,-8,70,-3
10370,2064,0,104,-7,71,-3
10375,2064,0,96,-8,70,-4
10380,2064,0,72,-9,70,-1
10385,2040,-16,80,-9,72,0
10390,2088,-16,104,-7,72,2
10395,2072,-16,64,-7,73,-1
10400,2064,-32,48,-7,74,0
10405,2072,8,104,-8,72,-2
10410,2064,-8,80,-11,70,-1
10415,2048,16,104,-11,69,-1
10420,2064,-8,88,-10,68,-1
10425,2072,-8,112,-8,67,-3
10430,2064,0,112,-9,66,-2
10435,2072,16,88,-10,66,-6
10440,2064,-24,112,-12,67,-4
10445,2080,16,104,-13,67,-6
10450,2072,0,104,-13,67,-1
10455,2064,-24,96,-13,68,-2
10460,2088,-16,72,-10,69,1
10465,2064,-8,104,-8,70,-2
10470,2048,0,80,-6,69,1
10475,2072,-24,80,-4,69,0
10480,2064,-16,88,-5,69,1
10485,2056,-32,104,-5,67,-2
10490,2072,-8,80,-4,67,-2
10495,2080,0,80,-4,67,-4
10500,2048,0,96,-6,66,-3
10505,2072,8,120,-9,65,-4
10510,2064,-8,96,-11,65,-4
10515,2072,-16,104,-10,64,-4
10520,2056,8,72,-8,62,-4
10525,2080,-16,72,-8,62,-4
10530,2064,-24,88,-8,64,-2
10535,2072,-24,88,-6,64,-3
10540,2072,8,88,-6,67,-2
10545,2072,-16,88,-7,67,-3
10550,2064,8,88,-6,72,-4
10555,2048,-8,40,-7,73,-5
10560,2064,-16,72,-7,75,-6
10565,2056,-16,104,-9,77,-8
10570,2080,-16,72,-7,76,-5
10575,2048,-8,88,-6,75,-7
10580,2080,-8,80,-5,74,-5
10585,2064,-8,80,-4,75,-5
10590,2056,-8,88,-2,72,-3
10595,2064,16,112,-2,69,-3
10600,2056,16,80,-3,71,-3
10605,2056,32,56,-3,69,-3
10610,2072,-8,88,-2,70,-1
10615,2056,0,96,-3,70,-1
10620,2064,0,104,-4,71,-1
10625,2088,-16,88,-3,70,-2
10630,2056,8,64,-3,70,1
10635,2080,-24,72,-3,71,-2
10640,2064,-16,104,-4,71,0
10645,2080,-8,96,-4,70,0
10650,2072,-16,96,-5,68,-1
10655,2056,8,112,-5,66,-3
10660,2064,-24,104,-5,65,-2
10665,2056,8,128,-6,64,-2
10670,2064,0,112,-8,61,-1
10675,2056,8,56,-10,62,-2
10680,2064,-24,64,-11,61,0
10685,2072,-16,80,-9,59,-2
10690,2056,0,96,-12,60,-2
10695,2056,0,80,-12,60,-1
10700,2072,0,104,-12,60,-1
10705,2064,16,104,-13,61,-2
10710,2088,-8,80,-14,61,-1
10715,2072,16,112,-15,61,-2
10720,2072,-16,96,-18,61,-1
10725,2072,-24,120,-19,60,-1
10730,2064,0,96,-19,60,-1
10735,2064,-16,96,-22,60,-2
10740,2072,-8,96,-22,59,-1
10745,2072,-8,128,-23,60,-2
10750,2080,-16,56,-23,61,0
10755,2072,24,80,-23,61,-1
10760,2072,-16,80,-24,60,1
10765,2048,-8,64,-22,61,0
10770,2080,-8,88,-19,59,2
10775,2056,-24,104,-17,59,-1
10780,2088,-16,104,-18,57,0
10785,2072,-16,104,-18,56,-2
10790,2064,24,64,-21,57,-3
10795,2064,0,104,-22,56,-2
10800,2072,0,96,-23,56,-2
10805,2072,-24,104,-26,55,-4
10810,2072,0,96,-26,55,-3
10815,1928,-16,56,-30,55,-3
10820,2064,0,104,-30,54,-2
10825,2064,-8,96,-33,54,-4
10830,2064,-16,104,-34,53,-3
10835,2048,-8,128,-35,51,-2
10840,2064,-16,80,-34,51,-2
10845,2072,-16,104,-35,49,-3
10850,2064,-16,120,-37,48,-1
10855,2064,-8,80,-36,46,-2
10860,2048,-8,64,-36,45,-2
10865,2072,-8,96,-37,42,-2
10870,2072,-8,88,-37,43,0
10875,2080,-8,88,-38,42,-2
10880,2072,-32,88,-39,42,0
10885,2064,8,88,-38,42,1
10890,2072,-16,96,-37,43,1
10895,2072,-16,112,-35,43,0
10900,2088,-8,64,-34,42,1
10905,2064,-8,104,-33,44,0
10910,2088,-32,88,-33,44,2
10915,2080,-16,64,-31,46,1
10920,2064,0,80,-29,45,2
10925,2096,-24,120,-27,44,0
10930,2056,-24,88,-26,46,1
10935,2072,0,88,-27,45,2
10940,2048,-32,88,-26,45,2
10945,2064,-16,88,-26,45,1
10950,2064,-16,80,-24,45,1
10955,2064,-40,64,-23,44,0
10960,2064,-24,88,-23,44,1
10965,2072,-24,80,-20,44,-1
10970,2072,-24,80,-22,45,-1
10975,2080,-16,104,-21,45,-1
10980,2080,-16,80,-20,44,0
10985,2056,8,64,-19,44,-2
10990,2064,-16,72,-20,45,-1
10995,2048,-16,80,-21,46,-2
11000,2064,8,104,-19,46,-1
11005,2048,0,88,-19,46,-1
11010,2064,-8,64,-21,47,0
11015,2064,0,96,-20,48,-3
11020,2088,-16,88,-21,49,-2
11025,2056,-16,72,-20,48,-2
11030,2064,-8,96,-21,50,-2
11035,2072,0,64,-22,51,-2
11040,2024,16,96,-22,52,-2
11045,2056,-16,104,-22,52,-3
11050,2064,8,96,-19,53,-1
11055,2080,-8,88,-20,52,-2
11060,2080,-16,72,-20,54,-3
11065,2072,-16,80,-19,56,-2
11070,2072,0,80,-19,55,-2
11075,2088,-24,72,-20,55,-2
11080,2080,-16,88,-21,55,-2
11085,2064,0,72,-23,54,-3
11090,2096,-40,80,-23,54,-3
11095,2080,-16,96,-22,55,-2
11100,2072,-40,96,-22,54,-1
11105,2088,0,80,-22,54,-2
11110,2048,16,80,-22,54,0
11115,2056,-8,80,-21,55,-1
11120,2080,-16,96,-21,56,0
11125,2056,16,112,-20,55,-1
11130,2072,-24,88,-21,55,1
11135,2072,-8,80,-21,55,0
11140,2064,-8,64,-20,55,1
11145,2064,0,80,-20,55,-1
11150,2080,8,112,-20,55,1
11155,2064,16,80,-20,54,0
11160,2064,-8,112,-21,54,0
11165,2056,-16,80,-22,55,-1
11170,2064,-16,72,-21,54,-1
11175,2072,-24,72,-22,51,0
11180,2072,-8,72,-22,51,1
11185,2056,-16,96,-22,52,0
11190,2064,0,96,-22,52,1
11195,2056,8,80,-22,51,-1
11200,2072,-16,80,-22,52,0
11205,2072,-24,96,-22,52,1
11210,2072,-16,88,-23,53,-1
11215,2080,0,80,-23,53,-1
11220,2056,8,72,-22,53,0
11225,2064,0,96,-23,53,-2
11230,2072,-8,88,-23,53,-1
11235,2080,-24,64,-23,51,-1
11240,2056,-24,72,-23,51,0
11245,2064,0,104,-22,50,-1
11250,2072,-16,64,-22,51,0
11255,2064,-8,88,-22,50,0
11260,2056,0,96,-21,50,0
11265,2072,-24,96,-22,50,-1
11270,2080,-8,72,-22,51,-1
11275,2072,-24,96,-23,50,-1
11280,2088,-16,96,-23,50,0
11285,2064,-8,56,-23,50,-1
11290,2064,0,72,-25,50,0
11295,2072,-8,104,-24,50,-1
11300,2072,-8,104,-23,50,0
11305,2072,0,112,-23,51,-1
11310,2064,0,104,-22,51,0
11315,2072,-16,64,-22,50,-1
11320,2040,-8,88,-23,52,-1
11325,2072,-16,64,-23,52,-1
11330,2064,0,72,-23,52,-1
11335,2080,-8,64,-23,53,-2
11340,2072,-16,88,-23,52,-1
11345,2072,-32,96,-24,52,0
11350,2064,-8,64,-23,51,-2
11355,2056,16,56,-23,52,-1
11360,2056,8,96,-22,50,0
11365,2072,-16,96,-23,49,-1
11370,2064,-16,56,-23,48,0
11375,2072,-32,64,-21,47,-2
11380,2072,-24,56,-20,49,0
11385,2064,24,72,-20,49,-1
11390,2064,8,64,-19,51,-1
11395,2104,-16,72,-18,51,-2
11400,2088,0,88,-18,53,-2
11405,2064,-24,104,-18,54,-1
11410,2056,0,64,-17,55,1
11415,2072,-24,96,-16,54,-1
11420,2064,-24,56,-14,53,-2
11425,2080,0,72,-13,54,-1
11430,2088,-16,72,-13,55,-1
11435,2056,-16,72,-11,55,-1
11440,2072,-24,88,-13,54,-3
11445,2064,-40,80,-13,54,-2
11450,2064,-8,64,-15,54,-3
11455,2056,-8,104,-17,54,-2
11460,2072,0,88,-21,54,-3
11465,2072,-8,88,-27,52,-3
11470,2064,-40,72,-28,50,-2
11475,2064,-40,80,-30,48,-4
11480,2072,-16,80,-27,47,-2
11485,2056,-24,96,-26,46,-3
11490,2064,-8,64,-24,44,-4
11495,2096,-48,80,-22,44,-2
11500,2080,-8,72,-24,46,-2
11505,2088,-32,64,-26,45,-3
11510,2072,-16,80,-28,48,-2
11515,2072,16,96,-28,50,-3
11520,2072,-8,64,-28,52,-2
11525,2096,-24,96,-26,52,-3
11530,2080,0,64,-27,54,-2
11535,2096,-40,72,-24,54,-2
11540,2056,-8,72,-22,54,-1
11545,2096,-24,64,-21,54,-1
11550,2080,8,72,-20,53,-1
11555,2072,-24,72,-18,52,-2
11560,2072,-16,72,-20,53,-1
11565,2072,-8,72,-20,53,-1
11570,2064,-16,104,-19,54,0
11575,2056,-8,80,-20,53,1
11580,2064,-16,80,-20,52,0
11585,2064,-8,80,-20,52,1
11590,2064,-32,80,-20,51,1
11595,2048,-8,80,-21,51,1
11600,2064,-32,112,-18,50,1
11605,2064,-8,72,-20,49,1
11610,2080,-24,72,-20,49,2
11615,2048,16,96,-19,49,1
11620,2072,-8,48,-19,49,2
11625,2072,-8,96,-19,48,1
11630,2064,8,72,-19,47,1
11635,2072,-8,104,-20,47,2
11640,2080,-32,48,-20,46,1
11645,2088,0,80,-21,46,2
11650,2088,-16,48,-21,47,1
11655,2056,-24,64,-21,47,1
11660,2072,-8,24,-22,50,1
11665,2072,0,80,-23,49,0
11670,2088,-48,80,-23,50,1
11675,2072,0,64,-22,50,0
11680,2088,-16,88,-23,51,1
11685,2072,-24,64,-24,51,0
11690,2056,0,72,-23,50,0
11695,2080,-40,72,-23,52,0
11700,2056,-8,56,-21,52,0
11705,2088,-8,64,-21,53,-1
11710,2080,-16,72,-19,54,0
11715,2072,-8,56,-20,54,1
11720,2064,-32,80,-19,55,-1
11725,2080,0,88,-18,56,-1
11730,2064,-24,72,-17,56,-1
11735,2072,0,48,-17,56,-1
11740,2040,-8,88,-16,55,-1
11745,2080,-40,96,-15,55,-2
11750,2072,-8,64,-15,55,-1
11755,2072,-16,104,-14,55,-2
11760,2064,-16,96,-14,54,-3
11765,2064,-32,80,-12,54,-2
11770,2064,-24,72,-13,53,-3
11775,2072,-16,80,-14,53,-3
11780,2088,-16,72,-15,53,-4
11785,2072,0,56,-16,53,-4
11790,2056,-8,80,-16,55,-4
11795,2056,0,80,-16,54,-5
11800,2056,0,104,-17,55,-4
11805,2064,-8,88,-16,55,-4
11810,2056,8,80,-15,55,-4
11815,2088,-16,80,-16,54,-3
11820,2048,8,72,-14,54,-2
11825,2064,8,80,-14,55,-4
11830,2088,-32,64,-12,55,-3
11835,2088,-32,80,-9,55,-2
11840,2080,-16,80,-8,56,-2
11845,2088,-8,96,-7,56,-3
11850,2056,-8,48,-5,56,-2
11855,2088,-8,80,-5,57,-3
11860,2072,0,40,-5,58,-4
11865,2048,-24,72,-3,58,-4
11870,2088,-16,64,-2,60,-4
11875,2064,-32,32,-2,61,-4
11880,2072,-8,88,0,61,-3
11885,2080,-8,72,3,62,-4
11890,2072,-24,72,3,63,-3
11895,2064,-8,72,3,63,-3
11900,2072,-32,88,3,64,-4
11905,2072,-8,72,3,64,-4
11910,2064,0,64,2,64,-4
11915,2072,-48,56,2,64,-4
11920,2104,8,72,2,64,-4
11925,2088,-16,64,2,63,-5
11930,2064,-8,56,0,64,-5
11935,2048,-8,56,0,64,-5
11940,2072,-24,72,1,67,-4
11945,2080,-24,88,1,67,-4
11950,2080,0,64,1,67,-5
11955,2096,-16,48,1,68,-4
11960,2056,-8,56,2,69,-5
11965,2072,-16,104,4,69,-5
11970,2080,-16,96,4,69,-5
11975,2088,8,72,3,70,-6
11980,2072,-24,80,3,69,-6
11985,2080,0,80,2,70,-5
11990,2064,8,88,0,70,-4
11995,2064,0,72,-1,72,-5
12000,2080,-16,56,-1,72,-6
12005,2072,-8,80,-2,72,-5
12010,2072,-16,96,-2,71,-5
12015,2072,8,104,-3,71,-4
12020,2088,0,120,-4,71,-4
12025,2080,16,88,-4,72,-4
12030,2064,-16,80,-5,72,-3
12035,2088,-8,80,-5,71,-3
12040,2072,0,104,-5,70,-3
12045,2080,-16,104,-4,69,-1
12050,2056,-8,96,-4,69,-2
12055,2080,-16,72,-3,69,-3
12060,2072,0,104,-4,69,-2
12065,2072,-8,64,-2,69,-2
12070,2064,-8,64,-1,69,-2
12075,2072,0,72,1,69,-3
12080,2072,-8,56,1,69,-2
12085,2072,8,56,2,68,-2
12090,2056,-8,80,2,68,-3
12095,2088,-24,72,2,68,-2
12100,2072,-24,80,2,69,-4
12105,2072,-16,88,3,67,-3
12110,2040,0,88,2,68,-1
12115,2048,16,112,1,68,-3
12120,2064,-24,88,1,69,-2
12125,2072,-24,80,-1,69,-1
12130,2072,-8,64,-1,69,-2
12135,2056,0,72,-2,68,-2
12140,2064,-16,88,-4,67,-2
12145,2064,-24,72,-3,66,-2
12150,2080,-16,96,-4,67,-3
12155,2064,0,64,-4,65,-3
12160,2072,-24,80,-6,66,-2
12165,2048,24,56,-6,66,0
12170,2056,8,104,-6,64,-1
12175,2072,-8,96,-6,64,0
12180,2088,-16,56,-8,65,-1
12185,2072,-8,64,-6,63,-1
12190,2048,-8,64,-7,64,-1
12195,2056,-48,64,-7,63,0
12200,2064,24,96,-7,62,-2
12205,2080,-24,64,-7,61,-1
12210,2056,-16,40,-7,62,-2
12215,2096,-16,96,-6,64,-2
12220,2080,-8,80,-5,66,-3
12225,2088,-16,88,-5,66,-2
12230,2056,-16,64,-5,65,-4
12235,2088,-32,80,-3,66,-2
12240,2032,-8,96,-2,65,-3
12245,2072,0,80,-2,66,-2
12250,2032,-16,112,-1,66,-3
12255,2080,-8,80,0,66,-3
12260,2048,0,80,1,66,-3
12265,2080,-24,96,1,66,-2
12270,2064,-16,80,-1,66,-3
12275,2096,-8,88,-1,66,-4
12280,2064,-8,96,-3,65,-4
12285,2064,-8,88,-6,64,-5
12290,2048,-24,88,-7,63,-5
12295,2072,-8,72,-7,62,-4
12300,2048,-24,48,-5,60,-5
12305,2064,0,88,-3,58,-4
12310,2072,-16,64,-2,60,-4
12315,2080,-8,56,-2,60,-4
12320,2080,-24,56,-1,60,-5
12325,2064,-8,88,-2,59,-3
12330,2056,-24,72,-2,62,-5
12335,2088,0,80,-3,65,-5
12340,2072,0,72,-3,67,-4
12345,2056,-8,88,-4,70,-3
12350,2080,-8,112,-5,70,-4
12355,2072,-8,88,-3,71,-4
12360,2080,-16,96,-3,71,-3
12365,2072,-8,112,-2,70,-2
12370,2072,0,104,-3,69,-2
12375,2064,16,96,-2,68,-2
12380,2064,0,88,-2,68,-2
12385,2064,8,112,-3,67,-2
12390,2088,16,96,-3,66,-3
12395,2064,8,80,-5,66,-2
12400,2080,-8,56,-6,65,-2
12405,2072,-16,80,-7,67,-1
12410,2040,8,80,-7,67,-1
12415,2056,8,112,-8,66,-1
12420,2064,-8,120,-8,66,-1
12425,2048,0,112,-6,65,0
12430,2056,0,128,-7,63,0
12435,2072,-8,64,-7,62,1
12440,2072,-8,72,-5,62,1
12445,2072,-16,104,-5,61,1
12450,2080,-24,72,-5,61,1
12455,2064,-8,80,-5,60,0
12460,2072,-8,88,-5,61,-1
12465,2072,0,104,-5,61,1
12470,2064,8,80,-5,60,-1
12475,2056,-16,88,-5,61,0
12480,2088,-8,80,-5,62,0
12485,2080,0,104,-6,63,-1
12490,2088,-24,80,-5,63,-3
12495,2072,-8,104,-4,64,-2
12500,2064,-40,96,-1,64,-3
12505,2080,-8,104,-3,62,-1
12510,2072,-32,96,-5,62,-4
12515,2064,0,80,-5,63,-3
12520,2056,-32,96,-4,62,-5
12525,2056,-16,88,-4,62,-4
12530,2048,0,56,-4,64,-5
12535,2056,0,64,-4,64,-3
12540,2080,-8,104,-6,64,-3
12545,2072,8,112,-5,63,-3
12550,2072,-8,104,-6,63,-5
12555,2056,-16,112,-4,63,-3
12560,2072,-8,104,-4,64,-3
12565,2080,-8,80,-4,64,-2
12570,2072,-16,96,-4,64,-3
12575,2056,16,56,-4,64,-3
12580,2064,-16,80,-4,65,-3
12585,2088,8,96,-4,65,-3
12590,2064,-24,72,-7,63,-4
12595,2096,-16,72,-6,63,-3
12600,2072,-8,104,-8,64,-5
12605,2072,-8,104,-9,64,-4
12610,2080,-32,96,-10,65,-3
12615,2056,0,88,-13,65,-3
12620,2072,-8,64,-11,64,-3
12625,2072,16,48,-10,64,-2
12630,2056,-8,112,-10,62,-2
12635,2072,-16,104,-10,62,-1
12640,2072,0,64,-9,62,-3
12645,2072,-8,56,-9,62,-1
12650,2056,-16,56,-9,61,-3
12655,2072,8,72,-7,61,-2
12660,2064,8,96,-7,61,-3
12665,2056,96,112,-7,62,-1
12670,2072,-8,128,-7,63,-3
12675,2080,-8,112,-7,62,-2
12680,2064,-8,80,-7,62,-2
12685,2040,-24,96,-7,62,-1
12690,2080,16,72,-5,63,-2
12695,2056,-16,88,-3,63,1
12700,2080,-16,88,-4,63,-2
12705,2056,0,88,-4,62,-1
12710,2080,8,104,-3,63,-1
12715,2048,0,80,-2,61,0
12720,2072,8,88,-2,62,-2
12725,2072,-24,88,-2,61,-1
12730,2040,0,64,-3,62,-1
12735,2064,0,104,-6,61,1
12740,2064,-24,96,-7,60,-1
12745,2096,-32,80,-5,61,1
12750,2056,0,88,-3,60,-2
12755,2056,-8,112,-4,63,-2
12760,2072,-24,72,-6,61,-2
12765,2072,0,64,-7,61,-1
12770,2064,8,80,-6,63,-2
12775,2096,-8,96,-7,62,-1
12780,2056,-16,120,-7,62,-2
12785,2064,-8,64,-7,62,-1
12790,2056,-16,88,-7,63,-3
12795,2064,-24,120,-6,63,-1
12800,2056,-8,56,-6,63,-3
12805,2088,-24,64,-6,64,-1
12810,2080,0,96,-6,64,-2
12815,2080,-16,88,-6,64,-2
12820,2072,-24,72,-5,65,-2
12825,2072,8,56,-5,65,-2
12830,2048,-8,96,-3,66,-4
12835,2080,0,88,-3,66,-2
12840,2080,-24,120,-3,66,-2
12845,2048,-8,80,-5,67,-1
12850,2056,-8,96,-4,67,-3
12855,2064,0,88,-4,69,-3
12860,2064,-8,104,-4,68,-4
12865,2072,-24,64,-4,68,-2
12870,2088,16,64,-5,67,-4
12875,2080,8,80,-3,68,-2
12880,2064,0,64,-5,67,-3
12885,2072,-24,96,-5,67,-2
12890,2064,-8,104,-8,65,-3
12895,2040,8,112,-7,66,-2
12900,2064,8,128,-8,65,-2
12905,2064,-8,104,-7,65,-1
12910,2064,0,104,-6,64,-2
12915,2072,-16,104,-6,66,-1
12920,2064,16,104,-7,63,-2
12925,2072,8,80,-7,65,-1
12930,2072,16,104,-7,64,-3
12935,2088,-32,80,-6,64,-1
12940,2056,-8,104,-6,65,-3
12945,2080,-8,96,-6,64,-1
12950,2056,8,96,-6,64,-3
12955,2072,-8,96,-3,63,-1
12960,2056,-8,64,-4,63,-2
12965,2072,0,80,-4,63,-1
12970,2064,-8,104,-7,64,-3
12975,2064,-8,96,-8,64,-2
12980,2056,-8,104,-7,63,-3
12985,2064,0,56,-8,63,-3
12990,2072,-8,104,-9,63,-4
12995,2064,-8,104,-10,61,-3
13000,2056,8,112,-12,60,-4
13005,2072,8,120,-14,59,-4
13010,2056,16,64,-16,60,-4
13015,2080,8,144,-16,59,-3
13020,2072,32,96,-19,58,-4
13025,2080,-16,88,-20,56,-1
13030,2056,24,104,-23,54,-3
13035,2080,-24,80,-24,56,-1
13040,2088,-8,120,-24,55,-2
13045,2096,-16,96,-23,56,0
13050,2064,24,104,-24,54,-1
13055,2064,8,120,-24,54,2
13060,2048,-8,104,-22,54,-1
13065,2072,-8,128,-22,53,0
13070,2040,0,64,-22,53,-2
13075,2056,8,88,-23,53,0
13080,2064,-16,96,-22,53,-2
13085,2048,-8,80,-22,54,0
13090,2056,-16,104,-20,54,-1
13095,2080,0,104,-21,55,1
13100,2064,-24,72,-19,53,0
13105,2080,-24,72,-18,53,3
13110,2056,-16,112,-15,53,-1
13115,2064,-16,112,-13,52,1
13120,2072,-24,96,-11,51,-2
13125,2080,0,72,-11,52,-1
13130,2064,0,104,-10,53,-3
13135,2072,-16,88,-9,54,-1
13140,2080,-24,104,-9,55,-3
13145,2096,-32,80,-4,57,-3
13150,2056,0,80,-2,60,-3
13155,2096,-24,88,-2,60,-1
13160,2056,-16,112,-1,61,-3
13165,2072,-16,120,0,60,0
13170,2080,-24,80,1,61,-1
13175,2056,16,96,2,61,1
13180,2064,-8,96,3,63,-2
13185,2080,0,80,5,62,-2
13190,2064,-24,96,4,64,-3
13195,2064,0,48,2,65,-4
13200,2072,-16,120,-1,66,-7
13205,2072,-8,96,-3,66,-6
13210,2064,-16,72,-3,66,-8
13215,2080,0,112,-2,65,-6
13220,2056,-8,96,2,65,-8
13225,2080,16,80,2,65,-8
13230,2072,8,72,0,66,-9
13235,2072,8,96,-2,65,-8
13240,2072,0,64,-5,66,-10
13245,2088,-24,88,-10,69,-6
13250,2064,24,88,-13,69,-9
13255,2048,16,96,-15,69,-6
13260,2080,0,88,-17,70,-8
13265,2072,0,96,-18,69,-5
13270,2056,0,120,-19,68,-6
13275,2096,-16,112,-19,67,-4
13280,2080,8,112,-19,67,-5
13285,2056,8,80,-18,64,-2
13290,2064,0,112,-17,64,-4
13295,2056,0,96,-16,63,-2
13300,2056,0,88,-15,61,-4
13305,2064,16,96,-16,61,-2
13310,2056,8,112,-16,59,-4
13315,2080,-24,48,-16,60,-2
13320,2056,24,96,-14,59,-3
13325,2064,-8,88,-14,60,-2
13330,2072,-24,88,-13,60,-3
13335,2040,-8,112,-12,60,0
13340,2072,-32,120,-11,59,-3
13345,2064,-40,136,-9,59,0
13350,2064,-8,104,-9,60,-1
13355,2064,-8,96,-8,58,2
13360,2072,-24,104,-7,58,-1
13365,2072,0,120,-6,57,1
13370,2048,-8,72,-5,58,2
13375,2056,0,88,-3,57,2
13380,2080,0,64,-4,57,0
13385,2072,-16,88,-4,58,2
13390,2088,-16,120,-2,58,-1
13395,2064,-8,64,-2,59,1
13400,2088,-32,88,-2,58,0
13405,2056,0,104,-1,58,0
13410,2080,-8,72,-3,59,-2
13415,2072,-16,88,-2,60,0
13420,2048,8,120,-4,62,-3
13425,2072,-16,72,-5,62,-1
13430,2080,-8,80,-9,63,-3
13435,2072,-8,88,-9,63,-2
13440,2064,8,80,-12,63,-5
13445,2064,-16,96,-14,65,-4
13450,2080,0,96,-15,64,-6
13455,2080,-24,136,-17,65,-1
13460,2048,8,96,-19,67,-4
13465,2064,0,88,-21,66,0
13470,2080,-24,88,-22,65,-2
13475,2056,-8,96,-21,65,0
13480,2064,8,120,-23,63,-3
13485,2032,8,64,-25,61,-1
13490,2064,-8,72,-26,61,-3
13495,2064,16,112,-30,60,-2
13500,2048,-8,88,-33,60,-4
13505,2072,-16,96,-34,60,-2
13510,2064,-8,88,-35,60,-6
13515,2040,16,104,-38,61,-3
13520,2056,8,112,-38,58,-5
13525,2072,0,112,-41,57,-2
13530,2064,0,80,-42,58,-3
13535,2064,-40,120,-42,57,-1
13540,2056,-8,128,-43,55,-4
13545,2072,-8,104,-42,54,-2
13550,2048,8,120,-43,53,-3
13555,2072,0,112,-41,51,1
13560,2056,0,112,-39,49,0
13565,2080,-16,96,-38,48,2
13570,2056,0,88,-38,47,1
13575,2080,8,112,-40,45,1
13580,2072,-8,96,-39,45,1
13585,2072,-16,120,-38,44,3
13590,2064,-8,120,-38,42,0
13595,2040,8,96,-38,40,3
13600,2048,8,72,-37,40,1
13605,2080,-24,104,-37,38,4
13610,2072,-16,96,-39,38,2
13615,2088,0,88,-39,37,3
13620,2056,0,88,-38,37,2
13625,2064,-32,80,-35,37,5
13630,2064,-16,96,-36,38,3
13635,2048,8,104,-35,36,5
13640,2064,-16,88,-34,36,4
13645,2064,-32,96,-34,34,5
13650,2080,0,64,-33,35,2
13655,2072,-32,96,-31,34,5
13660,2072,0,80,-32,35,1
13665,2056,-8,104,-32,34,4
13670,2080,8,72,-32,34,1
13675,2072,-8,80,-33,34,2
13680,2056,-16,56,-33,34,1
13685,2072,0,72,-33,36,3
13690,2056,-32,88,-32,36,-1
13695,2064,0,112,-31,36,1
13700,2080,-24,96,-31,37,0
13705,2080,-16,88,-30,38,2
13710,2064,-8,112,-31,38,-1
13715,2072,-8,80,-31,39,1
13720,2056,0,72,-32,39,-3
13725,2064,0,88,-30,41,0
13730,2064,-8,88,-29,40,-3
13735,2080,-24,64,-29,42,-1
13740,2072,-32,72,-29,44,-4
13745,2072,-32,96,-30,44,-1
13750,2056,8,88,-29,47,-3
13755,2088,-40,112,-27,47,-1
13760,2056,-8,104,-27,49,-4
13765,2080,-16,96,-27,48,-1
13770,2080,-16,88,-25,49,-3
13775,2088,-16,40,-25,49,-2
13780,2056,8,80,-24,51,-3
13785,2072,-32,72,-23,50,-1
13790,2056,0,40,-22,51,-4
13795,2072,-16,96,-23,52,-1
13800,2072,-8,112,-23,52,-3
13805,2056,16,88,-24,52,-1
13810,2072,0,96,-24,52,-2
13815,2064,0,96,-23,53,0
13820,2064,8,96,-24,52,-1
13825,2080,0,88,-25,51,1
13830,2056,-32,88,-25,52,-1
13835,2064,0,88,-24,53,1
13840,2096,-24,112,-24,53,-1
13845,2072,24,96,-23,52,2
13850,2080,-8,96,-24,52,-1
13855,2080,0,96,-24,52,0
13860,2088,-16,64,-24,54,-1
13865,2064,-8,96,-24,53,2
13870,2064,0,96,-22,50,-1
13875,2064,8,88,-22,49,2
13880,2080,-24,104,-23,49,-1
13885,2072,-24,96,-25,49,1
13890,2080,-24,120,-25,49,1
13895,2064,-16,80,-25,50,1
13900,2080,-16,88,-25,48,0
13905,2064,8,72,-26,47,2
13910,2064,8,80,-27,46,1
13915,2056,-32,104,-27,46,2
13920,2088,-16,104,-27,46,-1
13925,2072,-24,80,-29,45,3
13930,2072,-8,96,-31,45,-1
13935,2040,-8,88,-33,44,3
13940,2064,0,104,-33,45,0
13945,2048,-16,80,-33,44,3
13950,2064,-16,88,-32,43,2
13955,2064,0,64,-32,43,3
13960,2056,-8,72,-32,43,1
13965,2064,-16,72,-31,43,4
13970,2040,0,72,-31,40,2
13975,2072,0,104,-29,40,3
13980,2072,-24,88,-27,40,0
13985,2064,0,64,-28,40,2
13990,2056,-8,88,-27,41,0
13995,2072,-8,104,-26,40,2
14000,2064,-24,72,-26,41,0
14005,2064,-24,96,-25,42,2
14010,2064,-16,64,-25,42,-2
14015,2072,-16,64,-25,45,1
14020,2040,8,48,-26,44,-1
14025,2080,-8,104,-25,44,1
14030,2056,-40,88,-23,45,-2
14035,2056,-8,64,-24,45,2
14040,2064,-8,72,-23,45,-2
14045,2064,-24,40,-21,46,2
14050,2064,-24,72,-20,48,-1
14055,2056,-24,72,-18,47,2
14060,2080,-16,56,-19,47,-2
14065,2072,0,72,-18,48,1
14070,2072,0,80,-18,46,-1
14075,2096,-8,56,-18,46,0
14080,2104,0,64,-18,46,-3
14085,2080,0,72,-19,47,-2
14090,2072,-24,88,-20,48,-2
14095,2080,8,112,-20,50,0
14100,2096,-16,88,-19,51,0
14105,2096,-16,64,-17,52,2
14110,2064,0,88,-17,50,-2
14115,2056,-24,72,-15,51,2
14120,2040,-16,48,-14,50,-2
14125,2064,-24,112,-13,52,0
14130,2072,-40,80,-12,53,-4
14135,2072,-16,64,-13,53,-1
14140,2064,-8,64,-17,53,-4
14145,2040,8,48,-19,53,-2
14150,2072,-8,72,-23,52,-6
14155,2072,-8,104,-29,53,-3
14160,2064,8,96,-32,52,-4
14165,2080,-24,96,-34,48,-2
14170,2064,-8,88,-33,45,-3
14175,2088,-40,96,-32,43,0
14180,2072,-32,80,-29,42,-3
14185,2072,-32,72,-28,39,-1
14190,2080,0,72,-28,39,-2
14195,2064,-16,48,-29,40,2
14200,2072,0,64,-28,41,-3
14205,2096,-32,112,-29,43,1
14210,2112,-48,56,-28,45,-1
14215,2056,-16,104,-25,47,1
14220,2072,-24,72,-24,48,-3
14225,2080,0,64,-21,49,0
14230,2072,-24,64,-19,49,-4
14235,2080,-16,80,-19,51,-1
14240,2080,-16,72,-18,51,-2
14245,2072,16,56,-18,50,0
14250,2064,0,80,-17,50,-3
14255,2072,-16,96,-18,49,0
14260,2088,0,80,-18,49,-2
14265,2072,8,80,-18,48,2
14270,2088,-16,72,-17,50,1
14275,2064,0,88,-16,48,3
14280,2072,0,80,-15,49,0
14285,2064,-8,72,-14,49,1
14290,2064,-8,64,-14,48,-2
14295,2072,-8,72,-14,49,2
14300,2072,-24,72,-14,48,0
14305,2088,-16,72,-14,48,3
14310,2064,-16,56,-15,48,-1
14315,2080,-8,72,-15,48,3
14320,2072,-24,88,-15,47,0
14325,2072,-16,56,-16,47,2
14330,2064,-32,72,-16,45,-1
14335,2056,8,72,-17,45,2
14340,2072,-8,80,-17,46,1
14345,2080,-8,80,-15,48,3
14350,2064,-24,56,-17,49,0
14355,2064,-8,96,-17,49,2
14360,2088,-32,40,-16,50,0
14365,2088,-24,96,-16,51,1
14370,2072,-8,72,-16,52,-2
14375,2056,-24,80,-14,52,-1
14380,2064,-24,64,-15,54,-3
14385,2072,-8,88,-15,54,-1
14390,2064,-8,80,-15,55,-3
14395,2064,-16,56,-15,55,0
14400,2072,-16,72,-14,56,-2
14405,2080,-32,64,-14,56,0
14410,2088,-24,64,-14,56,-2
14415,2064,0,64,-14,57,-1
14420,2064,-8,88,-15,58,-4
14425,2056,16,80,-14,58,-2
14430,2080,-8,96,-16,57,-5
14435,2072,-24,56,-17,56,-2
14440,2072,-8,64,-17,58,-4
14445,2080,-16,80,-16,59,-1
14450,2024,8,80,-16,57,-5
14455,2064,-16,104,-15,57,-2
14460,2072,-24,80,-16,57,-4
14465,2032,8,16,-17,56,-1
14470,2088,-32,88,-18,57,-5
14475,2072,-16,64,-20,56,-2
14480,2072,-8,72,-20,56,-4
14485,2064,-16,104,-20,54,-2
14490,2056,0,88,-21,54,-5
14495,2048,-16,88,-22,52,-2
14500,2072,-8,56,-23,50,-5
14505,2064,-40,80,-23,50,-1
14510,2080,-24,72,-22,49,-3
14515,2064,-16,104,-21,49,-1
14520,2064,-8,80,-20,49,-4
14525,2064,0,56,-19,49,-1
14530,2056,0,40,-16,49,-3
14535,2096,-16,56,-15,49,-1
14540,2056,-24,80,-13,49,-4
14545,2072,-8,56,-12,49,0
14550,2064,-16,88,-9,51,-5
14555,2056,-16,56,-7,53,-2
14560,2064,-8,64,-6,53,-4
14565,2072,0,40,-4,54,-2
14570,2056,-24,80,-4,54,-3
14575,2072,-24,96,-2,55,-3
14580,2040,-8,80,0,56,-5
14585,2080,-32,96,-1,58,-3
14590,2072,-8,48,0,60,-5
14595,2064,-8,56,2,60,-2
14600,2064,-16,88,3,61,-4
14605,2080,-24,48,2,62,-3
14610,2072,-8,40,3,61,-6
14615,2048,8,64,3,64,-3
14620,2088,-16,64,2,63,-4
14625,2080,-24,72,3,64,-3
14630,2056,8,56,2,63,-5
14635,2088,-16,72,2,64,-4
14640,2088,-32,56,2,64,-6
14645,2064,8,48,0,65,-3
14650,2072,8,64,-2,65,-7
14655,2064,-8,72,-2,66,-3
14660,2088,-16,80,-1,66,-6
14665,2064,8,56,-2,68,-4
14670,2072,8,64,-1,70,-7
14675,2104,-8,72,1,70,-4
14680,2064,-32,80,2,70,-6
14685,2072,-32,64,4,73,-4
14690,2080,-24,72,5,74,-6
14695,2080,-40,72,5,73,-4
14700,2072,0,40,4,75,-7
14705,2064,-24,72,4,73,-3
14710,2072,-24,88,3,73,-5
14715,2064,8,48,3,74,-4
14720,2064,0,80,1,75,-6
14725,2048,-16,72,0,76,-4
14730,2080,-16,88,1,76,-6
14735,2072,-16,96,-2,74,-3
14740,2048,-16,104,-3,75,-4
14745,2032,0,88,-2,75,-2
14750,2072,-8,80,-2,74,-4
14755,2064,0,64,-1,75,-2
14760,2064,0,96,-1,73,-4
14765,2096,0,72,0,72,-1
14770,2064,-16,88,-1,71,-4
14775,2072,-8,64,1,71,-2
14780,2088,-16,72,-1,71,-4
14785,2072,-24,88,1,69,-3
14790,2064,0,64,0,69,-4
14795,2056,24,80,1,71,-2
14800,2072,-24,72,1,71,-4
14805,2048,-8,80,2,70,-2
14810,2080,-24,88,1,70,-3
14815,2072,-24,80,1,70,-2
14820,2064,-24,88,2,70,-3
14825,2056,-8,72,2,69,0
14830,2056,-8,64,2,68,-3
14835,2080,16,80,3,69,-1
14840,2072,-16,72,2,66,-4
14845,2080,-8,56,2,68,0
14850,2048,-8,64,1,66,-2
14855,2088,0,56,1,66,-1
14860,2080,-8,88,-1,67,-4
14865,2088,-24,72,-2,67,-2
14870,2072,-8,56,-2,67,-4
14875,2072,8,88,-1,66,-2
14880,2096,-16,96,-4,67,-3
14885,2072,-24,80,-2,67,1
14890,2080,0,88,-3,67,-3
14895,2072,0,80,-3,67,-1
14900,2080,-8,88,-2,67,-3
14905,2056,-8,88,-1,66,0
14910,2064,-16,72,-3,66,-3
14915,2048,8,72,-2,66,-2
14920,2064,-8,80,0,65,-3
14925,2072,-16,72,-1,66,0
14930,2080,-8,96,0,67,-4
14935,2056,-32,80,0,68,-2
14940,2096,-24,72,-1,65,-4
14945,2072,-8,88,1,65,-1
14950,2072,-16,80,2,66,-4
14955,2072,-32,64,2,67,-2
14960,2080,-16,64,2,66,-5
14965,2088,-32,96,3,68,-3
14970,2040,-24,72,3,70,-5
14975,2056,16,96,5,70,-4
14980,2056,-8,88,5,71,-6
14985,2080,-24,96,5,72,-2
14990,2064,-24,88,5,72,-4
14995,2080,-32,88,6,72,-2
