timestamp,accel_x,accel_y,accel_z,gyro_x,gyro_y,gyro_z
0,-232,-2000,128,-18,57,-1
5,-208,-2008,136,-17,57,-5
10,-224,-2008,120,-18,59,-4
15,-240,-2008,120,-19,57,-8
20,-248,-2016,88,-20,59,-8
25,-248,-2024,160,-19,59,-12
30,-264,-2008,120,-20,58,-10
35,-248,-2008,144,-20,60,-14
40,-240,-2016,144,-20,58,-13
45,-240,-2032,112,-20,58,-15
50,-248,-2000,120,-20,59,-13
55,-240,-2008,128,-19,60,-18
60,-240,-1992,128,-19,59,-16
65,-248,-2016,144,-21,58,-18
70,-224,-2000,128,-19,58,-17
75,-216,-2008,168,-18,59,-20
80,-200,-2024,128,-15,59,-19
85,-224,-2008,136,-13,60,-22
90,-216,-2024,96,-9,61,-21
95,-192,-2032,144,-5,62,-24
100,-208,-2016,152,-6,62,-25
105,-208,-2024,144,-10,61,-29
110,-208,-2024,152,-13,56,-29
115,-216,-2008,120,-17,56,-32
120,-184,-2032,120,-22,56,-30
125,-176,-1992,112,-27,54,-33
130,-208,-2000,104,-27,55,-31
135,-184,-2016,128,-26,55,-32
140,-192,-2016,112,-25,55,-29
145,-192,-2016,136,-24,56,-31
150,-176,-2016,136,-20,56,-29
155,-176,-2016,160,-16,56,-31
160,-128,-2040,128,-13,55,-29
165,-160,-2032,112,-9,55,-30
170,-168,-2024,128,-7,54,-29
175,-160,-2032,152,-6,54,-32
180,-152,-2024,128,-5,55,-29
185,-192,-1944,48,-5,55,-32
190,-200,-2032,-16,-6,55,-30
195,-200,-2008,80,-8,54,-31
200,-168,-1992,232,-8,55,-29
205,-104,-1976,264,-12,55,-30
210,-136,-2080,224,-14,56,-29
215,-168,-2016,104,-17,56,-30
220,-168,-2000,80,-17,56,-28
225,-144,-2016,168,-20,57,-29
230,-168,-2000,144,-21,57,-25
235,-128,-2008,136,-21,56,-26
240,-144,-2024,168,-23,56,-24
245,-160,-2016,120,-24,55,-25
250,-128,-2024,152,-25,56,-25
255,-120,-2024,136,-25,56,-23
260,-112,-2008,160,-27,57,-23
265,-152,-2008,168,-28,56,-23
270,-136,-2008,176,-28,59,-22
275,-120,-2032,152,-30,58,-23
280,-112,-2024,136,-30,58,-21
285,-136,-2008,168,-30,57,-21
290,-96,-2016,152,-29,57,-19
295,-120,-2024,168,-29,57,-19
300,-104,-2016,152,-29,58,-17
305,-128,-2032,160,-30,58,-15
310,-96,-2000,168,-29,58,-16
315,-144,-2032,144,-29,58,-12
320,-144,-2032,152,-28,57,-11
325,-144,-1992,152,-29,57,-9
330,-144,-2000,160,-29,57,-10
335,-152,-1992,184,-29,57,-10
340,-160,-2016,152,-31,58,-9
345,-144,-1992,192,-32,61,-7
350,-128,-2008,176,-35,63,-9
355,-160,-1992,160,-38,64,-8
360,-136,-2008,168,-42,66,-10
365,-152,-2008,160,-48,68,-9
370,-136,-2032,136,-49,69,-12
375,-168,-2032,112,-52,73,-10
380,-176,-2008,168,-54,73,-9
385,-144,-2016,144,-58,76,-8
390,-176,-2008,136,-60,76,-9
395,-176,-2016,144,-61,77,-6
400,-176,-2016,128,-64,77,-6
405,-152,-2016,136,-65,77,-4
410,-144,-2032,120,-64,76,-5
415,-160,-2008,152,-62,76,-1
420,-144,-2016,128,-61,75,-3
425,-120,-2032,144,-59,75,1
430,-160,-2008,136,-56,74,1
435,-120,-2032,128,-55,73,4
440,-160,-2032,120,-55,73,3
445,-136,-2032,112,-55,73,8
450,-128,-2032,144,-54,71,7
455,-152,-2008,128,-56,70,12
460,-152,-2040,112,-57,68,11
465,-136,-2024,96,-58,69,14
470,-160,-2040,120,-60,68,14
475,-144,-2016,104,-63,69,18
480,-168,-2008,104,-67,69,17
485,-168,-2024,128,-69,69,21
490,-176,-2008,136,-74,68,19
495,-176,-2024,128,-77,69,21
500,-176,-2032,120,-79,69,18
505,-168,-2040,136,-80,68,22
510,-208,-2024,136,-78,69,19
515,-192,-2040,112,-77,68,21
520,-176,-2032,112,-73,69,20
525,-176,-2040,104,-67,68,23
530,-192,-2032,96,-61,68,21
535,-192,-2032,104,-57,67,23
540,-184,-2016,112,-54,65,18
545,-192,-2016,104,-51,65,20
550,-192,-1992,80,-50,64,16
555,-184,-2000,88,-50,66,16
560,-192,-2040,80,-48,66,13
565,-208,-2024,104,-49,65,12
570,-200,-2008,72,-48,66,8
575,-208,-1984,104,-47,64,10
580,-208,-2016,112,-46,63,6
585,-208,-2000,112,-46,62,6
590,-192,-2008,88,-46,62,3
595,-192,-2008,104,-45,61,3
600,-200,-2000,88,-45,60,-2
605,-192,-2016,120,-44,60,-1
610,-184,-2016,88,-46,61,-3
615,-176,-2016,112,-49,59,-2
620,-200,-2000,96,-53,58,-4
625,-184,-2024,112,-54,55,-5
630,-184,-2016,104,-57,56,-7
635,-176,-2008,112,-59,54,-5
640,-200,-1992,104,-62,53,-7
645,-184,-2008,144,-64,52,-6
650,-176,-2008,96,-66,50,-8
655,-168,-2024,96,-67,49,-7
660,-192,-2008,120,-69,48,-6
665,-176,-2008,96,-71,45,-8
670,-168,-2024,112,-71,42,-10
675,-208,-2040,96,-71,40,-9
680,-176,-2024,104,-69,39,-9
685,-208,-2024,96,-65,38,-8
690,-192,-2032,104,-61,39,-8
695,-208,-2024,96,-56,42,-7
700,-192,-2024,104,-52,43,-7
705,-200,-2064,88,-51,44,-6
710,-208,-2040,88,-49,45,-6
715,-192,-2040,104,-46,44,-7
720,-208,-2032,80,-42,45,-9
725,-208,-2048,96,-43,45,-8
730,-208,-2064,112,-41,44,-9
735,-200,-2048,96,-37,44,-11
740,-224,-2072,96,-32,43,-11
745,-224,-2056,80,-28,43,-11
750,-224,-2040,88,-23,41,-11
755,-208,-2056,80,-21,40,-12
760,-208,-2048,56,-19,39,-13
765,-208,-2040,80,-17,37,-15
770,-208,-2008,104,-14,35,-15
775,-224,-2000,64,-14,35,-17
780,-208,-2008,80,-10,35,-17
785,-208,-1984,64,-7,34,-17
790,-208,-1976,64,-8,33,-15
795,-208,-1960,72,-9,31,-15
800,-208,-1952,64,-10,31,-13
805,-216,-1960,64,-13,31,-14
810,-184,-1968,48,-18,32,-9
815,-160,-1960,72,-23,32,-8
820,-176,-1952,72,-27,30,-5
825,-192,-1976,72,-28,27,-3
830,-176,-1992,64,-30,24,0
835,-168,-1984,96,-31,22,1
840,-192,-1976,80,-33,15,3
845,-192,-2000,96,-34,6,1
850,-168,-2032,104,-35,-5,6
855,-192,-2024,128,-33,-14,4
860,-192,-2016,112,-34,-25,7
865,-216,-2032,112,-33,-37,6
870,-200,-2048,112,-36,-47,10
875,-216,-2016,112,-36,-59,9
880,-232,-2032,120,-38,-65,13
885,-208,-2008,128,-41,-73,13
890,-216,-2032,96,-45,-81,18
895,-192,-2024,136,-49,-85,17
900,-208,-2016,120,-54,-89,22
905,-176,-2016,168,-61,-88,21
910,-176,-2016,88,-67,-87,27
915,-168,-1992,192,-77,-84,28
920,-168,-1976,168,-85,-84,30
925,-168,-1960,160,-94,-81,27
930,-184,-1960,152,-106,-79,26
935,-192,-1944,168,-118,-79,21
940,-208,-1904,184,-133,-80,20
945,-192,-1944,144,-147,-82,14
950,-208,-1920,120,-162,-86,12
955,-248,-1936,144,-175,-97,5
960,-272,-1936,152,-187,-106,3
965,-280,-1976,144,-200,-122,-6
970,-272,-1944,136,-210,-136,-12
975,-288,-1960,96,-220,-151,-23
980,-288,-1952,104,-233,-164,-27
985,-272,-1952,80,-247,-172,-36
990,-296,-1952,72,-263,-180,-40
995,-256,-2000,96,-275,-183,-48
1000,-232,-2008,80,-287,-186,-51
1005,-200,-2032,88,-295,-190,-61
1010,-208,-2040,64,-301,-191,-70
1015,-184,-2072,40,-302,-195,-84
1020,-144,-2088,48,-302,-195,-95
1025,-128,-2096,-24,-298,-193,-113
1030,-88,-2096,24,-291,-189,-126
1035,-64,-2128,-8,-283,-182,-143
1040,-40,-2152,-48,-274,-174,-153
1045,-48,-2152,-48,-269,-169,-164
1050,0,-2128,-56,-262,-163,-167
1055,-24,-2120,-40,-259,-155,-170
1060,0,-2112,-40,-255,-151,-166
1065,-8,-2096,-56,-249,-148,-162
1070,0,-2096,-16,-244,-146,-150
1075,24,-2080,-56,-238,-142,-142
1080,40,-2072,-80,-232,-136,-131
1085,72,-2080,-88,-227,-125,-122
1090,88,-2088,-32,-221,-107,-113
1095,112,-2064,-48,-210,-88,-107
1100,128,-2072,-24,-197,-71,-101
1105,152,-2080,-24,-184,-53,-96
1110,136,-2072,-24,-170,-29,-91
1115,144,-2080,-32,-153,-7,-88
1120,144,-2048,-24,-138,13,-82
1125,144,-2072,-40,-121,32,-79
1130,144,-2064,-8,-107,49,-74
1135,144,-2040,16,-91,68,-70
1140,120,-2032,16,-79,84,-67
1145,104,-2008,0,-69,105,-61
1150,80,-2024,48,-63,124,-57
1155,96,-2032,24,-57,146,-51
1160,128,-2024,40,-49,166,-47
1165,104,-2056,40,-39,177,-47
1170,40,-2040,64,-33,184,-45
1175,0,-2048,32,-26,189,-43
1180,-72,-2032,40,-25,189,-37
1185,-96,-2040,8,-30,184,-27
1190,-72,-2064,32,-41,181,-17
1195,-24,-2064,8,-42,191,-7
1200,-16,-2080,40,-32,211,-1
1205,0,-2120,48,-12,232,3
1210,-40,-2128,32,18,247,2
1215,-72,-2112,-24,39,252,0
1220,-56,-2128,-48,57,256,-2
1225,-48,-2112,-24,72,270,-1
1230,-48,-2128,-80,84,286,-1
1235,-48,-2128,-72,91,302,4
1240,0,-2104,-56,98,318,2
1245,32,-2128,-72,110,333,2
1250,32,-2128,-120,121,356,-3
1255,48,-2096,-72,125,378,-8
1260,64,-2128,-80,142,398,-14
1265,72,-2120,-88,163,414,-15
1270,64,-2120,-112,180,432,-20
1275,48,-2104,-80,192,445,-20
1280,24,-2080,-64,204,456,-26
1285,56,-2064,0,219,470,-29
1290,-8,-2032,0,231,485,-33
1295,-72,-2016,16,240,496,-30
1300,-40,-1992,-24,239,500,-33
1305,-64,-1984,56,237,504,-35
1310,-96,-1984,40,243,510,-37
1315,-112,-2000,64,249,511,-31
1320,-136,-2000,72,254,509,-28
1325,-160,-1992,120,260,506,-21
1330,-232,-1992,104,270,497,-17
1335,-272,-1976,112,276,484,-9
1340,-256,-1976,96,277,473,-3
1345,-312,-1984,128,274,463,6
1350,-312,-1976,128,271,450,11
1355,-360,-1928,72,259,441,19
1360,-360,-1936,104,238,437,27
1365,-384,-1952,120,217,426,36
1370,-360,-1944,120,200,411,36
1375,-392,-1928,128,186,398,38
1380,-400,-1920,168,174,386,35
1385,-392,-1896,176,159,376,32
1390,-360,-1880,192,145,367,24
1395,-408,-1880,168,130,361,20
1400,-400,-1880,144,108,353,7
1405,-424,-1880,184,78,344,6
1410,-424,-1904,176,58,334,3
1415,-408,-1896,168,40,323,3
1420,-424,-1920,144,24,315,1
1425,-432,-1912,168,4,305,3
1430,-520,-1912,136,-13,292,4
1435,-456,-1960,160,-27,265,9
1440,-288,-1960,104,-42,239,7
1445,-272,-1928,96,-58,227,6
1450,-288,-1984,72,-79,220,2
1455,-448,-2000,40,-105,214,5
1460,-512,-2024,64,-122,203,11
1465,-528,-2056,72,-135,178,21
1470,-512,-2096,120,-135,148,22
1475,-424,-2088,112,-121,114,22
1480,-360,-2152,136,-96,86,14
1485,-288,-2136,152,-72,73,14
1490,-256,-2160,152,-46,70,9
1495,-248,-2144,144,-14,75,10
1500,-240,-2088,136,3,83,4
1505,-248,-2072,152,23,80,-6
1510,-224,-2024,88,30,75,-23
1515,-304,-1984,120,24,69,-41
1520,-344,-1928,96,22,57,-57
1525,-336,-1944,96,14,45,-66
1530,-328,-1984,72,0,38,-82
1535,-392,-1984,88,-15,37,-87
1540,-384,-2008,40,-21,33,-88
1545,-432,-2080,152,-21,30,-78
1550,-400,-2056,-32,-26,22,-72
1555,-400,-2048,-56,-36,13,-60
1560,-408,-2040,-40,-50,1,-47
1565,-360,-2088,8,-58,-12,-32
1570,-312,-2096,56,-54,-22,-21
1575,-264,-2088,80,-37,-34,-14
1580,-224,-2080,88,-16,-48,-12
1585,-192,-2048,112,4,-66,-11
1590,-168,-2016,88,16,-84,-15
1595,-160,-1960,88,18,-100,-19
1600,-128,-1928,80,10,-112,-24
1605,-128,-1912,72,-3,-117,-26
1610,-152,-1904,48,-22,-114,-28
1615,-96,-1936,64,-49,-111,-28
1620,-120,-1944,0,-72,-108,-31
1625,-96,-1992,-32,-92,-102,-36
1630,-88,-2008,-24,-108,-94,-44
1635,-112,-2024,-16,-120,-86,-55
1640,-104,-2072,0,-131,-83,-66
1645,-104,-2080,-32,-140,-85,-81
1650,-96,-2088,-40,-148,-89,-92
1655,-120,-2080,-32,-152,-96,-99
1660,-120,-2088,-72,-154,-99,-105
1665,-96,-2072,-64,-159,-100,-106
1670,-88,-2072,-88,-165,-99,-108
1675,-80,-2024,-80,-172,-98,-109
1680,-56,-2040,-72,-175,-96,-110
1685,-56,-2056,-40,-175,-93,-112
1690,-40,-2056,-64,-175,-91,-109
1695,-64,-2056,-32,-169,-91,-107
1700,-72,-2048,-40,-165,-91,-104
1705,-56,-2064,-40,-160,-93,-105
1710,-72,-2032,-16,-153,-97,-104
1715,-80,-2040,-40,-148,-101,-106
1720,-64,-2024,-32,-145,-102,-103
1725,-80,-2008,-8,-148,-105,-107
1730,-40,-1992,8,-155,-108,-108
1735,-48,-1976,-32,-164,-110,-113
1740,-72,-1992,-48,-177,-109,-117
1745,-72,-1984,-48,-190,-110,-121
1750,-80,-1992,-48,-201,-108,-124
1755,-88,-1984,-24,-205,-108,-127
1760,-48,-1960,0,-213,-109,-126
1765,-32,-2008,-16,-219,-112,-131
1770,8,-2008,0,-222,-113,-133
1775,24,-2016,-48,-226,-111,-141
1780,16,-2008,-16,-231,-108,-143
1785,40,-2016,-32,-237,-101,-151
1790,40,-2000,-32,-245,-91,-154
1795,64,-2032,-16,-257,-82,-159
1800,96,-2024,-24,-265,-73,-157
1805,96,-2064,-16,-272,-65,-159
1810,96,-2032,-72,-282,-61,-157
1815,104,-2032,-72,-290,-58,-158
1820,80,-2048,-88,-302,-58,-153
1825,88,-2064,-16,-310,-55,-150
1830,56,-2064,-32,-305,-58,-142
1835,64,-2080,-32,-297,-54,-136
1840,88,-2088,8,-290,-52,-128
1845,72,-2080,-24,-279,-52,-125
1850,80,-2088,-40,-272,-52,-122
1855,40,-2080,-24,-268,-55,-121
1860,40,-2096,-40,-259,-60,-118
1865,8,-2080,-64,-254,-64,-118
1870,-8,-2088,-56,-244,-73,-111
1875,-32,-2104,-32,-231,-83,-106
1880,-32,-2096,-56,-212,-92,-97
1885,0,-2096,-80,-196,-94,-88
1890,8,-2088,-80,-180,-95,-76
1895,-8,-2096,-56,-170,-97,-69
1900,0,-2064,-32,-157,-99,-59
1905,-16,-2080,-56,-144,-102,-51
1910,-56,-2072,-32,-139,-105,-38
1915,-48,-2072,-64,-133,-105,-31
1920,-64,-2080,-32,-127,-106,-18
1925,-80,-2080,-48,-121,-104,-9
1930,-80,-2080,-32,-116,-102,3
1935,-80,-2072,-16,-109,-97,14
1940,-80,-2088,-32,-98,-92,26
1945,-104,-2080,-8,-89,-89,32
1950,-88,-2072,-16,-80,-85,42
1955,-64,-2064,-40,-72,-79,45
1960,-40,-2072,56,-63,-71,49
1965,-40,-2056,48,-58,-62,47
1970,-48,-2040,32,-53,-51,46
1975,-8,-2048,32,-51,-40,43
1980,-32,-2040,48,-47,-28,43
1985,-24,-2040,64,-41,-13,38
1990,-16,-2040,32,-35,-3,39
1995,-8,-2032,56,-29,3,34
2000,40,-2024,64,-25,6,33
2005,32,-2024,40,-20,6,24
2010,32,-2024,64,-14,6,17
2015,40,-2000,8,-10,8,6
2020,48,-1984,0,-7,10,-3
2025,48,-1992,40,-6,14,-15
2030,40,-2016,-16,-8,19,-25
2035,56,-2024,-16,-8,25,-35
2040,72,-2032,8,-11,31,-40
2045,32,-2032,0,-14,35,-44
2050,48,-2048,0,-16,41,-46
2055,32,-2056,0,-17,46,-43
2060,40,-2064,-32,-17,50,-36
2065,32,-2088,-72,-17,52,-30
2070,24,-2080,-40,-14,52,-20
2075,32,-2080,-32,-8,49,-7
2080,0,-2096,-88,-1,43,8
2085,16,-2120,-72,6,38,21
2090,16,-2096,-88,14,34,38
2095,16,-2088,-112,22,32,55
2100,64,-2104,-80,35,30,72
2105,64,-2120,-120,49,33,86
2110,56,-2080,-96,64,38,98
2115,48,-2080,-136,80,42,109
2120,40,-2088,-128,94,45,118
2125,24,-2080,-120,108,49,126
2130,16,-2040,-96,119,55,135
2135,24,-2040,-120,129,60,142
2140,48,-2016,-160,134,68,148
2145,16,-1992,-128,134,80,152
2150,0,-1968,-168,128,95,155
2155,-8,-1960,-120,120,110,158
2160,16,-1960,-136,113,123,154
2165,-8,-1968,-184,107,135,149
2170,-8,-1960,-104,98,148,142
2175,8,-2000,-120,91,158,136
2180,-32,-1984,-104,84,169,129
2185,-24,-1968,-128,79,178,122
2190,-8,-1968,-120,75,187,113
2195,0,-1976,-88,66,193,105
2200,-16,-1976,-136,61,197,97
2205,8,-2024,-152,54,200,92
2210,0,-2032,-128,46,203,86
2215,-40,-2008,-120,43,202,84
2220,-64,-2008,-128,40,199,79
2225,-48,-2080,-88,40,191,80
2230,-128,-2032,-192,56,168,69
2235,-88,-2080,-72,45,165,74
2240,-136,-2096,-72,54,149,74
2245,-160,-2064,-80,76,135,83
2250,-128,-2064,-112,82,131,93
2255,-120,-2024,-168,95,133,104
2260,-160,-2000,-80,96,136,108
2265,-168,-1976,-112,110,127,118
2270,-96,-1912,-152,118,118,121
2275,-88,-1856,-248,93,121,122
2280,-96,-1856,-248,33,125,118
2285,-88,-1920,-168,-26,130,118
2290,-96,-1952,-128,-72,136,113
2295,-96,-2016,-120,-103,138,110
2300,-80,-2072,-80,-122,140,100
2305,-72,-2096,-40,-120,139,92
2310,-64,-2128,-16,-109,138,77
2315,-80,-2176,-24,-85,135,67
2320,-104,-2192,16,-55,130,50
2325,-96,-2240,0,-4,125,36
2330,-96,-2224,-40,36,124,21
2335,-136,-2200,-48,67,125,15
2340,-128,-2184,-72,86,128,9
2345,-120,-2176,-72,99,133,12
2350,-144,-2128,-72,105,137,13
2355,-168,-2088,-40,107,142,19
2360,-160,-2096,-32,105,149,25
2365,-152,-2080,-8,103,151,32
2370,-176,-2032,-8,102,153,35
2375,-160,-2024,64,100,153,39
2380,-160,-2016,40,98,151,39
2385,-192,-2040,48,94,149,44
2390,-184,-2032,96,94,148,47
2395,-184,-2008,80,95,144,53
2400,-192,-2000,72,95,141,54
2405,-152,-2032,64,94,138,60
2410,-168,-2008,72,93,135,62
2415,-184,-2008,48,95,133,67
2420,-208,-1992,64,95,130,68
2425,-160,-2008,64,95,126,73
2430,-168,-1992,80,92,121,72
2435,-192,-2000,40,89,118,76
2440,-160,-2024,64,85,114,74
2445,-176,-2040,40,86,108,78
2450,-192,-2024,24,89,106,78
2455,-168,-2048,32,87,104,80
2460,-184,-2032,0,88,99,79
2465,-168,-2056,56,90,96,82
2470,-192,-2048,16,88,93,82
2475,-184,-2040,8,86,90,86
2480,-200,-2032,-24,80,89,87
2485,-200,-2048,0,76,86,91
2490,-184,-2056,8,74,84,90
2495,-200,-2024,-8,72,81,91
2500,-192,-2032,40,72,78,92
2505,-184,-2024,-24,74,77,92
2510,-184,-2032,24,75,76,89
2515,-184,-2016,-24,75,72,90
2520,-176,-2024,0,76,69,86
2525,-192,-2040,56,79,68,87
2530,-192,-2048,-24,83,66,85
2535,-192,-2040,8,88,64,82
2540,-168,-2056,72,91,63,78
2545,-184,-2008,-8,94,60,76
2550,-184,-2040,-16,96,57,73
2555,-200,-2032,48,99,54,70
2560,-200,-2024,24,101,51,68
2565,-216,-2024,40,101,48,63
2570,-208,-2000,0,101,45,60
2575,-240,-2032,16,100,43,57
2580,-224,-2016,8,99,40,54
2585,-232,-2008,48,96,38,52
2590,-224,-1976,16,94,35,51
2595,-200,-2016,-24,89,34,48
2600,-200,-2016,0,85,31,43
2605,-208,-2024,8,76,29,39
2610,-192,-2008,16,70,28,35
2615,-184,-2024,24,60,26,32
2620,-200,-2016,24,50,26,26
2625,-192,-2008,-16,43,23,22
2630,-176,-1992,48,36,21,19
2635,-192,-1992,8,29,16,14
2640,-168,-2008,8,22,14,10
2645,-168,-2000,8,18,13,4
2650,-152,-2024,24,12,11,1
2655,-160,-2024,56,10,14,-4
2660,-152,-2008,32,10,14,-7
2665,-112,-2048,8,10,15,-12
2670,-104,-2048,16,13,15,-16
2675,-120,-2032,32,16,16,-20
2680,-144,-2168,-8,21,18,-21
2685,-88,-2024,-40,25,19,-26
2690,-96,-2112,32,30,25,-28
2695,-192,-2128,96,36,27,-30
2700,-88,-2040,72,40,29,-29
2705,-80,-2192,128,45,30,-31
2710,-48,-2048,32,49,32,-32
2715,-88,-1976,-16,51,35,-31
2720,-96,-2040,144,55,35,-30
2725,-64,-2064,64,56,36,-32
2730,-80,-2048,72,55,39,-29
2735,-72,-2024,72,56,38,-30
2740,-80,-2040,64,53,38,-26
2745,-64,-2032,72,52,40,-26
2750,-96,-2024,56,48,40,-24
2755,-88,-2032,104,46,42,-24
2760,-88,-2056,64,42,43,-20
2765,-88,-2024,88,38,44,-21
2770,-96,-2032,72,37,46,-16
2775,-72,-2048,64,36,47,-17
2780,-88,-2032,48,34,51,-14
2785,-88,-2016,72,32,52,-15
2790,-104,-2040,80,31,53,-12
2795,-96,-2048,64,31,55,-13
2800,-96,-2032,64,32,56,-9
2805,-120,-2056,56,32,57,-12
2810,-136,-2024,72,34,59,-9
2815,-128,-2024,80,36,59,-9
2820,-144,-2024,64,36,61,-6
2825,-136,-2008,48,38,62,-7
2830,-152,-2016,80,38,64,-5
2835,-128,-2032,72,38,64,-7
2840,-120,-2032,72,37,65,-3
2845,-136,-2048,88,37,67,-5
2850,-136,-2048,88,38,66,-3
2855,-144,-2032,88,40,69,-5
2860,-128,-2048,72,42,69,-3
2865,-152,-2040,64,41,69,-6
2870,-120,-2056,48,41,72,-3
2875,-136,-2032,72,42,71,-6
2880,-160,-2032,56,41,71,-6
2885,-136,-2040,72,39,72,-9
2890,-168,-2016,96,39,72,-8
2895,-184,-2024,80,38,71,-11
2900,-152,-2024,64,36,70,-10
2905,-152,-2040,80,36,71,-13
2910,-160,-2056,88,35,72,-11
2915,-168,-2048,72,36,72,-14
2920,-160,-2032,80,38,73,-11
2925,-168,-2024,88,39,72,-13
2930,-152,-2016,96,41,73,-11
2935,-168,-2032,80,41,74,-11
2940,-168,-2016,80,42,75,-10
2945,-128,-2032,80,44,77,-12
2950,-168,-2016,88,46,76,-10
2955,-168,-2016,72,45,77,-10
2960,-152,-2024,72,46,78,-12
2965,-144,-2040,88,42,77,-12
2970,-160,-2016,64,41,76,-10
2975,-136,-2032,80,40,76,-12
2980,-160,-2024,104,39,75,-9
2985,-176,-2032,80,37,73,-11
2990,-160,-2016,64,36,72,-10
2995,-144,-2008,48,36,72,-10
3000,-120,-2040,96,37,72,-10
3005,-136,-2008,72,37,71,-11
3010,-152,-2000,64,36,71,-9
3015,-144,-2032,88,35,69,-10
3020,-144,-2008,72,33,68,-9
3025,-120,-2024,64,33,69,-10
3030,-120,-2016,64,29,67,-10
3035,-136,-2024,48,26,66,-12
3040,-160,-2000,72,26,66,-12
3045,-136,-2024,80,23,65,-12
3050,-144,-2040,64,22,63,-13
3055,-128,-2016,80,20,61,-14
3060,-176,-2024,72,17,61,-14
3065,-128,-2032,88,14,60,-15
3070,-144,-2032,64,13,59,-14
3075,-168,-2032,80,12,59,-15
3080,-160,-2040,80,11,60,-17
3085,-184,-2008,72,7,59,-16
3090,-176,-2016,80,6,57,-17
3095,-160,-2016,64,4,57,-16
3100,-160,-2032,72,3,57,-16
3105,-144,-2048,48,3,55,-15
3110,-144,-2056,72,3,53,-15
3115,-136,-2040,80,2,52,-15
3120,-168,-2016,88,4,50,-14
3125,-168,-2000,72,5,50,-12
3130,-152,-2048,72,2,50,-14
3135,-152,-2016,72,1,50,-12
3140,-152,-2016,72,-1,50,-13
3145,-144,-1984,80,-4,49,-11
3150,-128,-2024,64,-6,49,-10
3155,-128,-2032,104,-7,52,-7
3160,-120,-2032,80,-6,51,-8
3165,-112,-2016,72,-6,52,-5
3170,-136,-2024,104,-5,52,-5
3175,-112,-2056,112,-4,51,-1
3180,-96,-2040,120,-1,53,-2
3185,-136,-2032,88,4,53,2
3190,-136,-2072,96,9,52,1
3195,-96,-2064,96,15,53,4
3200,-96,-2072,88,23,52,6
3205,-104,-2064,88,31,53,9
3210,-104,-2064,80,37,52,9
3215,-96,-2064,80,43,52,12
3220,-104,-2064,104,51,52,11
3225,-104,-2072,88,53,50,14
3230,-128,-2032,88,57,47,11
3235,-104,-2032,96,59,45,12
3240,-120,-2048,64,57,44,9
3245,-112,-2040,72,55,41,9
3250,-136,-2032,72,51,42,7
3255,-136,-2008,112,49,41,8
3260,-128,-2008,96,44,43,4
3265,-120,-2000,80,41,43,5
3270,-120,-2024,104,37,45,2
3275,-136,-2016,112,36,46,4
3280,-112,-2048,104,33,48,1
3285,-128,-2008,96,32,51,3
3290,-96,-2024,128,29,52,2
3295,-104,-2040,120,27,52,3
3300,-144,-2008,128,25,51,2
3305,-120,-2024,152,23,50,4
3310,-128,-2000,104,19,52,2
3315,-120,-2016,96,17,51,5
3320,-152,-2024,152,13,50,3
3325,-120,-2000,120,10,49,5
3330,-128,-2024,120,7,49,4
3335,-136,-2024,128,4,48,9
3340,-136,-2040,120,1,46,6
3345,-168,-2000,112,1,47,10
3350,-160,-2008,112,-1,45,7
3355,-168,-2024,120,-1,42,10
3360,-176,-2000,112,-2,40,9
3365,-144,-2016,80,-2,40,12
3370,-128,-2032,56,-2,40,8
3375,-160,-2032,80,1,41,10
3380,-152,-2048,112,3,42,7
3385,-152,-2048,104,5,42,8
3390,-144,-2040,128,9,42,3
3395,-128,-2064,72,14,43,6
3400,-176,-2024,112,17,44,2
3405,-160,-2024,80,20,44,4
3410,-152,-2024,96,24,43,1
3415,-168,-2032,96,26,43,2
3420,-168,-2032,104,27,45,0
3425,-144,-2048,112,29,46,2
3430,-152,-2032,136,31,50,0
3435,-144,-2040,112,33,50,2
3440,-160,-2024,112,36,51,2
3445,-160,-2024,112,34,52,5
3450,-136,-2024,88,36,52,4
3455,-128,-2032,80,37,51,6
3460,-160,-2016,112,36,50,4
3465,-128,-2032,104,34,50,7
3470,-144,-2016,96,36,51,7
3475,-160,-2032,96,34,49,9
3480,-152,-2016,104,34,50,9
3485,-152,-2016,96,33,50,12
3490,-160,-2032,96,33,52,9
3495,-136,-2024,128,32,52,9
3500,-136,-2032,120,31,54,7
3505,-136,-2024,112,31,54,7
3510,-144,-2032,96,31,55,5
3515,-104,-2024,136,30,58,5
3520,-128,-2016,128,29,59,4
3525,-96,-2024,120,29,60,3
3530,-136,-2016,96,31,61,2
3535,-112,-2024,144,32,60,1
3540,-128,-2008,96,34,59,0
3545,-104,-2032,128,34,59,0
3550,-120,-2000,128,37,60,-2
3555,-120,-2032,136,36,60,-2
3560,-112,-2008,112,35,60,-3
3565,-128,-2000,144,34,62,-3
3570,-104,-2008,160,34,62,-4
3575,-112,-2016,160,30,62,-4
3580,-120,-2008,144,30,62,-5
3585,-112,-2024,128,28,64,-3
3590,-112,-2032,128,28,65,-4
3595,-96,-2032,128,24,65,-3
3600,-96,-2040,128,24,67,-3
3605,-96,-2024,128,23,67,-6
3610,-96,-2016,120,21,67,-5
3615,-96,-2032,88,20,66,-5
3620,-96,-2008,88,17,66,-5
3625,-96,-2024,104,15,66,-8
3630,-96,-2008,88,13,65,-9
3635,-96,-2016,104,12,65,-10
3640,-96,-2056,88,10,66,-9
3645,-96,-2040,104,11,67,-11
3650,-96,-2048,112,12,68,-9
3655,-104,-2032,128,13,69,-10
3660,-96,-2040,136,15,69,-7
3665,-104,-2024,144,19,70,-8
3670,-120,-2056,136,22,71,-6
3675,-120,-2016,120,26,72,-7
3680,-120,-2024,120,31,74,-5
3685,-144,-2032,144,34,73,-4
3690,-128,-2040,128,36,75,-3
3695,-144,-2040,96,37,75,-2
3700,-144,-2024,128,38,76,0
3705,-152,-2040,104,39,76,0
3710,-144,-2000,136,37,74,3
3715,-128,-2016,112,36,75,2
3720,-112,-2024,160,34,75,5
3725,-112,-2032,136,30,77,4
3730,-128,-2016,136,27,77,5
3735,-152,-2008,136,24,76,2
3740,-152,-2024,144,22,77,2
3745,-112,-2016,136,20,75,-1
3750,-128,-1976,144,17,77,-1
3755,-128,-2016,104,14,76,-3
3760,-120,-2000,112,13,75,-2
3765,-136,-2008,120,11,75,-5
3770,-152,-2008,104,9,76,-2
3775,-144,-2000,152,10,75,-3
3780,-120,-2000,128,8,74,-1
3785,-104,-2008,136,7,75,-3
3790,-136,-1992,144,7,79,2
3795,-104,-2024,120,6,80,0
3800,-104,-2000,128,5,82,3
3805,-104,-2016,136,5,83,1
3810,-104,-2008,144,5,85,3
3815,-104,-2024,144,6,86,2
3820,-128,-2040,136,6,86,4
3825,-136,-2008,168,8,88,1
3830,-136,-2032,168,9,89,4
3835,-136,-2032,160,13,88,2
3840,-144,-2040,152,15,89,4
3845,-152,-2024,160,17,90,4
3850,-136,-2032,168,20,90,6
3855,-168,-2032,168,22,88,4
3860,-168,-2040,152,24,88,7
3865,-168,-2024,152,25,87,5
3870,-176,-2032,136,26,84,9
3875,-184,-2016,152,24,80,6
3880,-168,-2016,136,22,78,8
3885,-176,-2032,144,20,76,7
3890,-168,-2008,128,17,75,10
3895,-168,-2032,120,15,72,8
3900,-184,-2008,160,11,72,8
3905,-192,-2000,152,10,67,8
3910,-200,-2008,136,5,63,8
3915,-192,-2000,168,2,59,5
3920,-184,-1984,120,0,57,8
3925,-192,-2000,184,-4,54,4
3930,-176,-2032,152,-8,52,6
3935,-184,-2024,120,-9,50,3
3940,-192,-1992,160,-12,50,5
3945,-176,-2008,128,-13,48,2
3950,-192,-2000,128,-14,49,4
3955,-184,-2000,144,-17,49,1
3960,-200,-2016,136,-18,48,4
3965,-168,-2040,144,-19,49,4
3970,-176,-2016,136,-21,50,8
3975,-168,-2032,128,-23,50,7
3980,-176,-2000,152,-23,51,9
3985,-176,-2032,144,-23,51,9
3990,-168,-2016,144,-24,52,11
3995,-160,-2016,128,-23,50,8
4000,-184,-2024,144,-23,50,12
4005,-184,-2016,144,-21,51,9
4010,-144,-2016,152,-18,51,11
4015,-160,-2032,136,-17,51,9
4020,-160,-2024,176,-16,51,10
4025,-176,-2040,144,-17,51,7
4030,-160,-2032,144,-15,51,5
4035,-152,-2040,112,-13,50,3
4040,-144,-2032,152,-11,49,3
4045,-136,-2040,128,-10,50,0
4050,-152,-2032,120,-9,52,0
4055,-160,-2024,152,-10,53,-3
4060,-168,-2024,152,-9,51,-4
4065,-152,-2032,152,-9,52,-7
4070,-144,-2024,160,-10,51,-6
4075,-128,-2016,120,-10,50,-9
4080,-152,-2016,152,-10,50,-10
4085,-144,-2032,160,-11,51,-11
4090,-128,-2016,208,-11,51,-11
4095,-128,-2016,168,-11,52,-11
4100,-104,-2024,168,-12,52,-13
4105,-144,-2000,128,-12,52,-13
4110,-112,-2016,168,-12,52,-12
4115,-144,-2024,184,-12,52,-14
4120,-152,-2032,176,-12,54,-13
4125,-136,-2016,176,-11,52,-12
4130,-120,-2008,136,-10,53,-12
4135,-112,-2032,136,-11,54,-12
4140,-104,-2016,136,-13,56,-12
4145,-120,-2008,184,-15,57,-11
4150,-128,-2016,144,-17,58,-10
4155,-112,-2000,176,-19,58,-9
4160,-96,-2016,168,-22,57,-8
4165,-104,-2016,144,-23,58,-7
4170,-104,-2024,104,-24,58,-7
4175,-120,-2032,136,-26,59,-4
4180,-136,-2016,152,-26,58,-5
4185,-104,-2040,144,-24,58,-3
4190,-104,-2056,128,-22,58,-4
4195,-136,-2032,160,-21,58,-3
4200,-104,-2032,144,-19,58,-3
4205,-128,-2040,136,-16,58,-1
4210,-104,-2024,144,-13,57,-3
4215,-144,-2032,152,-11,57,0
4220,-144,-2040,136,-9,57,0
4225,-128,-2032,176,-6,58,2
4230,-120,-2032,160,-3,59,1
4235,-136,-2032,136,-2,59,4
4240,-128,-2000,160,1,58,1
4245,-128,-2008,128,2,57,3
4250,-120,-2032,160,1,58,2
4255,-136,-2016,144,1,58,2
4260,-160,-2008,128,-2,59,2
4265,-120,-2008,136,-3,57,4
4270,-104,-2008,120,-5,58,3
4275,-160,-2000,152,-7,59,4
4280,-136,-2000,136,-10,58,4
4285,-152,-1984,128,-12,59,5
4290,-128,-2008,160,-14,59,3
4295,-112,-2008,152,-17,60,5
4300,-128,-2016,136,-20,58,4
4305,-144,-2008,144,-22,59,5
4310,-120,-2016,160,-25,57,3
4315,-152,-2000,128,-26,59,5
4320,-152,-2016,152,-27,60,4
4325,-128,-1992,152,-29,60,7
4330,-144,-2016,176,-29,60,4
4335,-128,-2040,168,-30,60,6
4340,-144,-2024,168,-30,59,3
4345,-144,-2016,144,-32,60,5
4350,-128,-2024,144,-32,61,2
4355,-112,-2048,168,-33,61,5
4360,-136,-2024,120,-34,61,3
4365,-144,-2040,160,-35,61,6
4370,-152,-2048,192,-34,62,4
4375,-144,-2016,144,-35,63,7
4380,-128,-2016,144,-33,64,5
4385,-144,-2016,160,-34,65,9
4390,-152,-2032,136,-35,64,5
4395,-136,-2032,144,-33,66,9
4400,-144,-2024,128,-33,66,7
4405,-128,-2024,168,-32,67,9
4410,-112,-2024,152,-31,65,7
4415,-152,-2024,160,-31,65,9
4420,-144,-2040,144,-31,66,6
4425,-152,-2008,128,-31,66,7
4430,-136,-2016,144,-31,66,6
4435,-136,-2000,136,-33,66,7
4440,-168,-2016,144,-32,67,6
4445,-168,-2016,136,-33,66,7
4450,-168,-2016,128,-34,68,3
4455,-136,-2016,136,-36,68,6
4460,-152,-2016,136,-35,67,3
4465,-168,-2008,104,-36,68,5
4470,-160,-1992,144,-35,69,2
4475,-160,-1992,104,-35,70,4
4480,-160,-2000,136,-35,69,2
4485,-160,-2024,136,-35,68,4
4490,-160,-2024,112,-34,69,1
4495,-168,-2000,128,-35,70,3
4500,-152,-2024,144,-34,71,2
4505,-160,-2016,128,-34,70,4
4510,-176,-2016,136,-36,71,1
4515,-144,-2008,120,-35,70,2
4520,-176,-2008,136,-34,70,2
4525,-144,-2008,128,-35,70,2
4530,-128,-2024,136,-34,71,1
4535,-136,-2024,144,-34,69,2
4540,-160,-2008,112,-34,70,1
4545,-168,-2032,120,-34,68,1
4550,-168,-2008,128,-34,68,0
4555,-128,-2048,128,-32,68,1
4560,-104,-2040,104,-33,67,1
4565,-152,-2040,136,-33,65,2
4570,-128,-2024,104,-32,66,1
4575,-168,-2008,128,-32,66,2
4580,-128,-2056,128,-32,65,0
4585,-152,-2008,144,-30,64,3
4590,-152,-2024,128,-30,63,3
4595,-160,-2024,128,-30,62,3
4600,-128,-2040,112,-29,60,3
4605,-152,-2032,144,-26,61,1
4610,-160,-1992,136,-28,61,2
4615,-120,-2032,128,-26,59,2
4620,-152,-2032,144,-24,60,2
4625,-144,-2040,144,-23,60,2
4630,-160,-2040,120,-22,59,3
4635,-144,-2040,144,-21,58,2
4640,-168,-2032,152,-18,58,2
4645,-144,-2040,144,-16,59,2
4650,-160,-2040,112,-15,56,2
4655,-144,-2016,152,-14,56,2
4660,-160,-2024,120,-14,57,3
4665,-152,-2040,120,-13,57,4
4670,-152,-2032,128,-13,57,6
4675,-128,-2024,128,-15,55,4
4680,-144,-2032,120,-16,55,5
4685,-152,-2016,128,-17,56,4
4690,-136,-2008,112,-19,54,5
4695,-152,-2024,128,-19,53,4
4700,-136,-2000,128,-20,53,5
4705,-168,-1984,144,-23,54,4
4710,-136,-2016,144,-22,53,6
4715,-136,-2024,152,-23,52,4
4720,-160,-2016,152,-24,54,7
4725,-144,-2040,128,-24,54,6
4730,-168,-2024,160,-25,55,6
4735,-144,-2024,120,-25,55,5
4740,-136,-2040,88,-24,55,5
4745,-152,-2032,120,-26,55,5
4750,-160,-2008,160,-26,55,6
4755,-136,-2040,128,-25,55,4
4760,-168,-2016,112,-26,56,6
4765,-152,-2024,144,-26,55,4
4770,-112,-2032,120,-25,54,7
4775,-120,-2008,144,-25,55,6
4780,-136,-2024,136,-25,55,6
4785,-136,-2008,136,-24,55,4
4790,-128,-2032,136,-21,54,4
4795,-120,-2024,120,-20,54,3
4800,-136,-2032,144,-19,55,5
4805,-144,-2032,136,-19,54,1
4810,-136,-2024,152,-18,53,4
4815,-144,-2032,104,-17,55,3
4820,-112,-2016,120,-18,54,4
4825,-144,-2024,112,-19,55,2
4830,-144,-2008,104,-20,55,4
4835,-136,-2008,120,-22,56,0
4840,-144,-2008,136,-20,57,3
4845,-160,-2008,128,-19,56,0
4850,-152,-2040,112,-19,57,2
4855,-144,-2000,104,-17,59,-1
4860,-136,-2040,128,-18,60,2
4865,-160,-2016,128,-16,60,-1
4870,-144,-2024,144,-14,60,0
4875,-168,-2040,120,-12,60,-3
4880,-152,-2024,128,-10,60,1
4885,-136,-2040,96,-10,60,-3
4890,-152,-2016,120,-7,59,0
4895,-160,-2024,112,-8,59,-4
4900,-144,-2024,104,-6,59,0
4905,-144,-2024,136,-5,59,-4
4910,-160,-2040,120,-5,60,-1
4915,-128,-2040,120,-4,59,-4
4920,-168,-2008,128,-2,58,-2
4925,-176,-2032,136,-1,59,-4
4930,-160,-2016,152,-2,59,-3
4935,-152,-2024,120,1,59,-5
4940,-160,-2016,104,0,60,-3
4945,-160,-2016,112,0,62,-6
4950,-152,-2024,104,0,64,-3
4955,-152,-2032,160,1,63,-5
4960,-128,-2024,128,0,63,-2
4965,-144,-2024,112,0,63,-5
4970,-152,-2016,128,0,63,-2
4975,-176,-2024,128,-1,63,-5
4980,-136,-2024,112,-3,62,-2
4985,-168,-2048,128,-5,63,-5
4990,-176,-2032,104,-4,63,-3
4995,-160,-2024,144,-4,62,-5
5000,-144,-2008,120,-5,63,-3
5005,-184,-2000,136,-5,61,-4
5010,-176,-2000,104,-6,60,-2
5015,-160,-2024,112,-6,61,-4
5020,-168,-2000,144,-6,60,-2
5025,-176,-2016,160,-6,59,-4
5030,-160,-2024,144,-8,59,-2
5035,-144,-2024,96,-7,59,-3
5040,-160,-2024,144,-8,60,-1
5045,-160,-2016,136,-8,60,-5
5050,-152,-2032,120,-7,60,-3
5055,-168,-2008,96,-6,61,-4
5060,-144,-2040,136,-5,60,-3
5065,-160,-2024,112,-6,59,-6
5070,-160,-2032,152,-4,59,-3
5075,-168,-2008,144,-4,59,-4
5080,-168,-2032,144,-5,59,-3
5085,-168,-2024,120,-3,59,-4
5090,-152,-2016,152,-1,58,-2
5095,-128,-2040,128,-2,60,-4
5100,-152,-2024,96,-1,59,-2
5105,-160,-2000,144,0,57,-2
5110,-152,-2048,144,-2,57,-2
5115,-168,-2016,152,-1,57,-3
5120,-136,-2024,120,-2,58,-1
5125,-144,-2016,136,-2,57,-2
5130,-208,-1976,224,-3,57,-1
5135,-200,-2128,200,-4,57,-3
5140,-160,-2056,160,-4,57,-2
5145,-136,-1960,88,-4,57,-3
5150,-80,-1984,112,-4,56,-3
5155,-248,-1976,152,-3,57,-2
5160,-168,-2120,144,-4,56,-2
5165,-16,-2000,112,-3,58,-3
5170,-144,-2000,144,-1,58,-2
5175,-112,-2024,160,-1,57,-2
5180,-128,-2032,96,0,57,-2
5185,-176,-2008,112,0,57,-3
5190,-152,-2016,144,1,57,-4
5195,-168,-2024,128,3,55,-2
5200,-160,-2016,136,4,56,-5
5205,-176,-2024,152,6,54,-3
5210,-128,-2040,160,6,55,-5
5215,-152,-2016,168,7,55,-6
5220,-152,-2040,128,8,54,-7
5225,-168,-1976,152,9,56,-6
5230,-168,-2016,120,10,57,-9
5235,-160,-2008,128,10,57,-7
5240,-184,-2016,136,11,55,-9
5245,-136,-2032,120,12,57,-6
5250,-144,-2048,160,12,58,-7
5255,-152,-2016,128,11,57,-4
5260,-160,-2024,136,11,59,-6
5265,-136,-2024,136,11,58,-4
5270,-136,-2040,128,10,58,-4
5275,-160,-2032,120,10,56,-3
5280,-160,-2008,128,11,58,-4
5285,-160,-2016,144,12,55,-1
5290,-184,-2024,152,12,55,-2
5295,-144,-2000,128,12,55,0
5300,-176,-2008,120,12,55,-2
5305,-136,-2000,160,12,55,0
5310,-144,-2024,136,13,55,-3
5315,-128,-2008,120,15,54,-1
5320,-144,-1984,144,14,56,-3
5325,-160,-2024,168,13,55,0
5330,-144,-2024,152,13,55,-3
5335,-136,-2024,136,11,56,-1
5340,-152,-2000,192,9,55,-5
5345,-160,-2000,136,8,56,-3
5350,-152,-2008,152,5,55,-4
5355,-136,-2024,144,4,57,-2
5360,-144,-2032,136,3,57,-4
5365,-144,-2016,160,0,57,-2
5370,-144,-2000,120,-2,57,-5
5375,-152,-2024,128,-4,57,-3
5380,-136,-2032,192,-4,56,-5
5385,-120,-2024,144,-5,57,-2
5390,-152,-2000,128,-5,58,-5
5395,-168,-2024,168,-5,57,-1
5400,-160,-2024,128,-3,57,-5
5405,-144,-2024,144,-4,57,-2
5410,-152,-2024,144,-5,56,-5
5415,-168,-2024,144,-5,57,-2
5420,-144,-2008,136,-4,57,-4
5425,-160,-2040,128,-5,58,-1
5430,-152,-2008,144,-6,59,-4
5435,-152,-2000,128,-6,59,0
5440,-136,-2032,144,-7,59,-2
5445,-136,-2008,152,-6,59,0
5450,-152,-2016,144,-6,58,-3
5455,-184,-2016,160,-7,58,-1
5460,-168,-2024,168,-5,59,-3
5465,-168,-2024,160,-7,60,-1
5470,-144,-2016,120,-6,59,-3
5475,-176,-2016,152,-5,59,-1
5480,-144,-2032,152,-3,60,-4
5485,-160,-2040,160,-2,58,-2
5490,-152,-2008,144,-1,61,-4
5495,-152,-2016,128,-1,61,-1
5500,-160,-2008,96,1,60,-3
5505,-168,-2016,152,1,61,-1
5510,-144,-2000,136,-1,61,-3
5515,-160,-2040,128,-1,62,-2
5520,-160,-2040,152,-1,61,-4
5525,-152,-2016,144,-3,60,-2
5530,-160,-2000,160,-4,60,-4
5535,-104,-2040,128,-4,61,-2
5540,-152,-2000,136,-5,59,-4
5545,-136,-2016,152,-6,59,-3
5550,-136,-2024,128,-7,60,-5
5555,-136,-2008,152,-7,59,-2
5560,-136,-2040,184,-7,60,-3
5565,-160,-2024,136,-7,61,-3
5570,-128,-2024,160,-8,60,-4
5575,-152,-2016,160,-7,61,-4
5580,-152,-2032,176,-8,61,-4
5585,-160,-2016,152,-7,60,-5
5590,-144,-2024,120,-7,60,-6
5595,-144,-2032,128,-8,60,-4
5600,-152,-2032,160,-7,61,-4
5605,-144,-2016,168,-7,60,-5
5610,-152,-2000,144,-9,60,-5
5615,-144,-2024,160,-10,60,-5
5620,-152,-2008,136,-10,61,-5
5625,-144,-2024,144,-11,59,-5
5630,-152,-2008,144,-10,58,-3
5635,-152,-2024,136,-9,57,-4
5640,-144,-2032,152,-7,57,-3
5645,-152,-2016,120,-8,58,-2
5650,-144,-2016,120,-8,57,-2
5655,-128,-2016,160,-9,58,-3
5660,-152,-2040,136,-10,58,-2
5665,-160,-2008,152,-10,59,-2
5670,-152,-2008,128,-10,58,-2
5675,-152,-2008,152,-11,57,-2
5680,-200,-1912,32,-11,59,-2
5685,-168,-2000,128,-13,58,-1
5690,-120,-2032,144,-12,58,-1
5695,-168,-2008,160,-13,58,-1
5700,-136,-2016,152,-13,59,-1
5705,-112,-2016,160,-15,60,-1
5710,-152,-2008,144,-14,58,-1
5715,-152,-2016,160,-14,59,-6
5720,-160,-2008,136,-15,58,-3
5725,-128,-2016,168,-15,59,-4
5730,-112,-2008,176,-14,59,-3
5735,-144,-2016,152,-15,60,-4
5740,-152,-2040,120,-17,59,-3
5745,-144,-2032,144,-16,60,-4
5750,-168,-2008,144,-13,60,-4
5755,-144,-2008,160,-13,61,-4
5760,-160,-2024,152,-13,62,-1
5765,-152,-2024,160,-14,61,-4
5770,-112,-2032,152,-15,61,-2
5775,-144,-2016,136,-14,61,-2
5780,-144,-2008,160,-14,60,-2
5785,-152,-2032,152,-15,61,-3
5790,-160,-2008,128,-15,60,-3
5795,-144,-2024,144,-16,60,-3
5800,-136,-2024,144,-15,59,-2
5805,-136,-2032,120,-16,59,-5
5810,-144,-2040,136,-16,60,-3
5815,-128,-2024,144,-16,59,-5
5820,-136,-1992,152,-15,60,-4
5825,-136,-2024,160,-15,60,-5
5830,-144,-2032,144,-12,62,-3
5835,-144,-2016,136,-13,62,-4
5840,-128,-2008,128,-11,62,-3
5845,-136,-2000,128,-11,63,-4
5850,-160,-2000,152,-11,62,0
5855,-144,-2040,120,-12,61,-3
5860,-152,-2000,144,-11,61,1
5865,-168,-2016,112,-11,58,-4
5870,-120,-2032,144,-10,58,-2
5875,-160,-2000,152,-12,55,-4
5880,-120,-2016,128,-12,55,-3
5885,-160,-2016,160,-13,54,-4
5890,-152,-2016,168,-14,55,-3
5895,-128,-2008,136,-15,52,-5
5900,-136,-2016,136,-14,53,-4
5905,-112,-2008,136,-16,54,-7
5910,-144,-2000,144,-18,54,-6
5915,-144,-2000,168,-19,57,-7
5920,-160,-2008,120,-20,59,-4
5925,-136,-1992,128,-23,59,-8
5930,-152,-2000,144,-25,60,-6
5935,-152,-2000,128,-27,62,-7
5940,-160,-2008,168,-31,61,-5
5945,-120,-2016,160,-33,60,-9
5950,-160,-2016,128,-35,57,-7
5955,-160,-2016,112,-35,56,-11
5960,-152,-2000,168,-37,56,-8
5965,-144,-2024,112,-35,56,-10
5970,-120,-2032,152,-39,55,-8
5975,-160,-2000,152,-37,53,-11
5980,-144,-2024,104,-38,54,-7
5985,-128,-2000,104,-39,56,-6
5990,-128,-2008,96,-40,57,-5
5995,-120,-2024,136,-42,57,-5
6000,-168,-1968,112,-43,58,-1
6005,-136,-1992,120,-45,58,-2
6010,-144,-1984,120,-49,57,0
6015,-184,-2000,120,-51,56,-3
6020,-136,-1992,112,-55,57,-1
6025,-160,-2008,128,-55,59,-6
6030,-176,-2024,128,-57,59,-7
6035,-152,-2008,128,-58,61,-9
6040,-176,-1992,96,-61,61,-8
6045,-160,-2024,136,-61,64,-11
6050,-160,-2008,136,-64,65,-10
6055,-160,-2016,128,-64,64,-13
6060,-176,-2008,144,-65,63,-12
6065,-168,-2000,112,-66,62,-15
6070,-144,-2008,128,-67,62,-12
6075,-168,-2000,120,-70,60,-15
6080,-176,-1992,152,-71,61,-13
6085,-152,-2008,120,-75,61,-15
6090,-160,-2000,128,-79,63,-14
6095,-152,-2000,104,-82,63,-15
6100,-120,-2008,96,-84,63,-15
6105,-136,-1968,128,-89,63,-16
6110,-112,-2000,120,-94,63,-16
6115,-144,-1976,120,-100,60,-19
6120,-144,-1984,144,-104,59,-19
6125,-120,-1976,136,-108,58,-22
6130,-152,-1976,112,-111,58,-22
6135,-136,-1968,112,-117,58,-23
6140,-152,-1968,104,-123,56,-23
6145,-128,-1976,104,-128,58,-26
6150,-160,-1984,112,-132,57,-27
6155,-136,-1992,120,-138,58,-30
6160,-144,-1976,112,-144,58,-30
6165,-120,-2016,128,-151,57,-32
6170,-136,-2008,112,-158,57,-31
6175,-144,-1992,128,-165,56,-32
6180,-144,-1992,96,-172,57,-31
6185,-128,-2008,72,-179,57,-30
6190,-136,-1992,104,-187,58,-31
6195,-168,-2024,104,-194,58,-30
6200,-128,-2000,104,-200,58,-29
6205,-128,-1984,96,-207,56,-28
6210,-120,-2000,104,-214,55,-28
6215,-120,-1976,96,-219,54,-28
6220,-136,-1976,104,-222,51,-26
6225,-112,-2000,88,-225,51,-25
6230,-136,-1984,96,-229,48,-25
6235,-128,-1960,112,-232,47,-22
6240,-120,-2008,88,-236,47,-21
6245,-120,-2016,80,-237,50,-18
6250,-136,-2016,72,-240,52,-16
6255,-112,-2032,64,-243,53,-14
6260,-144,-1984,80,-247,56,-12
6265,-96,-2024,72,-249,56,-9
6270,-120,-2024,72,-251,55,-9
6275,-120,-2032,64,-253,55,-8
6280,-136,-2032,64,-257,52,-9
6285,-128,-2024,56,-262,49,-7
6290,-112,-2032,8,-268,47,-10
6295,-128,-2040,40,-272,45,-8
6300,-144,-2008,56,-276,42,-10
6305,-112,-2024,16,-279,42,-9
6310,-128,-2000,16,-283,44,-10
6315,-128,-2000,40,-286,42,-9
6320,-128,-2000,32,-286,45,-11
6325,-120,-2008,0,-287,49,-8
6330,-96,-2008,16,-288,50,-9
6335,-104,-2000,16,-285,51,-6
6340,-96,-2016,40,-284,52,-7
6345,-144,-1992,56,-284,53,-1
6350,-104,-2008,40,-284,55,2
6355,-104,-1976,-16,-286,58,6
6360,-104,-2000,32,-289,59,7
6365,-96,-1992,32,-292,58,9
6370,-112,-1968,8,-298,58,9
6375,-104,-1992,0,-310,63,14
6380,-104,-1960,-48,-324,65,17
6385,-112,-1968,-24,-354,79,27
6390,-120,-1984,24,-387,87,31
6395,-144,-1968,40,-417,96,39
6400,-136,-2000,24,-440,98,39
6405,-104,-1992,56,-456,100,41
6410,-120,-2032,16,-467,101,40
6415,-136,-2040,56,-475,99,44
6420,-144,-2040,72,-477,97,39
6425,-152,-2000,24,-477,94,40
6430,-176,-2040,48,-481,93,36
6435,-168,-2016,16,-483,88,37
6440,-160,-2016,24,-488,86,36
6445,-168,-2024,-64,-497,90,40
6450,-176,-2008,-24,-516,95,43
6455,-168,-2000,0,-530,97,48
6460,-160,-2024,0,-534,94,46
6465,-192,-2008,-48,-543,92,48
6470,-184,-2016,-32,-560,97,51
6475,-176,-2040,-8,-577,100,54
6480,-160,-2048,8,-572,94,46
6485,-144,-2008,-48,-569,96,49
6490,-144,-1984,-72,-577,102,46
6495,-152,-1936,-120,-591,109,51
6500,-120,-2064,0,-614,117,52
6505,-136,-2064,8,-599,101,46
6510,-176,-2032,-48,-582,95,37
6515,-176,-2032,-88,-580,94,40
6520,-168,-2032,-120,-591,94,40
6525,-152,-2016,-112,-599,89,44
6530,-160,-1984,-128,-607,90,44
6535,-152,-1992,-128,-619,91,49
6540,-152,-2000,-136,-632,95,50
6545,-160,-2008,-136,-638,95,52
6550,-160,-2016,-152,-644,93,49
6555,-160,-2008,-136,-650,91,50
6560,-168,-2016,-176,-652,89,46
6565,-160,-1968,-168,-655,87,47
6570,-184,-1984,-200,-660,85,42
6575,-184,-1992,-264,-665,85,44
6580,-200,-1992,-256,-681,86,41
6585,-120,-1936,-240,-706,90,46
6590,-112,-2008,-248,-726,100,40
6595,-96,-2016,-224,-731,106,34
6600,-96,-2000,-240,-732,111,22
6605,-120,-1992,-272,-740,117,18
6610,-88,-2000,-264,-753,119,11
6615,-120,-2008,-312,-770,124,5
6620,-136,-2000,-304,-781,130,-2
6625,-160,-1968,-320,-794,139,-2
6630,-96,-1992,-304,-820,148,-1
6635,-144,-2000,-312,-842,156,-5
6640,-88,-2000,-368,-857,160,-7
6645,-152,-1992,-400,-877,172,-6
6650,-120,-1976,-416,-903,180,-3
6655,-152,-1960,-416,-936,193,3
6660,-104,-1984,-400,-962,200,4
6665,-176,-1960,-432,-987,207,5
6670,-104,-1976,-448,-1014,213,5
6675,-168,-1976,-456,-1040,223,8
6680,-224,-1968,-456,-1075,233,13
6685,-192,-1952,-504,-1100,237,20
6690,-200,-1960,-544,-1126,244,23
6695,-200,-1968,-536,-1151,247,31
6700,-200,-1960,-576,-1175,252,34
6705,-184,-1992,-560,-1199,257,39
6710,-168,-1968,-592,-1213,263,41
6715,-144,-2008,-600,-1224,269,40
6720,-144,-1976,-664,-1232,274,39
6725,-144,-1992,-608,-1234,278,32
6730,-144,-1984,-632,-1236,280,25
6735,-192,-1976,-648,-1242,284,25
6740,-176,-1968,-656,-1250,286,26
6745,-144,-1984,-672,-1259,288,32
6750,-160,-1944,-696,-1266,293,37
6755,-120,-1952,-672,-1269,297,35
6760,-128,-1928,-704,-1266,297,30
6765,-168,-1936,-672,-1261,298,22
6770,-160,-1920,-712,-1258,298,17
6775,-176,-1920,-712,-1258,296,12
6780,-184,-1928,-720,-1261,295,9
6785,-184,-1928,-720,-1265,297,8
6790,-176,-1912,-720,-1273,297,7
6795,-208,-1872,-744,-1283,300,6
6800,-176,-1912,-736,-1296,300,5
6805,-160,-1888,-752,-1308,303,2
6810,-184,-1896,-776,-1320,303,-1
6815,-184,-1888,-800,-1335,306,-6
6820,-184,-1880,-784,-1347,306,-8
6825,-200,-1864,-816,-1366,305,-11
6830,-208,-1872,-808,-1381,306,-12
6835,-208,-1880,-840,-1397,306,-13
6840,-232,-1848,-872,-1418,306,-13
6845,-216,-1856,-848,-1436,305,-15
6850,-200,-1864,-880,-1453,307,-14
6855,-232,-1880,-872,-1470,308,-15
6860,-224,-1864,-920,-1488,310,-8
6865,-248,-1824,-936,-1508,308,-7
6870,-192,-1584,-1368,-1537,314,-2
6875,-240,-1856,-848,-1564,314,0
6880,-240,-1784,-1008,-1597,314,6
6885,-216,-1872,-904,-1615,309,-2
6890,-200,-1824,-944,-1620,302,-9
6895,-216,-1816,-960,-1626,299,-19
6900,-208,-1840,-992,-1633,296,-24
6905,-200,-1832,-1024,-1642,293,-30
6910,-176,-1808,-1096,-1653,292,-29
6915,-184,-1800,-1096,-1670,291,-32
6920,-144,-1816,-1144,-1691,293,-30
6925,-152,-1792,-1152,-1712,294,-30
6930,-128,-1816,-1200,-1734,298,-25
6935,-96,-1800,-1232,-1758,303,-25
6940,-96,-1760,-1248,-1782,307,-22
6945,-96,-1728,-1288,-1802,312,-20
6950,-96,-1704,-1368,-1828,316,-18
6955,-88,-1712,-1360,-1854,323,-17
6960,-88,-1704,-1360,-1880,333,-12
6965,-88,-1680,-1408,-1909,344,-10
6970,-96,-1648,-1448,-1932,360,-2
6975,-96,-1632,-1432,-1957,373,0
6980,-112,-1608,-1448,-1973,383,3
6985,-112,-1600,-1488,-1987,390,3
6990,-104,-1592,-1480,-2003,394,5
6995,-104,-1576,-1504,-2016,393,1
7000,-96,-1568,-1536,-2026,393,0
7005,-104,-1536,-1560,-2037,387,-11
7010,-96,-1552,-1552,-2042,382,-21
7015,-112,-1512,-1576,-2041,375,-37
7020,-96,-1496,-1584,-2035,369,-49
7025,-112,-1496,-1632,-2026,358,-67
7030,-136,-1480,-1672,-2017,348,-84
7035,-144,-1456,-1688,-2001,339,-107
7040,-136,-1432,-1704,-1983,331,-123
7045,-136,-1432,-1712,-1958,320,-142
7050,-128,-1416,-1744,-1927,307,-158
7055,-96,-1392,-1800,-1887,296,-184
7060,-96,-1368,-1800,-1830,284,-195
7065,-88,-1360,-1848,-1783,276,-210
7070,-24,-1328,-1864,-1744,271,-210
7075,-48,-1288,-1904,-1703,268,-222
7080,-8,-1304,-1936,-1667,261,-229
7085,24,-1248,-1976,-1639,254,-236
7090,24,-1232,-1992,-1612,247,-238
7095,24,-1200,-2008,-1594,240,-242
7100,56,-1192,-2024,-1577,233,-241
7105,56,-1184,-2008,-1562,227,-246
7110,32,-1168,-2040,-1542,225,-247
7115,64,-1136,-2040,-1526,225,-250
7120,48,-1096,-2072,-1511,226,-250
7125,40,-1080,-2064,-1499,229,-256
7130,8,-1056,-2128,-1488,230,-257
7135,48,-1040,-2096,-1479,231,-258
7140,40,-1008,-2112,-1468,231,-257
7145,48,-984,-2120,-1458,230,-261
7150,24,-944,-2160,-1452,231,-259
7155,32,-952,-2200,-1446,235,-258
7160,40,-936,-2152,-1438,241,-252
7165,32,-928,-2160,-1433,244,-245
7170,32,-936,-2144,-1425,249,-234
7175,8,-920,-2184,-1417,252,-225
7180,8,-904,-2128,-1408,255,-214
7185,0,-880,-2136,-1395,254,-204
7190,32,-880,-2152,-1381,254,-192
7195,16,-840,-2112,-1366,254,-181
7200,32,-832,-2096,-1346,251,-169
7205,64,-800,-2112,-1326,247,-165
7210,56,-800,-2088,-1308,242,-156
7215,64,-752,-2088,-1290,237,-148
7220,40,-744,-2072,-1275,231,-138
7225,72,-744,-2040,-1258,226,-131
7230,64,-728,-2056,-1239,223,-121
7235,80,-720,-2024,-1218,220,-111
7240,72,-712,-1992,-1194,218,-99
7245,88,-696,-1992,-1167,217,-80
7250,80,-680,-1976,-1130,215,-57
7255,88,-664,-2016,-1096,218,-35
7260,80,-664,-2016,-1073,225,-24
7265,72,-704,-1984,-1058,227,-20
7270,24,-688,-1944,-1042,220,-21
7275,8,-712,-1888,-1020,209,-20
7280,24,-720,-1912,-993,201,-19
7285,8,-704,-1920,-965,194,-16
7290,8,-712,-1848,-938,191,-16
7295,0,-696,-1824,-908,187,-16
7300,24,-664,-1824,-882,184,-16
7305,32,-672,-1816,-858,180,-17
7310,16,-672,-1792,-831,175,-16
7315,24,-672,-1776,-805,171,-16
7320,16,-664,-1760,-777,167,-17
7325,24,-672,-1744,-752,164,-18
7330,32,-624,-1752,-726,161,-18
7335,32,-600,-1744,-705,160,-16
7340,48,-600,-1728,-684,159,-19
7345,48,-600,-1704,-662,158,-21
7350,32,-608,-1720,-645,156,-26
7355,48,-584,-1704,-629,153,-30
7360,40,-584,-1680,-611,149,-34
7365,40,-600,-1656,-593,148,-38
7370,16,-600,-1688,-575,145,-44
7375,32,-568,-1728,-556,140,-49
7380,16,-584,-1704,-538,134,-57
7385,0,-592,-1736,-525,129,-61
7390,-8,-560,-1744,-507,118,-67
7395,0,-544,-1736,-493,110,-71
7400,0,-544,-1760,-482,102,-76
7405,32,-536,-1744,-472,91,-74
7410,8,-536,-1768,-464,84,-75
7415,48,-536,-1752,-458,77,-72
7420,48,-512,-1784,-452,72,-70
7425,80,-552,-1792,-444,70,-65
7430,80,-536,-1784,-439,66,-63
7435,88,-544,-1784,-433,61,-58
7440,88,-536,-1784,-429,57,-57
7445,120,-528,-1792,-423,53,-55
7450,96,-520,-1816,-418,50,-56
7455,120,-528,-1800,-415,49,-51
7460,96,-560,-1800,-413,47,-51
7465,96,-544,-1808,-410,47,-46
7470,88,-544,-1792,-406,51,-41
7475,120,-544,-1816,-403,53,-32
7480,112,-544,-1848,-401,57,-26
7485,96,-528,-1864,-399,64,-13
7490,104,-536,-1832,-400,65,-10
7495,96,-568,-1832,-403,64,-6
7500,104,-592,-1848,-404,59,-8
7505,80,-592,-1864,-402,53,-9
7510,80,-584,-1856,-401,49,-12
7515,40,-616,-1848,-402,47,-7
7520,120,-592,-1888,-403,48,-5
7525,104,-632,-1904,-402,49,1
7530,160,-576,-1880,-401,47,1
7535,32,-584,-2112,-402,43,5
7540,144,-560,-2016,-397,39,3
7545,56,-616,-1952,-398,35,6
7550,144,-648,-1712,-393,33,4
7555,72,-648,-1920,-389,32,11
7560,64,-648,-1960,-383,32,14
7565,88,-656,-1944,-378,37,26
7570,104,-656,-1928,-375,40,35
7575,168,-704,-1904,-368,45,48
7580,96,-728,-1888,-362,48,58
7585,88,-752,-1888,-352,51,70
7590,88,-760,-1920,-343,52,77
7595,72,-704,-1904,-341,55,89
7600,72,-736,-1936,-340,67,96
7605,0,-720,-1936,-340,79,109
7610,-8,-736,-1960,-345,91,119
7615,32,-744,-1984,-349,95,134
7620,0,-728,-1984,-353,99,142
7625,16,-744,-1968,-357,104,155
7630,24,-768,-1968,-357,110,161
7635,0,-768,-1928,-354,112,172
7640,-32,-704,-1968,-352,110,182
7645,-40,-720,-1976,-354,110,198
7650,-48,-696,-1960,-357,111,211
7655,-56,-664,-1936,-360,114,231
7660,-72,-632,-1960,-359,116,252
7665,-64,-656,-1960,-358,116,278
7670,-40,-688,-1936,-350,114,301
7675,-56,-720,-1920,-332,111,331
7680,-80,-680,-1928,-293,106,350
7685,-56,-688,-1888,-248,101,377
7690,-72,-672,-1888,-204,101,401
7695,-8,-632,-1856,-156,105,426
7700,24,-576,-1880,-114,109,445
7705,0,-552,-1864,-82,116,466
7710,0,-488,-1872,-66,127,483
7715,16,-472,-1824,-62,135,505
7720,0,-440,-1792,-72,146,529
7725,8,-408,-1808,-104,159,555
7730,24,-336,-1784,-139,185,577
7735,64,-288,-1792,-183,219,609
7740,120,-224,-1776,-240,265,637
7745,144,-200,-1728,-313,318,663
7750,224,-208,-1696,-393,382,686
7755,248,-184,-1632,-479,445,708
7760,240,-200,-1592,-568,508,716
7765,264,-200,-1552,-663,573,725
7770,256,-248,-1496,-757,656,731
7775,184,-256,-1448,-867,723,732
7780,160,-304,-1400,-954,795,736
7785,168,-368,-1336,-1027,876,741
7790,216,-432,-1256,-1088,965,748
7795,160,-488,-1192,-1144,1063,758
7800,104,-536,-1192,-1190,1165,768
7805,200,-592,-1096,-1236,1261,782
7810,184,-608,-984,-1271,1359,790
7815,200,-688,-912,-1297,1453,794
7820,168,-720,-848,-1307,1566,792
7825,200,-720,-888,-1301,1646,790
7830,112,-664,-888,-1290,1727,785
7835,88,-632,-944,-1266,1804,781
7840,64,-536,-912,-1250,1871,775
7845,-40,-560,-888,-1236,1922,764
7850,-144,-544,-904,-1210,1971,752
7855,-48,-512,-840,-1167,2019,749
7860,-56,-544,-816,-1104,2076,735
7865,-96,-536,-728,-1027,2150,716
7870,-88,-440,-712,-936,2210,695
7875,64,-368,-720,-878,2266,663
7880,-8,-312,-776,-854,2322,612
7885,96,-272,-784,-861,2391,557
7890,160,-240,-848,-885,2454,484
7895,104,-80,-896,-926,2511,400
7900,144,-16,-960,-991,2569,315
7905,72,40,-1080,-1081,2626,233
7910,272,104,-992,-1180,2666,138
7915,8,192,-1136,-1231,2716,74
7920,-56,328,-1288,-1261,2740,-4
7925,-200,512,-1472,-1283,2724,-108
7930,-368,776,-1552,-1327,2664,-183
7935,-592,976,-1704,-1408,2574,-278
7940,-712,1304,-1832,-1537,2437,-388
7945,-840,1528,-2088,-1717,2259,-491
7950,-936,1920,-2336,-1959,2059,-605
7955,-888,2128,-2552,-2229,1857,-711
7960,-888,2256,-2912,-2557,1623,-901
7965,-840,2120,-3112,-2853,1426,-1032
7970,-776,1656,-3480,-3130,1254,-1133
7975,-600,1072,-3648,-3332,1120,-1200
7980,-440,552,-3680,-3424,1010,-1234
7985,-312,408,-3800,-3439,916,-1313
7990,-56,256,-3640,-3388,847,-1373
7995,200,232,-3504,-3331,800,-1404
8000,560,280,-3240,-3234,834,-1353
8005,800,320,-2680,-3046,996,-1267
8010,880,344,-2288,-2691,1179,-1138
8015,736,336,-1960,-2206,1414,-888
8020,904,384,-1520,-1547,1672,-487
8025,1368,376,-1488,-782,1943,33
8030,1736,400,-1520,-44,2212,605
8035,2360,848,-1592,557,2561,1156
8040,3008,1128,-1656,1043,2987,1607
8045,3424,1472,-1768,1425,3399,1898
8050,3688,1744,-2024,1682,3737,2121
8055,4168,1912,-2368,1779,4024,2199
8060,4744,2360,-2504,1632,4155,2153
8065,5224,2696,-2496,1287,4223,1980
8070,4944,2944,-2352,754,4276,1750
8075,4272,2944,-1904,92,4353,1594
8080,3824,2864,-1624,-558,4398,1589
8085,3560,2864,-1416,-1159,4432,1709
8090,3464,3008,-1320,-1710,4478,1926
8095,3456,3096,-1240,-2206,4538,2168
8100,3040,3040,-1304,-2729,4569,2431
8105,2720,2824,-1184,-3127,4571,2579
8110,1976,2504,-1064,-3421,4529,2653
8115,1536,2472,-840,-3584,4429,2671
8120,1792,2576,-640,-3655,4301,2706
8125,1712,2288,-464,-3703,4187,2761
8130,1336,1960,-352,-3668,4010,2684
8135,1280,1896,-152,-3346,3701,2459
8140,2168,1960,-184,-2742,3144,2457
8145,2968,1680,-56,-2069,2516,2522
8150,3928,1840,-384,-1168,1976,2581
8155,4488,2296,-768,-504,1462,2638
8160,4768,2512,-968,-96,1086,2718
8165,4856,2456,-728,-69,877,2794
8170,4920,2280,-496,-221,750,2852
8175,4832,2144,-264,-408,615,2912
8180,5656,2024,-224,-581,432,2935
8185,5960,2040,16,-773,191,2982
8190,5536,2016,72,-922,-63,2809
8195,5552,1888,48,-1055,-380,2543
8200,4888,1784,80,-1154,-518,2188
8205,4048,1616,88,-1214,-579,1779
8210,3928,1168,240,-1211,-573,1395
8215,3056,792,384,-1233,-497,1108
8220,2736,560,872,-1266,-404,876
8225,2448,360,1160,-1175,-324,608
8230,1928,200,1280,-991,-302,315
8235,1456,-64,1248,-778,-333,79
8240,1304,-248,1248,-574,-400,-95
8245,1104,-392,1248,-345,-447,-200
8250,944,-440,1232,-159,-476,-289
8255,840,-392,1080,20,-504,-359
8260,616,-400,1032,176,-523,-415
8265,608,-336,944,325,-567,-463
8270,624,-184,736,458,-626,-532
8275,440,-16,632,550,-664,-608
8280,440,96,568,581,-682,-668
8285,552,224,512,568,-681,-714
8290,632,312,440,511,-647,-726
8295,760,408,312,425,-601,-715
8300,928,504,256,314,-544,-688
8305,1136,576,184,190,-489,-673
8310,1248,600,168,60,-433,-658
8315,1392,656,168,-65,-373,-654
8320,1480,592,168,-176,-329,-625
8325,1568,552,224,-266,-298,-598
8330,1608,488,248,-330,-269,-578
8335,1680,448,280,-353,-240,-567
8340,1744,400,344,-337,-218,-560
8345,1784,400,376,-285,-197,-561
8350,1784,392,376,-209,-175,-558
8355,1800,384,344,-124,-154,-550
8360,1784,416,336,-42,-132,-536
8365,1784,464,304,25,-106,-517
8370,1752,512,256,70,-74,-493
8375,1672,640,320,93,-31,-485
8380,1952,656,200,101,30,-470
8385,1800,688,264,115,34,-365
8390,1832,712,232,110,55,-297
8395,1872,736,224,91,89,-242
8400,1896,744,232,71,126,-187
8405,1760,816,312,48,187,-177
8410,2120,704,152,37,236,-157
8415,1864,680,216,45,234,-26
8420,1808,704,208,49,251,51
8425,1776,712,240,57,270,109
8430,1728,736,304,70,274,159
8435,1792,760,248,83,264,192
8440,1880,760,200,97,249,214
8445,1936,752,144,111,228,236
8450,2048,712,64,122,204,252
8455,2136,600,40,139,178,259
8460,2208,552,8,166,143,259
8465,2264,496,-24,203,99,260
8470,2336,472,-56,241,52,260
8475,2392,448,-88,278,-9,260
8480,2416,408,-120,316,-55,259
8485,2456,376,-208,342,-93,263
8490,2480,344,-280,369,-128,267
8495,2456,328,-368,392,-152,275
8500,2480,304,-432,409,-173,281
8505,2488,304,-512,425,-187,283
8510,2472,320,-520,438,-197,283
8515,2464,320,-592,445,-204,282
8520,2456,360,-632,446,-208,275
8525,2448,376,-624,437,-204,270
8530,2440,344,-632,423,-196,260
8535,2408,408,-656,407,-186,250
8540,2344,416,-656,392,-177,237
8545,2320,408,-696,380,-169,222
8550,2288,384,-696,361,-165,204
8555,2224,416,-712,343,-155,190
8560,2192,384,-752,326,-149,168
8565,2160,400,-744,312,-145,149
8570,2104,384,-776,295,-142,125
8575,2080,384,-792,276,-142,107
8580,2048,336,-784,260,-143,82
8585,1984,336,-792,247,-146,62
8590,1984,312,-840,234,-153,35
8595,1968,280,-872,226,-162,11
8600,1944,224,-880,217,-171,-19
8605,1944,240,-896,214,-182,-44
8610,1912,168,-904,214,-191,-77
8615,1880,192,-952,219,-200,-105
8620,1872,176,-992,221,-212,-139
8625,1840,152,-976,225,-218,-162
8630,1848,128,-1024,230,-226,-188
8635,1824,112,-1032,232,-236,-208
8640,1776,144,-1056,230,-248,-228
8645,1776,128,-1064,223,-263,-237
8650,1808,136,-1104,210,-274,-250
8655,1776,160,-1104,192,-284,-253
8660,1800,168,-1104,172,-295,-260
8665,1792,136,-1144,154,-301,-256
8670,1800,144,-1168,121,-312,-257
8675,1824,144,-1168,96,-318,-250
8680,1840,152,-1160,74,-321,-246
8685,1832,152,-1176,53,-322,-237
8690,1864,152,-1192,27,-324,-233
8695,1888,176,-1160,1,-324,-223
8700,1880,184,-1152,-20,-322,-219
8705,1888,192,-1160,-38,-320,-208
8710,1928,200,-1152,-60,-316,-199
8715,1920,224,-1152,-92,-309,-189
8720,1896,256,-1136,-122,-302,-182
8725,1920,248,-1144,-152,-292,-170
8730,1888,264,-1112,-181,-280,-162
8735,1888,248,-1104,-205,-268,-148
8740,1848,248,-1072,-221,-257,-137
8745,1832,264,-1072,-234,-244,-122
8750,1832,272,-1032,-244,-231,-110
8755,1816,248,-1016,-251,-217,-94
8760,1824,288,-992,-259,-199,-80
8765,1808,312,-960,-271,-186,-65
8770,1808,336,-968,-283,-171,-52
8775,1840,312,-944,-296,-153,-38
8780,1848,328,-960,-309,-135,-27
8785,1880,320,-960,-319,-118,-17
8790,1864,328,-920,-325,-99,-11
8795,1872,312,-928,-329,-80,-3
8800,1880,320,-912,-329,-63,2
8805,1912,320,-936,-327,-47,9
8810,1936,320,-872,-320,-31,8
8815,1936,320,-848,-311,-20,11
8820,1952,304,-848,-300,-11,11
8825,1952,304,-832,-286,-5,11
8830,1984,304,-800,-272,2,9
8835,1968,320,-848,-251,7,8
8840,1976,344,-840,-231,12,4
8845,1984,360,-864,-210,17,1
8850,1952,368,-856,-189,20,-7
8855,1968,384,-888,-171,24,-15
8860,1960,416,-864,-151,26,-29
8865,1976,400,-824,-136,28,-38
8870,1944,464,-872,-126,29,-52
8875,1960,464,-856,-116,29,-63
8880,1968,464,-872,-112,28,-76
8885,1960,480,-872,-110,26,-84
8890,1960,504,-848,-110,23,-93
8895,1944,504,-840,-107,18,-98
8900,1944,528,-864,-112,14,-105
8905,1936,520,-864,-119,6,-106
8910,1960,512,-872,-122,2,-113
8915,1936,528,-840,-123,-6,-115
8920,1952,520,-832,-125,-13,-119
8925,1960,528,-848,-127,-20,-121
8930,1952,528,-832,-127,-26,-123
8935,1960,536,-840,-126,-33,-126
8940,1984,520,-856,-123,-39,-131
8945,1936,544,-856,-119,-48,-138
8950,1928,544,-880,-114,-60,-144
8955,1912,536,-888,-113,-67,-143
8960,1928,512,-904,-110,-74,-147
8965,1920,512,-888,-106,-80,-151
8970,1936,520,-888,-102,-86,-155
8975,1880,536,-880,-99,-91,-158
8980,1912,504,-888,-99,-91,-159
8985,1936,528,-896,-94,-90,-161
8990,1912,504,-928,-91,-88,-160
8995,1864,544,-920,-94,-83,-152
9000,1872,512,-944,-93,-81,-150
9005,1880,512,-936,-89,-78,-148
9010,1856,512,-928,-85,-75,-147
9015,1856,512,-936,-83,-71,-146
9020,1848,504,-944,-81,-67,-145
9025,1864,496,-920,-83,-63,-144
9030,1848,512,-928,-83,-57,-140
9035,1856,512,-976,-84,-55,-139
9040,1864,504,-960,-86,-49,-132
9045,1872,496,-960,-89,-37,-129
9050,1848,488,-976,-87,-34,-125
9055,1816,536,-960,-92,-30,-117
9060,1840,496,-984,-92,-29,-109
9065,1840,512,-984,-92,-24,-102
9070,1832,488,-976,-91,-22,-95
9075,1840,520,-992,-90,-21,-92
9080,1856,504,-992,-88,-18,-83
9085,1840,512,-984,-87,-14,-77
9090,1864,528,-976,-84,-4,-65
9095,1888,504,-992,-81,4,-53
9100,1840,528,-1008,-79,15,-41
9105,1864,496,-976,-73,20,-33
9110,1872,512,-976,-67,26,-23
9115,1880,504,-984,-62,34,-16
9120,1904,496,-976,-57,39,-5
9125,1880,512,-984,-55,46,3
9130,1872,512,-968,-55,52,14
9135,1856,504,-976,-49,57,20
9140,1856,496,-984,-46,61,30
9145,1880,488,-976,-40,65,32
9150,1888,496,-976,-37,70,41
9155,1880,504,-960,-34,75,43
9160,1896,520,-952,-31,75,47
9165,1848,504,-976,-24,79,46
9170,1872,512,-960,-24,77,52
9175,1896,504,-944,-23,79,55
9180,1880,488,-936,-23,85,60
9185,1888,488,-952,-18,84,59
9190,1896,480,-928,-13,85,62
9195,1904,512,-952,-10,83,60
9200,1904,496,-904,-9,85,62
9205,1880,488,-936,-7,85,60
9210,1888,480,-896,-4,87,64
9215,1904,504,-888,-1,90,61
9220,1904,504,-936,0,90,63
9225,1904,472,-928,2,90,60
9230,1904,480,-896,2,91,61
9235,1888,480,-904,4,93,60
9240,1896,488,-888,5,93,60
9245,1904,464,-912,5,94,54
9250,1880,480,-872,6,93,55
9255,1880,464,-864,5,94,49
9260,1872,464,-912,4,94,49
9265,1888,472,-896,4,92,44
9270,1880,472,-912,2,93,42
9275,1896,448,-888,1,92,37
9280,1872,464,-912,-1,90,36
9285,1880,440,-888,-3,89,30
9290,1904,456,-928,-6,87,28
9295,1856,472,-896,-7,84,22
9300,1864,472,-904,-9,82,21
9305,1880,448,-920,-11,80,14
9310,1880,464,-904,-12,78,14
9315,1880,456,-904,-12,77,7
9320,1880,480,-888,-14,75,6
9325,1896,440,-896,-16,74,1
9330,1880,464,-904,-17,72,0
9335,1896,464,-944,-17,70,-3
9340,1896,448,-920,-18,68,-4
9345,1864,440,-912,-19,65,-9
9350,1880,464,-896,-20,64,-8
9355,1872,464,-928,-19,64,-11
9360,1888,456,-904,-18,61,-12
9365,1912,440,-912,-19,63,-14
9370,1872,464,-888,-17,60,-14
9375,1888,464,-936,-15,58,-16
9380,1880,464,-928,-14,58,-15
9385,1888,472,-912,-11,58,-16
9390,1904,472,-928,-9,56,-16
9395,1880,472,-888,-7,55,-17
9400,1904,440,-888,-7,55,-16
9405,1888,464,-928,-6,54,-16
9410,1872,472,-920,-7,53,-15
9415,1888,448,-920,-6,52,-15
9420,1872,456,-944,-5,51,-16
9425,1872,456,-912,-2,51,-19
9430,1880,464,-920,2,50,-19
9435,1896,448,-920,3,50,-21
9440,1888,472,-904,4,50,-19
9445,1896,472,-928,3,50,-20
9450,1856,488,-920,2,50,-18
9455,1872,480,-928,1,48,-15
9460,1872,480,-888,-1,48,-15
9465,1880,480,-920,-4,47,-14
9470,1880,488,-936,-8,46,-13
9475,1928,464,-880,-9,43,-14
9480,1880,480,-928,-11,42,-13
9485,1880,480,-896,-13,41,-11
9490,1888,464,-912,-16,40,-10
9495,1888,496,-872,-17,39,-10
9500,1896,488,-904,-17,39,-10
9505,1864,480,-896,-17,38,-9
9510,1848,488,-920,-16,37,-12
9515,1872,488,-920,-16,37,-15
9520,1896,480,-912,-18,36,-15
9525,1872,496,-920,-17,37,-16
9530,1896,488,-920,-16,36,-18
9535,1864,472,-896,-16,38,-17
9540,1888,472,-936,-17,37,-18
9545,1872,480,-904,-17,37,-18
9550,1904,496,-904,-19,37,-21
9555,1896,464,-920,-19,37,-20
9560,1864,472,-936,-20,38,-22
9565,1880,480,-912,-20,38,-21
9570,1864,480,-944,-21,37,-23
9575,1864,496,-920,-21,37,-23
9580,1880,472,-896,-21,36,-24
9585,1872,504,-936,-22,36,-24
9590,1856,480,-952,-21,37,-25
9595,1896,480,-912,-21,36,-23
9600,1872,480,-936,-21,36,-23
9605,1872,496,-928,-23,36,-22
9610,1848,496,-920,-23,34,-20
9615,1856,496,-936,-25,35,-19
9620,1880,496,-904,-24,34,-21
9625,1888,488,-952,-23,34,-19
9630,1872,520,-936,-22,33,-19
9635,1880,488,-960,-23,31,-17
9640,1880,488,-952,-25,32,-17
9645,1864,488,-944,-27,32,-15
9650,1888,496,-928,-29,33,-15
9655,1880,480,-944,-30,30,-11
9660,1880,496,-928,-30,31,-12
9665,1896,472,-952,-30,31,-9
9670,1904,480,-920,-29,30,-10
9675,1880,488,-912,-29,30,-7
9680,1856,496,-944,-30,32,-8
9685,1880,488,-912,-31,32,-5
9690,1856,504,-920,-30,33,-6
9695,1880,488,-936,-29,34,-4
9700,1872,496,-912,-30,34,-5
9705,1896,504,-952,-32,36,-2
9710,1880,496,-936,-32,37,-5
9715,1880,512,-936,-33,38,-1
9720,1872,496,-928,-37,38,-3
9725,1872,488,-936,-37,41,1
9730,1888,488,-960,-39,41,-2
9735,1872,480,-952,-39,42,2
9740,1896,472,-936,-40,42,0
9745,1888,488,-928,-42,43,3
9750,1872,480,-952,-43,44,1
9755,1880,496,-936,-44,44,3
9760,1864,488,-920,-45,46,1
9765,1848,504,-920,-46,44,5
9770,1888,488,-896,-44,42,4
9775,1880,488,-952,-44,41,8
9780,1880,480,-920,-43,42,5
9785,1872,480,-944,-44,43,8
9790,1824,456,-928,-41,40,7
9795,1848,520,-928,-40,39,11
9800,1880,480,-920,-38,39,8
9805,1960,528,-840,-36,39,10
9810,1880,536,-984,-35,38,9
9815,1784,480,-928,-33,39,10
9820,1712,520,-1032,-33,39,8
9825,1888,504,-936,-32,40,10
9830,1888,456,-784,-30,42,7
9835,1904,512,-976,-30,42,9
9840,1880,504,-968,-29,42,4
9845,1880,472,-832,-28,43,6
9850,1888,488,-952,-29,43,3
9855,1864,480,-928,-30,42,5
9860,1856,480,-904,-30,43,2
9865,1872,488,-920,-32,41,4
9870,1864,480,-944,-31,42,2
9875,1864,488,-952,-31,43,2
9880,1864,480,-944,-31,43,-1
9885,1872,480,-944,-34,43,2
9890,1896,464,-944,-31,42,-2
9895,1872,480,-920,-30,41,-1
9900,1864,472,-904,-30,41,-3
9905,1848,480,-936,-29,40,-3
9910,1872,480,-920,-30,40,-4
9915,1856,464,-936,-30,43,-4
9920,1872,472,-936,-30,41,-5
9925,1856,480,-888,-29,41,-4
9930,1896,472,-936,-31,42,-4
9935,1848,488,-952,-30,43,-4
9940,1864,464,-928,-29,43,-6
9945,1856,480,-944,-30,44,-3
9950,1904,472,-952,-30,44,-6
9955,1880,464,-944,-28,44,-4
9960,1872,480,-952,-28,44,-6
9965,1872,488,-944,-29,45,-5
9970,1864,480,-920,-29,46,-6
9975,1880,472,-928,-27,45,-6
9980,1880,496,-944,-26,44,-7
9985,1888,472,-912,-27,46,-5
9990,1864,480,-936,-28,46,-6
9995,1864,480,-952,-29,46,-6
10000,1880,472,-928,-27,46,-6
10005,1880,472,-936,-27,46,-5
10010,1880,496,-936,-28,46,-5
10015,1864,496,-928,-27,45,-6
10020,1872,512,-936,-27,45,-6
10025,1864,496,-928,-28,43,-7
10030,1872,480,-912,-29,44,-8
10035,1864,488,-928,-30,44,-8
10040,1864,488,-936,-29,43,-8
10045,1872,488,-952,-29,44,-9
10050,1880,488,-960,-30,44,-9
10055,1872,480,-952,-30,43,-9
10060,1880,480,-928,-33,43,-8
10065,1856,488,-936,-32,44,-9
10070,1864,472,-936,-31,44,-8
10075,1856,488,-952,-30,45,-8
10080,1872,496,-944,-30,44,-7
10085,1848,504,-920,-28,45,-8
10090,1888,480,-936,-24,45,-8
10095,1880,512,-952,-24,44,-8
10100,1872,504,-952,-24,44,-7
10105,1880,496,-936,-23,44,-9
10110,1872,496,-928,-22,45,-7
10115,1840,504,-936,-23,46,-9
10120,1872,480,-976,-23,46,-8
10125,1864,496,-952,-23,48,-10
10130,1856,472,-944,-23,46,-9
10135,1864,480,-928,-23,47,-10
10140,1864,488,-960,-22,46,-11
10145,1872,472,-936,-21,48,-14
10150,1888,472,-928,-21,48,-12
10155,1880,488,-960,-22,49,-14
10160,1864,496,-944,-24,50,-12
10165,1864,480,-952,-25,50,-13
10170,1840,512,-952,-26,50,-12
10175,1864,496,-960,-28,50,-13
10180,1856,512,-952,-27,48,-11
10185,1864,488,-968,-28,49,-12
10190,1880,480,-936,-29,47,-10
10195,1848,496,-936,-28,50,-12
10200,1856,480,-944,-26,50,-9
10205,1888,488,-944,-26,52,-12
10210,1888,496,-944,-25,52,-10
10215,1880,504,-960,-25,52,-13
10220,1872,488,-952,-23,52,-12
10225,1872,488,-952,-23,54,-16
10230,1864,496,-936,-23,55,-14
10235,1840,512,-920,-22,56,-18
10240,1864,488,-944,-23,56,-16
10245,1856,504,-976,-25,57,-19
10250,1856,512,-960,-24,57,-16
10255,1856,496,-952,-24,57,-19
10260,1872,488,-952,-25,58,-16
10265,1856,496,-952,-27,58,-19
10270,1848,504,-952,-28,57,-17
10275,1856,504,-960,-28,57,-20
10280,1872,488,-904,-27,55,-18
10285,1872,488,-960,-28,54,-19
10290,1856,520,-960,-28,54,-18
10295,1864,496,-952,-29,55,-20
10300,1880,488,-952,-30,54,-18
10305,1880,496,-936,-29,55,-19
10310,1832,504,-936,-27,56,-17
10315,1848,496,-944,-26,55,-19
10320,1856,496,-920,-26,54,-17
10325,1872,496,-952,-25,54,-18
10330,1864,512,-960,-26,56,-16
10335,1856,504,-952,-25,58,-16
10340,1872,504,-968,-23,56,-13
10345,1880,488,-936,-22,57,-13
10350,1880,504,-968,-20,57,-9
10355,1856,504,-952,-19,58,-9
10360,1896,488,-952,-18,56,-5
10365,1856,496,-936,-19,56,-7
10370,1872,496,-952,-18,57,-3
10375,1864,496,-960,-17,59,-2
10380,1872,496,-944,-16,59,0
10385,1872,488,-952,-15,57,0
10390,1864,496,-928,-13,57,2
10395,1856,496,-944,-13,58,-1
10400,1856,480,-960,-14,57,0
10405,1864,504,-936,-12,57,-3
10410,1864,480,-936,-12,57,-1
10415,1848,496,-944,-10,57,-4
10420,1888,488,-944,-11,58,-3
10425,1864,504,-952,-11,59,-4
10430,1880,496,-944,-10,59,-3
10435,1856,488,-944,-12,59,-4
10440,1856,496,-944,-13,61,-4
10445,1872,480,-928,-12,61,-5
10450,1840,488,-968,-13,61,-4
10455,1864,504,-936,-13,61,-6
10460,1864,496,-944,-15,62,-4
10465,1880,512,-960,-14,65,-5
10470,1856,504,-936,-13,63,-4
10475,1864,496,-920,-14,64,-5
10480,1880,480,-960,-13,64,-4
10485,1880,488,-944,-12,63,-6
10490,1856,488,-952,-14,63,-7
10495,1888,488,-936,-14,63,-9
10500,1872,496,-944,-13,62,-7
10505,1872,488,-952,-14,63,-10
10510,1864,464,-944,-14,63,-9
10515,1864,488,-928,-14,62,-11
10520,1840,528,-952,-15,63,-11
10525,1880,504,-952,-15,63,-13
10530,1856,488,-944,-14,64,-13
10535,1856,488,-944,-12,64,-13
10540,1856,512,-928,-12,65,-13
10545,1848,504,-944,-11,65,-15
10550,1872,488,-960,-10,63,-16
10555,1848,496,-952,-12,65,-17
10560,1848,512,-944,-12,64,-18
10565,1864,504,-952,-13,63,-18
10570,1872,512,-944,-15,62,-19
10575,1856,504,-936,-16,63,-19
10580,1880,496,-936,-15,62,-19
10585,1856,488,-952,-15,63,-20
10590,1856,520,-976,-16,62,-21
10595,1872,504,-944,-17,63,-20
10600,1848,520,-952,-17,63,-20
10605,1864,520,-952,-17,63,-21
10610,1848,496,-920,-18,62,-21
10615,1864,488,-936,-19,64,-20
10620,1872,488,-944,-20,64,-21
10625,1856,528,-952,-21,64,-21
10630,1864,496,-936,-22,63,-21
10635,1848,488,-944,-22,62,-19
10640,1856,488,-944,-22,61,-18
10645,1848,520,-928,-23,63,-17
10650,1856,504,-904,-24,64,-17
10655,1880,488,-952,-24,62,-15
10660,1864,496,-944,-24,63,-15
10665,1872,488,-944,-24,63,-12
10670,1872,496,-928,-22,63,-13
10675,1880,512,-944,-21,65,-9
10680,1896,480,-936,-20,64,-10
10685,1872,496,-936,-19,64,-8
10690,1856,512,-928,-18,63,-8
10695,1856,496,-944,-17,65,-5
10700,1864,504,-936,-16,64,-7
10705,1856,504,-944,-15,65,-6
10710,1864,496,-936,-14,64,-8
10715,1880,536,-936,-14,63,-5
10720,1872,496,-952,-15,64,-7
10725,1888,504,-952,-15,64,-5
10730,1864,512,-944,-14,63,-7
10735,1848,520,-936,-14,64,-5
10740,1880,496,-936,-14,63,-7
10745,1840,504,-944,-16,62,-8
10750,1864,512,-936,-17,63,-10
10755,1840,520,-928,-17,63,-7
10760,1856,504,-936,-18,62,-10
10765,1864,496,-936,-20,63,-8
10770,1872,496,-928,-18,65,-10
10775,1856,504,-952,-19,63,-9
10780,1864,496,-952,-20,63,-10
10785,1864,504,-968,-20,65,-8
10790,1864,496,-928,-20,65,-10
10795,1856,496,-936,-18,65,-7
10800,1888,512,-952,-17,63,-10
10805,1872,504,-952,-18,63,-8
10810,1856,512,-952,-18,63,-11
10815,1832,520,-952,-17,64,-8
10820,1864,504,-952,-16,64,-11
10825,1864,520,-944,-17,67,-9
10830,1856,488,-912,-17,67,-12
10835,1856,496,-944,-17,66,-10
10840,1856,496,-936,-16,68,-13
10845,1856,504,-936,-16,69,-12
10850,1880,496,-936,-16,68,-14
10855,1872,488,-928,-14,67,-11
10860,1848,496,-952,-15,67,-14
10865,1840,496,-920,-14,68,-13
10870,1864,488,-920,-14,67,-15
10875,1856,504,-952,-13,67,-12
10880,1872,520,-952,-11,67,-15
10885,1864,488,-936,-12,68,-12
10890,1888,488,-936,-12,68,-14
10895,1880,504,-944,-13,68,-11
10900,1840,528,-952,-13,69,-12
10905,1888,504,-928,-14,67,-9
10910,1856,536,-936,-15,67,-11
10915,1856,520,-928,-15,67,-7
10920,1856,528,-928,-16,66,-8
10925,1864,504,-928,-14,67,-7
10930,1856,520,-928,-14,65,-9
10935,1872,504,-928,-14,65,-8
10940,1896,480,-936,-13,64,-11
10945,1880,520,-928,-13,63,-9
10950,1888,528,-960,-12,63,-11
10955,1864,488,-920,-11,62,-10
10960,1880,512,-976,-12,63,-12
10965,1872,512,-936,-12,62,-10
10970,1856,512,-944,-13,62,-13
10975,1872,512,-936,-13,62,-11
10980,1864,520,-944,-12,61,-14
10985,1872,528,-936,-13,61,-13
10990,1872,504,-920,-11,60,-13
10995,1864,512,-912,-14,61,-12
11000,1856,488,-936,-15,63,-12
11005,1856,496,-920,-16,64,-9
11010,1864,504,-920,-15,65,-9
11015,1864,504,-928,-15,62,-9
11020,1856,504,-944,-14,63,-10
11025,1856,520,-928,-15,63,-9
11030,1872,520,-936,-14,63,-10
11035,1864,488,-960,-14,62,-10
11040,1864,520,-936,-13,60,-10
11045,1880,512,-936,-14,61,-10
11050,1880,504,-936,-14,61,-11
11055,1856,504,-928,-13,59,-10
11060,1872,496,-928,-13,61,-12
11065,1880,528,-944,-14,61,-10
11070,1864,520,-952,-13,60,-12
11075,1848,544,-928,-13,59,-10
11080,1856,528,-944,-13,57,-11
11085,1864,520,-936,-13,57,-11
11090,1848,544,-912,-15,56,-12
11095,1872,528,-960,-15,57,-11
11100,1872,520,-920,-15,57,-11
11105,1864,512,-920,-16,57,-9
11110,1848,512,-928,-17,57,-13
11115,1848,520,-952,-18,57,-11
11120,1880,504,-944,-19,55,-10
11125,1856,496,-936,-19,54,-12
11130,1864,504,-944,-19,54,-11
11135,1856,520,-944,-18,55,-12
11140,1848,536,-928,-17,55,-11
11145,1896,512,-952,-17,55,-11
11150,1856,512,-936,-16,55,-11
11155,1872,512,-952,-16,56,-10
11160,1864,504,-952,-17,56,-9
11165,1880,496,-928,-16,57,-10
11170,1848,504,-944,-16,58,-10
11175,1856,512,-936,-17,57,-10
11180,1864,512,-936,-16,59,-9
11185,1864,512,-936,-15,57,-9
11190,1848,536,-920,-15,58,-7
11195,1864,536,-944,-16,59,-8
11200,1864,528,-952,-15,59,-7
11205,1864,512,-928,-15,59,-6
11210,1888,512,-936,-14,58,-5
11215,1872,512,-944,-14,58,-6
11220,1872,512,-952,-14,57,-5
11225,1864,528,-936,-14,56,-6
11230,1840,520,-936,-14,56,-4
11235,1872,520,-920,-14,57,-5
11240,1864,512,-952,-16,56,-2
11245,1856,520,-912,-16,56,-1
11250,1880,520,-920,-16,57,-1
11255,1888,520,-944,-15,56,-4
11260,1856,520,-944,-16,55,-1
11265,1880,488,-912,-16,56,-4
11270,1864,520,-904,-15,56,-2
11275,1872,504,-920,-14,55,-4
11280,1872,528,-944,-15,55,0
11285,1864,536,-936,-15,55,-3
11290,1872,504,-904,-15,55,0
11295,1864,504,-944,-16,55,-3
11300,1880,512,-920,-17,56,-1
11305,1872,496,-960,-16,55,-4
11310,1856,520,-960,-17,55,-1
11315,1872,520,-944,-17,56,-4
11320,1856,504,-928,-19,58,-3
11325,1856,520,-952,-20,56,-3
11330,1824,528,-952,-20,57,-2
11335,1848,528,-936,-22,56,-5
11340,1856,520,-944,-21,56,-3
11345,1856,520,-944,-21,57,-6
11350,1872,512,-928,-23,57,-2
11355,1856,520,-936,-24,56,-5
11360,1864,520,-928,-24,57,-2
11365,1848,552,-920,-23,57,-6
11370,1872,504,-936,-24,57,-3
11375,1864,512,-936,-26,57,-6
11380,1872,504,-928,-24,59,-3
11385,1872,512,-944,-24,58,-6
11390,1848,536,-936,-25,59,-4
11395,1848,504,-952,-23,57,-5
11400,1888,520,-928,-24,56,-4
11405,1856,512,-952,-23,56,-8
11410,1872,504,-944,-23,55,-4
11415,1880,536,-912,-23,55,-7
11420,1872,512,-952,-23,56,-3
11425,1864,512,-912,-22,55,-5
11430,1848,528,-936,-23,57,-3
11435,1864,528,-944,-24,57,-4
11440,1872,504,-952,-21,58,-1
11445,1848,536,-944,-21,57,-3
11450,1856,520,-936,-20,56,0
11455,1872,512,-944,-19,55,-2
11460,1880,496,-920,-20,53,0
11465,1864,512,-944,-19,53,-3
11470,1856,520,-920,-19,54,-2
11475,1872,496,-952,-20,53,-4
11480,1880,504,-944,-21,51,-1
11485,1856,528,-936,-21,49,-3
11490,1856,536,-936,-20,50,-2
11495,1856,496,-928,-21,49,-4
11500,1864,528,-928,-22,50,-1
11505,1888,512,-944,-23,50,-3
11510,1880,536,-936,-23,49,-3
11515,1880,512,-960,-25,49,-3
11520,1840,512,-952,-25,51,-1
11525,1872,536,-936,-25,50,-3
11530,1832,536,-904,-24,51,0
11535,1864,520,-912,-25,51,-3
11540,1864,528,-920,-26,51,-2
11545,1880,520,-928,-26,52,-1
11550,1848,512,-944,-27,52,0
11555,1872,512,-944,-25,52,-1
11560,1888,488,-944,-26,53,0
11565,1872,528,-944,-25,52,-2
11570,1864,512,-928,-24,53,0
11575,1880,504,-944,-22,52,-2
11580,1880,520,-936,-19,51,1
11585,1864,536,-984,-18,51,-1
11590,1880,504,-936,-16,52,2
11595,1872,496,-936,-15,51,1
11600,1896,528,-944,-14,52,3
11605,1864,512,-944,-15,53,0
11610,1872,520,-928,-12,53,0
11615,1864,504,-944,-12,53,-1
11620,1872,512,-928,-13,54,0
11625,1840,520,-920,-13,55,-2
11630,1840,512,-928,-12,54,-1
11635,1832,512,-928,-14,56,-4
11640,1848,520,-920,-13,57,-3
11645,1848,520,-960,-13,58,-5
11650,1864,520,-944,-15,57,-4
11655,1872,520,-936,-15,59,-3
11660,1840,536,-960,-19,59,-3
11665,1848,512,-960,-20,59,-2
11670,1856,536,-944,-22,60,-2
11675,1864,528,-944,-21,60,-2
11680,1872,496,-952,-22,58,-2
11685,1864,520,-920,-23,57,0
11690,1872,520,-944,-21,56,0
11695,1864,496,-952,-20,57,1
11700,1848,520,-952,-21,56,1
11705,1872,512,-952,-19,56,1
11710,1864,536,-928,-16,55,0
11715,1856,536,-976,-15,54,1
11720,1880,512,-960,-13,57,0
11725,1880,512,-944,-14,56,-1
11730,1872,528,-944,-13,57,-3
11735,1856,528,-936,-13,56,-3
11740,1864,512,-928,-14,56,-4
11745,1864,512,-936,-14,57,-2
11750,1864,528,-928,-14,57,-6
11755,1864,504,-960,-14,56,-5
11760,1880,504,-960,-13,57,-6
11765,1864,520,-928,-12,57,-6
11770,1848,528,-952,-14,56,-7
11775,1872,496,-944,-14,56,-5
11780,1848,536,-944,-12,57,-7
11785,1888,496,-944,-13,57,-6
11790,1848,520,-952,-11,58,-7
11795,1840,520,-960,-10,57,-4
11800,1856,496,-952,-9,58,-6
11805,1856,512,-952,-10,59,-5
11810,1856,520,-944,-11,59,-6
11815,1864,520,-944,-12,59,-4
11820,1856,496,-920,-11,57,-5
11825,1856,528,-944,-11,58,-4
11830,1840,512,-952,-11,58,-6
11835,1864,528,-960,-12,60,-3
11840,1880,512,-960,-12,58,-4
11845,1872,512,-936,-12,58,-2
11850,1864,536,-912,-11,58,-4
11855,1856,528,-928,-12,59,-2
11860,1864,528,-944,-12,60,-3
11865,1848,512,-928,-11,61,-2
11870,1872,504,-912,-11,58,-2
11875,1864,504,-944,-9,58,0
11880,1880,496,-944,-9,59,-2
11885,1856,504,-952,-9,60,0
11890,1840,512,-936,-8,60,-2
11895,1864,520,-960,-9,59,0
11900,1864,488,-944,-7,60,-2
11905,1848,520,-928,-7,61,-2
11910,1864,528,-944,-8,59,-5
11915,1848,512,-944,-7,59,-2
11920,1872,504,-936,-8,59,-3
11925,1864,504,-928,-9,60,-2
11930,1880,512,-968,-10,60,-3
11935,1848,544,-944,-10,61,-1
11940,1848,512,-920,-10,62,-4
11945,1848,512,-904,-9,62,-1
11950,1848,512,-944,-10,63,-3
11955,1840,520,-952,-11,62,1
11960,1856,520,-920,-11,63,-2
11965,1856,512,-936,-10,63,-1
11970,1856,512,-936,-12,62,-3
11975,1872,528,-960,-11,62,1
11980,1864,528,-960,-11,61,-3
11985,1872,496,-944,-9,60,-2
11990,1872,528,-944,-10,59,-5
11995,1864,536,-936,-8,59,-2
12000,1864,512,-952,-10,59,-5
12005,1880,496,-936,-11,59,-2
12010,1880,520,-928,-11,58,-4
12015,1864,512,-936,-9,59,-3
12020,1864,504,-936,-11,60,-4
12025,1864,504,-912,-11,61,-3
12030,1696,520,-960,-12,59,-5
12035,1792,584,-880,-11,60,-4
12040,1856,528,-904,-11,59,-7
12045,1720,592,-1104,-10,58,-3
12050,1824,480,-968,-11,59,-5
12055,1840,560,-928,-10,59,-2
12060,1832,552,-920,-8,59,-5
12065,1888,520,-976,-8,59,-3
12070,1912,528,-1064,-9,58,-4
12075,1856,512,-952,-8,57,-3
12080,1864,512,-936,-8,57,-5
12085,1856,504,-952,-10,58,-3
12090,1832,536,-936,-9,60,-5
12095,1848,528,-952,-9,58,-4
12100,1880,536,-952,-10,60,-5
12105,1864,512,-944,-10,59,-3
12110,1832,536,-952,-11,60,-5
12115,1832,536,-952,-11,61,-4
12120,1848,520,-912,-11,61,-6
12125,1872,528,-928,-11,59,-4
12130,1872,528,-944,-12,61,-5
12135,1872,528,-928,-12,61,-4
12140,1856,528,-936,-12,63,-6
12145,1840,528,-960,-11,61,-5
12150,1864,512,-952,-12,62,-5
12155,1872,512,-952,-12,62,-3
12160,1872,520,-920,-13,63,-4
12165,1856,528,-936,-13,62,-2
12170,1872,520,-952,-12,62,-4
12175,1856,512,-936,-12,60,-3
12180,1872,520,-952,-12,62,-3
12185,1856,528,-976,-13,62,-2
12190,1880,504,-952,-13,61,-3
12195,1872,512,-944,-12,61,-1
12200,1840,536,-952,-13,61,-1
12205,1880,536,-936,-12,61,-2
12210,1856,512,-952,-11,62,-2
12215,1864,536,-928,-11,61,-2
12220,1848,536,-936,-11,62,-1
12225,1864,520,-944,-9,62,0
12230,1872,504,-928,-11,62,-1
12235,1872,528,-936,-11,62,0
12240,1856,536,-936,-11,63,-1
12245,1864,520,-920,-12,62,-2
12250,1864,512,-928,-12,61,-1
12255,1880,528,-952,-11,60,1
12260,1848,512,-936,-12,61,2
12265,1880,536,-944,-13,60,0
12270,1840,512,-912,-13,60,2
12275,1848,528,-936,-13,59,2
12280,1856,520,-952,-14,59,0
12285,1856,504,-896,-14,59,-1
12290,1840,496,-936,-15,60,1
12295,1856,528,-944,-16,59,0
12300,1856,512,-944,-16,59,0
12305,1864,496,-952,-15,59,-1
12310,1880,528,-944,-15,59,0
12315,1864,536,-944,-16,58,-2
12320,1872,528,-944,-15,59,0
12325,1872,544,-952,-15,60,-1
12330,1848,504,-952,-14,59,0
12335,1864,520,-952,-13,59,-2
12340,1864,528,-928,-11,60,-1
12345,1848,528,-928,-11,60,-1
12350,1856,528,-952,-11,60,0
12355,1856,512,-944,-11,60,-2
12360,1864,512,-944,-12,60,1
12365,1856,528,-928,-12,59,0
12370,1856,512,-952,-11,61,0
12375,1864,520,-944,-10,59,0
12380,1856,512,-944,-11,59,-1
12385,1848,528,-952,-11,62,-3
12390,1888,504,-928,-11,61,-3
12395,1864,520,-952,-10,61,-5
12400,1856,480,-992,-9,61,-3
12405,1872,512,-944,-7,61,-7
12410,1848,504,-944,-7,62,-3
12415,1864,536,-936,-7,63,-6
12420,1856,528,-936,-9,64,-2
12425,1856,520,-944,-8,64,-3
12430,1848,512,-912,-10,63,-1
12435,1872,520,-936,-9,64,-3
12440,1880,504,-952,-9,63,0
12445,1848,536,-944,-10,62,-4
12450,1880,520,-936,-11,61,-2
12455,1872,520,-936,-12,61,-4
12460,1872,520,-936,-11,61,-4
12465,1856,544,-944,-10,60,-6
12470,1856,544,-936,-8,59,-4
12475,1888,504,-928,-7,58,-5
12480,1880,512,-928,-7,59,-4
12485,1888,520,-944,-9,59,-6
12490,1840,536,-936,-9,59,-3
12495,1840,536,-928,-10,59,-6
12500,1880,536,-928,-11,59,-5
12505,1864,528,-920,-11,60,-8
12510,1840,528,-920,-10,60,-5
12515,1872,528,-928,-10,60,-8
12520,1856,528,-944,-11,60,-4
12525,1880,520,-944,-12,61,-7
12530,1872,520,-928,-13,60,-4
12535,1840,520,-936,-13,61,-6
12540,1864,536,-928,-11,60,-4
12545,1856,512,-928,-10,60,-6
12550,1856,512,-952,-11,59,-6
12555,1848,520,-936,-10,58,-8
12560,1856,552,-952,-11,59,-5
12565,1864,512,-944,-10,60,-8
12570,1856,512,-944,-9,59,-4
12575,1848,536,-920,-11,59,-6
12580,1872,520,-952,-10,60,-3
12585,1848,544,-944,-10,61,-4
12590,1872,512,-936,-11,61,-2
12595,1864,528,-936,-11,60,-4
12600,1864,520,-952,-11,60,-2
12605,1864,520,-960,-10,60,-3
12610,1848,520,-944,-10,61,0
12615,1864,528,-928,-10,60,-2
12620,1840,536,-984,-12,60,1
12625,1864,528,-936,-12,61,-1
12630,1848,520,-952,-11,60,2
12635,1864,528,-944,-13,62,1
12640,1872,528,-912,-14,61,2
12645,1872,520,-952,-14,61,0
12650,1872,512,-928,-13,62,1
12655,1856,512,-936,-13,62,0
12660,1848,520,-960,-14,63,1
12665,1864,512,-936,-14,62,-1
12670,1880,536,-952,-14,60,1
12675,1880,536,-928,-14,61,-2
12680,1864,520,-960,-11,63,-1
12685,1880,504,-952,-12,62,-1
12690,1872,512,-928,-12,62,0
12695,1864,520,-928,-14,63,-2
12700,1848,520,-960,-12,63,0
12705,1872,528,-928,-13,63,-2
12710,1848,520,-936,-13,63,0
12715,1856,512,-936,-15,65,-1
12720,1856,512,-936,-14,64,0
12725,1848,544,-920,-14,63,-1
12730,1872,536,-944,-15,63,-1
12735,1880,504,-920,-16,63,-2
12740,1848,512,-920,-14,63,-1
12745,1888,512,-952,-13,62,0
12750,1872,520,-960,-14,62,1
12755,1872,528,-920,-13,62,0
12760,1864,520,-920,-13,61,0
12765,1872,512,-960,-15,60,-1
12770,1848,536,-936,-13,60,0
12775,1848,536,-952,-14,61,-1
12780,1864,520,-952,-14,60,1
12785,1872,504,-936,-12,61,1
12790,1856,536,-944,-11,60,-1
12795,1864,528,-920,-11,61,-3
12800,1864,504,-944,-11,60,-3
12805,1864,536,-968,-11,61,-2
12810,1856,528,-952,-13,61,-2
12815,1872,504,-920,-11,61,-2
12820,1872,504,-928,-11,61,-1
12825,1840,528,-936,-12,60,-2
12830,1872,504,-904,-12,59,-3
12835,1872,512,-944,-11,59,-3
12840,1856,520,-912,-11,58,-3
12845,1864,512,-936,-12,57,-3
12850,1872,528,-928,-12,58,-3
12855,1872,504,-928,-12,59,-3
12860,1840,528,-952,-12,58,-5
12865,1864,528,-960,-14,58,-3
12870,1840,520,-936,-13,58,-5
12875,1872,520,-912,-13,58,-3
12880,1832,512,-944,-13,57,-5
12885,1864,520,-936,-12,57,-4
12890,1848,520,-920,-12,58,-5
12895,1856,512,-928,-12,58,-3
12900,1864,512,-928,-11,57,-5
12905,1880,512,-920,-11,58,-3
12910,1864,520,-944,-11,59,-4
12915,1864,528,-960,-11,59,-2
12920,1872,520,-944,-11,58,-4
12925,1880,536,-960,-12,59,-3
12930,1864,528,-928,-12,59,-6
12935,1888,520,-920,-10,59,-3
12940,1864,512,-968,-12,59,-3
12945,1856,536,-936,-11,60,-2
12950,1872,544,-944,-11,58,-4
12955,1864,520,-936,-12,59,-3
12960,1856,520,-936,-12,59,-5
12965,1872,520,-912,-11,58,-2
12970,1864,504,-928,-12,60,-4
12975,1848,512,-928,-9,60,-2
12980,1856,504,-952,-9,61,-4
12985,1872,528,-936,-10,60,-2
12990,1856,520,-968,-10,61,-3
12995,1896,512,-928,-10,62,-1
13000,1872,520,-936,-9,61,-3
13005,1864,520,-944,-11,63,-1
13010,1840,512,-928,-12,61,-4
13015,1872,520,-928,-12,62,-1
13020,1848,504,-952,-12,63,-3
13025,1848,528,-936,-13,62,1
13030,1848,512,-928,-13,62,-2
13035,1856,512,-928,-14,62,0
13040,1840,520,-936,-14,61,-2
13045,1872,528,-944,-13,61,-1
13050,1856,520,-944,-12,61,-3
13055,1856,528,-936,-13,61,0
13060,1880,496,-920,-13,61,-2
13065,1864,520,-936,-12,61,1
13070,1872,536,-912,-12,60,-3
13075,1864,520,-912,-13,58,0
13080,1856,536,-936,-11,59,-1
13085,1856,560,-952,-10,60,2
13090,1872,512,-928,-12,59,-1
13095,1856,520,-912,-12,60,1
13100,1864,520,-944,-11,60,-1
13105,1856,512,-896,-12,61,3
13110,1856,520,-944,-12,60,0
13115,1872,528,-912,-12,59,3
13120,1856,512,-944,-12,58,0
13125,1856,512,-920,-12,57,2
13130,1864,528,-936,-11,57,0
13135,1856,528,-952,-11,59,3
13140,1864,520,-936,-12,58,0
13145,1872,536,-944,-11,57,2
13150,1880,528,-936,-10,58,0
13155,1872,528,-944,-9,58,3
13160,1856,512,-936,-10,57,1
13165,1848,544,-944,-10,55,2
13170,1856,528,-928,-9,57,1
13175,1896,536,-928,-10,57,2
13180,1856,520,-968,-11,57,1
13185,1848,504,-936,-11,61,3
13190,1864,528,-920,-11,59,1
13195,1848,512,-928,-11,58,1
13200,1848,520,-920,-13,60,-1
13205,1864,488,-920,-12,60,-1
13210,1848,520,-944,-12,60,-3
13215,1856,496,-960,-10,60,-2
13220,1864,488,-952,-8,60,-6
13225,1880,496,-936,-9,61,-4
13230,1856,536,-952,-8,64,-4
13235,1872,520,-944,-7,64,-3
13240,1872,496,-936,-7,64,-4
13245,1856,496,-952,-9,63,-2
13250,1880,512,-928,-8,63,-2
13255,1864,528,-888,-9,63,-1
13260,1864,520,-952,-10,63,-1
13265,1856,536,-920,-13,63,0
13270,1872,520,-944,-13,63,-2
13275,1880,520,-928,-12,64,0
13280,1856,520,-944,-12,63,-1
13285,1888,512,-960,-11,61,-1
13290,1872,504,-904,-10,61,-2
13295,1840,536,-928,-9,59,-2
13300,1864,528,-928,-8,59,-3
13305,1856,536,-928,-9,58,-3
13310,1840,512,-944,-8,59,-5
13315,1856,528,-952,-9,59,-4
13320,1872,528,-952,-8,59,-5
13325,1840,528,-928,-9,59,-2
13330,1880,504,-960,-10,58,-4
13335,1848,544,-912,-10,59,-4
13340,1840,528,-928,-11,60,-4
13345,1872,504,-936,-9,58,-4
13350,1864,512,-936,-10,56,-4
13355,1872,496,-912,-10,58,-5
13360,1880,520,-912,-10,57,-4
13365,1848,512,-936,-11,56,-3
13370,1848,528,-920,-11,56,-3
13375,1864,512,-944,-11,57,-2
13380,1872,536,-928,-11,57,-2
13385,1864,528,-944,-12,54,-2
13390,1864,528,-936,-12,56,-2
13395,1880,536,-944,-12,55,-3
13400,1896,512,-912,-13,54,-1
13405,1848,544,-936,-13,54,-2
13410,1872,536,-928,-16,54,-3
13415,1848,520,-952,-17,54,-3
13420,1864,520,-968,-16,54,-2
13425,1856,520,-936,-17,53,-3
13430,1888,512,-912,-18,53,-1
13435,1864,528,-960,-18,53,-3
13440,1856,536,-936,-18,53,-2
13445,1848,536,-952,-19,54,-4
13450,1856,528,-928,-20,54,1
13455,1864,504,-912,-20,54,-1
13460,1864,496,-944,-20,53,1
13465,1864,536,-952,-19,55,0
13470,1848,528,-952,-17,55,2
13475,1856,504,-912,-17,53,0
13480,1848,512,-928,-16,53,1
13485,1856,504,-944,-14,53,-1
13490,1864,520,-936,-12,55,1
13495,1872,536,-928,-13,54,0
13500,1848,544,-936,-12,53,1
13505,1840,536,-928,-12,55,0
13510,1848,520,-952,-11,57,1
13515,1864,528,-952,-14,56,0
13520,1856,520,-944,-16,56,4
13525,1848,536,-944,-14,57,0
13530,1872,528,-936,-15,57,3
13535,1840,528,-936,-15,57,1
13540,1872,520,-944,-16,58,4
13545,1864,536,-936,-16,58,1
13550,1864,520,-944,-18,60,4
13555,1872,528,-952,-18,58,2
13560,1856,528,-936,-17,57,4
13565,1872,528,-920,-18,57,2
13570,1864,512,-912,-20,56,5
13575,1856,512,-936,-20,57,3
13580,1872,504,-960,-20,55,5
13585,1864,520,-936,-21,56,2
13590,1872,512,-928,-22,55,5
13595,1880,512,-912,-21,56,3
13600,1864,504,-944,-20,55,6
13605,1856,528,-912,-19,54,2
13610,1864,536,-936,-20,52,5
13615,1840,536,-936,-19,53,3
13620,1864,528,-936,-19,51,4
13625,1864,504,-936,-18,52,3
13630,1880,520,-936,-17,51,4
13635,1856,528,-936,-16,51,4
13640,1832,512,-944,-16,50,4
13645,1832,536,-944,-16,51,1
13650,1824,472,-912,-16,51,4
13655,1856,528,-944,-17,50,1
13660,1864,528,-944,-16,51,3
13665,1840,528,-952,-17,51,0
13670,1872,512,-952,-17,52,1
13675,1864,520,-944,-17,53,-2
13680,1848,504,-936,-16,52,2
13685,1856,504,-936,-15,52,0
13690,1872,512,-952,-18,53,1
13695,1864,512,-928,-19,54,-1
13700,1864,512,-952,-18,54,1
13705,1856,528,-952,-18,53,-1
13710,1864,520,-952,-17,53,0
13715,1888,504,-952,-15,54,-2
13720,1864,520,-960,-15,53,-1
13725,1864,504,-944,-15,52,-1
13730,1848,528,-936,-15,52,1
13735,1888,496,-936,-13,53,-1
13740,1864,552,-928,-12,53,1
13745,1872,520,-952,-13,53,-1
13750,1848,520,-960,-13,55,1
13755,1856,512,-944,-13,55,1
13760,1888,520,-952,-14,55,3
13765,1864,512,-952,-13,55,-1
13770,1864,528,-944,-13,56,2
13775,1864,512,-928,-11,56,0
13780,1880,504,-936,-13,57,2
13785,1864,528,-952,-12,56,2
13790,1856,520,-952,-12,58,2
13795,1872,520,-944,-14,56,0
13800,1864,536,-952,-11,56,3
13805,1864,520,-936,-12,56,2
13810,1848,504,-928,-13,56,2
13815,1872,520,-944,-14,55,0
13820,1864,528,-944,-14,56,2
13825,1872,528,-944,-13,55,0
13830,1864,512,-936,-14,56,1
13835,1848,536,-944,-13,54,0
13840,1880,512,-928,-13,52,1
13845,1856,504,-936,-13,53,-1
13850,1864,536,-928,-12,53,0
13855,1848,528,-928,-12,52,0
13860,1888,520,-936,-12,51,1
13865,1856,520,-928,-12,52,0
13870,1880,520,-872,-12,51,1
13875,1848,512,-944,-11,50,0
13880,1848,504,-936,-12,52,0
13885,1848,528,-944,-12,53,-1
13890,1872,520,-944,-12,51,0
13895,1872,528,-944,-13,52,-1
13900,1872,512,-920,-13,53,0
13905,1848,512,-936,-14,52,1
13910,1888,496,-952,-16,52,0
13915,1864,536,-952,-16,52,1
13920,1848,536,-952,-16,51,1
13925,1848,520,-944,-18,51,1
13930,1864,528,-936,-17,52,1
13935,1856,520,-920,-18,51,1
13940,1872,520,-936,-19,52,2
13945,1864,488,-944,-20,53,3
13950,1864,496,-960,-20,53,2
13955,1856,488,-936,-19,53,3
13960,1864,504,-944,-20,52,3
13965,1864,528,-944,-19,52,3
13970,1880,512,-952,-18,51,2
13975,1864,520,-952,-18,53,1
13980,1840,512,-912,-16,53,1
13985,1872,528,-936,-16,52,3
13990,1784,512,-840,-17,52,4
13995,1880,520,-944,-16,52,3
14000,1864,528,-960,-17,53,2
14005,1864,512,-928,-16,52,3
14010,1864,520,-936,-16,52,3
14015,1872,512,-936,-16,52,4
14020,1864,512,-944,-16,52,2
14025,1840,528,-944,-16,53,1
14030,1856,512,-936,-17,51,-1
14035,1848,488,-928,-17,52,-2
14040,1848,496,-928,-15,51,-4
14045,1856,528,-936,-16,53,-2
14050,1840,512,-944,-16,53,-3
14055,1856,504,-952,-16,53,-2
14060,1848,528,-936,-17,52,-2
14065,1840,512,-960,-18,53,0
14070,1912,504,-960,-22,54,1
14075,1864,504,-952,-30,56,6
14080,1856,520,-952,-26,56,3
14085,1864,520,-928,-23,53,4
14090,1872,512,-928,-23,53,1
14095,1856,512,-936,-22,54,2
14100,1856,512,-936,-23,53,-1
14105,1856,528,-928,-20,53,-1
14110,1872,512,-960,-18,54,-4
14115,1864,544,-952,-16,53,-3
14120,1872,504,-960,-14,54,-6
14125,1856,504,-944,-15,56,-4
14130,1864,528,-944,-15,57,-7
14135,1848,512,-936,-13,56,-6
14140,1872,528,-960,-12,57,-9
14145,1872,512,-944,-13,57,-7
14150,1848,536,-952,-13,57,-7
14155,1840,528,-952,-12,59,-6
14160,1840,520,-952,-12,59,-7
14165,1856,512,-944,-12,58,-6
14170,1840,496,-952,-12,59,-9
14175,1856,504,-960,-10,61,-6
14180,1856,528,-976,-9,62,-10
14185,1872,520,-944,-8,62,-7
14190,1848,520,-968,-8,64,-8
14195,1832,512,-944,-8,64,-4
14200,1896,472,-1072,-7,64,-6
14205,1856,464,-984,-6,64,-5
14210,1800,504,-968,-7,64,-7
14215,1848,600,-928,-7,63,-4
14220,1872,536,-1032,-8,64,-6
14225,1888,544,-920,-7,65,-3
14230,1920,512,-840,-7,65,-6
14235,1888,504,-968,-8,65,-4
14240,1856,544,-912,-10,67,-7
14245,1888,480,-712,-9,66,-6
14250,1832,536,-952,-8,66,-6
14255,1832,544,-920,-11,65,-5
14260,1848,520,-952,-11,67,-7
14265,1848,528,-928,-10,67,-3
14270,1856,512,-960,-10,68,-6
14275,1848,496,-952,-10,67,-5
14280,1840,504,-944,-10,69,-6
14285,1848,544,-936,-9,68,-3
14290,1864,496,-952,-9,67,-7
14295,1848,520,-920,-8,67,-5
14300,1872,528,-952,-7,67,-7
14305,1872,520,-936,-7,66,-5
14310,1856,520,-952,-7,66,-8
14315,1880,520,-944,-5,66,-7
14320,1856,528,-936,-7,67,-8
14325,1872,536,-960,-6,66,-6
14330,1864,528,-928,-6,65,-7
14335,1872,536,-912,-7,66,-4
14340,1856,512,-952,-7,66,-6
14345,1872,528,-952,-8,66,-5
14350,1864,520,-944,-8,67,-6
14355,1864,512,-936,-10,66,-5
14360,1880,512,-952,-11,65,-6
14365,1840,512,-936,-10,65,-5
14370,1856,504,-952,-9,64,-5
14375,1872,512,-928,-11,62,-3
14380,1880,528,-952,-9,63,-4
14385,1856,528,-912,-9,61,-4
14390,1896,520,-936,-8,61,-6
14395,1864,520,-960,-8,61,-4
14400,1880,512,-928,-8,62,-5
14405,1856,528,-904,-8,60,-3
14410,1848,520,-944,-8,60,-5
14415,1864,496,-936,-8,60,-4
14420,1872,520,-928,-7,59,-5
14425,1864,520,-944,-8,61,-4
14430,1856,528,-936,-8,60,-5
14435,1864,536,-952,-8,60,-4
14440,1848,520,-936,-8,59,-5
14445,1856,512,-928,-7,59,-3
14450,1848,504,-944,-7,60,-4
14455,1864,528,-952,-8,60,-3
14460,1864,512,-944,-8,61,-3
14465,1856,520,-944,-8,60,-3
14470,1848,528,-936,-8,63,-4
14475,1856,520,-920,-10,62,-4
14480,1864,536,-952,-10,62,-3
14485,1840,536,-904,-9,62,-3
14490,1856,536,-944,-9,61,-4
14495,1872,488,-928,-10,61,-4
14500,1848,544,-952,-9,59,-5
14505,1856,512,-952,-9,60,-4
14510,1864,528,-920,-10,60,-4
14515,1872,512,-952,-10,61,-5
14520,1840,520,-952,-9,60,-3
14525,1848,520,-952,-9,60,-5
14530,1856,512,-936,-9,60,-5
14535,1856,512,-952,-9,61,-5
14540,1872,512,-944,-9,60,-3
14545,1848,544,-928,-10,62,-3
14550,1872,536,-936,-8,62,-2
14555,1848,504,-952,-9,64,-3
14560,1848,496,-952,-8,64,-2
14565,1848,512,-928,-9,64,-3
14570,1872,504,-952,-9,64,-3
14575,1888,512,-928,-9,63,-2
14580,1848,528,-952,-7,64,-2
14585,1856,520,-944,-6,62,-4
14590,1864,520,-960,-6,62,-3
14595,1872,520,-952,-6,61,-3
14600,1888,504,-912,-5,60,-2
14605,1864,544,-928,-6,61,-3
14610,1840,528,-936,-7,61,-2
14615,1864,536,-936,-7,61,-4
14620,1856,528,-920,-8,61,-2
14625,1856,528,-936,-7,62,-3
14630,1848,520,-952,-8,62,-4
14635,1856,520,-952,-8,62,-4
14640,1856,536,-928,-8,62,-2
14645,1848,528,-976,-7,62,-4
14650,1880,512,-944,-7,63,-2
14655,1872,520,-944,-7,63,-4
14660,1840,528,-936,-7,61,-1
14665,1864,520,-936,-8,61,-3
14670,1872,520,-944,-10,62,-1
14675,1896,504,-944,-10,61,-4
14680,1864,512,-928,-10,62,-3
14685,1864,512,-952,-9,62,-6
14690,1880,520,-920,-9,61,-4
14695,1872,520,-936,-10,61,-6
14700,1856,528,-912,-10,60,-4
14705,1864,512,-960,-11,59,-6
14710,1872,512,-944,-10,61,-2
14715,1864,496,-936,-11,61,-6
14720,1856,520,-944,-12,61,-4
14725,1872,520,-936,-11,60,-5
14730,1864,520,-920,-11,59,-2
14735,1840,536,-960,-12,61,-4
14740,1880,520,-944,-11,61,-3
14745,1864,528,-976,-11,60,-7
14750,1864,536,-920,-10,59,-3
14755,1872,520,-952,-12,61,-5
14760,1856,528,-944,-10,62,-2
14765,1848,528,-944,-10,64,-4
14770,1848,512,-928,-9,63,-1
14775,1872,512,-968,-10,64,-3
14780,1896,520,-936,-10,64,0
14785,1864,528,-936,-10,63,-2
14790,1856,512,-952,-10,60,0
14795,1880,488,-944,-10,60,-4
14800,1848,520,-928,-8,60,-1
14805,1864,504,-952,-7,61,-4
14810,1864,520,-952,-6,60,-4
14815,1848,512,-928,-5,59,-7
14820,1864,512,-944,-4,60,-4
14825,1832,520,-968,-4,61,-7
14830,1856,504,-952,-2,61,-4
14835,1864,512,-944,-2,62,-5
14840,1864,520,-960,-2,62,-2
14845,1872,512,-944,-4,62,-2
14850,1872,528,-952,-6,62,-1
14855,1856,504,-904,-6,63,-3
14860,1856,528,-952,-6,63,-1
14865,1848,520,-952,-9,63,-2
14870,1864,504,-928,-10,60,0
14875,1856,528,-952,-9,60,-1
14880,1848,536,-952,-9,61,1
14885,1872,520,-952,-9,62,-1
14890,1880,520,-944,-8,60,0
14895,1888,512,-920,-9,61,-2
14900,1856,536,-944,-7,61,-1
14905,1880,520,-944,-6,59,-2
14910,1888,512,-936,-6,60,-1
14915,1856,520,-936,-6,60,-5
14920,1848,512,-928,-5,59,-2
14925,1872,528,-928,-4,59,-3
14930,1864,528,-912,-5,60,-3
14935,1864,512,-936,-5,59,-4
14940,1864,520,-936,-5,61,-4
14945,1848,504,-928,-6,60,-6
14950,1872,512,-952,-7,60,-3
14955,1848,520,-928,-8,61,-5
14960,1840,520,-944,-9,60,-3
14965,1864,512,-944,-7,60,-4
14970,1864,512,-952,-9,59,-4
14975,1864,528,-920,-8,59,-5
14980,1856,504,-944,-10,59,-4
14985,1880,528,-944,-9,58,-5
14990,1848,520,-920,-11,58,-3
14995,1864,512,-952,-11,59,-5
