timestamp,accel_x,accel_y,accel_z,gyro_x,gyro_y,gyro_z
0,120,-2040,-152,-44,52,-19
5,128,-2056,-136,-40,51,-17
10,128,-2024,-160,-36,51,-12
15,104,-2040,-136,-34,50,-10
20,128,-2048,-160,-31,48,-10
25,144,-2048,-144,-29,47,-8
30,128,-2032,-160,-26,46,-7
35,128,-2056,-136,-23,44,-7
40,120,-2072,-152,-20,42,-6
45,128,-2040,-128,-17,39,-6
50,136,-2064,-144,-13,39,-6
55,160,-2072,-104,-10,38,-6
60,144,-2072,-144,-7,38,-7
65,120,-2048,-144,-4,39,-9
70,136,-2056,-128,-1,40,-8
75,104,-2056,-136,-2,42,-8
80,144,-2048,-136,-1,40,-9
85,120,-2048,-128,-5,42,-10
90,136,-2040,-136,-4,40,-12
95,128,-2048,-120,-7,40,-12
100,136,-2056,-120,-7,42,-12
105,136,-2048,-104,-8,44,-12
110,152,-2040,-152,-7,46,-11
115,136,-2032,-152,-9,49,-12
120,160,-2040,-88,-8,52,-11
125,152,-2056,-120,-10,55,-9
130,160,-2024,-144,-11,56,-8
135,136,-2032,-128,-13,57,-8
140,144,-2032,-120,-16,57,-9
145,144,-2024,-144,-16,57,-7
150,144,-2016,-152,-17,55,-6
155,128,-2048,-128,-18,56,-6
160,112,-2040,-112,-16,57,-5
165,120,-2048,-152,-16,57,-4
170,120,-2056,-136,-15,57,-3
175,120,-2056,-144,-13,55,-3
180,88,-2040,-120,-12,54,-2
185,88,-2032,-128,-11,54,-2
190,112,-2048,-120,-10,56,-1
195,112,-2024,-128,-10,57,-1
200,120,-2056,-120,-10,59,1
205,128,-2048,-128,-9,61,2
210,112,-2040,-128,-8,62,1
215,144,-2016,-144,-9,63,0
220,152,-2040,-152,-11,65,0
225,160,-2048,-128,-14,66,2
230,160,-2032,-152,-15,70,2
235,144,-2024,-128,-17,72,2
240,160,-2056,-144,-18,75,1
245,128,-2064,-152,-19,75,0
250,144,-2056,-144,-14,74,0
255,144,-2048,-152,-13,75,1
260,168,-2048,-144,-9,78,2
265,144,-2032,-144,-7,78,2
270,136,-2032,-176,-6,78,2
275,136,-2048,-152,-2,79,2
280,144,-2032,-160,-1,80,2
285,136,-2032,-152,0,80,1
290,128,-2024,-144,0,81,-1
295,152,-2048,-144,-2,81,-1
300,136,-2048,-152,-1,82,-2
305,128,-2072,-136,0,80,-1
310,152,-2040,-128,0,81,-1
315,120,-2048,-128,1,81,0
320,128,-2056,-136,3,81,0
325,136,-2064,-136,6,79,-1
330,112,-2064,-104,8,79,2
335,144,-2088,-144,11,78,3
340,112,-2048,-128,15,75,4
345,136,-2072,-120,17,75,5
350,144,-2056,-144,19,76,7
355,152,-2056,-160,22,75,7
360,152,-2040,-120,21,76,7
365,160,-2024,-144,20,76,8
370,152,-2032,-160,18,77,8
375,160,-2024,-152,16,77,9
380,120,-2008,-144,13,75,6
385,136,-2000,-136,10,76,5
390,144,-2016,-136,7,76,4
395,136,-2032,-112,8,75,3
400,160,-2040,-128,7,74,0
405,152,-2048,-104,9,72,-2
410,120,-2024,-112,10,70,-3
415,104,-2032,-120,13,67,-5
420,112,-2064,-112,16,63,-5
425,112,-2080,-120,20,61,-5
430,88,-2080,-136,25,58,-3
435,128,-2120,-128,28,53,-3
440,112,-2064,-128,29,49,-2
445,120,-2096,-168,30,46,0
450,120,-2072,-168,28,47,4
455,136,-2104,-144,27,48,10
460,136,-2104,-136,29,52,17
465,168,-2080,-152,34,54,24
470,176,-2056,-136,41,60,31
475,184,-2056,-136,48,65,36
480,152,-2008,-160,54,68,40
485,184,-2024,-144,57,70,42
490,144,-2016,-128,62,70,43
495,144,-2016,-128,65,70,44
500,168,-2024,-160,67,72,47
505,120,-2000,-120,69,74,50
510,120,-1976,-136,72,77,51
515,120,-2016,-152,76,81,52
520,88,-2008,-120,79,83,51
525,104,-2024,-104,79,84,50
530,104,-2008,-104,77,86,48
535,112,-2024,-120,78,85,46
540,112,-2048,-120,77,84,44
545,104,-2040,-88,75,82,43
550,144,-2048,-72,74,81,38
555,144,-2048,-56,73,81,33
560,152,-2040,-80,74,81,30
565,120,-2064,-80,74,82,27
570,144,-1992,-80,72,82,24
575,136,-2040,-64,69,83,21
580,152,-2024,-104,62,83,17
585,152,-2024,-72,58,84,13
590,144,-2032,-88,54,86,12
595,152,-2024,-88,46,90,8
600,144,-2024,-88,39,94,3
605,152,-2016,-88,29,98,1
610,152,-2000,-96,21,101,0
615,176,-2008,-72,18,104,-2
620,104,-1984,-88,17,107,-4
625,152,-1992,-80,19,109,-2
630,136,-1992,-56,19,114,-2
635,128,-2000,-56,23,119,1
640,112,-2016,-80,27,123,5
645,120,-2032,-56,31,126,10
650,96,-2016,-72,35,126,17
655,104,-2056,-40,39,125,24
660,96,-2032,-24,44,124,26
665,96,-2072,-24,47,119,29
670,104,-2104,-72,51,113,28
675,64,-2088,-24,53,104,27
680,104,-2120,-8,52,94,24
685,88,-2128,-24,52,86,21
690,88,-2088,-56,53,79,14
695,120,-2128,-40,51,73,6
700,128,-2112,-48,46,69,-3
705,128,-2120,-32,41,67,-13
710,104,-2096,-56,32,66,-18
715,104,-2032,-88,23,69,-23
720,96,-2048,-112,10,71,-24
725,120,-1968,-96,-4,76,-21
730,120,-1984,-88,-17,80,-15
735,112,-1968,-88,-28,82,-10
740,120,-1968,-88,-38,81,-4
745,128,-1960,-88,-46,79,0
750,128,-1984,-72,-54,75,6
755,112,-1984,-88,-61,72,12
760,88,-1992,-96,-69,70,17
765,120,-2000,-112,-72,70,21
770,136,-2048,-80,-73,72,24
775,96,-2040,-72,-73,74,27
780,88,-2024,-72,-72,77,27
785,112,-2032,-88,-71,79,30
790,96,-2032,-72,-69,79,29
795,88,-2040,-96,-67,80,29
800,112,-2040,-96,-65,80,27
805,72,-2024,-80,-63,79,25
810,80,-2064,-88,-64,81,22
815,104,-2080,-120,-63,78,19
820,104,-2056,-80,-62,75,17
825,112,-2056,-112,-62,75,17
830,96,-2056,-136,-62,71,15
835,128,-2064,-112,-63,70,14
840,136,-2072,-136,-66,69,12
845,120,-2040,-128,-67,66,9
850,120,-2064,-144,-67,64,9
855,128,-2040,-152,-64,63,8
860,128,-2064,-144,-61,63,7
865,144,-2048,-128,-58,63,6
870,144,-2040,-144,-54,63,4
875,120,-2056,-136,-50,62,3
880,112,-2056,-96,-47,61,3
885,136,-2024,-104,-43,62,3
890,144,-2056,-120,-40,63,5
895,136,-2056,-96,-38,63,6
900,144,-2024,-104,-37,64,9
905,144,-2040,-104,-37,65,12
910,120,-2064,-96,-36,65,14
915,112,-2064,-88,-35,65,15
920,112,-2048,-80,-33,65,18
925,104,-2064,-48,-31,66,21
930,72,-2056,-48,-27,68,22
935,112,-2080,-104,-24,70,24
940,96,-2080,-56,-17,70,26
945,72,-2056,-16,-12,72,27
950,120,-2112,-40,-7,71,27
955,96,-2088,-48,1,72,28
960,72,-2072,-72,5,71,26
965,72,-2064,-16,9,72,26
970,88,-2088,-48,11,72,25
975,88,-2072,-40,14,72,25
980,96,-2064,-56,15,73,23
985,104,-2040,-24,14,73,21
990,88,-2032,-64,12,72,19
995,80,-2016,-48,9,72,19
1000,112,-2040,-16,3,71,19
1005,88,-2024,-40,2,72,17
1010,96,-2016,-56,-1,72,16
1015,80,-2040,-48,-4,72,15
1020,96,-2024,-48,-7,72,14
1025,80,-2016,-104,-10,71,13
1030,80,-2024,-64,-13,71,11
1035,72,-2016,-72,-15,73,11
1040,88,-2024,-88,-17,74,12
1045,72,-2016,-80,-20,76,13
1050,72,-2032,-96,-21,76,13
1055,56,-2040,-96,-23,74,12
1060,72,-2040,-72,-24,73,11
1065,80,-2072,-88,-25,75,13
1070,80,-2048,-104,-23,74,12
1075,88,-2080,-80,-21,74,10
1080,64,-2040,-96,-21,74,10
1085,72,-2072,-112,-21,73,11
1090,96,-2024,-120,-19,71,9
1095,72,-2008,-128,-21,68,9
1100,72,-2008,-120,-22,66,4
1105,80,-2016,-144,-26,64,2
1110,72,-2016,-120,-29,61,0
1115,80,-2016,-136,-29,61,0
1120,96,-2056,-112,-30,60,-2
1125,96,-2056,-128,-29,61,-3
1130,64,-2072,-128,-29,62,-4
1135,88,-2064,-136,-27,61,-7
1140,120,-2072,-144,-26,60,-6
1145,120,-2080,-112,-25,60,-6
1150,96,-2072,-112,-22,59,-5
1155,120,-2088,-120,-18,57,-3
1160,136,-2048,-120,-14,58,0
1165,136,-2072,-120,-12,58,1
1170,104,-2064,-112,-9,58,3
1175,120,-2032,-128,-8,60,5
1180,152,-2056,-120,-6,62,9
1185,160,-2056,-144,-7,63,13
1190,136,-2056,-144,-9,64,14
1195,120,-2048,-152,-14,66,17
1200,128,-2032,-128,-18,68,19
1205,144,-2016,-152,-19,69,20
1210,112,-2016,-112,-21,70,22
1215,88,-2072,-160,-25,70,23
1220,88,-2016,-104,-24,70,23
1225,96,-2040,-128,-25,70,23
1230,88,-2016,-136,-23,67,23
1235,104,-2040,-88,-23,66,23
1240,96,-2048,-128,-24,65,24
1245,88,-2032,-104,-25,65,23
1250,96,-2056,-128,-25,64,23
1255,96,-2032,-120,-26,63,24
1260,88,-2048,-112,-28,64,23
1265,96,-2072,-88,-27,65,25
1270,88,-2144,-72,-28,63,24
1275,120,-2040,-72,-28,61,25
1280,104,-2032,-104,-26,62,24
1285,104,-2048,-96,-25,59,24
1290,120,-2032,-96,-24,60,25
1295,112,-2072,-96,-21,59,25
1300,128,-2056,-120,-19,59,24
1305,128,-2048,-120,-16,59,25
1310,88,-2040,-96,-14,57,24
1315,104,-2056,-104,-13,58,26
1320,112,-2056,-80,-10,56,30
1325,88,-2016,-96,-9,55,30
1330,80,-2048,-32,-8,55,33
1335,80,-2032,-96,-9,55,33
1340,88,-2040,-64,-8,56,34
1345,88,-2032,-48,-10,55,37
1350,88,-2024,-72,-11,57,38
1355,72,-2032,-104,-11,59,41
1360,88,-2048,-88,-13,61,42
1365,104,-2056,-72,-14,63,43
1370,96,-2072,-80,-14,66,44
1375,88,-2032,-88,-13,68,45
1380,136,-2024,-56,-14,70,44
1385,120,-2048,-88,-13,72,44
1390,80,-2056,-112,-15,75,43
1395,112,-2064,-96,-17,76,43
1400,48,-2024,-48,-19,78,42
1405,72,-2040,-80,-21,77,41
1410,64,-2032,-104,-20,75,41
1415,104,-2064,-88,-18,72,39
1420,80,-2048,-64,-17,71,41
1425,72,-2056,-88,-16,70,41
1430,64,-2032,-128,-15,70,42
1435,56,-2064,-104,-14,70,43
1440,48,-2024,-88,-14,68,44
1445,72,-2032,-104,-15,68,45
1450,56,-2024,-96,-17,68,48
1455,64,-2048,-80,-18,67,49
1460,56,-2064,-104,-19,68,49
1465,64,-2032,-112,-21,68,50
1470,56,-2048,-88,-22,69,49
1475,72,-2048,-80,-22,71,50
1480,48,-2048,-88,-23,73,47
1485,72,-2056,-104,-24,74,47
1490,120,-2024,-96,-25,75,47
1495,80,-2024,-88,-26,78,47
1500,128,-2056,-96,-28,77,47
1505,96,-2040,-88,-30,78,48
1510,56,-2064,-112,-29,77,47
1515,88,-2032,-104,-28,77,48
1520,80,-2040,-104,-31,78,49
1525,48,-2056,-88,-31,78,48
1530,80,-2064,-120,-31,77,49
1535,32,-2032,-96,-30,75,48
1540,48,-2032,-112,-30,76,48
1545,80,-2032,-112,-29,77,47
1550,80,-2064,-104,-30,76,47
1555,72,-2064,-88,-30,78,48
1560,72,-2056,-120,-30,79,47
1565,64,-2056,-128,-30,79,47
1570,56,-2056,-120,-30,79,44
1575,48,-2032,-96,-29,79,44
1580,72,-2072,-64,-30,79,43
1585,72,-2048,-88,-29,80,44
1590,64,-2064,-136,-28,79,44
1595,72,-2056,-112,-27,80,44
1600,48,-2032,-96,-25,82,46
1605,72,-2064,-128,-22,83,47
1610,72,-2040,-80,-22,85,49
1615,64,-2048,-104,-21,86,49
1620,80,-2048,-88,-18,86,50
1625,64,-2048,-96,-16,86,52
1630,64,-2048,-128,-13,86,53
1635,56,-2064,-120,-10,87,55
1640,40,-2040,-104,-8,87,58
1645,32,-2056,-120,-4,88,61
1650,56,-2040,-112,-3,89,63
1655,56,-2032,-128,-2,90,63
1660,48,-2024,-152,-1,92,67
1665,56,-2064,-128,1,96,70
1670,48,-2064,-96,5,99,71
1675,48,-2032,-112,8,100,71
1680,32,-2064,-136,13,101,75
1685,72,-2048,-112,18,100,76
1690,32,-2072,-96,20,100,76
1695,40,-2056,-80,20,99,77
1700,24,-2064,-120,19,97,77
1705,64,-2040,-56,16,95,79
1710,24,-2048,-112,11,94,77
1715,40,-2032,-96,6,93,75
1720,16,-2024,-32,0,90,75
1725,40,-2048,-88,-6,88,73
1730,16,-2032,-80,-11,86,72
1735,16,-2040,-80,-14,83,72
1740,32,-2040,-120,-17,82,73
1745,40,-2056,-120,-20,81,73
1750,40,-2040,-112,-20,77,72
1755,32,-2056,-96,-22,73,72
1760,40,-2048,-80,-22,72,72
1765,32,-2040,-88,-22,69,73
1770,32,-2032,-88,-22,67,75
1775,16,-2040,-88,-22,66,76
1780,32,-2056,-96,-22,67,77
1785,40,-2048,-96,-21,67,77
1790,24,-2048,-80,-21,67,78
1795,24,-2032,-88,-23,67,78
1800,40,-2056,-104,-23,67,77
1805,16,-2024,-88,-25,65,78
1810,24,-2032,-88,-25,65,79
1815,40,-2040,-120,-26,67,79
1820,24,-2024,-80,-27,67,79
1825,16,-2048,-104,-28,68,79
1830,8,-2032,-64,-29,70,79
1835,32,-2040,-96,-30,70,80
1840,32,-2024,-104,-30,73,81
1845,16,-2048,-112,-31,75,81
1850,32,-2024,-72,-32,75,81
1855,72,-2048,-80,-34,76,79
1860,40,-2064,-88,-35,79,80
1865,48,-2040,-104,-37,80,82
1870,56,-2064,-96,-37,84,82
1875,32,-2032,-120,-39,86,83
1880,16,-2024,-104,-41,88,84
1885,24,-2024,-96,-43,92,86
1890,24,-2064,-72,-46,95,89
1895,32,-2040,-112,-49,98,91
1900,32,-2024,-104,-51,100,94
1905,32,-2040,-120,-54,103,95
1910,16,-2032,-120,-57,104,95
1915,24,-2040,-128,-60,105,96
1920,8,-2008,-96,-63,107,97
1925,24,-2064,-72,-66,109,97
1930,40,-2064,-96,-66,111,99
1935,48,-2064,-80,-66,113,99
1940,32,-2080,-96,-66,117,100
1945,8,-2048,-136,-65,117,100
1950,32,-2056,-104,-67,118,99
1955,32,-2056,-104,-69,119,101
1960,8,-2040,-120,-71,120,100
1965,0,-2064,-112,-74,119,99
1970,0,-2032,-144,-77,118,99
1975,16,-2024,-104,-80,114,99
1980,0,-2040,-112,-85,114,99
1985,0,-2072,-112,-85,113,98
1990,-8,-2080,-120,-85,113,98
1995,0,-2088,-136,-84,113,98
2000,0,-2056,-120,-82,113,99
2005,0,-2056,-144,-80,114,100
2010,0,-2056,-80,-77,115,103
2015,-16,-2032,-144,-75,117,104
2020,0,-2048,-128,-74,117,105
2025,0,-2056,-144,-73,117,106
2030,32,-2024,-136,-72,114,104
2035,0,-2056,-152,-70,115,102
2040,8,-2040,-120,-69,115,98
2045,8,-2040,-128,-67,117,96
2050,0,-2024,-144,-67,120,92
2055,0,-2040,-144,-67,122,90
2060,-8,-2032,-120,-67,125,90
2065,0,-2056,-120,-67,127,88
2070,-24,-2056,-136,-65,129,88
2075,-48,-2048,-152,-66,133,88
2080,-56,-2048,-128,-64,134,88
2085,-40,-2064,-120,-63,138,88
2090,-56,-2056,-144,-60,141,89
2095,-72,-2056,-152,-57,142,88
2100,-40,-2056,-128,-55,146,87
2105,-72,-2032,-112,-54,146,86
2110,-40,-2048,-160,-55,145,87
2115,-56,-2032,-152,-55,143,87
2120,-8,-2040,-136,-55,144,87
2125,-80,-2032,-152,-56,144,85
2130,-48,-2056,-160,-59,147,85
2135,-24,-2056,-144,-60,149,84
2140,-16,-2088,-80,-61,151,83
2145,-64,-2056,-144,-64,152,81
2150,-56,-2040,-136,-64,152,80
2155,-80,-2040,-152,-66,153,79
2160,-64,-2040,-144,-66,154,80
2165,-56,-2056,-128,-65,157,78
2170,-80,-2056,-160,-67,160,76
2175,-64,-2048,-144,-65,161,76
2180,-64,-2064,-128,-67,162,76
2185,-88,-2048,-152,-67,164,76
2190,-56,-2056,-144,-68,164,76
2195,-56,-2056,-144,-67,165,72
2200,-64,-2040,-168,-67,164,72
2205,-72,-2048,-144,-67,161,70
2210,-80,-2032,-160,-65,161,71
2215,-80,-2064,-144,-64,161,68
2220,-80,-2032,-152,-65,156,66
2225,-72,-2056,-160,-65,155,64
2230,-80,-2032,-160,-68,153,64
2235,-96,-2024,-144,-71,149,63
2240,-80,-2032,-152,-72,148,59
2245,-72,-2032,-160,-74,146,56
2250,-88,-2064,-160,-75,141,54
2255,-88,-2040,-152,-76,138,53
2260,-120,-2008,-144,-76,132,50
2265,-104,-2032,-152,-76,131,48
2270,-104,-2032,-152,-76,129,46
2275,-96,-2072,-176,-76,127,46
2280,-56,-2064,-136,-77,124,46
2285,-88,-2032,-176,-77,122,45
2290,-112,-2048,-152,-78,120,44
2295,-104,-2040,-160,-77,118,43
2300,-96,-2064,-168,-79,116,41
2305,-96,-2056,-160,-79,112,41
2310,-96,-2048,-160,-80,111,40
2315,-80,-2040,-160,-80,109,39
2320,-96,-2048,-160,-82,108,37
2325,-120,-2032,-144,-83,107,36
2330,-128,-2048,-160,-85,106,35
2335,-128,-2008,-160,-86,105,33
2340,-96,-2032,-152,-87,102,32
2345,-120,-2032,-160,-87,101,31
2350,-136,-2032,-152,-88,100,29
2355,-104,-2024,-160,-88,98,29
2360,-112,-2056,-152,-88,95,29
2365,-112,-2040,-152,-86,93,30
2370,-96,-2040,-200,-84,90,29
2375,-112,-2048,-160,-82,89,27
2380,-112,-2024,-160,-80,89,26
2385,-112,-2040,-200,-78,88,25
2390,-112,-2032,-168,-76,87,24
2395,-104,-2064,-184,-75,86,22
2400,-112,-2040,-160,-73,85,20
2405,-112,-2064,-144,-74,86,20
2410,-112,-2032,-176,-73,85,18
2415,-120,-2048,-160,-73,84,17
2420,-112,-2024,-176,-74,84,14
2425,-88,-2056,-168,-74,83,13
2430,-80,-2048,-160,-75,82,12
2435,-136,-2048,-152,-76,81,10
2440,-104,-2064,-168,-78,78,8
2445,-88,-2056,-152,-78,76,7
2450,-96,-2024,-160,-80,72,7
2455,-88,-2040,-160,-81,70,6
2460,-96,-2040,-160,-81,69,3
2465,-104,-2040,-200,-82,66,3
2470,-104,-2016,-144,-83,64,2
2475,-88,-2056,-152,-84,63,0
2480,-80,-2048,-160,-85,60,0
2485,-80,-2048,-160,-86,59,-2
2490,-80,-2048,-192,-87,58,-6
2495,-104,-2024,-176,-88,58,-7
2500,-96,-2016,-160,-88,56,-10
2505,-104,-2024,-176,-90,54,-10
2510,-96,-2008,-176,-91,54,-12
2515,-88,-2040,-168,-91,53,-13
2520,-80,-2040,-160,-93,52,-15
2525,-104,-2056,-176,-92,51,-15
2530,-104,-2032,-184,-91,50,-14
2535,-96,-2048,-176,-92,49,-16
2540,-88,-2032,-176,-91,49,-16
2545,-88,-2032,-168,-92,48,-16
2550,-88,-2040,-184,-91,47,-16
2555,-120,-2048,-192,-91,46,-15
2560,-88,-2048,-216,-90,47,-15
2565,-80,-2048,-192,-91,48,-16
2570,-72,-2048,-168,-91,49,-17
2575,-96,-2048,-184,-90,50,-17
2580,-64,-2032,-176,-91,50,-17
2585,-72,-2048,-200,-90,52,-18
2590,-80,-2048,-176,-90,53,-18
2595,-80,-2048,-192,-90,54,-17
2600,-104,-2032,-176,-89,53,-15
2605,-88,-2040,-160,-87,56,-15
2610,-88,-2040,-200,-87,57,-13
2615,-48,-2056,-176,-87,59,-15
2620,-96,-2048,-200,-87,58,-16
2625,-40,-2056,-184,-89,58,-16
2630,-104,-2048,-184,-90,58,-16
2635,-64,-2064,-208,-92,56,-17
2640,-80,-2064,-192,-93,56,-19
2645,-64,-2040,-240,-93,57,-19
2650,-56,-2056,-184,-95,54,-21
2655,-72,-2072,-208,-96,53,-22
2660,-88,-2056,-200,-96,52,-23
2665,-96,-2024,-216,-96,49,-23
2670,-104,-2032,-208,-95,50,-23
2675,-88,-2056,-208,-92,50,-23
2680,-104,-2056,-224,-90,50,-24
2685,-88,-2032,-200,-88,49,-24
2690,-88,-2032,-176,-85,49,-24
2695,-72,-2024,-232,-81,49,-25
2700,-64,-2064,-224,-77,51,-26
2705,-48,-2056,-216,-74,51,-26
2710,-48,-2048,-224,-73,53,-25
2715,-40,-2032,-200,-70,55,-26
2720,-48,-2016,-200,-68,58,-24
2725,-64,-2032,-240,-66,61,-24
2730,-64,-2024,-224,-68,64,-24
2735,-40,-2024,-224,-70,67,-24
2740,-48,-2032,-248,-72,68,-22
2745,-56,-2024,-216,-75,69,-23
2750,-40,-2024,-216,-79,70,-22
2755,-64,-2008,-256,-84,69,-22
2760,-72,-2016,-232,-86,69,-21
2765,-56,-2040,-232,-90,68,-20
2770,-48,-2024,-256,-91,65,-18
2775,-72,-2056,-232,-92,65,-17
2780,-72,-2040,-240,-95,64,-16
2785,-56,-2048,-288,-95,64,-16
2790,-72,-2024,-272,-95,63,-18
2795,-56,-2040,-216,-94,63,-16
2800,-56,-2048,-224,-94,64,-15
2805,-72,-2064,-264,-92,66,-14
2810,-56,-2048,-272,-92,67,-14
2815,-72,-2040,-248,-89,69,-11
2820,-64,-2040,-224,-88,72,-12
2825,-56,-2040,-248,-85,75,-11
2830,-32,-2024,-240,-83,75,-11
2835,-48,-2032,-280,-84,78,-10
2840,-24,-2056,-264,-83,79,-10
2845,-48,-2048,-232,-83,81,-9
2850,-48,-2040,-264,-83,83,-8
2855,-24,-2032,-256,-82,85,-7
2860,-48,-2024,-256,-83,88,-6
2865,-40,-2032,-240,-84,89,-5
2870,-56,-2032,-256,-84,90,-4
2875,-64,-2064,-240,-84,90,-3
2880,-56,-2056,-248,-85,89,-3
2885,-56,-2024,-240,-82,87,-2
2890,-64,-2016,-280,-83,84,-2
2895,-80,-2056,-272,-82,84,-1
2900,-64,-2048,-240,-81,83,-1
2905,-112,-2096,-200,-78,80,-1
2910,-72,-2032,-256,-79,79,-2
2915,-64,-2056,-248,-78,77,-4
2920,-64,-2040,-288,-77,74,-4
2925,-72,-2040,-272,-75,74,-5
2930,-56,-2032,-256,-75,74,-6
2935,-72,-2056,-272,-73,74,-6
2940,-64,-2032,-288,-71,72,-7
2945,-64,-2048,-280,-69,74,-4
2950,-24,-2064,-272,-67,74,-4
2955,-40,-2040,-264,-65,75,-3
2960,-80,-2040,-272,-63,75,1
2965,-64,-2024,-280,-62,78,1
2970,-64,-2024,-280,-58,78,1
2975,-56,-2024,-304,-58,80,-1
2980,-88,-2008,-288,-60,80,0
2985,-80,-1992,-280,-63,80,-3
2990,-96,-2000,-280,-66,79,-4
2995,-64,-2040,-280,-68,78,-4
3000,-88,-2008,-272,-71,79,-3
3005,-80,-2040,-264,-74,79,-1
3010,-64,-2080,-280,-75,81,0
3015,-88,-2032,-280,-76,81,0
3020,-72,-2056,-280,-76,81,1
3025,-80,-2040,-264,-76,82,2
3030,-88,-2072,-264,-75,80,4
3035,-80,-2048,-280,-76,80,5
3040,-72,-2048,-280,-74,80,6
3045,-56,-2056,-240,-74,82,8
3050,-64,-2032,-280,-72,83,8
3055,-48,-2024,-280,-70,82,10
3060,-48,-2024,-288,-71,83,12
3065,-48,-2032,-280,-70,84,11
3070,-40,-2024,-280,-73,86,12
3075,-72,-2016,-296,-74,86,11
3080,-56,-2024,-296,-75,88,11
3085,-48,-2040,-296,-78,89,11
3090,-80,-2040,-304,-81,90,11
3095,-56,-2040,-288,-83,93,10
3100,-88,-2008,-288,-84,92,11
3105,-88,-2032,-304,-86,92,11
3110,-80,-2040,-296,-89,91,10
3115,-80,-2024,-288,-89,90,9
3120,-88,-2048,-280,-90,88,11
3125,-56,-2040,-288,-90,85,9
3130,-80,-2040,-256,-91,83,10
3135,-64,-2016,-280,-92,82,11
3140,-80,-2056,-304,-92,81,12
3145,-80,-2032,-296,-92,81,12
3150,-72,-2048,-288,-92,78,13
3155,-72,-2040,-312,-93,79,12
3160,-72,-2008,-288,-92,78,13
3165,-64,-2024,-320,-94,78,16
3170,-40,-2024,-288,-94,79,15
3175,-80,-2024,-312,-95,79,15
3180,-32,-2024,-296,-97,80,15
3185,-88,-2024,-280,-96,81,15
3190,-80,-2016,-296,-98,81,14
3195,-56,-2016,-304,-98,80,15
3200,-88,-2024,-280,-101,82,15
3205,-64,-2024,-320,-101,83,16
3210,-72,-2040,-312,-104,83,16
3215,-80,-2040,-312,-106,84,17
3220,-72,-2008,-320,-107,83,17
3225,-88,-2032,-272,-108,83,19
3230,-72,-2024,-304,-110,84,20
3235,-80,-2056,-288,-111,86,21
3240,-72,-2040,-312,-112,85,20
3245,-64,-2040,-312,-113,86,20
3250,-80,-2048,-320,-114,84,20
3255,-64,-2000,-312,-115,83,22
3260,-88,-2008,-312,-115,83,21
3265,-64,-2000,-296,-116,81,20
3270,-80,-2000,-320,-120,80,21
3275,-80,-2040,-312,-122,80,21
3280,-80,-2024,-304,-124,80,22
3285,-80,-2032,-312,-125,78,22
3290,-56,-2040,-304,-127,79,22
3295,-96,-2032,-296,-128,81,22
3300,-80,-2040,-312,-127,80,23
3305,-104,-2024,-312,-128,79,23
3310,-80,-2024,-280,-130,81,24
3315,-88,-2000,-320,-133,79,25
3320,-96,-2008,-328,-134,80,25
3325,-64,-2016,-336,-136,81,25
3330,-96,-2040,-352,-140,81,25
3335,-64,-2024,-344,-141,82,26
3340,-96,-2032,-256,-146,81,24
3345,-64,-2048,-344,-149,82,23
3350,-72,-2008,-352,-150,81,23
3355,-72,-2008,-336,-154,83,23
3360,-72,-2024,-304,-159,81,23
3365,-104,-2008,-352,-161,83,22
3370,-96,-2032,-360,-165,82,22
3375,-72,-2016,-344,-169,81,22
3380,-96,-2008,-352,-172,81,22
3385,-96,-1992,-336,-173,82,22
3390,-80,-2024,-376,-175,81,23
3395,-96,-2056,-352,-178,81,26
3400,-88,-2024,-360,-177,82,27
3405,-88,-2008,-344,-177,84,28
3410,-96,-2024,-344,-178,83,29
3415,-80,-2016,-344,-180,84,30
3420,-88,-2008,-328,-182,83,31
3425,-104,-2024,-384,-182,81,33
3430,-104,-2016,-376,-183,81,33
3435,-96,-2016,-368,-186,79,33
3440,-96,-2000,-384,-187,79,32
3445,-80,-2016,-368,-188,79,33
3450,-112,-2000,-384,-191,79,32
3455,-88,-1984,-368,-192,79,31
3460,-88,-2048,-376,-192,80,31
3465,-72,-2024,-384,-194,80,31
3470,-88,-2024,-392,-197,79,32
3475,-96,-1984,-336,-197,81,33
3480,-88,-1992,-368,-200,80,34
3485,-96,-2008,-368,-202,80,33
3490,-88,-2008,-392,-204,81,35
3495,-104,-1992,-408,-207,83,37
3500,-88,-2016,-416,-211,83,37
3505,-104,-1984,-416,-212,83,39
3510,-64,-1992,-408,-216,85,40
3515,-40,-2016,-392,-220,85,40
3520,-104,-2000,-416,-224,86,38
3525,-72,-1992,-432,-226,88,40
3530,-80,-2008,-432,-227,87,40
3535,-80,-2032,-408,-231,86,39
3540,-96,-2016,-432,-232,85,41
3545,-72,-1992,-424,-232,86,40
3550,-72,-2008,-416,-233,87,41
3555,-96,-2024,-424,-233,88,41
3560,-104,-2016,-424,-236,89,43
3565,-104,-2008,-448,-238,89,43
3570,-88,-1992,-432,-240,90,44
3575,-104,-2024,-472,-242,89,44
3580,-104,-2000,-432,-244,89,45
3585,-88,-2000,-448,-248,89,45
3590,-80,-2000,-432,-251,89,44
3595,-80,-2000,-480,-254,91,44
3600,-144,-1992,-456,-256,92,47
3605,-96,-1992,-432,-261,94,48
3610,-80,-1992,-448,-265,97,48
3615,-96,-1992,-464,-268,98,49
3620,-88,-1984,-472,-272,98,49
3625,-80,-1992,-448,-277,98,50
3630,-96,-1992,-464,-283,100,50
3635,-88,-1992,-472,-288,101,51
3640,-88,-1992,-472,-293,103,52
3645,-96,-1992,-464,-298,103,52
3650,-80,-1992,-504,-302,105,51
3655,-80,-1992,-512,-307,104,51
3660,-72,-2000,-536,-310,105,50
3665,-96,-2000,-488,-313,105,52
3670,-88,-1984,-488,-315,107,52
3675,-88,-2008,-496,-319,106,51
3680,-104,-1992,-472,-324,107,52
3685,-104,-1984,-496,-328,107,52
3690,-112,-1976,-536,-331,109,53
3695,-80,-1984,-488,-335,110,52
3700,-88,-1984,-536,-338,113,54
3705,-112,-1984,-544,-342,115,55
3710,-112,-1984,-504,-347,116,53
3715,-88,-1960,-536,-351,117,55
3720,-96,-1976,-544,-354,119,55
3725,-96,-1976,-520,-358,123,54
3730,-104,-1976,-528,-361,126,53
3735,-88,-1984,-544,-368,129,56
3740,-104,-1968,-536,-374,130,58
3745,-72,-1968,-552,-381,133,60
3750,-104,-1968,-552,-386,135,60
3755,-88,-1968,-536,-392,138,59
3760,-88,-1992,-568,-397,139,57
3765,-112,-1960,-560,-401,143,57
3770,-104,-1984,-568,-405,146,57
3775,-136,-1976,-584,-405,148,54
3780,-112,-1976,-568,-403,149,54
3785,-104,-1976,-576,-399,149,57
3790,-112,-2000,-568,-395,153,58
3795,-128,-1976,-600,-392,152,59
3800,-128,-1984,-608,-392,155,60
3805,-136,-1976,-600,-392,155,63
3810,-112,-1960,-616,-393,156,65
3815,-96,-1992,-616,-395,157,68
3820,-96,-1960,-632,-394,158,71
3825,-112,-1960,-632,-394,160,71
3830,-104,-1944,-624,-394,164,73
3835,-88,-1960,-648,-395,168,72
3840,-96,-1968,-640,-399,173,70
3845,-104,-1968,-656,-402,177,72
3850,-136,-1960,-656,-407,181,73
3855,-96,-1944,-648,-412,186,75
3860,-104,-1928,-664,-418,193,73
3865,-72,-1952,-672,-424,199,75
3870,-88,-1928,-664,-432,205,74
3875,-104,-1928,-656,-440,209,74
3880,-88,-1936,-672,-446,212,74
3885,-16,-1952,-672,-456,215,73
3890,-48,-1944,-664,-461,222,69
3895,-96,-1936,-664,-467,230,68
3900,-88,-1920,-680,-482,234,70
3905,-88,-1928,-696,-497,237,74
3910,-96,-1928,-712,-510,240,75
3915,-88,-1920,-696,-516,249,72
3920,-96,-1928,-680,-524,255,72
3925,-112,-1928,-704,-533,258,72
3930,-136,-1904,-712,-542,259,72
3935,-176,-1904,-704,-549,262,70
3940,-144,-1896,-712,-559,263,73
3945,-152,-1904,-728,-567,266,74
3950,-160,-1928,-744,-577,269,75
3955,-144,-1896,-728,-584,271,76
3960,-136,-1920,-768,-588,275,75
3965,-176,-1880,-744,-590,277,76
3970,-152,-1888,-784,-595,279,75
3975,-152,-1872,-768,-601,280,75
3980,-160,-1896,-760,-612,281,75
3985,-152,-1880,-808,-621,284,74
3990,-120,-1904,-784,-630,288,75
3995,-168,-1888,-808,-637,293,77
4000,-120,-1904,-776,-644,298,78
4005,-136,-1880,-784,-649,303,76
4010,-120,-1872,-816,-654,308,76
4015,-128,-1880,-824,-660,315,78
4020,-128,-1864,-840,-671,323,80
4025,-152,-1872,-832,-678,327,82
4030,-136,-1832,-864,-685,334,83
4035,-128,-1864,-848,-696,337,83
4040,-152,-1832,-864,-708,341,80
4045,-120,-1824,-872,-721,341,78
4050,-152,-1840,-872,-729,342,75
4055,-160,-1856,-880,-736,341,77
4060,-160,-1824,-872,-744,344,76
4065,-128,-1864,-904,-751,349,73
4070,-176,-1840,-904,-750,352,75
4075,-160,-1848,-872,-748,354,75
4080,-136,-1816,-928,-749,362,78
4085,-136,-1832,-912,-756,373,77
4090,-120,-1832,-928,-768,382,79
4095,-136,-1824,-928,-773,389,81
4100,-136,-1792,-960,-770,391,81
4105,-104,-1800,-936,-770,398,84
4110,-88,-1808,-992,-776,401,85
4115,-104,-1800,-968,-779,409,84
4120,-104,-1840,-960,-771,415,80
4125,-96,-1816,-1000,-759,413,78
4130,-120,-1848,-1008,-752,417,75
4135,-144,-1816,-1016,-735,421,74
4140,-152,-1840,-1056,-710,417,77
4145,-144,-1840,-1088,-679,411,80
4150,-112,-1816,-1136,-648,406,80
4155,-112,-1824,-1152,-619,402,75
4160,-136,-1792,-1136,-606,409,73
4165,-136,-1736,-1144,-599,416,67
4170,-88,-1688,-1128,-607,428,61
4175,-64,-1616,-1128,-644,442,59
4180,-64,-1576,-1112,-695,458,61
4185,-72,-1568,-1112,-742,468,56
4190,-32,-1528,-1080,-795,470,50
4195,-24,-1544,-1072,-841,468,44
4200,-48,-1576,-1104,-891,465,38
4205,-64,-1616,-1104,-937,463,27
4210,-128,-1600,-1208,-978,463,22
4215,-40,-1600,-1152,-1018,461,17
4220,-56,-1568,-1120,-1046,461,4
4225,0,-1528,-1176,-1087,465,-4
4230,-144,-1632,-1152,-1139,471,-2
4235,-104,-1640,-1176,-1146,441,-28
4240,-112,-1648,-1176,-1150,422,-53
4245,-176,-1608,-1216,-1158,406,-74
4250,-160,-1672,-1184,-1170,398,-84
4255,-152,-1656,-1216,-1179,405,-91
4260,-176,-1576,-1256,-1181,410,-103
4265,-136,-1584,-1208,-1175,409,-109
4270,-104,-1576,-1224,-1167,411,-116
4275,-96,-1576,-1248,-1166,411,-128
4280,-128,-1600,-1248,-1172,409,-140
4285,-112,-1680,-1256,-1180,398,-149
4290,-144,-1592,-1352,-1193,387,-155
4295,-128,-1576,-1312,-1204,383,-154
4300,-96,-1520,-1312,-1224,378,-148
4305,-80,-1480,-1320,-1231,370,-149
4310,-112,-1528,-1328,-1230,354,-160
4315,-96,-1552,-1320,-1226,327,-179
4320,-88,-1560,-1336,-1225,304,-201
4325,-152,-1560,-1344,-1234,290,-219
4330,-136,-1536,-1400,-1241,278,-224
4335,-144,-1480,-1384,-1256,275,-221
4340,-168,-1456,-1400,-1265,271,-225
4345,-144,-1440,-1384,-1267,255,-225
4350,-136,-1424,-1408,-1266,234,-227
4355,-144,-1448,-1416,-1266,217,-235
4360,-120,-1464,-1456,-1270,208,-247
4365,-160,-1488,-1472,-1286,205,-260
4370,-112,-1448,-1504,-1315,205,-274
4375,-192,-1416,-1472,-1340,203,-285
4380,-96,-1384,-1544,-1351,198,-287
4385,-152,-1368,-1544,-1372,192,-296
4390,-104,-1312,-1576,-1384,177,-307
4395,-64,-1360,-1520,-1377,156,-310
4400,-112,-1384,-1552,-1361,137,-317
4405,-120,-1416,-1528,-1351,112,-324
4410,-136,-1368,-1632,-1337,98,-327
4415,-200,-1272,-1584,-1321,93,-322
4420,-160,-1288,-1576,-1302,80,-311
4425,-16,-1368,-1680,-1292,61,-306
4430,0,-1312,-1688,-1299,52,-321
4435,-192,-1256,-1680,-1322,56,-335
4440,-144,-1184,-1696,-1342,56,-339
4445,-160,-1160,-1672,-1351,54,-336
4450,-112,-1208,-1696,-1346,53,-335
4455,-112,-1216,-1712,-1339,48,-339
4460,-80,-1208,-1712,-1351,40,-364
4465,-136,-1168,-1800,-1359,37,-383
4470,-168,-1112,-1720,-1369,40,-398
4475,-136,-1128,-1760,-1375,30,-404
4480,-208,-1064,-1704,-1373,26,-413
4485,-272,-1008,-1696,-1360,0,-411
4490,-88,-1064,-1728,-1340,-45,-413
4495,-56,-1184,-1720,-1326,-77,-426
4500,-64,-1208,-1752,-1312,-102,-454
4505,-72,-1152,-1816,-1304,-113,-477
4510,-56,-1064,-1832,-1291,-118,-494
4515,-72,-968,-1808,-1279,-118,-499
4520,-104,-936,-1864,-1270,-119,-495
4525,-96,-960,-1864,-1267,-122,-491
4530,-96,-1000,-1792,-1267,-143,-497
4535,-24,-1048,-1800,-1262,-165,-505
4540,-32,-1064,-1760,-1254,-187,-527
4545,-24,-1000,-1744,-1229,-199,-547
4550,8,-968,-1824,-1213,-212,-561
4555,0,-944,-1760,-1196,-223,-578
4560,16,-960,-1776,-1185,-230,-595
4565,-8,-952,-1800,-1166,-235,-605
4570,32,-960,-1800,-1154,-236,-617
4575,56,-984,-1792,-1139,-238,-626
4580,0,-952,-1816,-1116,-233,-633
4585,72,-968,-1832,-1086,-227,-637
4590,32,-952,-1840,-1050,-226,-639
4595,64,-912,-1872,-1010,-226,-645
4600,112,-936,-1904,-984,-233,-647
4605,80,-872,-1888,-962,-239,-657
4610,152,-856,-1976,-946,-246,-667
4615,104,-824,-1928,-935,-250,-678
4620,136,-824,-1912,-917,-253,-687
4625,160,-856,-1944,-893,-254,-690
4630,104,-832,-1912,-872,-255,-696
4635,144,-824,-1912,-843,-255,-696
4640,192,-768,-1904,-817,-252,-703
4645,160,-760,-1928,-804,-242,-706
4650,96,-688,-1928,-798,-232,-709
4655,112,-680,-1920,-801,-222,-710
4660,152,-712,-1944,-809,-218,-715
4665,152,-672,-1904,-817,-215,-715
4670,144,-640,-1928,-831,-216,-716
4675,144,-656,-1856,-841,-216,-715
4680,184,-664,-1848,-838,-217,-713
4685,168,-576,-1864,-838,-227,-716
4690,208,-632,-1944,-845,-228,-715
4695,136,-640,-1864,-840,-223,-711
4700,200,-632,-1888,-836,-223,-709
4705,232,-584,-1856,-827,-217,-708
4710,224,-576,-1912,-818,-214,-702
4715,160,-536,-1904,-807,-209,-691
4720,248,-552,-1872,-796,-201,-680
4725,272,-440,-1920,-789,-192,-671
4730,296,-488,-1896,-793,-174,-661
4735,280,-488,-1896,-793,-157,-648
4740,264,-488,-1928,-797,-140,-634
4745,296,-464,-1984,-795,-133,-626
4750,288,-528,-1952,-788,-124,-620
4755,256,-472,-1928,-783,-117,-612
4760,264,-480,-1968,-779,-112,-606
4765,224,-488,-1976,-776,-108,-600
4770,232,-472,-1984,-770,-108,-595
4775,152,-440,-1960,-765,-103,-588
4780,224,-448,-2000,-764,-108,-581
4785,232,-432,-1992,-767,-111,-579
4790,200,-400,-2032,-774,-121,-575
4795,160,-408,-1992,-783,-130,-574
4800,224,-440,-1992,-787,-134,-570
4805,152,-432,-2040,-794,-147,-566
4810,136,-440,-2016,-803,-162,-563
4815,96,-384,-2056,-798,-171,-564
4820,152,-408,-2032,-806,-187,-559
4825,64,-368,-2056,-809,-199,-559
4830,32,-408,-2040,-813,-223,-560
4835,112,-408,-2048,-815,-256,-562
4840,152,-456,-2080,-807,-287,-565
4845,208,-440,-2056,-784,-317,-574
4850,152,-368,-2104,-755,-341,-586
4855,184,-416,-2152,-741,-361,-593
4860,104,-392,-2192,-732,-377,-602
4865,152,-408,-2176,-728,-397,-603
4870,144,-400,-2144,-721,-408,-602
4875,192,-392,-2144,-711,-418,-609
4880,80,-368,-2128,-699,-432,-612
4885,96,-392,-2144,-697,-464,-614
4890,184,-424,-2136,-696,-491,-623
4895,152,-408,-2040,-677,-509,-645
4900,160,-392,-2120,-648,-532,-664
4905,128,-432,-2096,-628,-548,-675
4910,120,-416,-2152,-607,-560,-688
4915,168,-400,-2104,-590,-571,-702
4920,48,-336,-2128,-568,-576,-719
4925,24,-328,-2120,-557,-583,-730
4930,0,-304,-2080,-541,-590,-737
4935,-24,-296,-2008,-534,-603,-744
4940,24,-328,-2000,-537,-622,-757
4945,48,-320,-1944,-539,-637,-771
4950,8,-312,-2016,-545,-651,-795
4955,48,-328,-1976,-561,-670,-820
4960,56,-304,-1928,-576,-685,-848
4965,32,-304,-1928,-578,-688,-874
4970,40,-312,-1912,-585,-701,-903
4975,56,-336,-1944,-582,-702,-928
4980,-8,-344,-1976,-576,-705,-946
4985,24,-416,-1960,-583,-721,-950
4990,64,-472,-1968,-572,-731,-955
4995,40,-472,-1952,-548,-743,-957
5000,16,-520,-1936,-517,-759,-963
5005,32,-512,-1920,-474,-780,-970
5010,64,-464,-1936,-429,-810,-979
5015,48,-392,-1856,-390,-845,-989
5020,40,-344,-1816,-361,-888,-996
5025,72,-296,-1840,-337,-937,-1009
5030,80,-264,-1840,-320,-989,-1027
5035,72,-280,-1800,-314,-1044,-1047
5040,88,-280,-1832,-306,-1100,-1072
5045,96,-256,-1800,-298,-1156,-1094
5050,104,-232,-1832,-293,-1210,-1108
5055,72,-184,-1848,-289,-1261,-1112
5060,128,-184,-1880,-289,-1308,-1107
5065,112,-208,-1952,-300,-1352,-1098
5070,160,-152,-1976,-316,-1400,-1089
5075,184,-144,-2040,-327,-1454,-1084
5080,168,-160,-2024,-337,-1505,-1074
5085,128,-168,-2040,-350,-1551,-1062
5090,88,-152,-2024,-373,-1595,-1045
5095,64,-168,-2000,-403,-1638,-1028
5100,8,-184,-1992,-434,-1683,-1010
5105,0,-216,-2008,-455,-1733,-992
5110,-24,-272,-1992,-466,-1783,-976
5115,-16,-296,-1976,-475,-1836,-962
5120,0,-288,-1968,-487,-1884,-949
5125,0,-264,-1992,-501,-1931,-936
5130,8,-232,-1960,-520,-1978,-920
5135,24,-256,-1936,-541,-2023,-901
5140,64,-224,-1936,-567,-2069,-881
5145,40,-232,-1928,-592,-2109,-865
5150,72,-216,-1888,-617,-2150,-843
5155,88,-176,-1864,-644,-2180,-824
5160,88,-144,-1888,-683,-2212,-807
5165,16,-40,-1896,-733,-2235,-795
5170,16,-32,-1864,-791,-2266,-771
5175,0,-80,-1856,-838,-2299,-733
5180,-24,-88,-1840,-878,-2324,-686
5185,-72,-56,-1840,-913,-2346,-635
5190,-136,-32,-1792,-954,-2361,-579
5195,-200,-24,-1824,-997,-2383,-517
5200,-264,-24,-1840,-1044,-2403,-451
5205,-296,-16,-1864,-1102,-2427,-376
5210,-304,40,-1888,-1171,-2447,-286
5215,-304,72,-1848,-1243,-2460,-184
5220,-240,168,-1880,-1315,-2462,-86
5225,-336,272,-1864,-1385,-2442,-3
5230,-472,352,-1976,-1469,-2433,75
5235,-584,296,-2056,-1599,-2437,173
5240,-528,176,-2120,-1777,-2437,303
5245,-480,80,-2104,-1957,-2397,443
5250,-360,40,-2008,-2083,-2313,578
5255,-216,136,-1920,-2139,-2201,699
5260,-128,368,-1856,-2160,-2068,799
5265,-120,728,-1920,-2204,-1940,872
5270,-96,952,-1952,-2291,-1817,944
5275,-240,1080,-1984,-2387,-1702,1013
5280,-424,1104,-2008,-2460,-1586,1079
5285,-648,1048,-2032,-2503,-1457,1144
5290,-920,960,-2032,-2536,-1327,1215
5295,-1192,904,-2112,-2578,-1208,1293
5300,-1296,832,-2080,-2637,-1107,1370
5305,-1400,840,-2024,-2713,-1044,1420
5310,-1480,872,-1952,-2805,-1025,1437
5315,-1448,856,-1816,-2928,-1045,1426
5320,-1304,736,-1696,-3048,-1122,1374
5325,-1096,592,-1640,-3148,-1216,1289
5330,-1016,456,-1512,-3195,-1312,1179
5335,-888,312,-1496,-3190,-1407,1077
5340,-768,128,-1448,-3150,-1474,990
5345,-632,56,-1400,-3073,-1516,911
5350,-504,32,-1384,-2969,-1524,839
5355,-440,32,-1368,-2840,-1503,747
5360,-416,128,-1272,-2745,-1490,623
5365,-384,176,-1144,-2650,-1444,503
5370,-432,160,-952,-2524,-1374,402
5375,-272,168,-840,-2376,-1303,315
5380,-408,248,-736,-2207,-1261,224
5385,-432,312,-600,-1996,-1258,123
5390,-584,328,-568,-1754,-1273,-31
5395,-704,272,-432,-1477,-1306,-233
5400,-896,248,-368,-1218,-1379,-457
5405,-920,240,-344,-873,-1498,-728
5410,-1008,288,-328,-498,-1612,-1069
5415,-1064,416,-200,-118,-1687,-1465
5420,-1448,528,-112,243,-1719,-1918
5425,-1816,688,-32,539,-1718,-2407
5430,-2000,768,-16,725,-1717,-2876
5435,-2024,872,-136,810,-1749,-3291
5440,-2048,824,-112,818,-1756,-3628
5445,-2048,784,-184,801,-1754,-3814
5450,-2064,728,-88,743,-1681,-3942
5455,-2104,896,-32,684,-1668,-4082
5460,-2176,1384,-40,558,-1645,-4167
5465,-2096,1592,152,246,-1603,-4218
5470,-2264,1968,272,-178,-1676,-4354
5475,-2304,1968,256,-599,-1804,-4459
5480,-2072,2248,304,-1011,-1941,-4493
5485,-2216,2120,632,-1321,-1996,-4357
5490,-2592,1976,608,-1411,-2169,-4168
5495,-2952,1792,744,-1358,-2364,-3910
5500,-3176,1312,1008,-1231,-2526,-3540
5505,-3200,1048,984,-1083,-2653,-3203
5510,-3208,752,1176,-1041,-2705,-2952
5515,-2832,568,1184,-1092,-2752,-2814
5520,-2488,256,1368,-1184,-2861,-2732
5525,-2208,144,1432,-1234,-3103,-2710
5530,-2240,-88,1544,-1290,-3373,-2741
5535,-2520,64,1632,-1355,-3600,-2796
5540,-3032,264,1688,-1370,-3750,-2818
5545,-3680,528,1688,-1352,-3864,-2795
5550,-4272,640,1520,-1321,-3957,-2733
5555,-4800,744,1432,-1276,-4014,-2618
5560,-5304,680,1488,-1207,-4058,-2466
5565,-5528,504,1448,-1141,-4110,-2312
5570,-5608,392,1360,-1095,-4167,-2201
5575,-5520,456,1424,-1074,-4220,-2123
5580,-5416,528,1528,-1051,-4259,-2017
5585,-5232,600,1472,-991,-4266,-1862
5590,-4864,504,1416,-913,-4197,-1667
5595,-4544,328,1504,-821,-4003,-1447
5600,-4184,-40,1608,-700,-3704,-1179
5605,-3840,-232,1680,-537,-3350,-910
5610,-3232,-448,1776,-343,-2953,-669
5615,-2592,-528,1800,-157,-2537,-492
5620,-1840,-568,1872,-31,-2139,-410
5625,-968,-360,1912,23,-1780,-400
5630,-56,-128,1688,83,-1441,-397
5635,312,-88,1408,156,-1121,-376
5640,528,-96,1032,217,-848,-348
5645,432,168,800,236,-606,-303
5650,0,160,728,235,-425,-302
5655,-472,80,656,232,-281,-271
5660,-992,80,560,213,-205,-257
5665,-1432,-144,576,185,-181,-243
5670,-1784,-304,608,139,-237,-260
5675,-1880,-440,600,50,-347,-302
5680,-1856,-552,648,-52,-465,-340
5685,-1808,-624,800,-142,-584,-384
5690,-1728,-592,816,-230,-700,-421
5695,-1592,-624,760,-303,-824,-459
5700,-1464,-608,672,-357,-945,-516
5705,-1320,-656,568,-409,-1048,-591
5710,-1136,-616,560,-454,-1113,-668
5715,-1064,-608,624,-495,-1132,-744
5720,-1064,-576,752,-523,-1127,-813
5725,-1256,-584,872,-555,-1119,-870
5730,-1464,-640,944,-597,-1137,-916
5735,-1648,-712,1000,-649,-1168,-948
5740,-1864,-800,1000,-697,-1193,-962
5745,-2024,-904,1040,-731,-1196,-960
5750,-2136,-952,1128,-748,-1171,-930
5755,-2208,-960,1152,-758,-1131,-881
5760,-2288,-1032,1240,-766,-1066,-811
5765,-2216,-1016,1336,-759,-980,-718
5770,-2144,-952,1400,-745,-883,-613
5775,-1984,-928,1416,-735,-796,-500
5780,-1744,-904,1408,-724,-729,-397
5785,-1584,-896,1376,-716,-675,-314
5790,-1416,-832,1320,-714,-621,-232
5795,-1344,-832,1216,-716,-557,-145
5800,-1336,-776,1088,-725,-483,-62
5805,-1304,-752,1136,-740,-404,8
5810,-1312,-776,1160,-753,-341,60
5815,-1272,-840,1112,-758,-299,95
5820,-1208,-840,1096,-757,-265,116
5825,-1200,-776,1048,-756,-227,127
5830,-1168,-752,960,-755,-188,140
5835,-1128,-680,952,-756,-147,153
5840,-1080,-672,928,-759,-115,169
5845,-1048,-616,992,-761,-85,183
5850,-1104,-624,984,-754,-63,195
5855,-1224,-680,904,-745,-66,197
5860,-1440,-720,848,-740,-79,185
5865,-1520,-720,824,-745,-95,170
5870,-1584,-736,848,-753,-100,153
5875,-1592,-736,776,-770,-100,144
5880,-1592,-728,816,-776,-82,137
5885,-1576,-768,880,-770,-50,137
5890,-1568,-800,984,-759,-22,140
5895,-1544,-808,1040,-740,-2,151
5900,-1584,-864,1136,-714,24,169
5905,-1472,-848,1112,-703,60,191
5910,-1528,-848,1200,-695,117,209
5915,-1488,-888,1152,-683,173,230
5920,-1520,-848,1152,-664,228,247
5925,-1456,-824,1104,-639,276,268
5930,-1440,-824,1088,-612,333,283
5935,-1488,-848,1056,-589,395,297
5940,-1424,-832,1016,-569,455,309
5945,-1512,-856,1024,-555,528,322
5950,-1400,-840,1064,-544,584,338
5955,-1336,-824,1000,-530,629,349
5960,-1352,-792,952,-515,678,353
5965,-1408,-736,904,-504,722,357
5970,-1248,-696,856,-493,757,356
5975,-1536,-704,872,-481,799,355
5980,-1408,-640,824,-490,804,342
5985,-1504,-688,904,-497,831,335
5990,-1608,-632,904,-495,846,330
5995,-1584,-648,888,-502,854,329
6000,-1632,-688,864,-511,868,335
6005,-1672,-680,840,-525,888,359
6010,-1704,-808,832,-512,909,372
6015,-1656,-816,808,-493,913,352
6020,-1712,-824,816,-492,919,323
6025,-1752,-832,792,-498,921,292
6030,-1688,-848,744,-496,918,262
6035,-1752,-808,680,-477,924,238
6040,-1704,-776,688,-456,936,226
6045,-1664,-720,632,-435,962,212
6050,-1664,-712,672,-424,996,202
6055,-1608,-664,752,-411,1033,197
6060,-1680,-656,760,-400,1067,195
6065,-1696,-640,776,-387,1100,201
6070,-1720,-576,728,-374,1126,216
6075,-1768,-488,768,-362,1163,231
6080,-1736,-416,768,-348,1203,255
6085,-1928,-352,744,-329,1248,284
6090,-2032,-440,784,-308,1266,323
6095,-1968,-448,672,-275,1268,341
6100,-2008,-432,672,-229,1290,359
6105,-2168,-480,648,-177,1319,376
6110,-2072,-512,632,-133,1326,389
6115,-2192,-600,656,-76,1346,409
6120,-2184,-632,712,-25,1362,433
6125,-2160,-568,648,20,1391,451
6130,-2304,-600,632,57,1431,479
6135,-2224,-592,616,92,1452,500
6140,-2152,-520,528,140,1480,533
6145,-2048,-448,448,200,1512,579
6150,-2104,-416,416,273,1543,642
6155,-2056,-368,256,336,1547,694
6160,-1952,-336,224,359,1531,721
6165,-1952,-248,240,357,1521,731
6170,-2192,-304,360,369,1506,764
6175,-1944,-256,152,425,1458,816
6180,-1912,-208,104,447,1452,800
6185,-2024,-152,80,423,1454,755
6190,-2104,-136,32,396,1455,720
6195,-2168,-120,-40,385,1450,708
6200,-2208,-168,-104,376,1446,707
6205,-2256,-232,-96,367,1443,710
6210,-2248,-280,-104,377,1435,728
6215,-2224,-256,-160,386,1417,728
6220,-2208,-224,-160,378,1399,714
6225,-2200,-216,-200,371,1383,706
6230,-2136,-216,-208,351,1354,682
6235,-2160,-192,-248,327,1324,655
6240,-2120,-168,-320,300,1295,629
6245,-2096,-112,-320,264,1258,590
6250,-2152,-120,-312,229,1222,541
6255,-2128,-88,-312,207,1183,504
6260,-2096,-80,-368,185,1137,465
6265,-2072,-64,-336,153,1082,425
6270,-2024,-24,-392,119,1016,386
6275,-2072,-8,-376,89,939,349
6280,-2024,-16,-448,57,872,314
6285,-2048,0,-440,26,805,282
6290,-2080,8,-448,-6,741,255
6295,-2064,-16,-464,-44,685,228
6300,-2104,16,-480,-77,633,204
6305,-2080,-48,-488,-105,584,176
6310,-2120,-8,-480,-134,545,145
6315,-2136,-40,-504,-161,496,121
6320,-2152,-80,-488,-182,448,94
6325,-2144,-104,-528,-197,396,70
6330,-2136,-128,-488,-212,349,43
6335,-2176,-152,-512,-224,300,20
6340,-2120,-192,-536,-230,251,2
6345,-2056,-200,-544,-232,213,-10
6350,-2184,-184,-504,-233,174,-30
6355,-2176,-192,-472,-229,126,-44
6360,-2128,-208,-448,-226,76,-64
6365,-2128,-168,-488,-223,34,-85
6370,-2104,-152,-408,-223,2,-113
6375,-2160,-176,-424,-221,-25,-128
6380,-2112,-232,-384,-216,-56,-135
6385,-2032,-240,-424,-217,-92,-154
6390,-2200,-208,-360,-219,-120,-168
6395,-2168,-248,-320,-214,-148,-171
6400,-2136,-256,-312,-213,-181,-189
6405,-2008,-272,-360,-215,-213,-200
6410,-2240,-224,-248,-208,-227,-190
6415,-2160,-328,-248,-201,-259,-187
6420,-2120,-312,-208,-205,-296,-203
6425,-2128,-312,-224,-201,-330,-212
6430,-2136,-288,-168,-192,-355,-221
6435,-2128,-344,-168,-180,-374,-223
6440,-2128,-344,-168,-168,-391,-225
6445,-2048,-392,-144,-148,-402,-221
6450,-2104,-376,-80,-130,-409,-215
6455,-2080,-408,-88,-111,-423,-209
6460,-2056,-416,-56,-97,-425,-209
6465,-2048,-400,-56,-82,-423,-207
6470,-2048,-408,-48,-67,-418,-202
6475,-2040,-416,16,-52,-414,-200
6480,-2016,-400,32,-39,-407,-195
6485,-2032,-416,56,-27,-398,-190
6490,-1992,-400,32,-17,-390,-183
6495,-2024,-368,48,-11,-381,-175
6500,-2008,-352,16,-5,-372,-171
6505,-2032,-384,88,2,-359,-160
6510,-2048,-352,48,13,-356,-150
6515,-1992,-360,72,17,-353,-146
6520,-1984,-416,80,18,-345,-147
6525,-2016,-392,80,20,-337,-148
6530,-1976,-384,120,24,-326,-145
6535,-2008,-384,136,31,-313,-140
6540,-2008,-360,88,39,-301,-135
6545,-2008,-352,96,46,-290,-130
6550,-2024,-344,120,50,-277,-124
6555,-2024,-352,104,53,-265,-116
6560,-2016,-360,104,56,-255,-108
6565,-2016,-352,112,57,-245,-104
6570,-2000,-344,80,59,-235,-98
6575,-2024,-336,144,64,-224,-93
6580,-2000,-336,104,65,-209,-88
6585,-2000,-344,136,67,-198,-81
6590,-2008,-360,136,67,-189,-72
6595,-1976,-352,120,64,-179,-66
6600,-1952,-360,136,60,-170,-58
6605,-2008,-320,112,57,-162,-51
6610,-2008,-320,152,58,-157,-47
6615,-2008,-320,176,57,-150,-44
6620,-2008,-344,152,56,-147,-42
6625,-2016,-328,176,55,-143,-39
6630,-2016,-328,96,54,-138,-37
6635,-1992,-344,152,53,-133,-33
6640,-2040,-328,136,50,-126,-28
6645,-2008,-336,120,49,-121,-24
6650,-2040,-328,128,47,-114,-21
6655,-2024,-320,88,44,-105,-16
6660,-2040,-376,128,43,-101,-12
6665,-2040,-304,88,45,-95,-9
6670,-2048,-312,72,46,-90,-8
6675,-2040,-336,104,47,-86,-5
6680,-2040,-288,56,49,-81,-6
6685,-2064,-304,112,51,-77,-5
6690,-2056,-312,120,53,-76,-4
6695,-2048,-296,80,56,-72,-3
6700,-2048,-280,96,56,-68,-3
6705,-2056,-296,112,55,-63,-1
6710,-2032,-296,104,53,-59,1
6715,-2048,-288,128,50,-56,0
6720,-2056,-272,128,48,-52,-3
6725,-2064,-280,96,45,-48,-5
6730,-2056,-264,112,42,-45,-6
6735,-2056,-296,128,37,-41,-8
6740,-2048,-280,120,34,-37,-10
6745,-2056,-296,152,32,-34,-11
6750,-2056,-272,112,29,-31,-12
6755,-2040,-264,160,26,-30,-16
6760,-2056,-280,120,26,-25,-15
6765,-2056,-256,160,23,-23,-16
6770,-2040,-248,128,21,-20,-18
6775,-2064,-248,160,16,-17,-17
6780,-2048,-256,176,13,-14,-14
6785,-2024,-256,144,8,-13,-11
6790,-2040,-256,152,5,-12,-12
6795,-2032,-272,128,2,-9,-12
6800,-2032,-272,160,0,-4,-14
6805,-2032,-264,152,-2,0,-15
6810,-2024,-288,160,-2,3,-17
6815,-2024,-272,144,-4,7,-17
6820,-2024,-280,136,-4,11,-17
6825,-2040,-288,160,-5,15,-17
6830,-2032,-272,144,-7,20,-18
6835,-2056,-272,176,-9,24,-22
6840,-2024,-328,184,-12,28,-23
6845,-2040,-272,216,-14,32,-24
6850,-2032,-304,224,-16,38,-24
6855,-2024,-328,208,-16,46,-26
6860,-2040,-328,208,-12,54,-26
6865,-2032,-352,192,-4,62,-25
6870,-2040,-312,208,3,66,-24
6875,-1992,-328,248,13,71,-24
6880,-2040,-328,184,18,76,-23
6885,-2032,-328,184,21,83,-21
6890,-2024,-288,176,23,90,-20
6895,-2040,-288,176,23,99,-20
6900,-2056,-264,208,21,107,-19
6905,-2024,-272,176,17,113,-20
6910,-2016,-280,176,12,118,-19
6915,-2048,-280,184,10,120,-20
6920,-2040,-320,128,9,122,-18
6925,-2024,-296,136,10,123,-17
6930,-2032,-320,152,12,124,-13
6935,-2008,-328,128,14,125,-12
6940,-2024,-336,120,15,129,-12
6945,-2032,-328,144,18,129,-12
6950,-2032,-328,112,21,127,-14
6955,-2016,-328,120,20,128,-13
6960,-2040,-336,120,21,125,-14
6965,-2016,-336,112,23,124,-13
6970,-2032,-352,120,24,122,-10
6975,-2040,-352,128,22,121,-8
6980,-2040,-336,112,21,120,-6
6985,-2040,-400,104,16,117,-2
6990,-2040,-352,104,12,116,-1
6995,-2040,-344,96,6,112,1
7000,-2040,-312,112,1,110,0
7005,-2048,-336,112,-6,110,1
7010,-2048,-328,96,-11,110,3
7015,-2056,-336,112,-14,111,4
7020,-2048,-320,104,-14,110,7
7025,-2040,-328,88,-12,108,6
7030,-2040,-328,120,-14,106,6
7035,-2040,-320,128,-13,101,5
7040,-2056,-288,72,-13,95,5
7045,-2048,-320,96,-15,90,4
7050,-2024,-328,120,-16,84,5
7055,-2032,-304,104,-15,80,6
7060,-2040,-304,80,-17,77,5
7065,-2008,-312,72,-17,73,3
7070,-2032,-304,96,-16,68,2
7075,-2024,-312,104,-17,63,2
7080,-2040,-288,104,-19,61,4
7085,-2048,-304,120,-21,59,4
7090,-2032,-304,96,-21,59,4
7095,-2064,-312,136,-22,59,1
7100,-2048,-320,112,-23,57,0
7105,-2040,-312,128,-22,55,0
7110,-2016,-336,128,-22,53,-3
7115,-2048,-320,112,-22,52,0
7120,-2040,-328,96,-20,52,0
7125,-2056,-320,128,-19,53,-1
7130,-2032,-328,128,-19,55,0
7135,-2032,-304,104,-19,54,1
7140,-2040,-304,120,-18,56,2
7145,-2040,-304,136,-17,57,2
7150,-2048,-320,96,-15,58,2
7155,-2048,-312,152,-14,58,1
7160,-2048,-320,88,-14,57,-2
7165,-2032,-312,104,-11,57,-3
7170,-2032,-320,120,-9,55,-7
7175,-2048,-296,128,-6,54,-7
7180,-2024,-328,144,-4,51,-8
7185,-2032,-304,88,-2,49,-9
7190,-2056,-296,120,-1,47,-10
7195,-2040,-336,200,0,45,-11
7200,-2040,-312,120,2,45,-12
7205,-2016,-328,104,3,42,-12
7210,-2032,-320,136,1,43,-15
7215,-2048,-288,104,0,43,-15
7220,-2032,-320,112,-1,40,-15
7225,-2032,-304,128,-2,38,-15
7230,-2048,-320,128,-4,39,-15
7235,-2040,-312,120,-2,37,-13
7240,-2032,-312,152,-1,35,-14
7245,-2040,-328,128,1,36,-14
7250,-2048,-320,120,1,35,-15
7255,-2056,-320,128,1,35,-15
7260,-2032,-320,120,4,34,-14
7265,-2048,-320,104,7,30,-14
7270,-2032,-320,120,9,30,-14
7275,-2024,-336,128,9,31,-15
7280,-2056,-304,144,10,36,-12
7285,-2072,-304,136,8,34,-13
7290,-2040,-304,136,5,29,-13
7295,-2024,-304,128,4,25,-14
7300,-2048,-320,112,2,27,-16
7305,-2056,-312,144,1,26,-15
7310,-2080,-352,120,1,21,-16
7315,-2048,-328,120,0,21,-17
7320,-2032,-320,128,-1,21,-16
7325,-2032,-312,152,-1,20,-17
7330,-2040,-304,168,-2,18,-16
7335,-2040,-336,104,-5,18,-16
7340,-2056,-328,136,-6,18,-15
7345,-2024,-344,168,-5,18,-15
7350,-2048,-304,144,-2,18,-13
7355,-2040,-296,160,-1,24,-13
7360,-2048,-312,168,-3,29,-11
7365,-2056,-304,168,-4,33,-12
7370,-2040,-312,144,-6,35,-14
7375,-2040,-320,152,-9,37,-14
7380,-2040,-328,176,-10,40,-15
7385,-2040,-328,144,-9,42,-16
7390,-2024,-328,160,-9,43,-17
7395,-2040,-344,168,-8,45,-18
7400,-2024,-312,176,-7,47,-19
7405,-2024,-296,192,-5,47,-18
7410,-2040,-296,168,-5,47,-18
7415,-2040,-328,136,-5,49,-16
7420,-2016,-320,176,-6,50,-15
7425,-2032,-328,192,-6,52,-14
7430,-2008,-320,168,-5,53,-14
7435,-2040,-312,176,-4,55,-12
7440,-2040,-296,152,-2,56,-12
7445,-2040,-344,160,-4,56,-12
7450,-2024,-344,144,-3,57,-11
7455,-2032,-296,176,-2,58,-12
7460,-2032,-328,184,-3,60,-11
7465,-2032,-312,176,-3,61,-11
7470,-2016,-336,184,-6,63,-11
7475,-2040,-336,152,-7,66,-9
7480,-2032,-320,192,-8,68,-7
7485,-2040,-328,152,-8,69,-6
7490,-2040,-336,136,-7,69,-4
7495,-2032,-344,168,-6,71,-4
7500,-2040,-336,144,-6,72,-4
7505,-2024,-352,144,-6,72,-3
7510,-2032,-336,152,-6,73,-2
7515,-2024,-336,160,-4,74,-2
7520,-2016,-336,192,-5,74,-2
7525,-2040,-304,144,-6,76,-1
7530,-2040,-320,152,-6,79,-1
7535,-2048,-312,160,-7,79,0
7540,-2032,-312,184,-8,80,1
7545,-2032,-312,184,-10,79,1
7550,-2040,-304,144,-12,78,1
7555,-2040,-304,136,-13,78,1
7560,-2032,-312,128,-14,79,2
7565,-2048,-304,168,-15,80,2
7570,-2048,-304,184,-14,82,3
7575,-2032,-320,152,-12,81,3
7580,-2048,-312,136,-13,82,1
7585,-2040,-328,160,-14,81,0
7590,-2040,-320,128,-14,80,0
7595,-2048,-328,168,-16,79,-1
7600,-2048,-328,168,-15,79,0
7605,-2040,-336,144,-14,78,2
7610,-2040,-320,184,-14,78,1
7615,-2040,-328,136,-13,76,3
7620,-2040,-312,144,-14,76,4
7625,-2024,-320,144,-14,77,4
7630,-2040,-344,144,-16,76,4
7635,-2040,-312,144,-17,76,5
7640,-2040,-344,152,-18,75,6
7645,-2056,-304,152,-20,75,6
7650,-2040,-320,152,-18,75,7
7655,-2040,-320,144,-16,74,4
7660,-2032,-328,160,-18,71,3
7665,-2056,-312,152,-19,68,2
7670,-2032,-304,144,-19,68,2
7675,-2048,-304,128,-19,66,4
7680,-2032,-328,136,-17,68,2
7685,-2048,-328,128,-17,68,2
7690,-2008,-320,136,-17,68,2
7695,-2040,-304,168,-16,68,1
7700,-2032,-320,144,-17,67,0
7705,-2032,-328,168,-19,69,-3
7710,-2048,-320,120,-19,67,-4
7715,-2048,-328,152,-17,68,-6
7720,-2032,-336,160,-15,68,-5
7725,-2048,-312,160,-14,69,-4
7730,-2048,-304,144,-14,69,-3
7735,-2040,-328,152,-11,69,-3
7740,-2040,-320,168,-11,70,-4
7745,-2072,-320,104,-11,70,-3
7750,-2016,-320,128,-11,67,-3
7755,-2040,-328,168,-10,65,-5
7760,-2040,-352,144,-9,63,-4
7765,-2016,-344,152,-10,63,-4
7770,-2032,-328,168,-10,62,-4
7775,-2024,-328,136,-10,62,-4
7780,-2032,-336,168,-9,64,-6
7785,-2032,-312,152,-10,63,-5
7790,-2048,-312,152,-10,65,-5
7795,-2048,-312,144,-12,67,-4
7800,-2040,-312,152,-13,66,-3
7805,-2024,-312,136,-15,67,-3
7810,-2040,-320,168,-17,68,-2
7815,-2032,-304,152,-18,68,-1
7820,-2032,-328,120,-20,68,-1
7825,-2048,-328,152,-23,68,-1
7830,-2024,-352,152,-23,68,-1
7835,-2040,-328,144,-22,68,-1
7840,-2032,-320,120,-18,67,-1
7845,-2032,-344,128,-14,68,-1
7850,-2040,-304,144,-10,68,-2
7855,-2008,-328,152,-5,68,-1
7860,-2024,-304,136,-2,67,-1
7865,-2048,-336,136,-4,66,-2
7870,-2048,-320,168,-5,65,-3
7875,-2032,-320,152,-7,66,-4
7880,-2032,-320,136,-11,67,-5
7885,-2048,-296,136,-11,69,-4
7890,-2048,-296,152,-14,68,-5
7895,-2016,-320,176,-15,70,-6
7900,-2032,-320,144,-17,69,-6
7905,-2032,-320,152,-16,68,-7
7910,-2024,-296,216,-15,67,-7
7915,-2040,-336,136,-10,67,-7
7920,-2040,-304,136,-8,66,-5
7925,-2040,-320,160,-5,66,-5
7930,-2016,-312,152,-5,65,-5
7935,-2032,-312,184,-7,64,-5
7940,-2040,-336,160,-8,65,-3
7945,-2048,-312,168,-10,64,-3
7950,-2016,-352,144,-10,66,-3
7955,-2040,-320,136,-8,66,-2
7960,-2032,-312,128,-6,64,0
7965,-1992,-328,120,-4,63,0
7970,-2016,-304,144,-3,62,1
7975,-2032,-320,112,-3,61,1
7980,-2040,-304,144,-4,60,2
7985,-2040,-320,112,-4,60,2
7990,-2032,-320,128,-4,63,2
7995,-2048,-328,184,-4,63,0
8000,-2040,-296,136,-3,65,0
8005,-2048,-336,184,-3,64,0
8010,-2040,-320,160,-6,61,-1
8015,-2024,-320,168,-6,62,-2
8020,-2048,-320,160,-4,61,-2
8025,-2048,-328,160,-2,63,-3
8030,-2032,-320,168,0,64,-4
8035,-2024,-328,168,0,65,-3
8040,-2032,-312,144,-1,64,-2
8045,-2016,-312,152,-3,65,-2
8050,-2056,-312,184,-5,65,-2
8055,-2040,-304,104,-7,66,-2
8060,-2032,-312,152,-8,67,-3
8065,-2032,-320,160,-10,69,-3
8070,-2040,-288,104,-9,70,-2
8075,-2040,-304,144,-10,72,-3
8080,-2024,-296,160,-11,72,-4
8085,-2024,-328,168,-11,72,-7
8090,-2032,-312,144,-11,72,-8
8095,-2032,-312,144,-9,71,-8
8100,-2032,-304,160,-9,69,-8
8105,-2032,-296,136,-9,69,-9
8110,-2032,-312,120,-8,68,-9
8115,-2032,-312,144,-7,67,-7
8120,-2016,-328,144,-7,66,-8
8125,-2040,-328,128,-8,65,-8
8130,-2024,-344,144,-10,64,-9
8135,-2032,-296,136,-9,66,-9
8140,-2056,-320,112,-9,67,-8
8145,-2048,-328,152,-11,65,-7
8150,-2048,-320,152,-13,63,-6
8155,-2048,-320,160,-14,64,-7
8160,-2032,-360,120,-14,64,-8
8165,-2040,-328,136,-14,65,-9
8170,-2032,-328,152,-14,66,-6
8175,-2064,-304,160,-15,66,-7
8180,-2056,-288,160,-17,68,-7
8185,-2032,-320,160,-19,71,-6
8190,-2016,-344,160,-19,71,-5
8195,-2040,-320,176,-20,71,-3
8200,-2024,-312,160,-20,69,-4
8205,-2032,-320,160,-19,68,-2
8210,-2024,-320,192,-18,67,-2
8215,-2040,-320,136,-16,67,-3
8220,-2040,-320,160,-13,68,-3
8225,-2024,-328,168,-12,68,-4
8230,-2040,-352,184,-11,67,-5
8235,-2048,-320,152,-12,66,-5
8240,-2040,-344,144,-13,64,-3
8245,-2032,-352,120,-14,65,-2
8250,-2040,-296,152,-15,67,-3
8255,-2048,-304,136,-17,67,-3
8260,-2040,-288,144,-17,68,-2
8265,-2040,-328,120,-17,68,-1
8270,-2032,-320,144,-20,69,-2
8275,-2040,-320,152,-18,67,-4
8280,-2032,-336,144,-17,68,-5
8285,-2048,-336,160,-16,67,-5
8290,-2048,-328,152,-14,67,-4
8295,-2024,-352,168,-14,67,-3
8300,-2008,-344,160,-13,67,-2
8305,-2040,-336,160,-13,68,0
8310,-2048,-320,160,-14,68,0
8315,-2040,-312,144,-14,67,1
8320,-2024,-328,152,-12,67,2
8325,-2040,-312,144,-13,67,1
8330,-2016,-304,152,-13,68,2
8335,-2048,-320,184,-15,68,2
8340,-2040,-312,136,-17,68,0
8345,-2048,-328,136,-16,69,-1
8350,-2040,-320,160,-17,70,0
8355,-2032,-296,152,-17,69,-2
8360,-2040,-320,144,-18,69,-1
8365,-2040,-304,136,-18,73,0
8370,-2048,-304,144,-17,72,-2
8375,-2024,-336,136,-16,73,-3
8380,-2040,-304,136,-14,74,-2
8385,-2040,-328,160,-12,74,-2
8390,-2048,-328,168,-12,75,-2
8395,-2040,-304,168,-11,75,0
8400,-2048,-312,184,-10,74,1
8405,-2040,-312,184,-9,72,1
8410,-2048,-328,176,-9,71,-1
8415,-2032,-328,160,-10,72,0
8420,-2040,-312,152,-11,72,-2
8425,-2048,-320,136,-12,71,-1
8430,-2032,-312,144,-11,72,-1
8435,-2032,-344,160,-14,73,-2
8440,-2040,-312,152,-15,72,-2
8445,-2024,-304,128,-17,72,-1
8450,-2032,-320,152,-17,73,-1
8455,-2048,-320,112,-17,73,-1
8460,-2048,-312,144,-17,73,-1
8465,-2048,-312,160,-16,72,0
8470,-2048,-320,152,-14,73,0
8475,-2040,-328,152,-14,71,-1
8480,-2032,-336,160,-13,72,-1
8485,-2040,-320,176,-13,72,-3
8490,-2040,-288,176,-12,73,-3
8495,-2040,-328,136,-11,73,-3
8500,-2040,-296,160,-10,73,-4
8505,-2000,-344,192,-9,73,-5
8510,-2040,-328,144,-9,75,-4
8515,-2040,-288,144,-10,77,-2
8520,-2024,-320,128,-8,78,-2
8525,-2040,-336,128,-10,78,-1
8530,-2040,-328,160,-12,78,-1
8535,-2032,-320,144,-10,78,0
8540,-2032,-328,192,-10,80,-1
8545,-2048,-352,160,-9,79,-2
8550,-2032,-352,152,-9,79,1
8555,-2024,-328,176,-10,78,-2
8560,-2032,-312,152,-9,76,-4
8565,-2024,-312,160,-11,75,-3
8570,-2040,-328,136,-9,72,-4
8575,-2056,-328,192,-10,73,-4
8580,-2040,-312,160,-10,75,-4
8585,-2048,-296,96,-10,77,-2
8590,-2048,-336,160,-9,76,-2
8595,-2024,-352,152,-9,77,-2
8600,-2040,-304,160,-10,75,0
8605,-2040,-304,136,-9,73,0
8610,-2040,-320,176,-8,71,-1
8615,-2024,-288,104,-9,72,0
8620,-2040,-320,192,-11,72,-1
8625,-2048,-320,168,-12,74,-3
8630,-2032,-320,160,-13,73,-1
8635,-2016,-328,144,-13,74,-1
8640,-2040,-328,168,-13,76,-1
8645,-2032,-312,144,-12,76,-1
8650,-2040,-288,144,-12,75,-2
8655,-2056,-312,176,-13,74,-4
8660,-2032,-312,128,-13,72,-3
8665,-2024,-312,136,-13,71,-2
8670,-2048,-320,144,-12,71,-1
8675,-2040,-320,168,-11,71,-3
8680,-2040,-312,128,-9,70,-4
8685,-2024,-328,136,-11,69,-2
8690,-2040,-320,144,-11,70,-3
8695,-2048,-304,160,-9,68,-2
8700,-2048,-312,160,-11,67,-4
8705,-2048,-328,136,-12,68,-3
8710,-2024,-320,144,-12,69,-3
8715,-2024,-336,128,-14,70,-2
8720,-2032,-320,136,-13,71,-2
8725,-2048,-328,168,-12,71,-2
8730,-2048,-312,128,-12,71,-2
8735,-2040,-312,160,-11,72,-3
8740,-2048,-312,120,-13,72,-2
8745,-2040,-336,160,-14,72,-4
8750,-2040,-320,152,-16,71,-3
8755,-2016,-320,160,-17,70,-5
8760,-2032,-320,160,-17,73,-4
8765,-2048,-304,152,-17,75,-2
8770,-2032,-328,184,-17,76,-3
8775,-2040,-328,160,-18,79,-3
8780,-2048,-320,176,-20,79,-2
8785,-2024,-344,176,-19,80,-2
8790,-2048,-336,168,-19,82,-2
8795,-2048,-320,152,-18,83,1
8800,-2032,-336,200,-18,83,1
8805,-2040,-328,176,-18,86,0
8810,-2040,-312,168,-18,87,1
8815,-2048,-280,152,-18,87,0
8820,-2048,-320,176,-17,88,0
8825,-2040,-288,152,-16,88,-1
8830,-2048,-288,144,-14,88,-1
8835,-2016,-312,152,-13,88,-1
8840,-2040,-296,168,-12,88,-1
8845,-2032,-312,176,-12,88,1
8850,-2032,-296,160,-14,87,-1
8855,-2032,-312,176,-13,87,-3
8860,-2032,-328,144,-14,87,-3
8865,-2032,-312,160,-15,89,-2
8870,-2024,-328,168,-14,90,0
8875,-2048,-336,136,-10,90,2
8880,-2032,-344,160,-7,90,4
8885,-2016,-352,152,-2,89,4
8890,-2048,-328,128,3,88,6
8895,-2040,-328,136,9,86,6
8900,-2032,-328,136,13,84,4
8905,-2040,-336,128,15,79,5
8910,-2040,-320,144,20,79,4
8915,-2040,-304,136,18,79,3
8920,-2040,-312,136,16,80,1
8925,-2048,-288,128,14,80,0
8930,-2040,-320,168,12,82,0
8935,-2048,-304,112,12,82,1
8940,-2040,-312,136,12,80,1
8945,-2040,-296,216,12,78,0
8950,-2032,-320,144,10,77,-1
8955,-2040,-304,112,10,76,-1
8960,-2048,-312,144,8,74,0
8965,-2040,-304,120,5,74,-2
8970,-2040,-328,136,3,77,-1
8975,-2048,-328,152,1,76,-2
8980,-2048,-336,152,-1,78,-2
8985,-2024,-360,168,0,79,0
8990,-2008,-352,144,0,80,2
8995,-2024,-328,152,2,79,2
9000,-2032,-320,120,4,77,4
9005,-2024,-312,128,3,76,2
9010,-2008,-296,120,-1,74,2
9015,-2048,-288,136,-7,73,1
9020,-2040,-296,96,-12,70,1
9025,-2048,-296,144,-14,70,2
9030,-2040,-280,120,-16,71,3
9035,-2032,-312,160,-16,72,4
9040,-2032,-312,104,-14,71,3
9045,-2040,-328,152,-11,70,2
9050,-2032,-320,200,-7,68,2
9055,-2040,-312,160,-4,69,2
9060,-2048,-304,144,-2,68,3
9065,-2032,-328,152,2,67,4
9070,-2048,-328,152,3,66,4
9075,-2040,-296,152,3,66,3
9080,-2032,-328,152,3,65,2
9085,-2024,-328,120,2,65,1
9090,-2040,-296,128,0,64,0
9095,-2008,-296,136,-2,63,-1
9100,-2040,-312,144,-4,65,0
9105,-2048,-288,152,-5,65,-1
9110,-2040,-312,128,-8,65,-2
9115,-2056,-296,112,-10,66,-1
9120,-2032,-312,136,-9,67,-2
9125,-2024,-312,136,-11,68,-3
9130,-2032,-312,152,-11,68,-3
9135,-2040,-304,136,-10,66,-5
9140,-2040,-320,152,-9,64,-4
9145,-2032,-312,112,-10,64,-4
9150,-2040,-336,136,-10,62,-3
9155,-2048,-320,136,-9,61,-4
9160,-2032,-304,144,-8,59,-4
9165,-2016,-336,120,-8,58,-5
9170,-2040,-288,144,-8,57,-3
9175,-2032,-312,152,-8,58,-4
9180,-2048,-304,136,-8,56,-2
9185,-2040,-320,128,-8,58,-4
9190,-2032,-304,128,-7,58,-3
9195,-2056,-336,104,-6,57,-2
9200,-2032,-320,112,-5,57,-3
9205,-2040,-336,144,-4,58,-4
9210,-2040,-304,112,-3,56,-4
9215,-2040,-296,112,-2,54,-6
9220,-2040,-312,128,-2,52,-8
9225,-2040,-328,120,-2,52,-8
9230,-2048,-320,168,-3,51,-8
9235,-2048,-304,160,-4,51,-8
9240,-2024,-296,128,-8,50,-8
9245,-2048,-304,160,-9,50,-8
9250,-2040,-320,168,-9,51,-8
9255,-2040,-328,120,-8,50,-9
9260,-2048,-328,136,-5,52,-9
9265,-2048,-312,120,-2,55,-8
9270,-2040,-304,152,0,57,-7
9275,-2040,-320,160,3,55,-7
9280,-2048,-304,144,2,56,-5
9285,-2040,-312,168,4,56,-5
9290,-2024,-296,128,5,56,-6
9295,-2064,-304,136,4,56,-6
9300,-2032,-296,160,4,56,-5
9305,-2056,-320,168,4,55,-5
9310,-2032,-320,152,1,55,-6
9315,-2016,-328,160,0,54,-6
9320,-2024,-328,176,0,54,-4
9325,-2048,-328,160,-1,54,-5
9330,-2040,-312,160,0,55,-6
9335,-2040,-328,160,-3,59,-4
9340,-2032,-336,152,-4,60,-3
9345,-2048,-304,168,-1,57,-3
9350,-2032,-320,144,0,60,-3
9355,-2040,-320,152,3,61,-1
9360,-2040,-312,152,6,62,-2
9365,-2040,-320,144,5,62,-2
9370,-2056,-296,144,5,62,-2
9375,-2056,-312,160,4,61,-2
9380,-2064,-352,144,6,58,0
9385,-2048,-304,144,5,58,-1
9390,-2040,-336,152,5,57,-2
9395,-2048,-288,152,6,59,-2
9400,-2048,-336,152,6,58,-5
9405,-2040,-312,112,4,60,-3
9410,-2040,-296,136,3,61,-4
9415,-2000,-312,184,4,60,-5
9420,-2040,-304,128,6,60,-6
9425,-2032,-312,152,6,61,-6
9430,-2040,-312,160,6,61,-6
9435,-2056,-312,152,11,59,-6
9440,-2016,-320,160,10,57,-6
9445,-2024,-328,160,11,58,-7
9450,-2040,-296,144,12,57,-7
9455,-2048,-296,168,11,57,-5
9460,-2032,-328,152,10,58,-6
9465,-2040,-312,176,13,56,-7
9470,-2032,-328,144,13,56,-6
9475,-2040,-312,160,13,57,-6
9480,-2048,-280,136,10,60,-6
9485,-2048,-168,248,10,62,-5
9490,-1984,-344,200,9,62,-4
9495,-2008,-360,64,10,60,-3
9500,-2088,-272,112,12,58,-4
9505,-2096,-296,120,13,55,-2
9510,-2144,-320,56,14,58,-2
9515,-2024,-336,-40,11,63,-1
9520,-1968,-272,168,7,66,1
9525,-2064,-472,216,5,65,2
9530,-2048,-304,248,1,65,4
9535,-2000,-368,192,-2,68,3
9540,-2040,-320,200,-4,70,4
9545,-2040,-304,160,-5,69,7
9550,-2064,-304,160,-4,67,6
9555,-2040,-320,144,-2,67,6
9560,-2048,-312,128,0,67,5
9565,-2096,-336,88,4,68,3
9570,-1976,-376,256,8,67,0
9575,-2080,-288,248,9,67,1
9580,-2040,-344,-8,11,68,1
9585,-2056,-320,56,13,69,3
9590,-2032,-232,288,14,68,3
9595,-2008,-256,192,14,71,3
9600,-2000,-296,192,14,71,4
9605,-2024,-312,176,14,72,3
9610,-2056,-312,80,13,71,4
9615,-2040,-312,160,9,71,4
9620,-2032,-328,152,8,73,2
9625,-2040,-312,168,5,75,1
9630,-2032,-304,152,4,74,2
9635,-2000,-336,144,1,74,2
9640,-2048,-264,72,-1,69,3
9645,-2032,-320,168,-1,67,2
9650,-2096,-392,184,-1,65,0
9655,-1984,-352,144,-1,66,0
9660,-2032,-208,120,0,67,1
9665,-1872,-328,160,0,68,0
9670,-2112,-312,208,2,69,0
9675,-2040,-296,160,3,70,-3
9680,-2040,-376,144,5,69,-4
9685,-1984,-304,152,5,67,-5
9690,-2040,-312,136,6,63,-5
9695,-2048,-296,168,5,63,-5
9700,-2048,-320,160,4,63,-7
9705,-2040,-304,136,5,60,-8
9710,-2008,-280,56,3,61,-8
9715,-2112,-344,80,2,61,-9
9720,-2024,-344,96,1,62,-9
9725,-2048,-368,184,5,61,-9
9730,-2008,-304,168,7,64,-11
9735,-2032,-216,264,9,65,-11
9740,-2048,-272,176,10,63,-8
9745,-2096,-248,88,11,58,-8
9750,-2112,-200,88,13,57,-10
9755,-2080,-336,208,14,57,-9
9760,-2008,-264,208,17,56,-8
9765,-2088,-336,144,19,53,-7
9770,-2040,-280,168,20,51,-7
9775,-2032,-304,144,20,52,-5
9780,-2016,-312,136,21,49,-4
9785,-2016,-248,160,21,53,-3
9790,-2024,-264,96,18,51,-1
9795,-2040,-336,152,14,50,0
9800,-2160,-288,128,8,48,3
9805,-2040,-280,120,1,48,5
9810,-2136,-288,128,-4,49,2
9815,-2032,-296,136,-4,52,1
9820,-2136,-320,248,-4,55,3
9825,-2056,-336,168,-1,56,2
9830,-2024,-352,168,1,59,2
9835,-2120,-304,224,6,59,3
9840,-2040,-352,232,10,57,0
9845,-2048,-272,176,10,57,-1
9850,-2040,-280,176,9,58,0
9855,-2024,-272,120,9,61,-2
9860,-2040,-296,120,7,65,-4
9865,-1968,-296,168,7,64,-5
9870,-2048,-296,40,8,61,-6
9875,-2032,-264,240,9,58,-8
9880,-2072,-320,160,13,55,-8
9885,-1992,-272,216,20,52,-9
9890,-1952,-152,-40,28,49,-10
9895,-1960,-376,168,35,48,-9
9900,-2120,-296,184,39,54,-8
9905,-2080,-352,112,44,49,-6
9910,-2008,-328,184,45,45,-5
9915,-2040,-320,168,44,47,-7
9920,-2008,-304,176,39,49,-6
9925,-2008,-328,176,34,50,-5
9930,-2040,-312,176,30,48,-4
9935,-2056,-360,160,26,47,-2
9940,-2064,-384,168,23,45,-2
9945,-2008,-376,168,25,45,-3
9950,-2016,-320,160,28,44,-3
9955,-2024,-376,224,31,40,-3
9960,-2080,-320,256,34,41,-1
9965,-2032,-256,184,34,38,0
9970,-2048,-304,152,36,33,-2
9975,-2048,-312,160,36,36,0
9980,-2032,-304,152,37,38,1
9985,-2024,-312,168,40,41,0
9990,-2056,-288,184,41,42,0
9995,-2048,-288,144,43,41,0
10000,-2040,-280,176,46,40,1
10005,-2024,-312,176,46,38,0
10010,-2048,-392,96,48,35,0
10015,-2032,-312,168,49,31,-2
10020,-2032,-320,160,49,30,-1
10025,-2040,-296,152,47,28,-1
10030,-2048,-312,208,45,27,-2
10035,-2048,-320,152,41,27,-3
10040,-2032,-296,176,39,26,-4
10045,-2048,-312,184,34,29,-5
10050,-2016,-312,168,32,28,-8
10055,-2040,-312,232,28,32,-11
10060,-2040,-304,184,26,33,-9
10065,-2048,-296,184,23,30,-8
10070,-2040,-312,168,20,36,-7
10075,-2032,-304,192,17,43,-5
10080,-2032,-312,200,16,46,-3
10085,-2032,-312,224,15,48,-3
10090,-2040,-312,184,13,48,1
10095,-2040,-304,216,12,50,1
10100,-2032,-312,192,10,51,1
10105,-2040,-304,192,9,52,2
10110,-2040,-296,200,9,51,1
10115,-2032,-296,168,9,49,-1
10120,-2024,-304,216,8,48,-2
10125,-2056,-312,176,5,48,-4
10130,-2032,-304,208,2,46,-4
10135,-2032,-328,192,1,46,-4
10140,-2000,-304,200,-1,47,-6
10145,-2024,-296,184,-2,48,-6
10150,-2024,-312,176,-3,52,-7
10155,-2024,-312,192,-4,54,-8
10160,-2040,-280,200,-7,56,-8
10165,-2048,-280,200,-9,58,-9
10170,-2016,-304,216,-11,63,-7
10175,-2048,-296,200,-14,63,-9
10180,-2040,-304,184,-15,64,-7
10185,-2024,-320,192,-15,64,-7
10190,-2040,-320,192,-15,65,-6
10195,-2048,-304,208,-12,66,-6
10200,-2032,-320,176,-10,66,-7
10205,-2032,-312,208,-10,66,-6
10210,-2032,-288,216,-8,65,-6
10215,-2024,-312,184,-7,65,-5
10220,-2040,-296,192,-5,65,-4
10225,-2024,-296,184,-5,66,-5
10230,-2016,-304,176,-4,66,-6
10235,-2040,-288,232,-5,66,-4
10240,-2032,-312,216,-7,66,-3
10245,-2032,-312,192,-12,67,-1
10250,-2032,-368,112,-16,68,-2
10255,-2048,-312,184,-18,67,-1
10260,-2040,-312,176,-19,66,-2
10265,-2040,-304,160,-20,69,-2
10270,-2040,-320,200,-19,71,-2
10275,-2048,-328,192,-15,72,-2
10280,-2048,-312,184,-12,72,-2
10285,-2040,-304,216,-9,73,-1
10290,-2016,-320,152,-7,73,1
10295,-2048,-288,184,-6,74,0
10300,-2032,-296,200,-5,72,-2
10305,-2016,-328,192,-7,72,-2
10310,-2024,-320,200,-8,71,-1
10315,-2024,-312,224,-8,69,-2
10320,-2056,-320,184,-11,69,-3
10325,-2032,-320,208,-11,69,-1
10330,-2048,-296,184,-11,69,1
10335,-2032,-320,192,-12,71,0
10340,-2048,-296,168,-12,72,-1
10345,-2040,-304,192,-10,72,0
10350,-2048,-328,160,-11,76,0
10355,-2024,-288,160,-9,77,-1
10360,-2032,-296,208,-8,80,1
10365,-2040,-304,184,-7,83,1
10370,-2040,-280,224,-8,81,0
10375,-2016,-328,168,-6,81,0
10380,-2008,-336,184,-7,79,1
10385,-2040,-320,144,-9,78,0
10390,-2024,-312,176,-9,75,0
10395,-2016,-304,200,-10,72,-1
10400,-2032,-320,192,-11,70,-1
10405,-2040,-320,192,-10,69,-1
10410,-2040,-296,176,-11,68,-2
10415,-2032,-320,176,-10,68,-3
10420,-2048,-296,176,-9,67,-1
10425,-2056,-304,168,-7,68,0
10430,-2016,-312,136,-9,69,1
10435,-2032,-328,168,-10,71,0
10440,-2056,-288,168,-11,71,0
10445,-2056,-296,168,-12,71,0
10450,-2048,-288,208,-12,72,-1
10455,-2048,-312,176,-12,73,0
10460,-2040,-328,184,-12,73,2
10465,-2048,-296,192,-12,75,2
10470,-2048,-304,216,-13,74,-1
10475,-2032,-328,184,-13,72,-1
10480,-2024,-328,192,-11,74,-1
10485,-2016,-320,192,-9,72,-3
10490,-2040,-296,184,-6,73,-3
10495,-2016,-320,176,-6,72,-3
10500,-2040,-312,208,-6,71,-2
10505,-2032,-312,176,-5,71,-3
10510,-2032,-304,192,-6,70,-2
10515,-2024,-320,184,-6,70,-1
10520,-2040,-280,208,-6,71,-2
10525,-2032,-296,216,-8,71,-2
10530,-2040,-312,208,-9,69,0
10535,-2040,-304,184,-12,68,0
10540,-2032,-296,184,-13,66,-1
10545,-2040,-304,192,-12,66,-2
10550,-2040,-296,184,-11,68,-2
10555,-2048,-272,192,-10,67,-2
10560,-2032,-304,208,-10,68,-1
10565,-2024,-304,184,-10,67,-1
10570,-2032,-320,200,-10,69,0
10575,-2032,-304,200,-9,71,1
10580,-2016,-288,176,-7,73,1
10585,-2040,-304,200,-9,73,2
10590,-2048,-320,184,-6,72,1
10595,-2040,-312,160,-8,74,0
10600,-2032,-296,184,-9,74,-1
10605,-2040,-312,168,-10,73,0
10610,-2056,-304,192,-11,72,0
10615,-2032,-320,208,-12,72,-2
10620,-2048,-320,192,-12,72,-1
10625,-2032,-304,216,-9,72,-2
10630,-2032,-312,176,-9,72,0
10635,-2024,-296,192,-7,72,-1
10640,-2040,-304,168,-6,72,0
10645,-2048,-320,232,-6,72,1
10650,-2032,-304,184,-7,72,1
10655,-2032,-304,200,-7,73,2
10660,-2032,-296,152,-6,75,1
10665,-2024,-288,168,-5,75,1
10670,-2032,-288,224,-6,74,2
10675,-2048,-288,176,-5,75,2
10680,-2032,-296,184,-6,76,1
10685,-2048,-304,168,-7,76,2
10690,-2024,-296,176,-9,75,2
10695,-2024,-312,200,-9,74,1
10700,-2040,-320,184,-9,74,0
10705,-2032,-320,216,-10,72,0
10710,-2024,-336,176,-10,73,0
10715,-2016,-296,152,-11,72,0
10720,-2040,-296,200,-11,72,1
10725,-2040,-304,176,-13,70,1
10730,-2024,-304,192,-12,69,2
10735,-2048,-312,160,-13,71,2
10740,-2032,-296,192,-11,70,1
10745,-2032,-312,176,-12,69,0
10750,-2048,-304,184,-12,69,2
10755,-2048,-304,192,-14,69,2
10760,-2040,-336,192,-15,66,1
10765,-2032,-320,168,-15,66,2
10770,-2024,-312,184,-15,64,1
10775,-2032,-320,200,-12,62,0
10780,-2048,-304,192,-8,61,0
10785,-2016,-296,176,-5,61,-1
10790,-2016,-320,200,-1,60,0
10795,-2048,-280,144,-3,59,1
10800,-2032,-288,176,-4,57,0
10805,-2056,-280,184,-6,57,0
10810,-2040,-280,184,-6,59,-1
10815,-2072,-248,176,-9,60,-3
10820,-2040,-288,208,-10,63,-4
10825,-2040,-288,176,-11,67,-5
10830,-2056,-304,192,-12,69,-6
10835,-2056,-272,200,-13,68,-4
10840,-2040,-312,176,-13,67,-4
10845,-2040,-304,176,-13,66,-5
10850,-2048,-304,176,-8,66,-5
10855,-2040,-296,160,-5,66,-6
10860,-2032,-288,176,-3,65,-7
10865,-2048,-288,168,0,65,-8
10870,-2048,-312,176,0,65,-9
10875,-2032,-320,184,-1,64,-9
10880,-2024,-312,192,0,64,-10
10885,-2040,-304,176,-1,63,-9
10890,-2040,-296,176,1,62,-9
10895,-1960,-288,160,2,58,-8
10900,-2040,-304,192,1,56,-8
10905,-2032,-328,168,0,52,-8
10910,-2048,-280,152,0,50,-8
10915,-2048,-304,176,-3,49,-6
10920,-2024,-320,176,-6,49,-6
10925,-2040,-312,192,-7,50,-6
10930,-2040,-304,160,-7,51,-6
10935,-2040,-312,160,-6,51,-6
10940,-2032,-320,208,-6,51,-5
10945,-2040,-320,224,-5,51,-3
10950,-2040,-296,208,-4,54,-1
10955,-2032,-312,216,-4,52,0
10960,-2024,-304,216,-2,53,-1
10965,-2032,-304,224,-1,54,1
10970,-2056,-320,216,-2,57,-1
10975,-2024,-304,176,-4,59,0
10980,-2032,-288,224,-6,62,-1
10985,-2048,-288,224,-12,63,0
10990,-2032,-304,200,-16,66,0
10995,-2032,-280,200,-18,67,1
11000,-2032,-272,208,-21,68,-2
11005,-2032,-312,208,-24,72,-1
11010,-2040,-368,112,-25,74,-3
11015,-2032,-320,208,-27,76,-1
11020,-2032,-304,224,-29,77,-1
11025,-2040,-304,200,-31,78,-2
11030,-2040,-312,176,-32,81,-2
11035,-2032,-320,248,-34,82,-1
11040,-2040,-288,208,-35,83,2
11045,-2040,-296,224,-35,83,0
11050,-2040,-304,240,-35,84,1
11055,-2040,-304,176,-35,84,0
11060,-2032,-312,184,-34,84,0
11065,-2040,-304,176,-34,84,-2
11070,-2032,-336,152,-33,83,-3
11075,-2032,-312,192,-33,82,-3
11080,-2032,-304,176,-33,81,-1
11085,-2024,-288,200,-33,77,-3
11090,-2040,-320,192,-34,76,-3
11095,-2032,-328,176,-35,75,-1
11100,-2048,-280,168,-36,73,-3
11105,-2032,-296,200,-37,70,-3
11110,-2040,-288,168,-41,71,-5
11115,-2024,-280,208,-43,73,-3
11120,-2040,-288,192,-48,75,-1
11125,-2040,-296,192,-51,79,-3
11130,-2032,-304,224,-55,81,-2
11135,-2024,-304,208,-56,79,-3
11140,-2040,-328,168,-53,79,-1
11145,-2056,-312,184,-49,79,-2
11150,-2024,-328,184,-46,79,-1
11155,-2016,-320,176,-41,78,-2
11160,-2032,-320,168,-38,77,-2
11165,-2024,-312,160,-37,77,-3
11170,-2040,-328,200,-35,77,-3
11175,-2040,-296,168,-34,75,-4
11180,-2032,-296,160,-32,74,-6
11185,-2040,-296,144,-33,71,-8
11190,-2040,-304,200,-32,70,-7
11195,-2048,-296,152,-35,70,-7
11200,-2040,-296,184,-39,69,-7
11205,-2040,-312,184,-45,73,-6
11210,-2032,-320,160,-47,73,-5
11215,-2032,-312,208,-52,74,-4
11220,-2032,-328,200,-55,76,-4
11225,-2040,-336,224,-55,76,-4
11230,-2040,-304,176,-54,78,0
11235,-2056,-304,200,-55,79,-1
11240,-2032,-320,176,-53,82,0
11245,-2032,-320,184,-53,88,0
11250,-2040,-320,192,-56,94,2
11255,-2024,-328,200,-55,91,4
11260,-2032,-320,200,-51,87,3
11265,-2032,-288,168,-47,84,2
11270,-2040,-304,184,-46,82,0
11275,-2040,-296,176,-45,84,0
11280,-2040,-312,192,-46,83,0
11285,-2024,-328,168,-47,82,-2
11290,-2048,-312,160,-47,83,-1
11295,-2048,-288,168,-43,80,-3
11300,-2032,-296,160,-41,80,-3
11305,-2024,-328,192,-40,82,-2
11310,-2032,-296,168,-39,80,-2
11315,-2040,-312,184,-40,81,-1
11320,-2024,-304,200,-39,79,-2
11325,-2024,-304,176,-40,79,-1
11330,-2016,-280,160,-40,78,1
11335,-2032,-304,144,-43,80,3
11340,-1984,-320,216,-47,81,4
11345,-2048,-312,128,-49,84,1
11350,-2040,-288,184,-47,83,0
11355,-2056,-320,152,-44,83,0
11360,-2048,-296,168,-42,83,2
11365,-2056,-320,144,-40,84,0
11370,-2040,-304,144,-41,89,1
11375,-2040,-312,168,-39,88,0
11380,-2024,-328,176,-37,86,0
11385,-2032,-288,168,-35,84,0
11390,-2040,-288,152,-36,82,-1
11395,-2032,-336,152,-36,80,-1
11400,-2048,-304,184,-36,76,-2
11405,-2032,-304,168,-37,73,-3
11410,-2032,-304,168,-37,72,-5
11415,-2048,-320,184,-37,74,-3
11420,-2040,-304,168,-37,73,-3
11425,-2024,-304,160,-36,74,-4
11430,-2040,-288,152,-39,76,-5
11435,-2032,-288,208,-38,75,-5
11440,-2056,-296,168,-39,76,-6
11445,-2016,-368,176,-41,77,-5
11450,-2048,-312,192,-43,82,-3
11455,-2040,-304,168,-45,83,-1
11460,-2040,-280,176,-44,81,0
11465,-2040,-304,176,-43,77,-1
11470,-2024,-312,192,-39,74,0
11475,-2056,-312,152,-35,72,1
11480,-2048,-320,176,-31,72,0
11485,-2040,-296,120,-26,72,-1
11490,-2048,-280,176,-24,74,-1
11495,-2000,-288,160,-22,74,0
11500,-2024,-320,176,-24,74,-1
11505,-2032,-272,200,-26,75,-3
11510,-2024,-304,200,-28,77,-3
11515,-2024,-312,168,-29,75,-3
11520,-2040,-312,184,-32,76,-2
11525,-2024,-312,152,-32,74,-1
11530,-2032,-304,152,-32,73,-2
11535,-2048,-320,168,-33,75,-1
11540,-2040,-320,168,-34,75,0
11545,-2040,-312,168,-37,75,0
11550,-2040,-312,152,-35,75,0
11555,-2016,-304,168,-36,74,2
11560,-2040,-304,192,-34,73,0
11565,-2032,-320,192,-35,74,1
11570,-2040,-288,168,-34,76,1
11575,-2048,-304,168,-33,78,-1
11580,-2048,-320,184,-31,79,-1
11585,-2040,-288,144,-32,80,0
11590,-2032,-304,152,-33,82,2
11595,-2048,-288,168,-33,81,2
11600,-2040,-296,184,-33,83,1
11605,-2032,-312,176,-34,80,1
11610,-2040,-296,176,-33,79,0
11615,-2024,-296,136,-33,78,1
11620,-2040,-312,152,-36,82,3
11625,-2032,-312,144,-36,80,1
11630,-2040,-312,200,-37,80,2
11635,-2040,-328,160,-39,80,1
11640,-2040,-304,192,-39,80,2
11645,-2016,-344,176,-36,77,0
11650,-2040,-320,160,-33,76,-2
11655,-2040,-312,160,-32,76,-2
11660,-2008,-296,104,-31,76,-2
11665,-2032,-280,152,-29,76,-2
11670,-2016,-320,176,-28,76,-2
11675,-2040,-296,168,-29,77,0
11680,-2040,-296,176,-31,78,0
11685,-2048,-296,176,-33,77,2
11690,-2048,-304,168,-33,73,1
11695,-2040,-320,184,-35,71,2
11700,-2048,-296,192,-36,70,2
11705,-2048,-296,176,-35,69,1
11710,-2032,-328,136,-32,72,2
11715,-2040,-320,184,-30,73,0
11720,-2048,-288,152,-26,71,0
11725,-2048,-280,144,-19,68,-2
11730,-2032,-288,144,-15,67,-3
11735,-2032,-280,120,-12,66,-6
11740,-2032,-280,152,-11,67,-5
11745,-2040,-280,176,-13,68,-6
11750,-2024,-288,152,-16,67,-8
11755,-2048,-280,136,-19,66,-9
11760,-2032,-320,152,-21,66,-8
11765,-2040,-320,168,-18,65,-10
11770,-2048,-328,144,-15,65,-10
11775,-2064,-320,248,-12,65,-9
11780,-2040,-336,152,-8,64,-9
11785,-2008,-352,152,-7,64,-9
11790,-2048,-296,176,-5,66,-7
11795,-2024,-344,168,-3,65,-5
11800,-2032,-296,136,-5,65,-3
11805,-2056,-328,176,-7,67,-1
11810,-2024,-328,184,-8,65,0
11815,-2016,-304,152,-9,65,0
11820,-2048,-304,176,-11,67,0
11825,-2040,-336,176,-12,65,1
11830,-2048,-304,184,-11,67,0
11835,-2040,-296,160,-11,69,2
11840,-2048,-320,152,-12,69,2
11845,-2040,-304,152,-13,69,3
11850,-2048,-296,136,-13,66,2
11855,-2048,-296,168,-10,67,2
11860,-2032,-296,176,-8,66,1
11865,-2048,-280,144,-9,66,2
11870,-2040,-280,160,-7,68,1
11875,-2040,-280,184,-5,68,1
11880,-2048,-304,192,-4,67,1
11885,-2048,-224,176,-2,66,-1
11890,-2040,-296,192,-2,64,-3
11895,-2040,-296,160,-2,61,-3
11900,-2032,-288,152,-1,60,-3
11905,-2048,-280,160,1,60,-4
11910,-2040,-272,168,0,61,-5
11915,-2032,-304,144,2,63,-6
11920,-2024,-312,144,3,63,-4
11925,-2032,-320,168,2,65,-4
11930,-2032,-312,160,4,64,-5
11935,-2040,-320,144,6,61,-7
11940,-2032,-320,160,7,61,-7
11945,-2032,-328,168,7,59,-7
11950,-2008,-320,176,7,57,-7
11955,-2032,-288,160,8,55,-7
11960,-2040,-288,160,8,52,-7
11965,-2032,-288,144,7,52,-7
11970,-2016,-320,144,7,53,-7
11975,-2032,-312,176,7,55,-7
11980,-2048,-328,192,7,56,-6
11985,-2040,-312,152,6,57,-6
11990,-2064,-344,176,10,56,-6
11995,-2056,-304,152,13,54,-7
12000,-2016,-296,160,16,51,-8
12005,-2032,-312,160,20,49,-9
12010,-2032,-304,168,23,49,-8
12015,-2032,-304,160,21,51,-7
12020,-2048,-296,192,16,52,-6
12025,-2024,-296,168,14,51,-5
12030,-2016,-304,176,13,50,-5
12035,-2024,-304,176,14,50,-5
12040,-2040,-288,200,14,49,-4
12045,-2040,-304,184,13,50,-4
12050,-2048,-304,176,9,53,-4
12055,-2048,-312,184,6,53,-6
12060,-2048,-296,160,2,56,-7
12065,-2040,-328,184,0,56,-7
12070,-2040,-320,184,3,55,-8
12075,-2048,-320,192,6,53,-9
12080,-2032,-304,160,8,56,-9
12085,-2032,-304,176,9,57,-10
12090,-2032,-296,176,13,57,-10
12095,-2048,-288,168,14,58,-10
12100,-2056,-304,168,13,60,-10
12105,-2048,-288,152,14,61,-11
12110,-2040,-296,200,12,61,-10
12115,-2040,-296,176,9,62,-8
12120,-2032,-296,160,8,58,-8
12125,-2040,-304,192,6,56,-10
12130,-2040,-312,208,5,53,-12
12135,-2024,-320,176,3,52,-11
12140,-2024,-320,152,2,53,-11
12145,-2024,-336,168,0,54,-11
12150,-2040,-328,160,1,54,-12
12155,-2024,-312,168,4,54,-10
12160,-2048,-312,168,8,55,-8
12165,-2040,-328,176,8,58,-6
12170,-2016,-304,200,11,60,-6
12175,-2016,-304,176,13,59,-6
12180,-2032,-312,176,15,58,-5
12185,-2040,-288,144,17,56,-5
12190,-2048,-296,168,16,58,-5
12195,-2048,-328,192,14,58,-6
12200,-2024,-304,160,12,60,-7
12205,-2048,-304,184,10,61,-4
12210,-2032,-304,184,9,61,-5
12215,-2040,-296,168,9,62,-7
12220,-2040,-296,184,8,61,-8
12225,-2032,-328,176,9,66,-7
12230,-2024,-312,192,7,67,-7
12235,-2048,-320,184,6,68,-7
12240,-2040,-296,176,5,67,-7
12245,-2048,-280,168,5,66,-8
12250,-2040,-328,160,7,65,-8
12255,-2056,-328,192,11,63,-9
12260,-1968,-320,208,12,64,-7
12265,-2032,-328,168,13,63,-6
12270,-2032,-320,168,13,62,-8
12275,-2040,-304,184,15,57,-11
12280,-2024,-312,208,17,54,-11
12285,-2024,-288,192,17,54,-12
12290,-2040,-288,160,19,54,-11
12295,-2024,-304,192,21,54,-12
12300,-2032,-304,184,20,57,-11
12305,-2040,-296,192,19,60,-10
12310,-2040,-312,192,18,61,-8
12315,-2024,-304,176,19,62,-9
12320,-2032,-336,200,18,62,-7
12325,-2048,-280,168,20,63,-8
12330,-2040,-288,176,19,66,-8
12335,-2032,-336,200,19,65,-8
12340,-2032,-296,184,21,68,-7
12345,-2024,-312,208,21,73,-8
12350,-2032,-304,176,19,74,-8
12355,-2024,-344,192,19,75,-6
12360,-2024,-320,192,21,74,-7
12365,-2048,-296,184,21,74,-8
12370,-2040,-272,184,23,73,-8
12375,-2016,-312,168,23,74,-9
12380,-2024,-312,168,20,77,-10
12385,-2024,-304,208,23,74,-8
12390,-2016,-344,176,25,70,-8
12395,-2024,-320,208,25,70,-7
12400,-2016,-320,184,23,69,-7
12405,-2032,-296,216,23,67,-7
12410,-2048,-312,216,20,63,-6
12415,-2024,-280,160,20,59,-6
12420,-2040,-336,176,18,60,-7
12425,-2040,-336,200,19,60,-5
12430,-2032,-320,168,17,57,-4
12435,-2040,-304,168,15,58,-3
12440,-2040,-312,176,12,59,-1
12445,-2040,-328,192,9,60,-2
12450,-2040,-336,192,8,60,-3
12455,-2040,-312,160,11,59,-4
12460,-2040,-336,192,13,60,-3
12465,-2024,-328,192,14,60,-4
12470,-2048,-304,184,15,59,-5
12475,-2032,-336,192,14,60,-6
12480,-2024,-320,208,13,59,-5
12485,-2024,-320,192,12,55,-6
12490,-2048,-336,192,12,52,-6
12495,-2040,-304,192,12,51,-6
12500,-2032,-296,144,11,53,-6
12505,-2032,-320,144,11,56,-6
12510,-2024,-312,184,11,57,-7
12515,-2048,-328,184,13,57,-4
12520,-2048,-280,176,16,56,-5
12525,-2024,-296,184,17,56,-2
12530,-2016,-296,192,17,55,-1
12535,-2032,-352,112,16,58,-1
12540,-2032,-320,168,15,57,-1
12545,-2032,-296,184,15,57,-4
12550,-2040,-288,184,13,57,-5
12555,-2032,-304,184,11,54,-5
12560,-2032,-296,224,9,51,-5
12565,-2048,-320,216,9,50,-4
12570,-2040,-320,208,9,54,-3
12575,-2040,-296,200,9,56,-4
12580,-2040,-304,224,9,60,-4
12585,-2040,-296,208,8,63,-4
12590,-2048,-288,184,8,66,-3
12595,-2024,-312,200,7,65,-2
12600,-2040,-312,216,5,67,0
12605,-2032,-320,232,5,66,2
12610,-2032,-312,176,4,68,1
12615,-2040,-320,200,5,68,1
12620,-2024,-328,192,7,69,1
12625,-2032,-280,200,10,70,1
12630,-2040,-296,224,10,70,1
12635,-2032,-288,216,11,71,1
12640,-2032,-288,208,10,71,2
12645,-2032,-304,184,6,70,1
12650,-2040,-296,184,5,73,1
12655,-2048,-280,200,2,76,1
12660,-2024,-304,192,1,78,1
12665,-2040,-296,192,-2,78,3
12670,-2032,-296,200,-4,81,4
12675,-2032,-336,216,-4,83,4
12680,-2048,-320,200,-3,86,4
12685,-2048,-296,224,-2,86,1
12690,-2040,-328,200,-1,87,0
12695,-2024,-296,184,3,86,-2
12700,-2040,-320,160,8,85,-1
12705,-2032,-312,136,12,85,-2
12710,-2032,-320,168,14,83,-3
12715,-2040,-296,184,16,82,-3
12720,-2032,-296,176,19,82,0
12725,-2032,-312,192,20,81,0
12730,-2040,-304,184,24,79,0
12735,-2040,-312,176,26,75,1
12740,-2032,-312,192,26,74,2
12745,-2040,-312,176,27,74,3
12750,-2040,-328,184,27,73,4
12755,-2032,-328,176,27,73,3
12760,-2024,-280,208,26,73,3
12765,-2040,-312,184,23,75,3
12770,-2032,-328,200,18,72,4
12775,-2024,-336,192,17,71,4
12780,-2048,-312,192,16,73,3
12785,-2048,-256,192,14,74,3
12790,-2040,-312,216,13,73,3
12795,-2040,-320,168,12,73,4
12800,-2040,-288,168,13,74,4
12805,-2024,-288,216,14,77,5
12810,-2048,-288,168,13,79,7
12815,-2040,-288,184,11,82,6
12820,-2056,-288,192,10,87,6
12825,-2008,-328,176,10,86,6
12830,-2032,-304,184,12,86,6
12835,-2032,-288,192,12,84,7
12840,-2048,-280,216,11,84,5
12845,-2024,-304,184,8,85,4
12850,-2032,-296,184,6,84,2
12855,-2032,-288,224,3,81,1
12860,-2056,-304,192,2,78,-2
12865,-2032,-320,192,2,79,-2
12870,-2048,-288,184,2,79,-3
12875,-2016,-280,176,3,76,-3
12880,-2032,-296,176,3,76,0
12885,-2040,-312,160,1,75,-1
12890,-2040,-304,208,0,76,-1
12895,-2032,-304,184,-1,76,-1
12900,-2040,-320,192,-3,76,-2
12905,-2040,-304,184,-2,78,-3
12910,-2032,-312,200,-3,77,-2
12915,-2032,-304,184,-4,77,-1
12920,-2040,-288,200,-5,76,-2
12925,-2048,-288,184,-8,78,-1
12930,-2032,-296,208,-10,79,-2
12935,-2040,-312,208,-12,78,-2
12940,-2048,-320,192,-15,79,-1
12945,-2024,-328,200,-17,78,-1
12950,-2040,-296,224,-17,79,0
12955,-2048,-304,216,-18,82,0
12960,-2064,-288,216,-20,82,0
12965,-2064,-304,192,-21,80,1
12970,-2080,-304,152,-21,82,0
12975,-2048,-312,176,-21,81,0
12980,-2040,-296,168,-19,81,0
12985,-2040,-320,144,-16,80,-1
12990,-2048,-304,160,-10,79,-1
12995,-2040,-312,152,-5,80,-1
13000,-2048,-280,184,-1,80,-2
13005,-2056,-296,192,3,81,-4
13010,-2048,-288,168,5,81,-4
13015,-2048,-288,192,5,82,-4
13020,-2048,-304,208,4,82,-4
13025,-2032,-288,192,3,79,-2
13030,-2016,-280,216,1,74,-4
13035,-2032,-280,176,-2,71,-4
13040,-2048,-288,144,-6,69,-4
13045,-2032,-288,176,-9,67,-4
13050,-2016,-304,192,-12,66,-4
13055,-2024,-304,192,-15,64,-3
13060,-2040,-304,184,-16,63,-2
13065,-2048,-312,232,-17,63,-2
13070,-2032,-312,176,-17,63,-1
13075,-2032,-288,184,-17,64,-1
13080,-2032,-256,152,-15,64,0
13085,-2048,-304,176,-14,65,1
13090,-2032,-320,192,-13,65,2
13095,-2048,-288,160,-13,65,3
13100,-2032,-304,184,-13,65,3
13105,-2032,-304,216,-12,65,4
13110,-2048,-304,200,-12,63,4
13115,-2048,-296,176,-11,63,4
13120,-2016,-296,168,-11,65,3
13125,-2040,-288,200,-11,67,3
13130,-2032,-296,192,-12,67,4
13135,-2032,-288,168,-13,68,3
13140,-2040,-296,216,-13,68,4
13145,-2040,-312,192,-14,67,4
13150,-2040,-296,160,-14,69,2
13155,-2024,-320,160,-14,69,2
13160,-2048,-304,160,-12,68,1
13165,-2040,-288,184,-12,67,1
13170,-2048,-288,208,-12,66,0
13175,-2040,-312,184,-12,68,-1
13180,-2048,-312,192,-13,67,-1
13185,-2024,-296,168,-13,66,0
13190,-2048,-272,168,-13,68,2
13195,-2024,-304,168,-13,68,1
13200,-2016,-312,160,-11,71,1
13205,-2048,-288,176,-10,71,3
13210,-2032,-304,208,-12,72,1
13215,-2040,-296,200,-11,73,2
13220,-2016,-304,192,-13,73,3
13225,-2032,-288,208,-16,74,4
13230,-2040,-304,176,-16,74,4
13235,-2032,-328,192,-17,74,5
13240,-2032,-296,208,-17,74,7
13245,-2048,-304,200,-18,74,7
13250,-2048,-280,192,-18,75,6
13255,-2048,-296,192,-18,75,8
13260,-2048,-296,168,-17,77,10
13265,-2024,-312,200,-16,77,11
13270,-2032,-304,192,-14,79,11
13275,-2040,-296,192,-14,80,11
13280,-2040,-320,216,-13,81,9
13285,-2048,-288,168,-12,82,10
13290,-2040,-296,200,-12,81,10
13295,-2040,-296,216,-10,82,10
13300,-2040,-312,200,-11,83,10
13305,-2040,-304,160,-10,83,9
13310,-2056,-288,176,-11,84,9
13315,-2048,-288,168,-10,83,9
13320,-2024,-288,200,-9,83,7
13325,-2040,-288,184,-9,84,7
13330,-2040,-296,168,-8,84,6
13335,-2032,-288,152,-9,84,7
13340,-2032,-288,184,-9,83,6
13345,-2040,-280,192,-8,84,8
13350,-2048,-272,200,-7,83,6
13355,-2024,-280,184,-6,82,6
13360,-2048,-280,184,-8,82,5
13365,-2032,-304,152,-8,81,5
13370,-2016,-296,184,-8,79,3
13375,-2032,-304,152,-9,77,2
13380,-2040,-288,200,-11,75,1
13385,-2024,-288,176,-11,74,0
13390,-2032,-304,176,-14,73,-1
13395,-2040,-280,168,-14,71,-1
13400,-2032,-312,168,-14,71,-1
13405,-2032,-304,192,-16,70,-1
13410,-2016,-304,176,-15,69,0
13415,-2040,-280,184,-15,68,-2
13420,-2040,-320,168,-16,66,-2
13425,-2048,-280,176,-16,64,-1
13430,-2024,-312,168,-15,62,-2
13435,-2032,-304,184,-16,59,0
13440,-2040,-296,176,-15,58,-3
13445,-2032,-296,128,-17,56,-3
13450,-2032,-288,184,-18,54,-4
13455,-2016,-232,120,-19,51,-5
13460,-2048,-248,192,-20,50,-5
13465,-2032,-288,160,-18,50,-5
13470,-2040,-288,200,-19,51,-4
13475,-2048,-296,184,-18,52,-3
13480,-2024,-288,184,-18,51,-2
13485,-2040,-256,168,-17,50,-2
13490,-2048,-264,176,-18,50,-1
13495,-2024,-280,184,-18,51,-1
13500,-2040,-312,184,-17,51,0
13505,-2056,-296,184,-19,50,-2
13510,-2040,-288,168,-18,50,-3
13515,-2048,-280,176,-19,49,-3
13520,-2040,-320,176,-20,49,-5
13525,-2032,-288,192,-21,49,-3
13530,-2032,-304,176,-23,48,-5
13535,-2032,-328,208,-26,48,-5
13540,-2024,-296,184,-26,47,-4
13545,-2032,-312,192,-28,46,-3
13550,-2040,-280,160,-30,44,-3
13555,-2040,-280,184,-33,43,-2
13560,-2032,-312,192,-37,43,0
13565,-2032,-320,184,-38,43,1
13570,-2040,-312,176,-39,43,1
13575,-2040,-288,200,-41,42,1
13580,-2040,-312,192,-42,44,0
13585,-2040,-280,184,-45,43,0
13590,-2032,-296,200,-49,42,0
13595,-2048,-312,208,-50,44,-1
13600,-2040,-312,176,-49,44,0
13605,-2048,-288,184,-48,44,-2
13610,-2048,-296,192,-46,41,-3
13615,-2040,-280,160,-44,42,-2
13620,-2016,-312,216,-42,42,-3
13625,-2048,-288,192,-43,41,-6
13630,-2040,-296,192,-46,41,-6
13635,-2032,-280,184,-46,41,-7
13640,-2040,-256,160,-45,41,-10
13645,-2048,-288,168,-46,41,-12
13650,-2040,-272,160,-47,43,-14
13655,-2048,-272,168,-48,45,-15
13660,-2048,-280,184,-46,47,-16
13665,-2032,-312,184,-45,47,-16
13670,-2040,-312,224,-43,50,-15
13675,-2040,-288,208,-39,52,-13
13680,-2032,-296,192,-37,52,-13
13685,-2024,-328,192,-36,53,-12
13690,-2040,-296,216,-36,52,-7
13695,-2024,-320,192,-37,52,-6
13700,-2016,-320,184,-38,55,-5
13705,-2032,-296,200,-38,56,-2
13710,-2024,-304,200,-38,57,0
13715,-2024,-312,224,-38,56,3
13720,-2016,-304,176,-36,56,3
13725,-2024,-288,208,-39,55,6
13730,-2024,-320,208,-38,51,6
13735,-1992,-256,160,-41,50,6
13740,-2040,-288,208,-44,50,6
13745,-2032,-304,208,-48,51,7
13750,-2016,-296,168,-51,53,5
13755,-2032,-304,208,-53,57,6
13760,-2024,-304,192,-54,59,5
13765,-2032,-296,184,-54,61,5
13770,-2040,-320,200,-55,66,4
13775,-2032,-272,200,-52,68,4
13780,-2040,-288,176,-48,70,3
13785,-2048,-288,184,-45,74,2
13790,-2032,-280,208,-44,74,2
13795,-2048,-280,208,-44,76,1
13800,-2024,-296,208,-47,75,1
13805,-2032,-288,208,-48,75,0
13810,-2040,-280,200,-49,76,-1
13815,-2048,-280,216,-50,79,-1
13820,-2024,-288,200,-51,82,0
13825,-2048,-296,208,-49,86,-2
13830,-2032,-288,192,-44,90,-2
13835,-2032,-288,200,-43,97,-3
13840,-2016,-288,192,-43,102,-6
13845,-2056,-264,128,-44,105,-7
13850,-2048,-280,184,-46,104,-6
13855,-2040,-280,168,-46,95,-5
13860,-2040,-304,168,-46,94,-6
13865,-2040,-264,152,-46,89,-7
13870,-2048,-288,192,-48,90,-6
13875,-2064,-296,200,-52,83,-6
13880,-2040,-296,176,-49,76,-7
13885,-2040,-280,192,-45,72,-8
13890,-2048,-288,200,-48,70,-9
13895,-2040,-296,192,-51,70,-8
13900,-2032,-288,200,-56,74,-8
13905,-2040,-328,192,-62,81,-5
13910,-2048,-328,176,-64,79,-4
13915,-2056,-320,184,-64,80,-4
13920,-2048,-312,192,-67,83,-2
13925,-2040,-328,184,-68,79,-4
13930,-2040,-312,168,-68,76,-5
13935,-2040,-328,168,-68,76,-2
13940,-2048,-304,216,-67,79,-2
13945,-2048,-304,208,-68,76,-1
13950,-2000,-216,200,-66,72,-2
13955,-2008,-304,160,-67,76,-3
13960,-2032,-288,192,-70,83,-3
13965,-2048,-288,200,-71,84,-2
13970,-2048,-320,160,-69,77,-5
13975,-2040,-320,168,-66,70,-8
13980,-2040,-312,176,-62,65,-11
13985,-2048,-296,208,-56,60,-14
13990,-2040,-288,192,-51,55,-12
13995,-2032,-304,168,-48,56,-11
14000,-2032,-312,192,-50,58,-10
14005,-2048,-280,224,-52,59,-12
14010,-2024,-312,200,-56,63,-10
14015,-2032,-288,192,-62,68,-11
14020,-2032,-296,160,-64,69,-9
14025,-2040,-296,208,-68,71,-9
14030,-2024,-328,200,-69,67,-7
14035,-2040,-296,160,-72,69,-8
14040,-2048,-304,192,-75,74,-7
14045,-2024,-296,200,-76,72,-8
14050,-2032,-280,184,-71,64,-11
14055,-2024,-352,232,-75,69,-9
14060,-2032,-296,200,-82,74,-8
14065,-2040,-320,192,-84,77,-8
14070,-2048,-288,168,-88,74,-7
14075,-2008,-328,200,-86,68,-8
14080,-2024,-336,216,-87,71,-7
14085,-2040,-320,168,-85,73,-6
14090,-2032,-288,176,-82,71,-8
14095,-2056,-256,192,-78,68,-6
14100,-2056,-288,192,-75,63,-7
14105,-2024,-296,168,-72,60,-5
14110,-2024,-312,184,-69,58,-6
14115,-2040,-264,160,-67,57,-6
14120,-2040,-272,144,-66,59,-5
14125,-2032,-304,168,-67,65,-3
14130,-2048,-280,168,-65,64,-5
14135,-2032,-272,168,-65,62,-7
14140,-2056,-304,168,-68,61,-6
14145,-2032,-296,136,-66,56,-8
14150,-2048,-304,152,-67,56,-10
14155,-2048,-304,152,-64,56,-10
14160,-2056,-312,200,-63,58,-10
14165,-2032,-328,152,-58,54,-11
14170,-2040,-288,128,-53,53,-12
14175,-2032,-328,184,-54,56,-13
14180,-2040,-304,136,-54,61,-15
14185,-2048,-336,160,-54,61,-16
14190,-2040,-320,184,-50,55,-16
14195,-2024,-312,184,-49,53,-17
14200,-2048,-328,192,-47,51,-16
14205,-2048,-288,184,-45,46,-18
14210,-2040,-288,176,-41,43,-17
14215,-2064,-296,192,-39,42,-17
14220,-2040,-320,200,-37,39,-16
14225,-2032,-312,184,-38,42,-18
14230,-2056,-312,184,-40,45,-20
14235,-2048,-320,176,-40,49,-20
14240,-2040,-304,200,-37,49,-19
14245,-2032,-320,192,-33,45,-17
14250,-2024,-312,192,-31,42,-15
14255,-2016,-312,192,-31,42,-12
14260,-2016,-336,184,-30,42,-9
14265,-2040,-320,160,-30,46,-9
14270,-2024,-328,216,-28,51,-7
14275,-2024,-312,184,-24,55,-7
14280,-2016,-312,264,-20,56,-7
14285,-2024,-304,208,-19,63,-8
14290,-2032,-312,216,-18,64,-7
14295,-2032,-296,176,-18,64,-8
14300,-2032,-312,192,-18,61,-8
14305,-2032,-320,192,-17,60,-10
14310,-2032,-360,200,-13,61,-8
14315,-2032,-336,160,-11,62,-7
14320,-2032,-320,200,-9,63,-7
14325,-2024,-304,200,-6,66,-8
14330,-2032,-312,184,-7,70,-6
14335,-2008,-328,192,-7,72,-3
14340,-2032,-312,200,-9,75,0
14345,-2024,-328,192,-9,74,1
14350,-2024,-296,216,-10,74,0
14355,-2032,-328,160,-10,77,1
14360,-2024,-312,152,-8,76,1
14365,-2016,-328,168,-7,79,-1
14370,-2024,-288,184,-8,83,0
14375,-2008,-304,200,-9,84,0
14380,-2040,-288,160,-10,87,2
14385,-2016,-304,152,-11,88,3
14390,-2032,-304,168,-11,90,2
14395,-2040,-328,168,-12,90,3
14400,-2048,-304,160,-13,89,3
14405,-2032,-312,160,-14,90,3
14410,-2024,-320,184,-13,89,3
14415,-2032,-320,176,-12,88,3
14420,-2016,-328,168,-14,87,4
14425,-2016,-320,192,-15,84,2
14430,-2032,-320,176,-17,82,1
14435,-2032,-304,176,-17,79,1
14440,-2040,-336,168,-15,77,0
14445,-2048,-320,168,-14,75,0
14450,-2040,-296,168,-12,73,1
14455,-2040,-304,128,-8,73,2
14460,-2040,-328,160,-9,70,3
14465,-2040,-296,152,-10,71,2
14470,-2040,-312,160,-12,73,2
14475,-2040,-296,160,-15,73,1
14480,-2048,-272,152,-16,73,0
14485,-2032,-312,160,-16,72,2
14490,-2048,-312,168,-16,72,2
14495,-2024,-256,88,-16,73,1
14500,-2040,-304,160,-14,72,-2
14505,-2040,-288,168,-14,73,-1
14510,-2032,-280,184,-13,74,0
14515,-2032,-288,176,-13,73,-2
14520,-2040,-304,160,-12,71,-3
14525,-2048,-296,136,-12,68,-3
14530,-2032,-288,152,-12,65,-4
14535,-2056,-264,136,-14,63,-8
14540,-2048,-288,168,-16,61,-9
14545,-2040,-288,168,-19,60,-14
14550,-2016,-304,160,-22,57,-14
14555,-2056,-320,192,-22,55,-15
14560,-2024,-328,168,-21,53,-17
14565,-2040,-344,152,-19,52,-17
14570,-2048,-328,176,-15,51,-16
14575,-2048,-336,168,-10,48,-15
14580,-2032,-320,192,-6,48,-15
14585,-2048,-320,176,-2,46,-15
14590,-2032,-320,152,0,48,-13
14595,-2040,-312,184,2,46,-13
14600,-2032,-320,184,3,47,-11
14605,-2048,-296,208,3,48,-10
14610,-2040,-328,216,0,49,-9
14615,-2024,-328,176,-1,50,-7
14620,-2032,-320,200,-3,53,-7
14625,-2032,-336,216,-3,53,-6
14630,-2040,-344,184,-2,52,-5
14635,-2040,-312,200,-2,50,-4
14640,-2016,-288,176,-1,49,-4
14645,-2040,-304,176,0,49,-4
14650,-2040,-280,160,0,47,-6
14655,-2064,-280,152,3,45,-6
14660,-2016,-296,152,5,46,-9
14665,-2032,-296,176,8,45,-9
14670,-2032,-288,168,10,44,-11
14675,-2024,-312,184,12,44,-11
14680,-2032,-280,160,15,44,-13
14685,-2032,-288,176,19,41,-14
14690,-2024,-312,168,21,39,-15
14695,-2016,-328,160,22,35,-16
14700,-2016,-296,184,23,32,-16
14705,-2040,-304,184,25,29,-19
14710,-2032,-328,168,29,28,-18
14715,-2056,-312,200,34,24,-18
14720,-2032,-304,168,39,25,-19
14725,-2040,-312,192,40,28,-19
14730,-2048,-320,184,42,29,-16
14735,-2048,-288,208,45,29,-15
14740,-2048,-304,224,50,29,-16
14745,-2048,-304,184,54,29,-17
14750,-2048,-304,184,60,26,-17
14755,-2016,-328,168,63,27,-18
14760,-2024,-320,184,67,29,-19
14765,-2048,-312,192,68,29,-19
14770,-2032,-328,216,71,28,-17
14775,-2016,-320,192,75,28,-17
14780,-2032,-304,184,74,34,-18
14785,-2032,-312,168,72,35,-18
14790,-2024,-304,192,72,34,-18
14795,-2024,-304,184,73,38,-17
14800,-2056,-296,184,73,41,-17
14805,-2016,-312,184,74,37,-16
14810,-2032,-304,168,77,32,-16
14815,-2056,-288,216,75,34,-18
14820,-2032,-296,256,71,37,-17
14825,-2016,-296,200,70,35,-17
14830,-2024,-312,216,66,36,-21
14835,-2040,-288,224,63,35,-25
14840,-2016,-336,248,59,34,-25
14845,-2040,-320,216,55,37,-27
14850,-2040,-320,200,53,41,-28
14855,-2040,-304,208,53,41,-28
14860,-2040,-288,208,52,40,-28
14865,-2048,-312,232,52,40,-28
14870,-2048,-296,208,50,48,-28
14875,-2040,-328,232,47,56,-28
14880,-2040,-320,232,44,58,-28
14885,-2032,-320,208,44,57,-29
14890,-2024,-352,232,45,54,-25
14895,-2016,-336,232,47,55,-24
14900,-2024,-320,208,48,55,-23
14905,-2024,-328,200,51,52,-21
14910,-2040,-328,216,55,50,-20
14915,-2032,-320,200,59,45,-20
14920,-2024,-328,184,64,42,-19
14925,-2016,-320,232,65,41,-18
14930,-2064,-304,192,66,38,-17
14935,-2032,-320,232,64,40,-16
14940,-2024,-304,224,57,39,-14
14945,-2048,-304,240,54,42,-14
14950,-2024,-320,264,51,42,-12
14955,-1992,-344,256,51,41,-11
14960,-2040,-304,200,51,40,-12
14965,-2016,-296,200,55,43,-10
14970,-2024,-312,224,60,46,-10
14975,-2024,-328,216,66,50,-9
14980,-2032,-304,232,72,52,-5
14985,-2024,-328,192,75,53,-5
14990,-2040,-320,208,78,56,-6
14995,-2040,-312,224,80,53,-8
