timestamp,accel_x,accel_y,accel_z,gyro_x,gyro_y,gyro_z
0,128,-1624,928,-26,5,-6
5,120,-1600,904,-25,6,-5
10,120,-1616,896,-21,9,-5
15,104,-1608,928,-20,10,-5
20,112,-1624,888,-20,10,-4
25,112,-1616,920,-19,10,-3
30,112,-1600,912,-20,11,-1
35,96,-1600,920,-21,10,-2
40,128,-1584,912,-24,12,-2
45,128,-1616,912,-25,11,-2
50,104,-1600,912,-26,13,-3
55,120,-1616,912,-28,14,-3
60,120,-1600,904,-29,13,-4
65,88,-1624,912,-32,14,-5
70,88,-1616,936,-32,15,-6
75,104,-1616,880,-31,17,-7
80,120,-1640,936,-32,18,-9
85,128,-1608,896,-34,18,-10
90,112,-1608,928,-34,18,-10
95,104,-1616,904,-35,19,-13
100,112,-1624,912,-34,19,-12
105,104,-1640,936,-34,18,-11
110,120,-1624,928,-36,19,-11
115,128,-1632,912,-35,17,-11
120,120,-1616,920,-36,17,-12
125,112,-1632,968,-38,15,-12
130,104,-1624,944,-38,15,-14
135,120,-1624,896,-37,15,-13
140,128,-1640,888,-31,16,-12
145,136,-1648,912,-27,14,-12
150,120,-1632,920,-20,15,-11
155,136,-1640,936,-18,13,-10
160,104,-1624,920,-16,12,-10
165,128,-1608,896,-16,11,-10
170,128,-1640,896,-17,11,-8
175,104,-1600,896,-18,10,-9
180,112,-1608,864,-24,9,-12
185,104,-1616,896,-28,9,-11
190,120,-1600,896,-29,9,-11
195,112,-1592,904,-34,9,-12
200,120,-1600,904,-39,9,-12
205,96,-1600,928,-45,10,-13
210,112,-1608,888,-51,11,-12
215,112,-1592,904,-55,9,-10
220,120,-1592,888,-59,8,-10
225,112,-1608,896,-63,10,-10
230,104,-1616,888,-66,10,-9
235,80,-1608,888,-66,10,-8
240,120,-1624,880,-66,11,-8
245,104,-1616,904,-67,13,-6
250,120,-1624,904,-67,15,-5
255,96,-1632,920,-66,15,-4
260,112,-1600,912,-64,15,-3
265,104,-1624,864,-63,15,-4
270,120,-1624,912,-60,15,-2
275,112,-1624,920,-60,12,-1
280,112,-1624,912,-59,12,0
285,144,-1624,920,-58,11,-1
290,144,-1616,912,-59,10,-2
295,120,-1616,920,-58,8,-3
300,120,-1616,904,-58,7,-3
305,136,-1616,904,-57,8,-4
310,120,-1616,912,-58,10,-6
315,144,-1624,912,-60,11,-7
320,112,-1608,912,-59,11,-8
325,112,-1592,904,-61,12,-9
330,128,-1608,944,-61,11,-10
335,128,-1608,896,-62,11,-10
340,112,-1624,928,-64,12,-9
345,120,-1648,888,-63,10,-10
350,120,-1624,912,-65,11,-9
355,112,-1632,936,-65,11,-8
360,144,-1640,920,-63,9,-9
365,136,-1624,896,-61,9,-7
370,120,-1664,912,-60,8,-8
375,144,-1640,896,-60,7,-8
380,128,-1632,864,-58,8,-8
385,128,-1632,880,-57,8,-10
390,96,-1624,864,-58,9,-10
395,128,-1648,912,-59,11,-10
400,104,-1632,872,-59,12,-12
405,112,-1624,888,-62,13,-11
410,104,-1632,880,-64,14,-11
415,112,-1640,896,-67,12,-11
420,128,-1656,888,-66,12,-12
425,112,-1624,888,-66,12,-10
430,120,-1640,904,-66,11,-9
435,112,-1640,888,-68,11,-6
440,120,-1648,920,-71,10,-4
445,120,-1664,912,-69,11,-4
450,128,-1656,896,-64,10,-3
455,136,-1664,928,-62,9,-4
460,128,-1640,896,-61,10,-5
465,112,-1640,872,-63,7,-4
470,96,-1632,896,-64,6,-3
475,136,-1632,872,-66,5,-3
480,112,-1632,896,-65,6,-3
485,152,-1632,896,-64,8,-4
490,120,-1648,856,-64,8,-5
495,144,-1648,872,-61,9,-6
500,136,-1616,912,-55,11,-5
505,152,-1672,904,-51,12,-6
510,152,-1640,880,-49,15,-9
515,120,-1632,896,-44,16,-8
520,128,-1648,912,-38,14,-7
525,112,-1632,888,-30,11,-8
530,144,-1648,904,-21,7,-7
535,136,-1640,872,-11,3,-5
540,64,-1688,904,-2,5,10
545,152,-1656,880,6,1,15
550,168,-1672,888,10,9,15
555,168,-1664,888,10,13,24
560,136,-1640,888,2,6,40
565,72,-1568,784,-4,-3,49
570,16,-1584,872,-5,-8,61
575,72,-1616,888,-14,-10,73
580,96,-1648,872,-33,-6,74
585,80,-1640,880,-51,-4,76
590,112,-1640,856,-71,-6,77
595,120,-1624,872,-82,-13,74
600,136,-1632,864,-81,-19,69
605,160,-1624,904,-73,-23,60
610,184,-1592,904,-62,-23,46
615,144,-1608,920,-47,-16,30
620,112,-1576,928,-32,-5,17
625,96,-1608,896,-21,2,13
630,24,-1600,888,-22,3,10
635,32,-1616,904,-37,3,18
640,56,-1592,920,-63,-1,29
645,152,-1784,832,-115,-3,87
650,232,-1672,936,-182,3,79
655,64,-1688,904,-200,0,77
660,96,-1632,784,-216,-35,113
665,272,-1576,840,-249,-59,119
670,184,-1584,936,-243,-37,89
675,128,-1568,904,-208,-8,64
680,8,-1624,960,-162,21,49
685,176,-1696,928,-132,40,58
690,120,-1720,896,-118,45,45
695,112,-1704,920,-106,47,34
700,112,-1648,848,-101,28,37
705,64,-1648,824,-117,2,41
710,72,-1616,888,-113,-4,39
715,96,-1616,952,-99,3,23
720,120,-1640,992,-71,21,13
725,64,-1648,896,-43,35,7
730,72,-1608,840,-39,33,8
735,16,-1608,856,-55,31,18
740,32,-1624,888,-67,28,27
745,64,-1608,896,-66,26,38
750,120,-1624,840,-68,22,30
755,56,-1608,888,-68,23,25
760,104,-1632,904,-61,22,31
765,-16,-1584,888,-59,19,21
770,24,-1632,888,-45,17,27
775,56,-1624,856,-37,11,30
780,56,-1640,896,-46,4,36
785,48,-1656,856,-60,4,44
790,144,-1648,864,-72,3,43
795,120,-1648,856,-86,-2,39
800,120,-1672,880,-90,-4,34
805,144,-1680,880,-82,-4,32
810,144,-1672,880,-69,-3,28
815,112,-1680,904,-53,1,22
820,120,-1656,880,-41,5,15
825,120,-1664,856,-30,7,10
830,120,-1656,888,-17,5,2
835,120,-1672,896,-8,3,-4
840,112,-1664,872,5,-1,-10
845,120,-1672,896,18,-1,-16
850,120,-1664,872,28,-3,-21
855,112,-1648,872,34,-7,-27
860,136,-1648,864,38,-8,-30
865,144,-1648,856,42,-12,-31
870,128,-1616,848,45,-15,-33
875,144,-1608,856,44,-20,-36
880,144,-1616,888,43,-22,-38
885,136,-1584,880,46,-24,-39
890,136,-1592,896,53,-25,-41
895,128,-1600,976,60,-24,-44
900,120,-1584,928,64,-24,-47
905,120,-1584,944,65,-23,-45
910,104,-1592,904,60,-23,-42
915,128,-1592,896,53,-26,-38
920,88,-1576,936,42,-28,-31
925,120,-1608,912,27,-28,-25
930,120,-1608,904,14,-28,-16
935,112,-1616,912,5,-25,-7
940,112,-1632,936,-3,-22,2
945,136,-1624,920,-10,-19,11
950,120,-1640,960,-16,-12,17
955,152,-1648,976,-18,-10,22
960,136,-1664,952,-17,-4,21
965,120,-1632,952,-9,-2,21
970,120,-1632,960,-3,-1,18
975,144,-1640,936,3,1,13
980,152,-1616,912,7,2,7
985,120,-1608,912,8,4,1
990,136,-1632,872,11,6,-7
995,112,-1624,896,9,12,-15
1000,112,-1616,856,6,16,-22
1005,88,-1664,872,3,20,-31
1010,128,-1648,872,-4,22,-37
1015,120,-1624,872,-12,24,-44
1020,128,-1656,872,-19,26,-48
1025,136,-1640,912,-28,29,-50
1030,128,-1632,872,-36,31,-53
1035,224,-1640,928,-42,34,-60
1040,176,-1624,944,-32,49,-75
1045,176,-1632,928,-17,63,-79
1050,136,-1608,904,-1,68,-76
1055,128,-1592,928,11,72,-73
1060,144,-1600,928,13,74,-74
1065,120,-1568,920,13,77,-71
1070,120,-1608,888,9,78,-63
1075,120,-1592,880,0,82,-58
1080,112,-1568,896,-15,86,-48
1085,96,-1560,888,-35,89,-38
1090,104,-1584,888,-52,89,-27
1095,80,-1576,880,-68,88,-18
1100,96,-1608,856,-81,84,-10
1105,56,-1616,856,-95,80,-2
1110,32,-1664,904,-103,75,2
1115,64,-1648,872,-106,70,6
1120,48,-1664,888,-107,68,5
1125,64,-1640,896,-105,68,0
1130,56,-1656,896,-96,69,-8
1135,56,-1632,904,-87,70,-17
1140,72,-1640,920,-76,70,-25
1145,88,-1616,960,-67,70,-32
1150,96,-1640,912,-60,72,-37
1155,80,-1624,920,-51,73,-40
1160,80,-1608,952,-45,73,-43
1165,104,-1624,944,-40,75,-45
1170,64,-1608,896,-39,74,-44
1175,96,-1632,896,-38,73,-41
1180,88,-1592,896,-45,68,-35
1185,88,-1624,880,-52,63,-30
1190,104,-1632,912,-57,57,-23
1195,104,-1632,864,-62,51,-20
1200,104,-1616,904,-64,46,-11
1205,80,-1616,864,-65,40,-6
1210,104,-1632,880,-65,37,-2
1215,80,-1656,872,-64,37,3
1220,40,-1632,880,-58,35,6
1225,80,-1632,904,-56,35,10
1230,88,-1632,896,-51,37,10
1235,72,-1608,896,-48,38,9
1240,96,-1608,896,-48,41,8
1245,104,-1600,912,-48,42,9
1250,80,-1600,904,-52,41,8
1255,96,-1640,888,-51,41,5
1260,88,-1624,920,-53,38,4
1265,96,-1632,912,-52,36,2
1270,96,-1632,912,-53,35,-2
1275,88,-1624,920,-51,32,-4
1280,128,-1656,928,-52,28,-6
1285,104,-1656,944,-54,24,-7
1290,112,-1656,936,-53,20,-7
1295,104,-1640,920,-50,16,-8
1300,104,-1640,912,-45,10,-7
1305,112,-1664,864,-42,6,-6
1310,120,-1648,904,-38,2,-4
1315,104,-1664,872,-37,0,-3
1320,120,-1632,896,-33,-2,-3
1325,120,-1648,888,-30,-4,0
1330,128,-1632,872,-27,-5,2
1335,120,-1632,888,-24,-6,5
1340,128,-1632,864,-21,-7,7
1345,104,-1632,896,-20,-9,9
1350,104,-1624,888,-17,-9,10
1355,112,-1632,896,-16,-8,10
1360,112,-1624,896,-16,-9,12
1365,88,-1616,912,-18,-10,13
1370,112,-1648,896,-20,-11,13
1375,88,-1632,904,-24,-12,15
1380,64,-1616,912,-25,-13,14
1385,120,-1616,928,-30,-13,16
1390,88,-1600,888,-31,-16,15
1395,104,-1616,928,-35,-18,16
1400,120,-1624,888,-36,-19,16
1405,104,-1640,936,-37,-20,16
1410,120,-1600,888,-37,-21,16
1415,96,-1616,904,-40,-25,16
1420,112,-1600,920,-39,-26,18
1425,104,-1592,928,-38,-27,17
1430,104,-1592,896,-36,-27,18
1435,120,-1608,912,-33,-27,18
1440,128,-1592,936,-30,-27,18
1445,120,-1584,888,-28,-25,18
1450,104,-1608,936,-27,-26,18
1455,112,-1600,944,-26,-27,18
1460,96,-1600,944,-25,-29,18
1465,80,-1600,920,-27,-30,19
1470,104,-1632,928,-28,-31,20
1475,112,-1600,920,-31,-31,21
1480,120,-1592,904,-35,-33,21
1485,104,-1608,904,-36,-33,21
1490,96,-1624,952,-37,-31,23
1495,112,-1608,928,-39,-32,23
1500,104,-1608,928,-40,-32,25
1505,104,-1600,920,-44,-32,25
1510,112,-1624,936,-45,-32,25
1515,104,-1592,912,-48,-32,28
1520,104,-1600,936,-48,-33,30
1525,96,-1592,920,-49,-32,31
1530,128,-1592,928,-48,-30,32
1535,120,-1600,912,-48,-29,35
1540,104,-1616,912,-47,-27,36
1545,104,-1616,904,-51,-24,38
1550,104,-1656,904,-50,-23,38
1555,128,-1648,920,-52,-22,37
1560,104,-1632,912,-52,-22,35
1565,96,-1640,888,-55,-21,33
1570,96,-1632,904,-54,-21,30
1575,112,-1624,904,-54,-20,27
1580,112,-1640,912,-55,-21,24
1585,112,-1640,920,-56,-22,20
1590,112,-1632,904,-58,-22,17
1595,120,-1632,872,-57,-23,15
1600,88,-1624,888,-57,-21,13
1605,112,-1608,888,-54,-21,11
1610,120,-1632,888,-54,-18,12
1615,120,-1640,904,-54,-17,11
1620,112,-1624,928,-53,-15,10
1625,104,-1640,920,-53,-13,10
1630,112,-1640,920,-51,-11,9
1635,88,-1624,904,-51,-7,10
1640,88,-1608,912,-50,-4,10
1645,96,-1600,920,-50,-3,12
1650,120,-1624,912,-50,-1,10
1655,112,-1608,928,-49,2,11
1660,104,-1616,936,-49,1,13
1665,112,-1600,904,-52,3,14
1670,112,-1624,880,-54,3,13
1675,120,-1600,944,-59,3,14
1680,104,-1608,888,-62,5,13
1685,112,-1648,904,-65,4,12
1690,96,-1616,904,-67,5,10
1695,88,-1624,912,-70,5,7
1700,64,-1608,904,-71,6,6
1705,88,-1608,920,-73,6,4
1710,112,-1648,904,-73,8,1
1715,112,-1640,936,-74,8,-2
1720,112,-1640,872,-70,9,-6
1725,104,-1632,920,-67,10,-8
1730,112,-1624,904,-65,10,-11
1735,128,-1648,912,-65,12,-15
1740,104,-1640,912,-64,11,-15
1745,112,-1616,864,-64,10,-18
1750,136,-1624,904,-64,12,-18
1755,120,-1616,904,-64,11,-19
1760,120,-1592,880,-64,9,-18
1765,88,-1608,928,-64,10,-16
1770,128,-1648,848,-66,10,-16
1775,128,-1632,888,-65,11,-15
1780,112,-1624,880,-66,10,-12
1785,104,-1616,896,-67,12,-9
1790,104,-1608,896,-69,12,-8
1795,112,-1616,904,-72,14,-5
1800,104,-1616,920,-71,16,-2
1805,104,-1592,912,-72,14,-2
1810,88,-1608,928,-74,15,1
1815,96,-1600,920,-76,15,3
1820,128,-1616,920,-79,13,2
1825,120,-1608,928,-82,10,1
1830,128,-1640,904,-82,9,0
1835,128,-1616,896,-85,8,0
1840,104,-1616,880,-86,8,-2
1845,152,-1648,872,-86,8,-3
1850,144,-1632,888,-86,8,-4
1855,152,-1656,888,-85,8,-4
1860,128,-1640,888,-80,8,-7
1865,168,-1664,896,-78,8,-7
1870,104,-1688,936,-76,9,-7
1875,128,-1656,880,-74,8,-8
1880,144,-1656,896,-73,6,-10
1885,128,-1656,888,-75,6,-10
1890,120,-1664,904,-75,4,-9
1895,112,-1632,888,-73,2,-8
1900,128,-1632,904,-67,1,-6
1905,136,-1648,912,-64,-1,-5
1910,112,-1616,880,-62,-4,-6
1915,120,-1624,896,-60,-4,-3
1920,96,-1640,880,-57,-5,-2
1925,176,-1616,896,-56,-5,-1
1930,120,-1600,888,-56,-5,-2
1935,104,-1616,904,-57,-6,0
1940,120,-1632,904,-60,-5,1
1945,104,-1624,864,-64,-4,2
1950,112,-1616,920,-69,-4,3
1955,120,-1616,896,-71,-3,5
1960,104,-1640,912,-77,-2,7
1965,112,-1600,920,-79,-1,9
1970,128,-1616,888,-83,0,10
1975,120,-1616,928,-84,1,12
1980,104,-1616,912,-86,2,12
1985,104,-1632,920,-85,3,14
1990,120,-1640,904,-87,4,14
1995,128,-1632,904,-87,4,16
2000,104,-1600,912,-88,5,16
2005,104,-1624,888,-89,3,18
2010,96,-1592,904,-89,3,19
2015,104,-1632,912,-92,4,18
2020,96,-1608,904,-91,2,16
2025,112,-1632,896,-89,3,15
2030,112,-1616,904,-90,5,14
2035,112,-1600,864,-90,6,13
2040,120,-1616,920,-90,6,11
2045,104,-1600,896,-88,6,12
2050,120,-1608,912,-87,7,8
2055,120,-1616,856,-88,8,5
2060,128,-1616,904,-88,8,4
2065,152,-1632,872,-89,9,4
2070,144,-1640,856,-90,8,3
2075,120,-1616,888,-93,6,2
2080,88,-1632,904,-95,6,2
2085,96,-1632,896,-99,6,3
2090,104,-1640,896,-104,6,3
2095,112,-1640,896,-105,5,4
2100,96,-1640,904,-109,5,4
2105,112,-1648,888,-111,7,5
2110,104,-1656,880,-108,8,8
2115,104,-1656,920,-107,8,8
2120,104,-1688,880,-103,6,8
2125,104,-1656,920,-102,7,9
2130,128,-1696,904,-98,7,10
2135,104,-1664,888,-95,9,9
2140,128,-1680,880,-92,7,9
2145,112,-1640,888,-90,5,10
2150,120,-1656,840,-91,3,9
2155,104,-1672,896,-88,3,11
2160,104,-1656,848,-85,1,11
2165,104,-1656,888,-83,-2,14
2170,120,-1664,840,-84,-4,13
2175,120,-1632,888,-83,-3,13
2180,120,-1672,880,-84,-6,13
2185,112,-1656,872,-84,-6,12
2190,104,-1632,872,-85,-6,12
2195,112,-1664,824,-87,-4,11
2200,128,-1672,928,-88,-3,10
2205,104,-1648,872,-89,-2,9
2210,96,-1624,864,-91,-1,9
2215,112,-1656,864,-93,0,9
2220,88,-1680,880,-95,0,9
2225,104,-1656,864,-96,-1,10
2230,104,-1656,864,-98,-1,9
2235,80,-1656,872,-99,-2,12
2240,88,-1648,864,-102,-4,13
2245,96,-1656,872,-105,-4,15
2250,88,-1664,880,-107,-7,17
2255,120,-1664,824,-112,-5,18
2260,120,-1664,840,-114,-5,20
2265,104,-1664,840,-116,-5,21
2270,96,-1672,856,-117,-3,22
2275,112,-1640,832,-118,-3,23
2280,112,-1664,816,-118,-2,23
2285,112,-1648,856,-118,-1,21
2290,96,-1656,856,-116,-2,19
2295,104,-1640,864,-115,0,18
2300,120,-1640,816,-113,0,18
2305,128,-1664,856,-110,1,16
2310,112,-1728,904,-110,3,13
2315,128,-1624,880,-110,5,9
2320,112,-1664,848,-107,7,10
2325,120,-1656,872,-105,6,7
2330,144,-1656,872,-106,8,5
2335,128,-1672,880,-108,7,3
2340,128,-1640,872,-107,8,0
2345,136,-1680,880,-106,9,-3
2350,128,-1664,848,-107,9,-5
2355,144,-1656,872,-105,8,-6
2360,128,-1656,872,-106,10,-8
2365,104,-1656,888,-109,10,-9
2370,96,-1680,888,-112,12,-9
2375,104,-1640,864,-115,12,-8
2380,72,-1656,864,-117,12,-6
2385,96,-1664,856,-119,12,-6
2390,80,-1664,872,-121,15,-4
2395,72,-1640,856,-121,17,-4
2400,80,-1632,864,-120,18,-4
2405,80,-1648,808,-121,20,-2
2410,96,-1672,848,-122,19,-2
2415,56,-1664,832,-124,21,-1
2420,56,-1672,856,-121,20,-2
2425,96,-1672,856,-121,20,-2
2430,112,-1688,840,-120,18,-2
2435,120,-1688,840,-120,17,-3
2440,128,-1688,840,-121,15,-4
2445,120,-1680,832,-122,13,-5
2450,128,-1672,816,-123,10,-7
2455,136,-1704,848,-124,7,-8
2460,144,-1680,824,-124,3,-7
2465,144,-1728,816,-125,-1,-7
2470,144,-1712,848,-127,-6,-8
2475,112,-1728,824,-128,-11,-7
2480,128,-1728,808,-132,-15,-5
2485,128,-1712,784,-138,-18,0
2490,112,-1720,792,-145,-21,3
2495,112,-1744,800,-154,-21,4
2500,128,-1736,816,-158,-21,6
2505,104,-1720,816,-163,-17,7
2510,112,-1736,784,-163,-14,7
2515,128,-1696,784,-163,-8,8
2520,112,-1704,784,-161,-4,6
2525,104,-1704,800,-161,-1,6
2530,72,-1680,776,-157,3,5
2535,104,-1680,816,-155,8,5
2540,104,-1704,776,-151,10,5
2545,112,-1696,768,-153,11,4
2550,112,-1688,784,-151,13,4
2555,104,-1680,776,-153,14,4
2560,112,-1688,768,-152,14,3
2565,104,-1664,792,-156,13,2
2570,104,-1664,784,-160,12,0
2575,104,-1680,792,-165,10,-1
2580,112,-1672,784,-170,9,-2
2585,120,-1680,768,-174,6,-5
2590,120,-1696,824,-175,5,-5
2595,128,-1656,792,-178,5,-8
2600,112,-1664,792,-181,4,-9
2605,120,-1680,784,-180,3,-12
2610,104,-1680,832,-178,3,-13
2615,112,-1680,808,-175,5,-14
2620,96,-1688,840,-170,7,-15
2625,96,-1672,824,-166,8,-15
2630,128,-1672,800,-163,9,-15
2635,136,-1696,880,-160,12,-14
2640,128,-1664,848,-158,14,-14
2645,112,-1680,824,-152,16,-14
2650,112,-1664,800,-151,19,-14
2655,120,-1680,832,-149,21,-14
2660,136,-1664,816,-148,23,-12
2665,104,-1672,808,-148,24,-12
2670,120,-1648,840,-150,24,-11
2675,112,-1680,824,-151,23,-10
2680,128,-1664,824,-153,22,-10
2685,128,-1672,800,-159,21,-9
2690,128,-1688,840,-164,21,-9
2695,128,-1640,792,-166,21,-8
2700,136,-1696,792,-171,19,-10
2705,128,-1672,800,-176,16,-12
2710,128,-1672,792,-180,14,-11
2715,144,-1704,816,-188,14,-13
2720,120,-1704,800,-192,12,-12
2725,120,-1712,832,-195,9,-13
2730,104,-1720,800,-197,7,-13
2735,88,-1704,792,-200,5,-13
2740,112,-1728,816,-206,6,-16
2745,160,-1744,832,-211,4,-17
2750,120,-1744,784,-215,4,-18
2755,104,-1728,776,-215,8,-19
2760,128,-1760,792,-215,10,-20
2765,104,-1744,744,-214,9,-20
2770,120,-1728,752,-215,8,-21
2775,112,-1752,752,-217,8,-20
2780,112,-1736,744,-221,8,-20
2785,104,-1712,744,-226,7,-18
2790,112,-1728,712,-232,6,-16
2795,136,-1720,736,-239,5,-14
2800,104,-1712,752,-245,5,-11
2805,104,-1720,752,-246,4,-9
2810,112,-1744,736,-242,2,-7
2815,112,-1752,712,-233,0,-6
2820,128,-1744,720,-227,-1,-6
2825,104,-1736,696,-225,-2,-4
2830,120,-1752,680,-225,0,-1
2835,128,-1744,712,-224,-1,-1
2840,120,-1736,712,-221,0,0
2845,112,-1752,728,-219,1,1
2850,104,-1736,720,-218,1,1
2855,128,-1672,752,-219,1,1
2860,136,-1744,696,-218,-1,3
2865,128,-1744,736,-218,-3,3
2870,120,-1728,696,-224,-6,3
2875,128,-1760,688,-230,-9,3
2880,120,-1744,680,-237,-11,5
2885,104,-1728,648,-249,-15,6
2890,128,-1736,704,-265,-18,6
2895,120,-1752,696,-278,-19,7
2900,128,-1776,664,-282,-16,7
2905,112,-1752,696,-289,-15,7
2910,80,-1744,704,-294,-16,5
2915,96,-1760,656,-295,-15,5
2920,136,-1776,680,-296,-15,6
2925,120,-1752,664,-298,-14,7
2930,128,-1760,672,-301,-11,8
2935,120,-1784,680,-301,-10,8
2940,104,-1768,672,-297,-9,8
2945,112,-1760,680,-293,-9,10
2950,112,-1784,680,-291,-9,11
2955,120,-1832,648,-288,-7,13
2960,104,-1824,664,-284,-7,14
2965,112,-1840,672,-278,-7,12
2970,104,-1840,672,-271,-5,11
2975,96,-1848,648,-265,-4,9
2980,112,-1840,648,-260,0,6
2985,104,-1856,624,-252,2,5
2990,112,-1856,616,-248,5,4
2995,104,-1848,656,-244,8,1
3000,96,-1840,608,-237,10,-1
3005,96,-1824,616,-231,11,-4
3010,128,-1824,592,-227,14,-6
3015,112,-1800,624,-221,15,-7
3020,104,-1816,592,-214,17,-6
3025,112,-1800,600,-208,19,-6
3030,112,-1824,608,-201,18,-7
3035,144,-1824,584,-194,17,-9
3040,120,-1816,584,-185,18,-6
3045,136,-1824,608,-177,18,-6
3050,144,-1800,624,-170,17,-5
3055,152,-1800,576,-164,16,-4
3060,144,-1816,616,-161,17,-5
3065,144,-1776,600,-158,19,-4
3070,152,-1808,592,-155,21,-4
3075,96,-1784,608,-153,21,-2
3080,136,-1776,616,-149,23,-4
3085,144,-1792,608,-143,23,-5
3090,152,-1808,608,-140,22,-5
3095,144,-1792,624,-138,21,-5
3100,120,-1808,600,-137,20,-3
3105,136,-1824,656,-138,17,-3
3110,144,-1824,616,-143,15,-4
3115,136,-1840,592,-146,12,-3
3120,112,-1808,600,-149,11,-1
3125,128,-1832,600,-152,7,-2
3130,104,-1792,600,-155,6,-3
3135,96,-1816,592,-155,5,-4
3140,120,-1808,600,-153,4,-4
3145,120,-1832,608,-153,2,-4
3150,112,-1816,592,-151,3,-6
3155,112,-1832,608,-150,3,-6
3160,120,-1816,608,-147,5,-7
3165,96,-1824,608,-143,7,-8
3170,112,-1816,600,-141,7,-10
3175,112,-1824,608,-137,9,-12
3180,136,-1848,616,-132,10,-13
3185,136,-1848,600,-127,11,-14
3190,120,-1832,592,-123,12,-15
3195,120,-1824,576,-121,12,-14
3200,144,-1840,584,-122,13,-14
3205,136,-1840,592,-122,12,-12
3210,120,-1848,584,-119,12,-11
3215,120,-1856,584,-119,14,-10
3220,128,-1824,576,-119,14,-7
3225,120,-1848,568,-121,16,-6
3230,104,-1808,608,-123,17,-3
3235,120,-1816,576,-125,17,-1
3240,112,-1816,576,-127,18,0
3245,88,-1808,576,-126,16,2
3250,104,-1800,592,-127,18,3
3255,120,-1824,584,-128,17,3
3260,120,-1824,584,-128,18,2
3265,120,-1800,552,-130,16,2
3270,120,-1824,584,-130,17,3
3275,104,-1816,568,-129,15,2
3280,112,-1816,592,-129,15,4
3285,104,-1824,576,-131,14,1
3290,136,-1824,536,-132,13,2
3295,112,-1824,552,-131,13,1
3300,104,-1832,584,-132,12,1
3305,120,-1824,576,-134,12,2
3310,120,-1840,576,-136,12,2
3315,112,-1832,576,-136,12,2
3320,120,-1840,584,-138,12,1
3325,112,-1832,560,-137,13,0
3330,112,-1824,584,-138,12,-2
3335,112,-1824,592,-139,13,-4
3340,112,-1824,568,-143,13,-4
3345,136,-1832,592,-147,13,-8
3350,120,-1840,592,-149,11,-9
3355,112,-1800,576,-152,8,-11
3360,152,-1824,584,-155,8,-13
3365,136,-1816,560,-159,7,-14
3370,128,-1824,536,-160,4,-16
3375,120,-1824,560,-161,3,-17
3380,128,-1816,584,-165,0,-15
3385,128,-1832,536,-170,-3,-15
3390,120,-1816,560,-173,-3,-16
3395,120,-1840,536,-177,-5,-13
3400,104,-1848,552,-183,-8,-11
3405,88,-1832,560,-190,-11,-7
3410,104,-1856,568,-191,-13,-7
3415,112,-1880,568,-190,-12,-7
3420,96,-1856,560,-189,-12,-4
3425,96,-1840,528,-191,-15,-2
3430,88,-1856,568,-192,-17,-1
3435,80,-1856,576,-188,-18,0
3440,96,-1848,544,-184,-20,2
3445,88,-1848,544,-185,-22,3
3450,96,-1848,536,-185,-21,2
3455,104,-1832,544,-186,-20,4
3460,120,-1864,560,-184,-20,6
3465,136,-1856,552,-181,-18,7
3470,128,-1840,528,-180,-17,5
3475,152,-1856,560,-178,-17,5
3480,144,-1856,528,-178,-16,4
3485,144,-1856,512,-178,-15,3
3490,176,-1872,528,-180,-15,2
3495,152,-1840,528,-180,-17,2
3500,144,-1848,536,-180,-17,3
3505,128,-1832,552,-181,-18,4
3510,136,-1856,552,-184,-16,3
3515,136,-1864,520,-185,-15,4
3520,128,-1840,544,-187,-15,4
3525,128,-1856,512,-190,-14,5
3530,120,-1856,552,-190,-13,5
3535,136,-1840,536,-190,-13,7
3540,120,-1832,512,-191,-13,10
3545,128,-1832,544,-191,-10,9
3550,96,-1808,536,-188,-10,9
3555,96,-1824,512,-187,-9,7
3560,104,-1832,536,-186,-10,6
3565,120,-1824,560,-186,-10,5
3570,104,-1856,512,-185,-13,1
3575,104,-1848,520,-186,-14,-1
3580,112,-1840,544,-189,-16,-4
3585,112,-1864,520,-188,-17,-4
3590,112,-1872,544,-185,-19,-7
3595,88,-1848,552,-186,-21,-9
3600,136,-1848,512,-189,-22,-13
3605,120,-1856,512,-192,-21,-13
3610,112,-1848,496,-194,-20,-15
3615,120,-1864,488,-194,-21,-15
3620,128,-1856,472,-198,-18,-13
3625,128,-1856,496,-198,-18,-11
3630,128,-1840,504,-195,-18,-9
3635,152,-1848,456,-193,-19,-9
3640,104,-1856,488,-194,-20,-7
3645,144,-1864,456,-199,-25,-3
3650,136,-1856,496,-203,-29,1
3655,104,-1864,512,-211,-32,2
3660,112,-1840,480,-218,-35,4
3665,160,-1856,496,-228,-37,6
3670,104,-1848,504,-233,-41,6
3675,104,-1880,496,-238,-42,5
3680,88,-1864,456,-242,-43,4
3685,128,-1888,472,-244,-45,3
3690,104,-1864,456,-247,-46,0
3695,112,-1872,480,-251,-46,-4
3700,112,-1864,456,-257,-46,-7
3705,136,-1872,448,-260,-45,-11
3710,144,-1896,464,-263,-45,-14
3715,128,-1880,464,-265,-44,-16
3720,120,-1928,464,-266,-41,-19
3725,168,-1904,464,-267,-38,-20
3730,136,-1896,448,-266,-35,-21
3735,152,-1904,448,-265,-34,-23
3740,144,-1888,424,-263,-33,-21
3745,136,-1880,416,-263,-33,-18
3750,160,-1888,440,-264,-32,-13
3755,168,-1888,408,-263,-34,-9
3760,136,-1896,464,-262,-34,-5
3765,152,-1912,416,-262,-35,0
3770,152,-1888,424,-263,-36,3
3775,96,-1904,472,-266,-37,9
3780,144,-1904,408,-264,-39,11
3785,128,-1904,408,-264,-39,13
3790,120,-1904,384,-265,-38,11
3795,128,-1888,400,-269,-39,11
3800,120,-1864,360,-271,-40,10
3805,120,-1856,440,-273,-41,7
3810,120,-1872,400,-276,-43,5
3815,120,-1848,392,-280,-45,2
3820,128,-1872,400,-284,-46,0
3825,152,-1880,408,-287,-47,-3
3830,192,-1848,336,-290,-49,-5
3835,152,-1864,392,-290,-51,-7
3840,152,-1888,392,-291,-53,-9
3845,128,-1872,384,-292,-53,-8
3850,128,-1872,376,-292,-53,-9
3855,144,-1880,384,-294,-54,-11
3860,160,-1880,392,-300,-53,-13
3865,160,-1880,400,-305,-53,-10
3870,136,-1872,376,-311,-54,-9
3875,128,-1904,384,-318,-56,-6
3880,144,-1912,368,-325,-56,-4
3885,104,-1920,384,-332,-56,-2
3890,136,-1912,360,-340,-55,0
3895,120,-1904,384,-346,-53,3
3900,120,-1920,320,-350,-52,4
3905,104,-1896,344,-351,-48,5
3910,104,-1904,352,-355,-44,4
3915,80,-1880,344,-356,-40,5
3920,104,-1928,320,-355,-38,4
3925,120,-1888,296,-356,-36,5
3930,104,-1920,320,-355,-33,4
3935,120,-1920,312,-352,-32,3
3940,136,-1912,312,-349,-34,3
3945,120,-1880,240,-349,-37,3
3950,160,-1904,264,-353,-38,-1
3955,168,-1912,288,-356,-40,-2
3960,168,-1936,312,-362,-44,-2
3965,168,-1904,256,-366,-45,-3
3970,192,-1928,248,-366,-48,-2
3975,176,-1904,312,-365,-47,0
3980,176,-1928,272,-366,-45,1
3985,168,-1920,296,-367,-45,0
3990,176,-1952,288,-363,-44,1
3995,176,-1928,256,-362,-41,0
4000,176,-1912,256,-363,-41,0
4005,144,-1912,264,-369,-40,0
4010,144,-1936,248,-369,-40,2
4015,136,-1944,288,-368,-40,1
4020,104,-1920,272,-367,-38,0
4025,104,-1920,264,-366,-37,1
4030,120,-1904,248,-365,-37,3
4035,112,-1912,264,-365,-35,4
4040,120,-1904,232,-366,-34,5
4045,112,-1888,232,-371,-33,9
4050,128,-1888,256,-374,-31,11
4055,152,-1904,208,-381,-28,16
4060,136,-1896,232,-388,-26,18
4065,160,-1888,224,-394,-24,25
4070,136,-1904,216,-400,-22,32
4075,168,-1888,200,-409,-19,36
4080,128,-1896,224,-419,-17,39
4085,152,-1904,200,-425,-17,39
4090,120,-1896,216,-431,-17,41
4095,152,-1912,184,-436,-14,40
4100,144,-1888,168,-440,-12,41
4105,120,-1904,200,-446,-10,39
4110,112,-1912,184,-452,-10,29
4115,144,-1936,168,-458,-10,30
4120,136,-1944,168,-460,-11,34
4125,144,-1952,208,-460,-11,35
4130,168,-1944,176,-455,-10,33
4135,176,-1928,184,-454,-9,33
4140,160,-1920,168,-457,-5,32
4145,152,-1928,176,-460,-1,33
4150,168,-1960,176,-458,3,35
4155,160,-1920,136,-460,5,35
4160,184,-1928,144,-463,6,39
4165,160,-1904,168,-461,7,45
4170,160,-1912,160,-458,11,52
4175,160,-1896,104,-458,17,58
4180,192,-1912,112,-460,22,64
4185,168,-1904,152,-459,23,68
4190,176,-1888,112,-462,22,70
4195,184,-1880,112,-473,22,74
4200,112,-1896,104,-483,19,75
4205,152,-1912,104,-497,15,85
4210,120,-1920,80,-506,8,90
4215,128,-1904,80,-513,0,92
4220,160,-1920,96,-525,-10,94
4225,120,-1904,64,-540,-15,95
4230,104,-1888,72,-560,-21,96
4235,96,-1928,80,-577,-26,97
4240,104,-1920,88,-592,-31,98
4245,96,-1912,72,-607,-39,99
4250,104,-1928,32,-625,-45,101
4255,120,-1920,64,-644,-42,108
4260,96,-1936,64,-651,-37,110
4265,96,-1936,80,-665,-33,117
4270,80,-1912,56,-682,-31,129
4275,80,-1928,64,-698,-34,141
4280,-104,-1704,152,-707,-40,153
4285,192,-1952,48,-698,-48,188
4290,112,-1904,24,-703,-54,184
4295,88,-1880,8,-716,-54,186
4300,104,-1904,24,-736,-53,198
4305,72,-1920,8,-755,-54,208
4310,104,-1944,-16,-766,-59,218
4315,48,-1920,-48,-781,-61,226
4320,56,-1928,-48,-801,-64,234
4325,40,-1968,-16,-824,-66,240
4330,24,-1984,-32,-842,-66,247
4335,64,-2016,-40,-854,-74,252
4340,72,-1984,-32,-863,-80,245
4345,24,-1984,-72,-878,-78,237
4350,16,-1984,-40,-895,-76,238
4355,16,-1984,-8,-904,-74,240
4360,16,-1992,-64,-899,-76,243
4365,0,-1984,-40,-890,-85,244
4370,40,-1976,-32,-879,-93,246
4375,8,-1944,-8,-864,-103,250
4380,64,-1960,-88,-848,-113,257
4385,8,-1968,-64,-835,-125,261
4390,24,-1960,-120,-825,-133,265
4395,0,-1976,-120,-815,-140,269
4400,0,-1976,-80,-798,-144,274
4405,8,-1984,-88,-776,-145,275
4410,0,-1992,-104,-757,-142,274
4415,-8,-1984,-128,-735,-134,277
4420,-16,-1992,-136,-723,-125,278
4425,-8,-2000,-176,-718,-113,271
4430,-40,-1992,-128,-716,-102,262
4435,32,-2008,-184,-716,-89,256
4440,48,-2064,-136,-710,-76,254
4445,8,-2040,-144,-699,-65,240
4450,24,-2032,-152,-691,-57,217
4455,56,-2032,-152,-682,-49,200
4460,56,-2016,-152,-672,-46,180
4465,48,-2016,-168,-659,-48,164
4470,56,-2016,-168,-642,-56,151
4475,40,-2008,-208,-619,-67,138
4480,104,-1992,-200,-590,-79,130
4485,64,-1992,-200,-558,-93,122
4490,-56,-2008,-216,-522,-104,112
4495,48,-2016,-184,-483,-113,115
4500,16,-2008,-176,-441,-120,114
4505,-16,-1984,-160,-400,-121,112
4510,-16,-2008,-168,-358,-118,110
4515,-24,-1992,-168,-320,-110,105
4520,-24,-1984,-216,-285,-100,101
4525,0,-1984,-208,-261,-86,96
4530,0,-1960,-192,-245,-68,84
4535,0,-1952,-184,-235,-50,74
4540,-16,-1920,-192,-230,-33,65
4545,16,-1936,-176,-232,-15,62
4550,16,-1896,-208,-241,1,58
4555,184,-1816,-112,-249,17,49
4560,-128,-1880,-208,-240,32,-9
4565,-112,-1704,-128,-261,40,31
4570,104,-1912,-200,-279,54,48
4575,56,-1880,-192,-308,60,35
4580,64,-1872,-208,-343,67,27
4585,80,-1872,-192,-370,77,18
4590,48,-1888,-200,-392,87,12
4595,64,-1880,-208,-414,99,9
4600,64,-1928,-184,-435,112,5
4605,56,-1920,-192,-457,123,5
4610,16,-1944,-192,-473,134,4
4615,-8,-1976,-200,-493,142,3
4620,0,-1984,-184,-509,149,0
4625,-40,-2008,-224,-523,154,-2
4630,-64,-2032,-208,-532,158,-6
4635,-96,-2032,-232,-537,161,-8
4640,-64,-2072,-232,-541,164,-10
4645,-80,-2080,-296,-537,166,-12
4650,-80,-2072,-248,-529,170,-15
4655,-72,-2064,-264,-519,175,-18
4660,-40,-2072,-256,-503,181,-21
4665,-40,-2096,-264,-487,187,-24
4670,-56,-2072,-264,-471,194,-29
4675,-64,-2080,-232,-457,201,-35
4680,-32,-2072,-248,-445,207,-42
4685,-24,-2096,-256,-434,216,-48
4690,-8,-2080,-232,-424,226,-55
4695,-40,-2064,-248,-416,232,-64
4700,-16,-2040,-232,-406,242,-73
4705,-48,-2056,-256,-399,252,-81
4710,-16,-2056,-232,-391,261,-88
4715,-32,-2032,-240,-389,268,-95
4720,-48,-2032,-256,-388,276,-101
4725,-40,-2024,-272,-390,282,-104
4730,-32,-2008,-216,-397,288,-107
4735,-56,-2016,-264,-407,292,-109
4740,-104,-1984,-232,-419,295,-111
4745,-72,-1992,-200,-435,296,-108
4750,-72,-2000,-232,-451,296,-103
4755,-96,-1984,-168,-467,297,-101
4760,-104,-1984,-200,-481,300,-98
4765,-80,-1992,-192,-497,303,-94
4770,-88,-1984,-200,-509,307,-92
4775,-88,-1984,-176,-523,311,-89
4780,-72,-1984,-144,-534,314,-88
4785,-96,-1992,-160,-542,322,-89
4790,-80,-1976,-144,-548,328,-92
4795,-96,-1976,-144,-555,333,-93
4800,-88,-1944,-136,-561,336,-93
4805,-72,-1968,-160,-567,343,-96
4810,-96,-1944,-104,-575,351,-98
4815,-104,-1944,-152,-585,357,-100
4820,-80,-1920,-128,-600,361,-102
4825,-56,-1912,-104,-613,365,-102
4830,-72,-1896,-96,-624,370,-101
4835,-88,-1896,-88,-633,377,-102
4840,-72,-1880,-72,-642,382,-103
4845,-80,-1880,-80,-652,384,-104
4850,-88,-1880,-112,-669,388,-107
4855,-88,-1872,-88,-694,395,-108
4860,-80,-1848,-64,-722,403,-107
4865,-104,-1832,-80,-750,416,-105
4870,-80,-1848,-56,-777,425,-99
4875,-104,-1856,-80,-807,434,-96
4880,-112,-1864,-80,-836,448,-95
4885,-80,-1840,-48,-862,463,-95
4890,-112,-1864,-40,-884,482,-104
4895,-104,-1864,-64,-903,499,-111
4900,-120,-1824,-48,-918,514,-118
4905,-120,-1824,-72,-936,530,-122
4910,-128,-1800,-168,-953,542,-124
4915,-128,-1776,-184,-975,549,-124
4920,-152,-1760,-256,-998,549,-125
4925,-136,-1752,-320,-1023,547,-123
4930,-184,-1664,-424,-1045,541,-124
4935,-192,-1656,-520,-1069,531,-123
4940,-200,-1688,-632,-1100,524,-123
4945,-208,-1688,-800,-1134,514,-123
4950,-240,-1712,-968,-1181,502,-126
4955,-272,-1744,-1176,-1253,485,-121
4960,-336,-1784,-1472,-1351,465,-106
4965,-344,-1880,-1792,-1476,444,-84
4970,-400,-1968,-2128,-1633,421,-62
4975,-392,-2048,-2424,-1819,396,-34
4980,-440,-2136,-2712,-2028,373,-10
4985,-432,-2248,-3048,-2261,347,9
4990,-488,-2304,-3320,-2505,333,29
4995,-488,-2432,-3432,-2762,327,64
5000,-456,-2536,-3456,-2997,318,96
5005,-392,-2672,-3360,-3193,326,120
5010,-264,-2856,-3112,-3330,352,136
5015,-208,-3072,-2728,-3371,406,140
5020,-96,-3288,-2376,-3320,472,134
5025,48,-3392,-1984,-3202,541,118
5030,216,-3408,-1632,-3036,605,93
5035,336,-3320,-1288,-2841,662,51
5040,456,-3184,-1008,-2621,701,-26
5045,592,-3008,-824,-2383,723,-110
5050,648,-2792,-656,-2144,735,-206
5055,656,-2552,-560,-1925,737,-297
5060,680,-2312,-512,-1737,732,-376
5065,672,-2048,-552,-1593,717,-445
5070,632,-1800,-576,-1505,693,-510
5075,640,-1592,-560,-1473,668,-563
5080,608,-1336,-592,-1496,646,-606
5085,592,-1112,-520,-1571,624,-648
5090,584,-888,-472,-1689,608,-683
5095,624,-584,-392,-1828,598,-721
5100,592,-360,-264,-1992,605,-762
5105,600,-128,-176,-2164,631,-796
5110,536,80,0,-2331,678,-821
5115,632,128,64,-2465,730,-828
5120,504,232,168,-2558,780,-836
5125,448,288,144,-2595,811,-827
5130,512,208,224,-2591,818,-822
5135,400,112,216,-2528,817,-862
5140,296,-24,88,-2428,808,-910
5145,304,-248,0,-2333,820,-959
5150,312,-440,8,-2262,877,-1011
5155,240,-664,48,-2172,976,-1076
5160,288,-776,96,-2059,1104,-1114
5165,288,-992,112,-1961,1235,-1121
5170,392,-1024,216,-1851,1341,-1108
5175,472,-1064,288,-1699,1415,-1109
5180,496,-1040,248,-1492,1445,-1113
5185,568,-960,176,-1285,1425,-1099
5190,696,-952,88,-1097,1379,-1074
5195,784,-792,-112,-953,1339,-1047
5200,792,-752,-208,-906,1310,-1023
5205,856,-848,-240,-952,1288,-990
5210,856,-1056,-216,-1027,1254,-974
5215,832,-1232,-352,-1080,1204,-974
5220,856,-1304,-440,-1120,1162,-961
5225,856,-1360,-496,-1126,1146,-970
5230,888,-1360,-528,-1088,1171,-1004
5235,904,-1360,-480,-1022,1221,-1050
5240,920,-1216,-608,-918,1277,-1102
5245,928,-1032,-696,-827,1341,-1135
5250,912,-920,-752,-752,1378,-1173
5255,832,-784,-864,-661,1388,-1198
5260,824,-760,-816,-562,1389,-1201
5265,784,-688,-1008,-399,1377,-1223
5270,832,-552,-1200,-220,1375,-1256
5275,880,-536,-1336,-39,1394,-1271
5280,832,-512,-1528,160,1413,-1301
5285,800,-560,-1720,396,1421,-1333
5290,840,-480,-2032,631,1441,-1327
5295,832,-168,-2528,794,1484,-1319
5300,912,-384,-2544,798,1561,-1293
5305,192,1304,-12656,788,1639,-1269
5310,1048,272,-4552,-2020,1020,-1115
5315,944,800,-3880,-3715,1214,-993
5320,2952,1096,-5328,-5011,46,-1417
5325,1640,2376,-5168,-7049,-1577,-1585
5330,1448,3168,-5136,-8004,-1650,-1669
5335,816,4096,-4312,-8734,-1598,-2131
5340,1256,4768,-4240,-8469,-1789,-2518
5345,1528,5520,-5904,-7099,-1808,-2246
5350,344,5064,-4632,-5941,-1453,-1968
5355,864,4624,-4320,-4505,-798,-1728
5360,2824,5712,-6248,-3980,-325,-1640
5365,1888,3600,-2920,-4079,-238,-1661
5370,2680,3584,-3600,-3050,-466,-1542
5375,2288,2168,-5224,-2497,-1074,-1283
5380,1928,1240,-6424,-2141,-1250,-1024
5385,2488,448,-6712,-1834,-1205,-829
5390,2704,248,-6552,-1703,-1059,-739
5395,2440,408,-6128,-1696,-850,-792
5400,2400,392,-5208,-1594,-570,-937
5405,2224,288,-4960,-1313,-348,-1088
5410,2024,88,-4480,-1001,-140,-1221
5415,1840,-784,-4128,-763,139,-1341
5420,1672,-1680,-3848,-571,578,-1460
5425,1376,-2104,-3736,-383,1195,-1441
5430,416,-2448,-3568,-263,1783,-1318
5435,624,-2608,-3368,-155,2216,-1169
5440,536,-2336,-3608,44,2568,-1027
5445,504,-2000,-3920,191,2816,-948
5450,624,-1488,-3944,112,2982,-894
5455,856,-1752,-3168,-92,3112,-848
5460,920,-816,-2680,-139,3152,-894
5465,2032,-1056,-1936,-87,3146,-850
5470,952,-240,-1984,231,3193,-939
5475,984,464,-2096,605,3023,-909
5480,1008,880,-2056,674,2779,-599
5485,1280,1016,-1784,589,2465,-209
5490,1528,1112,-1576,429,2130,154
5495,1568,1504,-1488,296,1844,408
5500,1448,1568,-1304,137,1530,545
5505,1416,1496,-1096,17,1191,673
5510,1448,1584,-1056,-53,866,750
5515,1680,1672,-1056,-100,568,766
5520,1584,1720,-1056,-75,348,750
5525,1504,1672,-1096,-18,213,733
5530,1400,1648,-1128,36,159,716
5535,1280,1608,-1216,83,144,690
5540,1264,1560,-1216,66,176,656
5545,1288,1608,-1224,-3,207,610
5550,1272,1528,-1176,-65,224,531
5555,1104,1376,-1208,-55,228,452
5560,1144,1248,-1152,-31,280,385
5565,1040,1144,-1112,-23,352,314
5570,880,1088,-1096,-52,420,243
5575,872,952,-1128,-113,476,186
5580,768,880,-1120,-184,527,132
5585,712,776,-1104,-263,574,75
5590,656,656,-1104,-349,620,24
5595,608,416,-1016,-405,657,-18
5600,624,224,-944,-380,686,-21
5605,632,152,-936,-310,716,-32
5610,688,128,-976,-240,715,-60
5615,688,184,-976,-177,691,-104
5620,696,216,-1032,-114,656,-156
5625,712,240,-1096,-70,634,-187
5630,568,176,-992,-92,638,-210
5635,928,288,-920,-148,645,-209
5640,984,400,-880,-207,666,-231
5645,1120,504,-1224,-255,650,-285
5650,1320,608,-1120,-419,581,-355
5655,1352,752,-1112,-422,512,-351
5660,1424,880,-1320,-301,368,-362
5665,1272,776,-1512,-224,192,-344
5670,1400,752,-1464,-177,63,-285
5675,1400,792,-1472,-176,-36,-270
5680,1424,736,-1488,-193,-140,-261
5685,1368,704,-1488,-197,-236,-223
5690,1312,536,-1480,-170,-335,-161
5695,1624,288,-1424,-70,-458,-73
5700,1664,280,-1448,74,-473,-4
5705,1728,464,-1592,138,-500,-8
5710,1784,568,-1704,146,-577,-18
5715,1608,560,-1744,160,-654,5
5720,1672,416,-1744,214,-729,56
5725,1728,320,-1768,296,-780,106
5730,1712,328,-1768,363,-800,142
5735,1656,360,-1832,404,-816,167
5740,1584,320,-1888,431,-843,185
5745,1568,360,-1968,451,-873,201
5750,1608,416,-2048,464,-889,220
5755,1800,432,-2120,481,-878,249
5760,1784,528,-2152,486,-856,260
5765,1800,576,-2208,473,-848,270
5770,1736,520,-2160,452,-841,237
5775,1640,432,-2232,480,-811,269
5780,1256,256,-2096,507,-765,323
5785,1472,104,-2104,538,-743,391
5790,1824,296,-2208,537,-717,383
5795,1504,368,-2128,503,-672,329
5800,1208,272,-2048,489,-638,332
5805,1208,152,-2024,506,-634,366
5810,1000,-64,-1944,547,-643,426
5815,992,-152,-1976,606,-664,490
5820,1104,-160,-1936,637,-669,529
5825,1320,-8,-1976,621,-640,522
5830,1464,200,-1992,569,-599,490
5835,1296,200,-1936,511,-554,449
5840,1464,224,-1880,464,-551,431
5845,1224,304,-1872,435,-550,423
5850,1208,376,-1792,423,-558,413
5855,1208,248,-1784,408,-632,436
5860,1152,272,-1800,395,-687,465
5865,1192,192,-1784,378,-736,480
5870,1104,104,-1792,380,-808,510
5875,1168,88,-1832,367,-856,545
5880,1008,88,-1872,339,-870,549
5885,1080,48,-1928,323,-883,557
5890,1056,0,-1888,297,-882,560
5895,1016,24,-1952,284,-846,558
5900,1064,-24,-1976,265,-821,555
5905,1088,-24,-1992,257,-783,540
5910,784,-64,-1984,258,-710,497
5915,1168,24,-2160,280,-674,479
5920,1280,-48,-2120,222,-672,503
5925,904,-104,-2040,156,-592,492
5930,1128,-96,-2088,137,-579,499
5935,1224,-128,-2072,129,-568,487
5940,824,-184,-2032,136,-490,450
5945,936,-184,-2096,182,-446,435
5950,1392,-32,-2352,195,-460,449
5955,1184,-96,-2144,87,-455,460
5960,1192,-176,-2016,43,-397,447
5965,904,-216,-2048,106,-353,417
5970,1000,-152,-2088,186,-344,384
5975,1048,-120,-2136,221,-336,375
5980,896,-232,-2128,216,-304,385
5985,1160,-176,-2160,216,-272,361
5990,1040,-104,-2240,211,-234,319
5995,1216,-40,-2168,183,-206,318
6000,1024,-192,-2168,157,-194,325
6005,1016,-192,-2248,152,-152,283
6010,1032,-264,-2224,167,-110,248
6015,1144,-184,-2256,177,-78,195
6020,1136,-160,-2296,151,-33,150
6025,1072,-224,-2328,119,7,115
6030,1080,-240,-2320,102,38,91
6035,1072,-272,-2328,94,79,73
6040,1112,-176,-2344,80,123,51
6045,1088,-216,-2304,53,178,25
6050,1080,-256,-2344,42,237,2
6055,1088,-312,-2304,34,291,-15
6060,1144,-264,-2296,28,348,-32
6065,1064,-224,-2280,1,409,-57
6070,1512,-144,-2352,-37,415,-46
6075,1400,-120,-2248,-106,440,-26
6080,1280,-320,-2064,-145,508,-74
6085,912,-248,-2080,-55,577,-143
6090,904,-224,-2152,18,605,-161
6095,1512,-152,-2272,15,625,-179
6100,1968,56,-2184,-60,721,-270
6105,1704,40,-1936,-130,912,-387
6110,1384,-32,-1896,-92,1038,-444
6115,1464,-128,-1960,-21,1057,-447
6120,1360,-168,-1976,46,1100,-448
6125,1264,-232,-1944,99,1156,-439
6130,1208,-256,-1976,144,1180,-415
6135,1312,-304,-1976,170,1185,-393
6140,1136,-272,-1984,213,1212,-389
6145,1008,-272,-1992,261,1237,-373
6150,1040,-200,-2032,261,1224,-354
6155,816,-240,-2008,243,1190,-348
6160,520,-216,-2016,224,1161,-324
6165,744,-240,-2104,192,1089,-284
6170,1040,-248,-2024,134,1026,-259
6175,1208,-208,-1896,85,1020,-256
6180,1264,-224,-1800,77,1044,-269
6185,1272,-168,-1704,80,1047,-279
6190,1272,-96,-1672,81,1022,-293
6195,1240,-80,-1672,76,978,-310
6200,1248,-40,-1688,51,917,-322
6205,1248,-40,-1640,29,850,-328
6210,1208,-48,-1656,15,774,-333
6215,1232,-48,-1736,-4,693,-337
6220,1392,-40,-1696,-38,622,-334
6225,1376,-64,-1688,-75,595,-341
6230,1352,-72,-1648,-85,592,-344
6235,1232,-96,-1656,-55,581,-337
6240,1368,-80,-1728,-11,538,-332
6245,1680,-112,-1664,14,522,-354
6250,1336,-48,-1672,48,549,-370
6255,1488,-56,-1624,80,547,-358
6260,1472,-8,-1632,116,541,-343
6265,1416,24,-1736,140,526,-331
6270,1168,80,-1736,154,507,-317
6275,1296,96,-1712,160,462,-296
6280,1856,-16,-1776,134,430,-278
6285,1544,-248,-1608,129,486,-288
6290,1432,0,-1792,159,531,-269
6295,1440,-80,-1744,178,498,-259
6300,1432,-112,-1784,180,451,-253
6305,1408,-80,-1640,174,424,-242
6310,1240,-120,-1568,183,411,-232
6315,1176,-56,-1736,201,377,-213
6320,1376,-8,-1768,212,329,-209
6325,1768,-112,-1752,206,317,-212
6330,1800,-256,-1640,211,380,-230
6335,1384,-216,-1584,244,445,-226
6340,1472,-128,-1688,282,426,-213
6345,1440,-8,-1680,322,372,-222
6350,1336,48,-1960,351,329,-232
6355,1552,96,-1856,323,291,-230
6360,1832,160,-1728,226,285,-221
6365,1384,184,-1880,123,319,-220
6370,1344,160,-1616,29,276,-196
6375,1384,136,-1672,2,216,-157
6380,1424,40,-1752,18,186,-130
6385,1472,120,-1696,30,159,-115
6390,1456,136,-1648,20,138,-104
6395,1480,96,-1600,-2,122,-93
6400,1472,64,-1552,-16,106,-77
6405,1456,24,-1504,-14,87,-58
6410,1424,-64,-1456,-3,56,-42
6415,1408,-24,-1360,4,16,-33
6420,1432,-8,-1472,11,-25,-25
6425,1408,-24,-1544,13,-67,-15
6430,1520,-32,-1416,11,-107,-7
6435,1416,-32,-1528,5,-154,3
6440,1408,-72,-1456,1,-201,11
6445,1520,-16,-1528,-5,-247,17
6450,1448,-32,-1488,-12,-286,23
6455,1392,8,-1584,-15,-314,33
6460,1464,8,-1600,-17,-334,44
6465,1488,-24,-1672,-16,-346,57
6470,1472,-24,-1688,-11,-352,69
6475,1496,-64,-1680,-8,-357,80
6480,1480,-24,-1696,-2,-357,90
6485,1728,-72,-1760,5,-353,100
6490,1584,-208,-1664,-4,-382,106
6495,1384,8,-1728,5,-396,95
6500,1264,0,-1768,25,-377,103
6505,1376,-96,-1768,44,-354,119
6510,1528,-80,-1784,45,-335,126
6515,1568,-136,-1888,24,-320,127
6520,1856,-216,-1864,-44,-385,152
6525,1648,-152,-1584,-101,-419,138
6530,1144,24,-1816,-75,-381,91
6535,1328,-56,-1864,-5,-343,68
6540,1256,-160,-1936,16,-304,69
6545,1440,-144,-1904,-22,-249,72
6550,1448,-120,-1848,-49,-206,68
6555,1464,-96,-1896,-49,-180,60
6560,1464,-72,-1824,-52,-161,58
6565,2160,128,-1928,-56,-170,78
6570,1528,-144,-1848,-149,-222,162
6575,1576,-112,-1592,-197,-192,175
6580,1144,-88,-1656,-111,-163,132
6585,1312,-120,-1952,7,-176,95
6590,1384,-112,-1856,30,-151,85
6595,1360,-216,-1880,-13,-106,83
6600,1504,-64,-1920,-38,-71,78
6605,1384,-80,-1904,-40,-51,75
6610,1432,-120,-1824,-38,-42,75
6615,1344,-112,-1808,-37,-42,77
6620,1440,-144,-1776,-37,-50,75
6625,1440,-128,-1760,-36,-64,71
6630,1408,-160,-1744,-40,-78,67
6635,1376,-128,-1776,-43,-93,64
6640,1392,-176,-1808,-43,-105,62
6645,1400,-152,-1824,-40,-112,58
6650,1440,-88,-1808,-41,-115,55
6655,1352,-56,-1856,-38,-117,54
6660,1488,-88,-1840,-34,-120,50
6665,1336,-144,-1752,-33,-122,46
6670,1352,-48,-1832,-30,-122,43
6675,1376,-184,-1840,-30,-123,40
6680,1344,-152,-1728,-33,-124,39
6685,1312,-88,-1768,-37,-124,39
6690,1376,-96,-1776,-40,-123,36
6695,1384,-104,-1768,-43,-124,35
6700,1376,-120,-1776,-47,-126,33
6705,1376,-112,-1776,-51,-127,35
6710,1384,-72,-1768,-52,-129,32
6715,1384,-104,-1784,-52,-130,32
6720,1376,-96,-1776,-54,-131,33
6725,1448,-168,-1808,-54,-132,34
6730,1368,-96,-1808,-55,-132,34
6735,1400,-144,-1832,-54,-132,34
6740,1400,-144,-1840,-54,-129,35
6745,1392,-168,-1776,-54,-125,35
6750,1400,-136,-1816,-55,-120,34
6755,1376,-104,-1848,-55,-112,35
6760,1384,-136,-1800,-53,-105,35
6765,1392,-176,-1840,-53,-97,32
6770,1384,-136,-1816,-58,-86,29
6775,1400,-144,-1864,-62,-77,25
6780,1400,-128,-1856,-61,-69,23
6785,1392,-152,-1872,-61,-61,19
6790,1400,-136,-1840,-65,-50,17
6795,1392,-112,-1864,-66,-41,12
6800,1408,-136,-1880,-67,-31,7
6805,1416,-144,-1880,-67,-23,5
6810,1400,-136,-1848,-65,-16,2
6815,1488,-24,-1848,-64,-11,-1
6820,1400,-128,-1832,-62,-7,-1
6825,1392,-104,-1848,-63,-4,-1
6830,1392,-136,-1840,-62,-1,0
6835,1376,-96,-1816,-61,3,-1
6840,1400,-120,-1840,-58,6,1
6845,1400,-112,-1856,-56,6,2
6850,1376,-88,-1832,-54,3,2
6855,1400,-112,-1800,-51,2,5
6860,1392,-104,-1776,-49,0,6
6865,1392,-104,-1816,-48,-2,7
6870,1392,-120,-1840,-47,-2,9
6875,1384,-112,-1792,-46,-4,11
6880,1368,-104,-1808,-47,-6,13
6885,1376,-96,-1808,-47,-7,14
6890,1344,-96,-1792,-45,-8,16
6895,1392,-104,-1792,-44,-9,17
6900,1352,-120,-1832,-42,-10,19
6905,1376,-112,-1800,-45,-12,20
6910,1392,-112,-1800,-44,-14,22
6915,1368,-120,-1800,-44,-19,24
6920,1384,-120,-1784,-43,-23,25
6925,1368,-96,-1808,-45,-26,25
6930,1392,-120,-1808,-47,-31,23
6935,1368,-112,-1808,-47,-34,23
6940,1376,-104,-1800,-48,-38,23
6945,1368,-144,-1816,-51,-44,23
6950,1368,-120,-1816,-54,-48,24
6955,1384,-128,-1832,-57,-52,23
6960,1368,-128,-1816,-58,-56,23
6965,1376,-128,-1800,-60,-59,24
6970,1352,-96,-1824,-61,-63,24
6975,1368,-112,-1792,-65,-67,25
6980,1336,-88,-1824,-66,-68,26
6985,1360,-112,-1816,-64,-70,27
6990,1368,-120,-1840,-65,-72,28
6995,1392,-128,-1856,-65,-73,30
7000,1344,-136,-1848,-65,-74,32
7005,1368,-136,-1848,-64,-75,34
7010,1368,-128,-1832,-62,-76,34
7015,1360,-120,-1824,-60,-76,34
7020,1376,-96,-1840,-63,-76,35
7025,1352,-128,-1856,-62,-76,35
7030,1368,-136,-1888,-60,-77,36
7035,1376,-128,-1856,-59,-76,37
7040,1384,-144,-1856,-59,-75,36
7045,1352,-104,-1864,-57,-74,33
7050,1352,-120,-1880,-56,-70,33
7055,1376,-144,-1864,-57,-64,29
7060,1368,-144,-1880,-59,-61,28
7065,1344,-128,-1856,-59,-57,26
7070,1368,-128,-1856,-60,-55,24
7075,1352,-96,-1848,-58,-51,21
7080,1360,-120,-1848,-58,-46,20
7085,1352,-120,-1864,-59,-44,17
7090,1352,-120,-1880,-58,-41,16
7095,1352,-120,-1840,-60,-40,16
7100,1368,-128,-1800,-62,-40,16
7105,1360,-112,-1840,-67,-44,16
7110,1320,-120,-1816,-74,-48,17
7115,1344,-120,-1840,-80,-53,17
7120,1328,-128,-1808,-88,-56,20
7125,1344,-96,-1816,-94,-64,22
7130,1312,-128,-1832,-95,-72,25
7135,1360,-120,-1816,-95,-81,28
7140,1336,-136,-1832,-94,-89,31
7145,1336,-104,-1864,-89,-95,34
7150,1312,-120,-1840,-89,-99,36
7155,1328,-112,-1856,-87,-103,37
7160,1320,-96,-1880,-88,-103,35
7165,1304,-104,-1856,-87,-104,35
7170,1328,-120,-1856,-87,-106,35
7175,1312,-128,-1840,-85,-104,33
7180,1336,-112,-1872,-85,-103,29
7185,1336,-128,-1880,-85,-102,31
7190,1352,-80,-1840,-85,-100,28
7195,1336,-104,-1888,-81,-101,28
7200,1320,-136,-1864,-82,-100,27
7205,1336,-120,-1888,-82,-98,28
7210,1328,-136,-1896,-83,-97,29
7215,1328,-80,-1872,-84,-96,31
7220,1328,-96,-1872,-85,-96,33
7225,1344,-112,-1880,-85,-98,38
7230,1336,-112,-1856,-84,-102,41
7235,1320,-128,-1872,-86,-105,45
7240,1312,-88,-1872,-88,-108,48
7245,1312,-88,-1872,-92,-110,49
7250,1296,-104,-1864,-97,-111,51
7255,1320,-120,-1840,-97,-114,54
7260,1312,-88,-1856,-94,-114,55
7265,1304,-112,-1904,-92,-115,55
7270,1312,-128,-1864,-90,-113,53
7275,1304,-128,-1888,-87,-110,51
7280,1280,-112,-1912,-88,-106,47
7285,1288,-120,-1888,-85,-100,43
7290,1296,-128,-1896,-81,-94,41
7295,1360,-128,-1880,-77,-87,39
7300,1304,-120,-1920,-72,-81,37
7305,1288,-128,-1944,-68,-74,34
7310,1304,-120,-1936,-66,-67,31
7315,1296,-112,-1888,-64,-60,30
7320,1328,-120,-1912,-63,-54,28
7325,1288,-104,-1920,-66,-47,27
7330,1288,-104,-1904,-66,-43,25
7335,1280,-96,-1872,-66,-39,25
7340,1296,-104,-1888,-66,-35,24
7345,1296,-136,-1912,-67,-32,25
7350,1280,-112,-1888,-69,-30,26
7355,1280,-128,-1904,-71,-28,26
7360,1296,-96,-1880,-71,-27,26
7365,1296,-128,-1904,-71,-28,26
7370,1272,-120,-1888,-70,-29,26
7375,1280,-96,-1864,-72,-28,26
7380,1264,-104,-1848,-71,-31,25
7385,1272,-120,-1872,-71,-32,26
7390,1288,-120,-1880,-72,-35,26
7395,1288,-112,-1880,-71,-35,26
7400,1272,-96,-1880,-73,-36,26
7405,1312,-128,-1840,-72,-37,27
7410,1272,-120,-1872,-73,-38,26
7415,1296,-120,-1896,-73,-37,25
7420,1304,-128,-1912,-75,-38,22
7425,1288,-128,-1936,-76,-37,21
7430,1296,-144,-1912,-80,-35,18
7435,1296,-120,-1920,-80,-33,16
7440,1288,-112,-1888,-81,-31,14
7445,1304,-104,-1944,-81,-30,11
7450,1272,-128,-1912,-81,-29,9
7455,1296,-112,-1904,-77,-26,10
7460,1264,-112,-1936,-74,-25,9
7465,1264,-120,-1912,-69,-22,9
7470,1280,-120,-1928,-67,-19,8
7475,1280,-120,-1872,-63,-19,9
7480,1272,-128,-1896,-59,-17,8
7485,1264,-120,-1912,-57,-16,8
7490,1272,-112,-1880,-53,-15,7
7495,1288,-104,-1912,-53,-12,6
7500,1288,-104,-1904,-51,-10,3
7505,1280,-120,-1912,-51,-6,2
7510,1272,-120,-1920,-51,-2,1
7515,1248,-128,-1928,-50,-1,0
7520,1280,-128,-1904,-51,2,-2
7525,1296,-112,-1896,-53,4,-3
7530,1272,-112,-1888,-53,5,-5
7535,1312,-120,-1904,-55,6,-5
7540,1288,-112,-1896,-56,8,-5
7545,1304,-144,-1904,-54,9,-7
7550,1264,-96,-1904,-53,10,-8
7555,1264,-120,-1896,-55,10,-9
7560,1272,-96,-1896,-53,9,-9
7565,1288,-112,-1904,-54,11,-8
7570,1296,-112,-1896,-53,11,-9
7575,1280,-112,-1928,-51,11,-6
7580,1288,-136,-1920,-49,11,-6
7585,1288,-104,-1896,-47,11,-5
7590,1264,-112,-1904,-47,14,-6
7595,1288,-112,-1920,-46,15,-7
7600,1272,-112,-1920,-47,20,-6
7605,1280,-128,-1912,-45,24,-7
7610,1256,-120,-1920,-44,26,-7
7615,1272,-96,-1904,-45,28,-7
7620,1296,-128,-1880,-41,30,-6
7625,1280,-112,-1960,-38,29,-7
7630,1280,-104,-1912,-37,30,-6
7635,1296,-112,-1880,-37,28,-8
7640,1256,-120,-1920,-39,28,-8
7645,1288,-128,-1872,-42,27,-9
7650,1280,-120,-1888,-46,25,-10
7655,1280,-96,-1912,-51,23,-12
7660,1280,-96,-1872,-55,18,-13
7665,1272,-88,-1872,-57,16,-13
7670,1288,-120,-1848,-60,11,-13
7675,1280,-104,-1888,-57,7,-11
7680,1256,-112,-1904,-57,1,-11
7685,1248,-104,-1888,-56,-2,-8
7690,1256,-96,-1896,-56,-5,-8
7695,1280,-136,-1896,-53,-7,-6
7700,1264,-104,-1904,-49,-7,-4
7705,1264,-80,-1904,-47,-8,-3
7710,1288,-152,-1904,-48,-7,-3
7715,1248,-112,-1912,-46,-5,-3
7720,1272,-104,-1904,-47,-4,-3
7725,1272,-88,-1888,-47,-2,-4
7730,1272,-112,-1904,-48,0,-6
7735,1264,-144,-1912,-48,0,-7
7740,1296,-120,-1912,-48,1,-8
7745,1280,-120,-1904,-51,2,-7
7750,1296,-112,-1904,-50,3,-7
7755,1280,-96,-1896,-49,1,-8
7760,1264,-112,-1912,-48,0,-8
7765,1288,-112,-1904,-49,-2,-7
7770,1264,-96,-1904,-48,-3,-6
7775,1288,-112,-1904,-46,-3,-6
7780,1280,-104,-1896,-46,-3,-6
7785,1256,-80,-1920,-45,-3,-4
7790,1256,-96,-1888,-46,-3,-3
7795,1248,-96,-1904,-45,-2,-2
7800,1240,-96,-1888,-43,-1,-2
7805,1272,-128,-1912,-43,-1,-2
7810,1248,-128,-1904,-41,1,-2
7815,1280,-136,-1920,-41,2,-2
7820,1264,-120,-1912,-42,4,-4
7825,1256,-96,-1888,-42,4,-5
7830,1288,-120,-1912,-43,4,-5
7835,1248,-104,-1936,-43,4,-5
7840,1296,-144,-1936,-43,5,-3
7845,1288,-96,-1912,-44,8,-6
7850,1288,-120,-1928,-47,9,-7
7855,1256,-104,-1888,-42,13,-6
7860,1280,-112,-1920,-39,15,-4
7865,1264,-120,-1928,-39,15,-2
7870,1272,-120,-1904,-38,17,-2
7875,1272,-96,-1920,-36,17,-3
7880,1280,-112,-1928,-35,18,-1
7885,1280,-112,-1904,-34,19,-1
7890,1264,-96,-1872,-35,19,-1
7895,1256,-104,-1888,-35,20,-1
7900,1280,-120,-1896,-36,20,-1
7905,1272,-136,-1888,-37,22,-2
7910,1272,-112,-1896,-40,23,-2
7915,1280,-120,-1912,-40,22,-3
7920,1280,-88,-1928,-41,22,-5
7925,1224,-88,-1904,-42,22,-5
7930,1280,-104,-1896,-42,23,-3
7935,1256,-104,-1896,-43,24,-6
7940,1264,-128,-1896,-45,24,-5
7945,1280,-128,-1912,-43,26,-6
7950,1288,-80,-1928,-44,26,-6
7955,1280,-128,-1912,-44,26,-7
7960,1264,-128,-1928,-42,25,-6
7965,1280,-120,-1888,-40,26,-4
7970,1280,-104,-1896,-40,27,-5
7975,1256,-96,-1896,-40,27,-3
7980,1288,-136,-1920,-39,28,-3
7985,1264,-96,-1920,-37,28,-4
7990,1264,-88,-1896,-37,30,-4
7995,1288,-120,-1904,-38,30,-5
8000,1280,-120,-1896,-37,32,-4
8005,1272,-136,-1920,-39,34,-6
8010,1256,-72,-1928,-40,34,-7
8015,1264,-104,-1904,-38,35,-9
8020,1264,-96,-1928,-40,35,-10
8025,1296,-112,-1888,-41,36,-11
8030,1272,-120,-1888,-42,35,-10
8035,1304,-112,-1896,-43,35,-10
8040,1264,-112,-1904,-44,35,-11
8045,1272,-104,-1904,-43,34,-11
8050,1280,-120,-1904,-43,32,-10
8055,1264,-112,-1904,-43,32,-9
8060,1280,-104,-1872,-41,29,-8
8065,1288,-112,-1880,-39,28,-7
8070,1280,-120,-1888,-36,27,-6
8075,1264,-112,-1904,-36,27,-4
8080,1280,-104,-1880,-33,25,-3
8085,1264,-112,-1896,-33,25,-3
8090,1272,-104,-1888,-33,24,-2
8095,1288,-112,-1888,-33,22,-2
8100,1288,-120,-1896,-33,21,-3
8105,1288,-128,-1888,-35,18,-4
8110,1272,-128,-1896,-37,16,-4
8115,1280,-112,-1888,-39,14,-5
8120,1280,-104,-1904,-43,11,-5
8125,1272,-120,-1904,-45,9,-6
8130,1280,-120,-1928,-44,6,-6
8135,1288,-128,-1880,-43,3,-5
8140,1280,-112,-1920,-43,3,-4
8145,1288,-136,-1920,-44,4,-3
8150,1272,-120,-1888,-43,7,-3
8155,1256,-112,-1912,-43,9,-2
8160,1280,-128,-1896,-42,10,-2
8165,1288,-120,-1912,-39,12,-2
8170,1288,-128,-1920,-37,14,0
8175,1288,-112,-1880,-33,17,1
8180,1264,-112,-1888,-30,18,1
8185,1280,-136,-1880,-29,20,1
8190,1264,-104,-1912,-29,22,1
8195,1288,-136,-1912,-30,24,-1
8200,1248,-96,-1920,-33,26,-3
8205,1264,-120,-1888,-38,26,-4
8210,1272,-120,-1896,-41,22,-5
8215,1280,-136,-1904,-42,21,-6
8220,1272,-104,-1880,-46,19,-8
8225,1272,-96,-1912,-49,15,-8
8230,1280,-128,-1896,-51,13,-7
8235,1264,-96,-1864,-50,11,-7
8240,1264,-104,-1928,-49,8,-7
8245,1288,-112,-1904,-49,8,-6
8250,1264,-128,-1888,-50,6,-5
8255,1272,-96,-1904,-48,7,-4
8260,1288,-152,-1904,-48,7,-3
8265,1272,-112,-1904,-45,6,-3
8270,1280,-104,-1920,-44,9,-2
8275,1280,-128,-1912,-43,12,-3
8280,1264,-128,-1896,-42,14,-3
8285,1272,-104,-1912,-43,18,-4
8290,1272,-112,-1872,-43,18,-6
8295,1280,-120,-1912,-44,20,-7
8300,1288,-112,-1888,-43,20,-8
8305,1248,-128,-1904,-43,22,-8
8310,1296,-120,-1904,-42,23,-9
8315,1280,-128,-1904,-44,23,-9
8320,1280,-136,-1912,-43,22,-8
8325,1288,-120,-1904,-44,23,-9
8330,1280,-120,-1904,-43,24,-10
8335,1272,-88,-1880,-44,23,-9
8340,1264,-120,-1888,-44,22,-7
8345,1288,-120,-1904,-44,21,-8
8350,1272,-104,-1896,-41,21,-8
8355,1280,-112,-1936,-40,21,-7
8360,1272,-120,-1880,-40,23,-5
8365,1280,-136,-1888,-41,23,-5
8370,1280,-120,-1912,-42,22,-5
8375,1272,-128,-1856,-40,22,-6
8380,1288,-112,-1888,-40,22,-5
8385,1280,-120,-1888,-40,23,-4
8390,1280,-120,-1896,-40,24,-4
8395,1296,-112,-1928,-43,24,-7
8400,1296,-128,-1888,-42,22,-7
8405,1280,-128,-1904,-43,24,-7
8410,1304,-144,-1880,-42,23,-9
8415,1272,-104,-1888,-42,25,-9
8420,1288,-120,-1888,-43,27,-9
8425,1272,-128,-1896,-43,27,-9
8430,1280,-112,-1904,-40,28,-8
8435,1288,-104,-1864,-39,30,-8
8440,1288,-128,-1904,-39,31,-7
8445,1272,-104,-1880,-38,30,-7
8450,1288,-104,-1888,-37,29,-6
8455,1264,-96,-1912,-37,27,-6
8460,1264,-104,-1864,-38,26,-5
8465,1264,-104,-1872,-37,24,-4
8470,1280,-120,-1888,-38,22,-4
8475,1288,-136,-1912,-38,21,-4
8480,1304,-112,-1896,-39,20,-4
8485,1264,-104,-1896,-40,18,-2
8490,1280,-144,-1888,-38,15,-3
8495,1272,-112,-1896,-41,13,-2
8500,1264,-128,-1872,-42,12,-3
8505,1288,-112,-1912,-42,10,-2
8510,1288,-112,-1936,-42,8,-2
8515,1280,-120,-1920,-42,7,-2
8520,1264,-112,-1880,-44,6,-2
8525,1296,-128,-1880,-43,6,-3
8530,1280,-120,-1896,-43,4,-3
8535,1280,-96,-1888,-43,2,-3
8540,1280,-112,-1912,-43,2,-3
8545,1280,-72,-1912,-41,3,-1
8550,1280,-96,-1888,-43,2,-3
8555,1272,-104,-1904,-43,5,-5
8560,1280,-112,-1904,-45,5,-4
8565,1264,-120,-1912,-44,7,-5
8570,1272,-112,-1904,-44,9,-5
8575,1280,-128,-1912,-41,11,-6
8580,1304,-128,-1904,-41,13,-6
8585,1272,-120,-1904,-43,14,-6
8590,1280,-112,-1912,-43,16,-6
8595,1272,-112,-1888,-42,18,-7
8600,1280,-112,-1880,-42,17,-8
8605,1264,-120,-1888,-43,19,-8
8610,1296,-128,-1912,-45,18,-8
8615,1280,-136,-1920,-45,18,-8
8620,1272,-128,-1896,-45,19,-7
8625,1280,-120,-1904,-44,18,-8
8630,1296,-144,-1920,-44,19,-7
8635,1280,-112,-1904,-43,19,-6
8640,1272,-104,-1936,-42,21,-7
8645,1280,-120,-1920,-41,21,-6
8650,1280,-104,-1912,-40,22,-5
8655,1264,-144,-1920,-41,23,-6
8660,1280,-112,-1872,-40,23,-6
8665,1272,-120,-1928,-41,23,-6
8670,1280,-128,-1904,-41,24,-5
8675,1296,-112,-1904,-42,24,-7
8680,1280,-104,-1896,-42,25,-8
8685,1256,-120,-1896,-43,25,-9
8690,1304,-104,-1880,-40,26,-9
8695,1280,-120,-1936,-42,25,-9
8700,1288,-112,-1912,-43,26,-8
8705,1272,-112,-1904,-43,27,-9
8710,1288,-144,-1904,-43,27,-9
8715,1272,-112,-1928,-41,26,-9
8720,1272,-120,-1912,-40,27,-8
8725,1288,-112,-1912,-40,26,-9
8730,1272,-120,-1888,-40,29,-8
8735,1304,-120,-1896,-39,30,-7
8740,1280,-152,-1904,-41,30,-7
8745,1256,-120,-1880,-39,31,-7
8750,1272,-152,-1928,-38,32,-7
8755,1296,-128,-1888,-36,31,-6
8760,1264,-128,-1872,-36,32,-6
8765,1288,-160,-1872,-38,31,-7
8770,1288,-96,-1920,-39,31,-8
8775,1288,-128,-1888,-39,31,-9
8780,1264,-88,-1872,-40,31,-10
8785,1280,-128,-1880,-42,30,-9
8790,1272,-144,-1888,-42,32,-10
8795,1296,-128,-1928,-44,31,-12
8800,1288,-112,-1888,-44,32,-13
8805,1296,-128,-1888,-45,34,-13
8810,1264,-120,-1896,-45,34,-13
8815,1296,-128,-1888,-44,35,-11
8820,1296,-144,-1960,-44,36,-12
8825,1288,-128,-1904,-43,37,-13
8830,1280,-112,-1912,-42,37,-12
8835,1280,-112,-1920,-40,38,-12
8840,1272,-120,-1880,-39,39,-11
8845,1272,-104,-1904,-37,39,-11
8850,1264,-120,-1904,-35,39,-11
8855,1280,-96,-1904,-34,39,-10
8860,1296,-112,-1872,-35,40,-11
8865,1296,-120,-1896,-33,41,-12
8870,1288,-112,-1880,-34,41,-11
8875,1272,-104,-1896,-35,41,-12
8880,1304,-136,-1912,-36,42,-12
8885,1280,-96,-1904,-36,41,-11
8890,1272,-128,-1888,-36,40,-11
8895,1280,-104,-1920,-36,42,-13
8900,1264,-96,-1880,-38,42,-15
8905,1304,-112,-1888,-40,41,-15
8910,1288,-112,-1880,-41,42,-15
8915,1288,-104,-1880,-41,41,-14
8920,1280,-96,-1904,-39,39,-14
8925,1280,-112,-1880,-40,39,-13
8930,1288,-72,-1952,-39,39,-14
8935,1296,-104,-1880,-39,40,-12
8940,1280,-104,-1888,-37,39,-12
8945,1288,-96,-1904,-37,40,-10
8950,1296,-128,-1912,-38,41,-11
8955,1304,-136,-1880,-38,39,-12
8960,1312,-144,-1888,-40,40,-13
8965,1312,-128,-1928,-39,40,-12
8970,1280,-120,-1896,-39,40,-12
8975,1280,-104,-1888,-41,39,-11
8980,1296,-128,-1880,-41,37,-11
8985,1296,-88,-1904,-43,36,-14
8990,1288,-120,-1888,-44,37,-15
8995,1304,-104,-1904,-45,37,-13
9000,1296,-112,-1888,-46,35,-12
9005,1304,-128,-1896,-46,35,-11
9010,1280,-136,-1904,-46,34,-10
9015,1312,-128,-1904,-43,34,-11
9020,1304,-128,-1896,-42,33,-10
9025,1272,-104,-1872,-40,34,-9
9030,1296,-136,-1880,-40,34,-10
9035,1280,-120,-1872,-38,34,-8
9040,1240,-112,-1896,-39,35,-9
9045,1304,-120,-1864,-39,36,-9
9050,1288,-96,-1888,-40,35,-10
9055,1296,-112,-1896,-41,34,-12
9060,1296,-96,-1880,-41,33,-11
9065,1272,-128,-1896,-43,32,-12
9070,1304,-120,-1904,-45,30,-12
9075,1288,-128,-1872,-45,30,-11
9080,1296,-112,-1904,-45,27,-12
9085,1296,-120,-1904,-45,27,-11
9090,1312,-104,-1912,-45,27,-11
9095,1288,-112,-1888,-44,27,-10
9100,1304,-120,-1880,-43,26,-9
9105,1248,-96,-1896,-42,25,-7
9110,1288,-112,-1880,-41,26,-6
9115,1296,-104,-1904,-40,28,-7
9120,1280,-120,-1904,-38,29,-8
9125,1320,-120,-1872,-39,31,-8
9130,1296,-120,-1888,-40,34,-9
9135,1296,-112,-1872,-41,33,-9
9140,1304,-144,-1872,-42,33,-10
9145,1296,-112,-1872,-44,33,-10
9150,1296,-160,-1896,-42,31,-9
9155,1280,-136,-1880,-42,33,-11
9160,1280,-120,-1888,-43,32,-13
9165,1296,-104,-1896,-45,32,-15
9170,1304,-144,-1896,-45,32,-15
9175,1288,-120,-1880,-46,33,-15
9180,1296,-96,-1896,-45,33,-16
9185,1304,-128,-1872,-44,34,-15
9190,1304,-128,-1880,-44,33,-16
9195,1320,-120,-1896,-42,33,-17
9200,1296,-120,-1888,-39,35,-15
9205,1296,-112,-1912,-39,37,-16
9210,1288,-104,-1880,-39,40,-16
9215,1312,-104,-1880,-40,42,-16
9220,1296,-136,-1864,-40,43,-13
9225,1312,-144,-1864,-40,41,-16
9230,1304,-112,-1872,-41,41,-17
9235,1304,-120,-1880,-40,40,-18
9240,1336,-136,-1896,-42,39,-19
9245,1296,-120,-1864,-42,37,-22
9250,1296,-120,-1856,-44,35,-22
9255,1304,-112,-1896,-47,34,-22
9260,1312,-120,-1896,-49,35,-25
9265,1304,-120,-1864,-52,36,-25
9270,1296,-112,-1888,-50,37,-26
9275,1304,-120,-1864,-50,35,-28
9280,1304,-128,-1896,-51,35,-27
9285,1288,-104,-1880,-52,34,-28
9290,1304,-120,-1896,-51,33,-27
9295,1320,-120,-1880,-50,33,-25
9300,1312,-144,-1864,-49,32,-25
9305,1320,-104,-1888,-47,31,-24
9310,1304,-120,-1904,-46,31,-25
9315,1312,-104,-1888,-47,33,-23
9320,1328,-120,-1888,-45,34,-22
9325,1312,-120,-1864,-45,34,-21
9330,1304,-120,-1864,-43,35,-21
9335,1312,-112,-1872,-41,35,-19
9340,1312,-104,-1888,-40,37,-20
9345,1328,-120,-1896,-40,39,-18
9350,1304,-120,-1912,-38,39,-17
9355,1304,-128,-1912,-40,41,-19
9360,1304,-128,-1880,-41,44,-19
9365,1272,-80,-1936,-41,45,-18
9370,1296,-112,-1840,-43,46,-19
9375,1312,-120,-1920,-44,44,-20
9380,1312,-128,-1864,-45,44,-21
9385,1296,-88,-1864,-46,44,-22
9390,1304,-104,-1904,-45,43,-21
9395,1304,-104,-1856,-44,43,-19
9400,1304,-120,-1880,-42,42,-19
9405,1296,-120,-1912,-41,42,-18
9410,1312,-128,-1888,-37,41,-17
9415,1312,-112,-1904,-36,42,-16
9420,1312,-112,-1880,-36,43,-15
9425,1304,-96,-1872,-35,44,-14
9430,1288,-96,-1904,-35,43,-13
9435,1352,-112,-1872,-33,43,-12
9440,1304,-104,-1872,-35,45,-11
9445,1304,-128,-1872,-34,48,-11
9450,1320,-96,-1856,-35,48,-12
9455,1304,-112,-1848,-34,47,-14
9460,1296,-88,-1848,-36,45,-13
9465,1312,-152,-1888,-37,43,-10
9470,1320,-120,-1864,-38,43,-13
9475,1296,-112,-1864,-39,43,-14
9480,1320,-96,-1872,-41,41,-15
9485,1304,-104,-1840,-43,39,-17
9490,1312,-120,-1864,-44,37,-17
9495,1352,-136,-1880,-46,38,-17
9500,1336,-120,-1880,-44,36,-16
9505,1304,-88,-1872,-42,36,-16
9510,1312,-112,-1848,-41,35,-14
9515,1312,-120,-1840,-40,36,-15
9520,1296,-104,-1880,-40,37,-13
9525,1312,-144,-1896,-40,37,-13
9530,1312,-112,-1864,-39,38,-13
9535,1328,-120,-1864,-38,37,-13
9540,1328,-112,-1856,-37,38,-13
9545,1312,-128,-1888,-37,39,-15
9550,1344,-128,-1848,-39,40,-15
9555,1336,-136,-1888,-40,40,-16
9560,1344,-136,-1856,-44,39,-17
9565,1328,-136,-1840,-46,40,-19
9570,1336,-120,-1880,-45,40,-19
9575,1344,-128,-1888,-46,39,-20
9580,1312,-112,-1856,-46,36,-19
9585,1328,-152,-1864,-47,35,-19
9590,1336,-128,-1848,-46,36,-20
9595,1336,-112,-1888,-46,34,-19
9600,1320,-112,-1864,-44,34,-17
9605,1328,-128,-1848,-42,35,-17
9610,1312,-104,-1864,-41,35,-18
9615,1312,-104,-1880,-40,36,-18
9620,1328,-112,-1888,-39,38,-17
9625,1344,-136,-1856,-37,38,-14
9630,1312,-128,-1872,-39,39,-14
9635,1320,-120,-1880,-39,40,-14
9640,1320,-136,-1840,-39,42,-16
9645,1288,-112,-1872,-39,42,-18
9650,1328,-120,-1840,-39,45,-19
9655,1328,-96,-1880,-39,47,-20
9660,1336,-120,-1856,-38,49,-20
9665,1344,-128,-1872,-40,52,-20
9670,1328,-112,-1872,-38,52,-23
9675,1328,-120,-1872,-38,54,-24
9680,1320,-112,-1864,-35,54,-25
9685,1320,-120,-1872,-35,55,-26
9690,1312,-112,-1856,-34,56,-26
9695,1352,-152,-1856,-35,56,-26
9700,1312,-88,-1864,-38,58,-26
9705,1328,-88,-1872,-38,56,-26
9710,1344,-112,-1864,-36,53,-23
9715,1344,-144,-1864,-34,52,-22
9720,1336,-88,-1840,-33,53,-19
9725,1320,-120,-1880,-34,54,-18
9730,1336,-104,-1848,-36,52,-17
9735,1320,-96,-1880,-36,49,-17
9740,1336,-112,-1856,-34,47,-16
9745,1312,-96,-1848,-36,44,-16
9750,1320,-112,-1840,-36,43,-16
9755,1328,-104,-1856,-37,40,-15
9760,1328,-104,-1864,-38,39,-14
9765,1344,-112,-1832,-38,38,-14
9770,1352,-120,-1848,-40,38,-12
9775,1336,-96,-1848,-42,36,-9
9780,1352,-112,-1840,-43,34,-10
9785,1328,-104,-1832,-44,31,-10
9790,1320,-128,-1872,-45,30,-7
9795,1336,-104,-1856,-45,26,-4
9800,1304,-112,-1808,-45,24,-4
9805,1360,-120,-1800,-46,18,-2
9810,1336,-112,-1824,-45,16,-1
9815,1312,-104,-1840,-44,12,1
9820,1320,-104,-1848,-43,10,2
9825,1328,-120,-1856,-41,7,4
9830,1336,-96,-1824,-42,5,4
9835,1312,-112,-1848,-43,5,4
9840,1328,-112,-1816,-44,4,4
9845,1360,-104,-1840,-41,3,3
9850,1352,-104,-1848,-42,2,2
9855,1344,-112,-1840,-42,1,4
9860,1352,-96,-1840,-41,-1,2
9865,1336,-104,-1872,-40,-1,2
9870,1328,-104,-1848,-39,0,2
9875,1336,-120,-1864,-39,2,2
9880,1336,-104,-1856,-39,2,4
9885,1336,-128,-1856,-40,5,5
9890,1344,-120,-1888,-39,6,5
9895,1336,-128,-1840,-38,8,6
9900,1344,-112,-1864,-38,7,6
9905,1336,-112,-1872,-37,9,6
9910,1336,-96,-1880,-37,11,5
9915,1336,-120,-1864,-37,13,5
9920,1344,-120,-1840,-37,14,6
9925,1320,-112,-1864,-37,14,6
9930,1352,-112,-1880,-36,14,5
9935,1312,-96,-1872,-36,14,6
9940,1312,-120,-1848,-39,13,7
9945,1328,-104,-1872,-39,12,7
9950,1312,-120,-1848,-38,11,7
9955,1352,-120,-1856,-38,10,6
9960,1336,-128,-1856,-38,10,6
9965,1328,-120,-1872,-36,11,7
9970,1352,-128,-1872,-37,10,6
9975,1320,-120,-1864,-38,10,7
9980,1352,-128,-1872,-39,12,4
9985,1312,-120,-1896,-39,12,5
9990,1328,-128,-1856,-40,13,5
9995,1336,-120,-1856,-40,15,4
10000,1336,-112,-1840,-41,15,2
10005,1312,-104,-1864,-39,15,1
10010,1328,-112,-1856,-40,16,2
10015,1344,-96,-1848,-42,15,2
10020,1320,-112,-1856,-41,15,1
10025,1344,-112,-1840,-42,15,1
10030,1328,-120,-1840,-42,17,1
10035,1352,-128,-1872,-43,18,1
10040,1320,-104,-1856,-43,21,1
10045,1336,-120,-1856,-42,22,1
10050,1336,-136,-1896,-42,23,-1
10055,1336,-112,-1856,-40,28,-1
10060,1344,-120,-1832,-40,29,-1
10065,1328,-112,-1856,-41,30,-2
10070,1352,-128,-1864,-38,32,-1
10075,1344,-112,-1872,-39,34,-2
10080,1328,-128,-1864,-41,36,-2
10085,1344,-128,-1856,-42,36,-4
10090,1336,-120,-1872,-43,38,-4
10095,1344,-136,-1888,-45,39,-4
10100,1336,-112,-1864,-42,40,-4
10105,1320,-120,-1864,-40,41,-3
10110,1344,-104,-1848,-39,43,-2
10115,1344,-120,-1864,-39,44,-1
10120,1328,-120,-1856,-38,45,-2
10125,1344,-120,-1888,-39,47,-3
10130,1328,-96,-1856,-41,47,-5
10135,1336,-136,-1872,-43,48,-6
10140,1328,-128,-1832,-45,50,-8
10145,1336,-144,-1848,-49,51,-10
10150,1336,-120,-1832,-50,49,-11
10155,1336,-120,-1824,-51,47,-12
10160,1328,-112,-1816,-52,45,-11
10165,1336,-88,-1848,-53,41,-13
10170,1328,-120,-1832,-53,38,-13
10175,1352,-96,-1864,-55,36,-13
10180,1312,-136,-1848,-55,33,-12
10185,1320,-112,-1824,-56,31,-12
10190,1336,-96,-1832,-53,27,-12
10195,1344,-112,-1824,-52,25,-10
10200,1344,-120,-1840,-52,22,-9
10205,1328,-104,-1848,-51,19,-8
10210,1328,-104,-1832,-52,16,-6
10215,1344,-128,-1856,-49,15,-7
10220,1360,-120,-1856,-48,13,-6
10225,1352,-128,-1848,-49,11,-4
10230,1336,-112,-1840,-48,11,-5
10235,1328,-152,-1848,-46,11,-3
10240,1360,-120,-1896,-46,12,-4
10245,1360,-112,-1872,-47,10,-4
10250,1336,-112,-1856,-48,10,-4
10255,1352,-136,-1880,-47,10,-4
10260,1336,-112,-1880,-47,11,-3
10265,1352,-120,-1872,-49,13,-3
10270,1352,-112,-1832,-48,14,-4
10275,1344,-128,-1848,-49,15,-3
10280,1344,-112,-1848,-49,15,-2
10285,1336,-120,-1864,-49,16,-2
10290,1328,-96,-1896,-48,14,-1
10295,1320,-104,-1840,-48,16,-1
10300,1344,-120,-1840,-47,13,1
10305,1336,-120,-1816,-46,13,2
10310,1320,-104,-1840,-45,11,5
10315,1336,-112,-1856,-43,7,5
10320,1344,-112,-1864,-44,6,5
10325,1336,-112,-1832,-42,6,6
10330,1344,-104,-1864,-43,4,7
10335,1320,-128,-1824,-44,2,6
10340,1328,-120,-1880,-44,0,5
10345,1336,-128,-1856,-47,-1,5
10350,1328,-112,-1832,-46,-3,5
10355,1328,-112,-1856,-46,-5,6
10360,1336,-136,-1864,-48,-6,5
10365,1352,-128,-1848,-48,-8,5
10370,1352,-152,-1840,-49,-7,4
10375,1328,-120,-1888,-47,-7,7
10380,1312,-112,-1840,-48,-6,7
10385,1312,-120,-1864,-48,-4,6
10390,1320,-120,-1824,-47,-3,6
10395,1336,-112,-1832,-48,-2,4
10400,1352,-120,-1848,-48,-1,4
10405,1312,-128,-1824,-49,2,4
10410,1352,-144,-1856,-49,2,3
10415,1328,-120,-1864,-52,2,2
10420,1328,-112,-1856,-52,3,-1
10425,1328,-96,-1856,-55,2,1
10430,1328,-120,-1896,-55,0,1
10435,1336,-120,-1888,-55,1,1
10440,1344,-104,-1848,-54,-1,3
10445,1344,-112,-1864,-53,-1,3
10450,1344,-120,-1840,-53,-2,3
10455,1336,-112,-1864,-50,-3,5
10460,1344,-104,-1888,-49,-4,5
10465,1344,-144,-1872,-51,-3,4
10470,1344,-136,-1864,-53,-1,4
10475,1328,-104,-1856,-52,-3,5
10480,1328,-128,-1848,-56,-2,2
10485,1336,-120,-1864,-52,-1,2
10490,1344,-128,-1840,-52,-1,2
10495,1320,-112,-1848,-51,-2,1
10500,1320,-120,-1832,-53,-3,1
10505,1352,-128,-1856,-54,-3,0
10510,1344,-120,-1848,-56,-6,0
10515,1352,-128,-1856,-58,-6,0
10520,1328,-120,-1824,-59,-7,-1
10525,1320,-104,-1856,-61,-10,1
10530,1320,-104,-1840,-60,-13,1
10535,1344,-136,-1864,-58,-15,2
10540,1344,-112,-1856,-57,-17,3
10545,1304,-104,-1848,-58,-19,7
10550,1312,-120,-1840,-59,-21,8
10555,1328,-112,-1856,-59,-23,10
10560,1336,-120,-1880,-58,-23,11
10565,1296,-136,-1832,-57,-26,12
10570,1344,-104,-1872,-58,-27,13
10575,1336,-128,-1864,-56,-29,15
10580,1344,-120,-1856,-58,-28,14
10585,1336,-112,-1888,-59,-29,13
10590,1312,-112,-1888,-58,-29,15
10595,1336,-128,-1888,-59,-29,14
10600,1352,-128,-1888,-60,-28,15
10605,1320,-120,-1864,-61,-29,13
10610,1320,-104,-1864,-60,-28,12
10615,1320,-144,-1880,-60,-28,10
10620,1320,-112,-1880,-60,-28,10
10625,1336,-144,-1888,-60,-28,10
10630,1328,-136,-1888,-58,-27,10
10635,1304,-120,-1888,-56,-26,11
10640,1328,-120,-1912,-54,-25,8
10645,1328,-160,-1888,-54,-24,8
10650,1328,-120,-1888,-53,-22,8
10655,1296,-112,-1888,-50,-18,5
10660,1320,-112,-1880,-50,-14,3
10665,1328,-136,-1864,-50,-10,2
10670,1320,-120,-1888,-52,-7,0
10675,1304,-88,-1880,-51,-4,1
10680,1328,-120,-1880,-54,-2,1
10685,1336,-96,-1880,-52,-1,0
10690,1320,-120,-1864,-52,-1,2
10695,1312,-112,-1848,-51,-2,2
10700,1336,-120,-1880,-51,-3,4
10705,1312,-112,-1840,-52,-4,4
10710,1320,-120,-1880,-52,-7,7
10715,1312,-96,-1872,-54,-7,8
10720,1304,-104,-1864,-54,-8,10
10725,1328,-112,-1856,-56,-12,10
10730,1328,-112,-1872,-56,-13,11
10735,1304,-112,-1872,-59,-16,11
10740,1312,-88,-1864,-57,-18,12
10745,1320,-136,-1856,-59,-22,12
10750,1296,-104,-1896,-60,-24,11
10755,1336,-136,-1880,-58,-24,12
10760,1304,-96,-1880,-58,-24,12
10765,1320,-104,-1896,-60,-22,11
10770,1312,-136,-1880,-59,-21,13
10775,1328,-128,-1848,-60,-20,14
10780,1320,-112,-1896,-59,-20,14
10785,1320,-160,-1864,-58,-20,14
10790,1320,-112,-1880,-56,-20,16
10795,1320,-112,-1864,-52,-20,16
10800,1304,-120,-1888,-50,-21,18
10805,1320,-120,-1856,-50,-21,18
10810,1296,-88,-1848,-51,-21,18
10815,1288,-136,-1864,-52,-22,18
10820,1304,-120,-1864,-55,-25,17
10825,1288,-128,-1888,-58,-27,18
10830,1320,-120,-1840,-63,-31,16
10835,1288,-96,-1864,-65,-34,16
10840,1312,-120,-1856,-66,-39,16
10845,1304,-136,-1872,-66,-41,14
10850,1320,-120,-1888,-66,-45,14
10855,1304,-128,-1864,-65,-47,13
10860,1328,-112,-1880,-66,-48,13
10865,1320,-128,-1920,-65,-48,12
10870,1304,-144,-1872,-65,-46,13
10875,1312,-128,-1888,-63,-42,12
10880,1296,-104,-1912,-62,-40,12
10885,1296,-112,-1912,-62,-36,11
10890,1328,-96,-1888,-63,-33,11
10895,1304,-104,-1888,-62,-30,9
10900,1288,-120,-1896,-61,-27,9
10905,1280,-128,-1912,-60,-25,9
10910,1296,-112,-1864,-59,-22,9
10915,1320,-120,-1904,-58,-22,7
10920,1296,-120,-1904,-58,-20,7
10925,1288,-104,-1896,-57,-20,7
10930,1296,-136,-1888,-56,-20,7
10935,1304,-112,-1888,-56,-20,8
10940,1272,-80,-1888,-56,-20,7
10945,1304,-128,-1920,-55,-20,8
10950,1296,-96,-1904,-55,-19,6
10955,1288,-112,-1904,-55,-19,5
10960,1304,-128,-1880,-53,-19,7
10965,1288,-128,-1888,-52,-19,6
10970,1280,-88,-1880,-51,-20,8
10975,1296,-120,-1888,-52,-21,8
10980,1296,-112,-1880,-50,-20,8
10985,1280,-112,-1856,-53,-20,7
10990,1280,-112,-1880,-53,-19,7
10995,1280,-96,-1896,-52,-19,7
11000,1272,-104,-1872,-51,-19,6
11005,1288,-128,-1872,-48,-19,4
11010,1288,-128,-1888,-50,-17,1
11015,1272,-96,-1904,-51,-14,1
11020,1280,-120,-1904,-51,-9,-2
11025,1296,-104,-1904,-51,-7,-3
11030,1280,-112,-1904,-51,-4,-4
11035,1304,-128,-1888,-50,-1,-5
11040,1296,-120,-1912,-50,2,-6
11045,1296,-128,-1912,-51,6,-6
11050,1272,-120,-1904,-51,8,-6
11055,1272,-104,-1880,-48,10,-7
11060,1296,-120,-1904,-47,13,-6
11065,1288,-128,-1896,-46,16,-6
11070,1288,-104,-1912,-45,18,-8
11075,1272,-96,-1920,-47,20,-6
11080,1304,-120,-1904,-46,20,-6
11085,1288,-128,-1896,-46,22,-6
11090,1312,-112,-1904,-45,22,-6
11095,1280,-128,-1872,-47,22,-6
11100,1288,-120,-1864,-46,23,-6
11105,1288,-120,-1904,-46,23,-8
11110,1304,-112,-1856,-45,24,-8
11115,1288,-128,-1888,-46,24,-8
11120,1288,-120,-1856,-47,23,-8
11125,1264,-128,-1880,-48,24,-9
11130,1312,-136,-1880,-49,23,-8
11135,1288,-120,-1912,-49,24,-10
11140,1288,-112,-1888,-51,24,-9
11145,1296,-104,-1888,-51,23,-9
11150,1304,-120,-1880,-52,24,-9
11155,1288,-96,-1888,-52,24,-8
11160,1288,-112,-1880,-51,23,-9
11165,1280,-128,-1888,-48,24,-8
11170,1272,-112,-1904,-46,24,-9
11175,1296,-88,-1880,-48,24,-8
11180,1296,-120,-1888,-45,25,-9
11185,1312,-96,-1880,-47,25,-10
11190,1288,-104,-1888,-46,25,-9
11195,1280,-112,-1936,-45,26,-10
11200,1296,-96,-1872,-47,23,-9
11205,1288,-96,-1896,-46,22,-9
11210,1296,-152,-1888,-47,21,-9
11215,1304,-112,-1856,-47,21,-9
11220,1304,-120,-1880,-48,20,-8
11225,1256,-104,-1864,-47,21,-8
11230,1296,-120,-1888,-48,19,-9
11235,1280,-104,-1904,-46,19,-9
11240,1296,-104,-1880,-44,18,-8
11245,1296,-96,-1888,-45,18,-7
11250,1304,-120,-1888,-45,18,-7
11255,1288,-112,-1872,-44,18,-7
11260,1296,-112,-1904,-43,18,-7
11265,1288,-112,-1888,-42,19,-6
11270,1296,-104,-1888,-40,20,-6
11275,1304,-136,-1896,-40,20,-7
11280,1288,-128,-1904,-41,21,-8
11285,1320,-120,-1888,-42,21,-7
11290,1280,-112,-1896,-42,22,-9
11295,1304,-120,-1912,-45,24,-10
11300,1312,-104,-1904,-45,24,-8
11305,1304,-120,-1872,-46,24,-9
11310,1288,-120,-1896,-46,25,-10
11315,1320,-128,-1928,-47,26,-10
11320,1272,-104,-1880,-47,25,-9
11325,1288,-112,-1888,-45,23,-9
11330,1288,-120,-1896,-45,21,-10
11335,1280,-112,-1880,-44,19,-9
11340,1288,-112,-1888,-44,18,-9
11345,1280,-96,-1880,-46,18,-9
11350,1288,-136,-1872,-47,15,-7
11355,1320,-112,-1864,-46,14,-8
11360,1296,-120,-1872,-47,13,-8
11365,1304,-120,-1920,-46,13,-8
11370,1280,-104,-1896,-47,12,-9
11375,1288,-128,-1896,-48,12,-9
11380,1272,-104,-1864,-45,12,-8
11385,1296,-128,-1920,-45,12,-8
11390,1288,-112,-1888,-46,14,-11
11395,1288,-104,-1928,-46,16,-12
11400,1296,-120,-1896,-47,17,-12
11405,1304,-104,-1904,-48,19,-12
11410,1296,-104,-1896,-48,18,-12
11415,1304,-120,-1904,-46,18,-9
11420,1304,-120,-1912,-44,20,-9
11425,1304,-112,-1888,-42,21,-9
11430,1304,-128,-1896,-42,21,-9
11435,1304,-136,-1904,-42,21,-8
11440,1304,-120,-1856,-42,22,-10
11445,1280,-120,-1872,-42,22,-10
11450,1272,-104,-1880,-46,21,-10
11455,1280,-104,-1896,-48,20,-11
11460,1288,-112,-1896,-50,17,-12
11465,1320,-128,-1856,-53,15,-13
11470,1280,-96,-1880,-53,13,-13
11475,1280,-112,-1872,-53,10,-12
11480,1296,-96,-1888,-52,10,-12
11485,1280,-104,-1888,-51,7,-12
11490,1312,-120,-1904,-51,6,-11
11495,1280,-96,-1856,-51,7,-10
11500,1312,-112,-1888,-48,7,-10
11505,1312,-112,-1880,-49,5,-10
11510,1296,-128,-1864,-48,8,-10
11515,1280,-128,-1880,-48,7,-10
11520,1288,-112,-1896,-46,8,-12
11525,1272,-96,-1896,-47,8,-11
11530,1296,-112,-1896,-47,10,-10
11535,1312,-128,-1896,-48,11,-10
11540,1288,-104,-1920,-45,12,-10
11545,1272,-112,-1888,-47,11,-9
11550,1304,-120,-1904,-46,13,-10
11555,1312,-120,-1912,-47,15,-10
11560,1264,-88,-1928,-45,17,-9
11565,1280,-128,-1880,-45,19,-8
11570,1288,-96,-1920,-44,19,-9
11575,1288,-112,-1904,-43,21,-9
11580,1296,-112,-1896,-42,22,-9
11585,1304,-128,-1880,-42,24,-7
11590,1320,-144,-1888,-43,25,-8
11595,1304,-104,-1896,-42,24,-9
11600,1288,-104,-1896,-42,26,-8
11605,1304,-136,-1896,-42,25,-8
11610,1288,-104,-1904,-43,26,-9
11615,1312,-120,-1912,-42,27,-8
11620,1280,-120,-1920,-42,27,-10
11625,1280,-112,-1888,-41,25,-11
11630,1296,-120,-1888,-40,28,-10
11635,1288,-104,-1904,-40,29,-11
11640,1296,-104,-1880,-42,31,-11
11645,1280,-128,-1880,-41,30,-10
11650,1288,-128,-1880,-42,31,-10
11655,1320,-144,-1896,-43,29,-10
11660,1288,-88,-1904,-43,30,-10
11665,1288,-80,-1896,-40,29,-8
11670,1288,-104,-1896,-41,29,-7
11675,1288,-120,-1872,-42,29,-8
11680,1288,-96,-1880,-40,28,-7
11685,1304,-96,-1864,-42,29,-7
11690,1288,-120,-1872,-42,28,-7
11695,1320,-120,-1888,-41,26,-8
11700,1312,-128,-1880,-41,26,-8
11705,1320,-128,-1880,-43,26,-9
11710,1288,-112,-1872,-44,25,-9
11715,1328,-136,-1888,-45,22,-10
11720,1280,-96,-1904,-49,21,-9
11725,1320,-128,-1888,-48,20,-9
11730,1312,-128,-1888,-49,19,-10
11735,1312,-112,-1888,-50,18,-10
11740,1304,-112,-1896,-50,18,-10
11745,1288,-88,-1880,-50,18,-11
11750,1304,-112,-1888,-50,18,-11
11755,1304,-128,-1904,-52,16,-10
11760,1304,-96,-1856,-50,14,-10
11765,1288,-104,-1872,-49,12,-10
11770,1288,-96,-1896,-48,11,-10
11775,1272,-96,-1872,-49,12,-8
11780,1304,-128,-1880,-49,12,-7
11785,1296,-120,-1888,-48,12,-7
11790,1288,-104,-1856,-48,12,-9
11795,1328,-120,-1856,-48,14,-10
11800,1304,-120,-1888,-48,14,-10
11805,1296,-104,-1880,-50,15,-12
11810,1320,-104,-1888,-49,15,-12
11815,1288,-56,-1904,-49,17,-12
11820,1312,-104,-1864,-51,17,-13
11825,1312,-104,-1896,-50,18,-12
11830,1296,-88,-1904,-48,19,-12
11835,1304,-104,-1904,-47,19,-10
11840,1328,-112,-1888,-46,21,-11
11845,1288,-88,-1904,-45,20,-13
11850,1296,-104,-1888,-46,21,-12
11855,1312,-96,-1888,-44,22,-10
11860,1296,-104,-1904,-44,24,-9
11865,1272,-64,-1880,-44,23,-8
11870,1296,-96,-1880,-42,24,-7
11875,1296,-96,-1904,-42,25,-8
11880,1296,-104,-1888,-41,23,-7
11885,1304,-120,-1872,-42,24,-6
11890,1288,-104,-1864,-42,23,-6
11895,1288,-96,-1864,-43,23,-7
11900,1312,-120,-1912,-43,24,-8
11905,1304,-96,-1896,-43,25,-9
11910,1296,-104,-1896,-43,26,-8
11915,1320,-120,-1864,-44,24,-8
11920,1336,-136,-1888,-43,24,-9
11925,1296,-128,-1896,-43,27,-9
11930,1312,-104,-1864,-46,29,-9
11935,1296,-88,-1896,-42,29,-9
11940,1296,-120,-1872,-41,28,-8
11945,1320,-112,-1928,-40,27,-9
11950,1296,-120,-1896,-41,27,-9
11955,1296,-120,-1880,-40,27,-9
11960,1312,-104,-1888,-41,29,-8
11965,1312,-112,-1896,-41,28,-9
11970,1296,-96,-1856,-41,28,-9
11975,1304,-72,-1912,-39,29,-9
11980,1312,-120,-1904,-39,31,-9
11985,1312,-104,-1896,-40,31,-10
11990,1304,-128,-1848,-42,32,-10
11995,1280,-96,-1896,-40,33,-10
12000,1296,-128,-1864,-40,34,-13
12005,1304,-96,-1896,-41,35,-13
12010,1312,-120,-1888,-42,37,-14
12015,1288,-112,-1912,-42,39,-16
12020,1280,-112,-1856,-43,41,-18
12025,1320,-112,-1896,-42,42,-20
12030,1272,-80,-1912,-41,44,-23
12035,1360,-160,-1896,-42,45,-23
12040,1312,-120,-1880,-39,46,-25
12045,1312,-120,-1896,-39,48,-26
12050,1288,-104,-1888,-39,47,-27
12055,1304,-104,-1896,-40,49,-28
12060,1304,-112,-1872,-40,50,-29
12065,1304,-104,-1912,-42,51,-28
12070,1280,-112,-1888,-40,51,-29
12075,1312,-128,-1872,-40,49,-28
12080,1304,-88,-1880,-40,47,-26
12085,1296,-96,-1864,-40,44,-25
12090,1344,-88,-1816,-38,42,-25
12095,1304,-88,-1880,-39,39,-22
12100,1296,-88,-1888,-39,38,-21
12105,1312,-104,-1880,-40,35,-22
12110,1304,-104,-1856,-40,36,-20
12115,1312,-96,-1896,-41,34,-19
12120,1336,-112,-1896,-42,34,-19
12125,1288,-88,-1880,-43,33,-18
12130,1312,-120,-1864,-41,31,-16
12135,1320,-104,-1896,-40,31,-15
12140,1304,-88,-1888,-40,33,-16
12145,1320,-96,-1872,-41,32,-13
12150,1304,-112,-1856,-40,32,-13
12155,1296,-96,-1872,-40,31,-13
12160,1320,-96,-1856,-42,33,-12
12165,1328,-120,-1832,-44,30,-12
12170,1304,-120,-1872,-45,28,-12
12175,1312,-128,-1864,-46,26,-13
12180,1288,-120,-1864,-47,25,-13
12185,1296,-120,-1888,-47,20,-13
12190,1312,-112,-1864,-48,19,-13
12195,1304,-88,-1864,-48,18,-13
12200,1320,-144,-1872,-49,16,-15
12205,1320,-104,-1896,-48,14,-16
12210,1296,-88,-1856,-49,15,-14
12215,1304,-120,-1880,-47,15,-14
12220,1288,-88,-1864,-48,15,-13
12225,1304,-128,-1880,-48,15,-14
12230,1312,-88,-1904,-47,15,-15
12235,1328,-104,-1864,-48,17,-15
12240,1312,-104,-1848,-47,19,-13
12245,1312,-112,-1896,-46,21,-13
12250,1312,-96,-1888,-47,22,-13
12255,1312,-88,-1880,-44,23,-13
12260,1336,-96,-1888,-43,25,-14
12265,1304,-112,-1928,-44,29,-13
12270,1312,-128,-1872,-42,31,-14
12275,1312,-88,-1872,-42,32,-14
12280,1320,-96,-1920,-41,34,-13
12285,1304,-96,-1904,-39,35,-13
12290,1336,-128,-1888,-41,37,-14
12295,1328,-112,-1880,-42,37,-15
12300,1312,-96,-1856,-42,38,-16
12305,1328,-96,-1856,-40,38,-15
12310,1312,-104,-1840,-40,39,-16
12315,1304,-104,-1864,-41,41,-16
12320,1312,-128,-1864,-41,42,-17
12325,1296,-96,-1856,-40,41,-18
12330,1328,-112,-1856,-42,41,-17
12335,1304,-104,-1872,-41,41,-16
12340,1296,-104,-1912,-40,41,-17
12345,1296,-104,-1872,-39,41,-18
12350,1304,-104,-1856,-38,42,-18
12355,1320,-112,-1872,-39,42,-17
12360,1328,-112,-1864,-40,43,-17
12365,1328,-112,-1904,-40,43,-17
12370,1328,-104,-1880,-40,43,-18
12375,1304,-88,-1888,-39,43,-17
12380,1312,-96,-1864,-38,43,-18
12385,1312,-96,-1888,-39,43,-18
12390,1320,-96,-1920,-38,43,-17
12395,1336,-112,-1864,-38,45,-17
12400,1296,-88,-1856,-39,44,-17
12405,1296,-112,-1888,-39,45,-19
12410,1304,-112,-1824,-39,46,-19
12415,1328,-144,-1840,-39,46,-19
12420,1296,-96,-1856,-39,46,-18
12425,1304,-96,-1880,-40,47,-19
12430,1304,-112,-1872,-39,46,-19
12435,1312,-80,-1880,-41,46,-21
12440,1336,-104,-1848,-41,45,-22
12445,1344,-96,-1888,-43,45,-22
12450,1328,-104,-1872,-43,45,-23
12455,1312,-112,-1856,-42,47,-25
12460,1336,-72,-1896,-44,46,-25
12465,1336,-136,-1872,-42,46,-22
12470,1328,-112,-1832,-40,46,-22
12475,1320,-88,-1912,-41,47,-24
12480,1344,-104,-1880,-41,47,-23
12485,1328,-96,-1856,-39,47,-24
12490,1328,-88,-1880,-40,46,-22
12495,1320,-104,-1888,-40,45,-23
12500,1336,-112,-1864,-42,45,-23
12505,1344,-104,-1888,-41,45,-21
12510,1328,-128,-1864,-43,43,-21
12515,1328,-112,-1880,-45,43,-21
12520,1320,-96,-1872,-44,43,-21
12525,1288,-96,-1872,-43,43,-21
12530,1304,-104,-1856,-42,42,-21
12535,1336,-104,-1864,-41,44,-22
12540,1320,-88,-1888,-43,44,-21
12545,1328,-120,-1856,-41,44,-21
12550,1336,-96,-1880,-40,44,-20
12555,1328,-96,-1848,-41,43,-20
12560,1328,-120,-1848,-40,43,-21
12565,1336,-72,-1872,-40,43,-18
12570,1304,-96,-1832,-41,43,-18
12575,1336,-96,-1864,-41,42,-18
12580,1328,-80,-1840,-40,41,-19
12585,1336,-104,-1888,-41,41,-18
12590,1344,-128,-1872,-40,39,-17
12595,1336,-112,-1856,-40,39,-18
12600,1344,-120,-1896,-40,38,-17
12605,1312,-104,-1856,-39,38,-17
12610,1336,-120,-1872,-40,37,-18
12615,1336,-88,-1864,-39,36,-17
12620,1344,-104,-1856,-39,37,-17
12625,1344,-80,-1864,-38,37,-16
12630,1336,-104,-1848,-39,39,-15
12635,1344,-120,-1864,-40,39,-14
12640,1352,-104,-1872,-43,40,-16
12645,1344,-96,-1856,-42,40,-16
12650,1336,-80,-1880,-40,41,-16
12655,1336,-96,-1840,-41,41,-16
12660,1336,-88,-1872,-41,43,-16
12665,1328,-80,-1880,-43,43,-14
12670,1344,-104,-1872,-43,42,-13
12675,1312,-88,-1880,-41,43,-13
12680,1344,-120,-1856,-40,42,-13
12685,1320,-96,-1848,-40,41,-13
12690,1336,-104,-1856,-41,42,-14
12695,1336,-112,-1864,-41,41,-14
12700,1336,-112,-1864,-43,41,-15
12705,1344,-104,-1880,-41,42,-15
12710,1344,-88,-1872,-42,41,-15
12715,1296,-88,-1896,-41,41,-15
12720,1344,-104,-1856,-43,39,-14
12725,1360,-104,-1808,-41,41,-17
12730,1352,-112,-1848,-43,44,-17
12735,1320,-96,-1848,-42,42,-16
12740,1352,-104,-1856,-43,42,-16
12745,1352,-104,-1904,-44,41,-17
12750,1320,-96,-1848,-43,38,-17
12755,1360,-112,-1872,-42,37,-17
12760,1344,-104,-1848,-43,37,-17
12765,1336,-112,-1856,-43,37,-18
12770,1344,-104,-1864,-45,37,-17
12775,1336,-88,-1864,-43,36,-15
12780,1344,-104,-1840,-42,36,-15
12785,1344,-104,-1848,-43,36,-15
12790,1352,-88,-1832,-43,37,-15
12795,1336,-88,-1824,-42,37,-14
12800,1336,-80,-1864,-41,38,-15
12805,1336,-88,-1856,-40,38,-16
12810,1336,-88,-1848,-40,38,-16
12815,1352,-104,-1840,-41,38,-15
12820,1352,-96,-1848,-42,39,-15
12825,1344,-112,-1840,-41,38,-15
12830,1328,-104,-1864,-41,37,-16
12835,1360,-112,-1848,-42,37,-16
12840,1320,-96,-1864,-42,35,-17
12845,1352,-104,-1848,-42,35,-16
12850,1352,-104,-1856,-43,35,-16
12855,1312,-112,-1840,-43,35,-17
12860,1336,-104,-1848,-42,34,-15
12865,1368,-104,-1880,-43,33,-15
12870,1336,-72,-1840,-43,34,-15
12875,1336,-112,-1880,-44,34,-15
12880,1360,-80,-1848,-43,34,-15
12885,1328,-104,-1864,-43,33,-11
12890,1336,-80,-1816,-41,35,-12
12895,1360,-104,-1856,-42,33,-12
12900,1352,-96,-1808,-45,32,-14
12905,1360,-120,-1840,-44,32,-13
12910,1344,-96,-1864,-44,32,-13
12915,1368,-96,-1848,-43,31,-13
12920,1336,-80,-1832,-44,31,-13
12925,1344,-80,-1832,-44,31,-13
12930,1344,-80,-1824,-45,29,-13
12935,1336,-96,-1840,-44,28,-13
12940,1360,-88,-1872,-44,26,-11
12945,1352,-88,-1816,-44,23,-8
12950,1360,-96,-1840,-42,23,-8
12955,1368,-120,-1856,-43,23,-5
12960,1328,-104,-1856,-46,21,-5
12965,1360,-96,-1856,-44,18,-2
12970,1352,-104,-1840,-45,17,-2
12975,1352,-80,-1840,-43,16,-1
12980,1344,-96,-1824,-45,14,1
12985,1344,-72,-1832,-46,10,2
12990,1336,-104,-1856,-44,6,2
12995,1328,-88,-1840,-45,3,3
13000,1344,-88,-1824,-42,0,3
13005,1352,-88,-1848,-43,-3,4
13010,1352,-96,-1816,-43,-5,6
13015,1344,-104,-1832,-42,-8,5
13020,1304,-88,-1872,-44,-8,6
13025,1344,-96,-1840,-44,-10,6
13030,1352,-88,-1856,-44,-10,5
13035,1336,-112,-1824,-42,-13,6
13040,1328,-88,-1840,-45,-15,7
13045,1352,-112,-1848,-46,-16,7
13050,1360,-104,-1840,-44,-17,9
13055,1328,-80,-1856,-43,-18,9
13060,1336,-96,-1816,-41,-20,9
13065,1344,-112,-1872,-42,-21,10
13070,1360,-104,-1824,-43,-21,12
13075,1352,-120,-1832,-42,-20,12
13080,1352,-120,-1872,-45,-20,12
13085,1336,-88,-1848,-46,-20,12
13090,1344,-104,-1864,-48,-20,12
13095,1344,-112,-1864,-49,-22,12
13100,1336,-96,-1904,-48,-24,13
13105,1344,-104,-1832,-48,-23,15
13110,1344,-104,-1856,-47,-25,14
13115,1352,-104,-1856,-44,-24,15
13120,1344,-104,-1856,-43,-26,14
13125,1344,-112,-1864,-44,-26,15
13130,1344,-88,-1880,-44,-24,14
13135,1336,-96,-1840,-45,-23,15
13140,1328,-104,-1872,-45,-20,16
13145,1344,-104,-1864,-43,-20,15
13150,1344,-96,-1832,-40,-17,12
13155,1344,-128,-1880,-38,-16,13
13160,1336,-112,-1896,-39,-14,11
13165,1344,-120,-1856,-40,-12,11
13170,1328,-96,-1848,-43,-9,9
13175,1328,-96,-1848,-44,-7,7
13180,1336,-104,-1864,-46,-5,6
13185,1328,-88,-1848,-50,-4,5
13190,1352,-112,-1888,-50,-5,4
13195,1336,-128,-1824,-52,-8,4
13200,1344,-104,-1856,-53,-9,3
13205,1344,-88,-1872,-52,-12,3
13210,1360,-104,-1872,-52,-16,4
13215,1336,-96,-1864,-53,-19,4
13220,1336,-96,-1856,-53,-20,4
13225,1328,-120,-1864,-54,-23,4
13230,1328,-104,-1880,-53,-23,5
13235,1312,-112,-1880,-53,-21,4
13240,1328,-136,-1888,-52,-18,2
13245,1328,-104,-1864,-53,-15,3
13250,1344,-112,-1880,-52,-12,3
13255,1336,-112,-1856,-53,-9,1
13260,1336,-112,-1864,-53,-7,-1
13265,1336,-96,-1896,-54,-5,-2
13270,1336,-104,-1880,-55,-2,-3
13275,1320,-88,-1880,-56,1,-4
13280,1336,-88,-1880,-56,3,-3
13285,1344,-104,-1880,-57,4,-3
13290,1352,-88,-1864,-58,5,-4
13295,1328,-88,-1912,-56,6,-3
13300,1360,-104,-1888,-55,6,-2
13305,1336,-120,-1856,-56,7,-2
13310,1336,-96,-1848,-56,7,-2
13315,1320,-96,-1880,-54,8,-1
13320,1320,-96,-1872,-54,8,0
13325,1312,-88,-1880,-54,9,2
13330,1320,-96,-1816,-54,9,4
13335,1296,-96,-1880,-53,10,4
13340,1312,-104,-1888,-51,8,3
13345,1336,-88,-1880,-49,7,4
13350,1344,-80,-1888,-48,8,5
13355,1304,-96,-1840,-49,8,6
13360,1320,-96,-1880,-49,10,3
13365,1328,-96,-1856,-48,10,4
13370,1336,-120,-1848,-48,11,4
13375,1328,-96,-1872,-49,13,2
13380,1328,-104,-1856,-50,14,3
13385,1328,-96,-1864,-49,15,3
13390,1336,-96,-1832,-51,16,3
13395,1320,-72,-1848,-51,16,2
13400,1344,-96,-1840,-51,16,2
13405,1336,-96,-1872,-49,15,3
13410,1320,-112,-1848,-48,15,3
13415,1328,-96,-1856,-48,15,4
13420,1328,-120,-1840,-49,15,5
13425,1344,-120,-1864,-50,15,4
13430,1328,-88,-1864,-50,13,5
13435,1328,-104,-1872,-49,12,4
13440,1328,-96,-1864,-49,10,5
13445,1320,-96,-1816,-51,8,4
13450,1328,-104,-1848,-51,5,5
13455,1320,-64,-1856,-52,2,5
13460,1328,-88,-1848,-51,1,4
13465,1304,-80,-1856,-51,-1,6
13470,1320,-112,-1880,-53,-3,7
13475,1320,-88,-1872,-54,-6,8
13480,1304,-88,-1816,-54,-6,9
13485,1296,-88,-1888,-54,-11,10
13490,1320,-120,-1864,-54,-14,12
13495,1328,-112,-1864,-54,-16,12
13500,1344,-120,-1872,-54,-18,12
13505,1344,-112,-1864,-53,-22,12
13510,1320,-104,-1856,-53,-23,13
13515,1304,-88,-1880,-54,-24,11
13520,1336,-104,-1840,-56,-25,11
13525,1320,-104,-1848,-59,-26,11
13530,1328,-120,-1880,-60,-28,10
13535,1320,-96,-1872,-60,-27,10
13540,1312,-104,-1888,-62,-28,9
13545,1312,-112,-1872,-61,-28,7
13550,1328,-96,-1864,-63,-26,6
13555,1336,-128,-1848,-60,-26,7
13560,1336,-112,-1872,-62,-23,6
13565,1320,-96,-1880,-64,-21,6
13570,1320,-96,-1880,-63,-18,6
13575,1312,-96,-1864,-63,-16,5
13580,1320,-88,-1864,-62,-16,5
13585,1328,-112,-1872,-60,-14,6
13590,1320,-128,-1872,-60,-12,7
13595,1320,-120,-1864,-59,-11,8
13600,1312,-88,-1864,-58,-11,9
13605,1312,-96,-1880,-59,-10,8
13610,1304,-112,-1912,-60,-10,8
13615,1296,-80,-1896,-59,-9,9
13620,1296,-80,-1872,-59,-9,10
13625,1304,-104,-1872,-58,-9,11
13630,1296,-104,-1872,-58,-8,10
13635,1312,-88,-1888,-58,-7,9
13640,1320,-112,-1888,-58,-6,10
13645,1312,-120,-1888,-58,-6,9
13650,1296,-104,-1864,-57,-7,9
13655,1320,-104,-1864,-57,-7,8
13660,1320,-96,-1880,-56,-7,8
13665,1312,-112,-1872,-54,-7,9
13670,1312,-104,-1864,-53,-7,8
13675,1304,-80,-1856,-52,-6,8
13680,1304,-112,-1872,-52,-8,8
13685,1304,-96,-1864,-53,-6,8
13690,1304,-112,-1888,-53,-3,6
13695,1304,-88,-1880,-54,-2,5
13700,1320,-112,-1872,-54,-1,4
13705,1320,-104,-1872,-55,2,5
13710,1280,-88,-1872,-54,5,4
13715,1296,-112,-1864,-53,4,3
13720,1296,-104,-1896,-53,6,3
13725,1328,-120,-1848,-55,6,2
13730,1320,-104,-1864,-54,5,3
13735,1320,-96,-1856,-56,6,2
13740,1320,-104,-1872,-57,5,1
13745,1304,-88,-1864,-55,4,2
13750,1304,-96,-1872,-55,4,3
13755,1304,-96,-1856,-54,2,3
13760,1328,-104,-1864,-54,-1,4
13765,1320,-112,-1832,-52,-2,4
13770,1288,-88,-1880,-50,-2,5
13775,1328,-104,-1880,-50,-4,5
13780,1304,-64,-1880,-50,-6,7
13785,1328,-96,-1872,-50,-6,7
13790,1312,-136,-1896,-51,-6,5
13795,1312,-120,-1912,-55,-4,4
13800,1312,-88,-1896,-54,-2,3
13805,1312,-96,-1864,-55,-2,3
13810,1312,-112,-1880,-55,0,2
13815,1312,-120,-1880,-56,0,2
13820,1320,-88,-1872,-55,0,1
13825,1296,-104,-1896,-56,1,0
13830,1304,-96,-1856,-55,0,-2
13835,1336,-88,-1896,-53,-1,-2
13840,1328,-96,-1888,-54,1,-2
13845,1312,-72,-1880,-56,2,-2
13850,1304,-80,-1888,-57,3,-2
13855,1320,-96,-1872,-56,5,0
13860,1320,-96,-1888,-55,4,0
13865,1320,-104,-1872,-51,3,1
13870,1304,-112,-1896,-48,3,1
13875,1320,-96,-1912,-48,6,3
13880,1296,-96,-1872,-47,5,2
13885,1312,-88,-1928,-45,8,3
13890,1304,-112,-1888,-46,8,4
13895,1296,-104,-1872,-48,8,4
13900,1312,-112,-1840,-50,7,4
13905,1312,-104,-1896,-55,5,3
13910,1288,-96,-1872,-58,4,4
13915,1288,-96,-1880,-58,-2,3
13920,1312,-96,-1864,-59,-7,4
13925,1320,-104,-1872,-59,-11,5
13930,1304,-88,-1848,-60,-18,5
13935,1272,-88,-1864,-60,-22,6
13940,1280,-104,-1872,-59,-24,6
13945,1312,-96,-1848,-59,-26,5
13950,1320,-88,-1880,-57,-26,5
13955,1296,-80,-1872,-57,-26,5
13960,1304,-128,-1896,-55,-25,4
13965,1296,-112,-1888,-57,-22,3
13970,1304,-96,-1880,-58,-20,3
13975,1304,-80,-1864,-58,-16,2
13980,1304,-104,-1880,-57,-14,1
13985,1296,-96,-1912,-55,-13,3
13990,1296,-104,-1912,-55,-13,3
13995,1336,-96,-1896,-53,-10,4
14000,1304,-80,-1920,-52,-10,5
14005,1296,-96,-1920,-54,-7,6
14010,1312,-120,-1888,-48,-6,6
14015,1296,-96,-1904,-48,-4,5
14020,1296,-80,-1880,-48,-2,7
14025,1304,-88,-1912,-47,-1,5
14030,1288,-112,-1912,-47,1,5
14035,1312,-88,-1896,-47,4,4
14040,1304,-112,-1872,-45,6,4
14045,1312,-104,-1880,-44,7,1
14050,1288,-72,-1944,-44,9,2
14055,1288,-104,-1888,-43,12,0
14060,1304,-104,-1912,-42,14,-1
14065,1304,-112,-1912,-44,16,-3
14070,1328,-112,-1896,-43,19,-5
14075,1296,-112,-1912,-43,21,-4
14080,1288,-112,-1904,-44,22,-6
14085,1312,-104,-1864,-45,23,-5
14090,1272,-96,-1880,-45,25,-6
14095,1288,-112,-1896,-45,25,-6
14100,1312,-96,-1872,-45,25,-6
14105,1296,-96,-1904,-45,24,-5
14110,1296,-88,-1888,-45,25,-5
14115,1304,-96,-1864,-45,22,-5
14120,1280,-96,-1872,-43,21,-4
14125,1296,-112,-1888,-44,20,-3
14130,1280,-104,-1896,-45,20,-4
14135,1288,-112,-1880,-44,20,-4
14140,1280,-88,-1872,-45,19,-4
14145,1312,-96,-1888,-45,19,-4
14150,1312,-104,-1896,-45,20,-3
14155,1280,-120,-1880,-45,19,-3
14160,1312,-80,-1880,-48,17,-5
14165,1304,-96,-1896,-47,17,-6
14170,1312,-112,-1872,-49,17,-5
14175,1280,-88,-1872,-49,15,-7
14180,1304,-88,-1888,-51,16,-6
14185,1280,-96,-1904,-48,15,-7
14190,1288,-120,-1880,-48,16,-5
14195,1304,-96,-1880,-50,14,-6
14200,1288,-128,-1904,-52,14,-5
14205,1344,-112,-1864,-48,13,-7
14210,1320,-96,-1896,-47,13,-6
14215,1296,-96,-1888,-47,13,-6
14220,1288,-104,-1904,-47,13,-6
14225,1320,-104,-1864,-48,14,-7
14230,1288,-104,-1888,-48,14,-6
14235,1304,-80,-1864,-49,16,-7
14240,1304,-112,-1896,-49,17,-9
14245,1320,-128,-1880,-49,18,-9
14250,1296,-88,-1896,-49,18,-9
14255,1296,-112,-1904,-49,20,-9
14260,1272,-96,-1912,-49,21,-8
14265,1312,-80,-1888,-49,21,-8
14270,1264,-80,-1888,-46,22,-9
14275,1320,-96,-1904,-47,23,-8
14280,1288,-104,-1912,-46,23,-9
14285,1312,-96,-1880,-45,24,-8
14290,1296,-88,-1912,-44,25,-8
14295,1312,-112,-1888,-44,25,-8
14300,1304,-112,-1872,-43,24,-8
14305,1296,-96,-1896,-43,23,-7
14310,1296,-88,-1856,-41,23,-5
14315,1304,-88,-1848,-41,21,-6
14320,1288,-104,-1888,-43,21,-5
14325,1304,-96,-1848,-42,21,-4
14330,1288,-96,-1888,-43,19,-4
14335,1312,-96,-1880,-42,19,-4
14340,1288,-88,-1880,-41,21,-7
14345,1312,-88,-1888,-43,20,-7
14350,1288,-88,-1880,-45,20,-6
14355,1304,-112,-1872,-44,20,-6
14360,1312,-112,-1888,-45,21,-6
14365,1280,-72,-1896,-41,22,-6
14370,1336,-88,-1872,-43,23,-4
14375,1304,-96,-1872,-41,23,-6
14380,1280,-104,-1864,-42,23,-6
14385,1296,-104,-1896,-42,24,-6
14390,1304,-136,-1880,-43,24,-6
14395,1312,-104,-1896,-45,26,-7
14400,1312,-104,-1880,-44,26,-6
14405,1288,-96,-1888,-43,28,-7
14410,1304,-112,-1896,-42,27,-7
14415,1304,-88,-1864,-41,27,-7
14420,1280,-104,-1896,-43,26,-7
14425,1296,-104,-1888,-42,27,-9
14430,1280,-96,-1880,-43,29,-8
14435,1304,-88,-1888,-43,29,-7
14440,1304,-112,-1864,-44,30,-9
14445,1320,-96,-1872,-45,30,-9
14450,1304,-96,-1896,-44,31,-10
14455,1320,-96,-1896,-46,31,-10
14460,1288,-80,-1880,-45,29,-11
14465,1296,-96,-1872,-43,29,-11
14470,1328,-96,-1872,-43,27,-11
14475,1312,-96,-1912,-45,28,-12
14480,1296,-88,-1880,-46,28,-11
14485,1296,-88,-1888,-45,29,-12
14490,1320,-88,-1888,-48,30,-11
14495,1304,-88,-1864,-47,29,-10
14500,1328,-112,-1856,-45,27,-10
14505,1304,-104,-1888,-43,28,-9
14510,1296,-104,-1864,-42,29,-7
14515,1304,-112,-1888,-41,30,-6
14520,1312,-96,-1888,-38,30,-7
14525,1320,-120,-1896,-39,31,-7
14530,1312,-96,-1864,-40,30,-7
14535,1296,-104,-1824,-43,30,-9
14540,1296,-88,-1872,-44,28,-10
14545,1296,-96,-1856,-44,27,-10
14550,1320,-104,-1848,-47,26,-12
14555,1288,-96,-1880,-48,23,-12
14560,1304,-120,-1888,-48,18,-11
14565,1296,-88,-1888,-46,16,-10
14570,1312,-104,-1880,-47,15,-11
14575,1304,-96,-1872,-47,13,-10
14580,1304,-80,-1880,-45,12,-9
14585,1312,-88,-1872,-44,12,-11
14590,1280,-104,-1896,-43,12,-9
14595,1288,-104,-1904,-42,12,-8
14600,1304,-88,-1880,-43,14,-9
14605,1296,-88,-1896,-42,15,-8
14610,1304,-104,-1896,-44,17,-9
14615,1304,-80,-1888,-44,18,-11
14620,1296,-104,-1888,-45,21,-9
14625,1280,-72,-1880,-44,22,-11
14630,1328,-96,-1920,-43,23,-11
14635,1296,-88,-1880,-44,25,-11
14640,1320,-96,-1856,-45,25,-10
14645,1304,-80,-1856,-46,26,-10
14650,1320,-120,-1904,-46,27,-9
14655,1288,-88,-1888,-46,26,-7
14660,1320,-88,-1872,-45,27,-7
14665,1312,-96,-1872,-45,27,-7
14670,1312,-96,-1888,-43,26,-6
14675,1312,-96,-1864,-43,28,-7
14680,1320,-96,-1864,-43,28,-6
14685,1312,-104,-1864,-43,27,-6
14690,1304,-72,-1880,-41,26,-6
14695,1312,-88,-1888,-42,25,-6
14700,1304,-80,-1864,-41,27,-7
14705,1296,-104,-1856,-41,27,-6
14710,1328,-112,-1872,-42,25,-7
14715,1304,-104,-1888,-40,26,-6
14720,1312,-80,-1888,-41,26,-7
14725,1328,-104,-1880,-41,27,-7
14730,1312,-88,-1904,-40,27,-7
14735,1312,-88,-1912,-39,28,-7
14740,1296,-96,-1872,-39,29,-8
14745,1312,-80,-1888,-41,31,-8
14750,1320,-104,-1880,-41,31,-9
14755,1296,-104,-1848,-41,32,-9
14760,1296,-80,-1912,-39,33,-9
14765,1312,-104,-1880,-38,33,-10
14770,1328,-104,-1872,-38,34,-9
14775,1296,-112,-1888,-38,33,-8
14780,1304,-104,-1872,-38,34,-9
14785,1312,-88,-1856,-39,36,-9
14790,1312,-80,-1848,-38,37,-9
14795,1288,-88,-1864,-41,36,-9
14800,1296,-104,-1880,-40,36,-9
14805,1296,-104,-1856,-40,35,-9
14810,1312,-128,-1880,-40,33,-8
14815,1312,-120,-1872,-40,33,-8
14820,1296,-96,-1888,-40,32,-8
14825,1304,-104,-1912,-40,32,-9
14830,1320,-80,-1856,-41,32,-10
14835,1304,-104,-1880,-42,30,-10
14840,1328,-96,-1888,-42,31,-11
14845,1320,-128,-1872,-43,31,-12
14850,1336,-104,-1912,-42,31,-10
14855,1328,-96,-1904,-42,29,-11
14860,1304,-112,-1880,-43,27,-11
14865,1304,-88,-1864,-46,26,-12
14870,1320,-104,-1888,-47,25,-10
14875,1328,-96,-1848,-44,24,-10
14880,1328,-96,-1896,-43,26,-10
14885,1328,-104,-1904,-45,26,-11
14890,1328,-104,-1872,-48,26,-12
14895,1312,-104,-1880,-51,27,-13
14900,1304,-88,-1872,-50,28,-13
14905,1320,-96,-1872,-47,27,-14
14910,1320,-104,-1856,-47,26,-13
14915,1320,-88,-1896,-47,27,-14
14920,1336,-152,-1904,-45,27,-13
14925,1288,-64,-1872,-43,27,-12
14930,1320,-104,-1880,-43,27,-13
14935,1320,-80,-1896,-44,28,-13
14940,1304,-96,-1856,-44,31,-12
14945,1296,-88,-1880,-43,33,-11
14950,1296,-88,-1880,-41,34,-11
14955,1328,-112,-1872,-40,35,-13
14960,1288,-104,-1856,-41,35,-13
14965,1304,-112,-1824,-41,37,-14
14970,1312,-80,-1912,-43,37,-14
14975,1328,-104,-1864,-42,37,-14
14980,1312,-88,-1880,-40,36,-13
14985,1312,-104,-1856,-42,36,-14
14990,1312,-104,-1864,-40,37,-11
14995,1312,-88,-1872,-39,36,-12
