timestamp,accel_x,accel_y,accel_z,gyro_x,gyro_y,gyro_z
0,-64,-2056,64,-3,65,-2
5,-48,-2032,16,-3,65,-2
10,-40,-2048,24,-1,66,-3
15,-72,-2048,16,-2,67,-3
20,-56,-2056,40,-1,67,-4
25,-56,-2016,24,-1,68,-4
30,-56,-2064,24,0,69,-4
35,-64,-2040,40,2,70,-3
40,-64,-2040,48,3,71,-1
45,-56,-2048,56,4,71,1
50,-40,-2056,48,4,71,2
55,-64,-2048,40,4,71,3
60,-64,-2048,40,4,70,2
65,-80,-2048,32,5,69,2
70,-88,-2032,32,5,70,2
75,-72,-2064,32,4,68,2
80,-64,-2064,32,4,69,1
85,-72,-2040,40,4,71,1
90,-72,-2048,64,1,70,0
95,-72,-2048,24,1,70,0
100,-80,-2032,24,-2,71,-1
105,-96,-2064,56,-5,71,-2
110,-64,-2056,56,-5,72,-2
115,-72,-2040,48,-6,71,-1
120,-48,-2032,32,-5,71,-1
125,-64,-2040,40,-4,71,-1
130,-56,-2048,40,-3,71,0
135,-64,-2056,56,-1,71,0
140,-88,-2032,56,1,69,2
145,-48,-2056,48,1,68,0
150,-64,-2056,56,0,69,2
155,-48,-2040,16,1,69,2
160,-64,-2016,56,1,70,3
165,-80,-2040,48,1,71,2
170,-80,-2024,32,-1,71,-1
175,-48,-2032,40,-1,73,0
180,-88,-2000,40,-1,71,-1
185,-72,-2040,40,-2,71,-2
190,-104,-2024,56,-2,70,-2
195,-56,-2056,40,-4,70,-1
200,-80,-2048,80,-4,70,-2
205,-40,-2056,48,-5,70,-2
210,-64,-2032,56,-5,71,-2
215,-80,-2064,32,-6,71,-1
220,-64,-2040,72,-6,70,-1
225,-72,-2064,56,-6,71,0
230,-88,-2040,64,-7,69,2
235,-48,-2064,8,-9,69,1
240,-88,-2040,40,-10,69,1
245,-96,-2048,40,-9,68,0
250,-72,-2064,32,-8,69,2
255,-88,-2048,56,-6,69,2
260,-64,-2072,24,-6,69,1
265,-80,-2024,40,-5,67,3
270,-80,-2048,40,-4,67,1
275,-88,-2032,72,-3,67,3
280,-64,-2016,72,-1,65,2
285,-80,-2048,40,0,65,1
290,-72,-2072,56,1,64,-1
295,-72,-2056,64,2,65,0
300,-72,-2040,24,2,63,-2
305,-56,-2072,48,2,64,-2
310,-88,-2048,48,1,66,-2
315,-80,-2032,16,-1,66,-2
320,-56,-2048,16,-2,66,-2
325,-64,-2072,32,-5,66,-2
330,-64,-2048,72,-7,65,-2
335,-80,-2048,40,-8,65,-1
340,-88,-2048,16,-9,65,-2
345,-80,-2048,24,-10,65,-2
350,-72,-2080,72,-10,63,-1
355,-40,-2008,72,-10,64,-1
360,-24,-2064,24,-10,64,-1
365,-80,-2176,96,-10,63,-1
370,-168,-2088,-96,-10,64,0
375,-152,-2000,-16,-10,64,1
380,-48,-1976,24,-8,65,2
385,-104,-2080,40,-7,64,3
390,-56,-2048,88,-5,66,3
395,-48,-2040,80,-3,65,6
400,-80,-2072,40,-2,65,5
405,-64,-2056,56,-2,68,4
410,-40,-2064,40,-2,69,4
415,-48,-2056,24,-2,71,3
420,-80,-2048,48,-3,72,4
425,-96,-2168,104,-4,73,1
430,-64,-2128,-16,-5,73,2
435,-64,-2112,8,-6,74,1
440,-96,-2056,8,-7,74,-1
445,-64,-2072,24,-9,74,0
450,-88,-1992,88,-10,73,-2
455,-56,-2064,72,-11,74,-1
460,-64,-2096,56,-12,75,-1
465,-16,-2000,152,-14,75,0
470,-96,-2000,144,-14,77,0
475,-80,-2056,40,-16,78,1
480,-72,-2048,48,-18,79,1
485,-72,-2024,64,-19,80,1
490,-48,-2048,64,-18,81,2
495,-104,-2040,96,-17,80,2
500,-40,-1984,8,-15,80,2
505,-64,-2056,88,-13,78,1
510,-104,-2024,72,-12,77,2
515,-32,-2096,-16,-12,78,3
520,-40,-2064,32,-11,77,-1
525,-88,-2056,96,-5,77,-4
530,-80,-2128,96,0,79,-3
535,-120,-2016,40,3,78,-4
540,-96,-1992,72,7,78,-5
545,-128,-2040,24,13,80,-4
550,-72,-2072,72,17,82,-4
555,-88,-2064,40,18,83,-4
560,-80,-2056,40,19,85,0
565,-56,-2056,24,17,88,2
570,8,-1992,-8,18,89,3
575,-80,-1976,72,14,89,5
580,-104,-2048,-64,10,89,5
585,-8,-2016,200,8,91,6
590,-128,-1944,-8,6,90,10
595,-8,-2016,-48,3,89,9
600,-120,-2120,80,1,86,9
605,40,-1960,56,-4,86,9
610,-32,-2000,16,-12,84,9
615,-24,-2064,56,-17,83,7
620,-136,-2024,120,-17,83,6
625,-64,-2032,56,-16,83,5
630,-64,-2024,64,-16,84,4
635,-64,-2032,64,-19,86,4
640,-80,-2032,64,-19,87,4
645,-80,-2136,32,-19,86,3
650,-8,-2152,112,-20,85,3
655,-72,-2184,112,-19,84,1
660,56,-2056,160,-19,81,0
665,-96,-2088,64,-21,78,0
670,-96,-2024,24,-21,77,-1
675,-104,-2056,40,-19,75,1
680,-32,-2128,104,-20,72,3
685,-24,-2032,72,-19,70,3
690,-56,-2040,176,-16,71,6
695,-104,-2072,-8,-16,69,8
700,-40,-2016,120,-15,67,12
705,-72,-2056,56,-14,67,14
710,-72,-2016,64,-14,64,16
715,-80,-2000,48,-15,66,18
720,-80,-2032,40,-14,65,18
725,0,-1968,8,-14,63,19
730,-40,-2016,88,-15,63,19
735,-48,-2056,0,-15,61,19
740,-88,-1992,64,-17,61,18
745,-120,-2056,48,-16,60,18
750,-40,-2024,80,-18,58,16
755,-88,-2072,40,-20,57,14
760,-184,-1968,32,-21,54,16
765,-120,-1984,48,-21,55,15
770,-56,-2048,168,-22,52,14
775,-120,-2040,168,-24,48,13
780,-112,-2016,56,-25,48,10
785,-96,-2040,80,-27,45,9
790,-96,-2056,48,-29,43,5
795,-104,-2072,64,-30,43,3
800,-64,-2024,-8,-32,42,0
805,-96,-2072,64,-31,41,-1
810,-96,-2064,8,-30,40,-5
815,-120,-2048,-24,-29,37,-5
820,-104,-2080,24,-28,35,-6
825,-64,-2080,168,-26,34,-7
830,-104,-2048,48,-25,34,-8
835,-120,-2088,32,-25,32,-9
840,-112,-2040,48,-26,32,-9
845,-112,-2032,32,-29,31,-10
850,-136,-2032,-56,-32,30,-10
855,-96,-2064,32,-34,30,-8
860,-104,-2040,40,-35,29,-8
865,-96,-2048,48,-35,29,-7
870,-80,-2040,40,-36,29,-6
875,-160,-2112,96,-35,30,-5
880,-104,-2032,24,-33,32,-7
885,-88,-2056,56,-31,30,-6
890,-88,-2024,40,-29,31,-7
895,-104,-2056,32,-29,31,-8
900,-104,-2048,48,-27,31,-9
905,-88,-2056,8,-27,31,-10
910,-88,-2064,8,-27,30,-11
915,-104,-2048,80,-28,30,-11
920,-144,-2008,72,-26,28,-13
925,-96,-2056,24,-24,28,-13
930,-88,-2040,24,-24,29,-12
935,-104,-2040,56,-24,29,-12
940,-88,-2040,40,-25,29,-13
945,-56,-2064,160,-25,29,-13
950,-72,-2064,16,-24,29,-13
955,-96,-2040,32,-23,29,-13
960,-88,-2016,40,-24,29,-13
965,-96,-2016,32,-25,27,-14
970,-64,-2032,40,-25,23,-15
975,-88,-2000,40,-25,24,-17
980,-64,-2016,32,-25,22,-20
985,-64,-2008,72,-23,23,-19
990,-80,-2008,48,-19,25,-19
995,-72,-2024,80,-16,30,-18
1000,-56,-2104,-40,-13,33,-16
1005,-40,-2016,112,-12,35,-15
1010,-56,-2016,48,-13,41,-13
1015,-64,-2000,72,-14,46,-8
1020,-56,-2016,64,-14,51,-4
1025,-40,-2032,72,-13,53,1
1030,-48,-2032,56,-15,55,6
1035,-80,-2048,88,-13,56,11
1040,-72,-2016,48,-12,55,16
1045,-72,-2064,80,-11,52,21
1050,-72,-2072,128,-9,48,23
1055,-72,-2056,80,-8,44,23
1060,-88,-2024,48,-11,40,25
1065,-80,-2048,80,-14,37,28
1070,-72,-2056,80,-15,39,28
1075,-56,-2064,104,-13,39,30
1080,-72,-2072,96,-11,40,31
1085,-56,-2040,64,-8,44,28
1090,-48,-2056,64,-6,47,27
1095,-56,-2040,56,-4,50,24
1100,-32,-2032,64,-7,54,21
1105,-32,-2032,8,-12,58,17
1110,-40,-2016,-8,-22,63,13
1115,-32,-2024,24,-34,69,10
1120,-48,-2008,-32,-48,75,7
1125,-32,-1984,-40,-58,83,5
1130,-8,-2016,-32,-67,90,6
1135,-24,-2016,-16,-73,98,7
1140,-64,-2024,-16,-76,103,8
1145,-48,-2024,8,-79,108,6
1150,-72,-2048,24,-79,111,7
1155,-64,-2048,-8,-78,115,9
1160,-72,-2064,8,-75,116,7
1165,-64,-2072,0,-72,118,8
1170,-80,-2080,-24,-69,116,8
1175,-80,-2064,-24,-66,114,8
1180,-88,-2064,-8,-65,114,6
1185,-72,-2064,-32,-63,111,7
1190,-96,-2088,-16,-62,107,9
1195,-88,-2080,-24,-58,106,9
1200,-96,-2064,-8,-55,101,8
1205,-96,-2056,8,-52,98,10
1210,-80,-2096,0,-48,95,11
1215,-96,-2072,-16,-44,93,12
1220,-104,-2056,-8,-39,90,13
1225,-104,-2064,0,-35,88,13
1230,-104,-2048,-8,-32,86,13
1235,-96,-2032,16,-29,83,12
1240,-80,-2056,32,-26,84,12
1245,-88,-2032,32,-22,83,9
1250,-96,-2056,16,-19,84,8
1255,-80,-2064,24,-16,85,7
1260,-80,-2040,40,-14,87,7
1265,-80,-2032,56,-13,88,5
1270,-72,-2048,24,-13,90,4
1275,-72,-2032,56,-11,92,4
1280,-96,-2048,16,-9,92,4
1285,-80,-2072,48,-5,92,5
1290,-80,-2064,32,-3,92,6
1295,-96,-2056,32,-2,92,10
1300,-72,-2048,32,-2,93,10
1305,-112,-2040,24,-1,94,14
1310,-80,-2056,40,-2,94,17
1315,-80,-2048,24,-3,94,20
1320,-64,-2056,40,-3,93,25
1325,-160,-2104,8,-3,92,29
1330,-88,-2072,16,-2,91,33
1335,-88,-2056,24,-2,91,39
1340,-80,-2072,32,1,90,42
1345,-96,-2064,32,2,89,44
1350,-96,-2032,48,5,86,49
1355,-104,-2048,40,10,84,51
1360,-120,-2032,32,13,81,53
1365,-96,-2016,64,18,78,54
1370,-96,-2016,72,20,78,56
1375,-104,-2016,64,22,74,58
1380,-104,-2040,64,20,72,57
1385,-96,-2008,64,17,70,58
1390,-96,-2016,48,13,68,57
1395,-112,-2048,72,10,66,57
1400,-80,-2048,64,6,64,55
1405,-88,-2040,72,5,64,53
1410,-88,-2056,80,4,61,50
1415,-72,-2048,88,3,60,45
1420,-64,-2024,64,4,58,44
1425,-80,-2040,56,5,57,42
1430,-88,-2048,40,4,58,40
1435,-64,-2040,120,2,59,38
1440,-64,-2040,72,-2,59,38
1445,-96,-2048,24,-5,60,37
1450,-128,-2064,32,-12,59,37
1455,-112,-2032,48,-16,59,36
1460,-104,-2032,48,-20,59,35
1465,-120,-2032,40,-26,58,34
1470,-136,-2032,40,-29,57,35
1475,-136,-2032,56,-33,56,34
1480,-120,-2048,8,-35,57,33
1485,-152,-2048,48,-41,56,30
1490,-136,-2024,16,-44,55,28
1495,-128,-2032,8,-48,56,30
1500,-144,-2040,24,-48,57,32
1505,-144,-2040,56,-43,57,32
1510,-128,-2040,32,-37,57,32
1515,-128,-2048,32,-32,58,33
1520,-136,-2048,24,-32,55,32
1525,-136,-2040,16,-33,53,29
1530,-152,-2016,24,-33,53,26
1535,-176,-2024,16,-35,51,24
1540,-144,-2048,8,-37,51,22
1545,-120,-2048,24,-41,52,19
1550,-160,-2032,16,-43,51,16
1555,-144,-2040,32,-45,51,15
1560,-144,-2048,16,-46,52,13
1565,-112,-2072,0,-43,51,14
1570,-136,-2072,16,-40,53,12
1575,-144,-2064,16,-36,55,10
1580,-136,-2064,24,-32,57,9
1585,-136,-2040,32,-29,59,9
1590,-144,-2016,16,-27,60,8
1595,-120,-2048,8,-27,63,7
1600,-128,-2040,0,-27,65,6
1605,-96,-2040,16,-27,68,6
1610,-104,-2024,32,-31,66,5
1615,-112,-2040,-16,-31,66,6
1620,-96,-2032,24,-31,65,6
1625,-88,-2056,-8,-31,66,7
1630,-136,-2040,48,-31,64,5
1635,-120,-2048,24,-31,64,7
1640,-128,-2064,40,-29,62,5
1645,-136,-2072,80,-26,61,7
1650,-104,-2032,128,-24,61,5
1655,-104,-2032,40,-24,62,4
1660,-144,-2024,56,-22,60,5
1665,-104,-2032,24,-23,60,6
1670,-128,-2032,56,-24,60,4
1675,-120,-2016,40,-26,60,3
1680,-120,-2016,-8,-29,60,1
1685,-104,-2040,0,-31,60,3
1690,-112,-2024,40,-35,61,2
1695,-104,-2032,40,-38,62,0
1700,-104,-2056,32,-41,62,0
1705,-112,-2064,24,-43,62,0
1710,-96,-2048,16,-43,63,0
1715,-136,-2048,8,-42,63,0
1720,-112,-2056,24,-41,63,0
1725,-128,-2056,40,-39,66,-2
1730,-96,-2040,40,-38,67,-3
1735,-120,-2064,16,-36,67,-3
1740,-104,-2064,32,-36,67,-4
1745,-112,-2048,40,-34,68,-2
1750,-96,-2064,48,-33,69,-3
1755,-120,-2048,24,-32,69,-4
1760,-136,-2032,16,-33,69,-5
1765,-112,-2056,8,-35,69,-7
1770,-104,-2072,40,-34,69,-6
1775,-120,-2016,24,-37,70,-7
1780,-104,-2056,8,-37,71,-8
1785,-96,-2072,32,-38,73,-8
1790,-128,-2032,40,-37,73,-7
1795,-128,-2048,0,-38,74,-7
1800,-112,-2056,24,-37,76,-9
1805,-120,-2040,-8,-37,76,-9
1810,-120,-2056,48,-35,75,-11
1815,-120,-2056,24,-36,75,-10
1820,-120,-2064,8,-34,75,-11
1825,-112,-2056,8,-32,76,-12
1830,-128,-2056,-8,-30,75,-12
1835,-120,-2056,-8,-28,74,-12
1840,-128,-2056,0,-25,76,-12
1845,-120,-2064,0,-21,75,-12
1850,-120,-2048,8,-17,75,-12
1855,-112,-2064,-16,-14,75,-10
1860,-104,-2072,24,-11,77,-11
1865,-144,-2048,32,-10,75,-11
1870,-112,-2064,0,-8,75,-11
1875,-120,-2048,-16,-4,75,-12
1880,-136,-2064,8,-2,75,-12
1885,-136,-2040,16,0,73,-13
1890,-112,-2032,16,3,72,-14
1895,-128,-2048,32,4,70,-15
1900,-120,-2064,8,4,69,-15
1905,-120,-2040,8,6,67,-16
1910,-112,-2032,24,7,65,-17
1915,-112,-2056,8,8,66,-17
1920,-104,-2056,16,9,62,-16
1925,-144,-2040,0,10,61,-15
1930,-96,-2056,8,12,59,-14
1935,-120,-2040,8,13,58,-13
1940,-104,-2056,24,15,56,-12
1945,-112,-2064,-8,18,57,-10
1950,-112,-2048,16,21,57,-10
1955,-88,-2072,-8,24,57,-9
1960,-120,-2048,24,28,58,-7
1965,-80,-2072,8,34,59,-7
1970,-96,-2032,0,41,59,-5
1975,-96,-2056,16,48,59,-6
1980,-128,-2056,16,52,59,-6
1985,-104,-2048,-16,55,60,-5
1990,-112,-2056,32,56,61,-8
1995,-96,-2048,48,57,61,-7
2000,-128,-2056,16,52,59,-5
2005,-136,-2056,40,48,60,-5
2010,-112,-2072,40,45,60,-5
2015,-104,-2056,16,42,58,-6
2020,-112,-2064,16,39,58,-5
2025,-104,-2064,32,39,57,-4
2030,-136,-2040,16,41,56,-3
2035,-112,-2024,16,42,55,-3
2040,-104,-2032,48,40,53,-4
2045,-104,-2040,32,39,54,-4
2050,-96,-2024,32,36,52,-5
2055,-96,-2032,56,33,52,-5
2060,-136,-2024,32,29,53,-5
2065,-112,-2024,16,25,54,-5
2070,-96,-2040,24,21,55,-4
2075,-120,-2024,48,17,54,-5
2080,-104,-2056,88,12,55,-5
2085,-96,-2024,40,7,56,-4
2090,-128,-2024,32,2,57,-4
2095,-112,-2032,56,-2,59,-3
2100,-136,-2032,32,-2,60,-3
2105,-128,-2032,64,-5,58,-3
2110,-104,-2048,32,-6,59,-2
2115,-112,-2032,64,-5,58,-2
2120,-104,-2056,40,-5,57,-2
2125,-112,-2056,32,-4,58,-3
2130,-128,-2040,72,-3,56,-4
2135,-120,-2032,48,-2,57,-5
2140,-104,-2040,40,-2,57,-6
2145,-112,-2056,48,-2,59,-6
2150,-136,-2048,40,-1,61,-6
2155,-104,-2032,32,-3,63,-6
2160,-120,-2040,16,-3,63,-6
2165,-120,-2056,40,-1,64,-5
2170,-104,-2040,32,-1,64,-4
2175,-104,-2048,56,1,64,-3
2180,-120,-2032,48,4,63,-2
2185,-112,-2056,16,6,61,-3
2190,-104,-2040,40,9,60,-2
2195,-88,-2032,64,11,62,-1
2200,-96,-2024,8,11,60,0
2205,-96,-2048,48,12,59,-1
2210,-88,-2032,16,12,59,-1
2215,-104,-2016,32,11,61,-1
2220,-104,-2032,64,9,61,-2
2225,-96,-2032,56,6,62,-4
2230,-96,-2024,48,3,62,-6
2235,-120,-2048,56,0,65,-6
2240,-120,-2024,72,-2,66,-9
2245,-112,-2048,40,-3,68,-9
2250,-96,-2048,32,-5,70,-9
2255,-104,-2064,48,-7,71,-9
2260,-104,-2048,48,-7,73,-10
2265,-120,-2064,40,-9,71,-10
2270,-112,-2032,24,-10,72,-9
2275,-72,-2056,48,-9,72,-8
2280,-120,-2048,56,-9,72,-9
2285,-120,-2024,40,-9,71,-7
2290,-120,-2040,40,-10,71,-7
2295,-72,-2048,24,-11,71,-7
2300,-104,-2064,64,-13,71,-6
2305,-112,-2048,40,-13,72,-5
2310,-112,-2048,56,-14,73,-5
2315,-120,-2032,-8,-12,72,-5
2320,-120,-2040,48,-12,72,-4
2325,-120,-2040,40,-13,70,-4
2330,-88,-2040,24,-13,70,-4
2335,-112,-2056,32,-12,71,-4
2340,-96,-2040,72,-13,72,-4
2345,-104,-2048,56,-12,74,-2
2350,-120,-2064,72,-12,74,-4
2355,-88,-2064,48,-10,75,-5
2360,-104,-2064,32,-9,74,-4
2365,-112,-2048,16,-11,74,-3
2370,-88,-2048,48,-12,75,-4
2375,-96,-2040,24,-11,75,-3
2380,-112,-2048,64,-12,76,-3
2385,-112,-2032,56,-13,76,-6
2390,-112,-2032,32,-13,76,-6
2395,-112,-2040,32,-14,74,-5
2400,-96,-2048,48,-15,75,-5
2405,-112,-2048,32,-15,74,-3
2410,-152,-2040,40,-16,75,-3
2415,-120,-2040,56,-16,74,-2
2420,-120,-2048,16,-17,74,-1
2425,-112,-2064,40,-16,73,-1
2430,-120,-2032,48,-16,73,-3
2435,-128,-2024,32,-16,73,-3
2440,-112,-2040,24,-15,70,-2
2445,-128,-2024,24,-15,70,-1
2450,-104,-2024,48,-16,71,-4
2455,-112,-2048,56,-17,71,-3
2460,-120,-2024,24,-18,73,-4
2465,-112,-2048,48,-20,72,-3
2470,-112,-2032,24,-21,71,-4
2475,-128,-2064,32,-22,71,-4
2480,-96,-2056,16,-23,71,-4
2485,-112,-2024,56,-22,72,-4
2490,-128,-2032,32,-23,72,-5
2495,-104,-2040,48,-21,73,-6
2500,-128,-2032,24,-20,72,-7
2505,-128,-2048,32,-19,72,-5
2510,-120,-2048,56,-19,72,-6
2515,-136,-2032,-16,-20,72,-6
2520,-96,-2048,32,-19,71,-6
2525,-104,-2056,24,-20,71,-5
2530,-112,-2056,56,-18,71,-4
2535,-120,-2056,24,-16,71,-3
2540,-120,-2064,16,-14,70,-2
2545,-112,-2048,40,-14,71,-4
2550,-152,-2056,40,-15,72,-4
2555,-96,-2048,40,-14,71,-4
2560,-120,-2056,24,-15,71,-3
2565,-128,-2024,40,-15,71,-4
2570,-120,-2000,48,-18,71,-4
2575,-104,-2056,32,-18,71,-4
2580,-128,-2024,48,-19,70,-4
2585,-112,-2056,48,-18,71,-4
2590,-104,-2064,48,-18,70,-3
2595,-104,-2040,40,-20,69,-3
2600,-120,-2048,48,-19,68,-3
2605,-112,-2032,56,-20,69,-3
2610,-112,-2048,16,-21,70,-2
2615,-104,-2056,8,-21,70,-1
2620,-104,-2040,8,-21,69,-1
2625,-112,-2032,24,-20,68,0
2630,-136,-2032,-48,-19,68,-3
2635,-112,-2032,24,-19,67,-4
2640,-112,-2040,72,-23,68,-5
2645,-112,-2024,48,-24,67,-4
2650,-128,-2016,24,-28,70,-5
2655,-120,-2040,24,-32,71,-5
2660,-104,-2040,8,-34,71,-5
2665,-104,-2040,48,-35,71,-7
2670,-120,-2056,24,-35,70,-6
2675,-112,-2048,24,-34,69,-8
2680,-112,-2056,56,-33,68,-7
2685,-120,-2048,48,-32,68,-7
2690,-104,-2072,40,-29,68,-7
2695,-120,-2072,24,-27,68,-6
2700,-96,-2064,24,-25,68,-4
2705,-120,-2064,24,-23,68,-3
2710,-112,-2056,8,-24,67,-2
2715,-112,-2064,16,-25,67,-5
2720,-96,-2048,32,-28,67,-3
2725,-88,-2032,16,-30,68,-2
2730,-96,-2032,8,-34,68,-5
2735,-64,-2048,8,-39,69,-5
2740,-96,-2040,0,-42,68,-6
2745,-80,-2032,24,-43,68,-7
2750,-88,-2032,-24,-44,69,-6
2755,-112,-2032,16,-45,72,-7
2760,-104,-2032,40,-45,72,-8
2765,-120,-2024,24,-45,76,-9
2770,-104,-2040,32,-45,77,-8
2775,-112,-2040,16,-44,79,-7
2780,-88,-2064,24,-45,80,-5
2785,-120,-2048,24,-44,79,-5
2790,-112,-2080,40,-43,80,-4
2795,-120,-2040,32,-39,78,-4
2800,-120,-2072,80,-37,75,-3
2805,-120,-2048,56,-35,74,-5
2810,-96,-2064,40,-31,73,-2
2815,-112,-2040,48,-29,71,-5
2820,-128,-2032,48,-28,70,-3
2825,-96,-2064,32,-27,68,-3
2830,-136,-2032,48,-25,68,-3
2835,-88,-2056,40,-26,68,-4
2840,-120,-2032,32,-26,66,-4
2845,-136,-2040,24,-25,67,-3
2850,-96,-2008,8,-24,68,-3
2855,-104,-2032,24,-24,69,-3
2860,-104,-2024,0,-24,70,-3
2865,-104,-2032,24,-23,70,-4
2870,-104,-2040,16,-24,70,-4
2875,-96,-2032,32,-26,71,-5
2880,-120,-2032,16,-26,70,-6
2885,-104,-2040,0,-27,73,-5
2890,-104,-2040,32,-29,72,-7
2895,-88,-2040,48,-30,74,-5
2900,-120,-2040,24,-32,75,-4
2905,-120,-2032,32,-32,76,-3
2910,-112,-2048,32,-33,76,-3
2915,-88,-2032,40,-32,77,-3
2920,-120,-2056,24,-35,77,-2
2925,-112,-2048,24,-35,77,-4
2930,-120,-2032,0,-34,75,-4
2935,-120,-2016,24,-35,75,-4
2940,-96,-2064,16,-36,73,-4
2945,-88,-2080,48,-36,74,-5
2950,-80,-2064,48,-36,74,-3
2955,-112,-2032,24,-35,72,-3
2960,-104,-2048,32,-35,73,-1
2965,-104,-2056,16,-35,71,-2
2970,-104,-2056,16,-35,70,-2
2975,-96,-2032,16,-38,69,-4
2980,-112,-2056,16,-39,69,-3
2985,-104,-2056,16,-40,69,-5
2990,-72,-2056,8,-41,69,-4
2995,-96,-2032,0,-41,70,-4
3000,-112,-2048,16,-41,71,-6
3005,-104,-2024,-24,-43,72,-7
3010,-96,-2064,-16,-43,73,-6
3015,-112,-2056,0,-44,75,-7
3020,-120,-2016,16,-43,75,-7
3025,-112,-2040,24,-44,74,-6
3030,-104,-2048,16,-46,76,-5
3035,-120,-2048,40,-46,78,-5
3040,-104,-2024,-8,-46,76,-5
3045,-120,-2040,48,-47,74,-6
3050,-104,-2024,24,-49,75,-5
3055,-112,-2048,8,-50,74,-5
3060,-104,-2056,8,-51,73,-4
3065,-88,-2064,8,-51,72,-6
3070,-112,-2048,-8,-51,72,-6
3075,-112,-2040,0,-53,72,-5
3080,-104,-2040,0,-52,71,-7
3085,-112,-2048,32,-51,71,-5
3090,-120,-2024,-40,-51,72,-6
3095,-120,-2040,-8,-51,71,-6
3100,-96,-2040,16,-50,70,-6
3105,-120,-2032,16,-50,72,-7
3110,-128,-2040,48,-48,72,-8
3115,-112,-2056,-24,-47,73,-6
3120,-104,-2040,-8,-45,73,-6
3125,-104,-2024,0,-42,74,-6
3130,-120,-2056,24,-42,75,-7
3135,-112,-2016,-24,-41,76,-7
3140,-112,-2048,-32,-41,76,-7
3145,-120,-2024,-8,-41,75,-7
3150,-104,-2056,-16,-41,75,-8
3155,-120,-2040,0,-42,74,-9
3160,-136,-2032,-24,-44,73,-7
3165,-96,-2024,8,-43,71,-8
3170,-88,-2000,-48,-45,70,-8
3175,-112,-2040,-8,-45,69,-9
3180,-128,-2032,24,-45,67,-10
3185,-144,-2032,24,-46,67,-10
3190,-128,-2032,-8,-48,65,-10
3195,-104,-2040,-8,-51,64,-10
3200,-96,-2056,0,-53,64,-10
3205,-96,-2016,-16,-53,65,-10
3210,-136,-2056,0,-56,65,-10
3215,-112,-2048,8,-56,66,-12
3220,-128,-2040,-16,-56,67,-11
3225,-120,-2056,24,-56,68,-10
3230,-144,-2040,16,-56,69,-11
3235,-96,-2080,0,-55,68,-10
3240,-112,-2056,0,-56,69,-11
3245,-88,-2040,-16,-56,68,-11
3250,-96,-2040,24,-56,67,-10
3255,-96,-2040,8,-56,66,-11
3260,-88,-2040,-16,-56,67,-10
3265,-104,-2024,-8,-57,69,-10
3270,-104,-2024,-16,-58,70,-9
3275,-120,-2048,0,-59,69,-10
3280,-96,-2024,-48,-60,69,-10
3285,-120,-2048,0,-63,70,-10
3290,-112,-2024,-24,-63,69,-10
3295,-88,-2024,0,-64,68,-11
3300,-72,-2064,24,-65,68,-11
3305,-96,-2040,-16,-66,68,-11
3310,-112,-2024,8,-67,69,-11
3315,-96,-2072,32,-69,67,-11
3320,-96,-2064,-24,-71,66,-11
3325,-88,-2064,8,-73,66,-11
3330,-88,-2064,8,-76,67,-10
3335,-96,-2048,-8,-76,67,-9
3340,-112,-2048,-8,-76,67,-10
3345,-96,-2056,-24,-74,67,-9
3350,-96,-2048,-32,-72,67,-8
3355,-88,-2040,-16,-72,68,-11
3360,-112,-2024,-24,-72,70,-12
3365,-96,-2048,-24,-73,71,-12
3370,-72,-2032,0,-75,73,-12
3375,-88,-2040,-24,-77,75,-12
3380,-120,-2048,8,-80,75,-13
3385,-96,-2040,-16,-82,76,-12
3390,-120,-2112,-16,-82,76,-13
3395,-128,-2048,-72,-81,75,-13
3400,-104,-2048,-16,-80,76,-11
3405,-88,-2064,8,-79,76,-12
3410,-112,-2072,-16,-77,73,-12
3415,-96,-2056,-40,-76,72,-11
3420,-112,-2072,-48,-77,71,-9
3425,-96,-2080,0,-77,74,-10
3430,-96,-2072,-16,-77,74,-8
3435,-104,-2040,-48,-76,73,-8
3440,-88,-2080,-48,-75,75,-8
3445,-104,-2072,-40,-74,76,-8
3450,-88,-2024,-48,-73,77,-10
3455,-104,-2032,-32,-72,77,-12
3460,-104,-2048,-48,-71,76,-12
3465,-96,-2040,-40,-70,75,-12
3470,-104,-2016,-56,-70,74,-14
3475,-112,-2024,-40,-71,76,-15
3480,-104,-2032,-16,-71,77,-15
3485,-104,-2032,-32,-72,78,-15
3490,-96,-2040,-24,-74,77,-14
3495,-96,-2032,-16,-75,78,-14
3500,-128,-2032,-48,-76,80,-14
3505,-96,-2016,-56,-76,82,-14
3510,-112,-2024,-40,-75,83,-12
3515,-112,-2056,-16,-74,82,-12
3520,-88,-2064,-40,-74,83,-13
3525,-104,-2032,-48,-72,85,-13
3530,-112,-2048,-40,-71,86,-13
3535,-96,-2016,-8,-69,87,-11
3540,-88,-2048,-32,-70,85,-13
3545,-96,-2032,-24,-70,86,-15
3550,-96,-2064,24,-69,85,-15
3555,-112,-2040,-8,-70,84,-15
3560,-88,-2048,-40,-72,85,-16
3565,-96,-2040,-56,-74,86,-15
3570,-104,-2040,-56,-77,88,-15
3575,-96,-2048,-24,-79,88,-15
3580,-128,-2056,-40,-81,89,-15
3585,-96,-2040,-32,-84,90,-13
3590,-128,-2048,-48,-86,93,-12
3595,-104,-2016,-24,-87,91,-10
3600,-88,-2048,-64,-86,91,-11
3605,-112,-2032,-72,-87,91,-12
3610,-104,-2048,-48,-86,89,-10
3615,-120,-2056,-56,-87,87,-10
3620,-96,-2024,-72,-89,86,-12
3625,-96,-2024,-56,-93,85,-10
3630,-80,-2032,-64,-95,84,-11
3635,-88,-2040,-56,-99,84,-13
3640,-96,-2032,-80,-103,80,-13
3645,-80,-2056,-64,-107,80,-14
3650,-104,-2056,-72,-109,80,-16
3655,-112,-2040,-72,-112,78,-18
3660,-96,-2040,-56,-114,77,-20
3665,-72,-2048,-72,-113,76,-19
3670,-80,-2048,-80,-114,75,-19
3675,-88,-2024,-88,-114,77,-19
3680,-96,-2048,-136,-113,75,-19
3685,-88,-2056,-104,-113,75,-18
3690,-72,-2040,-64,-112,77,-20
3695,-72,-2064,-104,-113,77,-20
3700,-112,-2032,-88,-117,77,-22
3705,-120,-2024,-64,-120,76,-22
3710,-88,-2040,-104,-125,76,-23
3715,-96,-2040,-64,-129,76,-23
3720,-96,-2040,-104,-132,75,-24
3725,-88,-2064,-96,-134,76,-23
3730,-104,-2048,-88,-139,76,-25
3735,-120,-2040,-48,-141,76,-25
3740,-120,-2048,-88,-143,76,-24
3745,-96,-2048,-128,-147,75,-26
3750,-112,-2064,-104,-148,73,-25
3755,-80,-2048,-80,-150,72,-23
3760,-112,-2048,-72,-152,71,-24
3765,-112,-2032,-96,-154,71,-24
3770,-136,-2032,-104,-158,71,-25
3775,-120,-2040,-96,-161,69,-23
3780,-96,-2048,-112,-162,68,-23
3785,-96,-2032,-96,-164,68,-22
3790,-88,-2048,-96,-167,68,-25
3795,-96,-2040,-128,-170,69,-23
3800,-120,-2032,-112,-172,70,-24
3805,-96,-2048,-120,-174,71,-23
3810,-104,-2032,-112,-176,71,-23
3815,-88,-2048,-128,-178,74,-24
3820,-88,-2040,-144,-181,75,-23
3825,-32,-2016,-144,-182,77,-24
3830,-104,-2040,-120,-182,79,-23
3835,-88,-2040,-128,-180,80,-23
3840,-72,-2056,-120,-178,82,-21
3845,-104,-2040,-112,-173,84,-20
3850,-112,-2056,-120,-167,84,-18
3855,-72,-2048,-120,-163,83,-15
3860,-80,-2056,-144,-159,85,-16
3865,-80,-2048,-144,-158,85,-17
3870,-64,-2024,-136,-158,85,-15
3875,-80,-2048,-136,-160,84,-16
3880,-72,-2032,-120,-161,83,-16
3885,-72,-2024,-152,-164,82,-16
3890,-64,-2024,-120,-169,80,-19
3895,-112,-2024,-176,-173,78,-18
3900,-88,-2032,-136,-178,75,-19
3905,-80,-2048,-112,-183,74,-20
3910,-64,-2048,-160,-190,74,-22
3915,-56,-2016,-168,-197,75,-25
3920,-56,-2032,-152,-203,76,-26
3925,-64,-2032,-152,-208,76,-26
3930,-88,-2032,-152,-211,78,-26
3935,-104,-2088,-184,-212,78,-27
3940,-104,-2032,-168,-213,78,-28
3945,-96,-2024,-176,-214,79,-26
3950,-88,-2048,-152,-211,76,-27
3955,-72,-2040,-152,-208,73,-25
3960,-56,-2032,-136,-206,72,-28
3965,-72,-2056,-184,-208,73,-28
3970,-32,-2048,-160,-210,77,-30
3975,-80,-2008,-176,-213,79,-30
3980,-88,-2040,-152,-215,82,-29
3985,-88,-2032,-168,-216,83,-29
3990,-104,-2040,-184,-219,82,-30
3995,-80,-2040,-176,-225,81,-29
4000,-96,-2016,-160,-228,81,-28
4005,-80,-2008,-208,-233,81,-28
4010,-72,-2032,-160,-239,80,-30
4015,-72,-2024,-208,-245,81,-29
4020,-64,-2032,-200,-251,84,-30
4025,-112,-2048,-232,-256,86,-31
4030,-80,-2048,-216,-262,84,-33
4035,-80,-2040,-168,-263,86,-37
4040,-72,-2040,-232,-263,86,-38
4045,-112,-2024,-248,-265,85,-38
4050,-104,-2032,-184,-262,84,-36
4055,-80,-2032,-240,-258,78,-38
4060,-40,-2048,-232,-256,75,-40
4065,-56,-2072,-248,-257,74,-44
4070,-56,-2032,-256,-263,75,-46
4075,-64,-2024,-216,-267,76,-48
4080,-88,-2048,-256,-271,74,-49
4085,-80,-2008,-280,-273,76,-50
4090,-72,-2024,-240,-275,77,-53
4095,-72,-2008,-248,-276,77,-54
4100,-64,-2024,-248,-277,78,-54
4105,-96,-2008,-232,-281,79,-53
4110,-64,-2000,-224,-285,80,-54
4115,-40,-2008,-240,-291,83,-52
4120,-88,-2000,-272,-296,84,-53
4125,-88,-2008,-272,-300,83,-55
4130,-96,-1992,-240,-303,83,-53
4135,-72,-2032,-240,-307,83,-52
4140,-48,-2040,-272,-312,83,-52
4145,-56,-2032,-320,-319,85,-55
4150,-64,-2008,-304,-327,85,-56
4155,-64,-2024,-272,-334,85,-58
4160,-56,-2040,-312,-343,82,-61
4165,-56,-2040,-312,-348,85,-62
4170,-64,-2024,-320,-354,86,-66
4175,-48,-2040,-328,-359,87,-65
4180,-64,-2040,-312,-362,87,-66
4185,-40,-2024,-336,-367,89,-68
4190,-48,-2016,-352,-372,91,-70
4195,-48,-1992,-352,-376,91,-71
4200,-32,-2024,-344,-380,88,-71
4205,-40,-2000,-352,-381,86,-70
4210,-88,-2008,-320,-376,90,-68
4215,-88,-2000,-328,-371,89,-64
4220,-64,-1992,-336,-371,88,-67
4225,-24,-2008,-344,-371,86,-65
4230,-40,-2016,-344,-374,87,-65
4235,-24,-2008,-368,-379,86,-64
4240,-24,-2008,-384,-384,88,-64
4245,-24,-2016,-368,-389,91,-65
4250,-32,-2000,-408,-393,94,-64
4255,-48,-2000,-376,-398,98,-65
4260,-80,-1984,-304,-404,101,-66
4265,-16,-2000,-376,-409,99,-67
4270,-56,-2000,-400,-413,99,-66
4275,-80,-2008,-384,-420,99,-63
4280,-32,-2032,-368,-423,98,-60
4285,-24,-2008,-408,-423,95,-61
4290,-16,-2000,-408,-429,94,-61
4295,0,-2024,-456,-438,92,-61
4300,0,-2032,-416,-448,91,-62
4305,-16,-1992,-408,-457,93,-63
4310,-16,-1992,-464,-466,97,-66
4315,-40,-2008,-416,-473,95,-66
4320,-40,-2024,-488,-474,97,-65
4325,0,-2016,-480,-474,97,-68
4330,-8,-2008,-512,-475,99,-70
4335,0,-1984,-496,-480,99,-72
4340,8,-1976,-488,-489,103,-75
4345,0,-1976,-480,-497,105,-77
4350,-8,-1976,-544,-504,107,-80
4355,-64,-1952,-488,-511,110,-77
4360,-16,-1960,-504,-517,110,-73
4365,0,-1968,-512,-522,110,-74
4370,8,-1968,-432,-532,114,-81
4375,0,-1984,-512,-545,117,-83
4380,0,-1984,-504,-560,122,-85
4385,-24,-1960,-512,-573,125,-86
4390,8,-1992,-536,-578,129,-85
4395,-32,-2016,-528,-584,135,-88
4400,-40,-1992,-552,-588,140,-88
4405,-16,-2000,-560,-592,143,-89
4410,0,-2000,-584,-594,145,-92
4415,0,-2000,-560,-599,142,-93
4420,0,-1968,-576,-602,143,-97
4425,-8,-1952,-600,-604,146,-95
4430,-40,-1952,-568,-607,147,-93
4435,-40,-1976,-576,-608,144,-88
4440,0,-1968,-600,-597,140,-89
4445,0,-1976,-592,-591,136,-96
4450,0,-1976,-608,-586,138,-103
4455,0,-1968,-608,-592,138,-109
4460,-8,-1960,-608,-597,132,-110
4465,0,-1952,-592,-600,131,-109
4470,-8,-1976,-592,-599,130,-109
4475,-32,-1976,-616,-593,130,-115
4480,-24,-1952,-568,-591,131,-121
4485,0,-1960,-656,-597,131,-128
4490,-40,-1936,-640,-607,131,-130
4495,-48,-1904,-648,-610,134,-125
4500,0,-1960,-664,-614,133,-122
4505,0,-1976,-648,-620,134,-126
4510,32,-1976,-664,-634,139,-117
4515,8,-1944,-688,-649,140,-124
4520,0,-1952,-720,-661,137,-131
4525,8,-1928,-688,-668,133,-131
4530,0,-1928,-688,-675,130,-132
4535,16,-1928,-712,-679,125,-133
4540,8,-1944,-696,-686,127,-135
4545,-16,-1912,-736,-708,134,-120
4550,-56,-1912,-696,-715,134,-116
4555,0,-1928,-728,-697,127,-123
4560,0,-1936,-744,-679,118,-130
4565,24,-1944,-760,-674,114,-135
4570,16,-1912,-784,-678,111,-138
4575,40,-1920,-816,-684,105,-136
4580,0,-1928,-752,-706,113,-120
4585,40,-1920,-792,-704,110,-135
4590,16,-1896,-824,-693,108,-144
4595,-56,-1848,-816,-692,112,-147
4600,0,-1888,-800,-681,109,-144
4605,24,-1904,-832,-667,107,-154
4610,40,-1896,-824,-676,112,-154
4615,8,-1864,-808,-708,122,-143
4620,40,-1880,-816,-716,123,-163
4625,32,-1896,-864,-722,124,-178
4630,0,-1856,-848,-736,132,-180
4635,16,-1888,-856,-748,137,-177
4640,72,-1912,-888,-768,138,-187
4645,72,-1864,-880,-809,152,-165
4650,56,-1864,-928,-838,156,-167
4655,40,-1864,-904,-848,158,-176
4660,40,-1872,-888,-841,152,-191
4665,0,-1848,-896,-839,146,-189
4670,48,-1856,-880,-830,140,-177
4675,80,-1864,-912,-819,135,-182
4680,104,-1904,-928,-825,134,-181
4685,56,-1840,-880,-837,138,-154
4690,16,-1856,-896,-819,132,-170
4695,40,-1944,-928,-803,128,-160
4700,64,-1816,-944,-797,130,-154
4705,56,-1856,-984,-782,131,-172
4710,96,-1840,-1032,-780,124,-182
4715,16,-1784,-1008,-788,109,-184
4720,8,-1744,-1008,-794,100,-176
4725,136,-1776,-976,-784,88,-174
4730,72,-1808,-984,-781,97,-164
4735,24,-1784,-992,-793,99,-159
4740,24,-1704,-1024,-773,96,-179
4745,104,-1768,-1040,-740,86,-185
4750,104,-1784,-1056,-723,82,-198
4755,48,-1792,-1072,-729,85,-204
4760,72,-1720,-1048,-734,87,-204
4765,64,-1712,-1024,-725,89,-198
4770,80,-1728,-1032,-704,86,-196
4775,96,-1760,-1072,-693,85,-199
4780,72,-1776,-1056,-691,91,-192
4785,80,-1744,-1048,-693,90,-178
4790,96,-1720,-1080,-680,84,-191
4795,128,-1704,-1080,-657,77,-199
4800,104,-1696,-1072,-648,71,-207
4805,128,-1592,-1056,-645,65,-214
4810,120,-1744,-1096,-647,55,-219
4815,112,-1752,-1112,-646,48,-228
4820,152,-1680,-1128,-654,37,-245
4825,136,-1680,-1096,-644,29,-243
4830,112,-1712,-1136,-625,20,-248
4835,120,-1696,-1104,-615,17,-252
4840,112,-1720,-1136,-600,13,-254
4845,88,-1712,-1144,-588,5,-255
4850,152,-1704,-1096,-580,-3,-248
4855,160,-1728,-1168,-578,-10,-240
4860,136,-1664,-1152,-574,-16,-238
4865,160,-1672,-1160,-547,-28,-256
4870,128,-1696,-1184,-531,-31,-262
4875,144,-1720,-1152,-522,-32,-263
4880,152,-1680,-1160,-519,-36,-264
4885,176,-1680,-1160,-515,-38,-267
4890,192,-1656,-1176,-509,-40,-271
4895,136,-1672,-1184,-504,-36,-271
4900,168,-1688,-1224,-502,-36,-272
4905,208,-1664,-1192,-499,-37,-275
4910,192,-1664,-1192,-495,-33,-279
4915,96,-1704,-1216,-491,-25,-277
4920,136,-1664,-1216,-484,-22,-274
4925,168,-1632,-1208,-477,-25,-272
4930,184,-1616,-1176,-467,-30,-272
4935,144,-1624,-1216,-455,-28,-271
4940,120,-1640,-1184,-443,-26,-264
4945,144,-1664,-1176,-432,-29,-256
4950,112,-1664,-1176,-418,-30,-248
4955,136,-1664,-1184,-407,-36,-239
4960,128,-1656,-1176,-397,-41,-232
4965,128,-1648,-1184,-387,-47,-226
4970,136,-1664,-1216,-377,-51,-224
4975,168,-1640,-1208,-373,-52,-218
4980,144,-1616,-1200,-366,-54,-222
4985,160,-1640,-1224,-356,-51,-226
4990,152,-1648,-1264,-350,-47,-229
4995,160,-1648,-1232,-343,-42,-230
5000,160,-1632,-1232,-336,-38,-233
5005,184,-1632,-1264,-326,-36,-234
5010,168,-1592,-1232,-315,-36,-230
5015,152,-1584,-1240,-303,-40,-228
5020,160,-1608,-1240,-291,-44,-224
5025,160,-1576,-1192,-280,-50,-219
5030,144,-1616,-1240,-268,-57,-214
5035,176,-1600,-1232,-258,-64,-211
5040,176,-1592,-1240,-248,-69,-207
5045,192,-1616,-1232,-234,-74,-204
5050,192,-1632,-1232,-223,-76,-203
5055,200,-1608,-1240,-211,-77,-204
5060,200,-1640,-1272,-201,-78,-204
5065,200,-1632,-1248,-193,-75,-207
5070,192,-1608,-1256,-186,-74,-207
5075,200,-1640,-1256,-180,-73,-207
5080,176,-1624,-1248,-174,-71,-205
5085,176,-1600,-1248,-166,-72,-206
5090,144,-1576,-1224,-159,-76,-207
5095,128,-1584,-1232,-154,-81,-202
5100,144,-1560,-1264,-150,-87,-198
5105,128,-1568,-1224,-147,-97,-192
5110,144,-1568,-1224,-143,-111,-186
5115,120,-1560,-1224,-138,-125,-179
5120,96,-1592,-1216,-133,-141,-172
5125,120,-1568,-1208,-127,-156,-166
5130,144,-1520,-1232,-119,-169,-158
5135,128,-1584,-1208,-113,-182,-153
5140,120,-1576,-1216,-107,-193,-149
5145,144,-1560,-1240,-104,-199,-149
5150,112,-1568,-1224,-104,-205,-150
5155,104,-1560,-1216,-111,-209,-151
5160,112,-1512,-1232,-122,-212,-149
5165,104,-1504,-1224,-132,-217,-146
5170,128,-1528,-1192,-140,-223,-141
5175,144,-1560,-1200,-147,-230,-132
5180,128,-1552,-1176,-150,-234,-129
5185,136,-1592,-1200,-152,-239,-125
5190,104,-1584,-1184,-152,-244,-116
5195,104,-1576,-1160,-151,-247,-109
5200,128,-1560,-1168,-151,-251,-101
5205,80,-1536,-1184,-153,-259,-97
5210,104,-1544,-1160,-156,-267,-93
5215,104,-1544,-1168,-158,-279,-91
5220,112,-1536,-1160,-161,-293,-89
5225,96,-1528,-1128,-159,-309,-90
5230,80,-1568,-1160,-157,-327,-92
5235,48,-1592,-1128,-158,-340,-94
5240,40,-1568,-1136,-156,-350,-97
5245,40,-1576,-1120,-153,-360,-93
5250,40,-1576,-1088,-146,-368,-88
5255,8,-1552,-1128,-137,-383,-86
5260,-16,-1552,-1096,-129,-409,-87
5265,0,-1568,-1064,-121,-442,-92
5270,16,-1592,-1072,-107,-473,-95
5275,16,-1576,-1096,-99,-505,-96
5280,32,-1552,-1072,-92,-533,-94
5285,0,-1528,-1080,-86,-564,-91
5290,-16,-1568,-1080,-85,-597,-94
5295,-40,-1552,-1080,-79,-638,-101
5300,-16,-1536,-1080,-70,-681,-105
5305,-56,-1520,-1080,-60,-720,-105
5310,-16,-1528,-1104,-50,-757,-113
5315,-8,-1576,-1096,-41,-779,-111
5320,0,-1520,-1104,-32,-798,-113
5325,8,-1584,-1104,-27,-810,-110
5330,-48,-1544,-1128,-25,-817,-110
5335,-8,-1528,-1136,-23,-832,-112
5340,-64,-1480,-1072,-10,-834,-117
5345,-80,-1472,-1120,5,-851,-121
5350,-104,-1488,-1136,16,-877,-126
5355,-96,-1480,-1112,25,-914,-131
5360,-152,-1448,-1104,29,-949,-134
5365,-152,-1472,-1128,40,-980,-137
5370,-32,-1464,-1096,46,-994,-143
5375,-24,-1488,-1144,48,-984,-141
5380,-8,-1488,-1064,42,-969,-135
5385,-40,-1488,-1048,47,-951,-133
5390,-80,-1544,-1120,62,-940,-126
5395,216,-1512,-1088,78,-927,-134
5400,24,-1512,-1168,81,-901,-135
5405,40,-1536,-1168,82,-891,-148
5410,80,-1528,-1232,84,-893,-152
5415,120,-1504,-1312,72,-885,-167
5420,216,-1536,-1408,46,-876,-181
5425,240,-1456,-1432,3,-852,-192
5430,288,-1560,-1440,-54,-820,-197
5435,312,-1600,-1456,-104,-770,-190
5440,232,-1736,-1480,-152,-717,-176
5445,128,-1776,-1496,-208,-665,-161
5450,96,-1840,-1448,-264,-614,-135
5455,48,-1928,-1488,-319,-579,-103
5460,-32,-1944,-1488,-378,-550,-73
5465,56,-1976,-1464,-433,-535,-41
5470,-24,-1976,-1488,-478,-535,-18
5475,8,-2024,-1496,-517,-545,-3
5480,8,-2000,-1576,-520,-524,27
5485,72,-1976,-1616,-516,-493,74
5490,16,-1952,-1608,-518,-461,125
5495,72,-1904,-1656,-529,-439,163
5500,32,-1888,-1688,-553,-420,183
5505,16,-1832,-1712,-566,-392,192
5510,72,-1792,-1744,-570,-362,198
5515,104,-1760,-1720,-570,-337,191
5520,176,-1696,-1712,-560,-300,188
5525,232,-1704,-1728,-553,-256,186
5530,336,-1632,-1736,-549,-206,189
5535,408,-1640,-1760,-557,-142,195
5540,472,-1608,-1704,-581,-67,204
5545,536,-1608,-1776,-631,18,213
5550,592,-1568,-1792,-708,121,225
5555,664,-1536,-1856,-814,211,237
5560,696,-1488,-1920,-951,320,249
5565,688,-1432,-1960,-1103,425,255
5570,680,-1360,-2080,-1269,526,254
5575,656,-1360,-2160,-1434,625,251
5580,592,-1320,-2192,-1587,706,245
5585,472,-1224,-2232,-1723,765,239
5590,368,-1184,-2280,-1834,803,233
5595,272,-1168,-2272,-1914,810,221
5600,184,-1208,-2232,-1972,792,201
5605,88,-1216,-2232,-1997,748,174
5610,32,-1240,-2248,-2013,696,151
5615,-8,-1224,-2216,-2024,628,119
5620,-64,-1216,-2232,-2029,550,83
5625,-128,-1264,-2168,-2040,459,53
5630,-168,-1240,-2168,-2036,346,21
5635,-144,-1264,-2128,-2023,230,-10
5640,-152,-1264,-2080,-2013,116,-42
5645,-160,-1272,-2016,-1998,-1,-74
5650,-176,-1208,-1936,-1973,-122,-102
5655,-208,-1240,-1928,-1949,-235,-123
5660,-184,-1200,-1840,-1940,-343,-135
5665,-160,-1208,-1760,-1932,-446,-148
5670,-168,-1192,-1688,-1909,-549,-161
5675,-176,-1224,-1632,-1880,-646,-168
5680,-112,-1192,-1576,-1843,-742,-172
5685,-112,-1184,-1528,-1797,-834,-169
5690,-48,-1184,-1432,-1744,-922,-159
5695,-8,-1192,-1368,-1680,-1007,-150
5700,56,-1208,-1320,-1610,-1085,-142
5705,80,-1176,-1296,-1538,-1153,-125
5710,160,-1160,-1248,-1480,-1210,-104
5715,208,-1136,-1248,-1435,-1250,-82
5720,272,-1024,-1272,-1412,-1281,-58
5725,320,-968,-1256,-1412,-1304,-25
5730,352,-936,-1224,-1442,-1321,-18
5735,384,-944,-1200,-1493,-1330,-21
5740,448,-928,-1208,-1541,-1334,-18
5745,456,-912,-1168,-1596,-1331,-6
5750,472,-904,-1160,-1648,-1321,4
5755,456,-872,-1096,-1713,-1304,-1
5760,368,-896,-1048,-1761,-1291,-8
5765,304,-976,-960,-1785,-1294,-28
5770,264,-984,-880,-1779,-1311,-48
5775,184,-960,-840,-1751,-1337,-73
5780,200,-920,-720,-1708,-1380,-96
5785,104,-936,-704,-1670,-1426,-117
5790,96,-960,-640,-1639,-1483,-139
5795,48,-936,-536,-1611,-1526,-145
5800,-40,-880,-432,-1579,-1584,-135
5805,-104,-816,-408,-1539,-1673,-126
5810,-200,-768,-360,-1510,-1778,-125
5815,-240,-752,-376,-1483,-1895,-122
5820,-400,-696,-416,-1468,-2011,-109
5825,-432,-672,-376,-1456,-2127,-101
5830,-448,-640,-368,-1441,-2234,-82
5835,-464,-584,-240,-1442,-2329,-53
5840,-568,-568,-256,-1439,-2432,-23
5845,-616,-520,-208,-1430,-2545,6
5850,-632,-488,-256,-1435,-2664,32
5855,-656,-472,-112,-1459,-2785,59
5860,-720,-432,-128,-1479,-2904,83
5865,-760,-384,-80,-1505,-3029,97
5870,-808,-232,-128,-1549,-3141,99
5875,-816,-128,-80,-1626,-3231,93
5880,-800,64,72,-1719,-3291,68
5885,-840,232,72,-1781,-3310,37
5890,-872,360,40,-1811,-3296,12
5895,-840,416,-48,-1798,-3280,5
5900,-824,424,-160,-1744,-3299,7
5905,-824,360,-360,-1658,-3369,20
5910,-784,272,-544,-1564,-3487,30
5915,-768,192,-688,-1470,-3630,26
5920,-728,72,-880,-1393,-3771,8
5925,-880,56,-864,-1322,-3891,-13
5930,-904,208,-1112,-1222,-4031,6
5935,-608,232,-1216,-1222,-4143,49
5940,-552,72,-1216,-1362,-4181,9
5945,-736,8,-1184,-1560,-4172,-103
5950,-1080,-368,-808,-1634,-4083,-126
5955,-1168,56,-960,-1470,-4107,-57
5960,-968,536,-1168,-1212,-4199,138
5965,-1288,632,-968,-955,-4253,318
5970,-2168,1232,-1104,-702,-4343,511
5975,-3416,2336,-1072,-572,-4391,879
5980,-3704,3160,-1112,-546,-4538,1553
5985,-3552,4496,-1400,-281,-4525,2519
5990,-5880,7592,-1848,-53,-4537,3775
5995,-7080,8536,-3568,-458,-4891,4922
6000,-5600,7056,-4496,-1381,-4755,5086
6005,-5848,5288,-3992,-2544,-4165,4085
6010,-7128,3704,-2944,-3592,-3915,2830
6015,-9000,2576,-2608,-3989,-3986,2266
6020,-9752,2200,-2976,-3779,-4278,2402
6025,-9480,2200,-3960,-3218,-4608,2830
6030,-8880,2272,-4608,-2682,-4850,3192
6035,-8600,2456,-4200,-2440,-4785,3343
6040,-8360,2768,-3888,-2115,-4380,3069
6045,-7416,2776,-3536,-1545,-3698,2327
6050,-6144,2456,-2640,-796,-2904,1245
6055,-4320,2000,-1704,25,-2114,65
6060,-3280,1824,-1024,787,-1511,-1021
6065,-2280,1288,-592,1483,-1062,-1848
6070,-1296,1000,-416,2035,-690,-2453
6075,-568,936,-104,2363,-293,-2757
6080,296,1056,192,2475,93,-2727
6085,992,1192,648,2421,448,-2456
6090,1552,1408,1056,2296,761,-2101
6095,1928,1688,1640,2141,978,-1769
6100,2080,2016,2064,1994,1131,-1531
6105,2072,2296,2208,1866,1225,-1378
6110,2056,2392,2040,1722,1226,-1225
6115,2000,2304,1528,1524,1047,-1062
6120,1592,2064,712,1210,697,-887
6125,944,1720,-256,711,299,-650
6130,256,1288,-848,39,-15,-377
6135,-312,880,-1208,-704,-194,-156
6140,-832,584,-1400,-1412,-286,5
6145,-1184,360,-1224,-2012,-332,124
6150,-1408,88,-984,-2379,-339,214
6155,-1656,-144,-560,-2460,-361,281
6160,-1976,-336,-224,-2295,-369,294
6165,-2200,-440,104,-1942,-372,221
6170,-2424,-488,624,-1497,-364,94
6175,-2624,-432,936,-1021,-376,-78
6180,-2728,-288,1256,-547,-456,-261
6185,-2864,24,1352,-115,-620,-441
6190,-2624,232,1440,232,-819,-595
6195,-2680,536,1456,513,-1028,-698
6200,-2272,680,1432,743,-1237,-696
6205,-1904,912,1256,912,-1480,-628
6210,-1360,1056,1104,986,-1718,-492
6215,-880,1144,840,944,-1938,-331
6220,-536,1200,488,760,-2109,-197
6225,-376,1192,184,423,-2167,-99
6230,-424,1064,-8,-42,-2115,-41
6235,-560,832,-120,-549,-1983,-23
6240,-624,552,0,-1018,-1831,-39
6245,-800,272,208,-1357,-1724,-85
6250,-1088,80,352,-1515,-1687,-150
6255,-1296,8,552,-1493,-1698,-189
6260,-1440,-32,728,-1318,-1710,-221
6265,-1696,-16,848,-1044,-1686,-249
6270,-1992,48,928,-740,-1639,-248
6275,-2168,104,1024,-425,-1577,-219
6280,-2424,272,1016,-142,-1497,-184
6285,-2568,336,912,64,-1393,-153
6290,-2760,496,888,193,-1260,-120
6295,-2968,688,728,250,-1126,-99
6300,-2960,840,696,251,-979,-81
6305,-3024,1000,464,244,-822,-84
6310,-3056,1128,336,235,-641,-86
6315,-3016,1192,160,228,-447,-79
6320,-3032,1216,-8,231,-272,-72
6325,-3008,1192,-144,235,-131,-74
6330,-2912,1080,-152,215,1,-63
6335,-2784,1024,-128,191,105,-60
6340,-2592,920,-104,184,174,-67
6345,-2432,840,0,194,260,-81
6350,-2288,704,48,218,331,-99
6355,-2176,576,128,259,386,-119
6360,-2032,472,200,313,427,-144
6365,-1960,360,320,374,457,-175
6370,-1896,296,352,449,493,-203
6375,-1904,248,416,536,534,-232
6380,-1792,200,496,621,570,-241
6385,-1768,160,512,707,597,-248
6390,-1720,112,560,794,608,-254
6395,-1704,112,560,878,627,-259
6400,-1704,96,536,947,654,-248
6405,-1712,128,480,1009,673,-225
6410,-1736,120,360,1048,685,-190
6415,-1752,160,384,1057,700,-146
6420,-1744,232,336,1036,714,-98
6425,-1800,320,280,999,731,-62
6430,-1792,344,256,950,747,-35
6435,-1824,360,152,900,765,-21
6440,-1800,416,144,843,779,-27
6445,-1776,456,80,785,787,-52
6450,-1672,488,32,740,795,-88
6455,-1576,512,-48,716,825,-128
6460,-1512,512,-88,707,884,-169
6465,-1536,528,-136,705,969,-211
6470,-1600,528,-160,695,1058,-256
6475,-1608,536,-160,685,1134,-295
6480,-1600,496,-152,680,1175,-327
6485,-1616,416,-176,668,1184,-366
6490,-1672,376,-216,616,1170,-422
6495,-1872,344,-184,544,1142,-468
6500,-2112,320,-136,482,1092,-469
6505,-2256,280,-128,443,1012,-426
6510,-2328,280,-208,447,931,-363
6515,-2352,280,-320,475,879,-307
6520,-2344,272,-432,502,859,-258
6525,-2336,344,-544,505,870,-206
6530,-2312,360,-624,493,908,-154
6535,-2312,376,-680,466,968,-106
6540,-2248,408,-656,426,1040,-69
6545,-2184,424,-632,387,1114,-56
6550,-2144,440,-544,352,1176,-63
6555,-2080,408,-496,325,1217,-79
6560,-2016,392,-416,307,1227,-103
6565,-2008,344,-400,300,1207,-124
6570,-2000,360,-360,303,1168,-135
6575,-2016,304,-304,313,1113,-136
6580,-1968,280,-312,326,1051,-130
6585,-1992,256,-352,338,985,-119
6590,-2008,272,-360,344,928,-103
6595,-2000,240,-384,340,877,-91
6600,-1976,248,-424,328,836,-84
6605,-1992,240,-544,305,813,-78
6610,-1984,288,-576,272,812,-66
6615,-2008,232,-616,238,819,-54
6620,-2040,232,-640,206,826,-47
6625,-2024,192,-696,176,834,-40
6630,-2040,176,-704,153,842,-37
6635,-2048,168,-720,145,849,-29
6640,-2064,168,-712,156,844,-19
6645,-2048,136,-704,182,827,-14
6650,-2064,144,-736,221,810,-8
6655,-2040,168,-736,269,796,2
6660,-2048,192,-720,325,774,8
6665,-2008,216,-760,368,741,13
6670,-2024,272,-760,390,717,19
6675,-2040,304,-752,398,692,23
6680,-2024,304,-752,395,664,21
6685,-2024,328,-800,380,639,17
6690,-2032,328,-768,358,615,15
6695,-2016,320,-768,335,589,13
6700,-1976,344,-816,316,563,15
6705,-2008,368,-800,294,545,20
6710,-1984,352,-808,271,531,29
6715,-1944,328,-832,248,522,33
6720,-1952,336,-832,224,517,33
6725,-1960,328,-864,197,517,26
6730,-1888,328,-856,175,516,19
6735,-1928,312,-824,165,513,10
6740,-1944,296,-848,165,503,0
6745,-1928,304,-848,165,485,-9
6750,-1960,296,-824,167,464,-17
6755,-1960,288,-848,166,444,-28
6760,-2016,304,-856,164,423,-39
6765,-2008,288,-832,159,407,-47
6770,-2008,312,-840,151,383,-52
6775,-2040,344,-824,137,358,-61
6780,-2056,352,-824,119,332,-67
6785,-2056,336,-856,95,316,-70
6790,-2056,368,-856,66,300,-73
6795,-2088,344,-792,38,271,-68
6800,-2104,360,-784,16,236,-57
6805,-2064,320,-808,-3,198,-41
6810,-2064,296,-816,-15,167,-30
6815,-2040,288,-816,-26,147,-17
6820,-2040,272,-816,-37,133,-4
6825,-2008,288,-816,-45,119,5
6830,-1984,288,-792,-51,105,15
6835,-2000,280,-776,-55,91,23
6840,-1960,264,-848,-62,76,29
6845,-1928,264,-784,-65,62,35
6850,-1928,272,-760,-68,48,38
6855,-1904,272,-760,-68,32,41
6860,-1896,288,-744,-71,16,38
6865,-1872,312,-744,-70,4,38
6870,-1896,304,-736,-71,-7,33
6875,-1920,304,-744,-68,-18,27
6880,-1904,304,-688,-64,-27,22
6885,-1904,288,-768,-63,-37,19
6890,-1904,344,-776,-62,-41,16
6895,-1920,304,-736,-59,-47,12
6900,-1952,312,-744,-61,-49,7
6905,-1936,312,-712,-62,-52,2
6910,-1968,328,-720,-63,-52,0
6915,-1992,336,-736,-68,-52,-2
6920,-1952,304,-728,-72,-54,-3
6925,-1960,304,-728,-75,-55,-4
6930,-1960,296,-728,-78,-57,-5
6935,-1968,304,-728,-78,-59,-6
6940,-1960,296,-712,-77,-61,-5
6945,-1976,304,-704,-75,-63,-4
6950,-1944,288,-680,-72,-66,-2
6955,-1960,304,-704,-70,-69,-1
6960,-1960,304,-688,-66,-71,0
6965,-1968,344,-696,-62,-70,-2
6970,-1952,304,-680,-59,-70,-4
6975,-1952,296,-672,-54,-70,-5
6980,-1968,304,-696,-52,-71,-7
6985,-1944,320,-688,-47,-72,-10
6990,-1960,312,-672,-44,-76,-12
6995,-1952,320,-672,-39,-77,-15
7000,-1976,328,-696,-37,-78,-18
7005,-1984,328,-672,-35,-81,-22
7010,-1960,328,-688,-35,-81,-25
7015,-1968,328,-680,-34,-81,-31
7020,-1952,304,-664,-34,-80,-35
7025,-1960,328,-664,-33,-77,-39
7030,-1976,344,-632,-30,-73,-43
7035,-1960,304,-640,-29,-67,-49
7040,-1976,328,-656,-27,-62,-56
7045,-1960,312,-640,-25,-57,-59
7050,-1968,304,-640,-25,-51,-60
7055,-1936,272,-664,-22,-46,-58
7060,-1952,272,-648,-22,-41,-58
7065,-1952,272,-616,-19,-38,-57
7070,-1944,272,-624,-16,-35,-53
7075,-1968,280,-632,-13,-31,-50
7080,-1952,264,-624,-12,-28,-45
7085,-1944,264,-632,-11,-26,-40
7090,-1960,264,-608,-8,-22,-36
7095,-1928,272,-616,-8,-21,-32
7100,-1952,296,-608,-7,-19,-28
7105,-1952,288,-616,-5,-15,-28
7110,-1944,272,-624,-5,-11,-25
7115,-1944,296,-624,-4,-8,-24
7120,-1952,272,-640,-2,-4,-23
7125,-1944,280,-608,2,2,-21
7130,-1936,256,-616,3,8,-20
7135,-1952,264,-600,9,14,-18
7140,-1968,256,-624,11,18,-18
7145,-1952,256,-656,14,22,-15
7150,-1944,272,-648,14,28,-12
7155,-1968,288,-640,16,32,-9
7160,-1960,272,-632,14,38,-6
7165,-1952,256,-608,12,45,-4
7170,-1984,272,-600,8,53,-2
7175,-1952,272,-640,5,58,1
7180,-1992,280,-632,0,64,2
7185,-1960,296,-664,-4,67,5
7190,-1944,296,-648,-6,70,5
7195,-1960,280,-672,-7,68,7
7200,-1976,304,-640,-9,66,7
7205,-1984,312,-640,-10,64,7
7210,-1992,288,-648,-12,62,5
7215,-1992,288,-664,-10,62,4
7220,-1960,304,-648,-11,63,3
7225,-1968,304,-648,-11,67,2
7230,-1968,288,-624,-11,72,0
7235,-1984,288,-640,-12,77,-3
7240,-1984,320,-640,-12,81,-4
7245,-1968,312,-648,-12,86,-5
7250,-1976,288,-656,-12,92,-5
7255,-1952,280,-632,-12,95,-6
7260,-1960,304,-648,-14,98,-7
7265,-1944,296,-664,-14,101,-7
7270,-1968,296,-664,-16,100,-5
7275,-1976,256,-656,-18,98,-5
7280,-1952,280,-672,-20,95,-1
7285,-1984,296,-664,-23,91,-1
7290,-1960,280,-648,-29,86,0
7295,-1960,264,-648,-28,85,1
7300,-1968,280,-656,-25,83,2
7305,-1976,280,-648,-21,78,1
7310,-1976,256,-632,-18,75,2
7315,-1952,288,-672,-16,71,1
7320,-1968,312,-632,-14,71,0
7325,-1976,296,-664,-15,70,-1
7330,-1984,312,-656,-14,70,0
7335,-1968,312,-664,-15,71,2
7340,-1944,280,-664,-12,72,-1
7345,-1976,312,-664,-10,78,-2
7350,-1968,304,-656,-8,78,-3
7355,-1984,312,-672,-5,76,-4
7360,-1952,304,-656,-1,75,-5
7365,-1960,288,-664,0,77,-6
7370,-1952,296,-648,-2,78,-7
7375,-1984,320,-640,-4,77,-8
7380,-1976,312,-680,-7,78,-9
7385,-1968,280,-688,-12,75,-10
7390,-1968,312,-664,-19,71,-12
7395,-1984,304,-640,-17,69,-12
7400,-1952,296,-656,-13,69,-13
7405,-1960,280,-664,-7,70,-14
7410,-1984,288,-672,-4,69,-17
7415,-1944,288,-640,-4,67,-17
7420,-1952,304,-656,-3,68,-17
7425,-1952,280,-656,-2,69,-18
7430,-1992,304,-640,-2,70,-19
7435,-1984,296,-680,-3,70,-20
7440,-1976,280,-680,-1,69,-20
7445,-1976,296,-656,1,68,-20
7450,-1976,280,-680,1,68,-19
7455,-1976,296,-656,-1,66,-17
7460,-1968,304,-640,-4,63,-14
7465,-1960,288,-648,-7,61,-13
7470,-1952,264,-640,-8,59,-14
7475,-1976,296,-664,-8,58,-14
7480,-1952,296,-656,-8,54,-16
7485,-1952,312,-648,-12,52,-15
7490,-1960,280,-648,-11,51,-15
7495,-1960,272,-664,-10,55,-16
7500,-1984,296,-648,-9,56,-18
7505,-1952,272,-680,-10,56,-17
7510,-1968,280,-656,-13,57,-18
7515,-1976,280,-664,-14,58,-19
7520,-1992,296,-664,-16,59,-19
7525,-1992,280,-656,-19,60,-18
7530,-1968,256,-648,-20,61,-18
7535,-1984,280,-656,-16,59,-17
7540,-1960,264,-656,-16,55,-14
7545,-2000,288,-680,-19,51,-12
7550,-1960,264,-640,-21,49,-9
7555,-1984,280,-656,-15,52,-6
7560,-1976,288,-632,-12,54,-6
7565,-1976,296,-656,-10,54,-5
7570,-1968,272,-616,-9,54,-5
7575,-1976,280,-648,-7,53,-4
7580,-1952,280,-656,-8,51,-7
7585,-1968,264,-632,-9,50,-8
7590,-1984,304,-664,-9,51,-7
7595,-1944,280,-656,-8,50,-8
7600,-1976,312,-648,-9,52,-8
7605,-1984,248,-712,-10,52,-9
7610,-2000,280,-648,-15,50,-7
7615,-1976,248,-656,-21,49,-9
7620,-1960,280,-664,-19,51,-8
7625,-1968,264,-640,-13,57,-8
7630,-1968,272,-648,-11,61,-7
7635,-1952,248,-632,-12,63,-6
7640,-1984,296,-632,-12,64,-6
7645,-1960,304,-640,-12,67,-4
7650,-1976,280,-648,-11,68,-3
7655,-1960,272,-632,-10,69,-3
7660,-1968,280,-640,-11,68,0
7665,-1960,272,-648,-9,70,0
7670,-1976,296,-656,-8,69,1
7675,-1952,296,-656,-6,69,0
7680,-1960,296,-632,-5,69,0
7685,-1976,288,-648,-5,70,0
7690,-1992,288,-664,-6,71,0
7695,-1992,304,-664,-5,71,0
7700,-1984,296,-664,-7,73,-2
7705,-1968,288,-632,-7,73,-2
7710,-1952,264,-624,-7,74,-1
7715,-1968,264,-672,-6,76,-1
7720,-1960,256,-648,-6,76,1
7725,-1936,280,-640,-6,77,1
7730,-1968,296,-624,-5,78,0
7735,-1960,272,-616,-5,79,0
7740,-1976,280,-648,-7,77,1
7745,-2000,312,-624,-7,78,1
7750,-1952,288,-640,-7,79,0
7755,-1984,280,-656,-8,80,-2
7760,-1960,272,-632,-7,81,-2
7765,-1984,296,-664,-7,81,-2
7770,-1968,280,-648,-7,83,-3
7775,-1968,264,-672,-6,84,-3
7780,-1960,288,-656,-7,85,-4
7785,-1968,280,-648,-7,83,-4
7790,-1976,256,-656,-8,84,-6
7795,-1992,296,-664,-9,84,-6
7800,-1968,304,-632,-10,83,-5
7805,-1928,280,-632,-11,81,-4
7810,-1984,280,-672,-11,82,-4
7815,-1976,288,-672,-12,82,-3
7820,-2000,280,-680,-11,81,-5
7825,-1968,296,-656,-9,81,-6
7830,-1968,296,-664,-7,80,-6
7835,-1952,272,-688,-7,79,-6
7840,-1976,280,-656,-7,77,-6
7845,-1968,304,-672,-7,76,-6
7850,-1952,264,-656,-6,75,-7
7855,-1952,272,-648,-5,74,-6
7860,-1976,280,-640,-5,73,-7
7865,-1968,288,-632,-6,72,-7
7870,-1968,288,-648,-7,71,-7
7875,-1944,264,-632,-7,72,-6
7880,-1952,280,-624,-11,72,-6
7885,-1968,280,-664,-12,75,-6
7890,-1960,272,-656,-12,75,-6
7895,-1944,272,-656,-15,74,-6
7900,-1992,280,-640,-17,75,-5
7905,-1960,272,-632,-17,76,-4
7910,-1960,288,-648,-19,78,-3
7915,-1992,304,-664,-18,78,-4
7920,-1952,280,-664,-17,78,-6
7925,-1992,296,-648,-19,79,-8
7930,-1952,296,-672,-23,80,-10
7935,-1976,304,-664,-25,82,-11
7940,-1976,304,-640,-29,86,-13
7945,-1968,296,-632,-32,88,-15
7950,-1984,280,-648,-35,89,-18
7955,-1968,288,-648,-37,91,-19
7960,-1976,296,-664,-39,95,-18
7965,-1960,272,-656,-40,98,-19
7970,-1968,272,-648,-40,101,-19
7975,-1960,264,-672,-40,103,-18
7980,-1984,280,-680,-40,105,-17
7985,-1976,264,-656,-37,106,-15
7990,-1960,240,-672,-34,104,-15
7995,-1968,272,-656,-30,102,-12
8000,-1984,272,-640,-25,98,-10
8005,-1968,288,-648,-23,93,-7
8010,-1976,280,-656,-19,89,-5
8015,-1952,272,-672,-16,87,-6
8020,-1960,264,-648,-16,86,-5
8025,-1968,272,-664,-16,84,-5
8030,-1984,296,-672,-16,84,-3
8035,-1952,272,-672,-18,83,-3
8040,-1928,360,-688,-18,84,-5
8045,-1976,312,-664,-20,84,-5
8050,-1968,280,-664,-21,83,-7
8055,-1960,256,-656,-19,84,-7
8060,-1936,248,-664,-18,85,-9
8065,-1936,280,-656,-16,86,-11
8070,-1968,288,-680,-15,86,-11
8075,-1960,248,-656,-16,87,-11
8080,-1960,272,-632,-17,88,-10
8085,-1976,288,-664,-17,87,-10
8090,-1960,264,-672,-18,87,-10
8095,-1960,280,-656,-19,87,-8
8100,-1976,296,-672,-20,85,-9
8105,-1952,296,-648,-22,84,-6
8110,-1944,296,-656,-25,85,-6
8115,-1968,288,-672,-26,85,-6
8120,-1968,272,-656,-28,87,-8
8125,-1968,288,-672,-28,89,-11
8130,-1976,296,-656,-28,90,-12
8135,-1976,288,-656,-26,89,-12
8140,-1968,264,-664,-27,86,-12
8145,-1960,264,-680,-28,84,-9
8150,-1936,232,-712,-24,84,-10
8155,-1976,248,-672,-22,84,-7
8160,-1976,272,-664,-19,82,-6
8165,-1960,264,-688,-18,81,-5
8170,-1976,296,-656,-18,80,-3
8175,-1936,256,-664,-17,78,-1
8180,-1952,272,-656,-15,79,-1
8185,-1952,296,-664,-14,79,-1
8190,-1960,272,-648,-14,80,0
8195,-1896,280,-656,-16,80,0
8200,-1960,296,-656,-18,79,-3
8205,-1952,256,-648,-18,81,-3
8210,-1960,288,-664,-17,82,-6
8215,-1960,288,-688,-15,87,-7
8220,-1976,296,-664,-16,90,-9
8225,-1984,296,-656,-21,88,-8
8230,-1968,280,-664,-27,87,-10
8235,-1976,256,-656,-30,87,-12
8240,-1960,272,-632,-32,85,-10
8245,-1952,264,-656,-33,83,-7
8250,-1952,280,-656,-33,81,-9
8255,-1912,264,-632,-32,85,-11
8260,-1952,272,-664,-29,89,-12
8265,-1968,288,-672,-25,90,-11
8270,-1976,256,-648,-25,91,-11
8275,-1960,280,-656,-24,89,-10
8280,-1984,288,-664,-22,91,-12
8285,-1968,296,-672,-23,94,-11
8290,-1960,280,-672,-26,91,-10
8295,-1976,288,-656,-27,92,-10
8300,-1960,288,-680,-29,91,-8
8305,-1952,280,-664,-29,89,-8
8310,-1992,288,-656,-28,87,-7
8315,-1968,288,-664,-28,86,-7
8320,-1992,288,-648,-27,82,-6
8325,-1960,288,-664,-25,83,-5
8330,-1968,264,-664,-22,83,-5
8335,-1960,272,-632,-22,85,-6
8340,-1960,264,-680,-21,85,-5
8345,-1976,296,-664,-20,84,-6
8350,-1944,288,-656,-20,83,-5
8355,-1960,256,-672,-22,83,-5
8360,-1952,280,-680,-24,85,-6
8365,-1920,240,-632,-26,88,-5
8370,-1952,288,-680,-31,93,-7
8375,-1976,288,-664,-36,94,-10
8380,-1952,256,-656,-34,91,-10
8385,-1960,272,-680,-31,88,-11
8390,-1968,288,-656,-24,89,-11
8395,-1952,296,-688,-18,91,-13
8400,-1968,272,-664,-14,94,-13
8405,-1952,288,-672,-12,99,-12
8410,-1960,304,-688,-17,103,-11
8415,-1960,296,-688,-28,105,-11
8420,-1992,288,-656,-35,103,-15
8425,-1944,272,-672,-40,95,-13
8430,-1968,288,-680,-39,86,-13
8435,-1944,280,-696,-34,83,-13
8440,-1936,272,-696,-31,90,-14
8445,-1968,280,-648,-29,92,-15
8450,-1976,272,-672,-26,90,-13
8455,-1952,280,-664,-23,83,-11
8460,-1944,288,-688,-21,85,-11
8465,-1976,272,-696,-23,93,-13
8470,-1960,264,-672,-25,99,-14
8475,-1920,272,-624,-20,100,-13
8480,-1968,272,-688,-14,94,-12
8485,-1992,328,-720,-16,96,-12
8490,-1976,304,-680,-32,102,-5
8495,-1960,280,-696,-45,100,-11
8500,-1944,264,-656,-48,99,-15
8505,-1976,272,-680,-40,98,-9
8510,-1968,240,-688,-28,92,-6
8515,-1928,280,-672,-20,87,-4
8520,-1968,296,-688,-23,86,-4
8525,-1952,288,-664,-24,91,-4
8530,-1952,280,-672,-22,93,-5
8535,-1952,280,-680,-22,94,-7
8540,-1968,280,-672,-19,97,-11
8545,-1968,264,-672,-18,103,-13
8550,-1960,272,-664,-18,104,-12
8555,-1984,296,-680,-19,99,-10
8560,-1960,288,-680,-17,94,-9
8565,-1960,264,-688,-16,96,-8
8570,-1976,288,-688,-15,94,-6
8575,-1968,280,-688,-13,90,-3
8580,-1960,272,-656,-14,85,-1
8585,-1984,256,-760,-16,83,-1
8590,-1936,280,-680,-15,90,0
8595,-1960,280,-680,-13,92,1
8600,-1952,296,-704,-13,87,3
8605,-1952,296,-672,-14,86,1
8610,-1960,288,-696,-13,82,-1
8615,-1952,272,-672,-10,83,-2
8620,-1976,296,-672,-8,82,-1
8625,-1960,256,-664,-10,80,0
8630,-1928,296,-664,-10,79,0
8635,-1944,224,-648,-12,79,-1
8640,-1960,288,-680,-13,79,1
8645,-1960,272,-680,-15,81,0
8650,-1984,280,-672,-15,81,-1
8655,-1968,272,-664,-18,79,-1
8660,-1952,280,-680,-18,78,-2
8665,-1952,256,-712,-16,79,-1
8670,-1968,264,-680,-15,82,0
8675,-1968,256,-704,-14,85,0
8680,-1960,272,-688,-11,85,2
8685,-1976,280,-680,-8,85,3
8690,-1976,296,-696,-8,82,3
8695,-1960,280,-712,-9,78,3
8700,-1952,296,-712,-10,73,4
8705,-1960,304,-688,-12,68,5
8710,-1952,272,-720,-12,62,4
8715,-1952,296,-696,-14,55,3
8720,-1968,248,-696,-11,47,5
8725,-1976,272,-696,-7,38,9
8730,-1936,256,-712,0,29,11
8735,-1944,256,-704,6,24,14
8740,-1968,264,-696,13,17,16
8745,-1984,288,-680,21,12,18
8750,-1960,264,-704,24,8,19
8755,-1960,256,-696,28,5,20
8760,-1992,296,-688,29,6,18
8765,-1960,288,-672,28,6,17
8770,-1960,272,-704,28,7,13
8775,-1976,272,-688,28,14,11
8780,-1984,288,-688,30,16,9
8785,-1944,280,-680,32,23,8
8790,-1976,288,-656,33,23,6
8795,-1960,264,-680,33,22,6
8800,-1936,288,-680,31,19,3
8805,-1944,272,-664,32,19,1
8810,-1960,288,-672,36,21,-1
8815,-1952,272,-672,35,18,1
8820,-1952,288,-656,31,15,-1
8825,-1936,272,-664,29,15,-2
8830,-1960,280,-664,28,14,-1
8835,-1944,296,-672,25,16,-1
8840,-1960,272,-680,24,18,-1
8845,-1936,272,-664,17,14,3
8850,-1960,288,-656,14,15,3
8855,-1960,288,-664,15,20,2
8860,-1968,264,-672,16,25,2
8865,-1952,280,-664,10,24,5
8870,-1976,304,-656,9,26,3
8875,-1976,296,-656,6,31,3
8880,-1984,288,-648,1,33,2
8885,-1960,280,-672,-2,35,1
8890,-1960,280,-648,-2,42,0
8895,-1976,264,-664,-2,49,-2
8900,-1960,288,-648,-4,50,-2
8905,-1952,280,-672,-6,53,-2
8910,-1928,232,-688,-8,55,0
8915,-1968,256,-648,-8,58,0
8920,-1968,272,-664,-8,60,2
8925,-1936,280,-680,-8,62,5
8930,-1952,272,-680,-10,64,5
8935,-1960,272,-688,-12,63,7
8940,-1944,264,-680,-20,59,7
8945,-1952,256,-640,-21,57,8
8950,-1976,304,-664,-16,58,10
8955,-1968,280,-680,-15,58,9
8960,-1976,304,-648,-14,58,8
8965,-1960,288,-664,-14,58,7
8970,-1960,280,-656,-11,59,7
8975,-1968,272,-656,-9,59,5
8980,-1976,280,-672,-8,61,3
8985,-1968,272,-656,-8,63,2
8990,-1984,296,-680,-8,64,3
8995,-1952,280,-672,-7,65,3
9000,-1968,288,-688,-7,67,3
9005,-1968,272,-672,-7,68,1
9010,-1968,288,-664,-8,69,1
9015,-1976,264,-664,-7,70,1
9020,-1920,304,-688,-6,68,2
9025,-1976,296,-664,-8,66,3
9030,-1960,272,-680,-5,66,3
9035,-1976,272,-680,-6,66,3
9040,-1968,280,-672,-6,65,3
9045,-1984,256,-656,-6,65,4
9050,-1968,288,-680,-2,67,3
9055,-1984,280,-680,0,69,2
9060,-1952,280,-680,3,68,3
9065,-1952,240,-680,4,66,0
9070,-1968,264,-656,5,65,1
9075,-1944,264,-688,4,65,1
9080,-1960,280,-672,5,65,1
9085,-2000,264,-680,5,64,2
9090,-1952,280,-640,2,63,3
9095,-1992,272,-640,1,57,3
9100,-1944,280,-672,3,58,4
9105,-1936,264,-680,6,62,1
9110,-1976,264,-664,4,69,2
9115,-1984,272,-640,5,69,3
9120,-1960,288,-672,7,62,4
9125,-1952,296,-680,6,60,3
9130,-1976,272,-704,8,61,3
9135,-1960,272,-656,6,62,3
9140,-1960,272,-664,6,63,0
9145,-1984,272,-680,1,58,1
9150,-1984,280,-648,-5,51,0
9155,-1960,280,-672,-6,51,0
9160,-1968,272,-672,-1,54,-2
9165,-1976,288,-680,4,58,-2
9170,-1952,272,-656,6,56,0
9175,-1976,280,-696,5,53,-1
9180,-1968,296,-688,-1,47,-2
9185,-1960,280,-688,-4,47,-2
9190,-1936,264,-672,-2,51,-3
9195,-1960,288,-664,0,52,-3
9200,-1984,272,-680,3,48,-2
9205,-1952,288,-672,4,47,-1
9210,-1952,272,-680,7,48,0
9215,-1952,288,-672,6,49,1
9220,-1952,256,-672,5,51,-1
9225,-1968,264,-672,5,51,1
9230,-1952,256,-672,4,53,1
9235,-1968,280,-664,5,51,2
9240,-1960,280,-648,7,48,3
9245,-1960,264,-672,9,49,2
9250,-1976,288,-672,8,53,0
9255,-1984,256,-664,5,58,-3
9260,-1968,288,-672,2,60,-2
9265,-1976,280,-640,2,61,-2
9270,-1984,280,-648,4,58,-1
9275,-1968,280,-680,5,55,0
9280,-1944,272,-656,3,56,0
9285,-1968,280,-672,3,59,1
9290,-1960,264,-688,2,56,3
9295,-1968,288,-680,-13,43,4
9300,-1960,280,-680,-18,36,3
9305,-1952,288,-656,-14,38,4
9310,-1960,272,-664,-6,42,2
9315,-1960,280,-664,-1,45,0
9320,-1984,272,-672,2,45,0
9325,-1984,280,-680,2,44,0
9330,-1968,280,-672,4,47,-1
9335,-1976,272,-664,3,49,-1
9340,-1976,304,-672,4,47,-1
9345,-1992,336,-568,10,45,0
9350,-1984,288,-640,12,43,1
9355,-1992,296,-680,11,44,0
9360,-1960,288,-648,1,38,3
9365,-1944,272,-656,-6,37,4
9370,-1960,264,-680,-6,41,3
9375,-1968,288,-664,-9,41,4
9380,-1976,272,-640,-6,42,4
9385,-1944,264,-672,-1,44,5
9390,-1952,264,-672,3,45,4
9395,-1960,288,-672,-1,40,5
9400,-1960,264,-648,-4,33,6
9405,-1976,288,-656,-7,27,2
9410,-1968,328,-672,2,29,1
9415,-1976,288,-656,-2,25,2
9420,-1984,296,-624,-1,22,-3
9425,-1976,296,-632,5,22,-4
9430,-1968,272,-640,7,25,0
9435,-1968,296,-688,10,28,-3
9440,-1976,272,-648,2,29,-6
9445,-1968,288,-648,-8,32,-7
9450,-1960,272,-632,-8,38,-8
9455,-1992,288,-672,-6,45,-11
9460,-1984,296,-656,-5,51,-13
9465,-1976,288,-656,-8,56,-14
9470,-1960,288,-632,-10,57,-15
9475,-1952,256,-640,-10,60,-14
9480,-1960,288,-656,-9,59,-13
9485,-1968,280,-656,-14,55,-12
9490,-1960,304,-632,-17,52,-11
9495,-1968,296,-640,-15,51,-8
9500,-1960,280,-648,-15,49,-8
9505,-1992,272,-672,-10,48,-7
9510,-1968,256,-656,-5,49,-6
9515,-1952,296,-656,-6,47,-6
9520,-1960,272,-640,-5,47,-6
9525,-1976,280,-672,-8,49,-5
9530,-1976,272,-648,-10,50,-7
9535,-1952,272,-664,-7,51,-8
9540,-1992,288,-624,-5,54,-7
9545,-1984,264,-632,-3,58,-8
9550,-1968,272,-648,1,61,-8
9555,-1968,256,-648,2,61,-8
9560,-1960,264,-632,1,62,-7
9565,-1976,280,-664,0,63,-7
9570,-1984,296,-664,-2,62,-5
9575,-1976,296,-640,-3,62,-4
9580,-1976,272,-664,-6,62,-2
9585,-1968,304,-664,-11,62,-4
9590,-1968,256,-664,-19,59,-3
9595,-1952,264,-640,-24,59,-3
9600,-1976,272,-648,-25,62,-5
9605,-1952,256,-632,-23,65,-5
9610,-1976,288,-632,-21,64,-5
9615,-1968,272,-640,-19,63,-6
9620,-1968,272,-640,-15,62,-4
9625,-1984,272,-632,-15,63,-4
9630,-1976,288,-640,-16,60,-2
9635,-1944,256,-656,-19,58,-3
9640,-1960,288,-656,-23,55,-1
9645,-1992,280,-664,-21,53,0
9650,-1960,256,-648,-23,53,1
9655,-1976,264,-640,-20,54,-1
9660,-1992,288,-656,-18,57,-2
9665,-1984,264,-648,-15,59,0
9670,-1960,312,-648,-14,59,0
9675,-1960,272,-632,-16,58,-2
9680,-1952,272,-656,-16,61,-2
9685,-1944,296,-656,-19,59,-3
9690,-1968,288,-656,-27,57,-5
9695,-1984,296,-656,-28,58,-5
9700,-1960,280,-648,-28,59,-6
9705,-1968,272,-640,-24,62,-5
9710,-1968,288,-624,-19,65,-7
9715,-1992,272,-632,-19,66,-8
9720,-1968,280,-632,-17,66,-7
9725,-1984,288,-640,-14,67,-7
9730,-1984,264,-656,-12,68,-8
9735,-1960,272,-648,-12,67,-8
9740,-1968,272,-648,-14,67,-8
9745,-1984,288,-648,-15,67,-7
9750,-1976,296,-648,-13,67,-9
9755,-1944,240,-640,-13,67,-9
9760,-1944,264,-632,-17,66,-7
9765,-1968,256,-648,-18,64,-7
9770,-1960,296,-656,-26,60,-7
9775,-1960,280,-656,-27,60,-5
9780,-1944,296,-552,-26,62,-7
9785,-1976,296,-624,-24,63,-7
9790,-1984,264,-640,-19,65,-7
9795,-1960,264,-640,-18,65,-7
9800,-1976,272,-624,-13,67,-8
9805,-1936,272,-648,-13,67,-7
9810,-1984,264,-640,-10,68,-7
9815,-1976,272,-640,-10,67,-8
9820,-1984,288,-648,-10,69,-6
9825,-1976,280,-640,-10,70,-6
9830,-1960,256,-632,-11,71,-6
9835,-1952,280,-656,-10,72,-6
9840,-1992,280,-632,-9,73,-6
9845,-1976,288,-648,-11,74,-5
9850,-1960,280,-640,-12,74,-6
9855,-1952,272,-640,-12,73,-6
9860,-1992,280,-656,-13,72,-7
9865,-1976,288,-664,-14,73,-6
9870,-1944,280,-632,-14,71,-6
9875,-1968,256,-648,-14,71,-6
9880,-1960,280,-656,-14,69,-5
9885,-1992,272,-656,-12,70,-5
9890,-1952,240,-592,-13,68,-4
9895,-1984,312,-672,-14,67,-3
9900,-1960,248,-640,-14,69,-5
9905,-1960,280,-664,-14,68,-4
9910,-1968,304,-672,-14,68,-3
9915,-1984,296,-648,-17,67,-3
9920,-1984,296,-640,-17,67,-4
9925,-1984,296,-640,-17,68,-4
9930,-1984,280,-632,-18,69,-3
9935,-1984,288,-632,-19,69,-3
9940,-1960,280,-648,-18,69,-3
9945,-1976,272,-632,-18,67,-2
9950,-1968,272,-672,-18,69,-2
9955,-1952,304,-640,-16,68,-2
9960,-1976,264,-664,-17,66,-2
9965,-1976,272,-648,-16,67,-2
9970,-1968,264,-640,-16,66,-1
9975,-1960,288,-632,-14,66,-1
9980,-1968,264,-664,-13,64,-1
9985,-1960,272,-656,-12,63,-2
9990,-1952,288,-664,-13,63,-3
9995,-1976,272,-656,-13,64,-1
10000,-1976,288,-664,-13,65,-1
10005,-1968,280,-640,-14,65,-2
10010,-1952,272,-632,-15,64,-3
10015,-1968,280,-648,-15,66,-2
10020,-1992,280,-640,-17,66,-2
10025,-1968,272,-656,-16,66,-1
10030,-1976,248,-632,-16,67,-1
10035,-1968,272,-672,-15,68,-1
10040,-1968,280,-616,-12,66,-1
10045,-1952,280,-640,-10,66,1
10050,-1952,272,-640,-10,66,0
10055,-1960,280,-656,-10,65,-1
10060,-1976,280,-664,-9,67,-2
10065,-1968,264,-640,-8,70,-2
10070,-1976,256,-648,-9,70,-2
10075,-1976,288,-640,-9,70,-3
10080,-1968,264,-640,-10,72,-4
10085,-1976,296,-656,-12,72,-4
10090,-1976,296,-640,-12,74,-3
10095,-1992,272,-672,-11,73,-2
10100,-1952,256,-656,-12,72,-1
10105,-1952,280,-624,-12,73,0
10110,-1968,272,-648,-11,72,1
10115,-1984,288,-648,-12,71,3
10120,-1976,288,-632,-10,71,3
10125,-1968,272,-648,-10,73,1
10130,-1968,280,-672,-11,72,1
10135,-1992,296,-640,-10,72,0
10140,-1984,280,-640,-9,74,-1
10145,-1984,288,-648,-9,74,-2
10150,-1952,256,-648,-9,73,-4
10155,-1968,264,-656,-9,74,-3
10160,-1968,256,-664,-8,73,-3
10165,-1984,304,-648,-7,73,-2
10170,-1952,296,-632,-7,72,-2
10175,-1968,240,-640,-8,71,0
10180,-1968,288,-640,-9,70,2
10185,-1952,272,-648,-11,71,3
10190,-1952,248,-656,-12,71,5
10195,-1976,264,-608,-12,71,5
10200,-1960,272,-664,-13,72,8
10205,-1968,288,-632,-10,72,7
10210,-1976,280,-656,-9,71,8
10215,-1960,336,-696,-10,71,9
10220,-1976,280,-640,-8,69,9
10225,-1960,296,-672,-11,65,7
10230,-1976,288,-640,-12,65,6
10235,-2000,288,-656,-17,63,4
10240,-1968,288,-648,-20,62,1
10245,-1976,288,-656,-23,60,1
10250,-1976,320,-640,-25,61,-1
10255,-1952,304,-648,-28,61,-2
10260,-1952,280,-624,-31,63,-3
10265,-1968,280,-616,-31,67,-5
10270,-1984,272,-616,-34,71,-8
10275,-1976,288,-632,-35,75,-8
10280,-2000,288,-640,-38,81,-9
10285,-1984,288,-656,-39,85,-10
10290,-1968,296,-640,-42,90,-11
10295,-1944,288,-640,-42,94,-13
10300,-1944,280,-648,-45,98,-13
10305,-1976,280,-648,-45,99,-12
10310,-1968,272,-656,-45,99,-12
10315,-1976,272,-648,-43,99,-10
10320,-1968,272,-664,-40,95,-9
10325,-1984,256,-648,-38,94,-9
10330,-1968,264,-640,-37,92,-7
10335,-1968,280,-664,-35,90,-7
10340,-1984,272,-648,-34,88,-8
10345,-1968,272,-680,-33,86,-8
10350,-1960,264,-640,-30,85,-8
10355,-1960,288,-640,-29,85,-7
10360,-1968,296,-632,-26,85,-9
10365,-1976,272,-640,-26,84,-9
10370,-1976,288,-664,-25,83,-10
10375,-1984,296,-664,-26,84,-11
10380,-1968,296,-648,-27,85,-9
10385,-1960,272,-672,-27,87,-10
10390,-1968,280,-632,-27,90,-10
10395,-1992,288,-664,-30,90,-11
10400,-1968,264,-664,-29,87,-10
10405,-1968,264,-672,-30,87,-9
10410,-1976,280,-632,-31,87,-8
10415,-1984,280,-648,-32,88,-6
10420,-1968,304,-656,-33,88,-7
10425,-1944,272,-648,-33,88,-7
10430,-1960,280,-640,-33,90,-7
10435,-1944,280,-640,-34,91,-10
10440,-1984,272,-656,-32,94,-11
10445,-1968,264,-672,-31,97,-11
10450,-1984,280,-672,-34,94,-9
10455,-1968,288,-648,-33,93,-9
10460,-1968,280,-648,-34,92,-10
10465,-2000,272,-672,-35,92,-8
10470,-1968,272,-648,-34,93,-7
10475,-1984,272,-648,-32,92,-6
10480,-1976,280,-664,-31,90,-4
10485,-1976,272,-640,-29,89,-1
10490,-1944,264,-672,-26,88,-1
10495,-1952,256,-648,-24,85,1
10500,-1952,256,-672,-25,86,1
10505,-1960,288,-664,-25,86,2
10510,-1960,296,-640,-25,86,2
10515,-1968,296,-656,-24,86,2
10520,-1968,280,-672,-18,91,0
10525,-1976,272,-656,-13,93,-1
10530,-1984,288,-672,-13,93,0
10535,-1968,288,-680,-15,95,1
10540,-1952,256,-648,-18,92,2
10545,-1960,280,-656,-20,89,2
10550,-1952,272,-664,-22,87,3
10555,-1976,272,-648,-22,84,4
10560,-1968,264,-664,-20,83,4
10565,-1944,248,-648,-18,85,7
10570,-1952,272,-656,-17,88,9
10575,-1952,288,-648,-17,89,10
10580,-1968,264,-624,-16,91,9
10585,-1960,296,-648,-16,93,10
10590,-1984,280,-656,-15,93,9
10595,-1976,288,-624,-15,96,9
10600,-1952,296,-640,-12,99,8
10605,-1960,264,-656,-10,103,9
10610,-1952,280,-624,-10,107,8
10615,-1968,304,-640,-9,111,7
10620,-1968,320,-664,-10,112,7
10625,-1960,304,-656,-11,116,5
10630,-1976,288,-664,-10,120,4
10635,-1968,280,-656,-8,126,2
10640,-1968,280,-672,-5,132,1
10645,-1968,312,-664,-4,136,1
10650,-1928,280,-656,-5,138,0
10655,-2000,320,-656,-6,143,0
10660,-1968,280,-664,-6,141,0
10665,-1944,280,-680,-10,142,0
10670,-1976,304,-664,-14,141,1
10675,-1936,280,-656,-16,138,0
10680,-1968,288,-656,-15,140,0
10685,-2000,288,-640,-16,140,1
10690,-1936,272,-648,-15,138,0
10695,-1944,304,-656,-11,138,0
10700,-1944,288,-680,-6,142,-2
10705,-1944,280,-696,-8,141,-3
10710,-1952,280,-656,-9,140,-3
10715,-1960,280,-688,-9,138,-2
10720,-1984,256,-680,-10,133,0
10725,-1960,280,-664,-14,124,0
10730,-1944,256,-680,0,122,-3
10735,-1952,280,-672,10,128,-2
10740,-1984,280,-688,9,132,-3
10745,-1968,288,-688,-1,131,-4
10750,-1976,304,-680,-7,129,-4
10755,-1960,296,-704,-8,123,-5
10760,-1984,280,-688,-10,123,-7
10765,-1992,304,-696,-10,124,-6
10770,-1952,272,-688,-11,121,-9
10775,-1968,264,-696,-13,118,-10
10780,-1976,288,-720,-17,116,-10
10785,-1944,288,-688,-18,115,-10
10790,-1952,264,-696,-20,114,-11
10795,-1992,304,-704,-21,113,-12
10800,-1952,264,-688,-21,108,-11
10805,-1944,288,-680,-22,103,-12
10810,-1976,264,-704,-21,100,-11
10815,-1944,280,-688,-18,97,-10
10820,-1952,272,-704,-19,94,-10
10825,-1960,280,-680,-21,94,-9
10830,-1952,288,-680,-24,90,-10
10835,-1944,288,-688,-25,88,-10
10840,-1952,256,-680,-26,81,-9
10845,-1928,256,-696,-26,77,-9
10850,-1936,288,-680,-25,78,-9
10855,-1952,256,-688,-19,81,-12
10860,-1960,296,-696,-17,83,-10
10865,-1976,296,-704,-18,80,-10
10870,-1952,280,-664,-16,78,-10
10875,-1960,296,-688,-15,76,-9
10880,-1960,288,-688,-14,75,-6
10885,-1968,288,-680,-11,71,-6
10890,-1960,288,-672,-12,68,-6
10895,-1968,272,-712,-12,67,-4
10900,-1944,264,-688,-14,63,-4
10905,-1960,304,-736,-14,64,-3
10910,-1968,312,-688,-15,63,-3
10915,-1960,280,-680,-15,63,-2
10920,-1968,304,-664,-12,67,-1
10925,-1976,288,-680,-9,72,0
10930,-1952,320,-672,-9,73,-1
10935,-1976,280,-688,-9,75,1
10940,-1944,264,-648,-8,73,3
10945,-1944,264,-680,-7,76,3
10950,-1952,288,-688,-9,77,4
10955,-1960,280,-712,-10,78,6
10960,-1936,296,-672,-11,80,6
10965,-1944,272,-680,-11,81,5
10970,-1960,296,-688,-11,83,4
10975,-1952,256,-656,-11,84,2
10980,-1968,288,-672,-9,84,2
10985,-1960,256,-680,-8,84,1
10990,-1952,288,-688,-7,84,1
10995,-1952,280,-688,-8,82,0
11000,-1944,288,-680,-7,82,3
11005,-1944,280,-680,-7,82,1
11010,-1960,288,-664,-8,83,3
11015,-1976,296,-688,-10,82,3
11020,-1960,296,-688,-8,85,4
11025,-1968,272,-704,-9,84,5
11030,-1952,288,-688,-12,81,5
11035,-1976,256,-704,-13,78,6
11040,-1968,256,-680,-11,73,7
11045,-1952,264,-680,-11,70,11
11050,-1960,256,-688,-10,66,12
11055,-1952,280,-720,-8,60,15
11060,-1952,296,-696,-6,55,17
11065,-1968,288,-712,-6,54,17
11070,-1960,280,-712,-7,50,17
11075,-1952,296,-744,-8,46,17
11080,-1968,296,-704,-10,44,16
11085,-1976,288,-688,-13,43,14
11090,-1984,304,-696,-14,38,14
11095,-1968,304,-680,-14,36,14
11100,-1960,296,-680,-16,35,14
11105,-1960,328,-696,-15,32,14
11110,-1944,288,-672,-16,34,12
11115,-1936,296,-672,-15,34,11
11120,-1952,288,-664,-14,34,10
11125,-1936,288,-672,-13,37,9
11130,-1952,288,-672,-12,38,7
11135,-1968,304,-688,-12,40,6
11140,-1960,280,-664,-10,39,6
11145,-1944,312,-696,-9,38,7
11150,-1920,280,-672,-8,35,7
11155,-1952,304,-680,-9,33,4
11160,-1960,280,-688,-10,32,1
11165,-1944,296,-680,-11,30,-2
11170,-1944,296,-672,-10,32,-4
11175,-1944,272,-672,-9,33,-6
11180,-1960,288,-656,-7,36,-8
11185,-1968,280,-672,-6,38,-9
11190,-1976,288,-664,-6,40,-10
11195,-1944,272,-664,-7,43,-11
11200,-1952,264,-720,-8,44,-9
11205,-1952,288,-688,-9,46,-10
11210,-1968,296,-696,-8,45,-7
11215,-1976,288,-680,-9,44,-6
11220,-1960,264,-672,-9,43,-4
11225,-1968,272,-672,-8,41,-3
11230,-1976,312,-680,-7,38,-1
11235,-1968,264,-688,-4,37,-1
11240,-1960,280,-680,-2,36,0
11245,-1976,272,-664,-5,34,0
11250,-1952,312,-680,-7,31,0
11255,-1960,288,-656,-5,30,-1
11260,-1952,312,-680,-3,32,-1
11265,-1952,280,-664,-3,34,-2
11270,-1976,272,-672,-2,38,-2
11275,-1976,288,-664,-3,39,-3
11280,-1952,256,-664,-2,41,-1
11285,-1936,264,-672,-1,42,0
11290,-1968,264,-672,0,42,2
11295,-1952,256,-688,0,41,4
11300,-1960,280,-632,3,42,5
11305,-1968,296,-688,4,43,9
11310,-1976,304,-672,7,42,10
11315,-1952,272,-664,9,42,12
11320,-1952,280,-640,11,44,10
11325,-1944,304,-664,13,48,10
11330,-1944,272,-648,13,49,9
11335,-1984,304,-688,15,50,9
11340,-1968,304,-680,14,48,8
11345,-1944,312,-672,8,45,8
11350,-1944,312,-664,-2,40,8
11355,-1952,304,-648,-9,38,9
11360,-1976,312,-664,-8,44,4
11365,-1960,280,-672,-6,48,2
11370,-1944,272,-648,-5,51,0
11375,-1952,296,-656,-2,57,0
11380,-1952,272,-672,0,61,-1
11385,-1960,288,-696,1,60,0
11390,-1976,288,-680,5,60,0
11395,-1984,288,-672,3,60,-1
11400,-1952,296,-672,5,60,-1
11405,-1952,280,-664,5,59,3
11410,-1984,312,-688,4,56,4
11415,-1952,280,-672,4,54,5
11420,-2008,288,-672,4,51,4
11425,-1952,296,-672,0,46,6
11430,-1952,312,-672,1,45,5
11435,-1968,280,-664,4,48,5
11440,-1960,288,-664,8,52,4
11445,-1976,304,-664,8,52,5
11450,-1952,280,-672,7,48,5
11455,-1968,280,-672,7,43,4
11460,-1968,304,-664,6,42,2
11465,-1944,288,-688,6,41,3
11470,-1976,280,-688,3,39,5
11475,-1952,304,-696,-3,37,3
11480,-1936,264,-648,-3,42,1
11485,-1960,296,-648,2,50,-2
11490,-1952,280,-680,2,53,0
11495,-1944,280,-672,2,55,1
11500,-1976,264,-680,2,55,1
11505,-1968,272,-664,5,53,2
11510,-1960,280,-656,6,47,2
11515,-1968,296,-672,1,44,3
11520,-1944,288,-672,-3,38,4
11525,-1952,368,-728,-11,32,5
11530,-1960,288,-664,-13,32,3
11535,-1944,264,-672,-9,35,3
11540,-1984,296,-672,-8,38,2
11545,-1976,296,-648,-8,41,1
11550,-1960,280,-656,-3,44,1
11555,-1968,288,-656,-1,48,2
11560,-1976,304,-632,1,48,2
11565,-1960,304,-664,3,44,1
11570,-1952,296,-656,0,44,0
11575,-1952,280,-648,0,43,1
11580,-1968,296,-688,3,42,1
11585,-1984,288,-648,3,42,2
11590,-1960,280,-688,1,38,3
11595,-1952,296,-672,-6,35,3
11600,-1936,240,-672,-6,35,3
11605,-1976,296,-672,-4,39,2
11610,-1968,288,-656,-4,38,3
11615,-1968,288,-680,-4,37,4
11620,-1968,280,-624,-10,35,4
11625,-1952,280,-656,-8,38,3
11630,-1960,304,-672,-3,40,2
11635,-1896,304,-696,-5,41,3
11640,-1976,288,-680,-8,40,1
11645,-2000,304,-680,-8,39,3
11650,-1960,272,-656,-8,38,3
11655,-1968,288,-656,-3,41,4
11660,-1968,280,-664,2,43,4
11665,-1976,288,-640,2,41,2
11670,-1968,288,-664,2,41,2
11675,-1976,312,-656,3,43,1
11680,-1976,312,-664,3,42,4
11685,-1960,288,-656,-3,36,4
11690,-1952,280,-648,-7,35,5
11695,-1968,304,-656,-8,37,6
11700,-1944,304,-648,-13,38,5
11705,-1976,280,-640,-14,42,5
11710,-1984,288,-664,-15,47,5
11715,-1976,264,-648,-15,47,5
11720,-1936,288,-680,-12,49,6
11725,-1968,280,-632,-20,44,5
11730,-1952,288,-648,-17,45,5
11735,-1976,288,-656,-16,46,5
11740,-1960,304,-680,-23,44,6
11745,-1952,288,-664,-29,39,6
11750,-1960,304,-648,-26,42,5
11755,-1968,288,-640,-20,43,3
11760,-2000,304,-664,-12,48,2
11765,-1976,304,-672,-10,50,3
11770,-1992,296,-632,-17,44,3
11775,-1952,296,-648,-18,45,2
11780,-1976,296,-648,-12,50,2
11785,-1960,288,-656,-11,53,1
11790,-1968,264,-648,-8,55,2
11795,-1992,288,-632,-7,57,4
11800,-1968,312,-632,-6,56,4
11805,-1984,304,-664,-7,56,6
11810,-1952,280,-648,-7,56,6
11815,-1960,312,-648,-6,56,6
11820,-1992,328,-672,-4,55,7
11825,-1968,288,-672,-2,55,5
11830,-1968,304,-680,-2,55,5
11835,-1968,344,-664,-3,54,3
11840,-1968,288,-640,-3,54,0
11845,-1968,264,-640,-9,49,-1
11850,-1984,304,-648,-14,47,-2
11855,-1968,304,-664,-15,46,-5
11860,-1984,312,-672,-11,53,-8
11865,-1992,280,-656,-8,58,-11
11870,-1992,304,-624,-7,60,-11
11875,-1952,288,-640,-8,62,-12
11880,-1976,288,-648,-7,66,-12
11885,-1976,304,-640,-7,70,-11
11890,-1968,296,-656,-10,72,-10
11895,-1968,296,-632,-17,72,-11
11900,-1976,280,-640,-19,73,-10
11905,-1960,304,-648,-16,72,-10
11910,-1976,272,-656,-10,69,-9
11915,-1944,272,-672,-9,65,-5
11920,-1952,280,-648,-12,60,-4
11925,-1952,304,-672,-12,59,-3
11930,-2008,320,-648,-13,54,-3
11935,-1984,272,-656,-17,50,-2
11940,-1976,264,-672,-17,48,-2
11945,-1976,312,-648,-20,45,-5
11950,-1976,296,-672,-24,45,-4
11955,-1968,288,-640,-25,46,-5
11960,-1992,336,-632,-20,48,-5
11965,-1976,296,-672,-14,51,-8
11970,-1968,296,-600,-12,53,-6
11975,-1960,296,-656,-8,56,-5
11980,-1960,264,-632,-8,57,-7
11985,-1968,280,-664,-6,58,-8
11990,-1976,288,-664,-9,56,-8
11995,-1968,296,-656,-15,57,-8
12000,-1952,288,-640,-22,54,-8
12005,-1976,312,-632,-21,57,-8
12010,-1976,288,-640,-19,62,-7
12015,-1952,280,-664,-21,62,-6
12020,-1968,296,-632,-23,61,-7
12025,-1960,288,-640,-19,62,-5
12030,-1968,296,-632,-15,63,-5
12035,-1968,296,-672,-13,64,-6
12040,-1952,272,-648,-10,64,-6
12045,-1968,288,-648,-11,65,-4
12050,-1952,288,-648,-13,67,-5
12055,-1960,288,-664,-12,63,-5
12060,-1992,288,-648,-12,61,-4
12065,-1936,272,-648,-10,63,-4
12070,-1936,296,-640,-8,62,-2
12075,-1984,296,-664,-10,61,0
12080,-1968,280,-648,-12,57,1
12085,-1952,280,-656,-15,57,3
12090,-1960,280,-608,-12,60,1
12095,-1968,304,-648,-8,62,0
12100,-1984,296,-640,-7,63,0
12105,-1984,296,-656,-5,61,-2
12110,-1960,288,-640,-4,61,-1
12115,-1984,320,-648,-6,59,-2
12120,-1984,304,-640,-8,60,-3
12125,-1960,320,-648,-8,60,-3
12130,-1976,304,-648,-9,61,-5
12135,-1976,304,-632,-9,63,-6
12140,-1960,296,-648,-11,67,-7
12145,-1952,296,-648,-14,70,-6
12150,-1968,304,-664,-16,70,-7
12155,-1952,280,-632,-18,70,-8
12160,-1968,280,-616,-16,74,-8
12165,-1928,288,-640,-15,75,-7
12170,-1976,304,-656,-12,75,-6
12175,-1984,288,-632,-10,74,-8
12180,-1936,288,-640,-9,73,-7
12185,-2000,304,-664,-8,73,-5
12190,-1984,296,-648,-7,72,-5
12195,-1960,304,-656,-7,71,-5
12200,-1968,296,-640,-7,70,-5
12205,-1984,296,-632,-7,69,-4
12210,-1960,288,-656,-6,68,-4
12215,-1976,288,-648,-8,66,-5
12220,-1968,320,-624,-10,67,-4
12225,-1976,304,-624,-11,67,-3
12230,-1952,288,-648,-13,68,-3
12235,-2000,304,-664,-14,67,-5
12240,-1976,280,-640,-14,66,-4
12245,-1952,264,-656,-14,68,-5
12250,-1984,288,-648,-13,67,-5
12255,-1976,272,-640,-13,67,-6
12260,-1976,288,-656,-13,68,-6
12265,-1968,304,-672,-14,68,-6
12270,-1952,304,-648,-15,68,-5
12275,-1992,304,-640,-16,68,-5
12280,-1968,272,-624,-19,66,-6
12285,-1984,288,-656,-20,64,-7
12290,-1952,280,-656,-20,63,-7
12295,-1976,256,-664,-20,62,-5
12300,-1968,288,-680,-20,60,-6
12305,-1976,288,-648,-20,57,-5
12310,-1968,296,-656,-20,55,-5
12315,-1976,280,-648,-21,53,-4
12320,-1952,272,-672,-22,52,-4
12325,-1968,296,-632,-21,50,-3
12330,-1976,296,-632,-22,48,-2
12335,-1976,288,-664,-22,46,-1
12340,-1960,304,-648,-22,45,-1
12345,-1984,296,-648,-22,45,-1
12350,-1944,256,-656,-23,44,-1
12355,-1960,264,-640,-23,42,0
12360,-1952,288,-640,-24,40,-2
12365,-1952,264,-648,-23,39,-2
12370,-1952,304,-648,-22,39,0
12375,-1976,288,-632,-21,38,-1
12380,-1960,288,-664,-22,38,-1
12385,-1976,304,-656,-23,40,0
12390,-1960,288,-632,-21,41,-1
12395,-2000,272,-648,-22,43,-1
12400,-1984,312,-648,-23,45,-1
12405,-1976,280,-632,-23,47,-2
12410,-1992,296,-648,-24,47,-2
12415,-1976,296,-648,-24,49,-3
12420,-1960,288,-616,-24,53,-4
12425,-1952,304,-624,-25,53,-6
12430,-1976,304,-632,-28,56,-7
12435,-1968,312,-640,-30,59,-7
12440,-1976,288,-584,-31,62,-9
12445,-1944,288,-624,-34,66,-11
12450,-1968,304,-648,-37,72,-10
12455,-1960,304,-632,-40,77,-12
12460,-1968,304,-616,-43,82,-14
12465,-1960,288,-632,-44,89,-16
12470,-1968,296,-608,-47,95,-19
12475,-1976,296,-624,-47,101,-19
12480,-1968,288,-640,-47,106,-20
12485,-1960,304,-632,-47,110,-20
12490,-1992,296,-648,-46,112,-20
12495,-1952,288,-624,-45,114,-18
12500,-1968,280,-616,-43,116,-18
12505,-1984,304,-640,-41,120,-17
12510,-1976,296,-640,-40,120,-15
12515,-1944,264,-608,-38,118,-15
12520,-1960,304,-640,-32,120,-14
12525,-1968,296,-640,-27,119,-13
12530,-1976,280,-632,-20,116,-12
12535,-1976,280,-648,-16,114,-13
12540,-1984,280,-656,-11,113,-12
12545,-1992,304,-632,-15,108,-10
12550,-1984,296,-640,-18,103,-10
12555,-1968,304,-648,-19,102,-13
12560,-1968,304,-656,-18,103,-12
12565,-1968,288,-664,-17,105,-13
12570,-1976,296,-664,-17,104,-13
12575,-1960,304,-640,-21,101,-12
12580,-1952,320,-640,-21,100,-13
12585,-1960,288,-616,-15,106,-16
12590,-1976,312,-664,-3,118,-19
12595,-1976,272,-656,-4,118,-19
12600,-1984,296,-656,-9,119,-20
12605,-1960,280,-664,-18,116,-22
12610,-1968,312,-664,-23,115,-21
12615,-1936,264,-632,-25,114,-20
12620,-1984,296,-664,-21,117,-21
12625,-2000,280,-680,-25,118,-20
12630,-1960,280,-664,-32,114,-19
12635,-1968,304,-672,-30,116,-21
12640,-1952,288,-664,-36,113,-21
12645,-1960,288,-648,-41,105,-18
12650,-1960,312,-648,-41,97,-17
12655,-1984,280,-672,-44,94,-18
12660,-1952,264,-648,-44,98,-19
12665,-1968,272,-648,-42,106,-18
12670,-1976,272,-640,-36,120,-21
12675,-1984,280,-656,-33,126,-22
12680,-1992,304,-640,-29,129,-21
12685,-1968,288,-656,-29,126,-20
12690,-1968,264,-672,-33,118,-18
12695,-1960,280,-656,-36,112,-17
12700,-1992,312,-672,-30,108,-15
12705,-1936,272,-656,-25,99,-13
12710,-1976,280,-672,-19,96,-12
12715,-1952,264,-648,-6,103,-13
12720,-1960,264,-648,-3,109,-12
12725,-1968,272,-672,-11,101,-11
12730,-1984,296,-648,-14,93,-8
12735,-1952,280,-640,-17,83,-6
12740,-1984,280,-648,-18,74,-6
12745,-1968,296,-648,-20,70,-5
12750,-1960,288,-640,-26,62,-3
12755,-1944,264,-664,-30,63,-3
12760,-1952,264,-672,-26,82,-4
12765,-1984,280,-672,-17,100,-5
12770,-1976,280,-656,-17,111,-5
12775,-1968,312,-704,-16,118,-4
12780,-1936,264,-640,-19,124,-5
12785,-1960,288,-704,-23,127,-6
12790,-1952,304,-712,-27,121,-5
12795,-1984,312,-680,-33,113,-7
12800,-1960,288,-656,-33,107,-6
12805,-1984,280,-640,-36,101,-7
12810,-1992,280,-688,-35,93,-7
12815,-1984,296,-664,-33,84,-8
12820,-1952,320,-696,-32,82,-7
12825,-1992,296,-664,-39,81,-10
12830,-1944,296,-672,-43,77,-9
12835,-1960,312,-680,-43,79,-10
12840,-1976,280,-656,-38,94,-12
12845,-1984,296,-664,-32,108,-13
12850,-1968,288,-640,-25,121,-15
12855,-1952,296,-672,-21,126,-16
12860,-1968,272,-632,-22,128,-17
12865,-1960,280,-680,-22,131,-16
12870,-1944,288,-664,-28,124,-14
12875,-1960,288,-672,-28,113,-13
12880,-1960,288,-688,-32,105,-14
12885,-1944,272,-664,-40,93,-12
12890,-1944,272,-672,-42,88,-12
12895,-1960,296,-680,-41,87,-12
12900,-1976,296,-672,-34,91,-15
12905,-1968,288,-680,-26,95,-13
12910,-1944,296,-688,-23,98,-14
12915,-1960,280,-696,-25,105,-15
12920,-1976,296,-656,-32,106,-16
12925,-1968,296,-688,-41,103,-17
12930,-1968,296,-672,-50,100,-16
12935,-1968,280,-656,-53,90,-15
12940,-1912,288,-640,-53,86,-17
12945,-1968,288,-664,-50,88,-17
12950,-1968,280,-664,-51,90,-15
12955,-1984,296,-688,-53,82,-14
12960,-1952,272,-656,-53,73,-13
12965,-1968,280,-672,-44,72,-11
12970,-1952,272,-672,-39,77,-9
12975,-1952,256,-696,-35,91,-11
12980,-1984,296,-688,-36,107,-10
12985,-1976,304,-680,-37,116,-9
12990,-1952,280,-672,-40,117,-10
12995,-1968,280,-680,-43,114,-11
13000,-1952,256,-656,-40,114,-12
13005,-1952,240,-680,-33,111,-13
13010,-1952,264,-688,-26,108,-13
13015,-1968,272,-664,-22,104,-12
13020,-1960,288,-696,-15,99,-10
13025,-1968,264,-672,-14,95,-7
13030,-1936,256,-672,-12,86,-5
13035,-1960,264,-680,-14,78,-6
13040,-1984,272,-672,-15,76,-5
13045,-1936,256,-696,-19,72,-4
13050,-1952,304,-688,-23,75,-4
13055,-1944,280,-696,-25,83,-2
13060,-1944,288,-680,-27,84,-3
13065,-1952,304,-712,-29,86,-3
13070,-1944,272,-688,-27,90,-4
13075,-1960,272,-672,-28,91,-5
13080,-1960,288,-688,-26,89,-6
13085,-1960,296,-680,-23,87,-6
13090,-1960,304,-672,-23,87,-8
13095,-1952,304,-680,-24,90,-7
13100,-1976,336,-696,-26,90,-5
13105,-1936,304,-712,-39,85,-3
13110,-1928,296,-680,-54,87,-8
13115,-1944,280,-672,-59,88,-8
13120,-1944,240,-672,-55,85,-7
13125,-1968,248,-656,-45,81,-7
13130,-1992,256,-672,-32,76,-7
13135,-1952,272,-680,-20,76,-6
13140,-1960,256,-680,-12,77,-5
13145,-1968,280,-680,-4,78,-3
13150,-1936,272,-672,-3,79,-1
13155,-1976,288,-680,-1,79,1
13160,-1944,256,-704,-1,77,3
13165,-1944,280,-736,-2,75,4
13170,-1976,296,-680,-1,71,4
13175,-1952,264,-680,-2,69,4
13180,-1936,272,-680,-1,66,4
13185,-1976,304,-720,-1,62,6
13190,-1968,272,-672,0,58,8
13195,-1976,296,-680,0,55,8
13200,-1944,264,-696,2,53,9
13205,-1976,304,-680,2,50,10
13210,-1944,304,-672,4,46,8
13215,-1936,288,-728,5,44,7
13220,-1968,280,-696,6,41,8
13225,-1952,288,-680,5,38,9
13230,-1928,272,-664,4,36,9
13235,-1944,296,-688,4,36,7
13240,-1928,272,-696,2,33,7
13245,-1960,288,-680,2,34,9
13250,-1944,280,-672,1,35,7
13255,-1944,280,-680,0,37,6
13260,-1960,288,-688,-1,35,8
13265,-1976,304,-688,-2,34,8
13270,-1968,240,-744,-2,37,7
13275,-1976,288,-688,-1,38,6
13280,-1944,280,-672,0,39,7
13285,-1992,272,-712,-1,40,8
13290,-1960,264,-680,-2,40,7
13295,-1960,288,-672,-2,36,9
13300,-1976,288,-680,-2,34,10
13305,-1944,264,-672,-3,32,11
13310,-1984,296,-672,1,31,10
13315,-1992,312,-704,2,30,13
13320,-1968,304,-688,2,29,14
13325,-1944,288,-664,1,26,13
13330,-1968,272,-688,5,26,13
13335,-1968,280,-680,9,25,13
13340,-1968,288,-672,10,24,14
13345,-1960,288,-680,10,22,12
13350,-1928,304,-672,11,21,14
13355,-1944,304,-688,13,21,14
13360,-1976,280,-680,15,19,12
13365,-1944,264,-664,16,18,12
13370,-1976,304,-648,13,16,11
13375,-1920,312,-680,12,12,13
13380,-1960,296,-672,15,13,10
13385,-1952,272,-672,17,13,8
13390,-1976,296,-664,20,16,9
13395,-1968,304,-696,19,15,8
13400,-1944,296,-656,18,16,8
13405,-1976,280,-696,16,19,7
13410,-1960,304,-632,12,20,6
13415,-1952,296,-656,12,22,5
13420,-1936,288,-664,11,26,6
13425,-1952,288,-664,9,30,6
13430,-1944,280,-656,5,27,7
13435,-1968,304,-664,3,26,6
13440,-1968,304,-672,3,25,8
13445,-1960,264,-640,4,25,10
13450,-1992,296,-656,8,25,10
13455,-1992,304,-680,11,26,10
13460,-1968,288,-672,12,27,9
13465,-1968,280,-680,16,29,10
13470,-1968,296,-640,18,29,9
13475,-1952,296,-648,21,28,9
13480,-1984,288,-640,23,24,9
13485,-1984,280,-672,24,24,10
13490,-1968,280,-656,20,21,8
13495,-1936,272,-656,18,19,9
13500,-1952,264,-656,18,24,9
13505,-1992,296,-664,20,31,8
13510,-1976,288,-648,21,36,8
13515,-1968,272,-656,16,37,5
13520,-1952,256,-664,6,34,5
13525,-1960,264,-640,4,36,6
13530,-1976,264,-656,7,44,7
13535,-1984,288,-672,13,45,9
13540,-1984,272,-672,14,41,10
13545,-1936,272,-680,13,36,14
13550,-1984,304,-672,16,34,15
13555,-1984,296,-664,19,31,15
13560,-1968,280,-664,23,23,17
13565,-1960,296,-656,30,21,16
13570,-1952,296,-664,35,25,12
13575,-1984,296,-632,36,29,11
13580,-2000,304,-648,39,32,10
13585,-1960,312,-648,36,25,11
13590,-1968,304,-688,31,23,10
13595,-2016,296,-624,25,22,9
13600,-1960,312,-616,17,22,7
13605,-1992,328,-672,10,21,7
13610,-1952,312,-672,-2,22,5
13615,-1952,288,-640,-2,32,4
13620,-1968,288,-648,-1,41,3
13625,-1968,296,-664,-5,40,4
13630,-1960,280,-640,-15,31,3
13635,-1968,288,-656,-13,30,2
13640,-1968,272,-632,-2,34,4
13645,-1952,264,-656,11,40,3
13650,-1992,288,-680,16,40,4
13655,-1968,304,-648,12,31,7
13660,-1976,296,-664,15,29,7
13665,-1960,296,-656,18,32,5
13670,-1984,296,-656,16,32,7
13675,-1960,296,-648,13,27,8
13680,-1968,296,-656,10,25,8
13685,-1976,312,-656,9,24,9
13690,-1984,272,-624,5,22,6
13695,-1992,296,-656,4,20,7
13700,-1968,312,-656,3,17,9
13705,-1960,264,-552,-4,16,7
13710,-1976,280,-640,-2,19,6
13715,-1976,304,-616,4,27,4
13720,-1976,296,-624,7,32,4
13725,-2000,288,-648,11,35,4
13730,-1960,280,-656,5,31,3
13735,-1960,304,-656,3,30,4
13740,-1976,320,-664,4,30,2
13745,-1952,304,-656,0,29,2
13750,-1976,272,-640,-10,29,1
13755,-1968,336,-632,-10,35,0
13760,-1952,296,-648,-13,39,-3
13765,-1968,280,-640,-16,40,-2
13770,-1976,288,-656,-23,40,-3
13775,-1960,288,-624,-23,40,-3
13780,-1976,288,-624,-19,41,-2
13785,-1976,288,-640,-13,42,-2
13790,-1968,264,-624,-7,44,-2
13795,-1992,288,-608,-1,44,0
13800,-1976,272,-624,4,45,1
13805,-1960,280,-648,7,45,5
13810,-1952,272,-600,4,40,6
13815,-1960,304,-608,4,41,5
13820,-1992,304,-656,2,39,6
13825,-1960,304,-632,-4,38,5
13830,-1968,288,-672,0,41,5
13835,-1976,288,-616,-7,39,6
13840,-1960,296,-648,-10,36,5
13845,-1968,304,-672,-13,34,5
13850,-1960,320,-656,-24,27,5
13855,-1992,336,-664,-39,20,4
13860,-1920,296,-608,-45,21,5
13865,-1976,312,-624,-31,31,1
13870,-2000,280,-616,-21,40,1
13875,-1976,296,-616,-17,41,0
13880,-1976,304,-592,-11,44,-1
13885,-1984,272,-608,-4,49,-4
13890,-2000,304,-632,3,55,-5
13895,-1992,288,-632,5,57,-5
13900,-1960,272,-640,5,55,-6
13905,-1976,272,-608,4,58,-5
13910,-1968,296,-664,1,58,-3
13915,-1968,328,-624,-6,57,-3
13920,-1968,304,-656,-11,57,-3
13925,-1952,312,-624,-21,53,-2
13930,-1960,296,-624,-29,49,-1
13935,-1976,280,-624,-23,53,-4
13940,-1976,280,-616,-14,56,-5
13945,-1968,296,-608,-4,61,-5
13950,-1984,288,-608,1,61,-5
13955,-1976,304,-640,0,60,-4
13960,-1976,280,-616,-11,55,-5
13965,-1952,296,-616,-15,57,-6
13970,-1992,288,-616,-8,63,-5
13975,-1968,304,-640,-6,67,-5
13980,-1976,312,-608,-7,65,-6
13985,-1976,288,-648,-9,67,-5
13990,-1976,296,-616,-8,66,-5
13995,-1992,312,-632,-10,65,-4
14000,-1984,280,-632,-23,56,-2
14005,-1952,296,-616,-30,52,-2
14010,-1976,280,-624,-33,53,-3
14015,-1984,288,-592,-27,59,-5
14020,-1984,264,-600,-16,65,-6
14025,-1968,264,-608,-10,66,-6
14030,-1984,280,-640,-6,67,-5
14035,-1984,304,-600,-6,69,-6
14040,-1968,304,-624,-4,68,-6
14045,-1968,288,-600,-6,64,-5
14050,-1968,280,-616,-9,66,-5
14055,-1992,312,-608,-7,66,-4
14060,-1976,288,-640,-7,66,-4
14065,-1976,304,-640,-5,68,-5
14070,-2000,288,-656,-3,67,-4
14075,-1968,288,-608,-4,65,-3
14080,-1992,288,-624,-5,65,-4
14085,-1976,312,-648,-10,61,-4
14090,-1984,288,-632,-15,60,-3
14095,-1968,280,-616,-18,59,-2
14100,-1984,288,-624,-19,58,-2
14105,-1976,272,-624,-21,57,-2
14110,-1992,304,-576,-19,59,-4
14115,-1976,288,-624,-16,62,-4
14120,-1976,272,-648,-12,62,-5
14125,-1960,296,-664,-12,62,-4
14130,-1960,304,-640,-13,62,-4
14135,-1976,296,-632,-17,61,-3
14140,-1984,296,-616,-15,63,-3
14145,-1984,296,-624,-13,67,-5
14150,-1992,296,-632,-10,68,-5
14155,-1976,280,-648,-9,68,-4
14160,-1992,288,-640,-8,66,-3
14165,-1976,296,-608,-10,67,-3
14170,-1976,296,-608,-12,66,-3
14175,-1984,272,-624,-15,65,-2
14180,-1992,280,-648,-19,64,-2
14185,-1968,280,-640,-20,65,-2
14190,-1976,328,-624,-20,63,-2
14195,-1984,280,-640,-18,66,-1
14200,-1960,304,-632,-17,64,-1
14205,-1976,264,-632,-17,64,-1
14210,-1984,312,-632,-16,66,0
14215,-1960,264,-648,-14,66,-4
14220,-1968,264,-632,-11,69,-3
14225,-1992,288,-648,-10,71,-3
14230,-1960,304,-632,-9,71,-5
14235,-1992,288,-632,-8,72,-4
14240,-1976,296,-592,-8,74,-6
14245,-1976,280,-664,-10,76,-4
14250,-1984,288,-616,-9,75,-6
14255,-1984,296,-640,-11,75,-4
14260,-1968,280,-624,-11,75,-4
14265,-1968,304,-640,-12,75,-3
14270,-2000,296,-608,-13,75,-3
14275,-1968,296,-608,-13,75,-3
14280,-1984,280,-648,-14,74,-4
14285,-1960,296,-624,-12,74,-1
14290,-1976,280,-640,-11,73,-2
14295,-1984,312,-648,-9,72,-3
14300,-1976,312,-544,-9,74,-2
14305,-1992,312,-640,-7,74,-3
14310,-1976,312,-624,-8,73,-4
14315,-1968,280,-632,-7,71,-4
14320,-1960,280,-608,-7,72,-2
14325,-1992,288,-616,-7,73,-3
14330,-1976,304,-608,-7,72,-2
14335,-1984,288,-640,-10,74,0
14340,-1960,288,-616,-10,73,0
14345,-1976,272,-632,-12,74,1
14350,-1960,280,-600,-11,73,2
14355,-1968,280,-648,-9,76,3
14360,-1992,288,-632,-10,76,4
14365,-1952,304,-640,-7,75,4
14370,-1984,304,-648,-6,73,5
14375,-2000,320,-640,-6,72,4
14380,-1936,280,-632,-8,69,2
14385,-1992,296,-640,-8,66,2
14390,-1984,312,-672,-9,64,1
14395,-1984,304,-632,-11,61,0
14400,-1976,304,-632,-12,59,0
14405,-1992,288,-648,-12,57,-1
14410,-1960,304,-648,-14,56,-1
14415,-1992,304,-616,-15,54,-1
14420,-2000,320,-640,-18,52,-1
14425,-1968,272,-624,-23,54,-3
14430,-1992,304,-584,-24,58,-3
14435,-1960,288,-584,-20,66,-4
14440,-1968,296,-624,-18,70,-5
14445,-1976,304,-592,-15,72,-7
14450,-1968,272,-608,-14,74,-7
14455,-1968,328,-600,-14,73,-7
14460,-1968,304,-648,-14,74,-6
14465,-1960,280,-608,-14,73,-6
14470,-2000,296,-616,-13,70,-5
14475,-1984,280,-632,-14,68,-3
14480,-2000,296,-648,-13,65,-3
14485,-1968,280,-600,-12,64,-4
14490,-1976,288,-608,-11,61,-5
14495,-1984,296,-664,-10,58,-5
14500,-1968,296,-656,-13,57,-7
14505,-1984,296,-608,-24,54,-5
14510,-1992,280,-616,-26,56,-5
14515,-1968,280,-616,-26,57,-5
14520,-1984,280,-616,-25,60,-6
14525,-1960,288,-640,-23,60,-6
14530,-1968,296,-608,-25,60,-6
14535,-1984,280,-608,-24,62,-5
14540,-1984,296,-600,-22,65,-6
14545,-1984,296,-640,-18,65,-6
14550,-1968,320,-640,-16,66,-5
14555,-2000,280,-624,-14,66,-5
14560,-1976,320,-648,-16,64,-3
14565,-1976,320,-632,-21,62,-1
14570,-1992,288,-632,-27,62,-1
14575,-1960,304,-632,-30,60,-1
14580,-1976,304,-592,-30,59,-2
14585,-1984,272,-616,-27,60,-3
14590,-1984,288,-624,-21,62,-4
14595,-1984,304,-600,-17,65,-3
14600,-1984,312,-600,-15,64,-5
14605,-1976,280,-616,-14,64,-4
14610,-1984,288,-616,-14,65,-5
14615,-2000,288,-632,-13,65,-4
14620,-1968,280,-616,-11,66,-3
14625,-1976,296,-624,-9,67,-1
14630,-1952,272,-680,-9,68,-2
14635,-1984,280,-608,-10,68,0
14640,-1984,296,-632,-8,67,1
14645,-1984,296,-600,-9,66,0
14650,-1976,304,-640,-11,64,0
14655,-2016,328,-632,-12,63,0
14660,-1952,280,-632,-12,63,0
14665,-1976,296,-640,-12,63,-1
14670,-1984,304,-648,-13,63,-2
14675,-1960,288,-624,-17,61,-2
14680,-1976,304,-632,-17,64,-4
14685,-1984,304,-584,-18,64,-6
14690,-1984,296,-600,-19,66,-7
14695,-1976,280,-624,-18,67,-6
14700,-1992,296,-616,-17,70,-6
14705,-1984,304,-616,-19,72,-6
14710,-1968,304,-640,-18,72,-6
14715,-1968,304,-616,-17,73,-5
14720,-1944,288,-600,-16,74,-7
14725,-1976,296,-624,-14,73,-4
14730,-1952,296,-624,-13,75,-4
14735,-1976,280,-608,-14,74,-4
14740,-1984,320,-632,-14,75,-3
14745,-1952,280,-624,-14,75,-3
14750,-1976,288,-640,-15,73,-1
14755,-1984,280,-624,-15,73,-2
14760,-1976,296,-632,-14,71,-2
14765,-1984,296,-608,-12,70,-1
14770,-1968,312,-624,-12,70,0
14775,-1976,304,-616,-13,69,0
14780,-1968,288,-600,-15,68,1
14785,-1976,320,-632,-16,69,1
14790,-1960,296,-624,-20,70,0
14795,-1992,312,-600,-23,72,-2
14800,-1984,296,-632,-27,74,-3
14805,-1976,320,-616,-31,75,-5
14810,-1984,304,-632,-36,78,-7
14815,-1976,328,-608,-42,81,-10
14820,-1976,304,-608,-46,86,-12
14825,-1992,320,-632,-51,93,-13
14830,-1976,320,-616,-57,100,-16
14835,-1984,320,-608,-62,106,-18
14840,-1984,320,-616,-66,112,-19
14845,-1992,304,-568,-69,116,-19
14850,-1976,296,-600,-72,121,-23
14855,-1960,288,-600,-75,127,-24
14860,-1968,312,-632,-75,131,-21
14865,-1960,272,-640,-75,136,-23
14870,-1968,296,-624,-76,140,-22
14875,-1976,296,-616,-73,141,-21
14880,-1968,280,-632,-67,145,-22
14885,-1968,296,-600,-61,147,-23
14890,-1992,272,-632,-56,148,-21
14895,-1984,288,-608,-55,138,-17
14900,-1936,272,-576,-54,133,-16
14905,-1960,272,-624,-38,134,-17
14910,-1984,272,-624,-28,134,-17
14915,-1952,272,-640,-23,129,-14
14920,-1968,272,-632,-17,127,-15
14925,-1960,280,-648,-9,127,-15
14930,-1968,288,-608,-10,123,-13
14935,-1952,288,-640,-12,118,-12
14940,-1976,320,-640,-11,119,-12
14945,-1968,288,-624,-10,119,-14
14950,-1944,264,-688,-6,120,-14
14955,-1992,328,-664,-10,116,-14
14960,-1968,304,-672,-17,114,-14
14965,-1960,280,-664,-22,114,-14
14970,-1936,304,-608,-30,117,-16
14975,-1968,280,-656,-22,132,-16
14980,-2000,312,-656,-22,136,-19
14985,-1976,280,-656,-29,129,-17
14990,-1968,288,-672,-33,126,-16
14995,-1960,280,-632,-34,127,-16
