timestamp,accel_x,accel_y,accel_z,gyro_x,gyro_y,gyro_z
0,-168,-2016,344,-135,95,-31
5,-136,-2048,352,-139,94,-29
10,-136,-2024,336,-143,92,-25
15,-128,-2032,336,-150,89,-24
20,-136,-2000,336,-155,88,-21
25,-128,-2096,320,-161,88,-20
30,-136,-2032,304,-164,88,-20
35,-128,-2024,328,-163,90,-21
40,-136,-2016,312,-157,93,-22
45,-120,-2016,272,-147,96,-21
50,-112,-2008,328,-134,102,-21
55,-80,-2048,296,-117,107,-19
60,-112,-2016,320,-99,112,-15
65,-120,-2048,312,-81,115,-11
70,-120,-2024,280,-67,117,-9
75,-112,-2008,312,-55,118,-6
80,-128,-2016,296,-48,118,-4
85,-120,-2016,312,-47,114,-4
90,-136,-1992,256,-50,111,-4
95,-128,-2000,304,-52,106,-4
100,-136,-2000,280,-60,104,-4
105,-136,-2016,344,-65,103,-3
110,-120,-2016,320,-69,101,-5
115,-120,-2024,272,-71,101,-6
120,-144,-1992,304,-73,102,-8
125,-136,-2008,312,-73,103,-10
130,-112,-1992,280,-74,102,-10
135,-152,-1976,304,-75,106,-14
140,-160,-2000,304,-75,108,-18
145,-144,-1984,312,-73,110,-20
150,-128,-1992,296,-72,109,-23
155,-152,-1984,296,-70,110,-25
160,-136,-2008,312,-68,112,-26
165,-136,-2008,312,-67,112,-28
170,-128,-1992,272,-67,114,-29
175,-152,-1992,272,-67,112,-28
180,-136,-1992,288,-70,111,-27
185,-144,-2008,288,-74,111,-27
190,-144,-2000,288,-78,108,-26
195,-144,-2008,288,-82,107,-26
200,-136,-2016,304,-84,106,-25
205,-152,-2024,240,-86,104,-23
210,-136,-2016,264,-90,103,-23
215,-160,-2016,264,-90,101,-21
220,-160,-2016,272,-90,98,-20
225,-144,-2008,256,-87,97,-20
230,-152,-2008,296,-82,95,-21
235,-160,-1992,264,-78,94,-23
240,-144,-2032,304,-71,92,-21
245,-152,-2008,288,-67,90,-22
250,-152,-2000,280,-62,88,-24
255,-152,-2000,264,-60,86,-24
260,-152,-2008,256,-60,85,-23
265,-152,-2008,272,-58,83,-22
270,-152,-2016,256,-61,81,-23
275,-128,-2032,280,-61,82,-22
280,-152,-2000,280,-64,80,-22
285,-136,-2024,288,-67,78,-21
290,-144,-2016,280,-69,75,-20
295,-144,-2032,288,-71,73,-21
300,-144,-2048,296,-71,71,-21
305,-136,-2008,280,-72,67,-21
310,-136,-2016,288,-71,65,-21
315,-152,-2000,280,-73,63,-19
320,-136,-2000,280,-73,64,-16
325,-128,-2016,272,-71,64,-15
330,-144,-2016,264,-67,66,-15
335,-120,-2040,280,-60,63,-12
340,-104,-2040,280,-51,59,-10
345,-96,-2016,264,-41,57,-9
350,-128,-2008,264,-33,54,-7
355,-112,-2040,256,-29,52,-9
360,-104,-2016,280,-27,50,-10
365,-104,-2008,256,-30,50,-12
370,-136,-2000,296,-32,52,-13
375,-120,-2016,256,-35,52,-13
380,-128,-2016,288,-38,53,-13
385,-112,-2008,296,-38,54,-13
390,-104,-2032,288,-39,56,-13
395,-128,-2024,304,-40,59,-14
400,-128,-2008,312,-39,59,-14
405,-120,-2008,264,-38,61,-15
410,-128,-2000,288,-37,61,-14
415,-112,-2024,240,-35,60,-15
420,-128,-2032,272,-35,60,-12
425,-136,-2016,272,-33,60,-12
430,-112,-2016,272,-31,57,-9
435,-120,-2032,240,-27,56,-6
440,-120,-2056,288,-21,56,-6
445,-104,-2040,248,-12,56,-4
450,-88,-2032,304,-7,53,-3
455,-112,-2008,288,-3,52,-4
460,-112,-2056,304,-3,51,-2
465,-120,-2032,272,-3,51,-1
470,-104,-2016,288,-5,51,-2
475,-120,-2024,296,-5,53,-1
480,-136,-2024,288,-6,54,1
485,-120,-2008,264,-6,55,2
490,-120,-2000,304,-5,57,2
495,-120,-2024,312,-4,57,5
500,-104,-2040,280,-5,58,7
505,-112,-2024,288,-5,61,8
510,-144,-2024,272,-6,64,7
515,-136,-2040,264,-4,65,8
520,-128,-2024,288,-3,67,7
525,-112,-2016,264,-2,68,7
530,-136,-1992,264,-1,70,7
535,-136,-2016,296,0,71,8
540,-128,-2008,264,1,71,9
545,-136,-2008,256,2,73,9
550,-144,-2008,272,4,71,10
555,-120,-2016,272,5,69,12
560,-136,-2016,272,5,68,12
565,-144,-2072,264,5,67,12
570,-136,-2024,296,3,66,12
575,-120,-2016,272,1,67,13
580,-136,-1984,288,-1,67,12
585,-136,-1984,256,-2,68,12
590,-136,-2000,288,-1,68,14
595,-128,-2008,256,-3,71,13
600,-128,-2008,272,-3,74,12
605,-144,-1976,280,-7,76,12
610,-136,-2000,272,-8,77,11
615,-152,-2024,272,-10,79,10
620,-144,-2016,272,-12,82,9
625,-144,-2032,256,-11,84,9
630,-128,-2032,312,-10,84,11
635,-128,-2056,248,-10,83,11
640,-136,-2024,272,-8,83,13
645,-136,-2016,312,-11,81,13
650,-144,-2016,288,-14,79,10
655,-144,-2008,288,-19,77,7
660,-128,-2008,272,-20,77,5
665,-160,-2000,296,-18,77,3
670,-120,-2016,264,-14,77,1
675,-136,-2032,328,-6,77,-1
680,-152,-2000,256,1,80,0
685,-144,-2000,280,7,81,-1
690,-128,-2000,240,13,81,0
695,-136,-2016,280,17,80,1
700,-144,-2008,288,19,77,2
705,-128,-2040,272,18,77,0
710,-120,-2048,312,17,75,0
715,-144,-2024,296,13,74,1
720,-152,-2016,296,8,72,-1
725,-144,-2008,280,-1,69,-1
730,-152,-2016,280,-7,67,-2
735,-112,-2040,272,-10,66,-2
740,-144,-2008,296,-13,65,-2
745,-152,-2008,288,-13,66,-3
750,-144,-2008,280,-11,66,-3
755,-136,-2008,288,-7,66,-6
760,-136,-2008,296,-3,65,-6
765,-136,-2032,296,3,65,-7
770,-152,-1992,288,10,64,-10
775,-152,-2024,312,16,63,-11
780,-136,-2000,320,21,62,-13
785,-136,-2000,304,25,63,-13
790,-136,-1992,296,26,65,-12
795,-152,-2000,288,24,66,-12
800,-128,-2016,304,22,66,-11
805,-144,-2024,304,21,67,-8
810,-120,-2048,312,20,68,-8
815,-128,-2016,296,21,68,-6
820,-120,-2040,296,19,70,-6
825,-128,-2016,296,17,71,-6
830,-128,-2024,272,17,70,-2
835,-128,-2032,296,19,70,0
840,-120,-2024,272,19,68,1
845,-136,-2016,280,19,67,1
850,-136,-2016,272,22,68,3
855,-160,-2024,272,24,67,4
860,-152,-2016,264,26,67,4
865,-152,-2000,232,28,68,3
870,-152,-2008,320,32,67,3
875,-136,-2024,288,36,66,3
880,-144,-2000,328,41,65,4
885,-136,-2000,280,44,65,4
890,-128,-2008,280,46,67,4
895,-136,-2000,296,46,68,5
900,-144,-2000,288,44,69,5
905,-104,-2032,312,39,69,7
910,-136,-2024,312,34,69,7
915,-128,-2008,304,29,70,6
920,-120,-2016,296,24,69,7
925,-120,-2016,304,19,70,6
930,-160,-2008,312,16,70,6
935,-104,-2008,320,11,71,4
940,-128,-2008,288,7,71,5
945,-144,-2000,280,2,73,5
950,-144,-1992,288,-3,76,5
955,-136,-2040,256,-7,79,5
960,-144,-2008,264,-10,80,5
965,-136,-2024,280,-11,81,5
970,-120,-2032,272,-10,80,5
975,-144,-2024,280,-7,79,4
980,-136,-2016,328,-2,76,6
985,-120,-2024,264,3,73,5
990,-128,-2040,288,5,69,4
995,-144,-2024,280,6,64,5
1000,-120,-2016,312,5,61,4
1005,-56,-2056,328,4,58,3
1010,-144,-2000,272,3,59,2
1015,-160,-1992,288,-1,59,2
1020,-160,-1992,288,-2,60,0
1025,-128,-2008,312,-2,61,-1
1030,-144,-2000,304,-1,63,-1
1035,-144,-2032,320,1,64,-1
1040,-144,-2008,312,2,66,-2
1045,-152,-2008,280,-1,66,0
1050,-144,-2008,288,-3,66,0
1055,-128,-2024,288,-7,69,3
1060,-144,-1992,296,-10,69,1
1065,-120,-2016,320,-11,71,2
1070,-128,-2032,272,-12,73,1
1075,-152,-2032,288,-10,71,2
1080,-136,-2016,320,-9,70,1
1085,-120,-2016,280,-10,69,1
1090,-144,-2032,312,-9,68,1
1095,-136,-2016,304,-6,65,0
1100,-160,-2016,312,-5,64,2
1105,-128,-1992,272,-2,64,2
1110,-136,-2040,344,2,63,3
1115,-136,-2016,336,6,64,1
1120,-152,-2024,320,9,64,3
1125,-128,-2016,336,12,65,3
1130,-96,-2024,312,15,67,2
1135,-120,-2032,320,16,69,2
1140,-120,-2024,336,16,69,3
1145,-144,-1992,320,14,68,2
1150,-136,-2024,288,13,68,4
1155,-144,-2000,304,9,68,3
1160,-128,-2008,320,9,66,4
1165,-128,-2000,336,8,68,4
1170,-120,-2032,328,6,67,3
1175,-160,-2024,336,7,66,3
1180,-136,-2016,304,6,67,3
1185,-120,-2016,328,7,68,2
1190,-152,-2008,304,6,70,1
1195,-112,-2000,312,6,69,1
1200,-152,-2008,304,6,70,0
1205,-128,-2000,320,7,68,1
1210,-136,-2000,328,7,68,0
1215,-152,-2040,312,4,70,1
1220,-192,-2040,320,4,68,3
1225,-136,-2016,328,4,65,3
1230,-136,-2000,288,5,64,2
1235,-152,-2000,304,5,64,1
1240,-136,-1984,304,6,64,0
1245,-120,-2016,304,6,63,0
1250,-136,-1984,336,5,63,0
1255,-128,-2032,312,6,63,-1
1260,-160,-2000,320,4,65,0
1265,-136,-2016,312,3,66,-1
1270,-144,-2016,296,2,67,-1
1275,-144,-2008,320,1,67,-3
1280,-128,-2000,312,-1,69,-2
1285,-120,-2008,304,-5,66,-2
1290,-160,-2000,312,-10,67,-2
1295,-152,-2024,320,-15,65,-3
1300,-152,-2024,296,-17,68,-3
1305,-136,-2024,304,-18,68,-2
1310,-136,-2032,320,-15,68,-1
1315,-144,-2016,320,-13,69,1
1320,-136,-2024,320,-12,68,1
1325,-144,-2016,296,-11,66,0
1330,-168,-1976,256,-12,64,0
1335,-144,-2000,304,-14,61,-2
1340,-136,-2000,304,-11,59,-5
1345,-144,-1976,288,-7,60,-6
1350,-136,-2000,312,-3,59,-8
1355,-120,-2008,312,2,61,-9
1360,-152,-1992,328,6,64,-10
1365,-136,-2000,328,11,64,-9
1370,-136,-2024,328,13,65,-8
1375,-144,-2008,304,15,68,-8
1380,-176,-2032,288,11,69,-7
1385,-136,-2024,320,7,71,-5
1390,-152,-2032,344,0,69,-5
1395,-144,-2016,328,-8,66,-4
1400,-128,-2024,312,-17,66,-3
1405,-128,-2000,344,-23,66,-1
1410,-144,-2024,312,-27,66,-1
1415,-144,-2016,312,-26,68,0
1420,-168,-2008,312,-20,69,0
1425,-144,-1992,328,-9,68,-2
1430,-144,-1976,304,2,69,-2
1435,-136,-1992,304,11,68,-4
1440,-104,-2000,328,19,68,-6
1445,-152,-2000,312,25,68,-10
1450,-160,-2000,304,29,66,-12
1455,-152,-2008,344,32,66,-15
1460,-152,-2000,328,33,67,-15
1465,-104,-2016,344,32,66,-15
1470,-160,-1992,328,29,66,-15
1475,-144,-2000,328,24,66,-13
1480,-128,-2056,312,18,67,-12
1485,-120,-2032,336,11,69,-12
1490,-128,-2008,336,7,70,-10
1495,-128,-2016,312,5,71,-8
1500,-144,-2008,312,5,73,-9
1505,-120,-2016,328,4,73,-8
1510,-128,-2008,320,3,71,-6
1515,-120,-2008,320,4,72,-6
1520,-128,-1984,304,3,71,-5
1525,-152,-1984,320,4,71,-5
1530,-136,-1984,328,6,71,-5
1535,-144,-1992,312,9,70,-6
1540,-136,-1984,288,9,69,-7
1545,-128,-2000,360,10,68,-5
1550,-112,-2032,320,10,67,-3
1555,-144,-2008,296,9,67,-3
1560,-120,-1992,328,8,68,-2
1565,-128,-2016,328,7,69,-2
1570,-144,-2016,336,7,68,-1
1575,-128,-1992,304,7,70,-1
1580,-136,-2024,320,7,70,1
1585,-128,-2008,320,5,71,0
1590,-136,-2008,344,5,71,1
1595,-144,-2008,336,5,71,2
1600,-144,-2016,336,5,70,-1
1605,-136,-2000,304,4,68,-2
1610,-152,-1992,288,2,68,-3
1615,-144,-1984,320,-3,68,-3
1620,-128,-2008,328,-6,67,-4
1625,-120,-2008,352,-11,68,-4
1630,-128,-2008,336,-15,68,-4
1635,-136,-2000,328,-17,68,-3
1640,-136,-2016,336,-16,67,-1
1645,-128,-2024,344,-13,66,-1
1650,-144,-2032,328,-11,64,0
1655,-144,-1984,352,-5,63,0
1660,-160,-2008,320,-3,61,-1
1665,-128,-2024,328,-3,61,0
1670,-112,-1992,304,-2,61,-1
1675,-120,-2008,328,-3,61,-2
1680,-136,-2000,312,-5,61,-2
1685,-144,-1992,320,-7,64,-3
1690,-152,-2000,336,-7,63,-4
1695,-136,-2024,304,-7,64,-5
1700,-112,-2000,352,-7,64,-5
1705,-128,-2000,344,-7,66,-5
1710,-136,-1992,344,-7,66,-7
1715,-128,-1984,304,-9,67,-7
1720,-160,-2016,336,-9,68,-6
1725,-144,-1992,328,-10,68,-7
1730,-120,-2000,336,-10,70,-6
1735,-160,-2000,328,-9,71,-5
1740,-128,-2024,304,-7,70,-4
1745,-120,-2024,328,-5,70,-7
1750,-128,-2008,312,-3,69,-4
1755,-104,-2000,320,0,69,-5
1760,-112,-2016,304,6,69,-5
1765,-112,-2056,368,10,67,-6
1770,-120,-2024,320,12,66,-5
1775,-136,-2024,328,13,65,-6
1780,-144,-2000,336,13,65,-5
1785,-144,-2008,328,13,65,-6
1790,-136,-2000,336,10,66,-6
1795,-144,-2016,328,9,66,-6
1800,-168,-1992,312,7,68,-6
1805,-152,-2000,344,7,68,-7
1810,-136,-2008,336,7,69,-6
1815,-144,-2000,328,4,72,-6
1820,-128,-2032,328,4,72,-6
1825,-136,-2008,320,4,72,-6
1830,-128,-2008,320,5,73,-8
1835,-152,-1992,328,7,73,-8
1840,-128,-1992,320,9,74,-8
1845,-144,-2008,328,10,73,-9
1850,-152,-2000,320,12,73,-8
1855,-136,-2000,328,14,73,-8
1860,-128,-2024,312,13,71,-8
1865,-128,-2016,336,13,70,-7
1870,-160,-1992,328,13,68,-7
1875,-128,-2016,248,10,67,-8
1880,-128,-1992,312,10,66,-7
1885,-128,-2024,336,9,64,-6
1890,-128,-1992,336,7,62,-6
1895,-136,-2008,328,9,61,-5
1900,-144,-1984,344,10,61,-4
1905,-136,-1992,328,10,61,-4
1910,-136,-2000,344,12,61,-4
1915,-144,-2000,344,13,60,-5
1920,-144,-2016,312,15,62,-5
1925,-128,-2016,344,18,62,-6
1930,-136,-2016,296,21,63,-5
1935,-96,-2008,336,23,64,-5
1940,-136,-2000,320,25,65,-6
1945,-136,-2000,336,25,66,-5
1950,-128,-1984,344,26,67,-6
1955,-120,-1984,344,24,68,-6
1960,-128,-2008,344,20,67,-7
1965,-112,-2008,344,18,68,-6
1970,-136,-2008,320,14,66,-7
1975,-128,-2000,336,11,65,-5
1980,-128,-2008,352,8,65,-5
1985,-128,-2048,360,6,64,-5
1990,-128,-2048,336,4,63,-4
1995,-128,-2000,344,6,63,-5
2000,-136,-1992,336,6,66,-5
2005,-168,-2000,320,6,66,-5
2010,-152,-2000,336,8,67,-6
2015,-136,-2000,328,9,68,-7
2020,-136,-2016,336,11,66,-8
2025,-120,-2024,328,18,69,-8
2030,-136,-2024,344,23,71,-7
2035,-160,-2000,336,27,72,-7
2040,-128,-1984,344,31,74,-6
2045,-104,-2000,328,32,73,-6
2050,-120,-1992,344,32,72,-7
2055,-128,-1992,328,30,70,-5
2060,-136,-1984,344,25,66,-8
2065,-144,-1992,360,22,64,-9
2070,-120,-2000,320,18,64,-10
2075,-128,-2008,328,17,65,-12
2080,-144,-1992,368,15,64,-11
2085,-136,-2008,344,17,67,-10
2090,-128,-2024,336,14,69,-9
2095,-112,-2040,344,16,71,-7
2100,-144,-2008,352,18,73,-5
2105,-120,-2008,352,19,77,-4
2110,-136,-2056,344,21,77,-4
2115,-168,-2000,344,21,79,-2
2120,-160,-2024,344,21,80,-2
2125,-128,-2016,344,23,77,0
2130,-128,-2008,336,27,77,-1
2135,-128,-2016,352,31,74,-1
2140,-136,-1992,336,36,74,-1
2145,-136,-2000,360,42,75,-2
2150,-128,-1992,336,47,76,-1
2155,-128,-1992,312,49,77,-2
2160,-120,-2000,376,51,74,-4
2165,-136,-1992,352,51,74,-6
2170,-136,-1992,360,46,73,-9
2175,-128,-1984,368,42,73,-10
2180,-152,-1984,352,35,72,-12
2185,-152,-2000,352,30,74,-12
2190,-128,-2000,360,24,74,-13
2195,-128,-2000,344,20,74,-15
2200,-120,-1992,368,19,74,-15
2205,-144,-2008,352,21,74,-16
2210,-120,-2016,344,23,75,-17
2215,-128,-2008,352,29,75,-18
2220,-136,-2008,352,35,77,-18
2225,-128,-1984,336,40,79,-18
2230,-128,-2016,344,44,78,-18
2235,-136,-2008,360,45,78,-17
2240,-152,-1992,376,43,79,-18
2245,-160,-1992,376,42,80,-17
2250,-112,-1984,368,39,80,-16
2255,-120,-2008,336,36,81,-16
2260,-120,-1992,368,35,81,-17
2265,-128,-2000,344,34,82,-17
2270,-120,-2008,344,37,82,-17
2275,-120,-2000,360,40,81,-17
2280,-120,-1992,360,42,81,-17
2285,-128,-1992,328,47,81,-16
2290,-120,-1992,352,51,80,-15
2295,-128,-2008,352,54,82,-14
2300,-112,-2008,336,58,82,-13
2305,-120,-2000,376,60,82,-9
2310,-104,-2008,400,60,84,-8
2315,-128,-2008,344,62,83,-6
2320,-128,-1992,352,60,83,-4
2325,-152,-1992,344,60,82,-4
2330,-152,-1960,360,59,81,-4
2335,-128,-2008,392,54,82,-4
2340,-144,-1984,336,50,80,-4
2345,-112,-1984,384,45,79,-4
2350,-136,-1984,368,40,79,-3
2355,-120,-2008,376,38,79,-4
2360,-120,-1992,360,35,76,-3
2365,-144,-2008,336,33,75,-3
2370,-136,-1992,360,31,74,-3
2375,-136,-2000,368,30,72,-3
2380,-128,-1992,352,27,72,-2
2385,-128,-2000,368,25,73,-3
2390,-128,-2000,376,24,74,-2
2395,-136,-1992,376,23,74,-2
2400,-112,-1992,368,21,75,-3
2405,-120,-1992,368,22,74,-2
2410,-136,-1992,376,22,75,-2
2415,-152,-1984,376,25,75,-3
2420,-136,-2000,384,28,74,-5
2425,-128,-2008,392,31,73,-5
2430,-128,-1992,384,34,73,-7
2435,-144,-2000,376,35,72,-8
2440,-152,-1968,384,34,73,-9
2445,-128,-1968,384,34,73,-10
2450,-128,-2000,384,30,74,-10
2455,-128,-2000,384,27,75,-11
2460,-120,-2008,384,23,75,-11
2465,-152,-2000,360,19,73,-11
2470,-120,-1984,384,17,72,-9
2475,-136,-2008,368,15,72,-8
2480,-144,-1976,400,15,70,-7
2485,-144,-1984,400,12,68,-5
2490,-152,-2000,360,12,66,-5
2495,-144,-1992,392,9,65,-4
2500,-128,-1992,376,8,63,-2
2505,-112,-2008,416,7,61,-3
2510,-120,-1984,392,4,60,-1
2515,-112,-2000,368,2,60,-1
2520,-136,-2016,384,1,60,0
2525,-144,-1984,384,-4,60,1
2530,-136,-1944,368,-5,60,2
2535,-128,-1976,368,-6,61,2
2540,-112,-2016,392,-9,62,4
2545,-120,-2000,368,-8,62,5
2550,-120,-1984,368,-7,62,7
2555,-112,-1984,376,-7,64,6
2560,-128,-1984,376,-7,64,8
2565,-128,-1984,384,-8,63,9
2570,-128,-1992,376,-10,62,9
2575,-136,-1992,368,-13,62,10
2580,-104,-1992,376,-16,62,7
2585,-120,-2016,392,-20,63,7
2590,-136,-2008,352,-24,62,7
2595,-144,-2000,368,-27,62,7
2600,-136,-1992,408,-29,63,7
2605,-136,-2008,376,-31,64,6
2610,-128,-1992,392,-32,65,8
2615,-128,-1976,376,-31,68,7
2620,-136,-1984,392,-30,68,8
2625,-136,-1984,368,-28,71,7
2630,-104,-2000,384,-27,72,7
2635,-176,-2056,400,-27,74,9
2640,-104,-1992,384,-26,73,11
2645,-136,-1992,376,-26,73,11
2650,-112,-1992,400,-27,74,13
2655,-104,-2000,384,-28,73,12
2660,-112,-1984,384,-29,72,13
2665,-136,-1984,376,-31,70,14
2670,-136,-1984,408,-33,69,14
2675,-144,-2000,424,-33,69,14
2680,-128,-2024,392,-34,67,12
2685,-120,-1992,392,-36,68,13
2690,-128,-2008,400,-38,68,11
2695,-128,-2000,376,-38,68,10
2700,-144,-2000,360,-41,68,11
2705,-144,-2000,392,-42,69,10
2710,-144,-1984,368,-42,69,9
2715,-120,-1992,400,-42,69,9
2720,-136,-1976,408,-45,70,8
2725,-128,-1984,384,-48,69,7
2730,-128,-1992,392,-51,70,6
2735,-144,-1976,360,-56,70,5
2740,-152,-1984,360,-62,70,2
2745,-120,-1992,408,-69,71,4
2750,-136,-2008,384,-76,74,1
2755,-144,-1992,344,-81,74,-1
2760,-136,-2016,368,-87,75,-1
2765,-168,-1984,368,-94,76,-1
2770,-136,-1992,360,-101,74,-5
2775,-144,-2016,352,-106,72,-4
2780,-152,-2008,368,-110,73,-2
2785,-136,-2000,368,-111,74,-2
2790,-120,-2008,336,-110,77,-1
2795,-128,-2000,360,-110,78,1
2800,-144,-1984,328,-111,78,1
2805,-144,-1992,368,-115,76,1
2810,-144,-1984,360,-122,74,1
2815,-152,-1976,360,-125,70,0
2820,-176,-1984,384,-129,67,-2
2825,-160,-1976,352,-129,66,-3
2830,-136,-1992,384,-129,64,-6
2835,-152,-2000,368,-126,64,-8
2840,-144,-2016,344,-125,66,-10
2845,-136,-2000,352,-124,68,-9
2850,-144,-2016,352,-121,70,-6
2855,-80,-2032,312,-121,73,-4
2860,-128,-2024,352,-119,73,-3
2865,-112,-2048,360,-119,73,2
2870,-136,-2016,344,-117,73,3
2875,-136,-2032,328,-117,72,4
2880,-136,-2024,344,-113,70,5
2885,-144,-2032,320,-108,69,4
2890,-144,-2008,336,-102,68,3
2895,-112,-2016,344,-95,69,2
2900,-136,-2000,344,-88,68,1
2905,-128,-2000,352,-83,72,-1
2910,-128,-1992,368,-78,74,-1
2915,-152,-1984,336,-78,73,-2
2920,-120,-1984,344,-78,73,-3
2925,-128,-2008,336,-80,71,-5
2930,-152,-2000,352,-86,70,-7
2935,-144,-1992,344,-91,68,-8
2940,-136,-2008,352,-97,65,-10
2945,-136,-2016,344,-102,63,-10
2950,-120,-2016,344,-107,62,-11
2955,-120,-2032,352,-110,62,-10
2960,-112,-2000,344,-111,62,-9
2965,-144,-2032,312,-111,65,-8
2970,-144,-2024,344,-110,66,-8
2975,-136,-2024,328,-107,66,-7
2980,-128,-2000,336,-103,69,-7
2985,-128,-2008,304,-99,69,-7
2990,-112,-2016,304,-93,71,-6
2995,-112,-2016,320,-90,71,-5
3000,-128,-2016,344,-87,70,-3
3005,-112,-2000,328,-83,70,-2
3010,-128,-1992,336,-78,68,0
3015,-112,-2008,352,-73,67,0
3020,-136,-2000,312,-70,67,1
3025,-120,-2016,344,-68,66,0
3030,-136,-1992,336,-66,66,2
3035,-128,-1992,344,-65,65,0
3040,-128,-2016,336,-64,66,-1
3045,-128,-2024,328,-67,67,-1
3050,-128,-2016,304,-71,69,-1
3055,-144,-2000,336,-75,69,1
3060,-136,-2016,336,-82,71,2
3065,-136,-1984,304,-88,73,2
3070,-136,-2024,328,-95,74,1
3075,-144,-2008,312,-100,74,0
3080,-128,-2024,328,-105,75,0
3085,-144,-2016,296,-106,76,1
3090,-128,-2008,288,-108,79,2
3095,-152,-2000,320,-110,79,1
3100,-128,-2032,312,-111,80,2
3105,-136,-2008,304,-110,81,3
3110,-144,-2000,304,-105,82,4
3115,-136,-2016,328,-100,81,4
3120,-120,-2000,296,-93,81,4
3125,-144,-2016,288,-83,77,4
3130,-144,-2016,288,-74,74,4
3135,-128,-2000,336,-67,72,4
3140,-152,-2008,312,-63,71,3
3145,-144,-2024,296,-64,69,3
3150,-152,-2000,288,-67,67,3
3155,-144,-1992,312,-72,69,3
3160,-152,-2008,296,-75,71,4
3165,-160,-2000,320,-77,72,3
3170,-144,-2016,296,-77,74,3
3175,-168,-1992,296,-74,74,1
3180,-120,-2040,336,-73,75,0
3185,-144,-2008,280,-68,77,1
3190,-152,-2008,320,-64,79,-1
3195,-144,-2032,280,-61,78,-1
3200,-144,-2040,320,-60,79,-1
3205,-144,-2024,296,-61,79,-2
3210,-144,-2016,288,-61,80,-2
3215,-128,-2016,288,-61,81,-3
3220,-128,-2032,312,-59,81,-1
3225,-120,-2032,280,-58,81,0
3230,-144,-2032,312,-54,81,2
3235,-152,-2008,272,-49,80,2
3240,-112,-2016,304,-42,79,3
3245,-120,-2008,280,-36,79,4
3250,-152,-2000,272,-30,78,5
3255,-136,-2016,328,-26,76,5
3260,-152,-2016,296,-24,76,5
3265,-112,-2032,280,-25,76,6
3270,-152,-2008,288,-26,75,6
3275,-128,-2024,288,-29,77,5
3280,-160,-2016,296,-30,78,5
3285,-128,-2016,280,-30,79,5
3290,-128,-2040,296,-32,80,5
3295,-152,-2024,264,-31,81,5
3300,-152,-2008,280,-30,83,5
3305,-128,-2016,264,-28,83,4
3310,-144,-2032,264,-24,82,3
3315,-144,-2040,264,-20,81,2
3320,-128,-2024,264,-15,81,3
3325,-144,-2024,288,-7,79,2
3330,-136,-2016,312,0,76,3
3335,-144,-2024,280,5,72,1
3340,-128,-2016,296,9,71,0
3345,-152,-2008,272,11,70,2
3350,-128,-2000,312,11,69,0
3355,-136,-2000,304,11,69,-1
3360,-112,-2024,280,9,69,-2
3365,-160,-2008,288,8,71,-2
3370,-136,-2000,312,6,72,-2
3375,-136,-2024,272,3,72,-2
3380,-144,-2008,312,1,72,-1
3385,-144,-1984,264,0,74,-2
3390,-128,-1992,288,-3,75,-3
3395,-136,-2000,272,-5,76,-2
3400,-144,-2008,304,-8,76,-3
3405,-136,-1992,280,-11,76,-4
3410,-160,-1976,272,-14,75,-4
3415,-144,-2008,264,-19,75,-6
3420,-128,-2000,288,-21,75,-5
3425,-128,-1992,264,-23,74,-8
3430,-144,-1992,264,-22,74,-7
3435,-136,-2008,296,-20,72,-7
3440,-128,-2016,296,-18,71,-5
3445,-128,-2008,280,-16,70,-6
3450,-136,-2024,280,-17,67,-7
3455,-120,-2008,264,-16,66,-5
3460,-136,-2024,248,-16,65,-5
3465,-144,-2016,288,-18,64,-6
3470,-136,-2000,312,-21,64,-5
3475,-136,-2056,296,-24,65,-5
3480,-160,-1992,312,-28,65,-4
3485,-136,-2016,320,-29,65,-1
3490,-160,-2008,272,-31,67,2
3495,-136,-2008,296,-32,67,4
3500,-136,-2024,288,-32,68,3
3505,-160,-2000,296,-33,70,2
3510,-112,-1984,280,-33,69,3
3515,-128,-2024,296,-30,70,4
3520,-144,-2048,312,-24,72,3
3525,-128,-2032,280,-17,74,1
3530,-128,-2032,280,-8,74,-1
3535,-152,-1992,280,0,75,-2
3540,-144,-2008,264,4,74,-1
3545,-144,-2000,296,5,78,-1
3550,-120,-2008,304,5,78,0
3555,-120,-2008,296,4,80,1
3560,-128,-2024,288,2,81,3
3565,-120,-2032,320,-2,81,3
3570,-144,-2016,304,-5,81,6
3575,-160,-2008,288,-11,80,7
3580,-136,-2016,304,-17,78,7
3585,-144,-2024,296,-21,76,6
3590,-168,-2000,272,-27,75,6
3595,-144,-2032,296,-30,71,5
3600,-152,-2024,312,-30,68,5
3605,-128,-2032,256,-28,68,5
3610,-176,-2016,280,-22,65,3
3615,-216,-2008,200,-13,66,2
3620,-128,-2024,280,-5,64,-1
3625,-144,-2032,304,1,66,-2
3630,-160,-2016,304,5,66,-4
3635,-128,-2032,312,8,66,-3
3640,-144,-2008,296,12,67,-4
3645,-160,-2040,288,15,68,-3
3650,-120,-2032,288,18,67,-4
3655,-136,-2008,320,22,68,-1
3660,-136,-2008,296,24,69,0
3665,-128,-2008,288,24,69,1
3670,-136,-2008,296,23,69,1
3675,-128,-2016,296,21,68,2
3680,-160,-1992,280,21,68,2
3685,-144,-1984,280,18,68,1
3690,-128,-2008,288,16,66,1
3695,-136,-1984,280,15,65,0
3700,-152,-2008,280,15,64,-1
3705,-152,-2008,288,14,65,-1
3710,-160,-2008,272,13,64,-1
3715,-144,-1992,296,12,62,-2
3720,-144,-2000,256,10,62,-2
3725,-112,-2016,336,8,64,-2
3730,-144,-2016,272,5,65,-4
3735,-128,-2000,304,4,66,-4
3740,-136,-2016,280,4,66,-3
3745,-128,-2016,256,2,66,-2
3750,-144,-2016,280,2,66,0
3755,-120,-2032,296,1,68,1
3760,-136,-2000,280,1,66,2
3765,-136,-2032,272,2,67,3
3770,-128,-2016,272,2,67,3
3775,-128,-2024,280,3,68,3
3780,-136,-2016,312,4,67,2
3785,-120,-2000,288,3,67,2
3790,-144,-2000,312,0,68,4
3795,-152,-2000,288,-4,68,3
3800,-128,-2000,320,-7,69,3
3805,-144,-2008,296,-10,68,5
3810,-160,-2000,312,-9,70,6
3815,-152,-2000,312,-7,70,7
3820,-144,-2032,304,-3,66,8
3825,-160,-2016,280,0,68,9
3830,-152,-1992,344,1,67,9
3835,-136,-2000,288,3,66,10
3840,-168,-2024,280,2,65,8
3845,-136,-2016,280,3,66,8
3850,-160,-2016,328,3,66,9
3855,-160,-2016,328,3,65,9
3860,-184,-2016,304,1,65,7
3865,-144,-2008,296,-1,64,7
3870,-144,-2008,288,-1,64,5
3875,-144,-1992,328,-3,64,4
3880,-136,-2016,320,-3,65,3
3885,-152,-1992,328,-4,66,1
3890,-144,-2016,312,-6,66,-1
3895,-144,-2032,304,-7,66,-3
3900,-128,-2024,280,-8,67,-3
3905,-136,-2008,304,-11,68,-2
3910,-136,-2024,336,-11,70,-2
3915,-144,-2032,312,-12,71,-2
3920,-128,-2032,296,-12,72,-1
3925,-128,-2016,296,-9,71,-1
3930,-144,-2016,288,-7,70,-1
3935,-144,-2008,304,-6,69,-1
3940,-152,-2016,288,-3,69,0
3945,-136,-2000,320,0,67,0
3950,-136,-2024,288,1,68,1
3955,-168,-2008,288,1,67,1
3960,-144,-1992,304,1,66,2
3965,-136,-2008,312,0,68,2
3970,-152,-2000,328,0,67,3
3975,-160,-2008,288,0,67,3
3980,-152,-2040,312,0,66,4
3985,-160,-2016,312,0,65,5
3990,-120,-2008,312,-1,66,6
3995,-152,-2008,288,0,69,6
4000,-136,-2016,312,-1,69,7
4005,-160,-1992,304,-1,69,6
4010,-168,-1992,296,-1,69,6
4015,-152,-2000,312,0,71,5
4020,-152,-2016,280,1,70,3
4025,-128,-2016,272,0,72,5
4030,-160,-1976,296,-1,73,4
4035,-160,-2008,312,1,73,3
4040,-136,-2024,304,1,72,2
4045,-152,-2008,336,2,73,3
4050,-128,-2032,312,4,71,1
4055,-120,-2016,280,5,71,0
4060,-152,-1992,280,5,70,1
4065,-120,-2032,312,7,70,2
4070,-128,-2032,304,6,71,1
4075,-136,-2008,304,7,70,3
4080,-144,-2016,344,5,72,2
4085,-136,-2024,312,6,70,3
4090,-136,-2016,320,7,70,3
4095,-144,-2024,312,11,68,2
4100,-128,-2024,312,12,68,1
4105,-152,-2008,320,11,69,2
4110,-136,-2016,328,12,70,1
4115,-144,-2016,328,14,71,2
4120,-152,-1992,312,14,72,3
4125,-144,-2016,312,16,72,3
4130,-144,-2024,304,16,72,1
4135,-144,-2032,296,17,71,0
4140,-152,-2024,288,17,69,0
4145,-144,-2016,336,17,69,0
4150,-136,-2024,304,14,67,2
4155,-144,-2016,312,13,67,3
4160,-160,-2000,352,12,66,3
4165,-136,-2016,312,11,66,5
4170,-144,-2016,312,8,64,5
4175,-128,-2016,328,5,64,3
4180,-152,-2008,288,2,61,1
4185,-152,-1992,312,0,61,1
4190,-160,-1992,304,1,60,-1
4195,-144,-2016,312,3,62,-3
4200,-144,-2000,280,8,65,-5
4205,-144,-2032,328,13,66,-5
4210,-160,-1984,328,17,68,-5
4215,-152,-2000,288,19,70,-5
4220,-144,-2016,312,21,69,-4
4225,-144,-2000,328,22,71,-4
4230,-152,-2016,320,20,72,-1
4235,-152,-2008,312,20,72,-1
4240,-160,-2016,320,19,73,0
4245,-136,-2016,328,18,72,1
4250,-144,-1992,344,18,70,2
4255,-168,-2008,288,15,69,2
4260,-152,-2000,328,12,67,3
4265,-144,-2016,336,7,67,3
4270,-216,-1984,408,5,64,3
4275,-160,-2000,304,6,64,3
4280,-144,-2032,296,6,64,3
4285,-160,-2008,288,10,63,2
4290,-168,-2000,296,15,63,1
4295,-152,-2016,328,20,63,0
4300,-160,-2016,336,24,61,-3
4305,-168,-2000,336,27,62,-6
4310,-152,-2000,296,30,61,-8
4315,-168,-2008,312,33,62,-10
4320,-168,-2024,344,34,64,-9
4325,-136,-2008,352,34,65,-9
4330,-152,-2016,336,33,67,-9
4335,-152,-2008,312,32,68,-9
4340,-160,-2008,312,33,69,-7
4345,-136,-2024,304,33,70,-6
4350,-136,-1984,328,34,70,-6
4355,-144,-2016,336,35,69,-7
4360,-168,-1984,312,37,68,-7
4365,-152,-2016,320,37,66,-5
4370,-128,-1992,328,36,67,-4
4375,-160,-2016,344,36,65,-3
4380,-160,-1984,352,35,63,-2
4385,-144,-1992,320,35,62,-2
4390,-160,-1992,344,36,62,-4
4395,-144,-2016,336,37,61,-4
4400,-136,-1992,328,36,60,-5
4405,-128,-2008,320,38,60,-5
4410,-144,-2000,336,38,59,-5
4415,-136,-2000,344,39,60,-6
4420,-136,-2040,320,39,62,-5
4425,-144,-2032,344,39,64,-5
4430,-184,-1992,336,40,63,-5
4435,-152,-2008,344,41,64,-4
4440,-152,-2008,360,41,66,-3
4445,-160,-2032,336,42,65,-3
4450,-136,-2008,336,44,65,-5
4455,-136,-2008,336,42,66,-6
4460,-136,-2008,352,41,64,-7
4465,-160,-2000,360,39,65,-8
4470,-144,-1992,312,37,66,-9
4475,-152,-2000,328,32,66,-9
4480,-144,-2016,352,28,68,-8
4485,-128,-1984,352,23,66,-9
4490,-120,-2000,400,20,69,-7
4495,-128,-1960,296,19,68,-6
4500,-152,-2016,344,18,66,-6
4505,-152,-2032,336,19,66,-6
4510,-144,-2040,336,21,65,-6
4515,-144,-2024,344,24,64,-5
4520,-136,-2024,344,26,64,-6
4525,-120,-2016,336,28,64,-6
4530,-160,-2008,376,31,63,-7
4535,-168,-2000,336,31,62,-8
4540,-160,-1992,344,32,63,-7
4545,-176,-2016,352,32,63,-7
4550,-144,-1984,336,33,65,-7
4555,-160,-2000,360,36,66,-7
4560,-144,-1992,352,37,68,-7
4565,-168,-2000,352,38,70,-9
4570,-152,-2000,360,35,71,-6
4575,-144,-2016,344,35,73,-6
4580,-152,-1992,328,33,74,-5
4585,-144,-2008,352,32,73,-5
4590,-128,-2000,344,31,73,-4
4595,-152,-2000,344,31,70,-6
4600,-144,-2000,360,31,69,-5
4605,-144,-2000,344,33,66,-5
4610,-152,-2000,344,34,65,-6
4615,-152,-2008,336,36,65,-5
4620,-136,-2008,344,36,64,-6
4625,-168,-2000,360,36,63,-8
4630,-136,-2008,344,34,62,-7
4635,-120,-1984,344,32,61,-8
4640,-144,-1992,360,30,60,-5
4645,-160,-1992,352,30,60,-6
4650,-160,-1992,344,27,61,-5
4655,-152,-2016,344,26,61,-4
4660,-128,-2024,376,25,63,-3
4665,-152,-2008,352,26,63,-4
4670,-152,-2000,344,27,64,-3
4675,-128,-2008,352,30,65,-4
4680,-144,-2024,392,34,65,-4
4685,-128,-2032,360,37,63,-6
4690,-152,-2000,384,40,62,-8
4695,-128,-1992,352,43,63,-10
4700,-136,-2008,328,45,63,-10
4705,-192,-2000,304,46,62,-11
4710,-152,-2008,352,46,62,-9
4715,-144,-2000,376,45,63,-10
4720,-144,-2000,400,45,63,-8
4725,-152,-1992,384,44,64,-10
4730,-152,-1992,360,41,63,-10
4735,-152,-1984,368,40,62,-10
4740,-144,-2000,360,39,60,-9
4745,-120,-1984,352,39,62,-10
4750,-136,-2016,360,40,61,-9
4755,-144,-2008,360,38,62,-9
4760,-128,-2000,344,38,63,-10
4765,-152,-1984,368,37,62,-9
4770,-168,-1992,360,35,63,-10
4775,-136,-2008,360,33,62,-9
4780,-168,-1992,360,34,61,-10
4785,-144,-1992,368,35,60,-11
4790,-128,-2008,376,36,60,-10
4795,-144,-1984,360,37,60,-9
4800,-152,-2016,360,38,61,-10
4805,-160,-2000,376,39,60,-9
4810,-128,-2000,360,41,59,-9
4815,-160,-1968,416,40,60,-7
4820,-128,-1992,368,40,61,-6
4825,-144,-1992,352,39,63,-6
4830,-168,-1960,360,39,64,-4
4835,-120,-2016,360,38,66,-4
4840,-144,-2008,360,37,66,-3
4845,-128,-1984,376,36,67,-2
4850,-144,-1992,360,36,68,-4
4855,-152,-1992,392,39,69,-5
4860,-168,-2016,376,41,67,-3
4865,-160,-1984,400,43,69,-5
4870,-144,-2000,384,45,71,-6
4875,-168,-1992,360,45,69,-7
4880,-136,-1984,360,45,68,-8
4885,-128,-2000,376,46,66,-10
4890,-128,-1984,368,46,64,-10
4895,-144,-1992,384,45,67,-9
4900,-160,-2000,384,45,66,-8
4905,-168,-1992,384,44,67,-8
4910,-144,-2000,392,42,66,-7
4915,-120,-2000,384,39,66,-6
4920,-144,-1936,400,35,64,-6
4925,-136,-1992,384,31,62,-8
4930,-120,-2016,376,27,60,-9
4935,-136,-1984,384,26,60,-11
4940,-152,-2000,376,27,61,-12
4945,-128,-1992,368,29,62,-14
4950,-152,-1984,376,31,64,-15
4955,-160,-2008,408,33,64,-15
4960,-136,-2016,368,36,64,-15
4965,-128,-2000,368,39,66,-14
4970,-128,-2016,400,42,67,-14
4975,-136,-2000,384,47,66,-14
4980,-144,-2016,424,49,68,-13
4985,-144,-1992,360,50,68,-10
4990,-136,-2000,384,52,71,-9
4995,-144,-2000,400,51,70,-8
5000,-120,-2008,368,48,69,-8
5005,-152,-1992,384,48,69,-8
5010,-136,-1992,376,48,68,-7
5015,-128,-1984,392,51,69,-8
5020,-160,-1984,376,53,67,-7
5025,-144,-1968,384,57,66,-8
5030,-160,-1976,392,61,66,-8
5035,-128,-2048,400,64,67,-9
5040,-144,-2000,376,66,68,-11
5045,-128,-2000,400,68,69,-13
5050,-152,-1984,400,70,68,-14
5055,-112,-2008,384,71,68,-15
5060,-144,-1992,384,70,69,-14
5065,-160,-1984,408,68,69,-15
5070,-144,-1992,432,66,68,-14
5075,-120,-1984,400,66,67,-13
5080,-128,-1992,400,64,66,-12
5085,-128,-2016,392,62,68,-9
5090,-112,-1984,408,61,68,-7
5095,-120,-2008,416,58,69,-6
5100,-144,-2008,408,55,67,-6
5105,-152,-1976,408,54,68,-5
5110,-136,-1976,408,55,66,-5
5115,-152,-1976,432,56,67,-4
5120,-136,-1984,400,57,67,-3
5125,-128,-1992,400,59,66,-3
5130,-136,-1984,432,60,65,-5
5135,-128,-1976,408,62,65,-6
5140,-112,-1992,408,63,65,-7
5145,-120,-1992,384,62,66,-8
5150,-112,-2000,400,61,66,-9
5155,-144,-1992,424,58,66,-10
5160,-136,-2008,408,56,67,-10
5165,-120,-1992,432,54,67,-9
5170,-120,-1984,408,52,66,-8
5175,-152,-1984,416,50,67,-8
5180,-136,-1976,416,47,67,-8
5185,-128,-2000,416,45,67,-7
5190,-160,-1984,408,41,68,-6
5195,-128,-1992,432,41,68,-6
5200,-144,-1984,408,39,68,-8
5205,-152,-1992,440,38,68,-8
5210,-104,-1992,408,37,68,-8
5215,-144,-2000,424,34,66,-8
5220,-104,-1984,424,34,65,-7
5225,-136,-1976,416,32,65,-7
5230,-144,-1984,408,31,65,-8
5235,-128,-1992,440,30,63,-6
5240,-144,-1984,456,31,61,-5
5245,-104,-1992,432,31,61,-3
5250,-144,-1984,408,30,60,-4
5255,-128,-1984,440,30,60,-5
5260,-136,-1984,440,29,59,-4
5265,-128,-1992,392,28,60,-5
5270,-152,-1984,400,26,59,-3
5275,-136,-1984,432,24,58,-4
5280,-136,-1984,432,22,59,-4
5285,-128,-1992,440,17,59,-3
5290,-160,-1976,408,14,58,-4
5295,-144,-1976,440,10,60,-7
5300,-144,-1944,424,7,59,-9
5305,-152,-1976,456,6,59,-11
5310,-112,-1968,440,5,59,-11
5315,-136,-1984,440,1,60,-12
5320,-112,-1984,464,0,61,-13
5325,-120,-2000,416,-4,62,-12
5330,-128,-1984,440,-6,62,-11
5335,-120,-1992,416,-7,61,-10
5340,-128,-2000,448,-7,62,-10
5345,-136,-1992,424,-7,64,-8
5350,-136,-1992,424,-6,63,-7
5355,-128,-2000,448,-5,65,-7
5360,-88,-1976,472,-1,65,-5
5365,-120,-1984,472,3,65,-6
5370,-136,-2008,456,8,64,-7
5375,-144,-2000,448,13,63,-7
5380,-128,-2000,440,18,64,-9
5385,-136,-1984,424,22,63,-9
5390,-144,-2008,456,25,63,-9
5395,-136,-1984,424,26,62,-9
5400,-128,-1992,440,27,62,-9
5405,-168,-1960,456,28,64,-9
5410,-136,-1984,440,28,65,-10
5415,-136,-1984,432,27,66,-10
5420,-128,-1976,432,28,68,-9
5425,-128,-1976,432,29,68,-8
5430,-128,-1992,432,30,69,-7
5435,-128,-1976,440,33,70,-6
5440,-144,-1984,472,34,71,-5
5445,-152,-1984,440,35,71,-6
5450,-128,-1960,424,37,70,-5
5455,-152,-1984,448,37,70,-5
5460,-120,-1984,440,37,68,-7
5465,-128,-1968,432,36,67,-6
5470,-192,-1968,392,34,66,-6
5475,-128,-1984,416,31,65,-5
5480,-120,-1976,440,29,64,-5
5485,-144,-1984,448,26,64,-6
5490,-120,-1984,480,25,64,-4
5495,-120,-1984,416,24,65,-3
5500,-120,-1992,464,23,65,-3
5505,-120,-1976,456,23,65,-3
5510,-152,-1984,456,25,65,-3
5515,-152,-1968,456,29,67,-3
5520,-128,-1984,448,31,66,-2
5525,-128,-1984,464,32,69,-4
5530,-144,-1968,456,33,70,-3
5535,-152,-1968,448,34,69,-3
5540,-144,-1968,448,35,70,-3
5545,-128,-1976,448,34,71,-4
5550,-136,-1984,496,34,70,-5
5555,-144,-1992,456,34,69,-5
5560,-144,-1960,448,32,70,-3
5565,-128,-1984,456,30,69,-3
5570,-160,-1992,456,27,67,-2
5575,-128,-2008,448,25,67,-2
5580,-80,-1928,488,22,68,-2
5585,-168,-1984,480,22,70,-1
5590,-128,-1984,472,22,70,0
5595,-128,-2008,448,24,69,-2
5600,-120,-1984,488,27,68,-2
5605,-120,-1968,440,29,69,-1
5610,-136,-1984,464,31,68,-2
5615,-128,-1968,464,32,68,-1
5620,-128,-2000,440,33,68,0
5625,-136,-1984,488,34,68,-2
5630,-152,-1984,464,33,69,-2
5635,-144,-1976,496,33,68,-2
5640,-128,-1976,456,33,70,-2
5645,-136,-1984,504,29,69,-2
5650,-152,-1976,488,28,69,-1
5655,-152,-1984,440,24,71,-2
5660,-136,-1968,456,20,71,-2
5665,-128,-1992,464,17,71,-3
5670,-152,-1976,472,14,72,-3
5675,-128,-1984,472,12,73,-4
5680,-144,-1960,480,9,73,-2
5685,-152,-1944,472,5,73,-3
5690,-120,-1968,480,0,73,-1
5695,-112,-1960,472,-5,72,0
5700,-128,-1960,456,-10,70,-1
5705,-128,-1984,456,-14,67,-1
5710,-128,-1992,464,-18,65,-2
5715,-120,-1984,480,-21,64,-4
5720,-136,-1952,472,-21,65,-5
5725,-128,-1976,464,-22,65,-6
5730,-120,-1976,448,-24,68,-5
5735,-104,-1968,464,-24,69,-5
5740,-120,-1976,456,-26,71,-5
5745,-128,-1960,448,-26,73,-3
5750,-136,-1984,480,-24,74,-2
5755,-120,-1984,464,-22,74,-1
5760,-128,-1976,448,-20,75,0
5765,-128,-2000,472,-19,75,2
5770,-136,-1968,480,-21,73,1
5775,-128,-1984,480,-25,74,4
5780,-128,-1984,472,-31,72,4
5785,-136,-1976,480,-37,71,4
5790,-128,-1976,424,-41,72,3
5795,-136,-1960,440,-43,74,4
5800,-120,-1976,448,-45,76,1
5805,-128,-1992,464,-48,76,-1
5810,-120,-1952,472,-50,76,-2
5815,-120,-1976,448,-53,76,-4
5820,-120,-1960,456,-56,76,-5
5825,-160,-1968,464,-60,74,-5
5830,-128,-1976,472,-66,73,-7
5835,-128,-1984,472,-72,72,-7
5840,-152,-1960,480,-76,74,-8
5845,-136,-1984,488,-82,73,-8
5850,-144,-1968,448,-87,73,-7
5855,-152,-1984,472,-89,73,-7
5860,-128,-1984,424,-90,73,-6
5865,-136,-1984,448,-92,71,-5
5870,-136,-2000,440,-91,71,-5
5875,-128,-1984,464,-91,70,-4
5880,-128,-1992,448,-88,67,-2
5885,-144,-1976,464,-87,67,-1
5890,-112,-1984,432,-86,66,-1
5895,-112,-1984,480,-84,64,-1
5900,-120,-1992,416,-83,64,-1
5905,-160,-2000,344,-80,64,-2
5910,-136,-1976,456,-81,64,0
5915,-128,-2000,456,-80,65,-1
5920,-112,-1984,472,-80,66,-1
5925,-128,-1984,464,-81,67,-1
5930,-128,-1992,464,-85,70,-1
5935,-128,-1984,432,-86,71,0
5940,-112,-1992,464,-89,71,1
5945,-120,-1992,432,-93,72,2
5950,-136,-1992,472,-98,71,3
5955,-112,-1984,440,-100,70,4
5960,-112,-1968,448,-104,68,4
5965,-152,-1976,424,-109,66,4
5970,-128,-1984,400,-114,64,6
5975,-112,-1984,416,-119,63,4
5980,-120,-1968,424,-122,63,4
5985,-160,-1952,448,-125,63,3
5990,-136,-1992,416,-127,62,5
5995,-136,-1984,416,-129,61,4
6000,-128,-1984,424,-130,62,6
6005,-152,-1984,384,-130,62,7
6010,-120,-2016,432,-127,64,8
6015,-136,-2040,432,-124,63,9
6020,-136,-2000,384,-118,63,10
6025,-112,-2008,408,-112,63,10
6030,-144,-2016,392,-107,63,10
6035,-144,-2008,408,-103,64,9
6040,-112,-2000,424,-102,64,8
6045,-144,-1984,408,-103,64,7
6050,-112,-1984,400,-104,64,5
6055,-112,-1976,400,-106,64,6
6060,-128,-1984,400,-108,65,5
6065,-120,-1984,448,-110,65,4
6070,-128,-1984,408,-111,64,3
6075,-112,-1984,424,-112,66,2
6080,-120,-1968,384,-111,67,0
6085,-168,-1976,408,-112,71,0
6090,-152,-2000,408,-112,72,1
6095,-136,-1992,400,-113,75,1
6100,-136,-1992,408,-115,76,0
6105,-136,-2016,424,-118,78,1
6110,-144,-1984,392,-120,78,1
6115,-136,-2032,392,-122,78,1
6120,-128,-1984,400,-122,78,1
6125,-128,-1992,368,-124,78,2
6130,-112,-1992,360,-122,77,3
6135,-144,-1984,392,-120,75,1
6140,-128,-1984,384,-117,72,1
6145,-136,-2000,400,-116,73,1
6150,-136,-1992,384,-115,72,1
6155,-112,-2000,384,-116,70,1
6160,-136,-1992,360,-117,72,1
6165,-136,-1984,368,-121,73,2
6170,-128,-1984,416,-126,74,2
6175,-152,-1992,360,-132,76,5
6180,-136,-1984,400,-138,78,4
6185,-136,-1984,368,-140,80,5
6190,-144,-2008,384,-142,81,3
6195,-136,-1984,384,-145,81,4
6200,-136,-1976,360,-147,82,5
6205,-120,-2000,384,-150,83,10
6210,-136,-2000,376,-150,84,11
6215,-136,-2000,368,-150,84,10
6220,-128,-2008,336,-145,82,11
6225,-136,-2008,352,-141,80,10
6230,-96,-2000,376,-134,80,10
6235,-120,-2000,344,-127,79,11
6240,-120,-2000,352,-124,78,11
6245,-136,-1992,352,-119,77,10
6250,-144,-1992,344,-116,74,11
6255,-136,-2000,344,-114,72,11
6260,-136,-2024,344,-114,73,11
6265,-144,-2008,344,-115,72,9
6270,-144,-2000,360,-116,71,8
6275,-144,-2016,352,-118,70,9
6280,-136,-1992,328,-118,71,10
6285,-152,-1984,360,-118,74,12
6290,-144,-1976,320,-117,75,9
6295,-152,-1992,328,-114,76,8
6300,-136,-2008,352,-110,76,6
6305,-160,-1984,328,-106,74,5
6310,-128,-2008,352,-102,74,5
6315,-136,-2008,320,-100,74,3
6320,-152,-1992,328,-94,73,4
6325,-136,-2000,344,-93,72,4
6330,-152,-2000,360,-89,69,4
6335,-136,-2024,328,-87,67,2
6340,-128,-2008,336,-84,68,0
6345,-120,-2032,328,-78,67,1
6350,-128,-2048,336,-74,66,2
6355,-144,-2016,360,-68,66,2
6360,-128,-2008,360,-63,66,1
6365,-152,-2000,344,-60,66,0
6370,-160,-2000,352,-57,68,-1
6375,-128,-1984,360,-57,69,-1
6380,-144,-2000,352,-55,71,-1
6385,-152,-2000,344,-54,72,0
6390,-144,-2000,328,-53,74,0
6395,-184,-2008,360,-52,71,0
6400,-168,-1984,344,-51,74,0
6405,-144,-2000,344,-49,74,0
6410,-120,-2016,328,-47,73,-1
6415,-152,-1992,336,-46,72,-1
6420,-128,-2008,352,-44,73,-1
6425,-136,-1992,376,-44,75,-2
6430,-144,-2008,336,-42,75,-4
6435,-144,-1992,304,-41,76,-4
6440,-136,-2000,336,-39,76,-5
6445,-128,-2032,344,-41,76,-3
6450,-128,-2000,368,-45,76,-3
6455,-152,-1992,344,-49,77,-3
6460,-120,-2008,352,-50,77,-2
6465,-128,-1992,352,-51,77,2
6470,-120,-2016,352,-50,79,2
6475,-136,-2000,344,-51,79,2
6480,-160,-2000,320,-51,78,2
6485,-120,-1984,336,-52,79,2
6490,-168,-1992,320,-54,77,0
6495,-144,-2000,328,-54,77,-1
6500,-144,-2000,344,-54,76,-3
6505,-112,-2016,336,-52,76,-6
6510,-144,-2000,312,-51,79,-7
6515,-144,-1992,328,-51,78,-7
6520,-144,-2000,296,-53,78,-7
6525,-120,-2016,352,-57,79,-6
6530,-144,-2000,336,-60,81,-4
6535,-160,-1992,344,-65,85,-3
6540,-144,-2000,336,-69,88,-1
6545,-144,-2016,328,-75,89,2
6550,-152,-2008,320,-83,88,5
6555,-152,-1992,320,-94,87,6
6560,-168,-2016,368,-103,84,5
6565,-136,-2000,312,-112,81,2
6570,-152,-1992,328,-120,78,1
6575,-144,-2008,336,-125,75,-1
6580,-144,-2024,328,-126,72,-3
6585,-136,-2024,320,-122,70,-3
6590,-128,-2040,344,-118,69,-4
6595,-136,-2016,312,-110,68,-4
6600,-144,-2008,336,-102,71,-4
6605,-136,-2000,320,-93,72,-5
6610,-128,-2040,296,-86,72,-7
6615,-152,-2040,280,-80,74,-7
6620,-152,-2032,328,-73,76,-9
6625,-168,-2016,320,-70,78,-9
6630,-152,-2024,304,-68,80,-8
6635,-144,-2016,288,-66,81,-9
6640,-112,-2016,312,-66,81,-7
6645,-120,-2040,312,-63,81,-6
6650,-136,-2016,312,-62,80,-5
6655,-144,-2040,288,-60,79,-4
6660,-120,-2016,304,-58,78,-2
6665,-128,-2016,304,-56,77,-1
6670,-176,-2072,328,-54,74,1
6675,-136,-2024,280,-52,72,3
6680,-136,-2016,296,-49,69,4
6685,-136,-2016,280,-45,67,4
6690,-136,-2000,312,-40,66,5
6695,-152,-2000,312,-35,64,4
6700,-152,-1992,264,-28,65,4
6705,-176,-1992,288,-21,66,2
6710,-168,-2032,280,-16,64,2
6715,-128,-2024,304,-13,64,0
6720,-128,-2032,296,-9,65,-1
6725,-152,-1992,288,-9,67,-1
6730,-144,-2008,312,-10,69,2
6735,-144,-2016,296,-11,69,2
6740,-136,-2016,288,-11,71,3
6745,-144,-2016,280,-9,72,3
6750,-112,-2032,312,-11,72,3
6755,-144,-2032,280,-10,72,2
6760,-128,-2032,312,-9,73,2
6765,-152,-2000,296,-7,72,2
6770,-144,-2024,312,-6,71,1
6775,-168,-1968,280,-2,70,1
6780,-144,-2000,272,-1,69,2
6785,-152,-1984,304,-1,69,0
6790,-152,-2016,312,0,71,1
6795,-144,-2000,296,-1,71,1
6800,-136,-2008,272,3,72,1
6805,-152,-2048,320,7,71,2
6810,-152,-2016,304,12,69,1
6815,-168,-2016,320,19,67,1
6820,-144,-2024,296,24,65,1
6825,-160,-2040,344,28,64,-1
6830,-152,-2040,272,29,63,-3
6835,-144,-2016,288,27,63,-1
6840,-152,-2008,328,24,63,-1
6845,-144,-2016,312,19,62,-1
6850,-136,-1992,320,16,64,-2
6855,-144,-2000,328,14,65,-1
6860,-144,-2008,312,14,65,0
6865,-120,-2000,328,14,65,-1
6870,-144,-2008,304,18,65,-1
6875,-144,-2008,336,19,65,-1
6880,-160,-2000,304,20,65,-2
6885,-136,-1992,304,21,66,-1
6890,-144,-2024,328,21,66,-2
6895,-136,-2008,328,19,68,-1
6900,-128,-2024,288,18,68,-1
6905,-160,-2008,304,17,68,-2
6910,-128,-2024,328,19,68,0
6915,-144,-2016,328,19,68,0
6920,-144,-2000,304,20,67,0
6925,-160,-2000,328,22,67,0
6930,-136,-2000,304,22,67,0
6935,-144,-2016,304,21,67,-1
6940,-152,-2008,312,22,67,0
6945,-144,-2016,296,20,68,0
6950,-136,-2008,328,19,69,0
6955,-144,-1992,304,17,69,2
6960,-152,-2008,312,16,69,3
6965,-144,-2000,304,13,70,3
6970,-136,-2016,320,12,70,2
6975,-144,-2000,320,14,72,2
6980,-144,-2008,312,14,71,3
6985,-120,-2016,304,15,70,2
6990,-128,-2024,296,18,70,2
6995,-128,-2016,296,20,69,3
7000,-136,-2008,304,20,69,4
7005,-168,-2008,336,22,69,3
7010,-136,-2016,320,23,69,3
7015,-152,-2008,328,22,69,3
7020,-144,-2024,328,22,69,3
7025,-160,-1992,336,23,70,3
7030,-152,-2000,328,22,69,4
7035,-136,-2016,320,20,68,4
7040,-136,-2008,328,18,67,5
7045,-144,-2000,344,18,66,5
7050,-168,-2000,336,19,64,3
7055,-152,-2000,312,19,65,3
7060,-160,-2000,328,20,65,3
7065,-144,-1984,344,20,64,4
7070,-128,-2008,328,20,63,3
7075,-128,-2016,336,20,63,1
7080,-144,-2008,320,20,64,1
7085,-160,-2000,320,18,64,0
7090,-168,-2016,328,19,65,1
7095,-128,-2024,328,18,65,-1
7100,-152,-2000,344,16,65,-1
7105,-128,-2048,384,17,65,0
7110,-144,-2000,344,16,68,0
7115,-168,-2000,328,17,68,-1
7120,-152,-1992,328,17,66,1
7125,-128,-2000,312,20,66,0
7130,-144,-2024,328,20,66,0
7135,-128,-2016,320,21,66,1
7140,-128,-2008,328,23,66,1
7145,-160,-2008,304,24,67,1
7150,-152,-1984,312,24,66,0
7155,-160,-2032,320,22,65,0
7160,-136,-1992,344,18,66,1
7165,-136,-2008,352,16,65,0
7170,-152,-2008,360,15,65,1
7175,-152,-2008,336,12,64,2
7180,-136,-2016,320,11,66,2
7185,-144,-2000,336,10,65,4
7190,-144,-2008,360,11,65,6
7195,-152,-2000,312,11,63,5
7200,-152,-1992,328,10,62,4
7205,-152,-2016,328,10,61,5
7210,-72,-2000,336,11,61,4
7215,-136,-2016,320,13,62,0
7220,-176,-1992,328,18,65,-1
7225,-128,-1984,320,22,65,-2
7230,-128,-1992,328,27,67,-4
7235,-152,-1992,352,29,67,-4
7240,-128,-2024,312,30,67,-4
7245,-128,-2008,320,30,70,-3
7250,-152,-2008,352,29,72,-3
7255,-152,-2024,344,29,74,-2
7260,-160,-2016,320,30,75,-1
7265,-152,-2016,336,29,74,-1
7270,-160,-2024,344,27,73,1
7275,-152,-2000,344,25,73,2
7280,-136,-2000,352,21,70,2
7285,-160,-2000,344,17,68,2
7290,-176,-1992,352,14,67,2
7295,-176,-1992,336,12,66,1
7300,-144,-2008,328,12,64,0
7305,-144,-2000,344,14,63,-1
7310,-168,-2008,328,20,62,-1
7315,-136,-1992,336,25,63,-3
7320,-152,-1952,352,30,62,-4
7325,-176,-1984,336,35,62,-5
7330,-160,-2000,352,40,62,-7
7335,-168,-2000,344,41,62,-9
7340,-152,-2008,336,42,62,-10
7345,-136,-2000,336,40,64,-11
7350,-144,-1992,360,38,65,-12
7355,-192,-1992,352,36,66,-11
7360,-128,-2000,352,32,67,-9
7365,-160,-2016,352,31,68,-8
7370,-160,-2016,352,32,69,-6
7375,-168,-2000,352,35,69,-5
7380,-160,-2016,368,36,69,-4
7385,-160,-2008,360,40,69,-4
7390,-128,-1992,352,44,69,-4
7395,-160,-1984,344,45,68,-4
7400,-152,-2000,344,46,68,-3
7405,-144,-1992,344,47,67,-2
7410,-128,-2000,352,49,67,-5
7415,-168,-1976,344,48,66,-5
7420,-168,-1984,352,48,67,-7
7425,-152,-2000,344,47,65,-8
7430,-144,-2016,336,45,65,-8
7435,-160,-1992,352,45,65,-10
7440,-160,-1992,360,43,67,-10
7445,-120,-1992,352,40,67,-8
7450,-136,-2000,344,38,68,-7
7455,-136,-2024,336,36,70,-5
7460,-144,-2024,352,34,71,-5
7465,-160,-2008,360,32,72,-4
7470,-144,-2008,344,30,73,-5
7475,-136,-2040,344,31,73,-4
7480,-128,-2016,336,31,72,-3
7485,-144,-2008,344,34,71,-5
7490,-160,-1984,344,35,71,-5
7495,-144,-1984,344,35,71,-6
7500,-152,-1976,376,35,72,-7
7505,-136,-1984,384,32,71,-6
7510,-120,-1992,360,31,71,-4
7515,-128,-1992,352,28,72,-3
7520,-152,-1992,368,24,70,-2
7525,-136,-1984,368,23,69,-2
7530,-144,-2000,352,22,68,-1
7535,-144,-1992,360,21,67,0
7540,-152,-2032,360,19,67,1
7545,-152,-2000,368,21,65,1
7550,-144,-1992,360,21,64,2
7555,-144,-2016,344,22,64,3
7560,-144,-1992,336,23,63,3
7565,-160,-1984,376,23,65,3
7570,-160,-2008,376,24,67,4
7575,-136,-2000,360,26,67,3
7580,-144,-2000,368,30,66,2
7585,-136,-2008,368,33,66,0
7590,-160,-1992,360,36,66,0
7595,-144,-1984,360,40,66,-3
7600,-144,-2000,360,40,65,-2
7605,-152,-2008,352,40,65,-5
7610,-152,-2008,376,37,67,-4
7615,-136,-2040,360,34,69,-4
7620,-136,-2016,360,30,68,-4
7625,-144,-2000,360,27,69,-4
7630,-136,-2000,368,27,71,-1
7635,-144,-2008,344,27,74,-1
7640,-128,-1984,344,30,74,-1
7645,-120,-2016,344,37,76,1
7650,-160,-2040,384,45,78,-1
7655,-144,-1992,360,55,79,1
7660,-136,-1992,360,67,79,1
7665,-136,-1992,368,77,77,0
7670,-136,-1992,360,85,77,1
7675,-168,-1976,360,89,74,3
7680,-168,-1976,360,89,70,2
7685,-160,-1992,368,88,70,1
7690,-160,-2000,376,83,71,1
7695,-160,-2016,384,77,70,-1
7700,-136,-2000,384,68,70,-1
7705,-128,-2000,384,61,71,1
7710,-152,-2008,384,57,69,3
7715,-136,-2008,416,51,68,2
7720,-160,-2008,376,49,68,3
7725,-136,-2016,376,52,67,2
7730,-152,-2016,392,58,66,0
7735,-160,-2016,384,67,67,-2
7740,-160,-2024,376,79,67,-1
7745,-144,-2000,376,91,66,-2
7750,-144,-1992,384,103,67,-2
7755,-120,-2008,424,113,65,-3
7760,-128,-1984,400,121,65,-4
7765,-136,-1992,392,124,63,-6
7770,-144,-1976,376,124,63,-7
7775,-144,-1992,376,121,62,-5
7780,-128,-1992,384,115,60,-6
7785,-176,-1984,384,108,61,-5
7790,-152,-1984,416,101,62,-3
7795,-152,-2000,424,96,63,-2
7800,-168,-1984,400,90,64,-1
7805,-152,-2000,416,86,64,-2
7810,-144,-1992,376,83,65,1
7815,-152,-1992,392,83,66,1
7820,-152,-1992,392,86,66,3
7825,-144,-1992,424,90,67,3
7830,-144,-1984,392,97,68,2
7835,-144,-1992,368,103,69,-1
7840,-112,-2000,384,110,67,1
7845,-152,-1976,392,115,68,0
7850,-144,-2016,424,120,67,2
7855,-160,-1984,408,124,68,3
7860,-136,-2008,392,127,69,0
7865,-160,-1992,384,128,67,1
7870,-160,-1992,416,126,67,3
7875,-152,-1984,416,125,69,5
7880,-136,-1984,424,122,69,5
7885,-144,-1984,432,122,69,6
7890,-160,-2000,432,121,70,8
7895,-168,-2008,416,122,71,9
7900,-168,-1984,432,125,71,8
7905,-160,-1984,392,127,69,9
7910,-152,-1992,424,132,71,8
7915,-160,-1984,440,135,72,9
7920,-168,-1984,432,139,73,9
7925,-160,-1984,424,142,72,9
7930,-136,-2008,408,147,73,8
7935,-152,-2008,440,151,72,8
7940,-144,-2000,416,155,70,8
7945,-128,-1992,432,160,71,8
7950,-136,-1992,448,162,71,9
7955,-136,-1984,440,164,71,9
7960,-128,-1968,464,165,74,7
7965,-160,-1984,448,163,75,5
7970,-152,-1968,464,163,76,7
7975,-176,-2048,504,161,77,5
7980,-144,-1984,456,159,78,4
7985,-128,-1992,448,156,77,4
7990,-160,-1992,472,152,75,4
7995,-152,-1984,496,148,74,4
8000,-160,-1984,464,147,73,5
8005,-136,-1992,456,142,73,6
8010,-144,-1992,464,139,72,8
8015,-160,-1984,464,137,70,8
8020,-160,-1992,456,137,68,8
8025,-120,-1952,496,140,67,5
8030,-144,-1992,448,146,62,4
8035,-136,-1984,472,152,59,2
8040,-128,-1992,496,159,56,3
8045,-144,-1960,488,166,55,4
8050,-152,-1976,496,170,57,3
8055,-168,-1952,520,176,55,3
8060,-144,-1968,496,180,55,1
8065,-160,-1976,552,179,54,1
8070,-160,-1952,520,177,51,2
8075,-168,-1944,544,175,52,0
8080,-168,-1968,520,172,53,-1
8085,-160,-1976,536,169,56,-1
8090,-128,-2016,520,168,58,-3
8095,-144,-1968,528,167,61,-3
8100,-128,-1976,488,167,64,-4
8105,-152,-1984,496,167,68,-4
8110,-144,-1984,512,170,71,-3
8115,-152,-1976,512,172,73,-1
8120,-136,-1992,536,180,72,-1
8125,-144,-1984,520,186,73,1
8130,-144,-2000,512,194,72,1
8135,-136,-2000,520,201,69,3
8140,-160,-1984,520,206,67,2
8145,-176,-1960,536,211,66,3
8150,-152,-1976,552,214,65,3
8155,-144,-1976,512,217,63,2
8160,-176,-1976,536,222,64,3
8165,-152,-1984,528,228,64,2
8170,-152,-1984,536,235,66,0
8175,-144,-1976,552,241,66,-1
8180,-152,-1952,536,246,66,-1
8185,-160,-1968,560,251,65,-2
8190,-168,-1944,560,253,66,-4
8195,-152,-1968,520,254,66,-6
8200,-160,-1952,568,255,66,-7
8205,-160,-1976,552,253,66,-8
8210,-152,-1944,560,255,65,-10
8215,-152,-1968,584,256,66,-10
8220,-128,-1968,600,260,66,-8
8225,-144,-1960,608,265,66,-9
8230,-152,-1936,560,271,63,-9
8235,-144,-1936,552,275,61,-9
8240,-152,-1920,568,282,60,-8
8245,-152,-1944,568,285,58,-9
8250,-144,-1928,592,288,57,-9
8255,-128,-1928,600,285,57,-10
8260,-136,-1952,584,281,56,-9
8265,-152,-1960,592,274,56,-10
8270,-152,-1968,576,263,57,-11
8275,-144,-1976,584,254,58,-12
8280,-128,-1976,608,246,58,-13
8285,-160,-1976,592,242,59,-11
8290,-168,-1984,608,240,60,-10
8295,-136,-1984,600,241,61,-10
8300,-160,-2048,528,247,62,-9
8305,-144,-1968,608,255,62,-9
8310,-144,-1960,608,267,62,-9
8315,-152,-1960,608,281,63,-8
8320,-128,-1960,616,295,61,-10
8325,-136,-1928,584,308,59,-11
8330,-128,-1928,584,319,58,-11
8335,-136,-1904,608,325,58,-14
8340,-144,-1920,608,329,58,-15
8345,-144,-1920,640,332,56,-16
8350,-144,-1928,624,332,57,-15
8355,-144,-1944,632,331,59,-18
8360,-136,-1944,648,332,61,-19
8365,-144,-1936,640,333,64,-19
8370,-152,-1960,656,336,65,-19
8375,-160,-1936,640,337,66,-17
8380,-128,-1944,672,339,67,-18
8385,-160,-1936,672,341,66,-18
8390,-144,-1960,664,347,64,-17
8395,-160,-1944,664,355,59,-17
8400,-160,-1960,656,365,55,-18
8405,-128,-1944,696,378,51,-19
8410,-112,-1904,768,392,48,-20
8415,-136,-1936,704,404,46,-21
8420,-144,-1896,696,415,45,-20
8425,-136,-1904,712,420,43,-19
8430,-168,-1880,704,428,42,-20
8435,-136,-1872,712,431,41,-19
8440,-128,-1880,720,434,41,-22
8445,-160,-1856,712,434,43,-23
8450,-152,-1856,720,433,45,-23
8455,-136,-1840,720,430,48,-26
8460,-144,-1848,744,424,50,-27
8465,-144,-1864,728,418,53,-28
8470,-120,-1880,752,414,55,-29
8475,-136,-1880,776,408,53,-30
8480,-120,-1872,760,403,51,-30
8485,-144,-1872,744,398,51,-30
8490,-152,-1864,760,395,49,-33
8495,-136,-1880,760,394,48,-34
8500,-152,-1896,760,391,47,-36
8505,-136,-1880,768,392,48,-37
8510,-168,-1880,776,393,46,-37
8515,-144,-1856,800,392,45,-38
8520,-144,-1888,744,391,44,-38
8525,-144,-1880,768,390,40,-37
8530,-160,-1888,792,388,36,-39
8535,-152,-1888,808,386,32,-41
8540,-144,-1888,840,389,25,-43
8545,-184,-1864,824,393,19,-45
8550,-168,-1864,816,398,13,-47
8555,-160,-1848,824,403,5,-49
8560,-160,-1848,848,409,0,-54
8565,-136,-1840,840,412,-3,-57
8570,-128,-1800,840,415,-6,-60
8575,-160,-1752,872,420,-4,-60
8580,-152,-1752,856,422,-4,-63
8585,-160,-1736,872,421,0,-63
8590,-160,-1712,864,416,6,-59
8595,-136,-1760,864,409,14,-55
8600,-160,-1760,872,396,23,-52
8605,-144,-1744,880,379,29,-52
8610,-136,-1760,888,359,28,-56
8615,-136,-1768,880,341,22,-61
8620,-120,-1768,872,323,12,-69
8625,-88,-1784,872,309,5,-75
8630,-104,-1768,928,290,0,-79
8635,-80,-1864,888,270,-2,-80
8640,-72,-1872,880,256,-3,-78
8645,-104,-1888,888,250,2,-74
8650,-104,-1912,888,259,7,-72
8655,-112,-1904,920,280,14,-72
8660,-120,-1896,920,304,21,-71
8665,-120,-1888,928,333,30,-69
8670,-136,-1832,936,360,38,-70
8675,-136,-1824,936,381,40,-72
8680,-136,-1800,920,393,43,-73
8685,-144,-1768,904,397,44,-73
8690,-136,-1744,936,391,44,-75
8695,-112,-1720,904,377,40,-79
8700,-80,-1744,928,360,39,-78
8705,-80,-1760,920,347,35,-77
8710,-56,-1768,896,341,25,-80
8715,-80,-1792,896,339,17,-84
8720,-80,-1840,928,344,11,-83
8725,-48,-1840,944,359,12,-80
8730,-56,-1840,912,384,15,-78
8735,-88,-1904,944,418,21,-73
8740,-56,-1888,936,464,30,-72
8745,-32,-1904,912,517,36,-77
8750,-24,-1904,928,574,40,-80
8755,-16,-1864,920,628,40,-84
8760,0,-1832,864,672,39,-86
8765,-48,-1800,912,698,33,-90
8770,-48,-1808,912,709,29,-93
8775,-80,-1752,928,698,30,-92
8780,-24,-1752,944,669,35,-93
8785,-24,-1760,952,634,44,-95
8790,-8,-1744,984,599,50,-95
8795,-16,-1768,992,573,53,-92
8800,-32,-1752,1032,564,55,-90
8805,-8,-1768,1040,572,62,-84
8810,-24,-1736,1032,595,71,-77
8815,-56,-1712,1008,629,82,-68
8820,-56,-1672,1000,667,90,-64
8825,-24,-1656,1016,706,100,-64
8830,-72,-1624,976,740,112,-67
8835,-64,-1576,992,761,125,-71
8840,-16,-1544,968,770,140,-76
8845,-16,-1536,976,758,153,-80
8850,-40,-1464,1032,720,164,-83
8855,-56,-1416,1032,655,172,-82
8860,-56,-1384,1040,566,179,-82
8865,-64,-1400,1048,470,183,-79
8870,-40,-1440,1056,383,190,-73
8875,-56,-1504,1064,324,196,-70
8880,-48,-1600,1056,302,200,-75
8885,-48,-1664,1056,315,197,-79
8890,-72,-1736,1056,351,186,-88
8895,-80,-1752,1056,401,170,-99
8900,-104,-1760,1056,457,153,-109
8905,-144,-1728,1056,506,133,-116
8910,-152,-1712,1072,543,114,-119
8915,-184,-1688,1080,563,98,-121
8920,-152,-1680,1096,567,86,-120
8925,-184,-1624,1088,554,75,-114
8930,-184,-1608,1120,529,66,-109
8935,-200,-1536,1096,494,54,-104
8940,-216,-1504,1104,453,42,-92
8945,-208,-1504,1120,409,30,-86
8950,-192,-1536,1128,375,20,-78
8955,-232,-1544,1088,354,8,-73
8960,-184,-1560,1184,352,-5,-71
8965,-216,-1576,1184,365,-15,-71
8970,-208,-1600,1192,391,-25,-72
8975,-192,-1608,1208,420,-35,-72
8980,-176,-1592,1208,449,-48,-73
8985,-144,-1608,1216,474,-59,-68
8990,-160,-1576,1208,496,-70,-64
8995,-144,-1576,1232,511,-80,-61
9000,-136,-1536,1248,517,-87,-56
9005,-112,-1504,1256,511,-93,-54
9010,-80,-1488,1240,496,-96,-52
9015,-96,-1464,1264,474,-97,-50
9020,-56,-1448,1328,444,-95,-48
9025,-48,-1432,1320,413,-92,-47
9030,-32,-1464,1328,383,-90,-48
9035,-56,-1416,1352,357,-82,-51
9040,-48,-1432,1384,338,-69,-53
9045,-32,-1464,1384,324,-55,-57
9050,-24,-1480,1392,318,-41,-64
9055,0,-1520,1408,314,-23,-70
9060,0,-1504,1416,316,-10,-75
9065,-8,-1528,1376,326,2,-79
9070,-16,-1512,1392,341,6,-79
9075,0,-1504,1360,362,8,-80
9080,0,-1472,1328,388,11,-81
9085,0,-1456,1304,414,16,-86
9090,0,-1456,1280,441,19,-89
9095,-32,-1424,1256,464,22,-94
9100,-32,-1408,1264,484,26,-98
9105,8,-1384,1296,504,28,-105
9110,-8,-1368,1352,523,27,-113
9115,8,-1376,1368,536,24,-117
9120,-8,-1320,1376,543,21,-123
9125,0,-1288,1384,542,17,-129
9130,0,-1288,1384,531,19,-135
9135,8,-1272,1408,518,23,-141
9140,-8,-1248,1408,502,30,-147
9145,-24,-1256,1368,480,38,-152
9150,-24,-1280,1336,459,50,-158
9155,-8,-1312,1360,443,63,-166
9160,-8,-1336,1336,433,70,-174
9165,0,-1344,1344,432,74,-184
9170,8,-1368,1352,436,72,-191
9175,8,-1368,1344,444,65,-195
9180,8,-1384,1328,451,56,-196
9185,0,-1384,1344,456,46,-197
9190,16,-1408,1368,463,34,-200
9195,0,-1400,1384,468,25,-204
9200,16,-1432,1408,475,14,-206
9205,8,-1416,1392,481,4,-209
9210,32,-1432,1424,489,-5,-209
9215,0,-1400,1416,502,-8,-209
9220,8,-1424,1408,518,-10,-210
9225,8,-1424,1392,538,-8,-209
9230,0,-1416,1400,559,-6,-205
9235,24,-1392,1392,573,-6,-200
9240,24,-1360,1432,585,-6,-194
9245,16,-1360,1432,590,-8,-190
9250,8,-1344,1448,591,-11,-187
9255,0,-1344,1472,591,-15,-183
9260,24,-1368,1472,593,-17,-181
9265,0,-1320,1496,597,-18,-183
9270,0,-1312,1488,598,-17,-182
9275,-24,-1288,1504,597,-17,-183
9280,8,-1248,1600,587,-13,-186
9285,0,-1272,1488,573,-13,-189
9290,24,-1296,1464,562,-21,-193
9295,64,-1320,1472,559,-30,-195
9300,56,-1344,1456,564,-39,-200
9305,72,-1384,1464,575,-42,-207
9310,96,-1368,1488,591,-42,-216
9315,88,-1344,1520,602,-38,-227
9320,88,-1288,1480,605,-28,-237
9325,72,-1248,1496,598,-16,-246
9330,104,-1256,1552,585,-2,-257
9335,80,-1240,1552,566,17,-264
9340,64,-1288,1552,549,36,-274
9345,80,-1296,1520,541,47,-283
9350,56,-1312,1520,551,52,-292
9355,48,-1352,1520,578,53,-300
9360,64,-1376,1464,621,53,-309
9365,56,-1384,1424,669,52,-319
9370,96,-1392,1432,717,48,-328
9375,112,-1376,1424,761,42,-334
9380,128,-1312,1400,793,37,-341
9385,176,-1304,1392,818,34,-349
9390,168,-1288,1424,832,37,-354
9395,152,-1224,1424,842,41,-360
9400,152,-1216,1432,851,48,-365
9405,144,-1192,1464,864,59,-370
9410,120,-1184,1464,881,71,-372
9415,104,-1160,1424,902,82,-377
9420,64,-1152,1424,929,92,-384
9425,72,-1096,1400,961,98,-391
9430,96,-1104,1408,990,108,-393
9435,96,-1064,1376,1011,116,-394
9440,104,-1048,1432,1018,125,-395
9445,104,-1056,1416,1018,132,-393
9450,128,-1048,1448,1016,136,-388
9455,104,-1024,1416,1013,134,-380
9460,120,-1056,1400,1015,128,-372
9465,104,-1072,1408,1028,117,-362
9470,112,-1096,1408,1055,102,-354
9475,112,-1128,1392,1094,83,-348
9480,72,-1144,1432,1138,58,-344
9485,96,-1152,1416,1184,31,-341
9490,48,-1120,1432,1225,6,-341
9495,32,-1104,1416,1259,-14,-342
9500,32,-1096,1352,1289,-28,-342
9505,24,-1104,1384,1315,-35,-340
9510,16,-1104,1360,1345,-34,-338
9515,8,-1104,1376,1376,-31,-332
9520,16,-1048,1392,1409,-26,-327
9525,32,-1008,1376,1442,-20,-321
9530,56,-992,1424,1472,-12,-315
9535,80,-928,1480,1499,0,-315
9540,120,-896,1536,1522,17,-312
9545,168,-808,1552,1537,39,-306
9550,232,-704,1576,1538,68,-302
9555,336,-648,1576,1517,109,-300
9560,376,-560,1568,1479,160,-295
9565,464,-560,1592,1433,223,-288
9570,472,-608,1560,1396,288,-284
9575,416,-608,1584,1375,358,-282
9580,416,-672,1600,1372,416,-279
9585,360,-688,1592,1384,465,-270
9590,344,-704,1552,1402,499,-259
9595,280,-696,1584,1418,522,-250
9600,232,-696,1568,1429,533,-241
9605,168,-680,1568,1430,538,-236
9610,40,-568,1552,1416,546,-232
9615,16,-568,1552,1388,565,-231
9620,0,-512,1504,1351,600,-224
9625,-24,-472,1504,1311,647,-207
9630,-16,-432,1472,1271,699,-177
9635,0,-416,1472,1239,748,-143
9640,48,-416,1440,1219,783,-106
9645,80,-416,1424,1216,800,-64
9650,104,-352,1360,1221,799,-23
9655,152,-360,1368,1232,787,14
9660,144,-352,1312,1236,767,43
9665,168,-336,1232,1232,746,69
9670,144,-288,1176,1215,734,87
9675,112,-272,1120,1186,736,92
9680,72,-216,1032,1150,745,83
9685,48,-160,928,1101,763,74
9690,16,-96,904,1039,790,62
9695,8,-88,824,972,825,57
9700,-24,-32,720,909,857,61
9705,-72,-24,664,858,890,76
9710,-144,8,560,817,921,99
9715,-136,8,464,793,934,117
9720,-216,24,376,784,936,135
9725,-208,0,392,782,922,148
9730,-264,8,352,785,893,154
9735,-312,16,424,789,854,153
9740,-304,-8,488,799,801,152
9745,-272,-88,528,816,737,150
9750,-264,-184,672,850,684,142
9755,-240,-280,824,912,633,137
9760,-240,-424,936,993,591,135
9765,-168,-544,1040,1087,540,136
9770,-136,-632,1176,1199,477,139
9775,-120,-712,1320,1318,401,137
9780,-120,-672,1368,1433,317,133
9785,-160,-560,1400,1535,222,138
9790,-168,-448,1408,1617,124,158
9795,-184,-256,1400,1659,20,193
9800,-232,-8,1384,1646,-86,236
9805,-264,80,1376,1581,-191,280
9810,-320,232,1376,1457,-285,324
9815,-384,376,1496,1336,-385,368
9820,-416,512,1608,1228,-500,405
9825,-488,608,1856,1134,-609,428
9830,-544,640,1952,1025,-711,427
9835,-520,648,2184,884,-803,397
9840,-496,600,2408,725,-863,347
9845,-504,608,2696,583,-902,319
9850,-360,560,2824,412,-962,338
9855,-40,400,3216,197,-970,368
9860,336,136,3584,30,-864,374
9865,752,-72,4032,-80,-660,360
9870,1072,-224,4512,-133,-382,320
9875,1208,-312,4928,-129,-89,283
9880,1392,-352,5208,-68,187,266
9885,1624,-400,5368,26,431,221
9890,1648,-360,5360,154,629,109
9895,1432,-168,5176,315,765,-28
9900,880,80,4800,458,800,-123
9905,480,160,4472,517,751,-151
9910,104,184,4256,474,691,-125
9915,-216,168,4152,384,686,-94
9920,-504,120,3992,324,712,-53
9925,-640,32,3864,332,721,45
9930,-744,-88,3544,427,697,177
9935,-976,-56,3224,573,647,311
9940,-1032,64,2920,746,564,449
9945,-944,232,2584,906,476,569
9950,-776,536,2400,992,405,629
9955,-640,856,2288,992,353,615
9960,-496,1176,2440,954,301,584
9965,-352,1464,2576,930,238,563
9970,-120,1688,2672,918,166,528
9975,32,1848,2688,912,77,463
9980,136,1904,2544,909,-16,387
9985,104,1832,2352,915,-93,323
9990,136,1696,2088,960,-169,297
9995,200,1576,1840,1037,-219,310
10000,232,1456,1560,1131,-233,341
10005,304,1376,1376,1213,-216,370
10010,272,1376,1192,1266,-188,398
10015,368,1424,1088,1283,-166,428
10020,488,1488,1032,1266,-131,456
10025,568,1624,1048,1208,-73,472
10030,656,1872,1184,1114,0,462
10035,672,2096,1312,974,81,434
10040,648,2184,1384,783,168,393
10045,584,2200,1424,571,248,340
10050,440,2168,1488,381,304,272
10055,288,2096,1464,247,339,192
10060,120,2024,1536,133,377,111
10065,-72,1952,1576,17,422,38
10070,-248,1872,1696,-115,479,-15
10075,-424,1768,1728,-266,532,-28
10080,-504,1600,1800,-419,556,-3
10085,-608,1456,1848,-520,523,36
10090,-608,1256,1936,-564,425,77
10095,-600,1096,1928,-547,294,124
10100,-576,1056,1912,-479,146,167
10105,-480,944,1872,-404,7,196
10110,-376,872,1840,-321,-108,203
10115,-320,896,1840,-257,-186,184
10120,-240,928,1792,-237,-230,150
10125,-184,936,1808,-260,-245,102
10130,-184,984,1832,-311,-236,41
10135,-112,1016,1824,-371,-209,-26
10140,-64,1040,1784,-431,-163,-95
10145,-56,1064,1792,-487,-103,-156
10150,-24,1096,1768,-542,-36,-197
10155,56,1144,1688,-596,28,-212
10160,48,1088,1776,-646,84,-207
10165,64,1096,1784,-699,124,-182
10170,96,1088,1768,-742,145,-139
10175,96,1000,1768,-757,138,-90
10180,80,944,1728,-734,109,-42
10185,40,832,1720,-675,62,-4
10190,24,760,1704,-587,-2,22
10195,-24,688,1784,-482,-79,31
10200,-64,664,1808,-381,-158,30
10205,-112,672,1808,-307,-230,22
10210,-144,712,1848,-263,-290,8
10215,-128,712,1888,-233,-330,-4
10220,-184,712,1856,-195,-346,-18
10225,-144,664,1808,-142,-340,-36
10230,-120,648,1784,-85,-310,-56
10235,-72,616,1784,-37,-260,-73
10240,-32,608,1832,-9,-203,-86
10245,0,592,1856,-13,-142,-95
10250,16,592,1880,-35,-87,-97
10255,96,576,1968,-71,-32,-95
10260,136,560,2040,-107,16,-91
10265,152,520,2112,-137,60,-90
10270,176,456,2056,-154,95,-89
10275,200,408,2104,-154,123,-88
10280,224,344,2104,-139,144,-83
10285,216,264,2088,-106,155,-76
10290,168,264,2064,-62,155,-66
10295,152,256,2032,-14,144,-60
10300,128,248,2032,32,120,-56
10305,88,256,1976,71,90,-57
10310,48,264,1984,98,54,-59
10315,24,264,1928,110,18,-63
10320,0,264,1896,105,-7,-70
10325,-8,280,1904,91,-23,-77
10330,-32,264,1880,68,-30,-83
10335,-40,280,1880,43,-28,-83
10340,-32,296,1888,20,-17,-81
10345,-32,272,1872,-2,-4,-75
10350,0,240,1888,-20,14,-68
10355,8,216,1904,-32,33,-56
10360,24,216,1896,-38,52,-44
10365,56,160,1912,-37,72,-33
10370,64,192,1960,-29,91,-20
10375,72,160,1896,-22,108,-9
10380,64,112,1952,-10,121,1
10385,72,112,1936,13,127,7
10390,48,112,1976,32,130,14
10395,32,136,1952,47,132,21
10400,16,152,1960,57,133,26
10405,8,160,1984,59,138,33
10410,-24,176,2024,64,136,39
10415,-16,176,2032,74,129,49
10420,-56,232,2008,82,122,57
10425,-88,232,2048,80,117,63
10430,-104,232,2040,75,111,71
10435,-128,264,2048,66,108,78
10440,-144,256,1960,58,104,85
10445,-136,264,2016,34,110,88
10450,-136,264,2008,10,119,91
10455,-144,264,2008,-2,119,96
10460,-88,240,1976,-9,122,96
10465,-96,232,1968,-18,127,92
10470,-56,232,1968,-19,133,85
10475,-24,224,1944,-20,134,80
10480,-80,256,1896,-22,128,77
10485,-8,248,1904,-36,124,76
10490,-32,256,1968,-45,113,70
10495,-24,264,1952,-39,95,63
10500,-16,288,1936,-26,78,56
10505,-64,304,1928,-14,67,55
10510,-72,328,1904,-3,65,57
10515,-80,352,1896,5,67,60
10520,-96,376,1880,10,77,60
10525,-72,400,1880,2,95,61
10530,-104,432,1904,-2,112,57
10535,-80,424,1904,7,122,55
10540,-56,432,1880,17,128,55
10545,-32,432,1936,20,133,53
10550,-40,448,1904,25,131,52
10555,-16,480,1920,20,129,46
10560,0,464,1944,16,123,39
10565,8,488,1944,15,110,29
10570,8,504,1944,13,99,17
10575,0,544,1904,7,89,7
10580,0,560,1960,-1,82,-2
10585,-40,568,1968,-14,77,-9
10590,-40,576,1968,-20,71,-11
10595,-80,576,1944,-28,65,-9
10600,-88,568,1944,-41,61,-5
10605,-64,560,1960,-49,56,2
10610,-72,552,1912,-57,54,9
10615,-56,536,1944,-68,58,17
10620,-56,504,1944,-70,60,24
10625,-48,496,1912,-69,65,29
10630,-16,480,1912,-68,73,34
10635,8,456,1912,-67,83,34
10640,8,456,1928,-58,93,32
10645,16,424,1936,-41,96,27
10650,32,440,1896,-18,99,21
10655,16,480,1928,1,101,18
10660,16,464,1936,14,105,14
10665,32,488,1912,24,107,9
10670,0,512,1896,31,106,6
10675,0,512,1888,31,102,1
10680,-16,512,1928,26,96,-1
10685,-32,536,1904,19,86,0
10690,-24,544,1960,12,75,0
10695,-40,536,1944,5,66,-1
10700,-24,544,1928,-1,56,1
10705,-56,520,1960,-6,47,2
10710,-56,504,1912,-23,46,1
10715,-40,512,1968,-54,54,2
10720,-40,480,2008,-81,55,4
10725,-16,480,1976,-87,48,1
10730,-16,448,2008,-92,43,1
10735,-8,448,1984,-92,38,-2
10740,-8,440,1976,-99,36,-1
10745,-8,440,1992,-95,31,-3
10750,-24,416,1960,-88,27,-6
10755,-48,400,1960,-84,29,-10
10760,-48,456,1952,-84,33,-9
10765,-56,400,1952,-87,39,-7
10770,-56,384,1952,-91,45,-6
10775,-48,368,1960,-93,54,-5
10780,-64,392,1936,-92,61,-3
10785,-48,360,1944,-91,70,-4
10790,-64,392,1944,-87,79,-4
10795,-24,376,1984,-83,81,-4
10800,-40,392,1920,-80,85,-6
10805,-32,400,1872,-83,89,-2
10810,-48,360,1952,-88,91,-1
10815,-16,368,1952,-88,91,0
10820,-24,360,1912,-89,89,3
10825,-24,384,1960,-94,91,8
10830,-16,368,1936,-100,91,11
10835,-8,368,1968,-106,90,12
10840,0,344,1936,-108,89,13
10845,-8,336,1952,-106,87,14
10850,0,360,1960,-105,85,16
10855,-24,344,1944,-101,83,19
10860,0,344,1952,-97,83,20
10865,-24,320,1976,-94,84,18
10870,-32,344,1952,-87,83,17
10875,-24,344,1968,-85,83,17
10880,-24,360,1960,-84,82,17
10885,-48,368,1928,-84,80,18
10890,-40,368,1952,-84,78,21
10895,-80,376,1952,-85,77,24
10900,-32,376,1960,-85,73,26
10905,-32,368,1920,-88,72,29
10910,-48,352,1944,-90,69,29
10915,-56,384,1968,-90,68,29
10920,-48,360,1928,-88,66,30
10925,-32,368,1920,-85,65,32
10930,-24,384,1912,-83,65,33
10935,-40,368,1936,-78,64,33
10940,-24,392,1936,-77,65,34
10945,-8,376,1944,-77,69,35
10950,0,376,1912,-77,71,33
10955,-24,408,1896,-77,70,34
10960,-8,384,1928,-78,71,37
10965,0,360,1928,-78,70,35
10970,-8,400,1928,-75,69,32
10975,-8,376,1920,-73,69,33
10980,-8,384,1928,-72,66,36
10985,-16,392,1960,-69,63,35
10990,-48,400,1952,-65,59,33
10995,-8,392,1928,-65,57,34
11000,0,384,1944,-67,57,35
11005,-8,368,1944,-66,56,33
11010,-40,392,1960,-66,57,34
11015,-32,376,1944,-65,57,34
11020,-24,408,1960,-65,57,36
11025,-56,408,1912,-66,58,34
11030,0,392,1920,-68,56,35
11035,-16,360,1944,-70,56,34
11040,-8,400,1920,-70,53,33
11045,-8,400,1936,-69,53,32
11050,0,384,1936,-66,54,32
11055,-32,384,1944,-62,53,33
11060,-40,376,1936,-53,53,31
11065,-40,376,1912,-43,54,30
11070,-24,352,1912,-34,53,30
11075,-40,360,1904,-24,54,31
11080,-40,328,1920,-14,56,31
11085,-16,336,1968,-7,59,31
11090,-8,384,1896,-2,63,34
11095,-16,368,1928,4,61,35
11100,-16,368,1912,10,55,38
11105,-64,368,1904,14,51,38
11110,-32,360,1888,16,46,39
11115,-48,368,1888,13,45,42
11120,-24,368,1912,6,45,44
11125,-16,328,1936,-1,44,41
11130,-24,344,1920,-7,41,38
11135,-32,304,1936,-14,38,36
11140,-8,320,1920,-19,32,33
11145,-16,336,1952,-22,23,27
11150,-48,360,1944,-23,16,24
11155,-40,352,1984,-20,10,24
11160,-24,336,1952,-18,7,23
11165,-24,344,1936,-17,6,26
11170,-40,352,1968,-18,9,30
11175,-48,368,1976,-17,13,33
11180,-40,376,1944,-16,22,34
11185,-40,376,1960,-18,36,37
11190,-16,360,1952,-17,50,41
11195,-24,360,1944,-14,63,44
11200,-16,344,1976,-15,72,45
11205,-8,352,1952,-9,77,45
11210,8,312,1904,-7,82,44
11215,0,344,1904,-9,88,41
11220,8,336,1920,-15,96,37
11225,8,336,2000,-19,101,31
11230,0,344,1952,-19,103,25
11235,0,368,1952,-18,104,20
11240,0,328,1976,-21,107,14
11245,0,344,1920,-22,110,11
11250,8,328,1912,-17,110,7
11255,-8,328,1912,-10,109,6
11260,0,328,1928,-1,104,5
11265,-32,336,1920,7,98,4
11270,0,336,1920,11,91,4
11275,-8,336,1912,5,90,2
11280,-40,360,1936,-7,92,-1
11285,0,336,1944,-16,91,-6
11290,8,304,1928,-18,87,-10
11295,-24,352,1928,-23,84,-12
11300,-40,352,1944,-34,83,-11
11305,-16,352,1976,-41,79,-11
11310,-40,368,1944,-43,70,-8
11315,-48,352,1976,-44,63,-5
11320,-40,368,1952,-43,52,-1
11325,-8,368,1952,-44,46,2
11330,-8,368,1952,-50,45,2
11335,-8,360,1968,-54,44,4
11340,-16,360,1968,-62,49,3
11345,-24,352,1952,-69,53,2
11350,16,312,1944,-76,55,0
11355,16,352,1960,-82,57,1
11360,16,344,1960,-84,57,1
11365,0,344,1976,-82,58,-3
11370,8,344,1944,-80,60,-6
11375,8,352,1960,-74,59,-12
11380,0,344,1960,-64,59,-13
11385,0,328,1960,-54,60,-13
11390,-16,344,1952,-46,58,-11
11395,0,352,1960,-42,57,-8
11400,-16,376,1912,-41,53,-4
11405,-48,376,1968,-44,51,2
11410,-72,376,1928,-49,48,7
11415,-56,400,1968,-55,46,12
11420,-64,360,1984,-63,45,17
11425,-64,376,1968,-72,42,20
11430,-48,336,1984,-81,43,22
11435,-64,352,1960,-88,46,23
11440,-48,352,1984,-96,50,24
11445,-40,368,1960,-100,52,24
11450,-40,344,1976,-106,54,26
11455,-16,328,1936,-111,55,25
11460,-16,304,1984,-112,54,25
11465,-40,360,1968,-114,52,26
11470,-8,320,1944,-115,48,27
11475,-16,320,1976,-111,44,29
11480,-16,320,1928,-108,40,33
11485,-16,344,1952,-103,39,35
11490,-24,328,1960,-100,40,37
11495,-24,320,1968,-94,40,39
11500,8,312,1976,-86,43,41
11505,-16,328,1944,-78,47,40
11510,-24,320,1920,-70,50,41
11515,-8,336,1944,-65,50,41
11520,0,312,1960,-61,52,39
11525,-16,304,1952,-59,54,39
11530,0,280,1952,-60,55,36
11535,0,304,1968,-64,54,33
11540,-32,328,1944,-68,56,29
11545,0,320,1968,-71,59,28
11550,8,304,1984,-77,63,29
11555,-8,352,1976,-82,66,30
11560,-8,336,2008,-87,73,33
11565,-8,352,2000,-92,77,38
11570,-16,360,2048,-95,80,43
11575,-24,384,2024,-98,84,50
11580,-16,384,1992,-100,84,55
11585,-8,360,1944,-103,84,60
11590,0,328,1976,-105,84,60
11595,-8,312,2000,-106,82,62
11600,-8,312,1944,-105,79,59
11605,0,320,1928,-101,75,55
11610,-24,288,1960,-95,73,50
11615,-16,272,1928,-85,69,48
11620,-16,280,1968,-72,63,43
11625,0,280,1968,-59,55,43
11630,-24,296,1952,-50,48,41
11635,-24,280,1936,-42,43,39
11640,-8,288,1936,-35,40,36
11645,0,296,1912,-27,39,35
11650,-24,304,1912,-20,44,35
11655,-32,312,1936,-9,45,35
11660,-8,352,1928,1,45,36
11665,-8,344,1936,4,48,38
11670,-16,360,1960,9,48,36
11675,-24,352,1968,11,48,38
11680,-16,336,1944,8,47,36
11685,-8,368,1928,3,48,36
11690,0,344,1912,-5,51,32
11695,8,328,1896,-15,57,26
11700,8,344,1944,-28,68,17
11705,0,344,1928,-35,75,10
11710,0,376,1920,-37,80,2
11715,8,336,1912,-35,86,-6
11720,8,328,1912,-35,95,-17
11725,40,320,1904,-36,105,-24
11730,8,360,1896,-33,117,-31
11735,8,352,1944,-29,127,-35
11740,64,352,1928,-26,134,-40
11745,56,344,1912,-23,144,-46
11750,72,344,1960,-22,153,-51
11755,104,368,1904,-22,159,-57
11760,104,360,1968,-23,166,-61
11765,120,344,1976,-24,170,-64
11770,128,312,1936,-28,173,-66
11775,128,312,1968,-31,174,-67
11780,136,320,2024,-34,174,-70
11785,96,336,1992,-36,174,-69
11790,72,272,1960,-38,171,-64
11795,56,288,2000,-41,167,-58
11800,40,248,2040,-45,164,-49
11805,24,224,2016,-50,159,-43
11810,16,208,2008,-53,154,-35
11815,16,200,2000,-51,150,-29
11820,16,216,1984,-45,144,-22
11825,8,168,1952,-41,136,-17
11830,-24,216,2008,-41,121,-13
11835,-48,192,2040,-39,104,-9
11840,-64,256,2072,-39,84,0
11845,-88,248,2096,-40,66,6
11850,-144,288,2112,-41,48,12
11855,-144,360,2128,-41,34,20
11860,-160,360,2128,-38,17,26
11865,-184,376,2128,-27,5,29
11870,-216,424,2120,-11,1,31
11875,-208,456,2096,11,2,36
11880,-208,448,2024,37,7,40
11885,-176,456,1992,58,14,44
11890,-184,440,1936,71,19,47
11895,-184,472,1872,72,20,51
11900,-128,408,1864,61,21,50
11905,-136,400,1832,37,25,44
11910,-152,368,1816,4,24,34
11915,-136,336,1792,-34,23,21
11920,-144,312,1760,-70,24,8
11925,-128,304,1760,-104,18,-5
11930,-128,272,1776,-132,9,-19
11935,-144,240,1768,-148,-2,-34
11940,-168,248,1816,-148,-20,-44
11945,-136,216,1808,-132,-38,-49
11950,-152,240,1840,-102,-53,-52
11955,-128,240,1832,-64,-68,-53
11960,-144,272,1848,-24,-78,-53
11965,-152,304,1880,9,-87,-50
11970,-152,312,1904,30,-92,-45
11975,-120,312,1928,44,-99,-41
11980,-80,320,1920,52,-105,-38
11985,-56,320,1928,57,-105,-36
11990,0,320,1896,60,-101,-43
11995,32,344,1904,56,-94,-52
12000,56,296,1896,50,-80,-62
12005,64,248,1888,47,-60,-77
12010,104,248,1888,47,-37,-88
12015,96,208,1888,47,-20,-102
12020,104,168,1896,47,-4,-115
12025,56,144,1912,48,7,-120
12030,40,128,1904,52,15,-122
12035,16,128,1936,58,22,-113
12040,0,96,1960,68,30,-98
12045,-16,136,1968,82,39,-78
12050,-40,152,1984,101,51,-51
12055,-80,144,1992,117,65,-21
12060,-72,160,1960,131,75,10
12065,-72,184,1984,145,87,43
12070,-64,184,1960,154,96,71
12075,-48,192,1976,158,105,94
12080,-16,200,1944,157,114,108
12085,8,216,1952,149,119,117
12090,16,232,1944,136,129,118
12095,56,248,1960,119,137,114
12100,80,256,1952,100,146,106
12105,96,248,1944,77,152,97
12110,128,256,1976,55,157,89
12115,168,240,2000,30,158,80
12120,160,280,1968,6,153,71
12125,160,280,1944,-17,145,63
12130,192,264,1960,-38,137,55
12135,176,264,1952,-55,130,46
12140,168,256,1944,-72,120,36
12145,144,264,1944,-84,113,26
12150,160,248,1952,-92,107,14
12155,136,272,1928,-97,102,3
12160,168,264,1904,-99,96,-12
12165,176,272,1904,-98,94,-25
12170,112,320,1912,-96,95,-38
12175,136,328,1912,-92,97,-51
12180,144,328,1904,-89,100,-63
12185,176,320,1896,-87,105,-74
12190,120,392,1928,-86,108,-85
12195,160,328,1904,-85,111,-91
12200,104,360,1936,-84,109,-97
12205,136,376,1912,-85,107,-101
12210,112,336,1960,-87,107,-104
12215,96,360,1936,-88,108,-106
12220,72,360,1960,-89,111,-104
12225,48,368,1968,-88,114,-102
12230,16,400,1992,-84,118,-99
12235,16,376,2000,-79,123,-95
12240,8,360,1992,-69,128,-88
12245,0,352,1984,-58,133,-81
12250,-16,360,1984,-45,135,-76
12255,-16,368,2008,-31,134,-70
12260,-24,360,1984,-18,133,-65
12265,-88,376,2040,-4,129,-62
12270,-104,368,2032,5,126,-59
12275,-96,392,1992,7,123,-55
12280,-104,384,2024,6,121,-52
12285,-128,400,1984,0,119,-49
12290,-104,384,2000,-10,117,-43
12295,-144,392,1984,-25,115,-37
12300,-144,392,1984,-37,111,-31
12305,-144,400,1944,-48,108,-25
12310,-168,392,1920,-55,103,-18
12315,-176,368,1936,-60,102,-13
12320,-168,368,1944,-58,101,-7
12325,-176,360,1904,-54,101,-2
12330,-144,384,1880,-48,101,2
12335,-160,336,1904,-41,105,5
12340,-216,304,1904,-34,109,6
12345,-192,304,1904,-29,109,7
12350,-192,288,1920,-25,113,7
12355,-192,280,1904,-21,112,7
12360,-192,296,1936,-15,108,8
12365,-152,272,1944,-8,103,9
12370,-160,288,1936,2,97,10
12375,-152,296,1936,13,91,12
12380,-136,312,1904,23,82,13
12385,-128,296,1920,32,72,15
12390,-136,296,1944,39,62,18
12395,-120,296,1936,41,53,20
12400,-96,312,1904,42,46,20
12405,-104,288,1912,40,37,21
12410,-88,288,1944,36,32,20
12415,-96,304,1968,32,29,18
12420,-80,280,1960,28,27,16
12425,-40,256,1928,24,24,13
12430,-16,280,1960,22,26,11
12435,-24,280,1960,23,29,8
12440,-32,280,1936,23,33,2
12445,-16,312,1936,22,37,1
12450,8,280,1944,21,40,-2
12455,16,288,1944,18,44,-1
12460,8,296,1904,15,46,-2
12465,16,280,1928,11,48,-1
12470,40,288,1928,8,51,0
12475,24,288,1936,5,56,2
12480,16,256,1920,3,59,0
12485,40,288,1912,1,64,-1
12490,32,280,1936,-1,67,-1
12495,24,272,1944,-5,70,-4
12500,56,264,1920,-10,70,-5
12505,24,288,1936,-16,72,-5
12510,64,264,1936,-22,71,-6
12515,32,280,1896,-27,70,-7
12520,40,288,1928,-31,71,-7
12525,32,296,1952,-31,71,-6
12530,32,304,1904,-30,70,-4
12535,16,304,1944,-31,70,-3
12540,16,288,1912,-29,73,-2
12545,8,304,1912,-29,76,-1
12550,48,256,1944,-28,79,-1
12555,8,280,1944,-28,83,1
12560,8,320,1936,-27,83,0
12565,24,320,1912,-25,82,-2
12570,16,320,1944,-22,80,-3
12575,32,320,1952,-16,77,-5
12580,0,328,1936,-8,75,-5
12585,0,320,1920,5,72,-7
12590,8,312,1928,18,70,-9
12595,0,328,1920,30,70,-11
12600,8,320,1896,39,75,-11
12605,-8,320,1936,43,80,-13
12610,-8,344,1944,42,86,-15
12615,-24,328,1936,35,92,-15
12620,-32,328,1952,30,98,-12
12625,-40,352,1944,25,100,-11
12630,-40,344,1960,21,100,-8
12635,-24,304,1968,16,100,-6
12640,-56,336,1960,13,101,-2
12645,-32,328,1960,8,100,2
12650,-48,320,2000,1,101,3
12655,-72,336,1968,-4,104,3
12660,-24,288,1984,-10,105,2
12665,-48,296,1960,-14,106,1
12670,-64,304,1968,-15,107,1
12675,-64,280,1984,-13,106,-1
12680,-32,296,1968,-6,105,-3
12685,-40,312,1944,2,102,-5
12690,-32,312,1944,10,100,-6
12695,-48,320,1960,16,100,-8
12700,-72,336,1944,16,101,-8
12705,-72,328,1944,14,97,-9
12710,-56,304,1944,11,95,-7
12715,-64,320,1952,9,95,-3
12720,-80,312,1936,9,93,-2
12725,-72,312,1936,9,93,0
12730,-48,304,1936,13,90,2
12735,-64,312,1936,17,88,0
12740,-80,288,1928,22,83,0
12745,-72,304,1952,27,79,0
12750,-56,328,1936,31,74,-3
12755,-96,344,1928,32,71,-4
12760,-64,320,1960,32,70,-5
12765,-48,336,1928,28,69,-6
12770,-72,328,1960,23,70,-6
12775,-48,336,1944,16,69,-5
12780,-40,344,1936,12,68,-5
12785,-56,352,1936,3,65,-1
12790,-48,352,1944,-5,65,1
12795,-24,344,1928,-13,66,1
12800,-48,336,1928,-23,68,0
12805,-64,320,1960,-31,70,0
12810,-8,328,1944,-33,72,1
12815,-16,312,1936,-31,75,0
12820,-16,344,1976,-29,78,-1
12825,-48,304,1984,-27,75,-2
12830,-16,312,1952,-26,76,-3
12835,-24,312,1936,-21,73,-4
12840,-16,320,1960,-16,75,-4
12845,8,328,1952,-10,75,-4
12850,-16,320,1944,-6,76,-4
12855,-8,320,1944,-3,77,-5
12860,-8,336,1928,0,80,-5
12865,-16,320,1928,-3,83,-4
12870,0,336,1928,-12,91,-4
12875,0,328,1952,-13,95,-4
12880,-32,336,1952,-12,94,-5
12885,-32,344,1960,-13,89,-7
12890,-24,344,1952,-14,83,-6
12895,0,312,1920,-17,82,-5
12900,-24,328,1960,-22,79,-4
12905,-16,328,1936,-20,72,-4
12910,-16,320,1960,-22,69,-3
12915,-8,320,1944,-23,64,-2
12920,-8,344,1928,-30,65,-2
12925,8,304,1992,-42,69,-2
12930,-16,312,1936,-41,65,-3
12935,0,344,1944,-35,61,-4
12940,-40,312,1928,-35,65,-4
12945,0,312,1928,-35,69,-2
12950,-16,288,1928,-25,71,-3
12955,-32,296,1912,-19,73,-5
12960,-24,304,1952,-21,83,-5
12965,-16,288,1952,-24,92,-7
12970,-48,296,1992,-22,94,-8
12975,0,304,1960,-15,94,-9
12980,-24,336,1960,-11,93,-12
12985,-32,328,1960,-16,97,-12
12990,-40,312,1928,-31,107,-9
12995,-72,320,1952,-41,113,-11
13000,-24,320,1920,-45,111,-12
13005,-40,320,1944,-47,107,-11
13010,-24,328,1944,-48,103,-8
13015,-24,320,1952,-44,97,-6
13020,-40,312,1944,-40,92,-6
13025,-56,304,1952,-35,88,-5
13030,-64,336,1936,-31,82,-6
13035,-64,328,1936,-29,79,-5
13040,-72,288,1936,-27,77,-4
13045,-64,328,1928,-27,77,-3
13050,-72,296,1944,-29,74,-2
13055,-56,304,1920,-31,71,0
13060,-72,312,1936,-32,71,1
13065,-96,304,1936,-30,68,1
13070,-56,288,1904,-26,65,2
13075,-72,320,1936,-22,66,2
13080,-64,296,1928,-14,66,2
13085,-72,304,1952,-7,70,2
13090,-48,296,1960,-2,74,1
13095,-32,296,1936,2,79,0
13100,-40,296,1952,1,83,-1
13105,-40,296,1952,-1,90,-2
13110,-48,296,1968,-3,94,-4
13115,-48,344,1952,1,91,-6
13120,-48,312,1936,10,87,-10
13125,-40,328,1936,12,85,-11
13130,-48,328,1864,3,89,-11
13135,-48,336,1952,-12,101,-11
13140,-40,328,1968,-27,108,-10
13145,-16,344,1944,-36,111,-10
13150,-56,312,1952,-35,107,-12
13155,-16,320,1960,-43,110,-11
13160,-48,312,1944,-46,108,-10
13165,-64,312,1960,-48,106,-10
13170,-8,312,1968,-48,105,-10
13175,-24,296,1936,-50,103,-10
13180,-16,288,1952,-52,98,-8
13185,-48,296,1968,-51,90,-8
13190,-8,296,1984,-48,84,-9
13195,-40,304,1976,-40,76,-12
13200,-64,304,1976,-28,66,-12
13205,-40,288,1968,-19,58,-11
13210,-64,312,1936,-14,53,-8
13215,-8,312,1912,-15,55,-8
13220,-72,312,1896,-26,62,-5
13225,-40,312,1928,-37,65,-3
13230,-56,320,1912,-45,66,-2
13235,-64,320,1928,-49,65,-1
13240,-72,320,1920,-57,67,0
13245,-56,304,1952,-66,70,1
13250,-56,320,1968,-67,66,0
13255,-48,304,1952,-66,65,0
13260,-56,296,1952,-64,63,0
13265,-32,320,1952,-59,64,0
13270,-48,296,1920,-54,67,2
13275,-8,264,1944,-45,68,0
13280,-64,280,1944,-30,66,-1
13285,-56,296,1960,-20,66,-1
13290,-64,288,1944,-8,66,0
13295,-72,304,1952,-2,68,0
13300,-56,296,1936,-2,71,1
13305,-48,304,1952,-8,78,2
13310,-48,304,1960,-20,85,3
13315,-128,328,1872,-23,85,3
13320,-72,328,1968,-24,83,1
13325,-48,288,1936,-29,84,2
13330,-72,312,1976,-28,82,0
13335,-40,288,1976,-23,78,-1
13340,-80,312,1936,-10,70,-5
13345,-48,336,1968,-7,71,-4
13350,-56,328,1920,-3,70,-4
13355,-72,344,1952,-6,74,-5
13360,-48,328,1944,-12,78,-4
13365,-32,312,1952,-21,81,-2
13370,-88,296,1944,-23,81,-3
13375,-40,264,1960,-14,73,-6
13380,-56,296,1920,-3,64,-6
13385,-40,272,1928,1,63,-4
13390,-56,280,1944,1,65,-3
13395,-56,272,1976,5,66,-5
13400,-72,288,1960,10,66,-6
13405,-48,312,1952,9,69,-6
13410,-72,280,1968,6,72,-6
13415,-56,288,1912,5,77,-6
13420,-64,312,1920,1,87,-6
13425,-40,328,1912,-5,99,-3
13430,-56,272,1952,-12,112,-4
13435,-40,288,1952,-17,119,-3
13440,-48,312,1928,-17,122,-4
13445,-32,296,1920,-22,127,-3
13450,-40,288,1952,-29,126,-5
13455,-40,304,1912,-35,122,-4
13460,-72,312,1960,-40,118,-4
13465,-56,296,1984,-43,109,-5
13470,-24,328,1912,-41,96,-5
13475,-64,312,1960,-43,88,-3
13480,-64,312,1992,-44,83,-4
13485,-56,280,1968,-38,75,-2
13490,-48,288,1968,-27,67,-1
13495,-48,296,1992,-17,65,2
13500,-72,352,1952,-12,68,4
13505,-56,336,1968,-10,73,5
13510,-24,328,1960,-5,75,5
13515,-16,336,1952,-5,79,5
13520,-48,352,1944,-8,83,6
13525,-32,328,1968,-10,83,6
13530,-40,352,1936,-14,83,4
13535,-40,320,1952,-19,82,4
13540,-32,328,1952,-23,82,3
13545,-40,304,1944,-26,84,3
13550,-64,304,1944,-29,84,1
13555,-32,312,1936,-32,84,0
13560,0,296,1944,-36,84,-1
13565,-32,312,1952,-37,84,-1
13570,-24,328,1944,-37,82,-1
13575,-48,304,1952,-36,83,-1
13580,-56,312,1928,-37,83,0
13585,-32,296,1928,-36,85,-1
13590,-64,304,1952,-38,87,-1
13595,-48,296,1944,-36,90,2
13600,-32,296,1936,-37,90,2
13605,-64,288,1920,-35,88,3
13610,-64,288,1960,-32,86,2
13615,-48,280,1952,-29,81,2
13620,-48,288,1944,-21,73,1
13625,-64,272,1960,-16,66,-1
13630,-80,272,1928,-13,63,-4
13635,-80,272,1928,-14,64,-3
13640,-88,288,1952,-14,64,-4
13645,-56,288,1952,-14,66,-3
13650,-56,304,1968,-15,70,-2
13655,-72,280,1960,-20,74,-1
13660,-32,296,1928,-23,75,1
13665,-80,296,1960,-28,76,3
13670,-56,320,1952,-32,77,4
13675,-48,304,1960,-35,74,3
13680,-32,304,1936,-34,70,1
13685,-64,304,1944,-30,69,0
13690,-120,304,1960,-24,65,-3
13695,-72,296,1952,-14,63,-7
13700,-64,264,1984,-5,63,-7
13705,-88,280,1960,1,63,-10
13710,-72,280,1952,7,63,-9
13715,-80,272,1944,7,63,-9
13720,-80,312,1944,5,65,-8
13725,-72,272,1960,1,66,-9
13730,-56,280,1976,-4,66,-8
13735,-96,296,1936,-14,68,-8
13740,-80,320,1960,-23,70,-8
13745,-72,280,1944,-34,71,-8
13750,-128,352,1912,-41,72,-7
13755,-72,280,1952,-47,72,-7
13760,-88,304,1960,-47,71,-7
13765,-64,272,1992,-44,69,-5
13770,-56,272,1992,-38,64,-5
13775,-80,304,1944,-32,63,-4
13780,-48,288,1952,-27,64,-5
13785,-80,304,1952,-22,66,-3
13790,-40,296,1944,-20,69,-1
13795,-56,304,1952,-19,75,-2
13800,-48,272,1928,-20,83,-3
13805,-56,288,1976,-19,83,-5
13810,-72,304,1960,-17,80,-4
13815,-56,320,1968,-15,78,-3
13820,-56,288,1920,-17,75,-3
13825,-64,336,1936,-21,73,-3
13830,-64,296,1936,-24,72,-5
13835,-80,288,1944,-23,70,-5
13840,-56,312,1928,-23,68,-5
13845,-48,288,1952,-19,68,-6
13850,-64,304,1952,-14,67,-6
13855,-40,296,1832,-9,68,-6
13860,-72,304,1976,-8,68,-4
13865,-64,296,1944,-5,70,-2
13870,-32,288,1944,-1,71,-5
13875,-40,288,1952,2,71,-5
13880,-32,288,1976,2,70,-4
13885,-40,312,1944,-1,72,-3
13890,-64,304,1968,-7,74,-3
13895,-88,296,1976,-12,77,-4
13900,-32,272,1944,-17,76,-4
13905,-24,288,1936,-19,74,-3
13910,-48,296,1960,-22,73,-2
13915,-80,304,1928,-25,71,-1
13920,-64,296,1968,-31,69,-1
13925,-40,264,1992,-36,69,-1
13930,-56,288,1960,-37,67,-1
13935,-64,288,1976,-39,64,-1
13940,-72,280,1968,-37,63,0
13945,-80,288,1952,-35,59,0
13950,-32,272,1944,-34,59,1
13955,-64,264,1960,-35,59,2
13960,-32,280,1928,-32,60,2
13965,-40,336,1952,-28,59,2
13970,-64,264,1968,-29,58,2
13975,-64,288,1960,-28,59,2
13980,-72,296,1944,-30,60,2
13985,-72,296,1952,-32,61,2
13990,-64,280,1976,-38,62,3
13995,-32,272,1936,-44,63,4
14000,-80,312,1976,-51,63,4
14005,-48,296,1960,-55,62,4
14010,-88,304,1952,-59,62,2
14015,-96,256,1960,-59,60,0
14020,-64,288,1976,-59,60,-1
14025,-88,272,1944,-58,57,-2
14030,-72,280,1944,-58,58,-3
14035,-56,264,1944,-57,58,-2
14040,-72,288,1936,-59,59,-2
14045,-48,280,1968,-60,60,-1
14050,-80,288,1968,-60,61,-2
14055,-88,280,1984,-62,62,-2
14060,-48,280,1976,-62,60,-2
14065,-88,264,1968,-63,59,-2
14070,-64,240,1960,-61,57,-1
14075,-72,264,1976,-58,58,-2
14080,-64,280,1976,-56,58,-4
14085,-64,264,1952,-54,59,-4
14090,-72,256,1944,-54,58,-3
14095,-72,280,1976,-55,60,-2
14100,-64,304,1944,-57,60,-3
14105,-64,296,1952,-57,62,-4
14110,-72,272,1960,-57,62,-4
14115,-32,264,1952,-54,63,-3
14120,-64,280,1936,-52,64,-3
14125,-64,272,1944,-50,65,-3
14130,-64,264,1960,-46,65,-4
14135,-48,256,1976,-39,64,-3
14140,-64,272,1968,-39,64,-2
14145,-72,280,1952,-40,63,-3
14150,-64,288,1920,-44,64,-3
14155,-16,288,1984,-48,63,-4
14160,-24,280,1952,-52,61,-3
14165,-48,280,1976,-58,60,-2
14170,-40,256,1960,-63,59,-4
14175,-32,240,1976,-64,55,-1
14180,-80,264,2072,-63,51,0
14185,-64,280,1952,-58,46,2
14190,-72,272,1960,-54,44,3
14195,-64,288,1952,-53,43,4
14200,-40,280,1968,-52,41,3
14205,-64,280,1936,-53,45,2
14210,-56,288,1944,-60,49,2
14215,-40,248,1936,-69,55,4
14220,-48,272,1968,-80,61,5
14225,-40,264,1976,-85,65,5
14230,-56,272,1968,-89,67,6
14235,-32,256,1952,-82,62,3
14240,-48,264,2008,-75,57,1
14245,-32,256,1976,-66,54,-1
14250,-48,256,1976,-57,52,-4
14255,-48,296,1960,-47,52,-6
14260,-48,288,1952,-43,55,-8
14265,-48,256,1952,-41,59,-8
14270,-16,232,1952,-36,63,-8
14275,-48,240,1944,-30,66,-8
14280,-56,248,1928,-21,66,-7
14285,-72,208,1936,-9,66,-5
14290,-56,256,1944,-2,65,-5
14295,-128,248,1936,6,65,-4
14300,-64,200,1952,9,67,-6
14305,-72,216,1936,11,66,-7
14310,-64,200,1952,11,64,-11
14315,-64,256,1952,5,65,-12
14320,-88,240,1960,-11,70,-12
14325,-80,272,1944,-28,74,-11
14330,-40,216,1928,-40,78,-10
14335,-64,224,1952,-48,81,-9
14340,-40,248,1976,-53,83,-10
14345,-56,232,1968,-51,82,-9
14350,-64,248,1960,-49,79,-9
14355,-56,248,1944,-46,76,-6
14360,-40,264,1960,-48,74,-6
14365,-56,256,1936,-49,73,-6
14370,-48,256,1944,-52,72,-6
14375,-56,264,1960,-52,68,-4
14380,-32,248,1968,-51,64,-3
14385,-40,248,1952,-43,59,-2
14390,-56,264,1920,-38,57,0
14395,-56,256,1928,-33,57,3
14400,-40,248,1944,-27,57,4
14405,-64,272,1968,-19,56,3
14410,-48,232,1984,-10,56,3
14415,-56,264,1976,-3,55,1
14420,-64,256,1984,3,55,-1
14425,-64,256,1944,7,53,-4
14430,-40,272,1912,7,51,-5
14435,-80,280,1952,2,51,-6
14440,-64,288,1952,-6,53,-6
14445,-40,256,1936,-16,54,-5
14450,-56,272,1928,-26,57,-4
14455,-48,256,1992,-34,58,-4
14460,-72,288,1968,-37,58,-3
14465,-56,288,1968,-38,60,-1
14470,-64,296,1936,-40,63,1
14475,-40,272,1984,-42,63,3
14480,-16,272,1976,-40,63,3
14485,-32,256,1952,-38,61,3
14490,-48,248,1928,-36,62,3
14495,-48,264,1936,-35,63,5
14500,-40,248,1928,-36,66,4
14505,-64,272,1928,-35,66,4
14510,-56,208,1968,-34,69,1
14515,-48,256,1944,-31,69,-1
14520,-48,256,1936,-28,71,-2
14525,-56,256,1960,-28,74,-4
14530,-48,272,1928,-26,75,-5
14535,-48,240,1952,-26,76,-5
14540,-56,264,1944,-25,73,-7
14545,-56,240,1936,-23,72,-8
14550,-48,248,1920,-20,69,-10
14555,-48,248,1904,-20,71,-10
14560,-24,224,1952,-22,72,-10
14565,-32,248,1960,-23,72,-10
14570,-40,248,1968,-26,69,-10
14575,-48,248,1960,-29,65,-9
14580,-48,256,1960,-32,63,-9
14585,-64,256,1992,-32,59,-7
14590,-32,232,1944,-29,56,-8
14595,-64,232,1984,-21,55,-9
14600,-56,256,1936,-13,55,-8
14605,-56,240,1984,-3,56,-9
14610,-48,256,1984,5,59,-9
14615,-88,264,1968,6,60,-9
14620,8,240,1968,5,62,-10
14625,-56,232,1952,1,63,-12
14630,-56,248,1968,-6,63,-11
14635,-72,256,1952,-16,60,-14
14640,-64,240,1968,-27,58,-14
14645,-64,224,1944,-36,55,-14
14650,-64,224,1968,-46,54,-12
14655,-40,248,1952,-55,57,-11
14660,-24,216,1960,-63,59,-11
14665,-64,232,1944,-67,61,-11
14670,-32,248,1992,-68,65,-9
14675,-56,256,1968,-66,65,-6
14680,-48,232,1968,-60,65,-5
14685,-40,224,1944,-50,65,-4
14690,-40,240,1936,-36,64,-5
14695,-32,224,1952,-24,65,-3
14700,-16,256,1936,-8,66,-4
14705,-56,232,1952,8,70,-5
14710,-48,216,1976,18,75,-6
14715,-64,240,1944,24,78,-8
14720,-24,256,1936,24,81,-10
14725,-64,256,1928,18,84,-9
14730,-56,256,1944,8,86,-9
14735,-32,240,1944,-4,89,-9
14740,-56,240,1944,-14,90,-10
14745,-24,232,1936,-17,87,-10
14750,-32,248,1944,-21,84,-9
14755,-48,248,1952,-17,81,-9
14760,-56,264,1960,-14,78,-9
14765,-48,248,1920,-11,77,-9
14770,-72,264,1968,-9,77,-9
14775,-56,248,1968,-7,74,-9
14780,-56,256,1952,-5,68,-10
14785,-48,224,1952,-5,66,-10
14790,-56,232,1944,-5,63,-8
14795,-56,232,1968,-7,65,-5
14800,-64,256,1928,-10,65,-6
14805,-56,240,1944,-14,68,-9
14810,-48,248,1944,-16,71,-12
14815,-64,248,1960,-18,69,-16
14820,-64,240,1928,-15,68,-20
14825,-48,256,1960,-9,67,-20
14830,-40,256,1944,-4,66,-21
14835,-48,256,1960,-3,64,-21
14840,-56,256,1976,-2,63,-21
14845,-72,256,1912,-3,65,-20
14850,-56,248,1944,-6,65,-18
14855,-48,248,1920,-12,68,-18
14860,-64,240,1976,-17,67,-16
14865,-80,256,1952,-20,69,-13
14870,-48,240,1952,-25,70,-11
14875,-40,232,1976,-26,74,-9
14880,-32,232,1960,-28,77,-8
14885,-32,240,1984,-27,80,-7
14890,-64,224,1968,-26,82,-8
14895,-64,232,1952,-21,81,-11
14900,-32,192,1984,-15,83,-13
14905,-64,248,1944,-10,82,-16
14910,-64,248,1920,0,81,-19
14915,-24,216,1968,8,80,-20
14920,-72,224,1976,18,79,-19
14925,-64,216,1944,27,78,-19
14930,-64,248,1912,29,72,-18
14935,-64,232,1944,24,68,-15
14940,-80,240,1952,14,66,-10
14945,-80,216,1944,6,66,-7
14950,-72,256,1952,-3,65,-6
14955,-48,248,1944,-10,66,-6
14960,-48,240,1944,-16,67,-5
14965,-40,232,1952,-20,68,-5
14970,-56,216,1952,-21,68,-3
14975,-40,248,1944,-22,69,-3
14980,-56,216,1952,-17,66,0
14985,-64,256,1944,-11,63,1
14990,-72,232,1960,-9,63,2
14995,-64,224,1920,-5,62,1
