timestamp,accel_x,accel_y,accel_z,gyro_x,gyro_y,gyro_z
0,240,-2056,-152,-43,29,29
5,232,-2056,-160,-43,29,30
10,232,-2056,-168,-44,29,32
15,232,-2064,-160,-45,26,33
20,240,-2056,-168,-45,25,33
25,232,-2080,-216,-47,24,33
30,240,-2072,-200,-48,22,32
35,232,-2064,-176,-49,22,33
40,216,-2072,-144,-51,22,31
45,232,-2088,-168,-51,22,32
50,240,-2112,-184,-50,22,31
55,232,-2088,-200,-49,21,30
60,248,-2096,-152,-49,21,30
65,248,-2120,-160,-48,23,29
70,240,-2104,-208,-47,24,30
75,280,-2096,-176,-44,24,30
80,248,-2104,-168,-41,25,30
85,256,-2112,-208,-39,24,30
90,248,-2088,-176,-39,24,30
95,240,-2072,-200,-41,25,30
100,248,-2096,-176,-43,24,31
105,248,-2072,-152,-45,24,29
110,240,-2112,-192,-45,25,27
115,232,-2088,-152,-42,27,27
120,224,-2096,-184,-43,29,27
125,248,-2072,-168,-42,29,26
130,216,-2112,-128,-41,29,27
135,240,-2096,-176,-41,30,27
140,224,-2096,-160,-41,32,25
145,240,-2080,-152,-40,31,24
150,232,-2088,-184,-41,30,22
155,248,-2080,-216,-42,29,21
160,232,-2072,-184,-44,28,21
165,232,-2080,-160,-46,27,20
170,240,-2096,-200,-48,27,17
175,216,-2104,-200,-52,27,17
180,240,-2112,-168,-52,27,15
185,240,-2064,-152,-51,26,15
190,224,-2064,-176,-53,25,14
195,248,-2080,-200,-52,25,13
200,224,-2080,-168,-49,24,14
205,248,-2080,-200,-50,23,14
210,264,-2072,-192,-48,22,13
215,232,-2064,-192,-48,22,13
220,224,-2096,-160,-49,22,15
225,224,-2112,-192,-51,21,14
230,256,-2088,-192,-51,22,15
235,248,-2096,-176,-53,22,15
240,240,-2128,-160,-53,23,16
245,232,-2104,-168,-53,23,16
250,248,-2096,-192,-54,22,15
255,232,-2080,-216,-55,23,14
260,232,-2072,-208,-54,20,14
265,240,-2080,-168,-57,19,14
270,216,-2064,-192,-58,18,13
275,208,-2088,-168,-62,15,14
280,200,-2064,-184,-63,15,11
285,240,-2080,-184,-65,14,11
290,288,-2104,-168,-67,14,9
295,208,-2088,-192,-67,15,10
300,232,-2104,-176,-66,17,7
305,224,-2112,-208,-65,18,6
310,216,-2072,-200,-63,20,6
315,216,-2096,-208,-63,23,4
320,216,-2080,-208,-61,24,4
325,232,-2080,-200,-61,24,4
330,224,-2096,-240,-60,25,4
335,216,-2088,-224,-59,27,5
340,248,-2112,-208,-60,25,6
345,216,-2088,-184,-60,25,4
350,208,-2096,-208,-61,26,5
355,216,-2072,-184,-61,26,5
360,184,-2096,-200,-60,27,3
365,224,-2088,-232,-62,26,4
370,232,-2088,-208,-62,26,3
375,216,-2072,-184,-60,28,4
380,248,-2088,-200,-58,29,3
385,216,-2080,-208,-58,28,4
390,240,-2112,-232,-56,27,3
395,248,-2096,-200,-54,28,3
400,256,-2104,-176,-53,29,4
405,256,-2104,-200,-52,29,2
410,216,-2080,-208,-54,30,4
415,216,-2088,-216,-52,30,4
420,248,-2096,-160,-52,30,4
425,224,-2072,-192,-51,29,5
430,232,-2088,-208,-49,29,4
435,232,-2088,-208,-47,28,5
440,256,-2088,-208,-48,27,4
445,256,-2080,-176,-44,26,4
450,256,-2080,-176,-43,25,5
455,248,-2040,-152,-43,25,5
460,248,-2088,-160,-42,26,5
465,264,-2096,-200,-41,26,4
470,256,-2104,-184,-40,25,3
475,232,-2096,-192,-41,24,3
480,232,-2080,-208,-40,23,3
485,248,-2104,-200,-38,22,4
490,240,-2096,-176,-37,20,2
495,240,-2112,-216,-36,18,2
500,232,-2080,-168,-35,19,1
505,240,-2112,-192,-33,18,0
510,216,-2104,-216,-32,17,-1
515,224,-2072,-192,-31,16,-2
520,240,-2080,-200,-33,16,-2
525,232,-2096,-200,-33,16,-3
530,224,-2064,-192,-36,16,-3
535,240,-2096,-192,-38,17,-4
540,184,-2072,-216,-38,17,-5
545,208,-2072,-176,-39,17,-4
550,232,-2064,-176,-43,17,-5
555,224,-2064,-176,-46,15,-5
560,200,-2088,-168,-49,12,-6
565,216,-2072,-208,-53,9,-5
570,200,-2072,-168,-56,7,-7
575,208,-2096,-200,-57,5,-9
580,200,-2088,-192,-56,2,-11
585,192,-2080,-168,-56,1,-12
590,200,-2088,-176,-57,1,-15
595,208,-2104,-192,-57,0,-19
600,168,-2104,-224,-56,-2,-22
605,192,-2112,-184,-57,-1,-25
610,208,-2136,-192,-55,1,-27
615,184,-2104,-128,-55,2,-31
620,192,-2072,-200,-56,3,-33
625,200,-2080,-176,-56,5,-36
630,184,-2072,-184,-58,5,-36
635,192,-2080,-184,-58,4,-38
640,192,-2072,-184,-61,3,-38
645,208,-2080,-208,-61,3,-39
650,200,-2096,-216,-62,4,-36
655,208,-2080,-208,-60,4,-36
660,208,-2096,-208,-61,7,-34
665,208,-2080,-184,-61,11,-31
670,232,-2080,-200,-59,14,-28
675,208,-2096,-208,-59,16,-24
680,216,-2072,-216,-57,19,-19
685,216,-2088,-216,-57,18,-14
690,232,-2072,-200,-54,21,-10
695,256,-2088,-184,-55,21,-7
700,280,-2080,-232,-53,22,-3
705,256,-2080,-192,-52,24,1
710,232,-2080,-168,-53,22,5
715,272,-2088,-216,-53,22,4
720,320,-2128,-208,-53,24,7
725,280,-2080,-256,-52,25,8
730,280,-2080,-208,-52,23,9
735,280,-2096,-240,-52,22,10
740,296,-2112,-224,-51,22,12
745,272,-2104,-224,-48,24,14
750,304,-2104,-208,-46,24,16
755,296,-2096,-192,-43,24,15
760,296,-2128,-232,-40,24,17
765,280,-2104,-216,-38,24,17
770,304,-2096,-224,-36,24,18
775,272,-2072,-216,-35,22,16
780,248,-2024,-216,-37,22,14
785,280,-2072,-232,-41,22,13
790,264,-2048,-192,-43,24,12
795,280,-2088,-184,-44,26,11
800,264,-2088,-216,-47,27,11
805,272,-2080,-176,-49,28,10
810,256,-2112,-216,-47,29,10
815,232,-2080,-168,-46,30,7
820,248,-2112,-208,-45,28,7
825,224,-2088,-176,-44,28,6
830,176,-2056,-272,-42,25,4
835,208,-2064,-200,-42,24,4
840,192,-2080,-232,-41,25,3
845,208,-2072,-184,-43,22,1
850,232,-2088,-200,-43,24,1
855,200,-2072,-200,-45,22,0
860,192,-2064,-192,-43,22,-1
865,192,-2072,-224,-43,23,-1
870,192,-2120,-208,-42,23,-1
875,208,-2088,-232,-41,23,-1
880,208,-2072,-200,-39,23,-1
885,136,-2096,-168,-38,22,-2
890,176,-2056,-208,-39,21,-1
895,200,-2072,-200,-39,19,0
900,176,-2080,-168,-38,17,-2
905,192,-2056,-200,-40,15,-3
910,200,-2080,-208,-39,13,-3
915,192,-2096,-192,-40,14,-4
920,208,-2072,-224,-42,15,-4
925,200,-2072,-208,-43,15,-5
930,192,-2064,-208,-45,18,-6
935,200,-2080,-200,-47,20,-5
940,232,-2064,-224,-48,20,-6
945,192,-2088,-168,-50,18,-6
950,208,-2080,-200,-49,18,-4
955,192,-2080,-216,-46,17,-3
960,192,-2096,-208,-45,17,-2
965,224,-2104,-208,-45,16,-1
970,224,-2104,-168,-43,15,0
975,216,-2120,-240,-42,14,1
980,208,-2088,-232,-42,13,2
985,216,-2072,-168,-40,14,3
990,208,-2072,-224,-36,15,2
995,240,-2016,-200,-35,15,2
1000,224,-2088,-224,-36,14,2
1005,216,-2088,-208,-35,15,1
1010,232,-2104,-192,-36,14,-1
1015,232,-2080,-192,-36,14,-2
1020,232,-2072,-192,-38,14,-3
1025,232,-2072,-200,-38,15,-3
1030,240,-2080,-176,-40,14,-4
1035,232,-2072,-192,-40,13,-6
1040,248,-2088,-200,-39,13,-5
1045,216,-2056,-200,-40,14,-5
1050,256,-2088,-112,-38,15,-4
1055,240,-2104,-208,-38,13,-4
1060,248,-2056,-176,-38,13,-2
1065,224,-2080,-216,-36,12,-3
1070,240,-2072,-208,-34,12,-2
1075,256,-2056,-216,-34,12,-1
1080,264,-2056,-232,-34,13,0
1085,264,-2072,-192,-34,14,2
1090,240,-2104,-208,-36,15,2
1095,280,-2088,-224,-37,15,3
1100,264,-2064,-160,-36,16,5
1105,264,-2080,-208,-34,15,7
1110,248,-2096,-176,-33,17,8
1115,280,-2080,-200,-35,16,11
1120,248,-2104,-184,-36,16,15
1125,232,-2072,-216,-34,16,16
1130,256,-2072,-200,-35,17,16
1135,232,-2064,-192,-33,18,17
1140,240,-2096,-160,-33,19,18
1145,232,-2072,-184,-34,21,17
1150,240,-2080,-192,-35,22,19
1155,232,-2080,-160,-35,25,21
1160,240,-2104,-208,-36,29,22
1165,232,-2088,-184,-36,30,25
1170,248,-2088,-176,-36,30,27
1175,216,-2088,-168,-39,29,29
1180,232,-2096,-144,-40,27,31
1185,248,-2088,-200,-40,28,33
1190,232,-2088,-184,-41,26,36
1195,240,-2112,-168,-41,24,35
1200,240,-2096,-192,-41,22,36
1205,216,-2080,-160,-41,22,35
1210,240,-2112,-168,-38,23,34
1215,216,-2096,-184,-38,24,32
1220,200,-2088,-184,-38,25,32
1225,216,-2104,-184,-37,27,31
1230,232,-2088,-176,-36,29,31
1235,192,-2096,-184,-33,34,32
1240,208,-2080,-184,-31,36,32
1245,224,-2088,-192,-29,38,32
1250,216,-2080,-144,-29,37,33
1255,232,-2104,-192,-26,35,35
1260,216,-2104,-152,-25,33,37
1265,176,-2072,-232,-23,28,38
1270,208,-2056,-184,-22,24,41
1275,216,-2048,-168,-22,20,43
1280,216,-2088,-184,-23,15,45
1285,216,-2080,-208,-26,11,49
1290,192,-2056,-184,-29,10,50
1295,192,-2072,-184,-34,8,51
1300,168,-2096,-184,-40,7,50
1305,192,-2096,-200,-46,9,48
1310,200,-2096,-176,-50,12,47
1315,192,-2088,-136,-54,14,47
1320,248,-2112,-136,-57,15,45
1325,184,-2096,-200,-60,15,44
1330,168,-2088,-208,-60,15,42
1335,184,-2088,-168,-60,13,42
1340,200,-2080,-176,-60,13,41
1345,200,-2080,-184,-57,10,40
1350,184,-2064,-192,-57,9,42
1355,184,-2096,-160,-54,6,44
1360,184,-2096,-144,-51,2,44
1365,136,-2104,-216,-46,-2,44
1370,160,-2064,-248,-43,-5,45
1375,192,-2096,-216,-39,-7,47
1380,176,-2064,-200,-38,-7,47
1385,192,-2064,-240,-39,-8,47
1390,184,-2056,-192,-40,-9,48
1395,184,-2072,-176,-44,-8,47
1400,168,-2088,-216,-48,-7,46
1405,192,-2096,-224,-50,-6,44
1410,176,-2104,-224,-54,-4,44
1415,176,-2112,-192,-51,-5,42
1420,176,-2072,-192,-53,-1,39
1425,168,-2088,-176,-52,2,37
1430,176,-2088,-184,-52,4,34
1435,184,-2088,-192,-50,5,33
1440,184,-2072,-216,-51,4,32
1445,160,-2080,-176,-49,2,30
1450,184,-2104,-216,-50,2,28
1455,176,-2072,-240,-51,0,29
1460,168,-2096,-216,-51,0,27
1465,160,-2088,-208,-53,0,24
1470,200,-2080,-184,-56,1,24
1475,176,-2072,-208,-59,4,23
1480,200,-2072,-208,-63,8,22
1485,176,-2064,-192,-63,11,21
1490,160,-2080,-208,-64,14,19
1495,176,-2064,-184,-63,14,17
1500,176,-2064,-192,-66,17,16
1505,160,-2056,-192,-65,18,16
1510,192,-2064,-216,-66,18,15
1515,160,-2056,-176,-65,18,15
1520,184,-2080,-152,-64,18,14
1525,200,-2072,-232,-64,15,14
1530,176,-2048,-192,-64,17,15
1535,160,-2112,-168,-65,14,13
1540,224,-2088,-176,-68,13,16
1545,200,-2088,-192,-71,11,15
1550,208,-2080,-168,-72,12,15
1555,192,-2080,-176,-76,12,14
1560,184,-2080,-176,-79,10,12
1565,200,-2104,-184,-80,10,10
1570,176,-2104,-176,-80,11,7
1575,176,-2096,-200,-80,11,4
1580,184,-2104,-224,-78,15,2
1585,168,-2104,-192,-78,18,0
1590,152,-2112,-208,-78,22,-4
1595,168,-2112,-184,-78,23,-8
1600,152,-2104,-248,-78,26,-12
1605,168,-2128,-216,-75,28,-16
1610,160,-2104,-208,-76,28,-18
1615,152,-2096,-176,-76,29,-21
1620,152,-2088,-176,-79,29,-23
1625,144,-2080,-216,-79,26,-25
1630,144,-2080,-224,-81,26,-26
1635,120,-2080,-200,-82,24,-26
1640,160,-2080,-208,-84,23,-27
1645,152,-2056,-224,-85,21,-28
1650,128,-2104,-232,-86,20,-27
1655,136,-2072,-168,-82,19,-26
1660,152,-2080,-208,-81,17,-26
1665,168,-2096,-208,-81,18,-24
1670,128,-2056,-208,-77,18,-22
1675,168,-2048,-208,-75,19,-22
1680,136,-2072,-200,-73,19,-21
1685,192,-2064,-184,-72,18,-20
1690,184,-2096,-184,-71,18,-18
1695,208,-2088,-200,-71,15,-17
1700,168,-2072,-224,-73,14,-16
1705,168,-2072,-256,-73,13,-16
1710,184,-2088,-232,-72,11,-16
1715,176,-2088,-224,-72,9,-16
1720,192,-2080,-216,-72,8,-16
1725,176,-2096,-208,-70,6,-16
1730,208,-2104,-256,-68,7,-18
1735,216,-2112,-256,-66,6,-19
1740,200,-2112,-216,-63,6,-20
1745,200,-2104,-192,-62,4,-20
1750,208,-2104,-216,-60,2,-19
1755,200,-2080,-200,-59,1,-20
1760,208,-2088,-216,-62,1,-20
1765,216,-2104,-248,-62,-1,-21
1770,200,-2080,-232,-62,1,-21
1775,224,-2088,-216,-63,1,-21
1780,192,-2080,-216,-64,1,-21
1785,184,-2056,-224,-65,2,-22
1790,200,-2080,-248,-68,0,-21
1795,200,-2064,-232,-70,2,-21
1800,184,-2088,-216,-72,3,-20
1805,200,-2080,-232,-72,5,-19
1810,208,-2080,-152,-73,5,-20
1815,216,-2056,-232,-75,6,-18
1820,184,-2064,-216,-76,6,-19
1825,200,-2080,-200,-77,7,-20
1830,168,-2048,-240,-78,10,-20
1835,192,-2072,-208,-78,10,-19
1840,216,-2080,-240,-77,10,-19
1845,192,-2112,-216,-77,11,-20
1850,176,-2088,-248,-79,13,-21
1855,216,-2080,-224,-81,12,-19
1860,264,-2080,-256,-84,10,-17
1865,216,-2128,-232,-89,10,-12
1870,224,-2112,-232,-95,11,-6
1875,216,-2112,-240,-102,7,-1
1880,224,-2112,-264,-107,1,4
1885,224,-2136,-232,-111,-5,8
1890,200,-2136,-192,-107,-14,13
1895,192,-2136,-176,-103,-19,15
1900,200,-2104,-200,-95,-22,14
1905,208,-2112,-200,-83,-23,14
1910,200,-2120,-208,-69,-21,14
1915,176,-2112,-240,-60,-17,11
1920,168,-2072,-192,-52,-10,7
1925,184,-2064,-224,-47,-4,3
1930,184,-2080,-224,-43,0,-1
1935,176,-2072,-216,-41,5,-6
1940,160,-2056,-248,-42,9,-11
1945,168,-2072,-232,-44,11,-16
1950,176,-2072,-192,-49,13,-20
1955,160,-2040,-200,-55,15,-23
1960,184,-2088,-240,-62,15,-24
1965,144,-2064,-216,-68,16,-27
1970,144,-2056,-184,-74,15,-28
1975,152,-2080,-192,-79,17,-28
1980,168,-2088,-224,-84,17,-26
1985,144,-2080,-216,-87,18,-26
1990,192,-2096,-200,-90,20,-25
1995,176,-2096,-224,-91,19,-24
2000,168,-2104,-200,-89,17,-22
2005,184,-2088,-224,-87,14,-22
2010,168,-2088,-232,-84,14,-21
2015,144,-2096,-176,-79,11,-22
2020,176,-2096,-248,-74,7,-21
2025,168,-2088,-232,-69,2,-23
2030,136,-2088,-232,-65,-1,-25
2035,176,-2096,-224,-61,-5,-25
2040,184,-2096,-208,-59,-5,-27
2045,168,-2080,-216,-57,-4,-28
2050,168,-2088,-224,-56,-4,-28
2055,168,-2112,-240,-57,-4,-28
2060,176,-2096,-232,-58,-5,-28
2065,192,-2072,-232,-60,-4,-32
2070,152,-2072,-232,-61,-4,-32
2075,208,-2048,-232,-64,-3,-32
2080,208,-2104,-216,-66,-2,-34
2085,176,-2104,-248,-68,-3,-34
2090,184,-2080,-248,-67,0,-33
2095,176,-2088,-232,-68,3,-34
2100,216,-2120,-224,-69,6,-34
2105,224,-2104,-256,-68,8,-33
2110,208,-2072,-248,-68,9,-33
2115,224,-2072,-224,-69,10,-34
2120,216,-2096,-240,-69,13,-33
2125,208,-2048,-232,-70,14,-31
2130,200,-2128,-248,-71,16,-30
2135,216,-2104,-240,-73,17,-30
2140,232,-2104,-232,-72,15,-28
2145,224,-2112,-216,-70,14,-26
2150,240,-2112,-264,-69,12,-25
2155,248,-2096,-256,-65,9,-25
2160,216,-2104,-256,-62,7,-25
2165,248,-2104,-256,-60,6,-25
2170,208,-2088,-224,-59,6,-26
2175,224,-2080,-224,-58,5,-29
2180,248,-2112,-192,-57,6,-28
2185,224,-2096,-256,-53,7,-30
2190,232,-2088,-240,-51,10,-30
2195,216,-2072,-232,-50,12,-31
2200,224,-2048,-224,-51,15,-30
2205,248,-2072,-216,-54,15,-31
2210,232,-2072,-224,-56,17,-28
2215,232,-2064,-232,-58,17,-28
2220,240,-2072,-208,-62,16,-27
2225,240,-2072,-248,-65,16,-24
2230,264,-2096,-240,-66,15,-22
2235,296,-2128,-224,-68,13,-20
2240,240,-2088,-248,-68,11,-16
2245,248,-2112,-240,-70,10,-12
2250,240,-2120,-256,-66,9,-10
2255,240,-2088,-248,-62,9,-7
2260,248,-2096,-224,-60,8,-4
2265,248,-2112,-264,-57,8,-1
2270,232,-2120,-216,-54,10,2
2275,240,-2136,-296,-51,10,2
2280,232,-2120,-248,-49,10,5
2285,224,-2096,-256,-48,10,5
2290,200,-2104,-208,-49,11,6
2295,224,-2104,-264,-50,12,9
2300,224,-2112,-264,-50,13,8
2305,240,-2104,-264,-53,13,10
2310,224,-2096,-248,-53,15,9
2315,200,-2072,-256,-56,16,9
2320,192,-2104,-248,-58,16,6
2325,232,-2096,-216,-58,17,4
2330,200,-2072,-264,-61,19,4
2335,192,-2072,-240,-63,20,1
2340,176,-2064,-240,-63,22,-1
2345,152,-2104,-240,-65,23,-2
2350,168,-2064,-240,-68,22,-4
2355,184,-2088,-240,-68,23,-3
2360,184,-2088,-232,-69,22,-3
2365,168,-2072,-248,-71,21,-4
2370,176,-2104,-280,-69,20,-4
2375,168,-2080,-264,-69,18,-3
2380,176,-2128,-256,-69,18,-3
2385,168,-2088,-232,-67,15,0
2390,176,-2072,-256,-67,13,2
2395,176,-2104,-264,-67,9,3
2400,168,-2080,-272,-68,7,5
2405,200,-2088,-264,-67,4,7
2410,184,-2072,-240,-68,1,9
2415,184,-2104,-272,-66,-2,11
2420,176,-2104,-256,-65,-4,9
2425,192,-2088,-264,-62,-3,9
2430,184,-2128,-224,-58,-3,9
2435,192,-2096,-216,-54,-1,8
2440,168,-2088,-248,-50,1,6
2445,192,-2096,-200,-48,4,4
2450,192,-2088,-256,-45,10,0
2455,192,-2096,-232,-41,15,-3
2460,200,-2088,-240,-40,19,-6
2465,192,-2064,-224,-40,24,-7
2470,224,-2064,-256,-40,29,-10
2475,192,-2072,-208,-41,32,-12
2480,216,-2064,-240,-41,35,-13
2485,248,-2096,-224,-43,35,-14
2490,224,-2064,-224,-45,35,-15
2495,208,-2056,-272,-48,35,-13
2500,224,-2080,-248,-50,32,-11
2505,232,-2104,-264,-51,29,-10
2510,224,-2080,-272,-53,26,-9
2515,192,-2088,-264,-53,23,-9
2520,232,-2128,-232,-52,19,-6
2525,208,-2072,-280,-50,18,-6
2530,224,-2104,-248,-51,16,-6
2535,232,-2072,-280,-49,14,-6
2540,208,-2112,-280,-48,14,-7
2545,216,-2088,-280,-49,15,-7
2550,232,-2120,-256,-48,17,-8
2555,208,-2104,-256,-50,20,-10
2560,256,-2128,-296,-51,21,-11
2565,216,-2080,-256,-52,24,-12
2570,224,-2072,-272,-55,26,-15
2575,224,-2096,-272,-55,27,-15
2580,224,-2088,-264,-57,29,-16
2585,200,-2064,-288,-58,32,-19
2590,224,-2072,-248,-60,33,-21
2595,216,-2080,-232,-61,33,-22
2600,160,-2048,-280,-60,34,-23
2605,200,-2096,-264,-59,32,-23
2610,176,-2048,-312,-61,31,-24
2615,224,-2088,-272,-61,30,-23
2620,216,-2104,-248,-58,28,-23
2625,216,-2072,-256,-59,25,-22
2630,216,-2104,-272,-56,24,-20
2635,200,-2088,-264,-55,20,-18
2640,200,-2088,-296,-53,18,-17
2645,184,-2096,-288,-50,18,-17
2650,176,-2080,-272,-48,16,-15
2655,200,-2112,-240,-44,15,-15
2660,240,-2144,-304,-42,14,-13
2665,200,-2088,-264,-42,14,-14
2670,200,-2088,-232,-41,13,-15
2675,192,-2096,-248,-41,13,-16
2680,200,-2104,-280,-41,15,-18
2685,184,-2104,-248,-41,14,-20
2690,176,-2072,-256,-41,14,-22
2695,184,-2104,-256,-41,14,-22
2700,192,-2104,-256,-44,15,-24
2705,208,-2080,-264,-44,14,-25
2710,152,-2088,-288,-46,13,-25
2715,192,-2088,-288,-47,12,-27
2720,192,-2096,-304,-48,12,-27
2725,208,-2104,-256,-49,11,-28
2730,200,-2088,-264,-48,10,-29
2735,192,-2096,-240,-49,9,-31
2740,176,-2096,-224,-49,9,-32
2745,184,-2088,-256,-48,9,-32
2750,200,-2080,-264,-46,10,-33
2755,176,-2080,-272,-43,13,-34
2760,208,-2096,-240,-43,15,-35
2765,208,-2096,-264,-41,14,-34
2770,224,-2104,-272,-41,15,-33
2775,224,-2112,-216,-42,16,-34
2780,232,-2096,-232,-41,17,-33
2785,200,-2080,-248,-43,18,-33
2790,216,-2080,-240,-42,19,-32
2795,208,-2096,-240,-43,17,-30
2800,208,-2088,-272,-39,15,-30
2805,200,-2096,-224,-39,12,-30
2810,200,-2080,-224,-41,11,-30
2815,216,-2080,-216,-44,10,-30
2820,216,-2088,-240,-43,10,-30
2825,256,-2064,-272,-41,9,-31
2830,232,-2104,-224,-40,9,-31
2835,224,-2088,-264,-39,9,-32
2840,240,-2104,-280,-36,9,-35
2845,232,-2080,-248,-33,11,-37
2850,232,-2088,-248,-33,12,-38
2855,240,-2096,-256,-31,14,-38
2860,216,-2080,-256,-29,14,-41
2865,224,-2112,-288,-26,16,-43
2870,216,-2080,-256,-26,17,-45
2875,208,-2104,-256,-25,17,-46
2880,264,-2104,-264,-22,17,-47
2885,240,-2088,-280,-19,18,-47
2890,240,-2088,-264,-19,18,-46
2895,224,-2096,-280,-17,20,-45
2900,232,-2112,-264,-14,22,-45
2905,224,-2080,-296,-16,21,-46
2910,224,-2088,-248,-16,20,-45
2915,224,-2080,-224,-16,22,-43
2920,240,-2104,-256,-16,22,-42
2925,232,-2088,-256,-21,23,-40
2930,232,-2096,-240,-25,25,-38
2935,248,-2072,-192,-28,26,-36
2940,224,-2096,-232,-32,26,-32
2945,224,-2104,-264,-33,27,-30
2950,248,-2096,-272,-36,27,-29
2955,248,-2128,-248,-36,28,-25
2960,232,-2088,-256,-36,28,-24
2965,256,-2128,-232,-39,27,-20
2970,248,-2128,-192,-40,26,-18
2975,272,-2112,-240,-41,26,-15
2980,264,-2064,-256,-44,22,-12
2985,248,-2096,-256,-43,19,-10
2990,272,-2104,-288,-44,17,-8
2995,256,-2080,-248,-44,16,-4
3000,264,-2080,-232,-45,13,-2
3005,256,-2080,-232,-45,11,-1
3010,256,-2080,-240,-45,9,1
3015,272,-2064,-248,-46,6,3
3020,224,-2072,-248,-49,6,1
3025,232,-2056,-224,-51,6,2
3030,248,-2072,-224,-52,6,2
3035,232,-2048,-232,-53,8,1
3040,224,-2096,-240,-56,9,0
3045,232,-2072,-240,-57,11,0
3050,248,-2072,-216,-59,12,0
3055,248,-2088,-288,-59,13,-2
3060,232,-2080,-256,-58,14,-2
3065,232,-2088,-224,-58,16,-2
3070,240,-2080,-272,-57,16,-2
3075,248,-2096,-272,-57,18,-2
3080,240,-2088,-256,-55,18,-3
3085,280,-2096,-216,-54,20,-1
3090,248,-2096,-280,-54,21,-2
3095,224,-2080,-280,-54,20,-1
3100,248,-2104,-256,-54,20,1
3105,232,-2096,-224,-52,21,2
3110,232,-2088,-208,-52,20,4
3115,232,-2120,-248,-53,19,5
3120,224,-2104,-240,-54,19,6
3125,240,-2120,-232,-50,19,8
3130,240,-2120,-232,-51,19,8
3135,232,-2080,-200,-52,16,11
3140,208,-2088,-248,-52,17,11
3145,224,-2120,-264,-52,17,10
3150,192,-2072,-208,-52,18,12
3155,208,-2080,-256,-51,19,11
3160,208,-2104,-248,-53,20,9
3165,216,-2104,-256,-52,21,8
3170,208,-2096,-264,-51,21,8
3175,216,-2104,-256,-49,23,6
3180,224,-2104,-216,-47,23,4
3185,240,-2120,-264,-44,23,1
3190,200,-2088,-240,-39,22,-1
3195,200,-2096,-264,-34,24,-4
3200,192,-2096,-248,-31,24,-5
3205,168,-2096,-256,-28,25,-9
3210,208,-2104,-216,-26,26,-12
3215,200,-2112,-224,-25,27,-14
3220,216,-2120,-248,-24,29,-16
3225,208,-2080,-200,-24,30,-18
3230,224,-2104,-256,-26,34,-20
3235,224,-2064,-280,-29,38,-20
3240,208,-2120,-248,-29,41,-20
3245,248,-2104,-240,-30,43,-20
3250,224,-2112,-224,-32,45,-21
3255,184,-2072,-272,-32,47,-20
3260,200,-2064,-232,-31,49,-19
3265,200,-2056,-224,-33,51,-18
3270,232,-2064,-248,-33,52,-16
3275,232,-2072,-248,-36,51,-13
3280,232,-2064,-264,-38,50,-11
3285,216,-2048,-248,-41,49,-10
3290,224,-2056,-264,-43,45,-7
3295,240,-2056,-264,-40,42,-3
3300,232,-2072,-224,-41,37,-2
3305,248,-2080,-248,-39,33,0
3310,216,-2096,-272,-39,28,2
3315,264,-2088,-240,-39,25,6
3320,264,-2088,-240,-38,22,9
3325,264,-2080,-248,-38,21,11
3330,256,-2080,-280,-38,21,11
3335,264,-2088,-240,-39,22,12
3340,280,-2088,-256,-39,21,14
3345,272,-2080,-248,-39,19,16
3350,304,-2088,-248,-40,17,14
3355,280,-2104,-240,-39,15,17
3360,248,-2064,-224,-41,13,16
3365,304,-2128,-248,-40,12,18
3370,296,-2096,-232,-41,11,21
3375,272,-2088,-264,-43,10,22
3380,288,-2112,-248,-43,8,25
3385,272,-2096,-256,-47,5,27
3390,264,-2104,-256,-49,4,29
3395,256,-2080,-272,-51,2,31
3400,248,-2120,-216,-51,0,33
3405,240,-2096,-272,-51,0,35
3410,248,-2104,-256,-51,0,38
3415,224,-2104,-288,-50,2,41
3420,224,-2104,-256,-47,2,43
3425,224,-2072,-272,-44,3,44
3430,216,-2136,-248,-40,7,49
3435,224,-2112,-248,-37,10,51
3440,200,-2104,-256,-32,12,53
3445,224,-2120,-240,-30,15,57
3450,208,-2136,-224,-23,14,58
3455,216,-2120,-248,-19,15,61
3460,184,-2080,-256,-15,15,60
3465,224,-2136,-240,-16,13,60
3470,208,-2104,-264,-15,10,59
3475,208,-2112,-248,-19,11,58
3480,224,-2104,-232,-19,13,55
3485,184,-2080,-256,-19,16,51
3490,192,-2096,-208,-22,20,47
3495,192,-2072,-232,-22,23,43
3500,200,-2088,-240,-24,28,38
3505,200,-2072,-216,-26,29,34
3510,184,-2056,-248,-28,32,30
3515,216,-2080,-224,-30,35,26
3520,192,-2056,-232,-31,38,23
3525,152,-2064,-224,-35,39,17
3530,168,-2064,-208,-38,38,15
3535,176,-2064,-192,-42,36,13
3540,160,-2056,-216,-44,35,9
3545,160,-2064,-240,-46,33,8
3550,192,-2056,-216,-49,31,7
3555,152,-2064,-216,-51,30,6
3560,136,-2080,-200,-54,28,7
3565,152,-2080,-232,-56,24,7
3570,144,-2072,-208,-57,22,5
3575,152,-2072,-264,-59,18,4
3580,232,-2104,-256,-60,16,2
3585,168,-2064,-264,-60,14,2
3590,192,-2096,-240,-62,15,3
3595,160,-2104,-224,-60,13,2
3600,184,-2096,-224,-61,11,1
3605,168,-2104,-256,-61,10,0
3610,160,-2088,-240,-60,11,-1
3615,176,-2136,-256,-57,13,-4
3620,152,-2120,-248,-51,14,-8
3625,192,-2128,-232,-45,14,-9
3630,184,-2168,-288,-37,18,-14
3635,192,-2120,-272,-25,23,-18
3640,160,-2152,-272,-10,30,-22
3645,200,-2168,-248,5,38,-26
3650,192,-2160,-280,19,43,-28
3655,184,-2144,-280,34,48,-28
3660,176,-2128,-288,47,51,-28
3665,208,-2088,-304,55,52,-26
3670,208,-2096,-288,60,51,-24
3675,216,-2096,-248,60,47,-22
3680,208,-2096,-256,58,41,-20
3685,224,-2088,-256,53,36,-19
3690,200,-2080,-256,46,31,-16
3695,248,-2096,-240,41,28,-14
3700,224,-2048,-240,35,25,-12
3705,224,-2056,-240,31,21,-8
3710,240,-2072,-200,26,17,-5
3715,240,-2080,-256,20,16,-4
3720,248,-2072,-216,15,15,-3
3725,248,-2080,-232,8,12,-4
3730,216,-2096,-200,3,12,-5
3735,224,-2080,-240,-1,11,-7
3740,200,-2112,-208,-5,11,-10
3745,200,-2080,-200,-9,11,-15
3750,200,-2064,-216,-11,12,-20
3755,192,-2064,-192,-13,13,-25
3760,200,-2088,-240,-17,14,-30
3765,184,-2080,-192,-20,17,-37
3770,168,-2064,-208,-24,20,-41
3775,176,-2064,-184,-27,22,-44
3780,144,-2064,-216,-32,26,-48
3785,176,-2056,-208,-35,30,-48
3790,192,-2064,-224,-38,31,-49
3795,168,-2064,-232,-39,33,-47
3800,176,-2064,-200,-40,33,-46
3805,176,-2056,-176,-41,34,-44
3810,168,-2072,-208,-43,34,-42
3815,192,-2072,-208,-42,34,-39
3820,208,-2080,-160,-43,33,-36
3825,200,-2088,-200,-41,32,-33
3830,200,-2072,-168,-41,31,-31
3835,208,-2080,-208,-42,28,-27
3840,216,-2096,-216,-43,26,-25
3845,208,-2072,-176,-44,25,-24
3850,232,-2072,-168,-44,24,-22
3855,240,-2064,-192,-44,22,-19
3860,240,-2080,-208,-44,20,-18
3865,240,-2080,-216,-43,20,-15
3870,208,-2080,-216,-42,19,-14
3875,232,-2096,-216,-41,18,-14
3880,256,-2072,-224,-38,17,-13
3885,264,-2112,-240,-35,16,-11
3890,248,-2096,-208,-34,15,-11
3895,248,-2080,-256,-33,15,-10
3900,272,-2128,-208,-31,14,-11
3905,288,-2120,-208,-31,13,-12
3910,256,-2104,-240,-32,12,-14
3915,240,-2072,-224,-33,10,-13
3920,232,-2072,-232,-32,7,-14
3925,248,-2088,-256,-35,6,-17
3930,248,-2104,-240,-35,3,-16
3935,256,-2120,-240,-34,2,-18
3940,248,-2104,-248,-33,2,-18
3945,216,-2136,-232,-33,3,-20
3950,232,-2112,-224,-34,4,-21
3955,256,-2120,-192,-35,5,-22
3960,208,-2088,-256,-34,8,-22
3965,224,-2096,-200,-34,11,-23
3970,224,-2096,-240,-34,12,-24
3975,192,-2088,-208,-35,15,-24
3980,224,-2096,-232,-36,17,-25
3985,200,-2080,-224,-37,18,-25
3990,200,-2088,-240,-38,19,-26
3995,208,-2104,-216,-37,20,-26
4000,200,-2080,-200,-39,20,-26
4005,208,-2104,-192,-40,20,-27
4010,208,-2072,-184,-38,20,-27
4015,184,-2080,-208,-39,22,-27
4020,192,-2088,-184,-39,22,-29
4025,192,-2080,-200,-40,24,-29
4030,184,-2088,-200,-38,24,-27
4035,192,-2080,-192,-38,24,-28
4040,200,-2080,-176,-36,25,-28
4045,192,-2064,-208,-35,25,-28
4050,184,-2072,-224,-34,27,-28
4055,200,-2080,-184,-35,28,-27
4060,216,-2080,-176,-35,27,-27
4065,208,-2112,-248,-35,26,-28
4070,240,-2080,-232,-36,24,-26
4075,208,-2080,-184,-35,22,-26
4080,216,-2072,-232,-34,20,-25
4085,224,-2096,-192,-34,19,-25
4090,232,-2104,-200,-32,16,-26
4095,256,-2088,-184,-31,15,-26
4100,240,-2088,-216,-31,16,-25
4105,224,-2072,-200,-31,14,-26
4110,272,-2120,-224,-35,13,-28
4115,240,-2096,-200,-37,11,-27
4120,224,-2088,-256,-39,11,-28
4125,248,-2080,-224,-39,10,-29
4130,248,-2064,-256,-41,10,-30
4135,240,-2096,-224,-39,10,-30
4140,232,-2096,-240,-39,11,-32
4145,240,-2096,-200,-38,12,-32
4150,248,-2096,-232,-35,12,-32
4155,256,-2096,-232,-34,12,-30
4160,248,-2088,-208,-37,13,-31
4165,224,-2088,-240,-40,12,-31
4170,232,-2096,-248,-44,12,-32
4175,232,-2096,-232,-45,12,-33
4180,224,-2096,-264,-45,14,-33
4185,248,-2128,-248,-41,17,-33
4190,240,-2112,-224,-37,19,-31
4195,256,-2120,-240,-33,22,-31
4200,240,-2104,-176,-27,25,-30
4205,216,-2080,-184,-27,27,-29
4210,232,-2104,-232,-23,28,-27
4215,232,-2080,-224,-21,30,-26
4220,248,-2080,-168,-20,29,-23
4225,216,-2072,-184,-22,28,-22
4230,248,-2040,-192,-22,25,-21
4235,240,-2064,-216,-22,25,-19
4240,224,-2056,-208,-25,24,-19
4245,248,-2072,-224,-27,22,-20
4250,224,-2048,-208,-31,22,-19
4255,224,-2080,-200,-34,20,-18
4260,248,-2080,-192,-36,20,-18
4265,216,-2056,-208,-36,21,-19
4270,200,-2040,-208,-38,20,-20
4275,232,-2088,-216,-37,18,-20
4280,216,-2056,-216,-39,18,-20
4285,240,-2064,-192,-38,19,-22
4290,216,-2072,-200,-38,19,-23
4295,232,-2080,-184,-36,20,-21
4300,248,-2096,-216,-38,20,-21
4305,232,-2080,-208,-35,19,-22
4310,248,-2088,-248,-36,19,-21
4315,232,-2104,-216,-39,16,-21
4320,256,-2080,-200,-38,16,-21
4325,256,-2104,-200,-36,14,-20
4330,240,-2104,-208,-40,14,-22
4335,280,-2120,-208,-38,16,-21
4340,248,-2088,-240,-42,17,-20
4345,272,-2088,-184,-43,17,-19
4350,240,-2080,-208,-43,15,-19
4355,240,-2112,-192,-47,15,-18
4360,240,-2080,-200,-46,15,-18
4365,224,-2072,-200,-48,16,-18
4370,256,-2088,-224,-48,15,-16
4375,224,-2080,-160,-47,18,-16
4380,256,-2096,-192,-43,18,-14
4385,224,-2104,-200,-43,18,-12
4390,256,-2096,-144,-43,19,-12
4395,216,-2072,-184,-43,20,-10
4400,232,-2064,-208,-43,20,-8
4405,224,-2072,-216,-42,19,-6
4410,248,-2080,-192,-43,20,-7
4415,248,-2088,-208,-44,20,-6
4420,248,-2104,-224,-45,21,-4
4425,232,-2112,-232,-43,19,-4
4430,256,-2096,-224,-43,19,-4
4435,264,-2080,-216,-44,20,-4
4440,232,-2072,-200,-48,19,-3
4445,296,-2104,-168,-48,17,-1
4450,256,-2080,-232,-51,18,0
4455,264,-2088,-232,-51,17,1
4460,248,-2088,-216,-54,15,3
4465,248,-2104,-232,-53,15,5
4470,232,-2072,-232,-51,14,7
4475,256,-2096,-232,-52,14,9
4480,240,-2088,-216,-50,14,12
4485,264,-2072,-200,-50,13,13
4490,248,-2104,-216,-47,12,14
4495,248,-2080,-208,-45,12,17
4500,256,-2072,-216,-41,13,18
4505,248,-2080,-240,-39,11,18
4510,240,-2064,-248,-36,11,16
4515,232,-2080,-208,-37,9,13
4520,240,-2080,-200,-38,9,12
4525,272,-2088,-240,-38,9,7
4530,248,-2064,-232,-39,10,3
4535,232,-2072,-208,-40,10,-1
4540,224,-2080,-200,-44,12,-6
4545,240,-2072,-216,-47,15,-10
4550,208,-2080,-192,-49,18,-13
4555,232,-2096,-216,-51,20,-13
4560,224,-2096,-208,-51,24,-16
4565,224,-2080,-184,-49,26,-16
4570,232,-2112,-176,-49,29,-17
4575,224,-2080,-184,-52,31,-16
4580,216,-2072,-176,-53,30,-14
4585,224,-2096,-208,-55,32,-14
4590,232,-2128,-208,-57,35,-14
4595,224,-2080,-200,-60,35,-15
4600,216,-2080,-240,-62,36,-13
4605,232,-2088,-184,-62,35,-14
4610,224,-2088,-216,-61,34,-13
4615,208,-2080,-240,-57,33,-12
4620,224,-2112,-216,-54,34,-12
4625,208,-2080,-184,-51,35,-12
4630,224,-2056,-160,-47,35,-12
4635,232,-2088,-184,-43,36,-10
4640,256,-2096,-200,-42,36,-11
4645,240,-2080,-208,-43,36,-11
4650,264,-2088,-232,-43,36,-8
4655,232,-2080,-224,-42,34,-6
4660,240,-2088,-184,-40,31,-5
4665,256,-2088,-232,-40,30,-4
4670,224,-2080,-208,-39,25,-3
4675,248,-2088,-200,-38,22,-2
4680,240,-2080,-192,-40,20,-3
4685,232,-2080,-240,-38,16,-2
4690,248,-2072,-208,-39,14,-4
4695,248,-2080,-224,-41,11,-4
4700,232,-2080,-208,-42,10,-6
4705,224,-2080,-240,-44,9,-7
4710,240,-2096,-208,-47,8,-7
4715,256,-2128,-224,-48,8,-8
4720,232,-2088,-184,-50,7,-8
4725,232,-2088,-192,-53,7,-7
4730,240,-2104,-200,-52,8,-6
4735,232,-2096,-208,-54,7,-7
4740,232,-2088,-216,-54,7,-4
4745,224,-2072,-200,-55,8,-3
4750,264,-2096,-200,-54,8,-3
4755,248,-2088,-200,-54,8,-1
4760,224,-2104,-216,-53,9,-1
4765,216,-2088,-192,-52,10,1
4770,264,-2072,-176,-51,10,2
4775,216,-2080,-208,-51,10,2
4780,224,-2072,-224,-51,10,3
4785,240,-2112,-224,-51,11,3
4790,224,-2096,-200,-51,10,4
4795,248,-2112,-192,-49,11,3
4800,248,-2104,-208,-50,11,1
4805,216,-2088,-192,-49,12,1
4810,240,-2072,-216,-48,14,2
4815,232,-2088,-208,-47,16,1
4820,192,-2056,-200,-46,16,1
4825,248,-2056,-176,-45,18,1
4830,280,-2080,-216,-44,19,2
4835,256,-2080,-208,-46,20,1
4840,272,-2048,-200,-46,19,3
4845,272,-2056,-208,-48,19,4
4850,240,-2064,-184,-49,19,3
4855,272,-2072,-208,-52,18,3
4860,256,-2064,-200,-54,18,4
4865,256,-2048,-192,-59,18,3
4870,288,-2072,-176,-63,17,5
4875,272,-2088,-160,-66,15,5
4880,288,-2072,-192,-69,14,4
4885,264,-2080,-176,-73,13,2
4890,272,-2080,-216,-76,10,1
4895,264,-2096,-160,-79,6,1
4900,264,-2104,-240,-84,5,-3
4905,264,-2088,-192,-84,4,-7
4910,264,-2088,-200,-83,4,-12
4915,240,-2072,-216,-84,3,-18
4920,248,-2112,-224,-86,0,-24
4925,240,-2104,-216,-87,1,-30
4930,208,-2096,-264,-84,3,-35
4935,208,-2088,-224,-78,7,-40
4940,208,-2096,-256,-75,9,-45
4945,224,-2112,-240,-72,14,-48
4950,200,-2096,-256,-68,16,-50
4955,224,-2104,-280,-66,19,-54
4960,192,-2096,-256,-64,23,-52
4965,176,-2064,-224,-63,25,-52
4970,192,-2088,-264,-64,27,-51
4975,232,-2112,-232,-63,29,-48
4980,200,-2096,-264,-63,26,-43
4985,224,-2120,-200,-62,24,-41
4990,208,-2120,-224,-61,22,-35
4995,192,-2096,-216,-61,18,-30
5000,208,-2120,-224,-60,15,-27
5005,208,-2120,-216,-60,13,-24
5010,184,-2096,-216,-60,13,-21
5015,200,-2096,-232,-55,13,-17
5020,200,-2104,-200,-52,13,-16
5025,208,-2120,-200,-49,16,-15
5030,176,-2104,-240,-44,19,-15
5035,208,-2096,-208,-44,21,-17
5040,248,-2072,-288,-42,27,-19
5045,216,-2096,-240,-38,31,-20
5050,208,-2096,-200,-37,34,-22
5055,216,-2064,-216,-36,38,-23
5060,240,-2088,-224,-36,39,-26
5065,224,-2080,-208,-36,38,-28
5070,240,-2072,-224,-38,36,-31
5075,256,-2080,-184,-40,33,-33
5080,256,-2096,-224,-41,29,-35
5085,248,-2080,-168,-44,25,-36
5090,280,-2088,-192,-43,20,-36
5095,272,-2072,-232,-43,14,-35
5100,248,-2080,-216,-43,11,-34
5105,280,-2096,-216,-44,8,-33
5110,296,-2088,-240,-44,7,-32
5115,296,-2096,-200,-44,5,-29
5120,256,-2072,-224,-40,4,-25
5125,304,-2104,-240,-39,4,-22
5130,288,-2104,-232,-38,2,-20
5135,296,-2080,-208,-37,1,-18
5140,296,-2096,-232,-37,5,-14
5145,296,-2096,-280,-36,6,-11
5150,296,-2088,-216,-34,8,-11
5155,280,-2080,-232,-32,9,-7
5160,280,-2080,-240,-33,11,-7
5165,296,-2080,-232,-33,13,-6
5170,296,-2112,-248,-33,14,-4
5175,296,-2088,-240,-34,17,-3
5180,272,-2096,-272,-34,19,-1
5185,304,-2080,-232,-36,19,1
5190,288,-2088,-232,-33,22,0
5195,280,-2088,-208,-31,22,0
5200,272,-2088,-232,-31,22,0
5205,272,-2080,-232,-32,22,0
5210,272,-2072,-240,-31,22,0
5215,288,-2088,-216,-30,23,-1
5220,264,-2080,-224,-32,23,-3
5225,240,-2072,-208,-32,26,-2
5230,264,-2088,-192,-31,27,-1
5235,264,-2088,-224,-28,29,-2
5240,280,-2112,-200,-28,31,-3
5245,256,-2104,-248,-27,32,-3
5250,248,-2104,-240,-29,32,-2
5255,312,-2080,-128,-29,32,-1
5260,304,-2088,-216,-30,30,-1
5265,280,-2088,-176,-29,30,-1
5270,256,-2112,-208,-28,28,0
5275,264,-2072,-208,-27,28,1
5280,264,-2120,-216,-25,27,3
5285,280,-2088,-224,-23,25,4
5290,272,-2096,-200,-21,23,5
5295,272,-2088,-136,-20,20,6
5300,280,-2080,-192,-20,17,7
5305,256,-2072,-120,-19,13,8
5310,272,-2072,-168,-20,9,10
5315,272,-2080,-176,-21,5,11
5320,240,-2056,-144,-26,-3,13
5325,248,-2064,-144,-34,-11,12
5330,224,-2040,-152,-43,-18,10
5335,224,-2056,-160,-53,-24,6
5340,208,-2072,-136,-63,-28,1
5345,208,-2088,-128,-72,-30,-7
5350,208,-2112,-176,-77,-29,-17
5355,200,-2096,-192,-78,-26,-26
5360,192,-2080,-200,-75,-17,-35
5365,200,-2128,-184,-70,-9,-43
5370,192,-2136,-224,-62,-1,-49
5375,184,-2136,-208,-54,7,-52
5380,192,-2128,-192,-47,11,-53
5385,192,-2144,-216,-37,14,-54
5390,216,-2120,-232,-29,15,-54
5395,216,-2112,-216,-23,18,-50
5400,224,-2096,-240,-17,21,-45
5405,208,-2088,-256,-13,25,-39
5410,216,-2088,-232,-12,28,-31
5415,184,-2048,-240,-13,28,-25
5420,240,-2056,-248,-17,29,-17
5425,216,-2064,-224,-23,28,-10
5430,232,-2048,-232,-29,29,-3
5435,256,-2080,-248,-37,30,1
5440,248,-2064,-232,-43,29,4
5445,256,-2072,-184,-44,31,8
5450,224,-2064,-248,-42,32,10
5455,264,-2088,-224,-40,32,12
5460,256,-2104,-248,-34,32,11
5465,256,-2080,-240,-29,32,11
5470,288,-2088,-200,-23,31,10
5475,296,-2096,-232,-15,30,8
5480,312,-2064,-208,-12,29,4
5485,304,-2088,-232,-11,30,0
5490,304,-2072,-192,-9,27,-5
5495,304,-2072,-224,-10,26,-10
5500,296,-2064,-208,-13,25,-15
5505,344,-2064,-224,-18,23,-21
5510,304,-2056,-216,-24,23,-26
5515,328,-2072,-232,-29,21,-31
5520,304,-2072,-192,-33,22,-33
5525,272,-2032,-256,-38,23,-37
5530,304,-2056,-176,-42,24,-37
5535,296,-2056,-192,-47,25,-36
5540,264,-2064,-168,-53,26,-34
5545,264,-2080,-192,-58,29,-29
5550,256,-2072,-208,-61,29,-24
5555,256,-2104,-200,-66,28,-18
5560,224,-2120,-192,-70,26,-10
5565,256,-2128,-216,-73,22,-4
5570,232,-2088,-216,-73,17,4
5575,200,-2128,-224,-71,11,8
5580,232,-2120,-224,-68,6,12
5585,184,-2120,-248,-63,1,15
5590,192,-2112,-200,-56,-1,17
5595,176,-2096,-208,-49,-5,17
5600,184,-2104,-240,-43,-9,17
5605,176,-2080,-208,-36,-11,14
5610,176,-2072,-224,-33,-13,12
5615,216,-2112,-200,-31,-12,8
5620,168,-2080,-224,-29,-9,2
5625,200,-2088,-216,-28,-8,-3
5630,136,-2072,-192,-31,-7,-9
5635,184,-2048,-232,-36,-4,-18
5640,208,-2080,-256,-39,0,-25
5645,200,-2056,-232,-42,5,-32
5650,232,-2072,-232,-48,8,-37
5655,232,-2048,-232,-52,11,-41
5660,248,-2064,-216,-58,14,-45
5665,256,-2088,-192,-63,17,-47
5670,256,-2064,-200,-68,19,-49
5675,256,-2080,-184,-74,20,-51
5680,256,-2064,-184,-80,19,-48
5685,224,-2112,-192,-84,20,-47
5690,248,-2096,-192,-88,17,-45
5695,256,-2096,-232,-89,10,-42
5700,264,-2112,-200,-87,4,-40
5705,256,-2120,-168,-84,-2,-37
5710,264,-2128,-184,-75,-7,-35
5715,272,-2112,-208,-67,-13,-33
5720,296,-2104,-168,-60,-16,-32
5725,320,-2104,-232,-55,-19,-29
5730,272,-2112,-232,-52,-22,-28
5735,280,-2104,-184,-49,-26,-27
5740,288,-2152,-112,-49,-28,-26
5745,280,-2104,-192,-45,-28,-26
5750,296,-2112,-216,-43,-27,-28
5755,264,-2096,-208,-41,-25,-29
5760,272,-2096,-200,-37,-22,-30
5765,272,-2080,-192,-35,-19,-31
5770,264,-2088,-208,-34,-16,-33
5775,272,-2080,-232,-33,-13,-34
5780,296,-2072,-184,-35,-9,-35
5785,296,-2088,-184,-36,-6,-35
5790,280,-2072,-200,-38,-4,-35
5795,320,-2088,-200,-41,-1,-35
5800,296,-2080,-168,-45,4,-34
5805,280,-2064,-192,-49,7,-34
5810,312,-2080,-216,-54,8,-32
5815,304,-2088,-176,-55,10,-29
5820,304,-2080,-208,-56,11,-27
5825,304,-2088,-208,-55,14,-25
5830,304,-2072,-184,-55,17,-22
5835,296,-2072,-200,-54,19,-21
5840,304,-2104,-200,-50,20,-20
5845,296,-2088,-176,-49,20,-17
5850,328,-2136,-176,-47,22,-15
5855,304,-2080,-192,-47,22,-14
5860,320,-2104,-192,-46,23,-10
5865,304,-2080,-216,-45,23,-9
5870,312,-2080,-232,-44,25,-6
5875,304,-2072,-208,-42,25,-4
5880,312,-2080,-232,-44,26,-2
5885,304,-2056,-184,-45,27,0
5890,312,-2056,-216,-44,28,1
5895,320,-2088,-240,-45,28,3
5900,296,-2128,-192,-46,28,5
5905,312,-2088,-192,-45,27,5
5910,296,-2088,-200,-43,27,7
5915,288,-2096,-208,-42,28,8
5920,304,-2088,-240,-41,30,11
5925,312,-2096,-224,-40,31,13
5930,320,-2064,-232,-39,33,14
5935,304,-2088,-264,-39,33,15
5940,328,-2112,-264,-37,33,16
5945,320,-2064,-232,-38,33,18
5950,272,-2056,-184,-38,31,19
5955,296,-2072,-240,-39,30,20
5960,304,-2096,-256,-36,32,21
5965,288,-2064,-240,-34,30,23
5970,264,-2072,-224,-37,29,25
5975,304,-2088,-232,-36,30,26
5980,280,-2096,-224,-33,31,27
5985,288,-2080,-200,-33,31,28
5990,264,-2088,-264,-32,32,28
5995,280,-2088,-216,-31,30,29
6000,256,-2104,-232,-30,31,30
6005,216,-2088,-232,-28,31,31
6010,288,-2088,-208,-25,32,31
6015,272,-2096,-208,-24,33,30
6020,232,-2080,-248,-22,32,31
6025,248,-2088,-232,-20,32,32
6030,240,-2088,-216,-20,33,30
6035,256,-2096,-216,-16,33,31
6040,224,-2088,-200,-15,33,28
6045,256,-2064,-176,-12,36,27
6050,256,-2096,-192,-10,36,25
6055,232,-2080,-192,-11,37,23
6060,216,-2088,-240,-8,38,22
6065,224,-2112,-240,-6,37,19
6070,208,-2096,-176,-7,38,18
6075,208,-2088,-208,-5,39,15
6080,208,-2072,-192,-5,40,13
6085,224,-2104,-224,-5,40,13
6090,216,-2080,-224,-5,40,12
6095,208,-2104,-232,-6,40,10
6100,208,-2064,-216,-6,39,8
6105,184,-2064,-240,-7,38,7
6110,216,-2088,-232,-6,36,5
6115,208,-2112,-216,-6,34,4
6120,208,-2072,-240,-5,35,3
6125,232,-2080,-176,-6,34,4
6130,216,-2088,-152,-5,34,2
6135,224,-2088,-208,-7,34,1
6140,216,-2088,-184,-5,31,1
6145,248,-2096,-200,-4,30,-2
6150,224,-2088,-176,-6,30,-2
6155,240,-2104,-160,-7,29,-3
6160,248,-2072,-168,-6,29,-4
6165,248,-2096,-160,-7,29,-3
6170,256,-2104,-152,-9,27,-2
6175,256,-2096,-200,-9,26,-4
6180,240,-2088,-144,-9,25,-4
6185,240,-2080,-144,-9,25,-5
6190,256,-2080,-168,-9,23,-5
6195,240,-2080,-168,-7,23,-6
6200,272,-2096,-160,-6,23,-7
6205,280,-2096,-152,-5,21,-7
6210,256,-2088,-160,-5,21,-7
6215,240,-2096,-192,-6,21,-6
6220,256,-2104,-160,-5,21,-6
6225,280,-2096,-216,-7,21,-7
6230,288,-2048,-128,-7,20,-6
6235,240,-2072,-192,-8,19,-9
6240,272,-2080,-176,-10,17,-7
6245,288,-2096,-208,-10,18,-6
6250,264,-2072,-200,-9,16,-6
6255,272,-2080,-160,-9,17,-6
6260,288,-2104,-184,-8,19,-7
6265,272,-2072,-176,-6,19,-6
6270,248,-2080,-192,-6,19,-5
6275,288,-2096,-176,-4,20,-4
6280,264,-2104,-200,-5,20,-4
6285,272,-2088,-208,-3,21,-3
6290,288,-2096,-152,-2,21,-4
6295,280,-2080,-152,-2,23,-2
6300,304,-2088,-192,-3,23,-2
6305,280,-2096,-168,-2,24,0
6310,288,-2096,-176,-3,23,0
6315,280,-2072,-160,-3,23,1
6320,256,-2096,-144,-2,23,2
6325,272,-2104,-168,0,22,4
6330,256,-2064,-216,1,21,7
6335,240,-2024,-160,0,21,6
6340,264,-2104,-168,1,21,8
6345,264,-2088,-160,1,20,11
6350,272,-2088,-176,2,21,9
6355,288,-2072,-152,1,20,9
6360,288,-2096,-200,1,22,11
6365,264,-2104,-136,3,22,12
6370,264,-2104,-176,2,21,14
6375,288,-2096,-160,2,22,13
6380,248,-2072,-160,3,22,14
6385,272,-2096,-160,4,24,12
6390,280,-2096,-240,6,23,13
6395,272,-2104,-208,8,23,12
6400,256,-2072,-184,11,24,12
6405,264,-2096,-184,12,25,11
6410,280,-2080,-176,14,25,11
6415,256,-2088,-200,17,27,10
6420,272,-2096,-200,19,28,11
6425,232,-2104,-176,21,29,10
6430,264,-2096,-168,25,29,11
6435,264,-2128,-168,31,28,12
6440,256,-2152,-208,37,29,12
6445,232,-2104,-200,38,29,13
6450,216,-2080,-184,42,28,16
6455,248,-2104,-200,46,24,19
6460,248,-2080,-216,49,24,21
6465,240,-2064,-192,54,23,21
6470,232,-2072,-176,56,22,23
6475,232,-2104,-184,59,23,24
6480,256,-2080,-160,63,23,26
6485,232,-2088,-192,65,24,26
6490,240,-2088,-160,66,22,26
6495,264,-2144,-232,69,22,26
6500,248,-2096,-160,70,20,23
6505,224,-2096,-176,73,20,21
6510,240,-2112,-200,73,19,20
6515,224,-2104,-168,77,20,17
6520,232,-2120,-176,81,21,16
6525,248,-2112,-168,85,23,11
6530,216,-2104,-152,89,23,10
6535,208,-2088,-192,91,24,7
6540,240,-2144,-200,95,26,6
6545,232,-2096,-160,98,27,5
6550,256,-2136,-200,102,26,3
6555,224,-2104,-192,107,26,1
6560,224,-2128,-200,115,28,0
6565,192,-2104,-200,126,29,-1
6570,224,-2136,-152,138,31,-1
6575,208,-2144,-184,151,33,0
6580,192,-2112,-144,164,36,-1
6585,192,-2112,-200,177,38,-1
6590,216,-2128,-168,187,39,0
6595,192,-2112,-192,200,42,2
6600,224,-2104,-152,209,42,2
6605,208,-2120,-176,218,43,2
6610,216,-2104,-136,229,43,4
6615,208,-2120,-144,236,43,5
6620,240,-2112,-128,243,41,7
6625,216,-2096,-144,254,40,8
6630,216,-2072,-104,263,35,9
6635,224,-2096,-120,270,32,10
6640,232,-2112,-144,280,27,10
6645,248,-2088,-96,287,22,12
6650,256,-2072,-96,294,19,12
6655,264,-2096,-88,299,17,12
6660,248,-2088,-80,303,13,11
6665,280,-2080,-80,306,10,10
6670,256,-2080,-40,312,9,8
6675,248,-2088,-64,318,8,6
6680,272,-2080,-80,323,6,1
6685,240,-2048,-72,325,6,-4
6690,256,-2056,-40,330,6,-9
6695,248,-2088,-48,334,7,-12
6700,240,-2080,-64,335,8,-17
6705,240,-2064,-40,331,7,-21
6710,248,-2104,-48,332,8,-25
6715,224,-2064,-48,331,8,-29
6720,232,-2080,-24,333,7,-29
6725,224,-2064,-48,333,5,-31
6730,224,-2096,-32,335,6,-33
6735,224,-2088,-40,337,7,-30
6740,240,-2096,-8,339,6,-29
6745,232,-2088,8,340,6,-27
6750,208,-2088,0,345,7,-25
6755,224,-2104,8,352,5,-21
6760,232,-2104,16,358,4,-18
6765,176,-2080,-24,368,4,-14
6770,232,-2112,8,374,4,-10
6775,224,-2088,0,381,1,-7
6780,232,-2088,16,389,-4,-1
6785,248,-2088,0,396,-6,3
6790,256,-2128,24,401,-10,7
6795,272,-2120,8,402,-12,12
6800,256,-2120,40,406,-18,17
6805,304,-2112,48,406,-24,22
6810,280,-2120,16,409,-26,28
6815,280,-2128,16,412,-32,33
6820,264,-2080,40,414,-38,37
6825,272,-2104,56,418,-43,41
6830,256,-2080,48,423,-47,44
6835,240,-2048,96,427,-51,48
6840,240,-2048,96,434,-53,50
6845,232,-2048,120,441,-55,53
6850,240,-2048,96,446,-57,54
6855,216,-2016,104,451,-58,53
6860,216,-2032,96,457,-57,50
6865,216,-2024,88,463,-58,48
6870,264,-2016,96,467,-58,45
6875,240,-2032,96,468,-59,41
6880,224,-1976,72,466,-61,37
6885,216,-1992,104,462,-61,31
6890,248,-2008,104,460,-63,28
6895,240,-2008,96,455,-62,23
6900,248,-1992,96,450,-63,20
6905,248,-2024,120,444,-66,18
6910,240,-2008,112,440,-68,17
6915,224,-2040,112,434,-72,16
6920,240,-2040,168,432,-76,17
6925,216,-2056,152,429,-81,17
6930,224,-2056,184,431,-86,19
6935,208,-2056,192,435,-94,21
6940,216,-2056,208,439,-101,22
6945,208,-2088,200,443,-108,25
6950,232,-2064,200,450,-116,30
6955,224,-2064,208,456,-122,33
6960,216,-2064,208,463,-128,38
6965,240,-2072,232,470,-133,41
6970,232,-2056,240,476,-137,44
6975,240,-2040,224,477,-143,48
6980,256,-2000,264,473,-148,52
6985,224,-1984,248,461,-152,54
6990,248,-1936,288,436,-157,53
6995,224,-1872,280,399,-163,53
7000,240,-1816,312,349,-170,52
7005,248,-1768,280,291,-175,52
7010,248,-1800,328,229,-180,53
7015,240,-1792,304,173,-185,56
7020,264,-1800,288,130,-188,58
7025,256,-1824,352,95,-190,63
7030,248,-1888,312,70,-186,70
7035,288,-1904,304,47,-184,78
7040,232,-1936,328,32,-182,87
7045,256,-1968,296,18,-182,94
7050,280,-1992,280,8,-181,99
7055,256,-1992,320,-13,-184,104
7060,248,-2000,280,-45,-187,104
7065,240,-2048,280,-78,-191,107
7070,248,-2104,248,-93,-201,111
7075,240,-2144,144,-74,-214,117
7080,208,-2232,104,-20,-230,124
7085,232,-2336,56,75,-240,130
7090,264,-2440,72,203,-238,133
7095,240,-2384,48,354,-231,134
7100,216,-2352,48,500,-227,131
7105,208,-2288,72,624,-229,130
7110,248,-2200,136,711,-229,128
7115,248,-2096,136,763,-223,126
7120,240,-2048,144,777,-210,128
7125,232,-2008,168,762,-196,126
7130,240,-1952,256,736,-182,126
7135,256,-1944,312,705,-174,126
7140,256,-1912,408,672,-164,123
7145,240,-1824,376,637,-157,121
7150,248,-1848,384,608,-152,123
7155,264,-1856,360,585,-149,124
7160,280,-1880,352,566,-145,125
7165,304,-1904,336,561,-142,130
7170,288,-1928,328,566,-143,135
7175,304,-1952,304,580,-145,140
7180,312,-1952,288,603,-146,148
7185,288,-1960,248,625,-151,151
7190,288,-1944,336,642,-151,154
7195,248,-1976,360,657,-148,154
7200,264,-1928,336,667,-141,150
7205,280,-1928,392,669,-132,143
7210,264,-1920,392,672,-122,138
7215,248,-1904,416,681,-115,136
7220,264,-1936,384,693,-114,130
7225,256,-1912,400,710,-106,123
7230,288,-1872,376,733,-96,117
7235,336,-1864,408,756,-85,112
7240,320,-1800,440,770,-74,107
7245,352,-1784,392,774,-60,100
7250,312,-1728,408,768,-40,93
7255,328,-1664,432,757,-15,90
7260,336,-1624,432,738,4,89
7265,304,-1592,440,714,20,88
7270,304,-1600,480,680,33,86
7275,296,-1560,472,638,44,83
7280,272,-1576,472,593,52,78
7285,248,-1600,496,542,67,75
7290,232,-1688,520,494,80,69
7295,200,-1712,536,451,93,63
7300,184,-1800,552,420,108,58
7305,224,-1864,560,402,123,52
7310,216,-1944,560,398,131,47
7315,232,-1968,568,408,134,44
7320,224,-1984,536,426,135,41
7325,232,-2008,568,444,135,38
7330,232,-1992,552,463,134,38
7335,216,-1968,552,477,128,36
7340,216,-1944,552,489,123,34
7345,216,-1896,592,497,119,33
7350,256,-1880,584,505,119,34
7355,232,-1824,568,505,122,34
7360,256,-1792,592,496,126,34
7365,264,-1760,632,486,134,36
7370,248,-1744,600,475,141,39
7375,232,-1736,608,465,148,42
7380,264,-1712,664,454,152,47
7385,248,-1672,624,441,155,53
7390,216,-1624,616,425,158,57
7395,208,-1592,648,407,157,59
7400,168,-1568,664,385,160,58
7405,176,-1592,648,365,162,55
7410,176,-1544,632,344,166,48
7415,120,-1552,656,321,169,38
7420,128,-1568,688,300,175,25
7425,112,-1576,672,282,182,9
7430,80,-1616,728,266,193,-5
7435,120,-1680,704,260,197,-18
7440,72,-1720,688,253,209,-34
7445,96,-1776,704,254,227,-42
7450,72,-1856,720,267,237,-47
7455,56,-1880,752,291,237,-49
7460,64,-1920,736,316,233,-47
7465,72,-1936,736,341,228,-44
7470,48,-1944,752,364,221,-38
7475,40,-1920,792,384,214,-30
7480,24,-1872,752,403,205,-20
7485,24,-1840,808,420,197,-11
7490,8,-1840,800,428,188,-1
7495,0,-1784,840,434,180,7
7500,8,-1784,816,440,168,14
7505,16,-1752,792,446,154,20
7510,0,-1728,784,452,139,23
7515,8,-1720,816,458,124,23
7520,8,-1696,864,459,107,19
7525,80,-1688,864,462,93,14
7530,80,-1720,864,465,80,6
7535,72,-1704,864,468,69,-1
7540,112,-1736,864,472,55,-9
7545,168,-1744,904,479,41,-17
7550,192,-1744,880,491,30,-25
7555,264,-1768,888,502,29,-33
7560,280,-1768,896,516,33,-41
7565,296,-1776,888,528,47,-48
7570,312,-1752,928,541,64,-52
7575,304,-1752,920,551,78,-58
7580,240,-1728,952,566,92,-59
7585,184,-1704,952,579,107,-58
7590,144,-1680,896,593,122,-54
7595,96,-1680,912,611,133,-49
7600,80,-1648,928,628,144,-41
7605,40,-1600,960,640,154,-31
7610,0,-1568,976,648,161,-21
7615,8,-1576,968,657,164,-10
7620,-32,-1552,1016,665,164,2
7625,0,-1560,1016,671,161,12
7630,-16,-1552,1032,676,157,23
7635,-16,-1504,1048,686,150,36
7640,-8,-1504,1040,699,141,45
7645,-40,-1472,1056,714,132,54
7650,-56,-1448,1056,726,120,61
7655,-32,-1440,1056,732,107,65
7660,0,-1424,1048,735,94,68
7665,16,-1440,1072,741,83,68
7670,24,-1392,1064,745,77,69
7675,96,-1408,1088,747,70,67
7680,96,-1384,1064,750,65,62
7685,160,-1448,1104,754,59,55
7690,208,-1416,1112,758,56,45
7695,256,-1424,1088,760,57,33
7700,280,-1424,1088,766,63,22
7705,312,-1424,1096,775,71,13
7710,320,-1416,1056,786,84,2
7715,336,-1408,1080,796,98,-7
7720,344,-1368,1064,801,112,-17
7725,328,-1408,1024,807,125,-29
7730,344,-1344,1032,811,138,-38
7735,312,-1360,1024,813,155,-43
7740,288,-1312,1000,813,171,-43
7745,248,-1384,1024,814,183,-40
7750,216,-1392,1008,821,191,-34
7755,168,-1400,1040,830,200,-27
7760,144,-1424,1024,841,209,-19
7765,96,-1440,1056,859,214,-9
7770,64,-1456,1040,876,212,-1
7775,56,-1480,1040,895,211,5
7780,64,-1464,1048,913,208,13
7785,24,-1456,1096,930,204,20
7790,40,-1448,1080,946,199,24
7795,16,-1424,1080,963,187,30
7800,88,-1448,1064,981,172,32
7805,120,-1408,1064,994,165,32
7810,112,-1392,1064,1006,157,32
7815,112,-1400,1088,1012,149,31
7820,128,-1368,1080,1019,144,30
7825,104,-1384,1120,1021,139,29
7830,136,-1392,1072,1030,136,26
7835,144,-1376,1080,1040,134,22
7840,144,-1352,1072,1049,133,18
7845,160,-1352,1072,1057,137,13
7850,136,-1352,1112,1062,140,7
7855,152,-1328,1072,1071,148,3
7860,144,-1328,1096,1079,155,-2
7865,112,-1320,1112,1088,161,-8
7870,136,-1328,1168,1100,170,-14
7875,104,-1312,1152,1111,184,-23
7880,136,-1304,1192,1126,207,-21
7885,120,-1320,1120,1139,221,-23
7890,96,-1264,1120,1150,237,-25
7895,96,-1264,1120,1163,248,-27
7900,64,-1256,1136,1170,251,-36
7905,64,-1216,1136,1175,260,-30
7910,56,-1248,1112,1185,261,-25
7915,32,-1248,1112,1199,260,-20
7920,40,-1224,1096,1215,259,-15
7925,0,-1168,1144,1224,262,-17
7930,0,-1176,1104,1241,268,-3
7935,-8,-1136,1104,1265,264,5
7940,0,-1152,1128,1290,255,14
7945,8,-1128,1168,1311,245,21
7950,8,-1064,1200,1334,236,27
7955,8,-1032,1184,1360,230,34
7960,0,-1024,1208,1381,225,37
7965,48,-1000,1160,1398,217,36
7970,0,-912,1184,1404,205,23
7975,0,-888,1168,1406,196,24
7980,8,-856,1176,1403,181,22
7985,0,-864,1184,1401,163,14
7990,8,-864,1200,1408,152,6
7995,-24,-840,1160,1415,145,0
8000,8,-848,1192,1424,137,-10
8005,-16,-760,1176,1437,123,-24
8010,0,-704,1216,1452,106,-20
8015,16,-688,1112,1447,96,-21
8020,16,-664,1040,1441,92,-26
8025,32,-656,1008,1436,95,-27
8030,8,-608,1016,1436,103,-24
8035,24,-624,984,1439,110,-18
8040,56,-616,1000,1445,110,-13
8045,16,-624,1000,1449,114,-14
8050,8,-600,1000,1451,115,-13
8055,8,-648,984,1462,113,-9
8060,16,-656,976,1487,106,2
8065,72,-648,1008,1515,101,11
8070,8,-624,960,1535,97,10
8075,0,-576,944,1556,93,25
8080,0,-584,928,1570,91,39
8085,8,-568,912,1576,96,45
8090,8,-544,904,1578,106,41
8095,8,-568,896,1584,106,35
8100,56,-552,816,1591,108,30
8105,48,-512,824,1601,118,30
8110,96,-496,800,1615,129,33
8115,144,-440,752,1621,142,31
8120,232,-328,680,1617,163,30
8125,264,-280,640,1603,197,34
8130,200,-280,504,1594,242,42
8135,208,-208,400,1599,263,50
8140,184,-24,376,1575,274,56
8145,184,8,248,1530,289,76
8150,184,64,120,1491,311,86
8155,272,208,24,1469,312,107
8160,416,248,-24,1410,326,124
8165,408,288,-168,1351,381,124
8170,272,416,-144,1278,459,127
8175,312,456,-48,1159,525,133
8180,376,416,-56,1047,538,151
8185,432,392,-144,997,533,173
8190,384,480,-112,961,567,198
8195,264,520,-24,902,644,195
8200,160,592,48,844,680,160
8205,168,688,64,775,590,141
8210,136,600,8,689,432,151
8215,32,584,112,587,365,140
8220,-40,560,152,463,345,91
8225,-32,520,336,358,244,68
8230,288,408,344,319,78,106
8235,272,256,248,271,-24,127
8240,-112,192,384,225,122,154
8245,-232,64,712,167,272,161
8250,-288,-96,944,116,193,117
8255,368,-320,800,122,-50,98
8260,464,-440,600,121,-132,22
8265,-120,-472,800,101,87,-82
8270,-1064,-472,1296,114,339,-163
8275,-1760,-488,1752,116,359,-237
8280,-1808,-400,2392,63,81,-303
8285,-1320,-544,2856,75,-404,-241
8290,-808,-480,3600,250,-733,-118
8295,-768,0,4680,410,-667,-72
8300,-1128,576,6384,433,-426,-38
8305,-2392,952,8408,360,-258,11
8310,-4104,1000,10408,164,-148,-20
8315,-5544,1016,12120,-103,-220,-122
8320,-6120,992,12976,-307,-718,-187
8325,-5072,880,12448,-156,-1536,-94
8330,-3648,1328,10672,369,-2133,20
8335,-1728,2224,8824,981,-2195,156
8340,24,3056,6928,1536,-1980,338
8345,1520,3576,4952,2030,-1595,555
8350,2816,3912,3624,2204,-1017,691
8355,3472,3968,2816,2017,-372,622
8360,3296,3672,2232,1605,222,369
8365,2760,2864,1808,1098,644,124
8370,2280,1648,1472,586,775,-15
8375,1760,432,1224,135,662,-144
8380,1464,-688,856,-193,460,-288
8385,1336,-1608,600,-369,294,-420
8390,1344,-2160,400,-378,228,-510
8395,1448,-2536,144,-247,292,-514
8400,1336,-2696,64,-28,477,-453
8405,1064,-2688,144,227,725,-368
8410,656,-2416,376,495,936,-307
8415,232,-1928,648,750,1010,-299
8420,-72,-1328,792,958,926,-313
8425,-200,-680,888,1088,747,-311
8430,-208,-88,816,1137,594,-278
8435,-184,496,824,1100,550,-226
8440,-192,1032,896,978,593,-187
8445,-328,1440,944,814,659,-178
8450,-480,1792,936,646,699,-181
8455,-568,2000,960,500,698,-176
8460,-600,2072,792,381,656,-167
8465,-560,2056,592,277,589,-164
8470,-512,2024,432,169,517,-163
8475,-472,1912,280,47,454,-162
8480,-456,1768,240,-77,397,-156
8485,-440,1624,264,-192,337,-142
8490,-392,1464,320,-296,258,-116
8495,-416,1264,368,-396,160,-85
8500,-400,1064,384,-503,44,-53
8505,-456,960,480,-629,-82,-19
8510,-448,792,472,-766,-228,18
8515,-472,656,504,-902,-381,50
8520,-424,560,536,-1017,-504,71
8525,-344,432,592,-1098,-596,86
8530,-264,344,720,-1138,-655,85
8535,-184,304,840,-1128,-688,73
8540,-136,288,944,-1063,-702,54
8545,-24,328,1104,-937,-691,22
8550,48,424,1184,-769,-655,-7
8555,120,576,1208,-582,-598,-35
8560,176,768,1400,-415,-510,-75
8565,248,944,1544,-283,-416,-126
8570,272,1136,1672,-184,-335,-177
8575,296,1288,1752,-122,-267,-216
8580,288,1328,1816,-107,-205,-242
8585,32,1400,1872,-132,-104,-283
8590,-64,1464,2048,-220,3,-305
8595,-240,1464,2224,-355,59,-301
8600,-296,1456,2368,-529,58,-270
8605,-400,1400,2504,-721,38,-228
8610,-432,1280,2592,-920,20,-166
8615,-392,1184,2648,-1117,9,-88
8620,-304,984,2712,-1308,19,6
8625,-296,712,2776,-1471,51,75
8630,-304,456,2912,-1590,103,123
8635,-288,160,2960,-1646,140,164
8640,-272,-104,3032,-1639,152,183
8645,-272,-320,2968,-1574,148,188
8650,-192,-544,2960,-1483,145,188
8655,-136,-656,2776,-1336,146,196
8660,-24,-720,2640,-1174,157,204
8665,64,-800,2440,-1021,176,206
8670,120,-720,2200,-885,200,195
8675,192,-688,2056,-767,217,178
8680,200,-608,1920,-672,228,154
8685,256,-544,1768,-599,232,130
8690,232,-480,1648,-545,228,109
8695,224,-432,1560,-508,217,91
8700,224,-424,1496,-484,202,73
8705,216,-376,1472,-471,189,56
8710,208,-360,1424,-469,172,40
8715,176,-336,1408,-470,157,24
8720,152,-304,1368,-469,146,7
8725,144,-360,1384,-462,134,-12
8730,192,-328,1400,-448,123,-32
8735,152,-320,1392,-426,117,-54
8740,104,-304,1384,-397,111,-76
8745,80,-280,1456,-365,102,-99
8750,8,-208,1496,-327,91,-122
8755,-32,-168,1496,-288,80,-146
8760,-120,-120,1536,-253,66,-169
8765,-152,-80,1576,-221,49,-189
8770,-208,-56,1584,-198,25,-205
8775,-256,-8,1632,-188,-1,-216
8780,-272,0,1624,-190,-21,-218
8785,-288,16,1680,-198,-45,-217
8790,-304,32,1688,-212,-66,-213
8795,-312,40,1720,-230,-82,-206
8800,-320,40,1744,-248,-93,-201
8805,-328,40,1712,-265,-103,-194
8810,-352,40,1720,-282,-116,-189
8815,-368,64,1704,-291,-130,-196
8820,-440,80,1696,-298,-142,-209
8825,-456,104,1648,-306,-157,-227
8830,-496,136,1616,-327,-179,-235
8835,-448,80,1600,-352,-206,-235
8840,-424,80,1640,-386,-230,-234
8845,-376,56,1632,-422,-232,-230
8850,-376,56,1656,-460,-217,-225
8855,-360,0,1664,-493,-193,-225
8860,-408,-72,1640,-523,-168,-223
8865,-408,-64,1648,-543,-145,-212
8870,-368,-152,1624,-561,-133,-196
8875,-344,-208,1656,-571,-135,-178
8880,-320,-240,1656,-569,-144,-157
8885,-256,-320,1600,-561,-152,-132
8890,-208,-400,1592,-543,-151,-101
8895,-152,-504,1568,-519,-142,-70
8900,-96,-552,1608,-481,-129,-37
8905,-96,-608,1592,-435,-118,-5
8910,-16,-656,1632,-382,-102,21
8915,-40,-680,1648,-319,-92,46
8920,-24,-688,1648,-248,-91,68
8925,32,-656,1648,-179,-94,87
8930,24,-656,1672,-115,-98,103
8935,16,-624,1672,-63,-99,119
8940,72,-584,1632,-23,-106,132
8945,80,-576,1592,5,-117,141
8950,112,-560,1584,20,-126,145
8955,128,-568,1552,29,-133,143
8960,152,-576,1536,35,-137,137
8965,176,-576,1520,40,-136,128
8970,192,-568,1520,44,-129,118
8975,184,-608,1456,50,-117,105
8980,224,-640,1472,58,-100,87
8985,240,-640,1472,70,-82,68
8990,288,-680,1496,81,-66,44
8995,248,-648,1520,93,-54,25
9000,256,-672,1504,110,-45,0
9005,264,-648,1512,129,-40,-22
9010,256,-656,1536,150,-38,-39
9015,232,-640,1568,174,-33,-55
9020,176,-616,1608,202,-26,-66
9025,128,-608,1632,231,-21,-72
9030,80,-576,1640,265,-17,-74
9035,80,-560,1664,304,-14,-74
9040,8,-536,1656,348,-16,-72
9045,24,-496,1592,392,-17,-70
9050,-72,-464,1704,432,-20,-65
9055,-64,-456,1656,467,-23,-65
9060,-96,-368,1656,497,-28,-63
9065,-64,-344,1672,516,-33,-65
9070,-88,-280,1608,527,-34,-68
9075,-72,-248,1592,532,-35,-73
9080,-72,-192,1640,527,-33,-78
9085,-64,-128,1640,516,-34,-86
9090,-80,-120,1656,503,-35,-96
9095,-64,-72,1632,487,-33,-103
9100,-104,-64,1664,467,-33,-111
9105,-48,-16,1632,447,-36,-118
9110,-64,-16,1672,427,-40,-126
9115,-80,8,1704,412,-45,-133
9120,-72,24,1728,401,-49,-139
9125,-120,40,1704,393,-55,-141
9130,-128,32,1720,384,-59,-135
9135,-80,56,1720,371,-59,-127
9140,-128,104,1736,361,-61,-117
9145,-128,136,1744,346,-62,-101
9150,-112,152,1736,329,-61,-87
9155,-128,136,1800,309,-59,-72
9160,-128,192,1744,285,-56,-54
9165,-96,216,1720,256,-53,-41
9170,-112,224,1696,230,-47,-27
9175,-112,248,1720,202,-44,-13
9180,-88,264,1704,172,-38,1
9185,-48,272,1704,140,-33,12
9190,-56,304,1720,108,-30,22
9195,-8,272,1736,78,-23,29
9200,-24,248,1760,49,-9,40
9205,-48,256,1720,19,-9,50
9210,-40,232,1744,-14,-13,58
9215,-32,232,1744,-47,-11,65
9220,-16,192,1744,-79,-10,71
9225,-8,192,1720,-105,-6,73
9230,-8,168,1728,-127,-7,77
9235,0,128,1728,-144,-9,81
9240,-8,120,1760,-161,-8,81
9245,8,136,1760,-176,-7,82
9250,8,96,1752,-189,-7,81
9255,24,88,1744,-200,-8,80
9260,24,64,1728,-208,-5,79
9265,24,40,1720,-217,-2,77
9270,56,8,1712,-223,-1,74
9275,56,-8,1752,-228,0,71
9280,80,-8,1720,-230,0,66
9285,80,-32,1720,-229,-2,58
9290,104,-80,1720,-227,-6,49
9295,88,-88,1696,-222,-9,43
9300,104,-80,1712,-217,-12,39
9305,88,-112,1704,-212,-15,33
9310,112,-120,1656,-206,-18,25
9315,104,-144,1688,-201,-23,21
9320,104,-160,1696,-197,-28,16
9325,64,-152,1664,-190,-32,11
9330,80,-168,1624,-184,-38,7
9335,88,-160,1656,-175,-44,2
9340,80,-176,1664,-168,-49,-2
9345,72,-176,1664,-159,-51,-6
9350,56,-176,1640,-147,-53,-9
9355,56,-184,1680,-138,-53,-12
9360,56,-192,1704,-129,-53,-15
9365,56,-184,1648,-123,-51,-17
9370,16,-160,1680,-115,-50,-19
9375,56,-208,1680,-108,-47,-20
9380,16,-192,1656,-104,-46,-23
9385,0,-168,1656,-98,-44,-23
9390,24,-168,1680,-93,-45,-24
9395,0,-184,1664,-88,-46,-24
9400,0,-176,1656,-84,-49,-23
9405,0,-168,1704,-80,-52,-23
9410,0,-192,1680,-77,-56,-23
9415,-16,-184,1672,-70,-63,-21
9420,-64,-120,1656,-67,-69,-22
9425,-72,-192,1680,-63,-76,-20
9430,-40,-192,1688,-57,-82,-20
9435,-56,-192,1688,-49,-89,-20
9440,-72,-176,1672,-41,-98,-18
9445,-56,-184,1664,-35,-106,-18
9450,-80,-184,1664,-28,-115,-17
9455,-72,-192,1640,-19,-122,-18
9460,-64,-168,1680,-11,-130,-19
9465,-48,-160,1680,-1,-137,-21
9470,-88,-168,1688,8,-144,-22
9475,-80,-152,1688,18,-150,-22
9480,-48,-176,1608,28,-158,-23
9485,-40,-160,1656,37,-168,-24
9490,-72,-136,1656,43,-174,-24
9495,-56,-120,1648,47,-182,-26
9500,-32,-144,1656,52,-193,-27
9505,-56,-104,1664,55,-201,-30
9510,-24,-136,1664,62,-209,-32
9515,-48,-120,1656,65,-218,-35
9520,-16,-120,1640,69,-224,-37
9525,-32,-88,1656,71,-229,-37
9530,8,-120,1672,73,-230,-34
9535,24,-112,1624,74,-229,-30
9540,32,-112,1664,74,-223,-28
9545,80,-112,1672,75,-211,-24
9550,72,-128,1696,78,-198,-22
9555,96,-96,1680,81,-188,-19
9560,136,-112,1680,85,-176,-16
9565,152,-120,1664,89,-163,-14
9570,152,-80,1680,94,-150,-12
9575,128,-80,1672,100,-137,-10
9580,160,-48,1656,104,-120,-6
9585,200,-56,1640,104,-104,-3
9590,200,-40,1664,100,-90,3
9595,224,-32,1648,94,-73,7
9600,192,-24,1648,86,-56,12
9605,200,0,1640,80,-42,18
9610,240,-24,1648,77,-33,23
9615,248,-16,1672,73,-24,19
9620,184,-8,1664,69,-14,23
9625,248,-48,1672,62,-3,33
9630,240,-48,1688,54,1,27
9635,184,-16,1672,48,8,29
9640,232,-24,1672,43,23,48
9645,272,-40,1584,40,33,64
9650,264,-16,1640,36,35,54
9655,240,-16,1664,34,45,46
9660,248,-32,1696,35,59,54
9665,272,-64,1680,34,65,60
9670,256,-24,1704,36,70,59
9675,280,-40,1672,38,70,58
9680,264,-8,1712,41,74,57
9685,256,-16,1688,44,78,55
9690,248,-8,1680,43,85,51
9695,240,-16,1680,40,91,55
9700,224,0,1696,33,96,57
9705,216,8,1696,27,102,58
9710,224,24,1688,18,109,62
9715,240,8,1704,7,117,67
9720,208,0,1672,1,123,65
9725,200,16,1704,-4,128,66
9730,248,0,1720,-8,138,66
9735,256,0,1680,-11,145,59
9740,208,8,1672,-15,159,52
9745,216,0,1680,-23,176,52
9750,192,0,1712,-28,189,51
9755,216,-8,1784,-36,203,51
9760,208,8,1688,-42,215,51
9765,216,-8,1720,-50,227,50
9770,200,0,1712,-57,245,50
9775,176,8,1712,-66,259,49
9780,176,-16,1680,-73,271,50
9785,168,-16,1696,-76,283,49
9790,176,-24,1688,-81,293,46
9795,184,0,1712,-87,306,45
9800,144,-8,1704,-90,319,42
9805,144,-16,1720,-95,328,36
9810,72,8,1680,-101,333,33
9815,64,0,1720,-109,340,34
9820,48,-8,1736,-114,346,39
9825,56,-40,1696,-119,352,39
9830,56,-32,1704,-119,355,40
9835,8,-40,1704,-117,357,36
9840,0,-48,1696,-113,355,40
9845,8,-64,1680,-104,351,41
9850,8,-56,1688,-99,345,42
9855,0,-64,1688,-96,344,42
9860,-48,-64,1664,-97,341,47
9865,-16,-24,1720,-99,341,59
9870,-40,-88,1704,-104,342,71
9875,-40,-120,1744,-105,346,88
9880,-32,-144,1736,-98,353,110
9885,-16,-144,1736,-85,362,131
9890,0,-144,1752,-66,366,135
9895,16,-128,1696,-40,367,129
9900,0,-104,1728,-5,368,123
9905,16,-80,1680,19,371,118
9910,0,-56,1656,35,370,108
9915,24,-32,1648,43,369,97
9920,8,0,1664,44,373,86
9925,0,0,1640,44,376,74
9930,-8,8,1648,40,376,61
9935,0,24,1632,30,377,49
9940,-16,16,1680,17,377,32
9945,-56,56,1648,4,379,21
9950,-48,32,1664,-12,381,12
9955,-64,40,1656,-29,385,4
9960,-120,24,1696,-45,385,-4
9965,-120,8,1672,-58,383,-7
9970,-176,0,1680,-71,380,-10
9975,-136,-16,1696,-76,377,-11
9980,-168,0,1696,-76,374,-11
9985,-192,-24,1696,-73,367,-17
9990,-176,-24,1680,-67,360,-21
9995,-192,-8,1712,-62,353,-23
10000,-168,-64,1680,-53,347,-23
10005,-168,-56,1656,-42,342,-26
10010,-216,-48,1664,-34,339,-30
10015,-208,-64,1656,-28,334,-37
10020,-192,-32,1648,-25,329,-43
10025,-200,-24,1632,-24,321,-47
10030,-200,-32,1640,-22,317,-50
10035,-176,0,1640,-20,313,-55
10040,-144,8,1632,-22,317,-76
10045,-224,16,1624,-21,319,-90
10050,-216,8,1656,-26,311,-86
10055,-208,0,1632,-30,303,-83
10060,-192,-8,1632,-37,297,-85
10065,-184,0,1680,-43,291,-90
10070,-216,-8,1656,-50,289,-94
10075,-240,-32,1704,-54,288,-95
10080,-232,-24,1664,-56,285,-98
10085,-216,-24,1632,-54,280,-99
10090,-224,-40,1648,-55,278,-96
10095,-216,-56,1672,-56,280,-90
10100,-200,-56,1680,-53,285,-87
10105,-208,-80,1656,-48,291,-78
10110,-200,-80,1672,-44,298,-68
10115,-176,-48,1664,-41,302,-59
10120,-184,-48,1688,-36,307,-55
10125,-176,-88,1664,-32,313,-50
10130,-216,-72,1656,-27,319,-48
10135,-192,-64,1696,-23,320,-47
10140,-192,-40,1696,-23,320,-46
10145,-224,-72,1704,-18,320,-43
10150,-216,-64,1704,-15,322,-39
10155,-216,-56,1696,-12,323,-35
10160,-192,-80,1704,-6,321,-33
10165,-232,-80,1680,3,317,-38
10170,-272,-48,1704,11,312,-41
10175,-232,-72,1720,16,305,-41
10180,-248,-96,1680,25,299,-44
10185,-264,-96,1704,25,294,-49
10190,-272,-80,1712,34,287,-52
10195,-264,-64,1648,51,278,-52
10200,-240,-64,1640,60,272,-52
10205,-224,-40,1608,63,266,-60
10210,-232,-8,1648,62,260,-71
10215,-240,0,1632,63,253,-80
10220,-272,-16,1648,59,246,-89
10225,-296,-8,1608,56,239,-97
10230,-272,0,1616,51,233,-102
10235,-272,8,1632,41,228,-106
10240,-240,16,1616,35,222,-111
10245,-288,24,1584,31,218,-111
10250,-304,24,1568,29,217,-109
10255,-280,16,1576,21,216,-112
10260,-288,8,1608,13,218,-117
10265,-328,16,1608,10,218,-122
10270,-304,16,1624,16,220,-120
10275,-288,0,1616,22,222,-117
10280,-288,0,1608,25,222,-115
10285,-288,-16,1608,26,223,-115
10290,-352,-8,1616,29,231,-115
10295,-328,-8,1616,33,236,-109
10300,-344,0,1648,42,235,-103
10305,-280,-8,1640,49,239,-96
10310,-264,0,1616,50,246,-96
10315,-312,8,1656,47,255,-98
10320,-336,32,1632,42,263,-95
10325,-328,24,1648,34,274,-91
10330,-312,40,1656,31,286,-88
10335,-304,40,1688,29,292,-85
10340,-296,48,1656,25,303,-79
10345,-288,24,1656,19,317,-77
10350,-272,32,1712,10,334,-80
10355,-272,24,1648,3,350,-89
10360,-296,16,1704,-2,366,-100
10365,-360,24,1720,-9,386,-108
10370,-360,24,1712,-20,406,-115
10375,-352,8,1744,-13,417,-123
10380,-336,0,1768,1,423,-133
10385,-344,0,1744,18,427,-146
10390,-368,16,1688,31,430,-163
10395,-384,0,1688,37,438,-183
10400,-424,16,1672,40,453,-203
10405,-496,32,1672,37,468,-217
10410,-536,24,1640,33,467,-229
10415,-512,32,1648,38,463,-229
10420,-496,24,1616,54,456,-234
10425,-512,32,1592,73,458,-238
10430,-512,48,1544,77,466,-231
10435,-512,48,1520,64,479,-215
10440,-472,0,1520,42,493,-200
10445,-472,8,1456,8,509,-196
10450,-472,0,1512,-35,526,-193
10455,-440,0,1552,-71,541,-188
10460,-472,-32,1544,-80,550,-184
10465,-440,-64,1600,-69,553,-172
10470,-456,-120,1616,-52,547,-159
10475,-440,-112,1632,-37,541,-150
10480,-448,-136,1640,-25,532,-147
10485,-488,-136,1656,-9,516,-145
10490,-480,-160,1648,8,500,-139
10495,-504,-152,1648,32,485,-137
10500,-512,-152,1608,57,474,-144
10505,-584,-128,1648,82,458,-150
10510,-584,-104,1608,103,440,-150
10515,-600,-88,1608,124,421,-152
10520,-616,-80,1592,144,399,-160
10525,-624,-48,1560,158,375,-164
10530,-648,8,1520,170,358,-167
10535,-648,8,1504,181,345,-166
10540,-712,32,1472,180,337,-165
10545,-728,40,1488,173,331,-164
10550,-776,64,1456,160,323,-157
10555,-768,48,1456,146,315,-150
10560,-752,40,1440,134,311,-140
10565,-784,8,1448,122,306,-130
10570,-776,32,1416,112,301,-120
10575,-784,24,1464,102,296,-111
10580,-768,16,1456,95,287,-102
10585,-768,8,1440,85,278,-94
10590,-760,0,1432,78,266,-84
10595,-784,32,1432,70,252,-79
10600,-768,0,1456,63,240,-72
10605,-816,24,1448,54,227,-64
10610,-760,0,1440,44,212,-55
10615,-792,16,1448,35,194,-49
10620,-784,32,1448,23,179,-42
10625,-792,40,1424,14,164,-35
10630,-792,24,1448,1,152,-29
10635,-808,40,1472,-13,138,-23
10640,-776,48,1448,-27,122,-16
10645,-792,40,1424,-37,108,-9
10650,-784,64,1424,-49,98,-4
10655,-800,40,1440,-62,89,1
10660,-816,48,1416,-73,78,7
10665,-784,48,1432,-81,62,11
10670,-800,32,1464,-87,49,16
10675,-776,8,1480,-87,40,23
10680,-760,64,1520,-88,31,28
10685,-792,16,1512,-81,21,33
10690,-768,8,1544,-73,9,36
10695,-720,0,1512,-64,0,38
10700,-736,0,1520,-53,-5,38
10705,-752,-24,1512,-41,-11,40
10710,-736,-8,1512,-29,-19,42
10715,-720,0,1512,-18,-28,42
10720,-720,0,1520,-6,-39,43
10725,-696,8,1528,0,-47,41
10730,-680,16,1536,5,-53,42
10735,-672,32,1600,8,-58,39
10740,-632,16,1528,8,-66,38
10745,-640,24,1536,6,-73,36
10750,-656,32,1504,4,-80,32
10755,-624,40,1512,0,-85,29
10760,-648,72,1536,-2,-87,24
10765,-664,24,1536,-1,-94,22
10770,-680,40,1536,-2,-107,19
10775,-608,56,1528,-4,-120,15
10780,-648,48,1544,-5,-129,14
10785,-672,40,1560,-6,-137,12
10790,-592,48,1520,-6,-144,11
10795,-640,48,1568,-8,-147,12
10800,-640,40,1520,-8,-151,12
10805,-640,32,1568,-7,-154,14
10810,-632,32,1528,-7,-158,16
10815,-632,32,1552,-10,-158,17
10820,-632,32,1552,-8,-159,19
10825,-640,40,1536,-9,-160,22
10830,-648,56,1560,-11,-163,24
10835,-624,56,1544,-12,-163,25
10840,-616,64,1544,-15,-164,26
10845,-600,56,1608,-15,-164,27
10850,-608,56,1552,-20,-163,29
10855,-592,64,1528,-24,-161,29
10860,-592,24,1568,-29,-157,30
10865,-600,48,1560,-34,-156,31
10870,-576,56,1560,-39,-155,32
10875,-568,32,1560,-44,-153,31
10880,-568,56,1544,-46,-151,33
10885,-536,64,1576,-52,-148,33
10890,-568,56,1592,-55,-147,35
10895,-528,40,1616,-58,-144,33
10900,-504,32,1600,-58,-141,35
10905,-536,80,1600,-59,-140,34
10910,-536,64,1592,-61,-138,35
10915,-536,80,1584,-65,-136,35
10920,-512,56,1568,-67,-134,32
10925,-520,40,1608,-72,-133,32
10930,-512,48,1576,-74,-131,30
10935,-504,56,1568,-77,-129,29
10940,-504,40,1576,-80,-124,29
10945,-488,88,1624,-83,-121,27
10950,-512,40,1592,-85,-116,25
10955,-488,40,1632,-90,-111,22
10960,-456,32,1624,-91,-104,20
10965,-488,32,1616,-93,-100,19
10970,-488,48,1608,-95,-95,15
10975,-480,48,1624,-95,-90,12
10980,-488,24,1616,-94,-86,10
10985,-472,16,1616,-96,-82,6
10990,-488,48,1616,-93,-77,4
10995,-472,40,1584,-92,-73,1
11000,-472,48,1624,-92,-69,0
11005,-432,32,1656,-93,-65,-4
11010,-480,16,1600,-93,-58,-7
11015,-480,8,1624,-88,-53,-7
11020,-480,16,1576,-83,-52,-10
11025,-472,0,1576,-80,-50,-14
11030,-480,0,1576,-76,-49,-16
11035,-472,0,1576,-72,-44,-18
11040,-472,8,1584,-67,-44,-20
11045,-480,0,1600,-62,-43,-23
11050,-488,8,1600,-56,-42,-24
11055,-512,16,1584,-53,-41,-25
11060,-472,8,1592,-46,-39,-26
11065,-488,0,1608,-43,-39,-27
11070,-472,0,1600,-39,-36,-27
11075,-472,-16,1632,-38,-32,-29
11080,-504,8,1600,-34,-24,-29
11085,-504,0,1568,-31,-21,-27
11090,-488,8,1568,-27,-18,-24
11095,-488,16,1576,-28,-8,-22
11100,-504,0,1592,-29,-1,-19
11105,-528,8,1576,-27,4,-15
11110,-512,16,1592,-26,8,-11
11115,-480,32,1584,-24,14,-7
11120,-512,16,1584,-22,21,-2
11125,-528,8,1600,-19,28,3
11130,-528,24,1584,-19,33,6
11135,-536,48,1624,-20,37,8
11140,-520,40,1624,-20,38,9
11145,-520,0,1648,-21,42,11
11150,-512,56,1616,-21,45,9
11155,-496,40,1640,-22,48,9
11160,-488,56,1608,-23,50,6
11165,-496,72,1624,-28,54,5
11170,-536,120,1584,-32,58,4
11175,-488,64,1592,-39,65,2
11180,-528,80,1608,-45,70,-1
11185,-496,72,1584,-51,74,-2
11190,-520,56,1592,-57,79,-3
11195,-512,48,1584,-64,81,-5
11200,-520,48,1600,-72,81,-8
11205,-504,48,1600,-77,78,-10
11210,-496,40,1632,-85,74,-13
11215,-472,56,1616,-91,72,-18
11220,-488,56,1616,-93,73,-23
11225,-504,80,1600,-96,76,-27
11230,-512,32,1616,-100,74,-31
11235,-512,16,1608,-100,71,-34
11240,-512,24,1608,-100,69,-40
11245,-520,32,1616,-94,61,-46
11250,-528,56,1552,-88,53,-48
11255,-544,40,1584,-83,48,-51
11260,-528,48,1568,-78,46,-60
11265,-536,80,1568,-76,42,-60
11270,-552,24,1544,-76,40,-57
11275,-568,40,1552,-73,40,-56
11280,-544,8,1512,-74,39,-56
11285,-560,16,1560,-73,36,-55
11290,-600,8,1584,-69,36,-53
11295,-584,0,1584,-66,32,-50
11300,-616,8,1608,-62,27,-46
11305,-576,16,1552,-58,25,-42
11310,-592,8,1568,-54,26,-38
11315,-568,8,1576,-53,30,-34
11320,-584,0,1552,-53,33,-30
11325,-544,-8,1544,-52,38,-29
11330,-536,-8,1552,-51,44,-26
11335,-536,16,1544,-50,48,-25
11340,-544,0,1544,-49,51,-22
11345,-576,0,1560,-46,52,-22
11350,-552,0,1536,-47,52,-20
11355,-552,16,1552,-46,48,-18
11360,-528,-8,1544,-46,47,-19
11365,-552,8,1568,-46,43,-16
11370,-528,16,1568,-48,40,-16
11375,-560,16,1608,-48,36,-17
11380,-552,24,1576,-46,33,-14
11385,-544,0,1560,-50,29,-13
11390,-528,40,1600,-49,26,-12
11395,-552,0,1568,-51,22,-9
11400,-536,0,1576,-50,18,-7
11405,-544,8,1576,-49,16,-6
11410,-576,16,1600,-46,13,-4
11415,-552,0,1568,-43,11,-2
11420,-544,0,1584,-41,11,-2
11425,-560,0,1560,-39,9,-1
11430,-568,8,1584,-36,8,0
11435,-592,16,1584,-33,8,1
11440,-560,16,1584,-29,5,1
11445,-552,8,1568,-27,2,3
11450,-560,16,1552,-28,0,3
11455,-560,8,1536,-27,-1,5
11460,-536,24,1576,-28,-1,5
11465,-552,8,1560,-29,0,7
11470,-552,32,1560,-30,1,9
11475,-560,24,1568,-31,-2,9
11480,-552,16,1520,-34,-2,8
11485,-520,0,1568,-36,-2,9
11490,-544,32,1568,-34,-2,9
11495,-544,32,1600,-36,-7,7
11500,-520,40,1576,-39,-7,8
11505,-544,32,1600,-40,-5,5
11510,-552,32,1584,-39,-7,2
11515,-536,8,1576,-37,-10,2
11520,-528,48,1576,-32,-14,0
11525,-528,24,1624,-33,-15,-2
11530,-520,32,1568,-32,-17,-5
11535,-560,24,1576,-33,-19,-5
11540,-536,24,1560,-33,-21,-7
11545,-528,0,1568,-35,-19,-8
11550,-544,16,1592,-37,-19,-9
11555,-552,16,1592,-38,-18,-8
11560,-512,8,1560,-41,-18,-7
11565,-528,32,1560,-40,-17,-6
11570,-520,8,1592,-40,-15,-7
11575,-528,32,1568,-38,-14,-5
11580,-512,16,1584,-37,-14,-6
11585,-520,16,1544,-36,-15,-6
11590,-504,24,1584,-36,-13,-5
11595,-512,24,1592,-37,-10,-3
11600,-512,8,1592,-40,-6,-2
11605,-520,32,1608,-43,-5,-2
11610,-536,32,1608,-46,-3,-1
11615,-520,8,1608,-48,-2,-1
11620,-520,32,1600,-49,-1,-1
11625,-512,24,1608,-51,-2,0
11630,-512,16,1608,-50,-1,0
11635,-512,16,1576,-51,0,0
11640,-504,8,1592,-53,2,0
11645,-512,32,1608,-53,4,1
11650,-528,8,1584,-54,5,0
11655,-520,40,1600,-55,6,0
11660,-520,40,1632,-56,8,0
11665,-512,24,1584,-55,10,0
11670,-528,40,1568,-59,12,-1
11675,-496,16,1592,-61,14,-2
11680,-528,16,1600,-63,14,-3
11685,-512,24,1584,-63,14,-4
11690,-504,0,1560,-65,16,-6
11695,-504,24,1592,-63,17,-7
11700,-512,32,1576,-63,17,-7
11705,-512,32,1592,-62,19,-8
11710,-520,40,1616,-62,21,-11
11715,-520,8,1592,-60,21,-11
11720,-528,16,1584,-59,22,-13
11725,-536,24,1600,-59,22,-14
11730,-528,24,1616,-55,23,-12
11735,-520,24,1608,-55,25,-13
11740,-528,0,1584,-53,26,-13
11745,-536,40,1600,-53,27,-13
11750,-528,8,1616,-53,28,-13
11755,-504,8,1560,-52,30,-14
11760,-528,8,1560,-50,31,-14
11765,-512,16,1608,-49,32,-12
11770,-496,16,1584,-48,33,-12
11775,-504,0,1576,-47,35,-12
11780,-512,8,1568,-47,36,-13
11785,-520,24,1576,-48,36,-11
11790,-520,16,1576,-48,37,-10
11795,-520,16,1576,-48,37,-11
11800,-536,8,1584,-48,37,-8
11805,-528,16,1608,-49,39,-7
11810,-528,40,1576,-51,40,-7
11815,-520,16,1600,-54,40,-8
11820,-528,8,1544,-58,42,-9
11825,-536,16,1560,-62,43,-9
11830,-520,24,1568,-66,43,-9
11835,-528,8,1584,-71,43,-11
11840,-528,16,1576,-73,44,-10
11845,-528,16,1568,-76,45,-12
11850,-528,0,1568,-74,44,-12
11855,-536,8,1552,-72,41,-11
11860,-560,24,1544,-68,36,-10
11865,-568,16,1568,-66,33,-10
11870,-552,16,1592,-63,30,-10
11875,-560,32,1560,-59,29,-11
11880,-576,32,1520,-56,26,-11
11885,-528,0,1592,-52,26,-11
11890,-544,8,1552,-49,25,-12
11895,-552,8,1552,-48,24,-11
11900,-536,24,1560,-45,26,-12
11905,-552,24,1568,-45,27,-13
11910,-544,8,1592,-44,27,-13
11915,-520,40,1568,-45,27,-14
11920,-528,32,1568,-46,27,-14
11925,-544,32,1576,-47,27,-14
11930,-536,16,1568,-50,27,-14
11935,-520,48,1648,-53,26,-13
11940,-536,8,1576,-56,26,-14
11945,-552,32,1608,-61,26,-14
11950,-520,16,1584,-67,24,-14
11955,-544,8,1608,-71,23,-15
11960,-528,16,1616,-76,23,-16
11965,-560,16,1592,-80,22,-16
11970,-536,16,1576,-82,20,-16
11975,-512,0,1592,-86,19,-15
11980,-536,8,1600,-88,17,-16
11985,-592,40,1568,-89,17,-16
11990,-520,8,1568,-93,15,-16
11995,-520,8,1592,-96,13,-15
12000,-520,16,1592,-98,12,-17
12005,-536,8,1576,-100,12,-17
12010,-536,0,1560,-102,13,-18
12015,-544,8,1560,-104,11,-17
12020,-528,0,1584,-104,12,-18
12025,-552,0,1560,-104,11,-18
12030,-528,0,1544,-104,10,-18
12035,-512,0,1576,-103,11,-18
12040,-552,0,1528,-100,10,-19
12045,-544,8,1560,-98,10,-18
12050,-528,0,1584,-94,8,-19
12055,-528,-8,1592,-90,9,-20
12060,-528,0,1568,-85,8,-19
12065,-536,-16,1592,-79,9,-19
12070,-552,8,1568,-75,10,-19
12075,-528,0,1592,-71,11,-19
12080,-544,-8,1552,-67,11,-19
12085,-528,-8,1568,-61,12,-17
12090,-528,-8,1552,-58,13,-17
12095,-552,0,1528,-54,14,-18
12100,-520,-16,1560,-51,17,-17
12105,-544,16,1568,-49,19,-17
12110,-536,8,1576,-46,19,-15
12115,-512,8,1552,-46,21,-16
12120,-520,8,1568,-45,23,-14
12125,-520,0,1584,-44,22,-14
12130,-520,24,1544,-44,23,-14
12135,-544,0,1568,-45,22,-13
12140,-512,0,1568,-46,22,-12
12145,-512,-8,1560,-45,19,-11
12150,-528,0,1552,-44,17,-9
12155,-536,0,1552,-44,15,-9
12160,-536,0,1576,-44,13,-7
12165,-520,0,1576,-42,11,-6
12170,-520,0,1560,-39,10,-5
12175,-520,-16,1544,-37,9,-4
12180,-528,0,1568,-35,8,-4
12185,-520,-8,1544,-33,8,-3
12190,-528,-16,1584,-29,7,-1
12195,-520,0,1584,-22,7,0
12200,-496,8,1592,-17,9,1
12205,-504,-8,1536,-13,10,0
12210,-512,-8,1544,-8,10,1
12215,-528,-8,1568,-6,11,1
12220,-504,8,1584,-3,12,0
12225,-504,8,1576,0,13,1
12230,-520,8,1576,-1,13,1
12235,-512,0,1616,-1,14,1
12240,-520,24,1568,1,12,1
12245,-512,-8,1600,1,14,1
12250,-528,0,1584,-3,14,1
12255,-528,8,1600,-7,14,2
12260,-472,0,1616,-12,15,3
12265,-520,0,1600,-15,15,2
12270,-544,8,1616,-21,16,3
12275,-544,0,1608,-27,18,4
12280,-536,8,1608,-33,21,5
12285,-536,24,1600,-38,23,7
12290,-552,0,1584,-43,24,6
12295,-520,8,1608,-46,24,8
12300,-576,16,1616,-51,27,7
12305,-536,16,1632,-55,28,8
12310,-536,16,1584,-57,29,7
12315,-544,8,1608,-63,32,8
12320,-536,40,1584,-69,34,7
12325,-536,40,1608,-72,35,4
12330,-552,32,1616,-74,36,1
12335,-568,48,1576,-77,34,-1
12340,-552,40,1576,-83,35,-5
12345,-560,64,1584,-85,36,-7
12350,-584,40,1584,-87,34,-10
12355,-576,24,1592,-91,33,-14
12360,-536,48,1576,-92,31,-16
12365,-576,56,1568,-92,30,-20
12370,-552,16,1504,-92,28,-22
12375,-560,32,1560,-88,25,-25
12380,-560,16,1568,-88,23,-27
12385,-536,24,1584,-84,22,-29
12390,-576,24,1568,-78,22,-32
12395,-560,8,1552,-75,18,-33
12400,-560,32,1560,-69,15,-33
12405,-528,0,1560,-65,12,-34
12410,-536,16,1576,-64,10,-34
12415,-528,0,1560,-60,8,-35
12420,-512,8,1584,-57,8,-34
12425,-528,-8,1544,-56,6,-33
12430,-512,-8,1552,-55,6,-33
12435,-536,0,1536,-51,6,-32
12440,-560,-8,1536,-51,4,-30
12445,-544,-16,1568,-50,3,-28
12450,-560,0,1552,-50,2,-28
12455,-536,0,1560,-47,0,-25
12460,-520,-16,1576,-48,0,-24
12465,-520,-40,1560,-49,3,-22
12470,-520,-8,1584,-50,6,-19
12475,-512,-8,1624,-50,9,-17
12480,-536,0,1568,-52,10,-15
12485,-520,-16,1576,-54,12,-12
12490,-528,-16,1584,-57,12,-11
12495,-520,-24,1600,-60,12,-9
12500,-528,-24,1584,-60,13,-7
12505,-528,-24,1592,-61,13,-6
12510,-528,-8,1584,-61,13,-6
12515,-520,-8,1576,-63,10,-5
12520,-512,-16,1576,-62,10,-3
12525,-560,-8,1592,-63,8,-3
12530,-520,-8,1632,-64,9,0
12535,-528,8,1552,-62,7,0
12540,-520,0,1568,-61,7,1
12545,-520,-8,1576,-57,8,-1
12550,-504,-16,1584,-53,6,2
12555,-536,0,1576,-45,6,0
12560,-512,-24,1576,-39,7,0
12565,-520,-24,1584,-32,8,1
12570,-496,-32,1560,-27,8,0
12575,-536,-16,1576,-26,9,1
12580,-520,8,1568,-27,10,2
12585,-504,-16,1608,-28,12,1
12590,-536,0,1552,-29,15,1
12595,-520,0,1568,-32,17,0
12600,-520,8,1592,-32,19,1
12605,-520,-16,1576,-33,20,2
12610,-528,0,1552,-31,20,2
12615,-520,0,1560,-28,18,2
12620,-528,0,1576,-28,17,2
12625,-520,0,1568,-25,15,3
12630,-528,8,1584,-26,15,3
12635,-536,16,1600,-25,13,5
12640,-552,32,1608,-27,13,4
12645,-528,0,1568,-27,15,4
12650,-512,0,1576,-29,14,5
12655,-512,0,1592,-31,14,6
12660,-520,0,1576,-32,17,3
12665,-520,16,1568,-33,19,4
12670,-512,16,1584,-33,20,2
12675,-520,16,1592,-38,21,3
12680,-520,0,1584,-38,23,3
12685,-520,8,1544,-43,23,1
12690,-536,0,1592,-43,23,-1
12695,-512,0,1560,-44,24,0
12700,-520,16,1576,-45,24,-1
12705,-512,0,1576,-43,24,-2
12710,-520,8,1560,-44,23,-3
12715,-520,0,1608,-43,23,-4
12720,-512,0,1584,-42,24,-3
12725,-512,0,1584,-42,24,-6
12730,-520,8,1584,-41,24,-5
12735,-536,0,1616,-40,26,-4
12740,-536,8,1600,-40,28,-4
12745,-552,0,1608,-40,28,-5
12750,-568,32,1560,-40,30,-5
12755,-520,0,1576,-42,30,-6
12760,-528,8,1584,-42,31,-6
12765,-544,-16,1568,-43,31,-6
12770,-528,24,1568,-45,33,-5
12775,-520,8,1568,-47,33,-5
12780,-536,8,1592,-50,35,-3
12785,-520,16,1584,-53,36,-3
12790,-528,16,1584,-54,36,-1
12795,-560,0,1560,-56,35,-4
12800,-544,0,1576,-55,36,-4
12805,-536,64,1616,-55,34,-4
12810,-528,0,1576,-56,33,-3
12815,-544,8,1576,-58,32,-4
12820,-520,0,1544,-57,31,-4
12825,-544,0,1560,-58,30,-4
12830,-512,0,1584,-58,29,-4
12835,-528,-16,1576,-58,29,-5
12840,-552,0,1568,-58,29,-4
12845,-560,8,1576,-58,28,-4
12850,-528,0,1600,-57,28,-4
12855,-552,0,1544,-56,26,-5
12860,-528,16,1576,-57,26,-5
12865,-520,0,1568,-58,24,-5
12870,-536,8,1576,-57,22,-7
12875,-544,-8,1568,-56,23,-6
12880,-552,0,1592,-55,25,-6
12885,-544,-16,1584,-54,23,-8
12890,-536,-8,1568,-54,24,-8
12895,-528,16,1576,-55,23,-9
12900,-536,0,1600,-55,21,-9
12905,-560,8,1576,-55,21,-8
12910,-552,0,1528,-54,19,-6
12915,-544,0,1576,-54,18,-6
12920,-544,16,1600,-53,17,-7
12925,-536,8,1568,-50,16,-7
12930,-552,0,1568,-48,15,-6
12935,-536,-24,1552,-45,16,-6
12940,-536,0,1560,-41,15,-7
12945,-552,8,1576,-38,14,-5
12950,-520,-8,1552,-35,14,-6
12955,-552,0,1552,-32,13,-6
12960,-552,0,1576,-30,13,-6
12965,-520,-8,1600,-30,13,-5
12970,-528,0,1576,-28,13,-6
12975,-528,8,1560,-27,14,-5
12980,-536,0,1576,-26,14,-6
12985,-536,8,1600,-26,14,-5
12990,-520,0,1552,-28,12,-4
12995,-520,16,1568,-30,11,-6
13000,-528,8,1568,-32,13,-4
13005,-536,16,1568,-34,13,-6
13010,-528,0,1568,-38,13,-6
13015,-520,8,1616,-41,13,-6
13020,-528,16,1600,-41,14,-6
13025,-512,8,1552,-42,13,-6
13030,-520,-8,1600,-42,15,-7
13035,-536,8,1608,-41,15,-6
13040,-520,0,1576,-40,16,-5
13045,-544,0,1592,-40,17,-7
13050,-520,-16,1576,-40,17,-6
13055,-520,0,1568,-37,17,-6
13060,-528,8,1576,-36,19,-5
13065,-528,0,1616,-36,21,-4
13070,-528,8,1568,-35,21,-4
13075,-552,0,1632,-34,24,-4
13080,-544,16,1584,-34,23,-2
13085,-512,0,1616,-34,26,-2
13090,-536,0,1576,-35,27,-3
13095,-520,8,1576,-36,29,-2
13100,-536,24,1576,-38,30,-2
13105,-512,8,1568,-40,32,-1
13110,-536,16,1552,-43,33,0
13115,-528,40,1560,-45,34,-1
13120,-520,0,1608,-48,32,-3
13125,-528,8,1568,-53,30,-4
13130,-600,8,1568,-57,29,-5
13135,-528,8,1568,-59,29,-7
13140,-528,0,1600,-60,29,-8
13145,-544,0,1584,-61,26,-8
13150,-536,0,1576,-60,24,-9
13155,-544,0,1552,-55,22,-11
13160,-536,0,1576,-56,21,-13
13165,-536,0,1584,-53,21,-12
13170,-528,-16,1560,-51,21,-12
13175,-520,-16,1576,-49,23,-12
13180,-552,-8,1576,-46,23,-12
13185,-552,0,1584,-45,24,-13
13190,-528,-32,1584,-41,24,-12
13195,-536,0,1560,-38,24,-12
13200,-536,0,1568,-34,25,-13
13205,-520,0,1552,-31,26,-11
13210,-528,-16,1576,-26,26,-11
13215,-520,-16,1560,-23,25,-11
13220,-544,24,1544,-23,24,-9
13225,-528,-8,1568,-22,24,-9
13230,-528,8,1560,-23,25,-8
13235,-552,-8,1576,-25,24,-7
13240,-536,24,1600,-28,26,-7
13245,-560,8,1552,-31,27,-6
13250,-544,0,1584,-33,29,-6
13255,-544,0,1568,-35,30,-3
13260,-536,-8,1584,-37,30,-4
13265,-536,0,1584,-37,30,-2
13270,-528,0,1584,-38,30,-2
13275,-552,16,1568,-38,31,0
13280,-536,0,1560,-37,30,0
13285,-560,0,1552,-36,30,2
13290,-536,-8,1568,-37,29,2
13295,-592,8,1600,-37,29,2
13300,-544,0,1552,-36,28,1
13305,-544,0,1552,-35,27,1
13310,-528,0,1568,-34,27,2
13315,-536,0,1600,-34,24,1
13320,-544,8,1568,-33,26,1
13325,-552,0,1584,-32,25,0
13330,-560,24,1552,-34,25,-1
13335,-560,16,1552,-34,26,-2
13340,-560,16,1552,-33,24,-3
13345,-544,0,1552,-33,25,-2
13350,-544,-32,1584,-34,25,-3
13355,-544,8,1600,-34,24,-4
13360,-544,0,1576,-32,25,-4
13365,-544,0,1560,-31,27,-5
13370,-536,8,1592,-30,28,-7
13375,-520,0,1576,-28,27,-7
13380,-552,32,1576,-26,27,-10
13385,-536,16,1584,-26,29,-10
13390,-536,0,1600,-26,30,-10
13395,-536,8,1576,-25,32,-12
13400,-528,16,1560,-24,30,-13
13405,-600,32,1584,-22,28,-13
13410,-528,8,1560,-21,27,-12
13415,-536,0,1584,-20,26,-11
13420,-512,0,1576,-23,25,-10
13425,-544,16,1568,-24,26,-11
13430,-536,8,1568,-26,28,-10
13435,-536,24,1560,-29,31,-9
13440,-560,8,1584,-32,33,-8
13445,-528,0,1600,-33,34,-9
13450,-536,8,1584,-34,35,-8
13455,-552,24,1568,-36,35,-7
13460,-560,24,1552,-34,34,-7
13465,-544,0,1560,-33,33,-5
13470,-544,8,1568,-35,33,-4
13475,-560,16,1544,-36,31,-4
13480,-528,0,1568,-37,31,-4
13485,-520,8,1576,-38,30,-4
13490,-552,48,1576,-38,29,-2
13495,-536,32,1568,-41,29,-5
13500,-520,8,1544,-43,29,-5
13505,-544,8,1584,-46,30,-5
13510,-536,8,1576,-47,31,-5
13515,-544,8,1608,-50,33,-6
13520,-528,8,1576,-51,35,-5
13525,-568,24,1560,-53,36,-6
13530,-552,8,1560,-51,35,-7
13535,-552,8,1560,-48,34,-6
13540,-536,8,1560,-46,33,-7
13545,-544,0,1584,-41,31,-7
13550,-552,8,1568,-41,31,-6
13555,-544,16,1584,-39,29,-5
13560,-552,-24,1528,-37,27,-3
13565,-536,8,1552,-36,25,-5
13570,-576,8,1560,-37,22,-4
13575,-544,16,1592,-36,23,-5
13580,-544,8,1568,-34,23,-5
13585,-552,8,1584,-33,24,-4
13590,-544,8,1584,-33,23,-3
13595,-560,8,1568,-36,23,-3
13600,-576,16,1560,-36,24,-5
13605,-536,0,1568,-37,22,-6
13610,-560,8,1560,-38,22,-5
13615,-536,8,1560,-39,21,-7
13620,-552,8,1584,-41,19,-6
13625,-552,8,1560,-42,18,-6
13630,-544,8,1568,-42,16,-5
13635,-552,0,1568,-42,14,-7
13640,-568,0,1576,-40,14,-6
13645,-536,-16,1568,-38,12,-7
13650,-528,0,1568,-38,11,-7
13655,-552,16,1560,-35,10,-7
13660,-584,8,1584,-33,10,-6
13665,-560,24,1584,-32,10,-6
13670,-528,0,1576,-30,9,-5
13675,-544,16,1584,-32,9,-5
13680,-536,16,1592,-33,11,-4
13685,-536,8,1568,-34,12,-6
13690,-544,8,1600,-36,13,-5
13695,-544,8,1584,-37,12,-5
13700,-544,8,1576,-38,13,-5
13705,-544,8,1584,-42,14,-3
13710,-544,8,1600,-43,14,-4
13715,-536,-8,1552,-44,16,-4
13720,-528,24,1576,-47,16,-3
13725,-560,24,1568,-47,17,-3
13730,-488,8,1536,-48,17,-4
13735,-528,8,1584,-48,16,-2
13740,-560,0,1560,-47,15,-2
13745,-512,-8,1552,-48,16,-1
13750,-552,8,1568,-47,17,-1
13755,-552,16,1544,-47,17,-1
13760,-544,0,1568,-48,17,-3
13765,-552,40,1536,-42,17,-3
13770,-560,16,1568,-41,17,-3
13775,-544,16,1560,-39,17,-3
13780,-568,32,1568,-37,18,-3
13785,-624,0,1544,-35,19,-3
13790,-544,16,1560,-34,18,-3
13795,-544,8,1552,-33,18,-4
13800,-536,0,1584,-33,18,-4
13805,-536,0,1552,-35,18,-4
13810,-544,32,1584,-34,18,-2
13815,-552,16,1576,-36,19,-2
13820,-528,0,1600,-36,17,-3
13825,-528,0,1568,-40,17,-2
13830,-536,8,1584,-39,16,-2
13835,-528,16,1552,-41,16,-3
13840,-536,16,1584,-43,15,-4
13845,-536,8,1568,-44,13,-2
13850,-544,8,1568,-44,13,-2
13855,-552,16,1600,-45,12,-3
13860,-560,0,1560,-46,12,-4
13865,-552,24,1568,-46,12,-3
13870,-544,24,1568,-47,14,-4
13875,-560,8,1560,-47,14,-4
13880,-528,8,1576,-48,16,-4
13885,-528,8,1592,-50,19,-4
13890,-528,8,1552,-51,21,-5
13895,-552,16,1552,-49,23,-4
13900,-560,24,1560,-49,23,-6
13905,-552,16,1544,-50,25,-5
13910,-536,8,1552,-49,25,-6
13915,-560,8,1576,-48,24,-4
13920,-552,8,1560,-47,25,-5
13925,-544,8,1552,-47,25,-5
13930,-544,16,1576,-48,24,-5
13935,-520,8,1600,-46,24,-6
13940,-528,0,1568,-47,22,-7
13945,-528,0,1560,-44,21,-9
13950,-512,16,1576,-42,20,-9
13955,-520,24,1536,-40,19,-8
13960,-544,8,1568,-39,18,-8
13965,-544,16,1568,-35,15,-7
13970,-512,0,1560,-35,14,-7
13975,-576,0,1576,-36,15,-8
13980,-544,8,1592,-37,16,-9
13985,-536,16,1592,-37,15,-9
13990,-568,8,1568,-37,17,-8
13995,-576,24,1568,-38,18,-8
14000,-560,0,1544,-39,20,-8
14005,-520,0,1576,-39,22,-7
14010,-536,8,1592,-42,25,-6
14015,-552,0,1592,-44,26,-6
14020,-552,8,1584,-44,27,-5
14025,-552,8,1576,-44,26,-4
14030,-560,8,1560,-45,26,-3
14035,-544,8,1608,-46,23,-2
14040,-552,0,1576,-45,22,-2
14045,-536,0,1552,-44,19,0
14050,-552,8,1576,-44,20,-1
14055,-560,8,1568,-44,19,-1
14060,-536,8,1576,-45,19,-1
14065,-552,0,1568,-46,19,-1
14070,-528,8,1608,-45,19,-1
14075,-544,16,1568,-44,18,-1
14080,-536,8,1568,-41,18,-2
14085,-536,8,1544,-39,17,-3
14090,-560,16,1568,-40,18,-2
14095,-568,48,1576,-41,18,-3
14100,-536,16,1560,-40,19,-4
14105,-560,8,1568,-42,20,-4
14110,-616,72,1576,-44,21,-5
14115,-536,24,1544,-46,21,-4
14120,-544,24,1576,-46,24,-5
14125,-560,24,1600,-46,23,-6
14130,-536,16,1584,-47,25,-7
14135,-560,8,1592,-47,25,-6
14140,-520,8,1600,-47,27,-5
14145,-560,32,1576,-47,27,-6
14150,-552,8,1568,-50,28,-5
14155,-536,16,1608,-51,27,-5
14160,-552,32,1568,-51,27,-6
14165,-536,-8,1544,-52,27,-6
14170,-568,8,1560,-52,24,-6
14175,-552,8,1552,-51,21,-6
14180,-560,8,1568,-51,19,-5
14185,-552,24,1576,-49,15,-6
14190,-560,0,1560,-48,13,-7
14195,-568,8,1544,-48,10,-7
14200,-528,8,1584,-48,8,-6
14205,-560,32,1592,-48,7,-6
14210,-552,-16,1560,-47,8,-8
14215,-552,8,1592,-47,7,-9
14220,-568,56,1536,-47,8,-11
14225,-552,16,1568,-48,10,-10
14230,-552,0,1584,-46,12,-12
14235,-528,0,1552,-46,15,-10
14240,-536,16,1600,-46,15,-10
14245,-536,0,1552,-45,18,-8
14250,-536,8,1584,-44,19,-8
14255,-560,0,1536,-45,20,-9
14260,-568,24,1560,-47,20,-8
14265,-552,0,1600,-47,21,-7
14270,-536,0,1592,-46,21,-6
14275,-552,40,1560,-48,21,-6
14280,-552,8,1576,-46,19,-5
14285,-528,8,1584,-45,19,-4
14290,-536,24,1584,-41,17,-5
14295,-552,8,1568,-39,18,-3
14300,-536,8,1552,-37,17,-2
14305,-544,0,1552,-35,16,-4
14310,-544,16,1536,-33,18,-2
14315,-544,16,1568,-31,17,-3
14320,-544,0,1568,-29,17,-1
14325,-552,0,1600,-28,18,-2
14330,-560,0,1552,-27,20,-2
14335,-528,16,1568,-27,20,-2
14340,-528,8,1552,-28,22,-1
14345,-552,16,1560,-28,24,1
14350,-568,24,1568,-29,25,2
14355,-552,16,1568,-30,26,1
14360,-544,24,1584,-29,26,3
14365,-552,16,1560,-32,26,2
14370,-560,24,1560,-36,25,2
14375,-528,24,1560,-39,20,2
14380,-528,24,1584,-44,20,0
14385,-560,40,1608,-48,21,-1
14390,-544,32,1584,-52,20,-2
14395,-544,16,1568,-54,19,-2
14400,-552,32,1576,-54,17,-3
14405,-544,8,1568,-56,18,-4
14410,-536,8,1584,-58,19,-5
14415,-568,16,1568,-60,19,-7
14420,-568,32,1544,-62,19,-9
14425,-536,16,1592,-64,21,-9
14430,-528,16,1568,-64,22,-11
14435,-568,-8,1576,-64,22,-12
14440,-536,8,1576,-60,23,-13
14445,-544,-16,1560,-53,24,-14
14450,-560,0,1552,-49,22,-12
14455,-544,0,1544,-44,21,-11
14460,-552,0,1584,-39,20,-9
14465,-544,16,1568,-36,20,-9
14470,-552,8,1560,-35,17,-7
14475,-544,0,1584,-30,17,-7
14480,-560,0,1544,-27,17,-4
14485,-544,0,1560,-25,17,-4
14490,-552,0,1568,-22,17,-4
14495,-576,72,1552,-20,17,-3
14500,-544,16,1560,-22,16,-2
14505,-552,16,1592,-23,16,-2
14510,-520,16,1560,-25,16,-2
14515,-536,32,1552,-26,17,-2
14520,-528,8,1592,-31,17,-1
14525,-544,8,1584,-36,17,-1
14530,-536,24,1576,-38,16,-2
14535,-544,8,1560,-41,16,-3
14540,-536,8,1584,-44,15,-4
14545,-560,8,1552,-48,14,-5
14550,-544,0,1576,-49,13,-7
14555,-552,24,1560,-49,12,-6
14560,-536,0,1560,-51,11,-6
14565,-544,8,1560,-48,11,-6
14570,-560,24,1568,-49,11,-6
14575,-568,16,1576,-48,11,-7
14580,-560,8,1544,-47,12,-7
14585,-528,8,1568,-46,12,-7
14590,-528,0,1584,-45,14,-6
14595,-560,16,1560,-45,16,-7
14600,-552,8,1520,-45,19,-6
14605,-560,24,1568,-44,19,-6
14610,-536,0,1584,-43,18,-5
14615,-576,16,1576,-42,20,-4
14620,-552,16,1576,-42,22,-6
14625,-552,24,1576,-43,21,-4
14630,-552,24,1552,-43,21,-4
14635,-512,8,1576,-44,21,-4
14640,-536,16,1520,-45,22,-4
14645,-568,8,1576,-46,23,-4
14650,-560,16,1592,-44,23,-4
14655,-536,8,1496,-45,19,-6
14660,-528,0,1592,-43,18,-6
14665,-552,32,1592,-43,18,-5
14670,-536,0,1584,-43,17,-7
14675,-560,0,1576,-41,16,-7
14680,-536,32,1584,-38,12,-8
14685,-536,16,1576,-36,10,-10
14690,-576,0,1584,-34,11,-12
14695,-600,40,1584,-32,9,-13
14700,-576,24,1560,-29,0,-14
14705,-536,64,1536,-29,-8,-13
14710,-528,48,1560,-33,-9,-12
14715,-512,32,1488,-45,1,-10
14720,-544,16,1528,-57,13,-9
14725,-560,-8,1528,-65,19,-11
14730,-544,0,1528,-66,19,-11
14735,-536,0,1568,-62,19,-11
14740,-528,0,1560,-56,23,-9
14745,-520,8,1584,-48,29,-6
14750,-520,0,1592,-44,35,-3
14755,-512,-8,1576,-41,40,-2
14760,-488,-8,1608,-43,42,1
14765,-472,16,1632,-44,46,2
14770,-520,0,1616,-48,46,2
14775,-512,-16,1624,-49,51,11
14780,-536,-8,1600,-49,49,12
14785,-664,-104,1560,-51,48,10
14790,-600,8,1648,-66,72,5
14795,-504,-8,1616,-41,41,26
14800,-536,0,1600,-21,13,14
14805,-568,8,1576,-19,7,5
14810,-584,16,1608,-27,4,8
14815,-576,40,1576,-38,-2,11
14820,-560,8,1576,-41,-7,4
14825,-576,48,1544,-46,-5,0
14830,-592,32,1536,-51,2,1
14835,-608,40,1536,-57,7,1
14840,-600,8,1544,-58,7,1
14845,-568,8,1536,-59,7,0
14850,-560,16,1544,-58,6,-1
14855,-568,24,1536,-57,6,-2
14860,-552,8,1520,-53,4,-1
14865,-560,8,1528,-51,2,-4
14870,-568,0,1528,-46,2,-6
14875,-496,-8,1520,-42,1,-7
14880,-512,-24,1536,-36,-1,-7
14885,-552,0,1544,-28,-1,-7
14890,-536,0,1552,-19,-2,-6
14895,-552,0,1544,-14,-4,-5
14900,-520,0,1536,-8,-10,-3
14905,-528,0,1544,-4,-6,-2
14910,-544,-8,1576,0,-1,1
14915,-544,0,1600,4,-1,4
14920,-528,0,1656,6,-1,6
14925,-536,0,1600,8,2,10
14930,-544,48,1568,7,6,11
14935,-544,32,1560,9,10,13
14940,-552,48,1624,7,13,15
14945,-536,48,1576,4,15,14
14950,-536,64,1584,-2,21,14
14955,-568,80,1584,-5,34,16
14960,-544,80,1600,-10,28,16
14965,-552,96,1568,-20,22,14
14970,-528,56,1608,-36,19,11
14975,-544,64,1584,-48,19,10
14980,-504,64,1640,-61,18,7
14985,-544,56,1568,-72,19,4
14990,-536,48,1560,-76,18,2
14995,-544,56,1568,-80,19,-1
