timestamp,accel_x,accel_y,accel_z,gyro_x,gyro_y,gyro_z
0,16,-936,-1864,539,-4,32
5,32,-952,-1864,576,-3,29
10,56,-944,-1856,612,-2,28
15,56,-936,-1840,646,-2,23
20,80,-952,-1824,678,2,18
25,88,-984,-1816,704,5,15
30,48,-968,-1816,729,7,14
35,40,-960,-1800,745,11,16
40,56,-992,-1792,757,12,15
45,32,-976,-1776,762,15,15
50,48,-1000,-1784,759,14,16
55,48,-992,-1776,750,13,18
60,32,-1000,-1736,736,11,20
65,8,-984,-1744,720,10,22
70,40,-1008,-1752,699,8,25
75,40,-960,-1704,678,6,25
80,8,-1000,-1688,655,3,29
85,40,-1024,-1696,633,0,30
90,32,-1016,-1696,612,-4,35
95,24,-1024,-1664,590,-9,37
100,48,-1040,-1680,568,-12,39
105,64,-1056,-1656,544,-16,38
110,40,-1040,-1688,522,-19,36
115,56,-1040,-1664,499,-21,35
120,40,-1056,-1680,480,-25,31
125,40,-1080,-1672,461,-27,29
130,32,-1080,-1696,443,-29,28
135,48,-1072,-1704,428,-31,26
140,32,-1072,-1720,413,-30,24
145,48,-1120,-1680,402,-34,22
150,32,-1096,-1720,393,-33,21
155,24,-1088,-1688,384,-35,19
160,40,-1088,-1672,377,-36,15
165,64,-1096,-1712,371,-34,13
170,56,-1128,-1736,367,-34,8
175,80,-1120,-1696,362,-34,4
180,64,-1120,-1672,357,-34,-1
185,48,-1048,-1640,352,-33,-5
190,48,-1088,-1696,346,-32,-7
195,80,-1120,-1664,338,-31,-11
200,56,-1112,-1712,327,-31,-13
205,80,-1128,-1688,315,-30,-14
210,72,-1080,-1688,302,-27,-14
215,56,-1096,-1688,290,-27,-13
220,72,-1096,-1688,280,-26,-16
225,88,-1096,-1656,270,-27,-16
230,64,-1088,-1648,260,-27,-16
235,72,-1072,-1704,250,-27,-16
240,72,-1152,-1632,239,-26,-17
245,72,-1096,-1656,228,-24,-16
250,88,-1104,-1648,214,-26,-15
255,56,-1096,-1648,198,-26,-16
260,56,-1072,-1704,180,-25,-17
265,40,-1080,-1656,160,-25,-16
270,40,-1064,-1680,139,-23,-17
275,40,-1080,-1672,117,-22,-19
280,32,-1056,-1648,98,-22,-21
285,40,-1088,-1672,81,-19,-22
290,48,-1080,-1704,64,-20,-24
295,56,-1072,-1648,49,-21,-26
300,48,-1088,-1656,40,-20,-28
305,24,-1056,-1672,31,-19,-29
310,40,-1056,-1704,23,-17,-29
315,48,-1064,-1680,15,-16,-31
320,56,-1064,-1712,7,-13,-31
325,64,-1072,-1688,-1,-11,-32
330,48,-1048,-1696,-8,-9,-29
335,80,-1072,-1712,-16,-7,-28
340,72,-1072,-1728,-24,-6,-30
345,64,-1072,-1696,-29,-4,-29
350,0,-1064,-1680,-34,-3,-26
355,80,-1032,-1696,-38,0,-28
360,80,-1056,-1696,-43,1,-25
365,64,-1072,-1688,-50,4,-22
370,56,-1048,-1728,-55,4,-20
375,48,-1064,-1720,-62,5,-19
380,80,-1056,-1704,-69,5,-16
385,80,-1088,-1696,-75,3,-15
390,32,-1056,-1712,-82,4,-13
395,40,-1072,-1712,-87,5,-12
400,40,-1088,-1720,-94,5,-12
405,40,-1128,-1728,-100,4,-11
410,64,-1072,-1728,-104,3,-9
415,40,-1040,-1712,-107,2,-10
420,56,-1056,-1696,-108,3,-10
425,56,-1032,-1704,-111,4,-9
430,48,-1064,-1704,-114,2,-11
435,40,-1024,-1704,-118,4,-13
440,64,-1040,-1720,-122,8,-12
445,24,-1064,-1704,-128,10,-13
450,16,-1072,-1728,-132,12,-15
455,48,-1048,-1704,-139,13,-13
460,96,-1136,-1672,-144,15,-15
465,56,-1104,-1736,-146,17,-17
470,24,-1056,-1728,-147,19,-19
475,48,-1096,-1720,-146,21,-23
480,8,-1096,-1720,-141,22,-26
485,0,-1104,-1752,-138,23,-29
490,32,-1136,-1744,-133,25,-31
495,32,-1112,-1720,-126,26,-32
500,-16,-1088,-1728,-114,28,-31
505,8,-1104,-1720,-104,30,-32
510,8,-1088,-1744,-93,33,-28
515,-16,-1064,-1752,-81,38,-25
520,-16,-1104,-1696,-72,41,-21
525,-16,-1064,-1744,-66,46,-18
530,-16,-1088,-1720,-63,50,-15
535,-8,-1040,-1728,-64,52,-12
540,-16,-1056,-1704,-67,55,-9
545,-8,-1040,-1712,-73,57,-7
550,8,-1056,-1728,-82,58,-5
555,0,-1040,-1736,-92,59,-6
560,0,-1040,-1712,-105,57,-5
565,0,-1048,-1704,-121,55,-6
570,-24,-1016,-1704,-137,53,-5
575,-24,-1024,-1736,-155,52,-8
580,-24,-1024,-1720,-172,50,-13
585,-24,-1032,-1720,-187,49,-17
590,16,-1040,-1720,-198,47,-20
595,-16,-1048,-1736,-205,47,-22
600,0,-1008,-1776,-208,46,-25
605,-16,-1024,-1760,-208,45,-29
610,-16,-1008,-1760,-205,43,-29
615,0,-968,-1752,-200,42,-30
620,-8,-984,-1776,-195,42,-30
625,-8,-976,-1800,-193,42,-30
630,8,-992,-1784,-192,43,-29
635,40,-992,-1768,-193,46,-28
640,56,-984,-1768,-195,47,-27
645,56,-992,-1792,-198,48,-26
650,40,-960,-1752,-201,48,-23
655,56,-984,-1784,-204,48,-21
660,80,-1008,-1744,-207,48,-20
665,64,-1000,-1760,-210,48,-17
670,64,-976,-1752,-213,46,-17
675,80,-968,-1784,-215,44,-17
680,64,-976,-1776,-216,41,-18
685,40,-976,-1784,-218,37,-16
690,40,-960,-1768,-220,34,-17
695,40,-952,-1784,-221,30,-17
700,24,-944,-1784,-225,26,-21
705,40,-944,-1824,-232,22,-23
710,48,-944,-1824,-238,19,-24
715,32,-936,-1808,-246,14,-27
720,40,-912,-1776,-254,11,-29
725,24,-912,-1800,-263,9,-31
730,64,-936,-1744,-270,6,-33
735,24,-912,-1824,-279,4,-33
740,48,-912,-1784,-287,1,-36
745,48,-896,-1800,-293,-1,-35
750,40,-888,-1848,-299,-4,-36
755,16,-912,-1808,-305,-4,-37
760,40,-904,-1800,-309,-4,-38
765,32,-888,-1832,-309,-6,-38
770,40,-896,-1840,-310,-7,-37
775,40,-912,-1864,-309,-7,-38
780,32,-888,-1832,-307,-7,-36
785,32,-920,-1808,-301,-7,-39
790,56,-896,-1816,-296,-6,-39
795,40,-920,-1808,-289,-7,-40
800,32,-904,-1832,-280,-8,-40
805,40,-912,-1848,-270,-10,-38
810,64,-904,-1864,-258,-13,-38
815,48,-912,-1904,-246,-14,-37
820,48,-912,-1896,-230,-15,-35
825,32,-912,-1856,-213,-17,-35
830,64,-880,-1896,-193,-17,-35
835,80,-896,-1880,-171,-17,-36
840,24,-896,-1944,-149,-17,-36
845,48,-912,-1904,-127,-17,-36
850,32,-912,-1912,-105,-15,-36
855,56,-904,-1912,-83,-16,-37
860,24,-896,-1904,-64,-19,-37
865,40,-872,-1928,-46,-21,-36
870,40,-880,-1920,-28,-24,-35
875,48,-896,-1880,-13,-26,-33
880,80,-856,-1880,0,-29,-33
885,72,-864,-1880,13,-30,-31
890,104,-848,-1888,22,-32,-30
895,56,-760,-1888,29,-33,-25
900,96,-872,-1856,34,-36,-25
905,120,-848,-1880,37,-38,-22
910,128,-824,-1856,36,-41,-19
915,112,-824,-1816,33,-41,-16
920,120,-840,-1848,28,-42,-14
925,112,-816,-1824,20,-42,-10
930,120,-800,-1816,12,-42,-5
935,168,-824,-1824,5,-41,-4
940,120,-832,-1832,-3,-39,-1
945,120,-824,-1800,-10,-39,3
950,136,-824,-1888,-19,-36,5
955,120,-832,-1800,-27,-34,8
960,112,-816,-1840,-34,-32,10
965,96,-816,-1864,-40,-30,14
970,112,-824,-1816,-45,-28,15
975,104,-832,-1840,-49,-26,18
980,96,-808,-1840,-53,-25,19
985,104,-808,-1872,-56,-24,21
990,144,-816,-1864,-57,-25,23
995,104,-816,-1840,-59,-27,23
1000,80,-824,-1832,-62,-27,25
1005,56,-800,-1880,-63,-26,26
1010,88,-816,-1856,-65,-28,23
1015,88,-816,-1856,-67,-29,23
1020,72,-800,-1856,-67,-32,24
1025,88,-792,-1856,-69,-33,21
1030,48,-792,-1824,-70,-32,22
1035,64,-760,-1856,-70,-34,22
1040,80,-792,-1848,-71,-35,21
1045,64,-808,-1872,-73,-38,23
1050,72,-784,-1848,-76,-37,21
1055,32,-808,-1840,-81,-38,22
1060,72,-808,-1856,-84,-41,21
1065,40,-776,-1816,-87,-41,18
1070,24,-800,-1832,-90,-41,17
1075,32,-808,-1856,-92,-39,15
1080,24,-792,-1848,-95,-41,15
1085,32,-792,-1848,-96,-41,14
1090,-8,-768,-1872,-97,-39,12
1095,24,-792,-1904,-99,-39,10
1100,32,-792,-1872,-101,-39,8
1105,8,-808,-1864,-103,-39,8
1110,32,-792,-1936,-107,-40,8
1115,16,-824,-1880,-109,-40,6
1120,32,-832,-1840,-111,-39,4
1125,0,-792,-1848,-113,-39,1
1130,-8,-808,-1872,-113,-38,1
1135,0,-800,-1848,-114,-39,1
1140,-8,-808,-1896,-115,-38,0
1145,-8,-824,-1872,-114,-36,-2
1150,-16,-808,-1928,-113,-36,-2
1155,-8,-840,-1880,-110,-34,-2
1160,-8,-840,-1888,-106,-34,-3
1165,-8,-856,-1848,-98,-32,-3
1170,-32,-816,-1912,-89,-29,-4
1175,-32,-824,-1904,-76,-28,-4
1180,-8,-816,-1904,-64,-24,-3
1185,-24,-824,-1928,-50,-24,-3
1190,-24,-784,-1904,-37,-21,-5
1195,-24,-792,-1936,-24,-20,-5
1200,-24,-792,-1896,-15,-18,-5
1205,8,-784,-1888,-6,-17,-2
1210,0,-792,-1896,2,-17,-3
1215,16,-792,-1864,9,-16,-2
1220,16,-840,-1904,13,-15,-1
1225,-16,-760,-1880,17,-14,-3
1230,-16,-800,-1880,19,-11,-3
1235,-24,-760,-1880,21,-10,-3
1240,-16,-768,-1880,24,-11,-4
1245,-32,-776,-1872,27,-10,-5
1250,-24,-768,-1856,29,-9,-5
1255,0,-784,-1904,30,-8,-7
1260,-16,-784,-1880,32,-11,-7
1265,-8,-800,-1920,35,-11,-10
1270,-32,-768,-1896,36,-12,-9
1275,-24,-808,-1832,38,-12,-9
1280,-32,-760,-1880,39,-11,-9
1285,-8,-768,-1872,38,-9,-9
1290,-16,-752,-1880,36,-9,-8
1295,-24,-760,-1896,31,-8,-7
1300,-8,-752,-1848,27,-7,-4
1305,-8,-776,-1872,21,-7,-5
1310,8,-768,-1896,17,-6,-5
1315,-24,-760,-1888,12,-5,-4
1320,16,-768,-1856,8,-3,-4
1325,-16,-776,-1896,4,-3,-5
1330,0,-792,-1856,-1,-3,-3
1335,-8,-784,-1872,-5,-1,-1
1340,8,-784,-1896,-8,-2,0
1345,16,-784,-1856,-10,-1,0
1350,16,-776,-1872,-11,1,2
1355,8,-760,-1872,-14,1,1
1360,24,-760,-1888,-15,0,1
1365,8,-768,-1912,-16,0,-1
1370,24,-776,-1896,-18,0,-2
1375,16,-760,-1904,-19,0,-1
1380,32,-768,-1904,-21,0,-2
1385,8,-784,-1960,-22,1,-3
1390,16,-776,-1888,-23,3,-4
1395,16,-736,-1912,-22,3,-4
1400,16,-752,-1896,-23,5,-4
1405,16,-776,-1912,-22,5,-4
1410,40,-768,-1896,-21,7,-3
1415,-8,-744,-1912,-19,8,-2
1420,-8,-768,-1904,-16,10,-2
1425,16,-752,-1872,-13,11,-3
1430,32,-768,-1912,-8,11,-4
1435,8,-800,-1912,-3,13,-4
1440,16,-792,-1896,2,12,-3
1445,24,-752,-1920,6,14,-2
1450,16,-752,-1904,11,14,-2
1455,16,-752,-1912,16,15,-2
1460,0,-744,-1896,18,16,1
1465,0,-736,-1896,21,17,-1
1470,-8,-744,-1888,23,19,1
1475,24,-768,-1896,24,19,2
1480,24,-736,-1904,24,19,2
1485,40,-792,-1896,25,18,2
1490,56,-760,-1920,25,18,3
1495,56,-752,-1912,25,18,2
1500,40,-752,-1896,24,18,2
1505,32,-752,-1904,25,18,2
1510,24,-736,-1888,25,16,2
1515,16,-768,-1904,24,15,0
1520,32,-760,-1896,23,15,1
1525,56,-752,-1880,21,13,1
1530,32,-728,-1888,19,9,1
1535,32,-784,-1888,17,9,2
1540,24,-744,-1864,17,10,3
1545,8,-752,-1856,16,9,1
1550,-8,-776,-1960,15,10,2
1555,8,-744,-1880,16,12,1
1560,-16,-752,-1912,19,14,0
1565,0,-768,-1920,21,15,0
1570,0,-752,-1896,25,16,0
1575,-8,-736,-1912,28,15,-1
1580,16,-768,-1872,31,16,-2
1585,32,-752,-1928,35,17,-4
1590,16,-760,-1904,37,16,-5
1595,24,-744,-1872,40,16,-5
1600,-16,-720,-1936,42,17,-7
1605,16,-728,-1912,45,18,-5
1610,0,-720,-1896,47,17,-6
1615,8,-736,-1936,49,18,-6
1620,8,-712,-1912,50,17,-7
1625,-8,-752,-1928,49,17,-7
1630,16,-728,-1912,48,17,-7
1635,-16,-736,-1912,50,17,-7
1640,-8,-736,-1920,51,17,-5
1645,0,-712,-1888,52,17,-4
1650,0,-744,-1896,53,18,-4
1655,-16,-728,-1928,56,18,-3
1660,0,-736,-1904,59,20,-2
1665,-8,-728,-1928,61,21,-2
1670,-8,-728,-1920,62,21,-1
1675,-8,-712,-1896,63,22,-1
1680,0,-720,-1912,61,23,0
1685,-16,-744,-1912,62,23,1
1690,16,-752,-1896,64,23,1
1695,-32,-728,-1904,64,23,0
1700,-8,-776,-1888,66,25,-2
1705,-8,-736,-1920,68,24,-4
1710,-8,-744,-1864,69,24,-4
1715,-24,-712,-1912,70,23,-4
1720,-24,-728,-1920,71,23,-7
1725,-24,-728,-1912,72,22,-7
1730,-32,-720,-1896,72,20,-8
1735,-16,-736,-1880,74,20,-7
1740,-16,-736,-1896,74,19,-9
1745,-16,-744,-1896,75,17,-10
1750,-24,-736,-1920,76,16,-11
1755,-8,-744,-1880,76,16,-10
1760,-8,-744,-1896,76,15,-10
1765,-16,-736,-1920,75,13,-10
1770,-8,-736,-1904,74,13,-10
1775,0,-736,-1896,71,13,-11
1780,0,-736,-1904,69,11,-10
1785,0,-752,-1912,63,12,-9
1790,-8,-728,-1896,59,10,-7
1795,-8,-744,-1896,55,9,-7
1800,0,-752,-1888,49,9,-8
1805,24,-744,-1904,45,10,-10
1810,8,-768,-1904,42,9,-7
1815,40,-736,-1896,41,10,-10
1820,-24,-768,-1928,43,11,-9
1825,-16,-752,-1904,43,10,-9
1830,24,-744,-1920,46,13,-10
1835,-8,-752,-1912,52,14,-12
1840,16,-752,-1912,56,14,-12
1845,24,-760,-1904,58,15,-10
1850,16,-736,-1904,60,15,-11
1855,0,-736,-1920,61,15,-10
1860,-24,-744,-1872,61,16,-9
1865,-16,-760,-1928,61,17,-8
1870,16,-776,-1904,60,17,-6
1875,8,-776,-1888,58,18,-6
1880,8,-752,-1912,57,21,-9
1885,0,-760,-1880,57,20,-10
1890,16,-752,-1872,57,23,-11
1895,8,-784,-1888,59,23,-14
1900,0,-744,-1896,61,23,-14
1905,0,-792,-1912,62,23,-13
1910,16,-776,-1896,64,23,-12
1915,8,-808,-1936,66,22,-13
1920,48,-776,-1880,67,21,-12
1925,32,-800,-1904,69,22,-12
1930,-8,-784,-1888,70,22,-12
1935,24,-752,-1896,69,20,-11
1940,16,-752,-1848,66,21,-9
1945,24,-760,-1904,63,22,-8
1950,24,-776,-1880,60,24,-10
1955,16,-760,-1888,55,24,-10
1960,32,-768,-1872,51,25,-10
1965,16,-792,-1880,47,24,-9
1970,16,-768,-1872,43,25,-8
1975,24,-760,-1880,40,25,-9
1980,8,-784,-1888,40,24,-9
1985,48,-824,-1848,38,26,-10
1990,32,-768,-1864,36,25,-12
1995,8,-752,-1904,36,26,-13
2000,24,-792,-1872,38,24,-11
2005,24,-784,-1888,38,24,-13
2010,32,-792,-1864,41,24,-12
2015,24,-768,-1880,43,23,-11
2020,32,-744,-1872,45,23,-14
2025,40,-776,-1896,46,21,-14
2030,8,-752,-1880,48,22,-13
2035,16,-768,-1864,49,21,-14
2040,56,-816,-1832,50,22,-13
2045,8,-752,-1888,51,24,-14
2050,40,-768,-1896,50,23,-14
2055,24,-760,-1880,51,23,-13
2060,24,-752,-1872,51,22,-11
2065,-16,-760,-1888,52,22,-12
2070,16,-768,-1896,52,23,-12
2075,0,-776,-1912,53,22,-12
2080,32,-760,-1840,52,22,-12
2085,8,-776,-1872,51,21,-12
2090,8,-776,-1872,51,22,-11
2095,-8,-752,-1840,49,22,-11
2100,24,-752,-1880,48,22,-11
2105,0,-744,-1896,45,23,-12
2110,-8,-728,-1888,44,23,-11
2115,0,-760,-1848,39,24,-12
2120,-8,-760,-1864,35,24,-13
2125,-8,-752,-1904,29,25,-12
2130,0,-728,-1888,26,24,-12
2135,8,-768,-1880,23,24,-12
2140,-8,-752,-1928,21,26,-13
2145,-8,-784,-1928,19,26,-14
2150,24,-744,-1880,19,26,-16
2155,0,-776,-1920,20,26,-16
2160,8,-736,-1888,18,27,-19
2165,-8,-728,-1896,15,26,-19
2170,0,-752,-1896,14,27,-19
2175,-16,-752,-1928,14,27,-20
2180,-32,-728,-1896,13,27,-18
2185,-8,-736,-1912,11,27,-17
2190,-8,-744,-1888,10,28,-17
2195,0,-736,-1888,7,28,-15
2200,-8,-752,-1896,8,28,-14
2205,-24,-728,-1904,6,28,-12
2210,8,-744,-1912,4,29,-12
2215,-8,-760,-1912,3,29,-12
2220,16,-744,-1888,0,29,-12
2225,8,-712,-1888,0,29,-11
2230,8,-728,-1880,-2,28,-11
2235,-16,-760,-1904,-4,27,-11
2240,-8,-736,-1920,-4,27,-11
2245,0,-712,-1920,-6,25,-12
2250,0,-720,-1856,-7,24,-11
2255,8,-688,-1912,-6,22,-11
2260,16,-744,-1896,-7,23,-14
2265,16,-728,-1888,-6,21,-13
2270,-8,-720,-1896,-6,21,-15
2275,24,-728,-1896,-7,20,-15
2280,16,-744,-1912,-8,20,-18
2285,8,-744,-1896,-9,21,-19
2290,8,-752,-1896,-8,19,-18
2295,0,-752,-1880,-8,21,-20
2300,16,-744,-1888,-8,21,-20
2305,16,-760,-1888,-10,21,-21
2310,16,-720,-1920,-10,22,-20
2315,0,-720,-1888,-10,23,-21
2320,32,-752,-1920,-10,22,-21
2325,24,-736,-1912,-7,23,-23
2330,0,-752,-1896,-4,24,-22
2335,32,-728,-1896,-3,22,-23
2340,24,-728,-1896,-3,22,-23
2345,24,-744,-1920,-2,23,-21
2350,16,-752,-1952,0,22,-22
2355,32,-744,-1912,2,23,-24
2360,32,-744,-1912,3,24,-24
2365,0,-736,-1912,6,23,-22
2370,40,-728,-1896,8,23,-25
2375,16,-720,-1952,9,21,-26
2380,24,-720,-1912,11,21,-27
2385,8,-704,-1920,12,20,-27
2390,32,-720,-1904,14,19,-26
2395,40,-728,-1888,15,20,-28
2400,24,-736,-1896,16,19,-28
2405,8,-712,-1928,13,18,-28
2410,40,-728,-1896,12,18,-27
2415,24,-728,-1944,11,18,-28
2420,0,-760,-1880,9,19,-29
2425,40,-736,-1888,8,19,-27
2430,40,-712,-1888,5,19,-27
2435,24,-736,-1896,2,20,-27
2440,32,-720,-1904,-1,20,-26
2445,16,-704,-1888,-4,19,-26
2450,16,-720,-1904,-7,21,-26
2455,16,-720,-1904,-9,21,-26
2460,16,-712,-1864,-9,21,-25
2465,16,-744,-1912,-9,22,-26
2470,16,-712,-1912,-8,23,-25
2475,40,-680,-1960,-6,22,-22
2480,40,-712,-1896,-2,22,-22
2485,24,-720,-1920,-1,21,-22
2490,24,-712,-1904,1,22,-20
2495,32,-696,-1920,2,21,-20
2500,32,-704,-1936,2,21,-19
2505,64,-720,-1912,2,20,-18
2510,48,-728,-1920,3,21,-18
2515,32,-696,-1920,4,21,-16
2520,32,-728,-1904,6,22,-18
2525,16,-720,-1904,8,20,-19
2530,32,-728,-1952,13,21,-19
2535,24,-720,-1928,17,20,-19
2540,24,-704,-1920,20,20,-20
2545,32,-704,-1936,26,20,-21
2550,56,-720,-1928,30,19,-20
2555,8,-728,-1912,36,17,-21
2560,24,-704,-1920,41,15,-19
2565,40,-728,-1928,47,15,-19
2570,24,-736,-1928,50,13,-18
2575,16,-696,-1912,51,13,-16
2580,56,-720,-1912,51,14,-16
2585,0,-680,-1960,48,15,-15
2590,16,-680,-1912,46,17,-12
2595,32,-696,-1880,43,16,-12
2600,16,-704,-1896,40,17,-10
2605,32,-704,-1896,36,18,-10
2610,40,-704,-1904,32,17,-10
2615,8,-720,-1904,29,17,-8
2620,40,-704,-1904,25,16,-9
2625,32,-696,-1888,23,16,-11
2630,16,-720,-1904,22,14,-9
2635,-8,-696,-1864,21,13,-12
2640,16,-688,-1920,20,12,-11
2645,16,-696,-1928,21,11,-12
2650,16,-704,-1896,21,11,-13
2655,24,-712,-1936,22,8,-14
2660,16,-696,-1904,23,7,-13
2665,24,-704,-1904,24,5,-13
2670,32,-696,-1888,24,3,-11
2675,24,-696,-1912,25,2,-11
2680,16,-680,-1912,26,-1,-11
2685,32,-704,-1920,28,-1,-10
2690,24,-704,-1920,29,-2,-10
2695,8,-688,-1920,30,-3,-8
2700,24,-688,-1920,30,-3,-9
2705,32,-688,-1928,30,-5,-8
2710,24,-688,-1912,29,-3,-7
2715,32,-680,-1904,30,-5,-7
2720,24,-680,-1936,29,-6,-6
2725,8,-696,-1912,28,-6,-5
2730,16,-680,-1904,27,-7,-4
2735,24,-656,-1920,26,-7,-5
2740,16,-712,-1912,26,-7,-5
2745,56,-736,-1896,24,-7,-2
2750,16,-664,-1912,23,-8,-3
2755,40,-712,-1904,22,-9,-4
2760,32,-672,-1936,21,-8,-3
2765,32,-688,-1896,21,-8,-4
2770,16,-680,-1904,20,-9,-2
2775,16,-680,-1920,21,-8,-3
2780,16,-696,-1952,20,-8,-3
2785,32,-688,-1888,20,-9,-5
2790,24,-704,-1904,21,-8,-5
2795,24,-688,-1912,21,-8,-6
2800,0,-688,-1960,23,-8,-8
2805,16,-704,-1920,24,-9,-7
2810,16,-696,-1928,25,-10,-9
2815,24,-704,-1920,28,-10,-7
2820,32,-704,-1928,29,-11,-7
2825,8,-688,-1928,31,-11,-7
2830,16,-704,-1936,34,-11,-8
2835,8,-672,-1896,37,-11,-7
2840,24,-672,-1896,39,-12,-4
2845,48,-688,-1928,40,-11,-3
2850,32,-736,-1872,41,-12,-3
2855,0,-696,-1944,43,-11,-2
2860,24,-680,-1936,44,-11,0
2865,48,-696,-1912,45,-10,2
2870,40,-712,-1920,45,-12,1
2875,24,-704,-1928,45,-11,4
2880,24,-712,-1912,45,-10,3
2885,16,-688,-1936,45,-11,6
2890,24,-704,-1896,45,-11,5
2895,24,-712,-1920,46,-12,6
2900,24,-720,-1904,45,-12,6
2905,16,-688,-1888,45,-14,7
2910,104,-728,-1912,45,-13,5
2915,0,-696,-1920,46,-15,4
2920,24,-728,-1880,47,-16,5
2925,24,-704,-1944,48,-17,4
2930,32,-728,-1904,48,-19,5
2935,24,-720,-1928,49,-20,6
2940,32,-712,-1928,49,-20,7
2945,8,-672,-1912,49,-21,8
2950,16,-728,-1912,50,-21,6
2955,40,-736,-1944,50,-21,8
2960,24,-664,-1920,52,-21,7
2965,0,-704,-1904,51,-20,7
2970,24,-664,-1888,52,-21,10
2975,0,-688,-1928,50,-21,9
2980,24,-720,-1904,50,-20,9
2985,32,-704,-1936,51,-21,10
2990,24,-696,-1904,52,-21,10
2995,0,-688,-1920,54,-21,9
3000,0,-688,-1928,53,-21,8
3005,24,-680,-1912,54,-21,9
3010,8,-696,-1912,53,-21,8
3015,8,-696,-1896,54,-21,7
3020,32,-704,-1912,54,-22,7
3025,-8,-656,-1920,55,-22,8
3030,0,-680,-1896,53,-22,9
3035,16,-720,-1928,54,-22,7
3040,-24,-680,-1928,55,-21,7
3045,-8,-688,-1904,55,-22,8
3050,8,-696,-1928,55,-21,8
3055,-16,-672,-1920,56,-22,8
3060,16,-672,-1904,56,-23,7
3065,-24,-704,-1920,55,-22,7
3070,-8,-704,-1920,52,-22,10
3075,0,-696,-1936,49,-22,12
3080,-16,-688,-1920,47,-22,13
3085,16,-672,-1912,45,-23,15
3090,0,-680,-1928,46,-23,16
3095,16,-712,-1944,44,-24,20
3100,-16,-688,-1912,45,-24,19
3105,16,-688,-1952,46,-24,20
3110,-8,-704,-1920,49,-25,20
3115,0,-688,-1928,53,-25,18
3120,8,-696,-1944,56,-25,18
3125,-32,-704,-1912,59,-26,17
3130,-16,-672,-1920,59,-29,15
3135,-8,-704,-1904,60,-30,16
3140,-24,-696,-1920,61,-31,16
3145,-8,-672,-1920,62,-32,16
3150,-8,-680,-1912,62,-31,16
3155,-8,-704,-1928,64,-33,14
3160,-24,-688,-1928,66,-32,15
3165,0,-680,-1928,67,-33,13
3170,-16,-720,-1920,68,-32,12
3175,-8,-656,-1936,69,-32,13
3180,-16,-680,-1904,70,-30,10
3185,-8,-680,-1960,72,-28,10
3190,-8,-712,-1896,74,-28,10
3195,-16,-680,-1952,74,-28,10
3200,-8,-688,-1912,76,-28,12
3205,0,-704,-1936,77,-28,13
3210,0,-704,-1920,76,-26,13
3215,0,-704,-1928,73,-26,16
3220,-16,-704,-1896,71,-26,18
3225,-32,-672,-1888,68,-24,21
3230,-24,-696,-1920,66,-22,20
3235,-16,-696,-1920,65,-21,20
3240,-24,-696,-1912,63,-20,20
3245,-8,-720,-1872,61,-19,20
3250,-8,-736,-1912,61,-19,20
3255,-16,-728,-1896,60,-19,18
3260,-24,-712,-1896,60,-19,18
3265,-24,-720,-1920,58,-18,16
3270,-24,-672,-1920,60,-17,17
3275,-24,-712,-1880,61,-16,14
3280,-32,-728,-1896,63,-17,13
3285,0,-704,-1872,65,-16,11
3290,-80,-696,-1960,67,-16,11
3295,-24,-712,-1912,70,-15,10
3300,-32,-704,-1928,73,-16,8
3305,-32,-720,-1904,77,-18,6
3310,-24,-696,-1896,78,-18,4
3315,-16,-720,-1920,81,-18,2
3320,-32,-720,-1936,82,-18,2
3325,-16,-720,-1912,83,-18,1
3330,-32,-704,-1904,87,-18,1
3335,-16,-752,-1936,87,-18,4
3340,-32,-720,-1912,88,-18,4
3345,-24,-672,-1944,91,-17,4
3350,-16,-704,-1912,92,-16,5
3355,-40,-688,-1928,92,-14,7
3360,-48,-696,-1928,90,-13,7
3365,-32,-688,-1920,90,-13,9
3370,-32,-712,-1904,88,-11,10
3375,-32,-696,-1904,87,-13,12
3380,-24,-728,-1888,86,-11,13
3385,-40,-704,-1904,84,-11,13
3390,-32,-712,-1888,82,-10,13
3395,-40,-712,-1904,80,-9,13
3400,-56,-696,-1904,78,-9,13
3405,-32,-704,-1904,75,-7,13
3410,-32,-672,-1896,74,-8,13
3415,-32,-696,-1920,70,-8,13
3420,-56,-696,-1888,69,-7,12
3425,-32,-704,-1904,67,-6,12
3430,-40,-712,-1904,64,-5,11
3435,-32,-704,-1880,63,-5,10
3440,-32,-688,-1880,62,-6,7
3445,-32,-712,-1912,59,-6,6
3450,-40,-704,-1872,58,-5,4
3455,0,-728,-1912,58,-4,4
3460,-24,-704,-1920,57,-5,3
3465,-32,-712,-1912,56,-6,3
3470,-32,-704,-1912,56,-5,3
3475,-32,-720,-1912,57,-7,2
3480,-16,-728,-1904,58,-6,3
3485,-32,-736,-1904,57,-6,2
3490,-32,-704,-1920,59,-6,3
3495,-48,-704,-1928,60,-4,4
3500,-32,-728,-1888,61,-2,4
3505,-32,-728,-1896,62,-2,2
3510,-32,-712,-1888,62,-1,3
3515,-32,-728,-1896,61,0,4
3520,-24,-728,-1928,62,0,4
3525,-40,-688,-1896,63,0,4
3530,-32,-712,-1888,62,1,3
3535,-40,-712,-1936,62,1,4
3540,-32,-720,-1928,62,1,4
3545,-16,-736,-1880,62,2,3
3550,-32,-728,-1904,62,2,1
3555,-40,-736,-1896,62,2,1
3560,-64,-728,-1872,62,3,0
3565,-40,-728,-1928,62,3,0
3570,-16,-696,-1872,62,2,-1
3575,-32,-728,-1888,62,3,1
3580,-32,-744,-1920,62,3,1
3585,-32,-720,-1888,64,3,0
3590,-32,-720,-1880,64,2,2
3595,-48,-736,-1920,65,1,1
3600,-24,-712,-1912,65,0,0
3605,-32,-728,-1912,67,0,0
3610,-48,-704,-1888,66,-1,2
3615,-72,-704,-1880,67,0,1
3620,-32,-728,-1920,68,0,0
3625,-40,-720,-1912,69,1,0
3630,-40,-704,-1920,69,0,3
3635,-32,-728,-1936,69,1,2
3640,-32,-704,-1920,69,1,1
3645,-32,-712,-1912,69,1,1
3650,-32,-744,-1920,68,0,1
3655,-32,-728,-1904,68,1,0
3660,-32,-736,-1896,69,1,-1
3665,-32,-744,-1888,69,1,-2
3670,-48,-712,-1952,70,0,-1
3675,-48,-720,-1904,68,-1,-3
3680,-32,-704,-1920,68,-1,-4
3685,-24,-728,-1904,68,0,-5
3690,-40,-728,-1936,67,0,-5
3695,-32,-736,-1920,66,0,-7
3700,-32,-720,-1880,66,0,-5
3705,-32,-712,-1864,64,0,-5
3710,-24,-728,-1872,62,1,-3
3715,-24,-720,-1880,59,1,-2
3720,-24,-712,-1904,56,3,-2
3725,-16,-752,-1944,52,2,0
3730,-32,-704,-1904,51,2,0
3735,-32,-712,-1896,49,4,1
3740,-24,-720,-1896,47,3,0
3745,-32,-720,-1912,46,4,1
3750,-40,-704,-1912,46,4,3
3755,-24,-720,-1896,49,5,1
3760,-40,-696,-1920,52,4,1
3765,-40,-728,-1928,53,4,1
3770,-40,-696,-1904,58,3,3
3775,-32,-712,-1912,60,3,4
3780,-24,-704,-1928,62,3,6
3785,-24,-720,-1896,62,3,6
3790,-32,-728,-1888,61,2,6
3795,-32,-704,-1880,60,2,6
3800,-32,-688,-1920,59,2,7
3805,-48,-728,-1920,57,3,6
3810,-24,-720,-1912,55,4,5
3815,-48,-728,-1912,55,4,3
3820,-56,-712,-1920,55,2,3
3825,-32,-704,-1944,54,0,4
3830,-56,-720,-1920,55,1,3
3835,-40,-720,-1912,55,1,3
3840,-40,-688,-1920,57,-1,3
3845,-32,-720,-1888,56,-1,4
3850,-32,-728,-1920,53,-2,4
3855,-24,-712,-1912,49,-2,7
3860,-16,-712,-1904,44,-1,5
3865,-32,-688,-1936,38,-2,7
3870,-48,-704,-1896,33,-1,8
3875,-24,-728,-1896,27,-3,10
3880,-48,-704,-1904,23,-2,11
3885,0,-744,-1888,20,-2,9
3890,-40,-752,-1968,18,-2,7
3895,-40,-720,-1864,14,-3,5
3900,-32,-728,-1888,12,-2,4
3905,-40,-744,-1912,12,-3,5
3910,-24,-736,-1880,10,-2,7
3915,-32,-744,-1888,12,-2,6
3920,-32,-728,-1912,14,-2,7
3925,-56,-728,-1912,15,-3,5
3930,-72,-712,-1928,17,-6,3
3935,-56,-744,-1920,19,-7,4
3940,-64,-744,-1904,24,-9,5
3945,-80,-712,-1896,28,-9,2
3950,-48,-712,-1880,30,-11,2
3955,-32,-720,-1904,32,-13,2
3960,-40,-720,-1896,34,-14,2
3965,-40,-696,-1912,33,-15,1
3970,-48,-704,-1888,34,-15,1
3975,-48,-704,-1912,34,-17,2
3980,-32,-720,-1928,34,-18,2
3985,-40,-728,-1920,31,-20,4
3990,-40,-728,-1912,29,-20,5
3995,-56,-728,-1896,26,-23,4
4000,-32,-712,-1904,23,-22,7
4005,-32,-696,-1896,20,-24,8
4010,-64,-696,-1928,18,-25,6
4015,-64,-688,-1872,16,-26,6
4020,-40,-704,-1904,13,-27,6
4025,-80,-704,-1920,10,-26,5
4030,-40,-712,-1920,8,-28,7
4035,-88,-704,-1880,5,-29,6
4040,-72,-712,-1904,5,-27,4
4045,-96,-704,-1928,4,-27,7
4050,-80,-704,-1888,4,-27,8
4055,-56,-728,-1896,2,-28,7
4060,-56,-720,-1912,0,-27,8
4065,-64,-704,-1928,0,-27,8
4070,-88,-688,-1928,-2,-27,8
4075,-64,-712,-1880,-1,-28,7
4080,-48,-704,-1912,-1,-29,5
4085,-48,-696,-1872,0,-29,5
4090,-40,-704,-1928,0,-28,3
4095,-56,-696,-1904,1,-29,4
4100,-40,-720,-1896,0,-29,3
4105,-64,-712,-1928,-1,-30,4
4110,-64,-712,-1848,0,-29,4
4115,-56,-712,-1928,-1,-28,3
4120,-64,-680,-1928,0,-29,5
4125,-80,-704,-1928,0,-30,6
4130,-64,-696,-1912,1,-30,7
4135,-40,-696,-1896,1,-28,9
4140,-40,-712,-1904,1,-27,10
4145,-48,-728,-1896,1,-27,11
4150,-24,-720,-1912,1,-28,14
4155,-64,-704,-1880,0,-28,15
4160,-24,-712,-1904,0,-28,13
4165,-48,-720,-1896,1,-28,15
4170,-48,-712,-1936,1,-29,15
4175,-64,-704,-1928,1,-29,15
4180,-48,-704,-1952,0,-29,14
4185,-48,-696,-1896,0,-28,13
4190,-64,-704,-1928,1,-28,13
4195,-72,-696,-1912,1,-30,11
4200,-56,-696,-1904,3,-29,10
4205,-56,-672,-1904,5,-29,10
4210,-56,-704,-1872,3,-28,10
4215,-40,-672,-1968,4,-28,9
4220,-64,-696,-1928,5,-27,11
4225,-64,-688,-1896,5,-27,11
4230,-72,-704,-1936,7,-27,10
4235,-80,-704,-1912,9,-25,10
4240,-48,-704,-1912,9,-24,10
4245,-72,-704,-1904,13,-23,9
4250,-88,-696,-1912,15,-23,9
4255,-64,-680,-1920,17,-23,10
4260,-96,-712,-1928,20,-21,9
4265,-88,-680,-1928,21,-19,13
4270,-72,-704,-1920,22,-20,11
4275,-104,-680,-1920,21,-23,12
4280,-112,-688,-1920,19,-21,13
4285,-96,-688,-1912,17,-21,11
4290,-80,-688,-1888,16,-22,11
4295,-88,-680,-1912,17,-23,11
4300,-120,-696,-1920,18,-22,11
4305,-96,-688,-1928,17,-23,10
4310,-120,-680,-1936,16,-23,10
4315,-104,-688,-1944,16,-23,10
4320,-88,-696,-1936,17,-21,10
4325,-120,-736,-1928,18,-21,10
4330,-104,-712,-1936,18,-19,8
4335,-112,-680,-1944,18,-19,10
4340,-80,-720,-1920,19,-19,10
4345,-128,-680,-1936,19,-19,9
4350,-104,-696,-1904,20,-19,9
4355,-136,-648,-1944,19,-19,10
4360,-104,-696,-1904,21,-21,10
4365,-104,-672,-1880,20,-19,8
4370,-112,-688,-1936,20,-18,7
4375,-104,-712,-1936,19,-16,9
4380,-64,-672,-1944,21,-15,9
4385,-80,-688,-1960,20,-16,7
4390,-128,-656,-1952,21,-16,7
4395,-96,-680,-1936,24,-15,3
4400,-112,-672,-1928,25,-18,1
4405,-112,-672,-1944,30,-18,3
4410,-120,-672,-1928,33,-18,2
4415,-88,-656,-1928,37,-18,1
4420,-96,-664,-1936,40,-19,0
4425,-104,-664,-1952,45,-19,-2
4430,-88,-688,-1952,49,-20,-3
4435,-88,-656,-1984,53,-19,-5
4440,-104,-640,-1944,57,-19,-7
4445,-88,-656,-1920,62,-18,-9
4450,-136,-648,-1936,66,-19,-9
4455,-96,-664,-1928,69,-17,-10
4460,-88,-656,-1936,72,-17,-10
4465,-88,-664,-1936,75,-16,-14
4470,-104,-656,-1912,79,-15,-15
4475,-112,-664,-1944,82,-14,-16
4480,-88,-696,-1920,85,-13,-15
4485,-88,-680,-1904,85,-14,-16
4490,-72,-696,-1912,89,-12,-14
4495,-128,-648,-1904,91,-11,-14
4500,-112,-648,-1928,95,-11,-11
4505,-104,-664,-1920,96,-10,-10
4510,-104,-656,-1920,96,-7,-10
4515,-112,-640,-1912,96,-5,-8
4520,-104,-664,-1904,94,-3,-5
4525,-120,-672,-1912,93,-3,-4
4530,-128,-656,-1904,91,-1,-3
4535,-112,-640,-1864,88,-1,-1
4540,-136,-648,-1872,84,-1,-1
4545,-96,-624,-1912,81,0,-2
4550,-72,-664,-1936,80,-2,1
4555,-128,-656,-1904,79,-3,-1
4560,-120,-656,-1944,79,-1,-2
4565,-128,-672,-1920,79,-1,-2
4570,-96,-672,-1896,81,-3,-1
4575,-136,-672,-1920,83,-3,-2
4580,-128,-656,-1920,85,-4,-2
4585,-144,-664,-1896,87,-4,-4
4590,-120,-640,-1928,89,-5,-4
4595,-112,-688,-1936,90,-6,-6
4600,-104,-680,-1928,91,-5,-5
4605,-112,-680,-1928,93,-4,-5
4610,-104,-688,-1928,95,-3,-5
4615,-96,-656,-1920,97,-4,-5
4620,-112,-680,-1928,98,-3,-6
4625,-104,-680,-1920,100,-3,-5
4630,-96,-648,-1952,102,-2,-5
4635,-104,-704,-1928,103,0,-5
4640,-104,-680,-1928,106,0,-4
4645,-104,-672,-1904,107,2,-5
4650,-88,-704,-1936,111,2,-2
4655,-136,-688,-1936,112,3,-2
4660,-120,-688,-1888,112,5,0
4665,-128,-688,-1936,114,8,0
4670,-104,-664,-1920,115,9,1
4675,-104,-712,-1912,115,10,1
4680,-104,-696,-1904,115,10,0
4685,-112,-696,-1936,116,11,1
4690,-152,-680,-1904,117,14,1
4695,-104,-704,-1928,118,14,2
4700,-112,-688,-1872,120,16,1
4705,-120,-696,-1864,121,15,1
4710,-96,-704,-1888,123,17,2
4715,-112,-696,-1904,124,17,-2
4720,-120,-712,-1904,126,18,-1
4725,-112,-712,-1896,129,19,-4
4730,-112,-720,-1920,130,19,-4
4735,-104,-720,-1920,132,21,-3
4740,-120,-736,-1904,135,22,-3
4745,-128,-704,-1912,136,23,-2
4750,-136,-736,-1920,137,24,0
4755,-144,-712,-1904,139,25,-2
4760,-112,-736,-1912,140,26,-1
4765,-120,-720,-1912,140,27,0
4770,-120,-720,-1864,140,27,0
4775,-120,-736,-1904,140,27,-2
4780,-96,-736,-1912,141,29,-1
4785,-104,-744,-1896,143,30,-1
4790,-128,-696,-1888,145,31,-2
4795,-128,-728,-1880,145,33,-2
4800,-120,-736,-1904,145,33,-4
4805,-120,-728,-1912,147,35,-3
4810,-112,-704,-1912,150,36,-5
4815,-112,-720,-1960,152,38,-6
4820,-112,-744,-1928,154,41,-5
4825,-72,-752,-1896,157,44,-6
4830,-120,-736,-1880,161,46,-7
4835,-120,-728,-1896,164,49,-6
4840,-96,-736,-1896,167,51,-7
4845,-88,-768,-1888,172,53,-6
4850,-80,-752,-1936,176,57,-6
4855,-104,-744,-1920,180,57,-7
4860,-128,-760,-1872,184,58,-7
4865,-96,-760,-1912,188,60,-7
4870,-136,-776,-1896,192,62,-8
4875,-112,-752,-1896,197,63,-9
4880,-112,-752,-1928,204,64,-9
4885,-88,-752,-1904,210,64,-10
4890,-96,-760,-1912,215,64,-12
4895,-112,-760,-1904,217,65,-11
4900,-120,-752,-1872,219,64,-14
4905,-104,-760,-1872,224,65,-13
4910,-152,-752,-1888,227,64,-13
4915,-96,-768,-1920,231,63,-14
4920,-136,-760,-1896,235,62,-16
4925,-144,-760,-1864,238,61,-16
4930,-120,-808,-1904,241,59,-17
4935,-104,-776,-1880,242,58,-17
4940,-144,-760,-1872,246,58,-18
4945,-152,-792,-1896,248,58,-20
4950,-136,-776,-1912,250,56,-23
4955,-144,-768,-1880,253,55,-24
4960,-136,-808,-1888,256,54,-25
4965,-112,-784,-1872,258,54,-26
4970,-120,-784,-1856,260,55,-27
4975,-96,-816,-1872,265,56,-27
4980,-56,-808,-1872,269,57,-27
4985,-120,-792,-1904,273,57,-30
4990,-80,-824,-1896,277,60,-30
4995,-96,-816,-1880,282,62,-31
5000,-96,-808,-1888,283,63,-33
5005,-80,-832,-1888,287,65,-34
5010,-96,-824,-1896,292,65,-35
5015,-88,-832,-1864,297,68,-34
5020,-88,-832,-1888,303,69,-35
5025,-88,-832,-1864,308,70,-35
5030,-88,-800,-1864,316,71,-35
5035,-80,-808,-1896,325,73,-34
5040,-88,-816,-1856,334,74,-35
5045,-96,-776,-1880,345,76,-35
5050,-88,-808,-1896,353,76,-35
5055,-56,-824,-1888,362,77,-38
5060,-56,-824,-1880,372,78,-39
5065,-48,-832,-1864,379,78,-41
5070,-104,-824,-1848,386,78,-41
5075,-56,-848,-1912,390,78,-42
5080,-72,-832,-1856,393,78,-44
5085,-64,-832,-1856,397,78,-48
5090,-40,-816,-1904,402,79,-50
5095,-96,-840,-1872,406,79,-49
5100,-80,-840,-1840,408,81,-52
5105,-80,-864,-1872,412,82,-55
5110,-80,-832,-1872,415,81,-54
5115,-64,-880,-1864,421,82,-55
5120,-48,-864,-1872,426,81,-58
5125,-96,-888,-1872,431,78,-57
5130,-64,-872,-1840,436,79,-58
5135,-80,-888,-1888,442,78,-58
5140,-64,-872,-1840,449,78,-56
5145,-112,-896,-1840,453,77,-54
5150,-80,-896,-1856,457,77,-52
5155,-64,-872,-1840,461,77,-52
5160,-64,-920,-1840,463,79,-53
5165,-64,-896,-1800,467,81,-51
5170,-40,-928,-1816,470,82,-52
5175,-48,-936,-1856,476,83,-53
5180,-32,-936,-1816,483,85,-51
5185,-32,-952,-1832,488,87,-54
5190,-56,-968,-1832,497,88,-53
5195,-64,-944,-1848,504,88,-54
5200,-56,-960,-1824,512,86,-54
5205,-48,-968,-1808,521,86,-54
5210,-32,-992,-1824,532,86,-57
5215,-72,-1000,-1808,542,86,-55
5220,-40,-992,-1792,555,89,-56
5225,-88,-968,-1784,566,92,-53
5230,-48,-1008,-1816,577,93,-52
5235,-88,-1000,-1816,587,96,-52
5240,-72,-1016,-1792,600,97,-51
5245,-48,-992,-1832,611,98,-51
5250,-64,-1024,-1816,622,99,-53
5255,-56,-1032,-1792,633,98,-53
5260,-32,-1040,-1800,642,95,-53
5265,-64,-1048,-1824,655,93,-53
5270,-80,-1040,-1792,667,91,-53
5275,-56,-1048,-1776,679,91,-57
5280,-56,-1048,-1768,690,87,-59
5285,-48,-1056,-1768,703,85,-57
5290,-32,-1056,-1752,715,83,-57
5295,-24,-1072,-1768,728,83,-59
5300,-72,-1048,-1760,739,80,-60
5305,-80,-1056,-1752,752,80,-62
5310,-32,-1072,-1704,763,79,-63
5315,-56,-1104,-1728,775,78,-67
5320,-48,-1112,-1728,786,78,-70
5325,-32,-1128,-1728,799,77,-74
5330,-48,-1120,-1712,811,77,-77
5335,-40,-1160,-1712,825,77,-82
5340,-32,-1144,-1728,841,77,-84
5345,-40,-1168,-1728,860,75,-86
5350,-56,-1176,-1720,881,74,-89
5355,-48,-1176,-1664,903,73,-91
5360,-64,-1192,-1736,930,75,-95
5365,-32,-1240,-1680,961,74,-97
5370,-64,-1232,-1664,993,74,-97
5375,-56,-1264,-1680,1029,74,-95
5380,-32,-1320,-1624,1075,74,-92
5385,-32,-1376,-1632,1129,73,-88
5390,-40,-1376,-1592,1193,74,-82
5395,-24,-1368,-1640,1251,75,-78
5400,0,-1392,-1608,1306,74,-78
5405,-8,-1384,-1608,1370,70,-76
5410,0,-1352,-1592,1443,62,-80
5415,0,-1376,-1552,1519,54,-80
5420,24,-1368,-1560,1582,49,-78
5425,0,-1440,-1600,1645,42,-77
5430,0,-1464,-1528,1715,32,-70
5435,0,-1560,-1520,1798,22,-60
5440,-8,-1544,-1536,1892,7,-52
5445,-8,-1536,-1560,1989,-5,-47
5450,16,-1480,-1640,2066,-21,-48
5455,32,-1472,-1648,2118,-39,-46
5460,-24,-1432,-1640,2154,-60,-48
5465,0,-1408,-1664,2177,-75,-48
5470,16,-1400,-1616,2195,-86,-49
5475,-32,-1448,-1592,2208,-89,-49
5480,0,-1488,-1576,2218,-86,-45
5485,-16,-1472,-1528,2228,-77,-47
5490,0,-1424,-1552,2231,-70,-54
5495,-8,-1416,-1496,2219,-61,-65
5500,-8,-1448,-1464,2195,-48,-73
5505,-24,-1416,-1448,2159,-31,-81
5510,8,-1424,-1352,2118,-14,-92
5515,-32,-1472,-1328,2078,0,-106
5520,-24,-1472,-1256,2038,17,-112
5525,-48,-1496,-1224,2002,39,-116
5530,-48,-1496,-1280,1959,63,-122
5535,-56,-1504,-1256,1914,90,-127
5540,-56,-1528,-1224,1861,116,-132
5545,-32,-1528,-1208,1807,139,-136
5550,-72,-1536,-1216,1760,151,-144
5555,-72,-1560,-1208,1721,159,-153
5560,-72,-1552,-1216,1683,163,-163
5565,-72,-1608,-1192,1649,166,-169
5570,-72,-1624,-1176,1625,169,-184
5575,-48,-1632,-1184,1613,170,-201
5580,-80,-1656,-1168,1604,168,-216
5585,-64,-1616,-1152,1598,149,-232
5590,-32,-1648,-1144,1591,125,-247
5595,-56,-1640,-1080,1580,112,-256
5600,-24,-1632,-1088,1570,97,-263
5605,0,-1640,-1048,1554,88,-265
5610,-16,-1680,-1016,1539,82,-267
5615,24,-1696,-992,1522,72,-259
5620,72,-1728,-960,1497,63,-251
5625,56,-1712,-928,1478,56,-247
5630,80,-1744,-872,1456,51,-246
5635,40,-1728,-928,1445,44,-248
5640,88,-1744,-856,1428,36,-245
5645,88,-1768,-872,1411,29,-245
5650,96,-1784,-864,1392,25,-244
5655,128,-1808,-832,1370,30,-239
5660,72,-1856,-840,1362,43,-239
5665,64,-1848,-888,1360,53,-227
5670,40,-1824,-920,1362,65,-216
5675,-16,-1800,-920,1355,76,-203
5680,-24,-1832,-872,1337,85,-190
5685,24,-1792,-848,1320,89,-177
5690,-24,-1808,-816,1305,90,-164
5695,-16,-1840,-792,1298,88,-157
5700,24,-1856,-704,1302,88,-155
5705,0,-1904,-672,1310,89,-156
5710,24,-1920,-656,1325,90,-157
5715,24,-1888,-632,1336,99,-160
5720,48,-1864,-640,1343,106,-166
5725,64,-1808,-656,1340,113,-172
5730,64,-1816,-672,1329,115,-182
5735,72,-1816,-616,1312,115,-191
5740,64,-1784,-568,1298,115,-203
5745,72,-1832,-496,1289,114,-211
5750,48,-1816,-504,1291,117,-212
5755,72,-1840,-504,1289,120,-212
5760,64,-1856,-424,1287,126,-212
5765,64,-1864,-416,1291,132,-216
5770,112,-1896,-424,1298,132,-214
5775,88,-1896,-432,1292,136,-205
5780,120,-1872,-424,1273,138,-203
5785,104,-1872,-424,1250,143,-200
5790,160,-1880,-400,1235,148,-196
5795,144,-1968,-376,1229,150,-193
5800,176,-1936,-328,1232,153,-197
5805,200,-1960,-352,1237,159,-197
5810,200,-1968,-392,1238,169,-198
5815,184,-1960,-312,1238,184,-201
5820,176,-1952,-344,1242,198,-199
5825,176,-1984,-288,1248,207,-201
5830,152,-1976,-272,1260,217,-199
5835,160,-1944,-312,1275,230,-200
5840,128,-1968,-248,1290,243,-203
5845,144,-1992,-208,1308,251,-204
5850,160,-1944,-112,1324,251,-208
5855,216,-1984,-64,1339,251,-210
5860,232,-2032,0,1363,242,-212
5865,240,-2064,56,1400,232,-215
5870,248,-2064,16,1438,216,-220
5875,200,-2064,32,1464,205,-218
5880,192,-2088,8,1485,193,-223
5885,168,-2088,-16,1506,180,-229
5890,144,-2040,-64,1511,165,-214
5895,96,-1976,-64,1503,152,-205
5900,56,-1896,-112,1493,142,-196
5905,48,-1816,-232,1490,134,-186
5910,48,-1760,-224,1481,133,-176
5915,80,-1696,-232,1469,140,-172
5920,56,-1648,-208,1458,150,-174
5925,96,-1608,-168,1452,157,-178
5930,128,-1648,-72,1447,153,-183
5935,80,-1624,-32,1439,148,-189
5940,120,-1664,-48,1422,144,-193
5945,120,-1616,0,1392,144,-197
5950,144,-1688,112,1354,142,-199
5955,144,-1624,176,1318,144,-200
5960,200,-1624,96,1280,145,-199
5965,184,-1688,264,1234,142,-195
5970,200,-1728,224,1194,133,-195
5975,160,-1792,200,1152,129,-191
5980,160,-1816,224,1111,125,-193
5985,176,-1864,96,1068,127,-189
5990,176,-1920,120,1031,128,-182
5995,144,-1920,112,1014,127,-179
6000,144,-1968,160,1017,120,-178
6005,208,-1992,72,1029,101,-186
6010,216,-2008,48,1042,84,-195
6015,160,-2000,80,1059,73,-203
6020,176,-1912,64,1078,72,-202
6025,200,-1896,88,1097,78,-194
6030,216,-1880,24,1109,88,-194
6035,224,-1816,64,1110,101,-192
6040,232,-1792,144,1115,109,-190
6045,264,-1792,176,1125,114,-192
6050,280,-1720,216,1132,114,-200
6055,280,-1712,232,1124,117,-208
6060,288,-1680,256,1109,119,-214
6065,320,-1672,336,1090,124,-216
6070,328,-1696,352,1072,128,-216
6075,328,-1736,368,1055,132,-216
6080,328,-1792,392,1050,138,-208
6085,320,-1800,352,1055,142,-202
6090,320,-1808,288,1063,144,-193
6095,328,-1816,288,1066,144,-188
6100,280,-1832,264,1078,148,-180
6105,288,-1808,264,1100,153,-170
6110,256,-1800,248,1134,158,-160
6115,256,-1752,312,1178,163,-149
6120,232,-1720,416,1226,162,-141
6125,248,-1664,376,1271,154,-138
6130,224,-1664,416,1308,144,-134
6135,264,-1656,472,1333,138,-133
6140,304,-1640,496,1348,135,-128
6145,304,-1656,552,1351,136,-120
6150,328,-1680,568,1345,143,-108
6155,280,-1608,488,1337,155,-89
6160,320,-1560,504,1326,169,-67
6165,288,-1552,488,1314,178,-47
6170,296,-1536,488,1311,180,-26
6175,288,-1528,448,1317,179,-16
6180,256,-1488,368,1323,171,-12
6185,256,-1416,384,1326,165,-12
6190,216,-1448,400,1332,165,-10
6195,184,-1448,448,1346,174,-3
6200,152,-1448,480,1377,184,0
6205,160,-1448,480,1415,195,3
6210,136,-1456,504,1451,205,5
6215,136,-1472,608,1485,214,1
6220,96,-1552,672,1520,226,-8
6225,104,-1584,712,1564,243,-25
6230,72,-1592,664,1613,266,-43
6235,80,-1528,656,1654,273,-65
6240,16,-1456,560,1674,263,-91
6245,-16,-1392,520,1672,250,-117
6250,-8,-1368,472,1673,233,-142
6255,0,-1296,408,1687,212,-166
6260,8,-1256,336,1708,187,-185
6265,-32,-1080,248,1723,162,-203
6270,16,-1000,232,1727,136,-217
6275,56,-920,232,1734,113,-230
6280,112,-880,248,1753,103,-237
6285,120,-720,240,1782,100,-236
6290,160,-720,304,1819,107,-232
6295,208,-656,376,1849,129,-218
6300,248,-600,440,1880,161,-196
6305,256,-624,488,1910,200,-165
6310,264,-576,512,1931,237,-138
6315,232,-464,488,1930,265,-109
6320,208,-272,424,1898,290,-74
6325,184,-184,408,1832,310,-36
6330,128,-24,384,1762,319,-1
6335,88,88,312,1698,321,29
6340,-8,232,192,1642,318,55
6345,-32,416,152,1579,309,85
6350,-32,464,160,1514,305,117
6355,-32,528,192,1459,292,144
6360,-32,520,240,1433,279,160
6365,-24,536,248,1427,272,165
6370,-8,504,272,1425,273,164
6375,8,464,280,1424,282,160
6380,32,464,248,1423,301,156
6385,96,440,248,1405,328,162
6390,200,400,272,1370,352,171
6395,160,352,240,1331,362,174
6400,232,336,208,1281,362,175
6405,200,296,184,1217,357,173
6410,216,280,144,1148,341,164
6415,152,248,72,1084,321,149
6420,104,184,144,1028,309,141
6425,64,72,136,990,296,148
6430,-24,48,80,968,281,157
6435,-24,-8,48,940,268,167
6440,8,-96,72,901,261,169
6445,-16,-168,40,859,255,164
6450,16,-280,32,829,247,154
6455,-40,-280,32,805,242,147
6460,32,-296,80,798,235,138
6465,112,-320,72,812,235,127
6470,168,-408,112,825,244,118
6475,808,-608,440,856,259,89
6480,440,-488,504,934,349,8
6485,176,-704,784,921,378,0
6490,88,-928,1048,879,353,-19
6495,40,-1120,1360,836,292,-114
6500,-696,-1336,1736,766,198,-238
6505,-472,-1600,2056,675,39,-330
6510,168,-1656,2224,586,-63,-485
6515,208,-1776,2424,473,-23,-615
6520,-1472,-2080,3296,262,13,-635
6525,-1584,-2616,4216,58,-149,-662
6530,256,-2976,5176,-79,-308,-930
6535,1288,-3168,6008,-143,-64,-1223
6540,2136,-3616,6832,-263,418,-1299
6545,1696,-4600,6888,-515,1055,-1233
6550,688,-4584,7664,-1177,1465,-975
6555,104,-4096,9552,-2180,1454,-573
6560,464,-3728,10824,-2906,1197,-265
6565,1096,-2928,12160,-3628,830,-63
6570,944,-1624,12984,-4132,533,215
6575,584,-624,11472,-4077,416,497
6580,184,-352,9968,-4053,209,583
6585,-192,-1888,8240,-4210,-102,527
6590,-24,-4144,6144,-4049,-175,375
6595,232,-5296,3640,-3557,-99,161
6600,424,-5400,1264,-3132,-26,-16
6605,560,-5112,-152,-2897,109,-100
6610,576,-4640,-1544,-2883,315,-69
6615,656,-4184,-2240,-2925,534,65
6620,752,-3808,-2144,-2839,722,236
6625,800,-3464,-1912,-2448,825,347
6630,976,-3072,-1192,-1731,855,348
6635,960,-2704,-416,-768,839,284
6640,928,-2240,224,305,733,188
6645,728,-1704,752,1366,652,138
6650,584,-1336,1120,2405,628,121
6655,496,-976,1664,2986,664,124
6660,392,-824,2024,3292,749,145
6665,488,-888,2304,3379,776,166
6670,448,-904,2192,3309,669,134
6675,304,-1032,1840,3103,507,59
6680,80,-1064,1560,2796,393,-2
6685,-96,-1072,1312,2442,378,-42
6690,-280,-1016,1152,2067,454,-73
6695,-368,-920,1024,1688,582,-99
6700,-432,-800,920,1343,710,-120
6705,-552,-640,832,1074,803,-134
6710,-560,-520,816,877,861,-149
6715,-600,-344,872,745,889,-168
6720,-576,-280,928,664,898,-191
6725,-528,-240,1024,634,899,-218
6730,-400,-296,1128,648,903,-248
6735,-304,-312,1184,685,915,-284
6740,-288,-352,1248,719,935,-325
6745,-216,-464,1304,745,951,-369
6750,-192,-496,1320,755,963,-414
6755,-240,-520,1296,747,970,-454
6760,-184,-528,1368,721,965,-488
6765,-224,-520,1392,675,957,-505
6770,-240,-472,1464,610,938,-509
6775,-176,-432,1448,529,913,-496
6780,-160,-456,1456,435,884,-468
6785,-104,-496,1472,337,854,-427
6790,8,-544,1504,238,831,-379
6795,72,-648,1576,140,811,-331
6800,144,-760,1616,57,795,-285
6805,224,-928,1680,-11,783,-242
6810,280,-960,1704,-60,773,-211
6815,320,-1008,1696,-96,767,-185
6820,312,-1024,1696,-119,764,-162
6825,336,-1016,1576,-140,765,-139
6830,368,-976,1528,-167,764,-114
6835,368,-896,1448,-202,758,-83
6840,304,-856,1360,-232,752,-55
6845,256,-760,1232,-244,748,-26
6850,240,-664,1216,-230,752,-5
6855,200,-616,1240,-193,769,15
6860,136,-520,1264,-134,793,29
6865,112,-496,1344,-63,822,43
6870,-32,-456,1424,5,854,56
6875,-168,-496,1552,53,893,70
6880,-200,-512,1616,74,930,83
6885,-376,-544,1656,71,966,97
6890,-480,-632,1768,46,997,109
6895,-616,-704,1848,8,1026,122
6900,-664,-776,1920,-35,1041,130
6905,-688,-872,1920,-85,1051,140
6910,-720,-992,1976,-130,1051,140
6915,-680,-1080,2032,-162,1045,134
6920,-640,-1160,2016,-192,1030,119
6925,-640,-1216,1992,-220,995,99
6930,-664,-1240,1912,-247,944,73
6935,-680,-1280,1808,-271,883,50
6940,-672,-1248,1752,-294,816,26
6945,-720,-1216,1632,-314,748,8
6950,-736,-1184,1584,-333,684,-8
6955,-728,-1152,1496,-342,623,-15
6960,-736,-1088,1472,-343,566,-14
6965,-752,-1072,1480,-335,519,-8
6970,-736,-1088,1472,-325,480,2
6975,-728,-1120,1496,-316,450,9
6980,-760,-1120,1528,-313,425,18
6985,-760,-1104,1512,-313,407,25
6990,-760,-1104,1560,-313,385,35
6995,-768,-1096,1568,-315,360,42
7000,-760,-1112,1624,-320,332,49
7005,-744,-1136,1648,-333,299,55
7010,-736,-1152,1632,-361,266,60
7015,-688,-1184,1640,-402,228,61
7020,-664,-1240,1608,-449,183,59
7025,-656,-1248,1576,-494,130,56
7030,-656,-1240,1488,-530,74,54
7035,-600,-1240,1560,-555,14,50
7040,-632,-1224,1480,-568,-50,46
7045,-640,-1248,1472,-567,-125,41
7050,-632,-1320,1456,-552,-184,36
7055,-592,-1312,1440,-529,-243,35
7060,-600,-1288,1424,-512,-299,30
7065,-576,-1368,1432,-493,-357,22
7070,-552,-1464,1448,-472,-413,9
7075,-544,-1528,1464,-451,-461,-2
7080,-512,-1608,1456,-429,-509,-12
7085,-504,-1640,1448,-417,-557,-28
7090,-504,-1592,1392,-412,-607,-45
7095,-480,-1536,1312,-412,-662,-59
7100,-496,-1440,1192,-411,-709,-62
7105,-472,-1440,1176,-403,-739,-59
7110,-456,-1392,1152,-388,-752,-53
7115,-448,-1360,1136,-357,-747,-38
7120,-408,-1352,1088,-308,-722,-13
7125,-440,-1360,1152,-246,-686,4
7130,-384,-1368,1216,-160,-656,-7
7135,-256,-1360,1216,-64,-635,-54
7140,-224,-1392,1256,9,-588,-59
7145,-256,-1440,1272,51,-505,4
7150,-296,-1408,1296,64,-409,68
7155,-328,-1408,1288,70,-327,103
7160,-288,-1464,1304,75,-261,109
7165,-296,-1512,1312,87,-207,99
7170,-280,-1496,1296,104,-173,79
7175,-280,-1464,1296,115,-142,59
7180,-240,-1408,1256,122,-115,46
7185,-224,-1384,1248,115,-95,35
7190,-184,-1336,1152,100,-81,29
7195,-152,-1288,1168,81,-62,34
7200,-128,-1224,1208,66,-40,43
7205,-64,-1280,1160,52,-14,50
7210,-72,-1216,1208,45,13,59
7215,-32,-1280,1256,48,43,69
7220,-24,-1304,1272,62,70,80
7225,-16,-1344,1320,74,96,78
7230,8,-1376,1352,83,128,77
7235,24,-1440,1384,91,159,77
7240,-8,-1424,1352,84,180,74
7245,-32,-1456,1368,65,200,87
7250,-64,-1512,1360,34,217,96
7255,-72,-1544,1344,-4,237,103
7260,-80,-1536,1280,-36,255,105
7265,-136,-1536,1224,-64,277,113
7270,-152,-1544,1184,-84,302,125
7275,-208,-1528,1080,-98,323,138
7280,-232,-1496,1000,-99,345,151
7285,-272,-1504,992,-94,365,160
7290,-280,-1496,976,-76,383,162
7295,-352,-1504,968,-41,403,160
7300,-344,-1504,1000,12,420,159
7305,-384,-1496,992,70,432,153
7310,-384,-1504,1088,127,444,151
7315,-424,-1504,1072,185,452,152
7320,-440,-1480,1184,243,456,127
7325,-448,-1504,1208,282,455,115
7330,-512,-1504,1272,313,455,99
7335,-504,-1512,1328,334,456,82
7340,-528,-1528,1376,322,464,90
7345,-528,-1560,1408,302,475,101
7350,-576,-1528,1392,281,480,100
7355,-576,-1536,1344,254,480,97
7360,-624,-1504,1280,217,475,97
7365,-664,-1472,1216,183,469,104
7370,-696,-1432,1136,146,459,108
7375,-728,-1440,1128,111,447,110
7380,-768,-1440,1056,90,431,112
7385,-808,-1384,1048,88,407,117
7390,-808,-1392,1072,100,381,121
7395,-832,-1416,1088,132,355,135
7400,-856,-1416,1128,186,327,147
7405,-872,-1408,1168,244,295,145
7410,-880,-1416,1184,308,261,140
7415,-872,-1368,1192,370,231,134
7420,-832,-1400,1248,424,202,133
7425,-856,-1408,1232,466,170,133
7430,-840,-1416,1232,490,144,134
7435,-824,-1360,1232,480,121,116
7440,-800,-1376,1192,453,110,87
7445,-752,-1392,1248,383,106,101
7450,-752,-1424,1264,309,101,115
7455,-712,-1448,1264,249,90,112
7460,-688,-1448,1264,192,75,90
7465,-664,-1440,1232,141,60,71
7470,-624,-1416,1320,114,49,53
7475,-592,-1424,1312,92,47,36
7480,-560,-1408,1272,74,52,19
7485,-512,-1336,1320,57,61,12
7490,-432,-1328,1352,38,67,11
7495,-424,-1296,1416,20,73,10
7500,-352,-1288,1440,2,78,7
7505,-376,-1216,1408,-13,91,-4
7510,-368,-1240,1400,-25,112,2
7515,-336,-1216,1328,-47,141,27
7520,-368,-1248,1336,-63,163,55
7525,-472,-1184,1280,-48,166,97
7530,-664,-1136,1208,8,134,143
7535,-968,-1336,1344,101,63,161
7540,-824,-1248,1184,291,-87,39
7545,-568,-1160,1072,467,-219,-95
7550,-384,-1232,1056,492,-218,-95
7555,-568,-1456,1256,410,-134,-36
7560,-656,-1576,1256,372,-72,-44
7565,-600,-1672,1232,355,-42,-30
7570,-552,-1752,1216,364,-23,-26
7575,-488,-1696,1192,390,-15,-48
7580,-560,-1640,1160,415,-11,-97
7585,-488,-1536,1176,423,-9,-151
7590,-400,-1472,1264,408,3,-207
7595,-544,-1344,1168,375,20,-276
7600,-480,-1256,1232,328,37,-308
7605,-416,-1192,1312,269,54,-306
7610,-352,-1144,1296,217,76,-299
7615,-320,-1136,1344,169,114,-281
7620,-312,-1112,1400,135,153,-257
7625,-296,-1160,1408,134,187,-238
7630,-336,-1184,1424,165,205,-233
7635,-368,-1240,1408,209,210,-223
7640,-272,-1224,1376,263,199,-211
7645,-464,-1328,1304,332,187,-248
7650,-568,-1352,1320,361,176,-205
7655,-592,-1384,1288,379,150,-159
7660,-632,-1424,1280,392,126,-126
7665,-728,-1464,1264,395,119,-101
7670,-680,-1432,1280,400,106,-101
7675,-704,-1480,1288,412,98,-124
7680,-712,-1480,1280,402,94,-104
7685,-720,-1424,1312,393,86,-92
7690,-672,-1424,1344,394,80,-91
7695,-640,-1360,1336,406,79,-101
7700,-600,-1352,1320,434,73,-137
7705,-576,-1312,1352,463,84,-146
7710,-520,-1320,1328,475,98,-145
7715,-560,-1240,1360,482,112,-152
7720,-712,-1184,1376,497,112,-151
7725,-512,-1184,1400,545,108,-184
7730,-488,-1184,1408,562,114,-152
7735,-472,-1152,1440,571,114,-120
7740,-368,-1160,1424,580,114,-93
7745,-432,-1152,1424,599,125,-122
7750,-496,-1144,1456,602,145,-134
7755,-464,-1128,1472,581,158,-95
7760,-392,-1096,1472,561,169,-63
7765,-512,-1136,1400,553,176,-81
7770,-520,-1128,1416,536,181,-71
7775,-536,-1184,1440,505,188,-24
7780,-568,-1160,1424,473,192,5
7785,-600,-1160,1408,442,194,20
7790,-560,-1104,1448,420,199,30
7795,-672,-1128,1432,431,205,-19
7800,-680,-1072,1448,436,219,-20
7805,-616,-1104,1488,433,235,44
7810,-672,-1112,1480,426,248,73
7815,-664,-1104,1472,426,258,79
7820,-632,-1064,1536,437,265,77
7825,-752,-1064,1544,481,265,27
7830,-712,-1096,1504,512,267,61
7835,-616,-1056,1560,525,274,114
7840,-656,-1040,1584,534,281,137
7845,-648,-1080,1560,557,278,150
7850,-632,-1016,1656,580,266,107
7855,-680,-1040,1608,614,250,24
7860,-664,-1056,1568,610,226,24
7865,-600,-992,1592,587,205,31
7870,-616,-960,1600,557,184,40
7875,-608,-1000,1576,530,154,34
7880,-640,-928,1568,489,124,-5
7885,-664,-920,1544,444,92,-62
7890,-640,-896,1568,390,67,-86
7895,-672,-904,1496,335,48,-89
7900,-576,-920,1544,288,31,-91
7905,-552,-912,1488,256,15,-102
7910,-560,-920,1488,230,5,-110
7915,-576,-960,1448,210,0,-121
7920,-552,-1024,1504,197,-8,-131
7925,-552,-1016,1552,210,-12,-184
7930,-528,-1080,1512,234,-21,-218
7935,-544,-1112,1552,229,-26,-179
7940,-480,-1144,1568,230,-26,-150
7945,-472,-1152,1568,232,-24,-128
7950,-480,-1208,1592,249,-19,-132
7955,-472,-1216,1576,267,-14,-126
7960,-512,-1176,1576,282,-7,-105
7965,-488,-1152,1544,292,3,-86
7970,-488,-1200,1560,300,9,-67
7975,-528,-1128,1552,300,19,-54
7980,-520,-1152,1576,299,23,-46
7985,-528,-1120,1504,292,29,-34
7990,-512,-1080,1480,274,32,-22
7995,-480,-1024,1464,245,33,-17
8000,-496,-896,1400,212,28,-22
8005,-512,-792,1416,175,19,-34
8010,-504,-760,1424,138,6,-43
8015,-560,-768,1448,95,-8,-47
8020,-624,-808,1480,54,-31,-50
8025,-696,-888,1448,25,-62,-52
8030,-728,-936,1440,7,-93,-49
8035,-680,-952,1416,-17,-111,-57
8040,-608,-1024,1400,-43,-116,-64
8045,-544,-1112,1456,-63,-118,-77
8050,-496,-1112,1456,-71,-119,-89
8055,-416,-1176,1488,-65,-118,-99
8060,-368,-1224,1552,-43,-111,-105
8065,-328,-1192,1592,-5,-100,-111
8070,-288,-1216,1672,39,-86,-118
8075,-288,-1208,1712,82,-75,-118
8080,-312,-1184,1648,128,-69,-119
8085,-336,-1224,1640,155,-68,-125
8090,-400,-1200,1632,167,-71,-129
8095,-376,-1200,1584,164,-81,-128
8100,-440,-1160,1552,146,-88,-121
8105,-440,-1168,1488,119,-92,-110
8110,-456,-1176,1520,89,-87,-96
8115,-440,-1160,1488,60,-70,-76
8120,-496,-1168,1504,34,-43,-55
8125,-472,-1152,1496,14,-8,-34
8130,-464,-1128,1440,3,34,-15
8135,-472,-1112,1552,-3,76,2
8140,-480,-1104,1560,-2,117,15
8145,-480,-1048,1576,-1,151,25
8150,-480,-1024,1616,6,179,35
8155,-472,-1032,1568,11,199,42
8160,-480,-1016,1536,13,210,47
8165,-504,-992,1544,13,211,52
8170,-504,-968,1520,13,208,54
8175,-512,-960,1480,10,201,55
8180,-488,-976,1488,5,192,56
8185,-552,-936,1464,-3,182,53
8190,-536,-936,1480,-13,173,52
8195,-552,-936,1464,-21,161,50
8200,-544,-928,1456,-33,147,47
8205,-544,-976,1440,-52,127,41
8210,-576,-968,1464,-74,110,37
8215,-560,-1016,1448,-87,94,30
8220,-568,-1000,1408,-90,79,25
8225,-608,-976,1480,-85,61,21
8230,-584,-992,1448,-74,43,17
8235,-632,-976,1464,-65,28,13
8240,-664,-1032,1512,-59,13,10
8245,-624,-1064,1472,-55,-4,3
8250,-624,-1080,1472,-52,-20,-4
8255,-616,-1072,1480,-51,-36,-11
8260,-616,-1080,1496,-45,-46,-19
8265,-632,-1104,1512,-38,-56,-28
8270,-608,-1072,1520,-23,-64,-36
8275,-600,-1072,1552,-10,-68,-45
8280,-616,-1064,1544,-1,-74,-53
8285,-600,-1080,1600,6,-76,-58
8290,-632,-1056,1584,18,-71,-62
8295,-672,-1080,1560,25,-63,-63
8300,-632,-1080,1608,33,-57,-64
8305,-648,-1080,1624,38,-48,-62
8310,-616,-1088,1624,39,-36,-59
8315,-632,-1072,1600,43,-20,-51
8320,-584,-1088,1616,51,-4,-45
8325,-600,-1064,1600,62,10,-41
8330,-568,-1104,1632,74,23,-39
8335,-600,-1072,1592,83,34,-40
8340,-584,-1048,1584,95,41,-42
8345,-560,-1032,1576,102,45,-45
8350,-568,-1080,1568,104,48,-53
8355,-560,-1032,1560,105,47,-58
8360,-552,-1048,1544,106,45,-64
8365,-544,-1008,1544,107,44,-68
8370,-552,-1008,1536,108,40,-75
8375,-552,-1016,1528,105,35,-81
8380,-560,-1016,1520,98,31,-85
8385,-560,-1016,1488,90,28,-89
8390,-560,-1032,1488,78,25,-92
8395,-584,-1032,1488,63,20,-94
8400,-568,-1016,1496,53,15,-98
8405,-552,-960,1480,46,9,-100
8410,-544,-960,1488,34,7,-103
8415,-560,-984,1480,15,1,-106
8420,-576,-1008,1504,-13,-2,-109
8425,-568,-1040,1496,-40,-6,-110
8430,-544,-1048,1496,-62,-5,-110
8435,-552,-1056,1488,-71,0,-108
8440,-560,-1064,1472,-69,6,-105
8445,-544,-1080,1488,-57,10,-103
8450,-560,-1064,1472,-44,12,-100
8455,-528,-1064,1480,-36,16,-96
8460,-496,-1120,1496,-33,21,-91
8465,-536,-1080,1496,-32,25,-85
8470,-504,-1072,1528,-32,29,-81
8475,-504,-1080,1488,-29,31,-79
8480,-504,-1080,1512,-21,28,-77
8485,-496,-1072,1496,-8,26,-78
8490,-496,-1096,1512,11,23,-79
8495,-464,-1096,1480,27,21,-80
8500,-496,-1088,1504,40,24,-79
8505,-496,-1104,1512,51,24,-78
8510,-456,-1072,1504,62,21,-79
8515,-480,-1056,1488,72,21,-77
8520,-448,-1088,1536,79,20,-82
8525,-480,-1080,1536,85,18,-82
8530,-472,-1088,1536,95,18,-83
8535,-464,-1104,1560,106,18,-85
8540,-464,-1120,1576,118,18,-84
8545,-440,-1112,1552,128,18,-83
8550,-464,-1088,1552,135,18,-81
8555,-456,-1080,1536,140,21,-80
8560,-448,-1088,1520,138,24,-77
8565,-456,-1080,1552,132,33,-74
8570,-480,-1104,1544,126,40,-69
8575,-480,-1088,1528,120,46,-63
8580,-448,-1112,1536,113,51,-59
8585,-456,-1088,1552,106,58,-54
8590,-456,-1056,1560,103,62,-51
8595,-448,-1072,1584,105,63,-46
8600,-456,-1064,1544,110,62,-43
8605,-480,-1072,1560,113,59,-40
8610,-488,-1040,1568,120,54,-39
8615,-480,-1056,1520,121,48,-39
8620,-488,-1080,1592,127,44,-37
8625,-536,-1024,1568,132,36,-36
8630,-528,-1008,1544,135,30,-33
8635,-520,-1040,1528,135,27,-32
8640,-544,-1016,1536,132,26,-32
8645,-512,-1040,1520,127,28,-31
8650,-528,-1016,1544,121,32,-28
8655,-560,-1008,1528,116,37,-25
8660,-560,-1048,1544,113,42,-23
8665,-552,-1024,1536,106,47,-20
8670,-552,-1016,1512,97,54,-20
8675,-552,-1016,1504,88,59,-20
8680,-544,-1032,1512,79,62,-20
8685,-552,-1016,1552,73,65,-22
8690,-544,-1024,1528,71,68,-24
8695,-560,-1024,1512,72,65,-25
8700,-552,-1024,1504,73,62,-26
8705,-568,-1024,1512,70,59,-27
8710,-560,-1008,1512,68,57,-28
8715,-584,-1000,1480,65,55,-28
8720,-544,-1000,1504,61,57,-30
8725,-560,-1024,1520,60,57,-30
8730,-552,-1016,1520,62,57,-31
8735,-576,-1008,1480,64,57,-30
8740,-584,-1016,1528,62,59,-31
8745,-568,-1016,1480,60,58,-30
8750,-576,-1024,1520,57,59,-33
8755,-576,-1024,1496,54,58,-33
8760,-568,-1024,1496,51,55,-32
8765,-584,-1032,1512,50,54,-33
8770,-584,-1032,1488,49,53,-32
8775,-584,-1040,1496,51,49,-32
8780,-592,-1024,1536,51,43,-31
8785,-552,-1008,1520,50,35,-30
8790,-624,-1024,1480,47,32,-31
8795,-560,-1024,1472,45,28,-33
8800,-568,-1016,1488,45,25,-33
8805,-576,-1016,1480,45,22,-35
8810,-576,-1032,1504,46,19,-38
8815,-560,-1040,1488,47,16,-39
8820,-544,-1024,1472,44,14,-41
8825,-560,-1056,1488,41,13,-40
8830,-568,-1048,1504,39,9,-41
8835,-584,-1024,1504,39,6,-44
8840,-552,-1024,1480,38,3,-44
8845,-544,-1056,1504,38,2,-45
8850,-552,-1072,1496,39,1,-43
8855,-544,-1064,1488,40,0,-46
8860,-544,-1064,1496,40,1,-45
8865,-552,-1056,1480,42,1,-45
8870,-552,-1072,1520,42,0,-47
8875,-552,-1064,1512,44,-2,-46
8880,-528,-1056,1496,46,-1,-45
8885,-560,-1096,1536,48,0,-43
8890,-528,-1080,1512,52,0,-42
8895,-536,-1064,1488,53,-1,-41
8900,-552,-1056,1504,53,-1,-42
8905,-536,-1064,1528,52,1,-41
8910,-528,-1056,1504,53,3,-41
8915,-536,-1064,1512,54,9,-40
8920,-528,-1064,1488,54,12,-38
8925,-528,-1056,1528,55,14,-38
8930,-520,-1048,1528,56,15,-38
8935,-520,-1040,1520,58,15,-36
8940,-528,-1040,1512,59,15,-38
8945,-528,-1056,1544,61,14,-37
8950,-536,-1048,1512,64,12,-39
8955,-528,-1048,1528,68,10,-36
8960,-512,-1040,1536,73,8,-34
8965,-512,-1048,1544,78,8,-32
8970,-496,-1048,1560,81,9,-30
8975,-464,-1048,1536,86,8,-27
8980,-472,-1048,1568,90,8,-26
8985,-488,-1072,1536,93,8,-23
8990,-480,-1048,1520,96,7,-24
8995,-488,-1040,1528,97,7,-24
9000,-464,-1048,1552,99,7,-24
9005,-496,-1032,1536,100,5,-24
9010,-448,-1056,1528,101,6,-24
9015,-480,-1064,1568,101,4,-25
9020,-464,-1080,1576,102,3,-27
9025,-472,-1080,1568,100,4,-30
9030,-520,-1056,1576,98,3,-33
9035,-496,-1056,1536,97,3,-32
9040,-496,-1048,1568,95,4,-31
9045,-504,-1064,1520,93,4,-32
9050,-512,-1024,1552,90,5,-31
9055,-512,-1016,1520,86,6,-29
9060,-488,-1024,1584,82,7,-29
9065,-520,-1000,1528,78,7,-26
9070,-520,-992,1528,74,9,-28
9075,-504,-1024,1544,72,8,-27
9080,-512,-1024,1552,73,8,-27
9085,-512,-1040,1496,72,8,-26
9090,-520,-1032,1528,72,8,-25
9095,-528,-1032,1560,74,5,-25
9100,-536,-1024,1520,71,5,-24
9105,-552,-1032,1552,71,2,-24
9110,-568,-1024,1504,69,-2,-25
9115,-560,-1016,1504,63,-3,-27
9120,-536,-1016,1504,59,-4,-28
9125,-520,-1048,1544,58,-6,-27
9130,-528,-1032,1520,58,-7,-26
9135,-536,-1032,1496,61,-5,-26
9140,-536,-1056,1536,62,-5,-25
9145,-552,-1048,1496,61,-3,-24
9150,-576,-1040,1528,60,-2,-24
9155,-536,-1064,1512,57,-1,-21
9160,-544,-1024,1520,54,-1,-22
9165,-560,-992,1512,52,1,-21
9170,-552,-1024,1544,49,1,-20
9175,-544,-1040,1512,48,4,-19
9180,-552,-1056,1536,47,3,-18
9185,-552,-1032,1528,43,5,-17
9190,-544,-1048,1528,40,5,-16
9195,-536,-1040,1496,36,5,-14
9200,-544,-1056,1528,34,6,-12
9205,-552,-1056,1496,32,7,-13
9210,-568,-1032,1544,31,5,-12
9215,-544,-1024,1560,30,5,-15
9220,-560,-1056,1480,31,5,-15
9225,-544,-1032,1544,33,1,-12
9230,-544,-1032,1552,32,-1,-12
9235,-544,-1032,1504,33,-4,-14
9240,-544,-1040,1512,33,-3,-15
9245,-528,-1032,1488,35,-3,-14
9250,-544,-1032,1528,42,-4,-16
9255,-488,-1056,1528,48,-4,-16
9260,-536,-1056,1488,57,-6,-18
9265,-504,-1048,1496,64,-8,-21
9270,-512,-1048,1504,70,-10,-24
9275,-504,-1080,1520,73,-12,-25
9280,-544,-1040,1512,75,-13,-27
9285,-520,-1040,1520,77,-13,-28
9290,-536,-1040,1544,78,-14,-27
9295,-528,-1056,1520,78,-16,-27
9300,-488,-1064,1528,80,-17,-27
9305,-520,-1080,1544,83,-16,-25
9310,-504,-1072,1544,85,-13,-23
9315,-536,-1040,1528,87,-11,-22
9320,-536,-1048,1512,89,-11,-20
9325,-528,-1032,1536,90,-13,-18
9330,-520,-1000,1512,92,-13,-17
9335,-520,-1032,1536,94,-13,-16
9340,-488,-1040,1544,94,-13,-18
9345,-520,-1016,1528,92,-14,-17
9350,-496,-1048,1552,89,-16,-17
9355,-520,-1024,1528,86,-15,-18
9360,-504,-1032,1544,82,-16,-17
9365,-488,-1040,1536,79,-15,-19
9370,-512,-1048,1552,74,-14,-17
9375,-496,-1032,1528,69,-14,-18
9380,-520,-1032,1536,62,-14,-18
9385,-504,-1056,1592,56,-14,-18
9390,-488,-1032,1544,53,-11,-19
9395,-504,-1016,1552,48,-10,-19
9400,-488,-1040,1560,45,-8,-20
9405,-496,-1024,1568,42,-5,-21
9410,-488,-1040,1552,41,-5,-23
9415,-472,-1016,1536,40,-5,-24
9420,-496,-1024,1584,40,-6,-24
9425,-488,-1032,1560,39,-8,-24
9430,-480,-1048,1568,39,-8,-24
9435,-496,-1032,1544,40,-8,-24
9440,-496,-1008,1552,41,-8,-26
9445,-504,-1032,1584,43,-8,-26
9450,-488,-1040,1552,44,-5,-25
9455,-488,-1064,1544,46,-1,-25
9460,-512,-1024,1576,49,0,-24
9465,-504,-1008,1560,51,2,-23
9470,-528,-1024,1544,53,4,-21
9475,-528,-1040,1528,54,6,-21
9480,-504,-1040,1544,52,10,-19
9485,-504,-1024,1544,51,14,-17
9490,-464,-1032,1560,51,17,-16
9495,-472,-968,1528,51,20,-14
9500,-496,-1040,1536,52,24,-15
9505,-512,-1040,1552,52,27,-13
9510,-504,-1032,1552,52,27,-13
9515,-496,-1048,1544,50,26,-13
9520,-504,-1016,1552,47,24,-12
9525,-504,-1032,1512,42,18,-15
9530,-496,-1040,1512,38,16,-17
9535,-504,-1040,1576,35,13,-19
9540,-512,-1016,1504,34,11,-18
9545,-488,-1040,1512,34,9,-20
9550,-504,-1072,1504,34,6,-21
9555,-520,-1040,1536,32,4,-22
9560,-512,-1032,1512,31,3,-25
9565,-504,-1040,1520,33,1,-21
9570,-480,-1056,1528,35,1,-23
9575,-488,-1080,1512,35,1,-22
9580,-496,-1064,1504,39,1,-22
9585,-504,-1056,1512,41,0,-22
9590,-496,-1048,1528,42,-1,-22
9595,-488,-1072,1576,46,-1,-18
9600,-504,-1048,1528,50,0,-17
9605,-480,-1072,1576,52,-1,-17
9610,-528,-1040,1544,55,2,-16
9615,-520,-1056,1520,58,5,-15
9620,-528,-1048,1536,59,9,-12
9625,-496,-1040,1536,60,11,-13
9630,-480,-1096,1520,61,12,-13
9635,-528,-1032,1544,62,12,-13
9640,-528,-1032,1512,61,11,-11
9645,-496,-1024,1496,59,11,-9
9650,-512,-1032,1520,55,11,-8
9655,-504,-1056,1544,53,10,-8
9660,-528,-1000,1584,50,12,-7
9665,-512,-1040,1552,48,12,-6
9670,-504,-1040,1536,47,13,-6
9675,-512,-1032,1544,44,13,-5
9680,-488,-1016,1536,42,14,-5
9685,-512,-1040,1544,41,13,-6
9690,-512,-1016,1560,40,13,-5
9695,-528,-1000,1512,37,11,-6
9700,-536,-1032,1528,35,11,-4
9705,-512,-1032,1552,34,10,-3
9710,-488,-1064,1536,30,10,-2
9715,-520,-1040,1552,28,10,-4
9720,-512,-1040,1520,27,13,-3
9725,-520,-1040,1552,23,14,-2
9730,-528,-1032,1560,20,17,-4
9735,-488,-1040,1592,17,17,-1
9740,-496,-1040,1568,15,19,-1
9745,-520,-1064,1536,13,22,2
9750,-512,-1056,1576,12,24,2
9755,-496,-1056,1536,11,27,3
9760,-520,-1072,1576,11,27,4
9765,-504,-1080,1512,11,30,4
9770,-488,-1072,1536,15,32,4
9775,-512,-1048,1536,19,34,3
9780,-520,-1040,1520,24,36,2
9785,-488,-1040,1560,29,37,2
9790,-488,-1048,1528,33,37,0
9795,-496,-1024,1520,37,35,-1
9800,-496,-1040,1512,41,34,-1
9805,-488,-1032,1504,44,33,-4
9810,-496,-1048,1512,46,30,-6
9815,-496,-1064,1544,50,26,-7
9820,-472,-1008,1608,55,24,-9
9825,-512,-1024,1520,55,21,-10
9830,-488,-1024,1536,57,19,-12
9835,-520,-1016,1536,58,19,-13
9840,-520,-1024,1536,59,19,-15
9845,-480,-1040,1544,60,18,-17
9850,-504,-1024,1528,62,18,-15
9855,-496,-1024,1536,62,18,-16
9860,-512,-1032,1520,61,19,-16
9865,-536,-1024,1528,60,19,-15
9870,-504,-1048,1568,60,18,-15
9875,-528,-1032,1544,57,19,-16
9880,-496,-1040,1520,53,19,-16
9885,-496,-1040,1520,53,19,-16
9890,-504,-1040,1520,49,18,-16
9895,-504,-1048,1528,48,18,-17
9900,-512,-1032,1544,47,18,-18
9905,-512,-1032,1520,45,19,-17
9910,-496,-1048,1544,43,18,-17
9915,-496,-1048,1536,41,17,-16
9920,-488,-1032,1528,39,17,-15
9925,-520,-1016,1488,37,16,-15
9930,-496,-1048,1520,36,17,-13
9935,-520,-1032,1552,35,16,-13
9940,-480,-1048,1512,33,16,-12
9945,-504,-1032,1504,32,18,-10
9950,-480,-1048,1528,32,17,-9
9955,-472,-1048,1520,33,16,-10
9960,-512,-1032,1536,35,14,-9
9965,-496,-1040,1544,39,14,-8
9970,-528,-1040,1504,44,13,-9
9975,-504,-1040,1504,47,12,-8
9980,-504,-1048,1512,49,11,-11
9985,-512,-1024,1496,52,10,-9
9990,-496,-1064,1528,54,12,-10
9995,-512,-1048,1512,57,11,-12
10000,-512,-1024,1528,60,10,-13
10005,-520,-1040,1528,64,9,-12
10010,-488,-1048,1520,69,8,-15
10015,-528,-1040,1544,72,7,-14
10020,-520,-1040,1536,73,8,-16
10025,-520,-1048,1512,75,6,-17
10030,-520,-1056,1520,76,5,-15
10035,-496,-1040,1520,75,7,-16
10040,-512,-1096,1496,74,8,-12
10045,-480,-1056,1536,73,10,-9
10050,-504,-1064,1504,73,11,-7
10055,-504,-1056,1536,73,13,-6
10060,-520,-1056,1512,75,13,-2
10065,-496,-1056,1528,77,12,-2
10070,-504,-1072,1536,81,12,0
10075,-528,-1048,1536,86,11,3
10080,-504,-1056,1512,87,7,3
10085,-512,-1024,1520,91,5,4
10090,-504,-1016,1528,96,1,4
10095,-520,-1016,1592,97,-2,5
10100,-520,-1032,1528,98,-5,4
10105,-496,-1024,1576,96,-8,5
10110,-504,-1032,1544,96,-12,7
10115,-504,-1032,1568,94,-13,4
10120,-496,-1016,1544,90,-11,6
10125,-488,-1032,1592,82,-9,6
10130,-496,-1016,1552,72,-8,7
10135,-520,-1032,1552,63,-7,7
10140,-520,-1024,1576,55,-2,7
10145,-472,-1040,1552,47,0,7
10150,-496,-1048,1616,40,2,3
10155,-496,-1032,1544,35,4,3
10160,-496,-1032,1568,33,5,-2
10165,-488,-1032,1544,34,7,-3
10170,-496,-1032,1584,33,9,-3
10175,-504,-1024,1528,36,12,-5
10180,-528,-1032,1552,38,13,-7
10185,-504,-1008,1552,36,15,-6
10190,-488,-1024,1552,36,17,-6
10195,-504,-1016,1568,37,20,-6
10200,-520,-1072,1504,37,21,-5
10205,-496,-1032,1568,37,22,-5
10210,-520,-1032,1544,36,23,-5
10215,-504,-1032,1552,36,23,-5
10220,-496,-1024,1552,34,24,-4
10225,-512,-1032,1568,32,23,-5
10230,-512,-1032,1552,33,23,-5
10235,-496,-1064,1568,31,22,-6
10240,-528,-1024,1552,30,22,-7
10245,-520,-1016,1528,31,21,-8
10250,-488,-1016,1512,29,21,-10
10255,-496,-1032,1536,28,20,-11
10260,-520,-1032,1528,27,18,-11
10265,-528,-1024,1544,26,17,-12
10270,-520,-1024,1568,25,16,-13
10275,-528,-1024,1512,24,14,-15
10280,-504,-1032,1536,21,13,-15
10285,-528,-1024,1520,20,12,-18
10290,-504,-1024,1512,18,9,-18
10295,-528,-1024,1528,18,9,-18
10300,-488,-1056,1504,18,8,-17
10305,-504,-1072,1496,18,9,-17
10310,-496,-1032,1520,20,9,-20
10315,-504,-1056,1512,24,7,-19
10320,-488,-1048,1520,27,7,-19
10325,-496,-1040,1512,29,7,-19
10330,-496,-1048,1512,32,7,-20
10335,-488,-1032,1520,34,8,-20
10340,-504,-1048,1504,34,6,-23
10345,-496,-1040,1552,36,4,-25
10350,-512,-1040,1528,38,1,-25
10355,-520,-1048,1512,37,1,-27
10360,-504,-1032,1528,39,-2,-27
10365,-520,-1040,1544,37,-2,-28
10370,-528,-1024,1496,39,-3,-28
10375,-528,-1040,1560,40,-2,-25
10380,-504,-1048,1544,39,-1,-24
10385,-520,-1064,1528,40,0,-22
10390,-488,-1056,1528,40,3,-23
10395,-488,-1064,1544,41,5,-20
10400,-496,-1048,1552,39,8,-18
10405,-504,-1040,1536,37,9,-17
10410,-504,-1064,1512,36,11,-13
10415,-504,-1080,1536,35,12,-10
10420,-512,-1048,1520,34,14,-7
10425,-496,-1048,1536,33,13,-4
10430,-496,-1048,1568,32,11,-2
10435,-480,-1056,1552,33,14,-1
10440,-504,-1032,1560,34,15,-1
10445,-504,-1040,1536,34,17,-1
10450,-488,-1048,1552,35,18,-1
10455,-504,-1048,1528,35,21,-3
10460,-528,-1008,1528,33,22,-4
10465,-496,-1032,1544,34,21,-6
10470,-488,-1056,1560,33,23,-8
10475,-504,-1024,1560,34,22,-8
10480,-512,-1024,1544,34,21,-9
10485,-480,-1032,1536,34,20,-9
10490,-504,-1040,1528,32,21,-11
10495,-488,-1040,1544,30,20,-13
10500,-472,-1040,1528,28,17,-14
10505,-480,-1048,1544,27,18,-13
10510,-504,-1032,1536,26,17,-12
10515,-512,-1024,1504,25,18,-12
10520,-504,-1040,1520,25,19,-13
10525,-496,-1032,1512,26,19,-12
10530,-472,-1024,1544,28,19,-11
10535,-504,-1064,1560,27,19,-12
10540,-512,-1056,1528,27,19,-10
10545,-520,-1064,1536,28,21,-10
10550,-504,-1064,1552,29,21,-10
10555,-488,-1072,1536,31,23,-10
10560,-512,-1040,1536,33,23,-10
10565,-504,-1040,1512,36,26,-10
10570,-520,-1064,1568,38,27,-9
10575,-520,-1056,1560,40,26,-10
10580,-512,-1048,1512,42,26,-12
10585,-512,-1040,1576,42,25,-11
10590,-536,-1048,1512,42,26,-12
10595,-504,-1032,1528,44,27,-12
10600,-496,-1040,1504,44,27,-13
10605,-512,-1040,1544,43,28,-11
10610,-512,-1048,1528,43,28,-13
10615,-528,-1048,1560,43,29,-14
10620,-512,-1048,1528,43,29,-14
10625,-488,-1032,1512,42,30,-16
10630,-512,-1040,1496,42,29,-17
10635,-504,-1072,1528,41,30,-15
10640,-488,-1064,1528,38,27,-16
10645,-520,-1048,1528,37,27,-14
10650,-520,-1048,1520,36,27,-14
10655,-504,-1048,1512,36,27,-14
10660,-496,-1032,1520,35,28,-13
10665,-512,-1032,1536,35,28,-14
10670,-512,-1032,1520,32,30,-12
10675,-496,-1048,1552,31,32,-9
10680,-512,-1048,1504,30,34,-12
10685,-456,-1064,1512,28,37,-9
10690,-480,-1072,1576,24,38,-8
10695,-512,-1072,1520,21,40,-6
10700,-512,-1096,1544,15,41,-3
10705,-520,-1096,1528,15,41,1
10710,-496,-1096,1520,18,39,6
10715,-512,-1112,1512,23,38,8
10720,-480,-1136,1520,33,36,11
10725,-496,-1104,1488,45,33,12
10730,-512,-1112,1512,55,34,13
10735,-520,-1096,1496,65,31,11
10740,-520,-1112,1512,73,31,10
10745,-464,-1120,1520,81,31,10
10750,-504,-1064,1560,87,30,10
10755,-504,-1072,1536,93,29,12
10760,-496,-1072,1512,97,30,13
10765,-480,-1072,1512,101,30,13
10770,-488,-1040,1536,106,32,17
10775,-504,-1040,1520,109,34,20
10780,-520,-1032,1528,110,35,22
10785,-496,-1048,1528,108,36,24
10790,-504,-1040,1536,104,38,25
10795,-472,-1080,1512,99,38,28
10800,-536,-1072,1488,92,39,32
10805,-496,-1096,1488,90,42,32
10810,-512,-1088,1496,103,45,32
10815,-480,-1072,1472,124,45,28
10820,-504,-1056,1488,140,42,25
10825,-512,-1056,1512,141,40,21
10830,-512,-1080,1496,133,41,20
10835,-488,-1064,1528,129,42,22
10840,-480,-1024,1528,128,43,26
10845,-520,-1024,1520,120,43,32
10850,-528,-1064,1552,104,43,37
10855,-544,-1080,1584,89,40,35
10860,-520,-1016,1552,93,41,34
10865,-496,-944,1528,110,42,26
10870,-528,-936,1552,119,38,21
10875,-536,-920,1552,109,36,16
10880,-544,-968,1528,88,34,12
10885,-520,-1008,1520,71,32,8
10890,-544,-1040,1552,59,31,9
10895,-520,-1040,1568,48,28,10
10900,-520,-1048,1512,36,27,15
10905,-552,-1040,1504,29,28,18
10910,-496,-1048,1520,26,31,21
10915,-536,-1032,1536,21,33,22
10920,-552,-1016,1528,15,34,23
10925,-544,-1024,1552,11,34,26
10930,-528,-1024,1520,13,34,23
10935,-536,-1016,1544,12,32,24
10940,-520,-1016,1552,13,28,23
10945,-496,-1032,1568,16,24,22
10950,-544,-1008,1552,20,21,22
10955,-528,-1032,1544,27,18,21
10960,-520,-1024,1544,31,16,18
10965,-512,-992,1552,36,15,16
10970,-520,-1048,1544,44,16,13
10975,-536,-1040,1528,51,19,12
10980,-520,-1024,1536,55,21,9
10985,-520,-1024,1576,58,25,6
10990,-528,-1032,1536,60,30,7
10995,-528,-1032,1552,58,33,4
11000,-528,-1056,1568,58,35,2
11005,-520,-1032,1552,58,34,0
11010,-544,-1048,1528,58,34,-1
11015,-536,-1016,1528,58,35,-1
11020,-544,-1032,1552,56,34,-5
11025,-544,-1040,1512,57,35,-6
11030,-544,-1032,1536,55,36,-7
11035,-536,-1016,1528,52,35,-9
11040,-536,-1032,1528,49,32,-11
11045,-528,-1048,1512,49,30,-11
11050,-552,-1024,1504,46,29,-14
11055,-520,-1024,1552,45,27,-14
11060,-544,-1040,1512,43,25,-16
11065,-536,-1008,1528,41,23,-18
11070,-544,-1024,1520,41,21,-20
11075,-552,-1008,1536,40,19,-18
11080,-552,-1008,1512,39,18,-17
11085,-544,-1032,1496,39,16,-17
11090,-552,-1040,1544,39,16,-17
11095,-512,-1032,1528,41,15,-16
11100,-528,-1032,1520,41,16,-14
11105,-544,-1032,1512,42,19,-13
11110,-520,-1040,1528,43,20,-11
11115,-520,-1056,1520,47,22,-9
11120,-536,-1064,1520,50,21,-8
11125,-520,-1040,1544,51,20,-6
11130,-512,-1064,1568,53,20,-7
11135,-536,-1048,1512,56,19,-9
11140,-512,-1080,1496,58,19,-10
11145,-512,-1032,1504,58,17,-11
11150,-528,-1024,1544,58,14,-13
11155,-528,-1056,1544,58,13,-12
11160,-536,-1016,1520,58,14,-11
11165,-512,-1040,1520,58,13,-12
11170,-520,-1032,1536,60,13,-14
11175,-528,-1056,1520,60,12,-13
11180,-512,-1024,1520,62,11,-13
11185,-536,-1008,1520,62,11,-13
11190,-512,-1056,1528,61,10,-13
11195,-512,-1024,1504,63,8,-13
11200,-520,-1016,1528,65,6,-13
11205,-528,-1040,1512,66,5,-14
11210,-544,-1032,1512,68,4,-14
11215,-528,-1024,1528,72,3,-15
11220,-520,-1024,1528,72,-1,-18
11225,-528,-1016,1520,73,-5,-20
11230,-536,-1024,1528,72,-7,-19
11235,-528,-1016,1536,72,-9,-17
11240,-520,-1032,1512,73,-10,-17
11245,-528,-1008,1552,73,-12,-17
11250,-520,-1032,1560,73,-13,-18
11255,-536,-1040,1504,69,-13,-18
11260,-528,-1024,1560,69,-12,-17
11265,-536,-1048,1496,67,-14,-17
11270,-536,-1016,1528,66,-11,-19
11275,-536,-1024,1560,64,-11,-19
11280,-520,-1040,1552,63,-10,-20
11285,-520,-1040,1592,60,-10,-21
11290,-552,-1064,1544,58,-10,-20
11295,-512,-1016,1552,55,-9,-18
11300,-536,-1032,1520,55,-9,-20
11305,-520,-1040,1520,54,-6,-19
11310,-528,-1024,1560,52,-6,-19
11315,-536,-1032,1528,51,-5,-18
11320,-520,-1040,1528,51,-4,-17
11325,-544,-1032,1536,52,-2,-19
11330,-544,-1008,1528,51,-1,-16
11335,-536,-1024,1528,53,1,-19
11340,-536,-1032,1552,53,1,-17
11345,-520,-1024,1568,54,2,-17
11350,-536,-1024,1544,54,-2,-16
11355,-512,-1024,1536,53,-3,-16
11360,-536,-1048,1536,53,-5,-16
11365,-528,-1048,1544,55,-7,-17
11370,-512,-1032,1536,57,-6,-17
11375,-536,-1024,1528,60,-8,-16
11380,-552,-1016,1576,61,-9,-17
11385,-536,-1040,1512,64,-9,-17
11390,-544,-1024,1544,65,-10,-18
11395,-520,-1016,1512,66,-12,-18
11400,-512,-1048,1560,69,-11,-15
11405,-520,-1024,1560,68,-11,-18
11410,-520,-1032,1536,70,-11,-18
11415,-528,-1024,1536,70,-10,-16
11420,-536,-1024,1544,70,-9,-17
11425,-520,-1040,1536,71,-7,-16
11430,-520,-1040,1544,72,-6,-16
11435,-488,-1024,1568,71,-5,-17
11440,-528,-1040,1536,71,-4,-16
11445,-488,-1032,1544,72,-2,-16
11450,-512,-1016,1544,70,1,-15
11455,-512,-1024,1536,69,2,-14
11460,-520,-1032,1552,66,4,-12
11465,-512,-1032,1528,62,5,-12
11470,-544,-1024,1568,59,7,-13
11475,-504,-1032,1560,54,10,-10
11480,-520,-1016,1544,50,10,-12
11485,-528,-1000,1528,48,10,-12
11490,-544,-1048,1544,45,8,-12
11495,-504,-1024,1552,43,6,-11
11500,-536,-1008,1520,43,3,-13
11505,-512,-1024,1536,41,2,-14
11510,-496,-1056,1568,40,0,-15
11515,-512,-1016,1536,39,-3,-17
11520,-504,-1016,1552,40,-4,-17
11525,-520,-1016,1544,45,-5,-17
11530,-512,-1024,1544,51,-4,-17
11535,-528,-1040,1552,56,-6,-19
11540,-536,-1024,1520,62,-8,-21
11545,-528,-1024,1528,66,-11,-22
11550,-488,-1056,1504,71,-13,-23
11555,-504,-1040,1536,72,-13,-25
11560,-480,-1048,1560,75,-13,-25
11565,-520,-1032,1528,77,-14,-26
11570,-512,-1056,1512,77,-11,-26
11575,-496,-1056,1536,74,-8,-26
11580,-512,-1064,1544,73,-3,-26
11585,-520,-1064,1512,72,2,-23
11590,-512,-1072,1544,73,6,-22
11595,-504,-1032,1552,73,10,-21
11600,-512,-1056,1552,75,13,-18
11605,-528,-1032,1528,80,13,-15
11610,-520,-1040,1544,83,12,-13
11615,-528,-1024,1544,86,11,-13
11620,-552,-1016,1512,88,10,-13
11625,-528,-1024,1528,88,7,-14
11630,-528,-1024,1512,91,4,-13
11635,-528,-1000,1552,93,1,-12
11640,-536,-1016,1528,92,-2,-13
11645,-528,-1024,1536,91,-6,-13
11650,-536,-1016,1560,87,-9,-10
11655,-544,-992,1536,86,-11,-8
11660,-520,-1016,1536,83,-12,-9
11665,-504,-1016,1584,79,-13,-8
11670,-504,-1016,1560,76,-17,-6
11675,-520,-1008,1536,70,-18,-7
11680,-504,-1024,1544,67,-19,-7
11685,-512,-1024,1528,62,-18,-9
11690,-480,-1032,1576,58,-19,-12
11695,-496,-1024,1576,58,-19,-13
11700,-496,-1024,1584,58,-21,-14
11705,-504,-1024,1544,60,-22,-17
11710,-512,-1024,1568,60,-20,-16
11715,-496,-1016,1560,61,-21,-18
11720,-504,-1048,1576,64,-21,-18
11725,-528,-1008,1544,64,-20,-20
11730,-520,-1032,1544,66,-20,-19
11735,-512,-1008,1536,67,-18,-18
11740,-536,-1024,1560,66,-15,-19
11745,-512,-1032,1528,61,-13,-20
11750,-536,-1024,1576,58,-12,-20
11755,-528,-1016,1544,55,-12,-22
11760,-512,-1008,1576,53,-13,-21
11765,-536,-1000,1568,52,-13,-20
11770,-504,-976,1584,48,-12,-20
11775,-536,-1008,1552,46,-14,-18
11780,-512,-1000,1568,45,-15,-18
11785,-536,-1008,1536,44,-16,-18
11790,-536,-1000,1568,43,-16,-16
11795,-504,-1000,1528,41,-17,-15
11800,-520,-1008,1536,42,-18,-17
11805,-504,-1024,1552,41,-16,-17
11810,-496,-1016,1520,39,-15,-18
11815,-504,-992,1560,36,-12,-18
11820,-496,-1016,1520,31,-8,-17
11825,-488,-1040,1520,26,-5,-14
11830,-496,-1080,1512,29,-2,-12
11835,-448,-1024,1512,24,4,-18
11840,-448,-1032,1536,11,11,-18
11845,-456,-1064,1504,2,16,-19
11850,-432,-1088,1520,-2,21,-19
11855,-440,-1072,1512,-3,29,-20
11860,-440,-1104,1480,-1,36,-21
11865,-448,-1104,1520,3,40,-23
11870,-456,-1096,1536,8,43,-25
11875,-472,-1120,1512,13,44,-25
11880,-472,-1152,1560,20,43,-28
11885,-488,-1136,1560,27,40,-31
11890,-504,-1136,1520,35,34,-31
11895,-528,-1088,1584,44,29,-32
11900,-520,-1088,1584,54,22,-30
11905,-536,-1072,1576,64,18,-26
11910,-544,-1056,1600,79,14,-21
11915,-520,-1032,1592,91,12,-13
11920,-552,-1016,1616,100,14,-10
11925,-520,-1016,1584,112,16,-5
11930,-536,-1032,1592,121,21,2
11935,-520,-1016,1568,127,26,7
11940,-520,-1016,1568,131,28,13
11945,-512,-984,1496,132,28,19
11950,-512,-976,1560,130,32,23
11955,-488,-992,1536,129,36,26
11960,-488,-1000,1552,129,38,28
11965,-488,-984,1576,131,38,32
11970,-456,-992,1568,130,36,32
11975,-472,-1000,1560,129,37,33
11980,-464,-984,1584,126,42,33
11985,-472,-992,1592,117,49,31
11990,-480,-968,1616,109,54,30
11995,-432,-1008,1640,97,56,27
12000,-512,-904,1568,85,56,24
12005,-488,-1000,1576,73,55,19
12010,-456,-1008,1584,61,52,12
12015,-488,-992,1584,50,45,4
12020,-504,-1000,1584,42,39,-2
12025,-488,-984,1576,36,34,-8
12030,-520,-976,1544,31,26,-15
12035,-528,-984,1552,29,19,-17
12040,-520,-976,1552,29,12,-21
12045,-520,-1000,1552,28,8,-25
12050,-528,-992,1552,27,6,-30
12055,-528,-992,1504,29,4,-29
12060,-544,-960,1536,33,1,-32
12065,-528,-984,1568,38,2,-32
12070,-536,-1008,1568,43,1,-35
12075,-536,-976,1552,49,1,-34
12080,-536,-1016,1544,54,1,-33
12085,-536,-992,1584,57,0,-31
12090,-536,-1016,1584,60,-1,-30
12095,-528,-1000,1560,60,-3,-29
12100,-536,-1016,1584,58,-5,-28
12105,-528,-1032,1568,57,-6,-27
12110,-536,-1032,1560,54,-5,-26
12115,-552,-1016,1528,51,-6,-25
12120,-552,-1008,1552,50,-8,-25
12125,-536,-1032,1544,45,-9,-22
12130,-544,-1032,1568,42,-10,-19
12135,-544,-1040,1560,36,-11,-17
12140,-536,-1024,1552,32,-13,-17
12145,-536,-1048,1536,26,-14,-14
12150,-544,-1048,1536,21,-13,-13
12155,-552,-1040,1560,19,-14,-11
12160,-504,-1048,1552,17,-12,-10
12165,-536,-1016,1496,17,-10,-10
12170,-536,-1040,1504,17,-8,-9
12175,-536,-1040,1528,17,-8,-6
12180,-520,-1032,1512,16,-6,-7
12185,-528,-1016,1528,17,-4,-4
12190,-504,-1040,1528,17,-2,-3
12195,-512,-1040,1528,18,0,-4
12200,-504,-1032,1496,19,2,-4
12205,-512,-1032,1520,21,5,-3
12210,-512,-1032,1560,25,7,-3
12215,-504,-1024,1528,28,7,-1
12220,-496,-1024,1544,35,7,-3
12225,-488,-1040,1520,41,6,-3
12230,-488,-1048,1536,48,5,-6
12235,-480,-1040,1536,55,6,-6
12240,-480,-1048,1552,60,5,-7
12245,-472,-1048,1536,67,3,-8
12250,-488,-1040,1536,73,1,-11
12255,-480,-1040,1528,77,-2,-11
12260,-504,-1024,1520,80,-4,-13
12265,-472,-1032,1576,82,-7,-12
12270,-448,-992,1496,84,-7,-13
12275,-448,-1032,1560,87,-6,-13
12280,-480,-1016,1584,86,-6,-12
12285,-472,-1032,1544,85,-5,-12
12290,-472,-1032,1560,83,-4,-11
12295,-504,-1000,1592,81,-3,-9
12300,-472,-1032,1560,79,-4,-11
12305,-504,-1008,1576,72,-2,-10
12310,-480,-1000,1544,67,0,-10
12315,-488,-1024,1576,62,1,-9
12320,-488,-1008,1552,60,4,-9
12325,-456,-992,1512,60,7,-8
12330,-464,-1040,1560,61,9,-10
12335,-472,-1016,1576,63,12,-10
12340,-504,-1000,1584,68,12,-13
12345,-488,-992,1576,72,12,-13
12350,-496,-1008,1544,77,13,-14
12355,-488,-1008,1576,82,13,-15
12360,-472,-992,1544,90,13,-15
12365,-464,-1008,1560,92,12,-17
12370,-480,-1008,1584,93,11,-14
12375,-480,-1024,1560,95,11,-14
12380,-472,-1048,1592,97,11,-14
12385,-504,-1032,1560,100,12,-15
12390,-480,-1048,1592,101,13,-12
12395,-480,-1016,1592,104,13,-12
12400,-496,-1016,1576,104,17,-11
12405,-496,-1016,1584,103,19,-10
12410,-496,-984,1608,102,21,-8
12415,-504,-1016,1600,104,22,-7
12420,-496,-1000,1560,106,20,-4
12425,-512,-992,1544,106,20,-4
12430,-504,-968,1568,102,19,-5
12435,-480,-984,1584,97,17,-7
12440,-512,-1008,1568,90,15,-6
12445,-520,-976,1584,85,13,-8
12450,-496,-1008,1552,78,9,-9
12455,-504,-1000,1584,67,10,-10
12460,-480,-1000,1568,55,11,-7
12465,-488,-1008,1560,40,12,-7
12470,-488,-1000,1576,22,12,-6
12475,-480,-1008,1584,11,11,-9
12480,-528,-984,1592,4,10,-7
12485,-520,-1032,1568,1,8,-7
12490,-440,-1008,1552,-1,9,-6
12495,-496,-1024,1560,0,10,-5
12500,-504,-1024,1552,2,10,-6
12505,-512,-1016,1560,4,12,-5
12510,-512,-1016,1544,5,12,-6
12515,-528,-1016,1552,6,13,-5
12520,-504,-1024,1544,6,16,-5
12525,-504,-1016,1592,6,16,-6
12530,-512,-1032,1600,6,18,-6
12535,-504,-1032,1568,8,17,-5
12540,-504,-1008,1560,10,20,-8
12545,-496,-1016,1536,13,21,-5
12550,-512,-1024,1552,16,22,-5
12555,-504,-1024,1544,16,24,-4
12560,-512,-1024,1528,17,25,-4
12565,-504,-1024,1560,16,24,-3
12570,-512,-1024,1536,16,25,-2
12575,-496,-1024,1560,18,24,-2
12580,-496,-1032,1560,20,25,-1
12585,-496,-1024,1560,22,25,-1
12590,-496,-1016,1552,24,26,-2
12595,-496,-1024,1568,26,25,-3
12600,-512,-1024,1536,26,24,-3
12605,-504,-1024,1536,27,23,-2
12610,-504,-1024,1552,27,22,-3
12615,-480,-1032,1544,25,21,-4
12620,-512,-1024,1576,25,22,-1
12625,-520,-1008,1536,24,21,-2
12630,-528,-1024,1576,24,19,1
12635,-504,-1016,1544,24,18,-2
12640,-512,-1016,1552,25,17,-1
12645,-512,-1032,1544,25,17,0
12650,-472,-1024,1536,27,18,1
12655,-448,-1040,1584,29,16,0
12660,-504,-1024,1520,32,15,-1
12665,-480,-1024,1544,34,17,-1
12670,-496,-1032,1568,36,17,0
12675,-512,-1024,1592,36,18,0
12680,-496,-1024,1544,35,17,-1
12685,-512,-1016,1584,34,18,1
12690,-504,-1016,1536,35,18,1
12695,-512,-1016,1552,37,19,1
12700,-504,-1008,1568,38,20,0
12705,-504,-1032,1584,38,21,-1
12710,-520,-1008,1552,39,23,1
12715,-512,-1016,1568,41,26,1
12720,-512,-1008,1544,42,27,1
12725,-504,-1024,1552,41,28,2
12730,-512,-1024,1568,42,29,2
12735,-512,-1024,1576,39,31,2
12740,-488,-1008,1560,38,31,4
12745,-528,-992,1576,36,32,5
12750,-536,-1016,1544,35,31,4
12755,-504,-1008,1552,33,28,6
12760,-536,-1032,1600,32,27,5
12765,-504,-1032,1560,33,26,4
12770,-528,-1008,1568,32,23,3
12775,-504,-1008,1552,33,21,3
12780,-528,-1016,1552,35,18,1
12785,-536,-1024,1576,35,17,1
12790,-520,-1024,1544,34,16,-1
12795,-512,-1016,1560,33,16,0
12800,-480,-1032,1568,34,15,-1
12805,-512,-1016,1552,32,17,-1
12810,-488,-1040,1552,33,18,0
12815,-528,-992,1512,33,18,-1
12820,-528,-1032,1528,31,19,1
12825,-512,-1008,1536,32,19,0
12830,-528,-1024,1544,31,22,-1
12835,-512,-1024,1552,31,21,-1
12840,-496,-1024,1560,31,21,-1
12845,-520,-1008,1536,29,23,-1
12850,-528,-1048,1576,28,23,0
12855,-512,-1032,1568,28,22,-2
12860,-480,-1032,1552,25,25,-3
12865,-512,-1048,1544,26,25,-3
12870,-520,-1048,1552,26,26,-2
12875,-512,-1024,1528,26,25,-1
12880,-520,-1040,1528,26,26,-2
12885,-504,-1024,1528,28,27,-2
12890,-520,-1024,1544,30,29,-3
12895,-504,-1032,1536,31,29,-3
12900,-488,-1032,1552,31,30,-4
12905,-520,-1040,1552,33,31,-3
12910,-504,-1056,1568,33,32,-4
12915,-504,-1024,1512,33,33,-3
12920,-512,-1024,1576,35,35,-2
12925,-496,-1048,1552,37,35,-2
12930,-488,-1048,1504,38,35,-2
12935,-520,-1032,1544,41,38,-2
12940,-512,-1024,1504,41,37,-1
12945,-504,-1032,1528,43,37,-1
12950,-528,-1024,1568,45,38,0
12955,-504,-1056,1552,45,39,-2
12960,-520,-1040,1536,48,40,0
12965,-512,-1040,1544,49,41,0
12970,-520,-1040,1560,51,40,1
12975,-512,-1040,1528,51,40,0
12980,-520,-1048,1576,49,39,0
12985,-520,-1032,1528,49,39,1
12990,-520,-1032,1560,50,40,1
12995,-504,-1024,1528,50,39,1
13000,-520,-1024,1560,49,41,0
13005,-512,-1024,1552,49,40,0
13010,-520,-1024,1536,48,39,1
13015,-504,-1032,1544,49,41,0
13020,-520,-1024,1584,50,41,1
13025,-504,-1032,1536,50,41,1
13030,-488,-1056,1552,50,41,0
13035,-520,-1024,1520,48,42,-1
13040,-528,-1016,1560,48,44,-1
13045,-520,-1016,1552,48,44,0
13050,-504,-1032,1552,49,46,2
13055,-520,-1032,1552,47,48,3
13060,-512,-1040,1552,47,51,1
13065,-528,-1040,1544,49,51,1
13070,-496,-1040,1520,49,53,0
13075,-528,-1024,1552,51,52,2
13080,-528,-1024,1560,50,52,4
13085,-520,-992,1560,50,52,2
13090,-528,-1000,1520,48,51,3
13095,-536,-1016,1544,46,50,3
13100,-520,-1016,1528,43,51,2
13105,-528,-1016,1552,41,49,0
13110,-544,-1016,1528,41,48,1
13115,-536,-1016,1528,39,45,0
13120,-544,-1000,1552,39,43,0
13125,-528,-992,1560,39,41,-2
13130,-560,-1016,1544,40,39,-1
13135,-520,-1016,1544,39,38,-2
13140,-536,-1008,1544,40,36,0
13145,-536,-1024,1536,43,36,0
13150,-528,-1024,1560,48,35,-2
13155,-536,-1024,1576,53,33,-2
13160,-528,-1040,1544,60,32,-5
13165,-528,-1032,1512,65,31,-7
13170,-544,-1024,1488,70,30,-8
13175,-520,-1040,1536,72,29,-9
13180,-528,-1008,1520,72,27,-12
13185,-568,-1024,1512,68,28,-13
13190,-544,-1040,1528,64,29,-12
13195,-544,-1032,1536,58,29,-13
13200,-560,-1032,1504,53,30,-12
13205,-528,-1048,1528,47,30,-12
13210,-544,-1032,1520,47,33,-7
13215,-552,-1032,1536,49,37,-6
13220,-544,-1024,1544,50,38,-4
13225,-544,-1008,1544,50,39,-1
13230,-552,-1008,1512,51,40,2
13235,-544,-1008,1536,52,39,3
13240,-544,-1008,1528,52,39,5
13245,-528,-1024,1520,50,38,4
13250,-536,-1040,1536,48,36,4
13255,-536,-1032,1544,45,33,4
13260,-528,-1024,1536,43,30,5
13265,-528,-1024,1552,40,29,6
13270,-536,-1024,1576,37,26,7
13275,-536,-1016,1536,34,26,6
13280,-528,-1024,1568,32,26,7
13285,-536,-1016,1544,29,26,8
13290,-520,-1040,1560,27,25,7
13295,-544,-1016,1544,24,24,5
13300,-528,-1040,1544,25,23,5
13305,-544,-1008,1560,26,23,3
13310,-544,-1024,1520,26,23,3
13315,-536,-1024,1528,27,26,1
13320,-520,-1024,1520,29,26,0
13325,-536,-1024,1528,32,26,-3
13330,-544,-1016,1512,33,28,-3
13335,-544,-1024,1528,37,28,-4
13340,-544,-1024,1528,39,29,-5
13345,-544,-1016,1520,40,30,-6
13350,-520,-1016,1520,41,32,-5
13355,-544,-992,1520,43,33,-6
13360,-512,-1008,1512,42,32,-6
13365,-552,-1008,1504,45,33,-5
13370,-528,-1008,1560,46,32,-6
13375,-544,-1000,1536,47,30,-7
13380,-536,-1016,1512,46,29,-7
13385,-544,-1016,1528,47,27,-8
13390,-528,-1016,1544,47,26,-8
13395,-528,-1016,1528,48,24,-9
13400,-552,-1024,1528,49,22,-10
13405,-544,-1016,1528,49,18,-10
13410,-544,-1000,1552,49,18,-11
13415,-496,-1024,1528,50,18,-11
13420,-544,-1024,1528,52,17,-13
13425,-528,-1024,1496,52,15,-15
13430,-536,-1024,1512,51,13,-13
13435,-520,-1032,1536,51,12,-15
13440,-528,-1024,1528,52,10,-16
13445,-536,-1016,1536,52,10,-16
13450,-512,-1016,1520,52,10,-17
13455,-528,-1016,1560,53,11,-16
13460,-536,-1008,1520,53,11,-18
13465,-504,-1016,1552,54,12,-18
13470,-560,-1016,1496,57,13,-17
13475,-536,-1016,1504,59,13,-18
13480,-536,-1032,1488,63,12,-18
13485,-528,-1040,1504,65,13,-16
13490,-536,-1016,1528,67,14,-16
13495,-536,-1024,1520,69,11,-17
13500,-536,-1032,1544,70,9,-18
13505,-528,-1032,1560,69,9,-19
13510,-520,-1032,1544,69,7,-21
13515,-520,-1024,1528,68,3,-21
13520,-536,-1024,1504,69,2,-22
13525,-512,-1040,1560,71,1,-21
13530,-536,-1016,1520,71,0,-22
13535,-536,-1024,1560,71,0,-23
13540,-528,-1024,1536,71,1,-23
13545,-528,-1008,1536,68,0,-23
13550,-544,-1024,1528,67,-1,-22
13555,-544,-1024,1552,66,-1,-21
13560,-544,-1032,1520,64,-1,-21
13565,-536,-1024,1552,63,-3,-20
13570,-528,-1024,1528,63,-1,-19
13575,-536,-1016,1568,64,-1,-20
13580,-552,-1024,1536,64,-1,-20
13585,-536,-1016,1560,64,-1,-19
13590,-528,-1032,1520,65,1,-20
13595,-536,-1008,1576,66,2,-20
13600,-544,-1024,1568,65,4,-18
13605,-536,-1008,1560,66,6,-17
13610,-544,-1032,1528,66,8,-18
13615,-544,-1008,1552,67,9,-15
13620,-544,-1024,1552,66,6,-16
13625,-536,-1032,1592,64,5,-15
13630,-528,-1024,1552,63,3,-17
13635,-584,-1024,1560,62,2,-16
13640,-552,-1016,1536,61,-2,-15
13645,-544,-1024,1568,59,-5,-16
13650,-536,-1016,1528,60,-6,-17
13655,-544,-1016,1544,60,-8,-17
13660,-536,-1024,1512,58,-10,-17
13665,-544,-1024,1536,56,-13,-16
13670,-536,-1000,1536,54,-12,-16
13675,-544,-1000,1520,52,-13,-16
13680,-544,-1032,1576,50,-13,-15
13685,-544,-1016,1544,48,-14,-16
13690,-528,-1024,1520,48,-16,-16
13695,-520,-1032,1504,46,-15,-15
13700,-544,-984,1544,45,-15,-15
13705,-488,-1032,1520,43,-15,-18
13710,-528,-1000,1568,41,-14,-18
13715,-528,-1024,1528,41,-13,-19
13720,-536,-1008,1544,41,-12,-18
13725,-560,-1016,1528,41,-11,-19
13730,-544,-1000,1560,41,-13,-17
13735,-520,-1032,1528,41,-10,-17
13740,-520,-1024,1520,40,-7,-16
13745,-504,-1008,1592,42,-6,-18
13750,-504,-1032,1544,43,-5,-16
13755,-520,-1016,1536,46,-5,-16
13760,-520,-1024,1528,47,-3,-17
13765,-528,-1040,1528,49,-1,-18
13770,-528,-1024,1536,52,-1,-17
13775,-496,-1024,1568,53,-2,-19
13780,-536,-1024,1520,56,-2,-18
13785,-536,-1032,1536,58,0,-20
13790,-528,-1040,1560,61,1,-21
13795,-536,-1032,1496,62,1,-21
13800,-520,-1024,1576,65,1,-21
13805,-512,-1048,1536,67,2,-22
13810,-520,-1040,1544,68,3,-20
13815,-536,-1032,1536,70,4,-20
13820,-520,-1032,1552,72,3,-22
13825,-544,-1016,1544,70,4,-20
13830,-512,-1024,1528,71,5,-20
13835,-504,-1032,1512,70,6,-17
13840,-512,-1024,1528,71,6,-17
13845,-520,-1032,1552,68,7,-17
13850,-480,-1016,1520,68,6,-16
13855,-528,-1008,1536,66,6,-16
13860,-536,-1016,1536,65,7,-14
13865,-504,-1008,1528,62,7,-14
13870,-536,-1016,1552,58,8,-15
13875,-504,-1024,1552,56,9,-15
13880,-536,-1024,1544,54,10,-14
13885,-528,-1008,1552,52,9,-14
13890,-528,-1024,1552,50,8,-15
13895,-528,-1016,1536,49,8,-15
13900,-488,-1024,1552,50,8,-16
13905,-472,-992,1600,49,9,-14
13910,-536,-1016,1552,48,8,-15
13915,-552,-1008,1520,47,9,-14
13920,-528,-1024,1560,49,9,-14
13925,-544,-1016,1552,52,8,-13
13930,-536,-1024,1560,55,7,-16
13935,-520,-1016,1528,59,8,-16
13940,-536,-1024,1528,62,8,-16
13945,-536,-1008,1544,65,8,-17
13950,-544,-1016,1512,65,7,-16
13955,-528,-1008,1504,66,6,-16
13960,-544,-1016,1544,63,4,-16
13965,-520,-1040,1560,61,5,-17
13970,-528,-1008,1552,60,4,-17
13975,-520,-1040,1560,56,5,-16
13980,-512,-1032,1536,53,9,-15
13985,-536,-1032,1560,54,10,-13
13990,-536,-1032,1560,54,11,-12
13995,-536,-1008,1544,56,11,-10
14000,-528,-1024,1592,60,14,-11
14005,-520,-1024,1536,64,14,-11
14010,-544,-1000,1560,67,12,-9
14015,-520,-936,1472,67,11,-11
14020,-512,-1008,1552,67,8,-11
14025,-536,-1008,1536,67,5,-10
14030,-520,-1016,1552,66,4,-11
14035,-504,-1000,1536,64,0,-12
14040,-520,-1008,1544,62,-2,-11
14045,-496,-1032,1544,61,-4,-11
14050,-512,-1008,1600,58,-4,-10
14055,-528,-1024,1568,55,-5,-10
14060,-528,-1000,1560,54,-3,-9
14065,-520,-1016,1544,48,-4,-11
14070,-504,-1072,1544,46,-4,-10
14075,-512,-1016,1560,44,-4,-11
14080,-496,-1032,1544,44,-5,-11
14085,-504,-1008,1536,44,-6,-12
14090,-520,-1008,1528,44,-7,-13
14095,-520,-1024,1568,45,-7,-15
14100,-504,-1032,1528,48,-6,-18
14105,-536,-1008,1552,48,-7,-17
14110,-488,-1040,1552,49,-8,-18
14115,-512,-1024,1544,50,-6,-19
14120,-504,-1048,1528,52,-6,-20
14125,-520,-1040,1600,53,-3,-19
14130,-520,-1024,1568,54,-2,-18
14135,-520,-1024,1552,56,-1,-19
14140,-520,-1024,1552,58,-1,-17
14145,-528,-1016,1544,58,-1,-19
14150,-520,-1032,1536,58,0,-19
14155,-504,-1016,1544,58,1,-20
14160,-520,-1024,1552,59,2,-18
14165,-520,-1024,1536,60,2,-17
14170,-504,-1016,1544,58,2,-18
14175,-512,-992,1568,58,2,-17
14180,-512,-1040,1560,58,1,-16
14185,-504,-1032,1568,57,2,-14
14190,-512,-1008,1560,57,-1,-16
14195,-512,-1016,1552,55,-1,-16
14200,-536,-1024,1544,55,-1,-17
14205,-512,-1016,1560,52,-1,-16
14210,-512,-992,1568,51,-2,-16
14215,-488,-1024,1536,49,-4,-17
14220,-536,-992,1536,46,-4,-19
14225,-496,-1016,1544,44,-5,-16
14230,-504,-1000,1576,42,-5,-17
14235,-536,-1024,1520,42,-5,-18
14240,-504,-1024,1520,41,-5,-17
14245,-528,-1008,1576,41,-5,-16
14250,-496,-1048,1536,41,-4,-16
14255,-512,-1016,1560,41,-4,-16
14260,-536,-1024,1528,44,-2,-15
14265,-504,-1024,1512,46,-3,-16
14270,-512,-1016,1552,47,-3,-16
14275,-512,-1032,1552,49,-2,-15
14280,-520,-1024,1560,51,-2,-15
14285,-536,-1008,1568,52,-2,-13
14290,-504,-1024,1544,53,-1,-13
14295,-512,-1032,1584,54,-1,-14
14300,-512,-1016,1536,55,-1,-14
14305,-520,-1032,1568,55,0,-14
14310,-512,-1032,1552,54,0,-13
14315,-512,-1008,1544,54,1,-13
14320,-488,-1024,1576,55,0,-12
14325,-512,-1000,1544,54,2,-13
14330,-504,-1032,1536,51,3,-14
14335,-464,-1048,1528,50,4,-11
14340,-528,-1040,1504,49,6,-13
14345,-488,-1032,1544,50,6,-11
14350,-520,-1016,1560,49,4,-12
14355,-512,-1032,1552,48,5,-11
14360,-496,-1024,1544,47,6,-10
14365,-504,-1032,1552,47,5,-11
14370,-504,-1016,1560,47,5,-11
14375,-504,-1024,1536,48,5,-10
14380,-488,-1040,1560,49,7,-13
14385,-496,-1032,1592,50,8,-12
14390,-512,-1016,1544,49,7,-12
14395,-512,-1048,1576,49,9,-10
14400,-520,-1016,1568,49,10,-10
14405,-512,-1024,1560,49,9,-9
14410,-512,-1024,1536,48,10,-10
14415,-504,-1024,1544,48,11,-11
14420,-520,-1024,1576,48,12,-10
14425,-504,-1032,1536,47,12,-9
14430,-520,-1016,1568,46,13,-9
14435,-504,-1040,1592,46,13,-9
14440,-520,-984,1560,46,13,-9
14445,-536,-1016,1552,46,14,-10
14450,-536,-952,1560,45,16,-10
14455,-520,-1008,1544,46,14,-9
14460,-504,-1008,1560,45,15,-9
14465,-496,-1016,1552,44,14,-8
14470,-496,-1016,1560,43,14,-11
14475,-528,-1024,1544,42,13,-10
14480,-512,-1016,1560,42,14,-9
14485,-504,-1016,1568,42,15,-8
14490,-512,-1048,1552,41,17,-9
14495,-488,-1032,1576,43,18,-10
14500,-504,-1016,1552,42,16,-9
14505,-528,-1016,1568,43,15,-9
14510,-512,-1008,1552,43,17,-7
14515,-496,-1016,1544,43,16,-7
14520,-512,-1016,1560,44,16,-10
14525,-512,-1008,1568,44,16,-10
14530,-480,-1032,1568,44,16,-9
14535,-496,-1024,1536,45,16,-7
14540,-496,-1016,1520,45,17,-8
14545,-496,-1032,1536,46,16,-7
14550,-512,-1008,1536,49,16,-8
14555,-528,-1048,1536,49,17,-7
14560,-520,-1072,1536,48,17,-7
14565,-512,-1024,1560,48,16,-8
14570,-504,-1032,1552,47,15,-8
14575,-512,-1024,1568,46,17,-8
14580,-512,-1016,1576,46,15,-9
14585,-496,-1032,1544,45,15,-8
14590,-504,-1008,1544,45,16,-7
14595,-520,-1024,1560,45,17,-8
14600,-496,-1016,1552,47,17,-9
14605,-496,-1032,1520,46,18,-9
14610,-488,-1024,1544,45,17,-10
14615,-528,-1064,1552,46,16,-10
14620,-504,-1024,1568,47,16,-9
14625,-496,-1024,1536,47,15,-11
14630,-528,-1000,1544,48,15,-9
14635,-520,-1016,1552,49,14,-10
14640,-504,-1024,1592,50,14,-10
14645,-496,-1024,1560,50,13,-10
14650,-504,-1032,1560,50,14,-10
14655,-512,-1000,1528,51,15,-12
14660,-520,-1000,1544,51,16,-10
14665,-504,-1024,1536,50,16,-10
14670,-528,-1008,1544,52,16,-9
14675,-504,-1016,1544,52,13,-9
14680,-496,-1016,1528,51,15,-8
14685,-496,-1016,1576,49,15,-7
14690,-528,-1008,1552,47,17,-8
14695,-504,-1000,1560,46,18,-7
14700,-512,-1016,1552,43,17,-6
14705,-512,-1016,1568,43,16,-7
14710,-504,-1032,1504,40,16,-5
14715,-496,-1016,1584,38,15,-6
14720,-512,-1032,1536,37,12,-8
14725,-512,-1048,1560,38,12,-8
14730,-496,-1024,1536,39,10,-9
14735,-512,-1008,1520,41,10,-11
14740,-488,-1032,1544,43,10,-10
14745,-512,-1024,1568,48,8,-10
14750,-528,-1016,1568,52,8,-12
14755,-496,-1024,1560,58,7,-13
14760,-504,-1024,1536,63,9,-15
14765,-520,-1024,1536,68,8,-17
14770,-528,-1024,1512,73,7,-19
14775,-488,-1016,1528,77,6,-21
14780,-520,-1008,1512,82,6,-21
14785,-520,-1032,1552,85,3,-23
14790,-520,-1024,1544,86,3,-23
14795,-512,-1040,1568,88,3,-21
14800,-504,-1024,1568,90,4,-21
14805,-488,-1048,1544,91,8,-18
14810,-504,-1024,1552,93,11,-15
14815,-512,-1056,1528,95,14,-13
14820,-512,-1032,1560,98,15,-11
14825,-504,-1032,1576,101,16,-10
14830,-496,-968,1528,106,16,-10
14835,-512,-1016,1552,106,15,-10
14840,-504,-1016,1568,106,15,-9
14845,-512,-1008,1544,106,15,-7
14850,-520,-1008,1560,107,12,-9
14855,-504,-1016,1552,109,9,-9
14860,-520,-1000,1552,106,8,-7
14865,-528,-992,1520,104,5,-8
14870,-512,-1000,1592,101,6,-6
14875,-496,-1024,1568,98,4,-8
14880,-512,-992,1568,94,5,-7
14885,-488,-1008,1552,88,5,-4
14890,-504,-1016,1568,80,6,-4
14895,-512,-1000,1568,73,2,-4
14900,-504,-1000,1560,67,1,-5
14905,-488,-1024,1560,59,0,-7
14910,-488,-1016,1592,52,-1,-6
14915,-504,-1016,1560,46,-3,-6
14920,-464,-1032,1568,44,-5,-8
14925,-496,-984,1560,43,-5,-9
14930,-520,-1008,1552,44,-6,-10
14935,-504,-1016,1560,46,-4,-11
14940,-512,-1000,1584,48,-3,-15
14945,-496,-1000,1576,50,-4,-15
14950,-504,-1008,1560,52,-2,-14
14955,-504,-1024,1584,52,1,-15
14960,-504,-984,1552,52,3,-15
14965,-504,-1024,1576,51,5,-16
14970,-488,-1000,1544,50,5,-16
14975,-496,-1000,1560,48,5,-17
14980,-512,-992,1576,46,6,-16
14985,-496,-992,1560,45,6,-15
14990,-496,-1016,1568,43,6,-14
14995,-480,-1016,1552,40,8,-13
