timestamp,accel_x,accel_y,accel_z,gyro_x,gyro_y,gyro_z
0,136,-2024,-240,5,72,-1
5,136,-2024,-232,4,72,0
10,144,-2032,-216,3,74,1
15,136,-2032,-256,6,75,0
20,128,-2024,-248,7,77,0
25,168,-2040,-256,9,77,1
30,136,-2032,-232,12,77,1
35,160,-2056,-248,13,79,2
40,136,-2008,-224,15,76,2
45,136,-2040,-240,15,75,3
50,152,-2056,-256,16,74,2
55,152,-2040,-208,17,74,1
60,152,-2040,-248,16,73,-1
65,160,-2024,-216,14,73,1
70,144,-2024,-248,13,74,0
75,136,-2048,-264,13,74,0
80,128,-2024,-216,12,74,0
85,128,-2040,-256,15,73,-1
90,128,-2024,-232,16,74,0
95,128,-2024,-256,19,76,-1
100,152,-2032,-224,21,76,0
105,144,-2048,-224,22,77,-1
110,152,-2048,-248,22,77,-2
115,144,-2016,-224,22,75,-1
120,160,-2040,-248,22,75,-1
125,152,-2024,-256,22,76,-3
130,136,-2016,-232,22,77,-4
135,144,-2032,-224,21,78,-5
140,136,-2032,-216,18,75,-6
145,168,-2048,-248,16,75,-7
150,136,-2056,-216,16,74,-8
155,168,-2040,-248,16,72,-10
160,152,-2048,-232,16,72,-10
165,136,-2048,-264,17,72,-11
170,144,-2016,-216,16,72,-10
175,120,-2008,-216,14,71,-10
180,160,-2040,-240,15,70,-11
185,144,-2040,-232,14,69,-10
190,128,-2008,-200,15,68,-10
195,160,-2048,-216,17,68,-8
200,136,-2024,-216,18,68,-8
205,152,-2056,-216,17,68,-8
210,144,-2024,-256,17,67,-9
215,152,-2032,-224,18,68,-9
220,144,-2032,-232,18,68,-8
225,144,-2024,-208,19,66,-8
230,152,-2040,-224,18,66,-9
235,160,-2032,-240,18,67,-8
240,152,-2016,-256,17,67,-8
245,152,-2040,-208,15,69,-10
250,144,-2048,-216,13,69,-8
255,152,-2080,-216,13,71,-9
260,160,-2056,-208,13,70,-9
265,160,-2048,-184,13,70,-8
270,136,-2032,-224,15,70,-6
275,144,-2056,-184,16,68,-4
280,152,-2024,-208,17,69,-4
285,176,-2024,-208,17,69,-3
290,152,-2000,-216,16,68,-2
295,144,-2016,-216,15,69,-2
300,176,-2024,-224,15,67,-3
305,176,-2016,-232,14,68,-3
310,160,-2016,-232,12,67,-3
315,176,-2032,-200,11,65,-6
320,144,-2032,-224,11,66,-7
325,144,-2032,-216,12,65,-9
330,152,-2032,-224,12,66,-10
335,168,-2056,-184,14,68,-10
340,152,-2056,-208,13,69,-10
345,160,-2056,-192,12,71,-11
350,176,-2080,-232,13,72,-10
355,168,-2056,-216,16,71,-9
360,160,-2056,-224,18,69,-7
365,136,-2024,-232,20,68,-8
370,152,-2032,-224,22,68,-6
375,160,-2040,-224,21,67,-4
380,160,-2056,-240,20,68,-4
385,136,-2024,-248,19,69,-3
390,176,-2048,-224,17,69,-3
395,128,-2032,-200,17,69,-2
400,168,-2040,-216,17,69,-3
405,176,-2016,-216,17,69,-2
410,160,-2024,-208,19,69,-2
415,168,-2048,-216,19,70,-2
420,152,-2048,-208,20,71,-3
425,136,-2032,-176,21,73,-2
430,168,-2040,-200,21,74,-2
435,144,-2040,-208,21,76,-1
440,176,-2024,-200,20,77,0
445,144,-2016,-200,20,77,-1
450,176,-2048,-192,21,76,1
455,168,-2024,-200,19,78,0
460,144,-2016,-216,19,78,-1
465,168,-2016,-208,16,77,2
470,152,-2032,-192,15,77,1
475,168,-2032,-184,14,76,-1
480,152,-2008,-176,13,76,-1
485,144,-2040,-200,12,74,-1
490,144,-2032,-208,11,73,-1
495,152,-2032,-208,9,73,0
500,160,-2040,-216,6,70,-1
505,152,-2016,-208,6,68,-2
510,168,-2048,-184,5,69,-2
515,152,-2032,-200,5,67,-2
520,160,-2024,-200,6,66,-2
525,168,-2032,-216,10,67,-2
530,160,-2032,-200,11,68,-1
535,144,-2048,-192,13,68,0
540,152,-2072,-184,14,70,0
545,168,-2064,-176,17,69,-1
550,160,-2080,-208,18,71,-2
555,160,-2080,-176,17,68,-1
560,144,-1992,-208,18,68,-3
565,160,-2048,-200,19,68,-2
570,144,-2040,-200,17,67,-2
575,160,-2024,-176,18,66,-3
580,168,-2032,-224,16,64,-3
585,136,-2040,-176,12,64,-5
590,136,-2032,-200,8,63,-4
595,152,-2024,-192,4,62,-6
600,144,-2008,-192,1,61,-5
605,144,-2008,-200,-1,60,-5
610,144,-2008,-200,-4,60,-5
615,176,-2032,-184,-8,61,-7
620,160,-2024,-192,-11,62,-6
625,176,-2056,-192,-13,63,-7
630,128,-2016,-176,-13,64,-7
635,144,-2032,-176,-15,63,-7
640,144,-2024,-200,-18,63,-8
645,184,-2040,-216,-18,63,-8
650,144,-2056,-184,-20,62,-9
655,136,-2040,-176,-19,62,-9
660,160,-2024,-176,-20,62,-9
665,168,-2048,-200,-24,63,-8
670,128,-2024,-208,-25,62,-9
675,184,-2024,-144,-28,64,-9
680,136,-2032,-192,-30,63,-10
685,136,-2016,-208,-32,64,-9
690,136,-2024,-216,-32,65,-10
695,168,-2048,-208,-33,65,-9
700,152,-2024,-200,-33,66,-10
705,168,-2032,-208,-35,67,-10
710,144,-2048,-192,-35,68,-9
715,168,-2024,-192,-33,68,-9
720,144,-2040,-240,-33,68,-9
725,160,-2040,-200,-32,68,-7
730,152,-1968,-232,-31,71,-9
735,160,-2032,-216,-30,72,-9
740,160,-2048,-224,-30,72,-10
745,136,-2032,-192,-31,73,-11
750,176,-2024,-224,-31,71,-11
755,168,-2048,-184,-30,70,-11
760,144,-2040,-216,-30,72,-12
765,144,-2016,-200,-31,72,-12
770,160,-2024,-232,-33,72,-13
775,152,-2016,-192,-34,74,-14
780,160,-2032,-216,-36,73,-14
785,160,-2088,-248,-35,74,-15
790,136,-2016,-216,-36,72,-15
795,152,-2032,-184,-37,74,-14
800,144,-2016,-208,-39,75,-16
805,152,-2032,-224,-39,78,-15
810,160,-2016,-208,-40,81,-14
815,184,-2040,-208,-41,83,-13
820,136,-2048,-208,-44,83,-15
825,168,-2048,-216,-44,83,-15
830,168,-2048,-176,-45,80,-15
835,152,-2024,-216,-46,77,-15
840,168,-2072,-216,-47,75,-14
845,152,-2040,-176,-45,74,-16
850,168,-2064,-200,-44,71,-17
855,152,-2056,-208,-43,69,-17
860,152,-2032,-176,-42,68,-18
865,152,-2080,-232,-43,69,-19
870,144,-2064,-192,-40,71,-18
875,184,-2072,-200,-39,70,-19
880,160,-2048,-200,-37,71,-18
885,160,-2032,-168,-38,71,-19
890,160,-2048,-160,-37,71,-19
895,120,-2048,-160,-37,72,-20
900,160,-2048,-184,-36,72,-18
905,176,-2040,-160,-36,71,-16
910,168,-2040,-160,-36,71,-17
915,168,-2048,-200,-35,70,-17
920,176,-2032,-208,-34,71,-16
925,168,-2040,-200,-32,71,-15
930,152,-2032,-216,-31,71,-14
935,184,-2048,-200,-28,72,-15
940,168,-2048,-192,-27,73,-13
945,168,-2064,-176,-26,72,-15
950,176,-2056,-184,-25,72,-14
955,176,-2040,-200,-25,71,-17
960,136,-2056,-192,-26,70,-14
965,144,-2032,-184,-28,69,-14
970,152,-2056,-160,-31,67,-15
975,184,-2048,-184,-33,65,-14
980,184,-2048,-192,-34,64,-14
985,184,-2016,-176,-34,63,-14
990,160,-2024,-200,-36,61,-15
995,152,-2008,-200,-38,61,-12
1000,160,-2000,-208,-41,61,-14
1005,144,-1968,-200,-41,61,-14
1010,144,-2016,-192,-42,62,-12
1015,160,-2016,-208,-43,62,-13
1020,160,-2048,-224,-45,61,-11
1025,176,-2032,-224,-47,61,-12
1030,176,-2040,-240,-46,62,-13
1035,176,-2040,-224,-47,63,-11
1040,160,-2024,-240,-47,64,-11
1045,168,-2080,-232,-47,65,-9
1050,160,-2048,-208,-48,65,-9
1055,160,-2040,-216,-47,63,-10
1060,168,-2064,-232,-48,63,-8
1065,176,-2024,-240,-48,63,-8
1070,160,-2048,-224,-49,63,-7
1075,176,-2048,-216,-50,64,-7
1080,160,-2016,-264,-50,64,-7
1085,144,-2008,-232,-51,65,-8
1090,152,-2032,-224,-51,64,-9
1095,168,-2008,-256,-50,64,-8
1100,168,-2032,-256,-50,65,-7
1105,176,-2032,-208,-46,65,-7
1110,152,-2080,-216,-43,66,-6
1115,176,-2000,-232,-41,65,-5
1120,168,-2016,-248,-38,64,-5
1125,152,-2016,-256,-37,63,-5
1130,168,-2008,-216,-35,63,-6
1135,160,-2016,-256,-35,62,-7
1140,176,-2032,-200,-32,62,-8
1145,144,-2048,-248,-33,60,-10
1150,160,-2016,-264,-33,60,-12
1155,152,-2048,-264,-32,60,-14
1160,152,-2032,-232,-32,61,-14
1165,168,-2048,-232,-34,63,-15
1170,144,-2048,-240,-35,63,-16
1175,168,-2072,-224,-36,65,-15
1180,168,-2032,-216,-38,66,-13
1185,152,-2056,-224,-35,66,-12
1190,176,-2072,-208,-34,67,-10
1195,168,-2056,-248,-33,65,-10
1200,168,-2040,-248,-31,65,-9
1205,152,-2056,-224,-28,63,-7
1210,168,-2016,-208,-28,63,-7
1215,160,-2032,-256,-29,60,-5
1220,184,-2048,-232,-28,61,-4
1225,168,-2016,-240,-29,61,-5
1230,160,-2024,-240,-32,61,-4
1235,192,-2032,-248,-34,62,-5
1240,160,-2000,-264,-34,62,-4
1245,176,-2040,-240,-34,61,-5
1250,168,-2024,-264,-33,61,-7
1255,160,-2024,-248,-32,66,-7
1260,144,-2024,-224,-29,66,-8
1265,152,-2032,-240,-25,67,-8
1270,168,-2040,-224,-22,69,-9
1275,152,-2024,-192,-21,70,-7
1280,144,-2024,-216,-19,70,-6
1285,176,-2016,-240,-19,70,-8
1290,160,-2000,-256,-19,70,-5
1295,184,-2000,-240,-18,70,-5
1300,176,-2016,-232,-19,70,-6
1305,160,-2040,-224,-20,70,-7
1310,176,-2016,-256,-19,68,-5
1315,176,-2032,-240,-19,66,-6
1320,168,-2016,-256,-20,66,-7
1325,192,-2048,-264,-20,65,-7
1330,152,-2024,-224,-20,63,-8
1335,192,-2048,-248,-18,63,-8
1340,160,-2024,-272,-20,62,-6
1345,168,-2016,-216,-19,62,-6
1350,184,-2048,-248,-19,62,-7
1355,128,-2024,-264,-20,61,-8
1360,160,-2024,-248,-20,62,-9
1365,160,-2024,-240,-18,62,-9
1370,192,-2032,-208,-18,64,-8
1375,160,-2024,-256,-18,64,-8
1380,168,-2032,-240,-18,65,-7
1385,176,-2048,-264,-15,65,-7
1390,184,-2040,-248,-12,68,-7
1395,176,-2040,-240,-10,69,-6
1400,152,-2024,-264,-7,68,-5
1405,176,-2056,-248,-8,69,-5
1410,168,-2024,-224,-8,68,-5
1415,176,-2032,-248,-7,69,-6
1420,160,-2032,-240,-8,69,-7
1425,160,-2024,-272,-9,70,-5
1430,168,-2032,-264,-10,69,-8
1435,176,-2032,-248,-7,70,-8
1440,192,-2064,-216,-6,70,-7
1445,176,-2040,-240,-6,70,-7
1450,192,-2048,-264,-6,71,-6
1455,184,-2040,-240,-6,71,-7
1460,176,-2056,-264,-5,70,-6
1465,168,-2064,-264,-6,69,-7
1470,168,-2040,-256,-7,68,-5
1475,160,-2040,-224,-6,69,-4
1480,160,-2048,-240,-6,70,-6
1485,168,-2040,-224,-8,70,-5
1490,216,-2048,-232,-10,71,-6
1495,176,-2032,-232,-9,71,-6
1500,160,-2040,-240,-9,71,-7
1505,152,-2040,-232,-6,71,-6
1510,152,-2048,-224,-6,70,-7
1515,168,-2048,-232,-5,73,-6
1520,152,-2040,-256,-4,74,-5
1525,160,-2016,-256,-3,73,-4
1530,184,-2040,-232,-1,73,-3
1535,176,-2016,-192,0,72,-3
1540,168,-2040,-208,2,71,-5
1545,192,-2040,-240,2,71,-4
1550,160,-2032,-200,4,72,-3
1555,152,-2040,-224,3,72,-4
1560,160,-2048,-280,3,72,-4
1565,168,-2040,-224,3,73,-5
1570,176,-2048,-216,4,73,-6
1575,160,-2024,-256,4,73,-5
1580,184,-2032,-216,2,71,-5
1585,176,-2032,-240,3,71,-4
1590,168,-2024,-224,2,71,-5
1595,176,-2040,-224,3,72,-4
1600,184,-2040,-240,4,72,-5
1605,168,-2032,-232,3,71,-6
1610,168,-2016,-248,5,71,-4
1615,184,-2048,-216,7,71,-3
1620,184,-2024,-208,7,71,-4
1625,192,-2048,-248,8,71,-5
1630,192,-2048,-240,9,70,-5
1635,176,-2040,-256,10,71,-5
1640,200,-2040,-232,11,72,-4
1645,168,-2024,-200,12,71,-3
1650,112,-2040,-264,11,70,0
1655,168,-2056,-224,12,71,-1
1660,152,-2032,-208,15,71,-2
1665,176,-2048,-200,17,71,-2
1670,168,-2040,-248,19,71,-1
1675,184,-2040,-240,18,68,-1
1680,168,-2024,-200,19,70,-1
1685,152,-2040,-240,18,68,-1
1690,184,-2040,-200,17,68,0
1695,176,-2056,-264,16,69,-1
1700,152,-2016,-256,16,69,0
1705,168,-2032,-264,14,69,-1
1710,176,-2032,-240,14,71,-2
1715,144,-2032,-232,12,71,-2
1720,184,-2040,-208,10,73,-2
1725,168,-2048,-192,10,72,-1
1730,152,-2016,-256,10,72,-1
1735,160,-2024,-216,9,72,-2
1740,160,-2040,-208,8,70,0
1745,168,-2056,-200,8,71,1
1750,152,-2048,-184,8,69,0
1755,168,-2040,-216,10,69,0
1760,152,-2040,-224,12,68,-1
1765,160,-2024,-240,15,68,-1
1770,168,-2048,-240,17,68,0
1775,176,-2056,-216,19,69,1
1780,144,-2024,-216,22,69,-1
1785,160,-2056,-248,24,67,-1
1790,160,-2032,-216,28,69,-2
1795,160,-2032,-224,28,70,-1
1800,176,-2040,-240,30,71,0
1805,160,-2016,-208,30,72,-1
1810,160,-2008,-216,28,73,1
1815,184,-2040,-216,29,73,2
1820,176,-2048,-248,26,72,2
1825,184,-2024,-200,25,73,0
1830,160,-2032,-240,23,71,1
1835,168,-2016,-208,23,71,1
1840,200,-2048,-216,23,70,1
1845,184,-2016,-184,23,69,0
1850,152,-2032,-240,22,70,1
1855,168,-2048,-232,21,70,0
1860,168,-2032,-232,20,72,2
1865,160,-2032,-200,18,71,1
1870,168,-2048,-216,18,71,0
1875,184,-2040,-184,17,72,1
1880,160,-2032,-240,19,72,2
1885,160,-2048,-208,21,74,2
1890,168,-2024,-240,22,75,5
1895,184,-2016,-240,26,76,6
1900,176,-2024,-232,29,75,6
1905,152,-2024,-208,29,74,8
1910,152,-2000,-200,31,73,6
1915,152,-2016,-208,32,71,4
1920,176,-2000,-176,33,71,5
1925,176,-2032,-224,32,71,0
1930,176,-2024,-200,31,73,-1
1935,160,-2048,-176,31,71,-3
1940,144,-2040,-208,30,73,-5
1945,160,-2064,-160,30,72,-7
1950,176,-2056,-216,32,72,-7
1955,168,-2072,-208,32,74,-7
1960,168,-2064,-176,32,76,-6
1965,136,-2040,-200,32,76,-5
1970,160,-2072,-168,33,78,-5
1975,152,-2056,-168,34,76,-3
1980,160,-2048,-192,36,75,-2
1985,168,-2016,-200,39,73,0
1990,176,-2032,-208,39,71,0
1995,168,-2016,-192,39,71,0
2000,152,-2016,-216,39,70,2
2005,184,-2016,-224,38,69,2
2010,176,-2016,-224,38,69,2
2015,176,-2040,-216,36,70,0
2020,176,-2016,-216,35,71,0
2025,152,-2048,-168,34,72,-2
2030,168,-2032,-200,34,74,-2
2035,160,-2056,-200,34,74,-3
2040,160,-2048,-184,34,76,-4
2045,168,-2072,-200,36,76,-4
2050,176,-2064,-168,36,75,-4
2055,160,-2032,-176,38,77,-1
2060,176,-2048,-192,40,77,-2
2065,160,-2032,-184,41,77,-1
2070,176,-1992,-168,41,76,-1
2075,168,-2016,-160,40,76,1
2080,176,-2016,-184,38,77,0
2085,160,-2016,-152,38,76,-1
2090,136,-2040,-192,38,74,-1
2095,200,-2048,-168,38,73,-1
2100,152,-2024,-192,38,71,-2
2105,144,-2016,-168,39,71,-3
2110,168,-2040,-208,39,69,-4
2115,168,-2048,-168,41,68,-5
2120,200,-2048,-176,42,67,-5
2125,176,-2048,-192,43,68,-8
2130,152,-2032,-176,42,67,-7
2135,192,-2040,-168,42,70,-5
2140,184,-2032,-176,42,71,-5
2145,144,-2032,-192,43,71,-5
2150,160,-2016,-176,44,70,-4
2155,176,-2040,-192,44,70,-3
2160,184,-2024,-176,45,71,-3
2165,152,-2016,-168,46,71,-4
2170,160,-2048,-168,47,71,-3
2175,160,-2024,-208,48,70,-1
2180,152,-2024,-160,49,70,-1
2185,160,-2024,-176,50,70,-1
2190,168,-2024,-160,50,70,-1
2195,168,-2056,-192,49,70,0
2200,152,-2072,-176,48,72,-1
2205,152,-2048,-176,46,72,-1
2210,176,-2048,-184,43,72,-3
2215,152,-2056,-168,44,75,-2
2220,168,-2072,-160,44,73,-1
2225,160,-2040,-160,45,75,-2
2230,176,-2056,-184,44,74,-2
2235,152,-2040,-160,45,76,0
2240,176,-2048,-152,45,75,1
2245,184,-2032,-160,44,75,0
2250,168,-2016,-176,46,74,1
2255,168,-2024,-168,45,74,2
2260,184,-2024,-152,45,74,2
2265,184,-2024,-168,45,74,0
2270,176,-2016,-168,46,74,0
2275,184,-2048,-160,45,75,0
2280,168,-2064,-160,45,76,-1
2285,168,-2032,-192,46,75,-1
2290,176,-2040,-160,45,76,-1
2295,144,-2000,-160,43,77,-1
2300,144,-2032,-144,42,77,-1
2305,168,-2040,-144,40,76,-1
2310,160,-2040,-168,39,76,1
2315,184,-2056,-160,38,76,0
2320,144,-2024,-160,36,77,0
2325,136,-2024,-192,35,77,0
2330,184,-2048,-160,33,77,2
2335,176,-2040,-152,30,79,1
2340,184,-2048,-152,30,79,2
2345,168,-2032,-152,29,79,2
2350,168,-2024,-152,28,78,1
2355,168,-2024,-144,28,79,1
2360,160,-2024,-160,27,78,0
2365,160,-2040,-144,29,79,-3
2370,168,-2032,-160,28,79,-1
2375,144,-2032,-168,29,77,-2
2380,160,-2032,-152,31,78,-4
2385,160,-2048,-128,32,75,-3
2390,176,-2040,-160,33,76,-4
2395,152,-2048,-152,33,76,-4
2400,176,-2056,-168,32,77,-4
2405,168,-2064,-144,32,76,-4
2410,152,-2024,-160,31,77,-3
2415,168,-2048,-120,30,77,-3
2420,152,-1992,-144,30,79,-3
2425,160,-2032,-192,29,80,-2
2430,176,-2056,-144,28,80,-2
2435,160,-2048,-152,28,80,-2
2440,144,-2032,-160,28,80,-2
2445,168,-2040,-152,28,80,-1
2450,152,-2024,-152,28,80,0
2455,176,-2040,-128,29,80,-2
2460,168,-2048,-160,31,78,0
2465,168,-2024,-112,32,78,1
2470,136,-2008,-152,34,78,-2
2475,168,-2040,-136,34,80,-3
2480,176,-2056,-128,36,80,-1
2485,192,-2064,-152,36,81,-3
2490,160,-2064,-128,36,79,-1
2495,160,-2048,-144,37,78,-3
2500,160,-2040,-136,37,77,-2
2505,168,-2056,-152,37,78,-2
2510,160,-2032,-144,36,76,-1
2515,168,-2056,-144,37,75,-1
2520,160,-2056,-96,37,75,-1
2525,176,-2064,-144,38,76,-1
2530,136,-2048,-136,37,76,-2
2535,160,-2040,-152,36,75,-2
2540,168,-2072,-152,37,75,-2
2545,152,-2072,-112,37,77,-2
2550,152,-2040,-144,37,76,-2
2555,144,-2048,-144,38,76,-1
2560,152,-2040,-120,39,75,-2
2565,136,-2032,-120,40,76,-2
2570,168,-2040,-128,40,76,-3
2575,184,-2056,-120,41,75,-3
2580,144,-2048,-136,41,75,-4
2585,192,-2048,-120,40,75,-4
2590,168,-2032,-120,40,76,-3
2595,168,-2048,-160,40,75,-2
2600,136,-2040,-136,42,76,-3
2605,168,-2048,-136,41,75,-3
2610,136,-2032,-128,41,75,-2
2615,152,-2048,-128,42,72,-2
2620,144,-2064,-120,41,73,-2
2625,176,-2032,-112,41,71,-2
2630,160,-2072,-136,40,70,-3
2635,176,-2056,-136,40,69,-4
2640,160,-2032,-128,40,71,-3
2645,176,-2056,-144,39,72,-2
2650,176,-2024,-136,39,72,-3
2655,168,-2040,-128,41,72,-4
2660,144,-2048,-96,43,73,-4
2665,168,-2040,-112,46,73,-3
2670,168,-2048,-128,48,73,-5
2675,168,-2040,-144,51,72,-5
2680,168,-2056,-120,50,72,-5
2685,160,-2056,-128,52,73,-5
2690,168,-2032,-120,52,72,-6
2695,168,-2016,-120,51,72,-4
2700,168,-2024,-128,51,73,-3
2705,168,-2024,-120,51,73,-3
2710,184,-2040,-128,50,72,-4
2715,168,-2008,-112,50,71,-4
2720,176,-2056,-136,50,70,-3
2725,176,-2040,-120,49,71,-4
2730,184,-2032,-120,50,72,-4
2735,184,-2008,-152,49,71,-5
2740,176,-2032,-112,48,73,-5
2745,176,-2032,-128,45,73,-4
2750,168,-2040,-128,44,73,-4
2755,168,-2056,-104,42,73,-4
2760,136,-2040,-112,41,74,-3
2765,160,-2048,-112,41,76,-2
2770,152,-2024,-128,43,75,0
2775,152,-2040,-104,45,77,1
2780,168,-2040,-120,47,79,1
2785,176,-2032,-80,49,78,2
2790,152,-2040,-112,50,80,2
2795,168,-2032,-120,53,78,0
2800,160,-2016,-120,54,77,-1
2805,168,-2024,-128,55,77,0
2810,168,-2016,-96,56,76,-2
2815,168,-2032,-112,55,76,-3
2820,168,-2048,-104,55,77,-5
2825,176,-2056,-112,56,76,-8
2830,168,-2048,-136,58,77,-10
2835,152,-2056,-96,58,75,-11
2840,168,-2056,-96,60,78,-11
2845,176,-2064,-72,64,77,-10
2850,200,-2088,-96,68,77,-8
2855,208,-2040,-120,70,78,-9
2860,168,-2064,-104,74,78,-8
2865,184,-2040,-104,80,76,-6
2870,176,-2032,-120,84,77,-5
2875,152,-2040,-120,86,75,-3
2880,184,-2048,-120,88,75,-1
2885,168,-2032,-96,87,75,-1
2890,184,-2064,-104,86,74,-1
2895,168,-2056,-80,84,76,0
2900,144,-2048,-96,83,78,0
2905,160,-2016,-104,83,77,2
2910,168,-2040,-120,82,80,-1
2915,152,-2048,-88,83,79,1
2920,152,-2040,-88,84,80,2
2925,168,-2048,-64,85,80,2
2930,160,-2056,-88,87,82,2
2935,160,-2032,-88,89,84,2
2940,152,-2032,-80,91,84,4
2945,152,-2032,-88,95,85,2
2950,176,-2040,-72,96,85,3
2955,152,-2040,-88,98,88,3
2960,144,-2032,-112,102,86,4
2965,192,-2024,-32,104,87,4
2970,160,-2024,-72,105,86,5
2975,160,-2056,-72,106,86,6
2980,176,-2048,-56,107,86,6
2985,152,-2032,-56,108,86,4
2990,176,-2048,-72,108,85,4
2995,168,-2056,-64,108,83,4
3000,128,-2032,-72,110,82,4
3005,144,-2048,-48,111,82,3
3010,160,-2072,-40,112,81,3
3015,160,-2032,-72,113,79,2
3020,152,-2024,-88,114,80,2
3025,168,-2024,-40,116,80,2
3030,176,-2040,-64,117,79,2
3035,192,-2056,-40,118,80,1
3040,168,-2016,-56,118,80,0
3045,160,-2056,-48,119,80,0
3050,176,-2048,-64,120,80,0
3055,184,-2056,-48,122,81,1
3060,144,-2040,-56,124,81,2
3065,152,-2040,-32,126,80,2
3070,192,-2072,-64,128,81,1
3075,144,-2032,-56,128,81,3
3080,152,-2056,-64,130,81,1
3085,144,-2040,-56,131,80,2
3090,152,-2016,-48,133,81,0
3095,152,-2056,-48,135,79,0
3100,176,-2064,-16,135,79,-1
3105,136,-2040,-40,136,77,-1
3110,144,-2032,-32,138,78,-4
3115,144,-2040,-24,142,76,-2
3120,176,-2048,-24,144,76,-2
3125,176,-2056,-32,147,75,-2
3130,152,-2040,-56,149,76,-3
3135,168,-2056,-24,150,76,-4
3140,176,-2040,-32,149,76,-5
3145,184,-2048,-32,148,78,-4
3150,160,-2056,-16,151,78,-4
3155,176,-2064,0,152,80,-4
3160,160,-2072,-24,151,79,-3
3165,176,-2056,8,154,82,-4
3170,160,-2064,8,155,84,-3
3175,144,-2056,-24,157,85,-3
3180,200,-2080,48,161,85,-4
3185,168,-2048,-24,164,87,-5
3190,160,-2040,-16,169,89,-3
3195,184,-2040,8,173,89,-2
3200,176,-2048,32,178,91,-2
3205,152,-2016,24,181,90,0
3210,168,-2040,0,186,90,-3
3215,160,-2048,16,190,90,-2
3220,160,-2056,-16,194,90,-1
3225,168,-2056,24,195,89,-1
3230,168,-2048,24,198,90,-1
3235,176,-2056,8,201,88,-1
3240,168,-2048,16,202,91,-1
3245,144,-2056,24,204,90,-1
3250,176,-2064,16,208,91,0
3255,160,-2048,48,209,90,1
3260,184,-2056,24,209,90,1
3265,160,-2056,64,211,91,2
3270,168,-2016,40,213,92,3
3275,192,-2032,64,216,94,3
3280,160,-2024,32,218,96,3
3285,168,-2040,48,221,98,2
3290,200,-2048,64,224,98,3
3295,168,-2040,64,229,99,3
3300,176,-2072,48,233,99,3
3305,160,-2048,40,237,99,2
3310,184,-2064,64,242,100,2
3315,184,-2056,56,243,102,2
3320,168,-2064,24,245,103,3
3325,176,-2064,72,249,103,1
3330,168,-2040,96,250,104,1
3335,160,-2064,104,254,103,3
3340,200,-2064,72,260,103,4
3345,168,-2056,72,264,102,4
3350,176,-2080,80,270,102,7
3355,168,-2056,104,277,103,9
3360,184,-2080,80,285,103,9
3365,144,-2048,96,295,104,10
3370,160,-2072,72,307,104,13
3375,184,-2072,120,320,104,18
3380,176,-2080,96,334,107,21
3385,176,-2072,128,349,109,31
3390,136,-2072,144,369,114,42
3395,128,-2088,120,385,125,56
3400,160,-2088,88,400,138,71
3405,120,-2080,80,413,153,87
3410,152,-2080,80,424,172,98
3415,144,-2056,96,426,184,108
3420,176,-2072,80,424,192,109
3425,160,-2032,96,419,193,106
3430,160,-2032,120,416,187,103
3435,128,-2024,136,413,176,96
3440,176,-2000,136,413,162,90
3445,136,-2000,176,413,146,83
3450,128,-2008,168,417,130,75
3455,128,-2016,208,424,116,70
3460,120,-2040,160,431,105,64
3465,96,-2016,152,442,97,59
3470,112,-2048,208,450,90,54
3475,104,-2008,184,463,86,51
3480,128,-2056,232,476,84,46
3485,72,-2016,232,490,80,40
3490,96,-2040,216,505,77,38
3495,72,-2024,264,524,78,38
3500,104,-2056,256,543,75,35
3505,104,-2040,304,565,70,31
3510,128,-2024,264,581,66,26
3515,112,-2032,272,591,56,21
3520,112,-1992,280,595,46,17
3525,144,-1976,256,593,35,9
3530,168,-1944,216,582,24,2
3535,168,-1880,192,553,16,-8
3540,192,-1848,192,508,13,-18
3545,192,-1800,224,458,15,-23
3550,192,-1792,224,410,20,-26
3555,184,-1816,256,369,27,-24
3560,184,-1872,272,338,35,-22
3565,176,-1952,344,314,46,-17
3570,184,-1976,384,297,59,-9
3575,200,-2000,360,287,74,-4
3580,200,-1992,328,271,86,-2
3585,192,-1984,304,245,94,-2
3590,192,-1984,304,215,98,-4
3595,208,-1992,320,189,97,-4
3600,200,-1984,328,174,97,-4
3605,216,-1992,336,168,93,-2
3610,176,-2000,344,168,92,0
3615,176,-2032,360,172,89,6
3620,176,-2040,360,185,87,15
3625,168,-2040,352,204,87,23
3630,160,-2048,344,226,86,32
3635,168,-2056,352,242,88,41
3640,152,-2040,352,251,90,47
3645,128,-2016,352,253,91,54
3650,152,-2016,328,254,97,58
3655,120,-1984,336,249,99,62
3660,128,-1968,312,240,97,66
3665,160,-1968,320,223,92,70
3670,160,-1984,328,211,85,73
3675,128,-1944,328,213,90,76
3680,128,-2000,360,229,93,85
3685,160,-2032,344,243,98,95
3690,144,-2032,320,256,97,99
3695,144,-2032,328,268,97,103
3700,144,-1992,344,276,96,105
3705,112,-1968,352,288,95,107
3710,136,-1984,384,303,101,113
3715,136,-1984,424,325,111,120
3720,128,-1976,416,347,121,125
3725,160,-1976,384,362,126,125
3730,152,-1968,400,365,126,122
3735,136,-1968,360,368,128,121
3740,168,-1976,360,376,129,122
3745,144,-1984,408,388,134,122
3750,136,-2008,408,406,144,122
3755,104,-1976,440,426,153,118
3760,112,-1960,440,443,161,111
3765,104,-1944,472,457,169,103
3770,96,-1968,488,468,172,94
3775,72,-1920,480,475,176,85
3780,112,-1936,464,477,180,78
3785,80,-1912,472,479,187,70
3790,104,-1936,472,480,196,65
3795,136,-1912,432,482,209,60
3800,80,-1952,408,480,221,56
3805,104,-1920,448,488,230,56
3810,104,-1928,448,497,233,57
3815,96,-1968,480,499,235,55
3820,112,-1960,472,499,236,54
3825,88,-1952,488,499,237,56
3830,88,-1976,496,501,238,59
3835,40,-1976,488,501,237,58
3840,88,-1976,512,503,237,55
3845,64,-1984,512,505,236,51
3850,56,-1976,496,508,232,48
3855,56,-1984,488,511,226,41
3860,48,-2008,504,511,219,35
3865,32,-1984,456,509,208,29
3870,32,-1984,472,507,194,23
3875,32,-1976,520,506,183,19
3880,32,-1984,544,512,174,18
3885,16,-2016,520,520,166,18
3890,16,-1968,504,523,159,20
3895,32,-1984,536,531,155,20
3900,40,-1968,512,535,152,20
3905,32,-1976,560,542,152,22
3910,56,-1976,560,550,147,24
3915,56,-1960,592,563,145,26
3920,40,-1928,528,570,138,27
3925,88,-1936,536,570,132,29
3930,56,-1912,512,569,132,33
3935,64,-1936,560,573,133,34
3940,88,-1944,552,579,137,37
3945,48,-1912,584,589,142,41
3950,72,-1936,576,596,146,45
3955,64,-1904,592,595,149,45
3960,56,-1904,592,597,151,44
3965,24,-1912,608,600,148,46
3970,40,-1912,624,607,146,48
3975,40,-1896,616,613,144,47
3980,80,-1880,616,614,139,49
3985,48,-1856,656,614,135,49
3990,48,-1880,640,615,131,49
3995,64,-1864,648,615,130,51
4000,24,-1880,632,619,130,54
4005,64,-1880,640,626,131,53
4010,48,-1888,648,631,130,52
4015,40,-1888,704,637,129,55
4020,24,-1872,672,646,125,56
4025,64,-1896,648,658,116,51
4030,32,-1872,672,663,106,49
4035,96,-1872,672,668,98,47
4040,56,-1824,688,674,92,50
4045,56,-1816,736,682,91,51
4050,32,-1792,712,694,91,52
4055,16,-1784,704,697,92,52
4060,32,-1784,744,701,95,50
4065,16,-1776,784,704,95,49
4070,48,-1784,800,713,95,46
4075,16,-1760,784,726,97,46
4080,24,-1808,800,733,104,47
4085,56,-1808,832,736,104,47
4090,48,-1800,840,742,98,45
4095,56,-1800,816,744,94,44
4100,56,-1800,808,746,96,44
4105,56,-1808,840,753,99,48
4110,56,-1808,808,760,104,50
4115,40,-1776,832,765,104,49
4120,56,-1776,848,771,97,43
4125,40,-1744,848,776,87,39
4130,48,-1712,888,780,82,36
4135,16,-1696,880,780,81,32
4140,56,-1664,864,777,77,29
4145,32,-1664,872,774,75,24
4150,72,-1664,936,774,77,20
4155,40,-1672,944,786,90,21
4160,48,-1688,912,800,104,22
4165,48,-1712,928,812,114,27
4170,72,-1704,936,825,128,30
4175,72,-1720,976,838,142,34
4180,24,-1752,976,851,153,36
4185,0,-1736,944,858,162,37
4190,0,-1744,944,858,165,32
4195,8,-1712,960,859,165,27
4200,0,-1752,976,861,164,22
4205,-24,-1720,984,873,163,17
4210,0,-1704,976,886,159,14
4215,8,-1656,976,900,158,13
4220,0,-1632,968,913,155,12
4225,-8,-1608,976,918,148,11
4230,-16,-1600,1024,923,145,10
4235,16,-1600,1040,930,149,8
4240,48,-1624,1040,944,159,7
4245,40,-1608,1040,955,167,8
4250,56,-1600,1048,966,180,11
4255,40,-1608,1120,979,201,12
4260,16,-1608,1128,999,222,18
4265,72,-1664,1128,1020,238,22
4270,40,-1656,1128,1038,256,27
4275,112,-1680,1152,1057,275,31
4280,120,-1640,1176,1071,291,36
4285,128,-1608,1168,1081,308,39
4290,152,-1592,1152,1085,329,43
4295,160,-1600,1168,1088,358,52
4300,192,-1608,1192,1096,392,64
4305,176,-1624,1200,1107,429,73
4310,184,-1640,1160,1122,459,83
4315,176,-1624,1200,1133,494,89
4320,112,-1584,1216,1152,529,99
4325,104,-1600,1208,1177,557,107
4330,88,-1544,1168,1199,583,111
4335,40,-1472,1128,1214,606,117
4340,8,-1408,1112,1224,621,122
4345,-48,-1336,1136,1226,628,130
4350,-64,-1280,1168,1229,624,136
4355,-120,-1256,1144,1231,618,140
4360,-192,-1240,1184,1230,620,148
4365,-280,-1224,1208,1234,628,162
4370,-248,-1256,1184,1248,640,180
4375,-312,-1200,1168,1258,648,197
4380,-328,-1192,1232,1264,642,209
4385,-344,-1176,1240,1269,626,219
4390,-384,-1136,1232,1270,601,222
4395,-352,-1136,1232,1267,568,221
4400,-312,-1152,1216,1271,536,214
4405,-280,-1136,1168,1279,511,208
4410,-248,-1096,1200,1289,492,203
4415,-192,-1064,1248,1304,473,199
4420,-168,-1040,1256,1324,459,193
4425,-120,-1024,1272,1345,454,190
4430,-136,-1016,1312,1360,462,191
4435,-72,-1024,1248,1369,477,191
4440,-48,-1000,1288,1367,487,189
4445,-72,-984,1328,1363,496,189
4450,-64,-1032,1392,1375,503,187
4455,-64,-1072,1352,1403,503,183
4460,-56,-1096,1280,1426,503,182
4465,-88,-1072,1256,1434,504,183
4470,-80,-1056,1248,1438,503,185
4475,-72,-1024,1280,1454,503,183
4480,-104,-1000,1272,1479,506,179
4485,-144,-1000,1304,1504,518,179
4490,-136,-960,1384,1534,528,171
4495,-88,-952,1392,1557,534,164
4500,-104,-904,1416,1575,540,165
4505,-80,-840,1408,1578,547,166
4510,-56,-792,1432,1559,555,165
4515,-64,-800,1440,1538,568,163
4520,-64,-864,1400,1530,576,160
4525,0,-864,1352,1528,584,157
4530,0,-880,1304,1532,599,154
4535,0,-888,1280,1546,612,153
4540,-24,-896,1256,1568,618,157
4545,-24,-920,1248,1597,623,160
4550,-24,-904,1240,1636,630,161
4555,0,-840,1208,1675,646,160
4560,8,-784,1232,1701,677,158
4565,16,-712,1256,1704,716,165
4570,8,-696,1280,1698,755,171
4575,24,-664,1200,1700,783,175
4580,0,-560,1120,1692,810,177
4585,16,-496,1040,1671,830,193
4590,0,-472,1000,1654,853,206
4595,-32,-440,968,1658,872,227
4600,-80,-344,840,1662,880,255
4605,-120,-288,744,1657,882,281
4610,-120,-128,680,1632,881,299
4615,-368,-64,536,1581,874,328
4620,-456,32,496,1528,836,357
4625,-416,40,472,1486,782,373
4630,-280,0,488,1478,746,372
4635,72,64,384,1499,735,351
4640,184,152,288,1528,771,309
4645,264,256,192,1500,818,281
4650,408,328,16,1404,859,265
4655,536,400,-128,1288,916,255
4660,560,400,-136,1190,1001,266
4665,360,432,-144,1125,1086,292
4670,216,408,-208,1080,1128,325
4675,120,472,-224,1056,1139,359
4680,80,384,-256,1040,1142,404
4685,168,296,-160,1029,1164,451
4690,192,176,-104,1043,1223,486
4695,-120,208,-16,1070,1282,516
4700,-520,112,96,1060,1248,563
4705,-744,16,408,1018,1103,605
4710,-712,-176,672,1005,931,622
4715,-696,-176,864,1047,808,616
4720,-960,-80,1176,1118,709,621
4725,-936,48,1512,1211,603,625
4730,-1240,192,1960,1279,495,619
4735,-1520,248,2672,1298,369,609
4740,-1904,272,3656,1273,197,577
4745,-1848,168,4768,1243,-21,528
4750,-1752,280,5672,1201,-226,428
4755,-1616,544,6640,1031,-432,290
4760,-1744,880,8104,618,-641,133
4765,-2048,1016,10616,54,-775,10
4770,-2536,1144,11656,-345,-810,-36
4775,-2864,1752,11416,-572,-851,-45
4780,-3416,3016,10640,-883,-1024,-127
4785,-3912,4432,9088,-1376,-1232,-299
4790,-3648,5432,6312,-1763,-1073,-431
4795,-2520,5544,4336,-1781,-436,-553
4800,-1648,4768,2984,-1464,454,-671
4805,-1032,3392,2456,-1021,1235,-694
4810,-544,1712,2440,-587,1609,-614
4815,-48,-96,2632,-140,1776,-412
4820,168,-1856,2912,297,1771,-151
4825,320,-3360,3224,666,1708,88
4830,360,-4568,3368,942,1653,315
4835,360,-5488,3272,1117,1611,472
4840,296,-6008,2856,1170,1560,550
4845,216,-6048,2216,1097,1488,550
4850,-80,-5560,1688,983,1395,488
4855,-288,-4656,1216,943,1269,467
4860,-304,-3680,728,1040,1119,527
4865,-176,-2808,400,1256,976,588
4870,-248,-1984,280,1499,866,582
4875,-344,-1144,232,1684,779,531
4880,-432,-392,344,1769,710,465
4885,-536,280,512,1762,674,397
4890,-576,896,808,1700,689,335
4895,-600,1336,1040,1611,735,293
4900,-648,1688,1256,1492,806,256
4905,-736,1968,1384,1336,889,233
4910,-800,2072,1504,1140,957,214
4915,-800,2048,1464,928,988,199
4920,-744,2032,1384,727,983,183
4925,-688,1704,1240,557,957,159
4930,-616,1480,1032,416,931,127
4935,-680,1264,896,288,908,85
4940,-696,1024,800,165,870,36
4945,-768,816,776,58,830,-17
4950,-808,552,776,-23,792,-65
4955,-760,384,776,-110,742,-112
4960,-768,280,816,-207,677,-157
4965,-752,288,864,-303,609,-204
4970,-696,304,904,-392,542,-246
4975,-624,432,992,-462,486,-272
4980,-576,560,984,-515,442,-292
4985,-592,680,1048,-566,414,-311
4990,-664,856,1168,-627,389,-334
4995,-648,992,1152,-699,367,-356
5000,-680,1064,1184,-779,354,-390
5005,-784,1080,1264,-860,353,-435
5010,-864,1032,1280,-926,351,-481
5015,-976,984,1368,-974,345,-522
5020,-1016,904,1400,-1002,341,-546
5025,-1040,784,1496,-1009,344,-558
5030,-968,760,1568,-1003,357,-559
5035,-1032,656,1712,-994,378,-541
5040,-1152,640,1832,-980,399,-509
5045,-1328,600,1928,-953,409,-462
5050,-1528,624,2072,-911,397,-412
5055,-1632,592,2224,-868,355,-370
5060,-1768,544,2304,-832,285,-339
5065,-1872,480,2336,-796,204,-311
5070,-1928,416,2392,-760,122,-294
5075,-1992,304,2376,-723,46,-285
5080,-2032,184,2296,-680,-19,-284
5085,-2000,56,2376,-638,-56,-285
5090,-2024,-56,2328,-600,-67,-279
5095,-1968,-184,2312,-568,-60,-264
5100,-1944,-288,2248,-531,-32,-238
5105,-1840,-432,2128,-487,11,-201
5110,-1768,-504,2072,-431,71,-154
5115,-1688,-552,2032,-368,130,-97
5120,-1608,-584,1944,-290,195,-45
5125,-1520,-608,1896,-196,263,8
5130,-1472,-608,1816,-98,324,52
5135,-1424,-608,1720,-2,374,90
5140,-1416,-640,1656,88,409,120
5145,-1216,-488,1760,167,434,140
5150,-1232,-472,1712,229,450,158
5155,-1168,-400,1568,278,459,169
5160,-1120,-256,1536,314,462,173
5165,-1040,-272,1624,332,455,172
5170,-992,-136,1600,332,435,162
5175,-976,-152,1528,321,407,146
5180,-960,-112,1496,297,369,127
5185,-920,-16,1376,266,317,105
5190,-840,-24,1464,225,260,83
5195,-768,-16,1456,172,196,64
5200,-736,-8,1424,120,142,40
5205,-712,-8,1408,63,92,23
5210,-664,-16,1456,11,53,6
5215,-680,-120,1392,-37,28,-9
5220,-696,-128,1416,-87,13,-22
5225,-784,-104,1568,-135,-4,-30
5230,-720,-128,1456,-169,-15,-43
5235,-616,-104,1648,-192,-21,-54
5240,-736,-48,1504,-208,-21,-64
5245,-664,-8,1584,-225,-23,-80
5250,-824,-216,1640,-234,-17,-100
5255,-832,-200,1744,-246,-8,-117
5260,-720,-144,1720,-262,10,-128
5265,-776,-64,1664,-270,32,-136
5270,-816,-40,1720,-271,53,-147
5275,-840,-24,1704,-270,75,-149
5280,-856,-32,1736,-262,103,-143
5285,-928,-64,1744,-252,139,-135
5290,-880,-80,1848,-247,174,-126
5295,-968,-120,1824,-226,221,-127
5300,-944,-216,1936,-204,264,-123
5305,-936,-240,2000,-175,301,-126
5310,-1016,-312,1872,-133,334,-141
5315,-864,-400,2040,-82,369,-158
5320,-896,-376,1912,-33,415,-172
5325,-832,-240,1976,13,474,-178
5330,-848,-232,1848,66,543,-170
5335,-824,-168,1840,125,620,-151
5340,-736,-8,1664,171,688,-126
5345,-952,-72,1776,198,757,-101
5350,-944,-64,1776,209,804,-75
5355,-1032,-56,1768,199,832,-58
5360,-1024,-64,1776,178,844,-46
5365,-992,-96,1776,147,853,-45
5370,-1136,-120,1768,115,857,-56
5375,-1120,-96,1856,109,834,-64
5380,-1216,-48,1784,116,795,-79
5385,-1272,-80,1760,123,750,-90
5390,-1304,-112,1744,128,710,-85
5395,-1384,-128,1752,130,676,-70
5400,-1496,-168,1680,121,644,-44
5405,-1520,-160,1664,103,606,-13
5410,-1496,-256,1664,80,568,10
5415,-1488,-272,1624,52,544,17
5420,-1480,-336,1576,19,536,14
5425,-1432,-392,1560,-15,540,2
5430,-1456,-432,1504,-38,542,-12
5435,-1368,-440,1488,-49,555,-18
5440,-1440,-488,1408,-41,573,-32
5445,-1416,-400,1400,-15,590,-34
5450,-1184,-264,1288,22,608,-35
5455,-1304,-160,1328,56,635,-33
5460,-1264,-152,1320,83,650,-26
5465,-1224,-40,1248,100,657,-20
5470,-1312,-40,1216,108,659,-20
5475,-1232,32,1176,110,647,-16
5480,-1312,64,1208,108,620,-20
5485,-1360,8,1160,81,577,-25
5490,-1336,24,1056,34,529,-19
5495,-1440,-56,1144,-17,477,-7
5500,-1336,-112,1192,-53,433,1
5505,-1296,-168,1256,-62,408,-4
5510,-1248,-192,1352,-51,402,-18
5515,-1256,-224,1352,-33,407,-37
5520,-1288,-152,1312,-21,403,-54
5525,-1312,-136,1360,-20,390,-68
5530,-1296,-144,1360,-22,363,-90
5535,-1304,-48,1360,-21,328,-132
5540,-1408,0,1256,-26,271,-185
5545,-1528,56,1208,-52,187,-237
5550,-1584,88,1120,-93,103,-277
5555,-1600,104,1120,-130,35,-307
5560,-1648,-16,1200,-162,-20,-327
5565,-1712,72,1128,-191,-70,-332
5570,-1736,-120,1136,-220,-113,-324
5575,-1760,-104,1208,-255,-148,-303
5580,-1624,-104,1176,-292,-179,-282
5585,-1704,-264,1296,-328,-204,-263
5590,-1632,-296,1352,-337,-223,-254
5595,-1576,-328,1416,-317,-233,-252
5600,-1544,-392,1472,-271,-237,-249
5605,-1504,-368,1504,-206,-239,-244
5610,-1472,-392,1568,-137,-243,-236
5615,-1464,-400,1576,-67,-246,-225
5620,-1440,-408,1536,-1,-249,-203
5625,-1392,-408,1536,58,-251,-178
5630,-1424,-368,1456,106,-254,-159
5635,-1432,-328,1448,144,-255,-141
5640,-1424,-304,1424,170,-259,-124
5645,-1456,-264,1416,183,-267,-112
5650,-1336,-216,1392,185,-283,-102
5655,-1504,-184,1416,179,-302,-99
5660,-1512,-144,1376,173,-331,-96
5665,-1504,-48,1408,162,-368,-102
5670,-1528,-40,1400,150,-412,-109
5675,-1552,0,1440,130,-454,-113
5680,-1584,64,1440,103,-496,-110
5685,-1584,40,1408,68,-531,-103
5690,-1592,64,1448,30,-558,-94
5695,-1640,64,1544,-8,-582,-82
5700,-1584,56,1456,-47,-595,-70
5705,-1560,-8,1464,-84,-596,-57
5710,-1552,-48,1496,-117,-585,-40
5715,-1520,-128,1496,-143,-565,-23
5720,-1496,-144,1480,-164,-539,-6
5725,-1456,-232,1512,-177,-507,8
5730,-1376,-256,1520,-179,-474,21
5735,-1344,-272,1512,-177,-440,31
5740,-1280,-280,1536,-168,-406,38
5745,-1216,-328,1544,-151,-377,43
5750,-1192,-280,1552,-131,-354,44
5755,-1136,-256,1568,-112,-337,43
5760,-1056,-272,1544,-95,-326,42
5765,-1032,-248,1584,-82,-318,43
5770,-1024,-248,1544,-75,-315,43
5775,-992,-240,1584,-78,-317,45
5780,-944,-232,1544,-88,-323,49
5785,-936,-208,1640,-96,-330,48
5790,-888,-192,1608,-101,-337,47
5795,-864,-192,1624,-103,-340,47
5800,-856,-192,1600,-105,-340,49
5805,-848,-176,1672,-105,-342,51
5810,-864,-184,1720,-105,-343,57
5815,-832,-184,1728,-104,-345,62
5820,-816,-184,1704,-99,-347,66
5825,-816,-200,1752,-100,-350,71
5830,-808,-192,1744,-100,-352,73
5835,-808,-216,1808,-96,-352,73
5840,-848,-176,1824,-88,-350,77
5845,-864,-208,1808,-79,-343,77
5850,-840,-232,1800,-69,-336,78
5855,-856,-232,1872,-60,-327,77
5860,-840,-232,1840,-53,-315,72
5865,-856,-224,1840,-46,-296,67
5870,-872,-224,1840,-39,-271,62
5875,-864,-256,1840,-33,-243,63
5880,-832,-272,1856,-27,-214,63
5885,-848,-240,1800,-23,-183,65
5890,-840,-312,1816,-18,-152,63
5895,-784,-312,1840,-8,-116,59
5900,-824,-272,1808,-1,-82,53
5905,-832,-272,1800,10,-51,46
5910,-848,-248,1824,21,-19,42
5915,-808,-256,1784,26,9,34
5920,-800,-216,1808,27,34,27
5925,-816,-224,1816,30,56,23
5930,-808,-208,1760,29,73,15
5935,-808,-184,1760,30,88,8
5940,-800,-200,1808,25,101,3
5945,-792,-232,1744,22,111,-3
5950,-816,-200,1736,23,119,-7
5955,-784,-208,1760,20,126,-12
5960,-808,-200,1744,17,130,-19
5965,-800,-216,1712,13,135,-24
5970,-848,-224,1704,7,135,-28
5975,-840,-232,1728,3,135,-34
5980,-848,-224,1688,-1,135,-39
5985,-856,-232,1728,-3,134,-44
5990,-888,-232,1720,-5,135,-47
5995,-896,-248,1672,-8,135,-49
6000,-904,-248,1704,-12,133,-52
6005,-944,-240,1664,-17,132,-55
6010,-944,-216,1712,-18,131,-56
6015,-976,-256,1680,-19,129,-55
6020,-992,-264,1696,-23,127,-55
6025,-1032,-272,1680,-22,124,-53
6030,-1064,-272,1688,-20,119,-50
6035,-1104,-264,1656,-17,117,-44
6040,-1080,-288,1688,-10,115,-37
6045,-1104,-264,1640,-4,115,-30
6050,-1144,-248,1648,1,117,-22
6055,-1144,-264,1632,8,119,-16
6060,-1144,-256,1656,16,122,-8
6065,-1176,-248,1616,27,126,-4
6070,-1160,-240,1632,36,132,3
6075,-1152,-232,1624,45,138,7
6080,-1184,-208,1608,53,143,10
6085,-1176,-208,1592,62,148,12
6090,-1176,-176,1600,69,153,15
6095,-1176,-160,1584,76,156,16
6100,-1160,-192,1576,80,158,17
6105,-1176,-152,1592,84,158,18
6110,-1144,-176,1584,84,158,18
6115,-1200,-168,1552,85,157,19
6120,-1160,-168,1624,82,155,20
6125,-1144,-136,1600,79,151,20
6130,-1152,-144,1608,74,144,18
6135,-1144,-136,1600,67,137,16
6140,-1136,-136,1592,60,130,16
6145,-1152,-136,1608,55,121,16
6150,-1160,-152,1600,46,112,16
6155,-1128,-136,1616,39,102,13
6160,-1136,-144,1584,33,92,14
6165,-1144,-128,1592,24,82,12
6170,-1144,-128,1608,15,70,9
6175,-1144,-104,1600,7,61,8
6180,-1152,-112,1632,-4,49,7
6185,-1144,-120,1608,-11,41,6
6190,-1120,-136,1576,-18,32,5
6195,-1120,-136,1608,-25,25,4
6200,-1128,-112,1624,-29,20,4
6205,-1144,-104,1648,-32,12,3
6210,-1104,-144,1664,-35,7,1
6215,-1088,-144,1664,-36,0,1
6220,-1104,-152,1632,-39,-5,0
6225,-1096,-144,1672,-38,-9,0
6230,-1096,-152,1696,-40,-14,-1
6235,-1072,-176,1672,-38,-18,-3
6240,-1072,-152,1672,-35,-23,-6
6245,-1080,-168,1672,-31,-25,-10
6250,-1088,-136,1680,-28,-26,-12
6255,-1072,-160,1696,-23,-26,-14
6260,-1048,-168,1704,-19,-23,-13
6265,-1064,-176,1688,-15,-21,-15
6270,-1064,-176,1720,-12,-19,-16
6275,-1040,-192,1680,-11,-15,-17
6280,-1056,-160,1664,-10,-12,-17
6285,-1032,-192,1672,-11,-10,-16
6290,-1048,-192,1688,-11,-9,-14
6295,-1032,-176,1688,-12,-7,-12
6300,-1024,-208,1688,-14,-7,-11
6305,-1024,-160,1672,-19,-10,-13
6310,-1016,-192,1680,-24,-12,-15
6315,-1016,-192,1680,-28,-15,-14
6320,-1016,-168,1672,-32,-17,-14
6325,-1016,-216,1672,-37,-17,-15
6330,-1000,-208,1704,-41,-16,-16
6335,-1016,-160,1656,-42,-16,-16
6340,-1032,-192,1688,-43,-15,-16
6345,-1000,-224,1688,-44,-13,-18
6350,-1008,-200,1664,-41,-11,-18
6355,-1016,-208,1696,-40,-7,-18
6360,-1000,-224,1688,-38,-5,-18
6365,-1000,-176,1712,-35,-3,-17
6370,-1000,-224,1696,-34,3,-17
6375,-992,-216,1704,-31,5,-16
6380,-992,-200,1688,-27,10,-14
6385,-1008,-224,1680,-26,15,-12
6390,-992,-240,1688,-24,18,-11
6395,-992,-216,1696,-21,23,-10
6400,-1008,-200,1680,-21,28,-7
6405,-984,-192,1688,-18,33,-5
6410,-992,-208,1680,-16,36,-4
6415,-992,-208,1704,-14,40,-4
6420,-976,-216,1704,-14,47,-4
6425,-1000,-232,1744,-13,53,-3
6430,-976,-216,1704,-12,59,-2
6435,-992,-216,1720,-11,65,-1
6440,-1000,-240,1696,-9,71,0
6445,-976,-240,1760,-7,75,-1
6450,-984,-224,1680,-3,76,1
6455,-1000,-224,1680,2,77,2
6460,-1000,-200,1664,6,78,2
6465,-1008,-168,1688,9,78,4
6470,-1008,-192,1640,11,78,5
6475,-1008,-168,1680,13,75,2
6480,-1016,-168,1696,15,71,0
6485,-1016,-192,1672,19,67,-2
6490,-1016,-176,1656,24,66,-3
6495,-1008,-192,1656,26,65,-4
6500,-1016,-184,1680,27,64,-7
6505,-1008,-152,1672,27,66,-6
6510,-1024,-208,1648,27,67,-7
6515,-1016,-192,1672,24,69,-9
6520,-1024,-184,1680,21,72,-10
6525,-1032,-176,1704,18,74,-11
6530,-1024,-192,1680,16,78,-12
6535,-1024,-184,1704,11,80,-11
6540,-1032,-184,1680,13,83,-9
6545,-1016,-184,1656,14,85,-7
6550,-1024,-168,1688,17,85,-6
6555,-1032,-224,1704,22,85,-6
6560,-1040,-184,1664,29,84,-4
6565,-1040,-160,1640,36,81,-3
6570,-1032,-192,1664,42,76,0
6575,-1048,-168,1656,46,72,0
6580,-1048,-176,1656,50,68,1
6585,-1040,-176,1648,48,61,0
6590,-1048,-176,1672,48,54,1
6595,-1032,-168,1664,44,48,0
6600,-1064,-160,1688,41,43,-2
6605,-1032,-168,1656,33,38,-3
6610,-1032,-160,1672,28,33,-5
6615,-1040,-136,1664,21,30,-3
6620,-1040,-144,1696,13,30,-3
6625,-1048,-152,1672,5,28,-4
6630,-1032,-152,1688,-3,28,-5
6635,-1040,-168,1688,-9,28,-6
6640,-1072,-168,1648,-14,27,-7
6645,-1056,-144,1680,-18,27,-8
6650,-1056,-136,1672,-22,28,-8
6655,-1040,-160,1704,-24,28,-9
6660,-1040,-144,1712,-26,26,-12
6665,-1072,-176,1688,-27,24,-12
6670,-1024,-200,1656,-28,25,-10
6675,-1048,-168,1656,-27,28,-10
6680,-1040,-176,1672,-26,29,-10
6685,-1024,-176,1648,-24,29,-11
6690,-1040,-192,1688,-21,29,-11
6695,-1032,-176,1680,-18,32,-12
6700,-1040,-184,1648,-16,34,-11
6705,-1024,-208,1672,-15,35,-11
6710,-1032,-184,1664,-15,37,-12
6715,-1024,-192,1672,-15,38,-11
6720,-1008,-184,1696,-15,40,-10
6725,-1024,-176,1688,-16,42,-10
6730,-1032,-192,1704,-18,41,-10
6735,-1000,-184,1720,-20,38,-10
6740,-1008,-184,1680,-23,36,-12
6745,-1016,-200,1688,-27,35,-11
6750,-1016,-160,1704,-27,35,-10
6755,-1016,-192,1696,-30,34,-10
6760,-984,-192,1696,-33,34,-11
6765,-1008,-176,1680,-36,34,-9
6770,-992,-120,1720,-38,33,-11
6775,-1024,-184,1688,-41,33,-11
6780,-992,-192,1712,-45,34,-10
6785,-1016,-184,1712,-47,34,-10
6790,-1000,-184,1728,-51,36,-9
6795,-992,-192,1688,-54,37,-8
6800,-1000,-176,1712,-57,39,-9
6805,-992,-200,1704,-60,40,-8
6810,-1000,-176,1696,-61,41,-9
6815,-1000,-200,1720,-61,43,-6
6820,-992,-184,1696,-61,45,-5
6825,-1032,-192,1704,-59,46,-6
6830,-1000,-192,1688,-57,47,-6
6835,-1008,-216,1696,-55,47,-4
6840,-1008,-200,1704,-52,49,-4
6845,-1008,-200,1712,-50,50,-6
6850,-1008,-192,1720,-47,52,-5
6855,-992,-192,1704,-45,50,-4
6860,-1016,-200,1704,-44,52,-3
6865,-1024,-192,1696,-42,51,-4
6870,-1032,-184,1704,-41,53,-5
6875,-1016,-184,1744,-41,53,-5
6880,-1016,-192,1704,-40,52,-5
6885,-1016,-168,1688,-43,54,-6
6890,-1000,-192,1672,-43,55,-5
6895,-1008,-192,1704,-45,56,-4
6900,-992,-208,1704,-47,55,-4
6905,-1008,-168,1688,-50,56,-3
6910,-1008,-176,1704,-50,56,-4
6915,-1016,-208,1672,-51,56,-4
6920,-1024,-192,1704,-53,54,-3
6925,-1016,-216,1688,-52,52,-5
6930,-992,-200,1728,-52,52,-5
6935,-1000,-192,1688,-51,52,-6
6940,-1032,-192,1680,-52,51,-7
6945,-1008,-184,1688,-51,51,-8
6950,-1016,-200,1688,-52,51,-7
6955,-1008,-192,1672,-53,51,-7
6960,-1032,-192,1664,-53,51,-8
6965,-1016,-184,1672,-54,52,-7
6970,-1008,-184,1680,-52,52,-7
6975,-1032,-192,1680,-53,51,-7
6980,-1032,-192,1688,-54,51,-7
6985,-1016,-184,1688,-53,54,-7
6990,-1016,-208,1696,-54,54,-8
6995,-1024,-200,1704,-55,54,-7
7000,-1024,-176,1696,-55,54,-5
7005,-1032,-192,1680,-55,54,-4
7010,-1024,-200,1680,-55,54,-5
7015,-1024,-200,1672,-56,54,-4
7020,-1016,-200,1688,-54,56,-4
7025,-1000,-208,1688,-55,54,-5
7030,-1008,-192,1704,-53,54,-5
7035,-1024,-216,1688,-51,54,-5
7040,-1024,-224,1712,-49,55,-5
7045,-1024,-216,1696,-48,54,-5
7050,-1008,-200,1672,-45,55,-4
7055,-1016,-208,1688,-45,55,-4
7060,-1016,-208,1680,-44,56,-3
7065,-1032,-192,1712,-44,56,-3
7070,-1016,-216,1688,-44,56,-2
7075,-1008,-200,1696,-45,56,-2
7080,-1000,-208,1688,-43,59,-1
7085,-1024,-200,1696,-44,57,1
7090,-992,-224,1680,-44,58,1
7095,-1016,-216,1704,-44,59,-1
7100,-1008,-208,1688,-44,58,0
7105,-1008,-208,1720,-44,58,-1
7110,-1000,-200,1680,-43,59,-2
7115,-1008,-224,1680,-42,61,-2
7120,-1016,-184,1664,-41,62,-1
7125,-1000,-224,1712,-39,63,-2
7130,-1008,-192,1688,-40,63,-1
7135,-1016,-200,1672,-39,64,-2
7140,-1000,-216,1672,-38,64,-3
7145,-1008,-232,1656,-38,66,-2
7150,-992,-232,1696,-37,66,-2
7155,-1016,-216,1664,-36,68,-3
7160,-1000,-216,1688,-37,67,-2
7165,-984,-224,1696,-37,69,-2
7170,-1024,-192,1656,-37,67,-2
7175,-992,-208,1672,-38,68,-3
7180,-984,-224,1680,-37,68,-2
7185,-992,-216,1688,-38,68,-3
7190,-992,-200,1696,-38,69,-2
7195,-1016,-208,1672,-38,67,-2
7200,-992,-200,1672,-40,67,-1
7205,-1008,-232,1680,-39,65,-1
7210,-1024,-208,1712,-37,67,-1
7215,-1008,-232,1688,-37,66,-1
7220,-1024,-184,1688,-36,66,-1
7225,-1016,-200,1696,-37,65,-2
7230,-1000,-216,1680,-36,67,-1
7235,-1032,-208,1704,-35,66,-1
7240,-1016,-200,1688,-35,67,0
7245,-1016,-216,1680,-33,68,0
7250,-1016,-216,1680,-33,68,-1
7255,-1008,-216,1672,-33,70,-1
7260,-1032,-240,1680,-31,71,1
7265,-1016,-224,1688,-28,70,1
7270,-1032,-208,1656,-26,69,0
7275,-1016,-216,1672,-22,70,0
7280,-1008,-208,1672,-20,69,0
7285,-1016,-216,1696,-19,67,-1
7290,-1016,-216,1688,-16,66,0
7295,-1008,-192,1688,-15,64,0
7300,-1008,-216,1672,-13,62,-2
7305,-1008,-216,1664,-11,63,-3
7310,-1024,-208,1632,-12,63,-1
7315,-1000,-232,1680,-11,62,0
7320,-1016,-232,1680,-13,61,-1
7325,-1000,-208,1672,-16,61,-1
7330,-1000,-216,1696,-20,63,-2
7335,-1008,-224,1704,-24,63,-2
7340,-1016,-208,1688,-28,64,-1
7345,-1008,-232,1664,-31,64,0
7350,-1000,-224,1680,-33,65,-1
7355,-984,-224,1672,-34,66,-2
7360,-1000,-216,1656,-35,67,-2
7365,-1024,-208,1712,-36,66,-2
7370,-1016,-224,1672,-34,66,-1
7375,-1024,-216,1672,-32,65,-2
7380,-1024,-216,1680,-30,62,-4
7385,-1024,-200,1680,-28,61,-4
7390,-1024,-200,1648,-24,60,-4
7395,-1016,-208,1672,-20,59,-5
7400,-1032,-216,1680,-17,58,-5
7405,-1016,-216,1688,-13,58,-5
7410,-1024,-216,1688,-10,59,-5
7415,-1008,-224,1656,-7,59,-6
7420,-1008,-232,1704,-8,61,-8
7425,-944,-240,1648,-6,62,-7
7430,-1016,-200,1696,-7,66,-8
7435,-1008,-208,1704,-13,68,-7
7440,-1000,-240,1720,-17,70,-7
7445,-1008,-232,1712,-20,71,-8
7450,-1016,-224,1696,-25,73,-6
7455,-1008,-264,1696,-29,74,-5
7460,-1016,-240,1672,-29,75,-2
7465,-1008,-256,1688,-30,76,-3
7470,-1008,-248,1696,-28,76,-3
7475,-1016,-224,1672,-24,78,-1
7480,-1000,-224,1672,-20,78,2
7485,-1008,-216,1672,-17,76,4
7490,-1000,-216,1632,-13,76,5
7495,-992,-216,1672,-10,75,4
7500,-1016,-216,1680,-9,72,7
7505,-1024,-192,1680,-12,70,6
7510,-1016,-232,1688,-14,68,6
7515,-1008,-192,1704,-17,64,7
7520,-1008,-184,1672,-18,63,5
7525,-984,-216,1712,-22,62,4
7530,-1016,-208,1696,-25,59,3
7535,-1000,-184,1688,-29,59,0
7540,-992,-208,1720,-32,61,2
7545,-1000,-224,1720,-34,60,0
7550,-1000,-224,1696,-36,62,0
7555,-1008,-216,1712,-38,63,-2
7560,-1000,-232,1696,-39,64,-2
7565,-1016,-208,1720,-39,64,-3
7570,-1016,-232,1672,-39,66,-4
7575,-1000,-208,1704,-39,70,-3
7580,-1008,-232,1688,-37,71,-5
7585,-992,-232,1712,-38,74,-7
7590,-992,-224,1672,-40,75,-6
7595,-1008,-240,1704,-38,76,-7
7600,-1016,-192,1688,-40,78,-6
7605,-1008,-224,1704,-40,79,-6
7610,-1000,-224,1696,-41,80,-7
7615,-1000,-224,1672,-41,79,-7
7620,-1000,-232,1680,-42,80,-7
7625,-1016,-216,1712,-43,81,-7
7630,-1024,-248,1688,-42,80,-5
7635,-1016,-248,1672,-40,80,-7
7640,-1016,-240,1672,-41,81,-8
7645,-1008,-240,1688,-39,79,-7
7650,-1016,-224,1712,-35,79,-6
7655,-1008,-240,1672,-35,78,-6
7660,-1016,-248,1688,-33,77,-7
7665,-1016,-232,1664,-33,75,-5
7670,-1016,-232,1688,-29,72,-6
7675,-1000,-232,1688,-29,71,-4
7680,-1024,-240,1672,-28,70,-5
7685,-1008,-240,1680,-28,68,-4
7690,-1000,-224,1688,-29,67,-3
7695,-1008,-224,1664,-31,66,-4
7700,-1016,-232,1688,-32,67,-4
7705,-1000,-256,1680,-33,66,-5
7710,-1000,-240,1680,-36,66,-3
7715,-1008,-232,1672,-37,68,-4
7720,-1008,-240,1680,-39,68,-3
7725,-1016,-224,1672,-42,71,-3
7730,-1016,-248,1672,-42,73,-3
7735,-1000,-248,1688,-40,72,-2
7740,-1016,-256,1680,-38,73,-1
7745,-1008,-248,1672,-35,72,-1
7750,-1040,-264,1656,-31,73,-1
7755,-1024,-248,1672,-27,71,1
7760,-984,-232,1664,-23,69,1
7765,-1040,-240,1672,-20,69,0
7770,-1024,-232,1656,-18,69,2
7775,-1016,-232,1656,-16,68,2
7780,-1016,-224,1672,-15,68,1
7785,-1016,-216,1696,-14,66,1
7790,-1016,-232,1688,-13,68,1
7795,-1008,-240,1672,-15,67,-1
7800,-1000,-248,1656,-16,66,1
7805,-1024,-248,1672,-16,67,-2
7810,-1016,-232,1656,-18,67,0
7815,-1016,-248,1688,-18,68,1
7820,-1016,-224,1672,-20,66,0
7825,-1000,-248,1672,-20,65,-1
7830,-1016,-224,1696,-20,65,-1
7835,-1000,-232,1704,-18,65,-1
7840,-1016,-224,1680,-19,65,-1
7845,-1008,-232,1688,-20,64,-2
7850,-1024,-208,1688,-20,65,-2
7855,-1008,-240,1664,-19,65,-2
7860,-1000,-288,1688,-21,66,-4
7865,-1008,-216,1656,-21,67,-4
7870,-1008,-216,1664,-22,69,-4
7875,-1008,-208,1672,-24,68,-4
7880,-1016,-216,1696,-26,69,-3
7885,-1008,-264,1704,-26,70,-4
7890,-1024,-240,1680,-26,71,-4
7895,-1016,-248,1704,-28,72,-4
7900,-976,-248,1696,-28,73,-5
7905,-992,-248,1680,-28,71,-6
7910,-960,-248,1704,-27,70,-5
7915,-1000,-224,1704,-26,70,-4
7920,-1024,-248,1688,-23,70,-4
7925,-1000,-240,1688,-21,70,-3
7930,-1016,-232,1664,-21,70,-5
7935,-1016,-240,1688,-18,69,-5
7940,-1008,-256,1672,-15,69,-5
7945,-1016,-208,1648,-12,68,-2
7950,-1008,-240,1664,-9,66,-4
7955,-1008,-240,1664,-6,68,-3
7960,-1000,-248,1648,-4,68,-4
7965,-1008,-232,1672,-2,66,-4
7970,-1032,-232,1584,0,64,-3
7975,-1016,-240,1648,3,62,-2
7980,-1016,-240,1640,5,61,-2
7985,-1016,-216,1672,6,60,-1
7990,-1024,-224,1664,4,59,0
7995,-1000,-216,1672,5,58,-1
8000,-1000,-240,1688,3,59,0
8005,-1016,-248,1680,4,58,-2
8010,-1016,-224,1680,4,55,-1
8015,-1008,-232,1672,7,56,-1
8020,-1024,-240,1696,6,55,-1
8025,-1024,-232,1672,8,55,-2
8030,-1008,-232,1656,9,55,-1
8035,-1000,-248,1680,9,55,0
8040,-1008,-216,1664,9,55,-2
8045,-1016,-248,1696,9,53,-1
8050,-1008,-248,1664,10,52,0
8055,-1000,-248,1664,10,52,-1
8060,-1008,-248,1672,9,53,-2
8065,-1000,-248,1688,9,53,-2
8070,-992,-248,1704,9,52,-2
8075,-1008,-264,1680,9,52,-1
8080,-1000,-224,1672,9,52,-1
8085,-992,-248,1720,10,52,-1
8090,-1016,-216,1688,9,50,-2
8095,-1016,-224,1704,10,52,-4
8100,-1008,-216,1664,10,53,-3
8105,-1000,-232,1664,11,55,-3
8110,-1008,-232,1680,11,56,-3
8115,-992,-224,1704,10,57,-5
8120,-1024,-232,1704,11,58,-5
8125,-1024,-200,1664,11,59,-6
8130,-1000,-224,1696,10,60,-4
8135,-1008,-240,1688,12,63,-4
8140,-1000,-232,1672,11,65,-3
8145,-992,-240,1672,10,64,-3
8150,-1008,-216,1704,13,64,-1
8155,-1008,-240,1696,13,65,-2
8160,-984,-224,1696,14,63,-3
8165,-1000,-248,1688,15,61,-2
8170,-992,-240,1656,16,59,-1
8175,-992,-216,1656,15,59,-2
8180,-1000,-232,1696,16,58,-2
8185,-976,-216,1728,14,57,-3
8190,-1008,-216,1680,16,56,-2
8195,-968,-240,1688,15,56,-1
8200,-1000,-224,1704,15,54,-1
8205,-992,-232,1712,14,54,-3
8210,-992,-224,1704,13,53,-3
8215,-1000,-232,1696,11,52,-3
8220,-976,-224,1696,11,50,-3
8225,-1008,-216,1712,9,52,-4
8230,-1016,-232,1664,8,52,-4
8235,-992,-232,1656,6,52,-5
8240,-992,-248,1680,8,53,-6
8245,-1016,-216,1704,8,54,-4
8250,-1024,-224,1672,11,54,-4
8255,-992,-224,1696,13,53,-4
8260,-992,-216,1672,14,55,-5
8265,-1008,-208,1704,17,55,-6
8270,-1016,-208,1664,19,55,-6
8275,-1000,-216,1680,21,54,-6
8280,-1008,-208,1656,24,55,-6
8285,-1032,-208,1688,26,55,-4
8290,-1008,-216,1672,28,57,-6
8295,-1008,-168,1640,30,56,-6
8300,-1008,-224,1672,31,58,-6
8305,-1008,-224,1688,32,58,-6
8310,-1008,-200,1720,30,58,-7
8315,-992,-224,1704,27,59,-7
8320,-1016,-232,1712,24,62,-6
8325,-984,-240,1696,21,61,-7
8330,-992,-248,1712,18,64,-7
8335,-984,-232,1728,14,65,-7
8340,-1000,-224,1712,11,67,-6
8345,-992,-240,1720,11,65,-5
8350,-976,-256,1680,13,66,-3
8355,-976,-248,1688,16,68,-1
8360,-976,-224,1656,23,67,-1
8365,-1008,-232,1664,29,67,2
8370,-992,-216,1680,37,67,3
8375,-1024,-208,1672,42,66,4
8380,-1024,-224,1664,45,64,5
8385,-1008,-208,1672,48,60,5
8390,-1008,-200,1656,49,58,5
8395,-1008,-200,1680,49,56,5
8400,-992,-192,1648,47,53,5
8405,-992,-176,1656,46,49,4
8410,-992,-192,1704,42,49,2
8415,-1008,-176,1704,39,48,0
8420,-1016,-160,1704,35,48,-1
8425,-1008,-168,1688,29,47,-3
8430,-1000,-200,1696,24,47,-4
8435,-1000,-176,1712,20,50,-6
8440,-1016,-176,1728,17,51,-6
8445,-1008,-192,1704,12,53,-6
8450,-1008,-200,1704,11,54,-8
8455,-1008,-168,1696,9,55,-8
8460,-1008,-224,1704,8,56,-9
8465,-1000,-216,1696,8,57,-9
8470,-992,-216,1680,6,59,-9
8475,-1008,-192,1680,7,61,-10
8480,-984,-216,1696,6,61,-9
8485,-1000,-200,1712,7,64,-9
8490,-1008,-200,1696,7,64,-9
8495,-1008,-192,1704,8,64,-9
8500,-1016,-192,1704,9,66,-10
8505,-1008,-192,1696,10,65,-10
8510,-1024,-200,1688,12,66,-10
8515,-1008,-216,1720,13,65,-10
8520,-992,-200,1712,15,65,-9
8525,-984,-224,1712,14,64,-10
8530,-992,-200,1672,16,65,-9
8535,-1008,-176,1680,16,63,-9
8540,-992,-208,1704,17,62,-9
8545,-1016,-200,1680,16,58,-9
8550,-984,-200,1680,18,61,-6
8555,-1000,-216,1728,18,61,-6
8560,-1008,-200,1680,16,60,-6
8565,-1008,-200,1696,17,58,-5
8570,-1016,-176,1696,17,57,-6
8575,-1024,-216,1712,16,57,-5
8580,-984,-200,1680,12,56,-6
8585,-992,-192,1680,10,56,-5
8590,-992,-200,1696,7,56,-5
8595,-1000,-192,1704,4,56,-5
8600,-992,-200,1720,1,58,-4
8605,-984,-184,1704,-3,59,-5
8610,-1000,-200,1688,-6,59,-8
8615,-1000,-208,1704,-10,58,-6
8620,-992,-200,1688,-13,60,-5
8625,-984,-176,1672,-16,63,-4
8630,-1008,-192,1736,-15,65,-5
8635,-984,-208,1712,-15,66,-5
8640,-984,-208,1688,-12,68,-6
8645,-1000,-200,1688,-10,69,-4
8650,-1008,-200,1672,-5,69,-4
8655,-984,-200,1688,0,71,-4
8660,-1000,-208,1704,7,70,-2
8665,-1008,-200,1688,14,70,-2
8670,-1008,-192,1688,17,69,-2
8675,-992,-192,1704,24,70,-4
8680,-992,-192,1704,27,71,-3
8685,-992,-192,1664,31,70,-2
8690,-992,-184,1712,34,69,-2
8695,-992,-192,1680,34,64,-7
8700,-992,-176,1704,34,66,-6
8705,-1000,-184,1688,33,67,-5
8710,-1000,-160,1704,33,67,-3
8715,-992,-208,1672,32,66,-5
8720,-1008,-184,1696,31,66,-5
8725,-984,-200,1704,30,66,-4
8730,-1016,-176,1688,28,67,-4
8735,-952,-192,1712,29,67,-4
8740,-1008,-176,1696,25,67,-3
8745,-992,-184,1704,25,64,-6
8750,-992,-168,1712,24,63,-7
8755,-1008,-152,1680,23,58,-8
8760,-1016,-168,1704,22,63,-4
8765,-1008,-168,1664,20,63,-5
8770,-1016,-184,1688,16,65,-6
8775,-1000,-200,1712,14,66,-5
8780,-984,-184,1696,13,66,-8
8785,-1008,-176,1728,12,66,-7
8790,-984,-192,1728,10,68,-7
8795,-984,-176,1672,9,69,-7
8800,-1000,-168,1704,7,72,-6
8805,-1000,-184,1704,7,71,-5
8810,-984,-200,1712,7,73,-6
8815,-1016,-184,1696,7,72,-6
8820,-1008,-192,1704,8,72,-7
8825,-992,-160,1704,7,72,-6
8830,-1000,-192,1688,8,71,-6
8835,-992,-168,1720,9,73,-5
8840,-992,-192,1712,9,70,-3
8845,-1000,-160,1696,9,69,-3
8850,-1008,-208,1720,9,69,-3
8855,-1000,-184,1672,10,68,-2
8860,-1000,-176,1696,8,70,-1
8865,-1000,-184,1720,7,69,-3
8870,-1016,-176,1712,8,69,-3
8875,-1000,-184,1712,8,68,-4
8880,-984,-192,1696,8,69,-2
8885,-968,-184,1688,6,69,-2
8890,-1000,-184,1712,4,68,-4
8895,-992,-168,1712,1,70,-2
8900,-984,-224,1688,-2,71,-3
8905,-984,-184,1696,-3,72,-4
8910,-1024,-184,1752,-5,72,-2
8915,-992,-184,1704,-7,77,-2
8920,-992,-176,1720,-7,77,-2
8925,-992,-192,1728,-9,79,-4
8930,-1016,-160,1720,-8,79,-4
8935,-992,-176,1672,-7,82,-3
8940,-984,-160,1736,-4,83,-2
8945,-1024,-160,1744,-2,88,-2
8950,-1000,-192,1704,-1,89,-1
8955,-992,-176,1696,1,89,1
8960,-992,-176,1704,2,89,1
8965,-976,-176,1712,3,90,0
8970,-1008,-176,1712,4,89,2
8975,-984,-184,1696,4,87,3
8980,-984,-184,1696,4,85,1
8985,-976,-176,1704,4,83,2
8990,-984,-184,1688,4,78,3
8995,-1000,-176,1704,5,76,1
9000,-992,-200,1688,4,73,0
9005,-976,-184,1704,3,71,-1
9010,-1016,-160,1680,3,69,0
9015,-1000,-160,1696,4,67,0
9020,-1000,-176,1688,4,66,0
9025,-976,-168,1688,4,66,-2
9030,-1000,-152,1696,3,66,-2
9035,-1008,-160,1704,2,67,-3
9040,-1008,-176,1704,3,68,-4
9045,-1008,-200,1688,3,70,-5
9050,-992,-184,1712,2,72,-5
9055,-1000,-184,1720,1,73,-4
9060,-1032,-200,1656,0,75,-6
9065,-1000,-176,1696,-2,77,-5
9070,-1016,-168,1688,-1,79,-5
9075,-1008,-176,1712,-3,80,-6
9080,-992,-200,1712,-3,81,-6
9085,-1000,-176,1736,-3,82,-3
9090,-992,-184,1696,-2,81,-3
9095,-1008,-184,1704,-2,83,-4
9100,-1000,-184,1672,0,85,-3
9105,-1008,-184,1712,2,84,-3
9110,-1000,-160,1688,2,84,-1
9115,-1000,-176,1696,2,83,-1
9120,-992,-176,1696,3,82,-1
9125,-1008,-168,1712,2,82,-2
9130,-1008,-184,1704,2,81,1
9135,-1016,-176,1728,3,79,-2
9140,-1008,-192,1712,6,80,-2
9145,-1008,-176,1696,5,79,-2
9150,-1000,-176,1680,7,79,-3
9155,-1000,-160,1720,6,79,-2
9160,-976,-176,1680,6,77,-3
9165,-992,-176,1688,6,77,-3
9170,-1000,-168,1712,5,77,-3
9175,-1008,-184,1696,6,76,-2
9180,-1000,-160,1696,6,76,-1
9185,-976,-184,1696,7,76,-2
9190,-992,-144,1696,8,76,0
9195,-1000,-152,1688,7,73,0
9200,-1008,-160,1696,6,73,-1
9205,-1000,-176,1688,3,74,-1
9210,-1000,-176,1728,1,74,-2
9215,-1008,-160,1696,-2,74,-3
9220,-1000,-176,1680,-2,74,-3
9225,-1008,-152,1736,-2,75,-2
9230,-992,-152,1696,-1,74,-5
9235,-1000,-176,1728,0,75,-3
9240,-1008,-184,1688,2,75,-4
9245,-992,-152,1672,4,76,-4
9250,-1008,-184,1688,5,77,-2
9255,-1024,-160,1672,8,76,-5
9260,-1024,-160,1688,10,77,-5
9265,-992,-176,1672,12,77,-6
9270,-1000,-176,1672,13,77,-7
9275,-1000,-144,1712,16,77,-6
9280,-1000,-152,1704,17,80,-7
9285,-1016,-168,1696,16,81,-8
9290,-992,-168,1712,17,82,-7
9295,-984,-184,1688,15,82,-8
9300,-1000,-168,1720,15,82,-7
9305,-1000,-168,1696,13,82,-6
9310,-1008,-184,1752,9,82,-5
9315,-992,-192,1736,7,85,-4
9320,-992,-176,1720,6,85,-3
9325,-1000,-176,1696,7,85,0
9330,-1000,-176,1696,10,83,0
9335,-1000,-176,1688,14,80,1
9340,-976,-200,1688,20,78,2
9345,-1016,-152,1688,26,78,4
9350,-992,-184,1696,30,74,4
9355,-992,-176,1680,36,71,5
9360,-992,-168,1688,38,71,5
9365,-976,-176,1696,40,67,6
9370,-1000,-192,1712,39,67,7
9375,-1008,-160,1688,38,63,6
9380,-1016,-136,1728,33,60,6
9385,-1000,-104,1680,31,58,3
9390,-1000,-144,1696,28,58,1
9395,-992,-144,1688,23,57,2
9400,-1016,-128,1696,18,56,1
9405,-1008,-136,1696,12,56,0
9410,-1008,-152,1704,6,57,-1
9415,-1008,-136,1712,1,58,-2
9420,-1000,-128,1712,-4,60,-4
9425,-1008,-136,1704,-9,61,-6
9430,-984,-152,1696,-11,63,-7
9435,-1008,-160,1704,-12,64,-7
9440,-1008,-144,1688,-13,65,-5
9445,-1000,-184,1704,-15,67,-8
9450,-984,-160,1688,-14,68,-10
9455,-1008,-136,1680,-14,69,-8
9460,-1000,-168,1688,-13,69,-8
9465,-1008,-144,1688,-12,70,-8
9470,-992,-176,1704,-10,69,-9
9475,-992,-176,1704,-9,66,-8
9480,-992,-176,1696,-8,65,-7
9485,-1008,-160,1704,-5,65,-8
9490,-1000,-176,1688,-3,66,-6
9495,-1016,-184,1664,-3,64,-6
9500,-1016,-184,1712,-2,62,-7
9505,-1000,-152,1712,-3,60,-7
9510,-1016,-152,1720,-4,61,-8
9515,-1000,-152,1712,-5,59,-9
9520,-1008,-152,1704,-7,58,-7
9525,-1008,-160,1704,-11,57,-7
9530,-1008,-136,1696,-14,56,-7
9535,-1008,-160,1696,-17,55,-7
9540,-1008,-144,1680,-19,55,-5
9545,-944,-152,1672,-22,56,-5
9550,-1016,-152,1688,-26,55,-5
9555,-1008,-160,1688,-30,54,-5
9560,-1008,-176,1688,-33,53,-4
9565,-992,-176,1680,-36,53,-5
9570,-1000,-144,1688,-39,55,-5
9575,-984,-152,1688,-41,54,-5
9580,-1000,-168,1712,-43,54,-5
9585,-984,-176,1704,-44,56,-5
9590,-984,-168,1680,-45,57,-6
9595,-1016,-160,1656,-46,55,-5
9600,-1000,-160,1712,-46,57,-4
9605,-968,-152,1712,-48,59,-4
9610,-1016,-176,1720,-47,58,-4
9615,-1016,-160,1704,-45,58,-4
9620,-1008,-176,1720,-42,59,-5
9625,-1008,-176,1712,-40,58,-3
9630,-1008,-176,1712,-36,57,-4
9635,-984,-176,1680,-32,56,-3
9640,-1008,-160,1680,-30,55,-4
9645,-1016,-152,1720,-27,55,-3
9650,-1000,-152,1696,-26,56,-3
9655,-1016,-136,1728,-26,56,-3
9660,-992,-160,1696,-29,55,-4
9665,-976,-152,1720,-32,55,-4
9670,-1000,-136,1720,-38,55,-3
9675,-1016,-144,1704,-42,55,-5
9680,-1024,-160,1712,-46,54,-6
9685,-1008,-128,1704,-52,52,-7
9690,-984,-144,1744,-57,56,-5
9695,-1000,-168,1720,-61,56,-4
9700,-1000,-160,1752,-65,57,-3
9705,-1016,-160,1720,-66,55,-3
9710,-984,-152,1704,-69,55,-4
9715,-992,-168,1680,-69,53,-4
9720,-968,-152,1696,-71,52,-5
9725,-976,-184,1704,-69,52,-5
9730,-1008,-176,1704,-69,52,-6
9735,-984,-192,1696,-69,52,-6
9740,-1000,-160,1720,-69,51,-7
9745,-1008,-176,1712,-67,51,-7
9750,-984,-168,1736,-67,52,-8
9755,-976,-176,1728,-65,53,-8
9760,-1000,-168,1736,-66,55,-5
9765,-1000,-184,1728,-65,56,-6
9770,-984,-200,1712,-64,56,-6
9775,-1000,-152,1712,-63,56,-6
9780,-984,-184,1728,-63,59,-5
9785,-1008,-168,1688,-63,59,-5
9790,-1000,-184,1728,-65,60,-6
9795,-1008,-168,1704,-64,61,-4
9800,-992,-184,1704,-64,62,-5
9805,-1000,-184,1720,-64,63,-4
9810,-1008,-176,1688,-64,62,-4
9815,-992,-168,1704,-63,64,-4
9820,-1024,-160,1760,-63,64,-3
9825,-1008,-192,1712,-62,65,-3
9830,-1016,-184,1696,-60,67,-2
9835,-1008,-176,1688,-59,67,-2
9840,-992,-200,1680,-59,68,-2
9845,-1008,-200,1696,-57,68,-1
9850,-1000,-176,1696,-56,66,-1
9855,-1000,-184,1696,-54,67,-2
9860,-992,-208,1688,-54,67,-2
9865,-1008,-200,1696,-54,67,-1
9870,-1000,-192,1712,-54,67,0
9875,-1008,-176,1672,-53,66,-1
9880,-1000,-200,1688,-53,66,-1
9885,-1000,-184,1688,-51,67,0
9890,-984,-192,1688,-51,69,2
9895,-1000,-208,1728,-50,69,2
9900,-968,-192,1696,-49,69,1
9905,-1000,-192,1688,-49,68,0
9910,-976,-208,1728,-48,69,2
9915,-1000,-200,1696,-47,69,0
9920,-992,-208,1720,-46,69,1
9925,-1000,-168,1688,-45,69,-1
9930,-1000,-192,1632,-46,68,1
9935,-976,-192,1720,-45,70,-1
9940,-1000,-192,1696,-44,71,-1
9945,-984,-200,1720,-44,70,0
9950,-1016,-168,1688,-46,71,1
9955,-1008,-192,1672,-46,71,-1
9960,-1000,-168,1744,-45,72,0
9965,-1008,-200,1720,-45,71,-1
9970,-992,-208,1696,-45,70,-1
9975,-992,-208,1720,-47,72,-2
9980,-984,-192,1720,-46,69,0
9985,-984,-184,1720,-47,71,0
9990,-1000,-192,1712,-47,70,0
9995,-984,-176,1712,-47,71,0
10000,-976,-208,1704,-47,72,-1
10005,-984,-200,1712,-47,71,-1
10010,-992,-192,1688,-46,71,-1
10015,-984,-192,1688,-45,71,-2
10020,-1000,-200,1720,-45,73,-2
10025,-1000,-192,1696,-45,73,-3
10030,-1016,-184,1672,-43,73,-2
10035,-992,-208,1712,-43,73,-1
10040,-992,-240,1696,-43,74,-3
10045,-1016,-200,1704,-42,73,-2
10050,-1008,-192,1696,-42,73,-2
10055,-1008,-200,1712,-38,73,-2
10060,-992,-192,1696,-38,73,-2
10065,-1008,-192,1704,-37,72,-3
10070,-1000,-208,1696,-36,72,-3
10075,-1000,-184,1688,-37,73,-3
10080,-1016,-216,1720,-36,74,-3
10085,-1008,-192,1696,-37,74,-2
10090,-1008,-200,1704,-36,75,-4
10095,-1008,-200,1688,-37,74,-4
10100,-1008,-200,1696,-38,77,-4
10105,-1008,-208,1688,-38,78,-2
10110,-992,-224,1696,-39,78,-2
10115,-992,-200,1680,-39,79,-3
10120,-1000,-216,1704,-38,79,-4
10125,-1008,-208,1696,-39,80,-4
10130,-1000,-200,1720,-38,79,-3
10135,-1016,-184,1680,-38,78,-3
10140,-1008,-176,1696,-37,78,-3
10145,-968,-192,1712,-38,77,-2
10150,-992,-200,1696,-37,77,-3
10155,-1000,-216,1720,-39,75,-2
10160,-1000,-184,1704,-38,75,-1
10165,-992,-208,1712,-39,73,0
10170,-1000,-208,1696,-38,72,-1
10175,-992,-240,1680,-37,71,-1
10180,-976,-224,1688,-39,73,-1
10185,-1000,-224,1680,-39,71,0
10190,-968,-232,1688,-40,70,0
10195,-976,-208,1688,-41,71,0
10200,-1000,-216,1704,-43,72,1
10205,-984,-208,1696,-43,70,0
10210,-984,-224,1712,-43,70,0
10215,-992,-224,1712,-41,69,0
10220,-1000,-208,1680,-41,68,-1
10225,-984,-216,1704,-40,70,-2
10230,-1000,-216,1672,-37,68,-2
10235,-984,-208,1672,-36,66,-3
10240,-1016,-184,1672,-34,66,-4
10245,-992,-208,1712,-31,68,-4
10250,-1016,-208,1688,-28,67,-4
10255,-1008,-216,1648,-24,69,-5
10260,-1008,-224,1688,-20,70,-4
10265,-968,-224,1672,-16,73,-6
10270,-1000,-224,1696,-13,76,-7
10275,-1000,-200,1664,-12,78,-7
10280,-1000,-216,1696,-12,79,-7
10285,-992,-224,1728,-13,81,-7
10290,-1000,-224,1720,-17,82,-5
10295,-992,-240,1736,-19,83,-7
10300,-992,-224,1728,-23,85,-5
10305,-1000,-224,1720,-26,83,-4
10310,-984,-248,1752,-28,83,-3
10315,-1000,-232,1688,-25,83,-1
10320,-968,-232,1696,-21,81,-1
10325,-992,-232,1680,-17,81,1
10330,-1008,-216,1704,-13,80,4
10335,-1008,-192,1696,-10,78,5
10340,-1008,-208,1696,-9,77,4
10345,-1016,-192,1656,-10,75,6
10350,-992,-200,1704,-13,74,5
10355,-1000,-200,1672,-17,73,6
10360,-1000,-200,1664,-22,69,5
10365,-984,-176,1696,-27,68,4
10370,-1000,-176,1720,-32,67,1
10375,-1000,-200,1704,-36,67,0
10380,-1000,-176,1712,-41,67,1
10385,-1008,-200,1696,-43,67,-1
10390,-1008,-192,1680,-47,70,-3
10395,-1008,-192,1688,-48,70,-3
10400,-1000,-208,1672,-50,73,-3
10405,-992,-200,1688,-51,74,-3
10410,-1016,-200,1712,-51,77,-3
10415,-1000,-184,1704,-51,78,-3
10420,-1000,-208,1704,-50,80,-3
10425,-1016,-224,1704,-49,83,-5
10430,-992,-232,1696,-49,83,-5
10435,-1000,-224,1696,-48,83,-6
10440,-992,-240,1680,-48,84,-7
10445,-1008,-232,1712,-47,84,-8
10450,-1008,-200,1712,-45,85,-7
10455,-1000,-232,1696,-46,84,-7
10460,-992,-216,1680,-45,83,-7
10465,-1008,-208,1688,-45,82,-8
10470,-1016,-200,1720,-45,81,-10
10475,-1000,-232,1688,-45,81,-9
10480,-1016,-216,1704,-45,78,-8
10485,-1016,-240,1680,-45,78,-8
10490,-992,-200,1664,-44,76,-8
10495,-992,-232,1680,-44,76,-8
10500,-1024,-224,1704,-45,75,-8
10505,-1000,-248,1696,-44,75,-8
10510,-1000,-232,1680,-42,74,-6
10515,-1000,-224,1696,-43,75,-7
10520,-1024,-224,1696,-43,74,-7
10525,-1008,-208,1696,-42,74,-5
10530,-1016,-224,1704,-42,74,-4
10535,-992,-272,1672,-42,71,-4
10540,-1016,-224,1680,-40,71,-4
10545,-992,-224,1672,-41,71,-4
10550,-992,-240,1704,-42,68,-3
10555,-1000,-216,1696,-43,70,-4
10560,-1000,-216,1664,-44,70,-5
10565,-1000,-224,1664,-44,70,-5
10570,-1008,-248,1696,-46,71,-5
10575,-1008,-224,1696,-49,73,-6
10580,-1008,-232,1696,-49,74,-4
10585,-1000,-248,1712,-49,74,-6
10590,-1008,-248,1680,-50,76,-5
10595,-1000,-240,1696,-48,77,-4
10600,-976,-264,1680,-45,78,-4
10605,-992,-248,1672,-43,79,-3
10610,-1000,-240,1672,-38,80,-2
10615,-1000,-240,1680,-34,79,-1
10620,-1016,-224,1680,-27,79,1
10625,-1024,-224,1664,-22,79,1
10630,-1000,-232,1672,-18,78,1
10635,-1008,-248,1664,-16,76,3
10640,-1008,-248,1656,-13,76,1
10645,-1000,-232,1672,-12,75,2
10650,-1008,-216,1728,-14,73,2
10655,-1000,-224,1680,-15,72,-1
10660,-992,-224,1688,-15,73,-1
10665,-992,-232,1688,-17,72,-1
10670,-1000,-216,1672,-19,72,0
10675,-992,-232,1680,-20,73,-3
10680,-1000,-232,1680,-20,71,-1
10685,-1008,-224,1664,-21,71,0
10690,-992,-256,1688,-19,70,-2
10695,-1000,-216,1648,-18,68,-2
10700,-1000,-248,1688,-17,66,-3
10705,-1024,-224,1664,-14,67,-3
10710,-1000,-232,1680,-12,66,-3
10715,-992,-208,1656,-10,66,-3
10720,-1000,-232,1680,-7,67,-3
10725,-1008,-200,1664,-6,67,-3
10730,-1016,-216,1696,-6,66,-3
10735,-992,-232,1664,-6,65,-3
10740,-984,-232,1680,-5,65,-2
10745,-992,-224,1704,-6,65,-2
10750,-1008,-224,1720,-6,64,-1
10755,-1008,-240,1680,-6,62,-1
10760,-1016,-216,1656,-5,61,-2
10765,-1000,-232,1680,-5,59,-3
10770,-1000,-224,1680,-5,59,-3
10775,-1008,-256,1688,-5,58,-2
10780,-1008,-240,1664,-5,57,-3
10785,-1008,-216,1688,-4,57,-4
10790,-1000,-224,1688,-1,56,-3
10795,-1008,-240,1688,1,57,-4
10800,-984,-240,1680,3,59,-4
10805,-1008,-240,1672,5,59,-2
10810,-992,-256,1656,8,58,-2
10815,-1016,-200,1664,10,58,-1
10820,-1024,-240,1672,11,56,-1
10825,-1016,-240,1672,13,57,-2
10830,-1008,-224,1672,13,57,-2
10835,-1008,-232,1672,13,57,-2
10840,-1008,-224,1688,12,57,-3
10845,-1008,-240,1680,10,58,-4
10850,-1024,-224,1704,8,56,-3
10855,-1000,-248,1720,7,56,-4
10860,-976,-240,1704,6,57,-4
10865,-1008,-224,1688,4,56,-6
10870,-1008,-224,1712,2,60,-7
10875,-1016,-232,1688,2,60,-8
10880,-1000,-224,1712,3,63,-6
10885,-984,-224,1688,6,63,-6
10890,-992,-240,1672,10,66,-4
10895,-992,-240,1688,13,69,-4
10900,-1008,-224,1696,17,71,-2
10905,-992,-152,1656,23,74,1
10910,-1000,-208,1680,27,75,2
10915,-1000,-216,1656,31,75,4
10920,-1008,-208,1696,33,73,5
10925,-1000,-208,1688,36,74,5
10930,-984,-208,1688,37,71,6
10935,-992,-232,1704,38,69,5
10940,-1008,-224,1680,36,66,6
10945,-1016,-200,1696,35,62,4
10950,-1024,-216,1656,33,55,4
10955,-1008,-224,1680,32,53,2
10960,-1000,-216,1672,31,48,1
10965,-992,-184,1680,29,46,0
10970,-1000,-232,1704,29,43,-2
10975,-992,-224,1672,29,43,-5
10980,-1000,-208,1704,28,42,-5
10985,-1000,-224,1680,28,42,-4
10990,-1000,-224,1688,27,45,-5
10995,-984,-216,1720,25,47,-7
11000,-1000,-224,1704,23,50,-6
11005,-984,-232,1696,21,53,-7
11010,-1016,-232,1680,19,57,-7
11015,-1008,-232,1688,16,60,-7
11020,-968,-224,1800,15,61,-8
11025,-968,-224,1696,15,63,-7
11030,-1008,-200,1728,14,66,-7
11035,-984,-232,1696,13,67,-5
11040,-1008,-216,1680,13,67,-4
11045,-992,-224,1704,13,67,-2
11050,-1000,-216,1680,13,68,-4
11055,-992,-240,1688,13,67,-5
11060,-992,-208,1712,14,67,-4
11065,-1016,-192,1712,13,67,-3
11070,-992,-232,1688,14,67,-2
11075,-1000,-200,1680,15,66,-2
11080,-968,-232,1696,15,65,-2
11085,-992,-224,1696,15,63,-2
11090,-984,-240,1696,15,63,-1
11095,-1008,-224,1688,17,61,0
11100,-976,-200,1696,16,61,0
11105,-1008,-192,1696,15,60,0
11110,-1000,-216,1720,15,59,0
11115,-1008,-216,1688,15,59,1
11120,-1000,-216,1680,14,57,0
11125,-984,-208,1680,15,56,0
11130,-1008,-200,1736,14,54,-1
11135,-1000,-200,1672,16,53,-1
11140,-1016,-200,1696,19,52,-1
11145,-992,-184,1704,20,53,-3
11150,-1000,-184,1688,22,52,-3
11155,-1008,-176,1688,25,52,-3
11160,-1008,-224,1696,27,54,-3
11165,-976,-224,1680,29,55,-3
11170,-992,-192,1664,32,56,-4
11175,-1000,-184,1656,33,55,-5
11180,-1000,-192,1720,34,57,-5
11185,-1016,-168,1680,34,57,-7
11190,-1000,-184,1720,34,60,-5
11195,-976,-216,1688,33,62,-7
11200,-1000,-216,1688,31,65,-7
11205,-976,-224,1728,28,67,-8
11210,-984,-208,1704,23,69,-7
11215,-984,-216,1728,18,71,-7
11220,-1000,-224,1688,14,74,-5
11225,-992,-224,1712,12,75,-7
11230,-960,-208,1704,11,76,-6
11235,-968,-224,1704,13,77,-5
11240,-1000,-232,1704,18,76,-3
11245,-984,-224,1696,26,76,0
11250,-992,-200,1712,33,76,0
11255,-992,-200,1712,40,75,2
11260,-976,-216,1648,48,74,2
11265,-1000,-184,1672,53,71,6
11270,-1000,-184,1664,55,68,5
11275,-984,-200,1712,57,65,5
11280,-1000,-168,1688,57,62,5
11285,-1008,-160,1688,54,58,3
11290,-1016,-160,1688,51,56,3
11295,-992,-176,1672,47,54,2
11300,-984,-168,1688,44,52,1
11305,-1016,-168,1704,40,50,-1
11310,-992,-136,1696,36,51,-1
11315,-1000,-144,1680,31,53,-4
11320,-984,-160,1720,27,54,-4
11325,-984,-176,1720,24,56,-5
11330,-984,-184,1704,20,60,-6
11335,-1008,-192,1704,18,61,-7
11340,-1000,-184,1704,15,63,-5
11345,-960,-176,1784,14,65,-7
11350,-1016,-176,1736,13,67,-8
11355,-984,-192,1728,13,68,-9
11360,-984,-192,1704,11,69,-9
11365,-984,-176,1704,10,70,-10
11370,-1008,-168,1728,9,71,-10
11375,-1000,-184,1712,9,72,-11
11380,-1000,-192,1720,10,71,-11
11385,-1000,-200,1696,10,72,-12
11390,-1008,-208,1712,10,72,-11
11395,-992,-168,1696,10,72,-11
11400,-1000,-184,1696,10,71,-11
11405,-1008,-184,1704,12,70,-10
11410,-1008,-176,1712,12,70,-10
11415,-1016,-184,1688,13,69,-8
11420,-992,-168,1704,13,69,-8
11425,-1000,-208,1720,13,68,-8
11430,-1016,-200,1712,13,68,-8
11435,-1008,-168,1720,14,69,-6
11440,-1008,-224,1688,15,68,-6
11445,-1008,-168,1728,14,69,-5
11450,-1000,-184,1704,15,69,-4
11455,-984,-128,1736,13,68,-3
11460,-976,-184,1696,13,68,-3
11465,-1000,-184,1712,12,67,-3
11470,-1000,-184,1688,10,68,-4
11475,-992,-184,1680,7,68,-4
11480,-1000,-168,1704,3,69,-4
11485,-1000,-184,1704,0,69,-4
11490,-992,-168,1720,-4,68,-4
11495,-1000,-192,1720,-7,69,-4
11500,-976,-192,1680,-12,69,-5
11505,-1056,-152,1696,-15,70,-5
11510,-984,-176,1720,-18,73,-3
11515,-1008,-176,1680,-20,73,-4
11520,-984,-184,1704,-20,76,-4
11525,-1016,-184,1688,-18,77,-5
11530,-1000,-184,1712,-15,80,-5
11535,-1008,-200,1712,-11,81,-5
11540,-992,-184,1672,-5,80,-4
11545,-1000,-176,1704,0,81,-5
11550,-1008,-192,1712,9,82,-5
11555,-992,-192,1696,16,82,-3
11560,-976,-184,1696,22,84,-3
11565,-984,-200,1736,29,84,-2
11570,-992,-192,1728,35,84,0
11575,-976,-184,1704,38,85,-2
11580,-992,-168,1696,40,85,-1
11585,-1008,-160,1720,40,85,-3
11590,-984,-176,1720,40,84,-2
11595,-1008,-192,1736,39,84,-4
11600,-984,-152,1696,38,83,-3
11605,-992,-176,1680,37,80,-2
11610,-992,-184,1688,36,80,-2
11615,-968,-168,1728,34,78,-2
11620,-1000,-168,1728,32,77,-3
11625,-984,-184,1728,32,75,-3
11630,-1000,-168,1688,31,75,-4
11635,-992,-184,1712,30,75,-5
11640,-1008,-160,1728,30,74,-6
11645,-992,-184,1704,28,74,-6
11650,-1008,-160,1680,27,77,-8
11655,-992,-192,1720,26,78,-7
11660,-1016,-152,1704,26,78,-7
11665,-1008,-176,1720,25,78,-7
11670,-1000,-160,1696,25,80,-6
11675,-1000,-168,1720,27,78,-5
11680,-1008,-144,1688,28,80,-5
11685,-1000,-184,1704,29,81,-4
11690,-1008,-152,1712,31,81,-4
11695,-1016,-152,1680,33,81,-5
11700,-1008,-160,1664,35,81,-5
11705,-976,-176,1696,36,79,-6
11710,-1024,-160,1720,37,79,-7
11715,-984,-168,1688,40,77,-6
11720,-1000,-176,1704,42,78,-6
11725,-1000,-176,1656,43,79,-5
11730,-992,-176,1696,46,77,-4
11735,-1016,-176,1720,46,79,-4
11740,-1008,-168,1688,47,79,-4
11745,-992,-176,1704,48,79,-5
11750,-1008,-168,1712,48,78,-3
11755,-992,-160,1696,49,79,-4
11760,-992,-176,1672,49,79,-3
11765,-1016,-168,1720,49,81,-2
11770,-984,-152,1680,50,82,-4
11775,-984,-160,1704,48,82,-4
11780,-960,-152,1712,49,82,-4
11785,-992,-160,1704,47,80,-4
11790,-1000,-160,1728,46,79,-4
11795,-992,-160,1696,45,79,-4
11800,-984,-160,1728,43,78,-3
11805,-992,-160,1704,40,79,-2
11810,-984,-136,1696,39,79,-2
11815,-1024,-160,1728,36,81,-4
11820,-992,-144,1672,34,81,-6
11825,-1000,-152,1704,33,86,-5
11830,-1000,-144,1728,32,89,-5
11835,-1016,-144,1696,34,91,-4
11840,-1008,-152,1680,36,91,-5
11845,-1024,-120,1720,38,93,-3
11850,-1008,-136,1720,41,95,-2
11855,-1008,-144,1712,44,97,-2
11860,-992,-144,1704,44,99,-3
11865,-1016,-144,1728,44,102,0
11870,-1000,-152,1720,44,102,-2
11875,-1008,-120,1712,44,99,-1
11880,-1000,-112,1696,45,97,1
11885,-1000,-152,1704,44,93,1
11890,-992,-160,1744,44,91,0
11895,-992,-136,1728,42,92,-3
11900,-1016,-144,1712,40,92,-2
11905,-1000,-152,1720,38,90,-2
11910,-992,-168,1720,37,86,-1
11915,-1016,-136,1704,33,85,0
11920,-1008,-120,1704,32,83,0
11925,-984,-136,1736,29,82,-2
11930,-1016,-128,1720,24,83,-1
11935,-1016,-136,1672,22,81,-1
11940,-1000,-144,1728,22,82,0
11945,-1016,-128,1704,21,83,-1
11950,-1008,-136,1688,21,84,-2
11955,-1008,-144,1720,21,86,-4
11960,-1016,-128,1720,21,88,-4
11965,-1008,-136,1696,20,90,-4
11970,-1008,-128,1704,21,90,-4
11975,-1008,-152,1712,20,92,-3
11980,-1008,-128,1688,20,92,-2
11985,-1008,-128,1696,21,93,-1
11990,-1024,-144,1672,22,93,-2
11995,-1008,-128,1736,20,94,-1
12000,-1016,-152,1720,20,92,-1
12005,-1016,-144,1752,17,92,-1
12010,-1016,-128,1704,19,89,-2
12015,-1016,-128,1720,17,90,-3
12020,-1016,-136,1696,18,91,-3
12025,-1000,-136,1696,15,90,-3
12030,-1008,-128,1680,12,89,-3
12035,-1016,-136,1720,11,89,-3
12040,-1032,-120,1688,10,90,-4
12045,-1008,-120,1688,9,90,-1
12050,-1032,-112,1696,8,89,-1
12055,-1024,-88,1608,10,87,-2
12060,-1016,-120,1680,10,87,0
12065,-1008,-144,1688,10,87,0
12070,-1024,-144,1688,11,85,-2
12075,-1016,-152,1688,11,85,-1
12080,-1016,-136,1656,12,86,-1
12085,-1024,-144,1696,12,84,-1
12090,-1024,-120,1696,11,84,-1
12095,-1000,-120,1688,12,82,0
12100,-1000,-112,1680,11,81,-1
12105,-1008,-144,1664,11,82,0
12110,-1016,-120,1696,10,79,0
12115,-1024,-104,1712,9,77,0
12120,-1016,-128,1728,8,77,0
12125,-992,-136,1688,8,76,0
12130,-1008,-136,1704,6,74,0
12135,-1024,-128,1656,5,75,-1
12140,-1024,-96,1680,3,74,-1
12145,-1016,-112,1688,1,73,-3
12150,-1032,-128,1704,1,74,-3
12155,-1024,-128,1712,1,74,-2
12160,-1016,-112,1672,0,74,-2
12165,-1008,-120,1712,3,74,-2
12170,-992,-144,1680,2,73,-1
12175,-1016,-112,1696,2,73,-1
12180,-1024,-120,1696,1,73,-2
12185,-1032,-104,1688,0,73,-2
12190,-1008,-112,1672,0,71,-3
12195,-1008,-136,1664,-1,71,-3
12200,-1024,-112,1672,-1,70,-3
12205,-1000,-128,1672,0,71,-4
12210,-1024,-128,1696,2,72,-5
12215,-1016,-120,1672,2,74,-6
12220,-1000,-120,1712,2,75,-6
12225,-1016,-128,1688,4,74,-6
12230,-1024,-144,1736,3,75,-6
12235,-1008,-128,1696,3,76,-6
12240,-1016,-152,1696,-1,76,-6
12245,-1024,-112,1704,-4,76,-5
12250,-1024,-128,1704,-7,75,-4
12255,-1016,-136,1704,-9,74,-3
12260,-1016,-128,1680,-10,72,-2
12265,-1000,-144,1696,-9,73,-2
12270,-1024,-112,1696,-4,71,-1
12275,-1000,-128,1688,2,69,0
12280,-1000,-120,1664,6,66,1
12285,-1016,-112,1712,12,63,3
12290,-1024,-104,1696,16,61,3
12295,-1008,-128,1696,18,61,5
12300,-1008,-128,1680,19,60,5
12305,-1016,-96,1704,19,58,7
12310,-1008,-120,1688,17,57,5
12315,-1024,-104,1672,14,55,6
12320,-1008,-112,1696,13,54,6
12325,-1024,-88,1704,10,54,5
12330,-1016,-112,1728,5,53,4
12335,-1024,-104,1696,1,53,4
12340,-1016,-80,1712,-4,53,2
12345,-1000,-72,1680,-7,53,1
12350,-1008,-96,1712,-12,54,0
12355,-1008,-120,1696,-16,55,-1
12360,-1016,-104,1720,-19,56,-2
12365,-1016,-104,1720,-21,57,-3
12370,-1016,-104,1664,-23,58,-3
12375,-1024,-104,1688,-25,59,-4
12380,-1016,-80,1712,-25,59,-6
12385,-1016,-104,1712,-26,59,-6
12390,-1016,-112,1720,-28,58,-7
12395,-1008,-128,1696,-29,57,-8
12400,-1000,-96,1688,-29,57,-9
12405,-1016,-128,1704,-29,56,-9
12410,-1016,-128,1696,-28,55,-7
12415,-1008,-104,1704,-28,55,-8
12420,-1016,-128,1704,-29,53,-7
12425,-1032,-104,1696,-29,51,-6
12430,-984,-136,1752,-29,50,-6
12435,-1000,-120,1680,-29,47,-10
12440,-1008,-120,1728,-31,45,-7
12445,-1000,-104,1704,-34,46,-7
12450,-1016,-112,1688,-38,45,-6
12455,-1016,-120,1736,-41,44,-6
12460,-1000,-128,1712,-44,43,-5
12465,-1000,-128,1712,-49,42,-5
12470,-1008,-144,1688,-52,41,-4
12475,-1024,-144,1664,-56,40,-5
12480,-1016,-136,1704,-59,40,-5
12485,-1008,-104,1688,-63,40,-4
12490,-1008,-128,1704,-67,41,-4
12495,-1016,-112,1704,-71,38,-5
12500,-1008,-136,1728,-74,38,-3
12505,-1000,-120,1712,-80,37,-5
12510,-992,-104,1736,-85,36,-3
12515,-1008,-120,1720,-90,38,-3
12520,-984,-128,1712,-95,41,-2
12525,-1008,-128,1728,-99,40,-3
12530,-1008,-144,1696,-104,38,-3
12535,-984,-128,1712,-109,38,-4
12540,-1008,-120,1696,-113,39,-3
12545,-992,-96,1720,-115,39,-4
12550,-1008,-120,1704,-119,40,-4
12555,-1016,-136,1680,-120,40,-4
12560,-1000,-144,1752,-119,41,-5
12565,-984,-144,1712,-116,41,-5
12570,-984,-160,1720,-113,42,-3
12575,-1008,-160,1720,-107,41,-5
12580,-984,-176,1728,-102,43,-4
12585,-992,-144,1672,-96,43,-3
12590,-992,-176,1704,-89,43,-4
12595,-992,-168,1696,-82,45,-5
12600,-1024,-144,1720,-76,45,-4
12605,-992,-152,1672,-72,45,-5
12610,-1000,-152,1680,-68,47,-5
12615,-992,-152,1696,-66,47,-5
12620,-976,-144,1712,-66,46,-4
12625,-976,-160,1704,-66,47,-5
12630,-1000,-152,1688,-67,46,-5
12635,-984,-168,1696,-68,50,-4
12640,-1000,-144,1704,-70,48,-4
12645,-1000,-120,1712,-73,49,-4
12650,-1008,-144,1712,-74,50,-5
12655,-984,-144,1696,-77,48,-6
12660,-984,-160,1712,-78,48,-6
12665,-992,-144,1704,-77,48,-5
12670,-1000,-160,1720,-78,48,-6
12675,-992,-168,1720,-79,46,-5
12680,-1016,-152,1712,-80,48,-6
12685,-1008,-176,1720,-81,48,-6
12690,-1016,-152,1712,-81,48,-8
12695,-1000,-160,1704,-82,47,-7
12700,-992,-176,1688,-83,48,-7
12705,-1000,-160,1664,-84,50,-6
12710,-1008,-176,1688,-85,51,-4
12715,-984,-168,1728,-85,53,-5
12720,-1000,-184,1672,-86,52,-4
12725,-984,-160,1720,-86,53,-2
12730,-1016,-176,1696,-86,55,-3
12735,-1008,-168,1736,-85,57,-2
12740,-1008,-168,1680,-86,57,-1
12745,-1024,-144,1704,-86,57,-2
12750,-992,-176,1712,-83,57,-1
12755,-1016,-184,1688,-83,59,-1
12760,-1008,-200,1712,-80,59,-1
12765,-992,-208,1704,-79,59,-2
12770,-992,-192,1696,-76,62,0
12775,-992,-176,1680,-74,61,0
12780,-1000,-176,1720,-72,62,0
12785,-1008,-192,1696,-71,65,0
12790,-968,-208,1712,-69,64,-1
12795,-1000,-176,1696,-68,64,0
12800,-992,-200,1688,-67,64,0
12805,-1000,-184,1720,-66,64,0
12810,-976,-184,1696,-65,66,-1
12815,-1000,-192,1688,-64,65,0
12820,-1024,-168,1704,-65,65,0
12825,-1000,-184,1712,-64,66,1
12830,-1000,-176,1712,-66,68,0
12835,-984,-176,1704,-65,67,-1
12840,-1016,-184,1704,-66,67,-1
12845,-968,-184,1712,-65,69,-2
12850,-1000,-160,1696,-64,69,-2
12855,-968,-200,1680,-63,70,-2
12860,-976,-184,1720,-63,71,-2
12865,-1000,-168,1712,-62,71,-1
12870,-992,-192,1728,-61,72,0
12875,-992,-192,1680,-59,71,-1
12880,-1000,-176,1712,-57,72,-1
12885,-984,-184,1688,-56,72,-1
12890,-1008,-200,1696,-55,72,-2
12895,-1008,-184,1704,-54,69,-1
12900,-1008,-168,1680,-52,69,-1
12905,-984,-208,1728,-52,69,-2
12910,-984,-200,1696,-51,68,-2
12915,-992,-208,1688,-50,68,-1
12920,-992,-184,1704,-50,68,-1
12925,-992,-224,1680,-50,68,-2
12930,-1000,-168,1712,-50,67,-1
12935,-1000,-192,1704,-49,67,-1
12940,-1000,-200,1712,-49,67,0
12945,-992,-184,1672,-48,66,-2
12950,-1008,-168,1720,-49,67,-2
12955,-984,-184,1680,-49,68,-2
12960,-1008,-192,1688,-49,70,-1
12965,-992,-208,1696,-51,69,0
12970,-992,-192,1720,-51,70,-1
12975,-1016,-192,1712,-50,69,0
12980,-1040,-184,1616,-49,69,-1
12985,-1000,-192,1688,-49,70,-1
12990,-1000,-176,1672,-48,69,0
12995,-1000,-200,1680,-49,70,-1
13000,-992,-192,1680,-49,70,-1
13005,-1008,-192,1688,-49,71,0
13010,-984,-200,1688,-49,70,-1
13015,-1000,-216,1688,-49,72,1
13020,-1000,-200,1704,-48,72,1
13025,-1000,-176,1688,-49,71,0
13030,-1000,-200,1664,-48,72,0
13035,-984,-208,1696,-48,73,-1
13040,-1008,-208,1688,-48,72,-1
13045,-1000,-208,1712,-49,73,0
13050,-1008,-176,1712,-49,74,0
13055,-1000,-176,1688,-48,74,0
13060,-992,-192,1712,-49,74,-1
13065,-1000,-192,1688,-49,74,-2
13070,-1000,-192,1696,-50,73,-1
13075,-1000,-184,1696,-51,74,0
13080,-992,-184,1712,-50,74,-1
13085,-992,-200,1704,-52,74,-1
13090,-992,-144,1720,-53,73,-2
13095,-992,-224,1688,-51,73,-1
13100,-992,-208,1680,-52,75,-2
13105,-984,-208,1696,-50,74,-1
13110,-1000,-208,1696,-50,75,-3
13115,-1016,-200,1696,-50,75,-2
13120,-1000,-208,1680,-48,76,-2
13125,-1016,-200,1680,-47,77,-1
13130,-1000,-224,1712,-46,79,-2
13135,-1000,-208,1688,-43,77,-3
13140,-984,-192,1712,-43,77,-4
13145,-1016,-200,1696,-42,76,-1
13150,-992,-216,1704,-41,77,-3
13155,-992,-224,1720,-42,77,-2
13160,-1000,-208,1664,-42,76,-2
13165,-1000,-208,1728,-41,75,-1
13170,-1000,-232,1696,-42,74,-2
13175,-1008,-216,1688,-41,73,-2
13180,-984,-216,1672,-42,72,-3
13185,-1008,-232,1672,-41,72,-4
13190,-1016,-200,1688,-42,72,-2
13195,-984,-232,1672,-42,72,-1
13200,-1008,-224,1688,-42,73,-2
13205,-1008,-208,1680,-41,74,-1
13210,-984,-208,1696,-42,72,-1
13215,-984,-216,1712,-43,73,-2
13220,-984,-224,1680,-45,72,-1
13225,-992,-232,1696,-47,70,-2
13230,-984,-208,1688,-45,72,-2
13235,-1008,-224,1672,-46,71,-1
13240,-1000,-208,1656,-46,68,-2
13245,-992,-216,1680,-45,67,-2
13250,-1008,-224,1656,-43,67,-2
13255,-1000,-192,1688,-41,66,-3
13260,-1016,-208,1696,-41,66,-4
13265,-1008,-208,1688,-39,66,-4
13270,-1024,-200,1704,-36,65,-6
13275,-1000,-224,1688,-33,67,-5
13280,-1008,-208,1672,-31,67,-6
13285,-976,-200,1672,-28,68,-6
13290,-992,-200,1672,-26,71,-6
13295,-984,-224,1704,-23,74,-5
13300,-1000,-216,1696,-23,77,-4
13305,-1000,-232,1696,-24,80,-5
13310,-992,-232,1712,-27,82,-4
13315,-1000,-256,1688,-28,84,-4
13320,-1000,-232,1704,-32,84,-3
13325,-1008,-248,1688,-34,84,-3
13330,-992,-240,1728,-37,86,-3
13335,-992,-248,1696,-35,84,-3
13340,-984,-240,1720,-32,81,0
13345,-1000,-248,1680,-25,81,1
13350,-976,-240,1688,-19,78,0
13355,-1008,-216,1656,-10,77,3
13360,-984,-224,1672,-4,75,5
13365,-1008,-216,1656,0,74,6
13370,-984,-192,1672,1,72,6
13375,-1000,-184,1672,2,70,6
13380,-992,-216,1688,-2,69,6
13385,-1008,-200,1688,-6,67,3
13390,-1000,-200,1672,-12,65,3
13395,-992,-176,1680,-18,66,3
13400,-1016,-208,1688,-22,67,2
13405,-1024,-200,1688,-26,66,-1
13410,-1016,-208,1720,-31,64,-1
13415,-968,-184,1744,-35,65,0
13420,-1016,-184,1696,-37,65,-2
13425,-1016,-176,1696,-39,66,-2
13430,-984,-224,1720,-41,67,-2
13435,-1000,-208,1712,-42,68,-3
13440,-1008,-208,1680,-43,69,-4
13445,-1008,-208,1672,-46,71,-4
13450,-1024,-200,1696,-45,74,-5
13455,-1000,-224,1688,-45,75,-5
13460,-1008,-232,1720,-46,76,-6
13465,-1000,-216,1680,-46,77,-8
13470,-1000,-216,1704,-45,77,-8
13475,-1000,-224,1664,-47,77,-10
13480,-1008,-216,1688,-46,78,-9
13485,-1000,-240,1712,-46,77,-9
13490,-1024,-216,1696,-47,78,-10
13495,-1000,-232,1688,-46,79,-10
13500,-992,-232,1672,-45,79,-9
13505,-1016,-232,1704,-43,77,-9
13510,-1008,-216,1696,-43,77,-6
13515,-1008,-248,1680,-39,75,-6
13520,-1008,-232,1688,-38,74,-6
13525,-952,-216,1688,-35,72,-5
13530,-1008,-216,1696,-33,73,-4
13535,-992,-224,1680,-32,69,-3
13540,-1008,-232,1680,-31,68,-3
13545,-992,-240,1656,-29,68,-2
13550,-1000,-224,1704,-28,67,-1
13555,-1000,-240,1688,-26,65,-2
13560,-1000,-232,1648,-23,64,-2
13565,-1000,-240,1680,-20,63,-1
13570,-1008,-240,1656,-18,62,-1
13575,-1000,-208,1672,-16,60,-2
13580,-1016,-200,1664,-14,59,-1
13585,-992,-248,1672,-13,59,-2
13590,-992,-200,1632,-10,58,-2
13595,-1008,-232,1680,-10,59,-2
13600,-992,-216,1680,-9,61,-3
13605,-1016,-224,1688,-6,62,-1
13610,-1008,-240,1656,-7,64,0
13615,-1000,-224,1656,-3,64,0
13620,-992,-248,1696,-1,66,-2
13625,-1008,-240,1672,3,67,-1
13630,-1000,-216,1664,6,65,0
13635,-1000,-216,1664,9,65,1
13640,-992,-240,1688,14,65,1
13645,-1000,-232,1696,20,63,3
13650,-984,-248,1656,24,60,1
13655,-1016,-224,1664,27,59,1
13660,-1016,-200,1688,31,56,0
13665,-992,-240,1664,35,54,3
13670,-1008,-232,1680,35,53,1
13675,-1008,-192,1672,35,54,0
13680,-1000,-240,1696,36,53,-1
13685,-984,-208,1680,35,52,-4
13690,-984,-232,1680,34,53,-2
13695,-1008,-192,1696,31,53,-3
13700,-1000,-240,1672,32,53,-3
13705,-992,-216,1688,28,55,-4
13710,-992,-224,1680,26,56,-4
13715,-1008,-224,1672,26,57,-2
13720,-1000,-216,1712,25,56,-2
13725,-1016,-216,1704,25,58,-3
13730,-1016,-224,1680,24,59,-2
13735,-1016,-192,1704,24,57,-2
13740,-1024,-232,1672,24,58,-3
13745,-1008,-216,1672,26,57,-5
13750,-1000,-200,1712,26,58,-5
13755,-984,-208,1736,24,60,-5
13760,-1024,-192,1704,21,59,-5
13765,-1016,-200,1720,19,60,-5
13770,-1000,-208,1680,18,61,-4
13775,-1008,-192,1728,16,61,-5
13780,-1000,-216,1704,16,61,-4
13785,-992,-216,1712,15,62,-4
13790,-992,-224,1704,15,63,-2
13795,-984,-224,1712,16,63,-3
13800,-984,-224,1696,14,64,-4
13805,-992,-192,1704,16,64,-3
13810,-992,-208,1688,17,64,-3
13815,-1008,-224,1720,19,64,-1
13820,-992,-192,1704,21,63,-2
13825,-984,-232,1688,22,66,-3
13830,-1008,-200,1688,24,65,-4
13835,-984,-216,1680,25,63,-4
13840,-1008,-216,1704,26,63,-3
13845,-1016,-184,1656,27,62,-4
13850,-992,-176,1704,28,60,-4
13855,-992,-208,1688,28,61,-5
13860,-1008,-208,1696,29,63,-4
13865,-1000,-240,1704,27,62,-4
13870,-1000,-208,1704,26,63,-4
13875,-1000,-208,1712,26,64,-4
13880,-1000,-208,1696,25,64,-4
13885,-976,-208,1696,24,65,-4
13890,-992,-192,1704,23,64,-4
13895,-1016,-200,1672,20,64,-3
13900,-1016,-200,1752,19,65,-3
13905,-1000,-200,1656,16,65,-4
13910,-1000,-240,1688,13,64,-4
13915,-1016,-200,1680,12,65,-5
13920,-984,-216,1688,11,64,-3
13925,-1000,-208,1696,10,65,-4
13930,-1008,-224,1696,10,67,-4
13935,-984,-216,1696,9,69,-3
13940,-1008,-192,1688,8,71,-4
13945,-1016,-208,1688,10,72,-3
13950,-984,-168,1704,10,73,-3
13955,-1000,-208,1680,12,73,-5
13960,-1008,-208,1696,12,75,-3
13965,-976,-200,1696,14,75,-3
13970,-1000,-200,1680,17,76,-2
13975,-992,-200,1712,20,75,-1
13980,-984,-192,1696,22,75,-2
13985,-1008,-192,1680,22,75,-1
13990,-984,-208,1728,24,73,-2
13995,-992,-192,1696,25,74,-1
14000,-992,-200,1704,26,74,-1
14005,-1008,-184,1712,26,73,-2
14010,-984,-216,1688,25,72,-2
14015,-992,-200,1680,23,70,-3
14020,-1000,-184,1720,21,71,-3
14025,-984,-192,1688,19,71,-3
14030,-1000,-184,1720,16,72,-4
14035,-1008,-176,1720,14,72,-3
14040,-984,-200,1712,13,74,-4
14045,-1000,-192,1696,10,74,-4
14050,-1000,-192,1728,9,75,-3
14055,-1008,-192,1688,6,74,-4
14060,-984,-208,1704,3,75,-4
14065,-992,-216,1720,2,76,-4
14070,-1000,-200,1688,2,75,-3
14075,-1008,-176,1696,2,76,-3
14080,-984,-208,1696,2,77,-4
14085,-992,-200,1720,4,78,-3
14090,-1000,-176,1656,6,78,-2
14095,-1008,-176,1688,9,78,-3
14100,-1016,-168,1696,12,77,-2
14105,-992,-224,1680,15,78,-2
14110,-1032,-200,1704,16,79,-4
14115,-1000,-176,1704,17,79,-5
14120,-968,-192,1704,19,77,-3
14125,-1000,-192,1696,20,78,0
14130,-984,-192,1696,21,78,-2
14135,-1008,-184,1680,23,77,0
14140,-992,-200,1688,24,76,-1
14145,-1000,-200,1712,24,75,0
14150,-992,-184,1688,23,73,-2
14155,-1000,-184,1688,23,74,-1
14160,-1008,-192,1688,23,70,-1
14165,-976,-216,1664,22,71,-1
14170,-992,-168,1688,23,71,0
14175,-1008,-192,1688,23,71,-2
14180,-976,-152,1720,25,71,-3
14185,-1000,-184,1712,27,71,-3
14190,-992,-200,1712,28,71,-3
14195,-1016,-192,1696,30,70,-3
14200,-992,-168,1680,33,70,-3
14205,-1024,-184,1688,36,70,-3
14210,-1000,-184,1680,36,72,-4
14215,-984,-160,1704,36,73,-3
14220,-1008,-168,1688,35,72,-4
14225,-992,-184,1672,35,73,-5
14230,-1016,-152,1680,34,74,-5
14235,-1000,-192,1664,35,74,-5
14240,-1008,-160,1704,34,75,-5
14245,-1000,-176,1664,34,76,-6
14250,-1008,-176,1704,33,79,-6
14255,-1000,-184,1720,31,80,-6
14260,-1000,-160,1688,28,81,-7
14265,-1008,-176,1704,25,84,-7
14270,-1008,-192,1736,23,86,-8
14275,-976,-184,1720,19,87,-6
14280,-1008,-208,1712,17,90,-5
14285,-992,-208,1728,14,91,-4
14290,-1008,-224,1712,14,91,-3
14295,-992,-176,1712,17,92,-2
14300,-992,-200,1688,21,90,-1
14305,-992,-184,1704,26,89,2
14310,-1000,-192,1672,33,87,3
14315,-984,-184,1672,40,82,4
14320,-984,-184,1664,47,79,3
14325,-984,-168,1680,53,77,4
14330,-1000,-168,1672,58,74,5
14335,-1008,-128,1688,62,70,5
14340,-1000,-152,1664,64,69,3
14345,-1000,-136,1672,64,66,4
14350,-984,-144,1704,63,63,3
14355,-1008,-136,1704,61,63,1
14360,-1008,-144,1688,58,63,0
14365,-992,-128,1712,53,60,-1
14370,-1000,-136,1680,47,61,-2
14375,-1000,-152,1704,39,62,-2
14380,-984,-160,1704,34,65,-5
14385,-1008,-120,1712,26,63,-5
14390,-1008,-160,1688,21,65,-5
14395,-1008,-128,1720,16,67,-6
14400,-1008,-128,1720,11,71,-9
14405,-1016,-168,1704,7,70,-8
14410,-1000,-152,1696,7,72,-9
14415,-1016,-176,1728,5,73,-9
14420,-1016,-184,1680,4,72,-12
14425,-1000,-176,1704,3,74,-12
14430,-1000,-176,1688,3,75,-11
14435,-1008,-176,1680,3,74,-10
14440,-984,-168,1688,4,75,-9
14445,-1008,-144,1704,6,75,-9
14450,-1000,-184,1712,7,72,-9
14455,-984,-184,1712,9,73,-9
14460,-1000,-160,1696,10,72,-8
14465,-1024,-160,1704,11,72,-8
14470,-1008,-152,1688,10,72,-7
14475,-992,-168,1696,11,70,-8
14480,-1016,-160,1712,10,69,-6
14485,-1016,-184,1728,10,70,-7
14490,-976,-176,1704,10,68,-6
14495,-1000,-160,1688,10,69,-6
14500,-1000,-168,1696,11,69,-4
14505,-1008,-160,1720,9,70,-4
14510,-992,-168,1704,9,68,-3
14515,-1000,-160,1672,9,67,-2
14520,-1008,-144,1680,9,66,-2
14525,-1000,-152,1696,8,65,-3
14530,-1000,-160,1680,7,64,-1
14535,-976,-168,1696,5,63,-4
14540,-1000,-152,1672,2,63,-4
14545,-1008,-128,1720,-1,62,-4
14550,-1008,-136,1688,-4,63,-3
14555,-992,-144,1704,-8,62,-4
14560,-1000,-176,1720,-11,63,-5
14565,-992,-144,1704,-13,61,-5
14570,-1000,-168,1720,-16,62,-6
14575,-1000,-192,1680,-17,62,-6
14580,-1000,-168,1680,-20,63,-6
14585,-992,-168,1704,-21,65,-7
14590,-1016,-160,1720,-19,65,-6
14595,-976,-176,1704,-18,65,-6
14600,-984,-168,1712,-15,66,-5
14605,-1016,-152,1720,-10,68,-6
14610,-1008,-160,1696,-6,68,-5
14615,-936,-136,1672,-1,68,-2
14620,-992,-160,1680,5,69,-2
14625,-1008,-160,1712,10,69,-3
14630,-984,-168,1680,15,70,-4
14635,-1000,-176,1688,19,71,-3
14640,-1000,-152,1688,20,72,-3
14645,-1008,-128,1720,24,75,-3
14650,-1016,-160,1712,27,75,-3
14655,-1016,-152,1680,28,76,-3
14660,-1008,-168,1712,27,78,-2
14665,-1016,-80,1656,26,77,-3
14670,-992,-144,1720,25,76,-4
14675,-1008,-152,1704,24,75,-5
14680,-1000,-144,1696,24,72,-4
14685,-1000,-160,1696,22,72,-4
14690,-1016,-144,1696,21,70,-3
14695,-1000,-120,1704,22,67,-4
14700,-1008,-136,1680,22,68,-5
14705,-1000,-160,1712,20,66,-6
14710,-1008,-136,1728,20,65,-7
14715,-1016,-136,1688,18,66,-9
14720,-1000,-136,1696,17,64,-7
14725,-1000,-176,1688,14,66,-8
14730,-1016,-152,1696,13,67,-8
14735,-1008,-136,1672,12,68,-8
14740,-1000,-168,1688,11,69,-7
14745,-1000,-136,1720,11,68,-5
14750,-1000,-168,1696,10,69,-6
14755,-1016,-112,1712,9,69,-5
14760,-1000,-152,1696,10,70,-4
14765,-1000,-160,1712,8,69,-3
14770,-992,-168,1672,9,68,-5
14775,-1000,-136,1704,9,67,-4
14780,-992,-160,1712,8,69,-5
14785,-1000,-128,1712,7,69,-5
14790,-992,-112,1696,8,69,-5
14795,-1016,-136,1696,5,67,-4
14800,-976,-136,1720,4,68,-4
14805,-1000,-152,1712,1,66,-4
14810,-1000,-144,1712,-2,66,-5
14815,-992,-136,1696,-5,67,-4
14820,-1016,-152,1720,-7,66,-4
14825,-1000,-120,1712,-11,66,-4
14830,-1000,-136,1712,-12,66,-3
14835,-1000,-144,1696,-14,66,-2
14840,-1016,-128,1696,-17,66,-4
14845,-984,-136,1696,-18,65,-3
14850,-992,-144,1712,-20,66,-2
14855,-1008,-144,1712,-20,65,-2
14860,-1024,-144,1704,-21,65,-2
14865,-1000,-120,1712,-19,64,-3
14870,-984,-152,1688,-20,65,-4
14875,-1000,-152,1696,-19,67,-3
14880,-1016,-128,1696,-18,67,-3
14885,-1008,-152,1736,-16,68,-4
14890,-992,-128,1688,-13,69,-4
14895,-992,-128,1712,-12,69,-3
14900,-1008,-144,1696,-8,71,-4
14905,-1008,-144,1704,-6,72,-3
14910,-1008,-128,1728,-4,72,-2
14915,-1008,-144,1704,-3,73,-5
14920,-984,-160,1680,-1,74,-4
14925,-1000,-144,1688,-2,73,-4
14930,-1016,-160,1680,-1,72,-3
14935,-992,-144,1712,0,71,-1
14940,-992,-96,1640,1,71,-1
14945,-984,-136,1696,1,70,0
14950,-992,-144,1688,1,71,-1
14955,-1008,-160,1720,1,69,-3
14960,-1000,-136,1704,-1,68,-3
14965,-984,-160,1712,-3,68,-3
14970,-1008,-136,1680,-5,68,-3
14975,-992,-144,1712,-6,68,-4
14980,-1000,-152,1712,-7,68,-2
14985,-1016,-152,1712,-9,68,-4
14990,-992,-136,1688,-10,68,-3
14995,-1000,-128,1704,-9,69,-4
