timestamp,accel_x,accel_y,accel_z,gyro_x,gyro_y,gyro_z
0,216,-1776,680,-31,15,4
5,232,-1808,696,-30,13,4
10,208,-1816,696,-29,14,3
15,240,-1776,688,-31,14,3
20,232,-1784,672,-34,15,2
25,200,-1792,672,-35,16,1
30,216,-1800,640,-36,17,1
35,232,-1808,696,-34,16,1
40,208,-1800,704,-34,17,1
45,248,-1808,712,-33,18,0
50,224,-1784,688,-32,19,0
55,216,-1808,696,-33,20,0
60,240,-1808,704,-34,21,1
65,224,-1808,688,-33,20,-1
70,240,-1840,696,-28,19,0
75,224,-1808,664,-24,19,0
80,248,-1792,712,-21,17,1
85,240,-1832,696,-18,15,2
90,208,-1792,696,-18,14,3
95,216,-1784,696,-21,13,3
100,232,-1792,680,-23,12,3
105,200,-1800,680,-29,10,3
110,256,-1816,664,-33,10,1
115,216,-1808,680,-36,12,0
120,256,-1808,696,-38,14,-2
125,224,-1800,712,-39,15,-1
130,248,-1800,696,-37,17,-4
135,232,-1800,696,-36,18,-4
140,232,-1808,680,-38,19,-6
145,200,-1800,736,-38,20,-6
150,240,-1824,704,-38,22,-6
155,240,-1840,672,-40,23,-5
160,224,-1816,672,-37,22,-7
165,232,-1808,712,-37,24,-6
170,224,-1800,688,-37,23,-6
175,240,-1800,704,-39,23,-7
180,232,-1816,656,-39,20,-5
185,216,-1800,688,-41,20,-5
190,232,-1816,696,-39,18,-4
195,240,-1800,720,-38,17,-1
200,224,-1800,688,-38,16,-2
205,232,-1800,704,-38,16,-1
210,200,-1784,696,-36,15,-3
215,232,-1800,688,-35,16,-2
220,240,-1800,696,-35,15,-2
225,232,-1784,696,-34,13,-1
230,216,-1784,688,-36,14,-3
235,216,-1800,688,-37,16,-3
240,232,-1784,664,-40,19,-3
245,216,-1784,688,-40,19,-6
250,224,-1784,680,-42,20,-7
255,232,-1816,688,-41,20,-7
260,232,-1824,696,-41,21,-8
265,208,-1800,712,-39,22,-8
270,240,-1824,736,-35,23,-8
275,240,-1816,680,-31,25,-8
280,232,-1816,696,-28,26,-7
285,216,-1808,736,-24,25,-5
290,216,-1792,688,-19,25,-5
295,248,-1832,688,-16,25,-4
300,240,-1816,720,-14,24,-5
305,216,-1808,680,-9,24,-3
310,232,-1816,704,-5,24,-5
315,216,-1800,704,-1,24,-5
320,216,-1792,728,-2,24,-5
325,232,-1792,680,-2,24,-5
330,240,-1792,696,-1,25,-5
335,240,-1776,680,-2,26,-5
340,232,-1784,680,-2,26,-4
345,224,-1792,696,-5,27,-4
350,224,-1800,680,-7,29,-5
355,240,-1800,680,-9,29,-4
360,232,-1776,688,-11,29,-5
365,216,-1768,696,-10,29,-5
370,240,-1808,704,-11,30,-5
375,240,-1792,696,-14,27,-6
380,240,-1800,728,-17,25,-6
385,224,-1776,680,-21,24,-7
390,216,-1768,728,-27,24,-7
395,240,-1784,688,-34,25,-7
400,224,-1800,696,-38,26,-9
405,248,-1856,744,-39,26,-8
410,240,-1872,720,-36,25,-8
415,232,-1848,720,-26,24,-7
420,224,-1824,688,-16,23,-7
425,224,-1760,704,-10,22,-5
430,232,-1768,688,-8,21,-3
435,224,-1752,696,-15,24,-2
440,224,-1744,656,-20,25,-2
445,208,-1760,672,-28,24,-3
450,232,-1784,672,-35,24,-3
455,232,-1808,712,-41,23,-4
460,240,-1824,720,-39,20,-4
465,216,-1856,720,-32,19,-4
470,200,-1864,744,-22,19,-3
475,224,-1864,704,-8,18,-2
480,200,-1872,728,3,17,0
485,216,-1824,712,14,18,3
490,216,-1824,704,24,21,4
495,240,-1824,712,33,23,5
500,216,-1808,672,39,25,5
505,232,-1760,648,40,27,5
510,240,-1752,688,38,27,5
515,208,-1744,656,31,25,3
520,208,-1768,672,26,21,3
525,200,-1776,712,23,18,3
530,224,-1776,688,24,17,2
535,224,-1784,704,25,15,2
540,216,-1784,696,26,15,2
545,192,-1760,720,28,15,2
550,224,-1784,712,30,15,1
555,224,-1792,768,31,15,3
560,224,-1784,752,31,14,3
565,208,-1792,752,31,15,4
570,248,-1792,720,33,16,3
575,200,-1800,720,35,16,2
580,232,-1808,744,39,17,3
585,224,-1808,720,42,16,3
590,216,-1792,720,48,14,4
595,232,-1816,728,56,13,6
600,232,-1816,712,63,12,7
605,216,-1800,712,67,13,7
610,208,-1800,720,74,13,9
615,176,-1784,736,79,11,9
620,216,-1816,720,87,10,10
625,200,-1792,712,95,10,12
630,224,-1816,696,101,10,14
635,248,-1792,712,110,11,16
640,216,-1768,696,118,12,18
645,224,-1808,720,125,13,22
650,208,-1776,696,134,13,23
655,200,-1784,720,140,11,24
660,216,-1776,720,145,10,27
665,224,-1776,728,150,9,29
670,200,-1752,720,152,8,31
675,216,-1776,752,156,7,33
680,232,-1800,736,160,8,33
685,200,-1784,720,163,8,34
690,168,-1760,728,165,8,36
695,216,-1768,720,168,9,39
700,208,-1784,744,167,8,40
705,208,-1776,736,167,10,41
710,208,-1776,712,167,10,41
715,208,-1760,736,168,12,42
720,200,-1776,768,164,14,41
725,216,-1752,744,162,14,41
730,224,-1776,712,158,12,38
735,216,-1768,736,152,10,35
740,208,-1760,728,148,8,33
745,216,-1736,760,142,8,30
750,240,-1760,680,136,8,27
755,216,-1744,712,132,8,25
760,240,-1776,728,127,11,21
765,224,-1744,728,125,13,18
770,232,-1736,744,118,15,13
775,256,-1736,728,113,20,8
780,272,-1720,712,106,22,5
785,224,-1728,712,98,23,0
790,256,-1728,688,88,23,-3
795,248,-1712,712,74,20,-6
800,248,-1688,720,59,21,-10
805,232,-1680,696,41,24,-13
810,256,-1688,728,21,24,-18
815,272,-1704,672,0,20,-22
820,264,-1656,728,-23,20,-26
825,248,-1664,728,-44,21,-30
830,264,-1680,728,-66,20,-38
835,256,-1680,712,-87,22,-45
840,264,-1688,736,-108,19,-53
845,264,-1712,712,-130,13,-61
850,256,-1688,768,-150,8,-70
855,288,-1704,752,-171,6,-79
860,248,-1688,744,-193,6,-88
865,264,-1704,752,-220,12,-95
870,232,-1680,712,-252,21,-101
875,248,-1672,696,-285,30,-106
880,264,-1672,728,-318,40,-108
885,272,-1704,704,-350,49,-106
890,232,-1720,736,-372,59,-104
895,256,-1728,768,-386,67,-103
900,232,-1776,752,-392,72,-99
905,232,-1784,784,-390,76,-94
910,216,-1808,768,-379,78,-88
915,232,-1816,800,-361,79,-81
920,216,-1824,792,-336,77,-74
925,200,-1816,816,-313,74,-64
930,216,-1856,816,-291,71,-57
935,208,-1848,816,-273,71,-51
940,192,-1856,848,-255,73,-47
945,200,-1872,792,-230,74,-43
950,208,-1848,816,-205,73,-41
955,200,-1864,816,-175,73,-38
960,176,-1808,808,-148,72,-36
965,208,-1856,784,-125,72,-36
970,176,-1800,776,-102,71,-36
975,192,-1816,808,-80,70,-36
980,192,-1800,776,-58,71,-39
985,184,-1736,792,-44,73,-43
990,184,-1736,768,-34,74,-45
995,216,-1720,760,-28,78,-50
1000,184,-1696,784,-29,83,-54
1005,192,-1712,800,-29,87,-56
1010,224,-1680,808,-31,92,-58
1015,232,-1664,808,-35,94,-59
1020,192,-1664,816,-36,92,-58
1025,216,-1728,832,-33,91,-57
1030,208,-1736,824,-24,89,-54
1035,216,-1752,832,-6,88,-51
1040,224,-1752,824,10,87,-48
1045,224,-1744,824,26,88,-45
1050,200,-1704,816,38,87,-42
1055,192,-1736,800,42,87,-39
1060,184,-1720,800,40,87,-37
1065,192,-1704,792,42,85,-36
1070,168,-1712,832,45,83,-36
1075,176,-1736,832,47,79,-35
1080,160,-1736,824,55,74,-31
1085,168,-1792,832,62,67,-27
1090,128,-1768,840,69,60,-24
1095,136,-1792,864,77,54,-20
1100,160,-1776,824,83,49,-17
1105,136,-1800,848,89,44,-15
1110,128,-1792,840,99,39,-11
1115,144,-1800,824,110,33,-8
1120,160,-1816,856,125,24,-3
1125,152,-1784,824,138,13,0
1130,160,-1752,800,147,5,3
1135,176,-1768,800,151,-2,4
1140,176,-1728,776,151,-7,4
1145,200,-1728,792,154,-12,3
1150,224,-1744,768,155,-17,4
1155,224,-1720,792,156,-22,4
1160,224,-1728,816,150,-26,4
1165,256,-1696,752,136,-30,2
1170,248,-1680,800,122,-33,-3
1175,280,-1704,776,106,-34,-6
1180,264,-1704,776,93,-30,-11
1185,272,-1704,776,80,-27,-16
1190,280,-1728,776,71,-24,-18
1195,264,-1728,776,64,-19,-22
1200,240,-1752,768,61,-15,-26
1205,256,-1776,768,65,-9,-28
1210,240,-1792,784,70,-6,-29
1215,240,-1808,800,77,-2,-29
1220,232,-1800,784,85,2,-29
1225,224,-1760,768,91,5,-28
1230,240,-1768,784,97,3,-26
1235,216,-1760,784,100,-1,-22
1240,216,-1744,760,100,-4,-18
1245,200,-1696,768,95,-6,-13
1250,200,-1712,744,88,-7,-9
1255,224,-1704,752,81,-6,-8
1260,224,-1696,776,74,-6,-4
1265,256,-1704,760,70,-7,0
1270,224,-1704,768,65,-6,1
1275,248,-1720,776,58,-6,2
1280,256,-1704,768,55,-5,2
1285,248,-1696,800,50,-6,3
1290,240,-1680,784,43,-7,5
1295,240,-1680,760,35,-6,5
1300,248,-1672,784,24,-4,4
1305,264,-1696,808,15,1,2
1310,248,-1688,760,7,4,-1
1315,232,-1704,800,0,8,-2
1320,256,-1712,792,-7,8,-5
1325,240,-1736,776,-8,9,-7
1330,248,-1728,808,-9,11,-8
1335,216,-1704,816,-9,9,-9
1340,240,-1728,768,-6,9,-10
1345,240,-1720,840,-5,8,-9
1350,248,-1728,816,-2,9,-9
1355,248,-1736,832,4,9,-8
1360,256,-1720,816,6,8,-7
1365,248,-1736,808,6,9,-5
1370,232,-1744,816,12,8,-5
1375,248,-1744,808,18,10,-6
1380,216,-1712,832,23,11,-6
1385,240,-1712,808,29,11,-6
1390,256,-1704,848,34,12,-4
1395,248,-1736,832,39,13,-4
1400,248,-1744,800,42,13,-2
1405,232,-1720,816,45,14,-3
1410,240,-1728,824,47,12,-1
1415,232,-1728,792,52,12,-2
1420,240,-1712,864,57,11,-2
1425,224,-1736,832,61,14,-1
1430,240,-1736,832,66,12,-2
1435,256,-1728,816,71,12,-2
1440,280,-1720,840,79,13,-4
1445,224,-1688,832,86,13,-4
1450,240,-1744,856,94,13,-5
1455,248,-1728,840,101,12,-4
1460,224,-1728,848,108,15,-4
1465,232,-1720,856,114,18,-5
1470,240,-1744,864,123,21,-2
1475,240,-1720,856,133,22,1
1480,232,-1736,856,141,22,3
1485,240,-1712,880,146,24,5
1490,248,-1736,848,151,24,7
1495,232,-1688,848,155,23,10
1500,216,-1696,856,159,21,13
1505,192,-1680,800,162,18,14
1510,232,-1680,840,164,13,14
1515,224,-1688,848,163,10,14
1520,208,-1672,816,162,8,14
1525,232,-1664,816,162,9,13
1530,240,-1680,848,161,8,10
1535,232,-1664,864,158,11,11
1540,256,-1672,832,156,11,11
1545,232,-1672,856,153,12,11
1550,224,-1680,840,152,14,10
1555,240,-1664,840,150,15,11
1560,248,-1696,880,148,12,9
1565,224,-1648,872,144,12,8
1570,240,-1672,808,138,12,8
1575,240,-1624,856,130,13,6
1580,264,-1648,824,123,14,3
1585,288,-1640,840,115,17,3
1590,248,-1648,848,109,19,1
1595,248,-1656,856,107,20,3
1600,256,-1648,872,104,22,3
1605,232,-1656,888,101,21,2
1610,264,-1664,848,99,22,1
1615,248,-1688,872,98,25,1
1620,272,-1696,896,102,27,2
1625,248,-1752,904,111,29,5
1630,232,-1736,888,123,30,10
1635,232,-1704,880,137,32,11
1640,248,-1712,888,146,33,14
1645,248,-1680,864,150,33,17
1650,240,-1672,904,149,35,18
1655,248,-1648,880,147,36,17
1660,256,-1648,856,145,37,17
1665,248,-1688,880,144,39,14
1670,248,-1688,904,146,41,13
1675,248,-1680,896,152,44,12
1680,240,-1688,888,157,46,10
1685,272,-1712,904,161,48,9
1690,264,-1672,880,163,50,9
1695,248,-1664,896,161,52,11
1700,248,-1648,928,157,51,9
1705,216,-1632,912,153,51,7
1710,224,-1640,928,146,52,2
1715,272,-1656,920,141,51,-2
1720,232,-1624,904,139,50,-6
1725,232,-1616,904,141,49,-8
1730,232,-1624,888,138,50,-12
1735,240,-1648,904,133,50,-16
1740,256,-1640,896,131,50,-19
1745,240,-1672,896,136,51,-21
1750,232,-1672,920,149,54,-22
1755,240,-1680,928,160,58,-21
1760,248,-1680,920,175,64,-20
1765,248,-1664,912,188,70,-17
1770,264,-1656,920,197,76,-17
1775,248,-1648,928,201,85,-16
1780,264,-1624,896,200,92,-14
1785,232,-1584,928,202,97,-11
1790,216,-1592,912,203,99,-6
1795,232,-1576,896,203,104,-1
1800,208,-1584,912,202,107,1
1805,192,-1544,896,196,107,5
1810,192,-1552,928,185,103,6
1815,176,-1544,888,171,98,11
1820,192,-1544,912,154,92,15
1825,168,-1552,904,139,89,17
1830,200,-1544,968,126,85,21
1835,184,-1544,952,118,80,21
1840,176,-1536,960,111,75,21
1845,184,-1528,960,96,69,18
1850,208,-1560,928,78,66,13
1855,192,-1568,944,64,63,8
1860,216,-1592,944,57,60,3
1865,208,-1576,912,54,60,-3
1870,224,-1608,936,54,63,-12
1875,240,-1616,976,54,66,-23
1880,280,-1640,960,52,71,-31
1885,256,-1616,936,48,75,-39
1890,248,-1600,952,38,79,-44
1895,264,-1616,992,25,88,-45
1900,240,-1640,976,17,97,-41
1905,240,-1656,952,15,103,-35
1910,256,-1696,1000,28,105,-30
1915,256,-1696,1008,46,107,-26
1920,224,-1712,968,64,109,-24
1925,224,-1720,976,82,114,-18
1930,200,-1728,976,106,114,-15
1935,216,-1744,952,132,116,-8
1940,192,-1728,920,164,118,-6
1945,192,-1744,936,199,120,-4
1950,160,-1696,944,229,119,-1
1955,176,-1672,896,259,119,-1
1960,200,-1640,896,279,119,1
1965,176,-1608,944,285,119,3
1970,184,-1584,928,284,120,8
1975,216,-1592,936,288,123,11
1980,200,-1584,944,293,127,20
1985,208,-1600,912,305,128,28
1990,176,-1608,880,318,130,37
1995,208,-1600,904,334,132,43
2000,200,-1608,920,348,138,47
2005,200,-1648,952,372,141,53
2010,200,-1600,952,392,141,58
2015,224,-1624,960,406,138,61
2020,224,-1608,952,406,138,67
2025,216,-1576,992,402,142,69
2030,200,-1608,960,400,150,73
2035,200,-1632,992,411,160,79
2040,216,-1664,1016,441,169,86
2045,208,-1680,976,480,171,95
2050,216,-1664,1000,520,173,103
2055,184,-1656,960,557,173,110
2060,176,-1632,968,586,169,115
2065,208,-1632,936,613,164,121
2070,176,-1576,976,641,161,125
2075,192,-1608,944,666,162,125
2080,176,-1552,1000,688,163,126
2085,160,-1536,1016,704,165,129
2090,184,-1528,1016,719,163,133
2095,176,-1504,1024,730,159,138
2100,176,-1488,1008,732,155,141
2105,184,-1448,1056,724,154,142
2110,152,-1440,1064,708,152,140
2115,152,-1456,1056,698,151,140
2120,120,-1448,1088,691,148,140
2125,112,-1488,1064,693,145,143
2130,128,-1496,1056,700,144,147
2135,128,-1512,1056,707,145,151
2140,144,-1528,1080,714,143,156
2145,168,-1520,1080,729,145,160
2150,160,-1504,1096,754,146,163
2155,160,-1512,1072,786,145,167
2160,160,-1512,1072,814,141,172
2165,168,-1472,1096,837,137,175
2170,128,-1456,1080,854,133,178
2175,160,-1424,1088,869,131,182
2180,112,-1392,1120,883,132,186
2185,136,-1360,1120,889,133,191
2190,120,-1344,1160,890,132,192
2195,112,-1360,1160,892,129,192
2200,128,-1368,1160,900,120,195
2205,136,-1344,1160,907,111,200
2210,160,-1344,1192,911,103,208
2215,184,-1376,1152,921,98,215
2220,152,-1304,1144,927,103,218
2225,200,-1280,1120,932,115,212
2230,208,-1200,1152,928,129,204
2235,264,-1224,1200,919,141,199
2240,272,-1208,1208,917,148,192
2245,336,-1232,1200,921,154,184
2250,368,-1184,1208,920,161,172
2255,288,-1144,1200,911,166,156
2260,216,-1112,1168,913,171,151
2265,160,-1120,1176,922,178,163
2270,168,-1104,1224,926,188,180
2275,104,-1136,1240,926,201,193
2280,88,-1104,1272,923,212,199
2285,64,-1112,1288,918,215,206
2290,40,-1088,1264,915,211,214
2295,48,-1088,1240,913,206,222
2300,56,-1048,1240,916,201,224
2305,88,-1032,1208,922,197,223
2310,72,-1000,1240,927,184,219
2315,72,-1000,1224,931,162,209
2320,104,-960,1176,926,139,202
2325,88,-1000,1184,921,123,192
2330,80,-984,1192,916,114,182
2335,96,-1016,1176,914,107,173
2340,88,-1040,1184,912,101,162
2345,64,-1040,1192,918,94,152
2350,48,-1064,1192,935,91,142
2355,24,-1112,1224,959,99,131
2360,0,-1088,1248,987,107,124
2365,0,-1112,1272,1011,111,125
2370,-24,-1112,1304,1031,110,128
2375,-40,-1136,1296,1058,107,135
2380,-32,-1104,1352,1082,98,144
2385,-72,-1088,1296,1107,90,146
2390,-112,-1064,1384,1130,86,149
2395,-120,-1088,1384,1157,77,157
2400,-128,-1048,1384,1174,63,166
2405,-112,-1016,1376,1188,51,179
2410,-104,-992,1440,1198,42,196
2415,-88,-976,1432,1201,33,211
2420,-120,-912,1368,1196,21,219
2425,-128,-920,1416,1198,12,222
2430,-128,-928,1416,1206,5,224
2435,-144,-880,1424,1217,-2,226
2440,-144,-848,1432,1222,-8,232
2445,-136,-872,1440,1221,-14,242
2450,-144,-864,1432,1221,-22,252
2455,-104,-864,1400,1231,-26,262
2460,-136,-864,1392,1244,-31,269
2465,-120,-816,1376,1260,-34,270
2470,-152,-800,1376,1269,-35,271
2475,-96,-776,1336,1278,-33,271
2480,-72,-752,1344,1291,-30,275
2485,-80,-776,1400,1314,-27,280
2490,-80,-736,1400,1330,-28,286
2495,-112,-704,1376,1344,-27,293
2500,-104,-680,1360,1358,-23,299
2505,-88,-648,1360,1366,-17,301
2510,-112,-632,1408,1372,-6,303
2515,-104,-608,1400,1383,7,306
2520,-104,-584,1408,1398,14,309
2525,-80,-544,1376,1415,12,316
2530,-64,-528,1376,1428,10,322
2535,-24,-528,1360,1436,8,329
2540,8,-520,1320,1445,9,337
2545,0,-504,1288,1459,12,342
2550,8,-504,1280,1470,22,339
2555,32,-488,1280,1483,34,339
2560,24,-464,1344,1497,45,338
2565,32,-448,1328,1509,52,336
2570,56,-432,1248,1524,61,334
2575,64,-400,1200,1536,71,328
2580,96,-336,1200,1550,84,318
2585,96,-304,1208,1563,102,312
2590,88,-272,1200,1582,121,299
2595,120,-256,1240,1595,147,287
2600,88,-232,1224,1607,172,278
2605,80,-224,1184,1623,193,273
2610,88,-224,1152,1649,220,270
2615,104,-232,1120,1676,246,269
2620,112,-208,1120,1702,260,264
2625,80,-152,1128,1732,270,255
2630,48,-96,1192,1762,280,246
2635,0,-24,1176,1789,299,239
2640,0,8,1176,1813,314,239
2645,-88,96,1120,1830,312,242
2650,-120,120,1080,1847,302,249
2655,-144,152,1040,1863,293,255
2660,-128,136,1040,1877,289,261
2665,-120,152,1032,1884,287,267
2670,-72,136,1032,1890,283,271
2675,-56,152,1072,1902,278,272
2680,-56,168,1048,1917,277,274
2685,-64,184,1128,1915,288,276
2690,-96,128,1048,1899,306,279
2695,-72,72,984,1890,323,282
2700,-56,56,840,1882,333,283
2705,-88,40,768,1874,328,283
2710,-88,16,784,1872,319,283
2715,-40,8,792,1885,311,288
2720,0,16,728,1902,296,294
2725,8,48,648,1908,281,298
2730,-16,104,616,1900,263,302
2735,-64,144,472,1889,246,312
2740,-96,152,352,1850,224,310
2745,-32,88,296,1808,190,296
2750,-8,40,184,1803,170,278
2755,40,0,176,1827,151,264
2760,80,56,216,1858,133,259
2765,136,104,88,1882,113,260
2770,224,144,48,1901,94,257
2775,192,264,32,1919,101,253
2780,160,344,-24,1944,96,247
2785,120,520,-72,1971,84,241
2790,48,608,-48,1987,81,242
2795,-48,688,-80,1988,73,245
2800,16,712,-200,1977,53,242
2805,72,776,-328,1948,41,238
2810,112,896,-384,1907,39,236
2815,352,1064,-176,1898,61,225
2820,536,1144,80,1922,118,194
2825,256,1408,296,1938,147,153
2830,256,1672,672,1888,122,100
2835,-56,2040,1296,1741,156,50
2840,-232,2312,1912,1521,239,39
2845,-320,2696,2136,1269,312,49
2850,-528,2968,2240,1003,341,80
2855,-280,3088,2352,711,307,65
2860,-496,3552,2688,416,307,-67
2865,-560,4344,2960,160,264,-194
2870,-640,5472,3304,-82,167,-273
2875,-472,6440,3696,-413,87,-330
2880,-480,7232,4232,-885,94,-374
2885,-416,7648,4296,-1306,78,-386
2890,-480,7600,3928,-1590,20,-402
2895,-520,7128,3408,-1786,0,-476
2900,-664,6264,2976,-2023,29,-623
2905,-624,5008,2896,-2332,110,-751
2910,-664,3464,2896,-2688,298,-872
2915,-624,1968,2424,-2893,514,-898
2920,-584,864,2048,-2877,701,-818
2925,-400,24,2136,-2609,828,-704
2930,-296,-592,2272,-2103,844,-595
2935,-352,-1128,2368,-1493,755,-465
2940,-584,-1464,2472,-883,568,-259
2945,-944,-1624,2768,-323,299,-65
2950,-1176,-1528,2992,218,-43,107
2955,-1304,-1128,2976,753,-446,263
2960,-1248,-688,2896,1268,-834,393
2965,-1056,-200,2792,1723,-1169,486
2970,-992,224,2704,2095,-1296,545
2975,-776,616,2536,2344,-1286,578
2980,-608,952,2424,2459,-1177,587
2985,-408,1208,2384,2484,-1012,571
2990,-344,1392,2288,2436,-827,547
2995,-304,1496,2152,2354,-648,529
3000,-144,1536,2008,2228,-503,508
3005,-8,1600,1840,2074,-384,470
3010,80,1600,1688,1917,-282,431
3015,112,1536,1504,1773,-192,405
3020,120,1480,1312,1635,-123,398
3025,40,1480,1056,1487,-80,393
3030,-16,1488,800,1329,-69,382
3035,-88,1520,584,1180,-106,362
3040,-56,1520,400,1044,-179,339
3045,-56,1456,280,921,-268,326
3050,-128,1360,240,780,-352,330
3055,-128,1160,232,611,-420,348
3060,-216,1048,264,446,-462,359
3065,-336,1000,280,320,-473,368
3070,-424,1112,320,245,-460,380
3075,-624,1224,288,203,-428,409
3080,-792,1376,304,153,-398,463
3085,-840,1536,320,76,-393,527
3090,-696,1576,384,-7,-407,582
3095,-624,1624,264,-96,-432,617
3100,-464,1648,256,-182,-451,631
3105,-248,1592,224,-266,-459,631
3110,-72,1552,256,-362,-455,626
3115,104,1536,328,-475,-442,617
3120,168,1520,392,-597,-426,607
3125,272,1488,496,-713,-409,595
3130,208,1512,608,-812,-390,564
3135,376,1568,624,-898,-376,524
3140,400,1616,712,-968,-368,478
3145,376,1624,744,-1026,-363,435
3150,296,1776,864,-1079,-358,404
3155,304,1616,856,-1125,-350,383
3160,232,1568,896,-1168,-340,363
3165,216,1576,976,-1201,-325,344
3170,208,1608,1080,-1215,-299,316
3175,168,1576,1136,-1210,-264,281
3180,128,1584,1168,-1203,-225,252
3185,128,1576,1216,-1200,-185,218
3190,80,1568,1240,-1203,-145,194
3195,96,1536,1320,-1223,-109,185
3200,72,1480,1376,-1253,-78,174
3205,104,1416,1448,-1283,-54,167
3210,96,1400,1528,-1310,-35,159
3215,128,1360,1536,-1330,-23,148
3220,104,1384,1584,-1346,-9,131
3225,128,1376,1672,-1358,-8,118
3230,144,1344,1696,-1363,-35,110
3235,192,1264,1768,-1365,-86,92
3240,240,1232,1840,-1369,-146,70
3245,224,1176,1864,-1377,-220,60
3250,312,1080,1928,-1391,-306,47
3255,368,992,2008,-1405,-400,13
3260,336,928,2056,-1422,-498,-36
3265,248,920,2104,-1437,-588,-66
3270,312,1016,2048,-1439,-643,-73
3275,264,1048,2000,-1431,-654,-67
3280,240,1072,1976,-1434,-634,-56
3285,264,1032,1928,-1458,-600,-67
3290,176,1016,1928,-1506,-559,-87
3295,200,960,1952,-1564,-516,-95
3300,248,912,1920,-1600,-472,-96
3305,288,832,1888,-1612,-424,-92
3310,312,776,1920,-1610,-373,-93
3315,344,680,1936,-1609,-325,-108
3320,368,616,1952,-1624,-286,-138
3325,376,520,1944,-1651,-259,-174
3330,488,408,1944,-1684,-246,-209
3335,456,280,2024,-1709,-239,-232
3340,456,144,2040,-1710,-247,-249
3345,504,64,2056,-1677,-265,-262
3350,528,0,1968,-1621,-287,-272
3355,488,-40,1928,-1548,-309,-270
3360,472,-128,1896,-1462,-343,-265
3365,448,-136,1864,-1362,-390,-259
3370,488,-168,1768,-1261,-440,-253
3375,496,-224,1720,-1160,-482,-248
3380,448,-216,1688,-1058,-517,-232
3385,352,-136,1648,-963,-543,-228
3390,352,-104,1600,-871,-557,-237
3395,360,-24,1600,-793,-562,-250
3400,328,-160,1616,-729,-557,-267
3405,376,-144,1624,-648,-568,-276
3410,448,-88,1592,-583,-564,-274
3415,352,0,1592,-530,-532,-277
3420,216,0,1592,-468,-501,-277
3425,240,16,1608,-397,-487,-279
3430,232,40,1608,-336,-490,-286
3435,232,72,1584,-292,-499,-287
3440,144,64,1616,-253,-506,-287
3445,136,72,1640,-229,-521,-275
3450,184,72,1624,-209,-538,-251
3455,192,120,1552,-191,-541,-222
3460,160,152,1512,-174,-525,-190
3465,248,168,1472,-154,-503,-164
3470,272,104,1440,-126,-469,-145
3475,216,64,1408,-94,-424,-130
3480,288,40,1440,-49,-387,-115
3485,304,16,1432,2,-346,-105
3490,304,0,1480,50,-297,-92
3495,280,0,1504,93,-261,-69
3500,168,96,1528,130,-233,-43
3505,288,144,1520,154,-228,-16
3510,408,232,1512,167,-234,-4
3515,432,304,1536,165,-239,15
3520,496,344,1544,139,-246,41
3525,504,464,1544,98,-251,62
3530,528,544,1544,46,-249,75
3535,616,608,1496,-5,-245,78
3540,728,608,1448,-46,-238,58
3545,784,568,1448,-83,-218,39
3550,864,496,1448,-118,-187,13
3555,840,448,1480,-149,-146,-13
3560,760,312,1632,-178,-99,-33
3565,800,232,1552,-204,-56,-46
3570,808,152,1592,-225,-4,-59
3575,736,40,1576,-231,36,-69
3580,768,-56,1696,-214,60,-82
3585,704,0,1616,-175,60,-94
3590,696,0,1656,-133,65,-98
3595,712,40,1624,-86,73,-103
3600,752,48,1648,-38,76,-104
3605,768,112,1696,1,72,-111
3610,784,232,1680,36,68,-113
3615,792,256,1632,69,73,-110
3620,784,280,1592,103,83,-102
3625,744,304,1592,136,97,-93
3630,752,336,1584,167,118,-83
3635,720,352,1584,191,141,-77
3640,664,392,1592,207,160,-70
3645,640,432,1600,217,179,-66
3650,616,480,1616,218,197,-61
3655,584,496,1592,209,213,-58
3660,568,528,1624,197,225,-53
3665,544,504,1656,183,234,-48
3670,536,528,1696,173,237,-41
3675,552,512,1712,168,236,-35
3680,520,512,1720,165,233,-28
3685,504,496,1728,164,224,-18
3690,504,496,1688,163,215,-11
3695,504,488,1688,161,206,-3
3700,504,480,1648,155,202,4
3705,448,496,1680,146,199,12
3710,432,488,1632,135,197,18
3715,408,464,1648,123,201,23
3720,408,464,1592,107,206,27
3725,392,472,1568,91,212,31
3730,384,464,1608,81,215,34
3735,384,456,1560,73,223,33
3740,376,448,1560,68,233,38
3745,360,464,1552,66,242,39
3750,376,456,1528,66,251,41
3755,320,464,1544,65,260,43
3760,344,456,1560,67,265,46
3765,312,456,1560,70,267,47
3770,312,440,1544,74,269,51
3775,320,416,1568,74,268,53
3780,328,416,1568,73,266,58
3785,336,432,1584,69,262,61
3790,320,408,1568,64,257,64
3795,312,408,1608,56,253,64
3800,352,400,1616,49,249,65
3805,328,400,1608,48,246,67
3810,312,408,1640,46,240,67
3815,336,440,1648,49,233,70
3820,312,456,1648,57,226,74
3825,328,424,1664,63,215,72
3830,336,440,1624,70,207,68
3835,320,488,1664,69,199,69
3840,312,472,1656,70,190,69
3845,328,480,1640,69,182,69
3850,280,512,1648,67,178,68
3855,312,496,1632,61,173,65
3860,320,496,1688,52,168,60
3865,296,480,1648,46,165,53
3870,296,504,1656,41,162,50
3875,328,536,1648,36,156,46
3880,280,544,1624,32,155,43
3885,288,536,1632,32,154,35
3890,312,544,1608,29,154,29
3895,272,552,1576,25,158,26
3900,296,576,1632,20,160,21
3905,296,544,1600,12,160,18
3910,344,560,1600,3,165,16
3915,360,544,1640,-6,175,13
3920,304,528,1648,-15,184,9
3925,336,536,1624,-19,187,4
3930,336,512,1616,-15,189,-3
3935,288,520,1640,-11,188,-7
3940,320,520,1640,-13,185,-11
3945,336,528,1672,-13,182,-15
3950,280,528,1624,-16,181,-14
3955,288,512,1672,-19,177,-13
3960,288,528,1648,-21,175,-15
3965,240,528,1656,-22,175,-18
3970,216,568,1640,-24,176,-17
3975,264,520,1632,-30,179,-16
3980,256,528,1616,-35,184,-20
3985,232,496,1616,-38,190,-23
3990,240,504,1608,-33,197,-27
3995,208,512,1624,-30,205,-32
4000,248,472,1624,-25,215,-37
4005,272,496,1592,-19,223,-40
4010,216,496,1624,-12,231,-44
4015,272,472,1664,-10,235,-45
4020,240,464,1640,-12,239,-50
4025,256,480,1696,-17,236,-53
4030,168,464,1648,-26,228,-53
4035,200,504,1680,-36,215,-54
4040,224,480,1696,-49,198,-51
4045,192,488,1680,-65,185,-52
4050,160,504,1656,-83,171,-51
4055,240,480,1664,-95,154,-53
4060,168,504,1648,-97,144,-55
4065,120,488,1624,-95,135,-56
4070,168,488,1608,-87,123,-56
4075,224,488,1552,-75,114,-56
4080,168,488,1576,-74,114,-56
4085,120,496,1568,-79,115,-58
4090,192,504,1544,-87,110,-59
4095,192,504,1592,-95,107,-60
4100,136,496,1592,-104,103,-58
4105,72,496,1632,-111,93,-56
4110,200,504,1648,-112,82,-53
4115,176,480,1640,-111,77,-55
4120,168,464,1672,-107,75,-54
4125,128,472,1640,-98,70,-54
4130,184,448,1648,-96,64,-56
4135,184,448,1656,-86,61,-60
4140,152,488,1656,-77,60,-61
4145,136,472,1656,-69,55,-58
4150,120,432,1672,-60,46,-55
4155,120,416,1656,-52,35,-52
4160,128,424,1672,-45,24,-46
4165,120,440,1672,-41,15,-41
4170,136,424,1680,-39,10,-33
4175,128,408,1624,-33,4,-31
4180,96,432,1648,-29,-2,-29
4185,128,424,1632,-28,-8,-29
4190,136,448,1616,-30,-13,-29
4195,144,480,1632,-29,-18,-27
4200,144,464,1632,-28,-25,-23
4205,144,440,1640,-27,-33,-21
4210,120,440,1632,-24,-44,-18
4215,152,456,1624,-23,-52,-19
4220,128,464,1624,-20,-60,-19
4225,152,448,1624,-20,-68,-19
4230,128,480,1656,-16,-74,-19
4235,144,416,1632,-13,-80,-20
4240,152,432,1656,-9,-86,-21
4245,176,448,1640,-4,-92,-22
4250,160,432,1648,-1,-97,-23
4255,160,440,1616,3,-102,-22
4260,192,424,1640,5,-108,-21
4265,208,432,1680,9,-113,-22
4270,184,448,1640,11,-120,-23
4275,200,448,1640,15,-122,-26
4280,208,464,1632,21,-126,-27
4285,240,456,1616,26,-126,-29
4290,240,472,1672,31,-126,-29
4295,224,448,1640,37,-124,-29
4300,240,464,1672,41,-122,-29
4305,240,480,1656,46,-122,-28
4310,232,472,1656,51,-120,-27
4315,272,488,1632,54,-118,-24
4320,272,488,1616,53,-117,-24
4325,280,504,1624,56,-112,-24
4330,296,504,1608,52,-103,-26
4335,328,504,1648,51,-96,-27
4340,328,512,1584,49,-92,-22
4345,312,520,1608,49,-88,-22
4350,264,520,1536,45,-83,-17
4355,336,496,1696,-15,-144,6
4360,392,512,1640,-2,-158,-1
4365,416,520,1640,22,-130,-8
4370,376,528,1624,35,-102,-10
4375,360,512,1616,40,-78,-10
4380,368,512,1632,41,-62,-13
4385,336,504,1624,39,-55,-13
4390,360,520,1608,36,-50,-14
4395,344,496,1616,33,-47,-12
4400,328,496,1584,32,-45,-11
4405,392,496,1600,33,-40,-11
4410,344,504,1584,35,-38,-9
4415,336,512,1568,35,-34,-9
4420,312,504,1576,33,-30,-9
4425,336,512,1576,31,-26,-9
4430,344,504,1600,29,-20,-7
4435,328,520,1568,26,-15,-7
4440,336,520,1560,24,-10,-9
4445,320,528,1568,22,-4,-10
4450,312,528,1584,21,1,-10
4455,320,536,1576,21,3,-11
4460,312,528,1568,18,4,-12
4465,320,528,1576,13,3,-11
4470,312,520,1584,6,3,-11
4475,312,544,1608,-1,4,-10
4480,328,536,1608,-8,9,-8
4485,320,520,1608,-12,15,-6
4490,288,528,1616,-19,20,-4
4495,296,536,1608,-24,25,0
4500,336,536,1600,-28,28,2
4505,304,520,1600,-33,31,7
4510,296,536,1608,-36,34,11
4515,216,520,1784,-41,34,14
4520,296,520,1568,-43,34,16
4525,320,528,1632,-47,32,17
4530,320,520,1616,-49,32,19
4535,328,520,1592,-50,34,20
4540,312,544,1616,-50,39,21
4545,304,512,1600,-47,43,23
4550,296,512,1608,-44,49,22
4555,296,520,1608,-40,56,21
4560,280,528,1600,-36,63,22
4565,344,504,1592,-31,71,21
4570,328,528,1600,-30,77,20
4575,320,496,1608,-27,84,17
4580,336,512,1576,-22,91,14
4585,320,520,1632,-17,95,12
4590,320,504,1616,-13,97,11
4595,336,488,1640,-12,97,10
4600,288,512,1632,-11,94,9
4605,280,512,1632,-12,90,8
4610,280,520,1616,-14,87,9
4615,272,504,1600,-18,84,9
4620,272,488,1664,-21,84,9
4625,272,504,1624,-22,84,10
4630,216,488,1640,-21,86,13
4635,296,504,1616,-15,86,14
4640,312,480,1600,-4,88,13
4645,280,520,1592,6,95,15
4650,264,512,1568,5,103,14
4655,264,528,1632,-2,107,12
4660,248,512,1584,-10,104,10
4665,272,536,1584,-18,100,9
4670,264,536,1584,-27,94,8
4675,248,544,1600,-32,89,7
4680,224,536,1608,-34,83,7
4685,216,560,1624,-34,76,7
4690,216,552,1632,-36,69,5
4695,208,560,1608,-38,65,5
4700,264,536,1632,-41,60,5
4705,240,536,1608,-44,61,1
4710,192,552,1632,-44,62,-1
4715,184,568,1632,-43,58,-3
4720,200,536,1648,-43,51,-5
4725,232,544,1640,-46,45,-7
4730,184,544,1616,-48,45,-12
4735,224,536,1624,-48,47,-14
4740,272,544,1616,-47,49,-15
4745,224,504,1632,-46,55,-16
4750,192,520,1640,-43,60,-16
4755,224,496,1632,-38,58,-16
4760,224,496,1640,-35,54,-17
4765,224,496,1624,-32,48,-16
4770,240,520,1624,-30,46,-14
4775,216,496,1672,-29,46,-11
4780,224,504,1632,-25,46,-10
4785,192,512,1656,-21,44,-12
4790,208,504,1632,-20,40,-12
4795,216,504,1648,-16,33,-10
4800,192,520,1640,-13,26,-9
4805,224,512,1608,-11,18,-9
4810,224,504,1624,-7,14,-9
4815,224,528,1592,-6,12,-10
4820,224,512,1624,-5,8,-13
4825,192,528,1616,-3,3,-14
4830,216,528,1600,-4,-4,-14
4835,216,512,1640,-7,-11,-14
4840,200,536,1616,-7,-17,-14
4845,224,544,1632,-8,-20,-14
4850,200,536,1576,-11,-22,-14
4855,208,528,1608,-11,-25,-14
4860,224,520,1600,-11,-24,-13
4865,216,536,1616,-13,-24,-14
4870,208,544,1616,-16,-23,-13
4875,224,536,1640,-19,-21,-14
4880,240,528,1632,-19,-21,-13
4885,232,536,1640,-21,-20,-13
4890,240,520,1616,-23,-20,-14
4895,224,512,1640,-23,-19,-14
4900,240,504,1616,-21,-19,-14
4905,256,512,1608,-17,-20,-14
4910,256,512,1632,-13,-20,-14
4915,256,520,1600,-5,-19,-13
4920,256,512,1600,2,-20,-13
4925,248,528,1616,7,-21,-12
4930,280,496,1624,9,-23,-12
4935,256,512,1624,14,-24,-12
4940,272,520,1648,17,-23,-12
4945,256,528,1584,18,-23,-11
4950,264,520,1608,22,-23,-11
4955,256,520,1624,23,-23,-11
4960,264,536,1592,27,-23,-12
4965,264,520,1672,26,-20,-10
4970,264,544,1600,25,-18,-8
4975,256,544,1608,24,-17,-7
4980,272,544,1616,23,-15,-6
4985,240,560,1600,21,-13,-6
4990,280,560,1608,19,-12,-5
4995,288,528,1624,18,-11,-3
5000,272,544,1608,14,-8,-3
5005,288,536,1608,13,-7,-1
5010,296,552,1592,10,-6,0
5015,288,552,1616,6,-1,-2
5020,280,560,1600,-1,-1,-1
5025,272,560,1592,-6,0,-3
5030,304,560,1600,-10,-1,-1
5035,280,544,1608,-15,0,-2
5040,264,568,1608,-18,-1,0
5045,264,568,1576,-21,-2,0
5050,296,560,1592,-25,-2,1
5055,272,576,1584,-29,0,3
5060,264,560,1600,-32,2,2
5065,288,544,1624,-34,4,1
5070,272,552,1624,-36,7,-1
5075,304,568,1608,-38,12,-2
5080,272,568,1592,-39,15,-3
5085,288,560,1616,-40,19,-5
5090,288,568,1576,-41,22,-7
5095,296,552,1592,-40,25,-10
5100,288,544,1568,-40,26,-11
5105,272,552,1616,-40,26,-12
5110,256,560,1608,-40,24,-12
5115,288,552,1592,-44,23,-12
5120,280,536,1600,-46,23,-10
5125,288,536,1592,-46,22,-8
5130,256,560,1608,-46,20,-8
5135,256,560,1624,-46,20,-6
5140,264,552,1616,-45,22,-3
5145,272,544,1552,-43,26,0
5150,272,544,1600,-39,29,-1
5155,264,544,1600,-35,32,0
5160,264,552,1600,-32,35,0
5165,272,528,1600,-30,38,0
5170,272,536,1624,-30,41,1
5175,280,528,1616,-31,44,1
5180,264,536,1600,-30,48,1
5185,280,560,1600,-29,50,0
5190,264,536,1616,-26,55,2
5195,280,544,1640,-24,57,0
5200,256,528,1592,-22,58,-1
5205,256,528,1624,-23,58,-3
5210,288,528,1608,-25,57,0
5215,248,544,1616,-25,58,2
5220,272,544,1608,-28,60,5
5225,248,536,1624,-33,61,7
5230,248,536,1632,-33,64,8
5235,256,520,1592,-30,64,12
5240,288,520,1584,-18,63,17
5245,240,544,1584,-6,67,21
5250,240,536,1536,2,68,18
5255,208,552,1600,2,64,17
5260,216,568,1560,3,56,18
5265,224,560,1584,1,44,16
5270,240,568,1584,-6,33,13
5275,264,576,1600,-14,25,11
5280,208,592,1568,-21,20,11
5285,216,584,1608,-25,19,8
5290,168,592,1576,-30,16,6
5295,296,592,1608,-36,11,1
5300,288,600,1600,-38,12,-5
5305,256,576,1616,-40,19,-6
5310,296,568,1608,-40,25,-6
5315,248,544,1616,-44,31,-9
5320,240,576,1632,-51,34,-13
5325,240,576,1624,-55,34,-13
5330,232,552,1672,-58,35,-12
5335,248,584,1648,-61,31,-12
5340,224,592,1648,-63,30,-12
5345,264,568,1632,-62,27,-11
5350,264,568,1624,-62,29,-12
5355,248,552,1664,-61,32,-12
5360,240,520,1608,-59,29,-11
5365,232,512,1632,-53,25,-7
5370,256,536,1632,-48,22,-5
5375,240,544,1608,-44,21,-4
5380,248,536,1568,-40,21,-2
5385,232,560,1600,-39,26,-1
5390,256,584,1568,-42,31,-1
5395,256,568,1592,-47,37,0
5400,248,560,1576,-51,41,2
5405,232,576,1600,-54,41,3
5410,240,576,1608,-59,39,6
5415,256,544,1600,-61,34,10
5420,256,552,1584,-59,27,15
5425,232,552,1584,-57,19,19
5430,256,568,1592,-55,14,20
5435,248,568,1608,-53,9,20
5440,184,568,1584,-50,4,19
5445,272,560,1624,-48,-2,18
5450,264,584,1584,-47,-6,17
5455,256,592,1624,-45,-8,16
5460,272,584,1592,-49,-8,14
5465,272,584,1592,-51,-7,11
5470,248,576,1616,-59,-4,7
5475,264,608,1640,-62,-3,3
5480,256,544,1640,-68,2,0
5485,216,560,1632,-71,5,-3
5490,240,544,1640,-73,8,-6
5495,240,536,1616,-76,11,-9
5500,240,520,1624,-74,13,-9
5505,240,528,1640,-72,18,-12
5510,232,528,1624,-69,20,-12
5515,248,512,1632,-68,23,-13
5520,224,544,1632,-66,24,-14
5525,224,552,1600,-65,22,-14
5530,256,528,1584,-65,22,-10
5535,224,536,1624,-66,19,-8
5540,240,528,1648,-63,16,-5
5545,240,544,1584,-65,14,-5
5550,272,520,1624,-65,15,-4
5555,248,528,1608,-67,14,-5
5560,232,544,1608,-68,15,-3
5565,240,552,1592,-70,13,-1
5570,232,536,1600,-67,9,0
5575,240,536,1600,-64,7,1
5580,240,560,1600,-64,4,2
5585,248,560,1584,-62,3,3
5590,248,552,1592,-61,5,2
5595,248,544,1616,-56,10,2
5600,256,568,1632,-53,13,2
5605,240,584,1600,-53,17,0
5610,248,560,1616,-52,20,-1
5615,264,568,1600,-52,20,0
5620,280,560,1640,-52,20,-1
5625,256,576,1640,-54,20,-2
5630,256,584,1608,-56,20,-1
5635,248,568,1608,-59,21,-1
5640,264,560,1592,-63,23,-1
5645,240,576,1616,-68,25,-2
5650,296,552,1640,-72,27,-2
5655,272,544,1568,-77,28,-1
5660,280,552,1624,-82,29,-2
5665,256,568,1616,-86,29,-3
5670,256,560,1632,-87,29,-1
5675,256,576,1632,-85,29,-2
5680,264,552,1600,-83,27,-3
5685,256,536,1600,-84,24,-4
5690,256,568,1576,-85,20,-3
5695,248,552,1600,-86,18,-4
5700,248,552,1568,-87,18,-3
5705,256,528,1592,-87,17,-3
5710,264,552,1584,-87,17,-3
5715,264,568,1576,-87,17,-2
5720,280,520,1600,-87,15,-1
5725,256,536,1560,-85,14,-2
5730,272,528,1600,-83,13,-1
5735,280,528,1576,-79,14,-3
5740,240,536,1576,-76,16,-3
5745,256,512,1600,-76,18,-6
5750,264,512,1624,-71,19,-6
5755,240,528,1592,-57,21,-9
5760,232,568,1624,-53,23,-12
5765,208,576,1624,-59,20,-15
5770,232,560,1624,-63,22,-19
5775,216,560,1624,-69,22,-20
5780,208,536,1616,-68,18,-22
5785,216,544,1632,-73,18,-28
5790,232,520,1672,-85,20,-37
5795,232,496,1648,-103,21,-43
5800,216,520,1680,-119,24,-46
5805,216,512,1640,-123,28,-41
5810,256,488,1648,-114,33,-35
5815,264,504,1608,-98,37,-31
5820,280,504,1600,-76,44,-27
5825,264,504,1600,-57,49,-27
5830,256,504,1600,-43,57,-27
5835,248,528,1584,-31,66,-25
5840,200,536,1568,-22,77,-24
5845,208,560,1592,-21,82,-23
5850,208,568,1576,-28,84,-21
5855,208,576,1624,-40,81,-20
5860,232,608,1568,-51,71,-16
5865,216,576,1592,-67,52,-11
5870,232,584,1624,-88,32,-5
5875,232,584,1648,-110,10,-2
5880,240,592,1664,-135,-11,-2
5885,264,632,1704,-160,-23,-2
5890,296,584,1656,-175,-30,1
5895,296,536,1632,-180,-32,10
5900,280,456,1656,-169,-27,15
5905,280,408,1632,-135,-14,19
5910,288,368,1568,-91,5,21
5915,264,368,1576,-50,26,20
5920,264,400,1576,-14,41,18
5925,280,400,1576,10,48,19
5930,280,448,1592,27,52,21
5935,288,504,1584,43,53,23
5940,264,576,1568,62,53,23
5945,264,648,1568,79,50,20
5950,280,696,1568,84,49,12
5955,248,720,1552,77,45,2
5960,256,752,1544,52,42,-7
5965,248,752,1616,10,37,-15
5970,256,712,1624,-42,27,-22
5975,248,656,1640,-100,19,-25
5980,248,552,1664,-150,10,-24
5985,256,528,1664,-185,-1,-22
5990,248,480,1672,-204,-11,-19
5995,248,432,1640,-209,-18,-15
6000,240,440,1664,-198,-20,-8
6005,248,392,1648,-176,-20,-4
6010,232,408,1608,-145,-15,1
6015,240,440,1616,-113,-6,2
6020,216,440,1640,-76,4,3
6025,208,456,1608,-46,17,2
6030,192,472,1576,-19,26,2
6035,200,472,1592,3,37,2
6040,224,496,1616,17,46,1
6045,232,520,1608,23,53,-2
6050,200,536,1600,18,60,-4
6055,232,544,1592,10,63,-5
6060,208,552,1608,-1,64,-8
6065,216,568,1608,-16,62,-10
6070,224,560,1608,-29,56,-10
6075,240,584,1600,-40,50,-9
6080,216,600,1600,-53,43,-7
6085,240,568,1576,-66,37,-8
6090,232,568,1592,-74,32,-7
6095,192,576,1608,-82,29,-8
6100,232,560,1592,-88,26,-8
6105,224,560,1616,-92,23,-6
6110,232,544,1600,-96,23,-8
6115,232,544,1600,-96,22,-6
6120,288,520,1584,-96,21,-5
6125,240,512,1592,-92,27,-4
6130,232,528,1616,-89,30,-9
6135,240,504,1648,-86,30,-12
6140,240,520,1656,-81,27,-11
6145,248,496,1632,-80,26,-10
6150,280,496,1656,-76,30,-11
6155,240,512,1632,-76,31,-11
6160,248,496,1648,-74,35,-11
6165,248,504,1608,-72,35,-10
6170,248,528,1624,-73,34,-10
6175,256,520,1616,-72,33,-9
6180,264,512,1648,-72,31,-7
6185,240,528,1640,-74,29,-6
6190,256,512,1624,-76,26,-3
6195,256,512,1632,-77,25,-5
6200,240,536,1616,-78,23,-6
6205,240,536,1592,-77,22,-7
6210,216,536,1584,-80,20,-8
6215,224,544,1592,-81,19,-8
6220,240,528,1616,-83,17,-8
6225,224,536,1624,-83,15,-10
6230,248,528,1608,-82,16,-11
6235,256,520,1648,-83,18,-13
6240,224,520,1616,-83,22,-13
6245,216,520,1568,-82,28,-13
6250,232,512,1616,-81,30,-13
6255,216,512,1624,-80,29,-16
6260,240,520,1600,-78,30,-16
6265,216,504,1576,-74,30,-13
6270,216,520,1608,-71,28,-12
6275,224,536,1640,-71,27,-13
6280,232,512,1624,-71,26,-12
6285,224,520,1608,-71,26,-11
6290,240,528,1632,-72,25,-11
6295,224,512,1648,-70,25,-12
6300,224,512,1664,-71,24,-10
6305,232,520,1616,-70,25,-12
6310,224,504,1608,-67,26,-11
6315,208,512,1624,-65,28,-10
6320,232,504,1632,-60,29,-9
6325,240,496,1624,-57,31,-8
6330,232,520,1632,-55,34,-7
6335,240,512,1592,-53,34,-7
6340,216,480,1656,-51,33,-5
6345,216,512,1608,-47,31,-7
6350,224,512,1568,-46,29,-8
6355,208,504,1608,-41,26,-7
6360,200,512,1608,-40,23,-5
6365,208,512,1608,-39,21,-6
6370,248,512,1592,-36,18,-6
6375,200,504,1576,-33,18,-5
6380,224,488,1576,-29,16,-6
6385,224,488,1592,-25,16,-6
6390,224,504,1600,-20,15,-5
6395,264,496,1600,-17,16,-7
6400,240,496,1592,-16,17,-7
6405,232,488,1592,-14,16,-9
6410,232,496,1616,-11,14,-12
6415,240,496,1616,-11,12,-14
6420,256,480,1608,-11,13,-13
6425,216,512,1624,-12,12,-14
6430,248,512,1616,-13,12,-13
6435,216,504,1632,-13,12,-13
6440,232,512,1608,-10,11,-12
6445,256,512,1616,-9,12,-12
6450,272,504,1632,-10,15,-11
6455,216,528,1624,-11,16,-11
6460,224,528,1640,-12,16,-10
6465,256,512,1600,-15,17,-11
6470,224,536,1600,-15,17,-10
6475,240,544,1616,-16,16,-8
6480,240,552,1624,-18,18,-5
6485,216,536,1616,-18,18,-4
6490,232,512,1656,-20,19,-4
6495,248,536,1608,-18,20,-4
6500,248,520,1608,-15,20,-4
6505,240,520,1600,-12,20,-5
6510,232,520,1632,-13,22,-3
6515,200,512,1640,-13,23,-3
6520,152,512,1600,-14,23,-1
6525,256,512,1632,-15,19,-6
6530,248,528,1600,-15,23,-8
6535,224,512,1584,-18,27,-5
6540,232,520,1608,-24,27,-4
6545,208,512,1616,-32,22,-3
6550,304,512,1608,-38,17,-2
6555,192,520,1632,-39,16,1
6560,192,520,1616,-41,16,0
6565,208,520,1608,-41,17,0
6570,232,512,1648,-37,16,-2
6575,240,480,1656,-28,18,-1
6580,240,472,1688,-13,19,-2
6585,248,496,1608,5,22,-2
6590,240,520,1600,12,25,-1
6595,240,512,1616,14,25,-1
6600,224,544,1592,16,23,-1
6605,216,520,1608,13,21,-2
6610,224,536,1600,9,16,-2
6615,232,544,1632,3,11,-3
6620,232,560,1616,-2,8,-2
6625,200,576,1640,-7,7,-2
6630,208,552,1608,-9,7,-2
6635,232,552,1608,-14,5,-3
6640,248,544,1616,-17,4,-3
6645,232,528,1616,-22,4,-3
6650,216,552,1592,-26,5,-4
6655,224,536,1632,-29,5,-4
6660,240,528,1608,-30,6,-6
6665,224,528,1624,-30,8,-6
6670,224,504,1640,-31,9,-6
6675,232,520,1624,-29,10,-8
6680,216,520,1608,-29,11,-9
6685,232,528,1592,-23,11,-7
6690,200,504,1616,-19,11,-7
6695,224,512,1624,-18,12,-7
6700,208,528,1608,-15,13,-6
6705,216,536,1584,-12,16,-6
6710,224,528,1600,-9,17,-6
6715,232,528,1608,-8,16,-6
6720,232,528,1576,-8,16,-5
6725,240,512,1640,-8,14,-6
6730,240,520,1600,-7,12,-5
6735,232,528,1600,-8,11,-5
6740,240,528,1592,-9,7,-3
6745,240,528,1616,-8,5,-4
6750,248,520,1616,-10,3,-4
6755,232,528,1608,-9,3,-3
6760,232,520,1600,-9,3,-2
6765,208,560,1600,-10,3,-2
6770,232,544,1600,-10,6,-3
6775,232,552,1576,-12,5,-3
6780,248,488,1600,-17,4,-4
6785,248,536,1600,-19,5,-5
6790,248,560,1600,-23,6,-5
6795,256,560,1600,-26,8,-5
6800,248,544,1640,-28,10,-6
6805,224,568,1616,-28,9,-7
6810,200,576,1640,-28,9,-6
6815,240,536,1648,-28,10,-6
6820,216,536,1640,-31,8,-6
6825,216,552,1592,-35,8,-8
6830,232,536,1624,-38,6,-7
6835,248,528,1584,-39,7,-5
6840,224,536,1624,-40,7,-5
6845,240,520,1608,-39,11,-5
6850,232,520,1600,-37,14,-6
6855,256,528,1616,-33,14,-5
6860,224,552,1568,-33,15,-5
6865,232,552,1632,-29,16,-4
6870,232,536,1608,-26,17,-3
6875,232,536,1600,-24,16,-3
6880,216,536,1616,-22,16,-2
6885,240,536,1584,-23,18,-3
6890,224,544,1624,-21,17,-2
6895,216,560,1624,-20,17,-2
6900,248,528,1608,-18,18,-1
6905,240,568,1592,-17,17,1
6910,232,536,1584,-16,18,1
6915,240,552,1616,-15,20,2
6920,232,536,1600,-16,19,2
6925,240,544,1592,-17,21,2
6930,224,552,1592,-15,22,2
6935,224,544,1624,-16,24,2
6940,224,544,1608,-15,23,3
6945,216,552,1616,-17,22,4
6950,240,536,1592,-18,20,4
6955,224,552,1600,-21,17,4
6960,216,552,1600,-25,16,3
6965,216,576,1592,-26,12,3
6970,224,568,1584,-27,9,1
6975,208,552,1624,-31,7,1
6980,232,552,1632,-34,5,-1
6985,216,552,1584,-35,5,-1
6990,232,544,1616,-38,4,-2
6995,224,568,1592,-38,5,-3
7000,224,560,1616,-37,4,-3
7005,232,552,1584,-37,3,-4
7010,232,568,1584,-39,5,-4
7015,224,584,1608,-38,5,-3
7020,232,568,1592,-37,6,-5
7025,232,544,1592,-36,7,-6
7030,232,552,1616,-35,8,-5
7035,232,552,1648,-35,11,-7
7040,248,560,1616,-35,12,-7
7045,256,544,1600,-36,13,-8
7050,232,544,1624,-37,15,-8
7055,248,576,1608,-37,13,-6
7060,216,544,1624,-42,14,-5
7065,232,528,1616,-44,12,-6
7070,208,552,1624,-45,9,-5
7075,216,528,1600,-42,5,-4
7080,216,520,1640,-39,2,-3
7085,200,536,1616,-37,0,-2
7090,200,552,1600,-35,-1,-3
7095,200,544,1624,-35,-1,-4
7100,232,552,1632,-34,0,-2
7105,248,544,1632,-33,3,-2
7110,224,560,1624,-34,3,-4
7115,232,560,1576,-33,6,-4
7120,232,536,1632,-34,8,-6
7125,256,544,1568,-35,10,-6
7130,232,552,1632,-35,10,-7
7135,248,568,1632,-33,12,-6
7140,232,536,1608,-32,12,-6
7145,240,544,1608,-30,11,-4
7150,248,544,1608,-30,13,-3
7155,256,536,1616,-29,13,-4
7160,232,560,1632,-30,12,-4
7165,248,560,1600,-29,9,-3
7170,248,544,1592,-30,7,-3
7175,248,552,1632,-31,6,-1
7180,248,552,1592,-32,3,-1
7185,224,552,1600,-31,2,-2
7190,256,568,1616,-32,2,0
7195,232,552,1624,-31,3,-1
7200,232,544,1592,-27,4,-2
7205,240,568,1576,-24,5,-4
7210,240,560,1576,-20,8,-5
7215,248,536,1592,-19,8,-6
7220,248,544,1600,-15,8,-6
7225,256,536,1600,-11,10,-8
7230,264,544,1560,-10,11,-8
7235,248,560,1592,-7,11,-8
7240,232,560,1576,-4,13,-9
7245,240,528,1608,-1,12,-10
7250,264,536,1592,4,14,-10
7255,248,544,1600,4,13,-10
7260,256,536,1640,1,15,-12
7265,240,520,1608,-1,15,-10
7270,240,536,1608,-6,15,-13
7275,224,544,1608,-9,16,-12
7280,248,528,1616,-6,17,-9
7285,248,520,1608,2,18,-6
7290,224,536,1552,16,21,-5
7295,264,552,1568,28,24,-4
7300,256,568,1560,37,29,-5
7305,240,536,1592,39,29,-3
7310,240,576,1552,41,28,-2
7315,264,600,1584,41,23,-1
7320,232,592,1544,40,20,1
7325,240,544,1552,37,17,1
7330,232,616,1616,33,13,-1
7335,240,584,1608,29,11,-3
7340,240,608,1600,24,12,-3
7345,232,608,1600,18,12,-3
7350,224,624,1624,12,14,-4
7355,240,616,1600,8,15,-5
7360,224,624,1592,2,16,-5
7365,240,600,1624,-5,17,-6
7370,224,584,1616,-10,20,-5
7375,232,576,1592,-12,22,-5
7380,216,592,1632,-16,23,-6
7385,256,576,1600,-19,25,-5
7390,232,568,1592,-20,23,-6
7395,240,568,1600,-19,22,-5
7400,248,584,1616,-18,21,-4
7405,240,584,1600,-18,20,-5
7410,224,560,1584,-18,19,-4
7415,240,552,1624,-17,21,-4
7420,216,576,1600,-16,19,-4
7425,232,584,1600,-17,18,-3
7430,232,584,1608,-14,18,-4
7435,216,608,1560,-15,16,-4
7440,240,576,1616,-15,17,-4
7445,232,584,1616,-17,17,-3
7450,248,576,1600,-19,16,-3
7455,240,584,1592,-21,14,-2
7460,232,592,1624,-20,15,-1
7465,264,560,1560,-22,17,2
7470,192,584,1592,-23,16,1
7475,208,592,1616,-26,11,0
7480,216,600,1592,-24,8,0
7485,216,584,1592,-22,5,-1
7490,240,568,1576,-23,2,0
7495,272,592,1592,-22,1,-1
7500,240,568,1584,-24,3,-2
7505,224,576,1616,-25,3,-1
7510,232,576,1600,-26,4,-2
7515,224,576,1616,-25,4,-1
7520,216,576,1576,-21,5,-1
7525,216,600,1600,-17,9,-3
7530,240,576,1592,-14,7,-2
7535,232,576,1624,-12,4,-2
7540,240,568,1584,-12,4,-3
7545,232,584,1600,-12,4,-3
7550,240,576,1616,-15,2,-5
7555,216,576,1616,-18,4,-6
7560,224,576,1592,-15,4,-6
7565,240,560,1592,-16,3,-5
7570,248,576,1552,-16,2,-6
7575,240,576,1600,-13,0,-6
7580,248,576,1600,-11,-2,-5
7585,224,584,1568,-12,0,-4
7590,224,592,1568,-10,0,-4
7595,224,576,1576,-10,0,-4
7600,232,568,1592,-10,-1,-4
7605,256,576,1608,-8,0,-3
7610,288,560,1584,-6,1,-4
7615,232,592,1600,-4,4,-4
7620,248,584,1568,0,4,-4
7625,256,600,1576,2,4,-4
7630,240,584,1592,1,5,-4
7635,248,576,1592,3,4,-4
7640,240,600,1600,1,5,-1
7645,248,616,1624,1,4,1
7650,248,584,1600,-1,5,-1
7655,248,600,1584,0,6,-2
7660,248,608,1616,-4,6,-2
7665,232,624,1576,-5,6,-4
7670,256,616,1600,-8,6,-4
7675,248,624,1584,-11,5,-3
7680,272,608,1600,-17,4,-3
7685,248,600,1616,-20,4,-3
7690,248,616,1600,-26,3,-3
7695,280,576,1600,-30,5,-3
7700,256,576,1608,-34,7,-2
7705,256,616,1584,-33,9,-3
7710,256,600,1584,-35,10,-4
7715,248,616,1592,-35,12,-4
7720,272,584,1592,-34,12,-3
7725,256,584,1600,-35,14,-4
7730,240,600,1592,-35,14,-4
7735,224,592,1592,-34,15,-6
7740,264,584,1584,-36,15,-6
7745,256,584,1592,-37,16,-7
7750,248,592,1592,-37,14,-5
7755,248,608,1584,-37,14,-5
7760,224,592,1616,-37,14,-5
7765,256,576,1592,-40,13,-4
7770,256,584,1576,-40,13,-4
7775,256,592,1608,-41,13,-6
7780,240,592,1608,-43,14,-6
7785,264,592,1600,-44,14,-7
7790,232,600,1600,-43,14,-5
7795,256,592,1584,-45,16,-6
7800,240,608,1608,-45,17,-5
7805,248,600,1584,-44,18,-4
7810,248,600,1600,-43,19,-4
7815,264,592,1584,-43,20,-5
7820,240,600,1608,-43,19,-4
7825,256,592,1608,-44,18,-4
7830,248,600,1592,-44,19,-2
7835,240,584,1624,-46,18,-1
7840,224,592,1592,-47,19,-1
7845,224,624,1592,-50,18,-2
7850,240,600,1624,-52,18,-2
7855,240,608,1600,-54,17,0
7860,240,608,1584,-54,16,-2
7865,256,624,1608,-54,17,-3
7870,248,624,1608,-54,18,-4
7875,272,592,1592,-58,19,-5
7880,256,584,1608,-58,22,-7
7885,240,592,1608,-59,23,-7
7890,240,624,1584,-63,23,-8
7895,256,608,1600,-64,24,-10
7900,240,624,1608,-65,26,-9
7905,240,608,1600,-67,26,-10
7910,248,584,1576,-66,26,-9
7915,264,608,1608,-67,26,-7
7920,240,592,1600,-69,25,-6
7925,248,608,1600,-68,24,-6
7930,248,632,1624,-67,23,-6
7935,256,600,1608,-67,24,-6
7940,232,600,1584,-68,23,-5
7945,240,608,1600,-65,24,-5
7950,256,576,1592,-66,24,-6
7955,240,600,1592,-66,24,-5
7960,224,608,1624,-67,25,-7
7965,256,592,1592,-68,24,-8
7970,248,576,1576,-69,22,-7
7975,256,592,1624,-67,23,-8
7980,240,592,1584,-67,22,-8
7985,232,568,1592,-64,23,-7
7990,232,584,1592,-64,27,-8
7995,240,584,1600,-65,26,-8
8000,208,592,1544,-65,26,-8
8005,240,568,1592,-68,23,-7
8010,280,584,1568,-67,23,-7
8015,256,584,1584,-67,28,-7
8020,232,584,1552,-67,28,-5
8025,224,576,1576,-67,24,-5
8030,240,552,1568,-68,20,-5
8035,232,600,1568,-68,19,-4
8040,224,616,1608,-65,19,-3
8045,248,584,1576,-62,18,-5
8050,240,608,1592,-58,17,-5
8055,232,640,1616,-57,18,-6
8060,248,600,1600,-58,19,-6
8065,264,584,1632,-58,19,-7
8070,256,608,1576,-58,20,-7
8075,232,616,1608,-59,21,-6
8080,224,600,1576,-58,25,-6
8085,264,576,1616,-61,27,-7
8090,248,584,1632,-65,27,-9
8095,232,584,1640,-69,28,-10
8100,240,592,1592,-75,28,-11
8105,240,592,1656,-81,28,-11
8110,240,576,1632,-88,29,-11
8115,232,584,1616,-93,29,-10
8120,240,536,1616,-91,29,-7
8125,224,528,1592,-79,30,-7
8130,256,536,1616,-61,30,-4
8135,240,560,1576,-45,30,-2
8140,248,584,1544,-35,32,-1
8145,256,568,1536,-33,34,0
8150,224,592,1552,-31,31,-1
8155,232,576,1592,-35,27,-1
8160,232,616,1608,-38,23,-2
8165,256,608,1576,-43,22,-1
8170,240,608,1600,-47,20,-2
8175,232,640,1592,-52,19,-2
8180,240,616,1584,-57,20,-2
8185,224,608,1616,-59,21,-4
8190,224,608,1560,-63,22,-4
8195,224,616,1624,-66,23,-5
8200,240,600,1616,-71,23,-6
8205,240,608,1608,-75,21,-5
8210,232,600,1576,-77,19,-5
8215,200,592,1616,-78,17,-6
8220,232,576,1592,-80,19,-6
8225,224,584,1640,-82,19,-6
8230,232,584,1616,-83,21,-6
8235,232,584,1616,-83,22,-7
8240,248,560,1616,-81,25,-7
8245,232,576,1568,-80,24,-7
8250,232,568,1608,-80,23,-5
8255,232,592,1576,-79,23,-7
8260,232,592,1584,-78,23,-5
8265,224,600,1584,-78,24,-5
8270,232,592,1608,-77,24,-4
8275,256,568,1584,-76,23,-4
8280,224,576,1592,-76,22,-6
8285,240,584,1600,-75,21,-4
8290,232,560,1584,-75,20,-4
8295,216,552,1584,-76,20,-4
8300,232,544,1632,-77,18,-5
8305,240,560,1616,-77,17,-4
8310,232,568,1576,-77,18,-3
8315,248,584,1616,-77,17,-3
8320,224,592,1584,-76,18,-5
8325,240,568,1600,-75,18,-4
8330,232,576,1592,-74,19,-4
8335,248,568,1608,-72,19,-4
8340,232,568,1608,-70,19,-5
8345,232,576,1576,-69,19,-7
8350,224,584,1576,-67,21,-6
8355,232,560,1568,-66,20,-7
8360,240,584,1584,-66,21,-8
8365,232,584,1600,-69,21,-8
8370,240,552,1600,-71,20,-8
8375,232,560,1616,-74,18,-7
8380,216,552,1616,-77,16,-7
8385,240,560,1600,-78,16,-6
8390,240,576,1600,-79,15,-6
8395,248,552,1600,-79,15,-5
8400,216,584,1616,-79,17,-6
8405,232,584,1592,-81,18,-6
8410,232,576,1640,-82,19,-6
8415,248,560,1600,-81,20,-4
8420,216,584,1592,-80,19,-5
8425,248,568,1624,-81,19,-4
8430,208,568,1624,-80,19,-4
8435,240,576,1568,-82,19,-5
8440,232,584,1600,-81,19,-5
8445,248,576,1592,-81,20,-4
8450,240,552,1592,-81,19,-3
8455,224,576,1616,-81,22,-3
8460,224,576,1616,-81,22,-4
8465,256,568,1600,-81,23,-3
8470,248,592,1600,-80,23,-4
8475,256,560,1600,-81,25,-4
8480,240,560,1616,-80,26,-5
8485,224,576,1600,-83,26,-5
8490,232,608,1584,-84,26,-5
8495,232,576,1608,-84,25,-3
8500,248,560,1592,-84,24,-2
8505,216,552,1600,-83,24,-1
8510,248,552,1616,-82,23,-1
8515,224,552,1592,-81,23,-2
8520,248,552,1600,-80,22,-3
8525,232,552,1600,-79,23,-1
8530,240,536,1576,-81,23,-2
8535,208,552,1616,-80,23,-2
8540,224,560,1656,-79,25,-2
8545,208,560,1608,-80,24,-3
8550,200,584,1600,-79,25,-5
8555,256,552,1632,-79,25,-7
8560,232,544,1608,-78,25,-5
8565,232,552,1616,-76,23,-6
8570,240,560,1600,-77,22,-7
8575,232,576,1584,-77,23,-6
8580,232,536,1608,-79,24,-6
8585,232,544,1616,-79,25,-7
8590,240,560,1592,-80,25,-6
8595,232,584,1608,-82,23,-6
8600,240,520,1592,-86,22,-6
8605,232,536,1600,-87,21,-4
8610,224,544,1592,-88,21,-6
8615,240,544,1608,-87,20,-6
8620,208,552,1600,-86,22,-4
8625,232,544,1600,-86,22,-3
8630,232,544,1632,-85,23,-4
8635,216,568,1608,-86,22,-4
8640,232,544,1600,-87,20,-5
8645,232,536,1568,-88,20,-4
8650,232,528,1632,-91,19,-3
8655,232,560,1608,-90,19,-4
8660,208,552,1616,-92,19,-5
8665,224,560,1624,-91,20,-6
8670,232,544,1608,-93,23,-6
8675,224,552,1616,-95,22,-5
8680,232,552,1584,-96,23,-3
8685,224,576,1592,-95,22,-2
8690,200,560,1632,-97,21,-4
8695,200,552,1640,-97,20,-3
8700,216,560,1600,-98,18,-4
8705,216,552,1592,-99,17,-7
8710,232,544,1616,-99,18,-6
8715,224,568,1624,-99,19,-7
8720,208,536,1592,-98,21,-7
8725,240,544,1584,-100,22,-7
8730,272,520,1600,-101,25,-8
8735,216,552,1640,-102,26,-9
8740,208,544,1616,-100,27,-8
8745,224,520,1616,-99,28,-9
8750,232,528,1640,-95,28,-9
8755,232,528,1592,-95,26,-7
8760,224,536,1600,-94,26,-7
8765,232,520,1600,-92,26,-6
8770,232,536,1624,-91,25,-5
8775,240,512,1616,-89,25,-3
8780,208,520,1592,-90,22,-4
8785,224,552,1600,-89,22,-3
8790,224,528,1592,-91,20,-3
8795,240,520,1640,-89,19,-1
8800,216,520,1592,-87,19,-1
8805,232,536,1616,-85,18,-2
8810,224,536,1608,-80,20,-1
8815,232,528,1568,-76,21,-2
8820,224,520,1600,-71,22,-3
8825,240,520,1640,-70,23,-3
8830,224,536,1600,-69,24,-4
8835,216,520,1624,-69,25,-5
8840,240,504,1600,-72,26,-5
8845,240,520,1624,-71,27,-7
8850,216,520,1600,-69,29,-6
8855,232,520,1616,-69,28,-6
8860,232,520,1608,-70,29,-7
8865,224,496,1640,-71,26,-7
8870,240,496,1648,-75,24,-8
8875,216,528,1640,-79,22,-5
8880,224,520,1608,-82,20,-5
8885,232,512,1632,-87,20,-4
8890,224,520,1632,-87,21,-4
8895,224,504,1648,-82,22,-3
8900,216,512,1624,-72,23,-3
8905,200,512,1616,-55,25,-3
8910,232,512,1592,-43,27,-1
8915,240,512,1576,-37,29,0
8920,248,512,1592,-37,31,0
8925,232,536,1600,-37,31,1
8930,240,520,1600,-41,29,0
8935,208,528,1600,-43,25,-1
8940,184,536,1616,-44,23,-1
8945,216,544,1608,-44,20,-1
8950,216,560,1616,-45,19,-1
8955,232,552,1576,-44,19,-2
8960,232,552,1624,-47,21,-4
8965,224,560,1592,-52,19,-6
8970,224,560,1648,-54,18,-5
8975,240,544,1640,-60,21,-6
8980,224,552,1640,-64,20,-6
8985,232,528,1656,-67,20,-4
8990,224,512,1640,-69,20,-5
8995,240,504,1616,-71,21,-6
9000,240,512,1584,-70,22,-5
9005,232,520,1608,-70,22,-5
9010,240,528,1624,-69,21,-4
9015,240,504,1608,-70,22,-3
9020,232,520,1600,-70,22,-3
9025,232,512,1608,-72,22,-4
9030,232,528,1608,-75,22,-3
9035,224,536,1624,-76,21,-3
9040,216,536,1616,-77,19,-3
9045,232,520,1624,-76,18,-2
9050,232,496,1592,-75,16,-4
9055,216,528,1640,-73,15,-4
9060,232,520,1616,-71,13,-5
9065,216,512,1616,-69,13,-4
9070,216,520,1584,-65,13,-5
9075,232,504,1616,-63,13,-5
9080,216,520,1592,-60,15,-4
9085,200,520,1600,-55,16,-5
9090,240,520,1608,-50,15,-6
9095,216,512,1576,-44,16,-7
9100,232,512,1600,-38,15,-7
9105,184,520,1592,-33,15,-7
9110,224,520,1584,-28,15,-7
9115,192,520,1584,-24,15,-6
9120,216,520,1592,-20,14,-7
9125,240,520,1608,-19,13,-7
9130,240,504,1584,-15,12,-7
9135,224,512,1608,-14,11,-6
9140,256,504,1576,-16,10,-7
9145,224,512,1592,-17,12,-7
9150,216,504,1608,-16,10,-6
9155,232,504,1592,-16,10,-7
9160,216,504,1624,-16,10,-7
9165,232,504,1608,-16,9,-5
9170,240,504,1584,-11,8,-3
9175,232,520,1576,-10,8,-2
9180,200,520,1600,-9,7,-1
9185,224,512,1624,-9,6,-2
9190,232,520,1616,-9,8,0
9195,232,520,1616,-7,9,-1
9200,240,512,1608,-8,10,-1
9205,232,520,1640,-9,11,-3
9210,256,520,1632,-11,12,-3
9215,224,536,1632,-10,13,-4
9220,232,544,1624,-10,13,-4
9225,224,528,1608,-12,13,-4
9230,224,528,1632,-14,12,-3
9235,224,520,1608,-15,13,-4
9240,232,536,1624,-16,11,-4
9245,240,528,1616,-15,12,-5
9250,232,528,1624,-13,12,-4
9255,224,520,1640,-13,12,-3
9260,208,552,1632,-11,12,-3
9265,224,536,1640,-8,11,-3
9270,248,544,1616,-8,10,-1
9275,224,528,1608,-7,10,0
9280,232,552,1640,-5,10,0
9285,248,504,1608,-4,10,0
9290,248,536,1608,-5,10,-1
9295,208,536,1648,-7,10,0
9300,232,520,1616,-8,11,-3
9305,232,536,1592,-8,12,-2
9310,208,536,1624,-10,12,-4
9315,224,512,1600,-10,12,-4
9320,232,520,1624,-9,12,-6
9325,240,528,1624,-8,15,-5
9330,208,528,1624,-8,14,-6
9335,240,536,1608,-9,15,-6
9340,200,552,1608,-9,14,-5
9345,224,536,1608,-10,16,-5
9350,208,520,1600,-14,16,-5
9355,224,528,1568,-15,16,-6
9360,224,544,1608,-16,15,-5
9365,240,536,1624,-17,15,-5
9370,240,536,1608,-18,16,-4
9375,232,528,1608,-17,15,-3
9380,216,536,1616,-19,14,-3
9385,208,504,1616,-18,13,-3
9390,224,520,1576,-17,12,-3
9395,216,536,1624,-18,12,-2
9400,232,520,1648,-19,13,-1
9405,208,536,1624,-20,13,-1
9410,216,544,1616,-20,13,-1
9415,216,552,1640,-22,12,-3
9420,232,528,1600,-24,12,-2
9425,224,560,1624,-25,12,-2
9430,240,520,1632,-26,10,-3
9435,200,552,1608,-28,11,-5
9440,224,552,1592,-29,11,-4
9445,232,528,1608,-31,11,-5
9450,216,560,1608,-31,11,-4
9455,224,544,1608,-32,13,-4
9460,216,568,1608,-37,14,-4
9465,240,528,1616,-40,15,-5
9470,248,528,1600,-43,17,-7
9475,216,544,1592,-44,18,-6
9480,256,536,1584,-45,19,-6
9485,240,528,1608,-45,16,-5
9490,232,520,1592,-44,13,-5
9495,232,544,1608,-45,13,-4
9500,232,552,1608,-44,10,-4
9505,224,552,1616,-45,9,-4
9510,232,544,1632,-46,7,-4
9515,232,504,1608,-46,8,-3
9520,224,528,1624,-44,6,-3
9525,216,544,1616,-42,6,-2
9530,232,536,1576,-38,7,-3
9535,256,552,1568,-34,8,-3
9540,248,512,1608,-30,9,-5
9545,240,536,1608,-27,10,-4
9550,232,528,1616,-26,8,-5
9555,216,544,1608,-26,12,-5
9560,224,536,1568,-24,13,-7
9565,208,544,1624,-21,13,-8
9570,240,552,1584,-18,13,-8
9575,224,520,1624,-15,13,-8
9580,248,536,1592,-16,13,-7
9585,232,528,1616,-16,12,-9
9590,216,544,1640,-18,13,-9
9595,256,520,1616,-22,15,-9
9600,224,536,1632,-25,16,-10
9605,216,528,1608,-29,16,-11
9610,232,520,1608,-33,18,-11
9615,216,544,1632,-33,18,-9
9620,232,528,1624,-28,19,-5
9625,240,520,1608,-15,21,-3
9630,224,536,1584,-3,21,-1
9635,232,560,1568,10,23,1
9640,240,544,1568,12,25,0
9645,224,544,1584,15,25,2
9650,224,592,1560,15,22,2
9655,232,568,1576,14,19,2
9660,240,560,1552,10,17,0
9665,240,576,1616,8,14,0
9670,232,584,1600,8,14,-3
9675,240,584,1584,4,13,-3
9680,240,568,1600,1,14,-4
9685,232,592,1592,-2,13,-2
9690,256,576,1648,-6,13,-4
9695,240,592,1624,-9,13,-2
9700,248,560,1632,-13,12,-3
9705,232,560,1632,-18,11,-3
9710,216,552,1608,-22,10,-4
9715,232,536,1616,-26,8,-2
9720,232,560,1600,-26,7,-2
9725,240,552,1600,-24,7,-1
9730,208,568,1616,-24,7,-2
9735,216,560,1592,-23,8,-3
9740,248,536,1568,-22,10,-1
9745,248,544,1584,-21,10,-3
9750,224,552,1584,-19,12,-3
9755,232,544,1600,-20,13,-3
9760,232,552,1592,-20,14,-5
9765,232,560,1576,-18,15,-8
9770,240,568,1592,-16,15,-7
9775,248,504,1640,-17,14,-6
9780,240,568,1624,-15,12,-4
9785,224,560,1632,-14,12,-5
9790,216,584,1576,-15,10,-4
9795,224,560,1608,-14,8,-3
9800,224,568,1600,-15,7,-2
9805,224,576,1576,-16,5,-3
9810,208,560,1632,-18,4,-2
9815,208,568,1608,-18,6,-3
9820,232,576,1600,-20,7,-3
9825,256,592,1576,-22,8,-4
9830,232,576,1624,-23,10,-3
9835,240,584,1608,-23,10,-4
9840,224,560,1576,-23,10,-3
9845,232,576,1600,-23,9,-3
9850,224,560,1592,-24,9,-3
9855,240,584,1624,-22,8,-2
9860,224,568,1592,-21,4,-1
9865,224,584,1624,-19,4,-3
9870,208,560,1584,-19,3,-2
9875,216,576,1624,-22,2,-3
9880,232,584,1632,-24,4,-5
9885,240,608,1600,-28,5,-5
9890,240,552,1592,-30,8,-4
9895,240,560,1624,-31,10,-6
9900,216,560,1608,-30,11,-5
9905,240,536,1584,-29,13,-5
9910,216,568,1624,-27,14,-5
9915,240,568,1576,-24,14,-3
9920,240,584,1624,-23,13,-3
9925,232,560,1608,-22,12,-4
9930,216,568,1616,-21,11,-3
9935,224,576,1576,-20,9,-2
9940,248,568,1616,-18,8,-1
9945,240,560,1584,-15,6,-2
9950,224,592,1608,-14,6,-1
9955,232,600,1584,-11,4,-2
9960,240,584,1608,-11,3,-1
9965,248,576,1584,-12,4,-2
9970,224,592,1600,-12,2,-1
9975,264,592,1592,-13,4,-1
9980,232,584,1592,-14,5,-2
9985,224,584,1608,-15,7,-2
9990,224,592,1592,-16,9,-2
9995,264,584,1568,-18,11,-3
10000,248,576,1600,-19,13,-2
10005,232,576,1600,-20,12,-2
10010,272,560,1600,-22,13,-2
10015,240,576,1600,-23,13,-2
10020,240,592,1576,-23,13,-2
10025,264,576,1608,-24,13,-2
10030,256,584,1632,-26,13,-3
10035,240,592,1592,-27,12,-1
10040,216,600,1608,-27,13,-3
10045,232,576,1600,-28,14,-3
10050,224,584,1592,-27,14,-2
10055,224,568,1592,-27,14,-3
10060,216,584,1592,-27,14,-3
10065,248,576,1592,-28,15,-5
10070,224,584,1616,-28,15,-5
10075,232,576,1592,-29,14,-4
10080,224,584,1576,-29,13,-4
10085,224,576,1600,-28,13,-4
10090,240,600,1608,-30,14,-5
10095,216,584,1592,-31,14,-4
10100,240,576,1608,-32,15,-6
10105,208,600,1592,-33,14,-5
10110,232,576,1584,-35,13,-4
10115,224,600,1592,-36,11,-4
10120,240,560,1592,-39,10,-4
10125,216,600,1608,-41,10,-3
10130,224,576,1608,-39,9,-3
10135,232,584,1568,-40,8,-3
10140,232,576,1608,-40,5,-3
10145,240,608,1592,-40,4,-2
10150,192,592,1592,-40,5,-2
10155,232,568,1624,-40,5,-4
10160,248,576,1584,-40,5,-4
10165,240,600,1616,-39,5,-3
10170,232,584,1576,-38,7,-3
10175,256,576,1616,-38,7,-3
10180,240,584,1584,-36,8,-4
10185,232,576,1576,-37,7,-3
10190,240,584,1584,-36,8,-2
10195,264,584,1584,-36,9,-3
10200,256,592,1568,-36,9,-3
10205,240,584,1592,-37,9,-3
10210,224,584,1616,-37,7,-3
10215,232,592,1584,-40,5,-3
10220,232,600,1584,-39,2,-2
10225,224,584,1592,-40,1,-2
10230,240,592,1600,-41,0,-3
10235,232,600,1616,-40,2,-4
10240,248,576,1576,-41,3,-4
10245,240,560,1576,-39,5,-4
10250,232,584,1632,-37,8,-3
10255,224,584,1600,-34,10,-3
10260,248,584,1600,-35,10,-3
10265,224,584,1568,-35,9,-2
10270,248,592,1568,-33,9,-3
10275,232,576,1592,-32,10,-4
10280,264,568,1568,-29,10,-3
10285,232,584,1584,-29,12,-3
10290,248,584,1600,-27,16,-3
10295,240,568,1648,-27,16,-3
10300,248,592,1592,-26,17,-2
10305,256,584,1576,-21,15,-2
10310,256,584,1616,-18,16,-1
10315,224,592,1568,-15,15,-1
10320,248,584,1592,-13,15,-2
10325,248,592,1600,-9,16,-2
10330,240,584,1592,-9,16,-1
10335,240,568,1600,-9,18,-3
10340,248,576,1576,-7,19,-2
10345,248,600,1576,-7,21,-1
10350,240,576,1576,-6,22,-1
10355,240,592,1576,-6,22,-1
10360,232,592,1592,-6,22,1
10365,240,592,1584,-7,22,-1
10370,248,584,1616,-10,21,-2
10375,240,616,1584,-14,20,-3
10380,264,600,1600,-18,19,-4
10385,264,576,1592,-24,19,-6
10390,240,600,1592,-31,20,-6
10395,240,584,1584,-36,21,-6
10400,240,592,1600,-35,22,-7
10405,208,576,1616,-27,21,-4
10410,224,568,1584,-15,18,-2
10415,312,592,1584,-3,17,0
10420,152,632,1496,1,25,-3
10425,184,656,1576,-1,27,-5
10430,232,616,1544,2,23,-8
10435,312,624,1568,2,18,-6
10440,336,616,1560,4,15,-5
10445,272,608,1544,-5,15,-4
10450,272,592,1552,-19,15,-4
10455,256,576,1600,-36,15,-5
10460,224,584,1576,-47,12,-3
10465,208,616,1592,-54,9,-4
10470,216,624,1632,-53,8,-3
10475,248,616,1640,-45,6,-3
10480,224,648,1648,-35,4,-4
10485,272,608,1648,-27,2,-6
10490,232,616,1656,-21,0,-6
10495,216,600,1648,-17,1,-6
10500,248,592,1648,-14,0,-4
10505,232,624,1624,-16,0,-1
10510,232,608,1608,-19,-1,0
10515,256,624,1592,-27,-1,-1
10520,248,616,1576,-35,-1,-3
10525,232,592,1584,-42,-2,-4
10530,240,616,1592,-46,0,-5
10535,248,608,1568,-50,3,-8
10540,240,592,1568,-52,7,-9
10545,232,600,1560,-53,9,-10
10550,248,544,1584,-51,10,-8
10555,224,568,1608,-48,9,-7
10560,216,576,1584,-41,8,-4
10565,224,600,1624,-36,6,-3
10570,240,568,1592,-30,5,0
10575,248,584,1600,-28,6,0
10580,240,600,1600,-23,5,0
10585,240,600,1608,-22,3,1
10590,232,608,1600,-23,6,0
10595,224,608,1592,-23,8,1
10600,256,608,1608,-27,7,1
10605,240,640,1600,-31,7,2
10610,216,624,1584,-34,6,0
10615,232,624,1600,-37,8,0
10620,216,624,1600,-43,5,-1
10625,232,616,1576,-46,4,-1
10630,240,640,1600,-51,4,-2
10635,224,632,1592,-54,5,-2
10640,272,608,1576,-57,6,-3
10645,248,632,1608,-59,9,-5
10650,232,616,1584,-62,10,-6
10655,256,616,1616,-66,12,-9
10660,240,608,1592,-69,17,-10
10665,272,600,1616,-72,20,-10
10670,248,592,1592,-77,22,-11
10675,240,616,1592,-80,24,-11
10680,240,616,1584,-82,24,-12
10685,240,600,1592,-86,22,-10
10690,256,608,1560,-88,22,-8
10695,248,616,1600,-90,19,-9
10700,240,608,1576,-89,16,-9
10705,248,616,1576,-89,14,-6
10710,240,600,1584,-90,13,-4
10715,248,648,1616,-90,14,-4
10720,240,584,1592,-91,14,-2
10725,248,568,1592,-90,16,-2
10730,232,600,1616,-87,16,-2
10735,240,608,1624,-86,17,-3
10740,248,624,1568,-83,17,-4
10745,240,616,1600,-83,18,-2
10750,248,600,1600,-84,20,-3
10755,240,600,1600,-85,21,-6
10760,256,584,1632,-85,22,-8
10765,232,608,1608,-83,23,-7
10770,232,584,1616,-84,24,-6
10775,264,584,1592,-83,25,-9
10780,224,592,1600,-82,25,-9
10785,232,576,1616,-81,24,-6
10790,232,592,1616,-79,23,-6
10795,264,576,1600,-77,22,-6
10800,248,568,1600,-77,22,-9
10805,224,592,1584,-78,22,-8
10810,232,568,1608,-78,20,-7
10815,240,584,1592,-81,18,-6
10820,248,584,1616,-81,17,-6
10825,240,576,1608,-80,18,-8
10830,232,592,1592,-78,19,-6
10835,240,584,1592,-79,18,-5
10840,232,584,1624,-79,18,-4
10845,232,592,1608,-77,17,-3
10850,224,608,1576,-79,18,-4
10855,232,584,1608,-78,17,-5
10860,216,584,1576,-77,17,-5
10865,240,592,1576,-77,18,-5
10870,224,592,1608,-77,18,-5
10875,224,576,1592,-77,18,-5
10880,240,568,1600,-76,18,-5
10885,224,552,1632,-78,18,-5
10890,240,552,1576,-80,18,-5
10895,232,576,1608,-79,17,-5
10900,248,592,1616,-80,16,-5
10905,232,592,1608,-82,17,-5
10910,256,568,1576,-82,17,-5
10915,272,584,1600,-83,17,-5
10920,256,584,1592,-84,17,-4
10925,232,576,1592,-83,16,-4
10930,232,584,1584,-83,16,-4
10935,240,584,1584,-83,18,-4
10940,232,608,1600,-83,19,-5
10945,232,560,1608,-81,20,-5
10950,264,568,1600,-82,20,-5
10955,248,576,1592,-83,21,-4
10960,256,568,1608,-85,22,-5
10965,248,584,1600,-85,22,-6
10970,264,560,1608,-87,21,-6
10975,248,576,1592,-88,20,-5
10980,256,568,1592,-87,20,-5
10985,232,584,1600,-89,20,-5
10990,248,584,1592,-92,20,-5
10995,232,584,1576,-95,21,-6
11000,240,568,1608,-96,22,-4
11005,248,560,1576,-99,23,-4
11010,256,592,1616,-99,23,-5
11015,256,576,1600,-98,25,-5
11020,256,560,1592,-97,25,-6
11025,240,536,1600,-95,26,-8
11030,224,568,1584,-94,27,-8
11035,248,568,1640,-93,27,-6
11040,208,560,1592,-91,28,-8
11045,232,568,1568,-91,27,-7
11050,256,544,1592,-89,29,-9
11055,248,568,1616,-89,31,-9
11060,240,560,1592,-91,31,-9
11065,232,568,1576,-91,32,-10
11070,240,568,1592,-91,33,-10
11075,256,568,1624,-92,33,-10
11080,232,560,1584,-92,32,-9
11085,232,560,1600,-94,33,-9
11090,256,544,1648,-96,32,-9
11095,256,544,1608,-97,33,-8
11100,232,552,1576,-97,30,-9
11105,232,576,1616,-98,29,-7
11110,216,552,1584,-96,27,-5
11115,240,536,1632,-97,24,-2
11120,232,536,1592,-96,22,-2
11125,232,536,1616,-94,19,-2
11130,248,536,1600,-93,21,-1
11135,256,544,1584,-93,22,-1
11140,240,544,1592,-87,23,-1
11145,232,568,1624,-84,23,-2
11150,232,568,1592,-80,25,-2
11155,224,560,1576,-78,25,-3
11160,216,576,1584,-76,26,-5
11165,248,544,1600,-74,25,-6
11170,232,552,1608,-72,27,-6
11175,248,536,1600,-71,27,-7
11180,248,528,1600,-69,28,-6
11185,232,536,1616,-70,27,-6
11190,248,544,1632,-71,26,-6
11195,232,536,1600,-72,25,-7
11200,232,528,1624,-73,25,-6
11205,240,536,1632,-77,24,-6
11210,232,536,1608,-80,24,-5
11215,224,552,1600,-82,23,-5
11220,216,552,1632,-84,22,-4
11225,240,520,1648,-83,24,-3
11230,224,520,1616,-77,27,-4
11235,232,520,1608,-62,28,0
11240,216,536,1616,-45,26,1
11245,240,552,1576,-35,26,1
11250,224,544,1584,-32,29,2
11255,224,560,1584,-32,30,1
11260,248,560,1568,-36,27,2
11265,216,576,1576,-40,23,1
11270,232,560,1600,-45,21,1
11275,232,568,1624,-50,20,0
11280,256,568,1608,-54,21,0
11285,240,584,1592,-59,20,-2
11290,248,576,1632,-61,21,-2
11295,232,560,1600,-64,20,-2
11300,240,576,1608,-69,20,-1
11305,232,560,1624,-73,20,-2
11310,224,576,1632,-78,20,-2
11315,224,552,1648,-83,19,-5
11320,224,536,1632,-87,19,-4
11325,240,560,1600,-91,18,-4
11330,232,512,1648,-92,18,-4
11335,248,544,1656,-94,18,-7
11340,200,528,1640,-93,15,-9
11345,224,544,1616,-93,13,-6
11350,232,528,1608,-92,15,-5
11355,224,544,1592,-94,19,-4
11360,256,536,1576,-95,26,-5
11365,232,536,1600,-95,28,-5
11370,256,536,1600,-95,32,-7
11375,224,536,1616,-94,32,-8
11380,232,520,1584,-96,29,-7
11385,232,536,1608,-97,26,-5
11390,224,552,1624,-97,23,-4
11395,240,536,1600,-99,21,-4
11400,248,520,1608,-99,18,-5
11405,200,544,1616,-99,19,-4
11410,224,528,1560,-100,19,-4
11415,216,528,1608,-100,21,-4
11420,224,528,1592,-99,23,-4
11425,216,536,1592,-97,24,-4
11430,232,520,1600,-95,24,-5
11435,240,520,1600,-91,23,-5
11440,216,528,1584,-89,24,-5
11445,232,512,1616,-87,22,-6
11450,224,536,1584,-83,21,-6
11455,232,544,1608,-81,22,-6
11460,224,536,1624,-78,23,-7
11465,232,536,1600,-78,24,-6
11470,216,536,1592,-76,24,-7
11475,248,536,1640,-79,23,-7
11480,208,528,1624,-83,23,-7
11485,224,536,1640,-84,20,-8
11490,248,512,1632,-85,17,-7
11495,216,528,1624,-88,17,-6
11500,240,512,1600,-91,16,-6
11505,216,512,1600,-93,18,-6
11510,240,512,1616,-94,19,-5
11515,216,520,1632,-98,19,-5
11520,240,520,1624,-99,19,-5
11525,224,536,1608,-99,18,-4
11530,224,512,1600,-98,17,-3
11535,208,528,1592,-97,14,-2
11540,224,528,1632,-95,15,-2
11545,200,520,1504,-94,16,-2
11550,240,536,1640,-93,17,-2
11555,232,512,1576,-92,20,-2
11560,224,520,1648,-91,21,-4
11565,216,536,1608,-91,23,-4
11570,216,520,1608,-88,25,-5
11575,232,520,1608,-88,26,-5
11580,224,520,1624,-87,27,-5
11585,232,544,1608,-84,29,-5
11590,216,512,1640,-86,29,-5
11595,232,512,1632,-86,29,-5
11600,232,520,1616,-87,29,-5
11605,224,528,1608,-87,29,-4
11610,256,512,1640,-86,28,-1
11615,240,504,1640,-86,25,-3
11620,216,504,1640,-87,21,-1
11625,216,520,1616,-89,19,-2
11630,224,496,1616,-89,18,-2
11635,240,520,1616,-89,18,-2
11640,224,528,1640,-91,17,-2
11645,216,504,1608,-91,17,-2
11650,272,504,1632,-91,17,-4
11655,200,528,1624,-91,19,-4
11660,232,512,1608,-91,20,-5
11665,216,504,1600,-90,23,-5
11670,248,504,1600,-91,24,-6
11675,240,504,1616,-89,25,-6
11680,248,504,1648,-87,24,-7
11685,232,504,1592,-86,26,-7
11690,256,512,1592,-84,25,-7
11695,224,512,1632,-85,25,-6
11700,240,520,1616,-85,26,-7
11705,232,512,1608,-83,25,-7
11710,216,512,1640,-84,21,-5
11715,248,504,1632,-84,21,-6
11720,232,528,1592,-83,18,-5
11725,224,496,1624,-82,18,-5
11730,248,496,1608,-82,18,-6
11735,240,480,1592,-80,16,-3
11740,216,504,1592,-79,17,-5
11745,224,512,1608,-77,17,-5
11750,208,512,1600,-72,18,-6
11755,200,512,1600,-70,18,-5
11760,208,512,1592,-67,20,-4
11765,224,512,1584,-64,22,-7
11770,224,488,1608,-61,23,-6
11775,208,496,1616,-58,25,-7
11780,248,472,1632,-54,26,-7
11785,224,480,1600,-48,24,-7
11790,240,488,1616,-42,24,-7
11795,208,488,1600,-34,21,-6
11800,216,480,1592,-29,18,-3
11805,192,496,1600,-21,16,-2
11810,240,504,1584,-17,14,-2
11815,232,488,1584,-15,11,-2
11820,208,504,1624,-13,11,-2
11825,232,504,1608,-13,9,-2
11830,232,504,1584,-13,6,-2
11835,224,504,1632,-11,5,-1
11840,224,504,1608,-10,6,-1
11845,232,496,1592,-7,5,-1
11850,216,512,1592,-5,8,-3
11855,232,512,1608,-4,8,-3
11860,232,504,1624,-2,9,-6
11865,240,504,1616,-3,11,-6
11870,232,504,1656,-2,11,-7
11875,224,520,1616,-4,13,-6
11880,232,512,1624,-7,14,-5
11885,240,536,1624,-5,16,-6
11890,240,512,1624,-5,17,-7
11895,232,520,1616,-4,18,-9
11900,240,512,1608,-4,18,-7
11905,208,512,1648,-3,18,-7
11910,240,512,1648,-5,15,-7
11915,216,496,1640,-6,12,-5
11920,224,504,1640,-7,11,-5
11925,240,512,1648,-9,12,-5
11930,240,520,1640,-9,12,-5
11935,224,512,1624,-9,13,-3
11940,232,488,1624,-7,13,-2
11945,216,496,1616,2,15,-2
11950,248,480,1624,13,15,-2
11955,232,504,1592,24,18,0
11960,216,504,1616,30,20,-1
11965,224,520,1576,31,21,-1
11970,232,512,1616,27,21,0
11975,232,512,1600,25,17,0
11980,216,528,1608,22,14,-1
11985,216,568,1584,18,12,-2
11990,240,560,1608,14,14,-3
11995,224,560,1608,12,14,-4
12000,200,544,1576,11,13,-4
12005,224,552,1632,11,15,-5
12010,208,528,1632,12,15,-3
12015,256,544,1616,10,13,-3
12020,232,544,1600,10,11,-4
12025,232,536,1600,9,11,-3
12030,216,544,1624,9,11,-3
12035,232,536,1624,7,10,-3
12040,216,512,1624,4,9,-3
12045,224,520,1632,3,9,-2
12050,216,512,1608,4,9,-3
12055,224,512,1632,3,9,-3
12060,224,512,1608,5,9,-3
12065,232,512,1624,5,11,-3
12070,224,528,1624,6,13,-3
12075,224,520,1616,6,13,-4
12080,232,544,1592,5,14,-5
12085,224,520,1600,3,14,-3
12090,256,520,1624,3,12,-3
12095,224,560,1600,3,11,-3
12100,224,552,1656,2,9,-4
12105,240,536,1608,0,7,-3
12110,248,552,1624,-2,8,-5
12115,240,544,1592,-5,7,-4
12120,208,536,1608,-7,7,-4
12125,224,520,1600,-9,7,-4
12130,232,528,1624,-11,7,-3
12135,240,536,1608,-12,5,-2
12140,224,544,1600,-13,6,-2
12145,240,536,1592,-11,7,-3
12150,216,552,1616,-13,7,-4
12155,224,552,1624,-11,6,-4
12160,248,552,1608,-11,5,-4
12165,232,520,1616,-9,6,-3
12170,232,552,1632,-7,7,-3
12175,216,544,1640,-6,6,-3
12180,232,536,1600,-7,6,-3
12185,240,560,1608,-8,6,-5
12190,240,536,1632,-10,5,-6
12195,240,528,1608,-12,5,-6
12200,224,536,1608,-14,5,-5
12205,224,544,1592,-16,6,-6
12210,232,544,1608,-19,8,-7
12215,216,544,1608,-18,11,-8
12220,216,544,1616,-19,10,-7
12225,232,536,1608,-18,10,-6
12230,224,536,1624,-17,10,-4
12235,248,552,1616,-17,8,-4
12240,240,544,1600,-17,6,-2
12245,232,560,1592,-15,4,-1
12250,232,536,1624,-16,5,-3
12255,248,520,1616,-14,5,-2
12260,216,544,1600,-14,6,-3
12265,208,536,1608,-14,6,-3
12270,224,544,1592,-13,7,-4
12275,208,560,1600,-11,7,-3
12280,232,528,1608,-11,8,-2
12285,256,552,1600,-8,9,-2
12290,240,544,1592,-6,9,-5
12295,224,552,1608,-4,11,-5
12300,224,528,1568,-3,11,-5
12305,224,544,1592,-3,11,-3
12310,216,560,1600,-3,11,-5
12315,224,568,1616,-3,11,-6
12320,248,544,1592,-5,10,-3
12325,240,560,1624,-6,7,-3
12330,232,584,1600,-7,7,-2
12335,232,536,1592,-12,7,-2
12340,240,552,1616,-15,6,-3
12345,232,544,1608,-17,6,-3
12350,232,576,1608,-22,7,-2
12355,232,536,1616,-25,7,-2
12360,272,552,1584,-27,8,-2
12365,224,568,1632,-30,8,-3
12370,256,568,1608,-30,9,-2
12375,224,576,1600,-31,9,-4
12380,240,544,1584,-30,12,-6
12385,232,544,1616,-31,13,-6
12390,232,552,1592,-29,13,-6
12395,224,568,1616,-29,13,-7
12400,224,560,1608,-28,12,-6
12405,248,544,1568,-29,12,-6
12410,248,520,1600,-26,13,-5
12415,232,552,1608,-28,13,-6
12420,200,576,1608,-26,14,-7
12425,216,568,1608,-24,13,-6
12430,240,552,1624,-23,11,-5
12435,232,560,1592,-21,10,-5
12440,240,552,1592,-21,9,-4
12445,224,584,1600,-20,8,-3
12450,224,560,1608,-21,7,-2
12455,232,552,1576,-22,9,-3
12460,232,560,1608,-21,9,-4
12465,224,544,1616,-21,9,-2
12470,224,568,1616,-21,10,-3
12475,248,568,1608,-24,10,-4
12480,248,584,1624,-26,12,-4
12485,224,544,1584,-27,12,-5
12490,240,544,1608,-30,12,-6
12495,248,536,1600,-29,11,-7
12500,216,576,1584,-29,10,-4
12505,240,560,1624,-28,11,-3
12510,232,544,1640,-29,8,-4
12515,248,552,1584,-29,9,-4
12520,240,568,1624,-31,9,-6
12525,224,552,1624,-34,9,-7
12530,240,568,1624,-35,10,-5
12535,240,560,1592,-37,8,-4
12540,216,568,1600,-37,6,-2
12545,232,568,1616,-32,8,-3
12550,240,560,1592,-29,7,-3
12555,224,560,1624,-26,8,-4
12560,256,568,1616,-23,10,-5
12565,224,568,1600,-21,12,-5
12570,240,568,1616,-21,14,-5
12575,216,576,1600,-21,15,-4
12580,248,560,1656,-18,16,-4
12585,240,552,1584,-18,16,-4
12590,240,568,1600,-16,17,-3
12595,256,544,1624,-15,16,-4
12600,216,560,1616,-15,15,-7
12605,232,560,1592,-16,14,-7
12610,232,568,1624,-21,13,-7
12615,248,544,1624,-25,11,-8
12620,224,552,1648,-30,12,-8
12625,216,576,1648,-35,14,-10
12630,208,560,1624,-38,16,-9
12635,248,536,1608,-35,17,-9
12640,248,544,1600,-28,21,-7
12645,248,528,1608,-15,23,-6
12650,240,536,1576,0,26,-3
12655,256,552,1552,9,28,-2
12660,224,560,1592,14,30,-3
12665,248,560,1568,16,27,-1
12670,216,576,1560,17,22,0
12675,216,568,1600,14,17,0
12680,224,576,1600,12,12,-1
12685,232,592,1608,12,9,0
12690,232,584,1608,12,6,-1
12695,232,600,1592,9,5,-1
12700,240,584,1592,6,5,0
12705,232,616,1584,5,5,-1
12710,240,608,1584,3,7,-1
12715,240,592,1600,1,7,-3
12720,208,592,1592,-2,6,-4
12725,240,576,1624,-6,8,-3
12730,232,592,1608,-7,8,-3
12735,240,584,1584,-10,8,-3
12740,240,584,1624,-13,8,-4
12745,248,592,1584,-16,9,-3
12750,232,608,1608,-17,10,-4
12755,240,552,1608,-18,11,-4
12760,264,568,1552,-18,10,-3
12765,240,576,1592,-18,10,-4
12770,248,576,1600,-18,10,-4
12775,248,568,1624,-17,10,-3
12780,240,576,1600,-18,9,-4
12785,248,576,1608,-17,9,-3
12790,256,560,1600,-17,8,-3
12795,232,576,1584,-17,8,-3
12800,240,600,1584,-16,9,-4
12805,232,592,1592,-15,7,-4
12810,232,616,1576,-15,7,-4
12815,232,608,1584,-16,6,-3
12820,224,568,1600,-16,6,-2
12825,224,584,1584,-18,6,-3
12830,232,576,1584,-19,7,-2
12835,232,592,1584,-19,7,-2
12840,224,592,1584,-22,6,-2
12845,248,576,1592,-21,5,-2
12850,240,592,1592,-23,4,-1
12855,248,576,1576,-24,4,0
12860,248,576,1576,-25,5,0
12865,256,600,1552,-25,5,-1
12870,224,592,1560,-23,4,-1
12875,256,600,1584,-21,2,-1
12880,240,576,1576,-21,2,0
12885,232,584,1568,-21,3,0
12890,248,600,1608,-20,3,-1
12895,232,568,1632,-21,3,-1
12900,232,600,1576,-22,3,-1
12905,248,584,1616,-26,2,-3
12910,224,584,1600,-27,3,-4
12915,240,592,1616,-29,5,-4
12920,224,576,1600,-30,4,-5
12925,240,600,1592,-30,5,-5
12930,264,568,1608,-30,7,-5
12935,240,592,1568,-28,8,-3
12940,248,592,1600,-26,6,-3
12945,232,592,1568,-27,9,-3
12950,264,592,1584,-27,9,-4
12955,272,568,1568,-26,7,-3
12960,248,592,1568,-25,8,-2
12965,256,592,1600,-25,7,-1
12970,248,608,1584,-24,6,-1
12975,232,592,1600,-23,5,-1
12980,248,616,1568,-23,5,-3
12985,232,600,1592,-22,6,-2
12990,264,592,1592,-24,6,-2
12995,248,608,1592,-25,7,-2
13000,248,600,1600,-26,6,-1
13005,240,608,1600,-28,6,-1
13010,232,584,1592,-28,7,0
13015,272,616,1568,-28,6,0
13020,248,616,1600,-32,6,-1
13025,256,576,1616,-33,8,-1
13030,240,600,1584,-35,9,-1
13035,240,608,1584,-36,9,-1
13040,264,608,1608,-40,10,-2
13045,240,616,1576,-43,10,-3
13050,216,600,1616,-46,9,-5
13055,248,640,1600,-48,9,-6
13060,224,592,1584,-50,12,-5
13065,272,592,1584,-52,14,-4
13070,240,592,1608,-52,14,-5
13075,248,600,1600,-52,16,-6
13080,232,592,1592,-51,16,-6
13085,240,616,1600,-50,17,-6
13090,256,576,1576,-50,18,-6
13095,248,608,1600,-49,18,-5
13100,224,608,1608,-49,14,-6
13105,232,600,1592,-49,14,-3
13110,256,608,1592,-49,15,-5
13115,264,584,1592,-52,16,-5
13120,248,600,1608,-56,15,-7
13125,240,584,1632,-60,16,-6
13130,248,624,1600,-64,16,-7
13135,240,616,1576,-66,17,-7
13140,224,616,1616,-66,17,-6
13145,240,632,1592,-69,16,-6
13150,232,600,1584,-73,18,-7
13155,224,624,1608,-76,20,-6
13160,240,584,1584,-78,20,-6
13165,264,600,1584,-80,18,-6
13170,264,584,1608,-81,20,-6
13175,248,592,1592,-81,18,-5
13180,272,592,1592,-80,18,-3
13185,224,592,1592,-80,19,-4
13190,232,584,1616,-80,19,-6
13195,240,600,1592,-80,20,-5
13200,216,600,1584,-81,21,-6
13205,232,576,1592,-80,23,-7
13210,264,584,1608,-79,23,-9
13215,240,584,1600,-80,26,-9
13220,232,600,1568,-81,27,-6
13225,240,568,1600,-84,27,-6
13230,240,584,1592,-83,27,-5
13235,240,592,1600,-81,25,-6
13240,232,576,1616,-81,25,-6
13245,232,592,1584,-78,24,-6
13250,240,560,1592,-79,22,-4
13255,240,576,1608,-77,20,-3
13260,232,560,1608,-75,18,-3
13265,240,592,1576,-73,18,-3
13270,248,600,1584,-73,20,-3
13275,248,600,1584,-69,19,-4
13280,224,624,1592,-69,21,-5
13285,232,592,1568,-67,22,-5
13290,240,584,1624,-69,22,-5
13295,264,584,1600,-69,24,-7
13300,248,568,1608,-70,25,-7
13305,248,584,1608,-71,25,-8
13310,248,576,1640,-72,26,-8
13315,240,592,1600,-73,25,-8
13320,248,576,1576,-75,25,-9
13325,256,584,1624,-78,26,-9
13330,224,560,1624,-81,26,-10
13335,248,568,1600,-86,27,-11
13340,240,568,1608,-91,26,-11
13345,248,576,1640,-95,28,-10
13350,240,536,1608,-95,30,-9
13355,224,528,1616,-91,31,-9
13360,248,520,1624,-76,31,-7
13365,256,544,1600,-59,31,-3
13370,240,544,1568,-48,34,-3
13375,224,568,1568,-43,36,-3
13380,200,592,1600,-40,35,-1
13385,240,592,1568,-40,30,-2
13390,240,584,1592,-43,25,-1
13395,240,592,1568,-48,19,0
13400,248,600,1616,-54,17,-1
13405,232,624,1624,-60,18,-2
13410,224,632,1600,-65,19,-2
13415,256,592,1584,-71,20,-3
13420,232,592,1600,-75,22,-3
13425,248,600,1576,-81,25,-3
13430,248,560,1608,-88,25,-5
13435,248,600,1624,-92,27,-5
13440,256,592,1608,-97,26,-6
13445,232,584,1624,-102,27,-7
13450,240,576,1624,-103,28,-7
13455,248,576,1624,-104,28,-7
13460,248,560,1592,-104,28,-7
13465,248,560,1632,-105,26,-7
13470,240,560,1624,-104,24,-7
13475,232,552,1584,-101,26,-8
13480,232,568,1584,-99,26,-7
13485,232,576,1608,-98,27,-7
13490,208,544,1608,-94,26,-7
13495,240,568,1608,-93,26,-8
13500,232,552,1616,-91,26,-8
13505,248,536,1600,-89,26,-7
13510,240,536,1600,-90,24,-6
13515,248,560,1576,-88,23,-6
13520,248,536,1600,-87,22,-5
13525,248,568,1592,-86,22,-4
13530,224,560,1584,-88,21,-3
13535,232,552,1592,-90,21,-2
13540,248,552,1592,-91,19,-3
13545,216,544,1568,-93,19,-4
13550,232,584,1600,-94,19,-4
13555,232,576,1576,-94,19,-4
13560,224,552,1608,-94,19,-5
13565,248,560,1608,-94,19,-5
13570,224,568,1592,-92,20,-4
13575,224,568,1600,-90,21,-4
13580,208,560,1592,-89,23,-5
13585,264,552,1608,-88,24,-6
13590,224,560,1600,-84,24,-6
13595,224,552,1624,-85,24,-7
13600,216,544,1600,-82,23,-6
13605,224,536,1664,-82,22,-6
13610,232,528,1608,-83,20,-7
13615,232,536,1632,-85,20,-6
13620,232,552,1616,-87,18,-6
13625,216,544,1608,-87,17,-6
13630,232,544,1632,-89,14,-6
13635,232,536,1616,-90,15,-6
13640,232,568,1608,-91,14,-5
13645,240,536,1600,-93,15,-6
13650,232,560,1600,-93,16,-5
13655,232,568,1584,-92,16,-5
13660,224,568,1592,-93,17,-6
13665,232,552,1616,-95,18,-4
13670,216,568,1616,-95,19,-5
13675,232,544,1600,-95,22,-6
13680,240,560,1600,-94,23,-7
13685,232,568,1608,-94,23,-8
13690,232,560,1592,-96,24,-7
13695,216,560,1608,-96,25,-6
13700,232,552,1624,-95,25,-6
13705,232,544,1608,-93,24,-5
13710,232,544,1600,-95,24,-6
13715,264,568,1624,-96,24,-5
13720,224,552,1592,-96,24,-6
13725,232,544,1624,-98,25,-5
13730,224,536,1640,-98,25,-4
13735,240,520,1608,-99,25,-5
13740,224,544,1624,-99,22,-5
13745,232,536,1640,-99,22,-4
13750,232,536,1608,-98,22,-3
13755,208,536,1624,-97,21,-3
13760,216,528,1600,-96,22,-4
13765,216,544,1632,-94,23,-4
13770,224,536,1632,-94,23,-5
13775,240,544,1616,-93,23,-5
13780,232,520,1632,-92,24,-4
13785,208,520,1608,-92,24,-3
13790,232,528,1624,-89,24,-4
13795,208,544,1600,-91,25,-5
13800,240,536,1624,-92,25,-6
13805,256,520,1592,-93,26,-6
13810,232,536,1600,-95,27,-5
13815,216,544,1616,-97,27,-6
13820,232,520,1576,-98,26,-6
13825,232,528,1632,-98,26,-6
13830,248,544,1592,-99,25,-6
13835,216,552,1600,-101,24,-5
13840,216,520,1592,-102,23,-4
13845,208,520,1616,-101,22,-5
13850,224,520,1608,-103,21,-4
13855,224,536,1600,-102,21,-4
13860,224,528,1592,-100,22,-2
13865,240,520,1616,-99,23,-4
13870,232,520,1584,-99,25,-6
13875,232,520,1600,-98,26,-6
13880,216,512,1600,-98,27,-6
13885,224,528,1616,-98,28,-6
13890,248,512,1624,-96,29,-5
13895,240,528,1608,-95,30,-6
13900,216,512,1592,-95,29,-6
13905,232,520,1608,-93,27,-6
13910,224,520,1608,-91,27,-5
13915,248,512,1632,-92,26,-3
13920,232,504,1616,-91,24,-3
13925,224,504,1616,-90,23,-2
13930,224,512,1608,-92,22,-1
13935,224,520,1624,-92,19,-2
13940,232,520,1600,-92,18,-2
13945,216,512,1640,-92,18,-2
13950,232,512,1624,-94,19,-2
13955,232,520,1592,-93,18,-2
13960,232,536,1592,-90,20,-3
13965,240,504,1632,-87,22,-2
13970,232,520,1640,-83,24,-2
13975,232,520,1616,-80,24,-5
13980,168,528,1640,-77,24,-4
13985,248,512,1632,-77,25,-5
13990,216,504,1600,-75,25,-6
13995,240,504,1600,-76,28,-8
14000,240,512,1640,-74,28,-8
14005,232,504,1608,-70,27,-8
14010,224,496,1632,-66,26,-9
14015,232,496,1608,-63,27,-8
14020,208,504,1616,-64,26,-8
14025,224,504,1616,-67,26,-10
14030,232,496,1616,-68,25,-8
14035,208,512,1608,-71,25,-9
14040,232,504,1608,-74,25,-8
14045,216,528,1632,-77,26,-9
14050,216,504,1664,-75,27,-7
14055,256,464,1648,-70,28,-7
14060,224,488,1616,-60,29,-6
14065,240,504,1600,-46,31,-3
14070,216,512,1600,-37,33,-3
14075,216,520,1592,-36,35,-2
14080,216,520,1592,-34,33,-3
14085,232,512,1592,-38,31,-2
14090,232,528,1568,-42,26,-2
14095,216,544,1600,-48,25,-2
14100,200,520,1600,-50,23,-2
14105,200,528,1592,-51,23,-3
14110,224,528,1600,-48,21,-1
14115,216,536,1640,-49,21,-3
14120,240,528,1632,-47,21,-1
14125,232,512,1600,-45,20,-2
14130,216,520,1624,-46,19,-4
14135,216,504,1640,-46,21,-4
14140,200,512,1616,-41,20,-5
14145,216,488,1632,-37,21,-5
14150,224,512,1624,-33,22,-5
14155,232,496,1616,-28,21,-5
14160,224,504,1592,-22,20,-5
14165,240,504,1592,-20,19,-5
14170,216,488,1592,-16,17,-4
14175,232,488,1600,-13,15,-3
14180,232,504,1600,-8,11,-4
14185,232,504,1576,-8,10,-2
14190,216,512,1600,-8,9,-3
14195,216,496,1608,-5,9,-2
14200,216,520,1616,-5,9,-1
14205,200,512,1560,-4,8,-2
14210,248,504,1592,-2,8,-2
14215,216,504,1608,0,8,-3
14220,216,512,1592,1,7,-3
14225,224,528,1608,3,7,-3
14230,240,504,1616,2,7,-2
14235,224,512,1608,3,7,-3
14240,208,512,1640,3,9,-3
14245,232,520,1632,3,10,-3
14250,232,528,1616,2,10,-4
14255,208,536,1592,3,9,-6
14260,224,536,1616,3,8,-5
14265,232,504,1624,4,8,-5
14270,232,520,1616,4,8,-4
14275,224,520,1584,4,8,-2
14280,216,520,1616,5,6,-2
14285,224,512,1576,5,5,-3
14290,224,536,1608,6,6,-3
14295,216,536,1648,5,4,-5
14300,224,528,1632,1,4,-5
14305,216,528,1632,-1,3,-4
14310,216,528,1648,-3,3,-4
14315,216,528,1632,-5,5,-5
14320,208,520,1616,-6,5,-3
14325,232,512,1624,-6,8,-4
14330,224,520,1640,-6,9,-3
14335,216,528,1640,-4,11,-3
14340,208,552,1592,-4,10,-3
14345,248,520,1584,-3,10,-3
14350,208,544,1608,-1,9,-2
14355,240,520,1608,1,7,-2
14360,216,544,1608,0,6,-2
14365,248,512,1672,0,5,-3
14370,232,528,1624,0,6,-3
14375,208,520,1608,0,6,-3
14380,224,536,1616,-1,6,-2
14385,232,520,1648,0,6,-3
14390,216,536,1608,-2,5,-2
14395,240,536,1592,-3,7,-2
14400,224,544,1608,-5,8,-3
14405,224,536,1600,-4,10,-3
14410,256,536,1632,-3,10,-3
14415,240,520,1600,-2,12,-3
14420,232,504,1616,-3,13,-3
14425,232,544,1608,-4,14,-3
14430,216,544,1624,-4,12,-3
14435,256,512,1600,-3,12,-3
14440,216,528,1624,-1,11,-3
14445,224,528,1600,-2,10,-2
14450,232,528,1592,-3,9,-1
14455,232,552,1616,-3,9,-2
14460,264,544,1608,-5,11,-2
14465,240,528,1608,-6,10,-2
14470,248,536,1576,-6,10,-3
14475,240,528,1584,-8,10,-3
14480,232,560,1608,-10,11,-3
14485,232,536,1576,-10,11,-1
14490,232,536,1608,-7,10,-3
14495,240,528,1608,-5,9,-4
14500,232,552,1584,-6,10,-4
14505,224,544,1608,-6,10,-5
14510,248,544,1600,-5,11,-5
14515,240,536,1592,-7,11,-6
14520,224,536,1608,-9,10,-6
14525,224,528,1576,-11,10,-5
14530,224,536,1592,-11,10,-7
14535,224,552,1616,-13,8,-5
14540,200,560,1624,-14,6,-5
14545,232,552,1600,-13,5,-3
14550,216,536,1632,-12,6,-2
14555,216,552,1608,-12,5,-3
14560,256,560,1576,-13,6,-2
14565,232,560,1600,-12,6,-2
14570,240,568,1624,-13,7,-2
14575,216,552,1600,-14,8,-3
14580,232,536,1592,-14,8,-3
14585,224,560,1608,-16,10,-5
14590,240,536,1624,-17,10,-5
14595,240,560,1592,-18,12,-5
14600,224,536,1616,-18,14,-6
14605,232,552,1624,-19,14,-6
14610,248,544,1624,-20,15,-6
14615,240,560,1608,-21,14,-5
14620,240,544,1608,-21,13,-5
14625,240,560,1624,-22,10,-5
14630,240,584,1624,-22,9,-4
14635,232,560,1616,-24,7,-3
14640,240,568,1624,-26,5,-2
14645,216,568,1632,-27,5,-1
14650,232,552,1616,-26,5,-2
14655,224,552,1600,-25,6,-4
14660,224,544,1584,-25,7,-3
14665,216,544,1592,-25,8,-4
14670,232,544,1600,-23,12,-5
14675,248,544,1616,-23,11,-6
14680,208,568,1592,-22,13,-7
14685,240,544,1576,-22,13,-8
14690,232,560,1632,-19,13,-8
14695,232,544,1632,-18,14,-8
14700,224,560,1608,-15,14,-8
14705,232,536,1584,-15,13,-9
14710,248,552,1640,-19,13,-7
14715,224,544,1624,-24,14,-9
14720,248,536,1592,-29,14,-9
14725,200,576,1624,-33,15,-10
14730,224,552,1608,-40,15,-9
14735,216,552,1632,-40,16,-8
14740,264,520,1608,-34,19,-7
14745,200,536,1608,-24,21,-4
14750,216,544,1608,-11,23,-4
14755,256,528,1560,-1,26,-3
14760,248,568,1560,6,28,-2
14765,224,560,1608,9,27,-1
14770,224,576,1608,12,22,1
14775,232,544,1584,12,17,-1
14780,224,568,1560,12,14,1
14785,248,576,1584,13,11,3
14790,240,592,1584,11,9,2
14795,216,592,1648,8,7,2
14800,240,592,1600,7,8,-1
14805,240,584,1592,3,9,-2
14810,240,600,1608,2,11,-2
14815,200,600,1600,-5,12,-4
14820,216,584,1592,-8,13,-3
14825,224,584,1608,-12,11,-6
14830,224,552,1592,-18,12,-6
14835,240,552,1656,-23,13,-6
14840,224,544,1608,-23,13,-4
14845,240,560,1632,-23,12,-6
14850,232,552,1592,-22,11,-7
14855,248,560,1600,-21,10,-6
14860,232,552,1624,-21,12,-6
14865,240,576,1608,-19,12,-6
14870,232,552,1576,-18,12,-5
14875,232,576,1616,-18,12,-4
14880,232,568,1608,-17,11,-4
14885,248,552,1592,-17,10,-4
14890,232,568,1608,-15,10,-2
14895,240,560,1576,-12,7,-3
14900,232,560,1584,-12,7,-4
14905,248,568,1568,-11,6,-2
14910,240,568,1592,-10,8,-2
14915,232,576,1592,-13,10,-3
14920,224,560,1600,-14,9,-3
14925,240,576,1616,-14,7,-3
14930,240,560,1592,-15,7,-4
14935,240,576,1600,-16,6,-3
14940,216,576,1600,-17,4,-2
14945,248,592,1592,-16,3,-2
14950,224,576,1576,-16,3,-1
14955,248,576,1584,-17,5,-2
14960,224,592,1600,-16,5,-2
14965,216,608,1608,-16,6,-1
14970,232,584,1576,-15,4,-1
14975,232,600,1616,-17,4,-2
14980,224,600,1584,-16,2,-1
14985,216,616,1592,-15,2,-1
14990,248,600,1584,-14,3,-2
14995,208,600,1608,-17,3,-2
