timestamp,accel_x,accel_y,accel_z,gyro_x,gyro_y,gyro_z
0,56,-1968,-816,-48,18,-16
5,16,-1968,-840,-47,18,-14
10,8,-1976,-824,-47,17,-14
15,48,-1976,-808,-45,17,-13
20,24,-1984,-824,-44,15,-12
25,88,-1992,-832,-41,15,-13
30,24,-1952,-848,-40,15,-13
35,24,-1976,-808,-39,16,-12
40,-8,-1976,-792,-36,16,-12
45,16,-1984,-808,-36,17,-12
50,32,-1968,-800,-36,17,-13
55,104,-1904,-816,-35,19,-12
60,40,-1976,-816,-35,21,-11
65,0,-1960,-816,-36,24,-11
70,24,-1976,-824,-33,25,-12
75,24,-1968,-824,-35,27,-11
80,32,-1960,-800,-35,30,-10
85,24,-1952,-816,-34,30,-7
90,40,-1984,-816,-35,32,-5
95,40,-1976,-784,-35,31,-5
100,40,-1984,-808,-33,30,-2
105,24,-1968,-832,-33,30,-2
110,40,-1976,-808,-32,29,-2
115,48,-1976,-824,-30,27,-2
120,32,-1960,-816,-31,26,-1
125,40,-1960,-784,-31,23,-1
130,16,-1960,-824,-30,22,0
135,24,-1960,-824,-31,21,2
140,32,-1960,-800,-29,22,0
145,8,-1952,-800,-30,21,1
150,16,-1952,-808,-31,22,1
155,24,-1976,-832,-31,21,0
160,40,-1984,-824,-31,23,1
165,48,-1960,-824,-31,24,0
170,32,-1960,-840,-31,24,0
175,24,-1976,-824,-30,24,0
180,24,-1968,-824,-30,25,0
185,40,-1984,-816,-32,26,0
190,16,-1960,-840,-32,27,1
195,48,-1968,-816,-33,27,-1
200,24,-1968,-824,-31,27,0
205,0,-1968,-832,-33,26,0
210,24,-1960,-808,-29,25,2
215,40,-1960,-824,-26,24,3
220,32,-1960,-776,-22,23,3
225,24,-1976,-816,-18,23,2
230,24,-1984,-832,-12,22,5
235,24,-1968,-816,-10,21,5
240,40,-1952,-816,-8,20,6
245,16,-1968,-848,-6,19,5
250,24,-1960,-824,-2,18,5
255,32,-1968,-840,0,18,6
260,16,-1968,-792,1,18,4
265,24,-1976,-848,0,18,5
270,16,-1952,-784,2,17,6
275,24,-1944,-816,3,17,5
280,16,-1968,-824,2,17,6
285,48,-1976,-824,3,17,5
290,32,-1960,-808,3,18,4
295,48,-1976,-808,2,19,4
300,32,-1968,-832,0,18,3
305,16,-1968,-816,3,20,2
310,24,-1976,-784,6,17,2
315,32,-1976,-792,9,16,1
320,40,-1968,-808,13,13,2
325,24,-1968,-816,16,13,5
330,32,-1952,-800,17,12,6
335,40,-1960,-800,19,10,6
340,32,-1976,-824,19,8,4
345,24,-1960,-800,21,7,3
350,24,-1960,-824,22,5,2
355,40,-1944,-792,22,5,3
360,32,-1968,-800,23,6,2
365,32,-1984,-824,21,7,2
370,32,-1968,-784,21,8,2
375,32,-1984,-800,24,10,3
380,24,-1984,-832,29,13,4
385,32,-1992,-784,35,14,4
390,48,-2000,-824,41,15,3
395,32,-2000,-800,46,17,2
400,48,-1992,-816,53,16,1
405,40,-1976,-768,58,15,1
410,32,-1992,-792,58,13,5
415,40,-1992,-792,56,11,7
420,24,-1968,-792,52,7,8
425,8,-1984,-808,46,4,11
430,8,-1960,-784,37,2,11
435,32,-1952,-808,31,2,11
440,8,-1960,-808,29,3,9
445,16,-1952,-784,25,5,8
450,8,-1976,-800,23,8,5
455,16,-1968,-776,22,11,5
460,16,-1976,-768,23,15,4
465,8,-1968,-752,24,20,4
470,24,-1976,-728,27,24,4
475,32,-2000,-776,30,25,5
480,0,-1984,-752,33,26,5
485,8,-1992,-752,36,26,7
490,32,-1976,-776,42,24,7
495,32,-2008,-784,49,21,9
500,24,-2000,-768,55,19,11
505,16,-1992,-776,64,16,12
510,16,-2000,-736,71,14,12
515,16,-1976,-736,81,12,14
520,16,-1984,-744,87,10,15
525,0,-1976,-752,94,8,16
530,56,-1984,-768,96,8,18
535,8,-1960,-744,97,8,18
540,40,-1968,-736,96,9,17
545,32,-1984,-720,94,7,16
550,8,-1984,-736,89,6,18
555,-16,-1968,-736,89,6,16
560,24,-1984,-720,88,6,15
565,24,-1976,-728,90,7,14
570,-8,-1960,-728,90,7,13
575,16,-1968,-728,92,9,14
580,8,-1944,-736,92,10,13
585,32,-1976,-744,91,11,13
590,-8,-1984,-744,87,12,10
595,32,-1984,-720,85,12,11
600,16,-1976,-712,84,10,8
605,-8,-1976,-720,86,9,6
610,16,-2000,-728,88,7,3
615,-24,-1968,-712,89,7,2
620,16,-1976,-704,87,7,0
625,0,-1976,-680,85,7,-3
630,0,-1960,-688,84,6,-2
635,0,-1976,-696,81,2,-4
640,-16,-1960,-696,79,-2,-5
645,8,-1976,-720,75,-7,-7
650,-16,-1984,-712,69,-8,-8
655,8,-1984,-720,64,-8,-11
660,24,-1984,-736,54,-6,-13
665,40,-1992,-720,44,-1,-15
670,40,-1976,-728,31,5,-16
675,8,-1968,-744,18,11,-16
680,32,-1992,-760,7,17,-17
685,32,-2000,-728,-4,24,-16
690,40,-1968,-720,-14,30,-17
695,40,-1992,-720,-16,32,-17
700,32,-1984,-696,-17,35,-16
705,24,-1968,-688,-16,36,-16
710,24,-1984,-688,-10,37,-15
715,24,-1984,-672,-4,37,-16
720,16,-1984,-656,4,36,-16
725,8,-1984,-632,12,34,-14
730,-8,-1992,-664,24,31,-14
735,-24,-1936,-640,32,28,-14
740,8,-1952,-656,39,25,-14
745,8,-1992,-648,44,20,-13
750,8,-1968,-640,45,15,-10
755,8,-1984,-616,44,10,-10
760,-16,-1984,-584,39,7,-7
765,-16,-1984,-656,31,5,-7
770,8,-1992,-656,20,3,-8
775,16,-1984,-696,9,2,-8
780,16,-1984,-664,-1,7,-11
785,16,-1984,-696,-12,9,-12
790,0,-1976,-688,-22,14,-15
795,8,-2000,-704,-34,19,-15
800,24,-2000,-680,-42,21,-16
805,40,-2008,-720,-47,27,-17
810,32,-1984,-696,-49,33,-16
815,24,-1984,-680,-48,36,-17
820,40,-1992,-688,-46,39,-14
825,40,-2016,-664,-42,38,-15
830,16,-1992,-688,-37,37,-14
835,0,-1992,-632,-31,36,-13
840,-8,-1984,-672,-21,32,-13
845,32,-1992,-648,-12,30,-13
850,24,-1976,-672,-7,26,-12
855,16,-1992,-616,-1,23,-11
860,16,-1984,-664,2,20,-10
865,8,-1976,-624,4,17,-10
870,24,-1952,-640,5,19,-12
875,8,-1968,-648,2,18,-12
880,0,-1968,-656,-4,19,-11
885,8,-1952,-672,-9,19,-11
890,16,-1864,-680,-18,20,-12
895,16,-1984,-672,-29,24,-13
900,24,-1960,-696,-39,27,-13
905,16,-1984,-704,-51,28,-12
910,40,-1992,-704,-60,29,-15
915,16,-1968,-736,-71,30,-16
920,48,-1968,-704,-80,32,-16
925,24,-1976,-712,-88,33,-16
930,40,-2000,-704,-93,32,-16
935,24,-1992,-720,-96,33,-16
940,48,-2000,-704,-97,33,-17
945,104,-1992,-600,-99,32,-16
950,32,-1984,-720,-97,31,-17
955,40,-1992,-696,-95,30,-17
960,24,-1984,-688,-91,30,-16
965,40,-1984,-664,-85,29,-16
970,40,-1976,-704,-79,26,-16
975,48,-1992,-688,-70,25,-14
980,40,-2000,-640,-63,25,-14
985,32,-1976,-672,-56,22,-14
990,40,-1984,-696,-51,22,-15
995,56,-1984,-656,-50,21,-14
1000,8,-1992,-600,-53,18,-14
1005,16,-1960,-680,-55,17,-15
1010,32,-1992,-696,-59,16,-14
1015,40,-1984,-656,-65,15,-15
1020,24,-1984,-688,-71,15,-17
1025,40,-1992,-688,-74,15,-19
1030,32,-1992,-696,-77,16,-18
1035,48,-1960,-672,-79,15,-18
1040,56,-1984,-664,-83,17,-19
1045,48,-1984,-696,-85,17,-21
1050,24,-2056,-576,-89,17,-22
1055,0,-1968,-712,-92,17,-24
1060,24,-1976,-688,-95,16,-25
1065,40,-1992,-728,-95,17,-25
1070,0,-1976,-696,-98,18,-24
1075,48,-1992,-704,-96,19,-22
1080,48,-2008,-728,-94,20,-19
1085,32,-2024,-712,-91,22,-18
1090,80,-1984,-736,-90,23,-19
1095,40,-1984,-688,-87,23,-17
1100,24,-1976,-728,-85,25,-18
1105,56,-1984,-680,-84,25,-19
1110,32,-1984,-704,-82,24,-20
1115,24,-1984,-680,-80,24,-17
1120,48,-1976,-672,-78,24,-16
1125,16,-1992,-688,-73,25,-16
1130,40,-2000,-688,-68,24,-15
1135,48,-1992,-680,-60,24,-12
1140,16,-2008,-712,-54,23,-12
1145,64,-2000,-712,-49,22,-12
1150,32,-1984,-736,-45,20,-11
1155,40,-2008,-736,-47,17,-9
1160,72,-2008,-720,-49,17,-7
1165,48,-1992,-712,-53,14,-5
1170,24,-1984,-752,-58,13,-4
1175,64,-1976,-720,-63,11,-3
1180,64,-1984,-704,-68,11,-4
1185,32,-1936,-720,-72,10,-5
1190,16,-1960,-720,-73,10,-6
1195,56,-1976,-720,-76,12,-6
1200,24,-1944,-704,-77,11,-9
1205,16,-1960,-712,-75,14,-10
1210,24,-1968,-688,-75,15,-12
1215,0,-1984,-712,-76,16,-14
1220,32,-1992,-736,-76,19,-13
1225,0,-1984,-712,-75,21,-11
1230,32,-2016,-704,-72,23,-11
1235,24,-2000,-720,-69,25,-10
1240,16,-1992,-712,-65,26,-7
1245,40,-2024,-704,-62,27,-6
1250,32,-2016,-720,-58,25,-4
1255,56,-2008,-696,-55,25,-2
1260,8,-2016,-720,-52,25,-1
1265,48,-1984,-736,-47,23,0
1270,32,-1992,-680,-44,20,2
1275,40,-1968,-704,-41,16,1
1280,32,-1968,-704,-40,12,1
1285,48,-1984,-704,-37,9,0
1290,0,-1968,-728,-38,7,1
1295,56,-1976,-760,-39,5,-1
1300,32,-1968,-720,-43,4,-3
1305,32,-1976,-712,-45,3,-4
1310,40,-1992,-736,-51,4,-3
1315,72,-1984,-704,-55,6,-4
1320,32,-1976,-704,-57,8,-5
1325,24,-1960,-736,-58,10,-3
1330,32,-1984,-744,-57,12,-3
1335,16,-1976,-720,-58,14,-3
1340,32,-1992,-736,-61,16,-3
1345,16,-1984,-728,-62,17,-1
1350,80,-1992,-720,-60,18,-1
1355,32,-1984,-728,-60,19,-2
1360,24,-1976,-744,-59,19,-3
1365,40,-1984,-728,-60,21,-2
1370,16,-1976,-704,-61,21,-3
1375,48,-1992,-728,-63,21,-2
1380,48,-1984,-704,-63,21,-1
1385,40,-1976,-696,-63,20,-2
1390,40,-1984,-768,-60,19,-2
1395,48,-1992,-736,-56,17,-2
1400,32,-1984,-712,-53,16,-2
1405,32,-1992,-720,-51,17,-2
1410,48,-1984,-728,-51,18,-2
1415,64,-1992,-680,-49,16,-4
1420,32,-1976,-712,-48,17,-3
1425,64,-1992,-728,-47,14,-2
1430,24,-1976,-720,-48,13,-3
1435,40,-1984,-696,-49,13,-2
1440,8,-1984,-704,-50,12,-2
1445,16,-1992,-712,-53,10,-4
1450,32,-1976,-712,-55,13,-4
1455,16,-1976,-688,-58,13,-6
1460,24,-1984,-712,-60,16,-8
1465,-24,-1976,-744,-61,18,-8
1470,32,-1992,-720,-63,20,-9
1475,32,-1968,-720,-63,21,-8
1480,40,-1976,-696,-63,22,-7
1485,16,-1976,-656,-62,23,-7
1490,32,-1976,-704,-62,23,-8
1495,24,-1976,-712,-61,24,-5
1500,40,-1992,-712,-59,23,-6
1505,32,-1984,-744,-59,23,-3
1510,40,-2016,-712,-57,21,-3
1515,40,-2000,-696,-53,20,-4
1520,24,-1984,-712,-50,19,-3
1525,24,-1992,-744,-48,16,-4
1530,40,-1992,-696,-46,14,-6
1535,40,-1984,-712,-43,12,-6
1540,40,-1992,-680,-39,11,-7
1545,40,-1976,-728,-36,10,-9
1550,8,-2000,-712,-33,9,-9
1555,24,-1968,-696,-33,9,-10
1560,16,-1976,-728,-31,10,-10
1565,24,-1992,-664,-33,12,-11
1570,32,-1976,-712,-31,14,-9
1575,16,-1984,-720,-34,17,-8
1580,8,-1976,-712,-33,18,-7
1585,8,-1968,-720,-33,20,-5
1590,32,-1984,-720,-34,20,-2
1595,8,-1984,-688,-34,21,-4
1600,40,-1976,-728,-35,20,-1
1605,40,-1984,-720,-36,20,-1
1610,32,-1976,-736,-39,19,0
1615,24,-1992,-720,-39,19,-1
1620,24,-1992,-712,-39,17,-1
1625,32,-1984,-728,-39,17,-2
1630,48,-1968,-696,-37,14,-2
1635,16,-1992,-704,-38,12,-2
1640,24,-2000,-728,-37,11,-4
1645,24,-1976,-712,-36,9,-5
1650,32,-1984,-736,-36,9,-6
1655,16,-1984,-752,-34,7,-6
1660,32,-1976,-696,-31,6,-8
1665,40,-1984,-728,-29,6,-8
1670,24,-1976,-720,-26,5,-8
1675,24,-1992,-728,-25,4,-10
1680,24,-1992,-704,-24,3,-11
1685,8,-1968,-720,-24,3,-11
1690,32,-1992,-744,-26,2,-12
1695,16,-1976,-736,-26,3,-15
1700,16,-1960,-712,-32,4,-16
1705,48,-1984,-720,-36,7,-16
1710,16,-1960,-712,-42,8,-18
1715,32,-1984,-704,-47,12,-19
1720,24,-1976,-720,-50,13,-19
1725,40,-1976,-712,-51,15,-20
1730,24,-1984,-736,-54,16,-20
1735,8,-1984,-704,-53,17,-19
1740,40,-1984,-720,-52,19,-19
1745,32,-1984,-728,-49,20,-19
1750,48,-2000,-728,-46,21,-19
1755,40,-1984,-728,-44,21,-18
1760,40,-1984,-712,-41,19,-18
1765,32,-2000,-728,-39,21,-17
1770,48,-1992,-720,-38,19,-16
1775,56,-2000,-728,-36,19,-15
1780,40,-2000,-728,-32,18,-14
1785,40,-1992,-712,-33,19,-14
1790,56,-1984,-688,-30,18,-12
1795,32,-1976,-720,-30,17,-12
1800,48,-1984,-688,-29,17,-12
1805,56,-1976,-688,-28,17,-12
1810,40,-1976,-672,-28,16,-12
1815,8,-1984,-712,-27,16,-13
1820,16,-1992,-688,-27,17,-13
1825,24,-1976,-696,-27,17,-12
1830,56,-1984,-688,-30,17,-11
1835,24,-1984,-712,-31,17,-11
1840,40,-1984,-704,-31,19,-8
1845,56,-2000,-720,-35,20,-8
1850,24,-1968,-664,-38,21,-9
1855,48,-1984,-704,-42,22,-11
1860,64,-1984,-704,-46,22,-12
1865,56,-1976,-680,-49,23,-13
1870,56,-1968,-688,-52,23,-13
1875,48,-1968,-704,-50,20,-14
1880,56,-1984,-712,-51,20,-12
1885,32,-1984,-720,-49,21,-11
1890,56,-2000,-696,-43,21,-12
1895,40,-2008,-736,-38,19,-12
1900,32,-2000,-712,-30,19,-12
1905,40,-1976,-728,-21,19,-12
1910,40,-2000,-704,-14,18,-11
1915,40,-1992,-696,-9,16,-11
1920,56,-1992,-728,-7,12,-9
1925,24,-2000,-720,-5,11,-7
1930,48,-2000,-720,-2,9,-5
1935,64,-2008,-696,-1,6,-1
1940,64,-1992,-688,1,6,-2
1945,48,-1984,-736,3,3,-3
1950,32,-1968,-696,3,2,-3
1955,32,-1960,-720,2,2,-4
1960,40,-1976,-744,-5,5,-8
1965,40,-1968,-752,-11,7,-11
1970,24,-1960,-736,-16,9,-14
1975,16,-1968,-712,-20,12,-15
1980,24,-1992,-696,-27,16,-16
1985,8,-1992,-696,-32,20,-19
1990,16,-1984,-672,-35,25,-21
1995,32,-2000,-696,-36,28,-21
2000,72,-2008,-696,-34,27,-20
2005,24,-1976,-704,-29,28,-20
2010,16,-1992,-688,-25,29,-18
2015,48,-1992,-672,-22,27,-14
2020,32,-1992,-656,-22,27,-15
2025,48,-1984,-688,-19,24,-15
2030,40,-2016,-688,-15,23,-13
2035,-8,-1952,-760,-11,20,-12
2040,48,-2000,-744,-7,18,-12
2045,48,-1984,-680,-6,16,-11
2050,32,-1984,-696,-4,14,-11
2055,32,-1976,-672,-1,12,-11
2060,72,-1984,-656,-2,11,-11
2065,32,-1976,-680,-4,10,-12
2070,48,-1960,-648,-6,9,-12
2075,24,-1976,-704,-10,6,-12
2080,40,-1992,-696,-14,7,-13
2085,112,-1896,-888,-19,9,-12
2090,40,-1984,-664,-22,10,-12
2095,48,-2024,-744,-26,11,-11
2100,40,-2000,-640,-30,12,-12
2105,32,-2000,-704,-35,13,-12
2110,16,-1992,-720,-37,14,-12
2115,40,-1984,-696,-39,15,-12
2120,48,-1984,-720,-41,15,-12
2125,56,-2000,-712,-41,13,-13
2130,48,-1984,-712,-43,14,-13
2135,40,-1984,-688,-44,15,-12
2140,8,-2032,-752,-45,14,-11
2145,32,-1976,-680,-44,14,-11
2150,24,-2000,-680,-43,12,-13
2155,40,-1984,-712,-40,10,-13
2160,40,-1976,-688,-36,8,-13
2165,48,-1992,-680,-33,8,-13
2170,32,-2000,-688,-34,9,-14
2175,40,-2000,-688,-35,10,-15
2180,56,-1976,-680,-38,10,-15
2185,56,-1984,-696,-39,10,-15
2190,64,-1992,-688,-41,11,-15
2195,56,-1984,-664,-44,13,-13
2200,24,-1984,-656,-49,15,-11
2205,48,-1992,-696,-54,17,-12
2210,48,-1992,-680,-55,16,-12
2215,56,-1992,-672,-59,18,-14
2220,64,-1984,-688,-63,21,-14
2225,40,-1984,-696,-64,22,-14
2230,16,-2000,-688,-63,23,-14
2235,56,-1984,-680,-65,23,-15
2240,16,-1992,-704,-63,24,-15
2245,32,-1976,-704,-63,23,-15
2250,32,-2008,-704,-61,22,-15
2255,32,-2000,-704,-59,22,-13
2260,32,-1984,-688,-56,22,-13
2265,48,-1984,-664,-53,21,-13
2270,48,-2008,-696,-51,20,-13
2275,48,-2000,-704,-48,19,-11
2280,48,-2000,-672,-45,19,-11
2285,64,-2000,-688,-45,18,-11
2290,64,-2008,-664,-45,19,-11
2295,64,-1984,-688,-45,19,-11
2300,48,-1984,-648,-47,20,-12
2305,56,-1968,-672,-46,18,-15
2310,56,-2000,-712,-46,18,-16
2315,48,-1984,-664,-45,16,-16
2320,40,-1992,-680,-45,17,-17
2325,48,-2000,-648,-45,18,-20
2330,48,-1992,-672,-45,18,-21
2335,40,-1984,-704,-46,18,-21
2340,48,-1992,-704,-47,18,-23
2345,64,-1984,-688,-49,17,-24
2350,64,-1992,-696,-53,18,-22
2355,48,-1984,-656,-54,17,-21
2360,56,-1984,-696,-55,18,-22
2365,56,-2000,-688,-57,19,-21
2370,40,-2000,-696,-58,20,-20
2375,48,-1992,-704,-58,20,-20
2380,48,-2000,-704,-59,21,-19
2385,32,-1984,-696,-60,22,-19
2390,56,-1992,-704,-59,21,-18
2395,40,-2016,-720,-60,21,-18
2400,48,-1984,-672,-59,23,-18
2405,32,-1984,-696,-57,22,-18
2410,24,-1968,-688,-58,21,-18
2415,40,-1968,-688,-60,21,-16
2420,56,-2000,-704,-59,20,-15
2425,32,-1976,-704,-58,20,-15
2430,48,-1984,-688,-58,19,-15
2435,80,-1992,-648,-59,19,-12
2440,56,-1976,-656,-57,18,-12
2445,32,-1960,-728,-57,19,-12
2450,64,-1984,-712,-56,19,-11
2455,56,-1976,-680,-57,19,-11
2460,48,-1968,-680,-58,19,-10
2465,32,-1976,-656,-60,19,-10
2470,56,-1976,-704,-64,17,-10
2475,56,-1952,-688,-66,17,-9
2480,72,-1984,-704,-70,18,-10
2485,64,-1984,-704,-73,16,-10
2490,40,-1984,-696,-74,17,-10
2495,56,-1992,-696,-76,17,-9
2500,48,-1992,-672,-75,17,-10
2505,64,-1984,-704,-73,17,-9
2510,64,-1992,-688,-70,18,-8
2515,64,-1992,-728,-68,18,-8
2520,48,-1984,-680,-65,16,-7
2525,64,-1992,-704,-65,14,-6
2530,56,-1960,-728,-64,14,-5
2535,80,-2008,-720,-63,13,-4
2540,64,-2000,-736,-61,12,-4
2545,40,-2000,-704,-57,12,-3
2550,48,-1992,-688,-55,12,-4
2555,64,-2000,-728,-51,13,-5
2560,48,-1992,-688,-50,14,-6
2565,48,-1984,-704,-46,16,-7
2570,56,-1984,-712,-43,16,-9
2575,56,-1984,-720,-42,16,-9
2580,56,-1984,-696,-43,16,-11
2585,56,-1984,-712,-45,15,-11
2590,56,-1976,-688,-46,13,-10
2595,72,-1992,-696,-47,11,-9
2600,56,-1976,-720,-49,9,-10
2605,32,-1984,-696,-48,6,-11
2610,80,-1976,-696,-49,6,-13
2615,64,-1984,-720,-53,4,-14
2620,64,-1976,-680,-56,3,-17
2625,48,-1936,-728,-57,4,-21
2630,64,-1976,-728,-59,5,-22
2635,56,-1976,-704,-62,7,-23
2640,72,-1984,-688,-61,9,-24
2645,64,-1992,-672,-60,12,-22
2650,56,-1992,-680,-55,15,-21
2655,56,-2016,-712,-47,20,-19
2660,56,-2000,-704,-38,23,-18
2665,40,-2000,-720,-29,25,-18
2670,56,-2000,-696,-19,25,-18
2675,56,-2024,-704,-13,25,-18
2680,64,-2016,-712,-9,23,-15
2685,88,-2008,-744,-6,22,-13
2690,72,-2016,-712,-8,17,-11
2695,56,-1984,-736,-11,14,-8
2700,64,-2000,-688,-14,10,-6
2705,64,-1984,-704,-17,5,-6
2710,64,-1976,-704,-20,5,-7
2715,40,-1984,-696,-25,4,-8
2720,48,-1976,-688,-30,4,-8
2725,32,-1936,-712,-35,7,-9
2730,64,-1976,-712,-40,10,-8
2735,48,-1984,-704,-46,15,-9
2740,24,-1984,-688,-50,20,-8
2745,48,-2000,-712,-54,22,-7
2750,56,-1984,-728,-53,23,-6
2755,56,-2000,-704,-50,23,-3
2760,48,-2000,-704,-47,23,-1
2765,72,-2008,-704,-42,21,0
2770,72,-2024,-696,-38,18,1
2775,80,-2008,-704,-35,16,2
2780,72,-1992,-704,-31,14,4
2785,80,-1992,-688,-27,13,4
2790,80,-1984,-672,-26,12,6
2795,64,-1992,-712,-24,11,6
2800,64,-1976,-688,-22,12,6
2805,56,-1968,-680,-21,11,4
2810,64,-1976,-672,-22,10,3
2815,64,-1984,-680,-22,12,2
2820,56,-1960,-696,-22,10,3
2825,64,-1984,-672,-25,12,2
2830,48,-1968,-704,-29,12,3
2835,72,-1984,-704,-30,13,4
2840,56,-1984,-696,-32,15,4
2845,56,-1984,-696,-32,16,3
2850,64,-1992,-672,-34,16,3
2855,80,-2000,-688,-35,18,3
2860,56,-1984,-712,-39,19,3
2865,48,-2008,-704,-42,20,2
2870,88,-1992,-712,-45,20,2
2875,48,-1968,-680,-45,20,1
2880,56,-1976,-736,-49,19,1
2885,64,-2000,-704,-53,20,0
2890,56,-1992,-720,-56,17,-1
2895,80,-1976,-680,-58,18,1
2900,56,-1984,-688,-61,16,1
2905,56,-1992,-712,-60,14,0
2910,48,-1992,-712,-59,13,0
2915,56,-1976,-712,-57,11,1
2920,64,-1976,-704,-53,12,-1
2925,48,-1984,-752,-49,14,-1
2930,56,-1976,-672,-48,15,-2
2935,72,-1992,-672,-47,16,-1
2940,56,-1992,-680,-43,18,1
2945,56,-1976,-696,-44,16,1
2950,96,-2000,-720,-46,16,1
2955,64,-1984,-664,-46,16,2
2960,64,-1984,-688,-47,17,0
2965,64,-1976,-680,-46,16,1
2970,56,-1992,-720,-51,15,2
2975,40,-1976,-704,-52,16,1
2980,40,-1984,-688,-52,19,1
2985,56,-1992,-704,-56,20,0
2990,40,-1984,-688,-55,21,1
2995,56,-1984,-696,-55,23,2
3000,64,-2000,-680,-56,24,2
3005,40,-1984,-704,-55,23,2
3010,72,-2000,-704,-56,23,2
3015,64,-2000,-704,-54,22,3
3020,64,-1992,-664,-51,21,5
3025,64,-2000,-704,-49,18,5
3030,40,-1984,-704,-46,16,5
3035,40,-1992,-680,-41,14,7
3040,64,-1992,-688,-38,12,7
3045,56,-2000,-688,-34,10,6
3050,48,-1992,-680,-31,10,5
3055,48,-2000,-736,-27,10,7
3060,72,-2000,-680,-24,12,6
3065,56,-2008,-688,-24,13,6
3070,48,-2048,-616,-21,13,5
3075,48,-1992,-696,-19,14,7
3080,48,-1992,-680,-21,12,6
3085,56,-2008,-680,-20,13,8
3090,40,-1984,-688,-22,12,9
3095,56,-1992,-688,-24,12,10
3100,40,-1984,-672,-25,12,11
3105,48,-1984,-696,-26,12,13
3110,32,-1984,-688,-27,12,13
3115,48,-1968,-720,-30,12,12
3120,32,-2032,-640,-34,10,13
3125,32,-1968,-688,-36,10,14
3130,48,-1984,-720,-39,11,13
3135,48,-1968,-720,-40,14,12
3140,56,-1984,-704,-42,14,12
3145,48,-1984,-728,-42,15,11
3150,72,-1992,-680,-42,15,10
3155,32,-1984,-688,-42,16,10
3160,32,-1992,-680,-43,15,10
3165,48,-1984,-704,-41,14,9
3170,48,-1984,-664,-38,13,12
3175,32,-2024,-656,-36,11,11
3180,16,-1984,-696,-33,9,10
3185,48,-2000,-664,-30,9,10
3190,40,-1984,-720,-26,5,11
3195,40,-1976,-696,-24,5,11
3200,56,-1984,-680,-20,5,12
3205,48,-1992,-672,-17,7,14
3210,48,-1976,-712,-14,8,15
3215,80,-2000,-688,-12,9,16
3220,56,-1992,-680,-9,11,17
3225,56,-2000,-688,-10,12,18
3230,56,-1976,-688,-10,12,19
3235,56,-1992,-656,-11,14,20
3240,56,-1968,-680,-12,15,19
3245,56,-1992,-736,-15,15,18
3250,64,-2008,-688,-17,16,17
3255,48,-1992,-704,-20,15,15
3260,56,-2000,-696,-22,15,16
3265,72,-2000,-736,-24,14,15
3270,48,-1984,-680,-25,13,15
3275,64,-1992,-704,-25,13,13
3280,48,-1976,-712,-25,12,12
3285,64,-1968,-688,-23,10,10
3290,64,-1992,-704,-24,11,11
3295,40,-1984,-696,-24,11,10
3300,40,-1968,-688,-25,11,9
3305,32,-2000,-704,-26,12,9
3310,56,-1992,-688,-25,13,11
3315,48,-1968,-704,-26,14,12
3320,64,-1976,-672,-24,15,11
3325,72,-1968,-664,-21,14,11
3330,48,-1968,-688,-16,16,13
3335,48,-1976,-696,-11,16,12
3340,56,-1984,-720,-9,16,11
3345,56,-1992,-688,-8,14,13
3350,48,-1984,-752,-10,13,10
3355,56,-2000,-696,-10,12,10
3360,40,-1984,-680,-5,12,10
3365,48,-1992,-704,-2,10,10
3370,48,-2000,-688,6,11,11
3375,48,-2000,-720,14,13,12
3380,32,-2000,-712,21,12,11
3385,40,-2016,-696,28,11,12
3390,24,-2024,-704,31,9,13
3395,40,-2000,-704,30,8,14
3400,32,-2000,-680,29,7,14
3405,64,-1984,-688,26,6,16
3410,32,-1992,-640,24,4,17
3415,32,-1992,-680,20,4,16
3420,48,-2000,-688,18,3,16
3425,40,-1984,-680,17,4,12
3430,48,-1984,-656,16,5,10
3435,32,-2000,-680,15,5,9
3440,32,-1960,-688,14,6,10
3445,24,-1976,-656,14,6,9
3450,24,-1976,-672,14,7,9
3455,32,-1984,-696,14,8,9
3460,24,-1984,-696,14,11,10
3465,32,-2000,-664,13,13,10
3470,8,-2000,-680,13,16,11
3475,48,-1992,-672,14,16,12
3480,48,-2000,-680,15,17,14
3485,40,-2008,-648,20,17,15
3490,40,-2000,-672,25,17,16
3495,40,-2016,-648,30,18,16
3500,24,-1984,-648,33,16,16
3505,48,-2024,-608,39,15,15
3510,32,-2000,-656,45,13,15
3515,24,-1992,-664,49,11,13
3520,56,-2000,-664,55,12,14
3525,40,-1992,-648,61,10,14
3530,32,-1984,-672,64,9,15
3535,16,-2000,-624,63,7,14
3540,16,-1992,-624,63,6,14
3545,40,-2000,-648,61,6,15
3550,16,-1992,-600,61,6,15
3555,0,-1992,-640,62,5,16
3560,32,-2000,-624,60,6,18
3565,24,-2016,-608,59,6,19
3570,24,-1984,-624,55,7,20
3575,16,-2024,-648,52,8,20
3580,56,-2032,-632,50,8,20
3585,24,-2008,-672,49,8,18
3590,48,-2024,-648,52,9,17
3595,16,-2040,-672,52,10,17
3600,48,-2008,-664,53,11,18
3605,24,-2024,-624,54,10,20
3610,24,-1992,-632,57,11,21
3615,32,-2032,-624,62,11,23
3620,32,-2016,-640,68,11,24
3625,24,-2016,-664,75,12,25
3630,48,-2024,-624,82,13,24
3635,32,-2024,-664,90,15,26
3640,32,-2016,-648,96,16,28
3645,16,-1992,-648,102,17,26
3650,32,-2000,-608,110,18,27
3655,40,-2008,-632,113,18,27
3660,40,-2000,-640,118,17,27
3665,48,-2008,-648,119,17,28
3670,48,-2000,-600,119,15,29
3675,48,-1992,-624,120,14,30
3680,24,-1984,-600,120,13,29
3685,32,-1984,-608,120,10,31
3690,40,-2000,-624,119,10,30
3695,32,-1992,-608,121,10,28
3700,24,-1984,-608,121,12,28
3705,24,-1992,-648,120,13,26
3710,8,-1992,-616,116,14,26
3715,24,-2016,-624,112,16,23
3720,48,-2016,-608,109,17,22
3725,16,-2000,-624,109,16,21
3730,16,-2000,-560,109,17,22
3735,40,-2000,-600,113,15,21
3740,32,-1992,-584,119,16,21
3745,48,-2024,-592,124,16,20
3750,56,-2008,-616,128,17,22
3755,40,-2016,-616,133,16,21
3760,40,-2008,-584,134,16,22
3765,8,-2032,-552,138,17,20
3770,8,-2008,-576,141,17,18
3775,16,-2000,-600,143,17,16
3780,16,-2024,-584,146,16,14
3785,8,-1984,-568,151,16,14
3790,16,-2008,-584,156,17,12
3795,0,-1992,-576,160,18,13
3800,0,-2008,-560,162,20,13
3805,-32,-2008,-584,160,20,13
3810,32,-2040,-552,160,18,15
3815,24,-2016,-568,163,18,14
3820,8,-2048,-552,167,19,14
3825,24,-2040,-552,173,22,17
3830,32,-2032,-536,181,24,18
3835,56,-2032,-536,184,23,20
3840,24,-2048,-552,188,22,22
3845,16,-2040,-512,191,20,23
3850,0,-2032,-560,195,20,23
3855,8,-2024,-544,201,19,21
3860,-8,-2008,-520,207,20,23
3865,0,-2008,-544,214,19,24
3870,-8,-2024,-520,219,18,24
3875,24,-2008,-512,225,16,21
3880,8,-2000,-512,231,16,23
3885,-8,-2008,-504,236,16,23
3890,-8,-2000,-488,241,16,23
3895,16,-2008,-504,247,15,23
3900,8,-2000,-480,251,15,25
3905,8,-2032,-512,252,16,26
3910,8,-2032,-472,256,14,28
3915,16,-2024,-480,259,17,30
3920,48,-2048,-472,261,16,31
3925,8,-2040,-488,264,18,31
3930,24,-2048,-472,265,20,31
3935,32,-2056,-488,268,22,33
3940,8,-2032,-472,267,25,33
3945,8,-2048,-496,267,24,34
3950,32,-2048,-480,266,22,34
3955,32,-2040,-456,265,19,35
3960,16,-2040,-456,268,17,33
3965,-16,-2016,-496,272,14,34
3970,40,-2048,-488,279,11,33
3975,16,-2024,-464,286,9,31
3980,-8,-2016,-448,296,6,27
3985,0,-2056,-432,303,5,27
3990,24,-2016,-464,309,4,25
3995,-8,-2032,-448,316,5,23
4000,-8,-2040,-424,320,4,23
4005,-8,-2040,-432,324,6,22
4010,8,-2048,-440,329,9,21
4015,0,-2056,-424,332,9,23
4020,-8,-2072,-384,337,9,25
4025,0,-2048,-424,346,9,21
4030,-32,-2040,-432,356,10,19
4035,-24,-2040,-416,367,9,15
4040,-32,-2040,-432,374,8,11
4045,16,-2040,-384,381,4,8
4050,-48,-2104,-328,386,1,5
4055,-16,-2024,-392,390,-2,3
4060,0,-2040,-408,396,-1,2
4065,-16,-2048,-416,401,-1,1
4070,-16,-2064,-416,406,-1,-2
4075,-16,-2064,-376,412,2,-5
4080,-16,-2072,-400,414,2,-8
4085,-24,-2096,-416,417,1,-11
4090,-24,-2096,-400,421,4,-13
4095,-16,-2096,-416,419,6,-15
4100,-16,-2088,-528,419,11,-15
4105,-16,-2048,-424,416,13,-14
4110,-16,-2040,-400,415,15,-12
4115,8,-2024,-440,415,16,-8
4120,8,-2016,-392,415,17,-9
4125,-8,-1992,-400,420,15,-12
4130,8,-2000,-392,428,14,-12
4135,0,-1984,-376,439,12,-15
4140,24,-1968,-392,448,12,-14
4145,8,-1984,-336,457,12,-16
4150,-32,-1984,-376,465,10,-15
4155,-24,-1944,-400,468,9,-17
4160,-24,-2040,-376,471,9,-20
4165,-32,-2032,-360,476,12,-23
4170,-48,-2048,-344,480,18,-23
4175,-32,-2056,-336,482,21,-21
4180,-56,-2048,-312,477,23,-15
4185,-32,-2056,-328,470,24,-12
4190,-8,-2080,-272,458,23,-7
4195,-24,-2032,-296,446,25,-6
4200,8,-2048,-240,438,24,1
4205,8,-2064,-248,438,25,3
4210,32,-2080,-232,444,26,8
4215,40,-2072,-200,458,27,14
4220,24,-2112,-184,483,29,14
4225,8,-2096,-168,515,35,11
4230,8,-2080,-208,546,41,11
4235,-8,-2040,-200,574,47,12
4240,-24,-2032,-216,595,50,17
4245,24,-2024,-280,614,46,24
4250,16,-2000,-296,628,38,21
4255,24,-1944,-296,635,35,15
4260,8,-1928,-320,628,38,9
4265,-8,-1904,-296,613,36,7
4270,-16,-1912,-304,585,35,3
4275,16,-1920,-272,548,32,-2
4280,16,-1928,-208,519,36,-7
4285,16,-1976,-168,503,39,-11
4290,48,-2032,-120,498,40,-14
4295,32,-2088,-72,506,47,-18
4300,72,-2104,-80,525,52,-21
4305,80,-2128,-40,553,57,-25
4310,112,-2184,-32,586,61,-24
4315,104,-2216,-32,623,67,-23
4320,112,-2224,-80,668,72,-14
4325,88,-2192,-152,717,75,-6
4330,72,-2152,-224,751,74,3
4335,72,-2080,-280,760,67,7
4340,104,-2008,-272,746,53,8
4345,72,-1984,-248,720,44,8
4350,48,-1984,-240,704,34,6
4355,0,-1984,-232,697,29,4
4360,-40,-1928,-296,701,27,6
4365,-48,-1896,-104,702,29,7
4370,-24,-1928,-120,704,29,4
4375,-40,-1904,-24,706,32,6
4380,-24,-1952,24,715,37,6
4385,8,-1952,72,732,47,0
4390,8,-1912,80,750,56,-8
4395,-8,-1912,104,766,67,-10
4400,-16,-1888,72,769,78,-9
4405,-32,-1880,64,755,83,-15
4410,8,-1872,24,727,87,-17
4415,16,-1880,24,689,92,-18
4420,48,-1904,0,656,97,-23
4425,32,-1896,8,626,100,-30
4430,48,-1912,8,604,102,-33
4435,120,-1952,-16,585,102,-28
4440,136,-1952,16,573,102,-22
4445,160,-1992,64,565,95,-17
4450,168,-1976,88,562,85,-14
4455,192,-2000,88,570,73,-7
4460,216,-2032,128,593,65,1
4465,128,-2048,120,619,62,14
4470,160,-2104,136,648,69,31
4475,120,-2104,152,680,82,45
4480,64,-2080,160,714,97,55
4485,56,-2072,128,741,115,69
4490,40,-2040,208,762,129,80
4495,-8,-2000,224,775,139,81
4500,-24,-1936,216,787,144,82
4505,-16,-1936,224,796,141,84
4510,-64,-1904,192,802,135,86
4515,-64,-1864,224,795,117,88
4520,-64,-1848,208,779,97,85
4525,-56,-1864,248,766,79,78
4530,-16,-1888,240,766,68,71
4535,16,-1872,264,772,63,63
4540,-8,-1912,288,785,64,50
4545,0,-1936,264,805,63,46
4550,56,-1920,232,825,62,47
4555,48,-1920,232,844,60,48
4560,96,-1928,208,860,62,50
4565,88,-1904,152,878,69,52
4570,88,-1904,224,902,80,60
4575,96,-1904,208,933,92,71
4580,88,-1872,248,953,101,81
4585,88,-1816,296,962,103,82
4590,80,-1776,360,960,100,82
4595,56,-1736,464,964,102,88
4600,40,-1696,464,969,103,94
4605,32,-1712,496,967,102,95
4610,24,-1672,512,955,100,95
4615,24,-1704,568,940,102,101
4620,0,-1720,616,940,107,108
4625,-40,-1712,632,953,111,115
4630,-88,-1712,600,966,120,129
4635,-136,-1712,592,973,119,136
4640,-192,-1728,632,977,111,139
4645,-192,-1752,624,990,96,154
4650,-232,-1784,656,1011,78,165
4655,-224,-1800,672,1034,67,169
4660,-192,-1784,688,1050,65,178
4665,-136,-1808,704,1053,57,191
4670,-128,-1760,792,1061,43,201
4675,-96,-1720,832,1083,26,214
4680,-48,-1720,832,1119,14,221
4685,-32,-1704,840,1155,9,227
4690,8,-1656,880,1192,8,242
4695,-24,-1632,864,1228,8,259
4700,-32,-1616,848,1252,-4,268
4705,-32,-1616,840,1266,-9,261
4710,-96,-1592,912,1269,-12,246
4715,-48,-1568,920,1270,-18,239
4720,-72,-1600,920,1266,-28,230
4725,-80,-1584,872,1269,-44,214
4730,-88,-1576,816,1270,-51,202
4735,-104,-1592,704,1272,-50,202
4740,-64,-1640,696,1275,-50,205
4745,-56,-1672,648,1278,-55,204
4750,-32,-1736,680,1273,-55,199
4755,-56,-1728,624,1260,-45,195
4760,-72,-1672,632,1250,-34,193
4765,-56,-1656,552,1236,-26,188
4770,-24,-1640,544,1218,-14,182
4775,-24,-1616,576,1202,-1,181
4780,-8,-1600,592,1195,12,178
4785,-8,-1584,640,1201,20,172
4790,-8,-1528,600,1216,24,168
4795,-16,-1480,624,1229,27,168
4800,-32,-1464,704,1225,32,168
4805,-16,-1480,776,1214,43,166
4810,-40,-1496,808,1205,62,165
4815,-56,-1520,880,1196,89,165
4820,-32,-1584,824,1191,114,169
4825,-32,-1512,808,1176,137,176
4830,-16,-1496,792,1150,161,183
4835,40,-1496,752,1122,195,192
4840,56,-1480,784,1102,241,200
4845,96,-1496,704,1088,292,201
4850,104,-1416,688,1081,340,205
4855,136,-1384,664,1070,376,210
4860,112,-1328,656,1053,398,220
4865,80,-1312,736,1042,414,235
4870,16,-1344,736,1047,427,251
4875,-32,-1360,784,1066,431,268
4880,-104,-1360,784,1096,432,284
4885,-192,-1368,752,1122,423,297
4890,-248,-1360,712,1133,407,311
4895,-288,-1368,720,1136,391,328
4900,-336,-1416,848,1137,376,345
4905,-360,-1432,888,1145,356,362
4910,-328,-1392,920,1156,332,380
4915,-352,-1368,1024,1160,304,390
4920,-336,-1288,1048,1151,276,395
4925,-296,-1304,1152,1134,266,403
4930,-304,-1248,1144,1114,288,405
4935,-264,-1216,1136,1099,329,404
4940,-248,-1176,1104,1093,376,397
4945,-200,-1096,1128,1092,416,389
4950,-160,-1040,1096,1089,452,392
4955,-136,-1072,1080,1092,483,398
4960,-168,-1040,1064,1112,519,407
4965,-248,-1008,968,1150,550,420
4970,-224,-960,904,1181,563,437
4975,-224,-928,856,1192,556,447
4980,-248,-920,896,1199,545,454
4985,-224,-896,872,1209,544,463
4990,-240,-872,888,1222,545,479
4995,-248,-816,800,1234,540,498
5000,-296,-784,768,1237,530,509
5005,-280,-704,800,1235,527,515
5010,-304,-696,856,1223,540,532
5015,-288,-720,848,1211,557,551
5020,-272,-688,832,1212,577,566
5025,-192,-696,840,1217,587,579
5030,-160,-648,848,1222,591,589
5035,-136,-632,920,1221,588,608
5040,-88,-632,968,1212,585,634
5045,-88,-608,960,1206,589,662
5050,-112,-576,912,1205,596,678
5055,-176,-496,800,1199,618,689
5060,-240,-424,696,1167,653,703
5065,-248,-344,624,1125,692,716
5070,-264,-264,616,1079,728,723
5075,-312,-208,592,1032,762,737
5080,-320,-152,576,984,786,759
5085,-304,-80,608,936,792,782
5090,-320,-88,664,901,776,784
5095,-408,-80,768,890,747,762
5100,-456,-104,840,912,729,741
5105,-464,-88,728,958,727,713
5110,-400,-24,640,981,733,685
5115,-328,-16,544,979,734,661
5120,-264,80,400,959,727,654
5125,-232,128,272,926,716,637
5130,-224,216,256,873,712,620
5135,-320,256,376,818,701,601
5140,-224,328,424,777,680,590
5145,-240,312,448,766,658,580
5150,-272,288,488,783,645,566
5155,-280,336,464,799,628,557
5160,-248,344,416,801,606,558
5165,-224,416,272,776,600,542
5170,-216,432,120,742,620,516
5175,-144,448,72,695,653,489
5180,-120,480,80,638,690,462
5185,-168,448,232,565,721,432
5190,-224,424,424,498,735,420
5195,-344,424,288,471,742,431
5200,-424,400,304,488,740,470
5205,-440,288,240,522,731,531
5210,-440,80,168,581,714,583
5215,-368,-72,72,671,698,599
5220,-360,-192,-56,746,702,612
5225,-456,-152,-96,754,694,623
5230,-448,-160,-24,688,667,648
5235,-400,-128,152,579,612,679
5240,-280,-64,304,462,503,705
5245,-288,8,392,347,353,710
5250,-264,-8,552,242,192,681
5255,-384,80,576,159,47,626
5260,-520,96,592,100,-50,557
5265,-640,96,640,56,-87,482
5270,-768,144,720,20,-99,400
5275,-896,144,672,-30,-110,309
5280,-1080,112,792,-88,-120,209
5285,-1104,-8,816,-126,-158,94
5290,-744,-144,768,-131,-190,-64
5295,-1016,-368,1040,-113,-184,-257
5300,-1528,-552,1192,-11,-263,-411
5305,-584,-632,624,174,-437,-484
5310,56,-776,688,232,-438,-641
5315,8,-936,1168,228,-335,-742
5320,-736,-1104,1800,282,-280,-669
5325,-1392,-1240,2496,533,-362,-500
5330,-1512,-1304,2976,911,-548,-449
5335,-1448,-1368,3416,1330,-665,-499
5340,-1464,-1472,4136,1561,-676,-614
5345,-1472,-1632,5472,1735,-588,-734
5350,-2632,-1920,7352,1872,-564,-792
5355,-4088,-2216,8944,2001,-657,-794
5360,-4944,-2480,10520,2051,-698,-653
5365,-5640,-2440,11544,1999,-761,-445
5370,-6424,-2176,11904,1869,-966,-240
5375,-7240,-1472,11048,1637,-1330,-102
5380,-7512,-344,9704,1166,-1766,-100
5385,-7472,1160,7576,576,-2032,-183
5390,-6296,2472,5352,-163,-1793,-232
5395,-4808,3280,4400,-906,-993,-163
5400,-2536,3144,4272,-1295,-87,-88
5405,-800,2464,4944,-1057,580,-173
5410,224,1280,4864,-236,835,-347
5415,680,424,4720,697,910,-633
5420,1208,-696,4408,1470,852,-835
5425,1848,-2000,3752,2067,693,-952
5430,1200,-3008,2848,2554,566,-938
5435,624,-3496,2000,2971,360,-750
5440,312,-3600,1184,3184,161,-464
5445,-24,-3304,680,3015,11,-185
5450,-48,-2784,528,2517,-187,40
5455,-112,-2200,552,1807,-407,155
5460,144,-1576,624,1037,-624,201
5465,368,-1032,824,342,-742,177
5470,696,-480,976,-122,-747,63
5475,816,64,1072,-284,-619,-104
5480,624,640,1160,-168,-417,-240
5485,472,1176,1176,111,-226,-341
5490,344,1552,1208,426,-47,-429
5495,96,1624,1128,743,139,-512
5500,-72,1456,1072,1049,321,-552
5505,-136,1144,1056,1294,479,-573
5510,-208,784,984,1436,610,-590
5515,-248,440,944,1466,686,-605
5520,-256,192,896,1408,701,-611
5525,-296,64,944,1286,668,-595
5530,-240,48,912,1124,606,-583
5535,-304,96,936,951,533,-567
5540,-296,176,896,760,467,-547
5545,-376,352,952,571,404,-545
5550,-400,512,1024,421,340,-546
5555,-400,680,1048,312,266,-540
5560,-392,840,1112,223,193,-535
5565,-264,928,1136,131,126,-532
5570,-264,984,1184,33,60,-554
5575,-200,992,1192,-67,-9,-590
5580,-96,984,1160,-162,-69,-638
5585,-32,952,1120,-242,-115,-692
5590,64,920,1072,-298,-156,-739
5595,200,832,1112,-338,-182,-772
5600,296,728,1096,-369,-192,-798
5605,352,648,1080,-388,-181,-822
5610,376,576,1088,-393,-139,-833
5615,400,512,1104,-399,-71,-834
5620,368,496,1152,-416,20,-836
5625,352,504,1200,-440,134,-832
5630,256,536,1232,-458,271,-812
5635,184,584,1272,-453,398,-793
5640,64,720,1280,-443,499,-776
5645,40,760,1264,-465,558,-774
5650,-104,824,1304,-516,596,-788
5655,-208,856,1384,-584,619,-812
5660,-344,856,1448,-659,616,-851
5665,-376,848,1480,-732,605,-897
5670,-608,816,1488,-808,590,-941
5675,-680,776,1488,-882,575,-1005
5680,-800,616,1520,-951,570,-1058
5685,-800,616,1528,-1004,591,-1119
5690,-976,536,1528,-1039,626,-1122
5695,-1080,552,1472,-1053,673,-1168
5700,-944,544,1352,-1082,739,-1198
5705,-904,648,1296,-1129,836,-1208
5710,-960,504,1400,-1235,979,-1185
5715,-1096,472,1312,-1209,1029,-1166
5720,-752,312,1320,-1199,1109,-1184
5725,-912,224,1392,-1196,1191,-1143
5730,-896,0,1512,-1141,1315,-1108
5735,-984,-296,1600,-1020,1435,-1047
5740,-832,-424,1680,-904,1587,-1041
5745,-776,-688,1720,-693,1709,-895
5750,-1000,-784,1688,-445,1775,-808
5755,-1088,-920,1536,-267,1795,-834
5760,-1032,-544,1600,-183,1759,-857
5765,-1192,-528,1600,-111,1665,-727
5770,-1520,-456,1648,-74,1557,-682
5775,-1384,-272,1488,-79,1425,-700
5780,-2032,-280,1640,-144,1337,-722
5785,-1920,-176,1576,-165,1219,-759
5790,-1936,-176,1632,-166,1094,-760
5795,-1992,-280,1552,-160,948,-712
5800,-2304,-312,1512,-158,828,-703
5805,-2096,-224,1376,-191,764,-719
5810,-2080,-376,1360,-216,700,-690
5815,-2168,-488,1392,-216,641,-657
5820,-2216,-480,1368,-198,588,-625
5825,-1952,-696,1592,-176,547,-572
5830,-1760,-824,1576,-123,511,-551
5835,-2048,-936,1600,-41,512,-529
5840,-2000,-992,1528,89,512,-479
5845,-1920,-1008,1536,218,544,-415
5850,-1928,-920,1456,310,573,-347
5855,-1656,-896,1464,350,625,-267
5860,-1880,-768,1424,379,667,-221
5865,-1816,-744,1368,400,653,-177
5870,-1768,-792,1448,423,635,-110
5875,-1816,-656,1336,485,614,-56
5880,-1784,-656,1264,514,606,-4
5885,-1456,-608,1200,526,569,74
5890,-1632,-512,1088,513,494,58
5895,-1376,-560,1080,471,423,97
5900,-1296,-432,1120,424,373,141
5905,-1104,-496,1144,369,332,186
5910,-1208,-520,1184,312,284,168
5915,-928,-592,1248,257,248,166
5920,-1024,-520,1376,226,224,125
5925,-1072,-600,1456,194,199,96
5930,-912,-696,1592,196,215,131
5935,-848,-776,1600,266,279,127
5940,-840,-736,1584,347,350,87
5945,-680,-776,1608,430,432,109
5950,-624,-800,1560,511,517,138
5955,-792,-728,1576,574,602,122
5960,-584,-728,1536,637,672,147
5965,-552,-568,1440,686,757,165
5970,-464,-496,1464,681,855,171
5975,-560,-440,1384,673,911,177
5980,-624,-360,1344,648,939,160
5985,-488,-216,1280,595,967,165
5990,-624,-168,1304,527,995,132
5995,-616,-176,1288,456,1024,108
6000,-656,-184,1264,376,1047,118
6005,-640,-96,1224,301,1044,106
6010,-696,-80,1296,207,1025,87
6015,-736,-48,1408,121,995,78
6020,-960,-128,1368,79,977,68
6025,-1008,-40,1208,79,970,59
6030,-1184,24,1144,49,1007,74
6035,-1072,-24,1256,-1,1082,104
6040,-1096,-120,1272,5,1155,144
6045,-1312,-128,1224,68,1188,176
6050,-1144,-184,1056,100,1175,199
6055,-936,-312,1064,97,1164,185
6060,-856,-416,1080,109,1148,148
6065,-880,-360,1128,137,1116,112
6070,-952,-312,1184,153,1086,72
6075,-920,-192,1216,155,1073,41
6080,-936,-24,1240,134,1078,5
6085,-976,-56,1344,112,1093,-27
6090,-1088,-80,1384,128,1113,-65
6095,-1088,-104,1464,152,1141,-84
6100,-1064,-56,1440,169,1205,-101
6105,-1224,-128,1368,186,1281,-108
6110,-1264,-80,1272,233,1349,-126
6115,-1272,-48,1168,253,1431,-125
6120,-1216,-16,1080,236,1524,-134
6125,-1320,24,952,196,1621,-143
6130,-1216,104,808,149,1711,-146
6135,-1392,120,856,57,1810,-150
6140,-1416,72,904,0,1863,-134
6145,-1632,104,784,-26,1887,-132
6150,-1776,56,720,-57,1912,-112
6155,-1824,16,608,-99,1916,-82
6160,-1976,-72,584,-135,1887,-72
6165,-2056,24,592,-159,1801,-80
6170,-2312,184,336,-216,1691,-81
6175,-2464,368,240,-345,1580,-51
6180,-2568,432,176,-521,1445,-3
6185,-2624,336,208,-684,1297,48
6190,-2464,72,384,-823,1145,98
6195,-2336,-296,512,-865,1007,116
6200,-2224,-560,592,-770,912,117
6205,-2088,-816,600,-591,875,107
6210,-2048,-904,544,-368,871,88
6215,-2064,-792,464,-150,874,78
6220,-2160,-560,336,35,859,93
6225,-2232,-408,280,165,826,131
6230,-2232,-160,216,226,769,176
6235,-2216,-16,168,216,710,223
6240,-2296,-8,296,168,651,273
6245,-2392,-24,392,136,574,322
6250,-2472,-8,424,125,479,344
6255,-2496,-88,576,119,403,365
6260,-2496,-240,696,134,339,388
6265,-2400,-296,776,175,276,395
6270,-2408,-376,776,216,235,398
6275,-2232,-520,816,249,211,387
6280,-2168,-584,824,280,206,376
6285,-2016,-648,816,318,227,354
6290,-1952,-592,744,355,273,329
6295,-1880,-496,672,385,334,302
6300,-1856,-368,584,396,406,271
6305,-1800,-192,528,396,483,247
6310,-1736,-64,464,391,560,231
6315,-1736,32,368,379,634,216
6320,-1712,104,328,358,696,196
6325,-1752,136,272,329,730,169
6330,-1760,232,232,279,744,137
6335,-1744,240,192,214,739,97
6340,-1728,240,144,138,715,51
6345,-1776,224,152,59,674,-3
6350,-1776,248,128,-15,608,-57
6355,-1760,248,128,-88,534,-107
6360,-1728,200,120,-159,452,-147
6365,-1744,192,144,-225,368,-184
6370,-1800,128,144,-286,267,-218
6375,-1800,72,176,-349,162,-242
6380,-1872,48,256,-402,61,-263
6385,-1872,8,216,-428,-36,-280
6390,-1856,-40,256,-439,-121,-289
6395,-1968,-64,288,-433,-194,-297
6400,-2040,-56,280,-424,-266,-299
6405,-2112,-64,264,-419,-335,-291
6410,-2128,-72,288,-413,-397,-282
6415,-2168,-112,304,-404,-454,-277
6420,-2224,-128,344,-388,-506,-268
6425,-2256,-208,352,-369,-546,-263
6430,-2288,-232,400,-349,-576,-253
6435,-2352,-256,432,-324,-597,-243
6440,-2336,-288,496,-295,-615,-229
6445,-2328,-280,536,-266,-622,-212
6450,-2312,-304,584,-235,-622,-193
6455,-2248,-328,592,-202,-615,-164
6460,-2256,-328,632,-166,-607,-141
6465,-2184,-368,656,-133,-593,-120
6470,-2192,-336,664,-107,-578,-100
6475,-2144,-352,680,-85,-559,-80
6480,-2136,-320,640,-68,-538,-60
6485,-2096,-280,640,-52,-519,-40
6490,-2056,-280,616,-46,-503,-24
6495,-2024,-256,624,-49,-492,-9
6500,-1968,-216,584,-59,-484,3
6505,-1960,-200,600,-73,-480,10
6510,-1888,-200,640,-86,-480,16
6515,-1888,-184,656,-102,-482,23
6520,-1816,-192,680,-118,-486,28
6525,-1776,-176,688,-134,-491,30
6530,-1752,-184,728,-145,-496,33
6535,-1696,-208,744,-153,-500,36
6540,-1664,-200,752,-157,-500,40
6545,-1656,-184,808,-159,-499,43
6550,-1616,-168,856,-155,-495,46
6555,-1608,-208,832,-150,-486,48
6560,-1528,-216,856,-150,-472,52
6565,-1528,-208,864,-152,-457,51
6570,-1536,-192,880,-154,-440,48
6575,-1504,-192,920,-156,-424,44
6580,-1464,-200,912,-154,-406,38
6585,-1504,-176,952,-152,-386,30
6590,-1472,-168,952,-145,-368,27
6595,-1496,-120,912,-137,-344,21
6600,-1512,-120,928,-133,-324,17
6605,-1496,-88,936,-135,-313,14
6610,-1496,-96,928,-139,-307,8
6615,-1512,-80,920,-136,-305,6
6620,-1552,-64,912,-126,-299,2
6625,-1544,-72,904,-116,-291,0
6630,-1592,-56,856,-118,-285,-4
6635,-1600,-32,880,-137,-282,-9
6640,-1584,-48,896,-163,-283,-13
6645,-1600,-72,872,-186,-283,-17
6650,-1608,-72,904,-204,-280,-21
6655,-1624,-128,912,-219,-277,-27
6660,-1640,-136,936,-225,-273,-33
6665,-1632,-168,944,-231,-268,-39
6670,-1648,-160,952,-233,-261,-45
6675,-1640,-184,944,-231,-255,-51
6680,-1664,-168,952,-228,-249,-55
6685,-1664,-184,992,-222,-239,-59
6690,-1648,-216,968,-216,-228,-60
6695,-1640,-256,1008,-206,-215,-60
6700,-1648,-272,1008,-190,-202,-58
6705,-1608,-272,1016,-170,-187,-56
6710,-1616,-288,1016,-148,-168,-54
6715,-1616,-304,1048,-125,-147,-50
6720,-1632,-248,1024,-106,-125,-43
6725,-1600,-288,1024,-93,-105,-38
6730,-1608,-264,1064,-86,-87,-32
6735,-1600,-272,1040,-77,-66,-26
6740,-1576,-256,1048,-64,-45,-22
6745,-1560,-280,1096,-52,-25,-16
6750,-1584,-264,1048,-39,-2,-11
6755,-1544,-296,1016,-28,19,-10
6760,-1552,-272,1000,-19,40,-4
6765,-1552,-264,1000,-13,58,-1
6770,-1552,-248,992,-9,75,1
6775,-1528,-264,960,-3,90,4
6780,-1552,-208,928,-2,100,3
6785,-1544,-224,928,-5,107,4
6790,-1584,-240,904,-5,112,3
6795,-1576,-224,928,-5,115,3
6800,-1592,-216,904,-2,119,1
6805,-1568,-248,904,2,122,-2
6810,-1584,-240,872,7,124,-2
6815,-1584,-232,928,11,130,-2
6820,-1640,-232,896,16,136,-2
6825,-1624,-216,880,18,141,-4
6830,-1648,-224,896,16,146,-4
6835,-1648,-232,880,13,153,-4
6840,-1664,-240,848,9,159,-5
6845,-1672,-248,880,5,165,-3
6850,-1672,-256,848,0,170,-2
6855,-1672,-232,872,-1,176,-1
6860,-1696,-224,840,-1,181,0
6865,-1696,-224,840,-1,185,2
6870,-1680,-224,864,-2,190,3
6875,-1696,-232,808,-3,192,3
6880,-1696,-240,808,0,194,3
6885,-1720,-240,816,5,195,4
6890,-1720,-224,792,13,197,4
6895,-1736,-200,800,15,198,5
6900,-1728,-208,816,17,196,4
6905,-1744,-192,808,16,190,3
6910,-1768,-208,816,20,186,2
6915,-1752,-224,784,30,183,2
6920,-1760,-184,832,37,181,1
6925,-1752,-184,784,40,180,1
6930,-1768,-208,808,37,179,3
6935,-1784,-192,800,32,176,4
6940,-1768,-192,800,27,176,7
6945,-1752,-184,792,22,176,10
6950,-1760,-176,784,17,175,10
6955,-1760,-168,768,15,172,14
6960,-1768,-176,760,15,169,14
6965,-1728,-184,792,14,163,13
6970,-1736,-176,760,12,154,16
6975,-1744,-184,760,10,145,17
6980,-1760,-160,752,7,135,18
6985,-1760,-160,744,3,126,19
6990,-1720,-176,760,2,118,20
6995,-1752,-168,728,-2,111,20
7000,-1752,-184,744,-7,104,20
7005,-1768,-176,800,-7,96,20
7010,-1792,-144,744,-10,88,20
7015,-1760,-160,752,-12,80,20
7020,-1784,-144,728,-15,73,20
7025,-1792,-120,736,-20,67,20
7030,-1776,-144,752,-28,64,21
7035,-1784,-160,728,-34,57,20
7040,-1776,-152,728,-41,47,18
7045,-1800,-152,728,-50,39,15
7050,-1784,-128,712,-56,33,11
7055,-1792,-120,696,-64,25,8
7060,-1792,-136,712,-68,17,4
7065,-1784,-144,768,-75,7,-1
7070,-1784,-152,752,-81,0,-7
7075,-1776,-168,808,-87,-4,-12
7080,-1792,-152,744,-90,-8,-16
7085,-1792,-168,752,-89,-11,-18
7090,-1816,-152,752,-89,-14,-21
7095,-1784,-168,736,-92,-18,-23
7100,-1776,-168,768,-96,-25,-24
7105,-1776,-160,792,-97,-31,-25
7110,-1784,-160,760,-98,-39,-26
7115,-1776,-152,752,-100,-47,-26
7120,-1768,-176,800,-99,-54,-26
7125,-1752,-200,816,-99,-59,-26
7130,-1768,-176,808,-95,-65,-24
7135,-1752,-200,816,-90,-70,-22
7140,-1760,-216,840,-82,-72,-21
7145,-1752,-184,816,-74,-72,-19
7150,-1736,-200,792,-65,-70,-18
7155,-1736,-192,792,-62,-70,-17
7160,-1736,-192,800,-61,-68,-16
7165,-1704,-184,808,-63,-70,-14
7170,-1728,-176,824,-66,-72,-13
7175,-1728,-192,832,-69,-74,-13
7180,-1712,-152,832,-71,-77,-13
7185,-1744,-208,816,-71,-78,-13
7190,-1736,-200,808,-70,-79,-14
7195,-1664,-144,792,-72,-80,-13
7200,-1728,-200,816,-72,-79,-14
7205,-1712,-192,816,-73,-81,-15
7210,-1712,-184,848,-77,-83,-18
7215,-1712,-184,840,-80,-84,-18
7220,-1696,-192,856,-83,-83,-20
7225,-1712,-176,840,-84,-81,-20
7230,-1680,-200,800,-83,-80,-20
7235,-1696,-224,816,-80,-75,-20
7240,-1672,-216,832,-76,-71,-19
7245,-1680,-216,816,-74,-67,-20
7250,-1632,-288,856,-72,-65,-21
7255,-1672,-216,800,-70,-63,-20
7260,-1688,-208,816,-70,-61,-22
7265,-1680,-184,848,-70,-59,-24
7270,-1680,-224,840,-73,-59,-24
7275,-1672,-208,856,-75,-57,-24
7280,-1688,-200,856,-79,-53,-25
7285,-1672,-200,872,-86,-50,-24
7290,-1688,-208,864,-93,-45,-23
7295,-1688,-216,848,-99,-39,-22
7300,-1656,-232,856,-94,-34,-21
7305,-1624,-184,880,-81,-27,-19
7310,-1664,-248,856,-66,-21,-19
7315,-1672,-208,808,-55,-21,-21
7320,-1672,-208,872,-53,-26,-23
7325,-1680,-200,808,-53,-33,-27
7330,-1672,-200,824,-56,-38,-30
7335,-1680,-232,856,-59,-42,-33
7340,-1704,-208,832,-65,-45,-34
7345,-1696,-232,856,-70,-40,-31
7350,-1696,-224,848,-70,-35,-30
7355,-1688,-224,872,-68,-27,-27
7360,-1696,-216,856,-64,-18,-24
7365,-1704,-240,864,-60,-10,-21
7370,-1680,-240,856,-59,0,-20
7375,-1680,-224,856,-59,7,-18
7380,-1688,-248,896,-59,13,-17
7385,-1680,-232,864,-55,19,-15
7390,-1688,-248,880,-48,27,-12
7395,-1720,-224,872,-37,34,-9
7400,-1680,-256,864,-30,41,-6
7405,-1720,-208,832,-29,44,-4
7410,-1688,-232,856,-31,47,-1
7415,-1712,-224,832,-31,48,-1
7420,-1704,-216,848,-33,47,0
7425,-1736,-208,832,-35,45,1
7430,-1680,-208,816,-37,43,0
7435,-1696,-216,792,-38,40,0
7440,-1688,-208,824,-39,37,-4
7445,-1704,-200,832,-39,35,-6
7450,-1696,-200,808,-41,31,-8
7455,-1704,-176,824,-40,26,-11
7460,-1744,-184,792,-40,22,-12
7465,-1704,-200,816,-39,17,-14
7470,-1688,-208,840,-40,14,-16
7475,-1712,-192,816,-40,11,-18
7480,-1744,-184,840,-41,10,-17
7485,-1712,-200,832,-43,10,-19
7490,-1704,-200,832,-48,7,-19
7495,-1696,-200,824,-52,4,-19
7500,-1704,-192,848,-56,1,-19
7505,-1728,-200,872,-55,0,-17
7510,-1720,-192,848,-55,1,-16
7515,-1720,-224,832,-55,0,-16
7520,-1712,-216,824,-56,3,-15
7525,-1712,-216,816,-56,7,-15
7530,-1696,-200,824,-56,10,-15
7535,-1688,-208,848,-52,13,-12
7540,-1712,-208,856,-51,15,-13
7545,-1720,-200,816,-50,17,-13
7550,-1712,-192,816,-51,17,-13
7555,-1688,-184,824,-52,15,-13
7560,-1704,-192,808,-51,11,-13
7565,-1704,-200,832,-49,10,-14
7570,-1720,-216,808,-51,6,-15
7575,-1696,-200,808,-51,0,-15
7580,-1704,-192,792,-53,-2,-16
7585,-1720,-192,816,-57,-6,-17
7590,-1704,-192,776,-68,-11,-19
7595,-1720,-208,808,-78,-16,-20
7600,-1704,-192,800,-84,-22,-21
7605,-1720,-208,824,-88,-26,-21
7610,-1720,-208,824,-89,-27,-20
7615,-1704,-200,824,-88,-27,-20
7620,-1712,-208,808,-89,-28,-18
7625,-1712,-216,808,-88,-29,-18
7630,-1712,-216,816,-90,-31,-18
7635,-1712,-200,816,-88,-33,-17
7640,-1696,-224,840,-87,-34,-17
7645,-1696,-216,848,-83,-34,-17
7650,-1704,-224,832,-82,-34,-18
7655,-1712,-216,840,-83,-34,-19
7660,-1680,-248,848,-81,-33,-21
7665,-1704,-208,832,-76,-29,-20
7670,-1704,-216,832,-74,-27,-19
7675,-1704,-216,856,-71,-23,-20
7680,-1728,-208,864,-73,-21,-18
7685,-1720,-224,808,-73,-21,-16
7690,-1704,-216,848,-73,-21,-13
7695,-1680,-184,856,-70,-22,-12
7700,-1688,-208,856,-66,-20,-8
7705,-1704,-200,856,-66,-21,-8
7710,-1720,-216,840,-70,-19,-8
7715,-1680,-232,896,-68,-22,-7
7720,-1704,-240,832,-66,-23,-9
7725,-1712,-208,824,-62,-24,-8
7730,-1688,-240,848,-64,-25,-8
7735,-1688,-216,824,-67,-28,-10
7740,-1688,-232,808,-71,-30,-9
7745,-1704,-224,848,-74,-31,-10
7750,-1696,-216,864,-78,-34,-8
7755,-1680,-224,824,-79,-35,-9
7760,-1696,-232,856,-82,-35,-11
7765,-1672,-232,840,-84,-36,-12
7770,-1680,-248,856,-84,-33,-12
7775,-1680,-232,840,-83,-33,-12
7780,-1696,-232,848,-78,-30,-12
7785,-1712,-232,872,-76,-28,-12
7790,-1688,-232,896,-73,-25,-13
7795,-1664,-232,872,-68,-22,-14
7800,-1688,-232,856,-64,-19,-15
7805,-1664,-224,848,-62,-14,-14
7810,-1688,-256,856,-59,-11,-15
7815,-1696,-224,872,-59,-9,-17
7820,-1664,-248,848,-57,-7,-18
7825,-1656,-232,880,-54,-5,-17
7830,-1680,-240,856,-51,-4,-18
7835,-1688,-240,864,-47,-2,-19
7840,-1680,-240,848,-43,-1,-19
7845,-1680,-216,856,-45,-1,-20
7850,-1688,-224,840,-49,-2,-20
7855,-1656,-256,872,-51,-3,-19
7860,-1680,-224,880,-56,-4,-20
7865,-1704,-216,848,-56,-6,-21
7870,-1688,-216,856,-62,-6,-20
7875,-1704,-216,872,-65,-6,-19
7880,-1680,-240,856,-69,-8,-19
7885,-1680,-240,864,-68,-8,-18
7890,-1672,-232,880,-66,-7,-16
7895,-1680,-240,872,-64,-5,-14
7900,-1664,-264,872,-62,-3,-13
7905,-1672,-232,856,-57,0,-11
7910,-1696,-232,816,-52,4,-10
7915,-1680,-232,864,-48,7,-12
7920,-1688,-232,856,-45,7,-12
7925,-1664,-216,832,-41,8,-11
7930,-1664,-256,864,-38,7,-10
7935,-1696,-240,856,-38,7,-10
7940,-1704,-216,872,-39,6,-11
7945,-1688,-232,832,-35,7,-9
7950,-1696,-216,856,-37,3,-12
7955,-1704,-216,856,-43,-2,-15
7960,-1696,-256,864,-47,-3,-16
7965,-1672,-232,840,-45,-4,-17
7970,-1696,-224,848,-49,-6,-16
7975,-1696,-208,856,-53,-6,-18
7980,-1680,-232,840,-59,-6,-18
7985,-1704,-216,840,-66,-6,-17
7990,-1672,-272,888,-72,-5,-18
7995,-1688,-240,856,-73,-4,-16
8000,-1680,-264,864,-75,-3,-16
8005,-1688,-232,840,-74,-1,-16
8010,-1712,-232,872,-78,3,-14
8015,-1696,-256,864,-78,3,-14
8020,-1688,-200,864,-80,4,-12
8025,-1688,-240,856,-82,5,-12
8030,-1696,-224,840,-83,5,-11
8035,-1688,-248,864,-79,7,-9
8040,-1672,-232,880,-72,12,-8
8045,-1688,-224,848,-64,14,-6
8050,-1664,-248,856,-56,16,-5
8055,-1672,-256,856,-47,16,-7
8060,-1688,-232,864,-46,13,-8
8065,-1672,-224,808,-49,8,-10
8070,-1680,-224,856,-54,2,-13
8075,-1688,-200,832,-59,-2,-15
8080,-1680,-208,864,-66,-7,-18
8085,-1680,-248,816,-72,-12,-20
8090,-1696,-224,848,-72,-17,-21
8095,-1720,-248,840,-70,-19,-21
8100,-1704,-256,832,-68,-19,-22
8105,-1696,-248,792,-64,-18,-23
8110,-1712,-216,840,-61,-15,-23
8115,-1704,-216,832,-64,-12,-24
8120,-1680,-224,856,-68,-12,-26
8125,-1680,-232,856,-72,-14,-28
8130,-1680,-232,896,-76,-13,-28
8135,-1672,-256,872,-76,-15,-26
8140,-1688,-264,880,-78,-19,-26
8145,-1704,-232,856,-84,-22,-25
8150,-1656,-256,880,-92,-25,-27
8155,-1672,-256,840,-101,-26,-25
8160,-1664,-248,840,-107,-25,-22
8165,-1680,-264,832,-109,-26,-21
8170,-1712,-248,856,-115,-26,-19
8175,-1664,-256,856,-119,-26,-15
8180,-1672,-256,872,-116,-26,-15
8185,-1664,-304,896,-107,-24,-14
8190,-1656,-264,896,-97,-23,-13
8195,-1688,-240,880,-92,-24,-11
8200,-1664,-248,880,-91,-25,-9
8205,-1664,-240,880,-82,-25,-7
8210,-1680,-256,880,-78,-25,-7
8215,-1672,-256,888,-75,-26,-8
8220,-1656,-280,904,-72,-23,-9
8225,-1656,-264,912,-66,-20,-8
8230,-1664,-264,800,-60,-17,-6
8235,-1672,-264,888,-57,-15,-6
8240,-1664,-256,888,-56,-13,-6
8245,-1664,-248,856,-56,-10,-7
8250,-1664,-240,888,-55,-9,-8
8255,-1664,-248,856,-56,-7,-10
8260,-1664,-248,864,-56,-4,-12
8265,-1672,-232,872,-60,-2,-11
8270,-1688,-224,904,-62,0,-12
8275,-1664,-216,888,-63,1,-15
8280,-1656,-232,840,-64,2,-15
8285,-1696,-336,984,-67,1,-16
8290,-1656,-216,888,-67,2,-16
8295,-1664,-256,864,-69,1,-18
8300,-1672,-272,896,-71,0,-16
8305,-1680,-248,888,-72,-1,-16
8310,-1672,-240,888,-74,-1,-16
8315,-1680,-272,864,-74,-1,-16
8320,-1672,-248,856,-74,-3,-14
8325,-1664,-256,920,-71,-4,-13
8330,-1664,-256,864,-72,-4,-11
8335,-1656,-256,872,-72,-7,-11
8340,-1720,-280,960,-72,-8,-10
8345,-1680,-248,880,-75,-6,-11
8350,-1672,-248,872,-75,-6,-11
8355,-1688,-240,888,-77,-7,-11
8360,-1688,-264,888,-80,-6,-10
8365,-1664,-272,856,-77,-6,-9
8370,-1672,-296,856,-72,-4,-8
8375,-1680,-288,864,-68,0,-8
8380,-1672,-272,872,-63,2,-9
8385,-1672,-256,848,-60,4,-10
8390,-1664,-280,864,-59,6,-12
8395,-1664,-272,832,-61,6,-14
8400,-1664,-248,888,-61,4,-13
8405,-1680,-264,872,-61,1,-15
8410,-1672,-264,904,-60,1,-15
8415,-1680,-256,888,-60,-2,-16
8420,-1664,-248,864,-62,-4,-16
8425,-1664,-264,856,-66,-4,-17
8430,-1664,-280,872,-69,-3,-17
8435,-1688,-264,824,-74,-1,-16
8440,-1672,-248,848,-77,-1,-16
8445,-1680,-264,872,-80,0,-16
8450,-1664,-280,856,-84,1,-15
8455,-1656,-272,840,-87,1,-14
8460,-1672,-280,840,-91,2,-13
8465,-1672,-280,928,-86,-1,-10
8470,-1672,-256,904,-78,-2,-7
8475,-1688,-264,888,-72,2,-6
8480,-1664,-272,888,-66,6,-5
8485,-1680,-288,856,-65,8,-6
8490,-1680,-240,864,-65,7,-6
8495,-1696,-224,920,-63,8,-4
8500,-1664,-256,872,-57,8,-3
8505,-1688,-248,856,-56,6,-2
8510,-1672,-264,888,-55,6,-3
8515,-1672,-264,896,-55,7,-2
8520,-1680,-256,920,-57,8,-3
8525,-1672,-224,880,-59,9,-3
8530,-1672,-264,864,-60,11,-2
8535,-1672,-248,880,-60,12,0
8540,-1672,-256,864,-56,15,0
8545,-1688,-256,888,-52,19,2
8550,-1672,-272,888,-50,22,2
8555,-1664,-240,896,-48,24,3
8560,-1664,-272,856,-50,24,3
8565,-1656,-256,848,-53,25,4
8570,-1680,-248,864,-52,24,3
8575,-1664,-264,872,-52,22,3
8580,-1680,-264,848,-53,19,3
8585,-1664,-272,848,-54,17,2
8590,-1672,-280,880,-54,17,2
8595,-1672,-280,856,-55,15,0
8600,-1664,-264,880,-54,13,0
8605,-1672,-248,872,-53,12,0
8610,-1656,-264,896,-51,13,-1
8615,-1680,-264,840,-49,11,0
8620,-1664,-264,864,-46,11,-1
8625,-1664,-264,872,-46,9,-1
8630,-1664,-264,896,-46,7,0
8635,-1656,-256,872,-48,6,-2
8640,-1656,-272,856,-48,5,-2
8645,-1664,-280,880,-48,4,-1
8650,-1648,-264,880,-47,5,-1
8655,-1664,-296,864,-47,6,-2
8660,-1656,-280,896,-48,5,-3
8665,-1664,-256,880,-51,5,-3
8670,-1680,-304,872,-53,5,-4
8675,-1648,-280,872,-56,5,-5
8680,-1664,-272,872,-57,6,-5
8685,-1672,-264,880,-60,7,-4
8690,-1672,-240,848,-63,8,-5
8695,-1680,-256,864,-66,9,-3
8700,-1664,-248,872,-66,9,-2
8705,-1672,-272,872,-71,9,-2
8710,-1672,-256,880,-71,11,-2
8715,-1672,-248,872,-74,13,-1
8720,-1672,-272,896,-72,12,0
8725,-1672,-280,896,-73,11,3
8730,-1680,-272,888,-70,11,4
8735,-1664,-296,872,-63,11,5
8740,-1672,-280,888,-57,11,6
8745,-1664,-288,864,-55,16,7
8750,-1664,-264,832,-52,18,7
8755,-1664,-272,864,-52,21,6
8760,-1672,-288,872,-50,23,6
8765,-1672,-280,872,-51,24,5
8770,-1680,-296,880,-54,25,4
8775,-1680,-264,872,-56,24,3
8780,-1680,-248,872,-59,24,3
8785,-1672,-248,880,-63,25,3
8790,-1688,-280,896,-64,28,4
8795,-1664,-264,856,-63,30,3
8800,-1664,-280,872,-63,33,3
8805,-1664,-272,888,-63,35,4
8810,-1664,-264,840,-61,38,5
8815,-1672,-264,864,-61,37,7
8820,-1656,-256,888,-62,36,6
8825,-1656,-280,840,-62,36,9
8830,-1664,-248,856,-58,35,10
8835,-1696,-272,848,-54,37,10
8840,-1680,-256,840,-50,37,10
8845,-1672,-248,880,-48,36,9
8850,-1672,-272,888,-46,37,8
8855,-1672,-240,872,-45,33,6
8860,-1680,-240,856,-46,31,2
8865,-1664,-240,840,-46,25,-1
8870,-1680,-216,856,-51,20,-2
8875,-1664,-248,864,-54,15,-4
8880,-1672,-272,856,-58,12,-4
8885,-1688,-256,840,-60,9,-6
8890,-1696,-264,848,-59,10,-6
8895,-1680,-272,792,-53,11,-7
8900,-1672,-288,848,-52,11,-8
8905,-1664,-272,848,-51,12,-8
8910,-1672,-264,848,-54,13,-6
8915,-1672,-272,864,-53,15,-7
8920,-1656,-296,888,-54,15,-5
8925,-1672,-304,864,-53,13,-6
8930,-1656,-312,896,-51,12,-5
8935,-1680,-288,904,-51,11,-4
8940,-1688,-264,880,-50,9,-4
8945,-1680,-280,864,-53,9,-2
8950,-1680,-272,816,-58,9,-1
8955,-1672,-264,848,-60,11,-1
8960,-1672,-288,856,-62,11,0
8965,-1680,-256,840,-66,11,-1
8970,-1680,-248,840,-69,12,1
8975,-1680,-240,832,-72,13,1
8980,-1680,-264,856,-72,15,2
8985,-1672,-272,872,-71,18,1
8990,-1680,-264,848,-69,20,1
8995,-1664,-304,864,-66,21,2
9000,-1664,-264,912,-64,22,0
9005,-1680,-288,840,-60,20,1
9010,-1664,-280,912,-55,25,1
9015,-1672,-280,904,-55,27,1
9020,-1672,-280,880,-56,29,-1
9025,-1672,-272,904,-53,32,-1
9030,-1664,-264,896,-50,33,-2
9035,-1680,-248,896,-48,34,-1
9040,-1664,-280,872,-46,34,-2
9045,-1672,-272,864,-47,34,-1
9050,-1672,-280,864,-46,33,-2
9055,-1672,-248,864,-45,34,-1
9060,-1680,-264,920,-46,35,-1
9065,-1664,-272,864,-44,37,-2
9070,-1680,-256,864,-42,39,-2
9075,-1664,-280,880,-44,41,-3
9080,-1680,-240,872,-44,42,-3
9085,-1680,-256,864,-45,45,-3
9090,-1672,-256,904,-46,44,-4
9095,-1664,-264,864,-49,43,-4
9100,-1688,-264,872,-51,43,-4
9105,-1672,-256,856,-51,42,-5
9110,-1672,-264,848,-54,39,-5
9115,-1656,-264,896,-55,37,-6
9120,-1680,-272,848,-54,36,-6
9125,-1664,-272,880,-55,36,-5
9130,-1664,-272,872,-54,36,-3
9135,-1680,-256,872,-53,34,-3
9140,-1664,-264,872,-54,33,-2
9145,-1656,-272,848,-54,31,-1
9150,-1672,-272,896,-56,28,-2
9155,-1680,-328,896,-58,25,-3
9160,-1696,-256,848,-58,27,0
9165,-1672,-288,832,-55,28,3
9170,-1688,-248,824,-48,31,2
9175,-1688,-280,864,-43,34,1
9180,-1688,-272,808,-40,35,2
9185,-1672,-272,872,-39,33,1
9190,-1672,-280,880,-40,30,2
9195,-1656,-280,856,-43,27,1
9200,-1688,-272,880,-45,22,1
9205,-1664,-280,864,-44,21,0
9210,-1664,-360,960,-45,20,0
9215,-1672,-272,864,-46,18,-1
9220,-1680,-272,856,-45,18,0
9225,-1680,-264,888,-46,18,0
9230,-1680,-288,864,-51,19,1
9235,-1696,-280,840,-54,19,1
9240,-1688,-280,848,-57,21,1
9245,-1680,-272,856,-58,24,1
9250,-1672,-264,864,-60,27,1
9255,-1696,-288,840,-58,29,2
9260,-1672,-280,824,-58,32,3
9265,-1616,-280,904,-55,34,4
9270,-1672,-272,864,-52,35,5
9275,-1664,-264,840,-50,36,6
9280,-1672,-272,888,-49,33,8
9285,-1672,-264,856,-52,30,7
9290,-1688,-232,880,-53,27,7
9295,-1680,-272,832,-54,25,7
9300,-1672,-264,856,-58,19,8
9305,-1672,-256,848,-60,16,7
9310,-1672,-256,864,-60,13,6
9315,-1672,-256,848,-66,11,6
9320,-1680,-256,856,-67,9,5
9325,-1680,-288,864,-68,6,6
9330,-1664,-280,824,-66,6,4
9335,-1680,-256,856,-66,6,7
9340,-1664,-264,864,-67,9,6
9345,-1688,-288,856,-67,10,6
9350,-1672,-264,832,-67,11,6
9355,-1664,-272,904,-66,13,5
9360,-1696,-272,864,-66,17,5
9365,-1680,-272,872,-65,20,4
9370,-1680,-280,888,-64,24,3
9375,-1664,-296,872,-62,26,3
9380,-1680,-272,872,-61,28,3
9385,-1680,-272,864,-59,29,4
9390,-1688,-264,880,-57,30,5
9395,-1664,-296,880,-55,31,5
9400,-1680,-264,832,-52,31,3
9405,-1672,-272,848,-51,33,2
9410,-1704,-256,880,-51,33,2
9415,-1680,-272,832,-49,34,2
9420,-1664,-288,856,-50,34,1
9425,-1672,-264,856,-49,35,2
9430,-1672,-272,872,-48,36,2
9435,-1680,-256,848,-48,38,1
9440,-1680,-272,888,-47,36,2
9445,-1664,-264,864,-46,37,1
9450,-1688,-248,832,-47,37,1
9455,-1696,-272,864,-49,38,2
9460,-1680,-264,864,-47,35,2
9465,-1688,-264,856,-47,35,1
9470,-1680,-272,864,-48,34,2
9475,-1696,-248,840,-47,32,3
9480,-1672,-256,848,-46,31,2
9485,-1688,-248,872,-47,32,1
9490,-1664,-272,840,-45,31,1
9495,-1672,-280,848,-45,30,3
9500,-1688,-272,872,-47,30,1
9505,-1688,-264,840,-48,30,1
9510,-1688,-256,848,-48,30,0
9515,-1656,-240,872,-49,32,1
9520,-1664,-288,848,-50,31,1
9525,-1672,-272,872,-47,32,-2
9530,-1696,-248,848,-47,31,-1
9535,-1672,-248,880,-48,29,-3
9540,-1664,-280,864,-47,28,-3
9545,-1688,-272,824,-46,26,-1
9550,-1680,-256,880,-47,21,-2
9555,-1672,-288,840,-46,20,-2
9560,-1680,-280,856,-40,17,-2
9565,-1688,-256,840,-39,14,-6
9570,-1704,-248,856,-37,13,-6
9575,-1704,-240,848,-38,12,-7
9580,-1696,-272,864,-42,8,-8
9585,-1680,-256,840,-45,8,-9
9590,-1688,-264,880,-46,9,-9
9595,-1704,-248,856,-48,11,-9
9600,-1696,-256,864,-50,13,-8
9605,-1656,-280,848,-49,17,-7
9610,-1688,-280,848,-47,19,-7
9615,-1672,-288,840,-45,20,-6
9620,-1632,-296,848,-42,20,-5
9625,-1672,-272,856,-47,19,-3
9630,-1680,-264,840,-50,18,-2
9635,-1664,-296,864,-50,18,-2
9640,-1680,-288,840,-47,19,-2
9645,-1664,-288,856,-43,21,-2
9650,-1688,-272,816,-34,21,-2
9655,-1688,-264,808,-30,23,-2
9660,-1672,-272,832,-25,20,-2
9665,-1680,-256,816,-23,15,-5
9670,-1680,-248,872,-22,10,-9
9675,-1688,-256,848,-23,5,-11
9680,-1672,-248,840,-25,0,-14
9685,-1680,-264,872,-30,-3,-17
9690,-1680,-272,864,-39,-6,-19
9695,-1680,-280,864,-40,-8,-21
9700,-1696,-272,840,-40,-6,-21
9705,-1696,-296,848,-42,-3,-20
9710,-1688,-264,848,-40,1,-18
9715,-1688,-264,848,-40,6,-18
9720,-1688,-248,824,-34,10,-15
9725,-1672,-272,880,-33,13,-13
9730,-1688,-272,896,-29,15,-12
9735,-1664,-288,880,-26,16,-9
9740,-1664,-296,888,-23,19,-8
9745,-1672,-280,840,-21,21,-7
9750,-1672,-296,856,-23,21,-7
9755,-1680,-280,872,-27,22,-3
9760,-1688,-264,864,-33,23,-3
9765,-1688,-272,832,-37,25,-2
9770,-1680,-280,848,-44,23,-1
9775,-1712,-232,840,-48,22,-2
9780,-1664,-256,824,-54,20,-2
9785,-1704,-232,840,-56,19,0
9790,-1680,-264,856,-55,17,0
9795,-1688,-248,840,-52,17,-2
9800,-1680,-264,864,-48,17,-1
9805,-1688,-296,832,-46,17,-3
9810,-1664,-304,864,-43,17,-4
9815,-1680,-280,896,-40,16,-5
9820,-1664,-272,848,-40,15,-5
9825,-1672,-280,872,-39,16,-6
9830,-1664,-264,840,-39,15,-7
9835,-1688,-240,840,-37,15,-8
9840,-1664,-264,856,-37,14,-10
9845,-1664,-256,880,-36,12,-12
9850,-1680,-248,864,-37,12,-12
9855,-1672,-256,888,-37,9,-14
9860,-1648,-272,848,-36,7,-14
9865,-1680,-256,848,-39,4,-14
9870,-1688,-240,888,-39,6,-15
9875,-1704,-264,904,-41,6,-13
9880,-1688,-256,848,-44,8,-14
9885,-1664,-272,872,-46,8,-15
9890,-1696,-264,856,-46,10,-13
9895,-1680,-264,880,-46,13,-13
9900,-1696,-272,904,-46,14,-12
9905,-1680,-272,856,-43,16,-12
9910,-1672,-288,840,-42,17,-9
9915,-1704,-256,856,-41,17,-8
9920,-1672,-264,840,-40,16,-8
9925,-1696,-256,848,-39,14,-8
9930,-1672,-288,856,-37,14,-9
9935,-1688,-264,848,-37,13,-7
9940,-1696,-248,864,-37,13,-6
9945,-1672,-272,864,-40,12,-9
9950,-1664,-272,848,-44,11,-10
9955,-1680,-256,872,-53,9,-11
9960,-1672,-264,856,-62,6,-10
9965,-1688,-256,864,-65,5,-10
9970,-1688,-280,824,-65,5,-11
9975,-1696,-272,832,-68,5,-9
9980,-1680,-296,816,-65,6,-9
9985,-1680,-296,832,-58,9,-7
9990,-1680,-272,808,-53,11,-6
9995,-1680,-280,848,-49,13,-7
10000,-1664,-280,848,-46,12,-8
10005,-1672,-264,832,-46,11,-9
10010,-1664,-256,848,-46,8,-8
10015,-1672,-288,864,-45,8,-8
10020,-1688,-288,848,-45,6,-8
10025,-1680,-320,840,-45,8,-9
10030,-1688,-288,856,-45,8,-9
10035,-1680,-280,832,-45,10,-8
10040,-1688,-272,856,-49,11,-7
10045,-1688,-272,864,-53,12,-8
10050,-1672,-296,856,-56,12,-7
10055,-1688,-296,848,-58,13,-5
10060,-1680,-272,896,-60,14,-4
10065,-1696,-272,856,-54,14,-1
10070,-1680,-280,840,-52,16,-4
10075,-1672,-296,856,-54,17,-6
10080,-1680,-272,840,-50,17,-5
10085,-1680,-264,896,-46,15,-4
10090,-1696,-248,840,-46,14,-5
10095,-1672,-264,856,-46,13,-5
10100,-1672,-248,872,-47,9,-6
10105,-1672,-256,864,-48,10,-7
10110,-1680,-272,832,-52,10,-6
10115,-1680,-272,880,-53,9,-7
10120,-1672,-264,888,-56,9,-8
10125,-1688,-256,864,-56,10,-8
10130,-1664,-280,832,-54,10,-8
10135,-1664,-320,944,-53,9,-9
10140,-1672,-256,824,-52,6,-9
10145,-1680,-296,856,-51,6,-9
10150,-1672,-272,824,-50,6,-9
10155,-1672,-264,864,-47,7,-9
10160,-1680,-264,880,-47,7,-10
10165,-1672,-272,880,-46,7,-10
10170,-1664,-264,864,-47,8,-10
10175,-1672,-280,864,-47,7,-10
10180,-1672,-280,872,-47,7,-10
10185,-1680,-288,864,-48,7,-11
10190,-1760,-208,768,-48,6,-11
10195,-1672,-304,848,-48,7,-11
10200,-1680,-272,848,-47,9,-11
10205,-1664,-280,864,-46,11,-11
10210,-1664,-272,856,-47,10,-12
10215,-1680,-280,848,-49,11,-12
10220,-1672,-248,832,-51,12,-13
10225,-1712,-304,848,-49,12,-11
10230,-1688,-272,848,-50,11,-13
10235,-1688,-272,872,-49,8,-13
10240,-1696,-280,856,-51,8,-13
10245,-1760,-328,888,-51,6,-15
10250,-1680,-264,840,-53,6,-14
10255,-1696,-248,848,-57,7,-14
10260,-1744,-248,864,-59,6,-12
10265,-1688,-248,832,-64,9,-10
10270,-1720,-248,832,-71,10,-10
10275,-1648,-272,832,-80,9,-6
10280,-1688,-256,840,-90,11,-8
10285,-1672,-280,872,-96,10,-5
10290,-1664,-288,872,-100,10,-3
10295,-1688,-248,880,-98,13,-4
10300,-1680,-288,888,-97,14,-3
10305,-1648,-256,856,-93,9,-12
10310,-1672,-304,896,-96,13,-6
10315,-1656,-288,872,-94,12,-5
10320,-1680,-296,864,-88,12,-6
10325,-1664,-272,840,-84,13,-3
10330,-1664,-288,848,-81,13,-3
10335,-1680,-304,864,-78,13,-4
10340,-1672,-280,840,-73,13,-5
10345,-1672,-288,872,-64,15,-1
10350,-1680,-272,888,-59,17,-2
10355,-1680,-288,912,-66,18,-4
10360,-1680,-272,848,-70,16,-7
10365,-1672,-296,840,-70,14,-6
10370,-1672,-320,840,-71,12,-7
10375,-1688,-280,856,-70,10,-8
10380,-1680,-248,848,-66,10,-7
10385,-1680,-280,848,-62,9,-8
10390,-1688,-264,848,-62,5,-8
10395,-1656,-256,896,-60,3,-8
10400,-1688,-264,824,-61,-1,-8
10405,-1680,-264,880,-58,-4,-8
10410,-1680,-272,840,-56,-4,-9
10415,-1696,-280,856,-56,-7,-10
10420,-1680,-288,840,-57,-8,-11
10425,-1680,-296,872,-55,-8,-13
10430,-1696,-304,856,-58,-6,-12
10435,-1664,-288,864,-59,-5,-12
10440,-1672,-296,864,-63,-3,-12
10445,-1696,-288,856,-62,1,-10
10450,-1664,-304,880,-64,5,-10
10455,-1696,-272,824,-61,9,-9
10460,-1680,-296,856,-56,12,-7
10465,-1680,-272,896,-53,14,-5
10470,-1672,-280,856,-50,13,-5
10475,-1680,-264,856,-53,15,-6
10480,-1672,-264,872,-57,14,-5
10485,-1672,-304,872,-57,13,-3
10490,-1680,-288,888,-55,15,-3
10495,-1672,-304,832,-51,17,-2
10500,-1664,-272,896,-46,20,-2
10505,-1656,-296,856,-45,23,-1
10510,-1680,-280,896,-44,25,-2
10515,-1672,-280,848,-44,24,-3
10520,-1680,-264,840,-44,22,-3
10525,-1672,-272,872,-44,17,-5
10530,-1688,-272,856,-47,15,-7
10535,-1680,-264,856,-50,14,-9
10540,-1688,-304,848,-52,13,-8
10545,-1696,-288,856,-52,16,-8
10550,-1672,-296,856,-48,17,-7
10555,-1680,-288,856,-45,21,-8
10560,-1640,-304,832,-43,22,-7
10565,-1680,-304,840,-39,27,-6
10570,-1664,-288,832,-32,30,-7
10575,-1664,-280,888,-32,30,-7
10580,-1664,-272,872,-33,29,-7
10585,-1664,-296,864,-32,28,-8
10590,-1664,-304,864,-29,28,-8
10595,-1688,-312,880,-31,25,-7
10600,-1696,-288,880,-33,25,-7
10605,-1664,-296,872,-38,25,-6
10610,-1672,-304,848,-41,25,-7
10615,-1696,-272,808,-46,25,-6
10620,-1672,-280,832,-52,26,-7
10625,-1704,-272,832,-59,25,-7
10630,-1704,-272,832,-64,22,-6
10635,-1672,-280,904,-68,19,-5
10640,-1672,-264,840,-68,17,-4
10645,-1672,-264,856,-64,14,-4
10650,-1664,-296,856,-61,15,-5
10655,-1672,-272,832,-59,14,-6
10660,-1696,-256,856,-54,13,-5
10665,-1664,-288,872,-51,14,-6
10670,-1688,-296,872,-49,14,-7
10675,-1680,-288,864,-47,12,-7
10680,-1664,-296,864,-45,11,-7
10685,-1696,-264,880,-45,11,-8
10690,-1672,-264,864,-45,8,-8
10695,-1680,-256,864,-46,6,-7
10700,-1672,-280,856,-44,5,-9
10705,-1672,-248,840,-45,6,-10
10710,-1688,-280,840,-46,6,-11
10715,-1672,-288,848,-50,6,-12
10720,-1672,-272,840,-51,8,-11
10725,-1680,-264,856,-54,11,-12
10730,-1672,-288,872,-56,12,-12
10735,-1672,-288,856,-59,14,-12
10740,-1672,-280,864,-61,17,-12
10745,-1672,-288,856,-61,19,-9
10750,-1680,-280,888,-61,19,-9
10755,-1672,-264,880,-61,21,-10
10760,-1672,-264,864,-61,19,-9
10765,-1680,-288,872,-61,19,-8
10770,-1664,-280,856,-61,17,-8
10775,-1656,-280,872,-60,17,-8
10780,-1672,-296,872,-59,16,-7
10785,-1680,-288,864,-59,15,-7
10790,-1672,-304,832,-56,12,-4
10795,-1680,-272,848,-58,11,-6
10800,-1672,-280,856,-61,10,-6
10805,-1664,-264,856,-61,8,-5
10810,-1680,-304,864,-66,6,-5
10815,-1664,-296,864,-70,6,-4
10820,-1664,-288,840,-74,6,-3
10825,-1680,-304,856,-73,5,-4
10830,-1680,-288,880,-69,7,-3
10835,-1680,-304,856,-63,9,-4
10840,-1664,-288,848,-55,12,-3
10845,-1664,-296,824,-50,13,-2
10850,-1688,-280,848,-48,12,-4
10855,-1656,-320,888,-49,10,-6
10860,-1664,-264,856,-50,8,-4
10865,-1672,-280,872,-51,5,-5
10870,-1680,-280,872,-55,3,-5
10875,-1672,-312,872,-56,3,-5
10880,-1688,-288,848,-57,2,-5
10885,-1680,-280,840,-59,3,-4
10890,-1672,-328,864,-61,4,-4
10895,-1680,-304,856,-65,6,-5
10900,-1688,-320,864,-68,8,-6
10905,-1672,-312,840,-71,12,-4
10910,-1664,-312,880,-70,13,-4
10915,-1664,-312,864,-69,15,-4
10920,-1680,-312,872,-62,16,-3
10925,-1664,-320,840,-57,18,-2
10930,-1680,-272,848,-50,20,-4
10935,-1680,-288,864,-45,20,-4
10940,-1664,-296,864,-42,19,-4
10945,-1680,-264,880,-42,18,-5
10950,-1688,-288,872,-44,14,-6
10955,-1664,-288,824,-47,12,-7
10960,-1672,-280,832,-50,10,-9
10965,-1664,-264,864,-51,7,-8
10970,-1680,-264,872,-51,7,-10
10975,-1672,-280,888,-56,3,-12
10980,-1672,-288,872,-57,2,-11
10985,-1672,-304,848,-58,1,-10
10990,-1672,-304,880,-59,0,-10
10995,-1672,-296,888,-59,0,-10
11000,-1680,-280,824,-58,1,-10
11005,-1664,-288,864,-55,3,-9
11010,-1680,-288,880,-53,4,-8
11015,-1672,-288,880,-52,7,-8
11020,-1664,-296,840,-51,8,-8
11025,-1672,-320,880,-51,8,-7
11030,-1656,-296,872,-49,9,-8
11035,-1664,-296,872,-48,9,-9
11040,-1672,-296,896,-47,10,-7
11045,-1664,-296,888,-47,10,-8
11050,-1680,-288,880,-46,10,-7
11055,-1656,-296,848,-46,9,-7
11060,-1680,-272,872,-46,8,-5
11065,-1672,-280,880,-46,5,-8
11070,-1680,-272,864,-44,5,-7
11075,-1680,-272,872,-45,4,-8
11080,-1664,-288,856,-46,5,-7
11085,-1688,-272,840,-49,5,-8
11090,-1672,-288,872,-49,4,-8
11095,-1664,-296,872,-51,3,-9
11100,-1688,-312,896,-52,6,-7
11105,-1672,-264,832,-52,7,-6
11110,-1672,-296,920,-52,10,-5
11115,-1656,-296,848,-51,11,-4
11120,-1672,-312,856,-52,12,-2
11125,-1664,-320,848,-53,13,-2
11130,-1672,-288,856,-53,14,-2
11135,-1672,-280,880,-52,16,-2
11140,-1656,-304,880,-52,17,-2
11145,-1680,-288,872,-54,17,0
11150,-1680,-304,872,-53,20,1
11155,-1680,-280,856,-53,18,1
11160,-1664,-320,864,-53,18,0
11165,-1672,-296,856,-55,18,0
11170,-1616,-336,848,-53,18,1
11175,-1704,-296,856,-54,19,0
11180,-1672,-288,848,-54,21,1
11185,-1672,-304,872,-54,20,2
11190,-1664,-312,880,-53,23,1
11195,-1680,-288,848,-54,25,2
11200,-1672,-304,856,-53,26,1
11205,-1680,-264,864,-52,27,2
11210,-1680,-288,872,-51,29,1
11215,-1672,-280,872,-49,31,3
11220,-1680,-280,856,-47,32,3
11225,-1656,-376,952,-47,33,3
11230,-1664,-288,824,-48,33,2
11235,-1672,-296,864,-48,34,4
11240,-1672,-296,888,-47,35,5
11245,-1688,-288,872,-48,34,4
11250,-1672,-320,872,-47,34,4
11255,-1664,-280,848,-46,34,4
11260,-1664,-288,880,-45,32,6
11265,-1704,-264,848,-45,32,4
11270,-1672,-272,848,-46,31,6
11275,-1672,-288,840,-46,30,5
11280,-1656,-296,864,-45,29,5
11285,-1672,-296,856,-42,27,4
11290,-1680,-296,832,-43,25,3
11295,-1672,-280,824,-42,25,4
11300,-1688,-280,824,-41,24,3
11305,-1712,-288,864,-44,24,3
11310,-1672,-288,848,-42,23,3
11315,-1664,-288,880,-43,23,2
11320,-1872,-272,744,-40,22,2
11325,-1616,-360,768,-39,23,1
11330,-1680,-288,848,-39,22,1
11335,-1688,-288,848,-41,22,0
11340,-1680,-280,848,-41,23,0
11345,-1704,-280,864,-40,23,0
11350,-1688,-288,864,-42,22,0
11355,-1656,-296,856,-43,23,-1
11360,-1672,-296,896,-43,24,0
11365,-1688,-288,848,-42,27,0
11370,-1672,-304,872,-42,29,1
11375,-1680,-272,872,-40,31,2
11380,-1688,-296,864,-43,31,3
11385,-1672,-288,848,-48,30,3
11390,-1688,-288,848,-50,28,4
11395,-1664,-280,864,-47,28,8
11400,-1672,-296,880,-43,29,8
11405,-1664,-304,832,-38,31,7
11410,-1672,-280,856,-33,32,7
11415,-1672,-312,848,-33,31,5
11420,-1680,-304,808,-37,30,2
11425,-1680,-288,840,-38,26,1
11430,-1672,-280,848,-39,22,0
11435,-1672,-264,864,-39,20,-1
11440,-1672,-280,856,-42,16,-1
11445,-1672,-296,824,-43,15,-2
11450,-1680,-288,864,-42,14,-4
11455,-1688,-296,832,-39,13,-3
11460,-1680,-280,800,-38,12,-4
11465,-1680,-312,848,-36,15,-4
11470,-1680,-296,816,-34,16,-6
11475,-1672,-296,840,-33,18,-5
11480,-1688,-280,864,-33,20,-4
11485,-1680,-296,872,-31,21,-3
11490,-1664,-288,880,-31,20,-3
11495,-1680,-288,880,-30,21,-3
11500,-1672,-320,888,-30,19,-1
11505,-1664,-288,848,-33,19,-1
11510,-1672,-304,856,-38,19,0
11515,-1688,-304,856,-42,18,4
11520,-1696,-288,848,-45,19,4
11525,-1680,-296,824,-48,22,5
11530,-1672,-304,832,-51,22,6
11535,-1688,-264,848,-53,22,8
11540,-1688,-272,864,-56,21,8
11545,-1680,-288,864,-57,19,8
11550,-1672,-280,872,-56,19,8
11555,-1656,-312,824,-53,17,7
11560,-1672,-304,848,-47,17,7
11565,-1664,-296,856,-45,16,8
11570,-1672,-280,840,-39,17,6
11575,-1680,-312,880,-38,17,5
11580,-1664,-312,896,-36,19,4
11585,-1664,-296,848,-37,20,3
11590,-1688,-288,872,-34,19,3
11595,-1680,-256,848,-37,20,2
11600,-1664,-272,872,-38,20,2
11605,-1672,-296,856,-39,19,1
11610,-1680,-264,832,-40,19,0
11615,-1696,-264,888,-41,19,0
11620,-1680,-272,872,-40,18,2
11625,-1672,-288,848,-41,20,2
11630,-1688,-272,832,-43,22,2
11635,-1696,-272,848,-43,23,1
11640,-1672,-296,840,-45,26,3
11645,-1672,-264,840,-47,27,4
11650,-1696,-272,872,-47,30,3
11655,-1688,-280,888,-47,30,4
11660,-1672,-280,856,-48,32,6
11665,-1664,-280,856,-49,34,7
11670,-1656,-280,872,-50,34,5
11675,-1672,-264,840,-53,36,5
11680,-1664,-312,856,-56,35,7
11685,-1664,-288,856,-56,34,7
11690,-1672,-288,832,-54,34,8
11695,-1664,-280,864,-53,32,8
11700,-1680,-256,824,-51,33,8
11705,-1688,-304,848,-51,32,8
11710,-1680,-296,840,-52,30,7
11715,-1688,-272,832,-53,26,5
11720,-1712,-264,832,-58,23,5
11725,-1704,-264,840,-61,20,4
11730,-1688,-264,872,-64,18,6
11735,-1688,-296,848,-61,15,6
11740,-1688,-304,840,-59,19,6
11745,-1680,-264,824,-52,22,5
11750,-1664,-288,824,-47,26,5
11755,-1680,-304,832,-43,28,6
11760,-1672,-304,840,-42,25,5
11765,-1680,-272,856,-42,24,5
11770,-1680,-280,864,-42,21,4
11775,-1680,-320,848,-42,20,2
11780,-1680,-288,856,-42,17,1
11785,-1688,-296,848,-40,18,2
11790,-1688,-312,840,-40,18,0
11795,-1680,-288,832,-40,20,0
11800,-1688,-296,840,-42,22,0
11805,-1704,-304,880,-45,23,1
11810,-1680,-288,840,-47,25,1
11815,-1696,-296,856,-50,27,2
11820,-1704,-280,824,-51,29,4
11825,-1680,-272,864,-50,32,5
11830,-1688,-280,856,-48,34,6
11835,-1680,-272,832,-45,36,6
11840,-1672,-288,840,-42,36,7
11845,-1680,-280,848,-35,34,8
11850,-1696,-312,832,-33,34,6
11855,-1680,-296,864,-32,32,5
11860,-1680,-280,848,-33,31,4
11865,-1688,-256,856,-37,30,5
11870,-1696,-280,872,-38,29,6
11875,-1688,-264,832,-39,29,5
11880,-1688,-272,824,-40,29,7
11885,-1704,-288,848,-39,29,6
11890,-1680,-264,864,-41,29,7
11895,-1680,-288,872,-40,31,8
11900,-1704,-272,832,-39,32,8
11905,-1656,-280,832,-39,31,9
11910,-1688,-272,864,-38,33,9
11915,-1672,-280,848,-38,33,9
11920,-1672,-264,848,-37,34,10
11925,-1672,-280,856,-37,34,9
11930,-1696,-240,848,-37,34,10
11935,-1680,-288,856,-38,35,8
11940,-1664,-272,840,-39,35,9
11945,-1696,-248,840,-38,35,9
11950,-1656,-312,840,-39,35,7
11955,-1688,-272,872,-38,33,7
11960,-1688,-288,840,-39,33,8
11965,-1672,-280,840,-37,33,8
11970,-1664,-336,840,-37,32,8
11975,-1680,-272,840,-37,32,7
11980,-1696,-280,824,-36,33,7
11985,-1680,-264,856,-37,31,7
11990,-1696,-264,840,-38,30,7
11995,-1680,-280,816,-39,30,6
12000,-1704,-304,840,-40,30,7
12005,-1672,-288,872,-41,29,7
12010,-1688,-304,840,-41,30,7
12015,-1696,-272,824,-40,30,7
12020,-1672,-296,824,-40,31,7
12025,-1680,-312,840,-40,31,8
12030,-1672,-272,856,-41,32,7
12035,-1688,-288,832,-39,32,8
12040,-1680,-272,816,-40,32,7
12045,-1688,-272,832,-39,32,7
12050,-1696,-272,856,-38,31,7
12055,-1680,-288,840,-37,30,7
12060,-1712,-272,848,-37,30,6
12065,-1680,-280,808,-37,29,6
12070,-1712,-272,848,-38,28,6
12075,-1688,-288,864,-39,27,6
12080,-1712,-264,824,-37,29,6
12085,-1704,-280,848,-38,28,6
12090,-1680,-288,856,-38,28,6
12095,-1688,-336,800,-38,30,6
12100,-1720,-248,832,-37,31,5
12105,-1688,-280,816,-37,31,5
12110,-1688,-280,832,-37,33,4
12115,-1696,-288,848,-36,34,4
12120,-1744,-248,824,-33,36,4
12125,-1680,-264,856,-33,38,4
12130,-1696,-288,824,-31,39,4
12135,-1688,-288,832,-29,42,4
12140,-1680,-272,848,-28,43,4
12145,-1680,-248,840,-26,44,4
12150,-1712,-256,832,-26,44,5
12155,-1696,-256,840,-26,45,4
12160,-1680,-272,864,-26,45,5
12165,-1672,-256,832,-27,42,6
12170,-1680,-248,832,-27,41,6
12175,-1704,-248,840,-29,39,6
12180,-1672,-248,848,-31,37,4
12185,-1696,-248,816,-33,34,4
12190,-1688,-280,816,-32,34,4
12195,-1672,-272,840,-32,35,6
12200,-1680,-264,832,-30,34,4
12205,-1816,-280,872,-29,33,3
12210,-1680,-272,840,-31,34,2
12215,-1680,-272,840,-34,33,2
12220,-1696,-264,848,-38,34,1
12225,-1696,-264,856,-41,33,3
12230,-1648,-280,840,-40,37,2
12235,-1696,-272,832,-41,39,2
12240,-1688,-272,824,-39,39,3
12245,-1672,-264,824,-39,38,4
12250,-1680,-248,824,-38,38,4
12255,-1688,-264,832,-43,34,4
12260,-1680,-272,808,-46,31,3
12265,-1680,-272,848,-49,31,3
12270,-1704,-272,840,-49,32,4
12275,-1640,-256,888,-46,35,4
12280,-1688,-264,800,-39,35,3
12285,-1688,-272,792,-33,37,2
12290,-1680,-272,816,-27,35,-1
12295,-1688,-256,848,-27,28,-3
12300,-1680,-264,808,-28,22,-6
12305,-1704,-232,848,-28,14,-10
12310,-1712,-232,824,-29,10,-13
12315,-1720,-240,840,-32,5,-15
12320,-1728,-248,832,-37,0,-17
12325,-1712,-256,792,-41,-4,-20
12330,-1712,-264,808,-43,-5,-20
12335,-1720,-264,800,-43,-5,-19
12340,-1704,-304,816,-42,-3,-19
12345,-1688,-280,808,-39,-2,-17
12350,-1672,-240,824,-35,-1,-17
12355,-1672,-272,816,-34,0,-15
12360,-1752,-216,832,-31,-1,-14
12365,-1680,-288,824,-32,-2,-14
12370,-1688,-288,864,-32,-1,-14
12375,-1696,-296,840,-33,1,-13
12380,-1680,-288,872,-35,4,-13
12385,-1680,-224,864,-37,7,-11
12390,-1712,-288,872,-40,11,-10
12395,-1720,-272,824,-44,13,-8
12400,-1712,-256,824,-48,17,-7
12405,-1696,-264,824,-49,17,-6
12410,-1712,-232,824,-49,15,-5
12415,-1696,-256,848,-48,13,-4
12420,-1712,-264,832,-47,11,-3
12425,-1696,-256,832,-44,8,-5
12430,-1696,-248,816,-40,6,-4
12435,-1672,-288,840,-37,4,-4
12440,-1696,-280,816,-34,2,-5
12445,-1664,-280,832,-33,0,-6
12450,-1696,-248,840,-35,-1,-7
12455,-1688,-248,856,-37,-2,-8
12460,-1704,-232,888,-39,-2,-9
12465,-1672,-256,872,-41,-3,-11
12470,-1688,-256,840,-43,-4,-11
12475,-1688,-248,848,-43,-3,-12
12480,-1688,-264,848,-45,-3,-13
12485,-1688,-264,840,-43,-3,-14
12490,-1680,-256,856,-43,-3,-14
12495,-1704,-264,856,-41,-2,-14
12500,-1688,-304,824,-41,-3,-15
12505,-1680,-272,840,-40,-3,-14
12510,-1680,-256,872,-40,-2,-15
12515,-1680,-264,824,-41,-1,-14
12520,-1696,-272,840,-42,0,-14
12525,-1672,-296,840,-44,3,-14
12530,-1680,-256,832,-44,5,-14
12535,-1712,-280,840,-45,6,-14
12540,-1680,-256,848,-47,8,-15
12545,-1696,-256,824,-48,8,-14
12550,-1696,-272,832,-50,7,-13
12555,-1696,-264,872,-48,7,-13
12560,-1688,-272,840,-46,3,-13
12565,-1664,-280,808,-46,1,-12
12570,-1696,-288,840,-45,-1,-13
12575,-1712,-264,848,-43,-3,-13
12580,-1688,-264,832,-45,-6,-15
12585,-1736,-248,808,-50,-7,-13
12590,-1704,-256,824,-56,-10,-14
12595,-1688,-240,848,-61,-12,-15
12600,-1688,-264,856,-65,-14,-16
12605,-1704,-280,848,-66,-13,-14
12610,-1664,-296,832,-65,-13,-14
12615,-1696,-296,840,-61,-8,-12
12620,-1680,-280,824,-55,-4,-11
12625,-1696,-312,808,-50,-1,-11
12630,-1664,-280,832,-47,0,-10
12635,-1688,-288,856,-44,0,-10
12640,-1672,-272,856,-43,-1,-11
12645,-1680,-248,880,-45,-2,-11
12650,-1688,-264,824,-46,-4,-13
12655,-1688,-264,832,-45,-4,-13
12660,-1696,-288,856,-44,-5,-16
12665,-1648,-344,880,-42,-5,-14
12670,-1688,-280,808,-43,-1,-13
12675,-1680,-280,856,-43,1,-12
12680,-1704,-256,832,-47,3,-11
12685,-1704,-288,864,-50,5,-10
12690,-1680,-296,872,-53,6,-9
12695,-1680,-296,840,-57,6,-8
12700,-1688,-280,848,-54,9,-7
12705,-1688,-272,856,-52,10,-5
12710,-1672,-280,856,-50,11,-5
12715,-1688,-288,832,-44,11,-5
12720,-1696,-272,848,-38,11,-6
12725,-1680,-264,824,-34,10,-6
12730,-1696,-256,840,-33,10,-7
12735,-1688,-264,840,-35,7,-8
12740,-1696,-280,864,-38,5,-9
12745,-1688,-264,840,-41,4,-11
12750,-1672,-280,848,-43,4,-11
12755,-1696,-256,880,-45,1,-11
12760,-1688,-280,840,-47,1,-13
12765,-1672,-248,872,-48,1,-13
12770,-1696,-264,856,-47,-1,-14
12775,-1672,-288,816,-47,0,-13
12780,-1672,-304,872,-46,2,-12
12785,-1664,-280,840,-46,3,-11
12790,-1672,-272,840,-47,4,-11
12795,-1680,-264,856,-43,5,-11
12800,-1664,-288,872,-43,8,-12
12805,-1680,-264,856,-41,10,-12
12810,-1672,-264,872,-42,11,-13
12815,-1688,-264,864,-42,11,-12
12820,-1656,-288,832,-40,9,-13
12825,-1672,-256,872,-42,9,-14
12830,-1720,-280,832,-44,10,-12
12835,-1672,-280,864,-42,10,-12
12840,-1688,-248,824,-43,8,-13
12845,-1672,-264,832,-42,8,-14
12850,-1672,-296,840,-42,8,-14
12855,-1712,-280,816,-42,7,-12
12860,-1680,-256,856,-40,7,-14
12865,-1672,-272,856,-40,4,-15
12870,-1680,-272,832,-40,2,-13
12875,-1688,-264,840,-41,0,-13
12880,-1680,-280,864,-43,-1,-14
12885,-1664,-272,856,-44,-2,-15
12890,-1688,-256,832,-45,-2,-13
12895,-1688,-256,824,-46,0,-14
12900,-1688,-272,848,-47,-2,-13
12905,-1696,-280,832,-46,0,-13
12910,-1696,-288,840,-48,0,-12
12915,-1704,-264,840,-51,-2,-12
12920,-1704,-280,840,-52,-3,-10
12925,-1704,-288,848,-52,-4,-10
12930,-1696,-280,832,-52,-3,-11
12935,-1688,-264,848,-52,-3,-11
12940,-1688,-280,840,-54,-1,-12
12945,-1696,-264,840,-52,0,-12
12950,-1672,-280,864,-53,0,-10
12955,-1680,-280,840,-54,1,-11
12960,-1696,-272,840,-56,2,-11
12965,-1672,-288,840,-56,1,-10
12970,-1688,-272,864,-58,3,-10
12975,-1696,-296,832,-57,4,-11
12980,-1688,-280,848,-58,3,-10
12985,-1688,-296,848,-57,5,-9
12990,-1672,-264,840,-57,5,-9
12995,-1680,-296,872,-54,5,-9
13000,-1688,-272,848,-54,5,-9
13005,-1672,-272,832,-53,5,-10
13010,-1680,-272,848,-52,4,-10
13015,-1680,-288,824,-51,3,-12
13020,-1672,-272,848,-54,0,-11
13025,-1696,-272,832,-53,0,-12
13030,-1680,-280,864,-53,-2,-13
13035,-1672,-272,856,-52,-3,-13
13040,-1680,-280,856,-53,-4,-13
13045,-1696,-272,848,-53,-5,-14
13050,-1688,-288,880,-52,-6,-10
13055,-1664,-288,872,-53,-9,-12
13060,-1680,-288,832,-52,-9,-12
13065,-1680,-288,864,-51,-9,-12
13070,-1680,-288,840,-49,-9,-12
13075,-1664,-208,824,-47,-6,-11
13080,-1672,-304,816,-47,-6,-12
13085,-1664,-280,864,-46,-4,-12
13090,-1688,-296,848,-48,-4,-14
13095,-1680,-264,840,-48,-2,-13
13100,-1672,-304,880,-48,0,-15
13105,-1680,-288,880,-49,1,-14
13110,-1656,-304,840,-47,3,-13
13115,-1680,-272,864,-47,3,-13
13120,-1672,-280,880,-48,2,-13
13125,-1656,-296,880,-50,2,-13
13130,-1720,-336,872,-57,0,-13
13135,-1688,-264,872,-60,0,-14
13140,-1680,-296,856,-60,0,-13
13145,-1664,-296,840,-57,0,-13
13150,-1664,-312,848,-51,2,-13
13155,-1664,-280,864,-47,4,-13
13160,-1664,-280,848,-45,3,-14
13165,-1672,-288,864,-44,2,-15
13170,-1664,-296,864,-43,0,-17
13175,-1696,-272,856,-44,-3,-19
13180,-1680,-280,856,-46,-6,-20
13185,-1648,-264,848,-48,-7,-21
13190,-1664,-288,856,-50,-10,-21
13195,-1672,-272,840,-51,-11,-21
13200,-1688,-264,824,-50,-9,-21
13205,-1696,-312,856,-45,-7,-21
13210,-1720,-288,856,-41,-5,-20
13215,-1672,-304,848,-35,-1,-19
13220,-1664,-312,848,-32,4,-20
13225,-1680,-304,832,-28,7,-19
13230,-1656,-296,832,-25,7,-16
13235,-1672,-272,848,-21,8,-16
13240,-1672,-280,888,-19,9,-15
13245,-1664,-296,856,-19,7,-16
13250,-1680,-304,824,-22,3,-16
13255,-1664,-304,848,-25,1,-14
13260,-1656,-312,864,-30,0,-15
13265,-1672,-296,848,-40,-2,-15
13270,-1680,-280,840,-48,-3,-14
13275,-1680,-296,816,-55,-4,-12
13280,-1664,-296,832,-59,-7,-12
13285,-1688,-280,856,-67,-9,-10
13290,-1672,-280,872,-70,-9,-11
13295,-1672,-288,872,-72,-9,-11
13300,-1688,-280,856,-72,-9,-11
13305,-1672,-304,872,-70,-7,-10
13310,-1712,-296,880,-65,-5,-9
13315,-1664,-296,904,-62,-3,-9
13320,-1680,-296,864,-56,-1,-10
13325,-1664,-296,880,-53,1,-11
13330,-1656,-296,856,-51,2,-11
13335,-1656,-288,888,-49,2,-9
13340,-1672,-288,832,-46,1,-11
13345,-1664,-312,856,-44,1,-11
13350,-1664,-272,872,-42,1,-13
13355,-1680,-304,856,-42,-1,-13
13360,-1664,-280,872,-44,-3,-14
13365,-1656,-296,888,-45,-5,-14
13370,-1664,-280,888,-48,-6,-16
13375,-1664,-288,848,-49,-7,-16
13380,-1672,-296,864,-53,-8,-16
13385,-1680,-280,856,-54,-9,-16
13390,-1664,-280,856,-57,-5,-15
13395,-1680,-288,896,-58,-5,-13
13400,-1664,-280,864,-60,-1,-12
13405,-1672,-272,856,-59,2,-12
13410,-1680,-304,840,-58,4,-10
13415,-1680,-288,872,-57,6,-9
13420,-1672,-304,864,-55,8,-9
13425,-1664,-304,848,-54,11,-8
13430,-1680,-256,840,-51,12,-8
13435,-1672,-280,848,-50,12,-7
13440,-1664,-280,864,-48,12,-8
13445,-1664,-320,848,-48,12,-8
13450,-1680,-288,888,-48,11,-8
13455,-1664,-280,880,-47,11,-9
13460,-1672,-304,832,-52,9,-9
13465,-1664,-272,848,-57,7,-11
13470,-1672,-280,864,-62,2,-11
13475,-1664,-280,864,-68,-2,-12
13480,-1672,-296,864,-69,-3,-11
13485,-1664,-304,832,-69,-4,-9
13490,-1664,-296,856,-62,-2,-10
13495,-1656,-288,856,-55,1,-9
13500,-1656,-312,864,-53,3,-8
13505,-1656,-304,848,-49,4,-9
13510,-1672,-296,864,-47,7,-10
13515,-1664,-312,864,-49,5,-11
13520,-1680,-304,856,-48,2,-11
13525,-1672,-320,864,-47,2,-11
13530,-1688,-280,864,-48,2,-12
13535,-1672,-296,864,-46,3,-11
13540,-1672,-288,856,-46,4,-10
13545,-1680,-280,856,-46,7,-9
13550,-1664,-312,912,-49,9,-8
13555,-1664,-304,864,-50,12,-6
13560,-1672,-304,872,-54,12,-7
13565,-1664,-280,872,-55,12,-6
13570,-1672,-312,856,-58,12,-6
13575,-1656,-280,872,-56,13,-6
13580,-1672,-272,880,-50,13,-6
13585,-1664,-296,848,-48,12,-5
13590,-1688,-264,856,-45,12,-6
13595,-1672,-312,880,-44,10,-6
13600,-1688,-288,896,-41,6,-6
13605,-1672,-272,896,-39,5,-7
13610,-1656,-264,856,-43,1,-9
13615,-1656,-288,832,-43,0,-10
13620,-1664,-280,840,-49,-3,-12
13625,-1664,-280,872,-53,-5,-13
13630,-1680,-280,888,-54,-6,-12
13635,-1672,-296,880,-54,-7,-11
13640,-1680,-288,864,-58,-8,-12
13645,-1664,-304,840,-62,-9,-13
13650,-1680,-288,856,-67,-8,-13
13655,-1664,-280,888,-66,-9,-11
13660,-1664,-296,904,-64,-5,-10
13665,-1664,-320,840,-62,-2,-10
13670,-1656,-304,920,-59,3,-10
13675,-1664,-312,896,-55,5,-9
13680,-1656,-296,872,-50,8,-9
13685,-1648,-272,896,-50,10,-10
13690,-1688,-304,912,-42,16,-2
13695,-1688,-304,880,-36,15,-2
13700,-1656,-320,856,-37,16,-8
13705,-1664,-304,856,-43,16,-9
13710,-1664,-304,880,-41,14,-9
13715,-1648,-288,856,-38,13,-9
13720,-1664,-304,832,-38,11,-10
13725,-1664,-280,872,-38,7,-9
13730,-1672,-280,864,-38,5,-10
13735,-1664,-280,848,-39,1,-11
13740,-1656,-272,864,-43,-3,-11
13745,-1672,-288,856,-46,-5,-11
13750,-1672,-288,888,-50,-6,-11
13755,-1680,-296,864,-52,-9,-11
13760,-1664,-288,856,-57,-9,-10
13765,-1664,-320,888,-60,-9,-11
13770,-1664,-304,880,-61,-6,-9
13775,-1688,-304,896,-61,-4,-9
13780,-1664,-296,864,-61,-2,-9
13785,-1656,-328,888,-63,1,-11
13790,-1672,-312,880,-62,4,-9
13795,-1664,-312,888,-62,7,-7
13800,-1680,-304,848,-63,10,-5
13805,-1680,-296,872,-61,12,-3
13810,-1656,-288,888,-58,16,-4
13815,-1648,-312,840,-59,15,-3
13820,-1664,-328,864,-61,14,-2
13825,-1672,-288,880,-59,15,-2
13830,-1656,-304,848,-58,17,-1
13835,-1672,-296,864,-58,17,0
13840,-1688,-264,904,-58,18,-2
13845,-1664,-296,904,-58,17,-1
13850,-1688,-336,872,-56,19,0
13855,-1664,-272,872,-57,21,-1
13860,-1680,-288,880,-56,20,0
13865,-1688,-280,872,-54,20,2
13870,-1664,-296,872,-55,20,2
13875,-1696,-296,872,-55,18,2
13880,-1664,-288,904,-56,17,4
13885,-1664,-296,888,-58,16,5
13890,-1672,-304,864,-58,15,4
13895,-1672,-296,880,-59,15,4
13900,-1648,-312,880,-60,14,4
13905,-1672,-320,872,-60,15,5
13910,-1656,-304,856,-60,16,5
13915,-1672,-304,920,-60,19,5
13920,-1672,-288,888,-59,21,6
13925,-1664,-288,880,-57,23,8
13930,-1672,-328,896,-55,26,8
13935,-1672,-328,872,-56,28,8
13940,-1672,-296,848,-54,29,8
13945,-1680,-288,864,-55,30,8
13950,-1664,-304,928,-55,29,9
13955,-1672,-288,920,-54,29,9
13960,-1664,-304,880,-55,28,10
13965,-1656,-296,880,-53,26,11
13970,-1656,-288,856,-52,24,9
13975,-1680,-288,864,-53,23,9
13980,-1664,-272,896,-51,21,7
13985,-1664,-312,864,-50,21,6
13990,-1664,-296,872,-51,21,7
13995,-1680,-304,872,-51,20,6
14000,-1672,-296,848,-51,20,5
14005,-1632,-336,824,-48,20,4
14010,-1672,-280,864,-46,20,4
14015,-1672,-296,904,-47,21,3
14020,-1664,-312,856,-48,22,3
14025,-1664,-312,872,-49,23,2
14030,-1688,-296,880,-50,26,4
14035,-1656,-320,920,-51,30,5
14040,-1656,-304,848,-51,30,6
14045,-1664,-304,896,-50,33,7
14050,-1664,-312,872,-50,34,9
14055,-1664,-288,872,-50,36,9
14060,-1616,-264,832,-51,36,10
14065,-1656,-296,880,-54,36,12
14070,-1664,-296,832,-54,39,11
14075,-1664,-288,880,-49,40,13
14080,-1672,-288,872,-45,41,14
14085,-1648,-312,856,-40,45,13
14090,-1680,-312,888,-38,44,14
14095,-1664,-296,896,-38,43,12
14100,-1656,-256,872,-38,41,9
14105,-1672,-280,872,-39,36,7
14110,-1616,-208,856,-40,33,6
14115,-1688,-256,856,-43,31,4
14120,-1680,-296,848,-44,30,4
14125,-1688,-288,848,-44,28,3
14130,-1672,-296,824,-45,26,4
14135,-1672,-296,888,-42,25,3
14140,-1672,-288,856,-39,26,2
14145,-1672,-296,840,-36,28,2
14150,-1680,-312,888,-35,29,1
14155,-1664,-312,864,-35,31,4
14160,-1664,-312,872,-36,32,5
14165,-1672,-304,896,-37,31,5
14170,-1664,-320,888,-36,31,5
14175,-1672,-288,880,-34,31,5
14180,-1688,-312,856,-31,31,4
14185,-1696,-312,904,-33,31,5
14190,-1704,-304,848,-36,32,7
14195,-1688,-328,856,-40,34,8
14200,-1672,-304,848,-44,35,11
14205,-1664,-296,832,-47,37,12
14210,-1680,-256,848,-49,37,12
14215,-1688,-288,872,-52,36,13
14220,-1680,-280,864,-56,35,14
14225,-1680,-272,880,-59,32,13
14230,-1688,-264,840,-58,29,12
14235,-1664,-304,840,-56,27,10
14240,-1672,-272,880,-51,27,9
14245,-1640,-288,880,-49,27,10
14250,-1656,-320,848,-45,25,10
14255,-1672,-304,872,-42,25,9
14260,-1656,-296,864,-41,26,8
14265,-1664,-288,904,-40,25,7
14270,-1664,-296,888,-39,24,8
14275,-1664,-304,888,-42,25,8
14280,-1672,-280,888,-41,25,9
14285,-1648,-272,872,-40,26,8
14290,-1664,-296,880,-41,25,7
14295,-1648,-288,872,-41,27,7
14300,-1672,-280,840,-41,28,6
14305,-1672,-256,856,-42,30,7
14310,-1672,-280,872,-44,31,7
14315,-1672,-280,872,-45,31,6
14320,-1680,-280,896,-45,34,7
14325,-1672,-264,840,-45,36,7
14330,-1672,-280,856,-44,37,8
14335,-1672,-280,848,-44,37,10
14340,-1680,-264,840,-44,37,9
14345,-1680,-280,840,-47,35,9
14350,-1688,-280,808,-47,35,10
14355,-1664,-320,832,-47,32,10
14360,-1680,-304,840,-47,30,10
14365,-1680,-280,848,-48,28,11
14370,-1664,-288,856,-48,25,10
14375,-1680,-304,872,-49,23,10
14380,-1672,-296,848,-50,20,11
14385,-1680,-280,856,-50,20,10
14390,-1672,-272,840,-55,20,9
14395,-1672,-296,872,-57,19,9
14400,-1696,-272,872,-59,18,8
14405,-1688,-288,848,-63,17,7
14410,-1672,-304,864,-62,17,9
14415,-1664,-296,856,-62,19,10
14420,-1672,-320,856,-59,20,10
14425,-1672,-336,840,-53,24,12
14430,-1664,-320,840,-47,27,12
14435,-1688,-296,840,-43,31,11
14440,-1672,-280,840,-42,31,10
14445,-1704,-280,848,-40,31,10
14450,-1656,-296,848,-40,29,9
14455,-1672,-272,864,-40,29,10
14460,-1672,-288,848,-38,29,8
14465,-1704,-280,872,-38,30,9
14470,-1688,-336,856,-39,30,10
14475,-1680,-320,880,-38,33,11
14480,-1688,-288,864,-38,34,12
14485,-1680,-288,880,-41,35,12
14490,-1688,-272,832,-43,37,11
14495,-1672,-288,856,-46,37,12
14500,-1696,-296,840,-44,39,13
14505,-1680,-272,872,-45,41,13
14510,-1704,-272,824,-44,43,14
14515,-1680,-288,824,-41,44,12
14520,-1672,-312,856,-39,44,14
14525,-1680,-272,848,-36,43,14
14530,-1688,-288,832,-33,43,13
14535,-1680,-280,824,-31,41,13
14540,-1680,-296,880,-31,38,13
14545,-1664,-248,888,-35,37,11
14550,-1664,-264,872,-39,33,11
14555,-1680,-280,856,-41,35,10
14560,-1672,-272,848,-43,33,8
14565,-1696,-264,864,-43,31,7
14570,-1664,-296,872,-44,33,8
14575,-1704,-280,824,-45,35,8
14580,-1672,-288,840,-42,35,8
14585,-1680,-280,856,-40,37,9
14590,-1680,-296,856,-35,39,9
14595,-1680,-264,864,-35,41,11
14600,-1672,-288,864,-33,40,12
14605,-1680,-280,856,-32,42,12
14610,-1672,-288,816,-31,42,11
14615,-1680,-280,872,-32,40,11
14620,-1664,-264,856,-33,40,10
14625,-1680,-264,848,-31,39,9
14630,-1664,-296,848,-33,37,9
14635,-1664,-280,840,-35,35,8
14640,-1688,-256,824,-36,31,7
14645,-1680,-264,824,-36,31,7
14650,-1672,-280,848,-36,29,7
14655,-1688,-272,840,-34,29,6
14660,-1688,-296,832,-34,26,6
14665,-1680,-272,864,-34,26,7
14670,-1688,-296,832,-33,25,7
14675,-1680,-264,856,-35,24,6
14680,-1680,-288,808,-37,22,6
14685,-1680,-272,808,-39,19,7
14690,-1680,-256,848,-42,18,8
14695,-1688,-256,848,-44,17,7
14700,-1672,-272,816,-45,15,5
14705,-1696,-272,848,-46,16,4
14710,-1696,-280,832,-48,15,4
14715,-1672,-288,840,-48,16,4
14720,-1672,-296,808,-48,16,4
14725,-1680,-280,824,-50,16,4
14730,-1688,-264,816,-49,18,4
14735,-1672,-280,848,-51,17,3
14740,-1664,-264,848,-48,17,3
14745,-1664,-280,848,-49,16,2
14750,-1664,-304,824,-44,15,4
14755,-1688,-288,848,-36,11,2
14760,-1672,-280,864,-45,15,1
14765,-1688,-272,848,-46,16,1
14770,-1696,-272,848,-44,18,1
14775,-1736,-256,856,-43,20,0
14780,-1688,-256,856,-46,20,0
14785,-1680,-296,832,-48,22,1
14790,-1680,-272,816,-47,23,-1
14795,-1704,-280,872,-47,24,1
14800,-1696,-280,848,-44,26,3
14805,-1696,-264,840,-44,26,3
14810,-1688,-256,832,-45,25,3
14815,-1672,-272,840,-43,26,5
14820,-1696,-272,856,-43,24,7
14825,-1720,-280,840,-42,24,7
14830,-1680,-280,848,-40,26,7
14835,-1680,-288,848,-35,27,7
14840,-1712,-264,864,-31,27,9
14845,-1704,-272,848,-32,28,9
14850,-1712,-264,832,-34,29,8
14855,-1696,-288,824,-37,31,9
14860,-1704,-272,832,-39,32,8
14865,-1688,-264,856,-42,35,10
14870,-1672,-272,864,-44,38,11
14875,-1704,-256,856,-43,41,12
14880,-1672,-272,832,-42,41,13
14885,-1672,-264,856,-43,41,14
14890,-1712,-256,880,-42,41,13
14895,-1688,-288,864,-46,40,14
14900,-1680,-248,824,-50,38,13
14905,-1680,-280,840,-53,37,11
14910,-1672,-264,832,-51,38,12
14915,-1672,-304,848,-45,39,11
14920,-1696,-264,840,-38,43,10
14925,-1680,-232,832,-31,44,7
14930,-1688,-256,840,-28,43,8
14935,-1680,-264,824,-25,39,5
14940,-1680,-248,832,-27,35,3
14945,-1672,-272,824,-26,30,0
14950,-1680,-264,816,-29,25,-1
14955,-1696,-264,824,-33,20,-3
14960,-1712,-264,848,-37,19,-3
14965,-1688,-272,840,-41,17,-3
14970,-1680,-296,840,-41,19,-3
14975,-1712,-280,848,-37,20,-4
14980,-1704,-272,840,-35,26,-3
14985,-1768,-264,848,-31,28,-2
14990,-1696,-280,856,-27,31,0
14995,-1688,-288,832,-24,34,0
