timestamp,accel_x,accel_y,accel_z,gyro_x,gyro_y,gyro_z
0,72,-2032,-336,-2,68,-20
5,80,-2048,-304,-1,67,-20
10,104,-2048,-288,1,67,-19
15,88,-2048,-312,4,66,-20
20,112,-2032,-312,3,66,-20
25,104,-2032,-264,6,67,-21
30,88,-2040,-320,7,68,-20
35,104,-2048,-328,9,66,-18
40,80,-2008,-304,9,66,-17
45,104,-2040,-304,11,68,-18
50,112,-2040,-320,13,69,-16
55,104,-2024,-296,13,68,-15
60,120,-2032,-312,14,69,-13
65,88,-2024,-304,15,69,-14
70,88,-2000,-312,14,68,-12
75,104,-2016,-296,16,69,-13
80,112,-2024,-296,13,70,-11
85,112,-2016,-320,12,71,-12
90,96,-2016,-296,11,70,-9
95,112,-2032,-296,10,69,-9
100,120,-2008,-304,9,69,-8
105,96,-2040,-280,8,70,-9
110,112,-2024,-304,6,69,-6
115,104,-2016,-296,6,67,-9
120,96,-2024,-320,3,67,-9
125,128,-2048,-312,3,67,-11
130,104,-2024,-320,3,68,-11
135,96,-2032,-320,2,68,-13
140,96,-2016,-288,0,70,-12
145,112,-2008,-312,0,68,-13
150,112,-2016,-304,1,68,-12
155,144,-2048,-304,4,68,-13
160,104,-1992,-320,5,68,-10
165,128,-2032,-328,6,69,-10
170,112,-2040,-312,7,67,-7
175,120,-2040,-328,7,66,-8
180,96,-2000,-304,8,66,-5
185,128,-2048,-328,8,66,-5
190,112,-2024,-304,7,66,-4
195,104,-2032,-312,7,66,-6
200,120,-2032,-304,6,65,-3
205,96,-2024,-336,7,65,-4
210,128,-2048,-296,7,66,1
215,112,-2048,-320,9,66,-1
220,112,-2048,-336,10,65,3
225,104,-2048,-264,11,63,2
230,104,-2040,-312,14,63,4
235,112,-2064,-296,15,62,0
240,88,-2040,-304,17,62,2
245,104,-2048,-296,17,62,0
250,96,-2048,-296,18,61,1
255,104,-2032,-328,17,60,-4
260,88,-2048,-296,16,60,-3
265,88,-2032,-272,17,59,-5
270,96,-2032,-312,18,58,-3
275,72,-2024,-288,19,59,-4
280,88,-2024,-312,20,57,1
285,104,-2040,-312,21,57,1
290,104,-2032,-312,23,57,4
295,80,-2048,-296,24,57,2
300,96,-2024,-272,26,59,6
305,80,-2040,-272,26,57,4
310,88,-2032,-288,25,57,8
315,136,-2040,-288,26,56,5
320,96,-2008,-272,27,56,10
325,120,-2056,-288,28,55,7
330,104,-2040,-256,28,55,8
335,96,-2032,-296,28,54,6
340,120,-2048,-304,29,55,8
345,120,-2040,-296,29,58,6
350,104,-2032,-280,30,57,8
355,120,-2048,-296,30,58,4
360,104,-2032,-272,31,57,7
365,72,-2032,-296,30,56,3
370,104,-2056,-280,30,57,5
375,120,-2040,-296,29,56,0
380,88,-2048,-256,31,58,3
385,96,-2040,-256,33,59,1
390,120,-2040,-272,33,59,4
395,96,-2016,-296,32,59,2
400,88,-2040,-248,33,60,5
405,112,-2048,-264,33,60,3
410,104,-2064,-272,34,59,6
415,112,-2040,-272,33,59,3
420,80,-2048,-288,33,62,6
425,88,-2048,-264,34,61,2
430,88,-2048,-296,32,64,4
435,96,-2024,-264,31,63,1
440,104,-2040,-264,30,63,4
445,96,-2024,-304,30,61,2
450,88,-2040,-288,28,63,3
455,96,-2008,-272,27,61,2
460,72,-2032,-256,27,61,4
465,112,-2048,-280,27,61,2
470,104,-2016,-272,26,63,5
475,96,-2024,-256,24,63,3
480,72,-2040,-264,23,65,3
485,96,-2016,-256,23,65,0
490,112,-2040,-288,22,66,2
495,88,-2024,-264,22,67,-3
500,120,-2024,-272,22,68,-1
505,104,-2056,-240,21,70,-1
510,104,-2040,-280,20,71,0
515,104,-2024,-296,20,69,-4
520,88,-2024,-264,19,71,-2
525,96,-2024,-256,20,72,-3
530,104,-2032,-264,18,74,-1
535,120,-2040,-288,18,73,-4
540,96,-2032,-264,15,72,-3
545,88,-2032,-280,12,71,-5
550,72,-2032,-296,10,71,-4
555,80,-2024,-272,10,70,-7
560,120,-2040,-248,8,70,-5
565,88,-2056,-240,8,70,-6
570,80,-2024,-264,8,68,-5
575,72,-2024,-280,10,68,-7
580,96,-2040,-272,10,68,-5
585,96,-2032,-280,11,67,-5
590,96,-2040,-264,11,67,-2
595,104,-2032,-264,12,67,-3
600,96,-2040,-232,14,66,-1
605,96,-2016,-248,14,68,-1
610,96,-2048,-280,14,69,2
615,104,-2048,-248,12,69,1
620,96,-2040,-256,13,70,4
625,128,-2064,-264,13,71,2
630,72,-2048,-256,14,71,5
635,96,-2016,-240,13,70,3
640,96,-2016,-224,11,73,4
645,104,-2024,-240,10,73,3
650,104,-2032,-288,10,74,4
655,88,-2024,-256,8,71,2
660,80,-2024,-248,7,71,2
665,80,-2024,-264,5,69,-1
670,88,-2032,-248,3,67,1
675,88,-2040,-240,2,67,-3
680,64,-2024,-272,1,65,-4
685,96,-2040,-256,0,64,-7
690,80,-2016,-240,-1,65,-8
695,88,-2016,-256,-3,64,-9
700,104,-2032,-248,-4,65,-9
705,96,-2040,-256,-5,63,-11
710,104,-2016,-240,-6,64,-10
715,120,-2048,-264,-6,63,-12
720,96,-2032,-272,-4,61,-11
725,104,-2048,-256,-3,62,-13
730,80,-2032,-240,-1,61,-12
735,104,-2056,-264,0,60,-13
740,104,-2056,-264,2,60,-12
745,88,-2048,-240,3,60,-11
750,88,-2048,-248,4,60,-9
755,104,-2032,-272,5,60,-10
760,112,-2040,-240,6,59,-7
765,96,-2048,-224,9,60,-5
770,104,-2056,-264,10,60,-3
775,120,-2056,-264,13,61,0
780,104,-2048,-256,15,59,2
785,112,-2040,-256,18,60,4
790,104,-2048,-272,19,60,5
795,112,-2064,-248,16,61,3
800,104,-2064,-248,15,62,3
805,112,-2040,-216,13,61,1
810,72,-2032,-280,12,60,0
815,96,-2040,-248,9,60,-1
820,112,-2016,-224,7,61,-2
825,88,-2048,-232,6,60,-3
830,80,-2024,-264,4,60,-5
835,96,-2024,-248,3,59,-3
840,88,-2040,-240,3,59,-2
845,88,-2032,-264,0,60,-3
850,88,-2048,-248,1,59,-1
855,88,-1992,-224,1,59,0
860,88,-2032,-240,-1,60,1
865,96,-2024,-272,-2,58,1
870,80,-2024,-264,-2,59,1
875,96,-2040,-240,-3,60,2
880,104,-2024,-248,-5,60,1
885,104,-2032,-232,-5,58,3
890,80,-2040,-240,-5,60,3
895,160,-2024,-248,-4,60,3
900,72,-2032,-272,-2,60,2
905,160,-2056,-192,-4,61,1
910,112,-2048,-216,-3,60,1
915,144,-2072,-224,-4,62,1
920,112,-2040,-256,-4,62,-2
925,80,-2048,-256,-3,61,-4
930,96,-2040,-256,-5,61,-5
935,104,-2048,-264,-5,61,-3
940,96,-2040,-248,-4,63,-3
945,88,-2024,-248,-5,62,-4
950,88,-2016,-224,-5,63,-4
955,88,-2024,-248,-6,63,-3
960,104,-2040,-264,-6,61,-3
965,88,-2032,-248,-8,62,-3
970,88,-2040,-272,-5,61,-3
975,96,-2040,-232,-6,60,-2
980,112,-2048,-232,-6,61,-5
985,112,-2056,-256,-7,61,-3
990,88,-2040,-224,-7,61,-6
995,104,-2040,-264,-7,61,-3
1000,96,-2024,-224,-7,62,-5
1005,112,-2032,-256,-10,62,-3
1010,80,-2024,-264,-10,63,-2
1015,104,-2040,-240,-10,62,-2
1020,96,-2032,-240,-11,62,-3
1025,104,-2056,-264,-8,63,-1
1030,88,-2016,-272,-10,64,-3
1035,96,-2024,-224,-11,65,0
1040,88,-2016,-248,-11,66,-3
1045,104,-2064,-232,-11,67,-2
1050,96,-2032,-224,-10,67,-4
1055,112,-2048,-240,-11,66,-2
1060,88,-2040,-232,-11,68,-3
1065,88,-2032,-232,-11,67,-3
1070,88,-2024,-224,-13,67,-6
1075,96,-2056,-240,-13,66,-4
1080,80,-2040,-240,-13,66,-5
1085,120,-2040,-248,-13,66,-3
1090,48,-2000,-216,-14,64,-6
1095,96,-2048,-240,-16,64,-6
1100,88,-2056,-216,-16,63,-7
1105,72,-2032,-224,-17,64,-4
1110,88,-2016,-200,-17,63,-7
1115,88,-2024,-208,-16,62,-6
1120,96,-2040,-240,-16,63,-9
1125,96,-2048,-240,-17,63,-6
1130,112,-2056,-240,-17,63,-9
1135,88,-2024,-232,-16,64,-6
1140,104,-2040,-256,-16,66,-8
1145,112,-2048,-232,-14,66,-7
1150,80,-2024,-232,-14,67,-7
1155,88,-2048,-216,-12,68,-4
1160,96,-2056,-224,-13,68,-6
1165,88,-2024,-240,-12,69,-3
1170,88,-2024,-248,-12,67,-4
1175,96,-2032,-256,-12,69,-1
1180,120,-2056,-248,-10,67,-3
1185,112,-2040,-216,-10,68,0
1190,104,-2032,-248,-10,67,-2
1195,80,-2040,-256,-9,67,0
1200,88,-2032,-232,-9,67,-2
1205,112,-2024,-232,-8,67,0
1210,80,-2024,-232,-9,65,-1
1215,56,-2032,-248,-9,66,2
1220,96,-2064,-232,-9,66,-2
1225,112,-2048,-240,-9,65,1
1230,104,-2024,-272,-8,64,-2
1235,88,-2040,-264,-9,62,0
1240,104,-2048,-280,-9,62,-3
1245,80,-2048,-264,-8,62,-2
1250,96,-2040,-248,-7,62,-5
1255,80,-2040,-264,-9,61,-4
1260,104,-2032,-256,-9,63,-8
1265,88,-2024,-256,-11,62,-7
1270,88,-2024,-232,-12,62,-9
1275,104,-2016,-224,-16,61,-8
1280,104,-2008,-248,-18,62,-11
1285,104,-2032,-240,-20,62,-10
1290,96,-2040,-248,-23,62,-12
1295,104,-2032,-248,-23,63,-11
1300,112,-2056,-216,-22,63,-12
1305,112,-2024,-232,-21,63,-11
1310,104,-2048,-224,-21,62,-13
1315,120,-2056,-264,-17,60,-10
1320,104,-2048,-200,-14,61,-11
1325,96,-2048,-216,-11,59,-8
1330,120,-2056,-248,-8,59,-7
1335,112,-2040,-240,-6,60,-3
1340,120,-2040,-224,-5,61,-2
1345,120,-2048,-248,-1,61,3
1350,112,-2024,-224,-2,62,0
1355,104,-2048,-288,-3,64,4
1360,120,-2040,-272,-2,63,1
1365,80,-2024,-264,-6,63,2
1370,88,-2032,-232,-9,65,-2
1375,88,-2024,-208,-11,63,-2
1380,80,-2056,-256,-12,63,-6
1385,112,-2056,-280,-10,62,-4
1390,80,-2048,-256,-11,61,-9
1395,88,-2032,-240,-11,59,-7
1400,112,-2032,-224,-9,58,-7
1405,80,-2056,-248,-9,56,-6
1410,80,-2040,-176,-9,54,-6
1415,104,-2048,-232,-7,53,-4
1420,88,-2040,-192,-7,53,-4
1425,88,-2040,-208,-6,52,-2
1430,96,-2016,-216,-7,51,-2
1435,104,-2032,-232,-7,51,0
1440,96,-2064,-216,-7,51,0
1445,88,-2040,-240,-8,52,4
1450,104,-2040,-248,-7,54,2
1455,104,-2040,-240,-7,56,3
1460,96,-2048,-280,-7,56,2
1465,96,-2032,-240,-6,59,4
1470,104,-2040,-232,-8,59,3
1475,120,-2064,-248,-6,60,4
1480,112,-2056,-232,-4,62,2
1485,128,-2040,-240,-6,62,3
1490,112,-2032,-224,-7,62,1
1495,104,-2040,-272,-6,63,2
1500,128,-2064,-240,-7,63,1
1505,120,-2024,-272,-6,63,3
1510,128,-2056,-280,-5,60,3
1515,112,-2032,-264,-6,59,4
1520,112,-2032,-248,-5,58,2
1525,96,-2016,-248,-5,55,4
1530,80,-2024,-256,-7,54,5
1535,88,-2056,-240,-7,52,7
1540,104,-2040,-248,-8,53,6
1545,88,-2040,-256,-8,51,5
1550,112,-2032,-248,-8,49,6
1555,104,-2016,-248,-8,51,4
1560,96,-2032,-264,-8,51,5
1565,96,-2016,-248,-9,51,6
1570,88,-2008,-272,-9,51,5
1575,104,-2048,-272,-8,51,7
1580,80,-2024,-216,-9,53,7
1585,88,-2032,-248,-10,54,7
1590,96,-2024,-232,-12,55,6
1595,104,-2048,-248,-12,56,6
1600,104,-2032,-240,-15,57,5
1605,112,-2016,-248,-14,59,5
1610,112,-2016,-224,-15,60,4
1615,128,-2016,-240,-17,61,3
1620,96,-2040,-240,-16,63,2
1625,96,-2024,-256,-15,64,2
1630,88,-2048,-248,-16,64,1
1635,104,-2048,-248,-15,62,2
1640,104,-2040,-232,-15,64,2
1645,96,-2032,-232,-12,63,0
1650,104,-2056,-248,-11,62,1
1655,96,-2040,-248,-11,60,0
1660,112,-2072,-272,-10,59,0
1665,88,-2048,-216,-9,59,0
1670,72,-2024,-232,-9,59,0
1675,88,-2040,-256,-10,58,1
1680,88,-2048,-200,-12,57,1
1685,88,-2016,-224,-12,56,2
1690,96,-2040,-184,-12,57,3
1695,104,-2048,-216,-16,57,2
1700,104,-2056,-216,-16,58,4
1705,96,-2032,-256,-17,57,3
1710,80,-2056,-240,-18,57,5
1715,104,-2064,-248,-18,57,5
1720,80,-2040,-256,-18,59,6
1725,104,-2056,-248,-18,55,5
1730,120,-2048,-240,-17,56,6
1735,96,-2024,-240,-15,56,6
1740,88,-2048,-248,-13,56,8
1745,88,-2048,-248,-11,54,6
1750,96,-2064,-256,-11,55,8
1755,96,-2064,-224,-8,56,7
1760,104,-2056,-264,-7,56,10
1765,88,-2048,-240,-4,56,9
1770,72,-2056,-224,-4,56,9
1775,104,-2032,-224,-4,55,9
1780,88,-2032,-248,-6,55,9
1785,96,-2040,-240,-7,55,9
1790,112,-2040,-264,-7,55,9
1795,96,-2040,-248,-8,53,9
1800,88,-2056,-248,-11,52,10
1805,96,-2032,-232,-10,51,6
1810,80,-2056,-248,-12,51,7
1815,104,-2048,-280,-8,53,5
1820,104,-2032,-248,-8,52,5
1825,88,-2032,-232,-8,53,4
1830,88,-2024,-240,-9,54,3
1835,88,-2024,-264,-11,55,1
1840,96,-2032,-224,-10,56,1
1845,104,-2048,-240,-10,56,-1
1850,96,-2048,-248,-9,57,1
1855,88,-2040,-256,-9,59,-1
1860,120,-2024,-224,-7,59,1
1865,112,-2032,-264,-7,60,0
1870,88,-2024,-232,-7,59,2
1875,96,-2040,-240,-8,60,1
1880,96,-2032,-232,-9,58,4
1885,80,-2024,-256,-11,58,1
1890,112,-2056,-224,-10,57,5
1895,96,-2032,-240,-12,56,2
1900,96,-2032,-216,-12,56,5
1905,88,-2048,-232,-13,55,2
1910,104,-2056,-224,-13,55,7
1915,88,-2056,-248,-12,55,5
1920,96,-2048,-232,-13,55,8
1925,96,-2040,-232,-11,56,6
1930,96,-2032,-232,-11,55,7
1935,104,-2048,-248,-11,56,4
1940,72,-2024,-232,-11,55,7
1945,104,-2048,-264,-13,56,3
1950,88,-2024,-264,-12,56,4
1955,88,-2040,-248,-12,57,1
1960,80,-2032,-264,-12,57,4
1965,96,-2032,-232,-11,57,1
1970,88,-2040,-256,-10,56,4
1975,96,-2032,-240,-10,55,3
1980,96,-2032,-232,-9,56,6
1985,96,-2008,-232,-8,58,6
1990,88,-2008,-232,-6,57,9
1995,88,-2048,-264,-7,57,8
2000,88,-2032,-224,-10,56,12
2005,96,-2024,-264,-10,54,10
2010,80,-2024,-240,-10,56,15
2015,96,-2048,-256,-10,53,14
2020,88,-2016,-240,-11,53,17
2025,96,-2032,-256,-12,53,12
2030,120,-2048,-256,-12,52,15
2035,96,-2040,-240,-13,50,13
2040,96,-2032,-256,-13,50,13
2045,120,-2040,-232,-13,51,8
2050,80,-2024,-240,-14,50,10
2055,104,-2032,-208,-14,51,5
2060,96,-2048,-248,-13,52,7
2065,96,-2056,-216,-12,50,3
2070,104,-2064,-240,-11,52,4
2075,88,-2048,-224,-8,53,1
2080,80,-2048,-256,-7,54,4
2085,96,-2040,-248,-5,55,0
2090,96,-2032,-224,-5,57,3
2095,96,-2040,-232,-3,54,1
2100,96,-2032,-248,0,57,4
2105,96,-2040,-256,-2,59,1
2110,80,-2024,-248,-2,58,4
2115,88,-2048,-224,-2,59,1
2120,88,-2048,-232,-4,59,2
2125,120,-2064,-240,-5,60,-1
2130,96,-2008,-232,-6,60,3
2135,72,-2016,-240,-7,60,1
2140,88,-2024,-216,-10,60,4
2145,96,-2048,-224,-9,58,2
2150,80,-2032,-224,-9,57,5
2155,96,-2040,-208,-11,58,3
2160,104,-2048,-232,-11,57,6
2165,72,-2040,-224,-11,56,3
2170,88,-2048,-248,-12,55,6
2175,72,-2016,-232,-12,54,3
2180,128,-2040,-216,-13,54,5
2185,80,-2040,-240,-14,54,4
2190,72,-2056,-216,-14,54,5
2195,72,-2056,-240,-14,55,3
2200,72,-2040,-208,-13,56,5
2205,88,-2032,-248,-11,56,2
2210,56,-2024,-224,-11,55,3
2215,96,-2064,-264,-11,55,4
2220,80,-2040,-216,-13,56,4
2225,56,-2032,-248,-14,57,3
2230,88,-2048,-240,-14,56,5
2235,56,-2024,-216,-14,57,3
2240,72,-2024,-232,-14,58,5
2245,88,-2008,-232,-16,59,5
2250,80,-2024,-224,-18,61,6
2255,64,-2016,-232,-19,61,5
2260,104,-2016,-232,-20,62,6
2265,56,-2016,-248,-22,64,5
2270,72,-2024,-232,-22,66,6
2275,88,-2024,-256,-23,66,5
2280,88,-2032,-232,-24,66,5
2285,80,-2016,-280,-23,68,3
2290,80,-2048,-248,-26,67,3
2295,112,-2064,-240,-26,65,2
2300,88,-2040,-232,-25,65,2
2305,88,-2056,-248,-23,65,1
2310,104,-2048,-224,-23,67,1
2315,104,-2040,-232,-21,66,0
2320,96,-2016,-264,-19,65,2
2325,96,-2048,-224,-18,64,2
2330,104,-2040,-264,-18,64,1
2335,80,-2008,-248,-17,64,1
2340,88,-2040,-224,-14,65,3
2345,80,-2032,-248,-15,63,1
2350,88,-2040,-224,-17,63,3
2355,80,-2024,-280,-19,62,2
2360,88,-2040,-256,-22,59,2
2365,72,-2016,-232,-23,56,0
2370,80,-2064,-216,-22,57,-1
2375,72,-2040,-264,-23,56,-2
2380,80,-2048,-216,-23,57,-2
2385,80,-2040,-256,-24,57,-4
2390,88,-2032,-208,-22,57,-4
2395,88,-2040,-264,-21,60,-4
2400,96,-2032,-208,-18,59,-4
2405,88,-2016,-240,-17,59,-5
2410,96,-2040,-240,-14,61,-3
2415,80,-2040,-240,-13,59,-4
2420,104,-2040,-248,-13,61,-4
2425,88,-2032,-224,-14,60,-4
2430,112,-2048,-208,-14,59,-3
2435,88,-2048,-240,-16,59,-5
2440,72,-2048,-248,-16,58,-5
2445,72,-2056,-216,-17,58,-5
2450,80,-2048,-256,-18,57,-8
2455,88,-2056,-240,-20,60,-6
2460,88,-2040,-208,-20,58,-7
2465,64,-2032,-224,-20,57,-5
2470,96,-2056,-240,-20,60,-5
2475,96,-2056,-248,-18,61,-3
2480,80,-2048,-224,-16,61,-3
2485,64,-2032,-240,-15,60,-1
2490,72,-2056,-256,-14,60,-1
2495,88,-2040,-216,-12,62,0
2500,80,-2064,-272,-12,63,-2
2505,64,-2024,-248,-13,62,-1
2510,88,-2056,-240,-12,61,-3
2515,80,-2040,-240,-13,61,-1
2520,64,-2016,-240,-11,62,-3
2525,64,-2064,-240,-8,61,-1
2530,80,-2064,-240,-7,61,0
2535,80,-2032,-232,-5,62,0
2540,80,-2048,-232,-3,61,1
2545,96,-2032,-224,0,61,3
2550,80,-2040,-216,0,58,2
2555,96,-2048,-240,1,58,3
2560,96,-2040,-232,1,58,0
2565,96,-2040,-240,0,57,2
2570,120,-2032,-232,0,55,1
2575,88,-2032,-256,-1,55,1
2580,88,-2040,-208,-1,53,-2
2585,88,-2032,-208,0,54,-2
2590,88,-2024,-256,-1,54,-3
2595,80,-2040,-248,-1,53,-4
2600,80,-2032,-208,-1,54,-7
2605,96,-2024,-224,-3,55,-5
2610,80,-2032,-232,-3,56,-8
2615,80,-2048,-224,-2,57,-7
2620,80,-2032,-240,-3,58,-10
2625,72,-2064,-240,-2,60,-8
2630,112,-2040,-216,0,61,-9
2635,72,-2032,-240,0,61,-9
2640,88,-2048,-216,0,61,-11
2645,104,-2032,-232,0,60,-9
2650,88,-2016,-240,0,59,-12
2655,88,-2032,-232,-1,62,-9
2660,72,-2048,-272,-1,60,-11
2665,88,-2056,-256,-2,61,-11
2670,64,-2040,-264,0,61,-13
2675,96,-2024,-256,0,62,-11
2680,96,-2024,-240,0,62,-12
2685,112,-2032,-240,0,62,-11
2690,104,-2032,-232,-1,62,-12
2695,88,-2024,-248,-2,60,-8
2700,96,-2032,-248,-4,61,-10
2705,88,-2032,-224,-7,60,-5
2710,80,-2048,-224,-7,60,-8
2715,96,-2040,-232,-9,60,-7
2720,104,-2024,-216,-10,61,-9
2725,72,-2048,-232,-10,63,-8
2730,64,-2032,-216,-10,62,-10
2735,88,-2072,-216,-10,63,-7
2740,80,-2056,-216,-9,64,-9
2745,80,-2056,-192,-8,64,-8
2750,88,-2064,-208,-8,66,-11
2755,104,-2048,-224,-6,65,-9
2760,88,-2064,-216,-4,64,-11
2765,96,-2056,-232,-4,65,-8
2770,80,-2048,-224,-4,65,-10
2775,120,-2056,-224,-3,63,-7
2780,96,-2048,-216,-3,64,-11
2785,72,-2040,-216,-4,62,-9
2790,80,-2048,-248,-4,62,-11
2795,88,-2040,-208,-5,63,-9
2800,80,-2040,-200,-5,64,-11
2805,72,-2040,-232,-5,65,-8
2810,104,-2040,-200,-7,65,-11
2815,80,-2016,-264,-7,65,-7
2820,88,-2056,-256,-9,66,-8
2825,104,-2032,-208,-8,68,-7
2830,96,-2072,-256,-9,68,-8
2835,88,-2056,-240,-7,69,-6
2840,80,-2072,-232,-8,67,-8
2845,96,-2024,-248,-7,67,-6
2850,88,-2048,-224,-6,67,-8
2855,104,-2040,-224,-6,68,-5
2860,112,-2032,-232,-7,69,-5
2865,96,-2032,-224,-6,68,-4
2870,96,-2032,-216,-6,68,-6
2875,88,-2008,-256,-5,70,-4
2880,104,-2032,-232,-7,69,-6
2885,96,-2048,-240,-6,67,-4
2890,88,-2024,-208,-7,68,-7
2895,96,-2040,-264,-8,67,-5
2900,96,-2032,-264,-9,66,-7
2905,88,-2048,-240,-11,64,-5
2910,72,-2048,-232,-12,63,-6
2915,128,-1992,-224,-14,62,-6
2920,72,-2032,-224,-13,60,-9
2925,80,-2032,-224,-16,61,-7
2930,88,-2032,-232,-16,60,-10
2935,88,-2040,-216,-16,61,-11
2940,88,-2040,-240,-14,61,-13
2945,80,-2032,-240,-14,63,-11
2950,96,-2040,-232,-11,64,-11
2955,96,-2040,-224,-10,63,-10
2960,104,-2032,-240,-8,63,-10
2965,104,-2048,-216,-8,63,-7
2970,96,-2056,-248,-7,64,-7
2975,96,-2032,-208,-7,62,-3
2980,88,-2032,-248,-8,62,-4
2985,96,-2048,-216,-9,60,-3
2990,72,-2032,-232,-11,57,-4
2995,112,-2032,-232,-13,58,-4
3000,96,-2040,-216,-16,57,-5
3005,96,-2024,-256,-19,56,-2
3010,96,-2048,-224,-20,55,-3
3015,112,-2040,-224,-21,55,-1
3020,112,-2056,-224,-21,56,-2
3025,88,-2040,-192,-20,56,-1
3030,112,-2072,-256,-20,57,-2
3035,88,-2032,-240,-17,57,-2
3040,80,-2032,-224,-16,57,-2
3045,104,-2048,-248,-17,58,-2
3050,80,-2056,-224,-16,58,-4
3055,80,-2032,-200,-15,61,-3
3060,104,-2056,-200,-14,61,-5
3065,88,-2048,-208,-12,61,-1
3070,96,-2064,-208,-11,62,-3
3075,104,-2064,-232,-7,63,-3
3080,112,-2040,-232,-6,64,-2
3085,72,-2040,-248,-4,65,1
3090,88,-2016,-216,-6,65,0
3095,112,-2056,-224,-6,64,1
3100,96,-2024,-216,-5,63,1
3105,96,-2064,-240,-7,65,2
3110,112,-2032,-224,-9,64,1
3115,96,-2032,-208,-11,64,0
3120,88,-2048,-248,-11,62,0
3125,104,-2040,-208,-12,62,0
3130,80,-2040,-224,-12,61,-2
3135,88,-2024,-232,-11,61,-2
3140,88,-2024,-256,-11,60,-2
3145,80,-2032,-232,-11,59,-2
3150,80,-2040,-200,-9,59,-3
3155,104,-2064,-240,-7,60,-3
3160,72,-2024,-240,-8,58,-3
3165,104,-2040,-224,-8,57,-4
3170,96,-2040,-224,-7,59,-5
3175,96,-2048,-216,-6,57,-6
3180,56,-2040,-240,-6,59,-6
3185,88,-2056,-248,-6,60,-6
3190,112,-2032,-248,-6,61,-6
3195,88,-2032,-208,-6,61,-5
3200,80,-2040,-224,-6,60,-2
3205,88,-2040,-224,-8,64,-2
3210,80,-2048,-240,-7,63,-1
3215,80,-2056,-256,-6,64,-2
3220,80,-2040,-224,-6,66,-2
3225,112,-2048,-248,-5,67,-6
3230,112,-2064,-248,-6,68,-3
3235,120,-2064,-232,-6,68,-4
3240,80,-2048,-248,-7,69,-4
3245,72,-2040,-224,-7,69,-4
3250,96,-2032,-232,-9,68,-1
3255,96,-2040,-256,-10,64,-2
3260,120,-2048,-208,-11,64,0
3265,96,-2048,-208,-12,63,-1
3270,88,-2024,-232,-14,63,0
3275,96,-2032,-272,-16,63,-3
3280,88,-2024,-216,-17,62,-4
3285,64,-2024,-216,-17,63,-4
3290,96,-2040,-248,-15,63,-4
3295,96,-2032,-208,-15,63,-5
3300,56,-2008,-208,-15,65,-2
3305,104,-2064,-208,-16,65,-5
3310,88,-2048,-240,-16,67,-3
3315,88,-2040,-240,-15,67,-5
3320,56,-2032,-256,-15,66,-3
3325,104,-2048,-216,-15,67,-5
3330,88,-2056,-208,-15,67,-3
3335,80,-2040,-264,-17,66,-5
3340,64,-2040,-224,-17,67,-3
3345,88,-2040,-208,-17,66,-4
3350,88,-2024,-232,-17,67,-4
3355,72,-2032,-224,-18,68,-5
3360,88,-2040,-240,-18,69,-2
3365,96,-2032,-256,-18,70,-5
3370,80,-2056,-224,-15,71,-3
3375,96,-2032,-256,-16,69,-5
3380,88,-2032,-248,-16,69,-3
3385,96,-2056,-240,-15,70,-5
3390,64,-2040,-224,-13,72,-3
3395,88,-2040,-216,-14,72,-4
3400,96,-2040,-224,-12,72,-2
3405,112,-2056,-216,-13,71,-4
3410,72,-2032,-224,-11,70,0
3415,88,-2064,-208,-10,71,-2
3420,88,-2064,-264,-9,71,1
3425,96,-2032,-224,-8,70,0
3430,88,-2048,-240,-7,69,2
3435,96,-2040,-224,-7,69,-2
3440,72,-2040,-232,-7,69,1
3445,120,-2040,-232,-7,70,0
3450,72,-2048,-232,-8,69,2
3455,104,-2040,-216,-9,67,-1
3460,96,-2056,-248,-8,66,1
3465,88,-2056,-208,-9,65,-4
3470,112,-2072,-192,-10,64,-2
3475,72,-2040,-232,-9,65,-4
3480,88,-2056,-248,-8,64,-4
3485,96,-2048,-248,-7,64,-8
3490,96,-2032,-232,-9,64,-6
3495,80,-2032,-240,-10,62,-10
3500,104,-2048,-248,-11,64,-7
3505,96,-2048,-240,-10,64,-10
3510,104,-2024,-216,-9,66,-7
3515,104,-2048,-248,-8,68,-10
3520,88,-2032,-232,-6,67,-7
3525,104,-2040,-200,-2,68,-8
3530,104,-2040,-232,0,67,-5
3535,112,-2048,-256,2,68,-6
3540,96,-2056,-248,4,70,-2
3545,104,-2048,-224,6,70,-4
3550,96,-2048,-216,8,71,-2
3555,112,-2048,-216,9,70,-3
3560,80,-2032,-240,10,72,1
3565,104,-2040,-216,9,71,0
3570,112,-2048,-192,10,71,5
3575,88,-2032,-264,11,69,4
3580,112,-2032,-232,11,68,7
3585,104,-2048,-232,12,66,6
3590,88,-2048,-192,10,67,8
3595,96,-2040,-224,8,68,5
3600,80,-2040,-240,8,66,6
3605,96,-2032,-208,7,67,2
3610,88,-2040,-216,5,66,4
3615,104,-2048,-232,4,65,1
3620,88,-2040,-208,4,66,2
3625,64,-2040,-248,5,66,0
3630,96,-2040,-224,6,64,3
3635,64,-2024,-232,7,65,0
3640,72,-2024,-216,7,65,3
3645,72,-2024,-224,7,65,2
3650,64,-2016,-248,7,67,5
3655,64,-2016,-216,8,67,4
3660,88,-2024,-232,8,66,7
3665,104,-2040,-216,7,65,4
3670,88,-2016,-240,6,66,7
3675,88,-2032,-216,5,65,4
3680,104,-2016,-216,3,65,6
3685,96,-2032,-208,2,63,4
3690,96,-2032,-224,3,64,5
3695,112,-2064,-224,2,64,2
3700,80,-2016,-216,4,64,5
3705,96,-2040,-216,4,64,2
3710,80,-2032,-208,4,63,4
3715,96,-2056,-216,3,64,1
3720,88,-2056,-216,5,63,0
3725,88,-2048,-232,5,64,-1
3730,120,-2056,-232,4,63,-2
3735,96,-2056,-216,7,64,-3
3740,88,-2048,-216,9,63,-2
3745,96,-2048,-200,10,62,-4
3750,96,-2056,-224,9,62,-4
3755,88,-2032,-224,10,63,-4
3760,88,-2032,-216,11,62,-3
3765,96,-2048,-216,13,62,-3
3770,88,-2040,-192,13,61,-2
3775,96,-2056,-248,11,62,-2
3780,88,-2048,-224,10,62,-2
3785,88,-2056,-208,10,62,-3
3790,80,-2040,-216,9,62,-1
3795,96,-2024,-208,10,62,-3
3800,80,-2040,-224,9,63,-2
3805,88,-2032,-168,8,64,-3
3810,88,-2040,-192,8,65,-2
3815,96,-2040,-224,9,65,-3
3820,80,-2040,-200,10,65,0
3825,104,-2056,-200,9,66,-1
3830,64,-2040,-232,10,64,-1
3835,80,-2024,-216,9,67,-1
3840,64,-2040,-208,8,65,-1
3845,80,-2048,-208,7,67,-2
3850,80,-2032,-232,6,67,-2
3855,96,-2032,-240,6,68,-3
3860,88,-2032,-192,6,68,-3
3865,96,-2040,-200,6,66,-4
3870,104,-2032,-192,5,67,-4
3875,80,-2040,-200,5,67,-5
3880,96,-2040,-200,3,67,-5
3885,96,-2040,-208,2,65,-5
3890,88,-2016,-184,2,64,-6
3895,80,-2032,-216,-1,63,-8
3900,96,-2040,-232,1,63,-9
3905,96,-2040,-208,1,61,-9
3910,88,-2048,-216,0,61,-8
3915,88,-2032,-192,0,62,-9
3920,88,-2024,-224,-1,62,-10
3925,104,-2032,-200,-2,62,-8
3930,80,-2032,-216,-2,64,-8
3935,72,-2024,-208,-1,65,-7
3940,80,-2032,-200,-1,65,-7
3945,80,-2040,-200,-2,66,-4
3950,80,-2048,-208,-1,69,-3
3955,88,-2024,-200,-1,69,-3
3960,104,-2056,-176,1,70,-3
3965,104,-2064,-208,2,69,-3
3970,88,-2072,-184,4,72,-3
3975,96,-2040,-216,5,72,-1
3980,80,-2064,-200,3,72,-3
3985,96,-2056,-216,5,72,1
3990,80,-2040,-216,6,70,0
3995,96,-2056,-192,7,70,2
4000,88,-2064,-200,7,69,0
4005,88,-2040,-192,7,70,2
4010,120,-2056,-200,9,69,1
4015,104,-2032,-224,9,70,1
4020,112,-2056,-232,8,68,-1
4025,104,-2032,-208,6,67,1
4030,96,-2032,-224,7,66,-1
4035,96,-2040,-216,7,65,-1
4040,104,-2056,-216,5,61,-3
4045,80,-2048,-232,4,60,-2
4050,72,-2056,-192,3,59,-4
4055,96,-2040,-208,2,59,-4
4060,88,-2048,-184,2,59,-5
4065,104,-2040,-200,3,57,-5
4070,80,-2032,-216,1,57,-8
4075,96,-2056,-200,2,56,-6
4080,80,-2040,-216,-1,57,-9
4085,72,-2024,-208,-3,59,-8
4090,80,-2016,-200,-5,59,-10
4095,80,-2024,-176,-7,60,-7
4100,88,-2048,-224,-6,60,-9
4105,96,-2040,-184,-5,61,-7
4110,104,-2056,-184,-4,61,-9
4115,80,-2056,-232,-1,61,-5
4120,88,-2048,-192,-1,61,-9
4125,80,-2056,-216,3,62,-7
4130,88,-2056,-200,4,62,-8
4135,88,-2048,-176,6,62,-5
4140,112,-2064,-192,9,63,-6
4145,96,-2072,-208,12,64,-1
4150,120,-2072,-232,15,64,1
4155,112,-2056,-208,17,65,4
4160,88,-2056,-200,19,65,4
4165,104,-2048,-184,19,64,9
4170,104,-2056,-184,18,65,7
4175,96,-2032,-208,16,64,10
4180,112,-2032,-192,16,64,5
4185,104,-2024,-200,12,63,7
4190,80,-2048,-224,10,62,3
4195,80,-2040,-200,9,61,3
4200,88,-2048,-192,8,61,0
4205,96,-2056,-224,6,60,1
4210,88,-2040,-192,6,60,-5
4215,88,-2032,-192,7,59,-3
4220,64,-2048,-192,4,58,-4
4225,88,-2040,-160,4,58,-3
4230,80,-2040,-200,3,58,-4
4235,88,-2040,-176,2,59,-3
4240,88,-2048,-216,2,57,-5
4245,64,-2032,-224,2,58,0
4250,96,-2040,-192,0,58,-4
4255,88,-2040,-216,-1,57,-2
4260,104,-2040,-200,-1,60,-4
4265,104,-2048,-232,-3,58,-3
4270,80,-2024,-224,-2,61,-5
4275,104,-2048,-192,-2,62,-3
4280,96,-2048,-200,-1,62,-5
4285,80,-2032,-168,-1,64,-5
4290,96,-2048,-208,0,63,-5
4295,88,-2048,-192,-3,65,-3
4300,88,-2024,-176,-1,64,-7
4305,96,-2040,-200,-1,64,-7
4310,88,-2040,-200,0,64,-9
4315,80,-2032,-200,-2,63,-9
4320,96,-2032,-208,-1,63,-11
4325,80,-2032,-208,-1,63,-10
4330,88,-2024,-208,1,63,-11
4335,72,-2016,-176,3,62,-10
4340,96,-2040,-176,4,61,-10
4345,88,-2032,-184,2,62,-7
4350,88,-2040,-184,2,61,-8
4355,96,-2064,-192,1,61,-6
4360,72,-2024,-200,0,61,-8
4365,88,-2024,-176,1,59,-6
4370,96,-2024,-184,-1,61,-9
4375,72,-2048,-200,-1,61,-5
4380,88,-2040,-184,-1,60,-8
4385,88,-2024,-184,-1,60,-4
4390,80,-2048,-192,-2,61,-6
4395,80,-2032,-168,-2,61,-4
4400,80,-2048,-192,-2,62,-4
4405,72,-2048,-152,-2,61,-2
4410,104,-2056,-192,0,62,-3
4415,80,-2040,-184,-2,63,-1
4420,80,-2032,-192,0,64,-3
4425,80,-2056,-160,-2,65,-2
4430,96,-2040,-176,-1,66,-4
4435,240,-2056,-248,0,65,-2
4440,104,-2088,-216,-1,66,-5
4445,104,-2064,-144,0,66,-4
4450,168,-2048,-224,-1,65,-6
4455,64,-2056,-168,-2,66,-5
4460,88,-2056,-184,-3,65,-7
4465,72,-2040,-184,-3,63,-6
4470,96,-2048,-200,-3,63,-9
4475,104,-2032,-176,-4,63,-6
4480,112,-2048,-200,-5,61,-8
4485,88,-2040,-176,-6,61,-8
4490,104,-2048,-176,-5,62,-10
4495,96,-2024,-184,-5,61,-9
4500,120,-2064,-160,-6,62,-9
4505,112,-2064,-176,-5,61,-7
4510,80,-2032,-168,-5,62,-9
4515,96,-2048,-176,-4,60,-7
4520,112,-2056,-176,-4,61,-8
4525,88,-2040,-168,-3,62,-6
4530,104,-2048,-176,-5,62,-5
4535,104,-2048,-168,-4,63,-5
4540,128,-2040,-176,-6,62,-5
4545,96,-2032,-168,-5,62,-5
4550,120,-2064,-168,-8,62,-3
4555,112,-2040,-184,-7,63,-2
4560,96,-2040,-176,-6,63,-2
4565,104,-2048,-208,-4,63,0
4570,128,-2072,-184,-4,62,1
4575,88,-2056,-192,-1,62,1
4580,104,-2048,-200,-1,60,1
4585,96,-2056,-184,0,60,1
4590,96,-2040,-176,0,58,1
4595,96,-2032,-168,0,58,2
4600,104,-2056,-176,0,56,3
4605,96,-2040,-184,-1,55,2
4610,104,-2040,-224,1,53,4
4615,104,-2032,-176,1,52,5
4620,112,-2064,-168,-1,52,3
4625,96,-2056,-184,-2,52,2
4630,96,-2024,-200,0,53,2
4635,96,-2040,-208,-1,52,3
4640,80,-2024,-200,-1,51,4
4645,88,-2048,-216,-3,50,1
4650,72,-2040,-176,-2,51,1
4655,96,-2048,-216,-4,51,2
4660,88,-2040,-200,-4,51,-1
4665,104,-2064,-184,-2,51,0
4670,88,-2048,-184,0,52,-1
4675,80,-2040,-184,0,52,-3
4680,96,-2032,-176,-1,54,-3
4685,80,-2032,-184,-3,55,-3
4690,88,-2032,-184,-4,56,-3
4695,88,-2024,-192,-5,58,-4
4700,96,-2016,-176,-8,57,-3
4705,80,-2024,-208,-8,58,-3
4710,104,-2016,-192,-11,59,-2
4715,72,-2056,-192,-12,60,-3
4720,96,-2040,-208,-12,58,-1
4725,96,-2048,-176,-10,56,-2
4730,96,-2056,-152,-10,55,0
4735,96,-2048,-208,-9,54,-1
4740,96,-2064,-192,-9,54,1
4745,112,-2032,-176,-7,54,-1
4750,104,-2056,-136,-6,53,3
4755,80,-2064,-176,-5,53,4
4760,96,-2056,-184,-3,53,8
4765,96,-2040,-192,-2,54,8
4770,96,-2040,-208,0,53,11
4775,88,-2032,-184,0,52,9
4780,96,-2040,-176,1,54,11
4785,104,-2048,-184,0,55,8
4790,64,-2040,-168,1,56,11
4795,80,-2032,-160,-1,55,7
4800,88,-2048,-200,-1,55,7
4805,88,-2064,-160,1,56,7
4810,80,-2048,-176,0,57,6
4815,88,-2064,-192,1,58,5
4820,80,-2032,-192,2,57,7
4825,88,-2048,-160,3,58,6
4830,104,-2040,-200,2,59,9
4835,88,-2040,-184,3,58,6
4840,112,-2064,-160,3,58,9
4845,72,-2016,-160,2,57,10
4850,80,-2032,-192,3,57,13
4855,112,-2024,-160,2,56,11
4860,72,-2040,-168,1,55,13
4865,80,-2040,-192,0,53,10
4870,88,-2032,-168,-1,53,12
4875,88,-2056,-160,-2,53,8
4880,80,-2024,-168,-2,53,11
4885,104,-2032,-160,-3,51,8
4890,80,-2032,-192,-5,51,9
4895,96,-2016,-168,-7,51,6
4900,64,-2016,-192,-6,52,7
4905,80,-2032,-176,-7,52,3
4910,96,-2040,-200,-10,52,3
4915,104,-2048,-184,-10,52,-1
4920,80,-2056,-168,-11,52,-1
4925,88,-2064,-168,-11,53,-5
4930,88,-2040,-176,-10,53,-3
4935,80,-2056,-184,-9,54,-5
4940,56,-2064,-168,-9,54,-3
4945,96,-2040,-184,-6,56,-5
4950,88,-2032,-192,-5,55,-2
4955,96,-2032,-184,-6,57,-4
4960,88,-2056,-176,-7,57,-1
4965,88,-2032,-200,-8,56,-2
4970,88,-2048,-184,-10,56,0
4975,112,-2048,-152,-10,56,-2
4980,88,-2016,-176,-11,55,-1
4985,88,-2040,-184,-11,55,-2
4990,112,-2032,-200,-11,54,-1
4995,96,-2040,-184,-14,56,-3
5000,96,-2040,-184,-14,53,0
5005,64,-2024,-184,-14,53,-2
5010,80,-2040,-168,-16,55,0
5015,88,-2032,-184,-17,53,-2
5020,112,-2056,-128,-16,53,0
5025,112,-2032,-192,-16,53,-3
5030,96,-2032,-184,-17,53,0
5035,96,-2040,-168,-17,51,-2
5040,88,-2016,-152,-17,53,2
5045,80,-2048,-160,-15,53,2
5050,96,-2040,-168,-15,54,4
5055,88,-2048,-184,-14,56,2
5060,72,-2064,-200,-11,56,4
5065,80,-2048,-160,-11,57,3
5070,88,-2056,-184,-10,58,5
5075,88,-2032,-168,-9,60,4
5080,80,-2040,-168,-10,60,7
5085,104,-2056,-168,-9,62,5
5090,96,-2032,-168,-7,62,7
5095,96,-2032,-176,-8,64,6
5100,88,-2024,-184,-11,62,7
5105,96,-2032,-160,-12,64,4
5110,88,-2048,-152,-13,64,5
5115,88,-2040,-184,-13,64,4
5120,96,-2048,-192,-14,63,8
5125,96,-2048,-192,-16,66,5
5130,96,-2056,-184,-17,65,6
5135,112,-2048,-112,-18,64,4
5140,104,-2048,-176,-20,65,5
5145,104,-2024,-184,-20,65,4
5150,80,-2040,-184,-18,64,5
5155,96,-2056,-184,-17,64,5
5160,80,-2056,-152,-17,62,6
5165,88,-2032,-184,-18,62,5
5170,96,-2040,-160,-16,61,6
5175,96,-2072,-160,-16,61,4
5180,80,-2032,-176,-15,61,7
5185,64,-2040,-152,-12,61,6
5190,72,-2048,-200,-11,60,6
5195,96,-2056,-176,-9,59,4
5200,88,-2064,-192,-9,60,6
5205,88,-2056,-168,-6,61,4
5210,96,-2064,-160,-6,60,7
5215,96,-2056,-176,-4,61,4
5220,88,-2056,-144,-4,62,5
5225,80,-2032,-160,-3,63,4
5230,104,-2056,-152,-1,62,6
5235,104,-2056,-168,-2,62,4
5240,72,-2056,-168,0,61,5
5245,96,-2072,-152,-2,59,4
5250,88,-2040,-208,-3,58,5
5255,72,-2032,-152,-4,56,5
5260,96,-2056,-176,-4,55,6
5265,72,-2048,-160,-4,53,3
5270,96,-2048,-152,-3,53,6
5275,104,-2056,-176,-1,51,4
5280,88,-2056,-176,-1,52,4
5285,72,-2064,-176,1,53,3
5290,88,-2048,-184,3,52,2
5295,88,-2064,-184,4,52,2
5300,88,-2056,-176,4,54,2
5305,80,-2056,-176,4,54,2
5310,88,-2024,-176,4,55,3
5315,96,-2040,-168,3,55,1
5320,88,-2040,-168,3,55,2
5325,80,-2032,-176,2,54,3
5330,104,-2056,-192,1,53,2
5335,96,-2040,-160,-1,53,1
5340,72,-2032,-176,-2,53,1
5345,96,-2040,-152,-4,53,0
5350,80,-2056,-160,-6,54,0
5355,88,-2024,-176,-7,52,0
5360,96,-2064,-184,-9,51,1
5365,72,-2032,-152,-11,53,2
5370,72,-2024,-168,-9,55,2
5375,80,-2040,-168,-9,54,4
5380,80,-2056,-200,-8,56,4
5385,96,-2056,-184,-7,56,5
5390,88,-2064,-176,-7,55,3
5395,80,-2048,-152,-7,56,3
5400,88,-2064,-184,-7,57,2
5405,88,-2040,-184,-8,61,1
5410,72,-2040,-144,-9,59,1
5415,56,-2040,-168,-10,58,3
5420,88,-2064,-168,-8,58,1
5425,80,-2040,-208,-8,60,3
5430,80,-2040,-192,-7,61,2
5435,64,-2032,-184,-7,61,4
5440,88,-2040,-176,-7,59,4
5445,80,-2024,-184,-6,60,5
5450,96,-2048,-152,-5,61,4
5455,96,-2032,-184,-7,57,5
5460,80,-2032,-184,-6,57,3
5465,80,-2008,-160,-7,58,4
5470,96,-2048,-184,-9,57,2
5475,88,-2048,-152,-9,57,2
5480,72,-2040,-160,-8,56,-2
5485,96,-2024,-160,-10,57,0
5490,88,-2032,-152,-10,55,-2
5495,80,-2024,-160,-9,57,-1
5500,88,-2016,-152,-10,59,-3
5505,96,-2048,-168,-9,57,-3
5510,64,-2008,-168,-9,59,-5
5515,80,-2040,-176,-8,59,-5
5520,96,-2048,-216,-8,59,-8
5525,88,-2040,-144,-8,60,-4
5530,96,-2056,-160,-5,60,-8
5535,96,-2056,-184,-4,62,-6
5540,80,-2048,-168,-3,63,-7
5545,96,-2032,-176,-3,64,-5
5550,88,-2056,-168,-5,65,-7
5555,72,-2064,-160,-6,65,-4
5560,96,-2048,-152,-5,66,-8
5565,72,-2048,-176,-4,66,-7
5570,72,-2056,-184,-2,65,-9
5575,72,-2032,-144,-2,64,-6
5580,80,-2056,-184,-2,66,-9
5585,88,-2048,-176,-3,65,-7
5590,64,-2024,-192,-4,64,-8
5595,96,-2040,-168,-4,63,-4
5600,72,-2024,-168,-5,63,-6
5605,88,-2048,-144,-6,63,-5
5610,88,-2032,-200,-7,62,-7
5615,80,-2032,-168,-6,61,-4
5620,72,-2024,-152,-6,61,-8
5625,72,-2040,-160,-5,61,-6
5630,80,-2048,-168,-6,60,-9
5635,96,-2040,-152,-7,62,-7
5640,88,-2032,-168,-8,60,-9
5645,80,-2032,-168,-7,61,-7
5650,88,-2048,-168,-7,61,-8
5655,96,-2048,-176,-8,62,-6
5660,72,-2040,-152,-6,63,-9
5665,80,-2056,-144,-6,61,-6
5670,80,-2048,-152,-7,61,-8
5675,96,-2040,-184,-5,61,-6
5680,72,-2048,-160,-4,60,-8
5685,88,-2048,-152,-2,60,-6
5690,96,-2056,-168,-2,58,-10
5695,80,-2040,-152,-2,58,-7
5700,88,-2048,-152,0,58,-10
5705,64,-2016,-136,0,59,-7
5710,96,-2056,-184,1,60,-10
5715,96,-2040,-160,2,62,-7
5720,80,-2048,-144,1,63,-10
5725,72,-2016,-176,0,63,-8
5730,88,-2056,-152,0,64,-11
5735,96,-2024,-144,-2,62,-7
5740,80,-2016,-168,-3,63,-9
5745,96,-2032,-176,-3,64,-7
5750,96,-2056,-160,-4,65,-10
5755,88,-2056,-136,-5,64,-6
5760,72,-2032,-168,-3,63,-9
5765,96,-2048,-168,-4,65,-8
5770,80,-2040,-144,-4,64,-10
5775,96,-2040,-168,-3,64,-7
5780,88,-2032,-184,-2,64,-8
5785,64,-2032,-168,-2,64,-6
5790,96,-2040,-144,-1,63,-8
5795,104,-2056,-152,-2,64,-6
5800,80,-2040,-144,-1,65,-7
5805,80,-2032,-144,0,65,-6
5810,80,-2048,-160,2,62,-7
5815,80,-2040,-128,3,62,-4
5820,88,-2032,-176,4,61,-7
5825,96,-2056,-168,4,62,-4
5830,80,-2032,-136,0,61,-6
5835,80,-2048,-168,-2,60,-5
5840,80,-2024,-152,-1,59,-7
5845,80,-2056,-144,-3,60,-5
5850,80,-2032,-152,-3,62,-7
5855,88,-2040,-160,-3,62,-6
5860,88,-2056,-160,-5,63,-7
5865,88,-2056,-192,-4,64,-8
5870,72,-2056,-160,-5,65,-10
5875,96,-2048,-160,-3,65,-9
5880,120,-2032,-144,-1,65,-10
5885,88,-2032,-160,0,66,-7
5890,104,-2048,-168,1,66,-7
5895,112,-2056,-176,3,66,-4
5900,104,-2064,-160,5,66,-6
5905,96,-2048,-192,6,65,-5
5910,88,-2040,-168,6,64,-7
5915,96,-2032,-160,6,65,-5
5920,88,-2040,-160,7,66,-6
5925,80,-2016,-144,4,65,-5
5930,96,-2064,-176,3,67,-5
5935,96,-2032,-160,0,68,-3
5940,88,-2040,-160,-1,70,-3
5945,112,-2056,-152,-1,73,-1
5950,96,-2032,-168,-1,72,1
5955,128,-2048,-184,-1,73,3
5960,88,-2032,-144,0,74,5
5965,104,-2056,-152,-2,76,6
5970,104,-2040,-144,-4,74,7
5975,96,-2048,-152,-4,73,8
5980,80,-2032,-136,-5,71,10
5985,80,-2048,-144,-6,70,10
5990,80,-2040,-136,-6,67,12
5995,64,-2056,-168,-6,65,15
6000,80,-2024,-184,-4,64,14
6005,80,-2024,-144,-3,62,15
6010,80,-2016,-160,-2,62,17
6015,80,-2016,-152,-1,58,18
6020,96,-2040,-160,-1,57,20
6025,88,-2032,-144,0,54,20
6030,96,-2040,-152,-1,52,17
6035,80,-2024,-128,-4,50,17
6040,80,-2024,-144,-4,48,17
6045,80,-2032,-152,-4,45,15
6050,96,-2032,-136,-4,44,13
6055,88,-2024,-136,-5,43,10
6060,56,-2040,-144,-6,42,10
6065,80,-2032,-168,-4,42,9
6070,96,-2048,-136,-5,43,7
6075,56,-2040,-152,-6,44,7
6080,64,-2032,-152,-5,43,7
6085,88,-2040,-144,-5,44,5
6090,72,-2048,-136,-7,45,4
6095,72,-2056,-136,-7,47,4
6100,64,-2056,-168,-6,49,4
6105,64,-2056,-152,-5,49,1
6110,88,-2056,-136,-4,52,3
6115,64,-2048,-152,-3,51,2
6120,40,-2048,-200,-5,55,2
6125,64,-2048,-128,-5,55,2
6130,96,-2040,-152,-5,55,4
6135,56,-2040,-144,-6,56,2
6140,56,-2040,-176,-5,55,2
6145,72,-2064,-184,-5,56,0
6150,64,-2056,-168,-3,58,0
6155,72,-2056,-160,-2,56,-4
6160,88,-2056,-160,-3,57,-3
6165,56,-2032,-136,-4,57,-5
6170,80,-2040,-160,-4,56,-3
6175,80,-2032,-168,-6,55,-4
6180,88,-2064,-176,-6,55,-4
6185,56,-2048,-120,-8,56,-3
6190,72,-2032,-152,-7,54,-2
6195,88,-2032,-160,-7,54,-4
6200,72,-2032,-152,-8,55,-3
6205,64,-2040,-144,-7,57,-7
6210,80,-2032,-136,-7,55,-5
6215,64,-2040,-160,-6,55,-8
6220,80,-2064,-168,-4,57,-6
6225,80,-2032,-136,-2,58,-9
6230,104,-2072,-112,2,61,-7
6235,80,-2048,-152,4,60,-9
6240,88,-2040,-144,6,61,-7
6245,80,-2056,-176,8,61,-8
6250,88,-2056,-136,10,64,-5
6255,64,-2032,-152,9,64,-9
6260,72,-2032,-144,8,63,-5
6265,80,-2032,-128,11,64,-7
6270,80,-2048,-160,10,63,-5
6275,72,-2040,-120,10,62,-9
6280,80,-2056,-152,11,62,-6
6285,104,-2048,-144,9,63,-8
6290,72,-2040,-176,9,63,-6
6295,88,-2040,-144,7,64,-8
6300,72,-2048,-184,5,65,-6
6305,72,-2016,-152,3,65,-8
6310,96,-2056,-144,1,66,-5
6315,72,-2040,-144,-1,66,-8
6320,72,-2048,-136,-1,67,-5
6325,88,-2032,-160,-2,67,-8
6330,88,-2048,-128,-2,69,-6
6335,88,-2072,-160,-2,68,-8
6340,96,-2056,-152,-1,68,-6
6345,88,-2056,-144,2,68,-8
6350,72,-2080,-168,4,67,-6
6355,80,-2048,-176,6,68,-8
6360,80,-2056,-144,10,69,-5
6365,88,-2040,-128,13,68,-7
6370,72,-2040,-128,15,68,-5
6375,96,-2048,-168,16,68,-7
6380,96,-2056,-160,15,67,-5
6385,64,-2048,-128,17,68,-8
6390,88,-2040,-176,17,65,-6
6395,88,-2048,-152,17,65,-9
6400,80,-2032,-128,16,65,-9
6405,80,-2024,-136,15,63,-12
6410,64,-2016,-176,16,63,-8
6415,72,-2056,-144,18,64,-11
6420,72,-2064,-136,16,63,-9
6425,88,-2024,-168,17,61,-11
6430,88,-2056,-136,16,61,-9
6435,80,-2056,-128,16,62,-13
6440,72,-2048,-136,17,60,-11
6445,88,-2072,-152,18,61,-15
6450,80,-2040,-144,17,62,-14
6455,88,-2056,-128,17,62,-16
6460,72,-2032,-144,17,64,-16
6465,88,-2024,-152,17,63,-18
6470,112,-2048,-136,20,64,-17
6475,80,-2040,-104,22,66,-18
6480,80,-2048,-152,24,66,-17
6485,88,-2032,-152,28,66,-20
6490,104,-2064,-144,31,67,-17
6495,112,-2064,-144,35,67,-18
6500,64,-2048,-160,37,67,-16
6505,80,-2048,-152,38,65,-18
6510,88,-2040,-136,39,66,-16
6515,104,-2040,-120,40,66,-18
6520,88,-2056,-136,41,67,-15
6525,104,-2064,-144,41,66,-16
6530,88,-2040,-128,40,68,-13
6535,96,-2056,-136,42,67,-12
6540,112,-2040,-104,41,67,-9
6545,104,-2048,-128,42,68,-7
6550,72,-2040,-136,40,67,-6
6555,64,-2048,-144,42,66,-7
6560,96,-2032,-152,41,65,-6
6565,88,-2032,-136,41,66,-7
6570,72,-2016,-120,38,67,-8
6575,80,-2072,-104,38,67,-10
6580,64,-2040,-144,40,67,-10
6585,72,-2048,-112,40,65,-12
6590,80,-2040,-128,41,66,-9
6595,72,-2048,-136,43,66,-10
6600,64,-2040,-104,44,65,-9
6605,88,-2056,-120,46,67,-9
6610,80,-2040,-104,47,66,-8
6615,96,-2048,-112,48,66,-7
6620,80,-2032,-96,50,67,-8
6625,96,-2032,-96,50,68,-7
6630,88,-2032,-104,49,67,-4
6635,96,-2024,-88,49,68,-4
6640,104,-2024,-160,49,68,-4
6645,104,-2032,-104,48,69,-5
6650,96,-2040,-96,50,68,-5
6655,88,-2024,-136,50,69,-7
6660,112,-2056,-88,48,67,-7
6665,96,-2040,-120,50,67,-8
6670,80,-2024,-120,49,67,-8
6675,96,-2048,-120,49,65,-8
6680,88,-2048,-112,49,67,-9
6685,112,-2040,-112,51,68,-10
6690,88,-2040,-88,52,66,-11
6695,72,-2072,-96,51,66,-14
6700,104,-2056,-96,53,67,-14
6705,80,-2056,-88,54,66,-16
6710,96,-2048,-72,55,67,-17
6715,72,-2048,-112,58,67,-16
6720,96,-2048,-128,56,68,-16
6725,88,-2056,-104,58,70,-15
6730,96,-2040,-112,60,69,-13
6735,88,-2040,-96,61,69,-13
6740,104,-2040,-136,63,69,-15
6745,72,-2048,-128,62,70,-14
6750,104,-2056,-112,61,69,-13
6755,72,-2048,-120,61,71,-13
6760,80,-2040,-120,63,73,-14
6765,104,-2056,-88,62,75,-12
6770,104,-2048,-112,63,75,-13
6775,104,-2032,-104,64,76,-11
6780,72,-2056,-96,64,77,-10
6785,104,-2056,-104,64,77,-10
6790,96,-2056,-80,63,77,-8
6795,96,-2048,-80,62,76,-7
6800,104,-2024,-88,61,74,-7
6805,112,-2032,-80,62,73,-5
6810,112,-2056,-112,60,72,-5
6815,104,-2056,-88,61,70,-4
6820,88,-2040,-64,60,68,-5
6825,80,-2048,-136,60,64,-5
6830,96,-2056,-96,61,60,-7
6835,64,-2024,-96,59,58,-7
6840,96,-2024,-72,60,56,-8
6845,88,-2032,-64,61,53,-5
6850,72,-2040,-88,63,49,-9
6855,80,-2032,-72,64,47,-7
6860,96,-2032,-96,65,43,-8
6865,104,-2056,-96,64,41,-8
6870,96,-2040,-112,64,40,-10
6875,64,-2032,-72,66,38,-9
6880,104,-2048,-112,66,37,-12
6885,80,-2032,-64,68,37,-12
6890,88,-2040,-72,68,39,-15
6895,80,-2040,-96,69,39,-13
6900,96,-2040,-72,68,41,-16
6905,80,-2024,-80,70,43,-14
6910,80,-2048,-88,68,44,-16
6915,80,-2048,-64,69,47,-14
6920,88,-2056,-64,68,49,-16
6925,72,-2072,-56,70,50,-15
6930,96,-2056,-40,73,54,-16
6935,96,-2064,-72,76,54,-14
6940,80,-2048,-24,80,54,-17
6945,104,-2056,-72,85,55,-15
6950,88,-2064,-16,89,56,-16
6955,88,-2072,-48,94,57,-13
6960,96,-2056,-48,100,58,-15
6965,112,-2056,-48,106,59,-15
6970,104,-2072,-64,111,60,-18
6975,104,-2056,-24,115,61,-17
6980,104,-2056,-56,118,60,-17
6985,120,-2072,-32,122,60,-14
6990,96,-2064,-64,122,61,-17
6995,88,-2048,-56,125,62,-13
7000,112,-2064,-8,126,61,-14
7005,96,-2048,-32,127,62,-11
7010,88,-2008,-72,129,61,-13
7015,104,-2040,-48,129,62,-10
7020,112,-2048,-16,128,62,-13
7025,96,-2016,-32,125,62,-12
7030,96,-2024,-48,124,62,-16
7035,112,-2040,-48,122,60,-14
7040,104,-2032,-24,117,59,-15
7045,88,-2000,-48,114,58,-13
7050,112,-2024,-24,111,57,-16
7055,112,-2016,-56,108,56,-14
7060,80,-2016,-56,106,54,-17
7065,88,-2024,-40,105,54,-16
7070,88,-2032,-56,104,52,-22
7075,112,-2032,-24,102,51,-21
7080,112,-2032,-48,99,52,-25
7085,96,-2048,-32,96,53,-24
7090,80,-2008,-24,93,53,-27
7095,104,-2024,-16,92,52,-26
7100,80,-2024,-24,92,52,-30
7105,80,-2112,96,91,51,-27
7110,96,-2032,-8,90,51,-31
7115,96,-2040,-16,90,52,-29
7120,88,-2032,-16,88,50,-33
7125,88,-2040,0,87,50,-31
7130,120,-2056,0,86,49,-33
7135,96,-2024,16,83,47,-31
7140,112,-2016,8,82,47,-34
7145,104,-2048,16,79,48,-30
7150,112,-2048,24,78,49,-30
7155,120,-2032,8,75,49,-25
7160,120,-2064,8,74,51,-25
7165,104,-2040,0,73,54,-20
7170,120,-2064,32,72,56,-22
7175,112,-2056,16,74,58,-21
7180,112,-2048,40,76,58,-23
7185,112,-2040,40,77,58,-23
7190,96,-2040,40,79,59,-28
7195,96,-2040,24,79,61,-27
7200,88,-2032,56,79,62,-32
7205,88,-2048,48,81,62,-32
7210,72,-2048,48,81,63,-37
7215,72,-2048,24,84,61,-37
7220,96,-2056,24,85,61,-38
7225,96,-2048,40,87,61,-34
7230,96,-2048,24,88,60,-35
7235,104,-2024,32,90,59,-32
7240,112,-2040,8,91,59,-33
7245,120,-2016,56,90,58,-30
7250,96,-2016,32,88,59,-31
7255,88,-2000,8,87,59,-27
7260,104,-2032,40,86,59,-28
7265,120,-2024,48,83,59,-26
7270,120,-2024,0,80,60,-27
7275,104,-1992,16,78,61,-24
7280,104,-2024,32,77,62,-26
7285,112,-2032,32,78,62,-24
7290,120,-2048,0,76,63,-26
7295,112,-2024,24,80,63,-24
7300,120,-2064,16,80,64,-25
7305,112,-2056,16,82,64,-22
7310,120,-2072,24,87,65,-25
7315,96,-2040,48,91,65,-25
7320,104,-2064,40,96,66,-27
7325,144,-2064,48,102,68,-26
7330,120,-2072,64,109,69,-28
7335,120,-2056,64,118,70,-27
7340,136,-2072,64,127,71,-28
7345,128,-2072,64,137,71,-27
7350,144,-2072,64,146,71,-29
7355,136,-2072,64,154,71,-27
7360,144,-2080,64,162,70,-27
7365,152,-2064,64,169,72,-25
7370,128,-2064,88,176,70,-23
7375,144,-2064,72,182,71,-22
7380,120,-2064,56,186,69,-22
7385,152,-2048,64,193,70,-19
7390,128,-2024,56,198,68,-19
7395,160,-2056,56,204,67,-18
7400,128,-2032,40,210,67,-17
7405,136,-2040,80,215,67,-14
7410,144,-2024,48,219,67,-14
7415,120,-1984,56,223,67,-15
7420,128,-2000,64,227,68,-13
7425,120,-1992,56,229,71,-15
7430,128,-2008,56,233,74,-13
7435,136,-2032,48,236,77,-15
7440,120,-2000,40,238,79,-15
7445,128,-2008,72,238,80,-17
7450,136,-2008,64,239,83,-17
7455,136,-2016,16,238,86,-18
7460,104,-1992,56,237,87,-18
7465,136,-2024,64,237,86,-19
7470,112,-2032,72,233,87,-20
7475,112,-2048,80,232,90,-23
7480,128,-2032,72,229,89,-22
7485,120,-2016,88,228,89,-24
7490,104,-2016,112,227,87,-25
7495,112,-2032,96,227,84,-27
7500,96,-2008,136,225,84,-27
7505,72,-2008,112,227,82,-29
7510,104,-2040,120,228,81,-29
7515,112,-2032,144,232,81,-31
7520,88,-2008,112,233,79,-29
7525,112,-2048,152,238,76,-32
7530,88,-2016,120,241,75,-31
7535,112,-2048,120,245,74,-32
7540,88,-2032,112,250,70,-32
7545,112,-2056,128,257,71,-36
7550,104,-2032,136,262,71,-36
7555,104,-2048,128,266,73,-39
7560,112,-2024,144,268,74,-39
7565,120,-2032,120,270,76,-40
7570,120,-2008,176,269,79,-39
7575,128,-1992,136,269,81,-40
7580,120,-1984,128,265,85,-39
7585,152,-1992,144,262,90,-39
7590,144,-2000,176,261,96,-34
7595,152,-1992,168,261,102,-35
7600,168,-2008,168,261,106,-32
7605,160,-2000,192,264,110,-31
7610,184,-2024,192,270,112,-26
7615,176,-2032,192,276,113,-23
7620,176,-2024,200,284,113,-15
7625,192,-2072,200,291,112,-12
7630,192,-2048,200,300,112,-5
7635,224,-2048,184,306,112,0
7640,184,-2056,216,312,112,6
7645,168,-2032,200,315,111,7
7650,192,-2040,168,320,111,13
7655,176,-2024,192,323,110,14
7660,160,-2000,184,324,114,18
7665,176,-1992,208,326,116,18
7670,168,-1984,232,327,118,20
7675,168,-1976,200,327,125,19
7680,144,-1976,200,326,130,25
7685,152,-1976,216,326,136,24
7690,168,-1968,232,323,139,28
7695,168,-1952,248,321,142,27
7700,152,-1976,272,320,143,29
7705,152,-1968,248,318,141,28
7710,144,-1992,272,318,138,29
7715,120,-2000,256,320,131,26
7720,128,-2024,280,323,125,27
7725,136,-2040,256,325,115,21
7730,96,-2032,280,328,109,21
7735,120,-2040,288,327,104,12
7740,112,-2024,264,322,100,8
7745,72,-2040,312,320,97,-2
7750,64,-2016,320,323,92,-2
7755,88,-2032,296,340,89,2
7760,72,-2016,320,349,87,-2
7765,72,-2008,352,349,90,-10
7770,104,-2024,320,346,96,-14
7775,216,-1984,264,340,109,-41
7780,8,-2024,344,332,123,-73
7785,64,-2032,336,347,117,-51
7790,56,-2008,304,363,112,-33
7795,88,-2016,360,375,106,-28
7800,72,-2008,320,391,107,-27
7805,104,-2016,360,404,110,-32
7810,96,-2016,336,409,108,-25
7815,112,-2056,368,420,103,-21
7820,112,-2048,384,437,97,-16
7825,128,-2040,368,448,95,-14
7830,96,-2016,352,462,93,-11
7835,112,-2024,376,473,93,-10
7840,120,-2016,384,483,92,-9
7845,104,-2040,424,494,92,-11
7850,112,-2024,440,506,90,-9
7855,120,-2000,392,516,86,-12
7860,104,-1992,432,523,81,-10
7865,88,-1976,488,527,73,-17
7870,192,-1936,408,535,66,-20
7875,24,-1952,432,540,59,-27
7880,104,-1960,480,546,51,-30
7885,144,-1912,488,547,43,-33
7890,104,-1920,416,560,39,-32
7895,88,-1936,440,575,39,-39
7900,72,-1928,448,585,38,-39
7905,104,-1912,448,591,40,-34
7910,88,-1936,448,588,42,-40
7915,80,-1880,440,580,48,-54
7920,104,-1872,456,575,54,-65
7925,96,-1896,472,573,65,-65
7930,120,-1904,488,570,78,-52
7935,120,-1872,496,566,87,-45
7940,136,-1912,480,561,92,-38
7945,136,-1896,440,559,96,-32
7950,144,-1912,480,555,95,-26
7955,136,-1944,488,554,93,-29
7960,136,-1904,488,552,88,-33
7965,128,-1928,496,553,85,-36
7970,152,-1912,512,550,81,-38
7975,144,-1912,536,551,78,-45
7980,144,-1920,536,553,74,-49
7985,136,-1912,568,556,67,-52
7990,144,-1920,592,559,61,-55
7995,152,-1896,552,560,55,-62
8000,136,-1888,536,563,50,-66
8005,160,-1896,576,563,45,-70
8010,144,-1888,560,566,39,-75
8015,152,-1904,592,569,36,-75
8020,152,-1920,576,569,33,-70
8025,152,-1896,560,565,35,-66
8030,128,-1904,600,563,37,-60
8035,144,-1904,584,563,39,-60
8040,120,-1896,616,565,42,-57
8045,152,-1904,608,568,42,-54
8050,152,-1888,608,579,47,-53
8055,120,-1880,608,585,50,-50
8060,136,-1872,640,593,55,-49
8065,160,-1880,664,604,59,-41
8070,104,-1864,632,612,61,-42
8075,152,-1848,656,614,64,-46
8080,128,-1848,656,615,67,-48
8085,136,-1840,672,616,71,-50
8090,144,-1872,672,621,73,-51
8095,136,-1840,664,626,72,-51
8100,136,-1840,736,631,71,-53
8105,136,-1824,736,635,68,-54
8110,136,-1784,712,642,67,-55
8115,120,-1808,744,647,63,-56
8120,128,-1800,760,652,60,-56
8125,144,-1808,784,657,57,-56
8130,112,-1800,760,661,53,-54
8135,128,-1800,744,660,53,-54
8140,144,-1792,744,660,50,-53
8145,120,-1768,784,658,51,-50
8150,128,-1800,776,654,50,-48
8155,136,-1768,784,649,53,-47
8160,152,-1776,792,641,53,-46
8165,168,-1776,784,637,56,-42
8170,128,-1776,808,635,59,-41
8175,160,-1808,816,637,61,-39
8180,160,-1792,792,640,63,-41
8185,168,-1800,816,643,64,-43
8190,168,-1776,832,645,60,-47
8195,192,-1760,816,649,59,-49
8200,176,-1728,824,649,59,-54
8205,184,-1752,872,647,56,-55
8210,176,-1736,864,650,54,-60
8215,184,-1720,856,654,52,-64
8220,184,-1704,864,655,51,-69
8225,176,-1696,896,655,48,-73
8230,184,-1704,912,659,43,-78
8235,216,-1712,904,662,41,-79
8240,208,-1704,912,667,38,-85
8245,200,-1688,912,672,38,-88
8250,192,-1704,936,680,40,-90
8255,192,-1720,912,687,42,-90
8260,200,-1704,896,698,44,-94
8265,208,-1688,904,708,51,-94
8270,224,-1696,920,715,59,-96
8275,224,-1704,920,720,69,-94
8280,216,-1704,920,723,81,-94
8285,224,-1720,928,724,88,-88
8290,256,-1712,912,724,95,-88
8295,232,-1680,920,721,100,-83
8300,248,-1672,928,719,104,-81
8305,256,-1648,960,716,104,-77
8310,248,-1648,936,712,104,-77
8315,256,-1656,944,709,104,-75
8320,248,-1624,952,705,105,-77
8325,240,-1624,960,704,107,-77
8330,280,-1632,984,702,111,-81
8335,264,-1640,976,703,113,-83
8340,264,-1640,984,707,119,-89
8345,256,-1632,976,712,127,-89
8350,256,-1648,984,720,136,-96
8355,264,-1672,960,729,146,-98
8360,256,-1664,984,737,155,-104
8365,240,-1664,1000,745,164,-107
8370,232,-1656,1000,756,175,-114
8375,232,-1640,1000,766,180,-113
8380,216,-1640,1000,772,185,-117
8385,224,-1624,1016,781,187,-116
8390,216,-1608,1032,789,187,-118
8395,184,-1576,976,798,183,-113
8400,160,-1560,1024,804,179,-110
8405,168,-1536,1024,808,175,-102
8410,136,-1528,1016,813,170,-93
8415,96,-1488,1032,818,162,-75
8420,72,-1504,1016,827,152,-60
8425,80,-1488,1016,834,146,-41
8430,32,-1456,1024,836,141,-26
8435,16,-1440,1000,838,135,-6
8440,-16,-1440,992,842,129,14
8445,-24,-1400,1016,845,122,35
8450,-48,-1400,968,841,116,51
8455,-40,-1376,920,831,112,70
8460,-48,-1360,896,818,108,79
8465,-64,-1352,848,803,107,90
8470,-48,-1352,848,794,108,90
8475,-48,-1368,832,787,114,93
8480,-16,-1376,800,781,120,89
8485,24,-1400,816,777,134,88
8490,56,-1424,800,775,152,74
8495,120,-1496,792,778,174,64
8500,192,-1552,832,783,196,48
8505,200,-1568,912,793,218,35
8510,232,-1584,928,807,237,14
8515,288,-1624,976,830,246,0
8520,256,-1616,984,852,252,-18
8525,296,-1608,1032,873,255,-31
8530,288,-1576,1048,895,259,-46
8535,280,-1536,1048,916,262,-55
8540,240,-1480,1032,934,265,-66
8545,232,-1472,1016,947,264,-70
8550,224,-1424,1016,959,263,-76
8555,200,-1408,1008,969,259,-78
8560,192,-1368,960,978,253,-83
8565,176,-1336,912,982,247,-87
8570,144,-1304,888,985,240,-96
8575,144,-1256,856,986,233,-104
8580,168,-1224,824,985,230,-120
8585,160,-1184,800,982,232,-136
8590,160,-1184,784,976,240,-154
8595,152,-1136,776,964,254,-169
8600,176,-1112,816,956,282,-188
8605,168,-1096,800,950,310,-200
8610,184,-1088,872,948,346,-213
8615,168,-1056,896,951,386,-222
8620,184,-1056,896,959,427,-231
8625,192,-1040,928,972,469,-233
8630,192,-1024,952,985,511,-236
8635,176,-968,952,999,548,-234
8640,176,-928,920,1015,580,-234
8645,144,-856,968,1031,604,-223
8650,112,-792,920,1053,620,-213
8655,128,-704,888,1072,626,-200
8660,128,-616,872,1094,624,-190
8665,120,-528,880,1113,614,-176
8670,96,-392,824,1127,603,-165
8675,40,-248,824,1141,582,-148
8680,24,-120,752,1152,550,-135
8685,-24,-24,760,1162,515,-120
8690,-16,40,712,1171,480,-106
8695,-32,96,656,1181,441,-98
8700,-56,144,608,1177,415,-95
8705,-56,168,584,1162,401,-94
8710,-32,176,568,1139,394,-97
8715,-48,144,496,1119,393,-95
8720,-8,80,456,1106,402,-98
8725,-8,56,400,1103,420,-100
8730,-8,8,328,1103,446,-107
8735,16,8,240,1106,479,-112
8740,24,-8,184,1113,524,-119
8745,40,0,168,1120,564,-125
8750,88,0,104,1128,605,-132
8755,64,24,56,1134,650,-139
8760,104,56,40,1129,693,-146
8765,104,152,48,1111,735,-162
8770,152,232,-40,1086,773,-178
8775,216,256,-24,1041,826,-199
8780,-64,296,112,990,872,-230
8785,-96,288,120,973,778,-231
8790,320,144,120,967,759,-239
8795,144,64,328,982,854,-286
8800,96,-24,360,1000,857,-306
8805,8,-184,576,985,805,-317
8810,-216,-416,944,989,736,-327
8815,-400,-608,1240,1058,612,-324
8820,-696,-952,1584,1212,448,-307
8825,-728,-1256,2008,1443,288,-279
8830,-368,-1472,2392,1758,181,-204
8835,-144,-1712,2856,2215,200,-159
8840,-216,-2000,3344,2595,257,-107
8845,-280,-2192,3880,2952,296,-85
8850,-208,-2176,4240,3293,324,-137
8855,-208,-2048,4784,3612,386,-182
8860,-80,-1896,5304,3900,447,-156
8865,136,-1640,5744,4118,493,-99
8870,312,-1352,6072,4246,531,-60
8875,496,-1040,6432,4259,602,-58
8880,688,-696,6664,4137,716,-82
8885,840,-104,6760,3915,768,-141
8890,928,104,6760,3629,764,-131
8895,880,88,6536,3368,704,-74
8900,480,-120,6144,3188,587,-10
8905,80,-208,5832,3068,384,58
8910,-256,-152,5320,2971,160,103
8915,-384,48,5032,2832,15,99
8920,-464,424,4776,2617,-9,57
8925,-488,656,4632,2267,70,13
8930,-600,896,4520,1944,169,-4
8935,-728,1104,4280,1629,247,8
8940,-816,1176,4136,1284,332,16
8945,-1024,1448,3928,949,435,31
8950,-1128,1576,3640,622,522,96
8955,-1128,1696,3224,332,620,189
8960,-920,1648,2760,129,759,245
8965,-1392,1904,2128,-11,959,154
8970,-1504,2032,1728,-195,1085,133
8975,-1536,2248,976,-277,1173,139
8980,-1544,2312,552,-436,1287,184
8985,-1464,2128,624,-596,1351,239
8990,-1352,1872,608,-577,1346,308
8995,-1088,1680,656,-497,1263,335
9000,-840,1296,768,-401,1099,326
9005,-888,984,856,-254,892,246
9010,-784,728,848,-93,640,182
9015,-400,480,872,39,325,164
9020,-104,416,968,80,137,147
9025,40,384,1144,55,28,105
9030,96,416,1312,-8,-39,52
9035,120,376,1472,-68,-79,-21
9040,128,392,1616,-91,-117,-107
9045,240,352,1704,-88,-148,-191
9050,136,392,1760,-104,-170,-276
9055,72,296,1912,-185,-211,-352
9060,88,96,1936,-314,-280,-392
9065,48,-120,2112,-517,-300,-409
9070,48,-224,2192,-687,-268,-392
9075,40,-304,2256,-859,-194,-362
9080,-32,-352,2264,-1021,-102,-303
9085,-88,-344,2288,-1131,-37,-242
9090,-168,-272,2128,-1177,-17,-163
9095,-208,-96,1952,-1156,-22,-72
9100,-256,-16,1712,-1091,-23,29
9105,-280,128,1568,-973,-26,141
9110,-256,192,1344,-771,-37,239
9115,-296,384,1152,-603,-68,327
9120,-344,528,1040,-468,-116,383
9125,-392,712,968,-383,-179,383
9130,-448,904,888,-342,-253,360
9135,-464,1072,888,-338,-334,320
9140,-480,1232,968,-369,-403,274
9145,-552,1288,1024,-424,-447,215
9150,-632,1400,1144,-483,-470,144
9155,-744,1448,1312,-541,-472,86
9160,-720,1464,1480,-561,-468,44
9165,-704,1472,1648,-547,-454,-1
9170,-768,1472,1824,-506,-433,-37
9175,-736,1424,2040,-458,-431,-63
9180,-712,1376,2104,-409,-434,-82
9185,-632,1280,2232,-348,-416,-103
9190,-592,1256,2288,-276,-378,-123
9195,-528,1272,2296,-214,-313,-135
9200,-440,1264,2272,-166,-207,-126
9205,-344,1208,2224,-129,-112,-118
9210,-192,1192,2200,-88,-20,-94
9215,-144,1152,2168,-50,78,-75
9220,-72,1112,2144,-10,171,-61
9225,-8,1056,2120,29,251,-52
9230,40,952,2136,57,310,-32
9235,72,832,2128,82,350,-4
9240,88,744,2112,112,367,39
9245,112,592,2160,147,362,75
9250,112,496,2104,187,349,102
9255,96,424,2064,207,339,130
9260,80,328,2056,209,332,165
9265,72,256,2024,187,324,199
9270,72,152,1992,127,317,229
9275,72,104,1976,37,315,229
9280,-24,8,1952,-74,306,208
9285,-128,-112,2048,-209,287,181
9290,-120,-208,2096,-286,216,183
9295,0,-288,2112,-331,139,169
9300,-88,-336,2080,-396,114,47
9305,-136,-416,2096,-463,99,-50
9310,-280,-520,2128,-477,64,-97
9315,-160,-576,2096,-460,26,-126
9320,-264,-608,2072,-450,26,-162
9325,-304,-768,2152,-392,30,-173
9330,-400,-816,2192,-314,57,-197
9335,-312,-840,2160,-185,62,-182
9340,-328,-888,2192,2,76,-187
9345,-328,-864,2152,154,81,-194
9350,-256,-816,2112,276,77,-196
9355,-240,-744,2104,359,79,-198
9360,-224,-656,1976,413,88,-178
9365,-216,-568,1984,425,99,-140
9370,-176,-528,1928,404,102,-103
9375,-176,-448,1864,366,95,-81
9380,-176,-344,1816,321,83,-59
9385,-152,-296,1776,272,72,-40
9390,-144,-216,1744,233,63,-17
9395,-160,-176,1720,200,57,9
9400,-168,-128,1688,177,53,32
9405,-168,-64,1696,162,54,44
9410,-160,-32,1664,151,64,53
9415,-192,32,1680,144,78,59
9420,-208,104,1728,139,91,67
9425,-200,96,1808,144,107,69
9430,-184,96,1896,160,122,72
9435,-208,128,2016,179,139,72
9440,-176,160,2080,205,158,70
9445,-184,176,2136,225,182,65
9450,-176,192,2168,240,208,57
9455,-200,200,2224,246,232,47
9460,-160,240,2264,244,254,34
9465,-168,296,2296,226,280,15
9470,-176,304,2328,206,298,-3
9475,-208,360,2288,188,300,-23
9480,-256,424,2192,154,286,-42
9485,-224,480,2144,118,267,-59
9490,-296,552,2056,81,232,-68
9495,-320,560,1920,33,177,-67
9500,-352,560,1792,-22,119,-74
9505,-392,528,1680,-71,70,-84
9510,-384,440,1616,-103,30,-85
9515,-384,312,1592,-116,-10,-85
9520,-352,184,1504,-93,-43,-95
9525,-376,128,1448,-55,-84,-113
9530,-472,88,1400,-4,-119,-98
9535,-416,0,1352,143,-109,-44
9540,-328,8,1232,295,-90,-21
9545,-312,160,1312,344,-78,-36
9550,-392,264,1280,317,-80,-47
9555,-408,400,1320,249,-97,-23
9560,-264,376,1352,153,-102,11
9565,-456,424,1472,67,-75,-4
9570,-464,368,1496,42,-37,36
9575,-424,408,1488,38,1,103
9580,-288,344,1504,-40,60,161
9585,-400,56,1632,-166,131,149
9590,-496,-112,1760,-236,173,127
9595,-424,-192,1824,-277,199,152
9600,-128,-416,1880,-317,214,179
9605,-128,-416,1928,-411,239,80
9610,-168,-472,2072,-576,281,-44
9615,-360,-832,2248,-740,288,-122
9620,-64,-816,2128,-707,256,-104
9625,-128,-1008,2160,-675,255,-150
9630,0,-952,2128,-639,241,-228
9635,-40,-1072,2136,-604,207,-326
9640,-40,-1032,2144,-504,155,-380
9645,-160,-1032,2144,-384,123,-394
9650,-256,-992,2144,-246,98,-352
9655,-296,-808,2088,-109,62,-258
9660,-248,-680,1984,-3,22,-132
9665,-312,-536,1968,21,-2,-76
9670,-352,-400,1944,-14,-26,-56
9675,-376,-256,1912,-69,-46,-29
9680,-376,-168,1896,-129,-54,3
9685,-464,-104,1888,-184,-53,49
9690,-448,-32,1888,-230,-47,107
9695,-448,-16,1864,-259,-41,174
9700,-480,24,1840,-272,-39,231
9705,-448,32,1864,-266,-37,294
9710,-496,64,1816,-233,-40,332
9715,-496,160,1792,-194,-47,358
9720,-488,200,1760,-157,-65,373
9725,-472,264,1736,-120,-85,396
9730,-432,272,1736,-99,-108,407
9735,-392,328,1712,-72,-123,405
9740,-392,360,1696,-48,-136,392
9745,-320,312,1696,-38,-153,371
9750,-312,328,1704,-25,-166,321
9755,-248,336,1704,-20,-176,275
9760,-264,304,1736,-35,-180,222
9765,-240,256,1784,-62,-176,184
9770,-248,256,1752,-99,-164,154
9775,-232,160,1800,-133,-150,136
9780,-208,128,1872,-148,-129,115
9785,-200,88,1904,-149,-105,98
9790,-192,56,1904,-140,-78,74
9795,-160,24,1944,-124,-47,51
9800,-176,-8,1984,-106,-9,23
9805,-184,-8,2024,-85,19,2
9810,-192,-16,2056,-68,41,-19
9815,-216,-8,2056,-61,55,-27
9820,-176,-16,2088,-62,61,-36
9825,-160,0,2096,-74,66,-37
9830,-152,-16,2104,-94,67,-41
9835,-104,-16,2128,-121,69,-38
9840,-96,16,2168,-156,72,-39
9845,-96,32,2144,-187,75,-37
9850,-80,32,2176,-219,81,-35
9855,-80,56,2144,-235,88,-32
9860,-48,56,2128,-247,95,-38
9865,-40,72,2120,-252,103,-40
9870,-16,80,2080,-242,108,-46
9875,0,104,2064,-213,109,-50
9880,24,104,2056,-171,116,-65
9885,8,120,2016,-127,127,-81
9890,-32,160,2000,-82,140,-101
9895,-24,168,1960,-28,151,-106
9900,8,176,1920,13,164,-114
9905,-8,224,1928,42,177,-127
9910,-24,216,1872,58,190,-150
9915,-64,248,1896,62,203,-169
9920,-56,248,1880,67,212,-180
9925,-80,240,1864,69,220,-179
9930,-88,240,1872,74,223,-179
9935,-128,200,1864,78,219,-174
9940,-136,192,1888,80,206,-173
9945,-176,160,1856,82,194,-164
9950,-184,128,1832,87,179,-157
9955,-224,112,1832,92,164,-144
9960,-224,80,1840,99,147,-136
9965,-240,40,1888,106,129,-124
9970,-232,24,1864,116,114,-116
9975,-240,0,1856,122,101,-101
9980,-280,0,1832,124,91,-90
9985,-288,-16,1872,120,85,-71
9990,-280,-32,1824,114,86,-58
9995,-280,-32,1840,102,90,-43
10000,-304,-64,1864,92,97,-31
10005,-304,-56,1864,80,104,-16
10010,-328,-72,1872,64,111,-6
10015,-312,-88,1912,46,120,7
10020,-312,-72,1896,29,127,15
10025,-312,-112,1904,11,136,25
10030,-320,-104,1888,-3,143,35
10035,-328,-144,1888,-23,145,42
10040,-328,-112,1896,-41,146,48
10045,-352,-112,1928,-62,145,54
10050,-328,-128,1920,-76,140,57
10055,-336,-136,1904,-90,135,61
10060,-360,-136,1976,-99,127,62
10065,-336,-128,1928,-110,120,62
10070,-352,-136,1944,-117,111,64
10075,-344,-152,1936,-114,98,69
10080,-360,-152,1912,-103,81,68
10085,-352,-152,1912,-90,68,67
10090,-360,-112,1928,-75,55,63
10095,-336,-120,1920,-64,44,60
10100,-368,-112,1912,-56,37,56
10105,-336,-112,1872,-49,33,52
10110,-344,-88,1880,-40,27,46
10115,-344,-80,1896,-30,26,40
10120,-336,-48,1880,-21,24,32
10125,-344,-32,1920,-15,23,26
10130,-328,-64,1880,-13,25,19
10135,-336,-32,1896,-15,29,16
10140,-312,-56,1904,-20,34,12
10145,-296,-32,1872,-26,37,10
10150,-280,-32,1872,-31,42,7
10155,-304,-16,1856,-35,45,5
10160,-272,-24,1888,-39,49,2
10165,-288,-32,1880,-41,50,1
10170,-280,-16,1848,-43,49,-2
10175,-280,-24,1864,-46,49,-6
10180,-296,-8,1888,-51,49,-8
10185,-280,0,1896,-57,49,-12
10190,-280,16,1912,-62,48,-14
10195,-280,24,1880,-68,47,-15
10200,-264,48,1888,-71,46,-18
10205,-272,24,1920,-71,44,-19
10210,-272,32,1904,-71,43,-18
10215,-288,40,1880,-70,42,-16
10220,-272,56,1888,-65,41,-15
10225,-280,48,1880,-63,42,-18
10230,-272,32,1880,-60,42,-19
10235,-280,48,1912,-58,43,-22
10240,-272,48,1912,-54,45,-24
10245,-288,40,1936,-55,47,-26
10250,-304,48,1920,-52,49,-25
10255,-272,16,1912,-50,50,-26
10260,-280,24,1928,-47,48,-25
10265,-280,8,1904,-40,48,-25
10270,-248,-16,1928,-35,49,-22
10275,-264,0,1912,-30,47,-21
10280,-264,0,1904,-26,46,-19
10285,-272,-16,1904,-22,43,-20
10290,-272,-8,1904,-19,40,-18
10295,-256,8,1936,-14,37,-19
10300,-256,-24,1896,-9,34,-15
10305,-232,-24,1896,-8,32,-14
10310,-248,-24,1896,-6,30,-13
10315,-240,-16,1912,-4,31,-13
10320,-232,-16,1904,-3,31,-10
10325,-232,-32,1896,-4,31,-10
10330,-248,-24,1936,-2,33,-7
10335,-240,-16,1880,-3,35,-7
10340,-216,-32,1920,-3,37,-3
10345,-216,-32,1912,-3,39,-3
10350,-224,-24,1904,-3,41,-1
10355,-216,-16,1888,-3,41,0
10360,-240,-24,1880,-3,42,3
10365,-216,-16,1936,0,44,4
10370,-232,-24,1912,4,47,5
10375,-208,-24,1912,3,47,4
10380,-232,-32,1920,5,48,8
10385,-216,-32,1944,6,50,6
10390,-224,-32,1904,6,52,8
10395,-200,-32,1904,5,54,7
10400,-224,-48,1896,5,57,9
10405,-216,-32,1936,3,59,7
10410,-232,-32,1888,3,61,10
10415,-216,-32,1896,3,62,6
10420,-232,-24,1896,2,62,9
10425,-216,-32,1912,1,63,6
10430,-200,-32,1912,-2,64,7
10435,-208,-48,1920,-4,64,5
10440,-232,-32,1920,-6,63,4
10445,-208,-24,1912,-10,62,2
10450,-232,-32,1864,-14,63,4
10455,-216,-48,1904,-18,64,0
10460,-240,-24,1896,-21,63,2
10465,-224,-24,1896,-24,64,-2
10470,-240,-32,1904,-26,63,0
10475,-232,-24,1912,-26,64,-2
10480,-216,-24,1888,-26,64,0
10485,-240,-32,1880,-24,66,-2
10490,-232,-32,1888,-22,65,-2
10495,-248,-16,1896,-21,65,-6
10500,-232,-24,1896,-19,67,-5
10505,-272,-24,1904,-20,68,-9
10510,-240,-8,1872,-20,69,-7
10515,-256,-16,1888,-22,71,-10
10520,-248,-16,1864,-23,73,-7
10525,-248,8,1880,-23,74,-10
10530,-296,0,1880,-22,74,-8
10535,-264,-24,1912,-21,75,-11
10540,-296,-16,1904,-19,75,-9
10545,-256,-16,1904,-18,74,-11
10550,-280,-24,1920,-16,76,-9
10555,-272,-32,1896,-15,77,-12
10560,-280,-24,1896,-14,79,-8
10565,-304,-8,1880,-16,82,-11
10570,-288,-8,1912,-17,83,-7
10575,-280,-16,1896,-22,85,-9
10580,-272,-24,1888,-23,88,-6
10585,-296,-24,1904,-25,87,-8
10590,-328,-24,1928,-26,88,-5
10595,-312,-32,1896,-29,88,-9
10600,-272,-48,1888,-29,87,-8
10605,-296,0,1920,-29,87,-9
10610,-288,-24,1896,-30,87,-7
10615,-312,-16,1888,-31,86,-11
10620,-288,-24,1920,-31,84,-7
10625,-280,-24,1920,-30,81,-9
10630,-288,-24,1904,-29,78,-7
10635,-288,-32,1880,-30,76,-7
10640,-280,-16,1896,-30,75,-5
10645,-272,-24,1920,-30,74,-4
10650,-280,-32,1912,-31,73,-1
10655,-272,-24,1952,-29,73,-2
10660,-264,-32,1904,-26,73,1
10665,-248,-24,1888,-23,72,0
10670,-256,-32,1912,-20,71,2
10675,-280,-16,1872,-17,72,0
10680,-256,-16,1904,-15,72,3
10685,-248,-24,1904,-13,75,1
10690,-248,-32,1888,-13,75,5
10695,-240,-24,1912,-12,77,4
10700,-256,-32,1920,-11,75,6
10705,-248,-32,1912,-12,77,6
10710,-256,-32,1912,-12,77,8
10715,-232,-32,1912,-12,76,8
10720,-232,-32,1872,-11,73,12
10725,-272,-32,1928,-7,72,9
10730,-240,-48,1872,-3,70,9
10735,-256,-32,1888,1,68,5
10740,-240,-32,1880,3,66,3
10745,-256,-48,1896,2,63,-1
10750,-264,-24,1872,1,63,0
10755,-264,-16,1920,0,63,-3
10760,-240,-24,1872,-3,61,-2
10765,-256,-8,1888,-3,60,-4
10770,-240,-32,1904,-1,60,-3
10775,-240,-24,1872,1,56,-2
10780,-240,-24,1912,4,55,0
10785,-240,-32,1896,7,54,-2
10790,-224,-40,1888,10,55,-1
10795,-256,-8,1896,13,57,-3
10800,-248,-32,1912,14,58,-2
10805,-248,-16,1968,17,61,-3
10810,-264,-24,1912,16,64,-2
10815,-248,-32,1912,13,67,-2
10820,-264,-40,1912,11,72,-4
10825,-272,-8,1920,9,73,-4
10830,-256,-24,1904,8,74,-4
10835,-280,-24,1888,6,73,-2
10840,-272,-16,1912,5,74,-2
10845,-296,-32,1928,2,73,-2
10850,-256,-24,1896,0,72,-2
10855,-256,-32,1904,-2,72,-3
10860,-272,-24,1904,-2,68,-1
10865,-264,-32,1904,-3,68,-2
10870,-256,-24,1888,-1,67,-2
10875,-256,-32,1896,3,66,-3
10880,-256,-24,1888,5,68,-2
10885,-264,-16,1864,7,68,-1
10890,-272,-8,1864,7,69,-1
10895,-264,-24,1888,10,70,-2
10900,-296,-24,1880,8,71,-2
10905,-264,-16,1912,6,75,-2
10910,-256,-16,1928,4,76,-1
10915,-272,-8,1872,2,75,0
10920,-264,-24,1936,1,76,-1
10925,-272,-8,1912,2,75,1
10930,-264,0,1904,4,75,1
10935,-264,-16,1896,6,72,2
10940,-280,-16,1896,9,70,2
10945,-264,-8,1904,13,69,1
10950,-256,-24,1944,17,68,1
10955,-272,-16,1912,21,69,0
10960,-256,-16,1936,26,70,0
10965,-256,-24,1928,30,73,2
10970,-272,-24,1896,34,73,1
10975,-272,-24,1896,39,75,1
10980,-296,-16,1896,42,76,0
10985,-280,-24,1888,45,78,0
10990,-248,-16,1896,48,79,-3
10995,-280,-32,1896,49,82,-2
11000,-256,-24,1880,50,82,-4
11005,-288,-24,1920,50,83,-3
11010,-280,-16,1888,50,84,-6
11015,-288,-24,1904,49,86,-5
11020,-272,-24,1880,49,85,-7
11025,-280,-16,1904,48,83,-7
11030,-288,-8,1888,45,85,-8
11035,-288,-24,1904,42,85,-6
11040,-280,-8,1888,40,83,-9
11045,-272,-32,1896,36,81,-8
11050,-272,-24,1896,34,78,-7
11055,-272,0,1912,31,75,-4
11060,-272,-8,1928,29,71,-6
11065,-264,-16,1896,27,71,-5
11070,-272,-8,1928,25,69,-7
11075,-272,-32,1944,23,70,-6
11080,-272,0,1928,20,71,-7
11085,-264,0,1864,19,69,-6
11090,-248,-24,1904,18,69,-7
11095,-256,0,1888,15,70,-5
11100,-280,-8,1936,18,71,-6
11105,-288,16,1912,22,72,-2
11110,-280,8,1880,26,73,-5
11115,-288,-8,1920,32,75,-2
11120,-248,8,1856,40,75,-5
11125,-272,0,1896,45,78,-2
11130,-280,0,1896,50,81,-5
11135,-288,-8,1896,58,84,-4
11140,-256,-8,1872,64,86,-5
11145,-280,8,1896,73,91,-4
11150,-272,16,1872,76,94,-6
11155,-280,8,1880,78,93,-4
11160,-288,8,1848,80,95,-7
11165,-264,8,1864,81,97,-5
11170,-288,16,1880,81,100,-7
11175,-264,16,1880,81,102,-6
11180,-288,24,1880,79,103,-9
11185,-304,32,1896,75,103,-7
11190,-272,72,1944,72,105,-9
11195,-296,32,1752,69,107,-6
11200,-384,24,1896,67,107,-8
11205,-400,64,1904,67,110,-4
11210,-312,0,1984,67,110,-7
11215,-288,16,1904,66,112,-6
11220,-304,16,1904,64,112,-8
11225,-280,24,1912,66,111,-6
11230,-280,16,1912,66,112,-11
11235,-288,8,1904,68,112,-10
11240,-240,32,1840,69,111,-13
11245,-232,176,1920,69,107,-10
11250,-296,48,1904,67,103,-12
11255,-272,48,1912,67,98,-10
11260,-280,16,1912,64,96,-14
11265,-280,16,1904,61,91,-13
11270,-296,32,1936,58,85,-17
11275,-272,32,1920,53,82,-15
11280,-280,40,1904,46,78,-17
11285,-280,32,1888,41,74,-15
11290,-296,40,1912,36,71,-15
11295,-280,32,1920,29,70,-11
11300,-304,40,1912,21,69,-12
11305,-280,32,1912,15,69,-9
11310,-272,32,1912,5,69,-11
11315,-312,40,1912,-2,69,-9
11320,-288,24,1952,-9,67,-11
11325,-296,24,1896,-16,70,-10
11330,-304,40,1920,-20,70,-12
11335,-296,24,1912,-22,71,-11
11340,-280,48,1912,-24,71,-12
11345,-312,32,1944,-23,74,-11
11350,-320,56,1912,-22,76,-14
11355,-296,32,1880,-21,77,-10
11360,-312,48,1904,-21,78,-11
11365,-304,48,1880,-22,78,-7
11370,-320,56,1896,-24,79,-7
11375,-288,48,1920,-29,80,-2
11380,-296,40,1936,-36,81,-2
11385,-296,40,1904,-43,80,0
11390,-288,48,1936,-54,81,1
11395,-296,40,1928,-65,81,2
11400,-280,32,1936,-79,81,1
11405,-296,40,1960,-91,82,4
11410,-272,8,1960,-100,81,3
11415,-280,24,1944,-110,81,7
11420,-272,16,1936,-114,79,7
11425,-296,0,1952,-115,76,10
11430,-280,8,1904,-114,70,11
11435,-296,0,1936,-108,63,12
11440,-288,-24,1952,-95,57,12
11445,-288,16,1888,-82,50,13
11450,-288,-16,1896,-66,42,10
11455,-288,-8,1904,-49,37,11
11460,-272,-16,1896,-35,30,7
11465,-288,8,1856,-26,27,5
11470,-280,-8,1912,-20,25,4
11475,-336,24,1880,-18,27,2
11480,-288,0,1896,-20,31,1
11485,-296,32,1896,-24,34,1
11490,-272,-8,1888,-31,41,1
11495,-312,48,1920,-38,44,1
11500,-288,16,1920,-44,50,0
11505,-280,16,1928,-50,53,2
11510,-296,32,1928,-54,55,1
11515,-288,24,1896,-54,56,-1
11520,-280,16,1888,-52,56,1
11525,-304,40,1904,-48,53,1
11530,-288,32,1896,-43,51,1
11535,-280,0,1912,-39,51,-1
11540,-312,24,1912,-35,48,0
11545,-296,8,1920,-30,46,-1
11550,-304,32,1912,-27,44,-2
11555,-288,8,1920,-24,44,-3
11560,-296,0,1904,-22,45,-1
11565,-288,0,1872,-23,48,-3
11570,-296,0,1920,-24,48,-3
11575,-312,0,1888,-25,49,-4
11580,-288,-8,1904,-29,51,-3
11585,-280,-24,1952,-35,51,-3
11590,-336,8,1904,-38,52,-2
11595,-312,24,1880,-44,50,-4
11600,-304,8,1888,-49,49,-3
11605,-296,-16,1872,-55,49,-5
11610,-296,-8,1912,-61,48,-2
11615,-312,-16,1896,-62,46,-4
11620,-320,0,1912,-67,45,-2
11625,-304,-8,1888,-67,44,0
11630,-296,16,1912,-70,42,1
11635,-280,-8,1888,-67,42,-2
11640,-280,-16,1904,-62,42,0
11645,-280,-8,1912,-60,42,-1
11650,-280,-16,1888,-56,42,1
11655,-296,-8,1904,-52,41,-1
11660,-304,0,1896,-48,40,1
11665,-288,0,1888,-45,39,-2
11670,-264,-16,1936,-43,40,-3
11675,-304,-8,1928,-41,39,-5
11680,-288,8,1896,-39,39,-3
11685,-304,0,1896,-37,42,-6
11690,-272,-8,1912,-37,44,-5
11695,-296,8,1896,-38,46,-6
11700,-312,8,1896,-40,48,-5
11705,-264,-16,1896,-43,50,-6
11710,-280,0,1864,-43,53,-3
11715,-296,8,1936,-43,56,-6
11720,-272,-8,1912,-46,56,-2
11725,-264,-24,1896,-46,57,-4
11730,-296,-8,1896,-47,58,-2
11735,-296,-8,1872,-49,58,-4
11740,-280,-8,1904,-50,59,-2
11745,-288,16,1904,-53,58,-4
11750,-288,0,1904,-54,56,-2
11755,-280,-16,1904,-58,56,-4
11760,-296,-16,1880,-61,54,-1
11765,-304,-16,1912,-61,53,-4
11770,-312,8,1896,-62,52,-3
11775,-272,-8,1920,-63,52,-4
11780,-296,-16,1904,-62,49,-3
11785,-288,-8,1904,-61,49,-5
11790,-248,-16,1912,-61,47,-2
11795,-264,-24,1912,-59,47,-4
11800,-272,0,1896,-57,46,-1
11805,-280,0,1904,-54,45,-3
11810,-296,-24,1888,-52,45,-1
11815,-272,-8,1880,-49,44,-3
11820,-272,-16,1872,-45,43,-2
11825,-280,-8,1872,-41,45,-4
11830,-288,-16,1896,-37,45,-1
11835,-280,-8,1880,-31,46,-3
11840,-256,-8,1896,-29,46,-1
11845,-288,-16,1904,-24,46,-4
11850,-280,-24,1896,-22,46,-2
11855,-256,-16,1904,-23,46,-3
11860,-304,-8,1920,-23,47,-1
11865,-264,-24,1928,-24,48,-5
11870,-272,-16,1904,-26,47,-1
11875,-280,-16,1904,-27,48,-2
11880,-272,-24,1888,-31,48,0
11885,-256,-32,1912,-35,48,-2
11890,-256,-24,1936,-39,48,1
11895,-280,0,1888,-44,48,0
11900,-288,-8,1920,-48,51,2
11905,-296,-16,1936,-52,51,0
11910,-280,-24,1888,-55,51,4
11915,-288,-8,1896,-59,50,3
11920,-296,-24,1912,-62,51,6
11925,-288,-24,1896,-64,48,4
11930,-240,-32,1904,-64,45,7
11935,-264,-24,1888,-63,43,5
11940,-280,-16,1896,-62,41,6
11945,-248,-24,1896,-61,40,2
11950,-256,-32,1912,-59,40,4
11955,-280,-24,1912,-60,39,-2
11960,-280,-8,1896,-57,39,-2
11965,-288,-24,1880,-55,41,-4
11970,-272,-24,1896,-52,43,-3
11975,-272,-8,1896,-50,44,-4
11980,-272,-32,1912,-47,43,-1
11985,-264,-24,1888,-46,47,-2
11990,-280,-24,1936,-42,48,1
11995,-288,-16,1880,-39,48,-2
12000,-256,-16,1880,-36,50,-1
12005,-280,-24,1888,-35,51,-3
12010,-288,-24,1888,-35,52,-2
12015,-280,-16,1896,-37,54,-3
12020,-296,-32,1920,-39,55,-3
12025,-296,-16,1888,-42,58,-4
12030,-296,-24,1904,-43,58,-4
12035,-288,-32,1880,-44,58,-4
12040,-304,-24,1888,-46,60,-2
12045,-280,-24,1912,-48,60,-3
12050,-296,-24,1904,-49,60,-2
12055,-296,-32,1888,-51,59,-4
12060,-280,-32,1896,-53,60,-3
12065,-296,-24,1872,-55,57,-4
12070,-272,-48,1872,-55,55,-1
12075,-280,-16,1888,-52,54,-2
12080,-264,-24,1888,-50,53,-1
12085,-264,-32,1880,-47,50,-2
12090,-280,-16,1896,-43,47,-2
12095,-280,-16,1888,-40,47,-4
12100,-288,-24,1864,-40,48,-3
12105,-280,-24,1904,-38,46,-5
12110,-264,-16,1912,-35,44,-4
12115,-264,-8,1888,-34,45,-5
12120,-272,-24,1912,-33,43,-5
12125,-272,0,1912,-32,44,-7
12130,-248,-16,1856,-29,43,-7
12135,-288,-16,1880,-30,43,-6
12140,-280,-24,1904,-28,45,-5
12145,-272,-32,1880,-27,46,-7
12150,-288,-16,1880,-23,47,-5
12155,-288,-16,1904,-20,51,-5
12160,-280,-24,1888,-17,52,-5
12165,-264,-32,1896,-16,52,-4
12170,-264,-32,1872,-13,55,-4
12175,-272,-40,1928,-12,57,-5
12180,-272,-32,1896,-10,56,-4
12185,-272,-32,1896,-8,57,-5
12190,-256,-40,1880,-9,57,-5
12195,-256,-32,1904,-10,55,-5
12200,-264,-56,1880,-12,57,-6
12205,-280,-32,1904,-11,56,-4
12210,-288,-32,1888,-13,56,-5
12215,-264,-24,1856,-14,55,-4
12220,-272,-32,1880,-15,55,-5
12225,-264,-32,1904,-17,56,-5
12230,-280,-32,1864,-19,56,-6
12235,-256,-32,1888,-20,57,-6
12240,-280,-32,1872,-22,59,-5
12245,-288,-32,1888,-23,59,-3
12250,-264,-32,1904,-21,60,-3
12255,-248,-40,1888,-18,61,-2
12260,-248,-32,1896,-16,62,-3
12265,-248,-32,1840,-14,63,-2
12270,-256,-16,1944,-13,61,-4
12275,-280,-32,1888,-10,62,-3
12280,-256,-24,1904,-11,61,-5
12285,-256,-32,1888,-11,62,-5
12290,-248,-32,1896,-11,63,-5
12295,-256,-32,1896,-11,63,-4
12300,-280,-24,1888,-10,63,-5
12305,-296,-24,1888,-10,64,-3
12310,-288,-48,1864,-11,64,-4
12315,-272,-32,1904,-11,65,-2
12320,-272,-24,1912,-11,67,-3
12325,-248,-32,1912,-9,67,-3
12330,-280,-24,1896,-9,68,-2
12335,-280,-32,1904,-10,68,-1
12340,-296,-32,1888,-9,68,-4
12345,-288,-48,1896,-9,66,-4
12350,-264,-32,1912,-11,67,-6
12355,-280,-32,1896,-10,67,-5
12360,-288,-32,1904,-12,65,-7
12365,-272,-24,1880,-14,66,-6
12370,-280,-32,1872,-15,67,-9
12375,-272,-40,1904,-15,67,-8
12380,-280,-16,1888,-16,69,-9
12385,-288,-32,1880,-16,71,-8
12390,-296,-16,1912,-18,73,-9
12395,-272,-24,1904,-17,73,-6
12400,-280,-32,1904,-18,72,-8
12405,-272,-32,1880,-16,73,-4
12410,-264,-32,1872,-15,72,-6
12415,-272,-16,1920,-16,70,-2
12420,-264,-16,1896,-13,70,-4
12425,-288,-24,1920,-14,68,-1
12430,-280,-24,1896,-13,68,-2
12435,-280,-32,1928,-13,68,0
12440,-248,-24,1904,-10,67,-1
12445,-288,-24,1872,-11,66,1
12450,-280,-16,1920,-11,66,-2
12455,-264,-32,1896,-10,66,0
12460,-264,-32,1904,-10,66,-1
12465,-248,-32,1912,-11,65,1
12470,-272,-8,1904,-11,63,-1
12475,-264,-24,1920,-11,61,1
12480,-264,-32,1880,-10,62,-3
12485,-272,-32,1872,-10,60,-1
12490,-272,-24,1880,-13,59,-1
12495,-272,-40,1912,-12,58,1
12500,-272,-32,1888,-12,59,0
12505,-296,-32,1904,-9,60,4
12510,-256,-32,1904,-9,60,2
12515,-248,-32,1872,-7,62,4
12520,-288,-24,1896,-6,62,2
12525,-280,-32,1920,-4,63,5
12530,-288,-24,1896,-4,64,1
12535,-272,-32,1880,-4,66,5
12540,-280,-32,1920,-4,67,4
12545,-288,-24,1888,-3,68,6
12550,-272,-32,1896,-2,67,3
12555,-256,-32,1912,-2,68,7
12560,-264,-32,1904,0,66,3
12565,-280,-32,1872,1,64,3
12570,-264,-32,1904,1,64,-1
12575,-272,-32,1896,1,64,-2
12580,-264,-8,1920,0,64,-7
12585,-280,-16,1896,0,63,-5
12590,-280,-32,1896,-3,65,-7
12595,-296,-16,1896,-5,65,-5
12600,-280,-24,1896,-7,65,-6
12605,-272,-16,1936,-8,65,-2
12610,-296,-32,1896,-8,65,-2
12615,-256,-32,1904,-7,66,1
12620,-264,-32,1920,-5,67,0
12625,-280,-40,1896,-3,65,2
12630,-272,-16,1880,-1,66,0
12635,-280,-32,1888,-2,66,3
12640,-288,-16,1928,-5,68,0
12645,-280,-16,1880,-7,68,1
12650,-280,-24,1904,-10,70,-1
12655,-264,-32,1920,-13,71,1
12660,-280,-40,1928,-14,71,0
12665,-304,-40,1920,-15,69,1
12670,-288,-32,1912,-16,69,0
12675,-272,-24,1896,-15,66,2
12680,-264,-40,1880,-13,61,0
12685,-296,-32,1880,-12,60,2
12690,-288,-24,1920,-13,59,1
12695,-296,-32,1864,-11,58,2
12700,-288,-24,1896,-8,56,1
12705,-288,-16,1856,-5,56,1
12710,-280,-32,1856,0,57,-1
12715,-288,-32,1856,4,58,1
12720,-280,-32,1872,5,57,-1
12725,-272,-24,1880,4,58,0
12730,-288,-24,1872,1,61,-2
12735,-264,-16,1888,1,63,-1
12740,-288,0,1888,0,66,-1
12745,-280,-16,1896,-3,67,0
12750,-304,-8,1912,-4,68,-1
12755,-280,-8,1896,-4,70,-2
12760,-264,-8,1896,-3,70,-1
12765,-264,-8,1912,-1,71,-2
12770,-272,-16,1904,2,70,-2
12775,-280,-24,1904,4,71,-1
12780,-304,-24,1928,6,71,-3
12785,-272,-16,1912,8,73,-1
12790,-264,-24,1928,9,73,-2
12795,-264,-24,1904,10,73,-3
12800,-264,-24,1920,11,73,-3
12805,-272,-16,1912,12,74,-3
12810,-272,-32,1904,10,72,-5
12815,-296,-32,1888,11,72,-4
12820,-296,-32,1896,10,73,-5
12825,-296,-24,1920,8,71,-2
12830,-296,-24,1928,7,69,-2
12835,-272,-56,1896,7,67,-3
12840,-280,-24,1888,5,66,-3
12845,-272,-32,1904,2,64,-4
12850,-280,-32,1928,0,62,-2
12855,-280,-24,1880,-2,60,-4
12860,-272,-32,1896,-4,60,-3
12865,-264,-32,1848,-4,60,-4
12870,-272,-32,1864,-5,61,-5
12875,-280,-32,1880,-4,60,-4
12880,-304,-32,1952,-2,60,-3
12885,-280,-24,1888,1,60,-2
12890,-264,-24,1888,7,60,-1
12895,-296,-16,1864,12,60,-2
12900,-296,-16,1904,17,59,-2
12905,-248,-24,1872,19,59,-3
12910,-280,-24,1896,21,59,-5
12915,-288,-16,1896,24,60,-7
12920,-288,-24,1880,25,61,-5
12925,-288,-32,1888,25,60,-5
12930,-272,-24,1920,24,61,-5
12935,-296,-24,1864,24,62,-6
12940,-272,-24,1880,24,63,-3
12945,-264,-24,1872,24,64,-4
12950,-296,0,1920,26,65,-2
12955,-296,-24,1888,27,67,-4
12960,-280,-16,1920,27,69,-1
12965,-296,-8,1872,26,72,-3
12970,-280,-16,1864,26,74,-2
12975,-280,-32,1864,26,76,-3
12980,-296,-24,1904,24,79,-2
12985,-280,-24,1896,22,79,-3
12990,-280,-16,1912,20,79,-3
12995,-296,0,1912,18,80,-5
13000,-280,-16,1904,17,81,-3
13005,-296,-16,1904,17,80,-4
13010,-272,-24,1872,16,82,-4
13015,-272,-16,1904,17,81,-6
13020,-280,-16,1872,16,82,-6
13025,-280,-16,1896,15,81,-6
13030,-280,-16,1896,15,80,-3
13035,-288,-16,1896,16,79,-5
13040,-280,-16,1880,20,78,-3
13045,-280,-32,1904,21,77,-4
13050,-296,-24,1864,22,76,-3
13055,-288,-24,1872,23,74,-5
13060,-280,-16,1896,24,72,-3
13065,-280,-16,1896,27,73,-5
13070,-296,-16,1912,29,74,-2
13075,-296,-32,1888,29,76,-4
13080,-304,-16,1904,31,76,-2
13085,-296,8,1880,31,76,-5
13090,-272,8,1904,34,76,-2
13095,-288,-8,1912,34,76,-5
13100,-296,0,1896,36,77,-4
13105,-280,-24,1912,36,79,-6
13110,-296,-8,1896,35,78,-5
13115,-296,8,1928,35,77,-6
13120,-288,-8,1928,33,75,-4
13125,-280,-16,1880,31,75,-7
13130,-288,8,1888,31,75,-4
13135,-272,-8,1912,28,75,-5
13140,-312,16,1880,26,75,-3
13145,-256,-8,1896,26,75,-5
13150,-288,0,1920,23,78,-5
13155,-288,-24,1928,23,81,-6
13160,-280,16,1912,21,80,-3
13165,-256,-16,1864,18,79,-5
13170,-296,0,1904,16,79,-2
13175,-288,-16,1896,14,77,-4
13180,-280,-8,1928,11,75,-2
13185,-312,-8,1928,11,75,-4
13190,-296,-8,1872,11,74,-2
13195,-272,0,1872,9,72,-4
13200,-280,-8,1896,11,70,-2
13205,-288,-8,1904,10,69,-5
13210,-304,32,1896,11,68,-2
13215,-296,-8,1920,11,68,-4
13220,-296,8,1920,10,67,-3
13225,-288,-16,1880,10,68,-4
13230,-272,-16,1904,11,70,-2
13235,-288,0,1920,10,71,-5
13240,-304,8,1912,10,70,-2
13245,-296,0,1888,10,73,-3
13250,-296,-8,1912,8,73,-2
13255,-296,8,1904,7,73,-4
13260,-296,-8,1904,7,73,-2
13265,-272,-8,1912,7,73,-4
13270,-288,0,1920,5,73,-1
13275,-304,16,1880,5,73,-3
13280,-280,-8,1896,4,71,-1
13285,-296,0,1912,2,71,-3
13290,-288,-8,1912,1,71,-1
13295,-304,16,1880,0,70,-4
13300,-288,-8,1896,-1,68,-1
13305,-336,40,1912,-2,67,-2
13310,-280,8,1904,-2,67,-1
13315,-288,-16,1872,-1,68,-3
13320,-296,8,1888,-4,66,-2
13325,-296,16,1912,-2,65,-3
13330,-288,0,1928,-3,67,-2
13335,-304,0,1880,-5,67,-3
13340,-288,8,1888,-3,66,0
13345,-272,0,1896,-5,67,-3
13350,-296,8,1912,-6,65,-1
13355,-304,8,1904,-7,65,-3
13360,-288,-8,1896,-8,66,-1
13365,-296,8,1896,-10,66,-2
13370,-328,24,1920,-12,65,0
13375,-296,8,1880,-14,66,-2
13380,-296,0,1904,-18,65,-2
13385,-304,24,1912,-20,65,-3
13390,-296,24,1912,-20,65,-2
13395,-288,-8,1928,-25,65,-1
13400,-272,-8,1904,-26,63,0
13405,-320,8,1920,-25,64,-1
13410,-304,8,1904,-26,64,-1
13415,-280,-16,1912,-27,63,-2
13420,-304,-24,1912,-29,64,0
13425,-296,8,1888,-28,64,-2
13430,-312,8,1912,-29,64,-1
13435,-288,-8,1912,-28,63,-2
13440,-304,-16,1920,-28,62,-1
13445,-288,-16,1920,-26,62,-2
13450,-304,0,1920,-26,62,-2
13455,-296,8,1920,-24,62,-1
13460,-304,0,1920,-25,61,-2
13465,-304,0,1896,-26,61,-3
13470,-272,-16,1904,-26,60,-1
13475,-296,0,1920,-28,60,-2
13480,-280,-8,1904,-30,59,-2
13485,-296,-8,1928,-31,59,-2
13490,-280,8,1880,-35,59,-2
13495,-288,8,1912,-37,58,-2
13500,-296,16,1888,-41,56,-3
13505,-312,-8,1944,-45,55,-2
13510,-280,0,1896,-47,55,-4
13515,-304,0,1960,-50,54,-4
13520,-304,-16,1928,-52,53,-4
13525,-320,24,1920,-56,52,-3
13530,-280,0,1944,-57,53,-4
13535,-304,0,1920,-58,51,-1
13540,-296,0,1912,-60,51,-2
13545,-304,-16,1952,-61,50,1
13550,-280,-16,1896,-62,51,0
13555,-288,-16,1888,-61,50,2
13560,-312,-16,1912,-58,50,3
13565,-280,-24,1896,-56,49,4
13570,-280,-24,1928,-55,49,3
13575,-288,-8,1920,-50,47,4
13580,-296,-32,1920,-45,46,3
13585,-280,-8,1904,-42,45,3
13590,-280,-16,1920,-40,42,0
13595,-280,-16,1888,-39,42,1
13600,-304,-24,1904,-38,39,-3
13605,-304,0,1912,-34,39,-3
13610,-304,8,1888,-33,41,-4
13615,-288,-8,1904,-33,41,-4
13620,-288,-16,1896,-33,42,-3
13625,-280,0,1904,-34,46,-1
13630,-280,-8,1904,-36,51,-2
13635,-272,-16,1936,-40,53,1
13640,-296,0,1912,-44,56,-1
13645,-312,-24,1920,-49,59,2
13650,-304,-24,1920,-54,60,0
13655,-296,-16,1904,-58,62,0
13660,-304,-24,1920,-60,64,-1
13665,-280,-16,1928,-62,66,1
13670,-312,-16,1896,-62,69,1
13675,-296,-16,1912,-62,68,2
13680,-288,-16,1912,-62,67,1
13685,-304,-16,1888,-59,67,4
13690,-296,-32,1880,-57,64,2
13695,-304,-16,1872,-53,62,5
13700,-304,-24,1888,-46,61,2
13705,-296,-24,1872,-42,57,4
13710,-304,-24,1848,-34,55,1
13715,-312,-8,1864,-28,53,1
13720,-312,-16,1872,-23,51,-2
13725,-304,0,1872,-21,50,-2
13730,-312,0,1864,-22,49,-3
13735,-320,16,1880,-23,48,-1
13740,-280,0,1880,-28,51,-3
13745,-280,-8,1904,-33,52,0
13750,-288,-16,1904,-39,52,-2
13755,-288,-16,1880,-42,53,1
13760,-280,-16,1896,-46,52,0
13765,-312,-24,1880,-45,52,2
13770,-280,-16,1920,-43,48,0
13775,-280,8,1920,-42,49,3
13780,-264,-24,1904,-38,47,0
13785,-280,-8,1888,-35,46,2
13790,-304,-8,1928,-31,47,-1
13795,-280,-24,1896,-27,47,1
13800,-296,-24,1880,-23,49,-2
13805,-264,-24,1880,-22,49,-2
13810,-296,-16,1912,-17,51,-5
13815,-304,-24,1912,-17,52,-3
13820,-272,0,1896,-17,53,-5
13825,-288,-16,1912,-18,55,-3
13830,-272,-16,1912,-19,56,-4
13835,-280,-16,1920,-23,56,-2
13840,-296,-32,1904,-25,56,-5
13845,-280,-24,1944,-29,56,-1
13850,-304,-32,1864,-33,54,-3
13855,-288,-24,1912,-37,54,0
13860,-296,-32,1896,-42,51,-3
13865,-280,-32,1880,-44,48,0
13870,-280,-16,1896,-47,44,-3
13875,-296,-32,1896,-49,42,-1
13880,-288,-32,1896,-49,40,-2
13885,-296,-24,1912,-50,39,0
13890,-288,-40,1904,-47,38,-1
13895,-296,-24,1896,-47,37,1
13900,-272,-32,1896,-44,39,-1
13905,-288,-16,1912,-41,40,0
13910,-288,-32,1904,-37,42,-3
13915,-288,-16,1864,-33,42,-1
13920,-304,0,1904,-31,44,-4
13925,-320,-32,1920,-27,45,-3
13930,-280,-24,1888,-25,44,-5
13935,-280,-32,1920,-22,46,-3
13940,-304,-32,1896,-20,47,-6
13945,-288,-24,1872,-18,50,-6
13950,-288,-16,1920,-17,51,-8
13955,-280,-24,1896,-18,51,-6
13960,-288,-24,1888,-21,53,-9
13965,-304,-16,1912,-23,56,-7
13970,-304,-32,1888,-25,58,-8
13975,-296,-48,1896,-26,62,-5
13980,-288,-24,1896,-29,63,-8
13985,-296,-24,1920,-33,62,-5
13990,-288,-32,1912,-36,65,-5
13995,-272,-24,1904,-39,65,-5
14000,-304,-16,1896,-42,63,-6
14005,-288,-32,1936,-44,64,-5
14010,-272,-32,1904,-47,62,-6
14015,-288,-24,1896,-49,62,-4
14020,-264,-24,1896,-53,61,-8
14025,-288,-32,1896,-56,59,-6
14030,-296,-24,1896,-57,57,-8
14035,-280,-32,1912,-59,53,-7
14040,-272,-24,1864,-59,52,-7
14045,-264,-32,1896,-60,50,-6
14050,-296,-32,1912,-57,49,-7
14055,-288,-16,1896,-55,48,-6
14060,-280,-32,1880,-52,46,-7
14065,-288,-32,1904,-50,45,-5
14070,-280,-32,1904,-47,46,-5
14075,-280,-32,1912,-43,44,-5
14080,-288,-32,1928,-40,45,-5
14085,-304,-24,1888,-35,45,-5
14090,-256,-16,1872,-30,46,-7
14095,-288,-24,1936,-28,46,-6
14100,-288,-32,1904,-25,48,-5
14105,-272,-24,1904,-24,50,-4
14110,-272,-32,1896,-23,51,-4
14115,-288,-32,1920,-22,52,-4
14120,-272,-32,1888,-24,55,-4
14125,-272,-32,1912,-25,54,-4
14130,-264,-32,1880,-27,54,-4
14135,-280,-32,1904,-28,53,-5
14140,-304,-32,1920,-30,52,-3
14145,-296,-24,1928,-32,50,-4
14150,-288,-32,1912,-34,49,-4
14155,-280,-32,1904,-37,49,-4
14160,-288,-24,1896,-37,50,-2
14165,-264,-32,1896,-38,50,-2
14170,-256,-32,1904,-41,48,-3
14175,-304,-24,1888,-41,46,-2
14180,-264,-32,1896,-40,46,0
14185,-280,-32,1888,-41,45,-2
14190,-280,-32,1872,-40,43,-1
14195,-256,-32,1920,-41,44,-3
14200,-272,-40,1912,-40,44,-2
14205,-272,-32,1888,-40,46,-3
14210,-280,-40,1856,-40,47,-2
14215,-296,-32,1896,-39,46,-2
14220,-288,-32,1952,-38,48,-1
14225,-288,-24,1864,-39,47,-3
14230,-280,-24,1896,-38,48,-1
14235,-264,-32,1888,-37,48,-3
14240,-280,-48,1888,-37,47,-2
14245,-296,-32,1904,-37,48,-3
14250,-272,-32,1896,-37,48,-1
14255,-280,-24,1880,-36,49,-3
14260,-256,-32,1880,-37,48,-3
14265,-256,-32,1920,-37,48,-4
14270,-280,-32,1888,-37,49,-2
14275,-280,-56,1920,-36,49,-3
14280,-272,-56,1896,-36,50,-1
14285,-304,-32,1904,-36,50,-4
14290,-272,-48,1880,-36,49,-2
14295,-272,-32,1880,-35,47,-6
14300,-264,-32,1872,-35,47,-2
14305,-280,-32,1904,-34,46,-6
14310,-272,-64,1888,-32,43,-4
14315,-264,-40,1880,-31,42,-7
14320,-272,-32,1912,-27,40,-6
14325,-272,-40,1904,-28,40,-7
14330,-272,-32,1888,-27,40,-4
14335,-296,-40,1880,-29,42,-7
14340,-280,-32,1872,-29,41,-6
14345,-280,-48,1896,-28,42,-7
14350,-280,-48,1912,-27,44,-4
14355,-280,-40,1888,-26,45,-5
14360,-288,-24,1912,-26,46,-3
14365,-240,-48,1880,-25,48,-4
14370,-288,-32,1896,-25,49,-1
14375,-280,-40,1920,-25,51,-3
14380,-288,-32,1896,-26,52,0
14385,-264,-32,1920,-25,52,-2
14390,-288,-40,1904,-26,51,0
14395,-264,-56,1904,-24,49,-1
14400,-312,-120,1928,-22,48,1
14405,-336,-88,1944,-21,47,-1
14410,-232,-64,2080,-17,45,1
14415,-264,-8,1872,-14,45,-1
14420,-344,-40,1904,-14,45,-1
14425,-200,-96,1960,-15,45,-5
14430,-280,-40,1888,-19,47,-4
14435,-256,-32,1880,-20,47,-6
14440,-280,-40,1888,-22,49,-3
14445,-248,-56,1896,-20,48,-6
14450,-256,-48,1912,-17,51,-4
14455,-288,-32,1880,-13,52,-6
14460,-264,-32,1872,-9,54,-2
14465,-272,-48,1888,-7,54,-4
14470,-272,-32,1872,-5,58,-2
14475,-280,-48,1896,-3,60,-6
14480,-264,-40,1904,-3,62,-4
14485,-288,-48,1880,-6,65,-7
14490,-272,-32,1912,-7,66,-5
14495,-272,-32,1904,-10,68,-8
14500,-272,-40,1928,-9,69,-6
14505,-272,-56,1912,-9,70,-6
14510,-248,-72,1896,-10,71,-3
14515,-248,-56,1896,-9,72,-5
14520,-264,-56,1880,-6,71,-2
14525,-256,-40,1896,-5,72,-3
14530,-264,-40,1912,-6,72,-1
14535,-248,-40,1880,-6,71,-3
14540,-280,-40,1888,-8,70,0
14545,-280,-32,1856,-10,68,-1
14550,-264,-56,1856,-10,67,1
14555,-248,-64,1864,-9,66,0
14560,-272,-32,1856,-8,66,1
14565,-264,-64,1896,-9,66,0
14570,-272,-32,1872,-10,65,1
14575,-272,-32,1896,-10,66,-2
14580,-296,-16,1888,-13,68,0
14585,-280,-32,1904,-15,67,-3
14590,-280,-32,1880,-18,66,-1
14595,-264,-32,1896,-18,63,-3
14600,-264,-32,1904,-18,63,-2
14605,-256,-40,1912,-17,64,-3
14610,-256,-48,1912,-17,62,-2
14615,-256,-32,1888,-14,61,-3
14620,-256,-48,1864,-12,62,-2
14625,-280,-48,1880,-9,63,-4
14630,-280,-32,1920,-6,63,-2
14635,-248,-40,1896,-2,63,-3
14640,-304,-40,1888,0,65,-3
14645,-264,-40,1912,3,65,-2
14650,-288,-24,1904,5,66,-1
14655,-280,-32,1896,8,67,-2
14660,-272,-40,1928,9,66,-2
14665,-288,-16,1896,10,66,-2
14670,-288,-32,1904,10,64,0
14675,-288,-48,1880,11,66,-1
14680,-296,-32,1896,8,65,-1
14685,-248,-64,1880,8,63,-2
14690,-296,-24,1888,6,64,-2
14695,-288,-32,1880,3,62,-2
14700,-272,-32,1896,3,61,-1
14705,-264,-32,1904,4,61,-2
14710,-272,-32,1920,0,61,-2
14715,-288,-32,1872,0,58,-3
14720,-272,-40,1872,-1,59,-1
14725,-280,-32,1896,-2,59,-1
14730,-256,-40,1896,0,61,-1
14735,-272,-32,1912,1,62,-1
14740,-272,-32,1904,4,61,0
14745,-280,-48,1904,7,60,0
14750,-280,-40,1904,9,63,1
14755,-264,-32,1880,11,63,-1
14760,-272,-56,1896,11,64,-2
14765,-280,-32,1904,14,63,-2
14770,-264,-40,1888,12,64,-2
14775,-304,-56,1880,10,66,-5
14780,-272,-32,1872,7,67,-5
14785,-280,-32,1912,5,68,-4
14790,-280,-32,1944,4,69,-3
14795,-256,-40,1904,5,70,-3
14800,-264,-24,1936,5,69,-1
14805,-256,-32,1888,6,69,1
14810,-240,-32,1896,9,70,1
14815,-280,-32,1904,12,70,1
14820,-248,-32,1912,16,69,-1
14825,-256,-32,1896,18,70,0
14830,-272,-32,1880,21,69,-4
14835,-280,-32,1896,23,71,-4
14840,-264,-48,1888,25,70,-5
14845,-280,-24,1904,24,70,-5
14850,-288,-32,1896,25,72,-8
14855,-288,-16,1880,23,72,-8
14860,-264,-32,1880,21,73,-8
14865,-272,-24,1896,19,75,-9
14870,-280,-32,1904,16,76,-10
14875,-256,-32,1904,14,76,-8
14880,-248,-32,1896,13,76,-10
14885,-272,-24,1888,10,75,-7
14890,-296,-32,1896,10,76,-9
14895,-256,-32,1920,8,75,-6
14900,-272,-32,1896,8,73,-6
14905,-288,-24,1928,7,72,-4
14910,-264,-32,1912,6,71,-5
14915,-296,-24,1912,5,70,-2
14920,-264,-24,1920,5,70,-4
14925,-280,-16,1904,5,70,-1
14930,-280,-24,1904,6,70,-4
14935,-272,-8,1896,4,70,-1
14940,-280,-24,1920,4,72,-2
14945,-272,-32,1888,2,72,0
14950,-288,-32,1896,3,74,0
14955,-280,-32,1912,3,72,0
14960,-288,-32,1912,3,70,-3
14965,-272,-32,1896,2,69,-1
14970,-264,-32,1928,2,69,-2
14975,-288,-24,1912,1,68,1
14980,-280,-32,1912,0,66,-1
14985,-256,-32,1888,-2,66,-1
14990,-264,-32,1912,-3,64,-1
14995,-216,-16,1912,-5,64,3
