timestamp,accel_x,accel_y,accel_z,gyro_x,gyro_y,gyro_z
0,-48,-1856,840,41,10,-21
5,-64,-1840,840,36,15,-17
10,-32,-1856,816,28,21,-19
15,-48,-1848,840,20,25,-15
20,-40,-1880,856,16,29,-15
25,-88,-1832,944,15,31,-11
30,-32,-1880,856,14,32,-12
35,-24,-1888,848,13,34,-9
40,-8,-1888,840,14,35,-12
45,-8,-1856,856,12,36,-9
50,-8,-1880,880,11,40,-12
55,0,-1888,856,9,39,-8
60,-24,-1864,848,10,41,-10
65,-24,-1864,848,8,40,-7
70,-24,-1872,856,3,41,-10
75,-16,-1872,824,3,41,-7
80,-32,-1864,864,1,41,-9
85,-40,-1872,848,0,41,-8
90,-24,-1864,824,-1,42,-10
95,-16,-1864,856,-1,45,-8
100,-40,-1864,856,-2,45,-10
105,-16,-1864,864,-1,47,-8
110,40,-1832,936,0,51,-8
115,-64,-1768,776,0,51,-3
120,16,-1816,1008,1,51,-5
125,64,-1800,896,4,51,0
130,-72,-1944,736,3,51,-1
135,-24,-1832,856,4,49,3
140,16,-1824,880,6,50,3
145,-48,-1872,880,10,51,5
150,8,-1848,896,10,51,3
155,-72,-1888,848,14,53,4
160,-32,-1832,824,13,52,3
165,-40,-1832,792,14,53,4
170,0,-1904,856,16,54,1
175,-24,-1920,880,17,55,2
180,0,-1888,888,21,56,-3
185,8,-1864,920,21,58,-4
190,48,-1848,840,21,61,-7
195,24,-1944,824,21,64,-7
200,16,-1880,824,23,65,-12
205,0,-1864,824,25,66,-11
210,-8,-1856,840,26,65,-15
215,-8,-1864,832,25,65,-14
220,0,-1880,824,24,67,-17
225,0,-1864,872,24,67,-14
230,-16,-1856,848,26,67,-16
235,0,-1888,864,26,67,-15
240,-8,-1872,848,29,68,-17
245,-16,-1856,872,30,69,-15
250,-8,-1904,856,33,70,-17
255,-32,-1872,832,36,67,-13
260,-40,-1888,856,39,66,-15
265,-24,-1912,872,41,64,-14
270,-40,-1888,864,43,64,-15
275,-24,-1928,848,45,62,-14
280,-32,-1904,848,49,63,-15
285,-40,-1896,880,52,64,-12
290,-48,-1896,856,55,64,-13
295,-48,-1896,888,58,67,-9
300,-56,-1904,880,63,67,-8
305,-48,-1864,864,70,68,-4
310,-48,-1880,880,78,65,-6
315,-40,-1896,888,84,65,-1
320,-48,-1880,896,92,61,-2
325,-24,-1872,880,99,57,1
330,-48,-1872,880,103,55,1
335,-48,-1880,896,110,52,3
340,-48,-1848,872,114,49,1
345,-40,-1864,880,117,46,4
350,-40,-1848,840,119,43,1
355,-24,-1856,848,119,41,4
360,16,-1856,824,122,39,1
365,-32,-1848,872,121,41,3
370,-32,-1864,880,123,37,-2
375,-40,-1840,848,122,32,0
380,-16,-1832,872,122,30,-4
385,-48,-1872,840,121,27,-2
390,-72,-1880,712,120,27,-6
395,-24,-1856,808,122,25,-7
400,-16,-1872,840,124,21,-14
405,-40,-1872,840,123,22,-13
410,-48,-1872,832,126,19,-18
415,-16,-1864,832,127,19,-17
420,-56,-1864,856,132,21,-21
425,-48,-1864,864,133,21,-19
430,-56,-1864,840,136,17,-22
435,-32,-1848,840,138,18,-22
440,-24,-1824,888,141,18,-25
445,-16,-1816,896,142,16,-21
450,-16,-1792,856,142,13,-23
455,-32,-1768,824,134,11,-22
460,-16,-1728,864,120,8,-24
465,-24,-1736,816,100,7,-21
470,-32,-1760,840,83,7,-22
475,-24,-1800,864,66,10,-19
480,-8,-1840,888,56,13,-20
485,-56,-1824,864,55,19,-17
490,-56,-1856,904,58,26,-21
495,-24,-1896,888,67,32,-20
500,0,-1904,928,79,37,-27
505,-24,-1912,888,91,43,-26
510,-16,-1864,880,101,44,-31
515,0,-1880,888,106,43,-30
520,-16,-1824,928,113,38,-33
525,-32,-1832,912,114,35,-30
530,-8,-1792,904,114,33,-32
535,-32,-1808,920,111,32,-31
540,-8,-1824,952,107,30,-33
545,-8,-1864,928,105,29,-32
550,-16,-1856,944,106,28,-36
555,-16,-1848,968,106,29,-34
560,-16,-1856,944,108,30,-35
565,8,-1840,952,110,31,-34
570,24,-1864,968,115,31,-37
575,0,-1832,960,122,32,-35
580,32,-1824,944,125,33,-37
585,32,-1800,960,124,32,-36
590,16,-1808,968,126,35,-40
595,32,-1816,968,125,36,-39
600,24,-1808,1000,122,38,-42
605,8,-1784,992,119,39,-40
610,8,-1776,1016,119,39,-43
615,40,-1816,1000,117,41,-42
620,16,-1784,968,116,45,-43
625,0,-1792,1024,117,46,-40
630,0,-1760,1024,119,47,-39
635,32,-1776,1008,119,49,-34
640,16,-1760,1016,117,46,-32
645,24,-1752,1008,116,47,-27
650,8,-1744,1024,116,47,-26
655,24,-1760,1024,114,47,-20
660,16,-1736,1024,112,47,-19
665,0,-1760,1032,108,46,-15
670,8,-1752,1008,104,46,-14
675,40,-1768,1048,102,46,-10
680,-8,-1728,1032,101,41,-10
685,8,-1760,1024,99,38,-5
690,16,-1760,1016,97,37,-7
695,16,-1760,1016,94,36,-5
700,24,-1752,1024,89,36,-7
705,16,-1728,1016,83,35,-6
710,16,-1720,992,79,36,-8
715,24,-1736,1016,71,36,-6
720,40,-1752,1016,66,36,-10
725,40,-1752,1024,62,38,-9
730,40,-1776,992,57,39,-13
735,24,-1768,1000,54,41,-13
740,24,-1776,1000,51,43,-16
745,24,-1768,992,46,44,-15
750,8,-1768,968,42,44,-18
755,16,-1760,1008,39,46,-15
760,-24,-1784,1016,33,46,-17
765,16,-1776,1016,29,44,-16
770,-16,-1776,1000,26,43,-16
775,0,-1768,1008,23,42,-14
780,0,-1784,1000,22,45,-14
785,0,-1768,1008,22,44,-11
790,0,-1768,1008,22,45,-11
795,-8,-1760,1024,22,46,-9
800,0,-1760,1000,20,45,-9
805,8,-1784,1000,17,43,-4
810,16,-1744,1016,15,41,-8
815,16,-1752,1024,14,40,-5
820,24,-1744,976,12,40,-4
825,24,-1760,1000,10,38,-3
830,32,-1760,1032,9,38,-4
835,16,-1760,1016,7,39,-1
840,0,-1728,1024,4,37,-3
845,8,-1760,976,3,36,0
850,32,-1768,1016,2,35,-4
855,24,-1760,1008,0,34,-3
860,40,-1760,1024,-2,34,-6
865,16,-1768,1000,-5,34,-6
870,32,-1768,1016,-6,33,-7
875,16,-1784,1024,-8,32,-5
880,24,-1768,1016,-9,34,-5
885,24,-1792,992,-9,34,-3
890,24,-1784,1016,-8,34,-6
895,8,-1776,1016,-4,35,-5
900,8,-1768,992,-4,36,-7
905,16,-1792,1024,-2,36,-5
910,24,-1776,1008,-2,36,-6
915,8,-1784,1024,0,35,-4
920,8,-1776,1016,1,36,-5
925,-8,-1752,1000,0,34,-3
930,8,-1784,1024,1,35,-5
935,8,-1768,984,-2,35,-3
940,8,-1768,1008,-5,35,-5
945,24,-1760,1008,-7,38,-3
950,32,-1752,1016,-9,40,-5
955,24,-1776,1016,-10,39,-4
960,8,-1776,1000,-10,39,-5
965,24,-1768,992,-11,39,-4
970,16,-1776,1024,-12,38,-6
975,24,-1752,1000,-12,38,-6
980,16,-1768,968,-11,37,-8
985,8,-1752,1008,-10,37,-6
990,40,-1776,1016,-10,38,-7
995,40,-1760,1000,-13,40,-6
1000,40,-1760,992,-12,36,-6
1005,24,-1776,1016,-12,32,-4
1010,40,-1768,1024,-15,31,-6
1015,16,-1752,984,-18,30,-6
1020,56,-1768,992,-21,31,-7
1025,40,-1744,976,-24,34,-8
1030,40,-1760,984,-28,39,-8
1035,32,-1784,984,-30,41,-6
1040,24,-1768,976,-28,41,-6
1045,48,-1792,976,-27,40,-4
1050,48,-1792,1000,-28,40,-4
1055,48,-1784,992,-29,42,-1
1060,48,-1800,1016,-29,44,-1
1065,24,-1792,1016,-28,45,2
1070,24,-1776,992,-27,47,1
1075,32,-1784,1000,-26,46,4
1080,32,-1784,984,-25,46,2
1085,16,-1768,992,-24,45,6
1090,16,-1800,984,-22,44,5
1095,0,-1792,992,-23,45,5
1100,0,-1792,976,-23,47,1
1105,48,-1776,992,-23,48,2
1110,0,-1752,992,-24,50,3
1115,8,-1776,984,-24,49,6
1120,16,-1784,952,-24,50,6
1125,-16,-1760,1008,-24,50,8
1130,-8,-1776,1008,-23,50,9
1135,-8,-1760,976,-23,50,10
1140,16,-1760,968,-24,50,10
1145,0,-1760,984,-27,48,11
1150,-8,-1768,992,-30,48,10
1155,0,-1752,992,-31,49,9
1160,-8,-1776,1024,-33,49,9
1165,24,-1784,1016,-36,51,11
1170,16,-1784,984,-40,52,10
1175,8,-1784,1008,-42,55,10
1180,0,-1768,1008,-45,59,8
1185,0,-1784,1008,-45,59,8
1190,0,-1768,1000,-46,59,9
1195,24,-1784,992,-45,59,10
1200,32,-1784,1008,-43,57,9
1205,24,-1792,1000,-42,59,9
1210,8,-1784,1000,-40,59,7
1215,40,-1800,992,-39,60,8
1220,8,-1800,976,-39,60,5
1225,24,-1784,992,-40,60,6
1230,16,-1776,992,-39,59,4
1235,48,-1760,1008,-39,60,4
1240,40,-1768,1016,-39,61,2
1245,64,-1760,1000,-39,62,1
1250,8,-1768,992,-39,65,-1
1255,32,-1768,984,-39,65,-1
1260,32,-1736,992,-41,66,-2
1265,16,-1768,984,-41,67,-1
1270,40,-1768,976,-42,68,-1
1275,24,-1768,1008,-45,67,2
1280,24,-1768,984,-46,68,1
1285,32,-1784,1016,-46,68,2
1290,40,-1768,1000,-46,70,3
1295,32,-1800,976,-47,72,4
1300,32,-1784,960,-46,71,5
1305,32,-1792,968,-44,74,5
1310,40,-1784,960,-44,73,5
1315,32,-1808,992,-41,75,6
1320,24,-1784,976,-40,75,6
1325,48,-1776,936,-37,75,7
1330,48,-1800,992,-36,74,7
1335,24,-1816,960,-33,75,7
1340,16,-1808,944,-32,74,7
1345,24,-1792,968,-30,74,6
1350,16,-1816,968,-29,76,8
1355,16,-1816,976,-27,73,7
1360,24,-1816,952,-25,72,6
1365,32,-1808,952,-22,73,6
1370,32,-1816,968,-21,75,4
1375,24,-1808,968,-17,77,6
1380,16,-1824,936,-16,76,6
1385,-8,-1792,960,-15,77,7
1390,8,-1808,968,-12,75,6
1395,0,-1792,960,-10,76,6
1400,-16,-1784,936,-9,76,5
1405,0,-1792,1000,-9,75,7
1410,-24,-1776,952,-8,74,6
1415,-24,-1768,952,-8,74,6
1420,-8,-1768,976,-8,74,4
1425,0,-1776,984,-8,74,4
1430,-8,-1760,992,-9,73,4
1435,-8,-1784,1000,-10,71,2
1440,-8,-1776,984,-10,70,1
1445,-8,-1768,1016,-11,70,-1
1450,0,-1792,992,-11,67,-2
1455,-24,-1776,1008,-11,66,-1
1460,8,-1784,1000,-12,65,-1
1465,-8,-1800,992,-9,67,0
1470,-16,-1776,960,-9,66,-1
1475,-8,-1784,960,-7,65,-2
1480,8,-1784,984,-6,65,-1
1485,32,-1776,952,-6,64,0
1490,16,-1792,984,-6,63,-1
1495,16,-1760,1000,-7,64,-2
1500,8,-1768,968,-6,67,1
1505,8,-1768,1000,-7,64,2
1510,8,-1784,952,-7,66,2
1515,8,-1816,992,-5,65,4
1520,16,-1776,1000,-3,65,4
1525,16,-1792,1000,0,65,5
1530,0,-1768,1016,2,63,5
1535,0,-1784,1016,1,63,5
1540,8,-1800,1008,3,63,4
1545,16,-1800,984,5,64,3
1550,24,-1800,1008,6,65,3
1555,8,-1776,1008,6,64,0
1560,0,-1800,968,8,66,-1
1565,24,-1792,976,9,68,-2
1570,16,-1800,1000,8,67,-4
1575,8,-1784,960,6,70,-4
1580,-8,-1792,992,10,71,-6
1585,32,-1784,984,11,73,-6
1590,24,-1816,984,12,74,-7
1595,16,-1784,992,13,73,-7
1600,-24,-1776,952,16,74,-5
1605,16,-1776,952,19,72,-7
1610,8,-1768,960,21,71,-6
1615,24,-1800,984,22,71,-4
1620,16,-1776,1000,23,70,-3
1625,16,-1776,992,25,69,-2
1630,32,-1784,1000,25,69,-2
1635,32,-1776,960,27,68,-1
1640,16,-1784,976,26,67,-2
1645,32,-1776,976,27,67,-2
1650,8,-1776,992,27,67,-1
1655,32,-1792,976,26,66,0
1660,8,-1784,1008,28,66,0
1665,8,-1784,976,28,67,1
1670,16,-1776,976,33,69,-1
1675,8,-1776,1008,34,69,-1
1680,8,-1776,976,35,68,-1
1685,16,-1808,976,36,66,-2
1690,-16,-1776,992,35,66,-2
1695,-8,-1768,1000,36,67,-1
1700,0,-1784,984,37,66,0
1705,8,-1784,984,37,66,-1
1710,-8,-1768,976,36,66,-3
1715,-16,-1752,976,37,66,-3
1720,0,-1776,984,39,67,-3
1725,0,-1784,1008,39,65,-3
1730,8,-1768,1016,38,66,-3
1735,0,-1800,1008,38,65,-4
1740,-16,-1800,992,40,65,-4
1745,-16,-1800,1008,41,64,-6
1750,0,-1784,1000,42,63,-4
1755,-16,-1752,1000,44,62,-4
1760,24,-1760,976,46,60,-4
1765,8,-1760,1000,47,60,-4
1770,-8,-1752,1000,43,59,-3
1775,0,-1760,1008,41,58,-3
1780,8,-1760,1000,41,58,-4
1785,0,-1768,992,41,57,-6
1790,8,-1792,968,42,54,-5
1795,16,-1784,992,44,53,-7
1800,32,-1792,1016,45,52,-5
1805,16,-1760,992,46,51,-6
1810,16,-1784,1008,46,51,-6
1815,0,-1776,1000,46,54,-7
1820,24,-1760,992,43,54,-7
1825,0,-1776,976,42,56,-9
1830,16,-1768,1024,42,56,-9
1835,16,-1792,1008,41,57,-11
1840,24,-1800,976,42,56,-10
1845,0,-1784,992,39,58,-8
1850,16,-1768,984,39,57,-7
1855,8,-1768,1008,41,57,-8
1860,-16,-1752,1024,41,56,-8
1865,16,-1752,1016,42,56,-8
1870,16,-1752,984,43,57,-7
1875,16,-1776,1008,45,58,-8
1880,8,-1752,1000,46,57,-7
1885,24,-1776,1000,48,55,-7
1890,24,-1760,1008,47,54,-6
1895,8,-1752,1016,47,54,-6
1900,16,-1752,1016,51,54,-7
1905,8,-1752,1024,52,53,-7
1910,24,-1792,1016,55,55,-5
1915,0,-1736,1008,57,55,-6
1920,24,-1728,1032,57,57,-4
1925,16,-1760,1024,57,58,-6
1930,32,-1744,1024,57,59,-5
1935,24,-1728,1024,57,59,-6
1940,16,-1752,1016,55,59,-6
1945,24,-1760,1032,55,59,-6
1950,8,-1776,1008,56,60,-5
1955,16,-1752,1040,56,60,-6
1960,24,-1752,1032,59,60,-5
1965,32,-1752,1032,61,61,-6
1970,24,-1744,1024,62,63,-4
1975,32,-1768,1040,63,62,-5
1980,16,-1760,1024,66,62,-4
1985,0,-1728,1064,66,63,-5
1990,24,-1752,1032,64,63,-4
1995,24,-1760,1040,62,61,-3
2000,8,-1760,1024,61,61,-2
2005,24,-1736,1048,59,60,-5
2010,0,-1736,1048,60,58,-4
2015,0,-1720,1024,62,57,-6
2020,0,-1728,1056,61,57,-5
2025,8,-1736,1040,60,58,-5
2030,24,-1728,1056,61,59,-4
2035,0,-1728,1016,63,58,-6
2040,40,-1744,1064,63,60,-6
2045,16,-1736,1016,61,58,-5
2050,8,-1728,1032,61,59,-6
2055,24,-1744,1040,63,59,-8
2060,24,-1752,1048,64,57,-8
2065,0,-1752,1040,67,58,-8
2070,8,-1752,1032,65,59,-7
2075,0,-1760,1072,65,58,-8
2080,-8,-1728,1048,69,59,-7
2085,8,-1736,1064,67,59,-9
2090,-16,-1760,1080,66,59,-8
2095,16,-1760,1040,67,60,-8
2100,0,-1744,1064,68,60,-8
2105,0,-1744,1088,70,59,-9
2110,-8,-1744,1064,74,56,-8
2115,0,-1760,1088,81,56,-10
2120,8,-1752,1056,87,57,-9
2125,16,-1736,1040,91,56,-15
2130,16,-1744,1088,88,52,-20
2135,-8,-1744,1096,86,48,-27
2140,-24,-1728,1072,89,46,-27
2145,-8,-1712,1080,94,45,-31
2150,16,-1688,1080,98,43,-32
2155,-8,-1712,1064,97,42,-36
2160,16,-1696,1088,97,41,-38
2165,16,-1696,1104,97,37,-44
2170,8,-1696,1064,101,32,-47
2175,8,-1688,1104,97,30,-52
2180,-8,-1704,1144,85,25,-59
2185,8,-1712,1104,79,25,-61
2190,-16,-1736,1128,74,33,-66
2195,32,-1736,1112,69,36,-73
2200,-32,-1792,1112,74,47,-69
2205,-32,-1768,1136,80,51,-71
2210,8,-1760,1096,89,53,-66
2215,32,-1776,1064,104,64,-61
2220,-16,-1808,1032,113,71,-51
2225,0,-1808,1064,116,83,-46
2230,8,-1848,1040,136,83,-32
2235,80,-1832,1024,159,83,-24
2240,24,-1808,1032,174,91,-21
2245,48,-1816,1088,186,98,-17
2250,40,-1792,1080,197,97,-15
2255,80,-1832,1024,220,100,-11
2260,64,-1816,1056,245,93,-5
2265,56,-1784,1048,282,81,-4
2270,64,-1816,1016,305,76,-4
2275,64,-1816,1032,322,63,-14
2280,64,-1784,1048,333,49,-30
2285,40,-1704,1040,350,42,-38
2290,40,-1712,984,386,42,-27
2295,40,-1688,1000,393,47,-24
2300,48,-1688,984,390,48,-22
2305,56,-1704,1008,397,43,-23
2310,56,-1704,976,408,44,-26
2315,80,-1688,1048,403,51,-31
2320,48,-1752,1032,390,59,-35
2325,40,-1712,1032,396,58,-42
2330,40,-1696,1032,400,61,-43
2335,48,-1760,944,414,65,-36
2340,8,-1784,1040,408,70,-39
2345,-24,-1776,1008,413,68,-42
2350,8,-1824,1016,412,65,-44
2355,48,-1800,1072,411,61,-57
2360,40,-1776,968,440,64,-55
2365,0,-1784,944,462,67,-54
2370,-24,-1808,1016,457,68,-55
2375,24,-1784,1024,450,69,-64
2380,24,-1752,1056,465,72,-62
2385,40,-1776,1056,482,77,-62
2390,0,-1688,1064,522,73,-53
2395,16,-1720,1024,547,70,-48
2400,32,-1696,992,557,60,-45
2405,64,-1672,992,558,58,-47
2410,24,-1632,1040,544,61,-47
2415,16,-1624,1008,521,63,-44
2420,24,-1608,1016,487,61,-39
2425,16,-1664,1080,456,68,-37
2430,0,-1600,1096,436,78,-35
2435,8,-1592,1104,426,72,-40
2440,8,-1536,1104,422,65,-42
2445,16,-1496,1080,406,64,-38
2450,32,-1448,1056,376,64,-37
2455,32,-1424,1088,330,64,-39
2460,56,-1368,1064,273,66,-38
2465,24,-1336,1072,220,68,-37
2470,48,-1304,1056,154,67,-31
2475,24,-1328,1064,83,70,-32
2480,32,-1336,1040,4,61,-33
2485,-16,-1328,1144,-75,76,-27
2490,0,-1392,1152,-157,74,-13
2495,16,-1376,1136,-233,75,-7
2500,-24,-1328,1072,-316,76,0
2505,-8,-1352,1112,-425,65,3
2510,-16,-1464,1184,-538,43,16
2515,-8,-1616,1328,-627,3,16
2520,8,-1752,1408,-666,-13,38
2525,8,-1952,1488,-648,-41,64
2530,56,-2120,1560,-578,-69,77
2535,40,-2224,1552,-448,-85,80
2540,48,-2280,1488,-287,-109,74
2545,8,-2336,1360,-114,-136,64
2550,8,-2304,1152,64,-170,60
2555,8,-2232,1000,232,-201,59
2560,-8,-2200,872,386,-222,65
2565,-24,-2128,704,553,-246,59
2570,-80,-2040,600,669,-255,60
2575,-64,-2024,528,777,-283,41
2580,-64,-1888,552,880,-260,28
2585,-88,-1784,616,956,-233,16
2590,-72,-1680,752,1011,-230,6
2595,-16,-1584,832,1058,-228,-8
2600,-32,-1528,856,1095,-230,-18
2605,8,-1544,856,1124,-231,-24
2610,48,-1576,912,1141,-226,-28
2615,48,-1552,928,1153,-212,-38
2620,48,-1560,904,1159,-200,-46
2625,80,-1584,912,1161,-184,-57
2630,72,-1584,960,1157,-171,-71
2635,88,-1608,976,1159,-165,-89
2640,72,-1648,984,1183,-147,-95
2645,80,-1632,1008,1218,-122,-103
2650,96,-1616,984,1260,-99,-102
2655,56,-1528,976,1283,-81,-112
2660,48,-1496,1016,1286,-63,-113
2665,24,-1448,1056,1285,-61,-120
2670,16,-1456,1088,1286,-62,-123
2675,-8,-1416,1144,1290,-68,-130
2680,0,-1416,1208,1291,-74,-126
2685,-8,-1416,1184,1292,-84,-128
2690,-8,-1400,1224,1286,-90,-128
2695,0,-1448,1256,1280,-91,-129
2700,-32,-1440,1248,1280,-102,-130
2705,-16,-1416,1256,1290,-116,-130
2710,8,-1432,1288,1300,-129,-125
2715,0,-1432,1312,1305,-136,-122
2720,8,-1440,1328,1309,-146,-123
2725,-8,-1424,1296,1319,-158,-132
2730,24,-1432,1312,1331,-167,-138
2735,0,-1416,1312,1339,-176,-148
2740,16,-1384,1304,1352,-190,-157
2745,40,-1408,1336,1364,-193,-169
2750,48,-1384,1304,1371,-192,-177
2755,56,-1352,1272,1369,-191,-189
2760,88,-1408,1368,1371,-185,-197
2765,32,-1336,1344,1387,-182,-213
2770,48,-1344,1360,1400,-179,-217
2775,64,-1352,1336,1419,-186,-229
2780,88,-1320,1280,1442,-188,-239
2785,64,-1320,1288,1464,-183,-250
2790,112,-1264,1288,1485,-188,-257
2795,120,-1192,1288,1508,-182,-274
2800,96,-1184,1312,1532,-164,-276
2805,104,-1152,1296,1545,-180,-288
2810,80,-1136,1320,1556,-189,-291
2815,48,-1144,1320,1583,-210,-292
2820,112,-1088,1360,1609,-241,-292
2825,136,-968,1312,1634,-247,-295
2830,136,-928,1376,1644,-224,-283
2835,96,-896,1312,1671,-217,-273
2840,136,-808,1216,1678,-220,-264
2845,56,-784,1232,1667,-209,-259
2850,48,-832,1264,1657,-213,-239
2855,72,-832,1360,1663,-247,-237
2860,16,-872,1384,1677,-257,-234
2865,-64,-896,1224,1701,-266,-234
2870,24,-856,1232,1725,-288,-230
2875,48,-848,1288,1774,-327,-247
2880,48,-760,1224,1834,-379,-263
2885,224,-728,1240,1868,-385,-279
2890,56,-640,1312,1883,-346,-290
2895,360,-616,1352,1879,-299,-282
2900,248,-608,1400,1893,-333,-314
2905,280,-472,1360,1920,-349,-337
2910,280,-384,1384,1918,-334,-341
2915,368,-288,1336,1910,-319,-340
2920,320,-288,1360,1886,-297,-345
2925,384,-288,1392,1854,-259,-354
2930,320,-336,1440,1841,-225,-354
2935,296,-312,1424,1835,-196,-351
2940,48,-144,1280,1832,-192,-345
2945,440,-240,1376,1821,-139,-321
2950,320,-192,1456,1806,-155,-346
2955,288,-104,1416,1807,-178,-351
2960,352,-72,1456,1793,-173,-339
2965,248,-56,1376,1765,-167,-331
2970,264,-80,1336,1735,-170,-323
2975,224,-104,1336,1710,-164,-323
2980,320,-96,1368,1706,-174,-314
2985,312,-88,1336,1701,-177,-315
2990,328,-80,1216,1702,-172,-313
2995,336,-16,1128,1701,-165,-319
3000,288,48,1088,1697,-156,-324
3005,240,80,1008,1687,-151,-336
3010,136,96,1024,1674,-141,-348
3015,288,88,1032,1683,-122,-356
3020,264,96,952,1712,-108,-365
3025,216,64,904,1738,-101,-370
3030,224,32,832,1754,-97,-374
3035,408,24,1080,1768,-96,-369
3040,440,136,1240,1818,-89,-354
3045,312,184,992,1853,-93,-353
3050,208,216,824,1828,-105,-362
3055,56,256,792,1784,-100,-375
3060,64,208,504,1754,-108,-377
3065,8,208,480,1739,-109,-379
3070,288,312,496,1747,-93,-357
3075,432,376,448,1738,-71,-344
3080,256,448,392,1740,-15,-358
3085,320,496,360,1717,26,-369
3090,424,424,280,1672,65,-367
3095,32,368,456,1611,108,-388
3100,88,344,400,1584,96,-382
3105,216,416,464,1574,73,-381
3110,152,664,496,1578,63,-375
3115,176,824,600,1558,74,-371
3120,592,1000,656,1505,107,-358
3125,1072,976,752,1409,152,-369
3130,1064,960,1128,1326,253,-411
3135,1192,1248,1656,1378,377,-478
3140,672,1400,1896,1492,418,-497
3145,400,1416,2600,1550,404,-486
3150,368,1512,2992,1620,344,-467
3155,600,1552,3192,1625,276,-443
3160,1000,1624,3424,1559,249,-442
3165,1384,1752,3760,1465,308,-469
3170,1600,1824,4048,1336,314,-503
3175,1440,2240,4656,1199,350,-544
3180,1440,2936,5056,1074,342,-537
3185,1448,3984,5368,928,305,-512
3190,1224,4832,5624,777,314,-477
3195,976,5800,5600,648,303,-430
3200,1024,6424,5608,464,273,-350
3205,1040,6520,5160,221,241,-257
3210,992,5600,5016,-188,229,-156
3215,744,3656,4472,-643,183,-121
3220,456,1456,3944,-1015,171,-96
3225,160,40,3888,-1203,304,-87
3230,-88,-1320,3872,-1125,429,-94
3235,-72,-2280,3552,-838,478,-123
3240,56,-2656,3232,-389,481,-172
3245,48,-2264,2664,130,455,-253
3250,280,-1184,2352,592,437,-347
3255,24,160,2320,967,458,-426
3260,168,1024,1752,1188,428,-448
3265,128,2016,1552,1255,363,-470
3270,-32,2424,1280,1234,322,-435
3275,-256,2752,1176,1091,298,-353
3280,-152,2560,1208,908,226,-246
3285,24,2128,1240,737,171,-167
3290,-104,1592,1104,630,174,-140
3295,-152,1000,1024,551,233,-124
3300,-152,600,1136,497,294,-97
3305,-136,216,1216,519,311,-98
3310,-96,72,1192,595,298,-97
3315,32,80,1400,682,284,-92
3320,40,120,1312,772,286,-97
3325,200,240,1152,869,255,-97
3330,280,264,960,909,242,-95
3335,296,344,880,941,245,-105
3340,280,432,952,960,237,-120
3345,264,600,1000,975,226,-132
3350,208,768,1016,972,201,-131
3355,216,888,1008,945,166,-128
3360,136,1000,968,901,142,-118
3365,112,1064,944,836,119,-106
3370,56,1096,912,744,97,-86
3375,48,1096,864,656,92,-63
3380,32,1160,856,569,95,-39
3385,48,1080,864,483,103,-18
3390,88,1104,896,415,120,4
3395,96,1160,976,360,146,15
3400,80,1176,960,317,176,28
3405,64,1216,1008,270,202,41
3410,40,1232,1008,217,228,58
3415,-8,1240,1024,168,254,74
3420,-40,1240,1008,123,263,82
3425,104,1152,960,87,282,101
3430,200,1280,1056,57,309,101
3435,72,1264,1072,40,336,79
3440,128,1184,1088,6,359,91
3445,224,816,984,-19,362,79
3450,216,936,1080,-26,371,64
3455,280,952,1120,-18,374,53
3460,336,976,1184,18,367,27
3465,272,856,1160,74,378,-1
3470,320,936,1168,110,388,-18
3475,496,1184,1488,144,406,-48
3480,232,976,1384,174,460,-113
3485,128,1040,1392,182,507,-151
3490,168,1128,1544,178,525,-161
3495,192,1048,1608,172,537,-166
3500,88,1152,1560,185,552,-196
3505,96,1280,1640,200,576,-214
3510,200,1264,1592,204,579,-226
3515,208,1320,1680,218,565,-229
3520,80,1208,1432,236,541,-239
3525,240,1392,1536,251,536,-232
3530,184,1344,1576,253,528,-233
3535,104,1376,1528,237,529,-244
3540,192,1448,1592,209,537,-234
3545,88,1432,1656,166,519,-220
3550,56,1312,1616,129,505,-203
3555,0,1408,1680,97,486,-189
3560,-48,1344,1704,73,457,-176
3565,-24,1264,1680,58,423,-164
3570,0,1264,1696,50,380,-149
3575,-96,1216,1672,30,333,-145
3580,-40,1160,1704,9,304,-132
3585,32,1312,1736,-11,270,-133
3590,-88,984,1568,-17,219,-114
3595,-72,1112,1608,-31,164,-102
3600,-176,1120,1664,-47,135,-99
3605,-136,1192,1696,-62,109,-94
3610,-208,1168,1720,-81,74,-77
3615,-136,1144,1584,-101,50,-66
3620,-104,1200,1632,-113,31,-50
3625,-160,1112,1528,-118,19,-49
3630,-152,1232,1560,-137,11,-75
3635,-152,1240,1496,-159,3,-82
3640,-200,1184,1520,-205,10,-88
3645,-200,1240,1488,-246,13,-97
3650,-232,1216,1520,-297,22,-109
3655,-120,1288,1504,-355,38,-105
3660,-176,1168,1368,-392,28,-100
3665,-168,1224,1464,-443,28,-101
3670,-136,1288,1560,-481,37,-86
3675,-192,1104,1408,-510,29,-66
3680,-152,1336,1600,-548,18,-39
3685,-160,1224,1456,-571,4,-14
3690,-192,1216,1560,-609,-4,-3
3695,-224,1184,1464,-633,-18,-6
3700,-184,1216,1400,-648,-57,12
3705,-384,1096,1320,-709,-83,2
3710,-416,1256,1632,-762,-107,3
3715,-424,1224,1576,-799,-122,22
3720,-392,1224,1576,-858,-133,59
3725,-312,1192,1648,-933,-154,80
3730,-232,1136,1592,-989,-181,121
3735,-232,1096,1640,-1047,-191,158
3740,-200,1064,1632,-1102,-179,181
3745,-168,1048,1624,-1152,-162,191
3750,-136,984,1680,-1207,-154,206
3755,-40,896,1736,-1245,-149,248
3760,-80,856,1720,-1256,-149,275
3765,24,784,1872,-1255,-146,305
3770,88,768,1736,-1219,-141,296
3775,56,752,1744,-1187,-128,247
3780,104,792,1824,-1165,-135,230
3785,144,744,1808,-1142,-149,230
3790,120,736,1776,-1114,-156,239
3795,176,688,1784,-1080,-148,242
3800,104,712,1752,-1048,-129,242
3805,144,664,1768,-1038,-109,231
3810,160,648,1768,-1038,-101,227
3815,184,616,1752,-1054,-90,219
3820,216,536,1720,-1059,-71,206
3825,240,520,1784,-1061,-47,195
3830,240,504,1760,-1057,-18,186
3835,272,432,1856,-1048,5,174
3840,288,416,1864,-1025,11,186
3845,296,424,1864,-992,12,212
3850,320,440,1896,-964,18,232
3855,328,488,1872,-953,18,248
3860,224,536,1880,-960,11,248
3865,280,496,1904,-980,1,252
3870,256,480,1888,-1001,8,250
3875,280,440,1912,-999,2,230
3880,256,344,1928,-988,-9,212
3885,200,376,1816,-969,-16,192
3890,216,328,1880,-953,-36,169
3895,144,368,1776,-942,-33,146
3900,96,312,1768,-944,-26,127
3905,200,216,1872,-952,-28,107
3910,168,120,1976,-960,-48,101
3915,200,104,1952,-936,-57,90
3920,184,160,1960,-919,-62,87
3925,176,160,1960,-897,-80,83
3930,136,280,2024,-871,-95,70
3935,304,288,2000,-848,-89,63
3940,112,248,2008,-762,-11,47
3945,200,232,1840,-694,17,48
3950,280,168,1712,-735,-22,54
3955,344,216,1744,-926,-153,23
3960,48,400,2016,-1079,-243,-33
3965,-152,264,1848,-1038,-180,-26
3970,-40,136,1616,-1107,-168,56
3975,-32,24,1600,-1397,-298,168
3980,-24,8,1808,-1700,-467,273
3985,216,56,1864,-1695,-568,345
3990,360,-200,1760,-1560,-536,312
3995,152,496,2232,-1394,-464,235
4000,384,80,1592,-1067,-311,216
4005,472,-536,1272,-1087,-210,155
4010,448,88,2032,-1399,-152,-21
4015,-112,616,2280,-1322,6,-271
4020,-552,1152,2048,-839,247,-335
4025,64,544,1696,-327,490,-46
4030,304,184,1832,-258,619,214
4035,280,-272,2072,-476,629,218
4040,216,-656,2160,-601,639,213
4045,208,-928,2216,-542,642,208
4050,104,-1040,2136,-357,663,208
4055,0,-976,2144,-145,666,215
4060,-96,-816,2184,49,652,230
4065,-96,-656,2184,213,624,244
4070,-160,-464,2136,342,584,258
4075,-152,-232,2056,428,531,261
4080,-136,-112,1952,472,449,255
4085,-152,32,1784,459,367,238
4090,-240,176,1776,417,274,213
4095,-288,168,1632,370,172,185
4100,-248,216,1592,309,68,165
4105,-64,200,1440,224,-23,146
4110,-24,-16,1552,100,-67,129
4115,32,-208,1640,27,-110,93
4120,144,-408,1792,23,-159,62
4125,240,-600,1856,80,-179,16
4130,176,-496,2024,195,-187,-40
4135,232,-424,2016,324,-224,-97
4140,264,-248,1992,414,-276,-152
4145,312,-312,1928,426,-337,-214
4150,256,-128,2000,385,-426,-270
4155,264,112,1888,406,-496,-297
4160,360,40,1704,463,-525,-309
4165,384,56,1664,427,-559,-341
4170,304,280,1672,368,-579,-370
4175,272,232,1568,356,-555,-359
4180,240,208,1464,315,-531,-345
4185,392,-48,1496,174,-521,-355
4190,296,168,1456,7,-472,-375
4195,120,400,1560,-9,-384,-378
4200,240,440,1424,70,-318,-317
4205,240,544,1464,51,-280,-281
4210,160,616,1472,59,-252,-249
4215,280,560,1392,89,-238,-187
4220,432,496,1440,76,-219,-119
4225,512,392,1464,36,-177,-98
4230,496,360,1472,40,-125,-85
4235,520,368,1488,79,-63,-76
4240,480,352,1488,105,4,-74
4245,464,328,1480,121,76,-78
4250,416,368,1536,118,150,-67
4255,376,392,1520,119,227,-65
4260,336,408,1632,109,299,-49
4265,288,432,1632,110,364,-38
4270,232,448,1696,115,420,-23
4275,264,440,1776,103,470,-9
4280,232,448,1704,75,508,-9
4285,136,544,1880,38,538,-29
4290,160,528,1904,34,558,-16
4295,152,520,1904,28,579,-11
4300,88,552,1920,2,587,-6
4305,80,520,1984,-35,581,-7
4310,96,480,1976,-73,566,-1
4315,72,480,2024,-106,545,1
4320,64,448,2064,-137,518,6
4325,64,408,2064,-151,489,10
4330,40,360,2088,-162,456,17
4335,56,336,2128,-166,418,13
4340,32,344,2112,-161,380,17
4345,32,320,2128,-150,346,10
4350,40,272,2136,-141,311,12
4355,48,288,2136,-133,282,9
4360,48,264,2144,-128,256,10
4365,16,248,2096,-119,227,5
4370,32,224,2064,-100,210,6
4375,0,200,2048,-83,196,-1
4380,0,176,2040,-64,181,-4
4385,32,136,2008,-38,168,-12
4390,0,104,1968,-14,153,-14
4395,8,120,1936,14,136,-25
4400,56,104,1896,38,116,-33
4405,96,128,1848,45,100,-50
4410,8,104,1832,46,91,-65
4415,56,104,1816,62,76,-62
4420,24,96,1784,67,69,-56
4425,32,136,1768,70,57,-54
4430,24,136,1776,67,45,-49
4435,16,120,1768,62,37,-41
4440,8,120,1792,54,26,-29
4445,16,120,1760,48,11,-24
4450,0,136,1776,49,3,-15
4455,8,128,1752,53,-4,-8
4460,8,120,1736,56,-7,5
4465,16,120,1776,61,-9,9
4470,16,136,1752,66,-10,13
4475,32,136,1776,72,-12,14
4480,32,128,1768,79,-16,19
4485,72,144,1776,78,-16,16
4490,48,184,1792,73,-12,19
4495,32,184,1776,75,-7,17
4500,56,192,1776,79,-1,21
4505,64,200,1776,72,7,14
4510,56,208,1792,64,16,13
4515,64,184,1808,57,21,8
4520,80,192,1768,50,27,4
4525,56,248,1792,45,32,-4
4530,88,232,1768,42,40,-7
4535,48,240,1816,34,51,-14
4540,72,256,1800,26,61,-18
4545,88,272,1824,19,67,-24
4550,64,280,1824,16,75,-25
4555,104,264,1832,13,84,-31
4560,88,288,1848,6,91,-35
4565,56,312,1896,10,95,-33
4570,88,304,1824,11,93,-23
4575,88,304,1832,9,92,-28
4580,80,304,1864,12,92,-29
4585,128,288,1856,18,91,-33
4590,80,288,1848,25,89,-32
4595,120,304,1864,29,86,-36
4600,112,304,1856,31,85,-36
4605,96,304,1816,37,82,-40
4610,112,296,1816,36,81,-35
4615,128,296,1848,30,79,-35
4620,128,296,1792,27,77,-30
4625,104,272,1840,22,78,-27
4630,80,280,1816,9,77,-22
4635,104,304,1832,7,76,-19
4640,112,272,1848,5,79,-10
4645,104,304,1832,1,82,-7
4650,120,256,1816,-6,83,0
4655,112,272,1840,-12,84,-2
4660,88,288,1888,-14,87,6
4665,104,264,1864,-14,86,3
4670,112,264,1880,-17,88,6
4675,112,304,1872,-22,85,3
4680,96,272,1880,-42,86,3
4685,120,208,1872,-51,84,4
4690,96,200,1872,-35,85,6
4695,136,216,1816,-13,81,6
4700,112,200,1912,-5,77,-3
4705,96,240,1824,6,67,-8
4710,120,224,1856,-2,62,-6
4715,112,216,1840,-3,62,-15
4720,104,200,1832,-7,59,-10
4725,112,208,1872,-14,50,-13
4730,112,192,1864,-16,48,-14
4735,120,192,1848,-19,51,-19
4740,128,216,1832,-15,51,-19
4745,88,208,1848,-11,52,-23
4750,96,208,1832,4,56,-24
4755,80,200,1832,14,60,-31
4760,88,200,1816,28,65,-29
4765,80,240,1824,41,66,-30
4770,72,248,1824,49,67,-29
4775,88,224,1824,58,66,-30
4780,200,184,1808,62,69,-26
4785,24,232,1824,58,82,-39
4790,24,296,1832,62,86,-31
4795,72,272,1856,58,74,-26
4800,96,256,1784,45,65,-24
4805,24,256,1840,32,69,-28
4810,56,288,1792,30,69,-18
4815,32,288,1816,25,70,-18
4820,24,296,1824,18,71,-13
4825,48,280,1816,18,67,-8
4830,32,304,1832,10,63,-6
4835,48,304,1808,4,68,-10
4840,64,280,1792,2,73,-2
4845,72,264,1800,0,71,-4
4850,80,264,1816,-2,70,-2
4855,64,272,1784,-1,71,-4
4860,72,288,1832,1,71,-5
4865,80,240,1816,2,73,-7
4870,128,264,1824,2,80,-7
4875,80,280,1848,4,83,-8
4880,88,280,1832,3,84,-5
4885,64,256,1848,4,83,-4
4890,104,256,1840,5,74,-1
4895,104,256,1848,5,72,-2
4900,96,264,1872,3,75,-2
4905,80,240,1856,2,76,-3
4910,104,280,1856,3,75,-2
4915,104,248,1856,2,75,-4
4920,72,288,1888,-4,71,-3
4925,96,272,1848,1,70,-5
4930,96,240,1832,0,70,-3
4935,112,272,1824,3,70,-9
4940,96,280,1840,3,72,-6
4945,88,272,1840,5,70,-6
4950,104,264,1808,3,75,-8
4955,88,248,1824,7,78,-12
4960,72,240,1824,9,72,-9
4965,104,240,1832,7,65,-12
4970,64,272,1880,3,59,-13
4975,96,264,1816,2,59,-16
4980,80,272,1840,0,60,-14
4985,104,256,1832,2,62,-14
4990,136,256,1776,-2,69,-16
4995,48,272,1856,-3,80,-25
5000,56,280,1824,3,78,-13
5005,72,248,1816,6,72,-12
5010,80,272,1824,-1,66,-11
5015,56,280,1824,-6,62,-12
5020,72,264,1808,-6,64,-8
5025,64,272,1808,-5,70,-10
5030,88,256,1808,-6,70,-9
5035,56,256,1816,-7,69,-11
5040,48,248,1864,-5,67,-6
5045,56,264,1856,-4,67,-8
5050,56,280,1816,-5,68,-6
5055,40,272,1832,-7,66,-11
5060,64,280,1848,-5,67,-8
5065,64,248,1832,-4,65,-9
5070,64,272,1864,-5,67,-6
5075,80,256,1800,-6,64,-7
5080,64,280,1824,-10,62,-7
5085,32,288,1808,-8,64,-9
5090,80,272,1808,-5,62,-8
5095,72,264,1848,-6,61,-12
5100,56,296,1816,-4,65,-11
5105,72,272,1832,-1,70,-10
5110,48,288,1824,-3,68,-6
5115,72,288,1856,-6,67,-9
5120,72,288,1856,-8,67,-7
5125,72,288,1840,-10,69,-10
5130,104,272,1840,-6,70,-6
5135,112,256,1816,-8,79,-16
5140,32,304,1856,-2,85,-13
5145,64,296,1824,5,76,-6
5150,72,320,1832,1,64,-5
5155,56,304,1832,-10,56,-6
5160,56,288,1816,-17,50,-5
5165,88,256,1848,-23,50,-8
5170,88,256,1840,-21,55,-6
5175,72,272,1856,-14,64,-10
5180,96,248,1856,-7,73,-6
5185,72,256,1832,-9,74,-6
5190,64,256,1824,-14,71,-5
5195,56,280,1824,-18,66,-12
5200,88,272,1816,-17,63,-6
5205,64,264,1840,-18,65,-11
5210,64,272,1824,-16,65,-4
5215,48,280,1824,-10,65,-7
5220,72,272,1840,-10,62,-2
5225,56,256,1832,-14,62,-5
5230,48,288,1816,-15,63,-2
5235,88,264,1808,-14,63,-4
5240,64,264,1832,-12,64,0
5245,72,248,1808,-12,65,-2
5250,56,280,1824,-10,66,0
5255,88,272,1840,-8,69,-3
5260,80,272,1808,-5,72,0
5265,56,264,1832,-9,75,-2
5270,88,280,1840,-7,76,1
5275,96,264,1800,-9,81,-2
5280,72,256,1816,-13,88,0
5285,48,256,1840,-13,88,-4
5290,56,272,1808,-10,87,-1
5295,56,280,1816,-11,84,-3
5300,48,280,1848,-10,83,-2
5305,72,264,1832,-10,85,-4
5310,48,264,1848,-9,84,0
5315,72,304,1824,-11,81,-1
5320,64,280,1832,-12,77,0
5325,64,272,1832,-12,74,-2
5330,48,264,1800,-11,75,0
5335,32,272,1832,-11,78,-5
5340,56,272,1840,-7,80,-3
5345,32,240,1848,-5,78,-3
5350,72,280,1816,-4,77,-2
5355,56,256,1808,-5,79,-5
5360,40,280,1864,-6,79,-2
5365,48,280,1824,-6,75,-6
5370,32,288,1824,-11,70,-5
5375,56,264,1832,-17,63,-4
5380,48,280,1832,-22,61,-1
5385,72,248,1816,-23,59,-2
5390,56,248,1800,-21,59,0
5395,64,264,1816,-20,58,-1
5400,64,264,1808,-17,55,0
5405,72,264,1832,-12,57,-3
5410,64,240,1832,-9,60,-1
5415,64,256,1808,-3,65,-5
5420,80,256,1856,3,70,-2
5425,72,272,1784,5,73,-4
5430,64,288,1816,6,73,-4
5435,96,272,1840,1,80,-15
5440,32,264,1856,-2,98,-16
5445,40,264,1808,3,92,-13
5450,40,304,1832,4,73,-12
5455,32,304,1872,0,65,-15
5460,64,312,1856,-9,59,-6
5465,88,288,1840,-15,52,-8
5470,48,264,1832,-24,52,-6
5475,56,288,1848,-23,56,-5
5480,80,256,1824,-21,57,-3
5485,56,296,1808,-20,60,-6
5490,56,296,1832,-18,60,-3
5495,48,256,1848,-18,62,-5
5500,200,384,1896,-17,63,-3
5505,80,264,1808,-17,64,-6
5510,88,272,1824,-17,64,-2
5515,80,256,1840,-18,64,-5
5520,56,280,1848,-18,66,-4
5525,56,280,1816,-19,66,-5
5530,72,264,1808,-20,67,-3
5535,56,272,1816,-22,64,-6
5540,56,264,1848,-21,64,-4
5545,40,280,1832,-23,64,-4
5550,56,272,1824,-22,62,0
5555,48,280,1824,-22,62,-4
5560,72,272,1832,-22,62,-2
5565,48,272,1832,-22,60,-4
5570,80,248,1832,-22,60,-2
5575,40,288,1824,-19,61,-5
5580,80,264,1816,-19,60,-3
5585,64,288,1824,-16,60,-3
5590,72,280,1832,-15,62,-1
5595,64,272,1864,-15,62,-2
5600,72,264,1872,-15,62,-2
5605,56,280,1840,-18,62,-3
5610,64,272,1816,-18,61,-1
5615,48,272,1848,-19,61,-3
5620,56,256,1824,-19,59,-1
5625,48,272,1816,-18,56,-4
5630,72,256,1824,-19,54,0
5635,48,264,1872,-19,53,-2
5640,48,280,1864,-20,52,-1
5645,48,248,1832,-21,51,-3
5650,56,240,1840,-22,49,-3
5655,40,280,1840,-23,48,-5
5660,40,240,1832,-21,48,-4
5665,64,248,1832,-20,47,-6
5670,40,248,1800,-20,48,-3
5675,80,248,1792,-22,49,-6
5680,40,280,1840,-21,49,-3
5685,64,264,1800,-20,50,-5
5690,64,272,1848,-20,50,-2
5695,64,264,1848,-20,49,-3
5700,48,280,1808,-22,49,-3
5705,40,240,1832,-24,49,-5
5710,56,264,1832,-24,50,-3
5715,48,264,1840,-24,51,-5
5720,64,248,1824,-24,52,-2
5725,72,264,1800,-22,50,-5
5730,56,264,1832,-22,52,-3
5735,64,256,1824,-22,54,-4
5740,56,256,1832,-21,59,-1
5745,72,240,1824,-20,55,-4
5750,40,256,1824,-20,51,-3
5755,48,280,1816,-20,51,-6
5760,64,288,1832,-20,51,-3
5765,64,272,1816,-21,49,-4
5770,72,264,1808,-21,49,-2
5775,72,264,1848,-21,47,-3
5780,56,264,1856,-23,46,-2
5785,88,248,1864,-25,45,-4
5790,64,248,1808,-26,42,-1
5795,64,288,1816,-27,42,-3
5800,80,256,1832,-28,41,-1
5805,72,280,1824,-28,41,-3
5810,64,264,1816,-29,41,-2
5815,80,272,1816,-30,41,-4
5820,56,248,1856,-28,43,-2
5825,64,280,1824,-28,45,-3
5830,56,264,1792,-27,45,-1
5835,72,256,1816,-24,47,-3
5840,72,248,1816,-23,48,0
5845,64,264,1848,-22,53,-2
5850,56,248,1832,-20,57,-1
5855,64,256,1816,-19,51,-4
5860,56,256,1816,-21,48,-3
5865,80,240,1856,-23,48,-4
5870,56,256,1840,-22,46,-3
5875,80,264,1816,-23,48,-3
5880,80,280,1824,-24,46,-1
5885,72,288,1824,-22,47,-4
5890,72,272,1840,-21,48,0
5895,64,248,1848,-21,47,-2
5900,48,264,1832,-20,49,0
5905,56,280,1808,-20,49,-3
5910,72,248,1824,-19,50,-1
5915,80,256,1816,-19,52,-2
5920,64,288,1832,-21,51,-2
5925,56,280,1832,-21,51,-4
5930,72,256,1800,-21,50,-1
5935,72,272,1856,-20,49,-5
5940,56,272,1816,-21,49,-2
5945,56,264,1840,-22,48,-3
5950,80,264,1808,-22,47,-3
5955,72,248,1864,-22,49,-4
5960,48,264,1840,-21,48,-1
5965,64,296,1824,-23,46,-3
5970,80,272,1816,-23,46,-1
5975,64,272,1856,-23,47,-3
5980,64,288,1800,-25,47,0
5985,64,256,1808,-26,47,-2
5990,64,256,1840,-26,47,2
5995,88,264,1840,-25,47,-1
6000,64,264,1816,-27,49,1
6005,80,240,1848,-25,51,-1
6010,64,224,1824,-24,50,0
6015,64,248,1856,-20,53,-3
6020,48,256,1856,-20,52,0
6025,72,264,1824,-21,53,-2
6030,56,248,1840,-21,49,0
6035,56,248,1856,-22,47,-2
6040,64,272,1832,-25,45,0
6045,80,256,1816,-28,43,-4
6050,64,256,1824,-30,41,-2
6055,48,248,1832,-31,39,-4
6060,72,248,1816,-29,40,-1
6065,64,240,1808,-26,41,-3
6070,96,256,1832,-22,43,0
6075,80,264,1824,-19,46,-3
6080,56,248,1808,-18,48,-1
6085,64,264,1816,-16,49,-1
6090,64,288,1832,-14,52,0
6095,88,272,1824,-13,52,-2
6100,80,272,1784,-13,52,0
6105,80,256,1848,-15,53,-2
6110,56,264,1800,-16,51,0
6115,56,280,1832,-20,51,-2
6120,72,272,1840,-24,50,1
6125,88,272,1824,-26,49,-1
6130,64,256,1832,-28,49,1
6135,72,256,1816,-29,49,-1
6140,72,248,1832,-28,48,1
6145,72,240,1848,-28,46,-2
6150,64,232,1808,-29,47,0
6155,64,272,1832,-27,46,-2
6160,80,240,1816,-27,47,0
6165,72,248,1840,-26,46,0
6170,80,264,1824,-25,48,0
6175,64,240,1832,-23,48,-3
6180,80,280,1808,-22,48,1
6185,72,232,1832,-22,49,-1
6190,64,264,1824,-31,47,-2
6195,80,240,1864,-27,48,-2
6200,72,240,1840,-23,50,0
6205,80,256,1856,-21,49,0
6210,88,256,1824,-19,49,1
6215,64,280,1856,-21,49,-2
6220,64,248,1856,-21,48,2
6225,80,232,1816,-20,48,-1
6230,72,240,1784,-20,47,0
6235,72,248,1832,-19,49,-2
6240,56,240,1832,-20,49,1
6245,64,280,1784,-19,48,-1
6250,80,240,1856,-22,46,-1
6255,80,248,1824,-16,50,-2
6260,88,248,1816,-16,50,1
6265,88,256,1816,-16,49,-2
6270,96,248,1808,-17,50,0
6275,80,248,1840,-16,51,-3
6280,72,256,1840,-16,52,-1
6285,48,288,1832,-18,52,-4
6290,72,264,1840,-20,51,-3
6295,88,248,1808,-16,53,-3
6300,80,240,1824,-14,54,-2
6305,80,240,1840,-13,54,-4
6310,88,224,1816,-13,56,-2
6315,56,256,1856,-12,56,-3
6320,80,248,1864,-11,57,-2
6325,80,248,1832,-12,57,-4
6330,80,264,1816,-12,58,-2
6335,64,256,1800,-12,59,-4
6340,72,248,1808,-11,60,-2
6345,80,232,1824,-8,61,-4
6350,48,248,1816,-7,61,-2
6355,88,224,1800,-4,62,-4
6360,64,240,1808,-4,62,-1
6365,80,256,1808,-4,62,-2
6370,64,256,1832,-3,62,0
6375,80,240,1848,-2,64,-2
6380,96,248,1824,-4,65,0
6385,80,248,1824,-2,64,-2
6390,56,248,1856,-4,65,0
6395,48,264,1808,-4,66,0
6400,48,248,1816,-3,67,1
6405,72,248,1840,-3,68,-3
6410,72,264,1864,-2,67,-2
6415,64,280,1816,-3,67,-2
6420,48,272,1832,0,67,-1
6425,88,240,1848,2,68,-2
6430,72,256,1832,0,69,-1
6435,72,248,1824,0,69,-2
6440,72,256,1832,1,69,0
6445,56,264,1832,0,68,-3
6450,88,264,1840,-1,68,-1
6455,112,256,1808,-1,69,-3
6460,64,256,1824,-2,68,0
6465,72,248,1840,-2,67,-2
6470,64,256,1840,-2,68,1
6475,72,280,1816,-3,68,-1
6480,64,256,1840,-2,69,0
6485,96,240,1832,0,68,-2
6490,64,240,1840,-3,70,0
6495,96,232,1832,-2,72,-3
6500,88,248,1840,-4,70,-1
6505,80,272,1840,-4,71,-2
6510,80,264,1816,-3,70,1
6515,88,256,1864,-4,70,-2
6520,96,256,1832,-4,69,-1
6525,64,256,1848,-4,67,-1
6530,80,256,1832,-4,67,-2
6535,80,248,1832,-2,66,-2
6540,40,264,1840,-3,66,1
6545,56,248,1808,-4,68,-1
6550,80,248,1808,-2,68,1
6555,80,232,1840,-2,69,-2
6560,72,264,1840,-2,69,1
6565,80,264,1824,1,71,-2
6570,88,280,1824,-1,71,-3
6575,88,256,1824,0,70,-3
6580,72,264,1832,0,69,-3
6585,48,264,1816,-1,70,-2
6590,64,272,1824,-2,70,-1
6595,72,272,1824,-2,71,-3
6600,48,256,1832,-3,70,-1
6605,96,264,1824,-2,70,-2
6610,112,248,1816,-2,71,0
6615,56,264,1832,-3,71,-1
6620,56,280,1816,-3,71,0
6625,64,240,1816,-3,70,-1
6630,72,272,1848,-2,68,1
6635,64,288,1832,0,69,-3
6640,80,264,1816,-2,71,0
6645,64,280,1840,-2,71,-1
6650,80,280,1824,-5,72,1
6655,88,264,1824,-4,70,-2
6660,72,248,1824,-4,71,-1
6665,88,264,1816,-4,74,-2
6670,72,280,1808,-4,74,-1
6675,56,256,1832,-4,73,-2
6680,72,232,1832,-2,75,-1
6685,56,240,1848,-2,75,-3
6690,80,232,1848,-3,74,-1
6695,56,248,1824,-2,71,-2
6700,48,264,1864,-3,70,-2
6705,40,288,1832,-6,67,-4
6710,56,272,1848,-10,65,-1
6715,64,264,1872,-10,63,-2
6720,64,232,1856,-9,62,-2
6725,80,240,1872,-6,63,-4
6730,64,248,1800,-4,65,0
6735,80,256,1824,0,66,-2
6740,56,280,1840,2,68,-1
6745,64,264,1816,5,71,-2
6750,56,280,1784,7,74,0
6755,72,264,1864,8,77,-1
6760,64,256,1848,10,77,0
6765,64,264,1808,9,77,-2
6770,40,288,1816,8,81,-1
6775,64,280,1824,8,80,-2
6780,64,288,1808,4,77,-1
6785,56,280,1824,1,76,-3
6790,56,256,1840,-2,76,-1
6795,56,280,1824,-3,74,-3
6800,72,280,1848,-4,72,-2
6805,64,288,1840,-1,72,-3
6810,80,288,1872,0,71,-2
6815,56,272,1832,0,70,-3
6820,72,272,1832,-1,72,-2
6825,72,256,1800,2,73,-3
6830,24,272,1824,0,73,-2
6835,56,264,1824,3,71,-3
6840,104,240,1808,3,70,-1
6845,64,280,1840,-2,63,-5
6850,72,256,1808,-3,64,-1
6855,72,248,1840,-1,67,-5
6860,32,280,1840,4,68,-3
6865,40,264,1840,9,69,-5
6870,48,288,1824,9,70,-3
6875,56,264,1824,9,71,-5
6880,40,272,1824,6,69,-5
6885,48,264,1832,9,68,-6
6890,56,264,1784,11,69,-5
6895,40,264,1848,13,68,-8
6900,56,296,1848,13,70,-4
6905,64,248,1856,13,69,-6
6910,40,280,1800,6,65,-6
6915,64,280,1808,7,65,-7
6920,56,256,1856,4,64,-5
6925,40,256,1872,4,64,-6
6930,56,280,1840,4,60,-5
6935,72,264,1816,1,60,-9
6940,48,288,1832,2,65,-7
6945,56,280,1816,2,65,-8
6950,48,304,1824,1,65,-5
6955,48,296,1824,1,66,-7
6960,48,280,1848,0,70,-6
6965,88,264,1840,1,69,-5
6970,80,280,1848,2,70,-4
6975,56,272,1856,1,69,-6
6980,40,312,1816,0,66,-4
6985,56,280,1872,-1,64,-6
6990,64,280,1848,-1,63,-6
6995,48,272,1800,-2,63,-8
7000,72,264,1808,-2,65,-6
7005,56,280,1832,-4,66,-6
7010,64,264,1840,-3,69,-4
7015,48,288,1832,-2,71,-6
7020,56,280,1808,0,70,-5
7025,48,280,1816,-2,67,-7
7030,56,264,1848,1,65,-4
7035,64,264,1808,1,66,-5
7040,24,280,1840,-1,67,-6
7045,48,288,1816,0,66,-6
7050,56,256,1832,0,67,-6
7055,56,288,1824,-2,68,-7
7060,56,264,1808,-1,65,-3
7065,56,264,1824,-3,64,-8
7070,64,288,1832,-4,67,-7
7075,56,280,1800,-4,66,-8
7080,56,288,1848,-4,68,-6
7085,64,280,1800,-2,68,-7
7090,48,288,1816,-4,71,-8
7095,64,248,1832,-4,71,-8
7100,48,296,1808,-1,71,-7
7105,56,272,1832,-1,72,-8
7110,56,288,1840,-2,72,-5
7115,32,272,1872,-2,70,-5
7120,48,264,1816,0,66,-3
7125,56,288,1832,2,65,-5
7130,64,288,1816,-2,63,-3
7135,32,304,1840,-3,63,-6
7140,40,296,1824,-6,66,-5
7145,40,272,1848,-5,67,-5
7150,40,264,1816,-5,66,-3
7155,64,256,1816,-3,64,-3
7160,48,288,1864,-5,63,-3
7165,56,288,1832,-5,63,-5
7170,40,288,1840,-4,62,-4
7175,72,280,1856,-5,60,-5
7180,56,280,1832,-6,60,-3
7185,48,288,1808,-8,62,-6
7190,72,272,1824,-9,65,-3
7195,48,280,1848,-7,69,-5
7200,56,272,1824,-5,73,-2
7205,40,280,1800,-8,79,-4
7210,56,264,1848,-8,71,-3
7215,48,280,1800,-11,69,-10
7220,32,288,1848,-5,77,-8
7225,72,256,1848,1,72,-5
7230,32,296,1832,-1,63,-1
7235,16,272,1824,-6,57,-5
7240,48,304,1808,-9,57,-5
7245,40,280,1824,-10,61,-5
7250,64,264,1816,-7,61,-3
7255,56,288,1824,-6,61,-4
7260,56,272,1808,-6,60,-3
7265,64,288,1824,-8,64,-5
7270,48,280,1824,-8,68,-3
7275,64,272,1848,-7,67,-3
7280,24,288,1824,-6,67,-3
7285,64,264,1808,-6,66,-4
7290,40,296,1800,-4,64,-1
7295,32,320,1784,-5,66,-3
7300,48,296,1856,-4,67,-1
7305,56,288,1800,-1,64,-1
7310,64,288,1816,-5,64,-2
7315,72,272,1808,-4,63,-2
7320,72,296,1840,-6,71,0
7325,48,272,1840,-8,73,0
7330,32,264,1848,-4,70,2
7335,40,288,1808,-2,63,-2
7340,24,320,1824,-7,58,0
7345,40,304,1864,-8,58,-1
7350,48,296,1856,-7,57,-2
7355,56,312,1816,-6,60,-5
7360,16,288,1808,-7,66,-4
7365,48,288,1856,-6,66,-3
7370,48,280,1792,-7,65,1
7375,64,296,1816,-9,64,-3
7380,64,296,1816,-10,64,1
7385,40,272,1816,-8,56,-1
7390,48,296,1808,-6,56,-1
7395,56,264,1800,-4,57,-4
7400,40,288,1808,-5,60,-4
7405,32,304,1848,-8,61,-5
7410,40,264,1816,-8,60,-4
7415,48,264,1840,-9,59,-4
7420,40,280,1832,-11,61,-2
7425,56,288,1832,-12,61,-3
7430,56,264,1808,-11,60,-1
7435,40,288,1824,-12,58,-5
7440,24,304,1832,-11,58,-3
7445,40,296,1824,-11,61,-4
7450,48,280,1824,-11,61,0
7455,64,280,1808,-11,62,-3
7460,56,288,1832,-11,63,-1
7465,72,288,1816,-11,64,-4
7470,56,296,1824,-12,63,-1
7475,40,280,1848,-10,64,-3
7480,8,288,1832,-8,62,-2
7485,32,288,1816,-9,63,-4
7490,24,288,1832,-10,61,-2
7495,64,296,1856,-14,59,-4
7500,48,288,1824,-17,58,-3
7505,40,272,1848,-24,56,-5
7510,48,288,1816,-26,57,-4
7515,48,288,1840,-23,56,-5
7520,40,296,1824,-20,58,-4
7525,40,272,1800,-15,60,-5
7530,56,264,1800,-10,60,-2
7535,40,280,1816,-5,60,-2
7540,56,280,1808,0,61,0
7545,48,296,1824,1,62,-2
7550,48,288,1792,2,64,-1
7555,40,296,1800,0,66,-4
7560,56,296,1784,0,66,-3
7565,56,304,1848,-2,66,-5
7570,64,304,1840,-4,65,-4
7575,72,296,1864,-10,63,-4
7580,48,296,1832,-12,61,-2
7585,40,288,1832,-12,60,-3
7590,56,296,1816,-13,59,-3
7595,32,280,1816,-12,61,-5
7600,56,304,1824,-12,61,-3
7605,48,304,1848,-10,63,-3
7610,32,280,1856,-9,64,-2
7615,56,288,1832,-7,64,-3
7620,40,296,1816,-6,61,-3
7625,32,280,1824,-7,63,-5
7630,64,272,1808,-5,63,-3
7635,56,288,1808,-5,64,-4
7640,56,296,1808,-8,63,-3
7645,48,280,1800,-14,57,-8
7650,48,272,1800,-12,61,-7
7655,32,256,1832,-14,59,-2
7660,24,272,1840,-12,56,-4
7665,40,256,1848,-8,57,-5
7670,48,280,1824,-10,64,-1
7675,16,272,1824,-14,68,-2
7680,32,280,1840,-12,62,-3
7685,48,272,1808,-11,61,-6
7690,40,296,1808,-10,67,-2
7695,32,272,1832,-10,66,-4
7700,48,272,1832,-13,64,-4
7705,24,288,1856,-14,59,-4
7710,48,272,1824,-13,57,-4
7715,56,296,1824,-14,57,-6
7720,16,296,1848,-11,57,-4
7725,32,288,1824,-11,58,-5
7730,24,288,1824,-9,59,-4
7735,64,304,1808,-10,59,-4
7740,56,304,1808,-11,60,-2
7745,40,288,1800,-11,59,-4
7750,32,304,1824,-10,61,-2
7755,48,280,1816,-9,60,-4
7760,64,280,1824,-7,62,-2
7765,40,304,1816,-5,61,-3
7770,72,288,1808,-4,63,-2
7775,88,248,1760,-3,70,-5
7780,56,232,1808,3,90,-9
7785,32,288,1832,7,86,-9
7790,40,296,1864,4,74,-4
7795,64,272,1832,-8,71,-3
7800,32,312,1824,-13,69,-6
7805,56,288,1816,-18,61,-8
7810,24,304,1832,-20,60,-5
7815,40,272,1848,-18,59,-6
7820,24,272,1824,-19,52,-6
7825,40,272,1816,-22,48,-8
7830,32,280,1824,-21,52,-4
7835,24,296,1816,-17,56,-4
7840,32,280,1808,-14,59,-2
7845,40,280,1824,-15,59,-4
7850,32,288,1832,-16,57,-2
7855,48,280,1840,-17,56,-4
7860,24,304,1816,-19,53,-4
7865,40,304,1816,-20,53,-7
7870,40,288,1792,-16,57,-4
7875,48,296,1824,-12,60,-4
7880,56,288,1824,-11,64,-4
7885,40,296,1816,-11,62,-5
7890,40,280,1808,-12,61,-3
7895,48,288,1816,-14,64,-2
7900,16,288,1816,-13,66,-1
7905,24,304,1840,-9,62,-5
7910,40,304,1808,-10,60,-2
7915,32,304,1792,-14,60,-5
7920,48,296,1832,-15,60,-3
7925,40,296,1840,-17,57,-3
7930,32,304,1832,-19,55,-2
7935,40,280,1848,-20,53,-4
7940,40,288,1816,-18,54,-3
7945,24,288,1792,-17,57,-4
7950,64,264,1816,-15,58,-1
7955,32,288,1816,-16,57,-4
7960,64,288,1816,-17,55,-3
7965,8,296,1824,-16,56,-5
7970,48,288,1824,-19,54,-3
7975,56,264,1832,-18,54,-2
7980,40,264,1824,-15,54,-2
7985,48,280,1816,-14,56,-4
7990,32,280,1808,-14,56,-3
7995,24,304,1808,-15,57,-3
8000,40,280,1848,-17,56,-3
8005,48,288,1872,-15,56,-6
8010,32,264,1840,-13,57,-3
8015,32,304,1824,-11,58,-6
8020,48,296,1816,-12,60,-3
8025,64,288,1848,-10,60,-6
8030,40,280,1792,-12,63,-4
8035,56,280,1800,-14,63,-5
8040,48,288,1848,-13,63,-5
8045,48,272,1824,-11,63,-6
8050,72,280,1816,-9,66,-1
8055,48,264,1824,-11,76,0
8060,32,288,1792,-10,81,1
8065,40,288,1816,-9,75,-3
8070,8,312,1848,-12,70,-3
8075,48,272,1824,-8,71,-7
8080,48,320,1808,-8,67,-3
8085,56,288,1832,-13,59,-6
8090,48,288,1848,-14,53,-5
8095,32,288,1808,-15,53,-9
8100,40,296,1824,-14,58,-6
8105,64,272,1808,-14,58,-5
8110,40,288,1808,-16,55,-7
8115,40,280,1816,-19,55,-6
8120,40,296,1840,-16,58,-3
8125,64,264,1824,-11,61,-5
8130,16,320,1840,-11,62,-4
8135,40,280,1824,-12,60,-6
8140,56,312,1856,-10,63,-3
8145,32,312,1840,-11,63,-4
8150,48,288,1840,-11,61,-1
8155,40,296,1808,-12,62,-4
8160,56,272,1840,-11,65,-1
8165,24,280,1848,-11,67,-3
8170,80,240,1784,-13,68,-2
8175,32,264,1824,-15,75,-11
8180,40,288,1800,-10,80,-6
8185,64,280,1832,-3,72,-5
8190,32,288,1848,-8,72,-5
8195,48,304,1832,-11,68,-4
8200,24,280,1864,-16,61,-5
8205,24,296,1824,-18,56,-6
8210,40,280,1808,-17,55,-4
8215,8,288,1824,-16,55,-3
8220,32,304,1800,-16,55,-2
8225,16,288,1832,-15,57,-3
8230,32,288,1808,-16,58,-2
8235,48,296,1848,-14,60,-3
8240,72,280,1856,-13,61,-1
8245,24,296,1824,-13,63,-4
8250,24,296,1824,-11,63,-2
8255,40,312,1824,-10,62,-3
8260,32,288,1832,-14,62,-3
8265,56,304,1816,-14,60,-3
8270,40,288,1832,-14,59,-1
8275,40,272,1832,-16,57,-3
8280,40,296,1872,-16,58,-1
8285,40,288,1816,-16,59,-3
8290,40,288,1840,-13,59,-1
8295,40,304,1808,-12,58,-2
8300,32,296,1832,-12,59,-1
8305,48,296,1800,-14,58,-3
8310,56,296,1824,-13,59,-2
8315,8,288,1816,-14,62,-2
8320,40,296,1824,-14,60,0
8325,48,296,1816,-13,61,-2
8330,8,312,1808,-14,62,-1
8335,56,280,1816,-14,63,-2
8340,32,304,1808,-13,63,0
8345,24,296,1848,-12,63,-1
8350,24,288,1816,-12,64,0
8355,16,280,1848,-11,63,-2
8360,40,280,1816,-10,64,0
8365,32,288,1816,-10,65,-3
8370,24,272,1848,-9,65,-1
8375,56,304,1832,-11,61,-3
8380,40,264,1840,-16,58,-1
8385,16,288,1816,-21,58,-3
8390,40,304,1832,-22,59,-2
8395,16,296,1824,-22,61,-3
8400,8,280,1816,-17,63,-2
8405,24,288,1768,-12,62,-3
8410,48,264,1792,-8,63,0
8415,48,288,1824,-3,63,-1
8420,40,272,1832,-7,55,0
8425,64,272,1824,-5,53,0
8430,48,264,1808,-3,54,-3
8435,40,288,1824,1,58,-3
8440,32,296,1816,3,62,-3
8445,56,304,1824,3,64,-4
8450,40,304,1848,0,67,-3
8455,40,304,1872,-4,65,-4
8460,32,304,1824,-8,65,-4
8465,48,280,1832,-10,61,-4
8470,48,288,1888,-10,60,-4
8475,32,280,1840,-8,61,-5
8480,40,288,1824,-4,64,-2
8485,40,288,1800,-3,63,-4
8490,56,280,1864,-3,65,-2
8495,48,280,1816,-7,74,-2
8500,32,288,1816,-8,75,-1
8505,48,272,1808,-7,73,-2
8510,40,296,1832,-3,71,0
8515,32,288,1816,2,68,-1
8520,-32,304,1816,6,61,3
8525,40,304,1824,1,45,6
8530,40,304,1848,0,42,3
8535,8,288,1824,1,49,2
8540,24,312,1856,4,51,3
8545,16,296,1832,3,54,-1
8550,16,296,1824,2,56,1
8555,48,288,1808,0,58,-1
8560,32,288,1832,-1,59,-1
8565,56,272,1800,-3,59,-1
8570,8,312,1824,-1,58,-1
8575,48,280,1848,-1,58,-2
8580,32,288,1848,1,59,0
8585,56,280,1832,1,60,-1
8590,40,312,1800,1,58,1
8595,32,304,1816,0,60,-1
8600,48,296,1824,-4,60,0
8605,48,264,1816,-2,59,-2
8610,48,296,1816,-3,59,0
8615,56,304,1848,-3,61,-2
8620,40,296,1816,-4,61,0
8625,32,296,1832,-5,61,0
8630,40,304,1824,-3,60,0
8635,24,288,1792,-4,60,-2
8640,24,304,1840,-5,61,0
8645,48,296,1808,-3,62,-3
8650,24,304,1808,-1,63,0
8655,24,328,1824,-1,61,0
8660,40,304,1824,-1,62,1
8665,48,304,1848,-4,62,0
8670,24,288,1840,-6,60,2
8675,16,312,1832,-6,60,-2
8680,48,296,1816,-7,60,0
8685,32,280,1848,-6,59,-2
8690,32,296,1848,-5,60,-1
8695,40,304,1808,-5,63,-2
8700,56,288,1840,-5,62,-1
8705,56,280,1840,-4,67,-4
8710,40,272,1840,0,77,-2
8715,24,272,1840,3,79,-7
8720,8,312,1824,6,74,-1
8725,24,320,1816,3,65,-3
8730,40,312,1848,-5,59,-4
8735,40,296,1848,-10,57,-3
8740,48,296,1832,-14,56,-2
8745,48,264,1808,-16,55,-3
8750,24,280,1824,-25,47,0
8755,8,296,1848,-30,41,1
8760,40,280,1824,-24,43,0
8765,64,288,1808,-19,49,-1
8770,32,304,1840,-20,59,3
8775,16,304,1824,-17,58,-1
8780,32,320,1824,-12,55,1
8785,24,304,1848,-15,56,1
8790,16,320,1816,-17,55,4
8795,40,288,1848,-17,52,3
8800,32,288,1800,-17,52,3
8805,56,304,1832,-14,54,-1
8810,48,288,1800,-13,56,-1
8815,48,280,1824,-11,56,-2
8820,16,312,1792,-12,57,-1
8825,56,280,1816,-11,57,-2
8830,40,272,1800,-10,59,-2
8835,48,296,1808,-10,59,-1
8840,32,296,1824,-10,59,-1
8845,24,288,1840,-10,58,-2
8850,48,288,1800,-10,58,0
8855,48,296,1840,-10,58,-2
8860,40,296,1840,-10,59,-1
8865,56,312,1816,-11,59,-3
8870,40,272,1832,-12,60,-1
8875,24,296,1832,-12,62,-4
8880,40,296,1824,-11,60,-2
8885,48,296,1872,-10,58,-3
8890,40,304,1848,-9,61,-2
8895,24,312,1840,-9,63,-5
8900,32,296,1816,-10,61,-3
8905,32,296,1808,-11,60,-3
8910,40,304,1840,-10,60,0
8915,40,328,1832,-9,59,-2
8920,40,280,1816,-9,59,-1
8925,16,296,1832,-8,61,-1
8930,24,296,1824,-8,62,-1
8935,16,288,1840,-7,61,-2
8940,40,288,1856,-8,60,-1
8945,40,304,1824,-8,60,-2
8950,24,288,1816,-8,60,-1
8955,32,328,1808,-8,60,-2
8960,40,312,1808,-8,59,-1
8965,32,288,1816,-9,59,-2
8970,48,288,1808,-8,61,0
8975,72,296,1808,-8,62,-2
8980,24,312,1816,-9,63,-1
8985,40,288,1808,-9,62,-2
8990,24,296,1832,-9,59,0
8995,16,304,1816,-10,61,-2
9000,16,280,1840,-10,63,0
9005,24,312,1856,-8,64,-2
9010,32,288,1808,-8,65,-1
9015,40,296,1816,-8,67,-2
9020,24,304,1832,-7,69,-1
9025,32,280,1832,-7,67,-2
9030,32,312,1832,-5,67,-1
9035,24,296,1832,-8,64,-2
9040,32,328,1824,-9,62,0
9045,40,304,1824,-11,58,-3
9050,24,296,1824,-12,57,0
9055,32,312,1880,-22,53,-3
9060,32,280,1792,-26,44,2
9065,8,288,1832,-30,39,1
9070,32,296,1824,-24,43,-2
9075,32,304,1824,-19,46,-3
9080,8,312,1832,-16,51,-2
9085,32,288,1808,-13,55,-4
9090,24,296,1824,-13,56,-1
9095,-8,376,1848,-14,57,-1
9100,40,280,1832,-15,57,0
9105,40,296,1824,-17,58,-1
9110,40,304,1832,-17,57,0
9115,32,288,1832,-15,59,-1
9120,40,288,1832,-14,58,-1
9125,40,272,1848,-15,58,-2
9130,56,280,1816,-14,57,0
9135,48,296,1840,-15,58,-2
9140,24,296,1816,-16,58,1
9145,40,304,1840,-16,58,-1
9150,16,288,1816,-15,58,0
9155,48,304,1824,-15,57,-2
9160,32,280,1808,-13,56,1
9165,16,296,1856,-14,58,-1
9170,8,296,1840,-15,57,0
9175,48,288,1824,-16,58,-1
9180,24,296,1816,-17,59,1
9185,24,288,1840,-18,59,-1
9190,40,280,1816,-17,58,1
9195,40,304,1808,-17,57,-1
9200,24,320,1840,-17,57,-1
9205,40,288,1808,-18,56,-2
9210,16,280,1832,-18,56,-1
9215,48,304,1824,-19,57,-2
9220,48,280,1824,-18,56,-1
9225,24,296,1824,-19,58,-2
9230,32,296,1832,-17,56,-1
9235,40,288,1832,-20,58,-2
9240,48,304,1816,-20,57,1
9245,56,304,1808,-20,57,-2
9250,40,320,1824,-19,56,0
9255,56,296,1800,-20,56,-3
9260,40,304,1808,-19,57,-1
9265,32,296,1832,-21,57,-3
9270,32,304,1808,-20,57,-1
9275,16,304,1792,-22,57,-1
9280,72,288,1840,-21,59,0
9285,48,280,1840,-22,59,-3
9290,8,328,1792,-22,57,-1
9295,40,280,1848,-23,57,-3
9300,48,272,1840,-22,56,-2
9305,24,280,1832,-21,55,-2
9310,56,280,1824,-21,55,-2
9315,16,288,1840,-23,54,-4
9320,48,304,1840,-26,53,-3
9325,40,264,1840,-30,52,-5
9330,16,280,1840,-32,51,-3
9335,8,288,1824,-30,50,-5
9340,112,288,1864,-27,50,-2
9345,32,272,1824,-23,70,1
9350,32,288,1816,-15,84,6
9355,24,280,1776,-7,76,0
9360,40,312,1824,-6,63,0
9365,16,312,1816,-8,55,-2
9370,40,288,1824,-13,48,2
9375,40,288,1840,-13,49,-1
9380,32,320,1816,-8,53,-3
9385,40,312,1824,-6,53,-3
9390,24,304,1824,-6,53,-4
9395,32,296,1824,-10,54,-3
9400,48,296,1840,-12,53,-2
9405,24,296,1848,-17,53,-3
9410,56,288,1840,-17,53,-2
9415,32,296,1840,-17,55,-4
9420,56,280,1832,-17,56,-2
9425,64,304,1800,-15,56,-3
9430,40,296,1832,-14,56,0
9435,24,304,1776,-14,56,-1
9440,32,288,1848,-14,57,0
9445,40,288,1808,-14,57,-3
9450,40,288,1800,-16,57,-1
9455,40,288,1816,-16,55,-4
9460,32,288,1824,-15,54,-2
9465,40,288,1824,-15,54,-3
9470,32,312,1840,-14,54,-1
9475,48,272,1832,-15,55,-2
9480,16,304,1824,-14,55,-2
9485,48,288,1824,-14,55,-3
9490,32,312,1816,-14,56,-2
9495,16,304,1816,-13,55,-2
9500,40,296,1856,-12,56,-1
9505,24,288,1800,-13,56,-3
9510,56,280,1832,-13,56,0
9515,32,296,1864,-13,55,-2
9520,56,272,1808,-12,54,-1
9525,56,288,1800,-11,55,-3
9530,40,296,1848,-13,56,-1
9535,40,288,1824,-14,57,-2
9540,40,280,1808,-14,68,1
9545,0,320,1832,-9,69,-2
9550,40,304,1816,-9,57,-1
9555,24,320,1840,-13,54,-3
9560,32,280,1800,-15,58,-1
9565,48,288,1808,-17,55,-3
9570,48,296,1848,-16,55,-1
9575,32,280,1816,-15,56,-2
9580,48,296,1832,-13,56,-1
9585,24,280,1840,-12,55,-2
9590,56,296,1816,-11,55,-1
9595,48,288,1824,-10,56,-3
9600,40,304,1824,-11,55,-1
9605,48,288,1856,-12,57,-3
9610,40,296,1808,-14,56,-2
9615,48,288,1832,-15,56,-4
9620,16,296,1816,-16,53,-2
9625,32,312,1784,-16,55,-5
9630,24,304,1816,-16,55,-4
9635,64,288,1808,-17,55,-4
9640,48,280,1856,-16,55,-3
9645,40,312,1848,-14,56,-4
9650,24,304,1816,-14,55,-2
9655,32,304,1840,-13,55,-4
9660,56,280,1816,-14,55,-2
9665,40,272,1824,-16,54,-3
9670,48,312,1808,-16,55,-3
9675,48,296,1832,-18,54,-3
9680,24,304,1816,-18,53,-3
9685,24,288,1816,-19,54,-4
9690,56,280,1792,-19,54,-2
9695,40,296,1816,-19,55,-5
9700,40,288,1824,-20,55,-2
9705,56,304,1816,-18,53,-4
9710,16,304,1832,-17,54,-1
9715,32,280,1840,-18,55,-4
9720,48,296,1832,-20,55,-1
9725,32,304,1816,-19,56,-2
9730,32,272,1832,-18,57,-1
9735,32,288,1800,-20,60,-1
9740,40,312,1832,-18,66,-1
9745,24,288,1824,-18,56,-3
9750,64,288,1800,-19,52,-1
9755,24,288,1832,-19,55,-2
9760,16,304,1832,-20,54,-1
9765,48,288,1872,-21,53,-2
9770,32,304,1848,-20,53,-1
9775,32,280,1816,-21,53,-2
9780,16,288,1824,-21,53,-1
9785,48,304,1824,-21,55,-2
9790,48,296,1808,-19,53,-1
9795,40,280,1808,-19,54,-3
9800,48,272,1808,-18,53,-1
9805,56,272,1832,-19,54,-2
9810,24,288,1864,-17,54,-2
9815,40,312,1840,-17,54,-3
9820,40,280,1816,-17,54,-2
9825,32,296,1800,-16,54,-3
9830,40,288,1832,-16,52,-1
9835,48,280,1808,-16,52,-3
9840,40,296,1800,-15,52,0
9845,56,256,1840,-16,52,-2
9850,40,272,1816,-15,53,0
9855,40,312,1824,-16,54,-3
9860,64,312,1840,-14,53,-1
9865,64,288,1824,-13,52,-3
9870,56,296,1840,-13,52,-2
9875,40,280,1800,-13,52,-2
9880,32,280,1808,-14,53,-1
9885,48,280,1832,-13,52,-2
9890,48,312,1808,-15,53,0
9895,56,264,1832,-15,54,-2
9900,40,280,1840,-14,55,0
9905,40,272,1840,-16,54,-2
9910,16,312,1832,-16,53,0
9915,24,304,1808,-16,53,-1
9920,40,296,1808,-17,52,-1
9925,80,264,1840,-17,53,-2
9930,64,296,1840,-19,54,0
9935,48,296,1800,-19,53,-2
9940,56,296,1848,-19,53,0
9945,32,280,1824,-20,53,-2
9950,24,280,1792,-21,54,-1
9955,48,280,1824,-20,55,-2
9960,48,296,1832,-20,54,0
9965,48,296,1808,-18,54,-3
9970,32,280,1816,-19,55,0
9975,48,304,1832,-20,54,-2
9980,32,288,1816,-20,54,-1
9985,40,288,1816,-19,55,-3
9990,32,288,1808,-18,55,1
9995,56,280,1840,-18,62,0
10000,16,296,1832,-16,70,-1
10005,24,296,1832,-16,57,-1
10010,32,280,1808,-17,52,-1
10015,56,304,1824,-19,52,-3
10020,32,288,1816,-19,52,-2
10025,40,288,1832,-20,53,-4
10030,56,288,1832,-19,53,-1
10035,32,256,1816,-21,53,-3
10040,32,288,1832,-20,51,-1
10045,48,272,1824,-20,53,-2
10050,40,296,1856,-22,52,-1
10055,24,264,1832,-19,53,-1
10060,48,288,1824,-19,53,-1
10065,48,280,1792,-20,53,-2
10070,32,296,1824,-22,52,-1
10075,32,296,1840,-23,51,-2
10080,48,288,1816,-24,51,0
10085,24,272,1840,-21,52,-3
10090,32,264,1824,-22,52,-2
10095,40,280,1832,-20,52,-4
10100,56,280,1840,-20,52,-2
10105,40,288,1824,-21,51,-2
10110,64,296,1824,-21,52,-1
10115,48,280,1816,-22,51,-3
10120,40,304,1816,-22,52,-1
10125,32,288,1792,-23,51,-3
10130,48,288,1832,-22,51,-1
10135,32,280,1808,-23,51,-2
10140,24,280,1832,-22,49,0
10145,16,312,1824,-21,50,-3
10150,56,272,1824,-20,56,0
10155,8,304,1816,-16,64,-3
10160,64,296,1848,-17,53,-1
10165,32,312,1808,-20,50,-3
10170,56,296,1824,-21,50,-1
10175,48,280,1856,-23,49,-3
10180,56,288,1816,-23,48,-1
10185,40,296,1800,-26,50,-4
10190,40,288,1832,-27,53,-2
10195,32,296,1816,-27,53,-2
10200,48,280,1856,-26,53,-1
10205,32,288,1824,-24,53,-3
10210,56,248,1808,-24,52,-2
10215,56,272,1824,-23,50,-3
10220,64,256,1824,-22,49,0
10225,48,256,1840,-20,49,-3
10230,24,288,1840,-21,45,-2
10235,40,280,1832,-21,44,-4
10240,32,280,1856,-24,45,-2
10245,32,264,1840,-29,42,-3
10250,56,280,1824,-31,41,-3
10255,48,272,1832,-31,40,-3
10260,40,264,1824,-27,41,-2
10265,48,272,1800,-24,43,-3
10270,64,272,1768,-18,45,-1
10275,40,264,1792,-16,48,-3
10280,56,280,1792,-10,54,-3
10285,80,272,1808,-8,55,-4
10290,72,296,1824,-7,58,-1
10295,32,280,1824,-6,67,-1
10300,56,312,1824,-4,64,-1
10305,48,312,1792,-6,52,-2
10310,40,288,1832,-11,54,-1
10315,56,288,1808,-13,55,-3
10320,64,288,1816,-15,51,-1
10325,72,272,1840,-16,50,-2
10330,56,280,1824,-17,52,-1
10335,48,280,1848,-16,53,-2
10340,72,248,1848,-16,53,0
10345,40,296,1808,-14,52,-2
10350,48,288,1856,-15,53,-2
10355,40,280,1856,-15,52,-4
10360,48,264,1824,-16,54,-1
10365,48,272,1824,-16,53,-2
10370,40,280,1824,-16,52,0
10375,40,248,1800,-16,53,-3
10380,40,264,1840,-15,53,-2
10385,32,280,1832,-13,54,-2
10390,56,272,1832,-13,55,-1
10395,56,256,1816,-10,55,-2
10400,56,280,1808,-11,54,-1
10405,64,272,1816,-11,54,-2
10410,32,248,1800,-9,55,0
10415,32,272,1832,-8,56,-3
10420,56,288,1808,-8,56,0
10425,40,272,1800,-8,56,-1
10430,32,296,1824,-7,57,0
10435,56,296,1800,-8,58,-1
10440,56,288,1824,-9,56,-1
10445,48,272,1840,-8,56,-2
10450,40,280,1856,-8,55,0
10455,56,264,1832,-9,57,-2
10460,48,304,1824,-8,58,0
10465,56,304,1816,-8,59,-1
10470,32,288,1816,-9,59,-1
10475,32,288,1808,-9,59,-2
10480,40,296,1816,-9,58,-1
10485,64,288,1808,-10,59,-1
10490,56,280,1824,-9,59,0
10495,56,312,1824,-9,60,-2
10500,64,264,1816,-8,60,0
10505,56,280,1824,-9,59,-2
10510,48,272,1832,-8,58,-1
10515,64,296,1840,-9,58,-2
10520,32,296,1824,-10,59,0
10525,48,304,1832,-12,59,-2
10530,40,288,1832,-12,59,-2
10535,48,280,1840,-14,60,-3
10540,56,272,1832,-13,60,-1
10545,32,296,1800,-12,60,-3
10550,56,280,1816,-10,60,-1
10555,40,288,1808,-10,60,-3
10560,56,280,1824,-10,60,-1
10565,32,288,1808,-9,59,-3
10570,56,264,1832,-9,60,-2
10575,48,280,1824,-10,61,-3
10580,32,288,1832,-10,60,-2
10585,64,304,1808,-11,59,-2
10590,40,272,1848,-12,59,0
10595,64,264,1840,-13,60,-2
10600,24,304,1824,-12,60,-1
10605,56,272,1848,-13,61,-3
10610,32,296,1832,-13,60,-2
10615,48,288,1840,-13,61,-4
10620,40,296,1824,-13,58,-2
10625,32,304,1824,-14,59,-2
10630,32,296,1816,-13,59,-2
10635,24,296,1824,-12,60,-2
10640,48,296,1824,-13,60,0
10645,40,280,1808,-14,60,-2
10650,56,280,1832,-14,59,-1
10655,40,296,1856,-16,58,-1
10660,40,288,1824,-16,58,0
10665,40,288,1840,-16,58,-1
10670,32,280,1832,-16,57,0
10675,56,280,1808,-16,57,-1
10680,56,264,1816,-17,57,1
10685,48,280,1816,-17,56,-3
10690,24,272,1840,-16,57,-1
10695,32,280,1824,-16,56,-2
10700,56,288,1816,-15,56,0
10705,32,280,1824,-15,56,-2
10710,56,272,1824,-16,56,-1
10715,48,312,1816,-17,56,-1
10720,32,296,1832,-18,56,-2
10725,64,296,1800,-18,54,-4
10730,32,304,1840,-18,55,-1
10735,48,280,1824,-19,55,-3
10740,48,272,1816,-18,55,-1
10745,40,288,1848,-19,56,-2
10750,40,296,1840,-18,56,0
10755,56,296,1832,-18,56,-2
10760,48,296,1816,-18,56,-2
10765,56,264,1816,-16,57,-3
10770,40,288,1808,-17,56,-1
10775,56,288,1832,-15,55,-3
10780,56,264,1832,-15,56,-1
10785,48,304,1840,-12,56,-3
10790,48,248,1832,-14,55,-1
10795,56,264,1824,-14,56,-2
10800,64,288,1808,-15,54,-1
10805,32,304,1840,-16,54,-2
10810,40,288,1832,-18,53,0
10815,40,288,1856,-17,54,-1
10820,48,280,1816,-18,52,1
10825,56,288,1800,-18,53,-1
10830,64,248,1856,-17,54,0
10835,56,280,1848,-16,55,-2
10840,40,288,1832,-15,55,1
10845,32,272,1816,-15,55,-2
10850,56,280,1808,-16,55,1
10855,64,272,1848,-18,54,-2
10860,56,272,1824,-17,54,-1
10865,40,280,1832,-17,54,-2
10870,48,280,1824,-18,53,-1
10875,48,280,1824,-16,52,-2
10880,56,264,1824,-16,53,0
10885,64,288,1832,-17,53,-2
10890,152,408,1888,-16,53,-1
10895,48,272,1816,-16,53,-2
10900,48,272,1832,-15,53,0
10905,48,280,1824,-17,55,-2
10910,48,272,1808,-16,55,-1
10915,56,280,1816,-17,55,-3
10920,24,280,1864,-16,55,0
10925,56,264,1848,-17,56,-1
10930,56,288,1808,-16,55,-1
10935,32,288,1816,-15,55,-3
10940,56,288,1840,-15,56,-1
10945,40,296,1832,-14,58,-2
10950,56,264,1824,-13,56,-1
10955,40,280,1824,-12,56,-2
10960,80,264,1816,-12,57,-1
10965,40,272,1824,-12,57,-1
10970,48,272,1832,-10,59,0
10975,48,272,1840,-9,59,-2
10980,56,288,1808,-9,60,0
10985,80,280,1800,-9,61,-2
10990,40,280,1832,-8,68,1
10995,32,296,1824,-7,65,-3
11000,40,280,1784,-11,58,1
11005,64,264,1792,-12,60,-2
11010,56,288,1824,-11,63,0
11015,72,272,1856,-12,64,-2
11020,72,272,1832,-12,64,0
11025,64,264,1824,-11,65,-2
11030,56,272,1848,-10,63,-1
11035,32,288,1840,-8,62,-3
11040,24,256,1848,-7,62,-1
11045,32,264,1840,-6,61,-2
11050,48,272,1800,-7,61,-1
11055,48,256,1832,-7,59,-3
11060,40,288,1848,-10,58,-2
11065,32,272,1840,-12,58,-3
11070,56,264,1840,-16,56,-1
11075,56,272,1824,-17,57,-4
11080,64,264,1824,-15,57,-2
11085,48,280,1816,-10,58,-2
11090,40,272,1784,-5,58,-2
11095,64,264,1792,-1,59,-2
11100,32,280,1848,0,61,0
11105,40,288,1824,-1,63,-2
11110,56,280,1840,0,62,1
11115,64,288,1800,-1,62,-1
11120,40,312,1848,-3,62,1
11125,40,328,1816,-7,60,-1
11130,64,280,1856,-8,60,-1
11135,40,296,1832,-11,59,-2
11140,56,296,1816,-13,59,0
11145,64,280,1832,-15,60,-4
11150,48,296,1848,-15,59,-1
11155,48,280,1840,-14,59,-3
11160,48,264,1808,-13,60,0
11165,48,272,1792,-11,60,-2
11170,40,288,1864,-9,61,-1
11175,48,288,1832,-8,60,-3
11180,40,264,1848,-8,61,-1
11185,40,272,1832,-8,61,-3
11190,64,256,1832,-9,60,-2
11195,48,288,1800,-10,60,-4
11200,48,272,1816,-9,59,-1
11205,56,280,1864,-10,60,-3
11210,56,288,1832,-9,61,-1
11215,64,280,1824,-9,60,-3
11220,64,264,1832,-7,58,-1
11225,32,272,1856,-7,59,-3
11230,40,280,1808,-5,59,-1
11235,48,264,1864,-6,58,-2
11240,64,280,1824,-5,60,1
11245,48,280,1832,-4,58,-2
11250,40,288,1792,-5,59,0
11255,32,288,1832,-5,58,-2
11260,40,288,1824,-6,59,0
11265,56,264,1840,-5,59,-1
11270,32,264,1808,-6,58,0
11275,56,280,1816,-6,60,-1
11280,24,288,1816,-7,59,-1
11285,40,288,1800,-5,60,-2
11290,40,280,1808,-7,61,0
11295,64,296,1824,-5,60,-2
11300,24,304,1800,-5,61,0
11305,48,304,1808,-6,61,-2
11310,72,280,1824,-6,61,-1
11315,40,296,1824,-4,61,-2
11320,48,304,1824,-3,60,-1
11325,32,296,1824,-2,61,-2
11330,64,288,1800,-2,62,0
11335,40,280,1816,-3,61,-3
11340,48,280,1824,-5,61,-1
11345,64,264,1840,-7,60,-2
11350,24,312,1856,-8,59,1
11355,56,288,1832,-9,58,-2
11360,40,288,1816,-10,61,-2
11365,32,296,1840,-10,61,-3
11370,48,304,1816,-11,60,-1
11375,56,280,1824,-11,61,-3
11380,40,280,1816,-11,63,0
11385,40,288,1816,-9,63,-3
11390,72,304,1848,-8,63,-1
11395,48,288,1816,-7,63,-2
11400,48,280,1840,-7,62,0
11405,56,272,1824,-7,64,-1
11410,40,280,1800,-7,64,0
11415,48,288,1824,-6,64,-2
11420,40,304,1816,-7,66,-1
11425,40,280,1848,-7,65,-3
11430,40,280,1824,-7,65,-1
11435,64,272,1848,-7,64,-3
11440,48,288,1840,-5,65,-1
11445,40,280,1824,-5,65,-4
11450,48,272,1808,-4,66,-1
11455,56,296,1824,-2,66,-4
11460,48,280,1840,-2,67,-1
11465,56,264,1848,-2,66,-3
11470,32,304,1824,-4,66,-1
11475,48,280,1816,-4,66,-2
11480,32,280,1816,-4,66,1
11485,56,304,1824,-4,66,-2
11490,16,296,1832,-6,66,-1
11495,40,296,1832,-5,65,-2
11500,32,304,1816,-9,63,-1
11505,48,280,1808,-7,64,-1
11510,64,296,1832,-8,64,-2
11515,56,288,1792,-6,64,-1
11520,56,288,1808,-7,65,-1
11525,40,304,1856,-6,64,-2
11530,40,280,1824,-5,64,0
11535,64,288,1848,-6,65,-2
11540,56,288,1824,-5,66,-1
11545,48,296,1808,-6,67,-4
11550,64,264,1808,-6,66,-1
11555,40,296,1872,-8,66,-3
11560,40,272,1848,-8,66,-2
11565,56,280,1816,-7,66,-4
11570,40,288,1832,-6,65,-2
11575,56,288,1824,-5,66,-3
11580,56,280,1784,-5,65,0
11585,32,320,1824,-5,65,-4
11590,48,288,1800,-5,66,-1
11595,40,296,1832,-5,65,-3
11600,32,288,1832,-6,66,0
11605,40,296,1840,-3,66,-2
11610,48,296,1864,-4,66,-1
11615,56,280,1824,-4,66,-2
11620,48,304,1832,-4,67,0
11625,24,288,1840,-4,67,-2
11630,40,288,1816,-5,66,-1
11635,40,296,1816,-5,65,-3
11640,32,280,1816,-6,67,0
11645,40,280,1824,-6,67,-2
11650,48,296,1792,-6,68,0
11655,40,288,1832,-7,69,-2
11660,24,280,1832,-6,68,0
11665,48,296,1832,-5,66,-2
11670,32,288,1832,-6,67,1
11675,24,288,1816,-4,67,-2
11680,48,280,1816,-3,67,1
11685,48,288,1824,-7,68,-2
11690,40,280,1816,-7,67,0
11695,24,320,1800,-5,67,-2
11700,24,288,1816,-6,69,0
11705,40,272,1808,-4,67,-1
11710,40,296,1856,-4,68,0
11715,24,304,1824,-3,68,-3
11720,16,288,1816,-4,65,0
11725,32,264,1824,-6,67,-2
11730,40,296,1832,-5,67,-1
11735,40,288,1816,-5,68,-3
11740,24,312,1832,-6,67,-2
11745,48,288,1800,-6,68,-4
11750,24,312,1816,-20,59,2
11755,32,304,1824,-24,48,-3
11760,40,296,1824,-17,51,-4
11765,56,304,1840,-6,59,-4
11770,24,296,1824,-2,64,-2
11775,24,264,1792,-3,66,-5
11780,40,296,1848,-4,65,-2
11785,32,312,1848,-7,64,-4
11790,24,296,1856,-9,67,-3
11795,48,304,1824,-6,66,-2
11800,48,304,1808,-7,67,-1
11805,40,288,1824,-6,67,-4
11810,56,272,1824,-6,66,0
11815,32,320,1824,-6,67,-3
11820,8,296,1824,-8,68,-1
11825,64,304,1824,-9,67,-2
11830,40,296,1800,-8,65,-1
11835,24,320,1824,-7,67,-4
11840,40,296,1840,-6,67,-2
11845,40,296,1840,-7,67,-2
11850,32,288,1792,-6,67,-1
11855,40,296,1840,-12,62,-5
11860,8,288,1832,-7,65,-2
11865,32,288,1824,-6,67,-3
11870,80,280,1848,-5,66,-2
11875,-8,224,1776,-8,67,-3
11880,-8,336,1768,-12,64,-1
11885,56,256,1864,-20,56,-1
11890,-32,224,1856,-22,53,-2
11895,128,296,1936,-23,53,-3
11900,-48,312,1840,-21,54,-1
11905,72,296,1816,-19,54,-3
11910,-32,288,1824,-14,57,0
11915,16,256,1712,-8,60,-1
11920,32,272,1784,-3,62,1
11925,24,312,1928,2,63,0
11930,88,272,1800,5,67,2
11935,56,312,1864,6,67,1
11940,48,248,1688,8,67,2
11945,48,280,1824,7,72,0
11950,16,304,1800,6,74,1
11955,40,296,1840,4,73,-1
11960,48,288,1840,1,69,0
11965,48,312,1808,0,68,-2
11970,32,288,1816,-3,66,-2
11975,72,288,1792,-7,65,-3
11980,48,296,1840,-16,55,-1
11985,32,288,1832,-21,52,-2
11990,32,304,1832,-16,51,-4
11995,32,296,1840,-8,60,-5
12000,56,296,1808,-4,63,-3
12005,24,296,1816,-1,62,-5
12010,32,288,1816,-1,61,-3
12015,48,280,1832,-1,64,-6
12020,32,312,1832,1,63,-3
12025,32,288,1832,2,61,-5
12030,40,288,1816,4,62,-5
12035,32,304,1808,4,63,-6
12040,8,304,1808,3,66,-3
12045,16,312,1824,0,68,-7
12050,16,304,1832,0,67,-2
12055,24,304,1800,-1,65,-3
12060,16,288,1808,1,65,-2
12065,32,296,1848,-1,67,-4
12070,8,288,1808,0,67,-2
12075,16,288,1832,0,64,-2
12080,16,296,1816,1,64,-2
12085,32,280,1832,-1,63,-3
12090,8,280,1816,1,62,0
12095,40,288,1824,1,60,-3
12100,32,328,1776,2,59,-1
12105,32,312,1824,2,60,-2
12110,24,296,1824,1,62,-1
12115,24,312,1824,1,62,-3
12120,48,304,1808,0,64,-1
12125,24,312,1800,0,63,-2
12130,16,312,1816,-4,64,-1
12135,48,288,1816,-5,61,-4
12140,56,296,1808,-3,64,-1
12145,64,280,1832,-1,64,-4
12150,16,296,1832,-1,67,-3
12155,32,288,1832,1,65,-3
12160,56,296,1848,2,63,-1
12165,40,320,1816,1,65,-3
12170,40,304,1816,1,68,-1
12175,16,320,1824,3,73,-4
12180,24,296,1824,2,71,0
12185,32,280,1832,1,69,-3
12190,32,312,1824,-1,64,-1
12195,32,312,1792,-5,60,-4
12200,40,304,1824,-12,56,-3
12205,40,280,1808,-16,60,-8
12210,16,272,1816,-16,60,-1
12215,32,288,1856,-11,56,-2
12220,-8,304,1808,-8,55,-4
12225,24,296,1824,-6,56,-3
12230,24,296,1808,-6,57,-2
12235,24,304,1816,-9,58,-3
12240,32,288,1840,-12,60,-1
12245,16,312,1824,-9,59,-3
12250,48,304,1832,-8,58,-2
12255,24,280,1832,-10,60,-4
12260,32,288,1816,-8,63,-1
12265,32,304,1840,-8,64,-4
12270,16,296,1864,-8,61,-3
12275,16,304,1848,-5,57,-5
12280,40,304,1816,-4,56,-2
12285,32,304,1816,-6,58,-5
12290,24,304,1800,-6,62,-4
12295,32,296,1832,-3,63,-7
12300,40,320,1832,-2,64,-2
12305,24,296,1856,-4,65,-4
12310,16,328,1816,-7,67,-2
12315,24,320,1856,-9,63,-2
12320,48,280,1816,-10,61,0
12325,32,296,1848,-12,62,-2
12330,16,312,1816,-10,63,-1
12335,40,304,1824,-10,61,-4
12340,40,296,1808,-9,60,0
12345,32,312,1848,-9,61,-2
12350,40,304,1808,-11,61,-1
12355,40,296,1824,-12,61,-3
12360,16,288,1832,-12,60,0
12365,32,304,1840,-9,59,-2
12370,32,320,1800,-8,59,1
12375,8,304,1832,-8,61,-3
12380,40,304,1808,-8,60,-1
12385,32,304,1848,-8,61,-4
12390,16,304,1840,-8,59,-1
12395,24,304,1816,-8,58,-2
12400,24,304,1816,-7,58,-1
12405,24,296,1888,-7,58,-4
12410,48,312,1808,-6,59,-2
12415,24,288,1824,-8,59,-3
12420,48,296,1800,-10,59,0
12425,32,296,1832,-10,58,-3
12430,16,312,1800,-11,58,1
12435,32,304,1832,-7,49,-2
12440,40,312,1832,-4,46,0
12445,48,296,1848,-4,52,-1
12450,16,328,1824,-5,56,1
12455,32,280,1808,-5,53,0
12460,32,296,1840,-7,50,3
12465,32,312,1800,-9,53,-2
12470,40,304,1848,-11,54,1
12475,32,304,1808,-16,51,0
12480,40,304,1824,-13,54,1
12485,24,320,1840,-11,56,-1
12490,32,312,1840,-9,57,-1
12495,40,312,1808,-8,56,-2
12500,56,296,1816,-9,56,-1
12505,64,320,1816,-10,57,-2
12510,24,312,1856,-10,58,0
12515,40,296,1816,-10,57,-2
12520,32,288,1840,-10,58,-1
12525,24,312,1824,-10,59,-1
12530,24,320,1840,-11,58,1
12535,16,288,1800,-12,59,-1
12540,32,312,1784,-14,59,0
12545,32,288,1824,-14,58,-1
12550,48,288,1816,-12,57,2
12555,40,304,1808,-13,57,-1
12560,32,328,1832,-15,58,-1
12565,40,296,1816,-16,57,-2
12570,40,312,1840,-18,58,1
12575,40,320,1816,-20,57,-3
12580,24,312,1832,-20,57,-1
12585,8,296,1832,-22,57,-2
12590,32,296,1816,-22,58,0
12595,24,320,1840,-24,58,-3
12600,32,296,1824,-25,56,-1
12605,40,296,1832,-25,57,-3
12610,16,312,1856,-26,57,-1
12615,24,296,1824,-25,56,-4
12620,24,296,1848,-26,56,0
12625,24,312,1816,-26,56,-2
12630,24,296,1848,-26,55,0
12635,16,304,1816,-26,54,-2
12640,16,320,1824,-26,54,-2
12645,24,304,1816,-27,55,-3
12650,48,288,1816,-26,54,-1
12655,32,304,1824,-27,56,-2
12660,40,312,1832,-26,55,0
12665,32,320,1840,-27,53,-2
12670,56,280,1848,-27,52,-1
12675,24,296,1840,-26,53,-3
12680,40,304,1840,-26,53,0
12685,8,304,1832,-25,53,-3
12690,24,304,1824,-25,51,0
12695,16,304,1832,-26,52,-2
12700,32,296,1832,-28,54,0
12705,24,296,1832,-27,52,-2
12710,40,304,1800,-27,52,-1
12715,32,296,1848,-28,52,-3
12720,24,296,1824,-27,52,0
12725,32,312,1816,-27,52,-2
12730,16,320,1832,-28,52,0
12735,8,312,1864,-27,52,-2
12740,40,312,1808,-25,53,0
12745,16,280,1736,-27,53,-2
12750,72,336,1816,-28,53,1
12755,32,280,1848,-29,62,0
12760,16,288,1816,-27,62,2
12765,40,280,1864,-25,53,-1
12770,32,312,1824,-33,45,1
12775,56,280,1848,-31,48,-1
12780,32,272,1824,-27,51,0
12785,40,272,1824,-25,48,-2
12790,24,296,1832,-25,48,-1
12795,24,312,1832,-28,46,-4
12800,40,288,1824,-31,45,-3
12805,16,312,1808,-35,44,-5
12810,40,280,1824,-35,40,-2
12815,32,264,1816,-34,41,-4
12820,56,280,1816,-29,42,-2
12825,16,280,1792,-26,54,-1
12830,40,264,1816,-18,59,0
12835,56,280,1808,-12,54,0
12840,40,288,1776,-10,55,-1
12845,40,280,1832,-8,55,-2
12850,48,280,1824,-6,54,-1
12855,40,280,1832,-7,53,-2
12860,8,336,1816,-9,52,0
12865,48,296,1808,-13,50,-2
12870,32,312,1832,-17,49,-1
12875,40,304,1808,-21,49,-3
12880,32,304,1832,-24,50,1
12885,56,312,1824,-25,50,-4
12890,40,312,1824,-25,49,-1
12895,40,280,1848,-24,49,-3
12900,48,288,1816,-22,50,-1
12905,48,288,1848,-21,51,-3
12910,32,288,1816,-22,50,0
12915,32,280,1864,-20,51,-4
12920,40,304,1824,-20,51,-2
12925,40,288,1840,-20,51,-3
12930,24,280,1808,-19,51,0
12935,48,280,1816,-19,49,-3
12940,40,296,1848,-20,50,-1
12945,48,288,1808,-20,51,-3
12950,32,304,1832,-20,50,-2
12955,48,296,1800,-20,50,-3
12960,24,288,1808,-20,51,0
12965,24,312,1840,-20,51,-3
12970,64,248,1808,-20,55,2
12975,-8,296,1840,-18,62,-3
12980,8,280,1808,-17,57,0
12985,32,288,1800,-18,49,-3
12990,40,296,1800,-18,49,0
12995,40,304,1816,-19,50,-3
13000,40,272,1832,-19,48,0
13005,32,288,1832,-20,48,-3
13010,32,312,1816,-19,49,-2
13015,16,320,1816,-19,48,-3
13020,40,296,1824,-20,50,-2
13025,32,296,1816,-21,50,-3
13030,56,280,1800,-20,49,-1
13035,40,296,1832,-21,49,-3
13040,64,288,1824,-22,51,-1
13045,32,288,1824,-22,51,-3
13050,32,304,1824,-22,50,-1
13055,32,296,1800,-22,50,-1
13060,56,296,1832,-21,63,1
13065,24,320,1808,-19,57,-3
13070,32,304,1816,-19,49,0
13075,40,296,1824,-19,51,-3
13080,48,288,1840,-18,53,-1
13085,48,296,1840,-19,51,-4
13090,32,304,1832,-19,52,0
13095,56,280,1824,-21,48,-4
13100,48,296,1808,-22,49,-1
13105,56,272,1832,-24,49,-5
13110,40,280,1816,-24,48,-1
13115,40,280,1816,-23,49,-4
13120,64,272,1824,-23,48,-1
13125,48,280,1824,-23,48,-4
13130,32,272,1816,-22,49,-1
13135,48,296,1808,-20,49,-3
13140,40,288,1840,-20,47,-2
13145,56,288,1848,-21,47,-3
13150,40,304,1840,-22,48,-2
13155,16,296,1840,-24,47,-5
13160,16,288,1832,-26,46,-2
13165,16,304,1864,-28,47,-4
13170,40,272,1824,-28,48,-1
13175,32,304,1816,-29,49,-3
13180,16,312,1816,-28,50,-1
13185,48,288,1840,-28,53,-2
13190,32,280,1840,-28,67,-1
13195,16,320,1816,-30,58,-3
13200,56,272,1800,-30,51,-1
13205,40,296,1832,-30,52,-3
13210,40,272,1816,-30,48,0
13215,64,272,1792,-30,46,-3
13220,40,296,1816,-30,46,0
13225,16,312,1832,-29,46,-3
13230,32,304,1840,-30,45,0
13235,56,264,1840,-29,45,-3
13240,24,296,1840,-29,44,-1
13245,32,304,1824,-30,43,-2
13250,40,296,1816,-30,43,1
13255,48,280,1816,-31,42,-2
13260,40,304,1848,-32,41,0
13265,56,296,1840,-32,41,-3
13270,64,272,1808,-31,42,0
13275,48,280,1824,-31,43,-2
13280,32,272,1824,-30,52,-1
13285,56,296,1824,-30,51,-3
13290,32,264,1816,-30,44,1
13295,48,280,1808,-32,43,-2
13300,72,264,1792,-32,44,-2
13305,56,280,1832,-32,47,-2
13310,48,272,1824,-31,47,0
13315,48,272,1856,-29,44,-2
13320,64,288,1816,-27,43,-1
13325,24,272,1824,-26,41,-3
13330,56,280,1800,-26,42,-1
13335,40,272,1840,-25,43,-4
13340,56,280,1816,-24,42,-1
13345,32,280,1824,-23,42,-3
13350,56,280,1824,-22,42,-1
13355,64,296,1840,-22,43,-3
13360,40,304,1808,-21,43,0
13365,56,288,1824,-23,44,-3
13370,48,304,1832,-23,45,0
13375,56,280,1824,-24,45,-2
13380,48,304,1864,-30,42,-1
13385,48,280,1880,-29,51,-2
13390,24,296,1816,-24,52,-1
13395,64,264,1824,-23,45,-3
13400,80,272,1832,-24,44,-1
13405,56,272,1808,-26,43,-3
13410,48,288,1840,-26,43,-1
13415,56,272,1832,-28,44,-4
13420,56,256,1816,-27,45,-1
13425,56,280,1816,-26,46,-1
13430,32,264,1808,-23,50,-1
13435,56,264,1824,-20,49,-4
13440,40,272,1808,-20,45,-1
13445,32,256,1824,-21,45,-3
13450,72,264,1792,-21,44,-1
13455,32,272,1816,-22,43,-4
13460,40,288,1816,-22,43,-2
13465,72,272,1808,-24,43,-4
13470,32,272,1824,-22,42,-2
13475,56,272,1840,-22,42,-5
13480,48,280,1824,-23,44,-2
13485,72,272,1840,-23,44,-5
13490,48,280,1840,-23,44,-3
13495,56,264,1816,-26,44,-5
13500,48,272,1808,-25,43,-4
13505,32,280,1824,-24,42,-4
13510,40,272,1848,-26,43,-1
13515,32,272,1824,-32,41,-4
13520,72,240,1824,-33,40,-1
13525,56,288,1832,-31,42,-3
13530,40,256,1808,-31,48,0
13535,56,280,1840,-28,46,-4
13540,48,304,1832,-30,42,0
13545,80,280,1848,-31,41,-3
13550,64,280,1824,-32,41,0
13555,48,272,1864,-34,40,-3
13560,56,264,1832,-33,40,1
13565,72,256,1808,-33,40,-1
13570,64,272,1832,-32,41,2
13575,88,264,1832,-30,40,0
13580,48,272,1824,-30,41,1
13585,56,304,1816,-30,41,-3
13590,64,280,1824,-32,43,1
13595,32,280,1832,-31,51,-2
13600,72,280,1816,-32,48,1
13605,48,272,1848,-32,44,-2
13610,40,272,1840,-35,41,-1
13615,64,280,1832,-38,39,-4
13620,56,256,1856,-36,41,0
13625,64,272,1832,-32,41,-2
13630,72,256,1840,-32,40,0
13635,56,280,1856,-31,40,-2
13640,56,264,1856,-31,39,0
13645,40,240,1840,-31,36,-2
13650,56,288,1840,-32,37,0
13655,64,264,1848,-34,36,-3
13660,56,264,1824,-39,34,-1
13665,32,280,1832,-43,34,-1
13670,56,256,1848,-44,32,0
13675,56,288,1864,-44,33,-3
13680,56,240,1832,-43,34,-2
13685,72,248,1816,-34,36,-1
13690,48,288,1792,-28,37,1
13695,56,280,1824,-23,40,-1
13700,64,272,1824,-20,42,1
13705,48,288,1840,-18,43,-1
13710,64,264,1816,-17,45,0
13715,56,280,1864,-16,45,-1
13720,64,272,1808,-19,46,1
13725,64,280,1824,-19,46,-2
13730,72,272,1856,-21,47,-1
13735,56,272,1840,-23,47,-2
13740,64,288,1856,-25,48,0
13745,80,256,1808,-28,47,-3
13750,104,264,1832,-28,47,0
13755,72,256,1840,-26,47,-2
13760,64,280,1808,-25,47,1
13765,64,288,1792,-21,49,-2
13770,56,272,1840,-19,50,0
13775,80,272,1832,-18,52,-3
13780,56,256,1832,-17,53,0
13785,88,264,1824,-14,55,-3
13790,64,240,1840,-12,56,0
13795,72,264,1816,-8,55,-2
13800,72,272,1832,-6,57,-1
13805,80,264,1800,-4,57,-4
13810,64,240,1840,-3,60,0
13815,72,256,1808,0,61,-3
13820,64,272,1784,0,60,-2
13825,64,272,1832,1,61,-4
13830,72,272,1816,1,61,0
13835,48,256,1792,0,62,-3
13840,80,248,1800,1,61,0
13845,64,248,1840,1,62,-3
13850,80,256,1816,-2,63,-1
13855,88,248,1776,-1,63,-3
13860,56,256,1832,0,63,-1
13865,80,264,1832,-2,63,-3
13870,72,264,1800,1,63,0
13875,64,280,1792,1,65,-3
13880,48,256,1832,2,67,0
13885,48,288,1824,3,66,-2
13890,48,272,1816,1,66,0
13895,64,272,1816,1,68,-3
13900,80,272,1800,2,70,-1
13905,64,256,1832,4,71,-2
13910,72,264,1832,6,72,0
13915,48,288,1808,7,72,-2
13920,72,264,1792,7,71,0
13925,64,280,1816,4,71,-2
13930,64,256,1808,3,71,1
13935,64,248,1832,1,72,-1
13940,56,248,1832,1,70,1
13945,72,264,1832,-1,72,-3
13950,64,280,1816,-2,72,0
13955,64,256,1832,-2,73,-3
13960,64,280,1808,-1,72,0
13965,72,264,1832,0,73,-2
13970,72,264,1832,1,71,0
13975,64,256,1840,2,72,-3
13980,56,256,1800,1,73,0
13985,64,272,1808,0,75,-2
13990,56,272,1816,-1,74,0
13995,40,272,1808,1,74,-1
14000,40,264,1824,1,77,1
14005,64,272,1832,2,76,-2
14010,64,280,1840,2,77,0
14015,56,288,1824,2,77,-2
14020,40,280,1816,2,77,0
14025,64,272,1856,2,77,-2
14030,32,272,1824,3,78,0
14035,64,280,1832,3,79,-3
14040,40,272,1824,1,78,0
14045,40,296,1824,3,78,-2
14050,56,280,1840,3,78,1
14055,72,256,1808,6,79,-2
14060,56,296,1808,6,80,0
14065,48,272,1824,8,79,-2
14070,48,288,1792,8,79,0
14075,88,256,1816,9,79,-3
14080,64,280,1816,10,79,0
14085,64,280,1840,8,81,-2
14090,48,264,1816,8,80,0
14095,56,296,1824,7,80,-2
14100,48,288,1832,9,81,1
14105,56,264,1824,8,82,-2
14110,32,304,1824,8,81,2
14115,56,272,1832,9,81,-2
14120,56,288,1824,9,81,1
14125,48,272,1840,9,82,-3
14130,56,272,1824,8,82,0
14135,64,256,1856,7,82,-3
14140,56,272,1792,6,82,0
14145,24,288,1848,6,81,-3
14150,56,280,1840,6,81,0
14155,64,264,1840,5,80,-3
14160,40,280,1840,4,80,1
14165,48,288,1848,4,78,-2
14170,32,312,1832,2,78,0
14175,56,288,1824,1,76,-2
14180,48,288,1840,-6,73,0
14185,40,272,1800,-10,68,1
14190,56,256,1816,-6,69,0
14195,72,280,1856,-4,68,-4
14200,48,288,1840,-1,69,-1
14205,48,288,1856,-1,69,-4
14210,48,264,1824,0,71,-1
14215,40,264,1808,0,71,-3
14220,40,272,1880,-1,71,-1
14225,56,296,1808,-2,72,-3
14230,40,288,1824,-2,71,-1
14235,72,288,1832,-3,71,-4
14240,56,272,1824,-3,70,0
14245,32,296,1840,-2,69,-2
14250,32,288,1808,-2,69,0
14255,88,272,1848,-1,70,-3
14260,48,296,1816,-1,71,1
14265,48,280,1816,-2,69,-2
14270,40,264,1848,-3,69,0
14275,56,288,1824,-3,69,-2
14280,40,280,1816,-4,69,0
14285,40,280,1824,-2,69,-3
14290,48,280,1848,-1,69,-1
14295,48,272,1840,-2,68,-4
14300,56,280,1816,1,69,-2
14305,32,288,1832,4,69,-4
14310,64,280,1816,3,69,-1
14315,48,288,1840,4,70,-3
14320,40,296,1832,4,70,0
14325,48,272,1824,3,70,-2
14330,64,296,1824,4,70,-1
14335,16,280,1824,5,70,-4
14340,24,312,1848,5,71,-2
14345,48,296,1824,6,69,-5
14350,40,296,1816,5,68,-2
14355,56,272,1816,4,68,-5
14360,8,312,1832,4,67,-2
14365,40,296,1816,4,67,-3
14370,40,280,1816,4,66,-1
14375,24,280,1840,1,64,-5
14380,32,296,1872,0,64,-3
14385,40,296,1840,-3,63,-4
14390,16,296,1856,-7,62,-1
14395,40,280,1832,-9,61,-4
14400,24,288,1808,-9,62,-1
14405,32,288,1824,-7,62,-2
14410,40,272,1792,-4,64,0
14415,72,272,1832,1,65,-2
14420,64,288,1808,6,67,-1
14425,72,272,1808,10,73,-3
14430,56,304,1824,13,74,-2
14435,24,312,1824,13,73,-4
14440,40,312,1800,12,71,-3
14445,40,328,1840,12,72,-4
14450,40,304,1848,9,71,-2
14455,64,296,1840,4,70,-5
14460,56,304,1808,2,70,-1
14465,48,288,1848,-1,68,-3
14470,16,304,1840,-3,65,-2
14475,24,312,1824,-3,64,-4
14480,64,288,1824,-4,67,-3
14485,56,296,1832,-5,66,-3
14490,24,280,1840,-5,67,1
14495,16,312,1808,-4,65,-3
14500,48,312,1816,-3,65,-2
14505,24,320,1816,-5,66,-4
14510,32,280,1840,-4,67,0
14515,24,280,1832,-3,66,-4
14520,32,288,1816,-2,64,-1
14525,32,296,1824,-1,65,-3
14530,40,288,1808,2,66,-2
14535,24,280,1832,3,66,-4
14540,88,304,1888,3,67,-2
14545,56,296,1808,3,67,-3
14550,48,264,1832,1,65,-2
14555,32,288,1832,1,64,-4
14560,24,304,1800,2,62,0
14565,40,280,1824,2,61,-3
14570,40,288,1840,2,62,-2
14575,56,288,1832,4,61,-3
14580,32,320,1824,3,63,-1
14585,48,296,1824,2,63,-3
14590,24,288,1848,1,62,0
14595,40,288,1808,2,61,-3
14600,32,288,1824,2,61,0
14605,32,304,1840,1,63,-3
14610,32,296,1816,3,64,-1
14615,48,304,1808,1,66,-3
14620,32,288,1824,1,66,-1
14625,32,296,1800,1,65,-4
14630,16,288,1824,-1,64,-1
14635,56,304,1824,-3,64,-3
14640,32,288,1816,-2,64,-2
14645,48,320,1832,-3,62,-2
14650,16,312,1832,-3,62,0
14655,64,296,1816,-1,63,-2
14660,32,296,1800,-1,62,-2
14665,24,312,1800,-1,63,-4
14670,24,280,1816,-4,62,-1
14675,32,304,1840,-8,60,-4
14680,32,304,1864,-8,58,-2
14685,24,296,1824,-10,59,-4
14690,40,304,1792,-12,58,-1
14695,24,304,1824,-11,59,-3
14700,24,280,1864,-10,59,-2
14705,40,296,1808,-8,60,-4
14710,8,304,1776,-8,59,-2
14715,8,296,1832,-7,60,-3
14720,40,296,1840,-7,61,-1
14725,8,280,1840,-7,61,-4
14730,40,312,1808,-6,61,-2
14735,40,272,1832,-7,62,-3
14740,48,280,1824,-9,65,1
14745,24,280,1824,-9,65,-2
14750,24,272,1856,-8,61,0
14755,40,288,1800,-6,62,-3
14760,32,304,1800,-7,63,0
14765,40,296,1808,-7,64,-4
14770,40,280,1816,-6,63,0
14775,32,304,1816,-7,62,-4
14780,32,272,1792,-7,63,0
14785,32,296,1824,-6,63,-4
14790,40,280,1816,-6,63,-1
14795,40,296,1824,-6,65,-2
14800,24,304,1848,-3,65,1
14805,48,272,1800,-2,62,-2
14810,32,296,1824,-2,64,-2
14815,24,304,1832,-1,65,-2
14820,16,304,1816,-3,59,0
14825,24,312,1816,-5,60,-4
14830,8,312,1824,-4,61,0
14835,40,304,1848,-7,61,-2
14840,48,296,1832,-5,59,-1
14845,56,288,1824,-6,60,-3
14850,48,296,1792,-6,60,-1
14855,32,288,1808,-6,61,-3
14860,32,320,1840,-8,63,-2
14865,40,304,1824,-8,64,-3
14870,40,296,1824,-7,61,1
14875,32,296,1824,-8,61,-4
14880,32,304,1824,-8,62,-1
14885,32,288,1816,-7,58,-3
14890,40,296,1832,-9,60,-1
14895,24,304,1840,-8,62,-3
14900,32,304,1824,-10,61,0
14905,32,320,1816,-9,61,-2
14910,40,312,1824,-10,64,0
14915,40,304,1824,-10,63,-2
14920,32,296,1824,-8,63,0
14925,48,288,1800,-8,62,-3
14930,24,304,1816,-7,62,1
14935,24,288,1816,-5,61,-1
14940,32,304,1840,-7,61,0
14945,32,312,1840,-8,62,-2
14950,16,320,1840,-9,62,-1
14955,48,288,1848,-9,61,-3
14960,48,280,1848,-8,60,0
14965,0,328,1808,-8,61,-2
14970,48,288,1792,-9,61,1
14975,40,312,1816,-10,60,-1
14980,32,280,1816,-9,61,0
14985,16,304,1800,-9,62,-2
14990,24,272,1840,-9,62,0
14995,16,288,1832,-8,59,-2
