timestamp,accel_x,accel_y,accel_z,gyro_x,gyro_y,gyro_z
0,200,-1576,1160,52,17,-8
5,232,-1576,1160,52,18,-7
10,232,-1584,1192,53,17,-6
15,216,-1584,1152,55,16,-8
20,200,-1576,1176,57,16,-5
25,224,-1568,1160,58,15,-6
30,216,-1568,1176,61,14,-5
35,224,-1592,1152,61,15,-5
40,224,-1576,1176,63,16,-6
45,216,-1592,1160,63,14,-5
50,232,-1576,1160,63,14,-5
55,216,-1560,1192,62,14,-3
60,216,-1568,1176,59,13,-4
65,200,-1576,1192,59,14,-6
70,200,-1584,1208,56,13,-4
75,200,-1584,1152,57,11,-5
80,216,-1584,1184,56,10,-5
85,240,-1576,1176,55,11,-5
90,224,-1600,1152,55,10,-6
95,216,-1544,1160,54,10,-6
100,192,-1544,1184,54,12,-6
105,208,-1560,1184,53,12,-7
110,208,-1560,1176,53,12,-7
115,184,-1560,1168,51,12,-8
120,232,-1560,1176,49,11,-8
125,208,-1568,1168,49,12,-9
130,208,-1576,1168,46,14,-9
135,232,-1592,1208,43,14,-6
140,224,-1568,1184,40,13,-8
145,208,-1592,1208,40,13,-6
150,248,-1600,1152,42,12,-7
155,224,-1584,1184,47,11,-7
160,216,-1576,1160,52,9,-6
165,224,-1592,1160,56,10,-8
170,208,-1576,1152,59,10,-8
175,216,-1592,1152,61,12,-6
180,232,-1576,1128,65,13,-6
185,200,-1568,1144,66,15,-6
190,184,-1576,1176,68,16,-5
195,216,-1568,1168,69,18,-4
200,200,-1576,1152,68,19,-3
205,200,-1552,1208,67,17,-3
210,192,-1552,1192,66,18,-4
215,184,-1576,1176,67,16,-3
220,216,-1576,1176,66,16,-2
225,200,-1552,1192,63,16,-3
230,208,-1544,1152,62,16,-3
235,216,-1568,1152,60,19,-4
240,216,-1560,1176,57,21,-6
245,224,-1584,1176,57,24,-5
250,200,-1552,1152,57,24,-6
255,208,-1568,1176,58,25,-7
260,216,-1616,1160,58,22,-8
265,216,-1560,1184,57,23,-11
270,200,-1560,1168,57,23,-9
275,200,-1568,1208,55,22,-11
280,216,-1560,1192,52,22,-12
285,192,-1568,1184,51,22,-12
290,208,-1576,1200,50,19,-11
295,208,-1568,1200,47,19,-11
300,216,-1584,1192,48,17,-8
305,192,-1568,1168,49,17,-9
310,232,-1560,1184,50,16,-8
315,208,-1552,1160,49,18,-8
320,200,-1568,1168,48,19,-8
325,192,-1568,1152,49,19,-7
330,224,-1592,1152,49,19,-7
335,208,-1560,1216,51,20,-7
340,216,-1584,1176,52,22,-7
345,208,-1568,1176,51,22,-7
350,200,-1568,1144,53,24,-6
355,224,-1560,1168,53,22,-5
360,200,-1552,1152,55,22,-5
365,216,-1592,1176,54,22,-2
370,216,-1592,1192,54,22,-2
375,208,-1568,1176,55,21,-2
380,208,-1568,1160,55,21,-4
385,208,-1568,1176,54,20,-3
390,176,-1584,1160,54,19,-1
395,184,-1576,1192,54,18,-2
400,192,-1600,1184,53,17,-1
405,192,-1584,1168,54,17,-1
410,192,-1560,1168,55,18,-1
415,200,-1584,1160,56,16,1
420,224,-1568,1160,58,18,2
425,232,-1560,1144,58,18,0
430,208,-1584,1160,57,19,0
435,224,-1584,1176,58,19,0
440,216,-1584,1160,59,18,1
445,224,-1576,1184,60,19,1
450,224,-1584,1176,62,20,2
455,224,-1576,1208,60,18,1
460,184,-1584,1176,62,16,0
465,208,-1560,1168,61,12,-2
470,200,-1584,1176,62,10,-3
475,208,-1584,1192,63,9,-4
480,184,-1552,1216,61,8,-5
485,200,-1560,1200,57,8,-4
490,184,-1560,1208,54,5,-5
495,192,-1560,1192,51,3,-5
500,192,-1536,1200,45,2,-6
505,184,-1568,1160,40,2,-3
510,192,-1536,1176,40,5,0
515,216,-1576,1152,41,10,-2
520,248,-1560,1168,39,13,-7
525,216,-1584,1160,31,14,-15
530,192,-1592,1192,28,13,-19
535,200,-1600,1176,27,14,-21
540,208,-1600,1176,32,18,-22
545,184,-1592,1192,39,20,-19
550,184,-1576,1200,45,23,-16
555,176,-1552,1184,51,24,-16
560,184,-1568,1216,53,21,-16
565,216,-1568,1144,53,19,-17
570,208,-1576,1216,52,17,-17
575,224,-1560,1200,51,12,-17
580,200,-1576,1192,49,8,-17
585,208,-1528,1176,49,6,-15
590,216,-1568,1184,48,5,-13
595,216,-1552,1160,47,6,-11
600,216,-1552,1152,42,4,-12
605,216,-1552,1208,36,2,-14
610,200,-1584,1168,29,-1,-15
615,192,-1552,1192,25,-2,-18
620,208,-1584,1208,23,-4,-20
625,208,-1584,1192,26,-2,-20
630,208,-1592,1208,29,-1,-21
635,224,-1600,1208,36,0,-19
640,232,-1592,1168,42,3,-17
645,192,-1576,1168,45,5,-18
650,232,-1608,1208,50,7,-17
655,192,-1568,1160,52,8,-18
660,192,-1608,1192,55,10,-15
665,176,-1592,1192,56,10,-15
670,200,-1560,1192,56,10,-14
675,200,-1552,1152,55,9,-16
680,176,-1560,1144,52,8,-16
685,208,-1568,1176,48,6,-15
690,208,-1584,1176,41,3,-15
695,224,-1576,1184,37,1,-18
700,192,-1568,1184,32,-3,-18
705,200,-1584,1192,29,-4,-18
710,208,-1568,1192,30,-4,-18
715,224,-1584,1176,31,-3,-19
720,216,-1592,1160,34,-2,-16
725,208,-1592,1152,37,0,-17
730,216,-1576,1176,41,0,-15
735,224,-1568,1160,45,3,-15
740,216,-1568,1144,47,5,-14
745,216,-1592,1144,49,6,-13
750,240,-1592,1168,48,6,-13
755,224,-1576,1176,45,6,-12
760,232,-1576,1152,40,4,-13
765,224,-1584,1192,37,0,-14
770,200,-1592,1176,33,-4,-14
775,232,-1616,1168,30,-6,-16
780,208,-1584,1160,29,-8,-17
785,224,-1584,1160,30,-10,-17
790,200,-1600,1176,33,-11,-15
795,208,-1592,1136,37,-12,-16
800,200,-1584,1120,41,-9,-14
805,208,-1608,1128,45,-5,-12
810,216,-1600,1168,48,0,-12
815,208,-1616,1160,54,5,-10
820,248,-1616,1168,57,7,-11
825,232,-1584,1152,60,9,-9
830,240,-1608,1168,64,11,-9
835,200,-1552,1176,66,12,-7
840,216,-1568,1176,68,13,-9
845,216,-1544,1192,67,12,-9
850,208,-1560,1184,67,11,-11
855,216,-1552,1168,65,11,-13
860,200,-1560,1168,62,11,-12
865,224,-1560,1184,60,12,-12
870,208,-1552,1176,57,13,-12
875,240,-1560,1152,54,14,-11
880,208,-1560,1160,52,12,-14
885,208,-1576,1200,52,13,-12
890,232,-1584,1152,51,12,-11
895,216,-1560,1184,52,10,-12
900,224,-1560,1144,52,8,-12
905,232,-1584,1152,54,5,-11
910,192,-1552,1192,52,5,-11
915,200,-1560,1176,51,5,-13
920,216,-1592,1168,52,3,-14
925,216,-1568,1184,50,3,-14
930,208,-1560,1208,50,4,-12
935,224,-1568,1168,50,4,-12
940,224,-1592,1176,51,7,-11
945,320,-1592,1216,51,8,-13
950,208,-1568,1184,52,8,-12
955,208,-1584,1208,54,9,-10
960,192,-1576,1176,55,9,-9
965,216,-1576,1200,57,9,-8
970,208,-1592,1176,60,10,-8
975,200,-1560,1136,62,10,-8
980,208,-1576,1160,65,11,-5
985,216,-1576,1160,67,11,-5
990,208,-1600,1184,68,14,-6
995,200,-1544,1152,68,16,-5
1000,200,-1568,1144,67,16,-7
1005,192,-1568,1160,66,17,-6
1010,200,-1584,1160,64,18,-8
1015,200,-1600,1160,63,19,-9
1020,216,-1592,1144,64,19,-8
1025,200,-1576,1144,66,19,-9
1030,200,-1584,1160,67,18,-7
1035,232,-1592,1160,70,19,-7
1040,184,-1592,1152,70,18,-8
1045,224,-1560,1152,71,18,-8
1050,200,-1600,1168,72,18,-8
1055,192,-1592,1160,74,17,-8
1060,192,-1576,1168,75,17,-9
1065,192,-1568,1176,74,15,-8
1070,176,-1568,1168,75,14,-6
1075,192,-1576,1168,74,14,-7
1080,216,-1584,1160,74,16,-6
1085,216,-1584,1176,74,17,-8
1090,224,-1568,1160,73,18,-9
1095,200,-1592,1184,75,19,-8
1100,216,-1568,1176,73,21,-8
1105,184,-1560,1200,74,23,-8
1110,200,-1576,1176,73,21,-6
1115,200,-1568,1152,72,21,-7
1120,224,-1552,1168,73,21,-8
1125,232,-1576,1176,68,20,-7
1130,200,-1560,1200,66,19,-8
1135,216,-1552,1176,63,19,-9
1140,184,-1544,1152,62,18,-10
1145,208,-1544,1200,61,15,-12
1150,200,-1560,1176,61,14,-11
1155,224,-1568,1184,58,13,-11
1160,208,-1552,1176,57,10,-12
1165,224,-1552,1176,56,11,-11
1170,208,-1552,1200,54,10,-12
1175,216,-1568,1176,54,11,-12
1180,224,-1544,1192,54,11,-12
1185,232,-1552,1176,54,10,-11
1190,208,-1544,1160,51,11,-11
1195,232,-1560,1168,50,11,-10
1200,232,-1560,1176,51,11,-10
1205,240,-1568,1176,49,12,-10
1210,232,-1592,1168,49,12,-11
1215,224,-1576,1192,49,13,-9
1220,208,-1584,1160,50,14,-6
1225,224,-1576,1184,52,12,-5
1230,232,-1584,1168,53,12,-3
1235,232,-1576,1176,53,12,-4
1240,240,-1576,1160,55,10,-6
1245,208,-1568,1176,56,11,-5
1250,216,-1568,1168,57,11,-5
1255,208,-1584,1168,58,11,-5
1260,232,-1592,1184,59,11,-4
1265,224,-1600,1216,61,11,-6
1270,192,-1576,1192,61,13,-5
1275,216,-1576,1184,62,14,-7
1280,240,-1568,1200,62,16,-6
1285,216,-1592,1168,61,18,-6
1290,232,-1576,1168,60,20,-5
1295,232,-1552,1160,60,22,-5
1300,184,-1552,1160,61,23,-4
1305,200,-1560,1160,59,22,-4
1310,200,-1560,1176,60,23,-5
1315,192,-1568,1192,60,20,-7
1320,200,-1576,1176,59,22,-8
1325,176,-1480,1160,60,21,-7
1330,208,-1560,1168,61,22,-9
1335,184,-1544,1176,59,21,-11
1340,200,-1584,1192,56,18,-13
1345,184,-1568,1192,54,17,-15
1350,216,-1576,1176,50,15,-12
1355,208,-1576,1168,49,13,-13
1360,216,-1568,1168,50,14,-15
1365,184,-1536,1176,51,15,-13
1370,200,-1576,1168,52,15,-13
1375,216,-1544,1160,55,17,-13
1380,200,-1528,1192,57,18,-13
1385,208,-1544,1184,58,18,-12
1390,224,-1536,1208,59,20,-11
1395,224,-1536,1184,56,22,-13
1400,192,-1552,1224,53,23,-12
1405,232,-1560,1200,48,22,-11
1410,208,-1568,1208,43,21,-12
1415,192,-1624,1200,41,20,-12
1420,192,-1616,1184,37,18,-14
1425,192,-1624,1152,35,15,-14
1430,232,-1632,1192,35,13,-14
1435,208,-1624,1192,41,13,-16
1440,208,-1616,1160,49,12,-17
1445,216,-1600,1192,58,12,-15
1450,224,-1592,1168,67,14,-13
1455,208,-1568,1128,71,16,-10
1460,192,-1544,1152,74,19,-8
1465,200,-1552,1192,73,20,-5
1470,208,-1536,1184,70,21,-4
1475,200,-1536,1168,66,20,-4
1480,184,-1544,1184,62,20,-6
1485,200,-1576,1192,58,18,-7
1490,240,-1504,1208,54,16,-8
1495,224,-1592,1216,52,15,-12
1500,208,-1576,1208,50,13,-14
1505,192,-1600,1200,47,13,-16
1510,208,-1568,1208,48,14,-16
1515,200,-1584,1176,46,16,-16
1520,200,-1568,1168,47,18,-16
1525,216,-1576,1168,48,20,-15
1530,200,-1592,1168,49,22,-15
1535,224,-1560,1200,49,22,-14
1540,200,-1560,1192,48,21,-12
1545,208,-1544,1200,48,19,-13
1550,216,-1568,1184,47,18,-12
1555,216,-1576,1208,48,16,-11
1560,216,-1584,1192,47,12,-11
1565,192,-1560,1184,47,10,-12
1570,240,-1600,1184,47,9,-11
1575,200,-1576,1160,49,10,-12
1580,232,-1584,1184,49,9,-11
1585,240,-1584,1168,50,9,-13
1590,224,-1560,1160,51,8,-13
1595,200,-1552,1176,53,9,-12
1600,240,-1600,1160,55,9,-13
1605,216,-1584,1176,55,10,-11
1610,240,-1560,1168,56,11,-11
1615,216,-1560,1192,56,11,-10
1620,216,-1552,1160,52,12,-8
1625,216,-1552,1168,51,12,-7
1630,224,-1584,1192,49,11,-6
1635,208,-1568,1184,50,11,-5
1640,232,-1584,1200,50,13,-5
1645,232,-1568,1192,50,14,-5
1650,224,-1552,1184,50,14,-7
1655,200,-1576,1192,49,13,-7
1660,208,-1576,1192,48,13,-6
1665,208,-1584,1216,49,13,-6
1670,192,-1592,1192,49,13,-7
1675,224,-1576,1184,50,15,-9
1680,208,-1568,1192,49,14,-8
1685,208,-1584,1184,49,13,-8
1690,184,-1576,1152,48,13,-10
1695,192,-1584,1168,46,12,-10
1700,200,-1576,1176,44,12,-11
1705,232,-1568,1160,45,12,-8
1710,184,-1584,1160,46,12,-9
1715,208,-1600,1168,43,13,-10
1720,216,-1584,1176,42,12,-12
1725,200,-1568,1200,43,11,-13
1730,208,-1576,1208,46,13,-12
1735,184,-1576,1176,48,13,-12
1740,192,-1576,1232,51,12,-13
1745,216,-1600,1192,52,14,-15
1750,192,-1568,1192,53,16,-15
1755,208,-1576,1144,51,17,-17
1760,176,-1576,1152,50,18,-16
1765,216,-1584,1176,53,18,-16
1770,176,-1560,1160,53,18,-14
1775,208,-1568,1152,54,18,-11
1780,208,-1552,1184,52,18,-10
1785,216,-1576,1160,52,17,-10
1790,216,-1576,1160,52,16,-11
1795,200,-1584,1136,52,16,-11
1800,200,-1568,1208,54,14,-12
1805,192,-1576,1152,56,12,-13
1810,216,-1568,1192,57,9,-12
1815,200,-1584,1208,58,9,-11
1820,184,-1560,1160,56,9,-12
1825,192,-1576,1200,51,7,-13
1830,208,-1560,1168,49,6,-13
1835,224,-1560,1184,44,4,-14
1840,200,-1536,1192,40,3,-13
1845,216,-1560,1184,36,5,-14
1850,192,-1552,1176,33,5,-14
1855,248,-1592,1184,33,6,-15
1860,216,-1560,1192,34,8,-16
1865,216,-1576,1160,36,7,-15
1870,232,-1560,1168,38,7,-14
1875,216,-1592,1184,41,7,-16
1880,200,-1568,1216,46,5,-15
1885,208,-1576,1160,49,2,-13
1890,192,-1568,1168,52,0,-15
1895,192,-1576,1168,52,-3,-15
1900,184,-1544,1176,53,-5,-16
1905,184,-1560,1200,52,-8,-17
1910,192,-1568,1168,48,-10,-20
1915,208,-1568,1184,45,-10,-22
1920,192,-1576,1200,44,-10,-23
1925,192,-1568,1176,41,-9,-26
1930,200,-1592,1168,41,-8,-26
1935,208,-1592,1192,40,-7,-25
1940,168,-1576,1192,42,-5,-26
1945,200,-1616,1184,44,-4,-27
1950,200,-1616,1192,46,-2,-27
1955,176,-1616,1192,48,1,-26
1960,200,-1616,1184,52,1,-26
1965,184,-1576,1192,55,4,-26
1970,192,-1576,1176,55,5,-27
1975,176,-1592,1184,56,5,-27
1980,184,-1568,1168,56,8,-23
1985,184,-1568,1176,59,8,-22
1990,200,-1592,1176,60,8,-22
1995,184,-1576,1168,62,8,-22
2000,184,-1568,1160,60,8,-21
2005,200,-1560,1192,59,7,-22
2010,216,-1584,1184,57,5,-23
2015,184,-1576,1152,55,4,-23
2020,216,-1592,1144,53,3,-24
2025,224,-1592,1168,52,4,-24
2030,224,-1584,1200,54,4,-25
2035,208,-1600,1224,55,2,-25
2040,216,-1576,1160,57,4,-24
2045,224,-1560,1176,57,2,-26
2050,232,-1600,1168,55,2,-26
2055,232,-1560,1168,52,3,-25
2060,200,-1544,1136,50,3,-27
2065,200,-1544,1200,44,3,-26
2070,232,-1576,1184,37,1,-29
2075,224,-1576,1208,32,-3,-30
2080,216,-1552,1176,29,-3,-29
2085,280,-1568,1136,29,-5,-29
2090,240,-1592,1176,31,-5,-27
2095,240,-1584,1128,35,-2,-25
2100,240,-1576,1176,41,1,-26
2105,240,-1576,1128,46,2,-24
2110,240,-1560,1160,50,4,-22
2115,248,-1552,1168,52,6,-22
2120,240,-1544,1208,52,6,-22
2125,240,-1544,1200,51,8,-22
2130,256,-1560,1192,48,7,-19
2135,240,-1560,1200,42,8,-16
2140,240,-1584,1216,37,5,-17
2145,280,-1576,1224,35,-1,-19
2150,240,-1600,1224,33,-4,-18
2155,248,-1576,1208,32,-7,-18
2160,224,-1592,1184,32,-10,-19
2165,240,-1568,1192,37,-12,-19
2170,232,-1568,1168,39,-14,-17
2175,256,-1568,1144,42,-15,-15
2180,256,-1568,1152,43,-12,-16
2185,240,-1576,1096,43,-7,-14
2190,224,-1544,1112,45,-2,-13
2195,240,-1544,1184,46,3,-12
2200,240,-1576,1168,45,5,-10
2205,232,-1568,1176,44,5,-10
2210,224,-1576,1160,45,6,-10
2215,232,-1576,1176,44,7,-11
2220,224,-1552,1200,43,7,-11
2225,232,-1576,1200,41,8,-12
2230,232,-1592,1160,42,8,-8
2235,232,-1600,1192,42,9,-9
2240,216,-1552,1120,41,9,-10
2245,248,-1584,1144,42,9,-9
2250,280,-1592,1216,43,11,-11
2255,208,-1584,1168,43,13,-12
2260,208,-1600,1168,45,15,-12
2265,208,-1576,1184,46,16,-10
2270,216,-1584,1152,46,17,-11
2275,208,-1576,1144,48,17,-7
2280,200,-1568,1160,49,17,-8
2285,208,-1568,1160,50,16,-8
2290,216,-1600,1184,50,15,-5
2295,232,-1576,1176,51,15,-4
2300,240,-1576,1144,49,16,-2
2305,224,-1560,1208,49,16,-2
2310,200,-1552,1160,47,17,-3
2315,232,-1584,1168,44,16,-2
2320,232,-1592,1168,42,16,-3
2325,216,-1576,1176,42,15,-3
2330,264,-1600,1160,42,16,0
2335,232,-1584,1176,42,18,1
2340,256,-1584,1160,43,19,1
2345,224,-1576,1112,44,21,1
2350,232,-1560,1152,46,23,1
2355,232,-1568,1152,49,24,2
2360,216,-1568,1176,49,24,2
2365,232,-1600,1152,48,24,1
2370,232,-1584,1184,49,24,0
2375,232,-1568,1176,49,24,1
2380,232,-1560,1144,48,26,1
2385,224,-1576,1168,46,28,2
2390,248,-1576,1176,44,27,2
2395,224,-1576,1200,44,29,3
2400,216,-1568,1168,42,27,2
2405,184,-1560,1152,42,25,4
2410,216,-1584,1168,42,26,5
2415,208,-1584,1240,43,27,4
2420,232,-1600,1184,44,27,2
2425,224,-1600,1144,45,25,2
2430,208,-1592,1152,46,24,1
2435,216,-1600,1160,48,25,3
2440,208,-1608,1160,51,26,1
2445,224,-1592,1168,53,27,2
2450,224,-1584,1152,54,26,1
2455,216,-1584,1176,54,24,0
2460,200,-1576,1168,55,22,1
2465,160,-1560,1168,54,21,1
2470,176,-1584,1160,54,18,-2
2475,216,-1560,1136,53,19,0
2480,208,-1576,1184,51,19,-1
2485,224,-1560,1168,51,17,-3
2490,216,-1584,1144,51,14,-3
2495,184,-1544,1192,51,15,-3
2500,192,-1592,1136,52,13,-4
2505,208,-1584,1168,53,13,-5
2510,200,-1576,1160,53,11,-6
2515,184,-1584,1168,53,11,-6
2520,176,-1584,1160,53,10,-5
2525,224,-1584,1144,54,9,-8
2530,184,-1592,1176,54,9,-10
2535,192,-1576,1168,54,8,-11
2540,176,-1568,1168,52,6,-12
2545,176,-1576,1160,53,5,-12
2550,160,-1544,1144,54,4,-12
2555,168,-1560,1136,53,5,-10
2560,184,-1576,1160,52,7,-11
2565,176,-1568,1176,51,9,-14
2570,208,-1576,1200,52,9,-12
2575,216,-1608,1152,51,8,-11
2580,152,-1592,1144,51,9,-10
2585,216,-1616,1136,52,12,-9
2590,192,-1584,1176,51,13,-8
2595,224,-1600,1192,52,12,-10
2600,200,-1584,1136,52,13,-11
2605,192,-1592,1160,52,13,-11
2610,224,-1600,1176,51,14,-12
2615,192,-1592,1176,52,14,-13
2620,184,-1592,1176,53,15,-14
2625,200,-1600,1168,54,17,-15
2630,216,-1568,1200,55,19,-16
2635,200,-1592,1160,52,18,-16
2640,216,-1568,1168,52,18,-19
2645,224,-1568,1192,50,17,-18
2650,216,-1568,1192,48,17,-19
2655,256,-1600,1200,48,15,-17
2660,240,-1568,1176,47,14,-18
2665,208,-1576,1200,46,14,-17
2670,224,-1592,1168,45,15,-18
2675,216,-1576,1176,45,16,-17
2680,232,-1576,1176,45,16,-16
2685,232,-1576,1176,47,16,-16
2690,216,-1576,1192,48,17,-16
2695,248,-1600,1168,49,16,-15
2700,216,-1584,1176,49,18,-16
2705,248,-1560,1160,49,19,-14
2710,256,-1592,1160,50,18,-15
2715,256,-1552,1184,51,17,-15
2720,264,-1560,1136,50,18,-11
2725,256,-1552,1160,49,19,-12
2730,248,-1568,1184,51,21,-12
2735,256,-1552,1160,51,22,-10
2740,264,-1552,1160,50,23,-10
2745,240,-1560,1184,50,23,-11
2750,232,-1576,1160,49,25,-9
2755,224,-1568,1144,48,25,-8
2760,248,-1608,1144,47,26,-5
2765,248,-1560,1120,48,27,-4
2770,240,-1576,1144,46,25,-4
2775,248,-1592,1152,47,25,-3
2780,248,-1552,1136,48,23,-2
2785,248,-1576,1184,51,22,-2
2790,240,-1584,1152,56,23,-1
2795,240,-1584,1120,59,24,1
2800,224,-1568,1128,61,24,1
2805,216,-1560,1128,65,24,1
2810,240,-1584,1168,65,23,0
2815,240,-1568,1152,62,22,0
2820,208,-1552,1160,62,22,-1
2825,216,-1592,1168,59,20,-2
2830,208,-1560,1168,55,21,-3
2835,224,-1544,1168,49,20,-4
2840,216,-1544,1200,46,21,-3
2845,216,-1576,1184,42,21,-2
2850,224,-1576,1176,39,22,-5
2855,232,-1600,1160,35,21,-6
2860,232,-1608,1200,35,20,-6
2865,224,-1600,1200,35,19,-5
2870,232,-1616,1184,36,20,-4
2875,216,-1600,1136,40,21,-1
2880,216,-1616,1168,42,23,-1
2885,224,-1592,1168,47,23,-2
2890,240,-1568,1168,51,24,-2
2895,216,-1568,1152,55,25,-2
2900,216,-1568,1176,59,25,0
2905,208,-1560,1112,58,24,2
2910,232,-1568,1176,56,26,2
2915,192,-1544,1168,52,26,0
2920,224,-1568,1160,49,27,2
2925,224,-1584,1192,43,26,1
2930,200,-1568,1168,39,26,1
2935,192,-1584,1184,33,25,0
2940,216,-1600,1192,32,24,0
2945,184,-1608,1184,31,23,1
2950,184,-1600,1160,35,21,0
2955,216,-1600,1160,41,19,0
2960,192,-1600,1152,46,19,2
2965,192,-1600,1160,48,19,2
2970,176,-1592,1152,48,19,4
2975,208,-1568,1176,48,21,6
2980,184,-1600,1144,50,25,7
2985,200,-1592,1168,50,25,7
2990,184,-1568,1208,50,26,6
2995,184,-1592,1176,52,27,7
3000,208,-1608,1184,54,27,4
3005,192,-1584,1192,56,26,2
3010,200,-1584,1200,57,24,0
3015,184,-1592,1160,59,24,0
3020,168,-1576,1160,58,22,-3
3025,192,-1576,1160,56,20,-2
3030,184,-1560,1160,54,19,-3
3035,200,-1576,1184,52,18,-6
3040,168,-1568,1144,50,19,-6
3045,216,-1576,1168,50,18,-7
3050,176,-1584,1192,49,17,-7
3055,184,-1592,1168,50,16,-7
3060,168,-1552,1176,50,17,-9
3065,184,-1560,1192,50,13,-8
3070,192,-1576,1168,50,12,-10
3075,168,-1568,1160,50,10,-10
3080,192,-1560,1160,49,10,-11
3085,208,-1576,1168,48,9,-8
3090,192,-1584,1144,49,9,-9
3095,216,-1584,1176,50,7,-8
3100,208,-1584,1128,51,9,-7
3105,192,-1568,1192,53,9,-6
3110,160,-1560,1160,54,10,-5
3115,192,-1576,1176,55,8,-5
3120,192,-1592,1176,56,8,-6
3125,200,-1576,1144,55,7,-7
3130,192,-1584,1160,57,8,-8
3135,184,-1600,1160,57,5,-10
3140,200,-1584,1160,59,5,-9
3145,208,-1608,1144,59,6,-9
3150,192,-1600,1136,60,5,-8
3155,208,-1568,1160,59,7,-10
3160,224,-1592,1160,59,7,-11
3165,184,-1600,1184,60,8,-10
3170,184,-1576,1128,58,9,-11
3175,192,-1600,1264,57,9,-12
3180,216,-1576,1176,57,11,-12
3185,184,-1600,1168,58,10,-13
3190,208,-1576,1168,57,11,-13
3195,176,-1560,1208,57,11,-12
3200,216,-1608,1160,58,10,-13
3205,208,-1568,1160,58,9,-14
3210,200,-1592,1192,57,9,-14
3215,200,-1600,1144,56,8,-15
3220,176,-1568,1192,55,8,-13
3225,192,-1584,1160,55,8,-14
3230,168,-1560,1168,55,6,-15
3235,192,-1576,1208,54,5,-16
3240,208,-1584,1200,55,5,-16
3245,192,-1568,1176,52,5,-18
3250,184,-1568,1184,52,6,-20
3255,192,-1552,1176,50,7,-19
3260,208,-1584,1192,50,7,-19
3265,208,-1576,1176,51,7,-20
3270,184,-1568,1192,51,8,-21
3275,192,-1568,1160,52,9,-21
3280,176,-1544,1160,52,9,-20
3285,208,-1576,1168,54,8,-22
3290,208,-1560,1176,55,8,-22
3295,200,-1576,1192,55,9,-21
3300,200,-1576,1192,54,9,-22
3305,184,-1576,1184,52,8,-21
3310,216,-1568,1184,50,6,-22
3315,216,-1568,1176,49,6,-21
3320,208,-1568,1152,47,6,-20
3325,232,-1568,1168,45,5,-19
3330,216,-1552,1184,46,5,-17
3335,224,-1592,1208,46,5,-17
3340,224,-1624,1160,49,4,-17
3345,216,-1608,1176,49,4,-18
3350,216,-1592,1168,50,5,-17
3355,224,-1584,1144,53,4,-19
3360,224,-1560,1136,54,4,-18
3365,232,-1576,1160,55,4,-16
3370,224,-1576,1168,55,3,-16
3375,224,-1568,1168,55,3,-16
3380,216,-1584,1168,56,2,-18
3385,216,-1584,1192,56,1,-17
3390,208,-1576,1168,54,2,-17
3395,192,-1568,1176,54,2,-16
3400,216,-1560,1160,53,2,-17
3405,184,-1568,1136,51,0,-16
3410,208,-1560,1160,49,-1,-18
3415,200,-1584,1192,50,-1,-18
3420,208,-1592,1192,49,0,-18
3425,216,-1592,1168,49,1,-18
3430,208,-1576,1184,48,0,-16
3435,216,-1568,1192,49,1,-16
3440,208,-1576,1144,49,2,-17
3445,208,-1576,1184,47,0,-17
3450,240,-1576,1168,48,-1,-18
3455,224,-1568,1200,47,0,-19
3460,224,-1608,1152,47,0,-20
3465,224,-1592,1176,46,-1,-20
3470,208,-1568,1160,46,1,-20
3475,216,-1576,1168,46,2,-19
3480,208,-1568,1184,47,3,-19
3485,216,-1584,1152,49,1,-19
3490,208,-1576,1168,50,-1,-19
3495,192,-1576,1160,50,0,-19
3500,216,-1592,1176,51,0,-18
3505,192,-1584,1168,50,0,-17
3510,224,-1608,1184,51,2,-18
3515,232,-1576,1176,51,2,-17
3520,208,-1560,1176,50,1,-16
3525,232,-1552,1176,51,3,-15
3530,216,-1560,1184,51,3,-14
3535,216,-1576,1184,50,3,-14
3540,216,-1584,1192,48,2,-14
3545,296,-1608,1088,47,2,-15
3550,192,-1560,1200,47,3,-15
3555,232,-1576,1160,47,4,-14
3560,208,-1592,1168,46,5,-16
3565,216,-1576,1176,45,6,-16
3570,248,-1592,1168,46,6,-15
3575,216,-1592,1168,45,8,-16
3580,208,-1552,1168,45,8,-16
3585,240,-1576,1152,43,7,-14
3590,232,-1560,1136,45,6,-15
3595,232,-1552,1152,45,6,-14
3600,232,-1584,1160,47,6,-12
3605,208,-1560,1184,48,5,-12
3610,232,-1560,1176,50,5,-13
3615,224,-1600,1144,52,7,-12
3620,232,-1576,1176,54,5,-12
3625,224,-1576,1120,57,8,-12
3630,248,-1584,1160,57,9,-11
3635,248,-1592,1136,59,9,-10
3640,224,-1560,1128,59,8,-10
3645,216,-1576,1136,60,9,-8
3650,208,-1552,1168,61,8,-9
3655,232,-1560,1168,62,7,-7
3660,224,-1576,1112,62,9,-6
3665,208,-1560,1168,62,10,-7
3670,216,-1568,1160,63,10,-6
3675,192,-1576,1200,61,9,-7
3680,216,-1592,1152,59,9,-9
3685,200,-1584,1176,56,9,-9
3690,224,-1592,1160,54,9,-8
3695,216,-1608,1144,53,10,-7
3700,232,-1592,1184,55,10,-8
3705,224,-1584,1168,57,9,-5
3710,224,-1576,1160,58,10,-4
3715,248,-1600,1136,60,11,-5
3720,224,-1608,1160,61,11,-3
3725,216,-1592,1160,64,13,-2
3730,216,-1568,1152,66,15,-2
3735,208,-1584,1192,65,16,-5
3740,232,-1560,1176,63,15,-4
3745,208,-1568,1184,60,13,-3
3750,200,-1584,1200,56,12,-3
3755,184,-1560,1168,53,11,-4
3760,216,-1592,1152,51,11,-3
3765,184,-1568,1192,50,11,-7
3770,208,-1608,1200,48,10,-8
3775,208,-1632,1208,50,10,-7
3780,184,-1632,1192,53,10,-7
3785,208,-1608,1152,61,6,-9
3790,200,-1600,1152,68,6,-8
3795,192,-1568,1128,72,6,-7
3800,224,-1600,1136,74,7,-6
3805,216,-1568,1112,74,9,-5
3810,232,-1576,1144,75,12,-4
3815,200,-1576,1136,73,16,-3
3820,224,-1576,1160,73,17,-3
3825,200,-1560,1184,72,19,-4
3830,216,-1576,1176,73,20,-6
3835,200,-1592,1208,74,22,-6
3840,200,-1560,1192,74,21,-5
3845,192,-1576,1192,75,22,-9
3850,192,-1576,1176,75,22,-9
3855,208,-1560,1168,73,21,-8
3860,200,-1536,1176,71,21,-9
3865,200,-1536,1192,67,20,-10
3870,216,-1560,1176,66,19,-10
3875,224,-1560,1152,62,20,-9
3880,208,-1568,1160,60,19,-9
3885,216,-1592,1160,61,17,-9
3890,224,-1584,1176,61,18,-9
3895,208,-1576,1176,63,16,-9
3900,216,-1576,1152,63,16,-9
3905,208,-1576,1192,64,16,-10
3910,216,-1592,1160,63,18,-12
3915,224,-1584,1168,63,17,-9
3920,216,-1576,1176,62,17,-9
3925,232,-1560,1160,62,16,-8
3930,200,-1584,1160,61,15,-8
3935,216,-1576,1168,61,15,-7
3940,232,-1592,1176,61,14,-10
3945,240,-1568,1184,61,14,-9
3950,224,-1576,1168,60,15,-11
3955,216,-1592,1176,59,13,-11
3960,240,-1608,1184,60,14,-12
3965,224,-1584,1168,60,14,-12
3970,248,-1592,1152,60,13,-12
3975,224,-1600,1168,58,13,-13
3980,200,-1568,1176,57,12,-12
3985,224,-1584,1200,58,13,-13
3990,216,-1560,1160,56,12,-13
3995,224,-1568,1144,55,12,-14
4000,232,-1584,1168,52,12,-15
4005,224,-1576,1152,51,9,-13
4010,208,-1568,1160,50,8,-16
4015,216,-1584,1192,50,7,-18
4020,224,-1600,1168,50,6,-19
4025,208,-1608,1168,51,5,-20
4030,184,-1592,1192,51,5,-20
4035,176,-1584,1160,51,4,-21
4040,208,-1616,1160,50,5,-19
4045,216,-1576,1144,52,5,-20
4050,200,-1560,1160,53,5,-20
4055,208,-1584,1200,53,6,-18
4060,192,-1592,1160,54,7,-18
4065,216,-1584,1184,55,6,-18
4070,216,-1552,1168,54,6,-17
4075,208,-1560,1168,53,8,-18
4080,208,-1560,1168,53,8,-17
4085,208,-1536,1168,52,6,-17
4090,200,-1560,1192,51,8,-17
4095,224,-1592,1200,50,7,-15
4100,208,-1560,1152,50,6,-17
4105,224,-1560,1200,51,6,-18
4110,224,-1584,1176,51,6,-17
4115,200,-1576,1176,51,6,-16
4120,208,-1592,1192,52,5,-17
4125,208,-1560,1192,51,3,-16
4130,208,-1584,1184,52,4,-16
4135,224,-1560,1160,54,2,-15
4140,200,-1536,1176,53,3,-16
4145,224,-1592,1192,57,2,-15
4150,208,-1560,1176,57,2,-14
4155,240,-1576,1176,57,2,-14
4160,224,-1576,1192,57,4,-12
4165,216,-1584,1144,56,4,-11
4170,240,-1552,1168,57,6,-12
4175,216,-1528,1160,56,7,-11
4180,240,-1544,1144,56,7,-12
4185,240,-1560,1152,54,8,-11
4190,208,-1560,1168,54,9,-11
4195,232,-1584,1160,53,10,-11
4200,232,-1552,1184,53,8,-13
4205,216,-1576,1176,52,8,-11
4210,208,-1568,1192,52,9,-12
4215,208,-1568,1168,51,8,-11
4220,216,-1560,1176,52,8,-10
4225,216,-1568,1192,53,7,-11
4230,216,-1568,1184,53,5,-11
4235,224,-1584,1176,52,4,-11
4240,224,-1584,1208,54,3,-12
4245,216,-1560,1168,55,0,-15
4250,216,-1584,1168,55,1,-15
4255,248,-1568,1168,51,2,-15
4260,248,-1592,1152,50,3,-15
4265,224,-1608,1152,50,3,-17
4270,200,-1576,1160,49,4,-16
4275,192,-1560,1136,50,5,-16
4280,208,-1592,1144,51,6,-18
4285,200,-1568,1152,49,6,-17
4290,184,-1568,1168,48,7,-18
4295,232,-1576,1144,49,9,-19
4300,216,-1600,1144,48,10,-18
4305,224,-1600,1176,48,10,-17
4310,216,-1568,1200,48,12,-17
4315,224,-1600,1160,48,12,-16
4320,224,-1576,1168,49,10,-17
4325,232,-1616,1152,50,9,-16
4330,216,-1584,1152,50,8,-15
4335,216,-1576,1184,48,8,-14
4340,208,-1568,1168,47,9,-15
4345,208,-1576,1160,47,8,-15
4350,232,-1584,1200,49,8,-14
4355,200,-1568,1168,50,8,-15
4360,208,-1568,1168,49,9,-13
4365,232,-1560,1120,49,8,-15
4370,240,-1600,1160,49,9,-14
4375,240,-1568,1176,51,9,-13
4380,224,-1584,1160,51,9,-13
4385,240,-1568,1192,52,8,-15
4390,216,-1600,1168,54,8,-15
4395,240,-1592,1160,54,8,-15
4400,248,-1584,1160,54,9,-16
4405,208,-1592,1168,54,8,-16
4410,224,-1560,1176,52,8,-15
4415,224,-1584,1168,52,10,-16
4420,232,-1560,1176,52,9,-16
4425,208,-1568,1144,51,8,-14
4430,216,-1592,1200,50,8,-13
4435,224,-1568,1192,50,8,-16
4440,224,-1576,1168,50,7,-14
4445,232,-1584,1176,49,7,-12
4450,232,-1592,1152,49,7,-13
4455,240,-1568,1184,51,7,-13
4460,224,-1568,1168,52,7,-14
4465,224,-1584,1200,53,9,-14
4470,264,-1592,1176,53,8,-14
4475,232,-1560,1176,55,8,-14
4480,216,-1568,1152,56,8,-15
4485,232,-1576,1176,55,8,-15
4490,216,-1576,1176,53,7,-16
4495,224,-1568,1200,52,6,-15
4500,232,-1568,1176,50,5,-18
4505,216,-1584,1208,49,4,-17
4510,240,-1568,1160,48,7,-17
4515,224,-1560,1200,48,6,-17
4520,216,-1576,1152,50,6,-15
4525,248,-1584,1120,50,5,-14
4530,248,-1584,1184,50,7,-15
4535,224,-1568,1168,51,8,-14
4540,248,-1576,1176,53,10,-13
4545,224,-1552,1192,54,9,-12
4550,264,-1584,1192,55,10,-13
4555,240,-1568,1176,54,10,-12
4560,216,-1560,1128,52,9,-13
4565,232,-1600,1168,48,9,-11
4570,224,-1560,1176,45,8,-12
4575,240,-1592,1200,44,9,-13
4580,256,-1624,1192,43,8,-14
4585,208,-1592,1192,43,7,-14
4590,232,-1600,1176,45,7,-11
4595,216,-1600,1160,49,6,-12
4600,208,-1592,1160,54,4,-11
4605,208,-1576,1160,61,4,-11
4610,216,-1584,1136,66,5,-9
4615,232,-1560,1152,68,6,-8
4620,232,-1560,1128,69,9,-8
4625,232,-1560,1176,67,11,-6
4630,224,-1568,1120,67,12,-7
4635,224,-1568,1152,66,15,-7
4640,200,-1584,1176,64,17,-8
4645,192,-1576,1192,63,19,-9
4650,216,-1584,1216,63,19,-9
4655,224,-1552,1200,62,19,-12
4660,208,-1544,1232,60,18,-13
4665,240,-1560,1192,56,17,-13
4670,232,-1552,1208,55,15,-14
4675,224,-1560,1168,52,15,-12
4680,224,-1576,1168,51,16,-12
4685,240,-1584,1200,49,15,-10
4690,232,-1568,1200,51,15,-9
4695,224,-1552,1128,51,15,-9
4700,232,-1552,1192,52,15,-9
4705,232,-1568,1176,54,14,-7
4710,224,-1568,1168,54,14,-7
4715,224,-1568,1208,54,15,-8
4720,224,-1592,1152,53,15,-7
4725,248,-1576,1168,52,16,-8
4730,240,-1560,1152,53,15,-8
4735,256,-1552,1160,52,14,-8
4740,232,-1552,1152,53,13,-10
4745,232,-1552,1160,50,12,-9
4750,208,-1560,1136,49,13,-10
4755,224,-1552,1160,49,13,-10
4760,232,-1560,1160,49,14,-10
4765,216,-1584,1160,50,16,-10
4770,216,-1568,1168,50,15,-9
4775,216,-1592,1184,48,15,-9
4780,248,-1568,1160,48,16,-7
4785,232,-1576,1192,48,16,-6
4790,224,-1576,1168,50,16,-6
4795,208,-1592,1176,50,16,-5
4800,232,-1592,1184,50,16,-4
4805,224,-1576,1184,51,16,-5
4810,232,-1584,1184,50,17,-6
4815,256,-1616,1168,50,15,-8
4820,224,-1576,1176,50,14,-6
4825,208,-1584,1144,50,15,-8
4830,192,-1552,1152,51,15,-7
4835,224,-1576,1200,50,14,-9
4840,200,-1576,1168,50,12,-7
4845,208,-1568,1152,48,13,-8
4850,216,-1568,1168,47,13,-7
4855,216,-1576,1168,47,12,-6
4860,216,-1600,1184,46,13,-6
4865,232,-1584,1152,46,12,-5
4870,216,-1584,1168,46,12,-5
4875,224,-1584,1168,47,13,-5
4880,208,-1576,1160,49,13,-5
4885,232,-1592,1152,51,15,-6
4890,224,-1592,1176,51,17,-8
4895,248,-1592,1184,51,17,-7
4900,216,-1584,1200,51,18,-8
4905,208,-1584,1160,51,18,-9
4910,256,-1560,1168,50,18,-10
4915,208,-1552,1184,48,16,-10
4920,264,-1592,1152,47,17,-8
4925,240,-1576,1176,46,18,-10
4930,232,-1584,1168,45,18,-11
4935,216,-1568,1176,45,17,-9
4940,216,-1552,1184,47,20,-10
4945,208,-1560,1184,47,18,-11
4950,216,-1576,1168,46,16,-9
4955,216,-1592,1184,49,16,-8
4960,240,-1576,1176,49,16,-8
4965,248,-1576,1192,49,17,-9
4970,216,-1544,1176,48,19,-9
4975,200,-1576,1200,49,20,-10
4980,240,-1584,1184,49,20,-11
4985,224,-1592,1160,47,18,-11
4990,216,-1592,1176,46,16,-12
4995,224,-1576,1168,44,16,-13
5000,224,-1576,1160,44,17,-14
5005,232,-1584,1176,44,16,-14
5010,216,-1568,1152,43,15,-12
5015,224,-1576,1200,42,14,-11
5020,232,-1576,1152,43,14,-12
5025,208,-1568,1168,42,15,-12
5030,200,-1552,1144,42,16,-11
5035,232,-1592,1176,42,15,-10
5040,224,-1576,1152,45,15,-9
5045,240,-1568,1176,45,15,-11
5050,232,-1592,1160,45,14,-11
5055,240,-1592,1192,44,13,-10
5060,224,-1568,1160,44,13,-11
5065,208,-1576,1144,43,13,-11
5070,224,-1576,1192,46,13,-11
5075,232,-1600,1160,45,12,-10
5080,184,-1568,1168,44,11,-11
5085,240,-1584,1160,43,11,-12
5090,208,-1576,1160,43,13,-13
5095,232,-1584,1160,42,14,-11
5100,224,-1576,1176,43,14,-12
5105,216,-1584,1168,43,12,-13
5110,200,-1576,1184,41,12,-13
5115,224,-1576,1160,43,11,-13
5120,216,-1568,1192,44,11,-12
5125,232,-1592,1184,45,10,-12
5130,240,-1576,1160,42,9,-11
5135,224,-1568,1176,43,8,-8
5140,232,-1576,1184,42,9,-9
5145,232,-1568,1184,44,10,-10
5150,200,-1600,1168,42,11,-10
5155,232,-1592,1176,43,12,-10
5160,216,-1584,1144,41,14,-10
5165,248,-1584,1184,43,15,-11
5170,208,-1584,1200,43,15,-11
5175,216,-1568,1184,42,15,-11
5180,208,-1568,1200,44,14,-10
5185,184,-1544,1152,44,14,-10
5190,208,-1568,1168,42,14,-11
5195,216,-1560,1152,41,12,-10
5200,200,-1552,1168,40,11,-9
5205,208,-1568,1168,38,10,-12
5210,184,-1568,1184,39,9,-12
5215,200,-1584,1160,38,8,-11
5220,208,-1568,1168,38,9,-11
5225,216,-1584,1144,40,8,-13
5230,232,-1592,1184,38,8,-12
5235,216,-1584,1160,38,6,-11
5240,232,-1600,1168,38,6,-13
5245,224,-1600,1192,39,4,-12
5250,240,-1584,1176,40,5,-12
5255,256,-1592,1160,40,6,-11
5260,240,-1592,1200,41,8,-11
5265,216,-1584,1160,43,9,-10
5270,208,-1576,1192,43,9,-9
5275,224,-1600,1184,43,11,-10
5280,232,-1592,1152,44,13,-11
5285,224,-1592,1168,45,14,-9
5290,216,-1584,1136,46,15,-9
5295,224,-1576,1136,45,13,-11
5300,216,-1592,1136,45,13,-12
5305,216,-1584,1184,44,11,-12
5310,208,-1584,1144,42,11,-15
5315,200,-1584,1176,38,11,-15
5320,216,-1576,1176,38,10,-17
5325,224,-1568,1168,38,10,-16
5330,232,-1568,1152,38,8,-14
5335,248,-1592,1176,39,7,-14
5340,248,-1608,1136,41,6,-11
5345,216,-1568,1136,43,7,-10
5350,216,-1560,1152,47,9,-8
5355,240,-1544,1144,48,11,-10
5360,240,-1552,1160,49,11,-10
5365,248,-1576,1176,48,9,-8
5370,224,-1576,1144,45,9,-9
5375,216,-1584,1168,44,8,-10
5380,240,-1616,1152,41,8,-9
5385,200,-1600,1168,38,10,-12
5390,208,-1576,1184,39,10,-11
5395,240,-1616,1192,38,13,-13
5400,240,-1584,1216,38,13,-13
5405,208,-1608,1184,37,19,-8
5410,232,-1624,1152,42,14,-10
5415,240,-1576,1136,49,8,-10
5420,200,-1576,1152,52,6,-7
5425,216,-1568,1144,53,6,-5
5430,216,-1576,1136,54,7,-6
5435,232,-1560,1168,53,10,-5
5440,216,-1568,1144,53,13,-7
5445,232,-1576,1192,53,14,-8
5450,224,-1544,1160,52,14,-8
5455,200,-1568,1208,53,15,-7
5460,216,-1584,1168,54,16,-9
5465,224,-1568,1168,55,16,-10
5470,240,-1576,1208,54,15,-10
5475,216,-1560,1216,54,16,-10
5480,200,-1576,1184,54,16,-11
5485,240,-1584,1152,52,16,-14
5490,232,-1560,1176,51,15,-12
5495,224,-1576,1184,48,15,-11
5500,240,-1600,1168,46,14,-10
5505,208,-1560,1160,45,13,-9
5510,224,-1576,1144,47,14,-8
5515,224,-1560,1144,48,15,-8
5520,240,-1576,1144,48,14,-8
5525,200,-1552,1136,49,15,-8
5530,240,-1576,1168,50,14,-8
5535,216,-1584,1152,51,13,-7
5540,224,-1568,1152,49,13,-7
5545,232,-1552,1136,48,12,-7
5550,232,-1560,1152,46,14,-6
5555,208,-1584,1160,45,13,-7
5560,224,-1608,1144,46,13,-5
5565,232,-1600,1144,46,14,-5
5570,224,-1568,1168,46,14,-6
5575,216,-1576,1144,46,12,-6
5580,224,-1592,1144,47,12,-9
5585,232,-1592,1160,47,13,-8
5590,232,-1568,1152,48,15,-9
5595,256,-1608,1152,49,16,-9
5600,216,-1584,1152,50,17,-8
5605,208,-1592,1152,51,16,-10
5610,216,-1592,1160,51,17,-9
5615,208,-1584,1152,50,19,-9
5620,216,-1576,1152,47,17,-10
5625,208,-1600,1152,48,17,-9
5630,216,-1584,1152,48,17,-8
5635,208,-1576,1144,49,19,-8
5640,224,-1576,1160,49,17,-8
5645,208,-1568,1168,47,17,-7
5650,224,-1576,1160,46,16,-7
5655,200,-1584,1120,45,16,-7
5660,224,-1600,1176,45,15,-6
5665,208,-1600,1144,45,15,-6
5670,232,-1576,1176,47,15,-6
5675,224,-1584,1184,48,16,-3
5680,216,-1576,1136,50,17,-4
5685,208,-1592,1128,49,16,-6
5690,208,-1600,1152,49,16,-7
5695,216,-1608,1152,49,18,-9
5700,192,-1560,1152,49,18,-8
5705,232,-1600,1176,50,18,-8
5710,224,-1568,1160,49,17,-7
5715,224,-1576,1152,49,19,-6
5720,224,-1576,1144,49,18,-7
5725,232,-1576,1152,49,19,-8
5730,216,-1584,1168,50,18,-7
5735,224,-1592,1176,50,18,-7
5740,208,-1592,1168,49,18,-5
5745,232,-1576,1168,49,17,-7
5750,264,-1600,1160,48,17,-7
5755,232,-1616,1160,50,17,-8
5760,216,-1608,1184,51,17,-8
5765,216,-1560,1152,52,19,-7
5770,232,-1600,1160,54,20,-6
5775,232,-1584,1192,54,19,-3
5780,216,-1592,1168,55,19,-4
5785,208,-1584,1200,55,19,-4
5790,232,-1592,1168,57,20,-3
5795,200,-1560,1152,57,21,-4
5800,224,-1584,1144,59,20,-4
5805,232,-1584,1176,59,20,-4
5810,232,-1592,1176,59,19,-5
5815,224,-1568,1160,58,19,-6
5820,216,-1584,1184,60,19,-4
5825,200,-1584,1160,59,20,-5
5830,224,-1600,1152,58,20,-6
5835,232,-1632,1168,59,19,-7
5840,256,-1592,1176,58,18,-6
5845,232,-1576,1160,57,19,-6
5850,232,-1576,1144,57,20,-5
5855,232,-1600,1168,57,19,-4
5860,232,-1600,1168,59,20,-6
5865,224,-1600,1128,59,19,-4
5870,208,-1600,1184,58,18,-4
5875,232,-1600,1160,58,18,-5
5880,224,-1584,1176,59,18,-3
5885,208,-1584,1184,61,18,-5
5890,208,-1592,1168,61,17,-5
5895,216,-1584,1168,62,18,-4
5900,216,-1568,1144,62,18,-5
5905,208,-1592,1144,63,19,-5
5910,216,-1584,1128,63,19,-4
5915,216,-1568,1168,63,17,-3
5920,224,-1600,1152,63,18,-1
5925,216,-1584,1152,63,19,-1
5930,216,-1592,1176,62,18,-2
5935,192,-1584,1144,63,19,0
5940,216,-1592,1160,63,20,-2
5945,232,-1600,1192,64,20,-1
5950,208,-1576,1200,65,20,-4
5955,192,-1576,1160,65,19,-2
5960,208,-1584,1184,66,18,-3
5965,192,-1608,1160,65,17,-3
5970,200,-1584,1152,66,17,-3
5975,192,-1560,1152,66,19,-5
5980,232,-1584,1184,64,18,-6
5985,216,-1568,1192,63,21,-6
5990,224,-1584,1168,60,20,-4
5995,224,-1576,1176,60,20,-4
6000,232,-1592,1168,58,18,-5
6005,200,-1568,1176,59,17,-5
6010,232,-1616,1144,61,17,-5
6015,224,-1592,1152,63,17,-2
6020,200,-1552,1184,66,19,-2
6025,208,-1576,1168,67,20,-3
6030,216,-1560,1136,68,21,-2
6035,168,-1560,1184,69,21,-4
6040,224,-1544,1152,67,20,-3
6045,208,-1568,1192,65,19,-4
6050,216,-1584,1184,65,16,-4
6055,184,-1592,1168,61,14,-4
6060,216,-1592,1224,57,13,-5
6065,200,-1600,1168,54,14,-6
6070,200,-1568,1160,55,14,-7
6075,200,-1608,1176,54,15,-7
6080,208,-1600,1160,54,17,-9
6085,176,-1576,1176,59,15,-8
6090,168,-1600,1160,64,12,-7
6095,208,-1584,1160,71,12,-8
6100,200,-1592,1152,75,10,-6
6105,184,-1560,1128,77,9,-3
6110,184,-1584,1128,78,9,-2
6115,192,-1576,1144,76,11,-2
6120,176,-1560,1160,76,12,0
6125,208,-1560,1168,76,13,-1
6130,200,-1584,1184,76,14,-2
6135,192,-1544,1176,75,14,-5
6140,184,-1584,1168,77,14,-4
6145,224,-1584,1160,80,16,-4
6150,240,-1576,1168,81,18,-6
6155,208,-1584,1184,82,18,-7
6160,216,-1592,1168,82,18,-6
6165,208,-1592,1176,81,18,-7
6170,232,-1600,1176,81,18,-9
6175,216,-1584,1168,79,17,-7
6180,200,-1568,1184,80,17,-6
6185,232,-1592,1200,80,16,-5
6190,216,-1576,1192,82,15,-5
6195,216,-1592,1176,84,14,-2
6200,208,-1568,1184,85,12,-3
6205,216,-1576,1176,87,11,-2
6210,208,-1560,1200,87,9,-1
6215,200,-1584,1152,88,8,-1
6220,224,-1600,1152,90,9,-1
6225,200,-1576,1160,90,8,-2
6230,208,-1576,1176,91,10,-1
6235,232,-1576,1152,91,10,-1
6240,240,-1584,1168,89,11,-1
6245,208,-1592,1176,90,12,-2
6250,224,-1608,1176,89,13,8
6255,232,-1592,1160,88,9,8
6260,208,-1592,1192,91,8,7
6265,232,-1616,1192,94,11,6
6270,208,-1576,1192,99,13,3
6275,224,-1592,1136,103,16,3
6280,216,-1616,1176,104,18,2
6285,208,-1552,1160,106,16,3
6290,216,-1584,1184,106,18,4
6295,208,-1576,1176,106,19,2
6300,216,-1584,1184,107,21,3
6305,224,-1560,1184,107,21,6
6310,200,-1608,1200,108,21,5
6315,192,-1568,1168,106,22,6
6320,224,-1560,1152,107,22,8
6325,240,-1576,1176,105,23,8
6330,216,-1568,1200,105,23,9
6335,224,-1576,1144,105,24,8
6340,240,-1592,1152,106,26,8
6345,224,-1568,1176,109,25,8
6350,216,-1576,1168,107,26,7
6355,216,-1616,1168,109,26,8
6360,224,-1568,1168,110,27,9
6365,224,-1576,1208,111,27,11
6370,208,-1576,1184,113,28,12
6375,240,-1568,1184,116,30,13
6380,200,-1568,1184,117,30,12
6385,200,-1552,1168,119,34,11
6390,232,-1608,1168,120,33,10
6395,232,-1544,1192,121,35,9
6400,240,-1576,1192,122,36,9
6405,240,-1584,1184,124,39,5
6410,248,-1584,1192,127,42,4
6415,240,-1584,1184,128,46,4
6420,248,-1576,1208,128,48,1
6425,240,-1568,1200,125,50,0
6430,200,-1560,1184,122,51,-2
6435,208,-1568,1176,120,51,-2
6440,200,-1560,1208,121,53,-3
6445,200,-1568,1192,122,55,-3
6450,216,-1552,1160,123,57,-4
6455,208,-1576,1176,124,59,-4
6460,192,-1568,1176,123,58,-4
6465,232,-1576,1216,126,62,-3
6470,200,-1552,1184,129,63,-2
6475,208,-1544,1216,129,65,-3
6480,208,-1584,1192,128,66,-2
6485,216,-1568,1208,128,66,-2
6490,224,-1568,1184,127,63,0
6495,216,-1560,1176,129,64,1
6500,200,-1560,1208,132,65,0
6505,208,-1528,1192,133,67,1
6510,224,-1536,1224,133,68,2
6515,208,-1544,1216,132,71,1
6520,200,-1552,1200,129,71,1
6525,200,-1560,1208,127,72,3
6530,216,-1544,1208,126,69,5
6535,192,-1536,1200,125,69,6
6540,184,-1544,1192,122,69,6
6545,208,-1552,1208,122,70,7
6550,176,-1528,1216,122,70,7
6555,176,-1544,1216,121,71,6
6560,176,-1560,1208,121,70,5
6565,216,-1536,1184,122,70,4
6570,200,-1536,1232,121,68,3
6575,192,-1536,1216,120,67,0
6580,208,-1544,1200,117,69,0
6585,208,-1536,1216,113,68,-2
6590,216,-1536,1208,112,70,-1
6595,200,-1544,1208,108,71,-1
6600,200,-1552,1224,107,74,-4
6605,208,-1544,1216,108,74,-3
6610,216,-1560,1232,109,76,-1
6615,216,-1560,1248,111,75,0
6620,224,-1552,1200,114,74,0
6625,208,-1552,1216,115,75,2
6630,176,-1552,1208,117,72,1
6635,184,-1544,1200,120,74,0
6640,208,-1544,1232,120,73,0
6645,184,-1536,1224,118,75,0
6650,200,-1544,1200,116,78,1
6655,200,-1552,1216,115,80,0
6660,176,-1536,1264,114,83,1
6665,192,-1552,1216,113,84,4
6670,184,-1536,1232,113,85,4
6675,200,-1536,1192,112,83,3
6680,192,-1528,1224,110,82,5
6685,192,-1528,1216,109,83,4
6690,200,-1528,1208,107,85,6
6695,200,-1536,1208,105,92,8
6700,184,-1544,1208,106,99,8
6705,184,-1536,1224,107,101,10
6710,176,-1536,1232,108,102,11
6715,200,-1552,1216,106,105,13
6720,184,-1536,1256,104,104,11
6725,200,-1552,1304,101,104,9
6730,176,-1552,1288,101,101,8
6735,184,-1552,1280,103,98,7
6740,168,-1568,1304,108,95,6
6745,144,-1568,1232,112,91,6
6750,144,-1544,1248,120,91,3
6755,152,-1544,1224,126,89,4
6760,144,-1544,1176,131,91,5
6765,160,-1544,1208,135,93,8
6770,144,-1552,1232,136,95,11
6775,152,-1528,1216,136,100,12
6780,152,-1560,1216,136,102,13
6785,160,-1520,1224,134,107,13
6790,168,-1520,1216,132,110,10
6795,136,-1488,1248,129,112,10
6800,160,-1520,1264,127,113,8
6805,160,-1512,1248,124,114,5
6810,176,-1504,1280,122,114,1
6815,184,-1520,1224,119,114,1
6820,184,-1528,1256,115,117,-1
6825,168,-1504,1296,113,121,-4
6830,160,-1528,1256,110,125,-8
6835,152,-1520,1248,109,130,-10
6840,176,-1536,1264,108,131,-12
6845,176,-1552,1272,107,136,-16
6850,160,-1544,1248,108,137,-16
6855,184,-1536,1248,109,138,-17
6860,168,-1536,1232,105,135,-15
6865,152,-1520,1272,103,133,-13
6870,176,-1496,1240,100,131,-12
6875,176,-1520,1216,94,131,-11
6880,144,-1472,1240,89,132,-9
6885,136,-1512,1256,84,136,-8
6890,128,-1520,1240,79,138,-8
6895,88,-1520,1248,75,135,-4
6900,64,-1536,1264,72,130,-2
6905,96,-1536,1256,72,123,-2
6910,120,-1544,1288,72,116,-3
6915,72,-1544,1280,75,108,-4
6920,104,-1576,1240,79,104,-6
6925,80,-1576,1272,87,102,-10
6930,104,-1584,1272,95,104,-12
6935,112,-1544,1256,100,103,-15
6940,128,-1536,1272,105,105,-15
6945,120,-1536,1264,107,106,-15
6950,128,-1528,1296,109,109,-12
6955,112,-1536,1272,112,111,-10
6960,72,-1520,1264,115,112,-8
6965,96,-1528,1264,118,110,-8
6970,64,-1512,1272,120,107,-7
6975,64,-1488,1264,123,102,-11
6980,56,-1496,1240,123,99,-11
6985,32,-1488,1288,125,98,-14
6990,72,-1504,1288,124,100,-17
6995,72,-1496,1296,122,101,-17
7000,40,-1488,1320,118,101,-17
7005,96,-1512,1288,113,102,-15
7010,96,-1520,1328,111,99,-12
7015,80,-1520,1320,107,98,-10
7020,88,-1504,1312,104,96,-8
7025,104,-1496,1336,102,93,-6
7030,104,-1496,1288,102,90,-2
7035,88,-1528,1304,102,88,-2
7040,104,-1496,1304,101,83,-1
7045,112,-1496,1304,100,80,1
7050,104,-1496,1328,100,79,3
7055,112,-1496,1312,102,80,4
7060,104,-1480,1336,104,81,4
7065,128,-1496,1296,101,81,5
7070,104,-1488,1304,98,79,7
7075,112,-1472,1312,95,80,9
7080,112,-1496,1272,94,81,12
7085,104,-1496,1280,93,82,15
7090,112,-1488,1312,92,84,13
7095,120,-1504,1288,88,83,15
7100,120,-1464,1304,85,82,14
7105,120,-1472,1296,84,83,16
7110,128,-1520,1328,81,81,16
7115,104,-1472,1296,81,80,16
7120,112,-1512,1336,79,81,17
7125,128,-1512,1304,82,81,18
7130,136,-1496,1288,85,82,19
7135,112,-1504,1288,91,83,20
7140,120,-1504,1320,94,84,22
7145,104,-1488,1288,94,84,24
7150,136,-1504,1320,94,83,26
7155,136,-1512,1312,94,80,25
7160,96,-1480,1328,90,78,24
7165,72,-1464,1296,93,84,21
7170,104,-1488,1296,87,84,28
7175,112,-1480,1288,83,82,30
7180,104,-1488,1296,81,82,31
7185,112,-1480,1312,79,84,28
7190,96,-1488,1296,79,83,30
7195,112,-1512,1312,78,85,28
7200,136,-1520,1304,78,88,29
7205,112,-1528,1336,77,91,32
7210,120,-1536,1288,76,93,31
7215,136,-1528,1312,77,95,29
7220,120,-1528,1328,77,95,28
7225,120,-1544,1304,76,93,26
7230,80,-1536,1336,77,93,28
7235,64,-1536,1304,79,93,28
7240,88,-1544,1288,83,92,30
7245,88,-1560,1280,89,91,28
7250,64,-1536,1312,94,94,26
7255,64,-1528,1328,100,95,27
7260,72,-1544,1272,104,97,27
7265,40,-1504,1288,110,98,27
7270,88,-1520,1312,114,99,27
7275,80,-1504,1296,116,100,31
7280,88,-1488,1304,116,100,32
7285,88,-1504,1272,114,100,33
7290,72,-1480,1296,109,99,35
7295,56,-1472,1288,104,99,40
7300,56,-1504,1264,100,98,40
7305,48,-1488,1272,98,96,38
7310,8,-1512,1288,92,95,37
7315,40,-1528,1304,89,92,33
7320,32,-1528,1288,87,91,29
7325,24,-1528,1312,87,90,25
7330,32,-1520,1296,87,90,17
7335,40,-1536,1312,90,92,11
7340,56,-1528,1296,95,97,8
7345,48,-1520,1304,99,103,4
7350,64,-1528,1296,99,107,4
7355,64,-1504,1304,99,110,5
7360,72,-1488,1304,98,116,5
7365,56,-1512,1264,98,117,4
7370,32,-1440,1336,100,119,4
7375,32,-1472,1264,98,117,6
7380,16,-1464,1296,97,114,9
7385,24,-1480,1264,94,110,11
7390,32,-1480,1320,93,103,10
7395,16,-1472,1288,93,99,10
7400,8,-1488,1304,87,94,8
7405,0,-1488,1360,79,88,4
7410,0,-1504,1320,70,81,0
7415,8,-1504,1328,66,79,-5
7420,8,-1536,1304,66,76,-6
7425,0,-1520,1304,67,75,-7
7430,0,-1528,1296,70,78,-5
7435,16,-1512,1312,76,82,-4
7440,8,-1496,1304,82,87,2
7445,16,-1512,1288,85,91,4
7450,32,-1512,1304,89,92,9
7455,64,-1480,1304,91,93,14
7460,48,-1480,1280,93,96,19
7465,40,-1472,1320,93,98,22
7470,64,-1464,1280,95,101,23
7475,56,-1464,1328,98,105,24
7480,72,-1456,1328,100,107,22
7485,72,-1488,1280,98,107,23
7490,32,-1488,1320,92,106,21
7495,88,-1512,1288,85,105,21
7500,64,-1488,1280,77,106,21
7505,56,-1520,1328,72,105,18
7510,48,-1520,1344,73,105,16
7515,8,-1520,1328,74,103,14
7520,24,-1552,1336,79,100,8
7525,0,-1528,1376,82,94,6
7530,-32,-1552,1360,86,87,3
7535,-56,-1496,1384,89,77,2
7540,-64,-1504,1384,92,68,1
7545,-40,-1456,1368,93,63,4
7550,0,-1480,1360,98,61,9
7555,8,-1440,1328,109,64,14
7560,8,-1416,1280,117,72,21
7565,8,-1384,1288,115,74,28
7570,24,-1376,1272,105,71,31
7575,32,-1384,1272,93,67,34
7580,32,-1384,1288,82,62,35
7585,32,-1416,1280,74,57,38
7590,16,-1456,1304,68,54,38
7595,0,-1480,1304,61,52,35
7600,0,-1520,1352,57,51,31
7605,-24,-1504,1336,56,46,31
7610,-16,-1536,1328,56,44,27
7615,-8,-1512,1352,57,41,25
7620,0,-1520,1344,60,43,23
7625,8,-1544,1368,67,46,21
7630,24,-1528,1368,74,46,19
7635,32,-1528,1360,82,49,15
7640,48,-1512,1368,92,53,16
7645,40,-1496,1320,101,55,15
7650,40,-1456,1320,111,60,18
7655,24,-1440,1304,114,62,21
7660,32,-1424,1304,112,64,24
7665,8,-1416,1280,105,63,29
7670,16,-1416,1272,96,61,32
7675,0,-1400,1328,84,55,35
7680,16,-1416,1320,72,49,35
7685,0,-1432,1312,62,43,35
7690,0,-1448,1328,54,35,33
7695,0,-1480,1336,50,30,32
7700,0,-1504,1336,48,26,31
7705,0,-1520,1296,49,23,29
7710,8,-1504,1288,52,24,26
7715,-8,-1504,1336,52,25,24
7720,0,-1504,1296,53,25,23
7725,0,-1520,1336,56,27,20
7730,0,-1496,1312,57,26,21
7735,8,-1504,1296,57,22,21
7740,0,-1528,1288,59,20,22
7745,0,-1504,1328,62,20,22
7750,0,-1488,1232,70,20,25
7755,0,-1488,1304,76,19,27
7760,0,-1488,1296,82,19,29
7765,0,-1480,1304,87,17,34
7770,0,-1456,1280,92,15,39
7775,8,-1448,1288,93,19,41
7780,0,-1440,1280,94,21,40
7785,16,-1456,1312,90,21,39
7790,0,-1464,1320,83,19,36
7795,0,-1448,1320,75,18,34
7800,0,-1448,1328,67,15,32
7805,0,-1480,1320,61,14,28
7810,0,-1472,1296,59,13,25
7815,0,-1520,1320,59,14,22
7820,8,-1528,1328,61,15,18
7825,0,-1480,1352,67,16,16
7830,16,-1480,1368,71,17,15
7835,0,-1488,1312,72,17,16
7840,8,-1456,1280,75,16,14
7845,0,-1472,1288,79,19,14
7850,0,-1464,1272,86,25,14
7855,-16,-1488,1304,89,28,14
7860,0,-1464,1312,90,27,13
7865,0,-1464,1352,88,29,14
7870,24,-1464,1336,81,27,13
7875,0,-1472,1280,74,27,11
7880,24,-1512,1304,72,27,7
7885,40,-1496,1304,71,31,7
7890,16,-1512,1320,72,35,6
7895,24,-1496,1272,78,38,6
7900,16,-1536,1304,85,43,5
7905,8,-1512,1360,95,47,7
7910,24,-1504,1320,104,49,7
7915,0,-1384,1336,110,50,5
7920,0,-1488,1336,115,50,4
7925,-24,-1496,1328,117,52,0
7930,0,-1488,1360,116,53,-4
7935,0,-1528,1376,114,53,-7
7940,-8,-1496,1344,116,55,-12
7945,0,-1512,1360,118,57,-15
7950,-8,-1504,1344,121,59,-15
7955,-16,-1472,1368,125,65,-17
7960,-16,-1472,1312,130,70,-18
7965,0,-1456,1288,134,74,-18
7970,-16,-1440,1296,137,78,-16
7975,-8,-1440,1336,137,82,-15
7980,-24,-1448,1336,139,82,-15
7985,-16,-1432,1304,139,80,-16
7990,-32,-1432,1352,134,78,-19
7995,-48,-1408,1384,126,74,-18
8000,-24,-1432,1376,119,70,-17
8005,-24,-1432,1344,112,67,-17
8010,-40,-1448,1416,108,66,-18
8015,0,-1440,1344,107,65,-19
8020,-24,-1472,1360,103,63,-19
8025,-32,-1440,1384,100,63,-20
8030,-16,-1448,1360,94,63,-20
8035,0,-1448,1320,92,65,-20
8040,8,-1464,1376,90,66,-21
8045,0,-1432,1352,89,68,-19
8050,8,-1464,1336,94,72,-19
8055,-8,-1448,1328,101,76,-18
8060,0,-1464,1344,106,80,-18
8065,0,-1448,1376,109,83,-17
8070,0,-1472,1352,113,83,-18
8075,0,-1448,1360,113,86,-17
8080,8,-1432,1424,111,87,-18
8085,8,-1440,1368,109,93,-20
8090,48,-1456,1368,109,100,-22
8095,72,-1440,1376,111,108,-29
8100,88,-1448,1376,110,111,-33
8105,112,-1464,1384,112,117,-39
8110,104,-1464,1360,115,126,-45
8115,136,-1472,1368,118,135,-56
8120,144,-1480,1368,124,145,-66
8125,112,-1488,1304,128,157,-77
8130,104,-1496,1336,129,168,-85
8135,80,-1488,1312,127,177,-93
8140,64,-1488,1352,127,183,-102
8145,32,-1528,1328,128,189,-117
8150,24,-1488,1296,132,196,-130
8155,0,-1480,1344,128,202,-142
8160,-24,-1480,1352,127,210,-152
8165,-56,-1472,1344,125,215,-160
8170,-64,-1464,1344,123,218,-167
8175,-104,-1464,1360,124,218,-171
8180,-88,-1448,1384,125,217,-173
8185,-80,-1456,1392,125,211,-172
8190,-72,-1472,1376,126,205,-170
8195,-80,-1448,1376,126,199,-167
8200,-104,-1464,1400,128,196,-164
8205,-104,-1432,1360,123,190,-158
8210,-96,-1440,1392,117,182,-153
8215,-88,-1440,1408,114,177,-151
8220,-72,-1464,1400,115,171,-146
8225,-48,-1448,1376,117,169,-142
8230,-16,-1464,1368,121,173,-142
8235,-32,-1432,1352,126,179,-144
8240,-80,-1416,1376,129,185,-143
8245,-72,-1448,1384,132,183,-141
8250,-96,-1424,1392,133,178,-137
8255,-112,-1424,1384,129,171,-133
8260,-136,-1416,1368,133,168,-135
8265,-160,-1416,1400,135,169,-135
8270,-136,-1408,1352,133,170,-134
8275,-144,-1408,1352,135,176,-134
8280,-120,-1400,1352,138,179,-132
8285,-128,-1392,1368,139,181,-128
8290,-120,-1376,1344,141,181,-125
8295,-104,-1416,1392,143,178,-120
8300,-112,-1376,1352,139,172,-113
8305,-136,-1360,1376,130,164,-103
8310,-128,-1384,1352,123,154,-98
8315,-120,-1368,1368,118,145,-93
8320,-96,-1432,1392,109,133,-86
8325,-104,-1424,1392,101,124,-78
8330,-128,-1424,1400,99,115,-76
8335,-120,-1464,1408,100,109,-72
8340,-96,-1424,1408,103,107,-68
8345,-88,-1432,1424,106,105,-64
8350,-64,-1448,1416,108,105,-58
8355,-72,-1400,1384,110,105,-53
8360,-72,-1392,1392,112,105,-50
8365,-80,-1408,1392,113,107,-44
8370,-32,-1376,1392,112,104,-39
8375,-64,-1376,1384,109,100,-32
8380,-40,-1392,1400,106,96,-24
8385,-48,-1376,1408,102,90,-16
8390,-48,-1368,1408,97,85,-7
8395,-16,-1376,1384,98,82,-3
8400,0,-1384,1400,97,81,3
8405,0,-1384,1408,95,81,6
8410,-8,-1392,1400,93,82,9
8415,0,-1376,1408,92,83,12
8420,24,-1408,1440,93,86,10
8425,0,-1384,1408,97,91,12
8430,24,-1400,1424,101,93,14
8435,16,-1408,1424,103,93,15
8440,8,-1408,1448,104,96,11
8445,40,-1448,1432,104,97,12
8450,0,-1448,1432,109,100,12
8455,0,-1416,1416,115,102,14
8460,-24,-1472,1392,119,106,14
8465,0,-1400,1432,122,110,16
8470,16,-1424,1432,125,113,18
8475,16,-1440,1416,144,123,14
8480,0,-1384,1392,159,135,12
8485,0,-1368,1408,156,130,22
8490,0,-1376,1416,153,124,30
8495,0,-1392,1432,153,122,37
8500,40,-1456,1464,152,121,45
8505,0,-1408,1440,162,130,44
8510,-8,-1392,1400,165,133,49
8515,0,-1432,1416,165,133,55
8520,8,-1408,1376,171,136,56
8525,-16,-1456,1432,176,141,56
8530,0,-1440,1384,184,147,54
8535,-40,-1424,1416,191,153,55
8540,0,-1408,1400,195,154,58
8545,-24,-1408,1392,195,151,60
8550,-32,-1424,1392,196,147,63
8555,-40,-1400,1400,203,144,63
8560,-48,-1368,1408,213,145,66
8565,-80,-1360,1440,217,145,68
8570,-88,-1368,1408,217,144,69
8575,-48,-1392,1416,214,144,70
8580,-56,-1360,1416,208,144,71
8585,-56,-1384,1392,204,146,73
8590,-56,-1376,1400,205,153,75
8595,-48,-1392,1392,206,160,75
8600,-40,-1376,1416,210,168,73
8605,-24,-1400,1384,218,177,71
8610,-40,-1400,1384,225,184,65
8615,-72,-1384,1384,235,193,61
8620,-96,-1392,1400,241,199,59
8625,-48,-1416,1416,241,201,57
8630,-96,-1400,1376,240,202,54
8635,-104,-1384,1360,242,204,55
8640,-104,-1408,1368,245,210,56
8645,-128,-1400,1368,251,216,56
8650,-136,-1384,1392,257,220,60
8655,-160,-1368,1368,258,221,72
8660,-152,-1392,1392,258,221,85
8665,-232,-1352,1368,256,220,94
8670,-136,-1384,1384,253,216,106
8675,-136,-1360,1392,256,216,121
8680,-104,-1400,1416,258,215,130
8685,-80,-1384,1392,264,219,135
8690,-88,-1368,1424,265,221,143
8695,-40,-1392,1424,268,222,151
8700,-40,-1392,1408,276,231,156
8705,-32,-1472,1384,285,239,155
8710,-32,-1408,1408,291,239,153
8715,-80,-1400,1360,318,253,156
8720,-96,-1376,1424,328,265,160
8725,-104,-1352,1424,318,267,164
8730,-56,-1368,1384,313,273,164
8735,-72,-1368,1424,314,277,165
8740,-48,-1360,1424,315,282,165
8745,-24,-1368,1448,315,290,162
8750,-96,-1360,1408,321,296,155
8755,-40,-1376,1416,337,308,152
8760,-32,-1368,1456,355,323,156
8765,-80,-1376,1432,376,341,159
8770,-128,-1376,1408,392,355,161
8775,-136,-1344,1408,399,369,160
8780,-160,-1320,1400,393,375,162
8785,-208,-1312,1400,373,369,167
8790,-176,-1328,1416,362,364,171
8795,-168,-1304,1456,367,372,183
8800,-136,-1336,1480,379,382,189
8805,-160,-1312,1440,390,392,192
8810,-152,-1304,1456,398,403,198
8815,-152,-1288,1480,400,408,207
8820,-144,-1240,1496,391,404,218
8825,-152,-1296,1480,380,398,225
8830,-160,-1280,1448,385,402,223
8835,-160,-1304,1424,395,416,230
8840,-136,-1320,1416,409,440,232
8845,-168,-1256,1488,411,447,234
8850,-112,-1288,1384,419,453,246
8855,-136,-1296,1456,440,479,266
8860,-152,-1248,1496,473,504,288
8865,-48,-1296,1480,493,517,305
8870,-160,-1232,1504,506,535,317
8875,-144,-1200,1504,521,547,329
8880,-168,-1200,1504,509,549,337
8885,-88,-1192,1592,491,548,351
8890,-152,-1184,1448,473,538,356
8895,-136,-1232,1496,487,555,366
8900,-160,-1176,1512,544,590,376
8905,-344,-1144,1520,574,608,393
8910,-288,-1144,1464,573,605,421
8915,-232,-1208,1496,552,600,438
8920,-264,-1256,1520,557,603,434
8925,-400,-1144,1504,573,607,423
8930,-352,-1168,1376,572,600,430
8935,-256,-1208,1440,563,605,444
8940,-320,-1216,1504,576,637,430
8945,-392,-1152,1472,618,671,418
8950,-192,-1192,1432,634,680,427
8955,-240,-1184,1488,621,684,427
8960,-304,-1112,1496,644,693,426
8965,-232,-1152,1488,677,702,441
8970,-224,-1136,1528,702,726,435
8975,-232,-1088,1432,753,765,430
8980,-168,-1184,1520,790,802,430
8985,-216,-1072,1512,860,854,428
8990,-312,-968,1480,881,879,439
8995,-368,-960,1528,869,888,453
9000,-392,-976,1584,864,907,455
9005,-408,-1024,1424,894,947,454
9010,-440,-912,1400,898,976,467
9015,-488,-824,1472,872,998,495
9020,-448,-840,1440,822,981,553
9025,-368,-832,1488,743,945,608
9030,-424,-944,1488,682,918,636
9035,-520,-896,1448,694,914,623
9040,-488,-928,1392,728,917,632
9045,-536,-864,1368,718,912,650
9050,-608,-832,1368,685,891,677
9055,-576,-832,1376,640,880,705
9060,-552,-856,1392,601,883,723
9065,-520,-904,1376,563,879,730
9070,-576,-960,1352,531,885,739
9075,-616,-920,1384,520,883,764
9080,-624,-880,1376,524,913,786
9085,-608,-1000,1424,531,948,812
9090,-656,-944,1392,564,987,822
9095,-640,-872,1448,596,1009,838
9100,-720,-952,1416,602,1013,859
9105,-832,-864,1408,600,994,871
9110,-608,-928,1384,588,978,886
9115,-720,-920,1456,579,974,889
9120,-744,-976,1448,608,982,911
9125,-704,-1000,1400,655,1005,931
9130,-688,-1016,1424,716,1027,952
9135,-696,-1024,1408,752,1045,968
9140,-832,-1024,1328,789,1040,988
9145,-888,-984,1352,844,1058,996
9150,-816,-984,1312,922,1077,1012
9155,-880,-912,1224,976,1081,1023
9160,-800,-848,1160,1007,1084,1042
9165,-752,-808,1152,1023,1093,1062
9170,-712,-720,1104,1033,1110,1076
9175,-808,-736,1072,1051,1117,1095
9180,-784,-728,1104,1086,1134,1104
9185,-784,-720,1184,1135,1153,1122
9190,-720,-696,1176,1173,1154,1135
9195,-592,-664,1168,1187,1136,1144
9200,-464,-648,1096,1176,1115,1154
9205,-432,-640,1072,1160,1110,1164
9210,-440,-640,1088,1171,1132,1180
9215,-488,-624,1056,1217,1172,1202
9220,-640,-624,1080,1287,1229,1227
9225,-648,-592,1048,1381,1279,1248
9230,-688,-504,984,1446,1304,1250
9235,-792,-464,928,1477,1310,1253
9240,-696,-408,928,1483,1308,1255
9245,-648,-352,904,1465,1305,1262
9250,-632,-296,832,1447,1307,1271
9255,-656,-312,792,1427,1316,1268
9260,-656,-336,816,1404,1323,1252
9265,-536,-256,856,1373,1310,1226
9270,-752,-280,912,1341,1279,1214
9275,-920,-248,856,1359,1255,1216
9280,-960,-304,784,1407,1251,1218
9285,-1024,-232,736,1431,1226,1201
9290,-976,-216,608,1427,1174,1193
9295,-968,-224,576,1374,1106,1185
9300,-928,-208,688,1318,1047,1186
9305,-760,-200,656,1296,980,1200
9310,-968,-152,568,1315,914,1213
9315,-760,-136,488,1382,866,1219
9320,-1008,-80,368,1393,816,1185
9325,-1008,-16,352,1390,758,1157
9330,-1104,-56,224,1381,650,1141
9335,-1136,24,248,1374,526,1137
9340,-968,40,200,1414,418,1165
9345,-760,32,384,1455,335,1215
9350,-896,0,488,1541,322,1230
9355,-24,-32,384,1664,337,1209
9360,376,144,400,1652,239,1197
9365,352,64,328,1587,285,1207
9370,88,-96,472,1619,430,1217
9375,-888,-104,824,1741,558,1213
9380,-1720,-296,672,1987,709,1226
9385,-2248,-264,832,2152,688,1268
9390,-2600,-88,800,2192,517,1301
9395,-2768,-128,632,2118,225,1367
9400,-3544,-104,784,1899,-123,1382
9405,-3608,-328,368,1775,-479,1373
9410,-2488,-448,96,1514,-871,1282
9415,-1448,-424,0,946,-1414,1072
9420,-184,-168,144,497,-1854,888
9425,872,8,264,455,-2010,974
9430,1752,120,576,741,-1843,1296
9435,1624,240,1232,1272,-1393,1694
9440,536,480,1712,2080,-762,2029
9445,-736,984,1632,2976,-211,2260
9450,-1376,1640,1312,3593,85,2371
9455,-1768,2120,1160,3599,97,2322
9460,-2696,2512,1192,3074,-61,2094
9465,-4008,2664,1880,2328,-374,1740
9470,-5544,2896,2944,1556,-756,1462
9475,-6936,3256,4720,557,-1206,1249
9480,-8216,3136,6432,-136,-1547,1114
9485,-9896,2936,7896,71,-1407,1010
9490,-11264,3576,7680,566,-1378,707
9495,-11936,4072,5920,752,-1491,132
9500,-12224,4352,4392,1135,-1851,-529
9505,-11800,4816,2560,1775,-2068,-1070
9510,-7360,5176,1072,2465,-2193,-1109
9515,-2712,5360,-1880,1921,-1874,-180
9520,-192,4880,-2488,484,-458,870
9525,1808,4408,176,-798,312,1516
9530,3312,2512,3576,-1612,80,1596
9535,1248,160,5256,-1945,-669,1271
9540,-176,-776,6360,-1490,-846,626
9545,-616,-1120,4344,-296,-671,-49
9550,-760,-1200,2648,439,-787,-432
9555,-64,-1080,1352,332,-924,-449
9560,448,-1208,720,35,-775,-422
9565,608,-1288,736,-115,-430,-434
9570,760,-1168,696,55,-67,-438
9575,1072,-1424,440,402,166,-354
9580,1176,-1048,1024,473,159,-201
9585,768,-704,1144,773,263,-240
9590,400,-176,1064,1205,470,-222
9595,128,216,824,1591,665,-129
9600,-88,656,504,1782,808,-47
9605,-312,1080,304,1755,931,-31
9610,-568,1464,296,1578,1038,-85
9615,-832,1760,528,1332,1102,-173
9620,-1056,1960,600,1085,1072,-249
9625,-1168,2080,544,847,911,-278
9630,-1144,2056,352,602,645,-255
9635,-1016,1936,232,352,348,-195
9640,-912,1744,176,144,79,-115
9645,-824,1584,160,10,-122,-19
9650,-704,1400,240,-62,-237,82
9655,-600,1264,440,-103,-283,169
9660,-608,1136,624,-102,-288,240
9665,-664,1072,760,-65,-271,301
9670,-736,1072,904,-26,-263,338
9675,-888,1136,992,-12,-282,362
9680,-1008,1080,1040,-25,-325,390
9685,-1056,1072,1112,-47,-370,431
9690,-1080,1080,1104,-61,-401,458
9695,-1072,1104,1056,-68,-426,475
9700,-1024,1192,1112,-55,-451,481
9705,-1064,1320,1120,-23,-483,491
9710,-920,1528,1216,22,-514,509
9715,-1024,1648,1104,19,-563,511
9720,-1088,1872,1288,-45,-630,470
9725,-1048,1968,1336,-116,-703,425
9730,-1008,2016,1400,-233,-804,357
9735,-1040,2064,1424,-347,-886,286
9740,-1032,2080,1448,-438,-924,231
9745,-1080,2032,1560,-521,-925,178
9750,-1176,2008,1720,-606,-912,110
9755,-1264,1968,1784,-699,-903,41
9760,-1336,1880,1808,-799,-914,-26
9765,-1360,1800,1768,-893,-945,-86
9770,-1344,1680,1608,-968,-991,-121
9775,-1280,1480,1520,-1015,-1029,-140
9780,-1248,1304,1488,-1028,-1045,-148
9785,-1208,1200,1472,-997,-1048,-150
9790,-1168,1096,1456,-919,-1040,-140
9795,-1208,1016,1432,-804,-1025,-119
9800,-1296,984,1440,-679,-1007,-92
9805,-1392,936,1400,-556,-996,-64
9810,-1376,880,1392,-452,-1004,-37
9815,-1312,872,1352,-382,-1041,-13
9820,-1096,824,1312,-341,-1072,-4
9825,-1000,832,1304,-305,-1073,-21
9830,-944,960,1312,-270,-1024,-51
9835,-984,984,1344,-269,-924,-76
9840,-920,1104,1400,-274,-842,-104
9845,-984,1176,1552,-327,-699,-127
9850,-1024,1168,1624,-393,-582,-144
9855,-1056,1152,1656,-472,-534,-160
9860,-1136,1096,1624,-544,-535,-167
9865,-1136,1056,1592,-599,-568,-166
9870,-1144,992,1616,-643,-597,-158
9875,-1128,944,1600,-672,-623,-147
9880,-1160,880,1640,-709,-661,-134
9885,-1104,776,1640,-734,-719,-111
9890,-1032,712,1592,-737,-789,-79
9895,-952,616,1592,-727,-856,-48
9900,-896,560,1600,-706,-909,-23
9905,-856,512,1640,-671,-944,-7
9910,-808,496,1704,-634,-966,-5
9915,-712,448,1768,-599,-976,-8
9920,-648,504,1800,-580,-964,-12
9925,-592,512,1856,-567,-926,-11
9930,-568,496,1832,-555,-866,-7
9935,-544,488,1824,-525,-819,-2
9940,-536,488,1784,-491,-782,-6
9945,-600,512,1824,-465,-758,-15
9950,-584,488,1832,-442,-749,-28
9955,-624,464,1824,-423,-754,-43
9960,-616,424,1808,-406,-774,-60
9965,-624,376,1800,-386,-793,-79
9970,-592,304,1848,-350,-803,-93
9975,-600,288,1864,-298,-803,-101
9980,-536,256,1888,-240,-801,-106
9985,-520,296,1872,-186,-795,-109
9990,-512,296,1896,-137,-776,-111
9995,-496,288,1936,-96,-750,-109
10000,-504,288,1936,-69,-726,-107
10005,-520,304,2024,-43,-705,-105
10010,-496,352,2064,-16,-687,-99
10015,-544,368,2064,12,-664,-88
10020,-576,368,2056,31,-641,-73
10025,-624,360,2056,38,-627,-53
10030,-576,352,2040,43,-616,-27
10035,-568,352,2008,57,-601,7
10040,-520,368,2024,70,-566,28
10045,-528,376,2064,76,-522,42
10050,-496,392,2056,75,-480,58
10055,-432,408,2056,71,-456,69
10060,-408,392,2000,70,-433,80
10065,-328,352,1976,84,-409,94
10070,-304,336,1944,104,-377,96
10075,-264,352,1896,141,-342,99
10080,-296,360,1880,178,-317,95
10085,-248,384,1800,218,-298,93
10090,-360,304,1720,234,-289,82
10095,-280,456,1768,245,-280,71
10100,-384,472,1784,256,-269,61
10105,-368,504,1784,276,-262,59
10110,-400,528,1792,297,-259,60
10115,-456,560,1808,315,-257,58
10120,-448,592,1808,328,-255,60
10125,-440,624,1816,336,-254,61
10130,-440,632,1808,340,-254,61
10135,-480,680,1792,344,-251,60
10140,-496,664,1784,345,-249,59
10145,-520,688,1768,342,-248,60
10150,-528,728,1832,341,-251,65
10155,-520,752,1800,340,-259,73
10160,-544,752,1816,341,-265,82
10165,-568,792,1824,338,-266,89
10170,-576,776,1848,334,-264,99
10175,-584,824,1864,325,-269,106
10180,-584,824,1816,315,-277,113
10185,-520,856,1808,302,-285,120
10190,-480,864,1848,286,-290,126
10195,-448,896,1872,268,-283,129
10200,-392,928,1808,251,-265,127
10205,-296,920,1928,213,-260,121
10210,-384,904,1904,197,-252,115
10215,-304,864,1816,213,-226,109
10220,-232,928,1784,214,-211,95
10225,-352,928,1808,198,-202,78
10230,-232,880,1760,203,-175,81
10235,-144,936,1832,197,-167,73
10240,-136,952,1840,201,-161,79
10245,-304,920,1792,222,-127,90
10250,-288,952,1752,241,-85,88
10255,-280,952,1792,223,-65,71
10260,-320,984,1824,199,-52,63
10265,-288,960,1800,187,-39,70
10270,-272,992,1768,174,-26,72
10275,-280,976,1784,159,1,61
10280,-264,1000,1800,140,33,47
10285,-280,976,1832,115,58,34
10290,-288,960,1936,97,72,24
10295,-288,928,1912,78,65,15
10300,-312,936,1888,54,45,7
10305,-320,912,1872,33,20,0
10310,-312,880,1856,11,-3,-9
10315,-352,840,1792,-10,-23,-20
10320,-344,808,1784,-27,-35,-27
10325,-368,784,1792,-42,-45,-32
10330,-376,768,1808,-58,-50,-32
10335,-384,776,1824,-69,-51,-28
10340,-400,744,1792,-79,-49,-27
10345,-384,744,1784,-85,-40,-23
10350,-384,736,1784,-86,-26,-17
10355,-408,704,1776,-80,-5,-14
10360,-440,696,1864,-72,12,-14
10365,-440,656,1816,-57,23,-9
10370,-480,656,1816,-34,22,-6
10375,-448,616,1848,-18,11,-5
10380,-448,648,1848,11,17,-6
10385,-432,624,1848,38,16,-11
10390,-464,616,1928,61,6,-18
10395,-480,584,1928,82,-7,-19
10400,-448,576,1936,94,-25,-23
10405,-480,600,1912,106,-32,-35
10410,-480,624,1880,113,-33,-39
10415,-512,632,1864,118,-24,-44
10420,-512,696,1912,120,-10,-55
10425,-544,744,1880,133,7,-58
10430,-520,760,1832,155,9,-63
10435,-504,752,1840,188,-6,-65
10440,-544,608,1640,231,-37,-61
10445,-496,488,1576,276,-48,-44
10450,-512,440,1640,308,-26,-25
10455,-544,376,1744,317,7,-6
10460,-600,384,1904,315,34,9
10465,-608,448,2080,305,27,23
10470,-592,512,2144,292,-11,33
10475,-576,624,2160,269,-69,46
10480,-544,720,2072,249,-121,51
10485,-504,792,2016,229,-156,61
10490,-464,864,1888,207,-160,71
10495,-416,904,1824,178,-139,77
10500,-400,936,1792,151,-101,74
10505,-368,920,1784,122,-61,61
10510,-384,944,1784,101,-28,48
10515,-392,936,1800,86,-6,34
10520,-408,912,1792,80,7,22
10525,-400,888,1824,81,15,11
10530,-400,840,1776,88,21,2
10535,-408,800,1768,96,30,-3
10540,-400,768,1792,101,41,-6
10545,-400,752,1784,106,48,-10
10550,-384,760,1808,108,48,-8
10555,-392,760,1848,114,49,-8
10560,-368,776,1848,119,41,-4
10565,-376,768,1864,123,32,-4
10570,-368,784,1848,128,17,-4
10575,-416,840,1840,129,3,-3
10580,-360,848,1848,123,-12,0
10585,-344,864,1840,116,-25,0
10590,-352,856,1824,109,-34,1
10595,-320,864,1808,104,-36,-1
10600,-344,896,1800,97,-33,-2
10605,-328,888,1776,90,-31,-1
10610,-344,888,1784,84,-25,-4
10615,-312,856,1776,76,-21,-5
10620,-328,816,1816,70,-15,-9
10625,-392,864,1880,66,-10,-12
10630,-344,840,1792,64,-1,-16
10635,-392,848,1808,55,2,-18
10640,-352,816,1824,43,-1,-16
10645,-376,784,1816,38,-1,-17
10650,-368,816,1816,44,4,-16
10655,-392,784,1824,54,10,-15
10660,-392,776,1848,61,17,-14
10665,-440,792,1832,65,24,-15
10670,-432,760,1832,68,28,-13
10675,-440,744,1824,76,32,-15
10680,-448,752,1848,83,31,-14
10685,-464,752,1856,93,28,-13
10690,-472,808,1888,100,25,-13
10695,-456,760,1896,105,20,-12
10700,-496,832,1824,105,18,-11
10705,-464,800,1864,102,17,-12
10710,-488,800,1864,98,17,-11
10715,-448,816,1832,94,19,-14
10720,-480,792,1832,89,20,-15
10725,-512,784,1816,86,17,-17
10730,-496,792,1816,83,14,-18
10735,-472,784,1800,81,13,-15
10740,-488,792,1808,80,12,-13
10745,-440,776,1792,79,12,-13
10750,-480,784,1808,80,9,-10
10755,-488,776,1816,81,6,-9
10760,-456,776,1800,81,4,-7
10765,-480,784,1816,82,-5,-3
10770,-448,784,1792,88,-13,-5
10775,-448,776,1840,89,-9,-4
10780,-440,808,1832,85,-1,-2
10785,-472,808,1856,80,3,0
10790,-432,792,1872,77,5,-2
10795,-424,800,1824,77,4,-1
10800,-416,784,1848,81,4,-3
10805,-416,776,1864,86,3,-3
10810,-416,792,1832,93,5,-3
10815,-408,784,1848,100,8,-2
10820,-424,792,1800,104,9,-2
10825,-400,768,1840,105,11,-2
10830,-424,800,1800,104,9,-1
10835,-392,784,1816,102,7,-3
10840,-408,808,1832,100,7,-1
10845,-424,792,1816,97,4,1
10850,-408,800,1816,95,3,2
10855,-392,816,1808,92,2,2
10860,-400,816,1800,93,1,1
10865,-408,848,1824,92,3,1
10870,-408,824,1784,92,6,2
10875,-416,824,1840,91,7,-1
10880,-384,824,1848,91,9,-2
10885,-408,816,1808,90,10,-5
10890,-392,832,1816,90,8,-5
10895,-408,816,1808,89,6,-7
10900,-408,832,1824,85,2,-8
10905,-376,832,1848,81,0,-10
10910,-408,824,1824,78,-2,-14
10915,-408,856,1800,73,-4,-16
10920,-392,824,1856,70,-5,-18
10925,-408,840,1848,64,-3,-19
10930,-416,840,1856,59,-7,-17
10935,-408,848,1848,55,-3,-20
10940,-416,824,1864,51,-9,-16
10945,-384,848,1816,45,-19,-19
10950,-408,824,1808,43,-2,-23
10955,-392,824,1832,42,8,-25
10960,-416,824,1840,37,13,-24
10965,-424,808,1848,32,14,-24
10970,-416,840,1848,31,14,-24
10975,-392,824,1832,29,15,-25
10980,-416,808,1832,28,17,-25
10985,-424,824,1800,27,17,-25
10990,-432,824,1840,27,18,-26
10995,-424,792,1856,28,16,-26
11000,-432,792,1840,28,14,-25
11005,-464,816,1840,26,15,-27
11010,-424,800,1832,25,14,-26
11015,-448,808,1848,23,15,-27
11020,-432,808,1792,22,14,-28
11025,-408,808,1840,20,14,-28
11030,-424,800,1824,20,16,-27
11035,-440,792,1808,20,18,-23
11040,-432,808,1824,23,20,-25
11045,-448,800,1816,25,21,-22
11050,-456,800,1824,27,21,-21
11055,-424,792,1840,28,22,-20
11060,-424,824,1856,28,21,-18
11065,-432,776,1816,31,19,-16
11070,-448,800,1808,33,17,-15
11075,-416,800,1848,33,14,-15
11080,-424,792,1856,35,13,-16
11085,-440,808,1800,35,13,-14
11090,-432,792,1824,34,12,-14
11095,-432,800,1848,33,15,-14
11100,-424,800,1840,34,16,-13
11105,-408,768,1832,35,15,-13
11110,-432,816,1832,36,15,-15
11115,-400,784,1848,37,14,-16
11120,-416,776,1840,37,13,-17
11125,-400,800,1832,36,14,-19
11130,-384,792,1816,37,15,-18
11135,-408,784,1800,39,18,-21
11140,-384,792,1808,40,21,-21
11145,-384,800,1848,42,21,-21
11150,-392,768,1824,46,23,-27
11155,-392,808,1840,50,24,-29
11160,-408,784,1832,53,25,-31
11165,-424,776,1824,57,23,-32
11170,-416,792,1864,59,21,-34
11175,-432,808,1864,59,17,-35
11180,-440,808,1840,59,16,-32
11185,-416,816,1840,55,14,-34
11190,-424,816,1824,54,14,-33
11195,-448,824,1832,51,13,-32
11200,-448,824,1832,49,12,-30
11205,-432,824,1832,46,10,-29
11210,-432,816,1824,44,8,-30
11215,-464,816,1824,41,8,-27
11220,-464,816,1800,39,7,-26
11225,-464,800,1832,35,7,-25
11230,-448,808,1800,33,7,-22
11235,-448,784,1824,32,9,-17
11240,-424,808,1840,30,7,-17
11245,-448,800,1832,29,7,-15
11250,-464,800,1824,29,6,-15
11255,-440,776,1824,30,8,-13
11260,-440,784,1832,29,6,-13
11265,-424,792,1808,30,6,-13
11270,-464,792,1856,27,4,-12
11275,-448,784,1840,25,4,-12
11280,-416,784,1824,25,4,-11
11285,-432,808,1872,22,4,-10
11290,-416,800,1816,20,6,-10
11295,-424,800,1848,18,6,-10
11300,-392,800,1840,16,7,-11
11305,-408,792,1840,16,6,-10
11310,-440,808,1832,16,5,-10
11315,-424,800,1840,16,5,-11
11320,-440,792,1864,17,3,-11
11325,-424,800,1840,17,4,-11
11330,-424,776,1840,20,5,-11
11335,-408,808,1832,19,6,-10
11340,-440,776,1856,22,5,-12
11345,-432,776,1816,25,5,-13
11350,-408,760,1808,24,7,-12
11355,-424,800,1840,26,7,-12
11360,-416,784,1848,26,7,-11
11365,-424,776,1808,29,7,-10
11370,-440,808,1832,30,7,-11
11375,-432,776,1808,28,6,-10
11380,-408,784,1816,30,9,-11
11385,-424,776,1832,34,10,-10
11390,-424,792,1832,36,13,-10
11395,-408,800,1824,41,13,-9
11400,-424,776,1824,44,15,-9
11405,-448,792,1808,46,14,-9
11410,-440,792,1824,47,13,-10
11415,-400,800,1832,47,13,-10
11420,-400,784,1856,46,11,-11
11425,-416,800,1848,45,13,-13
11430,-392,776,1856,45,16,-13
11435,-408,792,1872,44,16,-13
11440,-440,784,1840,42,18,-14
11445,-416,768,1848,41,20,-13
11450,-392,768,1856,42,22,-14
11455,-384,784,1816,42,24,-12
11460,-392,824,1824,43,24,-12
11465,-376,800,1808,46,26,-11
11470,-408,800,1832,48,27,-13
11475,-424,808,1816,49,29,-17
11480,-408,808,1824,48,30,-18
11485,-408,784,1832,48,29,-17
11490,-440,808,1848,47,27,-18
11495,-400,784,1808,44,24,-18
11500,-416,768,1848,42,20,-19
11505,-416,752,1848,39,17,-20
11510,-424,752,1864,38,17,-20
11515,-440,744,1824,38,15,-21
11520,-432,760,1824,40,16,-22
11525,-432,784,1824,42,17,-23
11530,-416,760,1832,44,18,-25
11535,-416,768,1864,46,19,-23
11540,-424,768,1848,51,18,-24
11545,-448,776,1808,58,16,-24
11550,-456,776,1824,65,15,-22
11555,-424,760,1832,71,16,-17
11560,-416,760,1808,75,16,-17
11565,-440,784,1824,75,17,-17
11570,-440,792,1800,73,16,-16
11575,-448,792,1856,70,16,-16
11580,-424,784,1824,68,16,-15
11585,-448,816,1856,66,16,-13
11590,-448,832,1840,64,16,-15
11595,-416,808,1848,62,17,-15
11600,-400,832,1856,56,16,-13
11605,-448,816,1832,50,16,-17
11610,-440,792,1840,44,16,-16
11615,-432,840,1816,39,18,-16
11620,-424,784,1832,35,18,-18
11625,-440,808,1840,32,18,-18
11630,-392,784,1848,28,16,-19
11635,-440,792,1840,27,12,-18
11640,-416,776,1840,26,9,-19
11645,-400,768,1848,24,8,-20
11650,-408,784,1832,22,7,-20
11655,-408,776,1840,22,8,-17
11660,-400,776,1856,21,9,-18
11665,-440,752,1824,20,11,-21
11670,-448,784,1832,22,12,-19
11675,-432,784,1840,22,13,-19
11680,-416,760,1840,23,13,-17
11685,-440,824,1824,23,12,-18
11690,-440,792,1816,20,12,-18
11695,-432,800,1840,19,12,-17
11700,-464,800,1816,16,11,-17
11705,-424,792,1808,12,11,-17
11710,-432,768,1840,9,10,-18
11715,-440,784,1848,6,9,-18
11720,-408,744,1896,4,9,-17
11725,-432,792,1856,2,7,-17
11730,-424,768,1800,3,6,-18
11735,-432,760,1848,3,5,-18
11740,-440,784,1840,4,6,-19
11745,-416,768,1840,5,5,-16
11750,-408,776,1832,6,7,-19
11755,-408,760,1824,8,7,-19
11760,-408,752,1832,10,8,-18
11765,-416,768,1832,15,9,-18
11770,-440,752,1848,18,13,-17
11775,-424,768,1840,22,15,-14
11780,-408,760,1840,26,15,-12
11785,-408,776,1832,28,15,-11
11790,-424,752,1832,29,17,-10
11795,-416,776,1832,29,17,-10
11800,-448,808,1832,28,17,-9
11805,-440,784,1832,28,15,-7
11810,-424,776,1832,29,15,-8
11815,-424,768,1832,29,13,-10
11820,-424,768,1840,27,11,-10
11825,-432,736,1832,27,12,-10
11830,-424,768,1848,31,10,-8
11835,-416,752,1824,31,10,-9
11840,-408,776,1856,33,10,-10
11845,-392,760,1848,34,10,-9
11850,-416,752,1832,35,9,-9
11855,-432,792,1864,36,9,-10
11860,-416,752,1840,37,9,-10
11865,-440,784,1840,39,10,-11
11870,-440,768,1840,39,9,-10
11875,-416,736,1832,39,9,-11
11880,-416,744,1848,37,8,-10
11885,-448,760,1888,37,9,-10
11890,-408,776,1840,37,9,-9
11895,-432,784,1832,37,8,-10
11900,-456,768,1832,38,9,-9
11905,-408,768,1824,36,9,-9
11910,-440,760,1824,35,11,-12
11915,-432,760,1824,33,12,-11
11920,-424,776,1848,30,13,-13
11925,-432,768,1864,28,12,-13
11930,-400,752,1848,27,13,-13
11935,-424,768,1856,24,11,-14
11940,-408,752,1856,22,9,-13
11945,-440,776,1848,18,8,-16
11950,-432,760,1840,17,8,-15
11955,-416,752,1816,17,8,-15
11960,-424,760,1832,19,7,-14
11965,-440,768,1824,20,8,-14
11970,-424,768,1824,21,7,-12
11975,-416,752,1848,24,6,-14
11980,-440,752,1840,26,7,-12
11985,-440,760,1848,27,7,-11
11990,-440,744,1848,29,6,-10
11995,-424,744,1864,32,8,-7
12000,-424,752,1840,33,7,-7
12005,-432,768,1864,35,7,-8
12010,-432,776,1856,36,5,-6
12015,-456,784,1840,37,5,-5
12020,-416,752,1824,36,4,-6
12025,-416,752,1848,36,4,-7
12030,-408,760,1832,36,4,-6
12035,-408,752,1832,36,3,-7
12040,-416,760,1824,39,4,-6
12045,-432,752,1824,42,5,-6
12050,-408,720,1848,43,5,-6
12055,-408,736,1856,48,6,-7
12060,-424,736,1800,55,6,-8
12065,-424,752,1848,58,8,-5
12070,-440,728,1832,62,10,-5
12075,-408,736,1832,65,10,-4
12080,-456,784,1832,68,10,-5
12085,-424,768,1840,70,11,-5
12090,-432,768,1824,72,11,-5
12095,-424,752,1840,72,11,-4
12100,-416,784,1840,73,11,-5
12105,-440,760,1824,73,11,-6
12110,-432,776,1864,71,11,-6
12115,-440,792,1848,68,9,-7
12120,-424,784,1864,66,10,-8
12125,-424,792,1808,64,10,-8
12130,-424,784,1840,63,11,-8
12135,-440,784,1840,60,10,-8
12140,-408,776,1832,58,10,-8
12145,-424,744,1832,57,11,-9
12150,-432,768,1832,56,12,-11
12155,-408,760,1848,56,13,-10
12160,-424,728,1848,56,14,-10
12165,-432,776,1856,56,13,-9
12170,-408,752,1824,56,13,-9
12175,-432,752,1856,55,14,-9
12180,-408,784,1816,55,15,-9
12185,-440,776,1864,56,15,-9
12190,-384,744,1848,59,14,-9
12195,-408,760,1864,61,14,-9
12200,-416,744,1824,63,13,-10
12205,-432,752,1832,65,13,-9
12210,-432,784,1848,68,14,-8
12215,-424,760,1832,70,14,-8
12220,-392,752,1816,71,15,-9
12225,-408,736,1832,70,16,-8
12230,-424,752,1816,68,15,-8
12235,-424,728,1840,68,17,-9
12240,-424,728,1832,66,15,-8
12245,-416,760,1856,65,16,-8
12250,-448,760,1848,64,15,-9
12255,-456,776,1848,62,17,-10
12260,-448,760,1832,65,17,-11
12265,-400,760,1896,67,16,-10
12270,-432,736,1848,72,15,-9
12275,-464,760,1824,79,13,-8
12280,-432,752,1816,87,13,-5
12285,-456,752,1808,95,14,-3
12290,-424,760,1832,97,14,-3
12295,-424,768,1840,98,11,-2
12300,-448,776,1824,98,10,-1
12305,-424,768,1808,99,10,-3
12310,-432,784,1808,101,10,-2
12315,-440,792,1856,102,10,-1
12320,-400,768,1832,104,10,-2
12325,-408,784,1856,104,11,-1
12330,-432,784,1824,103,10,-1
12335,-424,808,1816,99,12,-3
12340,-416,800,1840,94,12,-3
12345,-408,776,1808,90,12,-5
12350,-416,792,1800,86,11,-5
12355,-424,824,1824,83,11,-5
12360,-416,784,1808,79,10,-6
12365,-424,776,1840,79,8,-6
12370,-424,776,1848,76,8,-7
12375,-416,776,1840,74,8,-8
12380,-424,768,1856,73,9,-9
12385,-400,776,1840,74,10,-8
12390,-408,760,1864,74,9,-6
12395,-416,784,1848,75,10,-6
12400,-424,776,1824,75,9,-5
12405,-424,768,1808,73,12,-6
12410,-432,784,1824,72,12,-5
12415,-416,776,1816,72,12,-6
12420,-416,776,1832,71,13,-6
12425,-432,760,1848,69,14,-7
12430,-424,880,1840,70,12,-7
12435,-424,760,1848,69,12,-7
12440,-424,776,1840,68,11,-7
12445,-440,776,1872,66,11,-5
12450,-432,760,1872,65,10,-5
12455,-448,760,1832,65,9,-3
12460,-416,760,1840,64,9,-5
12465,-432,768,1832,66,7,-6
12470,-432,768,1832,68,8,-4
12475,-440,760,1824,70,8,-3
12480,-400,776,1776,70,10,-3
12485,-424,784,1832,72,12,-4
12490,-440,792,1824,72,12,-4
12495,-440,776,1832,69,12,-2
12500,-424,792,1832,67,12,-2
12505,-400,752,1840,65,12,-1
12510,-408,768,1816,65,13,-3
12515,-440,800,1816,66,15,-2
12520,-432,784,1848,66,16,-3
12525,-408,800,1832,65,16,-4
12530,-424,808,1832,65,16,-4
12535,-400,760,1824,65,17,-4
12540,-416,768,1840,68,16,-4
12545,-408,792,1824,67,17,-4
12550,-400,792,1824,68,18,-5
12555,-416,800,1856,68,21,-6
12560,-400,792,1856,69,21,-6
12565,-424,792,1824,67,18,-6
12570,-424,784,1864,68,18,-7
12575,-432,792,1880,68,20,-9
12580,-432,784,1824,68,14,-6
12585,-416,760,1824,68,12,-6
12590,-416,768,1832,70,12,-5
12595,-408,776,1928,71,9,-6
12600,-432,752,1824,73,10,-4
12605,-400,808,1832,76,10,-5
12610,-424,768,1816,79,12,-5
12615,-408,768,1832,82,14,-6
12620,-424,776,1832,86,13,-4
12625,-400,760,1784,88,10,-2
12630,-400,768,1824,91,12,-2
12635,-416,784,1832,92,12,-3
12640,-440,784,1808,92,14,-2
12645,-440,792,1856,91,12,-3
12650,-424,792,1800,88,11,-3
12655,-400,784,1832,86,10,-1
12660,-416,768,1824,85,9,-2
12665,-416,800,1840,83,8,-3
12670,-408,792,1840,82,11,-4
12675,-424,808,1848,80,12,-5
12680,-416,800,1816,77,12,-5
12685,-400,768,1856,76,12,-5
12690,-424,824,1840,74,12,-5
12695,-424,808,1832,73,12,-6
12700,-448,784,1824,72,10,-8
12705,-424,808,1840,70,10,-8
12710,-424,800,1824,69,13,-8
12715,-408,800,1840,67,11,-8
12720,-432,800,1840,68,12,-9
12725,-432,824,1816,69,13,-8
12730,-432,816,1816,68,12,-7
12735,-424,800,1872,68,12,-8
12740,-416,776,1832,66,12,-7
12745,-400,768,1808,65,13,-6
12750,-432,792,1832,65,11,-5
12755,-400,808,1848,65,13,-6
12760,-424,792,1800,62,13,-5
12765,-432,808,1848,62,13,-6
12770,-432,800,1848,60,11,-8
12775,-408,808,1824,57,10,-8
12780,-432,800,1848,56,10,-7
12785,-408,776,1816,56,10,-8
12790,-416,776,1816,57,9,-8
12795,-424,784,1816,56,11,-7
12800,-432,784,1824,56,13,-7
12805,-408,800,1840,55,13,-7
12810,-424,736,1816,56,12,-6
12815,-440,776,1824,57,12,-5
12820,-408,792,1864,58,12,-5
12825,-424,792,1824,61,14,-5
12830,-408,776,1824,64,15,-2
12835,-400,768,1808,66,16,-3
12840,-432,776,1864,68,16,-1
12845,-424,784,1856,69,16,-1
12850,-440,776,1824,68,17,0
12855,-424,776,1856,68,16,-1
12860,-424,808,1824,68,15,0
12865,-416,800,1832,68,15,1
12870,-424,808,1832,68,14,1
12875,-408,784,1808,67,14,2
12880,-416,800,1816,67,14,1
12885,-416,808,1808,68,14,1
12890,-392,800,1824,69,15,0
12895,-408,800,1792,69,14,-1
12900,-400,824,1840,69,12,-2
12905,-392,784,1840,71,14,-4
12910,-376,776,1800,72,16,-6
12915,-384,776,1808,70,18,-8
12920,-416,800,1792,68,20,-11
12925,-408,816,1816,68,20,-10
12930,-384,816,1848,67,20,-11
12935,-400,816,1864,67,18,-12
12940,-408,792,1800,65,19,-12
12945,-416,808,1832,67,20,-12
12950,-424,816,1840,68,21,-12
12955,-440,832,1800,72,21,-13
12960,-416,784,1840,75,19,-14
12965,-400,792,1816,74,19,-14
12970,-408,816,1800,74,18,-14
12975,-440,840,1864,72,18,-14
12980,-416,808,1880,70,19,-13
12985,-416,832,1848,65,19,-13
12990,-440,808,1840,60,17,-17
12995,-392,784,1856,54,16,-20
13000,-424,816,1840,47,15,-20
13005,-448,792,1864,42,15,-22
13010,-424,792,1848,38,16,-24
13015,-424,768,1824,38,14,-23
13020,-408,776,1800,44,12,-21
13025,-424,760,1784,52,12,-19
13030,-408,784,1808,59,16,-16
13035,-440,776,1824,63,22,-14
13040,-448,776,1800,67,21,-10
13045,-424,776,1800,70,22,-9
13050,-392,776,1840,74,22,-10
13055,-416,800,1832,77,22,-11
13060,-424,784,1816,79,22,-11
13065,-424,792,1840,82,21,-11
13070,-408,784,1824,83,20,-9
13075,-408,800,1816,83,19,-7
13080,-400,808,1832,84,19,-8
13085,-408,824,1816,84,22,-9
13090,-408,832,1816,85,22,-11
13095,-424,840,1792,84,21,-13
13100,-416,816,1816,83,21,-12
13105,-424,824,1816,83,22,-14
13110,-424,800,1824,81,21,-15
13115,-456,848,1800,80,19,-13
13120,-400,808,1840,79,18,-14
13125,-424,808,1840,79,17,-13
13130,-440,808,1824,79,15,-13
13135,-432,824,1824,77,16,-15
13140,-408,808,1840,74,14,-13
13145,-424,816,1832,72,15,-12
13150,-416,800,1840,71,14,-11
13155,-440,816,1840,68,13,-10
13160,-432,816,1808,67,13,-11
13165,-432,808,1840,68,14,-10
13170,-424,832,1808,69,13,-10
13175,-432,832,1800,66,11,-8
13180,-424,808,1800,66,12,-9
13185,-416,800,1800,63,12,-6
13190,-424,792,1840,63,11,-6
13195,-400,832,1816,64,12,-5
13200,-424,824,1800,64,13,-7
13205,-440,808,1816,63,14,-6
13210,-416,800,1848,63,15,-5
13215,-456,840,1848,64,14,-5
13220,-432,784,1824,64,11,-4
13225,-424,808,1824,64,10,-5
13230,-440,808,1800,63,9,-4
13235,-424,800,1840,61,8,-4
13240,-432,800,1848,62,8,-6
13245,-424,808,1816,63,9,-5
13250,-392,792,1816,62,11,-2
13255,-432,800,1816,66,11,-3
13260,-448,808,1816,69,11,-1
13265,-424,808,1808,70,10,-1
13270,-408,808,1808,71,9,-1
13275,-432,808,1832,73,11,1
13280,-416,800,1792,73,12,2
13285,-440,816,1808,74,11,0
13290,-408,800,1848,76,10,1
13295,-424,792,1824,78,8,1
13300,-400,792,1848,78,5,1
13305,-416,816,1840,77,1,0
13310,-400,824,1832,78,0,0
13315,-416,808,1832,80,-1,-1
13320,-400,808,1792,80,0,-3
13325,-432,832,1816,80,1,-2
13330,-416,816,1816,80,2,-2
13335,-400,808,1816,81,1,-2
13340,-416,808,1800,81,3,-5
13345,-424,816,1832,82,3,-6
13350,-424,792,1824,81,5,-6
13355,-408,776,1864,80,6,-4
13360,-432,824,1808,79,6,-5
13365,-432,840,1824,80,5,-4
13370,-416,824,1808,80,6,-4
13375,-424,816,1840,80,6,-3
13380,-432,824,1808,81,6,-4
13385,-432,832,1800,81,7,-2
13390,-416,808,1832,82,9,-4
13395,-432,816,1816,83,9,-4
13400,-440,816,1832,81,10,-1
13405,-416,792,1808,78,8,0
13410,-432,832,1840,77,8,-3
13415,-424,840,1840,77,9,-1
13420,-416,824,1816,76,9,-3
13425,-408,816,1856,73,10,-4
13430,-424,832,1848,70,7,-4
13435,-424,824,1808,69,7,-4
13440,-400,824,1808,66,7,-5
13445,-440,800,1808,65,6,-7
13450,-408,800,1824,65,6,-8
13455,-416,816,1816,64,7,-9
13460,-392,816,1808,65,10,-9
13465,-424,848,1816,66,12,-8
13470,-408,840,1848,65,12,-8
13475,-416,832,1800,65,11,-7
13480,-400,816,1808,64,12,-7
13485,-408,824,1832,63,13,-8
13490,-400,848,1824,62,13,-8
13495,-424,832,1808,61,13,-8
13500,-392,824,1824,60,12,-8
13505,-424,816,1808,58,11,-9
13510,-400,816,1800,57,10,-9
13515,-400,824,1840,56,10,-8
13520,-384,744,1824,56,10,-9
13525,-432,800,1800,55,10,-10
13530,-384,816,1824,55,10,-11
13535,-392,816,1816,57,10,-10
13540,-408,832,1800,61,10,-11
13545,-400,816,1840,60,10,-11
13550,-416,848,1800,61,11,-11
13555,-416,816,1808,62,11,-10
13560,-432,824,1792,62,9,-9
13565,-416,824,1816,64,10,-8
13570,-440,832,1816,64,11,-8
13575,-448,824,1808,64,11,-8
13580,-440,816,1832,63,11,-8
13585,-432,800,1816,62,9,-8
13590,-424,816,1808,61,10,-8
13595,-424,816,1840,59,9,-8
13600,-408,856,1816,58,9,-7
13605,-424,824,1840,57,9,-9
13610,-424,832,1808,56,8,-9
13615,-432,808,1832,55,9,-8
13620,-424,832,1848,54,9,-8
13625,-392,816,1856,53,10,-7
13630,-424,792,1824,52,9,-10
13635,-424,856,1816,51,8,-10
13640,-408,840,1816,47,8,-12
13645,-416,832,1784,46,9,-12
13650,-392,848,1832,43,7,-14
13655,-448,832,1816,39,7,-15
13660,-424,824,1840,36,6,-16
13665,-424,856,1808,34,6,-16
13670,-416,824,1808,33,5,-15
13675,-408,824,1824,32,6,-16
13680,-416,816,1816,31,8,-16
13685,-376,864,1832,31,9,-15
13690,-384,792,1832,33,9,-14
13695,-408,816,1840,34,8,-14
13700,-408,816,1824,36,9,-13
13705,-400,832,1800,36,9,-14
13710,-400,816,1840,37,8,-13
13715,-432,832,1824,38,8,-13
13720,-432,832,1840,39,9,-13
13725,-416,800,1864,38,9,-11
13730,-408,816,1816,38,9,-12
13735,-432,832,1840,37,9,-13
13740,-400,824,1824,37,10,-13
13745,-432,808,1800,36,10,-10
13750,-408,824,1840,36,8,-11
13755,-416,832,1840,35,8,-13
13760,-416,808,1832,33,7,-16
13765,-392,792,1816,33,7,-17
13770,-424,816,1848,35,9,-17
13775,-392,792,1848,36,11,-18
13780,-416,808,1840,38,12,-15
13785,-416,816,1832,40,13,-16
13790,-400,800,1832,43,13,-15
13795,-400,816,1856,43,12,-14
13800,-400,832,1840,43,13,-14
13805,-400,816,1816,43,13,-13
13810,-416,824,1824,44,11,-14
13815,-400,816,1808,45,11,-14
13820,-424,792,1800,47,11,-14
13825,-416,856,1792,49,11,-14
13830,-392,800,1816,50,13,-14
13835,-416,808,1816,49,14,-15
13840,-432,808,1832,46,13,-15
13845,-440,848,1816,43,11,-14
13850,-400,824,1864,40,11,-15
13855,-424,808,1848,37,12,-15
13860,-432,824,1824,33,11,-16
13865,-440,808,1840,31,9,-18
13870,-448,808,1824,28,9,-18
13875,-448,808,1824,27,8,-18
13880,-432,792,1800,29,6,-19
13885,-416,800,1800,37,3,-18
13890,-400,776,1808,46,0,-16
13895,-400,784,1792,54,3,-13
13900,-416,808,1784,62,6,-13
13905,-416,808,1808,64,7,-12
13910,-400,816,1800,63,5,-11
13915,-408,816,1808,63,5,-11
13920,-408,824,1840,62,5,-12
13925,-408,824,1808,62,5,-11
13930,-408,832,1832,60,5,-14
13935,-408,816,1832,60,5,-12
13940,-416,856,1808,59,6,-8
13945,-400,824,1816,57,5,-12
13950,-424,816,1816,52,6,-13
13955,-416,832,1816,48,5,-13
13960,-400,824,1816,43,4,-15
13965,-384,832,1792,40,3,-16
13970,-408,824,1784,37,3,-14
13975,-424,816,1832,35,2,-15
13980,-424,824,1800,34,3,-16
13985,-424,816,1808,33,3,-17
13990,-416,840,1816,32,3,-16
13995,-408,808,1824,31,5,-16
14000,-432,832,1864,29,4,-16
14005,-424,816,1824,26,6,-16
14010,-416,784,1832,25,8,-15
14015,-416,808,1840,24,8,-14
14020,-424,832,1832,22,7,-13
14025,-400,800,1816,22,8,-15
14030,-408,808,1808,22,7,-15
14035,-392,816,1824,21,7,-18
14040,-416,800,1808,19,6,-16
14045,-416,824,1824,16,8,-16
14050,-416,800,1800,15,7,-15
14055,-408,808,1824,15,9,-15
14060,-408,800,1872,15,9,-17
14065,-432,800,1824,13,9,-16
14070,-408,816,1824,14,9,-16
14075,-400,808,1848,12,9,-18
14080,-424,808,1808,14,10,-16
14085,-408,776,1856,15,11,-14
14090,-424,816,1864,18,11,-15
14095,-416,808,1840,22,11,-16
14100,-416,816,1816,23,11,-13
14105,-400,792,1800,26,10,-14
14110,-432,824,1784,26,12,-13
14115,-408,784,1832,27,11,-12
14120,-416,808,1848,27,12,-14
14125,-416,792,1792,27,12,-12
14130,-432,800,1848,27,12,-13
14135,-424,816,1840,27,10,-13
14140,-408,816,1800,27,10,-14
14145,-392,808,1824,24,10,-12
14150,-416,800,1824,23,10,-13
14155,-424,784,1808,25,10,-13
14160,-408,776,1808,27,11,-13
14165,-400,808,1872,29,10,-16
14170,-432,784,1824,31,10,-14
14175,-408,784,1824,32,11,-14
14180,-448,816,1832,34,13,-14
14185,-408,776,1840,35,13,-14
14190,-392,768,1856,37,13,-13
14195,-440,800,1864,37,14,-14
14200,-416,768,1824,39,14,-12
14205,-416,784,1864,39,12,-12
14210,-408,776,1840,41,11,-11
14215,-408,792,1824,41,11,-13
14220,-408,824,1808,41,11,-14
14225,-400,792,1816,40,10,-15
14230,-368,768,1840,41,13,-14
14235,-432,816,1840,40,13,-13
14240,-416,808,1824,40,12,-15
14245,-408,792,1832,39,13,-17
14250,-392,792,1840,39,12,-15
14255,-424,792,1824,39,12,-16
14260,-392,808,1840,36,12,-17
14265,-424,808,1824,34,12,-15
14270,-416,784,1816,30,13,-15
14275,-424,800,1856,28,13,-14
14280,-408,792,1816,26,13,-13
14285,-432,792,1848,23,12,-13
14290,-408,808,1808,22,11,-14
14295,-400,776,1816,22,11,-15
14300,-408,792,1848,23,12,-16
14305,-408,784,1832,25,11,-15
14310,-432,816,1848,24,11,-15
14315,-408,800,1840,23,9,-17
14320,-424,816,1840,22,9,-16
14325,-416,792,1840,20,9,-17
14330,-416,816,1832,20,10,-16
14335,-408,784,1840,18,12,-16
14340,-416,776,1816,17,12,-17
14345,-432,792,1848,17,13,-16
14350,-432,800,1840,17,14,-17
14355,-416,800,1832,15,12,-17
14360,-416,784,1808,14,12,-16
14365,-408,784,1832,14,12,-14
14370,-392,768,1840,14,13,-14
14375,-424,776,1840,15,15,-15
14380,-432,800,1840,17,14,-14
14385,-432,808,1832,17,13,-13
14390,-432,776,1816,17,11,-14
14395,-448,776,1840,16,8,-13
14400,-424,784,1872,17,9,-14
14405,-416,792,1832,17,9,-14
14410,-408,800,1832,18,10,-13
14415,-440,776,1832,20,12,-15
14420,-408,784,1840,20,14,-15
14425,-440,808,1856,21,11,-16
14430,-440,800,1840,22,10,-14
14435,-424,792,1856,19,10,-12
14440,-408,792,1816,20,10,-13
14445,-416,760,1848,19,12,-13
14450,-408,776,1848,19,11,-12
14455,-416,776,1808,19,10,-13
14460,-408,760,1840,19,8,-11
14465,-400,768,1832,21,8,-12
14470,-400,776,1840,22,8,-13
14475,-424,768,1824,26,9,-11
14480,-416,760,1848,27,7,-12
14485,-408,760,1840,30,7,-12
14490,-432,768,1824,32,7,-14
14495,-416,784,1856,32,7,-14
14500,-416,784,1856,33,6,-15
14505,-400,776,1872,33,6,-14
14510,-440,784,1864,34,6,-15
14515,-416,784,1832,32,5,-15
14520,-416,776,1824,31,5,-16
14525,-416,784,1792,31,4,-15
14530,-416,760,1856,27,4,-15
14535,-416,792,1840,25,4,-16
14540,-424,768,1848,23,4,-16
14545,-400,768,1856,22,5,-15
14550,-392,760,1848,24,5,-15
14555,-408,768,1824,33,12,-15
14560,-408,776,1816,30,12,-17
14565,-424,792,1832,25,10,-16
14570,-408,776,1848,24,10,-16
14575,-400,768,1824,26,11,-16
14580,-408,792,1856,27,11,-16
14585,-400,752,1832,28,12,-18
14590,-392,768,1848,30,12,-16
14595,-416,784,1840,32,13,-15
14600,-424,784,1816,34,15,-17
14605,-424,776,1832,34,16,-17
14610,-408,760,1824,37,17,-17
14615,-400,752,1824,37,19,-16
14620,-400,776,1832,37,20,-18
14625,-392,776,1840,38,19,-17
14630,-416,784,1832,40,20,-17
14635,-416,792,1832,43,21,-17
14640,-416,776,1864,45,22,-16
14645,-408,760,1840,47,20,-15
14650,-416,760,1864,49,21,-16
14655,-424,776,1856,47,19,-17
14660,-424,816,1856,44,18,-17
14665,-432,768,1840,41,19,-16
14670,-424,776,1848,36,19,-15
14675,-408,776,1840,34,17,-14
14680,-424,768,1856,33,17,-13
14685,-448,776,1840,33,16,-12
14690,-432,728,1864,33,14,-13
14695,-424,744,1832,33,14,-15
14700,-432,760,1864,33,14,-14
14705,-448,752,1864,35,15,-14
14710,-408,760,1848,36,15,-11
14715,-416,744,1824,38,13,-10
14720,-440,744,1808,46,9,-11
14725,-408,752,1808,55,7,-9
14730,-384,752,1800,63,6,-7
14735,-424,768,1840,67,9,-4
14740,-400,760,1808,68,11,-4
14745,-408,768,1832,67,9,-1
14750,-424,760,1848,68,8,-3
14755,-408,752,1840,70,7,-4
14760,-400,792,1824,71,8,-4
14765,-392,768,1824,72,7,-3
14770,-392,776,2016,72,8,-4
14775,-384,776,1848,71,10,-4
14780,-384,776,1848,68,9,-4
14785,-392,784,1840,64,10,-7
14790,-424,792,1824,61,9,-6
14795,-400,776,1840,60,9,-7
14800,-384,792,1872,60,8,-7
14805,-416,760,1864,61,8,-8
14810,-400,736,1848,62,7,-8
14815,-424,792,1840,62,8,-7
14820,-416,768,1864,64,9,-6
14825,-432,768,1840,65,9,-6
14830,-424,752,1840,66,11,-7
14835,-416,800,1808,66,10,-5
14840,-424,768,1848,66,10,-3
14845,-408,760,1808,64,10,-5
14850,-416,776,1848,64,10,-5
14855,-400,792,1832,62,10,-5
14860,-424,784,1840,61,11,-5
14865,-416,776,1832,58,10,-7
14870,-416,776,1832,56,11,-7
14875,-440,792,1832,53,10,-6
14880,-440,792,1848,51,8,-8
14885,-416,792,1848,50,7,-9
14890,-424,776,1848,48,7,-10
14895,-392,760,1880,47,6,-9
14900,-416,744,1832,47,5,-9
14905,-392,760,1872,46,5,-8
14910,-416,800,1848,45,6,-10
14915,-408,768,1840,48,6,-10
14920,-400,784,1824,49,8,-10
14925,-376,744,1840,49,10,-10
14930,-392,776,1832,50,11,-10
14935,-392,760,1840,51,10,-9
14940,-392,752,1832,52,10,-9
14945,-400,768,1832,54,12,-9
14950,-408,760,1808,54,13,-11
14955,-392,768,1832,54,13,-9
14960,-416,768,1824,54,13,-10
14965,-408,776,1824,55,14,-9
14970,-400,768,1864,54,13,-10
14975,-416,752,1848,55,15,-10
14980,-384,736,1840,57,15,-10
14985,-408,760,1840,58,16,-10
14990,-440,768,1824,61,15,-10
14995,-424,784,1856,65,17,-10
