timestamp,accel_x,accel_y,accel_z,gyro_x,gyro_y,gyro_z
0,176,-2032,-200,1,70,-8
5,184,-2032,-232,2,70,-7
10,192,-2064,-248,2,70,-7
15,160,-2032,-248,2,69,-7
20,184,-2040,-240,3,69,-5
25,160,-2016,-224,1,69,-5
30,176,-2024,-224,2,69,-4
35,160,-2016,-240,1,69,-5
40,192,-2040,-224,1,70,-6
45,192,-2056,-232,1,68,-5
50,176,-2048,-248,1,68,-5
55,168,-2032,-224,1,68,-6
60,168,-2040,-216,-1,69,-6
65,176,-2032,-216,2,70,-8
70,152,-2040,-224,2,69,-7
75,160,-2040,-232,3,69,-8
80,168,-2032,-248,4,70,-8
85,160,-2008,-248,7,69,-10
90,152,-2056,-232,7,68,-10
95,184,-2032,-232,10,70,-8
100,176,-2040,-232,12,71,-9
105,184,-2032,-232,13,72,-8
110,192,-2040,-224,15,72,-7
115,168,-2008,-224,18,72,-8
120,168,-2040,-216,20,73,-7
125,168,-2024,-240,20,74,-4
130,160,-2040,-208,19,73,-6
135,176,-2008,-224,19,73,-7
140,184,-2032,-224,16,74,-8
145,144,-2024,-240,16,74,-7
150,168,-2016,-224,16,72,-8
155,176,-2024,-224,15,71,-8
160,176,-2032,-216,15,72,-9
165,176,-2000,-208,15,72,-9
170,176,-2032,-208,14,72,-9
175,168,-2024,-240,12,73,-9
180,192,-2040,-232,12,73,-10
185,168,-2040,-208,11,73,-12
190,200,-2032,-216,10,73,-12
195,176,-2008,-200,10,74,-13
200,192,-2032,-208,9,74,-10
205,192,-2040,-216,10,74,-11
210,200,-2048,-240,11,75,-11
215,168,-2032,-216,10,76,-10
220,184,-2048,-232,10,77,-10
225,192,-2048,-176,11,79,-8
230,152,-2048,-216,11,78,-8
235,136,-2016,-256,12,77,-8
240,168,-2040,-208,13,77,-7
245,168,-2024,-216,13,77,-5
250,208,-2032,-192,14,76,-6
255,184,-2048,-176,16,75,-7
260,168,-2048,-208,17,75,-7
265,160,-2024,-216,19,75,-7
270,176,-2040,-208,20,74,-8
275,200,-2032,-200,21,73,-8
280,168,-2032,-224,22,73,-5
285,176,-2032,-248,23,75,-6
290,168,-2040,-192,22,76,-7
295,176,-2048,-232,21,75,-5
300,192,-2048,-184,20,75,-5
305,176,-2024,-176,20,76,-7
310,192,-2016,-208,19,76,-7
315,184,-2040,-224,18,77,-8
320,168,-2032,-232,17,79,-8
325,208,-2016,-248,17,79,-7
330,192,-2024,-224,18,79,-7
335,200,-2032,-224,17,80,-6
340,192,-2024,-264,17,82,-5
345,200,-2024,-264,20,85,-3
350,168,-1960,-288,22,86,-1
355,168,-2032,-232,25,89,1
360,168,-2024,-248,27,89,2
365,184,-2024,-200,28,90,4
370,200,-2032,-216,28,91,5
375,200,-2024,-232,29,92,3
380,184,-2040,-176,28,91,4
385,168,-2024,-224,28,89,4
390,152,-2024,-192,27,89,2
395,160,-2056,-168,30,87,4
400,224,-2040,-264,32,87,5
405,176,-2032,-184,33,87,4
410,152,-2040,-176,33,86,5
415,168,-2032,-168,31,83,2
420,168,-2008,-200,28,81,0
425,168,-2024,-200,26,80,-2
430,176,-2032,-176,21,77,-3
435,160,-2008,-184,19,76,-5
440,176,-2016,-192,15,75,-8
445,152,-2008,-192,12,74,-9
450,176,-2032,-168,9,74,-12
455,184,-2040,-184,7,75,-14
460,184,-2064,-160,6,74,-17
465,184,-2040,-192,4,76,-18
470,192,-2048,-208,4,78,-20
475,168,-2064,-176,4,79,-19
480,192,-2056,-192,6,80,-21
485,160,-2056,-168,6,79,-21
490,152,-2056,-160,10,78,-20
495,160,-2048,-160,13,79,-19
500,176,-2056,-208,14,78,-17
505,192,-2032,-168,16,77,-15
510,176,-2040,-200,16,77,-16
515,200,-2024,-192,13,76,-13
520,176,-2024,-224,11,75,-12
525,184,-2016,-200,8,77,-10
530,200,-2024,-224,6,79,-8
535,176,-2008,-192,4,82,-8
540,192,-2048,-216,3,83,-6
545,176,-2056,-192,2,86,-6
550,208,-2040,-168,4,86,-5
555,168,-2032,-152,4,90,-4
560,192,-2032,-184,4,90,-2
565,192,-2024,-168,5,92,-2
570,200,-2040,-160,5,93,0
575,192,-2032,-208,4,96,2
580,192,-2040,-184,3,98,5
585,176,-2048,-160,2,100,6
590,176,-2008,-176,1,100,8
595,192,-2048,-160,1,100,10
600,200,-2016,-176,0,98,11
605,176,-2032,-184,-1,97,13
610,200,-2032,-176,-1,93,14
615,208,-2024,-192,-2,88,14
620,208,-2040,-176,-1,83,14
625,208,-2040,-152,-3,75,11
630,216,-2048,-184,-3,69,12
635,192,-2016,-176,-3,62,11
640,208,-2032,-192,-2,55,8
645,208,-2048,-208,0,48,7
650,176,-2016,-176,3,40,5
655,216,-2016,-216,6,34,4
660,216,-2056,-216,10,26,5
665,200,-2056,-168,18,22,4
670,208,-2048,-192,25,17,5
675,208,-2056,-248,30,12,6
680,208,-2064,-208,38,9,7
685,208,-2048,-200,44,8,8
690,208,-2048,-200,50,7,8
695,216,-2056,-184,56,7,8
700,216,-2032,-216,61,7,10
705,208,-2064,-208,63,11,11
710,208,-2048,-192,64,14,12
715,208,-2024,-184,63,19,11
720,200,-2040,-184,61,24,11
725,208,-2048,-200,55,32,11
730,192,-2032,-192,52,37,11
735,184,-2032,-192,45,42,11
740,152,-2032,-192,39,47,11
745,160,-2024,-208,35,49,10
750,136,-2024,-176,28,53,8
755,120,-2016,-176,22,55,6
760,112,-2024,-168,17,58,4
765,104,-2016,-200,14,59,0
770,104,-2008,-184,10,59,-2
775,104,-2016,-184,8,60,-4
780,104,-2016,-176,4,60,-6
785,112,-2032,-152,4,62,-6
790,104,-2056,-160,1,64,-6
795,128,-2048,-160,1,67,-8
800,136,-2032,-160,2,74,-9
805,152,-2056,-176,2,81,-8
810,152,-2008,-168,4,89,-10
815,136,-2024,-144,7,95,-8
820,160,-2024,-152,8,101,-7
825,160,-2040,-160,10,108,-9
830,128,-2024,-144,13,113,-9
835,152,-2032,-152,13,116,-11
840,160,-2056,-152,15,119,-14
845,152,-2024,-152,13,120,-15
850,160,-2048,-168,11,118,-16
855,160,-2032,-160,6,116,-17
860,136,-2016,-168,2,114,-17
865,160,-2024,-168,-2,109,-19
870,160,-2032,-176,-5,104,-21
875,152,-2032,-160,-6,100,-25
880,144,-2016,-168,-6,96,-27
885,160,-2024,-168,-6,93,-33
890,144,-2024,-176,-3,88,-38
895,120,-2024,-184,-2,86,-41
900,184,-2008,-152,-1,85,-42
905,192,-2048,-168,1,82,-44
910,208,-2056,-152,3,81,-45
915,208,-2056,-200,5,82,-45
920,224,-2056,-184,7,82,-46
925,192,-2048,-192,10,85,-46
930,192,-2040,-176,14,85,-44
935,208,-2040,-184,16,84,-44
940,216,-2032,-168,17,83,-43
945,200,-2072,-176,23,80,-44
950,200,-2040,-192,24,79,-42
955,208,-2032,-184,26,78,-39
960,192,-2024,-176,27,75,-39
965,224,-2064,-176,29,73,-39
970,184,-2032,-176,30,71,-38
975,176,-2040,-160,30,69,-38
980,200,-2016,-176,31,69,-38
985,192,-2056,-216,30,69,-37
990,176,-2040,-192,31,70,-37
995,184,-2024,-160,34,72,-35
1000,208,-2032,-184,33,73,-37
1005,176,-2040,-160,36,75,-37
1010,200,-2032,-160,38,77,-37
1015,184,-2032,-160,40,79,-38
1020,208,-2032,-168,42,80,-39
1025,192,-2032,-152,44,82,-38
1030,176,-2024,-176,44,84,-39
1035,208,-2048,-144,45,84,-39
1040,224,-2032,-160,44,82,-39
1045,184,-2040,-152,43,80,-37
1050,232,-2048,-136,39,79,-36
1055,184,-2032,-152,36,79,-37
1060,200,-2056,-168,33,77,-38
1065,192,-2040,-144,30,74,-38
1070,200,-2048,-152,25,72,-37
1075,184,-2040,-160,21,68,-39
1080,184,-2024,-152,17,67,-39
1085,216,-2040,-136,15,64,-40
1090,184,-2024,-152,15,60,-42
1095,192,-2016,-168,12,57,-42
1100,192,-2040,-160,12,54,-43
1105,184,-2048,-152,13,53,-45
1110,240,-2064,-112,14,50,-46
1115,176,-2032,-152,18,48,-46
1120,168,-2040,-152,19,43,-47
1125,208,-2056,-168,19,41,-48
1130,224,-2048,-152,24,38,-50
1135,208,-2040,-192,29,37,-53
1140,232,-2032,-144,33,40,-53
1145,256,-2040,-152,37,46,-53
1150,240,-2064,-144,41,52,-52
1155,272,-2024,-160,46,62,-49
1160,264,-2040,-136,52,70,-48
1165,280,-2048,-112,53,78,-44
1170,256,-2040,-176,55,87,-43
1175,288,-2024,-160,54,93,-40
1180,248,-2024,-144,52,98,-38
1185,232,-2008,-160,49,104,-37
1190,192,-2040,-128,46,104,-36
1195,192,-2024,-128,43,107,-37
1200,200,-2024,-128,41,109,-35
1205,192,-2016,-112,39,110,-36
1210,184,-2032,-112,39,110,-36
1215,168,-2040,-120,36,108,-34
1220,208,-2056,-128,32,106,-31
1225,200,-2040,-128,29,105,-27
1230,200,-2056,-80,26,104,-25
1235,184,-2064,-112,23,105,-20
1240,232,-2072,-104,16,103,-14
1245,216,-2080,-136,9,101,-9
1250,248,-2032,-136,3,100,-3
1255,256,-2056,-144,0,96,3
1260,256,-2048,-152,-8,93,6
1265,256,-2032,-144,-14,90,11
1270,256,-2016,-120,-20,85,15
1275,256,-2048,-136,-27,84,18
1280,240,-2008,-136,-31,82,17
1285,272,-2024,-128,-32,80,17
1290,264,-2008,-120,-35,79,16
1295,224,-2008,-136,-39,75,16
1300,216,-2000,-144,-41,72,17
1305,224,-1992,-152,-42,68,19
1310,216,-1992,-168,-45,65,19
1315,184,-2000,-160,-47,61,23
1320,232,-1976,-152,-53,55,24
1325,240,-1992,-168,-58,53,25
1330,272,-1976,-152,-67,50,26
1335,224,-1992,-168,-76,51,26
1340,240,-1992,-144,-77,53,28
1345,232,-1992,-152,-74,54,35
1350,208,-2000,-152,-73,55,40
1355,240,-2008,-136,-66,56,42
1360,288,-2048,-136,-59,62,44
1365,280,-2056,-112,-50,67,46
1370,272,-2088,-104,-41,72,43
1375,272,-2112,-88,-30,76,40
1380,264,-2120,-96,-16,78,35
1385,248,-2136,-88,-3,80,27
1390,240,-2144,-104,9,80,23
1395,216,-2104,-96,17,77,16
1400,200,-2128,-112,24,75,9
1405,176,-2088,-88,30,72,3
1410,144,-2056,-96,34,66,0
1415,144,-2032,-120,38,65,-4
1420,136,-2016,-112,40,61,-3
1425,96,-1992,-152,38,63,1
1430,136,-1984,-112,36,69,5
1435,160,-1976,-144,28,75,10
1440,184,-1960,-160,17,84,12
1445,200,-1984,-176,3,92,14
1450,208,-1960,-152,-10,99,13
1455,240,-2000,-160,-24,103,11
1460,240,-2024,-112,-36,110,10
1465,232,-2024,-128,-45,115,9
1470,216,-2064,-152,-52,120,8
1475,232,-2048,-152,-56,120,10
1480,216,-2088,-160,-58,120,11
1485,200,-2056,-160,-61,115,11
1490,168,-2072,-192,-63,110,11
1495,176,-2048,-208,-66,100,12
1500,160,-2032,-192,-66,90,12
1505,168,-2040,-192,-66,84,12
1510,152,-2000,-248,-67,77,11
1515,192,-2008,-232,-66,70,11
1520,168,-2008,-264,-65,64,10
1525,192,-2016,-240,-67,60,8
1530,200,-2008,-248,-69,58,7
1535,208,-2040,-216,-70,57,5
1540,216,-2032,-184,-67,56,5
1545,240,-2096,-200,-60,58,5
1550,224,-2064,-208,-55,59,5
1555,200,-2064,-216,-48,60,2
1560,224,-2056,-176,-40,58,5
1565,208,-2072,-168,-31,57,5
1570,192,-2056,-168,-22,53,9
1575,176,-2064,-160,-16,50,10
1580,136,-2048,-184,-11,44,10
1585,176,-2024,-152,-7,41,12
1590,176,-2040,-160,-3,35,16
1595,176,-2008,-168,1,31,16
1600,184,-2016,-144,1,30,17
1605,184,-2000,-160,1,31,16
1610,216,-2016,-152,0,31,16
1615,200,-1984,-136,-5,34,12
1620,192,-2000,-128,-10,39,12
1625,192,-2008,-152,-13,43,9
1630,184,-2032,-128,-16,48,7
1635,216,-2040,-136,-15,52,5
1640,200,-2056,-136,-15,57,4
1645,176,-2056,-152,-10,61,2
1650,184,-2064,-152,-8,62,2
1655,200,-2088,-120,-3,63,1
1660,152,-2056,-144,4,66,0
1665,192,-2072,-152,12,63,-1
1670,168,-2048,-152,20,62,-2
1675,176,-2064,-152,26,60,-4
1680,176,-2088,-136,33,59,-7
1685,184,-2048,-128,38,57,-10
1690,184,-2040,-152,43,55,-12
1695,168,-2040,-144,45,55,-11
1700,192,-2032,-160,48,55,-12
1705,160,-2064,-136,52,55,-11
1710,208,-2072,-152,54,53,-9
1715,176,-2056,-160,56,54,-6
1720,200,-2056,-152,61,54,-5
1725,184,-2072,-152,64,54,-3
1730,224,-2064,-152,66,53,-1
1735,200,-2064,-160,69,51,0
1740,208,-2064,-160,69,51,2
1745,208,-2040,-152,69,51,5
1750,232,-2056,-152,70,50,7
1755,216,-2040,-168,71,50,9
1760,208,-2048,-152,70,50,11
1765,200,-2040,-128,69,49,9
1770,200,-2040,-104,69,51,11
1775,216,-2072,-152,68,52,11
1780,200,-2048,-160,65,52,12
1785,208,-2064,-152,64,53,12
1790,208,-2064,-144,65,53,12
1795,208,-2040,-136,67,56,10
1800,192,-2032,-120,70,57,11
1805,208,-2024,-120,73,58,10
1810,200,-2032,-144,74,61,9
1815,192,-2040,-152,77,63,9
1820,200,-2048,-120,79,65,8
1825,176,-2040,-120,79,68,8
1830,200,-2040,-136,80,70,9
1835,200,-2032,-144,78,72,8
1840,200,-2016,-120,78,72,9
1845,200,-2032,-104,78,75,9
1850,184,-2016,-96,76,78,10
1855,192,-2016,-136,75,81,11
1860,208,-2040,-128,74,82,13
1865,216,-2032,-136,76,85,14
1870,192,-2048,-152,76,88,15
1875,176,-2024,-128,76,91,16
1880,184,-2008,-128,77,93,15
1885,200,-2040,-144,79,98,17
1890,200,-2040,-152,83,103,18
1895,192,-2048,-144,86,107,19
1900,192,-2048,-144,91,112,19
1905,200,-2056,-152,97,116,18
1910,216,-2056,-144,104,118,20
1915,200,-2056,-160,114,121,21
1920,200,-2040,-128,127,122,22
1925,208,-2032,-128,136,126,23
1930,200,-2016,-144,147,129,24
1935,176,-2008,-136,154,130,26
1940,200,-1992,-144,160,129,24
1945,200,-2016,-128,165,129,23
1950,192,-2040,-128,172,128,19
1955,184,-2080,-88,182,134,16
1960,184,-2088,-144,198,143,14
1965,176,-2128,-160,224,154,14
1970,192,-2160,-168,266,168,13
1975,184,-2224,-200,329,179,16
1980,288,-2200,-264,417,187,23
1985,232,-2312,-184,527,193,33
1990,240,-2384,-168,657,194,46
1995,264,-2408,-152,808,186,69
2000,248,-2416,-64,963,175,93
2005,232,-2384,0,1105,167,120
2010,240,-2336,24,1211,159,142
2015,240,-2280,80,1286,153,160
2020,208,-2072,64,1310,149,167
2025,136,-1824,104,1254,135,154
2030,160,-1736,80,1130,115,144
2035,160,-1704,104,974,96,131
2040,144,-1648,80,804,78,115
2045,136,-1632,48,638,65,92
2050,104,-1656,56,495,60,74
2055,136,-1736,8,394,61,60
2060,128,-1816,48,326,72,45
2065,136,-1880,72,284,84,37
2070,88,-1960,128,263,96,28
2075,104,-1992,152,248,107,22
2080,128,-2008,144,241,113,18
2085,120,-2048,168,237,116,18
2090,144,-2072,208,236,114,18
2095,152,-2072,192,236,109,18
2100,176,-2064,184,234,103,19
2105,176,-2016,208,231,95,19
2110,160,-2008,176,227,86,18
2115,152,-1984,184,220,77,17
2120,152,-1968,208,208,70,14
2125,152,-1976,200,193,64,11
2130,160,-1944,184,175,59,8
2135,168,-1968,192,155,58,5
2140,144,-1952,208,136,60,3
2145,144,-1976,208,117,61,1
2150,120,-1992,184,106,65,0
2155,120,-2024,208,102,71,0
2160,136,-2080,160,109,82,3
2165,128,-2112,144,126,92,4
2170,152,-2136,152,154,100,5
2175,192,-2200,160,194,101,9
2180,184,-2200,176,245,98,12
2185,200,-2216,192,297,93,15
2190,176,-2176,192,344,89,16
2195,144,-2152,224,376,83,20
2200,160,-2144,216,411,78,23
2205,144,-2136,184,431,76,27
2210,160,-2072,136,434,74,27
2215,160,-2072,168,421,73,26
2220,176,-2032,160,399,70,24
2225,160,-1992,144,374,65,24
2230,144,-2016,192,357,60,22
2235,144,-1976,200,341,55,23
2240,144,-1984,240,323,48,19
2245,144,-1976,240,301,45,19
2250,136,-1976,224,281,41,16
2255,120,-1992,256,264,39,16
2260,136,-1984,232,249,35,16
2265,136,-2008,264,239,31,16
2270,136,-2008,264,232,25,14
2275,144,-2000,264,225,23,15
2280,120,-2008,256,218,19,13
2285,128,-2008,264,211,15,12
2290,112,-1992,256,201,12,11
2295,128,-2016,248,190,12,7
2300,144,-2000,256,180,10,6
2305,152,-1992,344,173,9,7
2310,168,-2008,264,166,11,7
2315,136,-2000,256,163,9,9
2320,144,-2016,264,163,13,9
2325,168,-2000,264,166,13,9
2330,168,-1992,264,166,16,8
2335,168,-1992,248,170,20,11
2340,192,-1992,272,175,25,11
2345,200,-2016,280,182,32,12
2350,200,-1992,288,188,40,12
2355,216,-1984,256,195,48,12
2360,192,-1944,264,199,54,12
2365,208,-1976,288,200,58,13
2370,256,-1984,296,199,62,14
2375,248,-1992,256,194,64,13
2380,240,-1984,296,189,68,11
2385,200,-1968,280,185,71,10
2390,200,-1976,288,180,76,10
2395,184,-2000,280,175,79,10
2400,192,-1992,296,171,82,10
2405,176,-1992,264,167,84,10
2410,176,-2016,296,165,88,9
2415,152,-2016,328,164,93,10
2420,168,-1984,280,163,97,11
2425,168,-2032,272,163,102,12
2430,168,-2016,288,163,104,12
2435,168,-2024,320,162,103,14
2440,184,-2032,288,162,101,13
2445,176,-2056,352,159,100,15
2450,168,-2032,320,160,100,16
2455,144,-2024,288,160,102,16
2460,152,-2024,320,155,99,16
2465,184,-2032,328,148,94,17
2470,176,-2024,328,150,94,18
2475,144,-2032,320,153,91,18
2480,152,-2040,328,156,89,18
2485,136,-2064,360,160,88,22
2490,144,-2040,312,169,87,25
2495,112,-2024,328,178,88,28
2500,144,-2056,328,187,91,34
2505,120,-2040,352,196,94,38
2510,128,-2024,344,200,96,41
2515,136,-1992,344,197,99,45
2520,152,-1992,336,189,98,51
2525,120,-1936,336,176,96,52
2530,128,-1952,336,154,90,53
2535,112,-1944,328,133,89,55
2540,136,-1920,368,115,85,55
2545,120,-1936,360,100,84,52
2550,136,-1960,368,84,82,49
2555,128,-1952,376,68,84,47
2560,104,-1960,352,52,84,44
2565,152,-1984,352,38,85,41
2570,128,-1984,360,28,87,35
2575,152,-1984,400,24,87,37
2580,136,-2008,384,20,90,35
2585,128,-1992,368,15,94,39
2590,128,-2008,352,9,97,41
2595,144,-2032,376,5,99,42
2600,160,-2032,384,5,99,44
2605,120,-2048,384,11,99,42
2610,104,-2024,416,20,96,45
2615,136,-2024,392,40,89,48
2620,120,-2024,384,63,81,50
2625,120,-2024,392,78,77,48
2630,112,-1976,384,82,69,45
2635,152,-1960,360,86,58,43
2640,144,-1960,376,83,52,41
2645,112,-1896,392,74,49,42
2650,136,-1920,304,57,38,36
2655,144,-1920,336,36,34,31
2660,136,-1920,296,15,35,28
2665,144,-1928,288,-6,38,28
2670,136,-1976,336,-24,43,27
2675,136,-2000,328,-27,49,29
2680,168,-2064,352,-19,55,32
2685,144,-2040,376,-7,58,34
2690,136,-2056,392,10,57,36
2695,136,-2096,368,39,59,41
2700,104,-2072,320,65,60,47
2705,104,-2072,368,88,63,49
2710,128,-2040,360,108,65,50
2715,96,-2024,360,120,66,50
2720,112,-2000,344,126,62,49
2725,96,-1992,336,131,57,46
2730,128,-2008,320,138,56,45
2735,104,-1992,336,147,54,44
2740,128,-2048,320,162,52,45
2745,128,-2000,368,179,54,46
2750,104,-2000,376,192,52,52
2755,112,-1984,384,199,48,57
2760,112,-1976,360,198,45,58
2765,112,-1968,360,190,46,59
2770,104,-1920,352,176,47,58
2775,136,-1920,352,159,46,60
2780,120,-1888,328,134,41,58
2785,136,-1904,296,104,37,55
2790,136,-1912,280,82,39,52
2795,112,-1928,272,73,40,50
2800,168,-1984,312,71,43,51
2805,112,-1984,352,78,49,52
2810,112,-1984,360,91,58,53
2815,104,-2016,352,106,66,56
2820,104,-1992,344,112,67,59
2825,96,-1984,344,113,64,59
2830,80,-1976,336,112,58,56
2835,88,-1976,352,108,52,56
2840,64,-1984,368,110,49,59
2845,56,-2000,400,119,48,60
2850,80,-1984,432,136,50,60
2855,48,-2016,424,159,58,60
2860,32,-2008,432,178,65,61
2865,32,-1992,456,197,71,62
2870,32,-1984,448,210,74,60
2875,40,-1984,440,223,76,58
2880,80,-1976,440,233,79,54
2885,72,-1944,440,240,81,50
2890,48,-1944,400,239,83,52
2895,96,-1960,408,236,86,52
2900,96,-1944,424,230,89,52
2905,104,-1952,424,225,91,51
2910,88,-1968,440,222,92,47
2915,80,-1976,456,218,93,47
2920,96,-1992,456,211,92,46
2925,96,-2000,448,202,88,43
2930,104,-1992,440,189,81,36
2935,104,-2000,432,178,76,31
2940,96,-2000,456,174,73,30
2945,88,-2032,472,178,71,33
2950,96,-2032,480,185,65,31
2955,80,-2000,528,195,60,28
2960,64,-2008,512,204,55,28
2965,96,-2008,480,216,51,29
2970,80,-1992,496,223,51,30
2975,112,-1976,472,229,52,26
2980,96,-1960,504,232,54,24
2985,72,-1968,496,232,54,23
2990,88,-1976,504,234,56,22
2995,88,-1968,528,236,62,21
3000,80,-1968,496,235,66,21
3005,88,-1960,512,230,71,22
3010,72,-1952,512,222,76,19
3015,80,-1952,488,217,82,18
3020,64,-1936,488,213,88,18
3025,80,-1952,512,211,91,19
3030,48,-1952,504,210,91,19
3035,88,-1968,520,211,88,20
3040,64,-1984,536,213,83,23
3045,48,-1968,552,219,75,23
3050,88,-2000,560,225,71,22
3055,72,-1984,560,229,71,22
3060,40,-1992,536,230,73,20
3065,64,-1976,584,228,74,17
3070,72,-1960,552,230,76,16
3075,72,-1976,608,228,77,14
3080,64,-1944,592,225,73,9
3085,64,-1936,536,222,66,6
3090,80,-1904,544,216,58,6
3095,72,-1912,576,210,51,7
3100,72,-1888,552,209,47,6
3105,72,-1912,592,206,46,6
3110,64,-1896,576,204,44,8
3115,48,-1888,560,201,43,11
3120,64,-1872,552,192,41,11
3125,80,-1880,544,183,37,9
3130,80,-1904,576,178,36,7
3135,96,-1888,584,178,36,8
3140,56,-1920,608,184,36,8
3145,48,-1944,608,193,37,8
3150,64,-1968,608,203,33,10
3155,80,-1968,632,212,30,9
3160,64,-1960,632,221,30,7
3165,72,-1976,576,227,26,5
3170,72,-1960,552,229,26,6
3175,56,-1952,584,225,32,8
3180,80,-1920,560,220,39,14
3185,112,-1920,568,214,44,17
3190,96,-1920,576,208,44,16
3195,104,-1928,632,201,40,14
3200,56,-1880,640,196,35,13
3205,72,-1904,624,192,31,10
3210,72,-1936,656,193,25,14
3215,88,-1952,672,196,24,14
3220,96,-1960,648,200,18,11
3225,88,-1944,648,205,16,9
3230,112,-1944,680,207,14,4
3235,88,-1912,664,208,14,4
3240,104,-1904,616,206,14,6
3245,104,-1904,656,200,16,7
3250,128,-1896,616,191,16,5
3255,120,-1904,656,186,16,4
3260,104,-1912,664,179,18,4
3265,88,-1904,664,175,21,5
3270,112,-1960,736,173,25,8
3275,96,-1936,704,173,34,12
3280,96,-1920,728,171,42,11
3285,160,-1920,768,169,45,13
3290,96,-1928,752,170,49,15
3295,80,-1936,696,169,49,15
3300,88,-1896,688,172,49,19
3305,112,-1904,704,175,50,23
3310,144,-1912,688,172,55,26
3315,72,-1920,696,170,57,26
3320,88,-1880,712,170,58,29
3325,56,-1904,760,168,59,32
3330,72,-1912,752,165,58,30
3335,80,-1880,712,164,61,27
3340,56,-1904,760,164,60,22
3345,88,-1912,736,167,59,20
3350,48,-1904,752,168,60,19
3355,56,-1920,744,163,60,20
3360,32,-1904,728,160,61,19
3365,64,-1904,744,157,59,21
3370,56,-1888,712,153,57,23
3375,80,-1896,736,153,54,26
3380,104,-1880,720,151,56,22
3385,80,-1888,728,147,51,16
3390,96,-1896,728,150,52,17
3395,96,-1880,752,156,54,17
3400,72,-1872,760,154,55,14
3405,72,-1912,736,155,56,10
3410,88,-1912,736,159,62,9
3415,96,-1936,696,164,66,11
3420,64,-1888,720,169,71,13
3425,96,-1880,712,171,74,11
3430,96,-1880,720,167,73,9
3435,64,-1840,736,163,72,8
3440,104,-1848,736,159,72,9
3445,64,-1840,736,152,72,9
3450,40,-1848,752,152,72,6
3455,48,-1840,736,151,73,6
3460,56,-1856,688,147,73,7
3465,56,-1856,728,144,72,3
3470,40,-1856,720,144,70,-2
3475,32,-1864,736,143,66,-4
3480,48,-1896,688,141,64,-4
3485,64,-1912,752,138,61,-5
3490,56,-1888,752,139,56,-6
3495,40,-1888,736,140,56,-7
3500,64,-1928,760,142,55,-6
3505,64,-1912,768,143,55,-4
3510,72,-1920,760,146,57,-4
3515,80,-1896,776,149,59,-5
3520,64,-1896,744,150,61,-4
3525,80,-1896,720,154,63,-2
3530,56,-1880,744,157,68,-3
3535,80,-1880,728,160,71,-2
3540,72,-1880,752,161,73,-2
3545,120,-1864,752,160,78,-2
3550,80,-1872,768,156,80,-3
3555,128,-1856,776,152,82,-5
3560,104,-1856,768,150,83,-7
3565,80,-1864,760,149,87,-6
3570,88,-1840,784,147,90,-5
3575,88,-1864,776,145,92,-6
3580,72,-1880,776,145,96,-6
3585,64,-1840,816,145,99,-7
3590,80,-1888,824,147,98,-8
3595,56,-1912,832,149,94,-9
3600,80,-1912,816,151,91,-9
3605,72,-1888,800,154,90,-8
3610,40,-1872,880,157,89,-8
3615,64,-1880,816,161,87,-6
3620,56,-1896,808,163,88,-6
3625,40,-1880,816,162,89,-6
3630,64,-1864,816,162,88,-7
3635,64,-1848,832,160,87,-8
3640,64,-1864,824,158,88,-6
3645,64,-1832,808,157,90,-6
3650,88,-1848,824,157,89,-6
3655,96,-1880,824,156,91,-7
3660,96,-1864,832,157,93,-7
3665,72,-1864,848,159,95,-6
3670,72,-1832,872,163,97,-5
3675,48,-1872,864,167,94,-3
3680,96,-1856,824,169,94,-2
3685,80,-1872,816,168,96,-1
3690,64,-1840,840,165,98,-3
3695,80,-1848,864,168,98,-3
3700,96,-1848,864,174,96,-7
3705,64,-1856,872,180,94,-9
3710,96,-1848,864,182,92,-8
3715,96,-1856,872,182,93,-5
3720,120,-1808,872,178,98,-5
3725,112,-1808,848,174,99,-10
3730,112,-1824,840,171,99,-11
3735,96,-1840,848,168,103,-8
3740,72,-1816,840,167,104,-4
3745,88,-1840,856,165,105,-2
3750,88,-1840,856,166,104,-1
3755,88,-1848,840,169,106,1
3760,56,-1832,832,170,108,2
3765,64,-1816,832,171,107,5
3770,56,-1808,832,172,107,7
3775,32,-1776,792,171,106,7
3780,64,-1784,808,169,105,10
3785,72,-1768,816,164,104,9
3790,40,-1800,832,162,102,9
3795,96,-1824,856,164,97,7
3800,72,-1840,840,169,95,6
3805,80,-1824,816,171,95,5
3810,56,-1840,824,175,92,4
3815,72,-1848,840,178,87,5
3820,80,-1840,832,180,85,5
3825,96,-1880,800,181,85,6
3830,96,-1848,808,178,82,8
3835,120,-1848,800,175,83,7
3840,120,-1840,816,173,86,8
3845,96,-1832,848,175,91,11
3850,88,-1840,864,178,93,11
3855,88,-1840,848,184,92,14
3860,96,-1864,888,192,93,14
3865,88,-1872,832,203,95,13
3870,88,-1848,832,207,97,15
3875,80,-1808,840,207,96,14
3880,88,-1840,832,207,99,14
3885,72,-1864,832,208,100,13
3890,80,-1864,848,214,105,12
3895,72,-1848,856,221,106,10
3900,72,-1856,880,226,110,10
3905,40,-1824,872,231,114,10
3910,64,-1848,856,236,115,13
3915,80,-1832,840,240,113,11
3920,64,-1808,832,241,111,10
3925,48,-1768,864,242,108,11
3930,72,-1792,864,245,104,10
3935,16,-1816,864,248,97,10
3940,32,-1800,840,252,92,8
3945,40,-1792,864,253,89,7
3950,16,-1792,896,259,90,4
3955,24,-1800,904,266,89,4
3960,8,-1824,936,275,87,2
3965,32,-1832,888,283,83,3
3970,32,-1824,856,289,80,3
3975,32,-1784,880,294,82,3
3980,64,-1784,896,299,84,4
3985,80,-1776,896,303,87,6
3990,72,-1768,920,309,87,5
3995,72,-1792,896,314,87,5
4000,80,-1768,888,320,90,7
4005,80,-1760,912,327,92,7
4010,64,-1760,920,331,94,9
4015,56,-1768,920,336,93,11
4020,80,-1768,912,340,93,11
4025,72,-1776,944,343,93,10
4030,88,-1776,904,347,97,10
4035,80,-1760,920,350,98,11
4040,56,-1760,920,353,104,11
4045,72,-1752,944,357,107,12
4050,80,-1728,968,361,107,11
4055,72,-1768,976,368,107,11
4060,64,-1776,944,371,107,11
4065,64,-1760,944,379,107,12
4070,72,-1776,944,385,106,11
4075,56,-1776,968,390,107,10
4080,48,-1768,968,397,105,9
4085,40,-1752,960,408,103,9
4090,80,-1752,936,418,103,10
4095,72,-1704,1000,426,105,10
4100,88,-1728,944,433,103,12
4105,80,-1728,904,438,100,12
4110,64,-1720,944,441,99,13
4115,96,-1728,976,442,100,11
4120,48,-1720,984,447,104,11
4125,80,-1712,976,453,103,10
4130,56,-1744,992,457,104,8
4135,72,-1720,1000,461,104,7
4140,56,-1728,992,467,107,6
4145,40,-1720,992,481,109,6
4150,56,-1744,1016,493,109,7
4155,40,-1744,952,502,109,6
4160,56,-1688,984,512,108,6
4165,40,-1712,1008,524,107,6
4170,56,-1720,968,537,108,8
4175,88,-1736,1000,549,111,9
4180,32,-1736,1000,559,111,12
4185,96,-1728,1040,566,111,16
4190,104,-1712,1032,574,110,11
4195,48,-1664,1024,582,107,4
4200,48,-1656,992,589,105,0
4205,56,-1680,1016,597,102,3
4210,40,-1664,1024,605,102,6
4215,48,-1664,1016,611,103,6
4220,16,-1664,1024,622,101,2
4225,8,-1656,1024,636,96,-1
4230,16,-1664,1008,650,95,-3
4235,40,-1632,1000,663,96,-4
4240,16,-1632,1008,672,97,-6
4245,64,-1608,1040,680,94,1
4250,32,-1608,1024,688,97,6
4255,40,-1640,1064,696,100,9
4260,24,-1616,1104,705,100,13
4265,32,-1640,1048,714,99,12
4270,40,-1648,1040,722,99,14
4275,80,-1632,1000,732,99,15
4280,56,-1632,1016,745,103,20
4285,40,-1616,1040,752,108,24
4290,24,-1600,1024,764,93,18
4295,64,-1592,1016,787,90,16
4300,72,-1624,1016,801,90,17
4305,32,-1608,1008,816,95,19
4310,32,-1640,1040,832,101,22
4315,40,-1632,1056,850,106,24
4320,72,-1664,1032,869,101,22
4325,24,-1616,1072,890,95,18
4330,40,-1600,1016,908,90,17
4335,48,-1584,1016,924,88,18
4340,64,-1544,1000,937,85,17
4345,56,-1568,1040,955,86,17
4350,56,-1528,1016,980,88,14
4355,56,-1544,1024,1005,92,11
4360,56,-1552,1064,1030,95,10
4365,24,-1552,1072,1054,96,9
4370,24,-1552,1024,1076,96,5
4375,40,-1536,920,1099,99,14
4380,32,-1520,1016,1119,91,14
4385,24,-1472,1000,1146,86,13
4390,8,-1472,1000,1168,92,19
4395,8,-1512,1040,1193,101,22
4400,48,-1512,1016,1223,106,31
4405,8,-1504,1024,1253,105,32
4410,8,-1504,1032,1280,101,34
4415,64,-1480,1016,1308,94,38
4420,64,-1392,1016,1322,81,28
4425,64,-1384,992,1332,67,18
4430,56,-1352,968,1345,64,18
4435,88,-1336,984,1363,74,22
4440,112,-1272,1032,1388,87,22
4445,96,-1256,1032,1410,94,17
4450,112,-1224,1056,1429,101,15
4455,80,-1168,1104,1447,108,16
4460,88,-1168,1064,1465,115,17
4465,120,-1176,1000,1480,117,19
4470,136,-1104,1000,1483,115,18
4475,136,-1040,1024,1472,117,17
4480,128,-1040,1072,1456,121,17
4485,120,-1040,1120,1448,127,16
4490,96,-976,1088,1451,129,10
4495,128,-1016,1072,1453,129,2
4500,96,-968,1064,1448,131,-5
4505,48,-968,1088,1444,133,-8
4510,32,-976,1056,1445,142,-5
4515,16,-960,1016,1448,155,2
4520,24,-960,1008,1446,173,9
4525,24,-936,984,1443,181,18
4530,0,-928,952,1439,181,20
4535,-8,-928,976,1436,177,23
4540,8,-936,928,1441,174,21
4545,0,-944,880,1445,164,24
4550,8,-944,856,1446,160,28
4555,8,-888,840,1442,160,29
4560,0,-824,880,1429,158,25
4565,0,-768,856,1408,144,16
4570,-16,-688,792,1384,125,7
4575,-104,-536,688,1362,109,3
4580,-168,-408,664,1321,97,15
4585,-160,-264,608,1260,89,40
4590,-40,-120,576,1204,100,59
4595,8,0,360,1147,134,65
4600,-80,64,312,1059,164,79
4605,0,120,392,958,162,91
4610,192,128,456,911,163,79
4615,288,160,384,924,173,44
4620,352,400,232,962,163,-45
4625,424,464,240,947,183,-98
4630,272,512,288,887,258,-113
4635,272,440,296,799,318,-115
4640,320,280,232,716,375,-117
4645,352,136,136,673,427,-120
4650,352,64,-56,666,452,-122
4655,224,80,-192,675,460,-124
4660,24,144,-216,677,454,-120
4665,-96,184,-200,678,432,-112
4670,-80,312,-200,692,417,-103
4675,-32,360,-176,717,420,-97
4680,-80,368,-136,750,446,-89
4685,-360,448,104,772,470,-73
4690,-496,424,696,775,461,-37
4695,-424,352,728,784,433,7
4700,-264,192,920,790,384,7
4705,-208,120,1320,796,361,-23
4710,120,72,1656,870,366,-39
4715,408,72,2152,939,387,-58
4720,-16,40,2768,998,445,-55
4725,-352,-152,3512,1023,521,-21
4730,-56,-504,4320,1045,597,46
4735,64,-920,5592,1080,713,135
4740,-288,-1328,7448,1125,815,196
4745,-448,-1608,9816,1162,832,211
4750,-768,-1912,12824,1166,794,193
4755,-1256,-2072,14800,1176,725,188
4760,-1120,-2008,14024,1204,671,251
4765,-192,-1352,11560,1068,704,329
4770,656,-424,9208,740,725,359
4775,1000,376,7672,470,735,284
4780,744,1144,6568,630,739,104
4785,-272,1544,5440,1207,728,-5
4790,-1128,1456,4104,1895,573,113
4795,-1536,1112,3256,2357,316,355
4800,-1552,520,3296,2494,96,588
4805,-1424,-72,3504,2459,-11,749
4810,-1360,-664,3696,2336,-53,833
4815,-1104,-1592,3024,2182,-158,845
4820,-752,-2448,1664,2017,-275,777
4825,-456,-2992,608,1785,-304,663
4830,-200,-3208,256,1502,-238,518
4835,-16,-2992,128,1240,-107,330
4840,112,-2304,264,1057,45,148
4845,336,-1744,360,1034,186,38
4850,608,-1168,360,1129,320,0
4855,776,-504,464,1234,449,-21
4860,824,88,608,1250,537,-45
4865,752,552,832,1155,578,-58
4870,664,952,1000,995,591,-43
4875,584,1224,1144,805,595,-11
4880,480,1424,1216,597,597,25
4885,336,1416,1184,407,599,55
4890,208,1336,1080,271,604,79
4895,144,1112,968,201,614,104
4900,168,888,808,202,648,148
4905,112,672,704,234,706,182
4910,24,440,672,261,755,201
4915,-40,248,696,263,776,211
4920,-200,144,688,246,778,215
4925,-192,64,776,219,778,221
4930,-272,80,848,181,779,234
4935,-400,200,928,120,786,252
4940,-512,328,1056,29,801,268
4945,-584,464,1136,-103,804,282
4950,-656,576,1240,-265,778,292
4955,-656,656,1392,-439,721,307
4960,-656,720,1536,-601,631,317
4965,-640,840,1720,-747,517,316
4970,-608,888,1808,-870,397,307
4975,-528,944,1896,-976,296,290
4980,-448,1016,1904,-1063,229,264
4985,-376,1072,1904,-1124,195,237
4990,-320,1104,1888,-1159,191,216
4995,-328,1168,1896,-1175,198,207
5000,-288,1160,1880,-1172,195,209
5005,-240,1168,1896,-1163,182,203
5010,-208,1144,1904,-1165,164,181
5015,-152,1096,1896,-1174,144,144
5020,-176,1016,1904,-1192,134,104
5025,-280,872,1904,-1228,135,68
5030,-336,680,1928,-1280,148,40
5035,-440,504,1968,-1338,175,29
5040,-512,256,2032,-1402,207,29
5045,-592,88,2064,-1463,231,45
5050,-608,-80,2088,-1528,227,61
5055,-616,-192,2152,-1585,202,70
5060,-640,-240,2168,-1612,169,67
5065,-656,-208,2200,-1614,129,63
5070,-584,-224,2272,-1605,57,66
5075,-520,-184,2344,-1549,-23,63
5080,-480,-136,2344,-1451,-72,66
5085,-512,-112,2424,-1344,-103,64
5090,-488,-120,2432,-1219,-125,58
5095,-448,-224,2472,-1098,-140,40
5100,-360,-352,2416,-1001,-156,8
5105,-416,-504,2392,-943,-154,-38
5110,-448,-688,2368,-905,-131,-67
5115,-504,-856,2288,-847,-106,-88
5120,-536,-944,2232,-781,-75,-111
5125,-624,-944,2200,-714,-37,-129
5130,-648,-976,2144,-650,7,-133
5135,-744,-888,2080,-600,63,-133
5140,-744,-760,2008,-553,129,-116
5145,-760,-712,2024,-480,194,-93
5150,-752,-648,2008,-377,251,-70
5155,-656,-552,1984,-261,297,-46
5160,-616,-512,1960,-156,342,-26
5165,-560,-520,1968,-61,387,-7
5170,-488,-496,1936,15,425,8
5175,-512,-480,1896,69,468,18
5180,-464,-456,1888,101,505,24
5185,-432,-448,1808,114,535,19
5190,-400,-448,1784,113,561,12
5195,-400,-440,1752,100,579,5
5200,-424,-408,1688,82,590,0
5205,-408,-392,1696,63,590,-4
5210,-384,-344,1720,41,579,-7
5215,-368,-312,1752,21,563,-9
5220,-352,-272,1776,12,530,-12
5225,-304,-208,1760,10,477,-21
5230,-312,-192,1784,10,425,-25
5235,-280,-136,1792,15,367,-29
5240,-240,-128,1824,14,305,-28
5245,-280,-48,1832,9,249,-30
5250,-200,-88,1880,-3,208,-30
5255,-216,-64,1896,-25,182,-32
5260,-208,-80,1896,-62,167,-36
5265,-216,-72,1960,-106,160,-44
5270,-248,-88,1952,-144,150,-53
5275,-264,-104,1968,-181,134,-64
5280,-280,-144,1928,-216,113,-81
5285,-336,-144,1896,-251,91,-97
5290,-344,-200,1904,-279,70,-114
5295,-408,-216,1840,-301,50,-126
5300,-432,-216,1800,-308,32,-137
5305,-472,-232,1800,-306,17,-149
5310,-504,-248,1816,-296,3,-159
5315,-512,-256,1808,-281,-6,-169
5320,-560,-304,1832,-263,-14,-180
5325,-568,-304,1848,-252,-18,-189
5330,-552,-320,1856,-252,-20,-196
5335,-536,-352,1864,-261,-27,-202
5340,-512,-400,1864,-269,-36,-209
5345,-480,-432,1840,-265,-48,-213
5350,-424,-496,1816,-240,-56,-206
5355,-368,-520,1792,-194,-58,-188
5360,-368,-488,1736,-132,-61,-170
5365,-304,-520,1712,-61,-78,-154
5370,-352,-512,1704,8,-101,-149
5375,-360,-464,1720,62,-106,-146
5380,-408,-472,1720,86,-76,-146
5385,-464,-488,1808,92,-13,-139
5390,-528,-536,1864,69,60,-136
5395,-568,-568,1872,24,125,-132
5400,-608,-592,1920,-32,176,-128
5405,-632,-576,1984,-81,217,-121
5410,-640,-552,2008,-121,243,-112
5415,-648,-584,2008,-155,262,-101
5420,-624,-600,2000,-183,273,-84
5425,-672,-592,2000,-195,267,-63
5430,-656,-608,1968,-193,245,-41
5435,-640,-616,1944,-188,216,-24
5440,-640,-640,1920,-179,194,-11
5445,-616,-688,1880,-165,165,10
5450,-632,-680,1864,-134,135,35
5455,-632,-704,1824,-84,103,54
5460,-656,-728,1808,-19,71,71
5465,-616,-752,1800,48,37,78
5470,-600,-776,1760,106,6,80
5475,-592,-808,1768,159,-16,81
5480,-600,-800,1760,205,-29,86
5485,-576,-832,1776,250,-39,94
5490,-560,-808,1800,286,-40,101
5495,-512,-792,1808,308,-39,107
5500,-520,-776,1816,317,-37,114
5505,-512,-712,1832,309,-34,118
5510,-488,-680,1832,290,-37,122
5515,-480,-616,1864,258,-45,121
5520,-480,-592,1832,221,-52,125
5525,-472,-560,1832,184,-64,129
5530,-496,-496,1848,149,-69,132
5535,-480,-448,1840,121,-66,138
5540,-456,-440,1840,100,-56,137
5545,-440,-392,1832,84,-41,130
5550,-392,-368,1776,70,-20,118
5555,-368,-328,1816,57,-1,103
5560,-344,-312,1800,43,12,87
5565,-336,-312,1776,30,19,72
5570,-312,-304,1800,16,20,58
5575,-288,-360,1792,3,18,47
5580,-248,-400,1792,-13,10,33
5585,-248,-400,1792,-31,-2,19
5590,-240,-432,1848,-47,-17,6
5595,-216,-432,1864,-55,-31,-5
5600,-224,-480,1856,-58,-50,-15
5605,-184,-512,1872,-60,-67,-24
5610,-184,-480,1904,-60,-85,-35
5615,-176,-496,1880,-59,-99,-47
5620,-200,-504,1896,-69,-108,-58
5625,-224,-488,1928,-78,-109,-72
5630,-224,-472,1904,-82,-111,-86
5635,-192,-504,1944,-78,-111,-99
5640,-200,-464,1936,-68,-111,-107
5645,-192,-456,1928,-62,-113,-118
5650,-224,-408,1928,-60,-114,-122
5655,-224,-448,1904,-66,-112,-123
5660,-240,-456,1912,-72,-105,-126
5665,-256,-472,1856,-70,-93,-131
5670,-272,-528,1880,-59,-75,-138
5675,-312,-536,1856,-39,-56,-143
5680,-328,-520,1872,-14,-39,-144
5685,-336,-528,1888,11,-29,-138
5690,-376,-504,1904,23,-30,-131
5695,-392,-496,1920,21,-42,-123
5700,-408,-488,1952,6,-59,-115
5705,-408,-464,1928,-10,-76,-106
5710,-408,-480,1920,-28,-89,-96
5715,-448,-456,1920,-45,-89,-90
5720,-432,-472,1896,-60,-84,-81
5725,-448,-472,1888,-66,-77,-68
5730,-456,-504,1856,-64,-66,-54
5735,-424,-496,1840,-58,-53,-42
5740,-432,-496,1800,-52,-38,-35
5745,-440,-496,1776,-43,-24,-27
5750,-424,-480,1792,-31,-9,-17
5755,-416,-496,1808,-16,6,-12
5760,-408,-504,1800,-2,17,-8
5765,-432,-512,1816,11,29,-1
5770,-432,-528,1824,23,38,5
5775,-416,-496,1840,30,43,11
5780,-440,-488,1864,33,44,15
5785,-440,-480,1856,34,45,23
5790,-424,-448,1864,32,45,28
5795,-400,-488,1880,29,42,30
5800,-408,-456,1864,23,41,34
5805,-408,-448,1840,13,40,40
5810,-384,-456,1872,6,40,45
5815,-416,-440,1832,-2,43,49
5820,-376,-472,1816,-5,48,50
5825,-376,-456,1840,-5,54,53
5830,-336,-464,1840,-4,59,53
5835,-344,-464,1880,-2,66,53
5840,-336,-464,1880,0,73,50
5845,-328,-456,1864,1,79,45
5850,-312,-456,1888,3,85,40
5855,-304,-456,1872,7,89,34
5860,-312,-448,1856,9,94,25
5865,-296,-440,1880,9,96,18
5870,-312,-448,1880,8,98,12
5875,-272,-456,1864,10,100,6
5880,-280,-448,1856,8,100,1
5885,-304,-448,1880,6,101,-5
5890,-304,-448,1872,6,102,-5
5895,-304,-472,1864,7,105,-5
5900,-296,-496,1864,12,108,-7
5905,-312,-472,1880,18,112,-8
5910,-272,-496,1888,24,115,-8
5915,-280,-464,1888,29,119,-12
5920,-296,-464,1872,33,123,-16
5925,-296,-472,1904,36,125,-18
5930,-280,-472,1888,36,125,-21
5935,-312,-480,1904,36,123,-22
5940,-312,-448,1872,33,120,-25
5945,-328,-464,1872,31,115,-26
5950,-336,-440,1888,27,115,-24
5955,-336,-448,1880,24,113,-23
5960,-336,-440,1904,25,112,-21
5965,-336,-416,1888,26,114,-19
5970,-360,-440,1864,29,113,-19
5975,-352,-408,1872,32,112,-17
5980,-360,-424,1888,31,110,-14
5985,-376,-432,1896,28,109,-12
5990,-392,-424,1856,27,108,-9
5995,-400,-416,1880,26,105,-7
6000,-384,-424,1864,23,103,-4
6005,-408,-360,1848,20,101,-1
6010,-400,-400,1880,16,102,1
6015,-408,-424,1872,12,102,5
6020,-400,-408,1872,11,104,8
6025,-392,-416,1872,7,105,10
6030,-392,-432,1872,7,105,9
6035,-400,-424,1856,4,103,11
6040,-392,-416,1880,5,102,12
6045,-424,-408,1856,6,98,15
6050,-416,-408,1864,7,95,15
6055,-384,-376,1880,6,93,16
6060,-432,-400,1856,4,88,16
6065,-400,-408,1888,3,84,15
6070,-408,-416,1872,2,82,15
6075,-424,-432,1880,1,80,14
6080,-408,-432,1880,-1,78,14
6085,-416,-392,1896,-3,75,15
6090,-424,-392,1864,-5,73,14
6095,-448,-384,1904,-10,71,14
6100,-408,-408,1912,-16,67,13
6105,-416,-416,1872,-21,66,14
6110,-416,-400,1864,-28,65,16
6115,-384,-400,1880,-32,64,17
6120,-344,-432,1856,-36,63,16
6125,-400,-424,1880,-37,62,16
6130,-392,-424,1864,-36,61,15
6135,-424,-400,1872,-38,57,15
6140,-408,-408,1880,-41,53,13
6145,-384,-440,1848,-44,50,11
6150,-384,-440,1856,-47,47,10
6155,-376,-440,1840,-50,44,9
6160,-384,-448,1896,-52,43,8
6165,-376,-448,1888,-53,40,6
6170,-368,-440,1856,-52,40,4
6175,-360,-448,1880,-49,39,3
6180,-376,-448,1872,-47,37,4
6185,-360,-456,1896,-45,36,2
6190,-344,-456,1872,-43,38,1
6195,-360,-456,1864,-42,42,0
6200,-336,-456,1880,-40,45,-1
6205,-360,-440,1880,-37,48,-1
6210,-360,-448,1872,-38,51,0
6215,-328,-448,1880,-38,53,2
6220,-368,-440,1864,-38,58,4
6225,-360,-456,1864,-40,61,5
6230,-352,-432,1880,-43,62,7
6235,-360,-448,1840,-48,64,8
6240,-376,-448,1888,-51,64,6
6245,-376,-464,1896,-54,64,6
6250,-352,-464,1904,-56,62,5
6255,-368,-464,1888,-58,59,2
6260,-368,-456,1888,-60,56,1
6265,-384,-440,1880,-62,50,-2
6270,-376,-448,1888,-64,47,-4
6275,-368,-448,1888,-65,39,-9
6280,-368,-448,1888,-66,35,-11
6285,-368,-440,1880,-68,32,-13
6290,-368,-448,1872,-70,28,-14
6295,-352,-456,1856,-71,24,-15
6300,-360,-456,1896,-71,23,-16
6305,-344,-448,1888,-69,23,-17
6310,-384,-440,1864,-64,22,-16
6315,-376,-448,1880,-58,23,-16
6320,-368,-456,1856,-51,22,-18
6325,-368,-448,1856,-46,23,-20
6330,-408,-472,1856,-40,23,-20
6335,-368,-464,1864,-37,22,-21
6340,-368,-448,1856,-34,24,-20
6345,-368,-448,1848,-32,25,-20
6350,-336,-448,1824,-32,28,-19
6355,-368,-448,1832,-31,32,-19
6360,-376,-456,1848,-26,35,-18
6365,-352,-472,1848,-21,39,-17
6370,-352,-456,1856,-16,43,-16
6375,-368,-456,1848,-13,47,-16
6380,-360,-448,1856,-9,51,-17
6385,-368,-440,1880,-9,55,-15
6390,-336,-440,1848,-9,58,-15
6395,-328,-456,1848,-11,62,-14
6400,-360,-448,1888,-13,64,-12
6405,-352,-456,1872,-16,65,-11
6410,-360,-448,1872,-17,67,-10
6415,-352,-464,1856,-21,68,-10
6420,-376,-448,1848,-22,71,-9
6425,-344,-472,1872,-21,71,-9
6430,-392,-472,1888,-23,70,-9
6435,-392,-448,1880,-22,71,-9
6440,-320,-408,1880,-21,71,-10
6445,-400,-464,1872,-18,71,-9
6450,-360,-472,1864,-17,70,-11
6455,-376,-440,1880,-16,68,-12
6460,-376,-456,1856,-12,67,-13
6465,-376,-448,1872,-9,66,-13
6470,-376,-440,1896,-6,64,-15
6475,-344,-456,1880,-3,63,-16
6480,-360,-448,1872,-2,62,-17
6485,-368,-448,1872,-1,61,-16
6490,-344,-456,1904,-1,61,-17
6495,-352,-448,1872,-1,60,-17
6500,-360,-440,1840,-2,63,-16
6505,-344,-456,1872,-2,64,-16
6510,-336,-464,1872,-2,67,-15
6515,-344,-448,1872,-2,66,-13
6520,-336,-440,1872,-2,68,-12
6525,-336,-448,1864,-1,68,-13
6530,-344,-448,1872,1,67,-11
6535,-344,-440,1896,2,66,-10
6540,-336,-464,1864,2,65,-10
6545,-336,-456,1864,2,64,-10
6550,-312,-456,1872,2,62,-10
6555,-376,-440,1864,3,60,-10
6560,-328,-456,1872,4,58,-11
6565,-336,-464,1864,4,55,-10
6570,-352,-440,1856,4,56,-11
6575,-344,-440,1856,4,54,-10
6580,-352,-456,1840,1,54,-11
6585,-360,-440,1864,-1,53,-11
6590,-352,-440,1864,-5,55,-11
6595,-360,-464,1896,-5,58,-8
6600,-344,-456,1864,-5,60,-9
6605,-336,-472,1888,-3,64,-8
6610,-344,-448,1840,-2,65,-8
6615,-368,-424,1856,-2,68,-8
6620,-360,-440,1856,-2,70,-10
6625,-352,-448,1856,-1,71,-8
6630,-360,-440,1848,-3,74,-6
6635,-352,-456,1880,-6,75,-6
6640,-320,-472,1872,-7,77,-4
6645,-360,-440,1864,-10,79,-2
6650,-336,-440,1872,-12,81,-2
6655,-352,-456,1904,-14,84,-1
6660,-320,-456,1896,-14,86,-1
6665,-328,-448,1880,-15,86,-1
6670,-352,-432,1888,-14,86,-3
6675,-328,-440,1880,-13,86,-2
6680,-320,-456,1888,-11,85,-2
6685,-352,-456,1896,-11,83,-1
6690,-360,-464,1888,-11,81,-3
6695,-352,-456,1904,-9,78,-2
6700,-368,-472,1888,-6,74,-4
6705,-368,-472,1864,-4,69,-3
6710,-368,-456,1856,-1,69,-2
6715,-368,-448,1896,1,66,-3
6720,-352,-456,1848,5,65,-2
6725,-368,-456,1872,6,66,-2
6730,-384,-440,1896,10,68,0
6735,-352,-464,1864,11,69,0
6740,-352,-448,1856,16,72,2
6745,-368,-464,1872,23,77,2
6750,-368,-456,1880,27,80,3
6755,-352,-456,1864,32,85,2
6760,-360,-464,1872,37,84,2
6765,-352,-440,1896,43,86,3
6770,-376,-416,1824,49,84,3
6775,-352,-464,1864,55,82,2
6780,-368,-448,1872,60,80,2
6785,-352,-456,1880,63,77,2
6790,-360,-448,1864,65,72,1
6795,-376,-416,1864,62,69,0
6800,-336,-440,1824,59,66,-2
6805,-336,-424,1856,56,63,-4
6810,-320,-448,1840,54,62,-3
6815,-376,-400,1872,50,60,-4
6820,-344,-408,1872,48,61,-3
6825,-344,-456,1872,47,62,0
6830,-344,-424,1864,43,62,-2
6835,-360,-432,1880,40,61,-2
6840,-344,-440,1880,37,63,-3
6845,-344,-432,1896,34,65,-5
6850,-352,-456,1888,31,65,-5
6855,-392,-448,1872,29,67,-6
6860,-328,-448,1896,26,67,-8
6865,-360,-456,1904,24,67,-8
6870,-360,-448,1912,25,65,-8
6875,-312,-464,1848,28,67,-6
6880,-344,-456,1856,34,67,-6
6885,-360,-416,1880,42,66,-4
6890,-336,-432,1832,53,71,2
6895,-352,-440,1872,61,71,3
6900,-344,-448,1848,70,72,3
6905,-360,-416,1848,76,71,4
6910,-360,-424,1864,84,70,4
6915,-344,-416,1880,91,69,5
6920,-368,-416,1856,94,66,4
6925,-360,-424,1864,98,65,3
6930,-360,-424,1864,99,63,1
6935,-336,-400,1848,96,64,2
6940,-360,-376,1872,91,67,3
6945,-336,-376,1880,86,69,4
6950,-344,-368,1888,79,70,4
6955,-344,-368,1896,71,73,6
6960,-336,-384,1904,63,77,9
6965,-352,-368,1912,55,82,11
6970,-312,-400,1888,46,87,12
6975,-344,-432,1896,38,89,12
6980,-352,-400,1896,29,92,14
6985,-368,-392,1880,20,96,13
6990,-360,-392,1920,13,97,14
6995,-392,-400,1888,6,98,13
7000,-376,-392,1880,-2,96,11
7005,-384,-440,1920,-6,94,10
7010,-376,-448,1904,-13,91,9
7015,-384,-424,1904,-15,86,7
7020,-376,-424,1912,-18,86,6
7025,-360,-432,1904,-18,84,3
7030,-376,-416,1896,-14,82,2
7035,-392,-424,1880,-10,81,2
7040,-368,-416,1888,-6,82,1
7045,-360,-440,1888,-2,81,2
7050,-376,-416,1888,1,81,1
7055,-376,-432,1888,4,79,1
7060,-344,-432,1880,8,80,0
7065,-368,-424,1888,12,78,1
7070,-336,-440,1872,16,80,5
7075,-360,-432,1888,21,80,6
7080,-360,-416,1888,24,80,7
7085,-368,-416,1896,26,77,8
7090,-376,-432,1888,27,77,9
7095,-376,-432,1912,27,75,7
7100,-344,-448,1864,25,75,6
7105,-376,-416,1888,22,75,4
7110,-368,-400,1888,17,74,3
7115,-368,-408,1872,13,73,1
7120,-368,-416,1880,8,73,2
7125,-344,-432,1896,5,74,0
7130,-368,-400,1880,1,75,-1
7135,-352,-432,1896,0,76,-1
7140,-328,-416,1896,0,75,-2
7145,-352,-416,1864,2,77,-2
7150,-368,-440,1880,4,77,0
7155,-344,-432,1872,7,78,-2
7160,-360,-424,1880,9,76,-2
7165,-344,-416,1856,13,76,-2
7170,-368,-408,1888,16,73,-1
7175,-352,-416,1896,17,71,-2
7180,-360,-400,1864,20,67,-3
7185,-352,-408,1896,21,64,-2
7190,-368,-400,1848,22,61,-3
7195,-360,-392,1880,21,58,-4
7200,-384,-384,1848,19,56,-3
7205,-400,-408,1872,17,54,-4
7210,-376,-400,1888,17,51,-5
7215,-360,-400,1888,15,50,-5
7220,-344,-408,1856,14,55,-3
7225,-360,-400,1872,12,57,-4
7230,-352,-400,1872,12,58,-3
7235,-344,-416,1896,11,62,-3
7240,-368,-376,1864,10,63,-3
7245,-360,-392,1896,9,63,-3
7250,-344,-392,1896,10,64,-3
7255,-384,-408,1816,11,67,-2
7260,-352,-408,1896,10,70,-1
7265,-360,-400,1880,9,69,-2
7270,-352,-400,1856,10,67,-3
7275,-360,-392,1872,11,68,1
7280,-352,-408,1888,10,72,-1
7285,-368,-384,1872,10,70,-2
7290,-344,-400,1872,7,71,-1
7295,-368,-408,1912,3,68,-2
7300,-360,-408,1896,2,68,-3
7305,-360,-384,1896,-1,67,-1
7310,-352,-424,1888,-2,67,-2
7315,-344,-424,1896,-5,65,-2
7320,-376,-392,1888,-8,63,-3
7325,-360,-400,1880,-10,63,-4
7330,-376,-416,1912,-12,63,-5
7335,-368,-416,1904,-12,60,-6
7340,-360,-408,1888,-14,60,-7
7345,-376,-376,1896,-17,58,-6
7350,-376,-392,1880,-18,57,-9
7355,-344,-392,1896,-21,57,-9
7360,-352,-376,1872,-22,60,-7
7365,-336,-384,1888,-24,62,-7
7370,-352,-384,1872,-26,67,-6
7375,-352,-384,1880,-28,68,-5
7380,-344,-408,1880,-30,69,-3
7385,-352,-400,1880,-32,68,-4
7390,-352,-416,1880,-31,69,-5
7395,-368,-376,1888,-32,68,-6
7400,-328,-400,1888,-30,67,-4
7405,-352,-400,1880,-30,66,-5
7410,-360,-384,1880,-30,66,-7
7415,-336,-424,1848,-27,67,-6
7420,-376,-408,1880,-26,68,-6
7425,-376,-376,1856,-23,70,-6
7430,-376,-416,1880,-22,70,-4
7435,-344,-416,1880,-19,69,-3
7440,-352,-408,1888,-18,70,-3
7445,-352,-408,1864,-17,70,-3
7450,-344,-432,1856,-15,72,-3
7455,-344,-392,1872,-12,73,-3
7460,-368,-408,1864,-9,74,-1
7465,-384,-424,1880,-5,76,-2
7470,-384,-424,1904,2,79,0
7475,-368,-416,1896,5,78,-1
7480,-336,-440,1872,9,79,0
7485,-344,-424,1888,11,79,-1
7490,-360,-408,1888,12,80,0
7495,-360,-392,1896,13,82,0
7500,-368,-416,1872,12,81,-1
7505,-368,-408,1888,9,83,0
7510,-344,-408,1856,9,86,-1
7515,-352,-408,1856,10,88,0
7520,-352,-424,1888,12,92,0
7525,-352,-392,1864,17,94,-2
7530,-344,-424,1848,20,94,0
7535,-360,-384,1880,26,97,-1
7540,-344,-392,1896,31,98,2
7545,-352,-392,1872,38,101,2
7550,-376,-392,1864,43,100,4
7555,-376,-408,1880,44,99,3
7560,-344,-392,1856,43,95,3
7565,-392,-376,1888,43,94,3
7570,-368,-376,1880,40,92,2
7575,-368,-360,1880,39,91,2
7580,-352,-392,1872,36,92,3
7585,-368,-376,1880,35,92,3
7590,-392,-392,1888,34,90,2
7595,-384,-384,1896,31,89,0
7600,-352,-384,1880,31,86,-1
7605,-368,-384,1896,28,84,-2
7610,-368,-400,1872,26,82,0
7615,-368,-368,1896,23,80,-2
7620,-360,-376,1872,18,78,-3
7625,-376,-392,1888,14,76,-3
7630,-352,-392,1880,11,76,-1
7635,-344,-408,1896,8,77,-1
7640,-384,-392,1872,7,79,0
7645,-392,-384,1880,6,79,0
7650,-384,-400,1880,6,79,0
7655,-392,-376,1904,5,78,-1
7660,-376,-384,1880,5,79,0
7665,-360,-376,1896,3,78,1
7670,-376,-408,1880,1,78,0
7675,-376,-400,1864,-1,78,0
7680,-368,-400,1888,-3,76,0
7685,-368,-360,1888,-5,74,0
7690,-384,-376,1880,-5,72,1
7695,-368,-368,1896,-5,70,0
7700,-384,-360,1880,-4,68,1
7705,-384,-376,1880,-3,66,0
7710,-384,-384,1872,-2,64,-1
7715,-376,-376,1888,-2,60,-1
7720,-376,-360,1888,-4,59,-1
7725,-384,-384,1880,-4,57,-1
7730,-376,-376,1904,-4,56,-2
7735,-384,-368,1896,-6,56,-4
7740,-384,-384,1880,-7,57,-6
7745,-360,-376,1848,-7,59,-6
7750,-384,-352,1880,-8,60,-6
7755,-360,-392,1896,-10,62,-5
7760,-360,-368,1896,-13,65,-4
7765,-360,-384,1872,-17,67,-3
7770,-368,-392,1888,-21,67,-3
7775,-328,-440,1880,-24,68,-1
7780,-352,-408,1888,-27,67,-3
7785,-392,-384,1904,-28,68,-2
7790,-352,-408,1904,-27,67,-1
7795,-344,-432,1888,-24,67,-1
7800,-360,-392,1880,-21,66,0
7805,-376,-368,1864,-16,65,0
7810,-392,-384,1888,-11,62,0
7815,-360,-384,1880,-5,60,0
7820,-368,-392,1880,-1,57,2
7825,-368,-376,1856,2,55,2
7830,-352,-384,1880,3,52,2
7835,-368,-384,1880,3,53,1
7840,-368,-368,1888,2,53,1
7845,-376,-344,1896,-1,54,2
7850,-376,-312,1872,-2,54,2
7855,-368,-376,1888,-4,55,2
7860,-384,-360,1896,-8,56,2
7865,-368,-384,1920,-12,56,2
7870,-344,-392,1912,-17,56,1
7875,-360,-400,1904,-23,56,1
7880,-352,-376,1912,-26,55,-1
7885,-384,-352,1912,-31,51,-4
7890,-360,-368,1888,-37,52,-3
7895,-384,-360,1920,-43,54,-4
7900,-400,-368,1888,-48,55,-5
7905,-360,-360,1912,-54,54,-5
7910,-368,-368,1904,-58,55,-5
7915,-368,-368,1912,-62,57,-5
7920,-384,-368,1896,-64,58,-7
7925,-344,-392,1880,-66,60,-7
7930,-368,-376,1888,-67,59,-6
7935,-368,-360,1888,-67,58,-8
7940,-384,-376,1888,-68,58,-8
7945,-392,-392,1920,-68,58,-7
7950,-368,-400,1888,-68,54,-6
7955,-376,-392,1888,-67,52,-10
7960,-392,-400,1880,-65,49,-13
7965,-344,-400,1888,-64,48,-13
7970,-392,-408,1896,-62,47,-12
7975,-360,-400,1888,-63,47,-12
7980,-376,-400,1880,-64,45,-12
7985,-360,-392,1872,-66,46,-10
7990,-376,-392,1856,-69,46,-10
7995,-376,-392,1888,-69,50,-10
8000,-352,-392,1888,-69,50,-8
8005,-392,-392,1872,-68,52,-7
8010,-360,-408,1880,-67,54,-6
8015,-368,-392,1856,-66,57,-6
8020,-360,-408,1896,-64,59,-7
8025,-376,-416,1888,-62,61,-7
8030,-360,-408,1880,-60,62,-6
8035,-376,-416,1880,-59,63,-6
8040,-360,-392,1864,-57,63,-6
8045,-376,-400,1880,-57,63,-6
8050,-384,-400,1872,-56,62,-7
8055,-352,-408,1864,-56,60,-8
8060,-360,-408,1888,-57,58,-6
8065,-360,-376,1872,-58,57,-8
8070,-360,-400,1896,-59,58,-8
8075,-360,-408,1888,-62,57,-9
8080,-360,-384,1888,-65,59,-9
8085,-368,-392,1856,-67,60,-9
8090,-360,-392,1880,-67,62,-9
8095,-384,-408,1880,-67,64,-8
8100,-344,-384,1880,-63,65,-7
8105,-376,-408,1872,-59,65,-6
8110,-368,-408,1856,-56,65,-6
8115,-344,-432,1864,-51,66,-5
8120,-360,-432,1896,-48,63,-5
8125,-368,-416,1872,-45,62,-5
8130,-376,-432,1888,-45,62,-3
8135,-352,-416,1904,-44,62,-4
8140,-360,-416,1888,-45,61,-3
8145,-376,-400,1888,-46,62,-3
8150,-368,-424,1864,-46,60,-3
8155,-368,-416,1872,-46,60,-3
8160,-352,-408,1880,-48,60,-2
8165,-352,-424,1864,-48,61,-2
8170,-360,-416,1880,-49,62,-3
8175,-368,-432,1880,-50,62,-2
8180,-360,-432,1880,-54,62,-2
8185,-376,-424,1888,-54,66,-1
8190,-352,-432,1872,-55,69,-1
8195,-360,-424,1864,-55,71,0
8200,-360,-408,1888,-56,74,0
8205,-344,-400,1856,-57,77,1
8210,-352,-408,1872,-60,81,0
8215,-344,-424,1872,-63,83,4
8220,-344,-424,1880,-66,87,3
8225,-328,-432,1880,-72,89,5
8230,-352,-432,1872,-76,92,7
8235,-344,-440,1872,-82,94,7
8240,-360,-416,1880,-88,97,9
8245,-352,-416,1880,-92,97,12
8250,-352,-416,1856,-94,96,13
8255,-360,-432,1880,-93,94,14
8260,-344,-440,1888,-90,90,13
8265,-376,-432,1888,-83,88,15
8270,-384,-432,1872,-73,86,14
8275,-352,-424,1872,-65,84,14
8280,-376,-416,1904,-57,82,12
8285,-376,-448,1872,-50,79,11
8290,-384,-424,1880,-45,78,11
8295,-456,-408,1840,-43,75,10
8300,-376,-448,1896,-44,72,8
8305,-392,-424,1888,-45,67,7
8310,-352,-440,1880,-47,62,6
8315,-352,-432,1848,-51,58,4
8320,-352,-448,1872,-56,55,1
8325,-360,-432,1880,-61,52,-1
8330,-384,-432,1856,-63,47,-3
8335,-336,-440,1864,-66,46,-3
8340,-368,-440,1848,-67,43,-4
8345,-352,-440,1880,-67,44,-5
8350,-376,-432,1880,-68,42,-5
8355,-360,-432,1872,-66,44,-4
8360,-352,-440,1856,-65,49,-2
8365,-344,-448,1864,-61,50,1
8370,-352,-456,1888,-56,55,3
8375,-352,-440,1864,-54,59,6
8380,-384,-440,1880,-50,63,5
8385,-336,-440,1896,-47,65,4
8390,-336,-456,1872,-41,67,3
8395,-360,-432,1904,-41,69,3
8400,-416,-416,1872,-40,68,4
8405,-352,-400,1920,-39,67,3
8410,-416,-440,1968,-40,68,2
8415,-280,-344,1888,-40,65,1
8420,-264,-384,1936,-44,63,2
8425,-368,-528,1744,-49,58,1
8430,-376,-440,1928,-54,52,-1
8435,-416,-424,1880,-59,46,-2
8440,-352,-424,1864,-63,41,-2
8445,-352,-464,1928,-71,38,-3
8450,-328,-512,2008,-75,38,-3
8455,-304,-472,1888,-80,39,-4
8460,-328,-464,1848,-81,38,-6
8465,-352,-440,1864,-80,40,-7
8470,-336,-448,1856,-78,41,-8
8475,-344,-528,1928,-75,41,-9
8480,-368,-432,1816,-71,44,-12
8485,-328,-432,1880,-68,46,-12
8490,-320,-448,1864,-65,49,-11
8495,-352,-432,1920,-63,52,-11
8500,-312,-440,1840,-61,53,-10
8505,-288,-408,1816,-61,55,-9
8510,-352,-456,1864,-60,59,-8
8515,-344,-440,1856,-60,63,-5
8520,-384,-456,1840,-60,67,-3
8525,-352,-528,1888,-58,71,-1
8530,-352,-456,1864,-55,74,1
8535,-336,-448,1864,-53,73,1
8540,-352,-464,1872,-49,73,-2
8545,-368,-440,1880,-46,71,-4
8550,-352,-368,1712,-44,66,-8
8555,-304,-648,1904,-42,62,-11
8560,-384,-456,1944,-42,58,-12
8565,-296,-392,1984,-42,54,-13
8570,-432,-488,1944,-42,49,-14
8575,-360,-408,1816,-43,44,-15
8580,-312,-480,1904,-46,42,-17
8585,-400,-480,1712,-48,38,-17
8590,-352,-408,1832,-52,37,-16
8595,-376,-392,1744,-55,40,-17
8600,-424,-496,1984,-57,46,-14
8605,-368,-480,1888,-57,52,-13
8610,-344,-448,1872,-54,58,-14
8615,-344,-440,1872,-52,61,-12
8620,-368,-456,1848,-52,62,-12
8625,-376,-432,1856,-50,62,-12
8630,-448,-448,1904,-49,63,-11
8635,-280,-520,1952,-49,65,-13
8640,-344,-424,1864,-49,65,-11
8645,-344,-432,1768,-49,65,-9
8650,-392,-496,1800,-50,66,-5
8655,-328,-448,1824,-46,70,-4
8660,-368,-456,1880,-43,71,-2
8665,-328,-504,1872,-41,74,0
8670,-384,-456,1832,-40,75,1
8675,-376,-424,1936,-40,73,2
8680,-320,-488,1880,-41,73,0
8685,-344,-456,1888,-43,72,-3
8690,-352,-440,1880,-45,71,-4
8695,-336,-464,1872,-48,72,-6
8700,-352,-456,1848,-50,70,-6
8705,-408,-512,1880,-53,68,-8
8710,-376,-456,1864,-55,66,-7
8715,-336,-576,1888,-56,67,-7
8720,-296,-480,1848,-57,66,-7
8725,-344,-512,1912,-53,68,-6
8730,-336,-448,1888,-47,69,-8
8735,-392,-488,1880,-41,72,-6
8740,-328,-504,1856,-33,74,-8
8745,-352,-440,1880,-25,75,-6
8750,-344,-432,1880,-19,75,-5
8755,-352,-408,1736,-16,78,-4
8760,-360,-472,1872,-16,78,-3
8765,-368,-448,1880,-18,79,-2
8770,-336,-440,1864,-23,79,-1
8775,-376,-448,1880,-26,78,1
8780,-472,-408,1832,-29,77,2
8785,-384,-432,1888,-30,77,2
8790,-264,-448,1856,-32,76,0
8795,-520,-448,1744,-33,74,-1
8800,-328,-456,1896,-36,72,-3
8805,-344,-416,1976,-40,69,-4
8810,-368,-456,1880,-45,66,-7
8815,-328,-496,1912,-48,64,-9
8820,-408,-440,1880,-52,63,-12
8825,-360,-456,1904,-55,63,-16
8830,-312,-480,1880,-58,60,-19
8835,-368,-472,1848,-56,58,-20
8840,-368,-480,1888,-57,58,-20
8845,-344,-464,1880,-57,56,-21
8850,-344,-472,1848,-58,54,-19
8855,-344,-504,1864,-60,53,-18
8860,-328,-560,1880,-60,52,-18
8865,-360,-472,1864,-58,51,-18
8870,-312,-520,1920,-55,50,-17
8875,-456,-496,1896,-51,50,-17
8880,-360,-480,1864,-48,49,-19
8885,-352,-480,1872,-43,47,-18
8890,-344,-480,1848,-39,46,-19
8895,-352,-488,1856,-39,46,-18
8900,-336,-456,1864,-37,49,-17
8905,-336,-480,1848,-35,50,-14
8910,-352,-480,1848,-33,49,-12
8915,-344,-504,1824,-31,50,-8
8920,-312,-472,1872,-28,52,-7
8925,-336,-504,1840,-28,54,-5
8930,-344,-496,1864,-23,57,-5
8935,-336,-496,1824,-19,59,-4
8940,-328,-504,1824,-17,60,-4
8945,-376,-576,1808,-14,63,-4
8950,-352,-472,1864,-13,64,-6
8955,-336,-472,1832,-13,66,-5
8960,-328,-464,1856,-12,67,-4
8965,-336,-480,1856,-12,69,-5
8970,-344,-440,1720,-12,70,-3
8975,-344,-480,1832,-9,72,-1
8980,-336,-480,1840,-9,73,0
8985,-344,-496,1840,-9,74,1
8990,-344,-488,1848,-7,75,2
8995,-312,-488,1840,-5,76,4
9000,-328,-504,1856,-1,78,4
9005,-352,-496,1848,7,78,6
9010,-344,-488,1864,13,79,5
9015,-344,-496,1872,20,79,6
9020,-360,-480,1848,26,77,4
9025,-352,-464,1840,31,75,4
9030,-352,-464,1864,35,74,3
9035,-360,-456,1856,37,73,2
9040,-336,-448,1832,38,72,2
9045,-352,-456,1856,36,70,2
9050,-360,-448,1848,31,69,0
9055,-352,-408,1808,25,66,0
9060,-360,-448,1856,19,66,0
9065,-352,-448,1856,16,66,-1
9070,-368,-448,1856,13,66,0
9075,-352,-456,1880,14,67,-1
9080,-352,-464,1864,14,67,-2
9085,-336,-480,1856,15,66,-3
9090,-368,-480,1864,17,68,-2
9095,-360,-472,1872,18,69,-3
9100,-360,-464,1880,20,70,0
9105,-352,-488,1864,21,69,-1
9110,-344,-464,1872,22,70,1
9115,-352,-448,1880,24,70,2
9120,-360,-456,1864,26,68,4
9125,-376,-448,1872,26,69,5
9130,-352,-448,1872,24,69,6
9135,-360,-448,1864,23,68,4
9140,-360,-448,1880,21,69,6
9145,-336,-456,1880,19,69,6
9150,-368,-456,1896,18,68,6
9155,-336,-464,1880,18,66,6
9160,-352,-480,1864,18,66,5
9165,-336,-440,1872,17,64,4
9170,-352,-464,1864,17,62,3
9175,-344,-472,1888,16,60,4
9180,-360,-456,1864,15,61,2
9185,-344,-472,1880,13,61,2
9190,-352,-464,1888,11,61,3
9195,-352,-440,1840,8,61,4
9200,-376,-488,1872,6,62,6
9205,-376,-480,1896,4,63,7
9210,-368,-456,1872,3,67,6
9215,-328,-472,1872,1,71,6
9220,-368,-488,1872,1,71,4
9225,-344,-480,1888,0,73,5
9230,-336,-488,1872,-1,76,4
9235,-352,-480,1880,0,75,2
9240,-336,-472,1896,2,76,1
9245,-352,-456,1856,1,74,0
9250,-328,-472,1880,1,71,0
9255,-336,-464,1872,1,71,0
9260,-360,-440,1880,1,70,0
9265,-336,-456,1864,0,70,0
9270,-328,-480,1864,1,71,0
9275,-312,-496,1864,1,71,1
9280,-328,-472,1880,3,72,1
9285,-352,-464,1840,5,71,1
9290,-328,-464,1864,7,74,2
9295,-360,-448,1840,9,74,3
9300,-328,-480,1872,12,76,2
9305,-336,-464,1840,15,76,2
9310,-328,-448,1864,20,75,2
9315,-344,-456,1872,22,75,2
9320,-328,-464,1864,26,73,2
9325,-352,-464,1856,25,70,3
9330,-344,-448,1872,23,69,2
9335,-352,-456,1872,21,67,0
9340,-360,-448,1872,19,66,2
9345,-352,-448,1864,19,66,3
9350,-376,-464,1856,19,63,4
9355,-376,-456,1880,20,64,1
9360,-376,-448,1880,20,64,1
9365,-344,-472,1872,19,65,2
9370,-360,-472,1880,19,67,0
9375,-344,-456,1848,18,69,0
9380,-344,-448,1888,19,73,-1
9385,-352,-448,1864,20,74,-1
9390,-360,-432,1896,21,77,1
9395,-344,-448,1888,20,79,-2
9400,-328,-472,1888,18,80,1
9405,-344,-440,1872,17,78,1
9410,-344,-464,1888,14,78,0
9415,-336,-448,1872,10,78,1
9420,-336,-448,1856,8,78,1
9425,-352,-448,1888,6,78,1
9430,-352,-448,1872,4,79,0
9435,-344,-448,1864,3,81,0
9440,-352,-440,1872,4,81,0
9445,-368,-432,1888,3,81,-1
9450,-360,-440,1856,4,80,-2
9455,-360,-424,1888,3,79,-2
9460,-336,-432,1864,1,75,-2
9465,-344,-448,1904,1,75,-2
9470,-360,-448,1872,-2,75,-3
9475,-328,-456,1872,-2,73,-2
9480,-360,-448,1888,0,74,-4
9485,-328,-432,1864,0,73,-4
9490,-288,-440,1864,2,72,-4
9495,-352,-448,1888,3,70,-4
9500,-344,-440,1872,2,69,-4
9505,-344,-464,1864,1,68,-5
9510,-336,-448,1864,0,67,-4
9515,-336,-440,1880,1,63,-4
9520,-360,-448,1888,3,61,-3
9525,-336,-456,1872,4,61,-3
9530,-376,-448,1848,6,60,-2
9535,-368,-424,1864,6,61,-2
9540,-344,-488,1856,6,64,-1
9545,-352,-440,1880,8,66,-2
9550,-344,-464,1888,10,67,-1
9555,-352,-440,1856,11,68,-4
9560,-368,-456,1864,12,70,-5
9565,-328,-464,1872,13,72,-6
9570,-368,-448,1880,14,73,-4
9575,-360,-448,1888,12,73,-6
9580,-344,-440,1888,8,73,-6
9585,-344,-464,1880,4,73,-6
9590,-360,-448,1896,-1,71,-5
9595,-368,-448,1856,-6,70,-6
9600,-400,-432,1896,-9,69,-7
9605,-360,-488,1888,-12,68,-7
9610,-368,-472,1880,-11,68,-9
9615,-352,-480,1848,-9,70,-8
9620,-368,-456,1840,-5,72,-6
9625,-352,-480,1848,1,73,-2
9630,-368,-448,1840,8,76,-1
9635,-352,-440,1816,15,82,4
9640,-336,-448,1856,25,87,9
9645,-328,-456,1848,34,93,15
9650,-336,-440,1880,44,98,17
9655,-344,-448,1840,52,102,20
9660,-344,-448,1856,59,107,21
9665,-344,-432,1856,62,110,25
9670,-352,-424,1880,67,113,25
9675,-320,-440,1872,67,112,27
9680,-344,-424,1872,66,111,25
9685,-336,-432,1904,61,110,23
9690,-360,-432,1888,55,105,22
9695,-352,-440,1912,46,100,20
9700,-384,-424,1896,38,94,18
9705,-368,-440,1888,29,87,16
9710,-368,-416,1880,22,84,13
9715,-360,-424,1888,14,80,12
9720,-360,-440,1872,7,76,9
9725,-360,-440,1880,1,76,8
9730,-376,-424,1864,-4,77,7
9735,-352,-448,1888,-9,79,6
9740,-368,-432,1864,-12,80,5
9745,-376,-440,1880,-14,82,4
9750,-352,-456,1880,-15,83,3
9755,-360,-464,1880,-15,84,3
9760,-376,-448,1888,-11,84,3
9765,-376,-448,1888,-9,85,2
9770,-368,-456,1864,-6,83,2
9775,-360,-448,1888,-1,80,1
9780,-360,-448,1872,2,79,1
9785,-376,-440,1888,5,78,-1
9790,-368,-440,1880,8,76,-1
9795,-368,-448,1856,8,75,-2
9800,-376,-440,1864,7,74,-2
9805,-360,-448,1880,6,72,-1
9810,-384,-448,1856,4,70,0
9815,-368,-440,1880,2,70,0
9820,-360,-424,1840,1,70,-1
9825,-368,-432,1872,2,70,1
9830,-376,-416,1888,1,67,0
9835,-360,-432,1880,-1,68,0
9840,-392,-424,1880,0,67,-1
9845,-352,-424,1880,-1,66,0
9850,-376,-424,1864,-5,68,0
9855,-376,-432,1856,-8,69,0
9860,-352,-416,1896,-11,69,0
9865,-376,-416,1880,-13,70,-2
9870,-376,-432,1864,-14,72,-2
9875,-352,-440,1872,-17,71,-4
9880,-376,-440,1904,-17,70,-3
9885,-368,-448,1864,-17,71,-2
9890,-368,-448,1888,-17,70,-3
9895,-360,-440,1872,-14,69,-3
9900,-368,-448,1888,-10,67,-4
9905,-400,-448,1880,-6,67,-5
9910,-408,-448,1880,0,65,-5
9915,-352,-440,1856,4,66,-5
9920,-352,-440,1872,9,68,-5
9925,-344,-488,1888,13,71,-5
9930,-360,-424,1880,19,73,-4
9935,-360,-440,1856,23,73,-3
9940,-368,-424,1872,25,76,-3
9945,-376,-408,1880,27,77,-2
9950,-360,-416,1880,30,76,-1
9955,-352,-432,1880,30,77,-1
9960,-336,-448,1856,29,76,-1
9965,-376,-432,1880,28,75,0
9970,-384,-432,1864,25,74,-1
9975,-384,-408,1880,22,74,-1
9980,-376,-424,1896,19,74,0
9985,-368,-416,1864,18,74,-1
9990,-376,-424,1872,20,74,0
9995,-368,-416,1888,21,75,1
10000,-368,-432,1880,23,74,-1
10005,-344,-440,1880,25,78,-2
10010,-360,-432,1880,25,80,-3
10015,-368,-440,1888,27,82,-4
10020,-352,-424,1880,28,83,-3
10025,-384,-432,1872,31,83,-3
10030,-376,-424,1888,32,84,-4
10035,-368,-408,1888,35,84,-1
10040,-376,-424,1880,37,85,-2
10045,-376,-400,1872,37,83,-3
10050,-352,-416,1904,38,82,-1
10055,-352,-440,1888,39,79,0
10060,-376,-424,1896,39,78,1
10065,-384,-400,1904,38,77,-1
10070,-368,-408,1864,38,75,-1
10075,-376,-424,1888,36,72,-1
10080,-384,-416,1872,38,71,-3
10085,-368,-416,1832,38,68,-3
10090,-368,-416,1872,37,66,-3
10095,-384,-416,1872,36,64,-5
10100,-368,-408,1872,36,63,-4
10105,-384,-408,1872,36,63,-4
10110,-376,-416,1880,34,63,-5
10115,-400,-408,1872,33,66,-4
10120,-360,-416,1864,33,70,-2
10125,-360,-424,1888,29,74,-1
10130,-400,-416,1888,23,74,-2
10135,-376,-384,1872,16,74,-6
10140,-368,-368,1880,5,79,-1
10145,-384,-416,1904,-6,86,-1
10150,-360,-392,1880,-12,90,0
10155,-368,-416,1904,-14,96,1
10160,-360,-424,1912,-15,98,5
10165,-368,-408,1920,-15,100,9
10170,-360,-392,1896,-17,104,10
10175,-368,-416,1904,-21,105,14
10180,-328,-432,1888,-28,107,15
10185,-384,-424,1880,-34,107,19
10190,-384,-416,1872,-39,106,19
10195,-384,-416,1888,-40,107,19
10200,-376,-432,1856,-39,106,20
10205,-360,-432,1904,-33,103,21
10210,-360,-432,1840,-26,99,19
10215,-344,-448,1888,-17,97,19
10220,-384,-424,1864,-6,96,17
10225,-352,-432,1856,1,93,17
10230,-360,-400,1864,7,90,15
10235,-376,-400,1888,10,86,15
10240,-352,-392,1888,12,85,14
10245,-392,-400,1880,12,83,13
10250,-376,-400,1856,11,81,13
10255,-320,-408,1928,7,79,12
10260,-368,-408,1864,5,76,10
10265,-368,-416,1880,2,74,7
10270,-384,-400,1840,-2,75,4
10275,-400,-392,1896,-5,74,2
10280,-392,-400,1864,-8,76,1
10285,-392,-416,1872,-9,75,-1
10290,-384,-424,1848,-11,77,-4
10295,-384,-416,1864,-9,77,-5
10300,-384,-424,1856,-9,77,-5
10305,-376,-424,1864,-9,78,-6
10310,-376,-424,1888,-12,76,-5
10315,-368,-408,1888,-12,77,-4
10320,-392,-416,1872,-13,75,-4
10325,-392,-416,1872,-13,72,-3
10330,-376,-440,1888,-12,68,-1
10335,-384,-432,1880,-11,67,-1
10340,-392,-432,1880,-9,69,-2
10345,-376,-424,1896,-7,67,-2
10350,-360,-416,1856,-7,66,-3
10355,-368,-432,1888,-7,66,-1
10360,-400,-416,1864,-7,67,-1
10365,-400,-448,1912,-9,67,-2
10370,-384,-416,1872,-9,67,-1
10375,-408,-408,1872,-9,68,-2
10380,-376,-400,1864,-10,67,-2
10385,-384,-416,1880,-10,67,-3
10390,-376,-400,1904,-12,68,-3
10395,-376,-400,1872,-12,68,-4
10400,-384,-408,1872,-13,67,-4
10405,-368,-384,1880,-13,68,-4
10410,-384,-400,1864,-13,68,-4
10415,-400,-392,1896,-13,67,-3
10420,-352,-440,1880,-13,66,-3
10425,-328,-448,1872,-14,66,-3
10430,-384,-416,1848,-17,66,-3
10435,-352,-416,1880,-19,65,-4
10440,-376,-400,1864,-20,65,-4
10445,-360,-392,1888,-22,66,-5
10450,-344,-400,1840,-23,66,-5
10455,-376,-392,1880,-24,67,-5
10460,-368,-408,1896,-25,68,-4
10465,-392,-392,1888,-24,68,-4
10470,-384,-432,1880,-23,70,-3
10475,-368,-408,1880,-23,70,-3
10480,-376,-424,1856,-21,68,-4
10485,-376,-424,1888,-20,66,-1
10490,-376,-424,1888,-19,64,-3
10495,-392,-440,1904,-18,62,-2
10500,-392,-424,1872,-17,60,-1
10505,-344,-440,1880,-17,60,-3
10510,-392,-400,1872,-16,54,-6
10515,-384,-416,1856,-16,53,-5
10520,-384,-400,1872,-18,56,-3
10525,-352,-416,1896,-19,56,-4
10530,-368,-432,1872,-19,58,-3
10535,-376,-424,1888,-19,60,-2
10540,-368,-392,1888,-18,62,-1
10545,-384,-400,1888,-17,62,1
10550,-384,-424,1872,-15,61,1
10555,-368,-432,1864,-13,62,2
10560,-384,-416,1848,-12,61,1
10565,-368,-424,1896,-12,61,1
10570,-352,-408,1864,-15,59,1
10575,-368,-424,1864,-14,57,-2
10580,-368,-400,1872,-15,54,-7
10585,-376,-416,1872,-14,51,-7
10590,-376,-416,1872,-17,52,-6
10595,-400,-392,1896,-16,52,-8
10600,-376,-424,1896,-18,51,-9
10605,-384,-424,1880,-18,52,-12
10610,-376,-416,1880,-19,53,-11
10615,-360,-440,1904,-21,56,-11
10620,-344,-440,1888,-23,56,-11
10625,-392,-400,1896,-25,59,-11
10630,-360,-440,1880,-30,61,-10
10635,-376,-408,1896,-35,61,-11
10640,-368,-440,1896,-41,63,-13
10645,-376,-424,1896,-46,63,-13
10650,-400,-416,1920,-47,61,-13
10655,-392,-432,1896,-48,60,-14
10660,-392,-440,1880,-49,60,-14
10665,-384,-448,1896,-44,60,-13
10670,-368,-432,1864,-40,60,-12
10675,-376,-432,1896,-35,60,-11
10680,-392,-440,1856,-30,60,-10
10685,-360,-440,1864,-23,60,-9
10690,-384,-392,1872,-20,58,-8
10695,-360,-408,1880,-18,57,-8
10700,-376,-392,1888,-19,55,-8
10705,-376,-392,1880,-24,51,-8
10710,-376,-416,1864,-29,50,-7
10715,-376,-368,1864,-32,48,-6
10720,-392,-376,1872,-35,47,-5
10725,-360,-416,1872,-38,48,-4
10730,-392,-392,1872,-41,50,-3
10735,-360,-416,1856,-42,50,-1
10740,-384,-408,1896,-44,51,-1
10745,-336,-416,1904,-44,53,0
10750,-352,-408,1888,-46,54,3
10755,-336,-416,1888,-48,56,4
10760,-344,-416,1880,-50,54,3
10765,-360,-432,1928,-51,54,3
10770,-352,-432,1872,-55,55,3
10775,-376,-440,1888,-59,55,3
10780,-384,-408,1864,-61,54,2
10785,-376,-424,1880,-63,54,1
10790,-376,-424,1888,-62,54,0
10795,-360,-448,1880,-58,56,-1
10800,-392,-448,1896,-55,57,-4
10805,-384,-408,1864,-52,57,-6
10810,-360,-448,1872,-47,58,-8
10815,-360,-440,1872,-44,59,-10
10820,-344,-448,1888,-41,59,-11
10825,-384,-440,1856,-41,58,-12
10830,-344,-456,1888,-43,60,-11
10835,-376,-440,1856,-42,61,-12
10840,-360,-440,1888,-40,61,-13
10845,-368,-448,1880,-38,60,-13
10850,-344,-440,1864,-36,60,-13
10855,-352,-440,1872,-37,60,-12
10860,-336,-440,1856,-39,60,-11
10865,-360,-432,1880,-42,60,-12
10870,-352,-432,1864,-45,61,-13
10875,-344,-432,1872,-45,62,-12
10880,-360,-432,1872,-47,62,-13
10885,-360,-424,1896,-49,61,-13
10890,-368,-424,1856,-48,62,-13
10895,-384,-432,1880,-46,61,-15
10900,-344,-464,1904,-46,60,-14
10905,-360,-416,1896,-46,58,-11
10910,-376,-432,1888,-45,59,-13
10915,-384,-424,1872,-46,58,-11
10920,-360,-456,1856,-46,57,-11
10925,-360,-424,1896,-46,56,-11
10930,-376,-440,1864,-44,55,-11
10935,-344,-448,1864,-45,55,-12
10940,-368,-440,1888,-43,55,-10
10945,-360,-448,1864,-41,55,-11
10950,-376,-440,1840,-37,54,-12
10955,-368,-456,1896,-35,54,-12
10960,-368,-456,1872,-32,54,-13
10965,-376,-448,1880,-28,55,-13
10970,-400,-424,1848,-25,54,-12
10975,-376,-456,1864,-21,55,-10
10980,-376,-440,1856,-19,55,-10
10985,-360,-424,1864,-17,56,-10
10990,-352,-448,1856,-14,59,-10
10995,-368,-424,1864,-12,60,-7
11000,-344,-448,1856,-11,61,-9
11005,-352,-440,1880,-12,63,-8
11010,-352,-416,1872,-17,64,-7
11015,-400,-432,1848,-20,65,-6
11020,-376,-432,1880,-23,65,-7
11025,-360,-440,1888,-27,66,-5
11030,-360,-432,1896,-29,66,-4
11035,-360,-424,1880,-32,64,-4
11040,-352,-448,1888,-32,64,-2
11045,-376,-424,1880,-34,63,-3
11050,-360,-440,1880,-36,62,-3
11055,-360,-440,1880,-35,61,-2
11060,-352,-400,1888,-36,59,-3
11065,-376,-424,1840,-37,58,-4
11070,-344,-440,1888,-38,57,-5
11075,-344,-448,1872,-40,59,-6
11080,-344,-440,1888,-40,60,-4
11085,-384,-432,1888,-41,59,-2
11090,-352,-440,1880,-41,60,-3
11095,-360,-440,1888,-43,61,-2
11100,-368,-448,1880,-44,61,-1
11105,-368,-440,1880,-47,60,0
11110,-376,-440,1872,-49,59,1
11115,-368,-440,1880,-51,58,3
11120,-344,-432,1896,-54,57,4
11125,-344,-456,1864,-56,54,6
11130,-384,-448,1864,-58,54,5
11135,-360,-440,1856,-58,54,5
11140,-376,-448,1880,-58,54,5
11145,-344,-448,1896,-57,56,5
11150,-368,-448,1880,-54,56,4
11155,-352,-448,1872,-51,56,5
11160,-336,-448,1880,-47,56,4
11165,-384,-448,1880,-43,56,4
11170,-384,-456,1888,-41,56,3
11175,-376,-440,1880,-39,57,1
11180,-392,-440,1872,-36,56,-2
11185,-376,-432,1864,-35,56,-2
11190,-384,-448,1880,-35,57,-3
11195,-384,-440,1880,-33,57,-3
11200,-368,-440,1864,-32,56,-4
11205,-368,-432,1880,-32,59,-3
11210,-352,-456,1856,-34,59,-3
11215,-360,-464,1872,-34,62,-4
11220,-352,-456,1864,-38,63,-4
11225,-344,-464,1864,-41,63,-3
11230,-360,-448,1872,-43,64,-2
11235,-360,-480,1872,-47,65,0
11240,-352,-456,1856,-49,65,1
11245,-360,-448,1888,-49,66,3
11250,-368,-440,1864,-48,67,4
11255,-344,-456,1880,-48,65,4
11260,-360,-440,1872,-45,64,3
11265,-384,-448,1880,-41,64,4
11270,-360,-416,1896,-37,65,3
11275,-384,-440,1880,-36,63,0
11280,-344,-456,1896,-37,62,-1
11285,-368,-448,1880,-38,61,-3
11290,-360,-448,1872,-37,61,-5
11295,-376,-440,1856,-36,61,-7
11300,-344,-448,1864,-34,61,-11
11305,-368,-448,1864,-32,60,-13
11310,-376,-456,1832,-31,62,-13
11315,-336,-464,1848,-28,62,-13
11320,-344,-456,1880,-29,64,-12
11325,-360,-480,1896,-26,63,-11
11330,-352,-464,1888,-25,63,-10
11335,-336,-488,1888,-23,62,-6
11340,-360,-472,1888,-21,64,-7
11345,-336,-512,1896,-21,63,-6
11350,-344,-464,1888,-21,63,-5
11355,-344,-472,1864,-19,61,-5
11360,-352,-480,1888,-21,59,-4
11365,-328,-488,1880,-24,59,-3
11370,-304,-464,1880,-29,56,-4
11375,-328,-472,1880,-32,53,-5
11380,-344,-456,1856,-36,51,-5
11385,-328,-440,1888,-36,51,-6
11390,-320,-456,1848,-38,50,-8
11395,-336,-440,1856,-41,50,-8
11400,-336,-440,1856,-45,51,-9
11405,-344,-440,1864,-50,50,-10
11410,-360,-448,1880,-54,49,-11
11415,-352,-464,1880,-57,48,-11
11420,-336,-456,1864,-58,48,-10
11425,-376,-456,1880,-56,51,-7
11430,-368,-456,1896,-52,52,-5
11435,-344,-480,1904,-46,55,-3
11440,-352,-472,1896,-41,58,1
11445,-344,-472,1880,-33,59,1
11450,-320,-464,1864,-25,60,-1
11455,-336,-456,1904,-18,60,-5
11460,-312,-464,1872,-11,61,-8
11465,-328,-440,1880,-5,60,-13
11470,-336,-432,1880,-2,62,-13
11475,-344,-448,1872,-1,65,-12
11480,-328,-448,1872,1,69,-8
11485,-352,-448,1888,0,73,-4
11490,-336,-440,1872,-4,76,-1
11495,-360,-424,1872,-13,77,1
11500,-352,-440,1864,-26,78,3
11505,-384,-424,1856,-37,76,1
11510,-376,-432,1896,-44,74,3
11515,-376,-456,1912,-48,71,2
11520,-384,-456,1872,-48,67,4
11525,-384,-448,1912,-50,63,7
11530,-400,-464,1880,-55,58,8
11535,-352,-488,1888,-61,53,10
11540,-384,-472,1896,-70,52,14
11545,-360,-472,1904,-78,49,12
11550,-344,-464,1888,-86,49,12
11555,-336,-464,1864,-93,46,9
11560,-320,-480,1864,-98,46,7
11565,-328,-440,1888,-100,47,3
11570,-328,-456,1872,-100,51,1
11575,-328,-448,1864,-100,58,-2
11580,-336,-448,1904,-100,65,-4
11585,-320,-448,1872,-102,68,-5
11590,-328,-456,1888,-105,74,-6
11595,-296,-440,1880,-110,79,-6
11600,-336,-432,1880,-114,83,-6
11605,-320,-456,1864,-117,86,-6
11610,-352,-456,1864,-115,88,-6
11615,-344,-480,1880,-110,91,-4
11620,-368,-488,1864,-102,93,-3
11625,-336,-480,1856,-91,94,-1
11630,-352,-504,1880,-82,93,-1
11635,-360,-512,1880,-74,94,-2
11640,-360,-496,1856,-68,96,-4
11645,-360,-504,1880,-63,95,-7
11650,-360,-504,1864,-60,94,-7
11655,-336,-496,1864,-57,94,-8
11660,-336,-472,1880,-54,93,-8
11665,-344,-488,1872,-53,92,-10
11670,-360,-496,1856,-54,89,-10
11675,-360,-504,1848,-54,86,-10
11680,-360,-488,1864,-53,85,-9
11685,-344,-528,1848,-53,83,-7
11690,-376,-496,1872,-51,80,-8
11695,-368,-520,1872,-48,79,-8
11700,-392,-536,1864,-43,76,-8
11705,-392,-512,1864,-37,75,-8
11710,-376,-488,1800,-28,72,-8
11715,-360,-536,1824,-20,68,-6
11720,-376,-496,1808,-14,64,-6
11725,-376,-496,1792,-8,60,-5
11730,-392,-480,1784,-3,56,-6
11735,-368,-488,1840,-4,51,-7
11740,-360,-512,1800,-4,48,-8
11745,-352,-488,1856,-3,45,-8
11750,-384,-488,1824,0,44,-8
11755,-360,-472,1832,2,44,-11
11760,-384,-480,1872,6,46,-13
11765,-336,-480,1840,9,47,-12
11770,-360,-480,1840,13,49,-12
11775,-352,-480,1848,15,52,-11
11780,-352,-544,1880,18,54,-8
11785,-320,-496,1848,18,57,-7
11790,-360,-472,1864,19,60,-5
11795,-352,-472,1864,21,62,-4
11800,-360,-472,1840,23,63,-5
11805,-328,-472,1864,21,64,-4
11810,-336,-472,1880,21,65,-5
11815,-360,-448,1872,18,66,-5
11820,-360,-464,1880,14,66,-4
11825,-360,-464,1856,12,71,-2
11830,-344,-456,1880,9,76,0
11835,-344,-456,1896,7,82,1
11840,-320,-464,1888,6,87,2
11845,-344,-472,1864,3,91,2
11850,-328,-464,1840,0,92,3
11855,-336,-472,1880,-5,90,2
11860,-352,-456,1872,-6,86,-1
11865,-368,-472,1848,-8,81,-1
11870,-360,-488,1856,-10,77,-3
11875,-352,-472,1872,-10,73,-5
11880,-344,-480,1880,-8,72,-5
11885,-336,-464,1888,-3,72,-5
11890,-336,-480,1832,0,76,-6
11895,-344,-464,1864,4,79,-6
11900,-352,-464,1872,6,81,-6
11905,-312,-472,1856,8,83,-6
11910,-320,-480,1872,7,87,-7
11915,-352,-448,1856,6,89,-6
11920,-336,-480,1864,5,91,-5
11925,-336,-488,1888,5,93,-3
11930,-360,-480,1880,7,92,-4
11935,-352,-472,1880,7,93,-2
11940,-352,-472,1856,8,92,-1
11945,-352,-456,1864,6,92,-3
11950,-368,-496,1888,4,90,-5
11955,-360,-488,1880,3,88,-6
11960,-352,-472,1848,-3,87,-5
11965,-368,-496,1864,-7,87,-5
11970,-352,-504,1864,-10,87,-4
11975,-360,-496,1880,-10,86,-2
11980,-352,-504,1848,-8,84,1
11985,-360,-496,1864,-6,85,0
11990,-352,-512,1872,-1,82,1
11995,-376,-496,1840,5,82,2
12000,-352,-504,1848,10,80,3
12005,-376,-512,1848,16,77,3
12010,-392,-472,1856,21,74,4
12015,-368,-480,1840,26,72,5
12020,-368,-488,1840,30,68,3
12025,-360,-504,1816,33,65,3
12030,-352,-472,1832,33,64,2
12035,-360,-480,1856,34,61,2
12040,-352,-480,1864,35,60,1
12045,-360,-488,1840,32,59,0
12050,-352,-456,1840,28,57,0
12055,-344,-488,1824,24,55,-1
12060,-344,-472,1856,19,53,0
12065,-352,-472,1864,17,52,-1
12070,-352,-456,1872,15,53,-2
12075,-360,-456,1872,17,52,-1
12080,-360,-464,1864,18,52,-3
12085,-352,-448,1864,21,52,-4
12090,-336,-440,1880,22,56,-6
12095,-336,-448,1880,24,59,-7
12100,-352,-440,1864,25,62,-5
12105,-272,-424,1912,25,68,-5
12110,-312,-464,1856,25,71,-5
12115,-360,-456,1880,26,73,-4
12120,-344,-464,1856,25,75,-6
12125,-360,-480,1896,23,75,-6
12130,-368,-448,1888,21,75,-7
12135,-368,-456,1856,20,75,-7
12140,-360,-464,1888,19,78,-8
12145,-368,-464,1896,18,80,-8
12150,-360,-472,1888,17,79,-9
12155,-384,-448,1864,15,79,-11
12160,-360,-456,1872,12,80,-11
12165,-336,-472,1896,10,79,-11
12170,-376,-432,1880,8,79,-11
12175,-368,-456,1880,7,78,-11
12180,-344,-456,1888,6,78,-11
12185,-352,-456,1880,6,77,-10
12190,-336,-448,1872,6,75,-10
12195,-384,-448,1848,5,74,-8
12200,-376,-448,1864,5,72,-9
12205,-368,-456,1848,3,71,-9
12210,-376,-448,1864,2,68,-7
12215,-376,-456,1872,2,69,-5
12220,-368,-472,1864,4,71,-5
12225,-376,-456,1864,6,73,-3
12230,-384,-472,1880,8,72,-3
12235,-376,-472,1864,9,72,-3
12240,-384,-448,1832,9,71,-1
12245,-360,-464,1864,9,72,-1
12250,-360,-472,1880,11,74,0
12255,-360,-464,1872,15,76,3
12260,-368,-472,1880,20,76,4
12265,-368,-464,1888,23,77,2
12270,-360,-480,1880,26,78,0
12275,-368,-464,1864,26,77,-1
12280,-352,-432,1880,25,75,-2
12285,-352,-448,1880,22,74,-2
12290,-352,-456,1864,18,71,-3
12295,-336,-456,1872,15,70,-3
12300,-344,-440,1856,13,68,-4
12305,-336,-464,1872,8,64,-6
12310,-328,-448,1856,6,63,-6
12315,-336,-448,1848,3,60,-8
12320,-352,-464,1864,3,59,-10
12325,-344,-472,1856,3,59,-10
12330,-368,-440,1864,6,58,-10
12335,-344,-456,1824,7,58,-10
12340,-344,-456,1888,11,59,-9
12345,-352,-432,1864,12,60,-9
12350,-360,-440,1864,13,63,-10
12355,-376,-456,1864,12,64,-9
12360,-360,-456,1888,12,64,-9
12365,-360,-448,1904,12,66,-11
12370,-352,-448,1856,12,68,-9
12375,-352,-440,1872,12,70,-9
12380,-368,-448,1880,12,71,-9
12385,-352,-456,1864,11,73,-11
12390,-360,-448,1880,9,76,-12
12395,-360,-464,1888,8,79,-11
12400,-360,-456,1880,9,80,-11
12405,-352,-456,1872,9,81,-9
12410,-360,-456,1896,10,84,-9
12415,-344,-448,1856,11,85,-7
12420,-384,-448,1888,11,87,-3
12425,-368,-456,1864,11,89,0
12430,-368,-416,1872,10,89,2
12435,-360,-456,1880,10,88,3
12440,-336,-448,1864,10,89,5
12445,-376,-432,1864,11,89,4
12450,-352,-440,1856,11,89,5
12455,-360,-440,1872,14,87,6
12460,-392,-456,1872,16,84,5
12465,-376,-440,1872,14,83,5
12470,-376,-448,1856,15,82,3
12475,-352,-440,1840,14,83,2
12480,-360,-440,1864,15,81,2
12485,-376,-448,1856,13,81,1
12490,-368,-432,1872,12,79,0
12495,-344,-448,1880,11,76,1
12500,-368,-448,1880,9,75,0
12505,-360,-432,1872,6,73,1
12510,-344,-464,1880,6,74,0
12515,-360,-448,1864,5,75,0
12520,-384,-440,1856,6,75,1
12525,-344,-448,1872,5,76,1
12530,-352,-456,1872,4,76,0
12535,-352,-448,1904,3,77,1
12540,-360,-448,1864,3,77,0
12545,-360,-448,1872,3,80,2
12550,-368,-448,1864,3,81,1
12555,-352,-464,1888,3,82,1
12560,-352,-456,1888,5,82,1
12565,-344,-448,1872,6,83,0
12570,-352,-440,1864,5,83,-2
12575,-344,-440,1904,6,82,-3
12580,-368,-448,1864,7,80,-3
12585,-376,-464,1848,9,81,-5
12590,-336,-464,1840,12,81,-7
12595,-352,-456,1880,15,83,-7
12600,-360,-472,1856,19,86,-6
12605,-344,-448,1888,23,88,-7
12610,-360,-448,1904,25,92,-7
12615,-360,-448,1880,28,96,-7
12620,-368,-440,1888,32,100,-8
12625,-368,-440,1840,36,103,-7
12630,-360,-456,1864,40,104,-8
12635,-360,-440,1880,41,104,-9
12640,-352,-408,1872,40,102,-8
12645,-368,-432,1872,38,100,-7
12650,-368,-424,1888,33,98,-8
12655,-376,-408,1864,27,96,-6
12660,-360,-432,1880,20,96,-3
12665,-360,-440,1864,16,97,-1
12670,-384,-424,1896,12,96,0
12675,-368,-448,1880,10,93,0
12680,-376,-448,1872,7,93,0
12685,-352,-480,1880,8,91,1
12690,-368,-472,1880,10,87,0
12695,-376,-448,1864,14,86,0
12700,-368,-448,1864,17,86,2
12705,-368,-440,1848,23,86,3
12710,-352,-448,1856,27,87,5
12715,-352,-440,1872,33,88,6
12720,-368,-440,1848,38,90,8
12725,-368,-440,1880,40,89,11
12730,-376,-424,1872,39,89,12
12735,-392,-440,1880,36,86,12
12740,-400,-440,1864,32,85,11
12745,-384,-416,1872,29,83,11
12750,-376,-408,1864,24,82,11
12755,-368,-424,1888,21,80,9
12760,-360,-440,1872,19,80,10
12765,-400,-416,1888,15,78,8
12770,-392,-432,1912,12,75,8
12775,-376,-432,1880,8,73,6
12780,-392,-432,1880,3,72,5
12785,-384,-440,1896,0,71,5
12790,-360,-408,1880,-3,71,3
12795,-384,-408,1880,-6,72,4
12800,-384,-440,1872,-7,71,5
12805,-368,-424,1880,-8,74,4
12810,-376,-440,1888,-7,74,5
12815,-400,-440,1808,-7,74,5
12820,-368,-440,1896,-6,75,4
12825,-376,-432,1872,-3,74,3
12830,-376,-448,1880,-2,72,2
12835,-376,-440,1880,0,71,0
12840,-392,-440,1888,1,69,-2
12845,-368,-448,1904,0,69,0
12850,-368,-440,1840,-1,71,1
12855,-376,-448,1864,0,70,1
12860,-376,-416,1880,0,71,1
12865,-424,-424,1864,0,71,2
12870,-368,-464,1888,0,72,0
12875,-368,-448,1872,1,72,0
12880,-384,-448,1864,3,71,2
12885,-408,-424,1864,4,72,-1
12890,-376,-416,1896,7,75,-1
12895,-392,-440,1896,9,76,-1
12900,-392,-424,1872,11,75,-1
12905,-384,-432,1864,11,77,0
12910,-368,-440,1872,13,77,-2
12915,-368,-424,1880,14,75,-1
12920,-360,-440,1888,16,73,1
12925,-352,-424,1880,15,72,1
12930,-360,-416,1872,14,71,2
12935,-344,-424,1864,14,70,3
12940,-384,-384,1888,14,69,4
12945,-360,-408,1872,13,68,4
12950,-392,-392,1848,10,68,5
12955,-376,-432,1872,7,72,7
12960,-376,-408,1880,4,72,6
12965,-360,-440,1864,3,70,6
12970,-368,-424,1880,2,69,6
12975,-360,-432,1840,4,70,5
12980,-392,-416,1880,6,68,3
12985,-368,-440,1864,7,67,6
12990,-360,-448,1872,9,69,7
12995,-376,-432,1872,9,69,7
13000,-384,-424,1880,11,69,7
13005,-384,-432,1864,14,70,7
13010,-360,-424,1872,18,71,7
13015,-384,-408,1856,23,71,6
13020,-384,-408,1872,26,71,6
13025,-384,-424,1864,29,72,6
13030,-360,-432,1880,32,72,6
13035,-376,-416,1872,33,71,5
13040,-376,-408,1872,34,69,4
13045,-352,-400,1880,33,69,5
13050,-368,-424,1880,31,69,6
13055,-376,-416,1904,28,70,6
13060,-368,-400,1864,24,70,6
13065,-368,-408,1880,21,70,4
13070,-368,-392,1880,18,70,4
13075,-384,-384,1888,16,69,5
13080,-416,-424,1848,13,71,3
13085,-344,-432,1872,11,70,3
13090,-368,-424,1864,12,70,1
13095,-352,-424,1872,11,71,1
13100,-376,-408,1880,10,71,3
13105,-384,-416,1896,9,72,3
13110,-376,-400,1888,6,72,2
13115,-376,-400,1888,4,73,0
13120,-368,-416,1888,2,71,0
13125,-384,-408,1880,0,70,-1
13130,-384,-392,1880,-3,70,-1
13135,-392,-424,1904,-8,68,-3
13140,-376,-424,1888,-11,70,-4
13145,-392,-432,1896,-12,70,-2
13150,-392,-416,1896,-12,70,-2
13155,-392,-424,1888,-13,69,-2
13160,-376,-424,1864,-13,72,-2
13165,-384,-408,1896,-10,71,-3
13170,-376,-424,1888,-10,71,-5
13175,-384,-408,1872,-10,70,-2
13180,-368,-424,1864,-12,69,-4
13185,-424,-408,1880,-12,67,-5
13190,-376,-416,1864,-13,66,-4
13195,-408,-424,1864,-12,66,-3
13200,-392,-400,1896,-12,66,-3
13205,-368,-424,1904,-10,67,-3
13210,-368,-440,1896,-9,66,-2
13215,-368,-440,1888,-7,65,-3
13220,-400,-400,1904,-6,64,-3
13225,-352,-440,1880,-5,63,-4
13230,-400,-416,1880,-6,60,-3
13235,-384,-384,1864,-6,57,-2
13240,-384,-440,1872,-7,55,-4
13245,-344,-376,1808,-6,56,-5
13250,-376,-440,1904,-6,54,-4
13255,-392,-400,1880,-5,54,-6
13260,-352,-432,1888,-3,54,-7
13265,-392,-408,1872,-1,51,-10
13270,-384,-400,1888,-2,51,-11
13275,-360,-424,1888,-2,55,-9
13280,-368,-424,1848,-3,54,-10
13285,-384,-408,1880,-7,51,-10
13290,-400,-384,1872,-9,51,-10
13295,-384,-392,1888,-12,53,-9
13300,-360,-400,1864,-14,52,-8
13305,-352,-408,1872,-15,52,-9
13310,-384,-424,1872,-14,55,-9
13315,-384,-408,1880,-13,54,-9
13320,-376,-408,1880,-10,55,-9
13325,-368,-392,1888,-9,53,-11
13330,-368,-432,1872,-8,53,-12
13335,-368,-416,1872,-9,52,-13
13340,-392,-400,1888,-10,52,-13
13345,-368,-424,1880,-14,50,-11
13350,-368,-424,1896,-16,50,-13
13355,-360,-416,1888,-17,50,-13
13360,-344,-408,1896,-20,52,-13
13365,-344,-416,1872,-23,54,-12
13370,-368,-400,1880,-26,57,-13
13375,-352,-424,1872,-29,59,-16
13380,-360,-416,1888,-33,60,-14
13385,-376,-384,1888,-37,63,-12
13390,-376,-392,1848,-41,64,-11
13395,-360,-416,1904,-46,66,-8
13400,-368,-416,1896,-48,69,-5
13405,-376,-424,1864,-48,68,-4
13410,-360,-424,1880,-48,69,-6
13415,-376,-408,1904,-47,67,-7
13420,-376,-392,1880,-45,66,-7
13425,-392,-408,1888,-43,65,-8
13430,-392,-424,1896,-41,63,-11
13435,-368,-432,1856,-40,61,-11
13440,-384,-416,1888,-38,59,-13
13445,-376,-432,1880,-38,60,-12
13450,-360,-408,1864,-39,57,-12
13455,-384,-424,1888,-40,57,-12
13460,-384,-416,1872,-41,57,-11
13465,-352,-432,1856,-43,57,-12
13470,-360,-408,1888,-43,56,-12
13475,-368,-408,1888,-44,57,-11
13480,-384,-432,1888,-41,58,-10
13485,-376,-416,1880,-42,59,-9
13490,-360,-424,1864,-42,60,-7
13495,-360,-440,1872,-43,61,-5
13500,-360,-432,1872,-41,60,-3
13505,-352,-448,1864,-40,60,-3
13510,-344,-440,1888,-37,59,-4
13515,-384,-432,1888,-35,59,-3
13520,-312,-424,1936,-33,59,-4
13525,-360,-440,1880,-32,58,-6
13530,-360,-432,1888,-33,57,-6
13535,-376,-424,1856,-32,58,-8
13540,-368,-424,1872,-34,58,-8
13545,-360,-424,1888,-34,60,-10
13550,-368,-424,1832,-35,60,-12
13555,-368,-424,1872,-36,60,-12
13560,-352,-424,1864,-36,60,-11
13565,-360,-440,1872,-34,61,-11
13570,-368,-424,1864,-34,61,-10
13575,-360,-432,1888,-34,60,-12
13580,-360,-424,1896,-35,59,-12
13585,-368,-424,1872,-35,59,-11
13590,-344,-416,1856,-35,59,-10
13595,-344,-432,1872,-35,60,-9
13600,-368,-440,1880,-36,58,-10
13605,-368,-424,1872,-36,57,-12
13610,-368,-424,1888,-36,58,-11
13615,-344,-432,1872,-36,57,-11
13620,-376,-440,1880,-36,58,-12
13625,-384,-416,1864,-36,59,-13
13630,-416,-456,1920,-35,60,-12
13635,-376,-408,1864,-37,62,-11
13640,-376,-424,1864,-38,63,-10
13645,-368,-440,1896,-36,64,-9
13650,-384,-424,1896,-37,65,-9
13655,-376,-440,1840,-36,67,-9
13660,-368,-440,1888,-35,67,-8
13665,-360,-448,1856,-33,66,-7
13670,-392,-424,1896,-32,64,-7
13675,-360,-432,1864,-31,64,-8
13680,-368,-408,1880,-30,64,-9
13685,-360,-432,1864,-28,66,-10
13690,-392,-408,1864,-27,64,-10
13695,-368,-440,1872,-26,64,-10
13700,-384,-424,1880,-26,63,-8
13705,-400,-424,1856,-26,64,-10
13710,-376,-432,1864,-25,63,-9
13715,-360,-432,1896,-25,64,-10
13720,-368,-432,1888,-24,65,-8
13725,-360,-424,1864,-23,65,-9
13730,-376,-432,1888,-24,63,-7
13735,-368,-432,1896,-25,64,-6
13740,-352,-424,1848,-26,64,-5
13745,-352,-440,1888,-28,63,-6
13750,-336,-440,1856,-30,63,-8
13755,-368,-432,1856,-32,61,-8
13760,-368,-424,1880,-34,61,-7
13765,-376,-432,1864,-36,62,-6
13770,-384,-440,1872,-37,62,-7
13775,-336,-448,1880,-37,62,-7
13780,-368,-440,1856,-36,62,-8
13785,-352,-448,1880,-34,62,-10
13790,-376,-440,1872,-31,60,-10
13795,-376,-440,1872,-29,61,-10
13800,-360,-440,1864,-26,60,-10
13805,-360,-448,1856,-25,60,-12
13810,-384,-424,1864,-25,61,-12
13815,-360,-440,1880,-24,58,-12
13820,-360,-432,1880,-23,59,-12
13825,-376,-440,1848,-23,60,-10
13830,-384,-424,1880,-22,60,-12
13835,-376,-432,1864,-22,61,-8
13840,-368,-448,1888,-23,63,-7
13845,-376,-448,1880,-23,64,-7
13850,-336,-464,1784,-24,65,-7
13855,-344,-448,1856,-27,67,-7
13860,-360,-456,1864,-29,68,-9
13865,-344,-472,1888,-30,67,-9
13870,-368,-464,1880,-31,68,-10
13875,-360,-456,1880,-29,69,-9
13880,-360,-440,1872,-23,68,-9
13885,-360,-440,1896,-18,68,-8
13890,-368,-456,1840,-11,66,-7
13895,-368,-432,1848,-2,67,-8
13900,-344,-416,1856,8,65,-6
13905,-360,-448,1848,14,67,-5
13910,-328,-448,1848,19,65,-5
13915,-368,-432,1880,24,65,-5
13920,-368,-408,1872,24,65,-6
13925,-352,-424,1856,23,64,-6
13930,-336,-408,1872,18,62,-7
13935,-352,-416,1864,14,62,-7
13940,-368,-408,1888,9,62,-9
13945,-376,-408,1896,1,60,-7
13950,-344,-416,1864,-4,63,-10
13955,-352,-408,1912,-10,63,-10
13960,-368,-416,1904,-15,64,-8
13965,-376,-432,1912,-20,65,-12
13970,-392,-416,1896,-26,66,-11
13975,-368,-424,1896,-33,68,-11
13980,-376,-440,1880,-36,68,-11
13985,-360,-448,1896,-40,69,-11
13990,-360,-432,1912,-44,69,-12
13995,-384,-440,1896,-45,70,-13
14000,-368,-432,1872,-48,70,-12
14005,-376,-440,1856,-50,69,-11
14010,-368,-440,1872,-52,67,-11
14015,-376,-408,1880,-53,67,-12
14020,-360,-456,1864,-53,66,-12
14025,-360,-440,1864,-52,66,-13
14030,-376,-432,1880,-50,66,-12
14035,-336,-448,1864,-47,67,-13
14040,-368,-440,1880,-45,68,-12
14045,-360,-456,1880,-42,69,-11
14050,-360,-464,1880,-40,70,-11
14055,-352,-440,1872,-37,70,-11
14060,-352,-464,1880,-35,69,-9
14065,-368,-448,1864,-33,69,-9
14070,-344,-456,1872,-33,69,-7
14075,-352,-456,1872,-31,70,-9
14080,-360,-448,1888,-33,69,-9
14085,-344,-464,1864,-33,69,-9
14090,-376,-456,1856,-34,68,-9
14095,-344,-432,1856,-34,66,-9
14100,-360,-432,1872,-35,64,-8
14105,-344,-448,1888,-38,63,-8
14110,-376,-432,1880,-37,64,-9
14115,-336,-448,1856,-37,63,-10
14120,-360,-440,1848,-37,63,-10
14125,-368,-432,1856,-37,63,-12
14130,-360,-432,1856,-35,65,-10
14135,-376,-424,1848,-35,68,-12
14140,-360,-432,1864,-34,70,-10
14145,-352,-440,1880,-35,70,-10
14150,-360,-432,1888,-33,71,-10
14155,-368,-440,1872,-32,71,-12
14160,-360,-416,1880,-32,73,-10
14165,-368,-440,1888,-32,73,-12
14170,-328,-448,1832,-32,71,-11
14175,-360,-440,1840,-31,69,-10
14180,-368,-432,1864,-29,67,-8
14185,-376,-456,1864,-26,66,-5
14190,-360,-448,1880,-23,66,-5
14195,-360,-472,1832,-18,64,-4
14200,-344,-448,1896,-14,63,-3
14205,-352,-448,1880,-10,61,-5
14210,-368,-432,1888,-6,60,-7
14215,-336,-456,1848,-4,60,-7
14220,-368,-432,1872,-4,59,-6
14225,-368,-440,1888,-5,58,-5
14230,-360,-432,1880,-6,59,-5
14235,-384,-448,1872,-10,60,-3
14240,-352,-440,1872,-14,61,-4
14245,-368,-456,1888,-19,63,-3
14250,-352,-440,1888,-22,63,-2
14255,-368,-448,1872,-26,66,-2
14260,-352,-448,1896,-30,68,-2
14265,-360,-456,1864,-33,69,-1
14270,-360,-456,1880,-37,71,-2
14275,-344,-448,1864,-38,70,-1
14280,-384,-448,1864,-41,70,1
14285,-392,-464,1888,-41,70,-1
14290,-376,-448,1872,-42,70,1
14295,-360,-456,1856,-43,71,-1
14300,-344,-456,1872,-43,70,-2
14305,-352,-472,1888,-43,69,-2
14310,-360,-472,1872,-44,68,-3
14315,-344,-456,1856,-44,66,-6
14320,-328,-480,1888,-44,67,-7
14325,-344,-448,1872,-44,66,-8
14330,-344,-456,1888,-45,66,-10
14335,-336,-456,1816,-45,65,-11
14340,-352,-448,1888,-44,64,-13
14345,-344,-472,1880,-44,64,-11
14350,-336,-456,1864,-44,66,-11
14355,-360,-440,1880,-43,66,-11
14360,-336,-456,1856,-42,63,-12
14365,-336,-456,1888,-43,64,-11
14370,-344,-456,1848,-41,63,-12
14375,-368,-440,1832,-39,62,-13
14380,-376,-440,1872,-39,62,-12
14385,-360,-448,1872,-38,62,-10
14390,-352,-456,1864,-37,62,-9
14395,-368,-464,1848,-36,62,-9
14400,-368,-440,1872,-35,60,-9
14405,-360,-440,1864,-32,61,-8
14410,-344,-456,1896,-32,63,-7
14415,-344,-464,1856,-30,63,-6
14420,-344,-448,1880,-29,65,-5
14425,-360,-448,1880,-28,67,-4
14430,-360,-456,1864,-26,67,-3
14435,-352,-448,1872,-24,67,-3
14440,-352,-456,1856,-22,67,-4
14445,-352,-464,1880,-22,68,-4
14450,-320,-464,1880,-22,67,-6
14455,-344,-464,1888,-22,67,-5
14460,-368,-456,1888,-22,66,-6
14465,-344,-456,1864,-22,66,-6
14470,-352,-448,1848,-22,65,-5
14475,-352,-472,1872,-22,66,-5
14480,-352,-464,1880,-21,67,-5
14485,-344,-464,1880,-22,66,-4
14490,-368,-448,1872,-22,67,-5
14495,-360,-472,1832,-21,66,-4
14500,-368,-456,1840,-20,66,-5
14505,-384,-472,1872,-18,66,-3
14510,-360,-456,1848,-16,67,-3
14515,-352,-472,1880,-14,67,-3
14520,-352,-488,1880,-12,66,-2
14525,-352,-464,1864,-10,66,-3
14530,-336,-456,1848,-9,66,-2
14535,-368,-472,1880,-5,68,-2
14540,-328,-464,1848,-3,69,-1
14545,-352,-464,1840,0,69,-2
14550,-352,-448,1880,3,70,-2
14555,-352,-472,1880,6,71,-1
14560,-376,-456,1872,9,70,-2
14565,-360,-448,1888,10,71,-1
14570,-360,-448,1864,12,70,0
14575,-344,-456,1848,12,70,-1
14580,-368,-448,1856,13,69,-1
14585,-368,-448,1840,12,70,0
14590,-352,-464,1832,12,68,-2
14595,-368,-464,1864,12,68,-1
14600,-360,-448,1856,11,67,-1
14605,-360,-456,1880,10,66,-3
14610,-408,-424,1928,8,65,-4
14615,-384,-440,1880,7,65,-6
14620,-376,-440,1904,5,64,-8
14625,-360,-456,1856,3,63,-8
14630,-352,-432,1880,0,66,-8
14635,-344,-440,1880,0,66,-7
14640,-336,-456,1848,-2,66,-6
14645,-352,-456,1872,-4,67,-5
14650,-344,-448,1880,-3,70,-5
14655,-352,-456,1896,-3,71,-3
14660,-352,-456,1872,-2,74,-1
14665,-344,-448,1864,-2,76,0
14670,-352,-456,1864,0,75,1
14675,-368,-448,1880,2,76,1
14680,-344,-448,1888,4,77,2
14685,-376,-432,1888,5,73,2
14690,-360,-464,1872,5,72,2
14695,-376,-440,1872,8,72,3
14700,-352,-464,1864,10,72,4
14705,-352,-464,1872,9,70,2
14710,-376,-488,1872,11,69,3
14715,-344,-448,1856,12,67,3
14720,-352,-456,1888,12,67,2
14725,-368,-456,1880,12,65,2
14730,-360,-448,1872,13,67,3
14735,-368,-448,1888,14,66,3
14740,-344,-472,1864,15,68,4
14745,-368,-448,1848,15,68,4
14750,-352,-448,1872,15,70,4
14755,-360,-448,1888,15,72,5
14760,-360,-440,1864,14,73,5
14765,-336,-464,1872,15,75,4
14770,-352,-448,1880,16,74,4
14775,-360,-464,1872,17,75,4
14780,-336,-472,1888,16,75,4
14785,-344,-456,1872,16,75,3
14790,-336,-448,1880,15,75,3
14795,-328,-440,1856,14,74,3
14800,-352,-432,1848,12,71,2
14805,-360,-416,1872,12,70,1
14810,-336,-448,1880,10,69,2
14815,-352,-448,1864,8,69,0
14820,-352,-432,1880,9,68,-2
14825,-336,-432,1864,9,67,-2
14830,-320,-432,1848,9,68,-3
14835,-352,-440,1880,10,69,-4
14840,-344,-440,1864,11,67,-4
14845,-352,-432,1872,11,67,-5
14850,-344,-440,1872,10,67,-5
14855,-344,-424,1864,11,68,-5
14860,-384,-440,1864,10,68,-6
14865,-352,-432,1888,12,68,-4
14870,-360,-432,1856,11,69,-4
14875,-352,-440,1880,14,71,-3
14880,-344,-424,1872,16,74,-2
14885,-368,-424,1904,19,78,-2
14890,-352,-440,1880,19,79,1
14895,-360,-440,1888,20,79,2
14900,-352,-440,1880,20,79,3
14905,-344,-448,1872,20,77,3
14910,-392,-432,1872,17,78,5
14915,-360,-456,1888,14,77,4
14920,-360,-456,1888,11,77,3
14925,-368,-448,1888,8,78,3
14930,-344,-456,1896,7,77,3
14935,-360,-440,1880,6,77,1
14940,-416,-472,1800,7,77,0
14945,-344,-456,1896,9,77,1
14950,-336,-472,1880,12,79,1
14955,-368,-456,1864,15,79,1
14960,-344,-432,1864,21,79,2
14965,-360,-456,1840,26,80,3
14970,-360,-448,1880,34,78,4
14975,-360,-448,1880,41,78,4
14980,-368,-440,1872,45,76,6
14985,-344,-456,1880,47,75,6
14990,-344,-424,1872,48,74,4
14995,-336,-432,1880,48,73,3
