timestamp,accel_x,accel_y,accel_z,gyro_x,gyro_y,gyro_z
0,384,-2000,-928,-25,20,-2
5,360,-2000,-912,-27,20,-3
10,384,-1992,-944,-26,19,-3
15,344,-1992,-936,-26,18,-2
20,368,-2000,-928,-27,20,-3
25,384,-1952,-968,-26,19,-5
30,336,-1984,-928,-27,18,-3
35,360,-2000,-920,-25,19,-3
40,344,-2016,-944,-25,19,-2
45,360,-2000,-928,-25,19,-2
50,376,-2000,-920,-25,21,-2
55,368,-1984,-928,-28,21,-2
60,376,-1984,-936,-28,22,-2
65,368,-2016,-904,-27,21,-3
70,360,-2000,-928,-26,21,-4
75,384,-1992,-952,-27,22,-3
80,352,-2016,-912,-29,21,-2
85,368,-2032,-952,-28,21,-1
90,360,-2024,-920,-29,22,-2
95,376,-2008,-920,-28,22,-2
100,376,-2000,-912,-28,22,-3
105,368,-2016,-944,-28,23,-3
110,352,-2016,-920,-28,25,-2
115,368,-2032,-912,-29,24,-3
120,360,-1992,-920,-29,25,-4
125,400,-2024,-928,-28,25,-2
130,360,-1992,-944,-27,24,-3
135,368,-2008,-912,-28,25,-3
140,368,-2008,-928,-27,25,-3
145,352,-2008,-928,-28,26,-3
150,368,-2008,-936,-26,25,-2
155,360,-1992,-944,-27,24,-3
160,368,-2000,-920,-27,26,-3
165,360,-1992,-912,-28,26,-3
170,360,-2008,-920,-30,24,-4
175,360,-2016,-920,-31,25,-3
180,368,-1992,-904,-32,24,-3
185,360,-2016,-928,-33,25,-2
190,360,-1992,-912,-32,26,-2
195,360,-2000,-912,-32,27,-2
200,376,-2000,-936,-31,27,-4
205,344,-2008,-944,-30,27,-2
210,344,-2016,-936,-30,27,-2
215,352,-2024,-896,-31,29,-3
220,360,-2008,-928,-31,27,-2
225,368,-2008,-936,-31,26,-3
230,360,-2032,-936,-31,26,-3
235,376,-2008,-960,-32,25,-2
240,432,-2040,-920,-31,25,-3
245,376,-2024,-912,-31,25,-2
250,336,-2000,-928,-31,25,-1
255,376,-2024,-960,-30,26,-2
260,360,-2016,-920,-30,26,-3
265,376,-2016,-904,-32,26,-4
270,360,-2008,-936,-33,25,-2
275,336,-2000,-960,-31,24,-3
280,368,-2008,-928,-32,23,-3
285,344,-2016,-896,-31,24,-3
290,352,-2000,-920,-31,23,-4
295,376,-2016,-912,-33,22,-4
300,376,-2016,-880,-33,21,-4
305,360,-2008,-952,-34,20,-4
310,368,-2016,-904,-35,18,-4
315,352,-1992,-952,-36,19,-5
320,368,-2000,-904,-36,20,-4
325,360,-2016,-920,-36,20,-3
330,376,-2016,-896,-36,20,-5
335,376,-2016,-912,-37,21,-4
340,384,-2024,-960,-36,22,-4
345,368,-1944,-1024,-37,19,-5
350,336,-2000,-960,-36,20,-5
355,360,-2032,-936,-36,19,-5
360,352,-2016,-920,-36,19,-4
365,360,-1976,-928,-37,18,-5
370,336,-2000,-928,-39,18,-4
375,352,-2016,-944,-37,18,-4
380,368,-2008,-888,-37,17,-4
385,360,-2032,-936,-37,16,-3
390,360,-2016,-920,-38,17,-4
395,376,-2032,-944,-38,16,-5
400,408,-1984,-832,-38,17,-5
405,368,-2008,-912,-39,17,-4
410,376,-2016,-896,-39,16,-4
415,400,-2016,-896,-39,16,-4
420,352,-2032,-912,-39,16,-4
425,368,-2008,-928,-40,17,-3
430,368,-1992,-920,-42,16,-4
435,368,-1992,-896,-43,18,-5
440,360,-2000,-896,-44,17,-5
445,344,-2024,-904,-45,15,-6
450,352,-2016,-912,-45,14,-5
455,376,-2040,-912,-42,15,-5
460,360,-1992,-880,-43,15,-4
465,360,-2016,-928,-40,16,-3
470,344,-2008,-880,-40,15,-4
475,360,-2008,-928,-38,15,-4
480,360,-2016,-912,-39,14,-5
485,384,-2024,-904,-40,15,-4
490,384,-2040,-896,-39,15,-3
495,376,-2008,-928,-41,14,-3
500,344,-2008,-920,-41,16,-3
505,368,-2016,-896,-42,15,-3
510,360,-2008,-904,-42,16,-4
515,360,-2000,-944,-42,15,-4
520,360,-2008,-904,-44,15,-4
525,352,-2008,-944,-43,14,-3
530,376,-2032,-928,-43,14,-4
535,368,-2024,-944,-46,13,-3
540,376,-2032,-928,-43,12,-2
545,360,-2000,-896,-42,12,-1
550,352,-1992,-912,-41,12,-2
555,352,-1992,-920,-40,12,-1
560,360,-2000,-912,-40,12,-1
565,368,-2024,-920,-41,13,-1
570,384,-2008,-904,-41,11,0
575,392,-1992,-928,-43,10,0
580,344,-1976,-904,-44,10,0
585,368,-2008,-920,-44,11,-1
590,352,-1992,-928,-43,12,-1
595,352,-2016,-912,-42,14,0
600,360,-2008,-920,-42,15,0
605,384,-2008,-936,-40,15,-1
610,352,-2024,-936,-40,14,-2
615,344,-2032,-928,-39,16,-2
620,368,-2008,-928,-41,15,-2
625,352,-2032,-912,-42,14,-3
630,344,-1992,-872,-44,14,-2
635,344,-2016,-928,-45,13,-2
640,352,-2008,-896,-45,12,0
645,352,-2032,-920,-45,12,-2
650,400,-2032,-928,-45,14,-2
655,352,-2008,-904,-47,15,0
660,376,-1992,-920,-50,16,-1
665,344,-2008,-928,-50,15,-1
670,344,-2008,-952,-51,15,-2
675,360,-2000,-904,-51,14,-3
680,352,-1992,-912,-53,14,-1
685,360,-1992,-928,-53,13,-2
690,352,-2016,-904,-52,14,-2
695,344,-2008,-904,-50,13,0
700,344,-2024,-896,-50,12,-1
705,344,-2008,-928,-48,12,0
710,352,-2016,-920,-47,11,1
715,352,-2008,-936,-46,11,1
720,360,-2024,-936,-44,12,1
725,344,-2008,-912,-42,10,-1
730,344,-2016,-896,-41,9,2
735,336,-2024,-912,-40,7,2
740,368,-2000,-928,-41,6,2
745,336,-2016,-920,-39,6,2
750,344,-1984,-904,-38,5,1
755,352,-1984,-928,-40,5,0
760,360,-2000,-904,-39,5,1
765,360,-2000,-912,-39,5,1
770,384,-2024,-888,-41,5,2
775,352,-2016,-928,-42,4,1
780,344,-2008,-928,-43,5,1
785,360,-2000,-904,-42,6,2
790,368,-2024,-928,-41,6,1
795,376,-2016,-936,-43,6,2
800,360,-2008,-944,-43,7,2
805,360,-2016,-928,-41,7,4
810,368,-2024,-928,-41,8,3
815,344,-2008,-896,-41,9,3
820,344,-2016,-928,-41,9,4
825,352,-2024,-920,-40,10,4
830,352,-2024,-944,-42,11,5
835,368,-2008,-920,-42,10,4
840,368,-2008,-944,-43,10,5
845,376,-2008,-952,-44,10,6
850,344,-2008,-920,-46,9,4
855,352,-2000,-952,-47,9,5
860,360,-2000,-928,-48,8,5
865,336,-1984,-944,-49,8,7
870,352,-2024,-952,-50,9,6
875,368,-1984,-952,-49,8,6
880,376,-2016,-928,-50,9,6
885,368,-2016,-928,-51,9,6
890,344,-2032,-920,-48,8,6
895,336,-2024,-920,-48,9,7
900,336,-2008,-912,-48,9,7
905,344,-2032,-952,-46,10,5
910,384,-2016,-920,-43,11,6
915,360,-2008,-904,-42,11,6
920,360,-2008,-936,-41,11,6
925,344,-2008,-896,-39,12,7
930,352,-2016,-920,-39,11,7
935,352,-2024,-936,-38,11,7
940,328,-2000,-928,-36,9,8
945,328,-2008,-912,-38,9,7
950,344,-2000,-912,-39,10,6
955,368,-2024,-912,-39,10,6
960,360,-2024,-904,-39,10,5
965,344,-2000,-920,-40,7,3
970,352,-2000,-928,-40,9,3
975,368,-2000,-944,-40,8,4
980,392,-2024,-944,-41,8,6
985,352,-2024,-888,-42,8,6
990,360,-2008,-928,-41,9,6
995,360,-2000,-928,-40,8,5
1000,336,-2000,-912,-40,9,5
1005,328,-2008,-920,-38,11,5
1010,360,-2008,-896,-40,10,5
1015,328,-2000,-936,-37,11,6
1020,344,-2008,-912,-37,10,6
1025,352,-2008,-936,-37,11,7
1030,328,-2000,-912,-36,10,6
1035,368,-2000,-912,-35,13,5
1040,352,-2008,-936,-36,12,6
1045,352,-2008,-920,-36,11,7
1050,344,-2008,-904,-35,11,6
1055,320,-2008,-888,-34,12,6
1060,352,-2024,-896,-34,12,6
1065,360,-2008,-888,-36,12,6
1070,352,-2016,-920,-35,12,6
1075,352,-2016,-896,-35,13,6
1080,336,-2008,-936,-37,12,5
1085,368,-2024,-904,-37,12,7
1090,360,-2008,-944,-38,12,5
1095,336,-2016,-896,-39,11,7
1100,376,-2016,-912,-41,12,5
1105,320,-1984,-880,-40,11,6
1110,360,-2016,-920,-42,11,6
1115,360,-2016,-880,-42,11,7
1120,344,-2032,-944,-44,11,7
1125,344,-1976,-904,-43,11,7
1130,352,-2024,-904,-44,11,7
1135,336,-2016,-904,-46,12,6
1140,352,-2016,-904,-47,11,6
1145,328,-2016,-904,-47,13,7
1150,336,-2016,-904,-47,12,8
1155,336,-2008,-904,-48,13,8
1160,336,-1976,-912,-47,14,10
1165,352,-2000,-920,-47,13,9
1170,320,-2000,-888,-47,13,9
1175,360,-2024,-896,-47,14,10
1180,344,-2000,-912,-45,14,10
1185,360,-2000,-944,-45,13,10
1190,328,-2016,-920,-44,13,10
1195,336,-1984,-896,-44,12,11
1200,344,-2000,-952,-45,13,10
1205,336,-2024,-912,-45,13,10
1210,336,-2024,-880,-46,12,9
1215,264,-1968,-960,-45,12,9
1220,344,-2032,-896,-44,12,10
1225,344,-2016,-928,-44,13,9
1230,360,-2024,-928,-46,11,9
1235,336,-2032,-904,-45,12,9
1240,328,-2024,-880,-43,10,10
1245,344,-2000,-920,-44,9,11
1250,344,-2024,-928,-45,8,11
1255,328,-2008,-912,-42,9,10
1260,352,-2024,-896,-42,9,10
1265,352,-2008,-912,-42,11,12
1270,376,-1992,-984,-41,10,13
1275,328,-2008,-904,-39,12,13
1280,336,-2016,-936,-38,12,12
1285,336,-2032,-888,-38,12,12
1290,360,-2016,-944,-38,14,12
1295,328,-2000,-912,-35,12,10
1300,352,-2008,-896,-35,12,12
1305,328,-2016,-896,-34,13,10
1310,344,-2008,-904,-36,14,11
1315,336,-2000,-912,-38,12,9
1320,304,-2000,-904,-38,11,8
1325,336,-2000,-912,-39,12,7
1330,352,-2032,-928,-39,12,7
1335,328,-2024,-912,-40,13,7
1340,360,-2000,-936,-38,13,8
1345,336,-2024,-904,-38,14,8
1350,328,-2008,-920,-36,13,8
1355,344,-2016,-928,-37,14,10
1360,328,-2024,-944,-36,17,8
1365,352,-2024,-912,-35,15,8
1370,336,-2008,-944,-37,16,7
1375,336,-2008,-936,-38,16,7
1380,344,-2032,-904,-37,17,8
1385,328,-2024,-912,-36,17,8
1390,320,-2008,-888,-36,16,9
1395,320,-2008,-872,-34,15,9
1400,328,-2008,-880,-33,16,10
1405,312,-1992,-904,-31,15,10
1410,344,-2024,-896,-30,15,9
1415,320,-2040,-904,-28,16,8
1420,320,-2032,-920,-29,18,8
1425,336,-2024,-888,-31,17,8
1430,336,-2024,-888,-30,18,8
1435,312,-2032,-904,-30,19,8
1440,288,-2032,-912,-31,20,7
1445,304,-2024,-904,-29,21,8
1450,344,-2024,-920,-31,20,7
1455,320,-2024,-928,-27,20,7
1460,328,-2016,-904,-26,22,6
1465,312,-2016,-936,-26,22,5
1470,344,-2016,-920,-28,21,5
1475,336,-2000,-912,-28,21,5
1480,320,-2008,-944,-29,21,5
1485,320,-2008,-880,-29,20,5
1490,344,-2016,-944,-30,18,5
1495,320,-2016,-904,-30,16,5
1500,344,-2016,-928,-29,17,4
1505,352,-2040,-912,-28,17,5
1510,336,-2016,-928,-27,17,6
1515,336,-2024,-944,-25,17,7
1520,312,-2008,-920,-23,17,8
1525,320,-2024,-920,-24,17,9
1530,336,-2000,-904,-20,17,9
1535,344,-2032,-928,-21,16,10
1540,312,-2008,-912,-20,16,9
1545,336,-2024,-872,-19,17,10
1550,320,-2016,-920,-19,18,10
1555,320,-2008,-912,-18,15,10
1560,304,-2024,-912,-19,15,8
1565,344,-2016,-904,-17,15,9
1570,344,-2024,-904,-21,15,10
1575,352,-2016,-952,-20,15,9
1580,320,-2000,-912,-21,15,10
1585,344,-2008,-920,-23,14,9
1590,344,-2000,-880,-24,14,8
1595,344,-2000,-896,-23,15,9
1600,320,-2008,-880,-25,15,9
1605,344,-2016,-912,-26,16,8
1610,344,-2016,-888,-25,14,9
1615,336,-1968,-888,-26,15,8
1620,336,-1992,-912,-27,16,9
1625,320,-2024,-888,-29,17,8
1630,320,-2008,-904,-29,14,6
1635,336,-2024,-904,-28,13,5
1640,336,-2008,-896,-29,13,5
1645,336,-2008,-864,-29,12,5
1650,328,-2016,-896,-32,12,5
1655,344,-2008,-880,-35,10,5
1660,336,-2032,-896,-35,11,7
1665,320,-2000,-880,-34,10,8
1670,336,-2008,-912,-33,11,10
1675,312,-2024,-848,-30,12,10
1680,320,-2016,-912,-30,14,10
1685,344,-2040,-888,-28,14,10
1690,344,-2032,-872,-27,14,11
1695,320,-2008,-896,-27,16,12
1700,328,-2040,-912,-25,17,12
1705,328,-2024,-912,-23,17,12
1710,328,-2032,-912,-22,17,12
1715,328,-2016,-856,-23,17,12
1720,344,-2024,-888,-23,18,12
1725,320,-2024,-880,-24,17,12
1730,328,-2024,-880,-24,17,12
1735,336,-2016,-888,-27,17,11
1740,336,-2024,-912,-28,18,10
1745,296,-2016,-904,-31,18,10
1750,312,-2008,-880,-33,18,9
1755,336,-2024,-888,-35,18,11
1760,304,-2000,-888,-35,18,11
1765,312,-2016,-880,-36,19,11
1770,336,-2032,-896,-34,19,11
1775,336,-2024,-896,-33,18,12
1780,336,-2016,-848,-34,18,11
1785,312,-2032,-904,-33,19,12
1790,328,-2040,-872,-31,18,13
1795,328,-2040,-880,-32,18,13
1800,352,-2024,-896,-30,18,13
1805,328,-2024,-896,-29,18,13
1810,296,-2008,-888,-27,18,13
1815,320,-2024,-880,-30,18,14
1820,320,-2024,-888,-30,18,14
1825,304,-2016,-872,-30,18,12
1830,320,-2016,-912,-30,18,13
1835,312,-2008,-872,-29,17,13
1840,312,-2016,-904,-30,16,13
1845,328,-2016,-864,-31,17,13
1850,304,-2024,-888,-31,16,13
1855,320,-2008,-888,-33,16,13
1860,328,-2016,-856,-33,16,13
1865,320,-2016,-888,-35,16,12
1870,320,-2032,-888,-35,17,14
1875,304,-2016,-904,-34,15,12
1880,344,-2048,-888,-34,16,12
1885,312,-2008,-904,-34,16,12
1890,312,-2008,-896,-33,16,12
1895,320,-2008,-880,-33,17,10
1900,320,-2032,-888,-33,17,10
1905,336,-2032,-912,-34,18,11
1910,328,-2016,-896,-34,18,10
1915,336,-2024,-864,-34,19,10
1920,312,-2008,-872,-38,18,10
1925,296,-2016,-912,-39,16,9
1930,312,-2032,-912,-40,17,11
1935,328,-2024,-904,-42,17,10
1940,328,-2032,-888,-43,18,10
1945,296,-2016,-896,-44,17,10
1950,296,-2016,-912,-43,18,10
1955,312,-2032,-880,-44,19,10
1960,320,-2032,-896,-45,19,9
1965,320,-2024,-896,-45,19,9
1970,304,-2008,-888,-45,19,9
1975,304,-2024,-896,-45,18,9
1980,288,-2008,-888,-44,18,8
1985,312,-2032,-872,-45,17,9
1990,296,-2016,-896,-44,16,11
1995,296,-2032,-880,-40,15,13
2000,336,-2056,-912,-40,15,14
2005,328,-2024,-904,-41,15,14
2010,312,-2016,-864,-39,15,14
2015,304,-2032,-888,-38,14,14
2020,312,-2000,-872,-38,15,14
2025,296,-2032,-888,-39,15,14
2030,288,-2008,-912,-39,15,16
2035,320,-2016,-896,-38,15,16
2040,312,-2024,-896,-37,15,15
2045,312,-2016,-888,-37,14,16
2050,296,-2000,-888,-36,13,17
2055,328,-2032,-920,-34,12,18
2060,312,-2032,-912,-32,12,18
2065,328,-2024,-896,-32,10,18
2070,296,-2024,-856,-31,10,19
2075,328,-2024,-912,-31,11,18
2080,304,-2016,-904,-33,10,19
2085,328,-2032,-880,-34,8,20
2090,360,-2032,-904,-34,10,18
2095,304,-2040,-888,-34,10,17
2100,312,-2024,-888,-32,11,18
2105,312,-2032,-864,-30,10,19
2110,304,-2000,-880,-30,10,19
2115,320,-2024,-872,-30,10,18
2120,312,-2040,-880,-30,9,19
2125,336,-2032,-896,-30,9,20
2130,320,-2032,-880,-30,10,21
2135,288,-2008,-888,-31,11,21
2140,264,-1968,-1008,-30,10,21
2145,320,-2032,-856,-32,10,21
2150,320,-2008,-872,-32,11,19
2155,312,-2032,-880,-31,11,20
2160,304,-2032,-896,-29,10,22
2165,280,-2032,-888,-28,9,22
2170,288,-2016,-840,-28,8,21
2175,296,-2008,-872,-28,7,21
2180,312,-2024,-848,-31,7,22
2185,288,-2008,-864,-32,6,21
2190,288,-2024,-848,-32,5,21
2195,336,-1960,-976,-34,5,22
2200,304,-2016,-888,-34,5,22
2205,304,-2008,-880,-36,5,23
2210,304,-2008,-864,-36,5,24
2215,320,-2040,-896,-35,5,25
2220,296,-2024,-880,-37,4,24
2225,328,-2032,-904,-35,4,24
2230,280,-2024,-872,-34,3,24
2235,296,-2016,-896,-34,4,25
2240,304,-2016,-896,-33,3,25
2245,296,-2040,-880,-31,5,24
2250,288,-2048,-944,-30,6,24
2255,320,-2048,-912,-28,6,24
2260,304,-2048,-920,-24,5,26
2265,304,-2048,-928,-19,6,24
2270,296,-2032,-896,-18,7,24
2275,296,-2032,-904,-17,9,24
2280,288,-2008,-912,-18,9,24
2285,280,-2016,-904,-20,8,24
2290,296,-1992,-880,-23,7,25
2295,296,-2016,-920,-25,4,24
2300,280,-2000,-904,-26,5,24
2305,272,-2016,-904,-28,6,23
2310,296,-2016,-880,-29,3,23
2315,288,-2032,-904,-28,2,23
2320,280,-2000,-904,-30,3,23
2325,304,-2040,-848,-28,3,24
2330,248,-2000,-920,-26,3,25
2335,272,-2024,-888,-25,4,26
2340,288,-2040,-904,-26,6,25
2345,248,-2024,-880,-24,8,26
2350,280,-2024,-880,-23,7,26
2355,288,-2032,-872,-23,7,26
2360,280,-2008,-880,-22,5,26
2365,288,-2024,-880,-20,7,27
2370,272,-2008,-880,-20,6,27
2375,280,-2032,-880,-20,6,28
2380,280,-2032,-856,-20,6,28
2385,304,-2024,-888,-21,4,28
2390,304,-2024,-872,-21,5,27
2395,280,-2024,-888,-22,4,27
2400,296,-2032,-896,-23,4,28
2405,272,-2016,-904,-23,4,27
2410,288,-2032,-912,-24,3,27
2415,296,-2016,-888,-25,1,26
2420,312,-2040,-896,-26,1,27
2425,288,-2016,-880,-25,0,25
2430,288,-2032,-864,-23,1,26
2435,272,-2016,-848,-24,1,26
2440,280,-2016,-848,-24,2,26
2445,272,-2024,-888,-26,2,26
2450,280,-2024,-888,-27,0,25
2455,272,-2016,-904,-28,-1,27
2460,264,-2016,-872,-27,-1,29
2465,256,-2016,-888,-29,-2,28
2470,288,-2032,-880,-29,-3,27
2475,280,-2008,-872,-26,-3,28
2480,280,-2032,-872,-23,-3,29
2485,288,-2032,-888,-21,-3,29
2490,288,-2024,-864,-21,-1,28
2495,272,-2040,-880,-22,0,29
2500,272,-2032,-864,-22,1,29
2505,272,-2040,-904,-21,3,30
2510,272,-2024,-872,-19,3,30
2515,256,-2016,-848,-19,5,31
2520,288,-2032,-896,-19,5,30
2525,248,-2016,-896,-17,8,30
2530,304,-2024,-864,-15,8,30
2535,264,-2032,-864,-15,10,30
2540,272,-2048,-896,-13,10,31
2545,280,-2048,-872,-12,9,29
2550,280,-2048,-864,-12,10,29
2555,264,-2040,-880,-13,9,30
2560,280,-2016,-864,-12,8,31
2565,264,-2032,-864,-12,8,30
2570,272,-2024,-856,-13,7,31
2575,248,-2024,-848,-12,8,30
2580,272,-2024,-872,-10,10,31
2585,272,-2016,-864,-9,10,31
2590,264,-2032,-856,-10,11,29
2595,280,-2048,-872,-7,13,31
2600,264,-2032,-872,-7,14,32
2605,264,-2040,-832,-4,15,32
2610,256,-2032,-848,-3,17,32
2615,248,-2024,-880,-2,19,31
2620,264,-2032,-880,-1,19,32
2625,264,-2024,-832,-1,20,33
2630,256,-2040,-848,2,20,33
2635,256,-2040,-848,1,21,33
2640,264,-2032,-856,2,23,33
2645,256,-2024,-856,3,23,32
2650,264,-2024,-872,3,25,32
2655,272,-2032,-816,6,26,32
2660,272,-2040,-840,7,26,31
2665,264,-2040,-848,6,27,29
2670,272,-2016,-864,5,26,30
2675,256,-2032,-848,4,27,29
2680,256,-2024,-848,1,29,30
2685,272,-2040,-864,0,28,30
2690,272,-2040,-872,-3,27,28
2695,248,-2024,-840,-5,28,28
2700,256,-2056,-832,-5,28,29
2705,232,-2024,-864,-6,29,28
2710,264,-2040,-840,-7,29,28
2715,248,-2032,-848,-7,29,29
2720,232,-2040,-864,-4,28,28
2725,248,-2040,-856,-4,28,29
2730,256,-2056,-888,-2,28,28
2735,256,-2040,-840,-1,29,27
2740,240,-2032,-880,0,27,27
2745,248,-2040,-832,0,28,27
2750,256,-2040,-840,2,27,28
2755,248,-2064,-848,2,27,27
2760,232,-2032,-832,5,27,26
2765,232,-2008,-832,6,27,26
2770,232,-2024,-856,5,26,26
2775,240,-2048,-840,6,26,27
2780,232,-2032,-800,7,27,26
2785,232,-2032,-840,6,27,26
2790,264,-2024,-864,7,27,25
2795,248,-2048,-840,8,28,26
2800,248,-2032,-832,8,29,26
2805,232,-2024,-824,8,29,26
2810,248,-2040,-848,7,28,25
2815,256,-2040,-824,7,28,26
2820,256,-2040,-848,7,26,27
2825,248,-2024,-824,6,24,27
2830,216,-2032,-848,4,22,26
2835,248,-2040,-848,4,20,27
2840,232,-2040,-832,4,19,26
2845,256,-2048,-840,4,17,28
2850,256,-2040,-848,6,17,28
2855,240,-2048,-832,7,18,28
2860,240,-2024,-824,9,16,28
2865,232,-2024,-816,10,17,27
2870,232,-2048,-848,10,16,28
2875,248,-2048,-840,10,16,27
2880,264,-2048,-792,10,14,26
2885,240,-2032,-840,6,14,27
2890,264,-2040,-840,7,16,29
2895,248,-2024,-824,4,16,27
2900,240,-2032,-832,5,18,25
2905,216,-2024,-856,3,19,26
2910,248,-2024,-824,2,18,25
2915,240,-2040,-832,1,19,27
2920,240,-2040,-816,3,20,26
2925,240,-2032,-824,4,20,24
2930,240,-2032,-840,5,18,25
2935,256,-2056,-832,5,17,25
2940,232,-2024,-808,7,16,26
2945,224,-2040,-808,6,14,26
2950,240,-2032,-840,7,14,25
2955,240,-2048,-816,7,13,25
2960,232,-2048,-824,10,11,27
2965,264,-2056,-848,12,10,26
2970,248,-2040,-784,16,9,27
2975,264,-2056,-832,18,8,28
2980,224,-2048,-848,19,8,27
2985,224,-2040,-832,19,8,28
2990,232,-2040,-816,18,8,28
2995,232,-2040,-816,21,8,29
3000,224,-2048,-784,22,10,29
3005,224,-2040,-792,23,10,30
3010,224,-2032,-808,24,13,30
3015,216,-1952,-880,25,13,30
3020,232,-2048,-824,26,14,30
3025,256,-2040,-800,26,15,30
3030,232,-2056,-800,28,16,31
3035,224,-2048,-824,29,16,32
3040,240,-2064,-816,30,18,32
3045,232,-2064,-816,33,18,33
3050,240,-2088,-840,34,19,31
3055,224,-2056,-792,32,18,32
3060,208,-2072,-776,36,18,32
3065,216,-2056,-768,39,18,32
3070,320,-2136,-672,44,20,31
3075,208,-2040,-816,46,21,30
3080,200,-2048,-816,46,20,29
3085,224,-2040,-784,46,18,28
3090,232,-2032,-784,43,17,29
3095,208,-2016,-856,42,14,27
3100,232,-2048,-792,38,11,27
3105,200,-2040,-792,33,11,26
3110,224,-2040,-800,29,10,27
3115,248,-2048,-784,29,11,26
3120,184,-2032,-840,29,10,27
3125,240,-2040,-768,32,11,29
3130,232,-2048,-776,30,12,28
3135,232,-2040,-800,31,14,28
3140,208,-2048,-792,31,16,27
3145,200,-2032,-776,34,18,26
3150,200,-2040,-776,35,21,27
3155,248,-2040,-808,36,23,26
3160,224,-2032,-792,36,24,24
3165,216,-2016,-784,34,26,26
3170,232,-2048,-784,31,28,25
3175,232,-2032,-696,26,31,26
3180,216,-2040,-752,24,31,25
3185,224,-2040,-776,22,33,24
3190,216,-2040,-776,18,33,24
3195,264,-2040,-808,16,32,25
3200,224,-2040,-768,16,30,23
3205,240,-2040,-776,15,28,23
3210,208,-2048,-784,13,28,24
3215,216,-2040,-760,10,26,23
3220,216,-2032,-824,7,26,24
3225,216,-2064,-792,4,26,26
3230,224,-2064,-784,4,26,27
3235,200,-2048,-776,2,26,27
3240,208,-2048,-792,1,27,28
3245,208,-2056,-792,2,27,27
3250,216,-2048,-776,2,27,25
3255,216,-2040,-768,1,27,26
3260,192,-2056,-768,2,25,27
3265,208,-2056,-728,1,26,27
3270,208,-2072,-768,2,27,26
3275,240,-2056,-744,3,28,27
3280,216,-2048,-752,5,28,29
3285,216,-2040,-768,5,29,29
3290,200,-2048,-744,4,31,30
3295,200,-2072,-768,5,33,30
3300,200,-2032,-736,5,34,32
3305,208,-2056,-792,6,32,33
3310,216,-2056,-784,8,32,33
3315,192,-2056,-760,7,32,32
3320,216,-2056,-760,6,32,33
3325,208,-2056,-752,6,32,33
3330,208,-2056,-744,6,32,33
3335,200,-2048,-736,7,32,33
3340,208,-2056,-752,8,31,35
3345,200,-2048,-728,8,31,35
3350,208,-2064,-760,9,33,34
3355,208,-2064,-744,6,33,35
3360,184,-2040,-744,6,33,35
3365,176,-2048,-768,7,32,35
3370,192,-2040,-744,9,31,36
3375,200,-2048,-752,10,29,37
3380,216,-2064,-720,9,30,37
3385,192,-2048,-736,9,30,37
3390,232,-2072,-760,9,30,38
3395,200,-2040,-752,10,31,38
3400,208,-2056,-776,10,30,39
3405,192,-2048,-744,9,30,41
3410,176,-2032,-752,10,30,40
3415,216,-2056,-736,11,29,40
3420,184,-2040,-736,12,29,40
3425,176,-2040,-736,11,29,40
3430,216,-2040,-768,12,27,40
3435,208,-2040,-720,12,29,42
3440,208,-2040,-720,12,27,41
3445,200,-2048,-736,12,27,41
3450,192,-2064,-720,12,26,41
3455,200,-2048,-736,11,24,41
3460,176,-2048,-744,10,23,42
3465,192,-2048,-744,8,23,41
3470,184,-2032,-744,10,21,43
3475,200,-2056,-768,10,20,44
3480,184,-2064,-720,8,21,44
3485,200,-2048,-776,9,20,44
3490,184,-2056,-736,7,21,44
3495,176,-2064,-728,7,23,45
3500,192,-2072,-728,6,23,45
3505,184,-2056,-720,7,23,44
3510,192,-2064,-728,10,24,44
3515,200,-2072,-744,12,26,45
3520,176,-2048,-704,15,25,47
3525,184,-2056,-752,17,25,47
3530,176,-2048,-720,17,25,46
3535,168,-2064,-728,19,25,46
3540,192,-2056,-728,17,24,47
3545,176,-2040,-776,17,26,46
3550,160,-2048,-704,16,26,47
3555,192,-2040,-704,14,24,47
3560,192,-2032,-696,13,24,47
3565,160,-2040,-752,12,24,47
3570,192,-2048,-768,11,23,49
3575,160,-2048,-728,11,22,49
3580,176,-2056,-720,11,20,49
3585,160,-2048,-760,12,18,51
3590,176,-2064,-720,10,15,51
3595,200,-2056,-720,9,14,50
3600,168,-2064,-696,7,12,47
3605,184,-2056,-704,6,13,48
3610,176,-2040,-712,5,12,47
3615,168,-2048,-728,1,12,48
3620,200,-2048,-720,0,12,48
3625,184,-2048,-712,-2,12,48
3630,168,-2064,-688,-2,13,47
3635,176,-2048,-704,-3,15,47
3640,168,-2048,-760,-5,17,48
3645,168,-2048,-752,-6,17,48
3650,184,-2048,-720,-9,18,49
3655,184,-2040,-728,-10,21,48
3660,176,-2048,-736,-9,21,49
3665,176,-2048,-712,-11,21,47
3670,184,-2056,-720,-14,22,48
3675,184,-2048,-704,-15,21,47
3680,176,-2056,-672,-16,23,48
3685,168,-2048,-688,-18,22,49
3690,192,-2048,-720,-20,22,48
3695,184,-2056,-744,-22,20,47
3700,176,-2048,-720,-25,21,48
3705,176,-2032,-728,-28,20,47
3710,184,-2072,-704,-30,21,46
3715,160,-2040,-720,-31,21,47
3720,168,-2048,-720,-33,20,47
3725,160,-2056,-720,-36,21,47
3730,168,-2048,-712,-43,24,47
3735,184,-2064,-712,-45,26,46
3740,168,-2040,-672,-47,27,46
3745,184,-2048,-728,-52,27,45
3750,184,-2056,-696,-56,27,44
3755,128,-2040,-704,-59,25,44
3760,160,-2040,-704,-59,23,43
3765,160,-2040,-680,-62,23,42
3770,176,-2040,-720,-64,23,42
3775,176,-2040,-680,-66,24,41
3780,168,-2048,-720,-67,26,38
3785,176,-2056,-712,-69,24,39
3790,152,-2056,-720,-73,25,39
3795,168,-2056,-696,-75,26,39
3800,144,-2064,-712,-76,27,38
3805,136,-2072,-712,-76,28,38
3810,160,-2072,-720,-77,29,37
3815,152,-2056,-704,-77,29,37
3820,160,-2064,-704,-74,33,36
3825,160,-2088,-704,-73,33,37
3830,152,-2088,-704,-73,34,36
3835,152,-2056,-696,-74,35,35
3840,160,-2080,-712,-72,35,36
3845,144,-2064,-664,-72,37,37
3850,136,-2080,-696,-70,39,37
3855,136,-2088,-704,-67,41,39
3860,128,-2072,-712,-63,42,41
3865,120,-2088,-712,-59,44,44
3870,136,-2096,-736,-52,44,45
3875,112,-2096,-696,-47,43,46
3880,120,-2088,-704,-41,45,47
3885,144,-2088,-712,-35,47,49
3890,120,-2080,-696,-30,47,48
3895,120,-2064,-720,-26,48,48
3900,128,-2080,-704,-19,49,50
3905,104,-2080,-704,-14,51,51
3910,120,-2088,-744,-9,50,53
3915,128,-2056,-720,-3,50,55
3920,136,-2064,-720,2,53,55
3925,104,-2040,-744,2,50,56
3930,112,-2056,-728,2,47,56
3935,120,-2048,-704,-1,44,55
3940,80,-2056,-640,-2,43,56
3945,136,-2048,-728,-3,43,56
3950,136,-2048,-688,-6,41,56
3955,128,-2040,-680,-9,37,56
3960,80,-2040,-712,-14,34,54
3965,104,-2040,-712,-18,30,54
3970,112,-2032,-712,-22,27,54
3975,120,-2032,-720,-25,23,53
3980,88,-2056,-696,-28,20,54
3985,72,-2056,-712,-29,16,53
3990,96,-2048,-712,-29,15,53
3995,168,-2128,-664,-30,14,53
4000,112,-2064,-720,-32,12,52
4005,128,-2096,-712,-28,11,52
4010,136,-2096,-760,-25,11,52
4015,120,-2096,-712,-24,10,53
4020,128,-2096,-712,-19,8,52
4025,136,-2088,-728,-16,7,52
4030,136,-2080,-704,-12,6,52
4035,144,-2104,-712,-7,5,52
4040,120,-2080,-712,-1,4,53
4045,120,-2064,-712,4,4,53
4050,104,-2072,-728,7,1,53
4055,104,-2056,-744,8,-2,54
4060,88,-2040,-728,8,-2,55
4065,112,-2064,-720,9,-3,56
4070,96,-2056,-712,8,-6,55
4075,112,-2056,-744,6,-7,55
4080,96,-2056,-720,6,-6,54
4085,80,-2056,-744,4,-6,56
4090,120,-2072,-696,2,-5,55
4095,88,-2032,-720,0,-3,54
4100,88,-2056,-720,0,-5,55
4105,96,-2056,-688,-1,-4,56
4110,120,-2048,-736,2,-4,55
4115,104,-2064,-704,-1,-5,56
4120,96,-2056,-704,0,-4,56
4125,104,-2056,-712,-1,-4,55
4130,96,-2048,-712,-2,-5,55
4135,112,-2056,-728,-3,-6,55
4140,120,-2048,-696,-4,-8,57
4145,112,-2048,-704,-5,-6,58
4150,96,-2048,-704,-3,-6,58
4155,104,-2056,-680,-3,-4,60
4160,104,-2080,-704,-3,-4,59
4165,96,-2064,-688,-5,-4,59
4170,80,-2056,-664,-8,-3,57
4175,104,-2056,-712,-9,-3,57
4180,80,-2048,-712,-12,0,59
4185,80,-2048,-712,-14,0,59
4190,88,-2056,-672,-15,1,59
4195,112,-2064,-712,-16,2,59
4200,104,-2056,-696,-18,5,60
4205,136,-2064,-696,-20,6,61
4210,72,-2064,-720,-19,5,61
4215,104,-2064,-704,-19,7,61
4220,112,-2088,-688,-18,10,61
4225,72,-2064,-688,-20,9,63
4230,96,-2040,-680,-19,9,62
4235,88,-2056,-704,-18,10,63
4240,56,-2064,-712,-17,8,64
4245,96,-2048,-664,-17,8,65
4250,112,-2056,-704,-16,5,66
4255,112,-2072,-656,-17,5,67
4260,104,-2072,-696,-12,5,68
4265,96,-2080,-688,-10,5,70
4270,88,-2048,-696,-7,6,71
4275,80,-2096,-712,-3,5,73
4280,88,-2080,-696,1,4,73
4285,96,-2056,-664,2,5,73
4290,80,-2056,-672,5,6,73
4295,80,-2064,-672,5,7,73
4300,88,-2056,-696,7,10,73
4305,72,-2056,-680,9,9,73
4310,72,-2056,-664,9,9,72
4315,64,-2064,-672,10,8,73
4320,56,-2040,-680,11,7,73
4325,64,-2048,-696,12,9,75
4330,48,-2064,-680,12,9,76
4335,72,-2080,-680,15,10,75
4340,48,-2056,-680,18,10,77
4345,56,-2064,-664,18,12,78
4350,72,-2080,-680,20,14,81
4355,72,-2064,-664,22,16,81
4360,56,-2064,-680,26,19,81
4365,64,-2056,-672,25,21,81
4370,72,-2056,-664,30,22,81
4375,72,-2064,-648,32,24,84
4380,80,-2080,-680,36,23,85
4385,40,-2048,-664,39,25,86
4390,80,-2080,-680,41,26,86
4395,64,-2072,-664,44,27,87
4400,32,-2064,-656,46,28,89
4405,56,-2088,-680,50,29,89
4410,32,-2072,-656,54,28,90
4415,56,-2080,-688,56,28,90
4420,64,-2072,-672,62,29,91
4425,48,-2080,-672,67,32,92
4430,64,-2080,-656,71,34,93
4435,80,-2072,-664,73,36,94
4440,56,-2056,-664,76,37,96
4445,48,-2104,-656,77,38,97
4450,56,-2080,-656,83,39,97
4455,48,-2080,-680,88,42,99
4460,40,-2072,-704,94,43,99
4465,32,-2080,-624,102,44,101
4470,40,-2088,-672,108,45,102
4475,56,-2096,-648,114,45,104
4480,16,-2088,-672,119,43,105
4485,32,-2080,-688,125,44,105
4490,40,-2064,-672,131,42,107
4495,40,-2096,-664,134,41,107
4500,32,-2072,-656,137,38,109
4505,40,-2064,-696,142,37,109
4510,16,-2080,-688,143,36,110
4515,24,-2064,-664,149,37,114
4520,24,-2056,-640,151,39,114
4525,32,-2048,-664,156,42,115
4530,24,-2056,-656,160,42,118
4535,32,-2048,-656,165,44,119
4540,56,-2080,-640,169,46,120
4545,40,-2080,-640,173,47,121
4550,56,-2072,-632,177,48,123
4555,24,-2064,-616,181,49,125
4560,56,-2064,-608,186,51,126
4565,40,-2072,-624,187,54,127
4570,48,-2112,-608,189,55,128
4575,48,-2064,-632,193,56,128
4580,48,-2064,-616,197,57,128
4585,48,-2064,-592,199,58,131
4590,48,-2088,-600,204,58,130
4595,48,-2088,-584,208,58,130
4600,32,-2080,-616,216,58,130
4605,24,-2072,-600,218,60,130
4610,32,-2072,-600,218,60,131
4615,8,-2088,-544,223,60,131
4620,24,-2072,-568,227,62,131
4625,8,-2064,-560,232,65,131
4630,16,-2088,-544,239,68,130
4635,32,-2088,-576,243,71,129
4640,16,-2080,-576,249,73,128
4645,16,-2112,-568,255,73,127
4650,16,-2128,-576,262,71,129
4655,0,-2104,-584,270,69,133
4660,-8,-2104,-576,280,71,133
4665,16,-2088,-592,286,73,134
4670,24,-2104,-576,292,76,136
4675,8,-2088,-576,300,78,139
4680,8,-2112,-552,309,82,141
4685,8,-2104,-552,320,85,143
4690,8,-2088,-560,331,88,143
4695,32,-2120,-576,343,89,147
4700,8,-2096,-536,351,87,150
4705,16,-2112,-536,360,86,153
4710,16,-2128,-560,371,86,158
4715,24,-2128,-536,383,85,161
4720,16,-2152,-544,395,88,164
4725,16,-2168,-528,408,90,169
4730,0,-2128,-528,421,92,172
4735,-8,-2168,-528,436,93,178
4740,0,-2144,-544,451,93,183
4745,-8,-2160,-520,466,90,186
4750,-24,-2168,-520,484,87,191
4755,-8,-2144,-528,503,85,197
4760,-32,-2120,-552,522,81,200
4765,-32,-2128,-528,536,75,207
4770,-24,-2128,-520,550,68,215
4775,-16,-2096,-504,563,62,222
4780,-32,-2112,-488,574,56,228
4785,-80,-2112,-496,591,51,237
4790,-64,-2104,-480,608,47,246
4795,-56,-2072,-464,625,42,256
4800,-32,-2096,-496,643,40,264
4805,32,-2024,-472,659,39,271
4810,-16,-2056,-480,674,37,275
4815,0,-2064,-440,690,38,284
4820,-24,-2064,-408,709,40,290
4825,-24,-2064,-456,727,45,297
4830,-24,-2056,-424,745,51,302
4835,-32,-2048,-464,761,58,310
4840,0,-2064,-376,776,67,317
4845,-16,-2064,-400,790,76,324
4850,-16,-2056,-432,803,81,329
4855,0,-2080,-424,814,89,332
4860,-32,-2072,-392,822,93,336
4865,-24,-2064,-384,827,95,339
4870,0,-2080,-400,833,99,341
4875,-32,-2064,-368,838,101,341
4880,-56,-2040,-352,844,105,342
4885,-8,-2048,-344,847,104,343
4890,-48,-2056,-352,851,100,343
4895,-64,-2048,-320,861,94,343
4900,-88,-2040,-312,871,89,345
4905,-64,-2016,-312,873,86,345
4910,-72,-2056,-280,869,83,344
4915,-80,-2032,-312,864,78,343
4920,-96,-2048,-312,859,76,342
4925,-96,-2040,-280,860,75,346
4930,-112,-2056,-280,862,70,348
4935,-128,-2056,-272,862,67,350
4940,-120,-2016,-208,859,65,347
4945,-120,-2040,-216,852,64,345
4950,-104,-2040,-200,848,67,342
4955,-112,-2056,-208,848,70,344
4960,-88,-2056,-208,849,76,348
4965,-112,-2040,-216,850,82,354
4970,-96,-2056,-184,851,91,358
4975,-104,-2048,-128,852,101,360
4980,-64,-2032,-144,855,114,363
4985,-88,-2032,-136,860,124,369
4990,-96,-2024,-120,865,135,375
4995,-72,-2032,-120,871,146,379
5000,-88,-2016,-152,878,160,383
5005,-88,-2008,-136,881,174,391
5010,-72,-2008,-112,881,190,398
5015,-56,-1968,-128,878,204,404
5020,-72,-1960,-64,874,219,411
5025,-24,-1960,-80,878,232,417
5030,-56,-1936,-32,882,244,422
5035,-64,-1952,-72,886,257,427
5040,-80,-1920,-64,891,268,437
5045,-64,-1904,-72,896,281,444
5050,-104,-1888,-48,898,300,456
5055,-56,-1872,-40,899,319,470
5060,-56,-1840,-40,896,338,479
5065,-48,-1856,0,896,359,487
5070,-40,-1856,0,900,372,493
5075,-40,-1832,-8,905,387,498
5080,-32,-1816,0,910,405,505
5085,-48,-1800,32,919,427,516
5090,-32,-1840,16,928,449,528
5095,-56,-1840,16,935,475,541
5100,-32,-1832,8,938,502,554
5105,-40,-1832,32,940,528,566
5110,-56,-1816,56,946,555,578
5115,-48,-1832,48,955,583,588
5120,-64,-1816,80,964,608,599
5125,-16,-1816,48,972,638,612
5130,-64,-1832,88,975,667,627
5135,-104,-1784,64,975,689,638
5140,-120,-1760,104,969,707,643
5145,-136,-1744,96,959,726,650
5150,-136,-1752,136,953,748,661
5155,-168,-1744,120,957,770,675
5160,-152,-1752,136,966,793,690
5165,-248,-1768,160,966,815,717
5170,-296,-1776,200,971,818,730
5175,-320,-1824,248,985,821,745
5180,-296,-1816,256,1018,824,761
5185,-344,-1824,256,1055,834,784
5190,-392,-1808,280,1086,832,803
5195,-384,-1824,336,1104,829,817
5200,-408,-1808,336,1119,829,832
5205,-408,-1768,392,1136,827,846
5210,-416,-1736,392,1155,827,859
5215,-464,-1696,384,1168,831,872
5220,-488,-1648,392,1177,834,878
5225,-496,-1600,392,1181,836,884
5230,-480,-1568,432,1184,836,889
5235,-480,-1544,416,1182,836,896
5240,-472,-1536,408,1180,832,899
5245,-464,-1520,400,1177,831,901
5250,-480,-1488,416,1179,832,901
5255,-496,-1464,408,1180,837,900
5260,-464,-1464,392,1183,845,899
5265,-496,-1424,416,1187,862,906
5270,-488,-1448,448,1189,883,918
5275,-480,-1456,456,1196,907,936
5280,-472,-1424,424,1206,936,956
5285,-456,-1392,400,1209,964,980
5290,-424,-1312,320,1202,989,999
5295,-464,-1280,320,1184,1012,1019
5300,-440,-1240,264,1166,1037,1044
5305,-448,-1232,192,1148,1064,1069
5310,-448,-1176,128,1127,1095,1093
5315,-408,-1128,80,1099,1125,1115
5320,-424,-1040,8,1067,1152,1139
5325,-392,-1016,-56,1035,1177,1161
5330,-368,-1000,-40,1003,1204,1184
5335,-384,-936,-56,975,1241,1215
5340,-376,-904,-64,962,1280,1247
5345,-400,-920,-88,964,1321,1282
5350,-424,-904,-56,978,1367,1320
5355,-464,-880,-112,984,1414,1360
5360,-520,-848,-88,978,1464,1406
5365,-544,-824,-144,966,1514,1460
5370,-544,-824,-136,951,1558,1517
5375,-584,-808,-112,939,1591,1567
5380,-632,-736,-136,926,1615,1608
5385,-608,-744,-200,916,1644,1665
5390,-640,-760,-160,910,1666,1724
5395,-624,-848,-128,920,1672,1779
5400,-728,-872,-192,951,1665,1825
5405,-784,-944,-160,980,1656,1865
5410,-808,-928,-208,1003,1642,1897
5415,-896,-960,-184,1001,1627,1932
5420,-952,-936,-200,994,1607,1963
5425,-1008,-880,-184,985,1581,1988
5430,-1080,-872,-192,964,1539,1998
5435,-1128,-824,-232,930,1484,1981
5440,-1200,-760,-240,893,1440,1983
5445,-1320,-688,-240,863,1379,1989
5450,-1376,-608,-232,845,1300,1974
5455,-1480,-520,-336,826,1230,1948
5460,-1496,-480,-400,800,1173,1918
5465,-1440,-400,-384,766,1112,1868
5470,-1472,-408,-352,742,1068,1834
5475,-1472,-424,-336,727,1022,1810
5480,-1464,-416,-232,683,965,1782
5485,-1408,-432,-120,617,886,1754
5490,-1344,-456,-32,522,767,1720
5495,-1320,-544,96,413,602,1663
5500,-1296,-632,168,326,402,1566
5505,-1360,-816,232,273,225,1480
5510,-1416,-976,96,241,55,1398
5515,-1512,-1168,-24,223,-68,1331
5520,-1584,-1264,-192,208,-148,1246
5525,-1864,-1496,-56,176,-218,1132
5530,-2680,-1832,264,230,-391,1030
5535,-2608,-1776,-144,390,-622,979
5540,-2472,-1536,-264,493,-768,941
5545,-2680,-1160,-96,541,-855,922
5550,-2264,-928,-248,592,-989,928
5555,-1224,-656,-664,587,-989,890
5560,-1144,-472,-464,477,-826,816
5565,-1176,-272,-312,401,-692,800
5570,-1784,-64,248,409,-625,847
5575,-2256,-32,472,513,-696,955
5580,-2632,-208,576,632,-818,1043
5585,-2968,-496,584,710,-907,1071
5590,-3312,-640,584,678,-1020,1024
5595,-3632,-616,592,592,-1170,944
5600,-3632,-520,440,536,-1334,878
5605,-3368,-432,384,504,-1452,850
5610,-3216,-288,488,547,-1492,904
5615,-3368,-248,680,645,-1513,1034
5620,-3584,-160,672,787,-1575,1154
5625,-3784,-8,712,902,-1663,1274
5630,-4056,232,1000,976,-1779,1378
5635,-4120,272,1136,1028,-1911,1476
5640,-4280,464,1272,1039,-2001,1523
5645,-4280,560,1560,1026,-2074,1550
5650,-3992,640,1864,1031,-2174,1569
5655,-3696,712,2024,1057,-2249,1549
5660,-3440,680,2128,1094,-2293,1473
5665,-3192,768,2320,1127,-2272,1373
5670,-2880,688,2416,1168,-2225,1265
5675,-2432,528,2624,1226,-2144,1139
5680,-2312,632,2664,1333,-2058,1052
5685,-2176,440,2904,1399,-1984,905
5690,-2368,536,2760,1518,-1875,712
5695,-2256,400,2808,1525,-1810,599
5700,-2144,192,2816,1466,-1735,497
5705,-2040,8,2592,1457,-1635,371
5710,-1984,-208,2496,1464,-1507,249
5715,-2016,-312,2264,1504,-1341,123
5720,-2112,-352,2096,1560,-1161,7
5725,-1920,-232,2056,1607,-991,-124
5730,-1776,-48,1976,1658,-814,-270
5735,-1632,152,1848,1695,-656,-404
5740,-1552,368,1992,1675,-492,-535
5745,-1552,616,2000,1652,-358,-638
5750,-1448,896,2000,1613,-254,-739
5755,-1456,1064,2040,1546,-185,-852
5760,-1344,1440,1992,1455,-145,-982
5765,-1096,1528,1968,1284,-85,-1073
5770,-824,1616,1872,1124,-15,-1159
5775,-648,1560,1824,969,38,-1220
5780,-600,1512,1768,837,42,-1278
5785,-536,1368,1704,795,65,-1323
5790,-448,1288,1576,769,131,-1369
5795,-448,1184,1496,709,201,-1385
5800,-312,1008,1312,634,246,-1361
5805,-288,912,1312,587,316,-1332
5810,-168,776,1256,541,408,-1283
5815,-120,616,1184,484,502,-1243
5820,-136,544,1160,431,594,-1214
5825,-248,472,1048,411,705,-1163
5830,-400,264,1024,450,804,-1091
5835,-456,216,960,568,877,-1003
5840,-512,288,904,699,951,-905
5845,-576,400,896,801,1032,-810
5850,-560,488,992,853,1101,-709
5855,-672,608,968,870,1148,-619
5860,-728,704,1008,842,1164,-533
5865,-696,744,992,775,1162,-444
5870,-736,672,1040,724,1169,-352
5875,-872,928,848,651,1112,-367
5880,-888,1056,896,486,1061,-371
5885,-816,984,888,297,1018,-332
5890,-944,1176,840,163,971,-354
5895,-1024,856,952,41,924,-337
5900,-1088,792,824,7,893,-401
5905,-1136,656,768,2,891,-460
5910,-1152,664,744,2,888,-490
5915,-1080,640,744,-11,887,-498
5920,-1168,528,776,-34,893,-489
5925,-1232,408,800,-45,884,-472
5930,-1208,368,680,-47,871,-447
5935,-1128,304,704,-71,869,-414
5940,-1128,264,680,-105,865,-399
5945,-1144,256,704,-137,853,-393
5950,-1112,256,736,-183,838,-371
5955,-1144,224,744,-253,822,-344
5960,-1264,288,808,-332,798,-323
5965,-1312,272,808,-420,764,-302
5970,-1384,248,888,-502,727,-289
5975,-1488,208,920,-579,683,-276
5980,-1520,200,864,-657,626,-273
5985,-1544,136,808,-734,579,-279
5990,-1576,64,752,-807,547,-293
5995,-1608,8,688,-864,531,-312
6000,-1656,-56,688,-896,534,-330
6005,-1704,-168,616,-906,545,-345
6010,-1752,-240,584,-901,563,-354
6015,-1784,-312,584,-886,589,-360
6020,-1768,-352,592,-870,622,-364
6025,-1784,-376,568,-848,659,-372
6030,-1776,-368,520,-822,696,-374
6035,-1808,-312,528,-795,729,-368
6040,-1808,-320,504,-760,762,-351
6045,-1832,-312,512,-710,788,-324
6050,-1880,-320,472,-675,798,-327
6055,-1912,-288,480,-684,786,-356
6060,-1952,-224,504,-700,755,-367
6065,-1968,-216,488,-714,719,-371
6070,-1992,-224,480,-724,682,-372
6075,-2024,-240,472,-721,652,-368
6080,-2064,-256,432,-714,620,-362
6085,-2080,-256,400,-702,590,-357
6090,-2128,-280,368,-689,562,-355
6095,-2112,-240,296,-676,537,-355
6100,-2120,-216,264,-684,518,-359
6105,-2160,-248,296,-711,494,-369
6110,-2168,-304,304,-733,459,-371
6115,-2144,-328,296,-739,419,-372
6120,-2128,-384,248,-725,376,-375
6125,-2104,-400,240,-706,337,-372
6130,-2072,-432,232,-688,294,-366
6135,-2040,-472,208,-664,247,-359
6140,-1992,-472,216,-632,199,-353
6145,-1976,-472,200,-603,152,-354
6150,-1992,-312,136,-587,110,-354
6155,-1960,-288,184,-612,66,-337
6160,-1928,-400,200,-644,17,-323
6165,-1960,-496,192,-642,-28,-328
6170,-1920,-520,216,-601,-69,-333
6175,-1936,-568,216,-546,-109,-327
6180,-1920,-608,224,-491,-147,-335
6185,-1904,-608,200,-434,-173,-342
6190,-1920,-608,264,-386,-198,-339
6195,-1888,-600,280,-351,-225,-333
6200,-1896,-600,320,-320,-262,-329
6205,-1904,-600,320,-287,-310,-329
6210,-1920,-584,344,-257,-350,-334
6215,-1888,-600,376,-228,-395,-340
6220,-1856,-624,384,-196,-438,-345
6225,-1848,-608,384,-149,-478,-350
6230,-1832,-592,432,-115,-501,-347
6235,-1776,-536,432,-102,-528,-341
6240,-1760,-520,464,-99,-532,-322
6245,-1744,-528,448,-103,-546,-310
6250,-1728,-512,480,-106,-558,-300
6255,-1720,-512,496,-105,-575,-290
6260,-1704,-504,472,-105,-594,-279
6265,-1672,-504,504,-104,-609,-269
6270,-1688,-456,488,-104,-625,-256
6275,-1632,-464,472,-108,-639,-243
6280,-1656,-456,512,-119,-653,-235
6285,-1624,-456,520,-133,-669,-228
6290,-1632,-472,528,-147,-684,-226
6295,-1608,-496,552,-156,-699,-222
6300,-1608,-488,600,-160,-715,-221
6305,-1584,-488,592,-157,-737,-220
6310,-1600,-480,640,-150,-756,-223
6315,-1560,-496,640,-145,-776,-222
6320,-1592,-488,656,-151,-792,-219
6325,-1568,-480,704,-157,-807,-219
6330,-1592,-504,704,-161,-823,-223
6335,-1592,-504,704,-161,-839,-228
6340,-1600,-512,736,-157,-853,-234
6345,-1600,-512,728,-147,-862,-239
6350,-1576,-528,736,-143,-864,-244
6355,-1600,-520,744,-140,-868,-244
6360,-1584,-512,776,-136,-864,-242
6365,-1560,-520,728,-128,-863,-249
6370,-1592,-480,760,-123,-850,-247
6375,-1584,-496,760,-142,-840,-244
6380,-1536,-520,784,-160,-839,-243
6385,-1528,-520,808,-172,-837,-247
6390,-1520,-520,864,-178,-837,-250
6395,-1480,-528,832,-179,-840,-250
6400,-1472,-544,880,-178,-841,-249
6405,-1472,-552,928,-178,-845,-246
6410,-1488,-528,944,-175,-850,-243
6415,-1464,-528,920,-171,-854,-239
6420,-1464,-528,936,-168,-854,-233
6425,-1432,-520,952,-161,-853,-230
6430,-1384,-544,952,-157,-848,-224
6435,-1400,-544,968,-157,-841,-216
6440,-1360,-552,992,-160,-830,-207
6445,-1376,-560,1032,-161,-818,-199
6450,-1360,-600,1024,-155,-809,-195
6455,-1352,-584,1016,-145,-798,-187
6460,-1360,-560,1032,-136,-789,-179
6465,-1328,-568,1032,-135,-776,-167
6470,-1312,-552,1048,-137,-764,-160
6475,-1312,-568,1040,-140,-750,-151
6480,-1248,-592,1080,-147,-737,-142
6485,-1264,-576,1096,-150,-721,-134
6490,-1248,-608,1080,-148,-706,-127
6495,-1264,-592,1080,-143,-694,-119
6500,-1264,-592,1096,-143,-682,-111
6505,-1224,-592,1136,-142,-670,-103
6510,-1184,-600,1088,-143,-651,-97
6515,-1192,-584,1136,-145,-635,-93
6520,-1168,-616,1120,-139,-620,-93
6525,-1152,-592,1144,-129,-603,-91
6530,-1152,-592,1168,-119,-584,-89
6535,-1136,-608,1152,-112,-568,-90
6540,-1184,-536,1032,-102,-551,-92
6545,-1152,-560,1152,-96,-538,-99
6550,-1144,-584,1120,-91,-527,-105
6555,-1168,-584,1080,-88,-514,-111
6560,-1144,-552,1040,-94,-499,-113
6565,-1096,-584,1064,-100,-478,-118
6570,-1040,-624,1120,-105,-453,-119
6575,-1008,-640,1136,-106,-424,-117
6580,-1024,-640,1152,-105,-396,-111
6585,-1016,-672,1176,-105,-371,-105
6590,-1008,-680,1232,-100,-354,-101
6595,-1000,-784,1368,-86,-331,-91
6600,-1008,-696,1248,-76,-311,-84
6605,-984,-680,1256,-72,-292,-75
6610,-968,-680,1272,-69,-271,-66
6615,-976,-720,1248,-64,-254,-57
6620,-984,-656,1224,-57,-237,-49
6625,-992,-648,1240,-51,-225,-43
6630,-1024,-648,1248,-46,-215,-40
6635,-1024,-640,1216,-42,-207,-37
6640,-1032,-664,1232,-41,-200,-34
6645,-1040,-672,1176,-42,-192,-35
6650,-1032,-664,1240,-44,-181,-31
6655,-1080,-680,1152,-49,-165,-27
6660,-1072,-680,1120,-57,-150,-27
6665,-1080,-680,1136,-66,-134,-25
6670,-1104,-688,1112,-75,-117,-25
6675,-1136,-664,1104,-80,-99,-26
6680,-1112,-664,1088,-82,-79,-25
6685,-1096,-648,1128,-85,-58,-26
6690,-1120,-656,1096,-91,-38,-24
6695,-1128,-672,1088,-94,-22,-24
6700,-1104,-688,1080,-94,-10,-25
6705,-1128,-648,1088,-92,1,-26
6710,-1104,-648,1056,-90,12,-27
6715,-1128,-648,1080,-88,23,-26
6720,-1128,-648,1080,-87,32,-25
6725,-1112,-656,1056,-86,39,-26
6730,-1120,-656,1104,-85,45,-24
6735,-1128,-632,1088,-84,49,-24
6740,-1112,-648,1080,-80,53,-23
6745,-1136,-664,1104,-77,58,-21
6750,-1136,-640,1072,-74,61,-21
6755,-1096,-680,1104,-71,64,-18
6760,-1104,-680,1096,-68,65,-16
6765,-1128,-656,1048,-63,63,-13
6770,-1120,-632,1104,-61,69,-10
6775,-1128,-664,1080,-63,76,-5
6780,-1152,-656,1072,-63,77,-3
6785,-1144,-664,1104,-61,86,2
6790,-1160,-656,1120,-62,94,6
6795,-1168,-616,1096,-64,103,10
6800,-1152,-640,1136,-66,109,13
6805,-1160,-648,1104,-66,117,17
6810,-1176,-640,1112,-67,122,20
6815,-1200,-624,1120,-65,126,24
6820,-1176,-632,1128,-59,129,28
6825,-1200,-624,1080,-58,135,29
6830,-1200,-616,1112,-53,140,31
6835,-1192,-640,1080,-45,144,32
6840,-1168,-624,1088,-36,150,32
6845,-1216,-600,1080,-31,154,32
6850,-1184,-624,1064,-31,159,31
6855,-1208,-608,1104,-27,165,32
6860,-1184,-616,1080,-24,168,33
6865,-1200,-616,1104,-21,169,30
6870,-1200,-632,1056,-17,170,31
6875,-1192,-616,1080,-10,171,29
6880,-1184,-648,1064,-3,170,27
6885,-1200,-648,1072,5,169,26
6890,-1224,-640,1072,13,166,25
6895,-1208,-640,1056,15,165,23
6900,-1208,-640,1040,19,163,23
6905,-1224,-632,1048,17,162,20
6910,-1232,-608,1072,15,159,22
6915,-1232,-616,1072,12,155,22
6920,-1264,-616,1048,8,151,22
6925,-1232,-632,1040,4,148,22
6930,-1264,-608,1032,-2,145,23
6935,-1264,-616,1040,-5,145,24
6940,-1256,-640,1072,-9,144,24
6945,-1272,-608,1032,-13,147,23
6950,-1264,-624,1032,-16,147,22
6955,-1296,-600,1016,-18,147,21
6960,-1304,-592,1064,-21,147,21
6965,-1296,-600,1008,-20,146,20
6970,-1304,-608,1016,-20,145,19
6975,-1296,-608,1032,-19,140,18
6980,-1288,-600,1024,-18,136,17
6985,-1296,-600,1032,-18,130,14
6990,-1280,-600,1032,-16,125,14
6995,-1304,-584,1024,-15,119,13
7000,-1288,-600,1000,-12,113,12
7005,-1296,-576,1016,-11,109,10
7010,-1288,-576,1032,-10,106,8
7015,-1296,-576,1000,-11,101,5
7020,-1296,-584,1016,-10,98,5
7025,-1304,-576,1000,-10,96,3
7030,-1296,-592,1000,-10,91,3
7035,-1248,-576,1000,-11,88,0
7040,-1280,-592,1024,-13,84,0
7045,-1280,-592,1016,-15,79,-2
7050,-1288,-584,1008,-15,73,-2
7055,-1272,-576,1024,-16,67,-5
7060,-1256,-616,1048,-20,62,-4
7065,-1288,-592,1048,-21,54,-5
7070,-1280,-584,1024,-21,46,-5
7075,-1304,-608,1048,-23,41,-5
7080,-1288,-584,1024,-27,36,-4
7085,-1296,-600,1032,-30,32,-4
7090,-1304,-592,1032,-35,28,-3
7095,-1296,-592,1024,-37,24,-4
7100,-1312,-576,1024,-38,18,-3
7105,-1296,-608,1016,-41,15,-2
7110,-1304,-592,1024,-42,11,-2
7115,-1288,-600,1008,-44,9,-1
7120,-1296,-592,1040,-47,6,0
7125,-1304,-592,1016,-51,4,0
7130,-1312,-584,1008,-52,2,1
7135,-1304,-616,1016,-54,1,2
7140,-1296,-608,1024,-56,-1,0
7145,-1304,-592,1024,-58,-2,1
7150,-1320,-600,1040,-55,-4,3
7155,-1272,-608,1032,-55,-7,2
7160,-1288,-600,1032,-55,-7,2
7165,-1272,-632,1016,-51,-7,1
7170,-1264,-584,1040,-49,-8,1
7175,-1288,-600,1048,-48,-10,2
7180,-1272,-608,1040,-45,-12,0
7185,-1272,-592,1048,-47,-13,1
7190,-1248,-584,1024,-48,-16,-1
7195,-1184,-600,1040,-49,-17,-1
7200,-1248,-608,1080,-49,-21,-4
7205,-1232,-600,1048,-49,-24,-4
7210,-1264,-616,1056,-48,-28,-4
7215,-1232,-600,1040,-47,-30,-6
7220,-1272,-576,1056,-46,-29,-9
7225,-1296,-584,1024,-45,-31,-11
7230,-1240,-600,1056,-45,-38,-9
7235,-1248,-608,1048,-47,-42,-9
7240,-1280,-600,1080,-46,-43,-11
7245,-1264,-584,1080,-46,-46,-13
7250,-1280,-592,1048,-46,-50,-13
7255,-1264,-568,1056,-50,-55,-13
7260,-1240,-592,1032,-49,-66,-13
7265,-1272,-600,1064,-50,-55,-15
7270,-1256,-608,1048,-49,-46,-17
7275,-1248,-608,1040,-46,-43,-18
7280,-1248,-568,1040,-46,-38,-18
7285,-1264,-576,1032,-43,-36,-17
7290,-1248,-576,1032,-43,-34,-19
7295,-1248,-592,1088,-46,-32,-19
7300,-1256,-584,1048,-47,-32,-19
7305,-1240,-600,1024,-51,-34,-17
7310,-1280,-600,1064,-52,-35,-19
7315,-1240,-592,1072,-55,-41,-19
7320,-1264,-584,1080,-58,-41,-17
7325,-1240,-592,1064,-59,-38,-18
7330,-1248,-624,1040,-60,-37,-19
7335,-1248,-600,1064,-59,-37,-18
7340,-1264,-608,1048,-59,-36,-19
7345,-1224,-616,1040,-57,-38,-20
7350,-1240,-600,1040,-58,-37,-22
7355,-1240,-600,1040,-59,-38,-21
7360,-1200,-608,1064,-62,-36,-22
7365,-1224,-584,1024,-63,-36,-22
7370,-1232,-600,1072,-64,-39,-23
7375,-1240,-608,1040,-67,-39,-25
7380,-1240,-600,1048,-67,-40,-24
7385,-1240,-608,1064,-70,-40,-24
7390,-1240,-608,1040,-70,-40,-24
7395,-1240,-616,1056,-70,-40,-23
7400,-1224,-624,1112,-68,-40,-23
7405,-1224,-624,1072,-66,-40,-23
7410,-1264,-592,1040,-69,-39,-24
7415,-1216,-640,1048,-70,-38,-23
7420,-1224,-624,1048,-70,-38,-21
7425,-1232,-608,1064,-70,-38,-20
7430,-1208,-632,1064,-70,-37,-20
7435,-1224,-608,1080,-71,-39,-21
7440,-1224,-640,1088,-71,-40,-21
7445,-1224,-632,1064,-70,-40,-20
7450,-1232,-600,1064,-70,-40,-18
7455,-1232,-640,1032,-71,-38,-18
7460,-1232,-624,1040,-69,-36,-17
7465,-1112,-664,1040,-68,-33,-16
7470,-1200,-624,1064,-68,-32,-15
7475,-1208,-648,1104,-64,-31,-16
7480,-1208,-616,1048,-63,-26,-16
7485,-1184,-632,1048,-62,-26,-14
7490,-1216,-632,1096,-59,-28,-15
7495,-1184,-632,1104,-58,-30,-15
7500,-1224,-616,1048,-57,-30,-12
7505,-1208,-616,1072,-56,-27,-13
7510,-1216,-608,1072,-55,-25,-12
7515,-1200,-632,1064,-51,-23,-11
7520,-1216,-624,1048,-47,-22,-10
7525,-1200,-616,1056,-42,-23,-11
7530,-1192,-632,1072,-39,-20,-10
7535,-1216,-624,1072,-35,-16,-12
7540,-1208,-616,1072,-35,-12,-10
7545,-1208,-648,1056,-35,-10,-11
7550,-1200,-616,1072,-36,-7,-11
7555,-1168,-608,1080,-35,-4,-10
7560,-1216,-616,1096,-34,-3,-9
7565,-1216,-600,1088,-36,-1,-9
7570,-1208,-608,1080,-38,-1,-11
7575,-1232,-616,1104,-36,1,-9
7580,-1184,-632,1056,-37,2,-10
7585,-1200,-592,1088,-40,5,-10
7590,-1200,-632,1040,-40,7,-10
7595,-1224,-624,1056,-40,9,-10
7600,-1232,-608,1080,-37,10,-10
7605,-1224,-600,1096,-35,11,-10
7610,-1192,-624,1056,-31,11,-8
7615,-1200,-608,1088,-29,11,-9
7620,-1192,-616,1080,-25,8,-11
7625,-1208,-608,1064,-23,7,-11
7630,-1216,-608,1088,-23,5,-12
7635,-1216,-640,1064,-22,2,-11
7640,-1208,-600,1056,-24,2,-11
7645,-1200,-592,1072,-25,2,-13
7650,-1208,-600,1088,-23,2,-11
7655,-1224,-616,1096,-22,1,-13
7660,-1232,-592,1080,-26,3,-15
7665,-1224,-600,1040,-21,3,-17
7670,-1224,-608,1040,-17,5,-17
7675,-1216,-624,1072,-21,4,-14
7680,-1184,-616,1072,-26,3,-15
7685,-1184,-632,1072,-26,-6,-18
7690,-1216,-592,1072,-27,-12,-19
7695,-1224,-592,1096,-33,-6,-20
7700,-1232,-616,1056,-32,-4,-18
7705,-1208,-600,1048,-32,-6,-19
7710,-1200,-600,1064,-34,-12,-20
7715,-1208,-608,1088,-33,-13,-21
7720,-1208,-616,1080,-35,-11,-19
7725,-1216,-608,1080,-35,-10,-20
7730,-1248,-600,1080,-35,-9,-20
7735,-1176,-600,1072,-34,-17,-20
7740,-1216,-632,1064,-33,-18,-21
7745,-1208,-616,1096,-35,-18,-20
7750,-1192,-600,1096,-35,-20,-20
7755,-1216,-608,1072,-33,-20,-21
7760,-1200,-632,1096,-37,-13,-20
7765,-1200,-640,1088,-36,-11,-18
7770,-1200,-640,1104,-36,-7,-18
7775,-1216,-632,1096,-37,0,-16
7780,-1184,-640,1096,-38,5,-16
7785,-1216,-608,1104,-39,5,-16
7790,-1208,-616,1088,-40,5,-15
7795,-1208,-616,1088,-39,2,-14
7800,-1232,-600,1112,-38,-1,-14
7805,-1184,-608,1080,-36,-4,-14
7810,-1208,-600,1104,-36,-5,-13
7815,-1184,-624,1064,-35,-2,-13
7820,-1200,-632,1072,-34,0,-14
7825,-1208,-608,1072,-32,0,-12
7830,-1200,-592,1080,-31,-2,-13
7835,-1216,-616,1096,-30,0,-13
7840,-1200,-592,1088,-29,0,-13
7845,-1200,-608,1072,-28,-5,-13
7850,-1208,-584,1120,-26,-6,-13
7855,-1184,-624,1080,-29,-5,-12
7860,-1216,-640,1072,-30,-4,-11
7865,-1184,-608,1064,-31,0,-10
7870,-1216,-616,1096,-30,1,-9
7875,-1216,-592,1080,-30,3,-10
7880,-1192,-616,1112,-29,2,-9
7885,-1208,-632,1064,-29,3,-10
7890,-1208,-616,1088,-28,3,-10
7895,-1208,-608,1104,-29,3,-10
7900,-1216,-592,1096,-30,3,-10
7905,-1192,-632,1072,-30,2,-10
7910,-1192,-624,1088,-32,1,-10
7915,-1200,-624,1056,-33,1,-10
7920,-1184,-624,1088,-33,-1,-11
7925,-1192,-616,1096,-34,-1,-9
7930,-1192,-592,1128,-34,-1,-10
7935,-1216,-616,1048,-35,-1,-9
7940,-1192,-600,1088,-36,-2,-12
7945,-1192,-616,1096,-37,-3,-10
7950,-1200,-624,1096,-41,-3,-11
7955,-1208,-616,1072,-41,-3,-9
7960,-1208,-584,1072,-44,-5,-10
7965,-1208,-600,1080,-46,-7,-10
7970,-1208,-624,1064,-49,-7,-10
7975,-1184,-616,1104,-51,-7,-9
7980,-1208,-616,1064,-54,-7,-9
7985,-1216,-608,1088,-56,-5,-9
7990,-1200,-608,1072,-56,-6,-9
7995,-1200,-592,1112,-55,-5,-8
8000,-1200,-608,1112,-57,-5,-8
8005,-1200,-608,1088,-56,-6,-8
8010,-1208,-608,1104,-53,-7,-9
8015,-1224,-608,1112,-49,-9,-9
8020,-1216,-616,1080,-48,-8,-9
8025,-1232,-624,1088,-47,-11,-9
8030,-1184,-576,1072,-42,-18,-11
8035,-1208,-576,1080,-38,-17,-10
8040,-1200,-600,1080,-39,-12,-9
8045,-1192,-624,1048,-38,-10,-9
8050,-1192,-608,1064,-35,-8,-12
8055,-1200,-592,1120,-32,-6,-12
8060,-1200,-592,1096,-30,-4,-11
8065,-1176,-616,1104,-27,-3,-12
8070,-1200,-600,1120,-24,-1,-13
8075,-1192,-576,1104,-22,-2,-14
8080,-1208,-616,1080,-22,-1,-15
8085,-1200,-616,1096,-21,-3,-16
8090,-1192,-616,1064,-20,-5,-17
8095,-1232,-592,1112,-20,-6,-17
8100,-1184,-584,1080,-22,-5,-18
8105,-1184,-600,1072,-23,-5,-19
8110,-1176,-632,1104,-24,-4,-19
8115,-1192,-608,1096,-25,-2,-17
8120,-1192,-608,1120,-24,1,-17
8125,-1200,-616,1112,-27,2,-17
8130,-1176,-584,1104,-27,2,-15
8135,-1208,-592,1080,-29,1,-16
8140,-1208,-592,1104,-31,2,-16
8145,-1208,-608,1096,-34,1,-16
8150,-1208,-584,1120,-38,1,-17
8155,-1192,-624,1080,-41,-1,-16
8160,-1184,-608,1080,-40,-3,-16
8165,-1184,-624,1096,-41,-4,-16
8170,-1184,-608,1088,-40,-5,-15
8175,-1184,-632,1088,-40,-6,-15
8180,-1192,-624,1064,-35,-5,-15
8185,-1184,-600,1096,-33,-3,-14
8190,-1168,-616,1136,-30,-3,-15
8195,-1184,-624,1064,-31,-1,-15
8200,-1192,-616,1080,-33,0,-15
8205,-1192,-616,1088,-37,-1,-15
8210,-1192,-616,1112,-40,-1,-15
8215,-1176,-624,1104,-43,-1,-15
8220,-1176,-600,1096,-47,-2,-15
8225,-1176,-640,1080,-48,-1,-12
8230,-1200,-616,1088,-48,-1,-11
8235,-1208,-600,1072,-50,2,-11
8240,-1200,-608,1088,-52,3,-11
8245,-1192,-600,1080,-52,4,-10
8250,-1216,-592,1104,-53,5,-9
8255,-1184,-616,1112,-52,4,-9
8260,-1184,-632,1080,-51,3,-7
8265,-1208,-600,1104,-50,3,-7
8270,-1208,-600,1088,-48,1,-6
8275,-1200,-616,1088,-46,-2,-5
8280,-1192,-608,1120,-45,-4,-5
8285,-1160,-624,1096,-45,-6,-6
8290,-1176,-632,1104,-43,-8,-5
8295,-1184,-608,1096,-41,-12,-4
8300,-1192,-592,1104,-39,-12,-4
8305,-1160,-632,1104,-40,-11,-4
8310,-1192,-592,1112,-39,-9,-5
8315,-1184,-600,1096,-37,-8,-5
8320,-1160,-616,1112,-36,-7,-6
8325,-1176,-600,1104,-34,-8,-5
8330,-1168,-600,1128,-32,-10,-6
8335,-1160,-512,944,-33,-9,-6
8340,-1200,-584,1104,-34,-10,-8
8345,-1184,-600,1096,-35,-7,-8
8350,-1160,-608,1112,-35,-7,-10
8355,-1184,-624,1072,-34,-6,-11
8360,-1176,-592,1120,-32,-8,-12
8365,-1168,-624,1104,-30,-10,-13
8370,-1168,-608,1088,-28,-11,-14
8375,-1176,-616,1104,-30,-11,-14
8380,-1176,-568,1088,-30,-11,-13
8385,-1192,-592,1136,-33,-13,-12
8390,-1144,-576,1072,-34,-13,-12
8395,-1184,-592,1104,-33,-12,-13
8400,-1152,-608,1120,-34,-10,-14
8405,-1176,-616,1104,-35,-10,-15
8410,-1160,-608,1104,-35,-6,-14
8415,-1192,-608,1112,-37,-6,-16
8420,-1168,-600,1112,-38,-4,-15
8425,-1168,-600,1080,-41,-3,-15
8430,-1176,-624,1112,-43,-4,-14
8435,-1176,-616,1112,-45,-4,-15
8440,-1184,-616,1136,-45,-5,-14
8445,-1200,-608,1192,-47,-7,-15
8450,-1152,-632,1112,-46,-5,-14
8455,-1168,-616,1128,-48,-5,-13
8460,-1160,-616,1120,-48,-5,-15
8465,-1168,-608,1120,-48,-5,-14
8470,-1192,-592,1104,-47,-4,-13
8475,-1176,-616,1096,-47,-2,-14
8480,-1184,-608,1096,-46,-1,-13
8485,-1208,-624,1144,-47,-1,-13
8490,-1168,-624,1088,-48,1,-12
8495,-1176,-632,1112,-48,0,-9
8500,-1184,-624,1128,-47,-1,-9
8505,-1176,-616,1120,-47,0,-10
8510,-1144,-632,1128,-47,0,-10
8515,-1176,-616,1136,-46,0,-9
8520,-1152,-624,1144,-45,0,-8
8525,-1144,-624,1112,-44,0,-7
8530,-1176,-624,1136,-43,2,-7
8535,-1152,-616,1112,-43,2,-7
8540,-1168,-624,1120,-41,4,-7
8545,-1144,-632,1104,-39,4,-6
8550,-1160,-608,1104,-38,5,-6
8555,-1184,-616,1120,-38,5,-6
8560,-1168,-624,1136,-36,4,-5
8565,-1176,-584,1104,-37,4,-5
8570,-1152,-616,1128,-38,8,-5
8575,-1184,-600,1096,-39,9,-5
8580,-1176,-592,1120,-37,9,-4
8585,-1176,-600,1120,-38,9,-6
8590,-1216,-592,1128,-38,11,-6
8595,-1176,-584,1096,-39,10,-5
8600,-1160,-608,1136,-39,11,-5
8605,-1160,-584,1120,-40,11,-6
8610,-1152,-608,1096,-41,10,-6
8615,-1184,-616,1120,-42,10,-6
8620,-1168,-600,1136,-41,11,-4
8625,-1192,-616,1128,-41,11,-5
8630,-1176,-600,1120,-43,11,-5
8635,-1152,-608,1112,-43,11,-5
8640,-1168,-608,1120,-44,10,-5
8645,-1160,-640,1128,-45,11,-6
8650,-1160,-600,1104,-45,11,-6
8655,-1184,-600,1120,-46,10,-6
8660,-1176,-592,1096,-48,11,-5
8665,-1160,-592,1104,-49,11,-6
8670,-1184,-600,1096,-47,10,-5
8675,-1184,-584,1136,-50,11,-6
8680,-1184,-584,1104,-50,11,-6
8685,-1176,-600,1112,-50,12,-6
8690,-1168,-600,1120,-51,12,-6
8695,-1176,-616,1096,-52,11,-6
8700,-1160,-624,1120,-50,12,-7
8705,-1176,-608,1104,-52,12,-6
8710,-1160,-600,1120,-51,11,-6
8715,-1184,-624,1120,-49,11,-7
8720,-1184,-616,1112,-49,11,-7
8725,-1152,-616,1128,-50,12,-7
8730,-1184,-600,1112,-49,12,-7
8735,-1184,-608,1112,-50,13,-7
8740,-1160,-616,1120,-50,12,-6
8745,-1168,-624,1096,-49,11,-6
8750,-1168,-616,1144,-49,13,-7
8755,-1184,-624,1120,-47,13,-5
8760,-1192,-624,1128,-49,12,-5
8765,-1184,-608,1120,-48,13,-5
8770,-1168,-600,1112,-47,13,-6
8775,-1160,-608,1080,-48,13,-4
8780,-1184,-616,1104,-48,11,-6
8785,-1176,-600,1112,-48,11,-6
8790,-1160,-624,1144,-47,12,-5
8795,-1176,-600,1120,-47,10,-4
8800,-1184,-624,1120,-48,10,-3
8805,-1200,-584,1128,-49,10,-4
8810,-1168,-616,1120,-49,11,-5
8815,-1184,-608,1104,-49,10,-5
8820,-1168,-608,1136,-49,11,-4
8825,-1168,-632,1096,-50,12,-3
8830,-1160,-616,1112,-50,11,-3
8835,-1160,-600,1120,-50,12,-2
8840,-1168,-624,1064,-48,10,-3
8845,-1152,-648,1112,-48,11,-4
8850,-1160,-592,1144,-47,12,-4
8855,-1160,-608,1112,-46,11,-4
8860,-1152,-624,1104,-49,12,-4
8865,-1168,-592,1136,-50,12,-3
8870,-1168,-592,1120,-52,11,-3
8875,-1152,-624,1096,-53,12,-2
8880,-1192,-608,1120,-53,11,-1
8885,-1152,-616,1120,-53,11,-2
8890,-1168,-616,1088,-52,11,-2
8895,-1160,-600,1112,-52,12,-2
8900,-1168,-608,1096,-50,10,-1
8905,-1184,-616,1104,-52,11,-1
8910,-1176,-616,1120,-53,11,-2
8915,-1160,-608,1112,-54,11,-2
8920,-1184,-616,1104,-56,10,-2
8925,-1176,-624,1144,-55,11,-4
8930,-1168,-584,1096,-55,11,-3
8935,-1176,-616,1152,-53,11,-3
8940,-1184,-616,1144,-48,12,-4
8945,-1168,-616,1104,-45,12,-4
8950,-1136,-632,1112,-44,13,-3
8955,-1152,-616,1104,-44,16,-2
8960,-1168,-616,1120,-44,17,-2
8965,-1160,-600,1152,-44,17,-4
8970,-1184,-608,1120,-48,17,-4
8975,-1160,-624,1112,-49,16,-3
8980,-1160,-616,1160,-51,16,-3
8985,-1176,-632,1120,-51,16,-4
8990,-1152,-632,1112,-52,19,-3
8995,-1152,-624,1096,-52,21,-3
9000,-1184,-600,1120,-52,22,-4
9005,-1160,-600,1136,-52,22,-4
9010,-1168,-608,1112,-52,22,-3
9015,-1184,-616,1128,-51,21,-2
9020,-1216,-624,1096,-48,21,-2
9025,-1168,-608,1136,-47,19,1
9030,-1176,-624,1136,-45,17,-1
9035,-1152,-624,1096,-45,15,-1
9040,-1168,-624,1096,-43,12,-1
9045,-1184,-600,1112,-42,13,0
9050,-1168,-616,1072,-41,14,1
9055,-1168,-624,1096,-42,14,1
9060,-1160,-600,1144,-44,15,1
9065,-1144,-616,1104,-43,14,2
9070,-1160,-600,1120,-45,14,0
9075,-1176,-616,1136,-47,14,1
9080,-1176,-624,1096,-47,16,0
9085,-1168,-576,1120,-46,17,-1
9090,-1160,-616,1112,-48,17,-2
9095,-1168,-600,1136,-49,16,-2
9100,-1152,-600,1120,-51,15,-4
9105,-1152,-640,1096,-52,13,-5
9110,-1168,-616,1104,-56,13,-5
9115,-1168,-608,1120,-53,13,-6
9120,-1160,-608,1096,-55,12,-6
9125,-1168,-608,1120,-57,11,-6
9130,-1160,-616,1112,-58,10,-6
9135,-1160,-608,1120,-57,12,-6
9140,-1176,-616,1096,-59,10,-6
9145,-1152,-640,1096,-58,11,-6
9150,-1168,-608,1112,-59,11,-5
9155,-1160,-616,1088,-59,12,-6
9160,-1168,-616,1120,-59,11,-5
9165,-1152,-624,1120,-60,13,-3
9170,-1168,-624,1128,-59,13,-2
9175,-1160,-608,1096,-58,14,-4
9180,-1176,-608,1088,-58,15,-4
9185,-1176,-632,1104,-57,16,-4
9190,-1160,-608,1104,-56,17,-5
9195,-1176,-608,1096,-56,18,-6
9200,-1176,-600,1112,-55,19,-7
9205,-1184,-616,1088,-56,22,-8
9210,-1208,-528,976,-58,27,-7
9215,-1152,-592,1072,-62,34,-7
9220,-1160,-632,1048,-67,42,-8
9225,-1184,-608,1040,-74,52,-8
9230,-1192,-640,1040,-84,68,-11
9235,-1192,-656,1048,-94,85,-16
9240,-1184,-672,1008,-105,105,-25
9245,-1192,-696,1048,-119,128,-35
9250,-1216,-704,1024,-131,151,-45
9255,-1184,-736,1064,-140,173,-57
9260,-1136,-856,1064,-144,197,-68
9265,-1144,-784,1080,-137,222,-77
9270,-1208,-800,1144,-115,242,-79
9275,-1232,-800,1176,-77,252,-76
9280,-1248,-808,1216,-18,253,-65
9285,-1184,-768,1184,50,254,-46
9290,-1192,-696,1192,120,256,-23
9295,-1176,-648,1160,184,255,4
9300,-1160,-576,1128,236,246,29
9305,-1136,-552,1112,267,223,54
9310,-1152,-472,1136,280,193,74
9315,-1136,-456,1128,269,162,85
9320,-1152,-464,1096,228,136,89
9325,-1152,-480,1096,171,118,90
9330,-1176,-488,1096,110,109,88
9335,-1208,-488,1096,59,100,83
9340,-1208,-520,1120,23,96,77
9345,-1200,-528,1096,-1,90,70
9350,-1224,-512,1040,-12,79,59
9355,-1232,-520,1056,-14,69,46
9360,-1200,-528,1024,-15,58,31
9365,-1200,-536,1008,-14,46,17
9370,-1200,-544,1032,-14,34,5
9375,-1192,-544,1032,-20,24,-4
9380,-1176,-560,1064,-26,18,-12
9385,-1208,-560,1088,-31,12,-16
9390,-1208,-568,1120,-41,5,-19
9395,-1192,-560,1112,-52,-1,-18
9400,-1192,-576,1120,-65,-7,-18
9405,-1192,-576,1160,-78,-13,-16
9410,-1208,-568,1136,-89,-17,-13
9415,-1208,-584,1152,-94,-26,-11
9420,-1192,-592,1144,-97,-30,-10
9425,-1224,-568,1144,-98,-31,-10
9430,-1192,-584,1144,-98,-32,-9
9435,-1208,-592,1096,-98,-33,-8
9440,-1208,-584,1120,-100,-33,-8
9445,-1216,-584,1096,-99,-34,-10
9450,-1200,-600,1072,-101,-33,-12
9455,-1208,-600,1096,-102,-35,-13
9460,-1192,-592,1064,-102,-35,-16
9465,-1224,-576,1072,-105,-37,-17
9470,-1192,-608,1064,-107,-40,-18
9475,-1200,-600,1096,-109,-44,-18
9480,-1192,-592,1088,-110,-47,-18
9485,-1216,-576,1072,-109,-51,-17
9490,-1200,-624,1080,-106,-54,-16
9495,-1184,-632,1088,-101,-57,-16
9500,-1184,-632,1080,-95,-60,-15
9505,-1176,-616,1104,-90,-59,-17
9510,-1200,-600,1064,-86,-60,-18
9515,-1200,-632,1088,-79,-58,-17
9520,-1176,-624,1064,-74,-58,-19
9525,-1184,-624,1080,-66,-57,-18
9530,-1200,-640,1088,-58,-54,-19
9535,-1192,-624,1064,-51,-54,-21
9540,-1192,-616,1104,-44,-52,-21
9545,-1192,-648,1104,-39,-52,-21
9550,-1184,-640,1064,-35,-53,-20
9555,-1192,-616,1072,-35,-55,-21
9560,-1192,-624,1112,-34,-55,-21
9565,-1192,-608,1080,-34,-56,-19
9570,-1176,-624,1072,-34,-57,-20
9575,-1176,-608,1088,-34,-57,-19
9580,-1200,-576,1120,-36,-58,-18
9585,-1192,-584,1104,-38,-58,-18
9590,-1184,-568,1096,-39,-56,-17
9595,-1184,-600,1072,-42,-55,-16
9600,-1200,-656,1072,-50,-51,-14
9605,-1192,-584,1096,-53,-46,-11
9610,-1184,-616,1096,-59,-39,-10
9615,-1184,-600,1088,-59,-33,-9
9620,-1160,-592,1096,-63,-26,-10
9625,-1160,-632,1104,-63,-20,-10
9630,-1160,-640,1096,-59,-14,-10
9635,-1168,-632,1096,-55,-8,-10
9640,-1168,-600,1128,-52,-4,-12
9645,-1168,-624,1088,-50,-2,-13
9650,-1168,-632,1120,-49,0,-12
9655,-1176,-584,1160,-46,2,-13
9660,-1160,-632,1152,-47,3,-13
9665,-1168,-624,1120,-48,4,-12
9670,-1192,-608,1120,-47,5,-10
9675,-1160,-608,1144,-45,4,-10
9680,-1184,-616,1112,-46,5,-9
9685,-1176,-584,1136,-46,5,-9
9690,-1200,-584,1144,-48,5,-9
9695,-1184,-608,1112,-48,5,-7
9700,-1160,-616,1120,-51,6,-6
9705,-1176,-608,1120,-54,6,-6
9710,-1176,-616,1128,-54,4,-6
9715,-1208,-608,1120,-53,4,-6
9720,-1176,-608,1104,-50,4,-5
9725,-1144,-624,1104,-48,5,-6
9730,-1184,-616,1120,-43,5,-7
9735,-1160,-616,1128,-39,7,-7
9740,-1176,-616,1112,-37,10,-7
9745,-1168,-600,1088,-36,12,-8
9750,-1168,-616,1056,-35,14,-8
9755,-1160,-624,1104,-35,16,-9
9760,-1160,-600,1080,-36,18,-10
9765,-1168,-632,1144,-37,19,-10
9770,-1176,-616,1120,-38,20,-11
9775,-1176,-640,1128,-38,20,-10
9780,-1176,-608,1112,-40,22,-9
9785,-1160,-600,1072,-41,23,-11
9790,-1160,-608,1088,-39,23,-12
9795,-1144,-608,1112,-39,23,-11
9800,-1192,-584,1112,-39,22,-11
9805,-1184,-616,1120,-38,20,-11
9810,-1184,-616,1072,-38,18,-11
9815,-1176,-608,1104,-37,15,-11
9820,-1208,-608,1128,-34,12,-10
9825,-1192,-592,1120,-34,11,-8
9830,-1184,-616,1072,-34,7,-6
9835,-1192,-616,1104,-36,5,-6
9840,-1192,-608,1120,-36,3,-6
9845,-1176,-624,1128,-38,3,-4
9850,-1184,-592,1120,-39,3,-6
9855,-1168,-616,1112,-38,3,-5
9860,-1184,-616,1096,-38,2,-6
9865,-1176,-600,1096,-39,3,-5
9870,-1184,-592,1104,-39,4,-6
9875,-1192,-592,1112,-41,4,-7
9880,-1184,-616,1096,-40,4,-7
9885,-1184,-600,1104,-42,4,-7
9890,-1192,-648,1064,-41,3,-8
9895,-1192,-616,1104,-41,2,-8
9900,-1176,-608,1096,-43,0,-10
9905,-1168,-600,1112,-43,0,-10
9910,-1184,-592,1112,-44,-1,-9
9915,-1160,-624,1112,-45,-1,-8
9920,-1152,-624,1088,-47,-3,-9
9925,-1152,-616,1104,-47,-4,-8
9930,-1184,-608,1088,-48,-5,-8
9935,-1184,-632,1120,-47,-4,-8
9940,-1168,-624,1128,-43,-5,-6
9945,-1184,-592,1088,-43,-4,-6
9950,-1168,-592,1136,-44,-3,-8
9955,-1168,-624,1120,-45,-2,-6
9960,-1160,-624,1112,-46,-2,-6
9965,-1184,-632,1112,-47,-1,-6
9970,-1152,-624,1112,-47,-1,-6
9975,-1168,-608,1128,-48,-1,-6
9980,-1160,-640,1128,-48,-1,-8
9985,-1184,-592,1144,-47,-2,-8
9990,-1192,-584,1144,-48,-1,-7
9995,-1176,-608,1112,-49,-2,-7
10000,-1152,-624,1088,-48,-2,-7
10005,-1184,-608,1104,-47,-2,-7
10010,-1160,-624,1136,-47,-2,-6
10015,-1160,-616,1120,-47,0,-6
10020,-1176,-616,1120,-47,1,-7
10025,-1160,-608,1120,-45,2,-6
10030,-1152,-608,1136,-46,2,-4
10035,-1168,-600,1120,-48,2,-4
10040,-1152,-600,1096,-47,3,-5
10045,-1160,-600,1144,-47,3,-6
10050,-1152,-608,1096,-47,3,-5
10055,-1144,-632,1136,-46,1,-5
10060,-1160,-584,1104,-47,1,-5
10065,-1168,-624,1112,-45,2,-6
10070,-1144,-616,1128,-45,1,-8
10075,-1176,-600,1104,-46,1,-8
10080,-1088,-664,1144,-47,2,-9
10085,-1160,-600,1128,-45,2,-9
10090,-1184,-592,1144,-46,2,-6
10095,-1168,-592,1096,-45,3,-7
10100,-1160,-608,1120,-46,3,-7
10105,-1184,-600,1088,-45,3,-7
10110,-1168,-624,1136,-46,4,-7
10115,-1168,-624,1096,-45,4,-8
10120,-1160,-616,1096,-46,3,-8
10125,-1176,-608,1096,-46,3,-8
10130,-1160,-584,1112,-46,5,-8
10135,-1096,-656,1192,-46,3,-8
10140,-1176,-592,1120,-48,4,-6
10145,-1168,-632,1128,-49,4,-7
10150,-1160,-608,1088,-50,6,-8
10155,-1160,-608,1112,-47,5,-9
10160,-1176,-624,1088,-48,5,-7
10165,-1168,-600,1104,-47,5,-7
10170,-1168,-592,1160,-49,4,-7
10175,-1184,-600,1096,-49,5,-8
10180,-1160,-624,1128,-49,5,-8
10185,-1168,-608,1104,-50,5,-6
10190,-1080,-544,1056,-51,5,-7
10195,-1176,-584,1128,-50,5,-7
10200,-1144,-624,1096,-47,4,-6
10205,-1144,-616,1088,-48,4,-7
10210,-1152,-624,1112,-48,6,-7
10215,-1152,-608,1136,-48,7,-7
10220,-1144,-616,1136,-48,7,-5
10225,-1136,-624,1120,-48,7,-7
10230,-1160,-624,1152,-46,8,-6
10235,-1176,-608,1120,-46,9,-5
10240,-1160,-624,1144,-47,9,-6
10245,-1160,-584,1120,-45,9,-5
10250,-1160,-616,1136,-45,9,-6
10255,-1176,-608,1152,-46,10,-7
10260,-1160,-600,1144,-46,10,-7
10265,-1152,-608,1120,-43,8,-7
10270,-1136,-608,1136,-42,9,-9
10275,-1176,-600,1136,-43,9,-7
10280,-1184,-608,1136,-44,8,-7
10285,-1152,-624,1112,-43,8,-7
10290,-1160,-624,1120,-42,8,-6
10295,-1144,-616,1104,-42,7,-7
10300,-1168,-616,1112,-44,8,-7
10305,-1168,-616,1128,-42,8,-7
10310,-1168,-608,1104,-44,10,-8
10315,-1152,-624,1152,-44,8,-7
10320,-1136,-608,1144,-46,9,-6
10325,-1176,-600,1112,-47,10,-5
10330,-1168,-592,1088,-46,9,-6
10335,-1168,-608,1112,-47,8,-5
10340,-1144,-624,1120,-48,8,-7
10345,-1160,-624,1136,-46,10,-6
10350,-1168,-616,1128,-47,9,-7
10355,-1168,-632,1120,-46,10,-5
10360,-1152,-608,1144,-47,11,-5
10365,-1128,-616,1104,-47,11,-7
10370,-1176,-616,1104,-47,10,-5
10375,-1176,-624,1112,-47,11,-6
10380,-1152,-616,1136,-47,11,-7
10385,-1160,-624,1128,-46,10,-6
10390,-1160,-600,1128,-46,9,-6
10395,-1176,-600,1112,-45,10,-5
10400,-1168,-592,1112,-46,9,-5
10405,-1160,-616,1120,-46,8,-6
10410,-1152,-624,1104,-46,7,-6
10415,-1144,-584,1096,-46,8,-7
10420,-1160,-584,1128,-46,8,-7
10425,-1152,-616,1096,-47,9,-7
10430,-1168,-632,1120,-47,9,-6
10435,-1152,-608,1112,-49,8,-6
10440,-1152,-624,1104,-49,9,-6
10445,-1176,-608,1112,-50,9,-5
10450,-1160,-632,1144,-48,9,-4
10455,-1152,-600,1144,-49,8,-5
10460,-1144,-616,1104,-48,8,-5
10465,-1152,-616,1136,-46,9,-5
10470,-1144,-632,1080,-47,8,-5
10475,-1160,-608,1136,-48,7,-5
10480,-1168,-592,1096,-49,6,-6
10485,-1120,-616,1112,-49,7,-7
10490,-1160,-600,1120,-50,6,-7
10495,-1160,-608,1144,-48,6,-5
10500,-1160,-640,1136,-49,5,-8
10505,-1160,-624,1144,-48,6,-7
10510,-1160,-608,1120,-46,5,-7
10515,-1144,-616,1120,-43,5,-7
10520,-1176,-608,1120,-41,6,-7
10525,-1144,-608,1104,-39,9,-8
10530,-1168,-600,1104,-38,9,-7
10535,-1144,-616,1128,-40,11,-6
10540,-1144,-608,1120,-41,13,-7
10545,-1152,-616,1096,-41,11,-7
10550,-1160,-632,1136,-43,11,-7
10555,-1152,-624,1112,-42,13,-8
10560,-1160,-608,1104,-44,13,-7
10565,-1176,-616,1128,-45,14,-7
10570,-1184,-616,1128,-44,17,-7
10575,-1160,-592,1120,-45,17,-7
10580,-1176,-608,1104,-45,18,-7
10585,-1160,-632,1120,-43,17,-6
10590,-1144,-608,1144,-42,17,-6
10595,-1160,-616,1144,-40,16,-6
10600,-1168,-608,1112,-40,14,-5
10605,-1168,-632,1120,-38,12,-3
10610,-1152,-608,1120,-37,10,-4
10615,-1168,-616,1136,-36,8,-3
10620,-1152,-624,1128,-36,9,-2
10625,-1160,-608,1096,-37,10,-3
10630,-1136,-624,1128,-35,8,-2
10635,-1160,-600,1136,-37,11,-4
10640,-1144,-624,1136,-35,10,-4
10645,-1152,-600,1120,-37,9,-5
10650,-1176,-592,1120,-38,10,-5
10655,-1168,-600,1128,-39,11,-5
10660,-1128,-624,1160,-41,11,-6
10665,-1176,-600,1128,-40,11,-7
10670,-1160,-600,1136,-42,11,-7
10675,-1152,-608,1144,-44,10,-8
10680,-1160,-608,1128,-44,11,-7
10685,-1160,-600,1128,-42,11,-9
10690,-1152,-616,1128,-43,10,-9
10695,-1152,-600,1128,-42,10,-9
10700,-1152,-616,1128,-43,10,-9
10705,-1144,-616,1112,-45,9,-10
10710,-1168,-616,1104,-44,8,-10
10715,-1160,-608,1144,-44,9,-9
10720,-1144,-600,1120,-44,8,-9
10725,-1120,-624,1152,-44,8,-8
10730,-1144,-616,1144,-44,5,-8
10735,-1160,-632,1128,-44,3,-8
10740,-1168,-608,1128,-45,2,-8
10745,-1192,-608,1144,-45,2,-9
10750,-1160,-608,1136,-46,1,-9
10755,-1152,-632,1104,-47,3,-9
10760,-1144,-608,1136,-46,6,-8
10765,-1152,-616,1152,-47,5,-9
10770,-1176,-616,1112,-46,5,-8
10775,-1168,-600,1128,-47,6,-7
10780,-1152,-616,1120,-48,5,-7
10785,-1144,-632,1120,-48,4,-6
10790,-1120,-648,1112,-48,4,-6
10795,-1136,-608,1168,-48,4,-7
10800,-1160,-616,1144,-49,4,-5
10805,-1160,-616,1128,-47,5,-6
10810,-1160,-624,1128,-47,5,-5
10815,-1160,-592,1112,-46,6,-6
10820,-1144,-616,1144,-45,6,-5
10825,-1160,-616,1096,-46,7,-6
10830,-1160,-600,1112,-45,8,-6
10835,-1160,-616,1112,-47,8,-6
10840,-1152,-624,1112,-45,8,-6
10845,-1128,-624,1136,-45,9,-6
10850,-1160,-624,1112,-45,9,-5
10855,-1136,-624,1176,-45,8,-7
10860,-1136,-608,1120,-45,8,-6
10865,-1136,-632,1112,-43,8,-6
10870,-1168,-616,1128,-42,9,-8
10875,-1168,-624,1112,-43,9,-7
10880,-1144,-608,1104,-42,9,-6
10885,-1152,-616,1120,-44,7,-6
10890,-1152,-600,1128,-41,7,-5
10895,-1160,-584,1120,-43,7,-6
10900,-1152,-592,1136,-42,8,-6
10905,-1184,-584,1088,-44,7,-7
10910,-1152,-608,1112,-44,6,-7
10915,-1176,-608,1128,-45,6,-6
10920,-1152,-632,1104,-44,6,-6
10925,-1152,-608,1160,-46,3,-7
10930,-1160,-608,1104,-47,3,-7
10935,-1136,-616,1128,-47,4,-6
10940,-1160,-632,1096,-48,3,-6
10945,-1160,-592,1096,-48,5,-6
10950,-1096,-592,1048,-47,4,-7
10955,-1160,-624,1128,-46,-2,-6
10960,-1136,-608,1168,-47,-1,-5
10965,-1152,-616,1128,-49,0,-6
10970,-1136,-600,1152,-50,2,-8
10975,-1168,-592,1128,-50,2,-8
10980,-1152,-624,1136,-50,4,-6
10985,-1136,-608,1128,-49,5,-7
10990,-1136,-616,1152,-49,6,-6
10995,-1128,-600,1112,-48,8,-5
11000,-1144,-600,1120,-47,8,-6
11005,-1192,-600,1176,-46,9,-5
11010,-1160,-608,1136,-47,9,-6
11015,-1152,-624,1144,-46,10,-6
11020,-1160,-608,1120,-46,11,-5
11025,-1152,-616,1128,-47,11,-6
11030,-1160,-616,1104,-46,12,-6
11035,-1120,-624,1136,-46,11,-6
11040,-1160,-624,1144,-45,12,-6
11045,-1144,-608,1136,-44,13,-6
11050,-1136,-592,1112,-43,14,-4
11055,-1152,-616,1136,-42,14,-5
11060,-1160,-608,1112,-43,13,-6
11065,-1136,-608,1144,-44,13,-5
11070,-1152,-624,1120,-45,12,-4
11075,-1168,-608,1128,-44,13,-5
11080,-1120,-640,1120,-46,11,-5
11085,-1160,-584,1128,-45,12,-6
11090,-1160,-592,1120,-46,11,-5
11095,-1144,-624,1104,-47,12,-5
11100,-1152,-600,1120,-48,12,-5
11105,-1152,-632,1120,-44,12,-6
11110,-1152,-592,1112,-47,11,-4
11115,-1120,-592,1096,-48,11,-6
11120,-1128,-600,1136,-47,11,-5
11125,-1128,-640,1120,-48,12,-6
11130,-1152,-616,1120,-47,12,-6
11135,-1176,-608,1120,-48,11,-4
11140,-1144,-624,1104,-48,10,-4
11145,-1136,-624,1112,-49,11,-5
11150,-1152,-600,1128,-51,11,-4
11155,-1136,-592,1128,-50,11,-5
11160,-1152,-592,1152,-50,11,-6
11165,-1128,-624,1112,-52,11,-5
11170,-1152,-608,1128,-52,11,-5
11175,-1160,-608,1160,-52,10,-5
11180,-1144,-608,1112,-51,10,-5
11185,-1128,-600,1128,-53,11,-5
11190,-1160,-600,1144,-53,9,-5
11195,-1128,-608,1136,-52,9,-4
11200,-1152,-608,1120,-52,10,-5
11205,-1152,-616,1152,-52,9,-5
11210,-1136,-624,1128,-53,9,-5
11215,-1144,-616,1104,-54,9,-4
11220,-1136,-616,1144,-52,9,-5
11225,-1144,-616,1152,-54,8,-4
11230,-1152,-608,1112,-54,6,-5
11235,-1160,-600,1136,-52,6,-4
11240,-1144,-592,1136,-53,6,-6
11245,-1144,-600,1104,-54,5,-6
11250,-1136,-616,1120,-56,5,-6
11255,-1144,-600,1152,-54,5,-6
11260,-1136,-608,1096,-57,6,-6
11265,-1160,-616,1144,-55,6,-5
11270,-1152,-608,1128,-57,5,-6
11275,-1168,-632,1120,-56,6,-6
11280,-1128,-600,1128,-54,6,-4
11285,-1144,-616,1128,-53,7,-5
11290,-1136,-624,1120,-54,7,-4
11295,-1168,-616,1104,-54,8,-4
11300,-1136,-632,1136,-55,10,-3
11305,-1144,-616,1144,-56,10,-3
11310,-1112,-640,1136,-57,11,-4
11315,-1128,-640,1136,-57,10,-3
11320,-1120,-632,1152,-56,10,-1
11325,-1144,-616,1144,-55,11,-1
11330,-1144,-616,1128,-52,10,-2
11335,-1144,-616,1136,-52,11,-2
11340,-1152,-592,1144,-52,11,-1
11345,-1168,-624,1152,-53,13,-1
11350,-1144,-608,1136,-55,13,-2
11355,-1152,-640,1128,-55,13,0
11360,-1120,-624,1128,-54,13,0
11365,-1152,-608,1152,-53,14,-1
11370,-1152,-600,1144,-52,14,-1
11375,-1136,-600,1128,-50,14,0
11380,-1144,-632,1136,-48,15,0
11385,-1128,-640,1128,-45,16,0
11390,-1136,-632,1136,-45,17,-2
11395,-1152,-608,1128,-43,18,-3
11400,-1168,-616,1152,-44,19,-2
11405,-1136,-600,1112,-45,20,-2
11410,-1152,-632,1136,-45,19,-4
11415,-1160,-608,1160,-46,22,-3
11420,-1160,-632,1136,-49,21,-3
11425,-1144,-616,1144,-49,23,-4
11430,-1152,-632,1112,-48,22,-2
11435,-1160,-640,1104,-46,22,-1
11440,-1136,-648,1136,-46,25,-1
11445,-1144,-616,1112,-45,26,-2
11450,-1144,-624,1112,-44,26,-3
11455,-1144,-616,1144,-45,26,-1
11460,-1104,-632,1128,-47,25,1
11465,-1152,-632,1136,-45,23,1
11470,-1160,-624,1112,-44,23,2
11475,-1144,-616,1136,-42,22,1
11480,-1152,-616,1144,-42,20,2
11485,-1152,-584,1112,-44,19,5
11490,-1136,-600,1136,-45,18,4
11495,-1136,-608,1112,-48,17,6
11500,-1152,-608,1128,-46,16,6
11505,-1144,-624,1104,-46,17,6
11510,-1128,-624,1136,-45,19,4
11515,-1144,-600,1104,-46,18,5
11520,-1144,-592,1144,-44,20,3
11525,-1152,-576,1096,-44,20,2
11530,-1144,-576,1104,-46,21,2
11535,-1152,-584,1120,-48,23,2
11540,-1144,-624,1152,-50,21,1
11545,-1136,-616,1144,-50,21,1
11550,-1152,-608,1144,-50,20,1
11555,-1136,-624,1144,-50,20,-1
11560,-1136,-616,1104,-50,20,-1
11565,-1128,-640,1128,-50,19,-3
11570,-1160,-592,1112,-52,18,-1
11575,-1152,-616,1136,-51,17,-2
11580,-1168,-616,1128,-52,17,-1
11585,-1144,-600,1128,-55,16,-1
11590,-1136,-624,1096,-55,16,-2
11595,-1152,-616,1128,-58,17,0
11600,-1160,-608,1104,-58,16,0
11605,-1136,-632,1096,-58,16,0
11610,-1136,-600,1128,-59,15,0
11615,-1136,-616,1096,-60,17,1
11620,-1136,-648,1088,-60,17,0
11625,-1144,-624,1160,-60,18,-1
11630,-1144,-632,1096,-58,15,-1
11635,-1136,-632,1144,-58,16,-2
11640,-1136,-600,1136,-59,18,0
11645,-1160,-608,1176,-61,16,1
11650,-1168,-608,1128,-60,16,1
11655,-1144,-632,1152,-58,15,2
11660,-1152,-648,1128,-57,16,2
11665,-1144,-632,1128,-59,16,1
11670,-1168,-616,1096,-56,17,2
11675,-1128,-608,1152,-55,17,3
11680,-1152,-624,1152,-56,17,3
11685,-1136,-616,1160,-55,17,3
11690,-1168,-616,1144,-57,16,2
11695,-1152,-616,1120,-56,18,1
11700,-1160,-624,1096,-55,19,2
11705,-1144,-632,1096,-54,17,2
11710,-1144,-616,1144,-53,19,1
11715,-1152,-624,1136,-52,18,2
11720,-1144,-640,1120,-50,19,3
11725,-1136,-608,1144,-47,20,2
11730,-1136,-624,1120,-47,19,4
11735,-1128,-624,1096,-46,19,3
11740,-1152,-616,1104,-46,19,2
11745,-1144,-608,1128,-46,18,4
11750,-1128,-624,1128,-44,19,3
11755,-1152,-616,1120,-45,19,2
11760,-1136,-632,1120,-44,18,3
11765,-1160,-608,1128,-45,18,4
11770,-1160,-624,1136,-45,20,4
11775,-1128,-608,1160,-47,18,4
11780,-1136,-624,1144,-47,17,5
11785,-1144,-632,1144,-48,16,4
11790,-1144,-592,1144,-50,16,4
11795,-1152,-624,1152,-52,17,3
11800,-1160,-616,1144,-52,16,3
11805,-1160,-592,1136,-51,16,2
11810,-1128,-632,1152,-50,18,2
11815,-1136,-632,1128,-49,18,2
11820,-1152,-616,1128,-50,16,1
11825,-1136,-616,1136,-51,18,1
11830,-1152,-632,1144,-53,18,0
11835,-1128,-616,1112,-53,19,1
11840,-1160,-624,1112,-54,18,1
11845,-1168,-608,1136,-54,18,-1
11850,-1128,-608,1120,-53,19,-1
11855,-1160,-624,1104,-53,19,-1
11860,-1128,-640,1152,-53,18,-1
11865,-1104,-608,1112,-52,19,-2
11870,-1168,-616,1136,-52,20,-1
11875,-1216,-600,1152,-52,19,-2
11880,-1160,-616,1120,-53,19,-2
11885,-1152,-616,1112,-51,19,-1
11890,-1136,-616,1120,-50,18,-2
11895,-1152,-616,1120,-49,20,-2
11900,-1152,-640,1136,-48,20,-3
11905,-1144,-640,1136,-46,19,-3
11910,-1152,-624,1120,-46,20,-2
11915,-1152,-624,1136,-45,19,-4
11920,-1160,-600,1136,-43,20,-4
11925,-1144,-632,1136,-41,19,-3
11930,-1144,-576,1072,-42,20,-5
11935,-1152,-600,1136,-42,19,-4
11940,-1128,-624,1120,-41,20,-3
11945,-1160,-624,1128,-40,19,-5
11950,-1184,-624,1128,-41,18,-4
11955,-1168,-616,1112,-43,20,-5
11960,-1136,-624,1112,-41,19,-5
11965,-1144,-608,1112,-42,19,-4
11970,-1144,-608,1136,-42,19,-4
11975,-1152,-616,1128,-41,19,-4
11980,-1152,-608,1112,-41,20,-4
11985,-1160,-624,1128,-41,20,-5
11990,-1152,-616,1144,-42,20,-4
11995,-1144,-600,1136,-39,19,-4
12000,-1144,-600,1112,-42,21,-4
12005,-1144,-624,1120,-42,20,-4
12010,-1152,-624,1136,-42,20,-4
12015,-1192,-616,1128,-43,19,-5
12020,-1160,-608,1144,-41,18,-5
12025,-1168,-616,1112,-41,17,-4
12030,-1152,-632,1112,-39,17,-4
12035,-1144,-632,1112,-41,18,-5
12040,-1152,-616,1112,-41,17,-4
12045,-1160,-616,1096,-41,17,-6
12050,-1152,-584,1104,-41,17,-5
12055,-1128,-616,1120,-40,16,-5
12060,-1160,-608,1112,-41,16,-6
12065,-1144,-632,1128,-43,15,-6
12070,-1160,-616,1136,-44,13,-6
12075,-1144,-624,1136,-44,13,-5
12080,-1168,-616,1128,-45,14,-7
12085,-1160,-600,1120,-43,14,-8
12090,-1168,-616,1096,-45,14,-7
12095,-1136,-624,1104,-43,14,-6
12100,-1160,-608,1136,-43,13,-7
12105,-1144,-632,1144,-42,14,-8
12110,-1152,-600,1120,-41,12,-7
12115,-1160,-616,1120,-43,13,-7
12120,-1152,-600,1104,-42,13,-7
12125,-1136,-592,1120,-41,13,-8
12130,-1176,-616,1120,-42,11,-8
12135,-1152,-616,1120,-41,11,-8
12140,-1152,-616,1120,-41,11,-8
12145,-1168,-608,1152,-40,12,-8
12150,-1152,-616,1112,-43,11,-7
12155,-1144,-600,1104,-44,11,-7
12160,-1168,-600,1120,-45,11,-8
12165,-1128,-616,1160,-46,12,-7
12170,-1136,-616,1144,-46,12,-9
12175,-1144,-632,1144,-47,10,-9
12180,-1152,-624,1128,-46,9,-8
12185,-1168,-616,1152,-44,8,-8
12190,-1120,-608,1128,-41,8,-10
12195,-1168,-608,1120,-40,10,-9
12200,-1144,-608,1128,-43,10,-8
12205,-1128,-616,1096,-43,10,-8
12210,-1152,-608,1136,-47,8,-8
12215,-1152,-616,1144,-47,8,-9
12220,-1152,-608,1144,-46,9,-10
12225,-1144,-600,1160,-45,8,-9
12230,-1144,-600,1136,-43,9,-10
12235,-1152,-616,1128,-41,8,-10
12240,-1128,-600,1104,-36,9,-9
12245,-1136,-608,1144,-35,11,-10
12250,-1144,-624,1128,-35,10,-10
12255,-1152,-600,1144,-34,11,-9
12260,-1112,-600,1112,-38,12,-10
12265,-1136,-608,1096,-39,13,-11
12270,-1136,-616,1104,-40,11,-9
12275,-1120,-640,1120,-39,10,-10
12280,-1144,-632,1152,-40,11,-10
12285,-1152,-632,1120,-38,11,-10
12290,-1144,-632,1152,-39,12,-9
12295,-1144,-608,1152,-39,14,-8
12300,-1144,-600,1152,-39,16,-7
12305,-1152,-624,1144,-36,17,-7
12310,-1168,-600,1096,-35,18,-8
12315,-1176,-616,1112,-34,16,-8
12320,-1160,-616,1112,-33,16,-8
12325,-1152,-608,1144,-32,15,-7
12330,-1128,-616,1128,-30,14,-7
12335,-1152,-616,1144,-27,12,-6
12340,-1168,-608,1112,-29,11,-5
12345,-1144,-616,1136,-28,9,-4
12350,-1144,-608,1144,-30,8,-5
12355,-1136,-616,1120,-30,6,-5
12360,-1144,-616,1152,-29,7,-7
12365,-1160,-624,1128,-28,8,-6
12370,-1144,-624,1136,-30,8,-6
12375,-1152,-608,1168,-32,8,-6
12380,-1160,-608,1136,-34,9,-7
12385,-1120,-608,1120,-35,10,-8
12390,-1152,-592,1152,-36,11,-9
12395,-1136,-608,1144,-36,11,-10
12400,-1128,-600,1128,-37,12,-9
12405,-1128,-608,1152,-38,11,-12
12410,-1136,-624,1136,-39,11,-11
12415,-1168,-624,1104,-38,11,-12
12420,-1136,-600,1144,-40,10,-14
12425,-1160,-600,1120,-40,10,-12
12430,-1152,-616,1136,-40,10,-12
12435,-1144,-600,1096,-39,9,-12
12440,-1152,-608,1112,-38,9,-13
12445,-1128,-624,1144,-39,8,-13
12450,-1136,-608,1144,-40,8,-11
12455,-1144,-608,1152,-41,9,-10
12460,-1160,-624,1128,-41,9,-11
12465,-1136,-592,1152,-41,9,-11
12470,-1136,-640,1168,-42,9,-9
12475,-1128,-624,1136,-43,10,-12
12480,-1144,-600,1136,-43,11,-9
12485,-1136,-632,1120,-40,11,-10
12490,-1144,-584,1176,-41,10,-10
12495,-1152,-616,1128,-40,11,-9
12500,-1144,-632,1128,-43,11,-11
12505,-1144,-608,1136,-43,10,-10
12510,-1160,-600,1160,-44,10,-10
12515,-1120,-616,1144,-45,7,-9
12520,-1120,-608,1096,-44,9,-8
12525,-1136,-624,1136,-43,10,-7
12530,-1144,-624,1128,-42,10,-8
12535,-1152,-608,1144,-41,10,-6
12540,-1136,-648,1112,-40,12,-6
12545,-1120,-632,1136,-43,12,-6
12550,-1128,-600,1136,-43,12,-6
12555,-1136,-616,1152,-42,11,-7
12560,-1128,-616,1160,-42,10,-5
12565,-1120,-616,1120,-44,10,-5
12570,-1136,-640,1176,-42,9,-5
12575,-1152,-608,1128,-42,9,-5
12580,-1168,-608,1144,-43,8,-6
12585,-1144,-624,1120,-42,9,-7
12590,-1136,-632,1160,-40,9,-7
12595,-1160,-616,1136,-39,8,-7
12600,-1136,-624,1128,-39,9,-7
12605,-1152,-624,1152,-39,8,-6
12610,-1144,-616,1088,-37,8,-8
12615,-1160,-624,1120,-38,9,-8
12620,-1160,-608,1152,-37,8,-7
12625,-1136,-624,1120,-36,8,-8
12630,-1144,-616,1144,-37,9,-7
12635,-1152,-624,1120,-37,9,-8
12640,-1104,-616,1128,-38,10,-6
12645,-1128,-616,1120,-39,8,-7
12650,-1120,-640,1120,-38,8,-7
12655,-1128,-600,1168,-38,8,-6
12660,-1160,-584,1112,-39,10,-7
12665,-1144,-632,1152,-40,9,-8
12670,-1120,-624,1136,-42,11,-6
12675,-1152,-592,1120,-43,11,-7
12680,-1152,-616,1112,-43,11,-9
12685,-1144,-584,1152,-43,10,-6
12690,-1184,-616,1152,-44,12,-6
12695,-1128,-608,1136,-46,9,-8
12700,-1128,-600,1144,-45,9,-8
12705,-1128,-616,1112,-42,8,-7
12710,-1128,-624,1152,-44,7,-7
12715,-1112,-632,1112,-45,8,-8
12720,-1152,-608,1120,-46,8,-8
12725,-1120,-616,1144,-44,8,-6
12730,-1152,-616,1144,-45,8,-7
12735,-1136,-616,1120,-44,10,-7
12740,-1136,-616,1120,-44,9,-9
12745,-1128,-616,1120,-44,9,-10
12750,-1192,-552,1120,-44,9,-7
12755,-1168,-608,1088,-43,9,-9
12760,-1152,-624,1144,-42,10,-8
12765,-1136,-624,1120,-42,9,-9
12770,-1192,-608,1152,-43,9,-9
12775,-1160,-600,1128,-42,10,-8
12780,-1136,-600,1120,-43,10,-9
12785,-1136,-608,1160,-43,9,-8
12790,-1152,-608,1144,-43,9,-9
12795,-1176,-584,1136,-43,8,-7
12800,-1136,-632,1152,-42,10,-8
12805,-1152,-608,1000,-42,10,-8
12810,-1144,-616,1152,-44,10,-7
12815,-1144,-608,1136,-43,10,-8
12820,-1144,-600,1128,-44,9,-6
12825,-1152,-600,1128,-45,10,-7
12830,-1144,-624,1152,-43,11,-6
12835,-1136,-608,1120,-45,11,-8
12840,-1120,-616,1144,-46,11,-7
12845,-1120,-624,1120,-46,11,-4
12850,-1136,-616,1120,-44,9,-5
12855,-1120,-616,1056,-45,9,-5
12860,-1128,-616,1104,-45,10,-5
12865,-1112,-592,1160,-43,10,-6
12870,-1160,-624,1128,-45,9,-5
12875,-1144,-608,1136,-45,8,-6
12880,-1144,-592,1136,-45,8,-6
12885,-1160,-592,1152,-45,8,-6
12890,-1120,-616,1136,-45,7,-6
12895,-1144,-608,1120,-45,7,-6
12900,-1128,-624,1136,-44,8,-7
12905,-1152,-608,1128,-45,9,-6
12910,-1136,-584,1160,-44,9,-5
12915,-1136,-616,1120,-45,9,-6
12920,-1136,-584,1168,-47,10,-7
12925,-1136,-592,1168,-44,9,-6
12930,-1128,-616,1168,-43,10,-6
12935,-1128,-600,1120,-45,10,-5
12940,-1128,-624,1160,-45,10,-6
12945,-1152,-592,1152,-45,11,-5
12950,-1128,-608,1144,-43,10,-5
12955,-1136,-632,1128,-45,10,-5
12960,-1128,-608,1136,-45,11,-6
12965,-1128,-592,1160,-44,10,-7
12970,-1144,-624,1112,-46,10,-5
12975,-1144,-616,1120,-47,10,-6
12980,-1136,-616,1144,-46,10,-6
12985,-1136,-624,1168,-46,8,-7
12990,-1152,-608,1120,-47,9,-7
12995,-1136,-600,1152,-47,11,-6
13000,-1128,-616,1152,-47,11,-6
13005,-1136,-592,1160,-48,10,-5
13010,-1136,-624,1152,-48,11,-7
13015,-1120,-624,1128,-47,12,-7
13020,-1120,-616,1144,-47,10,-7
13025,-1128,-600,1152,-47,10,-6
13030,-1128,-616,1152,-47,10,-6
13035,-1152,-600,1144,-46,10,-6
13040,-1160,-600,1152,-47,11,-5
13045,-1112,-616,1160,-46,11,-5
13050,-1136,-608,1168,-45,11,-6
13055,-1144,-608,1160,-46,12,-5
13060,-1120,-608,1152,-47,12,-4
13065,-1128,-616,1120,-49,13,-6
13070,-1136,-608,1152,-48,13,-6
13075,-1120,-608,1144,-49,12,-6
13080,-1128,-616,1136,-49,12,-6
13085,-1136,-640,1136,-46,11,-6
13090,-1120,-616,1144,-47,12,-6
13095,-1104,-600,1160,-46,14,-6
13100,-1096,-592,1136,-48,12,-5
13105,-1144,-584,1136,-46,14,-6
13110,-1128,-624,1128,-47,13,-6
13115,-1144,-608,1136,-48,13,-5
13120,-1128,-624,1144,-50,12,-6
13125,-1136,-608,1152,-48,12,-6
13130,-1136,-608,1152,-48,11,-6
13135,-1160,-608,1128,-48,10,-7
13140,-1128,-624,1144,-45,9,-6
13145,-1152,-632,1120,-44,11,-6
13150,-1136,-624,1136,-41,9,-5
13155,-1136,-608,1120,-37,12,-4
13160,-1120,-600,1168,-37,12,-6
13165,-1136,-584,1096,-36,12,-8
13170,-1128,-616,1120,-36,11,-8
13175,-1136,-616,1168,-38,11,-7
13180,-1144,-600,1120,-41,11,-6
13185,-1104,-624,1176,-41,13,-8
13190,-1152,-616,1136,-43,13,-7
13195,-1120,-624,1160,-43,13,-7
13200,-1128,-624,1168,-42,16,-7
13205,-1136,-632,1144,-42,19,-6
13210,-1136,-616,1136,-40,18,-4
13215,-1152,-600,1120,-41,19,-7
13220,-1128,-624,1136,-41,19,-7
13225,-1136,-616,1144,-39,20,-6
13230,-1128,-624,1112,-39,20,-6
13235,-1128,-608,1128,-37,19,-6
13240,-1152,-616,1120,-35,17,-5
13245,-1128,-624,1128,-34,16,-5
13250,-1112,-608,1152,-35,14,-5
13255,-1112,-624,1136,-33,13,-5
13260,-1144,-616,1136,-34,12,-4
13265,-1136,-608,1136,-32,13,-4
13270,-1128,-640,1176,-32,11,-3
13275,-1120,-608,1136,-32,13,-4
13280,-1112,-608,1168,-34,14,-5
13285,-1136,-616,1160,-33,13,-4
13290,-1144,-608,1136,-33,13,-4
13295,-1112,-608,1144,-35,14,-6
13300,-1144,-600,1136,-37,14,-6
13305,-1120,-600,1160,-39,14,-7
13310,-1136,-608,1144,-39,16,-7
13315,-1136,-600,1088,-40,15,-8
13320,-1120,-632,1136,-41,15,-8
13325,-1136,-616,1136,-42,15,-9
13330,-1152,-600,1128,-42,15,-8
13335,-1120,-600,1144,-43,15,-9
13340,-1136,-624,1152,-44,14,-9
13345,-1168,-600,1152,-44,14,-9
13350,-1152,-600,1152,-42,14,-8
13355,-1120,-608,1136,-44,13,-8
13360,-1136,-592,1120,-43,12,-8
13365,-1128,-608,1152,-46,13,-7
13370,-1144,-616,1144,-45,12,-8
13375,-1136,-608,1136,-46,13,-9
13380,-1120,-616,1128,-46,14,-7
13385,-1136,-616,1120,-46,14,-8
13390,-1128,-608,1160,-45,16,-8
13395,-1128,-616,1152,-47,16,-8
13400,-1128,-608,1160,-48,16,-7
13405,-1136,-616,1128,-48,16,-7
13410,-1128,-600,1120,-48,16,-7
13415,-1128,-608,1128,-48,15,-7
13420,-1152,-592,1136,-47,13,-6
13425,-1128,-608,1128,-48,12,-6
13430,-1136,-616,1136,-48,13,-4
13435,-1112,-616,1128,-49,13,-4
13440,-1128,-616,1144,-49,12,-5
13445,-1112,-616,1160,-48,13,-5
13450,-1128,-632,1136,-46,13,-4
13455,-1136,-632,1120,-46,12,-5
13460,-1152,-600,1096,-46,13,-4
13465,-1160,-608,1160,-46,12,-4
13470,-1136,-632,1136,-46,12,-5
13475,-1104,-616,1168,-46,11,-4
13480,-1136,-600,1136,-46,11,-5
13485,-1120,-608,1120,-45,13,-4
13490,-1120,-616,1128,-46,13,-4
13495,-1120,-608,1112,-45,12,-5
13500,-1120,-624,1136,-43,11,-6
13505,-1152,-616,1128,-43,12,-6
13510,-1128,-624,1128,-42,11,-6
13515,-1112,-616,1168,-39,12,-6
13520,-1112,-600,1160,-40,11,-6
13525,-1144,-640,1144,-39,11,-6
13530,-1128,-608,1144,-40,12,-5
13535,-1152,-608,1136,-39,10,-5
13540,-1120,-600,1152,-40,11,-5
13545,-1136,-584,1120,-41,11,-4
13550,-1144,-608,1160,-40,11,-5
13555,-1112,-616,1160,-42,11,-6
13560,-1136,-624,1144,-43,11,-4
13565,-1128,-608,1152,-43,10,-4
13570,-1144,-608,1144,-44,10,-5
13575,-1144,-608,1160,-45,11,-5
13580,-1144,-584,1144,-48,11,-5
13585,-1120,-632,1136,-48,10,-5
13590,-1112,-600,1144,-47,12,-4
13595,-1120,-616,1160,-48,12,-4
13600,-1152,-608,1152,-49,12,-5
13605,-1136,-616,1128,-49,12,-6
13610,-1128,-624,1144,-49,12,-7
13615,-1120,-608,1176,-50,13,-6
13620,-1136,-600,1144,-50,13,-5
13625,-1128,-632,1160,-49,14,-5
13630,-1096,-640,1136,-49,15,-7
13635,-1128,-624,1104,-48,15,-6
13640,-1112,-632,1144,-48,14,-6
13645,-1136,-600,1128,-47,14,-5
13650,-1144,-616,1152,-45,14,-5
13655,-1144,-616,1168,-47,14,-5
13660,-1128,-608,1128,-47,15,-5
13665,-1128,-616,1128,-47,15,-6
13670,-1120,-608,1160,-45,15,-6
13675,-1008,-728,1232,-46,15,-6
13680,-1136,-592,1152,-45,15,-7
13685,-1120,-616,1136,-45,15,-6
13690,-1128,-616,1152,-46,15,-6
13695,-1136,-608,1152,-47,14,-7
13700,-1112,-600,1144,-47,15,-6
13705,-1128,-608,1144,-48,15,-6
13710,-1112,-616,1120,-47,14,-7
13715,-1136,-608,1168,-48,13,-5
13720,-1112,-632,1104,-47,14,-5
13725,-1120,-616,1160,-47,15,-5
13730,-1040,-576,1096,-46,15,-5
13735,-1120,-608,1152,-48,14,-4
13740,-1120,-600,1152,-50,14,-5
13745,-1128,-624,1160,-49,13,-5
13750,-1104,-624,1128,-49,13,-4
13755,-1152,-624,1152,-50,14,-4
13760,-1136,-624,1160,-50,13,-3
13765,-1128,-624,1112,-49,14,-5
13770,-1104,-608,1128,-50,14,-4
13775,-1128,-600,1152,-50,14,-2
13780,-1128,-632,1160,-52,14,-3
13785,-1104,-552,1056,-50,14,-3
13790,-1144,-608,1152,-50,13,-4
13795,-1128,-608,1136,-50,14,-2
13800,-1120,-616,1152,-49,14,-2
13805,-1160,-608,1176,-49,14,-2
13810,-1136,-600,1184,-49,14,-3
13815,-1128,-640,1112,-48,15,-5
13820,-1120,-616,1144,-48,15,-3
13825,-1136,-608,1144,-51,14,-3
13830,-1136,-600,1144,-48,14,-3
13835,-1128,-608,1128,-48,15,-2
13840,-1136,-608,1160,-49,13,-3
13845,-1128,-600,1152,-50,14,-2
13850,-1136,-608,1120,-49,15,-3
13855,-1128,-584,1152,-49,15,-3
13860,-1112,-616,1104,-49,15,-3
13865,-1136,-616,1152,-50,14,-4
13870,-1128,-600,1176,-50,15,-5
13875,-1136,-624,1136,-51,17,-4
13880,-1136,-592,1144,-50,16,-3
13885,-1120,-608,1136,-50,16,-4
13890,-1128,-608,1136,-50,18,-4
13895,-1120,-608,1152,-50,16,-2
13900,-1112,-624,1152,-51,16,-2
13905,-1128,-624,1168,-51,15,-2
13910,-1128,-576,1144,-50,16,-2
13915,-1152,-584,1136,-51,16,-3
13920,-1128,-600,1112,-53,17,-4
13925,-1144,-608,1128,-53,16,-2
13930,-1120,-640,1160,-53,16,-2
13935,-1168,-608,1128,-53,16,-2
13940,-1112,-632,1136,-54,17,-2
13945,-1136,-592,1144,-51,17,-2
13950,-1144,-600,1152,-53,17,-3
13955,-1128,-600,1128,-52,17,-2
13960,-1144,-608,1120,-52,17,-1
13965,-1144,-600,1184,-51,17,-2
13970,-1136,-616,1104,-53,17,-1
13975,-1120,-616,1160,-52,17,-2
13980,-1128,-616,1144,-52,17,-2
13985,-1136,-624,1128,-54,17,-2
13990,-1120,-600,1160,-53,17,0
13995,-1144,-624,1144,-53,16,-2
14000,-1136,-584,1120,-53,16,-2
14005,-1120,-592,1136,-55,18,-2
14010,-1128,-616,1104,-55,18,-2
14015,-1152,-624,1152,-56,18,-3
14020,-1136,-640,1136,-57,16,0
14025,-1152,-584,1136,-57,17,-1
14030,-1120,-608,1112,-55,19,-1
14035,-1128,-640,1136,-54,18,1
14040,-1144,-616,1168,-54,17,0
14045,-1136,-624,1160,-54,18,-1
14050,-1128,-624,1152,-54,19,-1
14055,-1136,-608,1160,-54,18,0
14060,-1104,-624,1128,-54,19,0
14065,-1120,-600,1112,-56,19,-1
14070,-1128,-608,1120,-58,20,-1
14075,-1120,-632,1136,-60,21,-1
14080,-1168,-616,1136,-59,20,-1
14085,-1136,-624,1144,-56,19,0
14090,-1104,-632,1144,-56,20,2
14095,-1096,-632,1120,-57,19,1
14100,-1104,-632,1136,-58,21,1
14105,-1112,-624,1168,-60,20,1
14110,-1144,-624,1144,-61,20,1
14115,-1120,-624,1160,-61,19,1
14120,-1144,-600,1160,-59,20,-1
14125,-1128,-608,1120,-59,20,1
14130,-1128,-624,1160,-58,20,0
14135,-1128,-632,1168,-58,19,0
14140,-1112,-608,1176,-56,19,1
14145,-1120,-624,1120,-54,19,1
14150,-1120,-624,1144,-50,20,0
14155,-1120,-608,1144,-48,21,0
14160,-1136,-616,1112,-47,20,2
14165,-1128,-624,1152,-46,21,0
14170,-1096,-592,1104,-49,22,1
14175,-1128,-624,1136,-53,24,-1
14180,-1136,-624,1136,-54,24,-1
14185,-1136,-616,1160,-57,24,-1
14190,-1152,-608,1144,-57,24,1
14195,-1120,-616,1136,-59,24,3
14200,-1144,-648,1184,-57,26,4
14205,-1144,-640,1144,-58,28,4
14210,-1136,-624,1120,-56,28,5
14215,-1136,-640,1104,-55,29,3
14220,-1136,-632,1136,-53,30,3
14225,-1128,-640,1144,-51,30,3
14230,-1136,-616,1136,-49,28,3
14235,-1120,-640,1136,-50,29,5
14240,-1128,-624,1136,-49,26,6
14245,-1120,-624,1144,-46,25,7
14250,-1112,-616,1152,-45,22,8
14255,-1128,-600,1136,-43,22,6
14260,-1136,-600,1144,-43,21,7
14265,-1120,-608,1160,-45,21,7
14270,-1112,-608,1168,-48,20,6
14275,-1120,-640,1152,-49,22,5
14280,-1120,-616,1192,-49,23,5
14285,-1128,-608,1160,-49,23,5
14290,-1120,-624,1120,-52,23,4
14295,-1120,-608,1128,-52,25,4
14300,-1144,-592,1152,-54,26,3
14305,-1144,-592,1120,-55,26,2
14310,-1136,-608,1144,-54,25,2
14315,-1128,-600,1152,-55,25,1
14320,-1112,-616,1152,-55,26,1
14325,-1128,-624,1136,-57,25,0
14330,-1104,-608,1160,-56,24,0
14335,-1144,-616,1144,-55,21,-1
14340,-1144,-600,1136,-55,22,1
14345,-1136,-616,1152,-58,22,1
14350,-1136,-592,1160,-58,23,2
14355,-1128,-616,1152,-60,23,2
14360,-1160,-624,1152,-59,23,2
14365,-1128,-608,1128,-58,25,2
14370,-1144,-632,1152,-59,24,2
14375,-1144,-616,1136,-60,24,0
14380,-1152,-608,1136,-59,25,2
14385,-1136,-624,1136,-60,24,2
14390,-1136,-640,1120,-59,24,2
14395,-1128,-632,1152,-57,24,2
14400,-1128,-616,1128,-56,24,2
14405,-1152,-616,1144,-57,25,1
14410,-1136,-624,1120,-56,26,1
14415,-1136,-632,1136,-56,26,0
14420,-1144,-640,1120,-57,25,2
14425,-1144,-632,1152,-57,23,2
14430,-1136,-632,1144,-57,22,5
14435,-1144,-624,1152,-55,21,5
14440,-1144,-608,1120,-53,20,4
14445,-1128,-640,1152,-52,22,5
14450,-1096,-624,1112,-54,23,4
14455,-1136,-632,1168,-54,25,4
14460,-1136,-616,1128,-54,24,5
14465,-1152,-616,1120,-53,24,5
14470,-1144,-608,1128,-52,25,5
14475,-1136,-624,1168,-50,23,5
14480,-1128,-632,1144,-50,23,4
14485,-1168,-624,1104,-49,24,4
14490,-1160,-608,1088,-47,26,4
14495,-1152,-584,1144,-48,25,4
14500,-1136,-616,1136,-47,24,3
14505,-1128,-632,1128,-48,26,4
14510,-1120,-632,1128,-50,28,6
14515,-1136,-616,1120,-49,27,5
14520,-1136,-616,1136,-50,27,6
14525,-1136,-632,1144,-50,26,5
14530,-1152,-624,1136,-48,26,5
14535,-1152,-616,1144,-46,25,6
14540,-1128,-624,1144,-44,24,5
14545,-1144,-616,1144,-43,24,5
14550,-1144,-584,1120,-43,24,5
14555,-1144,-624,1144,-46,23,6
14560,-1144,-600,1112,-46,21,5
14565,-1152,-616,1120,-47,22,5
14570,-1128,-616,1128,-49,21,5
14575,-1136,-616,1128,-49,22,5
14580,-1152,-608,1128,-49,23,4
14585,-1104,-640,1136,-49,24,4
14590,-1144,-600,1128,-47,24,3
14595,-1128,-640,1152,-47,24,3
14600,-1152,-608,1128,-47,25,2
14605,-1152,-624,1104,-47,25,2
14610,-1136,-632,1128,-50,25,4
14615,-1128,-616,1112,-48,26,2
14620,-1152,-624,1144,-47,25,2
14625,-1128,-632,1112,-48,25,1
14630,-1192,-600,1144,-48,24,2
14635,-1136,-624,1136,-48,26,1
14640,-1112,-608,1128,-48,25,2
14645,-1136,-632,1144,-48,25,2
14650,-1120,-648,1128,-48,25,2
14655,-1104,-528,1040,-48,24,0
14660,-1160,-640,1152,-50,25,0
14665,-1136,-616,1112,-49,23,1
14670,-1160,-632,1128,-48,24,2
14675,-1152,-632,1144,-47,23,0
14680,-1128,-648,1096,-46,24,-1
14685,-1128,-624,1144,-46,25,0
14690,-1136,-616,1096,-45,24,0
14695,-1128,-624,1152,-46,25,1
14700,-1120,-600,1120,-47,25,1
14705,-1176,-600,1136,-48,23,2
14710,-1184,-560,1016,-51,23,-1
14715,-1152,-616,1104,-48,24,1
14720,-1160,-632,1144,-47,24,0
14725,-1144,-608,1152,-45,25,0
14730,-1136,-616,1160,-45,25,-1
14735,-1136,-624,1160,-47,25,0
14740,-1120,-632,1128,-47,23,1
14745,-1152,-624,1152,-46,22,1
14750,-1144,-624,1144,-47,24,0
14755,-1144,-600,1112,-48,25,0
14760,-1144,-624,1136,-49,25,1
14765,-1152,-656,1080,-48,25,1
14770,-1160,-608,1120,-50,25,1
14775,-1144,-656,1144,-49,24,1
14780,-1152,-624,1128,-48,25,1
14785,-1144,-616,1128,-47,25,1
14790,-1160,-624,1160,-46,26,2
14795,-1136,-632,1144,-45,24,1
14800,-1144,-616,1128,-45,23,1
14805,-1120,-624,1128,-44,23,2
14810,-1136,-616,1144,-44,24,2
14815,-1152,-608,1128,-43,23,0
14820,-1152,-600,1152,-43,24,1
14825,-1136,-616,1160,-44,23,-1
14830,-1152,-592,1120,-44,23,-1
14835,-1144,-632,1112,-44,21,1
14840,-1136,-600,1168,-44,21,0
14845,-1168,-608,1104,-41,21,-2
14850,-1152,-576,1128,-42,20,-2
14855,-1136,-616,1144,-44,21,0
14860,-1120,-608,1136,-42,20,-1
14865,-1144,-624,1136,-42,21,-2
14870,-1128,-632,1128,-43,21,-2
14875,-1136,-624,1088,-43,19,-1
14880,-1144,-592,1136,-43,19,-3
14885,-1152,-600,1112,-44,19,-3
14890,-1120,-600,1128,-44,18,-4
14895,-1144,-600,1144,-43,17,-3
14900,-1144,-584,1120,-43,16,-4
14905,-1152,-600,1112,-44,17,-4
14910,-1160,-600,1104,-45,16,-5
14915,-1144,-608,1112,-46,16,-6
14920,-1128,-608,1160,-45,15,-4
14925,-1152,-624,1112,-45,15,-6
14930,-1160,-600,1136,-45,16,-6
14935,-1144,-624,1144,-45,15,-6
14940,-1128,-640,1120,-45,15,-6
14945,-1144,-624,1152,-45,16,-5
14950,-1152,-656,1120,-44,16,-4
14955,-1144,-624,1128,-45,17,-5
14960,-1120,-624,1136,-43,13,-6
14965,-1128,-648,1136,-42,13,-7
14970,-1136,-576,1136,-43,15,-7
14975,-1136,-616,1104,-43,15,-8
14980,-1152,-600,1120,-43,14,-6
14985,-1144,-608,1096,-44,15,-6
14990,-1128,-616,1144,-47,14,-5
14995,-1136,-632,1128,-47,14,-5
