timestamp,accel_x,accel_y,accel_z,gyro_x,gyro_y,gyro_z
0,-96,-2064,432,-14,72,-7
5,-80,-2056,456,-14,72,-6
10,-72,-2088,480,-15,70,-7
15,-88,-2096,464,-14,71,-7
20,-80,-2072,440,-13,70,-6
25,-48,-1976,424,-13,70,-5
30,-56,-2080,440,-13,68,-5
35,-64,-2088,472,-13,68,-4
40,-88,-2088,440,-13,67,-4
45,-112,-2064,456,-14,67,-4
50,-64,-2096,464,-14,67,-4
55,-72,-2080,456,-14,66,-4
60,-72,-2088,448,-15,67,-4
65,-72,-2056,432,-15,68,-7
70,-64,-2088,440,-18,68,-5
75,-40,-2064,464,-20,69,-7
80,-88,-2072,448,-19,68,-7
85,-96,-2064,424,-20,67,-6
90,-72,-2056,464,-22,66,-7
95,-80,-2080,464,-21,65,-8
100,-56,-2096,456,-19,64,-9
105,-72,-2064,408,-20,64,-9
110,-64,-2088,456,-19,64,-8
115,-80,-2088,480,-18,64,-8
120,-80,-2104,432,-17,63,-8
125,-96,-2064,440,-17,65,-8
130,-64,-2096,448,-17,64,-8
135,-96,-2064,456,-16,66,-7
140,-56,-2096,424,-14,66,-6
145,-80,-2112,440,-14,65,-6
150,-72,-2064,432,-13,66,-7
155,-72,-2104,464,-13,66,-7
160,-80,-2096,448,-14,66,-7
165,-72,-2080,416,-16,67,-6
170,-64,-2064,448,-16,67,-5
175,-80,-2064,464,-17,65,-6
180,-96,-2056,456,-17,66,-7
185,-72,-2080,448,-18,66,-6
190,-72,-2080,416,-18,65,-3
195,-80,-2072,456,-20,67,-5
200,-80,-2080,448,-20,65,-2
205,-64,-2080,456,-20,66,-4
210,-64,-2088,440,-21,64,-4
215,-80,-2080,424,-24,65,-4
220,-72,-2104,456,-24,65,-2
225,-64,-2088,416,-23,64,-3
230,-64,-2096,472,-25,64,-3
235,-80,-2072,440,-24,65,-3
240,-80,-2088,448,-22,64,-3
245,-88,-2088,448,-20,64,-4
250,-72,-2088,424,-20,64,-3
255,-72,-2088,440,-19,65,-3
260,-56,-2088,448,-20,66,-4
265,-40,-2104,408,-19,67,-3
270,-48,-2096,440,-19,66,-5
275,-56,-2080,440,-18,65,-5
280,-64,-2080,480,-20,66,-3
285,-96,-2072,400,-18,67,-4
290,-64,-2096,448,-18,67,-3
295,-64,-2080,432,-19,69,-2
300,-56,-2088,432,-17,69,-1
305,-56,-2096,408,-19,69,-2
310,-104,-2080,448,-19,69,-2
315,-80,-2088,432,-18,68,-1
320,-64,-2096,400,-18,69,-2
325,-72,-2080,440,-19,68,-1
330,-64,-2080,440,-19,68,-1
335,-64,-2088,464,-18,68,-1
340,-80,-2080,440,-19,68,-1
345,-72,-2096,424,-18,67,1
350,-72,-2072,432,-17,69,0
355,-64,-2096,432,-18,68,2
360,-80,-2080,424,-18,69,1
365,-72,-2096,448,-19,70,3
370,-64,-2096,448,-19,70,4
375,-48,-2064,408,-17,71,4
380,-72,-2080,424,-18,70,4
385,-56,-2096,448,-18,71,4
390,-56,-2096,432,-18,71,3
395,-96,-2080,400,-18,71,3
400,-72,-2080,432,-17,70,3
405,-64,-2096,416,-15,70,4
410,-104,-2072,440,-13,69,5
415,-64,-2096,416,-13,69,4
420,-96,-2080,440,-12,70,2
425,-64,-2088,456,-11,69,2
430,-48,-2096,416,-11,70,2
435,-80,-2096,424,-10,71,3
440,-88,-2072,448,-11,70,3
445,-88,-2080,456,-10,72,3
450,-88,-2064,448,-11,71,2
455,-80,-2064,448,-12,70,4
460,-88,-2064,440,-12,72,4
465,-96,-2064,464,-12,70,4
470,-72,-2072,416,-14,71,4
475,-56,-2088,448,-14,70,6
480,-72,-2080,448,-16,71,6
485,-80,-2088,440,-18,70,6
490,-64,-2072,440,-18,71,6
495,-88,-2096,464,-18,71,6
500,-88,-2072,456,-19,71,7
505,-80,-2096,472,-18,71,5
510,-64,-2088,448,-18,70,6
515,-104,-2088,456,-17,71,7
520,-80,-2112,432,-13,69,7
525,-80,-2120,448,-11,70,6
530,-64,-2104,440,-9,70,7
535,-80,-2088,448,-6,71,5
540,-72,-2096,416,-5,70,5
545,-72,-2104,456,-4,69,5
550,-72,-2072,472,-4,69,4
555,-72,-2064,408,-5,70,6
560,-72,-2072,448,-6,69,5
565,-80,-2072,424,-6,71,6
570,-72,-2088,464,-6,71,6
575,-64,-2088,432,-4,71,6
580,-96,-2088,464,-4,72,7
585,-64,-2096,432,-3,72,6
590,-80,-2096,440,-3,70,7
595,-72,-2088,416,-4,70,8
600,-72,-2080,432,-5,69,9
605,-72,-2088,416,-6,71,8
610,-56,-2072,408,-5,69,10
615,-88,-2080,456,-4,71,10
620,-88,-2080,416,-4,71,11
625,-80,-2080,408,-3,72,11
630,-72,-2096,384,-4,72,9
635,-80,-2072,408,-5,73,9
640,-96,-2072,448,-7,71,9
645,-72,-2072,432,-10,72,8
650,-80,-2080,408,-12,72,8
655,-88,-2088,448,-13,73,8
660,-80,-2096,448,-13,74,6
665,-88,-2088,448,-13,73,5
670,-80,-2104,432,-10,73,4
675,-72,-2080,440,-9,72,6
680,-96,-2088,432,-7,73,6
685,-88,-2088,440,-6,74,7
690,-80,-2072,464,-4,74,8
695,-88,-2104,440,-3,76,8
700,-96,-2072,456,-3,74,9
705,-88,-2088,440,-1,74,8
710,-96,-2072,464,0,74,9
715,-128,-2144,448,0,73,9
720,-72,-2088,440,0,72,9
725,-80,-2072,456,-1,71,9
730,-96,-2072,448,0,71,9
735,-104,-2088,456,-2,70,9
740,-56,-2072,448,-3,69,12
745,-80,-2080,456,-3,70,11
750,-104,-2064,432,-4,69,11
755,-96,-2096,448,-2,68,11
760,-80,-2088,448,-3,68,11
765,-48,-2088,440,-3,67,12
770,-96,-2088,424,-3,67,11
775,-88,-2088,432,-3,68,10
780,-88,-2080,456,-2,68,10
785,-96,-2056,416,-5,67,10
790,-72,-2072,448,-8,66,10
795,-72,-2072,448,-7,67,10
800,-72,-2088,448,-8,66,10
805,-88,-2072,448,-10,65,8
810,-64,-2064,448,-12,65,8
815,-88,-2072,440,-13,64,8
820,-72,-2080,456,-15,64,5
825,-104,-2064,416,-16,65,3
830,-80,-2088,464,-17,64,2
835,-96,-2088,440,-17,64,0
840,-88,-2104,456,-18,65,0
845,-104,-2088,472,-19,64,-1
850,-120,-2080,432,-18,65,0
855,-88,-2088,472,-15,66,-1
860,-88,-2088,416,-15,67,-3
865,-88,-2088,448,-12,67,-1
870,-96,-2080,464,-12,67,0
875,-72,-2088,456,-11,69,0
880,-64,-2088,440,-10,68,-1
885,-72,-2080,440,-9,71,0
890,-88,-2072,472,-9,72,1
895,-88,-2072,448,-10,73,0
900,-96,-2088,472,-9,72,0
905,-104,-2080,448,-10,71,-1
910,-80,-2080,456,-11,71,0
915,-96,-2072,464,-12,72,-1
920,-80,-2072,416,-13,70,-1
925,-80,-2072,464,-13,71,1
930,-136,-2088,408,-16,70,1
935,-72,-2088,456,-16,70,0
940,-96,-2064,424,-15,71,0
945,-72,-2096,440,-15,70,2
950,-96,-2088,448,-17,70,2
955,-88,-2080,456,-18,71,0
960,-72,-2096,416,-17,71,0
965,-96,-2088,432,-16,71,0
970,-96,-2080,480,-15,71,-1
975,-72,-2088,456,-13,71,0
980,-80,-2096,448,-14,69,0
985,-112,-2096,464,-15,69,-1
990,-96,-2080,456,-13,70,-2
995,-72,-2104,464,-11,70,-2
1000,-96,-2088,440,-11,69,-1
1005,-80,-2088,448,-11,69,0
1010,-88,-2080,424,-11,69,0
1015,-104,-2128,432,-12,70,3
1020,-80,-2088,456,-13,69,2
1025,-96,-2064,440,-13,70,3
1030,-96,-2088,448,-12,68,4
1035,-112,-2104,408,-13,68,5
1040,-80,-2088,448,-12,68,5
1045,-104,-2072,448,-12,67,5
1050,-56,-2080,456,-12,66,4
1055,-72,-2096,440,-13,66,4
1060,-88,-2080,432,-13,67,4
1065,-80,-2072,432,-14,65,3
1070,-96,-2088,440,-14,66,2
1075,-80,-2072,440,-16,64,1
1080,-96,-2088,432,-16,64,1
1085,-80,-2088,400,-16,64,1
1090,-104,-2088,432,-18,65,0
1095,-80,-2088,448,-18,67,0
1100,-88,-2088,440,-18,68,-1
1105,-80,-2072,472,-17,69,0
1110,-64,-2072,432,-16,71,-1
1115,-96,-2080,472,-15,72,0
1120,-80,-2088,424,-14,71,0
1125,-104,-2080,432,-14,71,-1
1130,-72,-2104,448,-12,71,0
1135,-88,-2080,448,-12,69,0
1140,-72,-2088,440,-12,69,0
1145,-72,-2080,416,-12,69,1
1150,-88,-2072,448,-13,69,-1
1155,-96,-2104,416,-12,68,-1
1160,-80,-2064,456,-13,67,-1
1165,-80,-2080,432,-12,67,-2
1170,-96,-2080,456,-12,67,-1
1175,-80,-2096,424,-13,67,-3
1180,-96,-2088,448,-13,68,-2
1185,-96,-2080,432,-13,67,-1
1190,-104,-2080,424,-13,67,0
1195,-88,-2064,464,-14,67,-2
1200,-80,-2088,448,-14,67,-2
1205,-96,-2096,456,-14,69,-2
1210,-56,-2088,432,-13,70,-2
1215,-72,-2080,440,-11,70,-2
1220,-104,-2056,440,-12,71,-1
1225,-88,-2088,440,-11,72,-1
1230,-72,-2104,416,-11,71,-2
1235,-72,-2088,440,-10,71,0
1240,-88,-2080,448,-10,71,2
1245,-72,-2104,440,-9,71,1
1250,-56,-2104,480,-9,70,2
1255,-72,-2064,464,-8,69,0
1260,-88,-2096,440,-7,68,0
1265,-104,-2096,424,-6,67,1
1270,-112,-2088,448,-5,68,-1
1275,-80,-2104,456,-5,67,-3
1280,-96,-2072,432,-8,68,-4
1285,-72,-2088,408,-10,69,-4
1290,-88,-2096,416,-10,67,-5
1295,-104,-2064,440,-11,69,-7
1300,-64,-2096,432,-10,70,-6
1305,-88,-2080,448,-9,70,-5
1310,-80,-2080,424,-6,70,-3
1315,-80,-2112,448,-3,70,-4
1320,-72,-2096,424,0,69,-3
1325,-80,-2096,448,0,68,-2
1330,-72,-2080,448,0,69,1
1335,-104,-2096,424,0,69,2
1340,-80,-2096,432,2,68,5
1345,-112,-2088,424,2,69,5
1350,-72,-2088,408,4,69,5
1355,-120,-2144,384,4,69,5
1360,-88,-2072,416,4,69,6
1365,-80,-2080,416,2,70,5
1370,-120,-2048,456,0,70,4
1375,-104,-2072,416,-4,71,4
1380,-104,-2080,432,-8,71,2
1385,-88,-2072,432,-11,70,1
1390,-96,-2080,448,-12,69,0
1395,-96,-2064,440,-14,68,0
1400,-88,-2088,464,-14,70,2
1405,-88,-2104,456,-12,69,2
1410,-88,-2080,456,-10,69,3
1415,-88,-2088,416,-9,70,3
1420,-72,-2112,440,-7,70,2
1425,-96,-2064,472,-5,70,2
1430,-80,-2080,440,-4,72,2
1435,-96,-2072,464,-2,73,1
1440,-104,-2072,456,-2,71,1
1445,-96,-2080,472,-2,70,0
1450,-88,-2088,440,-2,71,-1
1455,-88,-2080,440,-1,72,-1
1460,-96,-2072,480,-3,69,-1
1465,-80,-2088,520,-4,68,-2
1470,-104,-2088,408,-5,69,-3
1475,-80,-2096,448,-4,68,-4
1480,-112,-2048,432,-4,67,-2
1485,-88,-2088,448,-3,67,-3
1490,-112,-2088,456,-3,67,-2
1495,-112,-2088,448,-3,68,-3
1500,-112,-2072,448,-3,67,-1
1505,-96,-2088,440,-4,70,-1
1510,-64,-2088,440,-3,69,-1
1515,-80,-2088,440,-3,70,0
1520,-96,-2088,440,-4,70,1
1525,-96,-2064,440,-6,71,2
1530,-96,-2080,448,-6,71,3
1535,-64,-2096,432,-6,71,3
1540,-80,-2080,464,-8,71,3
1545,-80,-2072,448,-9,70,2
1550,-80,-2120,456,-9,69,2
1555,-104,-2080,448,-10,69,1
1560,-80,-2080,432,-10,68,0
1565,-88,-2088,440,-11,68,-1
1570,-104,-2048,472,-9,68,-2
1575,-104,-2088,432,-7,69,-2
1580,-88,-2064,424,-7,69,-2
1585,-88,-2072,448,-5,70,-2
1590,-88,-2104,432,-4,70,-3
1595,-88,-2088,440,-4,70,-1
1600,-104,-2064,440,-3,70,-1
1605,-104,-2088,464,-2,70,-1
1610,-80,-2080,464,-2,72,-2
1615,-80,-2080,480,-2,71,-1
1620,-88,-2104,456,-4,70,-2
1625,-104,-2088,448,-4,71,-3
1630,-72,-2096,424,-5,70,-3
1635,-112,-2064,432,-6,69,-4
1640,-104,-2088,464,-8,69,-5
1645,-104,-2064,424,-8,68,-6
1650,-80,-2064,456,-9,69,-6
1655,-112,-2072,472,-9,67,-5
1660,-104,-2080,448,-9,69,-4
1665,-88,-2112,440,-10,68,-5
1670,-88,-2096,448,-10,68,-4
1675,-112,-2056,496,-11,68,-5
1680,-104,-2064,448,-11,69,-3
1685,-96,-2080,440,-12,68,-3
1690,-104,-2080,448,-11,69,-1
1695,-96,-2080,456,-12,71,-2
1700,-96,-2080,448,-9,71,0
1705,-88,-2072,448,-8,69,-1
1710,-72,-2080,432,-8,70,-1
1715,-80,-2072,440,-9,68,0
1720,-96,-2080,448,-10,70,-2
1725,-96,-2088,432,-10,70,-2
1730,-80,-2104,456,-11,69,-3
1735,-96,-2088,424,-11,68,-4
1740,-96,-2072,448,-11,69,-5
1745,-80,-2096,440,-12,70,-4
1750,-96,-2096,488,-9,69,-4
1755,-80,-2096,480,-10,68,-3
1760,-88,-2080,440,-10,67,-4
1765,-104,-2088,432,-11,67,-3
1770,-88,-2096,440,-12,69,-2
1775,-80,-2104,416,-12,69,1
1780,-80,-2120,432,-11,68,1
1785,-80,-2040,456,-13,66,1
1790,-104,-2152,344,-12,67,2
1795,-96,-2088,584,-11,67,3
1800,-120,-2064,440,-11,66,0
1805,-112,-2032,448,-12,65,1
1810,-104,-2112,416,-12,64,1
1815,-88,-2104,400,-11,63,-1
1820,-104,-2064,440,-9,64,0
1825,-96,-2104,440,-10,65,-1
1830,-168,-2144,448,-11,65,-1
1835,-96,-2112,480,-12,65,-2
1840,-80,-2056,456,-14,66,-3
1845,-104,-2088,464,-14,66,-1
1850,-88,-2064,432,-14,68,-2
1855,-72,-2056,416,-13,70,-4
1860,-88,-2072,360,-13,71,-4
1865,-96,-2104,480,-13,70,-3
1870,-168,-2080,528,-12,70,-4
1875,-72,-1960,448,-14,69,-3
1880,-64,-2104,408,-13,71,-4
1885,-40,-2088,480,-14,72,-4
1890,-104,-2008,472,-15,71,-3
1895,-112,-2088,448,-15,70,-3
1900,-80,-2112,448,-16,70,-2
1905,-104,-2096,496,-18,70,-2
1910,-80,-2088,456,-16,70,-2
1915,-88,-2088,464,-16,69,-2
1920,-104,-2088,472,-17,70,-3
1925,-80,-2096,456,-15,69,-2
1930,-104,-2064,504,-12,68,-1
1935,-40,-2072,464,-12,67,-2
1940,-96,-2072,416,-10,68,-3
1945,-80,-2208,432,-9,68,-2
1950,-96,-2104,280,-9,69,-1
1955,-56,-2136,400,-8,71,-2
1960,-120,-2072,424,-8,70,-1
1965,-72,-2112,448,-9,70,-1
1970,-128,-2048,456,-10,71,0
1975,-40,-2104,440,-9,73,-1
1980,-64,-2048,440,-10,73,0
1985,-80,-2064,488,-10,73,0
1990,-88,-2056,472,-11,73,-1
1995,-104,-2080,424,-11,72,0
2000,-80,-2064,472,-12,72,-1
2005,-112,-2080,456,-12,71,-1
2010,-80,-2088,488,-11,70,-1
2015,-64,-2088,464,-11,67,-1
2020,-136,-2032,392,-11,69,0
2025,-112,-2080,440,-10,67,0
2030,-120,-2048,416,-8,66,1
2035,-80,-2032,384,-7,66,0
2040,-48,-2112,456,-7,65,-2
2045,-96,-2088,456,-8,65,-5
2050,-104,-2096,448,-7,65,-6
2055,-96,-2112,512,-7,66,-7
2060,-72,-2152,424,-6,66,-7
2065,-88,-2088,392,-5,68,-6
2070,-80,-2088,448,-4,69,-5
2075,-104,-2096,464,-2,71,-5
2080,-96,-2072,424,-1,70,-2
2085,-80,-2128,464,0,69,-1
2090,-136,-2088,312,1,68,2
2095,-104,-2120,456,1,67,3
2100,-80,-2096,456,0,68,4
2105,-88,-2128,440,-1,67,6
2110,-104,-2096,472,-3,68,5
2115,-136,-2120,440,-1,66,7
2120,-88,-2112,384,-1,67,5
2125,-96,-2096,440,-1,68,5
2130,-120,-2080,416,-1,68,3
2135,-160,-2072,472,-4,68,3
2140,-40,-2048,528,-6,69,1
2145,-88,-2064,432,-9,69,2
2150,-80,-2072,432,-11,70,0
2155,-104,-2088,472,-13,70,0
2160,-96,-2080,448,-15,68,1
2165,-112,-2128,440,-15,68,2
2170,-80,-2064,424,-15,67,3
2175,-104,-2072,456,-16,67,4
2180,-40,-2104,480,-16,66,3
2185,-136,-2056,352,-16,67,2
2190,-128,-2096,464,-14,69,1
2195,-112,-2112,472,-13,67,0
2200,-96,-2088,368,-12,68,0
2205,-48,-2152,528,-11,65,0
2210,-40,-2152,344,-11,66,-1
2215,-56,-2136,424,-9,64,-2
2220,-104,-2088,432,-8,63,-4
2225,-80,-2080,432,-8,63,-3
2230,-72,-2064,448,-8,63,-3
2235,-136,-2088,552,-7,61,-2
2240,-64,-2112,512,-8,60,-4
2245,-144,-2080,512,-8,63,-4
2250,-64,-2080,480,-10,63,-2
2255,-104,-2056,416,-9,64,-2
2260,-96,-2064,432,-7,66,-1
2265,-88,-2088,368,-8,67,-2
2270,-144,-2088,440,-7,69,-1
2275,-80,-2072,440,-8,68,-1
2280,-80,-2088,424,-6,70,-1
2285,-88,-2088,440,-5,71,-3
2290,-88,-2072,424,-6,71,-3
2295,-112,-2232,472,-6,69,-3
2300,-72,-2064,448,-8,71,-4
2305,-112,-2080,448,-9,71,-4
2310,-80,-2064,456,-11,72,-6
2315,-96,-2072,440,-12,73,-4
2320,-8,-2144,448,-12,73,-5
2325,-88,-2072,448,-15,72,-6
2330,-72,-2104,464,-15,71,-6
2335,-80,-2088,464,-15,71,-5
2340,-96,-2072,456,-15,73,-5
2345,-112,-2104,456,-17,73,-5
2350,-80,-2088,488,-15,72,-3
2355,-64,-2104,456,-14,72,-2
2360,-88,-2080,448,-12,72,-4
2365,-80,-2056,400,-11,72,-4
2370,-96,-2096,464,-8,69,-3
2375,-80,-2120,448,-8,70,-3
2380,-96,-2080,464,-9,70,-3
2385,-72,-2096,456,-9,70,-3
2390,-56,-2056,400,-8,68,-3
2395,-96,-2072,456,-8,69,-4
2400,-104,-2072,464,-9,70,-3
2405,-104,-2080,464,-9,68,-3
2410,-80,-2080,448,-12,69,-4
2415,-136,-2072,456,-13,67,-3
2420,-104,-2056,424,-12,67,-4
2425,-104,-2088,456,-13,66,-3
2430,-96,-2080,456,-12,67,-3
2435,-96,-2080,464,-11,66,-2
2440,-88,-2064,432,-11,67,-2
2445,-80,-2072,448,-12,65,-3
2450,-120,-2080,448,-12,65,-2
2455,-80,-2072,456,-11,66,-1
2460,-120,-2080,472,-12,65,-1
2465,-88,-2096,408,-12,66,-1
2470,-104,-2072,440,-14,67,-2
2475,-88,-2080,448,-15,68,-2
2480,-72,-2080,456,-14,68,-1
2485,-64,-2104,424,-14,68,-3
2490,-96,-2072,448,-13,67,-3
2495,-88,-2080,440,-14,68,-2
2500,-72,-2072,448,-14,67,-4
2505,-88,-2072,424,-13,67,-5
2510,-80,-2072,432,-12,67,-5
2515,-96,-2072,440,-13,67,-6
2520,-96,-2072,456,-13,66,-7
2525,-104,-2096,472,-14,65,-6
2530,-56,-2120,480,-15,65,-6
2535,-112,-2080,456,-16,66,-5
2540,-104,-2064,448,-15,67,-7
2545,-104,-2064,440,-17,68,-6
2550,-96,-2096,440,-16,67,-5
2555,-104,-2104,464,-16,67,-4
2560,-104,-2104,456,-15,66,-5
2565,-80,-2096,472,-15,66,-6
2570,-88,-2080,488,-15,66,-4
2575,-104,-2056,440,-13,66,-4
2580,-88,-2096,456,-13,66,-5
2585,-96,-2096,448,-11,65,-6
2590,-80,-2072,448,-13,64,-7
2595,-96,-2096,456,-12,65,-7
2600,-96,-2088,464,-11,66,-8
2605,-88,-2096,472,-11,66,-9
2610,-80,-2080,440,-11,67,-8
2615,-88,-2072,464,-10,67,-8
2620,-72,-2096,416,-10,68,-8
2625,-96,-2064,448,-9,67,-8
2630,-96,-2072,448,-8,68,-8
2635,-128,-2128,480,-8,68,-9
2640,-88,-2080,432,-5,69,-7
2645,-72,-2104,416,-6,70,-8
2650,-80,-2096,448,-4,70,-11
2655,-88,-2104,456,-5,70,-12
2660,-64,-2080,440,-3,71,-11
2665,-88,-2088,440,-5,70,-13
2670,-80,-2088,472,-7,70,-12
2675,-80,-2064,496,-7,69,-12
2680,-80,-2096,456,-8,69,-14
2685,-112,-2080,440,-10,68,-14
2690,-72,-2104,472,-12,67,-11
2695,-96,-2088,448,-11,67,-12
2700,-88,-2072,456,-12,68,-11
2705,-104,-2072,448,-12,67,-10
2710,-56,-2088,432,-12,67,-11
2715,-96,-2056,448,-12,65,-10
2720,-88,-2088,464,-11,64,-9
2725,-104,-2080,456,-13,64,-10
2730,-72,-2080,448,-15,65,-10
2735,-80,-2080,440,-16,66,-11
2740,-80,-2096,448,-15,67,-11
2745,-80,-2112,568,-17,68,-11
2750,-96,-2080,448,-18,68,-11
2755,-80,-2080,448,-18,69,-11
2760,-88,-2088,440,-18,66,-10
2765,-80,-2072,440,-19,65,-9
2770,-112,-2072,472,-17,63,-8
2775,-88,-2088,440,-18,64,-8
2780,-104,-2064,464,-18,62,-5
2785,-88,-2088,440,-16,61,-7
2790,-96,-2080,448,-14,62,-9
2795,-72,-2072,432,-13,62,-7
2800,-88,-2112,456,-12,61,-9
2805,-104,-2072,448,-12,61,-9
2810,-80,-2080,432,-11,63,-9
2815,-88,-2088,488,-10,64,-9
2820,-88,-2096,416,-10,65,-7
2825,-104,-2072,448,-8,66,-8
2830,-88,-2080,456,-6,67,-8
2835,-80,-2080,448,-5,67,-7
2840,-80,-2104,448,-4,66,-6
2845,-96,-2064,464,-4,67,-6
2850,-56,-2088,464,-4,64,-6
2855,-72,-2096,448,-4,65,-5
2860,-80,-2096,480,-3,65,-5
2865,-88,-2088,440,-2,65,-3
2870,-88,-2088,432,0,64,-1
2875,-88,-2088,472,3,63,-2
2880,-80,-2080,456,3,65,-2
2885,-64,-2096,440,4,66,-3
2890,-88,-2112,464,4,67,-4
2895,-96,-2072,424,2,68,-6
2900,-64,-2088,440,0,68,-6
2905,-80,-2064,440,-3,69,-6
2910,-80,-2104,440,-3,69,-7
2915,-72,-2088,456,-4,70,-6
2920,-40,-2112,432,-2,70,-6
2925,-88,-2080,448,-1,71,-5
2930,-104,-2072,464,1,71,-5
2935,-80,-2064,464,4,72,-4
2940,-80,-2088,456,5,72,-3
2945,-72,-2072,472,5,73,-3
2950,-72,-2064,456,6,73,-2
2955,-96,-2024,424,8,73,-1
2960,-88,-2096,448,8,73,-3
2965,-64,-2080,456,7,73,-2
2970,-96,-2080,440,7,71,-2
2975,-96,-2064,448,6,71,-4
2980,-80,-2072,456,5,70,-3
2985,-80,-2072,448,4,69,-3
2990,-64,-2072,480,3,68,-6
2995,-96,-2064,456,1,68,-5
3000,-96,-2064,424,0,67,-5
3005,-80,-2072,432,-2,64,-5
3010,-72,-2088,432,-4,64,-5
3015,-104,-2056,456,-5,64,-3
3020,-88,-2088,440,-6,64,-3
3025,-88,-2080,432,-7,63,-3
3030,-96,-2088,440,-8,63,-3
3035,-104,-2064,448,-10,65,-4
3040,-80,-2104,464,-12,65,-3
3045,-104,-2072,464,-12,66,-3
3050,-88,-2080,448,-12,67,-3
3055,-64,-2096,432,-12,69,-3
3060,-120,-2096,424,-14,71,-2
3065,-88,-2120,456,-14,70,-3
3070,-96,-2080,456,-14,71,-2
3075,-104,-2088,448,-14,70,-2
3080,-88,-2096,440,-15,67,-4
3085,-88,-2104,432,-15,67,-3
3090,-88,-2088,464,-14,66,-4
3095,-88,-2104,456,-12,65,-3
3100,-104,-2080,472,-10,65,-3
3105,-96,-2088,424,-9,66,-4
3110,-96,-2088,448,-8,66,-4
3115,-104,-2096,432,-5,67,-3
3120,-88,-2096,432,-4,65,-4
3125,-88,-2088,456,-4,66,-4
3130,-112,-2096,424,-3,66,-3
3135,-96,-2088,456,-4,66,-3
3140,-80,-2104,456,-3,66,-2
3145,-96,-2080,464,-5,67,-2
3150,-96,-2088,464,-7,67,-2
3155,-104,-2064,464,-7,67,-2
3160,-80,-2088,456,-9,67,0
3165,-88,-2088,448,-10,66,1
3170,-80,-2080,464,-8,66,1
3175,-112,-2072,472,-9,66,0
3180,-88,-2080,440,-10,65,2
3185,-80,-2088,456,-12,64,3
3190,-96,-2064,448,-12,64,3
3195,-88,-2072,456,-14,65,3
3200,-96,-2072,448,-16,65,3
3205,-88,-2088,472,-17,65,3
3210,-72,-2088,464,-19,65,2
3215,-72,-2088,456,-21,66,3
3220,-72,-2104,464,-22,66,2
3225,-72,-2072,432,-22,66,2
3230,-96,-2072,464,-22,66,1
3235,-104,-2056,480,-24,66,1
3240,-112,-2088,448,-23,65,1
3245,-80,-2080,448,-24,64,1
3250,-96,-2072,424,-25,66,4
3255,-80,-2080,480,-26,65,5
3260,-120,-2072,424,-27,68,2
3265,-104,-2072,432,-25,66,3
3270,-88,-2088,416,-26,67,3
3275,-72,-2048,496,-25,66,4
3280,-80,-2088,456,-24,67,4
3285,-96,-2080,464,-22,66,4
3290,-88,-2096,432,-21,66,5
3295,-120,-2072,456,-20,66,6
3300,-80,-2080,440,-18,66,6
3305,-96,-2080,440,-18,67,8
3310,-80,-2104,472,-17,67,6
3315,-72,-2096,464,-16,66,6
3320,-80,-2088,440,-16,65,4
3325,-96,-2088,440,-15,65,5
3330,-80,-2088,464,-15,65,5
3335,-88,-2080,424,-15,65,5
3340,-88,-2088,400,-13,64,4
3345,-80,-2088,440,-11,66,4
3350,-96,-2096,456,-11,67,3
3355,-88,-2080,440,-11,67,2
3360,-96,-2072,464,-11,69,3
3365,-96,-2080,432,-10,69,3
3370,-88,-2080,464,-10,70,2
3375,-72,-2088,456,-10,68,3
3380,-72,-2104,448,-11,67,3
3385,-88,-2096,456,-11,69,4
3390,-104,-2072,464,-12,68,5
3395,-80,-2072,456,-12,68,2
3400,-88,-2088,464,-14,70,1
3405,-112,-2064,456,-13,70,0
3410,-48,-2088,440,-12,68,0
3415,-88,-2080,432,-13,69,0
3420,-72,-2088,464,-14,70,0
3425,-96,-2080,464,-15,70,-1
3430,-88,-2064,480,-16,71,-1
3435,-80,-2072,432,-15,70,1
3440,-96,-2104,440,-15,71,1
3445,-88,-2096,448,-14,73,2
3450,-72,-2088,440,-12,73,3
3455,-96,-2112,448,-11,72,4
3460,-96,-2080,464,-10,72,5
3465,-80,-2112,440,-7,71,4
3470,-96,-2096,456,-5,71,4
3475,-72,-2104,456,-1,70,5
3480,-88,-2104,448,2,70,6
3485,-96,-2080,456,2,70,5
3490,-96,-2136,496,2,69,5
3495,-96,-2080,456,3,70,4
3500,-112,-2064,456,1,70,4
3505,-88,-2072,456,0,70,5
3510,-96,-2072,440,-2,71,5
3515,-80,-2088,464,-2,72,4
3520,-80,-2080,440,-2,74,5
3525,-96,-2064,440,-1,74,8
3530,-80,-2080,448,0,73,6
3535,-104,-2088,464,1,71,6
3540,-104,-2088,448,0,72,8
3545,-96,-2080,464,0,72,7
3550,-88,-2112,456,-2,70,8
3555,-96,-2096,432,-3,69,8
3560,-88,-2104,440,-3,68,9
3565,-80,-2096,432,-2,68,8
3570,-88,-2088,448,-3,69,8
3575,-88,-2072,440,-4,68,8
3580,-104,-2072,456,-4,68,7
3585,-80,-2072,448,-6,70,8
3590,-96,-2080,456,-8,69,9
3595,-72,-2040,464,-11,69,9
3600,-96,-2088,448,-12,70,7
3605,-88,-2080,448,-13,70,7
3610,-96,-2072,448,-12,71,7
3615,-96,-2096,440,-10,71,6
3620,-104,-2104,456,-8,72,7
3625,-88,-2056,464,-6,71,6
3630,-120,-2080,448,-4,70,8
3635,-80,-2056,472,-3,70,8
3640,-88,-2088,448,-1,71,8
3645,-96,-2088,440,0,72,8
3650,-96,-2080,448,1,72,9
3655,-96,-2080,456,1,72,9
3660,-96,-2064,440,1,72,8
3665,-96,-2088,448,1,72,8
3670,-104,-2072,440,2,72,8
3675,-80,-2072,432,2,71,7
3680,-112,-2056,456,0,70,7
3685,-80,-2072,432,1,69,7
3690,-104,-2064,480,-1,71,5
3695,-96,-2056,456,0,71,5
3700,-104,-2064,456,-1,71,5
3705,-80,-2112,448,-4,71,5
3710,-104,-2072,464,-5,70,3
3715,-80,-2104,456,-4,71,6
3720,-88,-2072,448,-5,71,4
3725,-80,-2088,464,-6,71,5
3730,-104,-2080,440,-4,70,4
3735,-88,-2080,448,-3,72,3
3740,-96,-2096,448,-2,72,4
3745,-96,-2088,464,-2,73,3
3750,-88,-2080,464,-2,75,4
3755,-96,-2104,448,0,75,5
3760,-96,-2080,480,-1,75,5
3765,-104,-2048,472,-2,74,5
3770,-136,-2080,464,-4,72,7
3775,-80,-2072,440,-5,70,8
3780,-104,-2080,464,-5,71,5
3785,-88,-2088,472,-4,70,5
3790,-96,-2080,464,-3,71,4
3795,-128,-2080,448,-2,72,3
3800,-96,-2080,472,-3,71,3
3805,-96,-2080,448,-2,70,1
3810,-80,-2176,488,0,71,1
3815,-112,-2072,440,1,71,1
3820,-104,-2072,480,1,71,1
3825,-104,-2064,456,1,71,2
3830,-112,-2096,472,2,70,3
3835,-80,-2096,424,1,71,2
3840,-104,-2056,488,1,70,3
3845,-104,-2080,448,1,71,2
3850,-104,-2096,480,3,71,3
3855,-120,-2080,464,2,71,2
3860,-88,-2096,472,2,71,3
3865,-104,-2072,472,3,72,4
3870,-112,-2056,440,3,69,4
3875,-96,-2088,472,2,69,3
3880,-80,-2104,432,1,68,6
3885,-104,-2088,456,-1,68,6
3890,-104,-2064,464,1,69,8
3895,-96,-2064,448,0,69,7
3900,-112,-2088,488,1,69,9
3905,-104,-2080,472,-2,70,9
3910,-88,-2080,488,-1,68,9
3915,-104,-2112,472,-2,70,7
3920,-104,-2088,488,-3,68,6
3925,-104,-2072,480,-4,69,8
3930,-104,-2088,504,-4,69,6
3935,-112,-2096,472,-3,70,4
3940,-96,-2104,432,-3,69,3
3945,-120,-2088,480,-3,67,5
3950,-88,-2112,472,-3,68,4
3955,-120,-2088,472,-3,67,5
3960,-112,-2096,472,-4,68,3
3965,-104,-2056,472,-3,69,4
3970,-104,-2072,464,-2,70,4
3975,-96,-2088,496,-3,71,4
3980,-96,-2096,456,-4,70,3
3985,-80,-2096,424,-4,72,5
3990,-96,-2096,464,-3,72,6
3995,-104,-2096,464,-1,73,6
4000,-112,-2096,448,-1,73,5
4005,-104,-2072,464,-1,73,4
4010,-112,-2072,440,-3,71,4
4015,-112,-2080,464,-4,71,5
4020,-112,-2080,472,-5,71,4
4025,-128,-2040,480,-5,71,3
4030,-104,-2080,464,-6,70,4
4035,-112,-2064,440,-6,70,3
4040,-112,-2072,440,-7,69,3
4045,-112,-2072,440,-6,71,2
4050,-96,-2088,480,-6,71,3
4055,-88,-2088,464,-4,71,4
4060,-96,-2072,472,-4,71,3
4065,-96,-2072,464,-4,71,5
4070,-80,-2088,440,-5,71,6
4075,-104,-2072,488,-5,72,5
4080,-96,-2064,440,-3,73,5
4085,-112,-2088,480,-3,72,4
4090,-104,-2064,472,-1,73,3
4095,-96,-2072,456,0,73,1
4100,-96,-2096,448,1,72,0
4105,-88,-2080,456,1,71,-2
4110,-120,-2056,472,3,69,-2
4115,-96,-2072,464,2,68,-2
4120,-96,-2072,456,1,68,-2
4125,-128,-2088,448,0,67,-2
4130,-96,-2080,432,1,67,-2
4135,-80,-2064,440,0,68,-3
4140,-96,-2088,448,-2,67,-1
4145,-104,-2064,480,-2,66,0
4150,-112,-2064,488,-1,66,0
4155,-112,-2080,456,0,67,1
4160,-112,-2064,464,1,67,0
4165,-104,-2080,456,1,68,0
4170,-120,-2080,456,0,68,0
4175,-112,-2080,472,-2,67,-2
4180,-104,-2064,480,-4,69,-3
4185,-88,-2056,480,-4,68,-4
4190,-128,-2056,480,-6,69,-4
4195,-96,-2080,488,-6,69,-3
4200,-112,-2088,456,-4,69,-3
4205,-112,-2072,432,-2,70,-4
4210,-104,-2096,464,-1,69,-2
4215,-120,-2064,456,1,68,0
4220,-128,-2080,472,3,68,0
4225,-112,-2096,464,4,70,2
4230,-96,-2088,440,3,68,2
4235,-120,-2072,480,3,69,2
4240,-104,-2080,456,3,69,3
4245,-96,-2072,464,4,69,5
4250,-112,-2072,432,5,68,5
4255,-120,-2088,464,5,69,5
4260,-104,-2088,448,5,70,6
4265,-88,-2064,480,3,71,6
4270,-88,-2072,464,3,73,5
4275,-80,-2096,456,1,73,5
4280,-96,-2056,464,-2,73,5
4285,-104,-2072,456,-3,72,5
4290,-120,-2056,456,-2,73,5
4295,-104,-2096,496,-2,72,4
4300,-80,-2072,480,-4,72,5
4305,-96,-2088,472,-4,73,6
4310,-128,-2072,456,-4,72,6
4315,-104,-2080,464,-3,72,5
4320,-128,-2080,496,-3,73,4
4325,-120,-2072,464,-1,73,4
4330,-128,-2080,472,1,73,6
4335,-88,-2056,456,1,73,5
4340,-120,-2072,488,0,73,6
4345,-152,-2072,424,1,73,4
4350,-104,-2064,472,1,73,4
4355,-88,-2080,464,2,73,4
4360,-88,-2064,456,2,72,3
4365,-112,-2064,424,0,73,3
4370,-120,-2064,456,1,71,5
4375,-112,-2064,464,1,70,3
4380,-136,-2080,488,0,70,3
4385,-112,-2080,472,0,70,5
4390,-120,-2096,472,-1,69,5
4395,-120,-2080,480,-1,69,4
4400,-104,-2088,480,0,69,3
4405,-112,-2088,432,0,70,4
4410,-104,-2064,464,0,69,5
4415,-112,-2104,464,0,70,6
4420,-96,-2088,480,0,69,5
4425,-96,-2080,480,1,69,6
4430,-104,-2072,472,0,70,6
4435,-120,-2080,472,0,71,6
4440,-96,-2056,472,-1,72,6
4445,-80,-2080,472,-2,72,5
4450,-120,-2072,464,-4,72,6
4455,-120,-2080,464,-6,72,6
4460,-120,-2080,472,-6,71,5
4465,-120,-2080,464,-8,71,4
4470,-144,-2064,496,-7,70,3
4475,-120,-2080,488,-7,69,5
4480,-112,-2088,488,-6,69,3
4485,-104,-2096,488,-5,68,4
4490,-112,-2080,456,-4,68,2
4495,-112,-2072,480,-3,66,3
4500,-104,-2080,456,-2,66,3
4505,-96,-2088,480,-2,65,4
4510,-112,-2088,464,-1,66,4
4515,-96,-2088,456,0,66,5
4520,-104,-2080,464,0,67,4
4525,-104,-2072,480,1,68,4
4530,-128,-2056,472,1,69,4
4535,-120,-2096,480,0,69,3
4540,-136,-2056,480,-2,69,0
4545,-112,-2064,472,1,69,2
4550,-120,-2080,488,-1,70,0
4555,-136,-2152,408,-1,70,1
4560,-112,-2072,480,0,69,2
4565,-104,-2088,488,-1,70,4
4570,-128,-2056,488,0,69,4
4575,-104,-2064,496,0,69,6
4580,-120,-2072,472,0,68,5
4585,-112,-2064,480,-1,67,7
4590,-112,-2080,488,-2,66,8
4595,-104,-2064,488,-4,65,9
4600,-112,-2064,488,-6,64,9
4605,-112,-2064,480,-6,66,9
4610,-104,-2064,456,-9,68,8
4615,-104,-2048,480,-10,68,7
4620,-104,-2088,472,-13,68,7
4625,-120,-2072,464,-13,67,6
4630,-112,-2088,480,-14,68,8
4635,-96,-2072,472,-13,68,10
4640,-96,-2072,456,-12,68,9
4645,-112,-2096,496,-11,70,8
4650,-96,-2088,472,-9,70,8
4655,-88,-2080,480,-7,69,9
4660,-128,-2080,456,-4,70,10
4665,-152,-2072,512,-3,68,10
4670,-104,-2080,488,-1,70,10
4675,-80,-2088,464,3,69,10
4680,-120,-2080,488,5,68,11
4685,-112,-2064,472,6,68,12
4690,-128,-2056,488,7,69,11
4695,-104,-2056,456,4,68,12
4700,-96,-2056,472,3,68,13
4705,-120,-2072,472,2,66,13
4710,-104,-2080,472,-1,68,13
4715,-128,-2064,488,-2,69,12
4720,-104,-2072,472,-4,70,12
4725,-112,-2080,472,-6,70,13
4730,-120,-2072,496,-7,69,12
4735,-112,-2072,488,-10,69,12
4740,-104,-2080,504,-10,69,12
4745,-136,-2064,456,-11,70,11
4750,-112,-2072,480,-12,70,9
4755,-120,-2072,472,-11,69,8
4760,-112,-2064,472,-11,69,7
4765,-112,-2088,480,-9,71,7
4770,16,-1992,480,-8,72,7
4775,-120,-2080,472,-7,72,8
4780,-112,-2088,480,-6,71,8
4785,-112,-2064,488,-3,73,10
4790,-120,-2080,464,-1,72,10
4795,-144,-2064,472,1,72,11
4800,-128,-2072,488,3,71,13
4805,-136,-2072,472,4,71,15
4810,-128,-2048,480,5,72,16
4815,-96,-2104,464,5,72,17
4820,-128,-2064,480,4,70,18
4825,-120,-2080,464,5,70,19
4830,-120,-2072,464,4,68,18
4835,-136,-2064,496,4,68,18
4840,-120,-2056,488,3,69,19
4845,-128,-2080,488,4,68,18
4850,-144,-2088,480,2,69,18
4855,-144,-2080,464,0,66,16
4860,-128,-2064,504,-1,65,17
4865,-144,-2104,480,0,64,18
4870,-144,-2104,488,2,65,19
4875,-80,-2088,456,4,64,19
4880,-144,-2096,464,9,61,23
4885,-136,-2104,496,13,61,25
4890,-128,-2104,472,13,61,26
4895,-144,-2088,472,15,61,24
4900,-144,-2088,480,15,59,23
4905,-136,-2080,480,15,58,21
4910,-152,-2080,464,15,58,22
4915,-136,-2080,480,17,58,21
4920,-128,-2088,480,18,58,19
4925,-152,-2080,480,19,57,20
4930,-120,-2064,472,19,59,20
4935,-136,-2056,472,20,59,22
4940,-160,-2056,480,19,60,25
4945,-136,-2080,480,19,60,28
4950,-152,-2088,472,21,59,31
4955,-120,-2112,488,20,56,36
4960,-136,-2088,488,18,55,41
4965,-128,-2080,480,18,54,44
4970,-104,-2080,480,19,53,47
4975,-136,-2088,448,20,53,51
4980,-120,-2080,488,20,54,54
4985,-120,-2128,496,19,54,56
4990,-120,-2072,456,19,55,58
4995,-120,-2056,480,18,55,56
5000,-120,-2056,456,19,56,54
5005,-112,-2056,504,20,57,55
5010,-144,-2072,488,19,57,55
5015,-152,-2064,496,20,55,54
5020,-104,-2064,488,17,55,54
5025,-136,-2080,504,20,55,53
5030,-128,-2072,488,21,55,52
5035,-128,-2088,488,23,58,52
5040,-128,-2072,464,24,59,53
5045,-136,-2072,512,23,60,52
5050,-144,-2080,504,23,59,55
5055,-128,-2088,504,22,60,57
5060,-112,-2072,496,22,60,57
5065,-136,-2064,496,22,59,59
5070,-128,-2072,504,23,60,62
5075,-136,-2064,512,23,62,65
5080,-112,-2064,496,24,63,66
5085,-136,-2096,496,25,63,67
5090,-120,-2032,520,28,63,68
5095,-128,-2056,504,29,62,69
5100,-128,-2072,520,30,64,70
5105,-112,-2088,472,32,64,71
5110,-136,-2072,504,31,66,73
5115,-152,-2064,496,32,68,72
5120,-128,-2072,480,31,68,75
5125,-160,-2056,504,27,66,74
5130,-136,-2088,488,22,64,76
5135,-136,-2072,488,22,64,79
5140,-136,-2064,488,21,62,80
5145,-128,-2080,496,22,61,82
5150,-136,-2064,488,23,61,84
5155,-112,-2080,504,23,63,85
5160,-152,-2080,488,24,64,87
5165,-144,-2040,496,22,66,89
5170,-144,-2080,488,23,67,89
5175,-168,-2040,504,23,68,91
5180,-152,-2064,528,22,70,92
5185,-152,-2088,512,20,70,94
5190,-168,-2064,488,17,72,95
5195,-168,-2016,464,14,73,96
5200,-168,-2072,488,12,74,98
5205,-168,-2056,512,11,75,101
5210,-176,-2064,480,10,75,105
5215,-176,-2064,528,9,75,108
5220,-176,-2056,480,8,73,111
5225,-168,-2064,512,9,73,114
5230,-184,-2056,504,11,73,118
5235,-152,-2080,504,11,73,122
5240,-144,-2080,496,14,72,126
5245,-184,-2080,496,17,74,128
5250,-160,-2072,496,19,75,132
5255,-192,-2080,512,19,74,134
5260,-184,-2064,512,21,75,137
5265,-176,-2056,512,22,76,141
5270,-168,-2072,520,22,77,142
5275,-184,-2072,512,23,80,146
5280,-200,-2080,520,26,80,146
5285,-208,-2040,528,26,81,150
5290,-176,-2056,528,25,82,154
5295,-184,-2088,512,27,81,156
5300,-216,-2072,496,27,80,163
5305,-272,-2064,536,26,78,167
5310,-184,-2048,496,25,78,171
5315,-192,-2072,504,24,75,177
5320,-184,-2064,512,24,74,182
5325,-184,-2048,504,24,72,187
5330,-168,-2064,504,22,70,194
5335,-168,-2056,520,21,68,199
5340,-200,-2048,496,19,68,203
5345,-192,-2080,504,19,69,208
5350,-200,-2056,512,18,66,210
5355,-192,-2048,520,17,66,214
5360,-200,-2064,520,20,68,216
5365,-208,-2072,536,21,69,220
5370,-176,-2072,496,22,72,224
5375,-208,-2064,512,20,74,232
5380,-200,-2056,504,21,77,237
5385,-200,-2064,520,23,80,240
5390,-208,-2064,528,24,83,245
5395,-208,-2064,512,25,88,253
5400,-192,-2088,512,25,90,261
5405,-200,-2072,504,26,92,268
5410,-248,-2072,536,27,91,273
5415,-216,-2056,512,28,90,280
5420,-208,-2072,504,30,91,286
5425,-216,-2064,512,31,90,292
5430,-224,-2072,512,33,91,297
5435,-240,-2064,528,33,94,301
5440,-232,-2064,504,32,93,304
5445,-224,-2088,512,33,93,306
5450,-224,-2064,520,34,93,309
5455,-280,-2064,512,35,93,308
5460,-224,-2064,528,39,93,309
5465,-248,-2056,488,39,98,309
5470,-280,-2048,512,37,100,312
5475,-256,-2064,504,33,103,315
5480,-256,-2056,512,32,107,316
5485,-288,-2048,520,33,110,318
5490,-280,-2056,504,33,113,323
5495,-264,-2040,512,34,118,327
5500,-288,-2048,520,35,121,329
5505,-272,-2048,512,37,123,332
5510,-280,-2048,512,36,122,334
5515,-296,-2072,504,37,122,334
5520,-288,-2056,520,37,120,334
5525,-320,-2048,520,36,117,339
5530,-304,-2048,528,35,120,340
5535,-296,-2056,512,35,125,345
5540,-304,-2040,536,35,130,349
5545,-336,-2056,528,36,133,353
5550,-320,-2056,528,37,137,356
5555,-336,-2040,512,39,139,360
5560,-336,-2048,520,40,141,364
5565,-368,-2040,512,39,142,368
5570,-344,-2048,496,37,142,373
5575,-336,-2056,544,37,146,378
5580,-344,-2064,520,40,147,379
5585,-376,-2048,512,40,151,382
5590,-352,-2056,520,43,154,383
5595,-360,-2048,528,45,155,385
5600,-376,-2032,520,47,159,387
5605,-368,-2032,520,47,164,391
5610,-392,-2040,528,48,169,396
5615,-368,-2048,528,49,173,400
5620,-400,-2040,536,50,176,406
5625,-368,-2024,528,52,180,411
5630,-400,-2032,536,52,180,415
5635,-424,-2024,512,52,182,418
5640,-392,-2032,536,52,183,424
5645,-408,-2024,520,51,187,429
5650,-408,-2032,536,47,192,432
5655,-392,-2032,512,42,196,434
5660,-408,-2024,528,39,198,435
5665,-440,-2024,528,37,200,436
5670,-416,-2032,520,34,204,438
5675,-448,-2008,512,31,205,440
5680,-432,-2032,512,33,208,441
5685,-456,-2024,512,35,212,444
5690,-472,-2032,552,35,218,447
5695,-448,-2040,528,37,222,452
5700,-488,-2016,504,40,224,455
5705,-480,-2032,536,41,228,458
5710,-480,-2040,528,44,228,459
5715,-480,-2024,528,49,229,464
5720,-496,-2024,528,55,229,465
5725,-520,-2016,528,62,231,468
5730,-512,-1952,504,68,234,472
5735,-520,-2016,528,73,236,473
5740,-536,-2008,528,80,238,478
5745,-544,-2016,528,86,239,480
5750,-544,-2000,536,92,242,485
5755,-576,-1992,544,95,242,492
5760,-600,-1976,552,98,243,499
5765,-576,-2000,568,103,244,506
5770,-576,-2008,528,105,245,512
5775,-584,-2000,528,107,242,520
5780,-608,-1984,536,106,243,525
5785,-608,-2008,552,105,241,533
5790,-616,-2000,544,103,239,537
5795,-616,-1968,520,103,237,542
5800,-632,-1984,536,105,236,547
5805,-624,-1984,528,106,234,555
5810,-640,-1992,536,106,232,558
5815,-640,-1960,520,105,231,565
5820,-640,-1968,512,106,232,569
5825,-648,-1960,528,110,231,575
5830,-672,-1976,512,115,230,579
5835,-648,-1968,504,119,228,586
5840,-648,-1888,488,123,230,593
5845,-640,-1968,520,127,234,602
5850,-696,-1976,512,128,238,611
5855,-696,-1968,520,131,239,618
5860,-696,-1952,560,133,244,625
5865,-728,-1968,560,130,242,631
5870,-704,-1960,576,125,238,640
5875,-704,-1952,560,128,249,650
5880,-728,-1952,544,135,263,663
5885,-712,-1944,560,141,273,671
5890,-720,-1928,536,149,284,678
5895,-728,-1920,568,152,291,686
5900,-752,-1912,552,153,297,691
5905,-760,-1928,568,153,304,700
5910,-752,-1912,552,153,308,705
5915,-768,-1928,552,151,308,709
5920,-752,-1912,584,152,311,715
5925,-760,-1904,552,158,318,722
5930,-776,-1904,584,159,319,726
5935,-760,-1912,568,155,311,731
5940,-768,-1944,576,159,317,741
5945,-776,-1928,560,165,322,752
5950,-792,-1936,544,169,327,768
5955,-760,-1904,600,174,331,784
5960,-792,-1872,584,176,331,800
5965,-856,-1872,584,176,327,814
5970,-816,-1872,592,176,301,834
5975,-808,-1856,536,172,286,846
5980,-808,-1832,528,165,295,861
5985,-816,-1808,544,156,307,875
5990,-824,-1816,552,153,306,889
5995,-840,-1808,552,149,310,903
6000,-832,-1800,576,144,328,919
6005,-808,-1784,632,137,338,934
6010,-832,-1808,592,130,352,953
6015,-872,-1792,608,129,365,969
6020,-888,-1792,640,134,381,982
6025,-888,-1800,640,137,397,990
6030,-880,-1800,632,138,418,1001
6035,-928,-1800,640,143,428,1011
6040,-912,-1800,600,158,436,1017
6045,-904,-1808,584,169,433,1021
6050,-936,-1760,576,187,429,1029
6055,-880,-1736,768,209,423,1035
6060,-968,-1696,576,231,435,1045
6065,-936,-1696,624,247,445,1048
6070,-944,-1688,624,257,458,1052
6075,-920,-1648,584,260,474,1059
6080,-952,-1664,624,255,501,1072
6085,-944,-1632,640,250,521,1082
6090,-984,-1624,640,240,542,1095
6095,-960,-1632,640,225,562,1107
6100,-952,-1656,648,210,580,1116
6105,-960,-1696,632,190,604,1131
6110,-960,-1712,664,169,633,1147
6115,-952,-1704,648,150,657,1164
6120,-944,-1736,640,138,677,1178
6125,-936,-1736,632,127,696,1196
6130,-920,-1736,640,118,714,1216
6135,-928,-1760,624,111,728,1232
6140,-936,-1728,616,111,738,1247
6145,-920,-1712,568,113,746,1255
6150,-920,-1688,536,111,758,1259
6155,-968,-1648,528,108,776,1260
6160,-1000,-1664,544,100,793,1263
6165,-1016,-1656,496,100,810,1270
6170,-1000,-1592,544,98,826,1279
6175,-1032,-1592,544,95,839,1288
6180,-1032,-1560,512,89,850,1297
6185,-1064,-1560,512,80,866,1307
6190,-1056,-1544,528,76,877,1318
6195,-1080,-1536,520,83,884,1329
6200,-1072,-1536,520,89,890,1339
6205,-1096,-1472,480,90,895,1349
6210,-1048,-1488,440,81,902,1353
6215,-1032,-1496,448,65,909,1362
6220,-1080,-1448,472,52,921,1365
6225,-1048,-1448,400,37,931,1371
6230,-1032,-1448,376,25,940,1377
6235,-1040,-1440,344,13,949,1380
6240,-1056,-1408,352,3,961,1386
6245,-1072,-1408,400,-8,974,1393
6250,-1104,-1352,320,-13,985,1399
6255,-1088,-1392,328,-13,996,1406
6260,-1120,-1328,312,-14,1015,1416
6265,-1136,-1272,296,-14,1037,1429
6270,-1144,-1256,320,-16,1063,1450
6275,-1208,-1208,200,-20,1082,1473
6280,-1168,-1192,232,-25,1089,1501
6285,-1192,-1136,272,-35,1095,1531
6290,-1224,-1120,264,-49,1103,1565
6295,-1248,-1080,272,-61,1110,1600
6300,-1296,-1032,264,-72,1115,1637
6305,-1312,-992,272,-86,1111,1665
6310,-1304,-984,232,-97,1107,1698
6315,-1328,-928,264,-112,1108,1736
6320,-1352,-944,288,-134,1110,1766
6325,-1344,-920,320,-161,1108,1788
6330,-1360,-928,384,-197,1108,1805
6335,-1368,-952,304,-252,1111,1805
6340,-1384,-920,296,-324,1124,1801
6345,-1408,-856,192,-408,1136,1800
6350,-1400,-792,120,-492,1136,1807
6355,-1336,-736,96,-557,1138,1814
6360,-1296,-672,40,-604,1135,1839
6365,-1288,-632,56,-630,1126,1876
6370,-1264,-576,32,-641,1111,1908
6375,-1200,-520,80,-632,1110,1942
6380,-1224,-512,88,-613,1108,1977
6385,-1224,-448,32,-612,1089,2016
6390,-1144,-432,104,-637,1088,2050
6395,-1192,-416,216,-670,1081,2075
6400,-1208,-432,304,-693,1066,2097
6405,-1200,-400,400,-708,1039,2111
6410,-1216,-408,464,-721,1001,2115
6415,-1264,-384,528,-742,968,2119
6420,-1336,-408,512,-778,930,2112
6425,-1376,-424,560,-838,863,2093
6430,-1504,-480,624,-919,753,2070
6435,-1520,-512,496,-972,648,2076
6440,-1640,-552,320,-1026,584,2091
6445,-1752,-560,216,-1101,494,2081
6450,-1864,-648,72,-1134,397,2071
6455,-2496,-864,408,-1083,332,2111
6460,-2488,-840,344,-890,232,2109
6465,-1624,-880,-144,-783,129,1976
6470,-1456,-752,-272,-814,15,1763
6475,-1544,-816,-120,-881,-126,1596
6480,-1752,-840,-40,-841,-282,1445
6485,-1960,-800,-40,-732,-462,1269
6490,-2080,-760,-80,-605,-611,1127
6495,-2248,-624,-240,-498,-732,1030
6500,-2280,-640,-352,-408,-872,969
6505,-2368,-584,-488,-339,-1045,909
6510,-2296,-640,-560,-323,-1229,863
6515,-1936,-656,-688,-388,-1429,796
6520,-1840,-752,-712,-552,-1593,668
6525,-1904,-792,-520,-709,-1711,554
6530,-1784,-920,-504,-764,-1863,465
6535,-1672,-968,-512,-748,-1984,379
6540,-1512,-1048,-512,-657,-2042,287
6545,-1496,-944,-576,-562,-2127,181
6550,-1176,-856,-744,-506,-2176,97
6555,-1216,-864,-648,-497,-2158,8
6560,-920,-800,-624,-483,-2147,-76
6565,-648,-576,-776,-457,-2123,-171
6570,-152,-536,-848,-447,-2048,-228
6575,384,-560,-1024,-575,-1933,-367
6580,-288,-416,-464,-811,-1718,-487
6585,-216,-424,-464,-937,-1630,-501
6590,-424,-456,-312,-1079,-1550,-576
6595,-800,-104,-192,-1081,-1354,-576
6600,-2088,128,160,-951,-1060,-401
6605,-2552,456,96,-685,-818,-19
6610,-3448,928,256,-468,-674,347
6615,-3352,984,-64,-332,-566,755
6620,-4344,1240,80,-348,-459,1086
6625,-5112,1144,224,-438,-443,1546
6630,-5728,1112,600,-527,-598,2007
6635,-6256,1176,544,-518,-807,2418
6640,-6752,1120,776,-532,-908,2760
6645,-7272,1232,784,-478,-898,3072
6650,-7536,984,752,-507,-964,3373
6655,-7368,544,800,-564,-1044,3595
6660,-6744,592,648,-560,-1138,3720
6665,-6232,536,720,-503,-1256,3747
6670,-5296,624,544,-345,-1359,3754
6675,-4616,464,536,-162,-1468,3652
6680,-3992,400,344,32,-1517,3503
6685,-3888,712,384,147,-1479,3283
6690,-3472,1008,528,286,-1277,3012
6695,-3328,1280,680,561,-938,2741
6700,-3248,1560,944,882,-602,2505
6705,-2896,1912,1016,1147,-335,2177
6710,-2328,2336,920,1262,-76,1756
6715,-1672,2640,824,1223,137,1292
6720,-1288,2856,640,1039,256,794
6725,-1152,2688,624,754,323,325
6730,-1072,2408,736,510,381,-18
6735,-1048,2024,600,393,408,-251
6740,-1008,1552,680,338,434,-383
6745,-1216,1088,688,344,455,-414
6750,-1280,672,728,360,445,-375
6755,-1344,352,744,363,425,-309
6760,-1640,232,792,346,377,-232
6765,-1816,120,888,333,290,-148
6770,-1832,200,856,324,178,-62
6775,-1728,264,816,313,76,40
6780,-1688,288,880,301,-11,143
6785,-1560,272,888,296,-121,236
6790,-1408,272,896,285,-244,314
6795,-1152,304,744,263,-356,401
6800,-1016,224,680,214,-451,495
6805,-928,280,680,152,-544,577
6810,-680,336,592,73,-646,650
6815,-584,496,624,-19,-738,690
6820,-472,640,488,-104,-811,690
6825,-344,800,408,-180,-869,644
6830,-232,952,384,-222,-903,563
6835,-168,1000,320,-226,-924,463
6840,-144,1016,376,-189,-932,352
6845,-208,920,408,-98,-955,233
6850,-232,872,528,77,-992,93
6855,-376,832,752,264,-908,-44
6860,-544,720,968,396,-781,-150
6865,-816,688,1040,475,-671,-236
6870,-1048,648,1192,488,-599,-303
6875,-1280,648,1248,455,-579,-335
6880,-1544,688,1336,390,-581,-330
6885,-1648,720,1360,297,-600,-299
6890,-1776,816,1352,205,-623,-251
6895,-1880,928,1408,130,-650,-183
6900,-2000,1024,1368,92,-677,-103
6905,-2096,1064,1312,88,-698,-25
6910,-2176,1104,1280,110,-713,42
6915,-2272,1136,1240,149,-718,104
6920,-2304,1064,1184,188,-717,159
6925,-2400,1080,1112,214,-718,193
6930,-2488,1104,1000,239,-720,214
6935,-2544,1136,984,254,-704,225
6940,-2616,1168,936,273,-676,226
6945,-2664,1136,960,307,-640,218
6950,-2688,1120,952,352,-599,201
6955,-2680,1120,928,397,-560,169
6960,-2664,1072,968,435,-517,123
6965,-2592,1096,952,469,-462,62
6970,-2552,1080,968,496,-402,1
6975,-2432,1072,952,519,-333,-62
6980,-2320,1040,952,534,-257,-122
6985,-2240,1024,920,531,-182,-176
6990,-2144,1000,944,514,-106,-223
6995,-2064,920,952,483,-34,-263
7000,-1936,840,960,440,30,-296
7005,-1864,768,952,394,88,-326
7010,-1792,680,1016,345,137,-345
7015,-1696,608,1064,293,170,-361
7020,-1592,592,1048,249,195,-369
7025,-1568,536,1040,218,218,-374
7030,-1536,584,960,202,236,-373
7035,-1480,536,984,194,247,-367
7040,-1424,528,936,188,249,-354
7045,-1384,520,936,183,246,-338
7050,-1336,512,896,174,240,-328
7055,-1320,512,904,154,235,-318
7060,-1344,520,920,131,237,-310
7065,-1360,488,896,111,243,-304
7070,-1408,496,904,101,254,-302
7075,-1400,456,904,102,268,-314
7080,-1512,448,888,108,278,-341
7085,-1544,424,856,122,283,-386
7090,-1592,464,824,143,291,-430
7095,-1696,496,776,169,310,-466
7100,-1824,488,792,191,328,-489
7105,-1888,504,760,200,332,-502
7110,-1928,488,792,199,324,-495
7115,-1960,488,744,191,313,-483
7120,-1976,488,736,179,300,-479
7125,-2048,512,712,160,293,-479
7130,-2016,472,688,149,286,-491
7135,-2024,464,688,137,280,-496
7140,-2024,432,704,120,279,-490
7145,-2032,448,744,102,282,-480
7150,-2040,424,736,95,287,-478
7155,-2040,464,744,98,295,-477
7160,-2008,448,768,99,306,-471
7165,-2040,472,776,98,315,-460
7170,-1992,488,768,95,327,-455
7175,-2000,488,752,97,342,-452
7180,-1984,512,760,94,358,-444
7185,-1984,504,736,89,373,-431
7190,-2008,504,712,87,379,-412
7195,-2008,504,720,78,383,-387
7200,-2008,472,720,65,381,-359
7205,-2016,424,632,51,372,-321
7210,-2048,360,688,26,353,-270
7215,-2000,296,648,-4,321,-199
7220,-2040,320,672,-27,284,-124
7225,-2024,280,640,-42,257,-64
7230,-2064,272,648,-42,240,-19
7235,-2064,296,632,-30,223,18
7240,-2064,280,600,-21,213,48
7245,-2128,256,608,-9,202,71
7250,-2048,272,592,1,193,85
7255,-2056,296,560,8,184,87
7260,-2048,288,552,-4,176,85
7265,-2056,296,520,-23,169,75
7270,-2072,288,512,-42,160,63
7275,-2048,280,520,-66,152,53
7280,-2048,288,504,-91,143,43
7285,-2080,328,496,-119,134,30
7290,-2056,264,488,-151,123,18
7295,-2048,256,520,-175,115,5
7300,-2048,256,464,-193,105,-5
7305,-2064,248,480,-210,95,-11
7310,-2064,232,496,-223,80,-13
7315,-2048,192,512,-227,64,-9
7320,-2048,184,504,-222,46,-4
7325,-2048,208,528,-207,26,6
7330,-2040,176,528,-183,10,12
7335,-2032,168,528,-154,-4,22
7340,-2008,160,576,-121,-17,30
7345,-1992,192,592,-89,-27,39
7350,-2032,240,568,-64,-38,47
7355,-1984,216,592,-43,-47,54
7360,-1976,224,592,-21,-51,56
7365,-1968,240,624,-2,-48,57
7370,-1976,256,624,18,-45,57
7375,-1952,280,640,39,-49,54
7380,-1992,280,616,57,-52,52
7385,-1952,320,632,74,-55,49
7390,-1936,312,640,90,-57,45
7395,-1944,360,680,102,-57,43
7400,-1936,400,648,108,-56,43
7405,-1944,400,672,111,-56,42
7410,-1920,408,696,110,-52,43
7415,-1920,392,672,102,-49,46
7420,-1920,432,696,94,-46,49
7425,-1904,440,752,84,-44,55
7430,-1896,456,736,73,-42,63
7435,-1920,440,776,63,-42,71
7440,-1928,480,752,52,-44,84
7445,-1904,464,808,41,-49,94
7450,-1896,464,792,32,-57,108
7455,-1912,456,824,23,-65,122
7460,-1904,496,736,17,-72,135
7465,-1896,472,800,14,-79,148
7470,-1904,440,816,14,-87,158
7475,-1872,456,840,14,-93,169
7480,-1896,456,856,15,-100,177
7485,-1880,488,840,16,-107,186
7490,-1872,488,840,15,-113,193
7495,-1880,512,856,15,-118,197
7500,-1848,496,856,13,-120,198
7505,-1880,520,848,12,-121,193
7510,-1864,536,848,11,-119,187
7515,-1864,544,824,11,-116,181
7520,-1848,512,864,12,-109,172
7525,-1856,528,832,16,-98,160
7530,-1856,520,848,24,-86,147
7535,-1848,536,840,31,-71,132
7540,-1840,512,800,40,-57,115
7545,-1840,520,824,49,-43,99
7550,-1848,520,792,55,-32,83
7555,-1848,552,808,59,-21,66
7560,-1840,520,808,61,-11,53
7565,-1848,520,816,60,-2,40
7570,-1872,536,792,60,8,28
7575,-1856,528,816,59,16,17
7580,-1888,544,808,56,24,6
7585,-1872,544,784,54,32,-4
7590,-1880,520,800,53,39,-12
7595,-1896,544,784,52,44,-21
7600,-1880,536,784,52,51,-28
7605,-1896,544,792,52,56,-34
7610,-1896,520,784,52,62,-41
7615,-1872,528,760,51,68,-46
7620,-1920,560,784,49,70,-53
7625,-1904,552,752,46,75,-59
7630,-1912,512,760,43,79,-63
7635,-1928,536,760,40,81,-67
7640,-1912,520,768,36,85,-70
7645,-1912,528,784,31,91,-73
7650,-1928,512,768,27,96,-77
7655,-1920,504,752,23,99,-79
7660,-1920,512,768,20,102,-82
7665,-1920,504,728,16,105,-83
7670,-1928,512,752,13,107,-83
7675,-1928,488,736,8,110,-85
7680,-1944,512,768,4,108,-86
7685,-1928,496,736,-1,108,-86
7690,-1912,488,744,-6,107,-86
7695,-1928,504,712,-11,106,-83
7700,-1912,480,720,-13,103,-82
7705,-1920,488,752,-18,100,-79
7710,-1904,464,728,-22,99,-76
7715,-1928,448,752,-25,97,-74
7720,-1920,464,752,-29,93,-72
7725,-1928,472,736,-31,91,-69
7730,-1928,440,720,-33,88,-67
7735,-1912,448,712,-34,87,-65
7740,-1936,440,704,-37,82,-64
7745,-1944,432,744,-39,78,-61
7750,-1952,448,720,-39,76,-58
7755,-1928,432,752,-39,75,-55
7760,-1936,432,736,-42,73,-54
7765,-1920,424,720,-44,73,-50
7770,-1944,432,712,-46,73,-49
7775,-1944,408,696,-45,73,-47
7780,-1952,448,720,-45,71,-46
7785,-1960,424,736,-46,69,-43
7790,-1912,400,688,-46,68,-40
7795,-1944,416,728,-47,67,-39
7800,-1944,408,720,-46,65,-35
7805,-1952,408,712,-46,65,-33
7810,-1944,424,744,-46,65,-31
7815,-1960,416,712,-44,64,-26
7820,-1960,416,720,-43,63,-23
7825,-1936,392,736,-40,62,-19
7830,-1920,424,752,-39,59,-15
7835,-1920,424,768,-37,55,-10
7840,-1960,424,736,-33,53,-7
7845,-1928,384,736,-32,49,-3
7850,-1928,408,776,-29,47,0
7855,-1944,416,768,-28,43,2
7860,-1944,384,760,-27,41,3
7865,-1928,408,752,-25,41,4
7870,-1920,416,736,-23,41,4
7875,-1936,416,728,-20,43,5
7880,-1928,408,736,-18,44,3
7885,-1936,448,744,-14,46,3
7890,-1936,440,712,-11,45,5
7895,-1912,424,744,-6,47,5
7900,-1904,416,736,-1,44,7
7905,-1912,416,760,5,43,8
7910,-1888,416,744,9,42,11
7915,-1896,448,752,13,42,11
7920,-1920,456,760,15,39,12
7925,-1896,448,760,17,38,14
7930,-1904,448,760,19,39,15
7935,-1904,432,728,19,39,14
7940,-1912,448,728,21,39,12
7945,-1928,440,736,23,38,14
7950,-1912,464,760,23,38,13
7955,-1896,448,776,22,38,13
7960,-1888,440,776,22,40,13
7965,-1904,480,736,20,39,14
7970,-1880,456,776,19,41,15
7975,-1912,472,776,17,43,13
7980,-1920,480,760,17,46,12
7985,-1880,456,768,17,50,10
7990,-1912,456,768,15,54,9
7995,-1920,440,768,14,56,9
8000,-1920,464,760,11,56,8
8005,-1984,456,784,10,58,7
8010,-1912,472,760,8,61,7
8015,-1920,464,752,8,60,5
8020,-1920,480,728,7,63,5
8025,-1912,464,760,8,63,5
8030,-1928,488,784,5,63,5
8035,-1888,472,768,4,64,4
8040,-1912,456,760,3,64,4
8045,-1936,480,792,1,63,6
8050,-1896,488,760,1,63,5
8055,-1912,480,744,-2,64,4
8060,-1904,464,768,-5,65,3
8065,-1920,464,760,-8,66,-1
8070,-1888,464,744,-10,66,-2
8075,-1888,456,760,-12,65,-3
8080,-1920,464,760,-14,66,-3
8085,-1920,448,752,-15,65,-4
8090,-1920,480,760,-15,66,-4
8095,-1896,472,728,-13,64,-4
8100,-1912,480,744,-11,63,-5
8105,-1904,472,736,-10,65,-4
8110,-1936,448,760,-9,65,-5
8115,-1920,424,744,-8,64,-6
8120,-1920,456,736,-8,64,-7
8125,-1928,480,752,-8,64,-8
8130,-1928,440,760,-7,65,-10
8135,-1912,440,760,-7,64,-10
8140,-1920,448,760,-8,64,-10
8145,-1920,472,752,-10,64,-10
8150,-1920,456,744,-10,64,-9
8155,-1920,432,760,-11,64,-8
8160,-1912,432,752,-12,62,-8
8165,-1920,464,728,-13,63,-7
8170,-1920,456,728,-14,63,-4
8175,-1920,448,728,-13,63,-2
8180,-1920,464,744,-12,62,0
8185,-1928,464,760,-10,63,0
8190,-1920,440,768,-9,64,-1
8195,-1880,424,768,-9,66,1
8200,-1912,464,744,-8,65,0
8205,-1904,440,768,-8,65,1
8210,-1912,440,744,-8,67,1
8215,-1912,440,744,-7,65,1
8220,-1912,464,776,-6,65,1
8225,-1920,456,776,-5,63,1
8230,-1928,464,736,-5,63,1
8235,-1928,464,784,-4,63,1
8240,-1912,472,768,-4,62,1
8245,-1928,440,776,-3,62,4
8250,-1896,456,744,-3,60,3
8255,-1920,472,752,-3,60,4
8260,-1912,448,768,-3,60,5
8265,-1928,448,768,-4,61,4
8270,-1912,464,752,-3,60,5
8275,-1920,472,744,-3,60,4
8280,-1896,456,744,-3,61,5
8285,-1904,456,760,-2,62,5
8290,-1896,448,744,-3,64,4
8295,-1912,456,760,-1,63,4
8300,-1928,456,776,1,64,3
8305,-1920,456,752,2,64,2
8310,-1904,440,792,3,66,0
8315,-1912,440,768,4,70,0
8320,-1896,456,752,4,71,-2
8325,-1944,456,760,3,73,-4
8330,-1920,464,776,3,74,-5
8335,-1856,480,840,2,74,-4
8340,-1904,440,752,1,73,-5
8345,-1928,472,784,2,76,-8
8350,-1920,456,752,2,77,-9
8355,-1904,472,744,1,78,-8
8360,-1912,480,720,2,77,-7
8365,-1912,480,768,1,77,-8
8370,-1904,456,776,0,76,-7
8375,-1928,480,752,-2,74,-7
8380,-1904,464,752,-3,73,-8
8385,-1912,480,752,-2,73,-9
8390,-1928,480,768,-4,74,-8
8395,-1896,448,728,-4,71,-7
8400,-1904,472,728,-4,72,-7
8405,-1896,440,752,-6,71,-6
8410,-1920,472,752,-6,71,-6
8415,-1896,448,752,-7,70,-5
8420,-1920,464,760,-6,68,-4
8425,-1896,448,752,-7,67,-5
8430,-1912,456,752,-5,67,-3
8435,-1920,488,760,-4,67,-1
8440,-1912,408,720,-4,66,-2
8445,-1928,448,736,-4,67,-1
8450,-1920,456,744,-5,66,-1
8455,-1904,424,744,-5,66,0
8460,-1920,472,760,-7,65,-1
8465,-1920,456,768,-9,67,-1
8470,-1920,480,736,-11,67,-2
8475,-1912,456,760,-13,66,-2
8480,-1920,456,752,-15,65,-3
8485,-1912,464,752,-16,64,-4
8490,-1904,432,768,-17,64,-3
8495,-1912,456,736,-17,63,-4
8500,-1896,448,728,-16,64,-4
8505,-1920,448,744,-16,62,-4
8510,-1920,456,744,-14,62,-4
8515,-1920,448,736,-13,62,-1
8520,-1936,448,776,-13,61,-2
8525,-1904,440,744,-12,60,-1
8530,-1904,448,752,-12,59,-1
8535,-1912,472,744,-11,59,1
8540,-1912,464,768,-10,60,0
8545,-1912,464,768,-10,59,0
8550,-1888,424,704,-9,60,0
8555,-1888,472,752,-8,61,1
8560,-1912,464,752,-8,60,-1
8565,-1928,448,736,-7,59,-1
8570,-1912,456,760,-7,62,-1
8575,-1928,480,760,-7,62,-1
8580,-1928,448,760,-7,61,0
8585,-1904,464,768,-8,63,0
8590,-1920,448,752,-10,62,-1
8595,-1904,448,760,-10,62,-1
8600,-1920,448,760,-11,64,-1
8605,-1912,464,784,-11,64,-1
8610,-1920,440,760,-11,65,-2
8615,-1912,448,776,-12,66,-2
8620,-1928,440,744,-13,64,-3
8625,-1912,472,744,-14,65,-4
8630,-1912,480,768,-13,65,-4
8635,-1912,464,784,-14,64,-3
8640,-1880,440,760,-14,65,-4
8645,-1888,464,760,-12,66,-4
8650,-1912,472,752,-13,66,-3
8655,-1920,464,784,-11,66,-2
8660,-1920,472,784,-11,65,-3
8665,-1904,448,768,-11,66,-2
8670,-1912,440,768,-11,65,-3
8675,-1920,464,760,-8,66,-2
8680,-1920,464,760,-8,68,-2
8685,-1904,456,768,-8,67,-1
8690,-1904,448,720,-6,66,-2
8695,-1912,456,768,-6,67,-3
8700,-1920,472,760,-7,68,-4
8705,-1936,432,768,-7,68,-3
8710,-1896,472,744,-7,67,-3
8715,-1904,488,736,-6,67,-3
8720,-1920,488,760,-6,68,-3
8725,-1904,456,768,-6,68,-5
8730,-1928,464,768,-8,68,-3
8735,-1920,464,760,-8,67,-3
8740,-1920,456,752,-8,67,-3
8745,-1920,472,792,-8,68,-2
8750,-1896,448,776,-8,66,-2
8755,-1912,448,728,-9,66,-4
8760,-1920,456,736,-9,66,-3
8765,-1920,448,720,-10,65,-3
8770,-1888,432,664,-9,65,-1
8775,-1920,472,736,-10,65,-3
8780,-1936,472,760,-10,64,-3
8785,-1920,464,752,-9,65,-2
8790,-1904,448,752,-8,65,-3
8795,-1920,472,736,-8,65,-3
8800,-1920,432,776,-7,64,-3
8805,-1896,440,760,-8,63,-4
8810,-1944,472,752,-8,63,-2
8815,-1912,448,784,-8,63,-2
8820,-1912,456,744,-8,63,-3
8825,-1912,432,760,-8,63,-2
8830,-1912,472,752,-10,63,-2
8835,-1912,464,760,-8,63,-3
8840,-1888,440,744,-9,62,-3
8845,-1888,456,768,-9,63,-3
8850,-1904,464,736,-9,62,-3
8855,-1912,480,744,-8,62,-4
8860,-1896,472,744,-8,63,-2
8865,-1912,464,720,-8,62,-4
8870,-1912,448,768,-8,62,-4
8875,-1920,424,784,-7,63,-4
8880,-1904,440,760,-9,63,-4
8885,-1904,448,760,-9,62,-4
8890,-1912,448,760,-9,63,-4
8895,-1920,480,760,-9,62,-4
8900,-1896,464,768,-9,62,-4
8905,-1904,472,752,-11,63,-4
8910,-1912,464,760,-11,62,-4
8915,-1928,448,744,-11,62,-4
8920,-1912,472,784,-12,63,-5
8925,-1880,424,752,-11,61,-4
8930,-1896,432,752,-10,61,-3
8935,-1896,440,760,-11,59,-3
8940,-1920,464,760,-9,58,-3
8945,-1896,456,768,-8,59,-3
8950,-1920,488,768,-6,57,-3
8955,-1912,480,760,-6,59,-4
8960,-1928,456,768,-3,59,-5
8965,-1896,448,760,-1,59,-3
8970,-1896,464,752,3,61,-4
8975,-1920,480,776,0,61,-6
8980,-1912,448,760,0,60,-8
8985,-1864,400,776,0,63,-8
8990,-1912,456,744,-1,64,-8
8995,-1920,456,800,-2,63,-9
9000,-1936,448,760,-3,64,-7
9005,-1896,448,784,-4,62,-6
9010,-1904,424,768,-7,61,-4
9015,-1920,456,760,-7,61,-2
9020,-1912,456,720,-6,64,-2
9025,-1920,480,760,-4,63,-1
9030,-1904,464,752,-3,66,0
9035,-1896,456,720,-1,68,1
9040,-1888,448,744,0,69,2
9045,-1896,464,736,0,71,1
9050,-1912,464,752,0,72,2
9055,-1880,456,784,-1,73,2
9060,-1928,440,768,-3,74,1
9065,-1912,464,792,-4,72,1
9070,-1928,464,776,-4,71,-1
9075,-1896,464,752,-5,68,1
9080,-1904,456,784,-5,69,0
9085,-1912,472,792,-4,67,1
9090,-1904,464,776,-3,66,2
9095,-1912,512,760,-2,66,1
9100,-1912,480,768,-2,65,2
9105,-1904,472,768,-1,65,2
9110,-1896,440,768,1,63,1
9115,-1888,472,752,2,64,-1
9120,-1912,472,760,1,65,1
9125,-1928,456,768,3,66,0
9130,-1936,456,736,3,65,-2
9135,-1904,448,768,3,65,-1
9140,-1936,464,768,3,66,-3
9145,-1912,464,744,3,68,-3
9150,-1920,464,768,4,68,-5
9155,-1904,464,760,5,67,-6
9160,-1904,472,768,6,67,-6
9165,-1880,472,728,5,67,-4
9170,-1888,464,768,6,68,-5
9175,-1904,480,768,4,67,-5
9180,-1904,472,760,3,67,-5
9185,-1920,464,752,2,66,-6
9190,-1912,480,768,1,65,-6
9195,-1920,464,752,2,65,-6
9200,-1936,464,768,1,65,-5
9205,-1904,416,760,-2,64,-5
9210,-1896,456,768,-4,65,-4
9215,-1904,464,752,-5,66,-4
9220,-1904,464,760,-7,65,-4
9225,-1936,464,760,-8,63,-3
9230,-1928,448,752,-9,63,-4
9235,-1928,464,768,-9,62,-4
9240,-1904,464,752,-11,62,-4
9245,-1936,480,768,-11,61,-2
9250,-1904,480,752,-12,61,-4
9255,-1912,440,752,-14,62,-4
9260,-1920,464,768,-15,61,-3
9265,-1928,456,736,-15,61,-2
9270,-1920,440,760,-15,61,-2
9275,-1912,448,752,-13,60,-1
9280,-1904,472,752,-13,59,-1
9285,-1920,456,768,-11,59,0
9290,-1936,456,768,-11,60,2
9295,-1904,448,728,-9,61,1
9300,-1928,464,768,-9,61,0
9305,-1912,464,760,-9,61,0
9310,-1912,472,768,-8,62,0
9315,-1968,496,776,-9,63,-2
9320,-1920,464,776,-11,63,-3
9325,-1896,456,792,-12,64,-4
9330,-1904,464,784,-14,65,-5
9335,-1904,448,760,-14,64,-5
9340,-1880,456,792,-14,64,-4
9345,-1928,472,784,-15,64,-5
9350,-1896,464,744,-17,65,-5
9355,-1888,456,760,-17,62,-5
9360,-1896,456,752,-17,62,-5
9365,-1912,456,736,-18,62,-3
9370,-1904,440,744,-17,61,-3
9375,-1904,440,752,-17,62,-2
9380,-1928,464,768,-16,61,-3
9385,-1904,472,744,-14,61,-3
9390,-1896,440,744,-13,61,-3
9395,-1920,504,744,-16,60,-1
9400,-1888,432,752,-17,58,-1
9405,-1904,440,760,-18,61,-1
9410,-1920,480,760,-16,63,-2
9415,-1904,472,744,-14,64,-3
9420,-1928,504,688,-14,65,-4
9425,-1904,456,752,-15,64,-5
9430,-1920,480,760,-17,64,-4
9435,-1912,464,744,-17,64,-4
9440,-1896,448,776,-17,64,-4
9445,-1904,472,776,-15,64,-4
9450,-1920,464,784,-16,64,-3
9455,-1904,448,752,-18,66,-4
9460,-1920,456,776,-19,65,-4
9465,-1912,464,768,-20,65,-6
9470,-1912,472,760,-21,65,-7
9475,-1920,464,768,-20,66,-7
9480,-1912,480,768,-22,65,-6
9485,-1912,456,744,-22,65,-6
9490,-1912,480,752,-22,64,-6
9495,-1912,464,768,-22,65,-7
9500,-1904,456,768,-23,64,-7
9505,-1904,456,744,-23,64,-6
9510,-1880,464,776,-24,63,-6
9515,-1912,456,752,-24,62,-5
9520,-1912,456,760,-23,61,-5
9525,-1896,440,760,-25,62,-5
9530,-1832,456,808,-25,61,-5
9535,-1912,448,784,-25,61,-5
9540,-1920,464,784,-26,60,-4
9545,-1904,464,768,-28,60,-4
9550,-1912,448,776,-28,60,-4
9555,-1920,480,760,-27,58,-5
9560,-1904,472,776,-30,58,-5
9565,-1904,472,808,-30,56,-4
9570,-1912,464,760,-32,57,-4
9575,-1896,448,776,-33,56,-5
9580,-1920,488,760,-35,56,-4
9585,-1928,464,776,-35,56,-4
9590,-1904,456,768,-35,55,-5
9595,-1904,456,752,-37,54,-4
9600,-1896,448,768,-36,53,-4
9605,-1912,448,792,-37,53,-5
9610,-1904,456,784,-36,53,-3
9615,-1904,464,760,-36,52,-4
9620,-1904,472,776,-36,53,-3
9625,-1936,448,760,-35,53,-4
9630,-1912,464,776,-35,51,-4
9635,-1912,440,784,-35,53,-5
9640,-1864,464,784,-33,54,-5
9645,-1912,464,808,-31,54,-5
9650,-1896,464,768,-29,54,-7
9655,-1880,448,776,-29,56,-5
9660,-1896,464,768,-28,55,-5
9665,-1920,472,752,-25,55,-5
9670,-1912,448,768,-24,56,-6
9675,-1896,448,768,-25,56,-4
9680,-1904,472,768,-23,55,-4
9685,-1912,448,776,-24,55,-6
9690,-1896,456,792,-23,54,-5
9695,-1928,448,752,-23,55,-5
9700,-1912,440,792,-22,55,-5
9705,-1912,456,808,-22,55,-7
9710,-1912,448,792,-22,55,-7
9715,-1904,448,784,-22,55,-7
9720,-1912,464,760,-24,55,-8
9725,-1904,432,776,-23,55,-7
9730,-1936,472,792,-24,56,-8
9735,-1896,464,776,-24,56,-8
9740,-1912,456,752,-25,57,-8
9745,-1904,464,776,-25,57,-7
9750,-1912,400,760,-26,57,-8
9755,-1912,472,768,-26,55,-7
9760,-1912,472,752,-28,57,-7
9765,-1920,472,760,-29,57,-8
9770,-1912,440,784,-30,55,-8
9775,-1888,464,752,-30,56,-8
9780,-1904,448,768,-31,55,-6
9785,-1912,472,776,-31,56,-7
9790,-1912,472,800,-33,55,-6
9795,-1904,440,800,-34,54,-6
9800,-1896,448,736,-33,53,-4
9805,-1904,456,768,-31,52,-5
9810,-1912,464,784,-29,53,-5
9815,-1904,440,776,-26,53,-3
9820,-1920,480,760,-24,53,-4
9825,-1896,464,784,-23,54,-4
9830,-1912,448,784,-21,53,-5
9835,-1912,464,776,-20,54,-7
9840,-1880,424,776,-22,55,-8
9845,-1888,432,784,-21,55,-7
9850,-1896,424,776,-22,54,-6
9855,-1912,472,792,-22,55,-8
9860,-1896,464,800,-25,55,-9
9865,-1896,448,808,-28,55,-7
9870,-1904,456,784,-30,55,-8
9875,-1912,448,760,-35,56,-6
9880,-1920,448,776,-33,56,-4
9885,-1912,456,760,-33,57,-5
9890,-1912,464,784,-32,57,-5
9895,-1904,424,776,-30,60,-4
9900,-1904,448,792,-28,61,-4
9905,-1920,456,784,-27,61,-4
9910,-1888,448,800,-26,62,-3
9915,-1880,464,792,-26,63,-4
9920,-1904,440,800,-27,62,-6
9925,-1904,432,784,-28,63,-5
9930,-1896,424,792,-28,62,-5
9935,-1912,464,776,-28,60,-6
9940,-1896,440,776,-27,59,-4
9945,-1904,432,768,-25,56,-5
9950,-1928,464,784,-24,57,-4
9955,-1912,480,792,-24,58,-3
9960,-1920,464,784,-23,56,-3
9965,-1936,392,760,-21,57,-3
9970,-1904,456,760,-20,57,-4
9975,-1904,448,776,-19,58,-3
9980,-1904,456,800,-18,57,-4
9985,-1896,456,776,-18,57,-5
9990,-1896,448,792,-18,58,-6
9995,-1904,448,776,-17,59,-8
10000,-1888,440,776,-18,59,-8
10005,-1928,480,776,-17,59,-10
10010,-1904,472,768,-17,60,-10
10015,-1896,448,760,-18,58,-11
10020,-1912,448,784,-19,60,-11
10025,-1928,472,768,-19,61,-11
10030,-1904,456,792,-20,60,-11
10035,-1896,448,792,-21,60,-13
10040,-1912,440,800,-20,60,-11
10045,-1912,456,792,-22,60,-12
10050,-1904,456,784,-22,60,-12
10055,-1896,440,792,-23,59,-12
10060,-1864,432,768,-26,59,-12
10065,-1920,432,792,-27,59,-11
10070,-1888,432,776,-27,58,-11
10075,-1856,488,808,-27,56,-10
10080,-1912,448,776,-28,57,-10
10085,-1896,464,776,-29,57,-10
10090,-1904,424,784,-28,56,-9
10095,-1896,456,792,-29,55,-8
10100,-1920,480,736,-29,55,-7
10105,-1896,456,760,-29,56,-8
10110,-1904,440,792,-28,54,-7
10115,-1904,448,776,-28,55,-6
10120,-1896,432,816,-28,55,-5
10125,-1928,440,808,-27,56,-6
10130,-1920,448,760,-28,55,-5
10135,-1912,448,768,-27,55,-5
10140,-1912,424,768,-26,55,-4
10145,-1904,440,800,-24,56,-2
10150,-1896,432,776,-24,57,-3
10155,-1928,448,776,-23,56,-4
10160,-1912,456,784,-24,57,-3
10165,-1920,472,808,-24,57,-3
10170,-1912,432,792,-23,57,-4
10175,-1912,432,792,-24,56,-2
10180,-1912,456,816,-26,53,-2
10185,-1904,456,792,-28,53,-1
10190,-1920,464,792,-28,56,-2
10195,-1904,464,792,-29,56,-3
10200,-1896,456,792,-29,58,-4
10205,-1896,440,784,-30,58,-4
10210,-1904,424,792,-31,57,-5
10215,-1896,456,776,-32,56,-4
10220,-1896,440,784,-32,58,-3
10225,-1912,440,800,-32,58,-3
10230,-1896,464,792,-32,58,-2
10235,-1912,432,784,-31,58,-2
10240,-1912,456,800,-30,59,-3
10245,-1920,456,776,-29,59,-3
10250,-1912,456,784,-27,59,-4
10255,-1888,448,752,-27,60,-4
10260,-1896,448,784,-25,61,-4
10265,-1896,448,744,-24,62,-5
10270,-1880,440,808,-24,62,-3
10275,-1912,472,800,-24,64,-4
10280,-1912,464,792,-24,64,-3
10285,-1904,440,776,-23,65,-3
10290,-1896,456,792,-22,66,-4
10295,-1816,464,808,-21,65,-3
10300,-1904,456,768,-19,66,-4
10305,-1896,416,808,-18,64,-5
10310,-1888,464,760,-18,67,-4
10315,-1888,440,792,-17,67,-5
10320,-1912,448,800,-17,67,-4
10325,-1888,448,800,-17,66,-5
10330,-1896,432,744,-16,68,-5
10335,-1912,440,768,-16,66,-4
10340,-1888,456,792,-16,66,-3
10345,-1904,440,808,-15,67,-3
10350,-1888,432,800,-15,67,-2
10355,-1912,456,776,-13,66,-1
10360,-1912,456,792,-13,67,-1
10365,-1904,440,808,-13,66,-3
10370,-1896,432,784,-14,66,-2
10375,-1904,448,824,-13,66,-1
10380,-1896,456,768,-12,66,-1
10385,-1920,440,800,-12,65,0
10390,-1912,440,800,-12,65,0
10395,-1904,440,776,-11,66,0
10400,-1904,440,800,-10,65,-1
10405,-1872,408,824,-11,64,1
10410,-1904,440,816,-9,65,1
10415,-1912,448,784,-9,65,1
10420,-1920,440,784,-8,67,1
10425,-1912,456,800,-7,67,2
10430,-1872,432,744,-6,67,2
10435,-1920,440,816,-7,67,3
10440,-1912,432,776,-7,67,4
10445,-1912,440,784,-5,66,4
10450,-1904,448,792,-5,67,3
10455,-1872,448,792,-5,68,4
10460,-1872,472,792,-4,65,5
10465,-1904,448,800,-5,60,5
10470,-1912,424,792,-3,61,7
10475,-1904,448,776,-3,63,5
10480,-1888,472,784,-3,64,4
10485,-1880,424,808,-3,65,4
10490,-1920,464,792,-2,65,4
10495,-1896,464,776,-3,64,5
10500,-1912,440,800,-3,64,6
10505,-1920,464,784,-2,65,6
10510,-1888,456,832,-2,65,4
10515,-1888,456,784,-3,65,4
10520,-1912,456,760,-2,66,5
10525,-1880,440,784,-2,66,5
10530,-1880,448,784,-2,66,5
10535,-1904,448,800,-2,67,5
10540,-1920,464,792,-2,66,4
10545,-1888,432,776,-2,67,5
10550,-1888,448,832,-1,66,4
10555,-1896,456,784,-1,66,3
10560,-1896,464,808,-2,66,4
10565,-1912,448,792,-3,67,3
10570,-1888,424,792,-4,67,3
10575,-1904,456,800,-5,66,4
10580,-1912,448,784,-5,67,4
10585,-1872,464,768,-6,66,3
10590,-1888,448,784,-7,66,4
10595,-1904,440,760,-6,65,2
10600,-1920,440,784,-8,66,3
10605,-1896,432,792,-7,65,3
10610,-1896,464,792,-7,66,3
10615,-1920,464,768,-7,66,1
10620,-1928,440,712,-5,66,2
10625,-1912,432,784,-2,65,2
10630,-1888,456,776,2,64,2
10635,-1888,448,808,5,64,3
10640,-1904,448,808,6,64,2
10645,-1912,456,784,9,63,4
10650,-1904,432,776,10,63,3
10655,-1912,464,752,12,62,4
10660,-1904,448,776,13,60,2
10665,-1912,456,792,11,61,2
10670,-1888,440,808,9,61,2
10675,-1896,448,808,7,61,1
10680,-1880,456,792,3,62,0
10685,-1888,416,784,-1,63,0
10690,-1896,448,808,-3,63,2
10695,-1880,432,800,-5,63,4
10700,-1896,440,792,-6,63,6
10705,-1896,408,792,-5,64,6
10710,-1904,456,760,-2,65,8
10715,-1904,448,800,2,67,10
10720,-1936,464,760,5,67,11
10725,-1904,432,816,6,68,10
10730,-1888,456,808,8,67,10
10735,-1904,456,776,9,67,12
10740,-1904,456,808,9,67,10
10745,-1896,456,824,12,66,10
10750,-1880,432,784,16,65,8
10755,-1920,464,800,17,62,9
10760,-1904,440,800,15,61,10
10765,-1880,456,784,14,60,10
10770,-1896,464,808,12,58,8
10775,-1896,456,792,10,58,8
10780,-1920,480,768,10,60,7
10785,-1904,456,792,12,58,7
10790,-1896,472,768,14,60,7
10795,-1872,440,776,16,61,7
10800,-1912,464,768,17,61,6
10805,-1912,464,768,19,61,6
10810,-1912,448,776,19,62,7
10815,-1912,472,800,19,61,6
10820,-1880,448,800,19,61,6
10825,-1920,448,784,19,63,4
10830,-1896,448,792,18,64,5
10835,-1888,472,808,19,63,5
10840,-1880,472,824,17,62,5
10845,-1904,472,784,17,63,4
10850,-1880,448,784,16,62,3
10855,-1880,448,792,15,63,2
10860,-1896,448,776,13,64,1
10865,-1912,440,776,13,64,1
10870,-1904,448,784,13,65,2
10875,-1896,448,784,12,66,4
10880,-1896,472,808,12,64,4
10885,-1888,464,752,13,67,5
10890,-1904,472,784,14,67,4
10895,-1920,488,776,13,65,6
10900,-1912,448,792,12,65,8
10905,-1896,456,808,12,64,10
10910,-1896,480,800,13,63,9
10915,-1896,480,808,12,61,8
10920,-1904,464,816,9,61,8
10925,-1904,464,816,7,61,7
10930,-1912,456,816,5,61,7
10935,-1896,456,816,5,62,6
10940,-1920,488,784,3,61,5
10945,-1928,480,792,3,62,5
10950,-1896,456,776,2,62,5
10955,-1888,456,792,1,62,6
10960,-1904,464,808,1,63,7
10965,-1896,464,800,0,62,7
10970,-1912,464,784,2,63,5
10975,-1888,464,784,3,63,6
10980,-1872,472,776,2,65,4
10985,-1912,456,792,3,65,4
10990,-1896,464,808,3,66,3
10995,-1888,472,760,3,65,4
11000,-1912,456,792,3,68,3
11005,-1888,440,816,3,68,2
11010,-1896,480,784,4,66,1
11015,-1912,480,816,3,66,-1
11020,-1912,464,792,2,67,0
11025,-1872,448,776,1,69,0
11030,-1896,472,784,2,68,0
11035,-1896,448,832,2,69,-1
11040,-1864,440,776,2,67,-2
11045,-1904,488,800,3,68,-1
11050,-1888,456,792,3,67,1
11055,-1832,480,768,5,68,0
11060,-1872,456,784,6,66,2
11065,-1880,472,808,7,66,1
11070,-1888,456,808,6,67,0
11075,-1896,472,800,7,68,1
11080,-1896,480,784,8,67,0
11085,-1904,480,792,8,68,1
11090,-1896,440,800,8,68,1
11095,-1888,472,792,8,66,1
11100,-1896,480,792,8,67,0
11105,-1888,440,800,8,69,0
11110,-1880,488,800,7,68,2
11115,-1888,456,784,5,68,1
11120,-1896,480,816,4,68,0
11125,-1896,448,784,3,67,0
11130,-1904,448,792,2,68,-1
11135,-1896,464,776,2,67,-1
11140,-1912,456,776,2,68,-1
11145,-1888,464,784,0,67,-1
11150,-1888,464,792,0,66,-2
11155,-1920,480,792,0,66,-2
11160,-1896,488,800,-1,66,-1
11165,-1848,472,752,0,68,-2
11170,-1896,464,792,-1,66,-2
11175,-1904,456,792,-1,67,0
11180,-1888,456,784,-1,67,0
11185,-1896,488,776,-1,67,0
11190,-1896,448,824,-1,66,-2
11195,-1904,464,816,0,66,2
11200,-1880,456,784,-2,66,2
11205,-1912,472,792,-1,65,1
11210,-1888,472,760,-1,66,1
11215,-1944,472,784,-1,66,1
11220,-1896,456,800,-1,66,0
11225,-1896,472,800,1,64,1
11230,-1896,464,784,0,65,1
11235,-1904,472,776,1,66,1
11240,-1912,472,808,0,65,1
11245,-1912,456,784,-1,66,0
11250,-1896,496,800,-1,66,1
11255,-1888,456,816,-1,66,0
11260,-1912,504,768,-2,67,0
11265,-1896,472,784,-2,66,-1
11270,-1880,456,824,-3,67,0
11275,-1904,424,784,-4,67,0
11280,-1896,488,816,-4,67,0
11285,-1896,456,792,-5,64,-1
11290,-1912,480,752,-6,64,-2
11295,-1904,456,792,-4,66,-1
11300,-1904,472,800,-4,65,-1
11305,-1880,440,784,-4,65,0
11310,-1896,456,792,-4,66,0
11315,-1904,472,800,-5,67,-1
11320,-1896,456,808,-5,67,-1
11325,-1896,480,760,-4,67,0
11330,-1896,464,832,-4,66,0
11335,-1904,472,800,-4,65,-2
11340,-1880,464,800,-5,66,-1
11345,-1912,480,800,-4,67,-2
11350,-1912,496,808,-3,66,0
11355,-1912,488,816,-4,66,-1
11360,-1904,464,768,-4,66,-1
11365,-1920,480,800,-4,67,-1
11370,-1920,480,784,-5,67,-3
11375,-1872,456,808,-5,66,-3
11380,-1912,456,816,-7,66,-1
11385,-1864,512,832,-7,67,-1
11390,-1888,480,808,-6,67,-3
11395,-1880,488,824,-6,67,-4
11400,-1904,464,800,-5,66,-2
11405,-1880,456,784,-7,66,-3
11410,-1896,464,792,-7,66,-2
11415,-1912,480,792,-8,66,-2
11420,-1904,472,792,-8,67,-3
11425,-1896,472,816,-9,66,-2
11430,-1880,456,800,-9,66,-2
11435,-1896,464,784,-11,65,-2
11440,-1904,480,816,-11,64,-2
11445,-1880,456,760,-9,64,-1
11450,-1904,496,792,-9,65,-2
11455,-1904,488,776,-6,65,-2
11460,-1920,488,808,-5,65,-1
11465,-1880,472,792,-5,65,-3
11470,-1912,464,784,-3,64,-2
11475,-1888,480,800,-1,66,-3
11480,-1904,464,760,1,65,-3
11485,-1896,472,784,1,65,-4
11490,-1912,432,864,0,65,-4
11495,-1920,464,808,-1,66,-3
11500,-1904,464,800,-4,66,-3
11505,-1896,464,808,-6,65,-2
11510,-1880,472,800,-7,65,-2
11515,-1904,472,824,-9,66,0
11520,-1888,440,800,-9,65,0
11525,-1872,464,792,-8,65,2
11530,-1904,464,768,-4,66,3
11535,-1912,464,792,-1,69,5
11540,-1904,496,776,1,71,4
11545,-1936,472,736,2,72,4
11550,-1896,488,792,4,73,4
11555,-1904,472,776,5,74,5
11560,-1896,456,800,5,74,5
11565,-1880,456,792,6,73,4
11570,-1912,480,808,6,72,5
11575,-1904,480,800,6,72,4
11580,-1888,488,800,6,68,4
11585,-1896,472,768,6,65,4
11590,-1880,464,800,4,63,4
11595,-1888,488,776,4,64,3
11600,-1960,456,752,3,64,5
11605,-1920,464,800,3,63,1
11610,-1912,480,800,4,62,2
11615,-1888,488,784,4,65,2
11620,-1904,488,784,4,65,1
11625,-1904,480,784,6,66,0
11630,-1904,464,808,5,67,1
11635,-1912,488,792,7,67,1
11640,-1872,456,776,7,67,-1
11645,-1912,472,824,7,71,-1
11650,-1896,472,832,12,70,2
11655,-1904,472,792,11,69,-1
11660,-1888,480,816,8,69,-4
11665,-1896,472,800,4,67,-5
11670,-1896,488,792,1,65,-5
11675,-1888,456,784,1,66,-7
11680,-1896,496,800,0,65,-6
11685,-1888,464,800,-2,67,-7
11690,-1896,480,816,-4,66,-6
11695,-1888,464,792,-6,66,-6
11700,-1904,480,768,-7,67,-6
11705,-1896,464,808,-8,64,-7
11710,-1888,488,824,-9,65,-6
11715,-1888,464,784,-11,64,-4
11720,-1912,488,808,-13,63,-4
11725,-1912,472,816,-14,64,-4
11730,-1888,488,792,-15,62,-4
11735,-1896,472,784,-17,62,-3
11740,-1904,472,800,-16,62,-5
11745,-1888,480,776,-15,63,-4
11750,-1888,480,792,-18,62,-3
11755,-1880,464,784,-19,62,-4
11760,-1912,456,776,-19,61,-3
11765,-1880,472,800,-18,61,-2
11770,-1904,472,800,-18,61,-4
11775,-1904,432,808,-18,62,-1
11780,-1888,464,800,-17,61,-2
11785,-1880,464,800,-16,62,-3
11790,-1904,440,784,-15,61,-2
11795,-1904,464,792,-15,60,-2
11800,-1920,488,824,-14,61,-2
11805,-1896,496,792,-14,61,-2
11810,-1904,496,808,-13,61,-1
11815,-1880,456,784,-13,61,-2
11820,-1944,480,816,-13,62,-2
11825,-1896,480,800,-15,63,-3
11830,-1896,480,816,-16,62,-5
11835,-1920,488,832,-17,64,-4
11840,-1904,464,824,-17,63,-5
11845,-1888,456,800,-20,63,-5
11850,-1872,456,816,-20,63,-6
11855,-1912,472,808,-21,63,-6
11860,-1896,488,800,-21,63,-4
11865,-1912,472,800,-21,63,-4
11870,-1896,464,784,-22,64,-3
11875,-1880,472,832,-22,63,-1
11880,-1888,472,776,-21,62,-2
11885,-1888,464,800,-21,63,-3
11890,-1888,448,776,-19,63,-2
11895,-1880,448,792,-19,62,-3
11900,-1896,480,784,-20,62,-3
11905,-1896,488,800,-18,62,-3
11910,-1904,472,792,-18,62,-2
11915,-1880,464,800,-18,63,-2
11920,-1880,464,792,-17,64,-3
11925,-1880,464,808,-17,65,-3
11930,-1960,432,832,-17,65,-3
11935,-1904,480,808,-18,65,-4
11940,-1888,464,832,-18,65,-5
11945,-1880,456,784,-18,65,-5
11950,-1880,472,800,-19,64,-4
11955,-1904,480,800,-20,64,-5
11960,-1888,488,792,-20,64,-5
11965,-1920,472,792,-21,64,-6
11970,-1896,480,800,-21,64,-7
11975,-1896,480,824,-21,64,-7
11980,-1888,448,784,-23,64,-8
11985,-1880,472,784,-21,64,-9
11990,-1912,472,792,-21,66,-9
11995,-1904,480,776,-20,65,-9
12000,-1896,472,768,-20,64,-9
12005,-1888,480,792,-20,64,-9
12010,-1896,464,816,-19,65,-8
12015,-1904,472,800,-20,65,-9
12020,-1912,480,800,-19,64,-7
12025,-1904,464,800,-21,65,-7
12030,-1888,480,800,-21,64,-8
12035,-1968,344,768,-21,64,-8
12040,-1896,480,800,-23,64,-9
12045,-1872,456,800,-23,61,-10
12050,-1896,480,800,-25,62,-9
12055,-1896,456,784,-27,62,-8
12060,-1896,464,776,-29,63,-9
12065,-1888,448,816,-30,63,-10
12070,-1872,472,784,-30,61,-9
12075,-1904,464,776,-31,61,-9
12080,-1896,456,824,-30,61,-8
12085,-1888,456,808,-30,60,-8
12090,-1896,448,784,-31,60,-9
12095,-1888,488,816,-33,59,-10
12100,-1880,464,792,-34,61,-9
12105,-1912,488,792,-34,61,-9
12110,-1896,472,808,-34,60,-8
12115,-1912,464,792,-35,60,-8
12120,-1896,440,760,-35,60,-9
12125,-1896,464,832,-34,59,-9
12130,-1888,448,800,-35,58,-8
12135,-1864,472,776,-35,58,-8
12140,-1904,480,792,-34,59,-8
12145,-1872,496,808,-34,59,-8
12150,-1896,464,824,-34,58,-7
12155,-1888,472,784,-32,58,-7
12160,-1904,464,808,-33,59,-7
12165,-1896,448,808,-31,58,-7
12170,-1904,456,832,-32,59,-5
12175,-1912,480,816,-33,60,-7
12180,-1896,464,792,-31,59,-9
12185,-1904,464,792,-31,59,-8
12190,-1888,472,816,-30,59,-8
12195,-1896,472,840,-29,60,-8
12200,-1904,472,800,-28,60,-9
12205,-1904,488,824,-29,61,-10
12210,-1912,456,784,-28,61,-8
12215,-1888,432,800,-28,62,-9
12220,-1880,456,800,-27,61,-9
12225,-1872,456,816,-25,62,-9
12230,-1912,456,808,-27,63,-10
12235,-1904,472,776,-26,63,-10
12240,-1888,456,792,-25,63,-9
12245,-1888,464,832,-26,63,-9
12250,-1912,480,816,-27,62,-10
12255,-1872,480,776,-27,62,-9
12260,-1896,456,824,-28,62,-10
12265,-1888,456,808,-29,61,-10
12270,-1896,448,840,-30,60,-9
12275,-1920,464,784,-30,59,-10
12280,-1880,440,808,-31,59,-10
12285,-1888,472,816,-33,58,-10
12290,-1896,464,816,-34,58,-10
12295,-1896,472,792,-33,58,-9
12300,-1896,456,752,-30,57,-8
12305,-1880,480,800,-28,57,-7
12310,-1888,472,792,-26,57,-7
12315,-1896,464,792,-22,57,-9
12320,-1888,472,824,-19,57,-7
12325,-1864,456,776,-16,58,-8
12330,-1888,456,784,-14,60,-9
12335,-1880,472,832,-13,59,-9
12340,-1896,448,808,-13,59,-9
12345,-1896,448,816,-15,59,-10
12350,-1888,448,816,-16,61,-9
12355,-1904,440,816,-20,61,-9
12360,-1888,440,824,-24,60,-10
12365,-1912,432,800,-26,59,-9
12370,-1880,440,800,-30,60,-8
12375,-1904,472,824,-33,59,-8
12380,-1896,432,800,-33,59,-5
12385,-1880,472,832,-32,59,-5
12390,-1896,456,808,-30,61,-4
12395,-1888,448,792,-27,63,-5
12400,-1896,480,784,-25,64,-4
12405,-1896,464,792,-22,66,-3
12410,-1904,488,784,-20,64,-3
12415,-1904,448,840,-20,62,-4
12420,-1888,464,800,-19,62,-5
12425,-1888,480,816,-17,62,-5
12430,-1896,456,800,-14,61,-6
12435,-1888,440,808,-14,60,-6
12440,-1896,448,816,-14,61,-7
12445,-1888,472,792,-12,60,-6
12450,-1880,464,792,-11,59,-7
12455,-1880,448,824,-12,58,-7
12460,-1880,456,808,-13,59,-7
12465,-1896,464,824,-14,58,-9
12470,-1904,544,808,-17,59,-10
12475,-1896,456,792,-18,60,-11
12480,-1888,456,816,-20,60,-13
12485,-1920,488,824,-23,60,-12
12490,-1896,456,808,-27,59,-12
12495,-1896,472,784,-28,60,-14
12500,-1896,472,816,-30,60,-16
12505,-1896,440,832,-30,60,-17
12510,-1888,472,832,-32,60,-17
12515,-1880,456,800,-32,60,-17
12520,-1880,448,824,-33,60,-16
12525,-1896,464,832,-33,62,-16
12530,-1880,448,808,-34,59,-16
12535,-1880,448,832,-35,59,-15
12540,-1888,456,800,-35,58,-16
12545,-1888,456,816,-35,57,-15
12550,-1872,448,784,-36,56,-14
12555,-1872,464,808,-36,57,-13
12560,-1912,464,840,-37,56,-12
12565,-1880,448,784,-37,56,-11
12570,-1872,464,840,-39,56,-11
12575,-1872,432,792,-40,57,-11
12580,-1896,472,832,-39,55,-9
12585,-1888,456,808,-38,56,-10
12590,-1872,448,800,-38,55,-9
12595,-1920,472,808,-38,55,-9
12600,-1904,456,824,-38,55,-10
12605,-1888,448,808,-36,56,-10
12610,-1928,432,800,-35,56,-9
12615,-1880,432,848,-36,56,-9
12620,-1888,440,784,-36,56,-9
12625,-1880,448,824,-35,57,-9
12630,-1880,432,816,-35,56,-7
12635,-1896,456,840,-35,58,-8
12640,-1888,440,800,-35,57,-7
12645,-1904,440,832,-34,57,-6
12650,-1904,456,816,-33,58,-6
12655,-1904,432,848,-32,59,-6
12660,-1888,456,808,-31,59,-5
12665,-1880,432,792,-32,61,-5
12670,-1880,440,800,-33,59,-6
12675,-1904,440,824,-33,59,-7
12680,-1872,424,808,-35,60,-7
12685,-1872,456,840,-36,60,-8
12690,-1888,424,880,-37,60,-6
12695,-1872,432,832,-40,59,-7
12700,-1888,464,800,-40,60,-7
12705,-1888,448,832,-42,59,-7
12710,-1896,416,800,-42,58,-6
12715,-1896,456,816,-43,58,-7
12720,-1904,456,808,-42,57,-7
12725,-1880,440,832,-41,58,-6
12730,-1888,464,824,-38,59,-3
12735,-1896,472,792,-37,58,-3
12740,-1896,472,824,-36,58,-4
12745,-1920,440,800,-33,58,-3
12750,-1888,464,848,-32,60,-3
12755,-1872,424,824,-30,61,-2
12760,-1896,448,824,-28,61,-4
12765,-1872,432,840,-26,61,-4
12770,-1896,456,832,-27,62,-4
12775,-1896,432,840,-27,62,-4
12780,-1880,424,840,-27,62,-4
12785,-1888,448,832,-27,63,-5
12790,-1872,416,848,-28,62,-5
12795,-1888,440,856,-30,61,-5
12800,-1896,472,832,-28,63,-6
12805,-1928,464,768,-29,63,-6
12810,-1896,432,816,-28,63,-8
12815,-1888,440,824,-28,65,-8
12820,-1880,448,832,-28,66,-8
12825,-1912,448,800,-28,66,-6
12830,-1888,440,824,-28,64,-6
12835,-1912,440,800,-28,64,-6
12840,-1896,448,816,-27,65,-5
12845,-1888,472,808,-27,65,-5
12850,-1872,448,800,-25,65,-4
12855,-1896,456,816,-24,65,-5
12860,-1872,440,832,-23,66,-5
12865,-1896,456,816,-21,65,-4
12870,-1880,440,792,-21,65,-2
12875,-1904,448,816,-18,66,-2
12880,-1904,440,832,-17,65,-3
12885,-1880,464,816,-16,64,-2
12890,-1896,456,840,-16,66,0
12895,-1888,424,824,-16,65,-1
12900,-1888,456,824,-16,64,-2
12905,-1904,448,824,-15,64,-1
12910,-1848,504,792,-14,65,-1
12915,-1888,456,832,-15,65,-1
12920,-1888,432,840,-14,67,0
12925,-1904,448,800,-12,67,0
12930,-1872,432,840,-12,67,-1
12935,-1896,448,800,-12,67,0
12940,-1896,464,840,-11,66,1
12945,-1912,448,824,-9,67,1
12950,-1896,456,816,-9,67,2
12955,-1888,456,792,-8,66,2
12960,-1888,448,808,-7,66,2
12965,-1872,448,824,-7,66,3
12970,-1880,440,816,-6,66,3
12975,-1880,456,824,-3,65,3
12980,-1904,448,784,-4,67,4
12985,-1888,448,824,-3,66,4
12990,-1856,440,816,-3,66,4
12995,-1880,432,832,-1,66,4
13000,-1896,432,832,-1,68,4
13005,-1880,432,816,-1,68,5
13010,-1888,464,824,-1,69,4
13015,-1888,384,808,-1,69,5
13020,-1880,456,816,-1,69,4
13025,-1896,472,816,-2,69,6
13030,-1888,440,848,-2,69,5
13035,-1888,448,832,-2,69,6
13040,-1888,440,808,-3,70,6
13045,-1880,440,816,-3,70,6
13050,-1880,456,816,-3,70,4
13055,-1880,464,808,-2,71,5
13060,-1888,456,816,-3,70,5
13065,-1904,440,832,-4,71,5
13070,-1888,440,792,-2,70,5
13075,-1888,448,840,-2,70,6
13080,-1896,464,800,-1,71,6
13085,-1880,448,800,1,70,5
13090,-1872,448,816,1,70,5
13095,-1880,448,808,3,69,7
13100,-1896,488,784,5,70,8
13105,-1904,456,816,8,69,6
13110,-1880,440,792,11,70,6
13115,-1896,448,840,14,71,5
13120,-1888,456,840,17,72,6
13125,-1936,432,816,17,71,6
13130,-1896,456,824,19,72,5
13135,-1888,464,832,20,72,4
13140,-1888,456,784,19,72,2
13145,-1880,448,808,16,71,1
13150,-1880,448,840,13,73,1
13155,-1872,432,840,9,73,0
13160,-1864,440,824,4,72,1
13165,-1888,432,832,-1,71,2
13170,-1872,440,832,-4,71,3
13175,-1888,432,848,-7,71,3
13180,-1896,456,832,-6,71,4
13185,-1904,448,800,-5,71,5
13190,-1896,480,784,-2,72,5
13195,-1888,464,800,1,74,7
13200,-1864,440,808,5,75,7
13205,-1896,464,816,7,77,7
13210,-1880,448,800,8,78,9
13215,-1880,464,816,9,76,8
13220,-1904,472,808,9,75,8
13225,-1896,472,832,10,74,8
13230,-1888,488,816,9,73,7
13235,-1888,384,824,8,72,8
13240,-1896,448,816,9,70,8
13245,-1888,432,792,8,69,6
13250,-1880,456,776,5,68,7
13255,-1888,464,808,6,68,8
13260,-1896,472,824,8,68,7
13265,-1888,456,808,8,69,7
13270,-1920,464,816,8,70,6
13275,-1896,464,824,9,69,5
13280,-1920,472,800,10,68,4
13285,-1912,448,808,10,70,6
13290,-1920,464,816,11,70,4
13295,-1888,464,832,11,71,4
13300,-1904,432,816,11,71,3
13305,-1880,456,824,11,72,3
13310,-1864,464,800,11,71,1
13315,-1904,464,800,12,72,0
13320,-1904,472,832,11,71,0
13325,-1888,456,816,11,70,-2
13330,-1912,456,824,11,71,0
13335,-1888,448,832,10,71,1
13340,-1888,472,824,10,71,-1
13345,-1840,464,840,10,70,-1
13350,-1896,488,824,10,70,0
13355,-1912,456,800,10,70,0
13360,-1896,448,800,9,69,0
13365,-1896,456,832,10,71,3
13370,-1880,448,808,9,70,3
13375,-1888,480,784,8,69,2
13380,-1864,448,816,8,68,3
13385,-1896,488,816,8,68,3
13390,-1880,464,816,8,68,4
13395,-1880,432,832,8,66,5
13400,-1888,448,816,7,66,5
13405,-1880,440,832,6,66,5
13410,-1888,448,840,6,67,4
13415,-1888,456,824,3,65,4
13420,-1904,472,800,2,65,4
13425,-1896,480,808,3,66,3
13430,-1864,432,824,1,66,4
13435,-1896,464,824,1,66,4
13440,-1904,456,816,2,65,6
13445,-1896,464,800,2,65,6
13450,-1888,464,840,3,65,6
13455,-1928,408,768,3,62,10
13460,-1872,440,808,5,64,9
13465,-1880,472,808,5,64,7
13470,-1896,472,816,4,66,7
13475,-1904,456,808,6,67,7
13480,-1904,472,800,4,69,4
13485,-1888,488,792,5,69,5
13490,-1904,480,800,4,69,5
13495,-1872,472,840,4,69,5
13500,-1896,488,784,4,68,6
13505,-1888,456,848,4,68,6
13510,-1896,456,824,4,67,5
13515,-1920,488,816,5,67,3
13520,-1904,456,816,5,68,4
13525,-1896,480,824,7,67,4
13530,-1888,472,832,8,68,4
13535,-1904,456,800,7,68,4
13540,-1880,464,808,9,69,4
13545,-1880,448,840,11,69,4
13550,-1880,456,824,11,69,4
13555,-1888,456,832,12,70,3
13560,-1888,384,752,12,71,3
13565,-1896,472,800,13,70,2
13570,-1856,448,792,13,71,4
13575,-1904,464,824,12,71,2
13580,-1888,472,832,13,71,3
13585,-1872,464,824,13,70,4
13590,-1904,488,840,11,73,2
13595,-1920,480,784,10,70,1
13600,-1888,472,840,10,70,1
13605,-1904,464,800,10,69,2
13610,-1888,472,808,10,68,0
13615,-1864,464,808,8,66,0
13620,-1912,480,808,9,65,1
13625,-1896,464,824,9,64,1
13630,-1888,472,792,9,67,1
13635,-1896,456,800,7,68,-1
13640,-1888,472,808,7,68,1
13645,-1864,440,792,6,68,1
13650,-1888,456,832,5,69,2
13655,-1896,472,816,4,67,0
13660,-1888,472,824,3,67,2
13665,-1896,456,800,2,66,2
13670,-1880,456,776,1,67,1
13675,-1896,472,816,1,65,3
13680,-1880,456,800,1,67,2
13685,-1904,496,800,2,67,1
13690,-1880,488,800,1,65,2
13695,-1888,472,824,1,66,3
13700,-1880,472,800,1,67,1
13705,-1896,472,832,2,66,2
13710,-1888,472,808,1,66,1
13715,-1904,472,800,1,66,1
13720,-1904,464,800,-1,67,2
13725,-1864,480,816,0,67,1
13730,-1896,448,824,0,66,1
13735,-1888,456,816,1,65,3
13740,-1896,464,840,0,67,2
13745,-1864,456,800,-2,67,1
13750,-1912,456,808,-2,67,0
13755,-1888,472,784,-3,66,1
13760,-1880,448,808,-3,66,0
13765,-1904,488,824,-3,66,0
13770,-1880,480,808,-3,65,1
13775,-1896,464,824,-2,66,0
13780,-1912,456,848,-2,65,1
13785,-1888,496,832,-2,65,3
13790,-1880,464,840,-1,65,1
13795,-1896,504,816,-1,66,-1
13800,-1864,456,832,-1,67,0
13805,-1872,456,808,-1,67,1
13810,-1896,464,824,1,68,2
13815,-1880,456,792,2,66,1
13820,-1896,472,808,3,67,1
13825,-1880,480,832,2,67,1
13830,-1904,488,800,2,68,0
13835,-1896,488,824,2,66,-1
13840,-1880,480,824,4,67,-1
13845,-1880,472,800,3,67,0
13850,-1880,472,816,2,67,0
13855,-1904,488,824,1,68,0
13860,-1888,464,808,1,68,-1
13865,-1896,480,808,0,69,-2
13870,-1872,464,792,1,69,-1
13875,-1872,464,816,-1,68,-1
13880,-1880,488,808,-2,68,-1
13885,-1864,464,800,-2,67,0
13890,-1888,440,792,-3,69,0
13895,-1880,448,800,-6,68,0
13900,-1896,456,808,-5,68,0
13905,-1888,448,816,-6,67,-1
13910,-1880,472,784,-5,67,0
13915,-1904,456,784,-6,67,0
13920,-1904,496,792,-5,65,0
13925,-1872,456,808,-4,65,0
13930,-1896,504,784,-3,66,1
13935,-1896,472,816,0,65,1
13940,-1880,464,816,2,67,2
13945,-1880,440,776,3,66,0
13950,-1904,480,808,5,66,0
13955,-1880,472,792,7,66,0
13960,-1896,488,800,7,68,-1
13965,-1872,440,784,7,68,-1
13970,-1880,456,832,6,68,-1
13975,-1872,480,840,5,68,-1
13980,-1888,464,832,1,68,-1
13985,-1904,456,816,-2,69,-2
13990,-1872,464,784,-4,68,0
13995,-1880,488,784,-5,68,1
14000,-1872,440,824,-3,69,3
14005,-1880,464,800,-1,69,4
14010,-1888,464,800,1,71,3
14015,-1888,480,800,4,72,5
14020,-1872,456,808,6,72,5
14025,-1912,472,808,9,74,5
14030,-1888,464,848,11,74,5
14035,-1864,496,808,10,73,5
14040,-1880,480,824,11,73,6
14045,-1888,472,784,10,71,7
14050,-1888,480,824,9,70,6
14055,-1888,464,824,7,70,5
14060,-1888,488,840,6,69,5
14065,-1896,480,792,4,69,4
14070,-1888,488,824,3,70,4
14075,-1888,480,832,3,69,4
14080,-1888,488,824,3,68,5
14085,-1880,480,840,4,67,2
14090,-1896,488,800,4,69,2
14095,-1872,464,808,5,67,1
14100,-1904,480,816,5,69,3
14105,-1912,456,848,7,69,1
14110,-1880,480,800,8,68,0
14115,-1872,472,792,8,69,0
14120,-1880,464,808,9,71,-2
14125,-1872,472,832,9,68,-1
14130,-1872,480,816,8,69,-4
14135,-1896,488,800,9,69,-4
14140,-1896,488,808,8,68,-5
14145,-1856,488,800,9,68,-5
14150,-1888,472,800,8,67,-5
14155,-1880,488,800,9,68,-6
14160,-1904,464,808,8,67,-6
14165,-1912,496,808,7,67,-6
14170,-1880,472,816,6,67,-4
14175,-1888,464,824,7,67,-5
14180,-1888,488,824,6,69,-5
14185,-1872,488,816,4,69,-4
14190,-1888,488,808,3,69,-4
14195,-1856,480,792,2,68,-3
14200,-1896,464,808,-1,68,-2
14205,-1880,472,816,-1,67,-2
14210,-1904,480,832,-3,68,-1
14215,-1920,400,816,-3,66,-1
14220,-1888,480,816,-3,65,0
14225,-1896,480,832,-3,65,0
14230,-1888,496,808,-4,64,-1
14235,-1912,480,800,-5,64,-1
14240,-1872,472,808,-7,64,1
14245,-1896,488,832,-7,63,0
14250,-1880,464,832,-8,63,1
14255,-1888,472,816,-9,62,0
14260,-1896,464,840,-8,64,1
14265,-1856,448,816,-7,63,0
14270,-1872,488,824,-6,65,0
14275,-1872,472,816,-5,66,1
14280,-1888,472,800,-4,66,1
14285,-1904,464,816,-3,66,2
14290,-1880,496,808,-2,67,0
14295,-1888,472,800,-2,67,2
14300,-1872,496,792,-2,67,0
14305,-1888,496,816,-3,68,0
14310,-1888,480,816,-3,69,-1
14315,-1904,472,808,-2,70,-2
14320,-1888,480,816,-2,70,-3
14325,-1904,504,888,-2,69,-1
14330,-1888,472,824,-3,70,-1
14335,-1880,472,808,-3,70,-2
14340,-1880,496,792,-3,69,-2
14345,-1864,464,816,-3,70,-1
14350,-1880,488,808,-4,70,-1
14355,-1872,488,824,-4,69,0
14360,-1864,480,800,-4,69,-1
14365,-1880,464,816,-3,69,1
14370,-1872,472,800,-3,68,2
14375,-1864,504,792,-3,69,2
14380,-1896,464,792,-3,69,2
14385,-1880,480,816,-3,68,2
14390,-1888,496,816,-3,69,1
14395,-1880,464,808,-2,71,1
14400,-1888,480,792,-3,71,1
14405,-1888,504,808,-4,70,0
14410,-1872,488,824,-3,69,1
14415,-1896,488,816,-4,70,-1
14420,-1904,488,808,-5,71,-1
14425,-1880,488,824,-5,70,0
14430,-1896,456,824,-7,70,-1
14435,-1888,392,704,-7,70,-2
14440,-1896,472,808,-9,69,-2
14445,-1888,488,824,-9,68,-3
14450,-1912,488,792,-9,68,-4
14455,-1904,488,824,-9,69,-2
14460,-1880,472,776,-9,69,-3
14465,-1904,480,784,-10,68,-3
14470,-1880,488,800,-11,69,-2
14475,-1872,464,840,-12,69,-3
14480,-1880,472,808,-10,68,-3
14485,-1888,488,808,-11,67,-2
14490,-1880,464,816,-11,67,-3
14495,-1880,512,832,-10,67,-2
14500,-1896,488,808,-11,65,-2
14505,-1872,472,808,-10,66,-2
14510,-1896,464,800,-9,65,-1
14515,-1888,480,800,-9,65,-2
14520,-1888,472,808,-9,65,-3
14525,-1904,472,784,-10,64,-3
14530,-1896,504,808,-10,64,-3
14535,-1880,488,832,-11,65,-3
14540,-1904,488,768,-10,65,-4
14545,-1888,480,816,-11,64,-4
14550,-1904,496,832,-10,65,-3
14555,-1864,456,800,-12,65,-4
14560,-1912,472,808,-12,65,-4
14565,-1880,496,800,-13,65,-4
14570,-1896,480,824,-14,65,-4
14575,-1888,480,800,-14,66,-4
14580,-1880,488,824,-14,65,-4
14585,-1888,472,816,-14,64,-3
14590,-1904,496,808,-14,65,-4
14595,-1872,472,824,-13,64,-3
14600,-1856,488,808,-13,65,-3
14605,-1888,488,800,-14,66,-3
14610,-1880,480,800,-13,66,-2
14615,-1872,464,832,-13,64,-3
14620,-1888,472,816,-15,65,-2
14625,-1864,464,848,-13,64,-3
14630,-1888,496,808,-14,64,-2
14635,-1872,480,768,-14,65,-3
14640,-1872,488,824,-14,65,-3
14645,-1880,472,792,-14,64,-3
14650,-1864,520,784,-14,65,-3
14655,-1880,480,848,-14,66,-4
14660,-1872,480,808,-15,64,-3
14665,-1896,480,800,-16,66,-3
14670,-1872,464,800,-16,65,-3
14675,-1888,504,800,-16,65,-4
14680,-1872,472,832,-16,65,-5
14685,-1872,496,816,-17,65,-3
14690,-1888,488,816,-17,64,-6
14695,-1864,480,808,-17,65,-3
14700,-1888,480,816,-18,66,-4
14705,-1888,464,832,-18,65,-4
14710,-1904,480,800,-17,65,-5
14715,-1888,488,792,-16,66,-6
14720,-1904,480,792,-16,65,-3
14725,-1912,488,808,-17,65,-4
14730,-1872,480,808,-17,66,-7
14735,-1904,480,784,-19,66,-6
14740,-1888,480,808,-18,66,-6
14745,-1904,488,824,-19,67,-7
14750,-1896,488,832,-21,67,-6
14755,-1872,472,800,-20,67,-6
14760,-1936,448,824,-19,67,-8
14765,-1880,480,808,-21,67,-8
14770,-1888,496,808,-21,66,-8
14775,-1920,488,832,-22,66,-7
14780,-1872,488,824,-23,65,-7
14785,-1896,448,816,-23,65,-6
14790,-1872,472,792,-24,64,-7
14795,-1872,480,816,-24,64,-8
14800,-1880,464,816,-26,64,-7
14805,-1880,488,824,-26,63,-7
14810,-1864,480,808,-25,62,-7
14815,-1896,480,800,-24,62,-6
14820,-1888,480,824,-23,61,-6
14825,-1864,464,808,-21,61,-6
14830,-1888,488,784,-20,61,-6
14835,-1896,504,808,-19,61,-7
14840,-1880,488,824,-18,61,-7
14845,-1904,464,792,-18,61,-8
14850,-1856,480,848,-18,63,-10
14855,-1888,464,824,-18,60,-9
14860,-1872,464,824,-18,62,-8
14865,-1888,472,816,-21,63,-9
14870,-1944,424,832,-23,63,-7
14875,-1880,464,816,-26,65,-8
14880,-1896,456,816,-28,64,-7
14885,-1872,456,816,-31,64,-7
14890,-1888,472,808,-33,63,-5
14895,-1888,480,816,-32,64,-3
14900,-1872,488,824,-31,64,-3
14905,-1872,480,792,-29,65,-4
14910,-1888,480,800,-25,67,-3
14915,-1880,456,816,-24,67,-1
14920,-1864,464,824,-23,69,-4
14925,-1880,488,816,-23,69,-4
14930,-1904,488,824,-24,68,-3
14935,-1888,456,808,-25,67,-4
14940,-1888,496,848,-24,68,-5
14945,-1888,480,800,-25,66,-4
14950,-1872,456,800,-25,65,-4
14955,-1880,472,808,-26,63,-4
14960,-1872,456,792,-25,62,-4
14965,-1896,488,792,-25,62,-6
14970,-1880,472,824,-24,62,-5
14975,-1888,472,816,-24,61,-6
14980,-1904,488,840,-23,62,-4
14985,-1888,480,816,-22,62,-6
14990,-1888,480,824,-21,64,-6
14995,-1888,456,832,-21,64,-8
