timestamp,accel_x,accel_y,accel_z,gyro_x,gyro_y,gyro_z
0,-112,-1984,24,83,-3,-25
5,-120,-1968,16,83,-2,-21
10,-104,-1992,-16,85,0,-19
15,-104,-1984,-8,85,3,-17
20,-152,-1976,8,85,4,-16
25,-152,-2016,40,84,6,-17
30,-104,-1960,48,83,7,-16
35,-104,-1976,0,81,10,-17
40,-128,-1976,24,80,14,-18
45,-136,-1968,16,78,20,-20
50,-72,-2000,24,78,26,-20
55,-96,-1952,8,75,31,-22
60,-96,-1976,48,72,35,-21
65,-104,-2000,56,69,38,-22
70,-88,-1984,32,65,40,-22
75,-160,-1984,24,58,43,-20
80,-136,-1992,64,53,43,-19
85,-136,-1968,64,47,41,-18
90,-128,-1968,64,39,41,-17
95,-144,-1976,32,31,38,-15
100,-152,-2000,48,25,37,-15
105,-160,-1992,48,19,33,-15
110,-152,-2000,64,12,32,-14
115,-160,-1984,56,9,29,-15
120,-168,-1976,32,5,27,-18
125,-176,-2000,24,2,24,-17
130,-152,-1952,40,1,22,-19
135,-184,-1952,32,1,20,-20
140,-160,-1960,32,1,20,-20
145,-168,-1960,40,2,22,-18
150,-168,-1968,0,1,21,-18
155,-128,-1976,16,-1,21,-16
160,-144,-1968,56,-4,18,-18
165,-144,-1952,8,-6,17,-15
170,-160,-1984,80,-12,15,-11
175,-120,-1984,56,-15,13,-10
180,-144,-1920,24,-19,10,-9
185,-144,-1944,40,-23,11,-9
190,-168,-1936,24,-29,12,-9
195,-136,-1984,16,-36,16,-10
200,-112,-1968,56,-45,18,-9
205,-160,-1968,40,-54,20,-8
210,-136,-1968,64,-60,23,-6
215,-128,-1992,40,-68,23,-3
220,-128,-1976,40,-74,20,1
225,-160,-1968,-24,-78,18,0
230,-168,-1968,-80,-78,12,2
235,-128,-2024,-8,-77,5,3
240,-160,-2016,-8,-73,-2,6
245,-168,-2000,-48,-63,-7,6
250,-152,-1992,-32,-53,-10,6
255,-152,-1992,-56,-44,-13,6
260,-168,-2000,-16,-36,-11,6
265,-152,-2000,-40,-31,-9,3
270,-160,-2008,-24,-29,-8,1
275,-144,-1984,-40,-29,-7,-1
280,-160,-1944,-32,-28,-6,-4
285,-144,-1960,-24,-32,-2,-4
290,-160,-1952,-56,-33,2,-3
295,-136,-1976,-40,-33,4,-3
300,-104,-2000,8,-36,9,-3
305,-136,-1968,-24,-38,17,-3
310,-128,-1968,-40,-38,20,-1
315,-128,-1984,-40,-38,24,1
320,-104,-2000,-32,-41,26,1
325,-128,-1976,-48,-39,27,3
330,-112,-1992,-32,-34,23,4
335,-104,-1992,-16,-33,22,5
340,-112,-1984,-8,-31,19,2
345,-152,-1920,-32,-27,16,1
350,-112,-1960,-48,-18,13,-1
355,-112,-2008,-64,-14,9,-1
360,-88,-1984,-64,-7,7,-1
365,-144,-1968,-40,-4,8,-3
370,-104,-1952,-24,-4,8,-6
375,-104,-1936,-56,-5,9,-8
380,-88,-1976,-40,-7,12,-9
385,-112,-1936,-48,-12,15,-9
390,-80,-1968,8,-21,17,-9
395,-112,-1952,0,-27,19,-8
400,-120,-1960,-32,-29,20,-8
405,-96,-1984,-24,-28,21,-5
410,-136,-1976,-56,-25,23,-5
415,-120,-1976,-32,-22,23,-6
420,-112,-1984,-40,-22,27,-6
425,-128,-1968,-56,-24,30,-5
430,-168,-2000,-56,-25,33,-5
435,-168,-1984,-32,-26,35,-3
440,-144,-1992,-48,-27,36,-3
445,-144,-1968,-32,-29,37,0
450,-144,-1992,-64,-33,42,0
455,-152,-1968,-64,-37,43,2
460,-176,-1984,-56,-43,41,2
465,-168,-2000,-56,-43,38,0
470,-168,-1984,-64,-37,33,1
475,-168,-2000,-64,-26,32,-1
480,-152,-2008,-56,-16,29,-2
485,-168,-2008,-32,-6,28,-5
490,-168,-1984,-72,3,26,-5
495,-160,-1984,-40,9,29,-6
500,-168,-1976,-56,10,32,-8
505,-176,-1960,-24,12,34,-7
510,-152,-1992,-40,12,36,-8
515,-152,-1992,-32,10,38,-5
520,-160,-1984,-48,9,39,-3
525,-144,-2000,-56,8,39,-3
530,-184,-1992,-64,12,39,-4
535,-168,-1984,-56,12,33,-3
540,-136,-2000,-48,8,31,2
545,-160,-1976,-32,7,27,5
550,-160,-1960,-32,2,25,11
555,-208,-1992,-64,2,22,9
560,-168,-1984,-24,8,16,6
565,-192,-1952,-40,11,14,4
570,-168,-1976,-40,12,11,5
575,-152,-1984,-56,14,11,3
580,-160,-1976,-40,14,9,4
585,-152,-1968,-40,14,7,3
590,-136,-1968,-56,11,6,0
595,-168,-1976,-56,4,6,0
600,-136,-1944,-16,1,5,-2
605,-168,-1952,-56,1,3,-2
610,-168,-2016,-56,-2,1,-5
615,-160,-1960,-64,-4,-1,-6
620,-152,-1976,-64,-4,-1,-8
625,-136,-1976,-40,0,-2,-9
630,-144,-1984,-56,2,-2,-11
635,-152,-1976,-48,4,2,-13
640,-136,-1984,-64,5,4,-15
645,-168,-1984,-48,2,8,-13
650,-168,-2008,-32,2,11,-12
655,-136,-1976,-56,4,11,-11
660,-152,-2016,-56,5,12,-12
665,-136,-2000,-8,2,16,-13
670,-136,-2024,-56,2,18,-12
675,-136,-1976,-48,3,20,-15
680,-136,-1968,-64,2,19,-15
685,-120,-1984,-48,0,17,-16
690,-152,-1984,-40,2,18,-16
695,-152,-1968,-88,3,24,-9
700,-120,-1984,-48,6,27,-9
705,-112,-1976,-72,8,30,-6
710,-152,-1952,-56,7,36,-8
715,-152,-1960,-64,7,38,-8
720,-144,-1992,-80,7,40,-6
725,-144,-1968,-112,12,34,-7
730,-160,-1968,-64,11,23,-9
735,-144,-1984,-72,12,18,-10
740,-144,-1992,-72,14,19,-9
745,-144,-1976,-64,18,21,-11
750,-152,-1960,-72,18,23,-12
755,-160,-1976,-72,15,25,-14
760,-120,-1992,-64,16,25,-16
765,-120,-1968,-56,19,27,-14
770,-128,-2008,-80,22,30,-10
775,-128,-1992,-56,25,31,-13
780,-136,-1992,-96,24,35,-13
785,-112,-1992,-112,24,35,-13
790,-104,-1992,-88,25,34,-14
795,-144,-1976,-64,23,36,-16
800,-112,-1992,-80,21,36,-17
805,-136,-1960,-64,23,37,-18
810,-160,-1936,-120,25,39,-21
815,-128,-1992,-112,30,39,-23
820,-120,-2000,-72,31,39,-26
825,-152,-1992,-88,34,40,-24
830,-136,-1984,-64,40,43,-25
835,-136,-1992,-80,45,45,-25
840,-152,-1968,-64,48,45,-21
845,-160,-1976,-104,52,43,-22
850,-144,-1992,-80,53,42,-19
855,-144,-1968,-120,54,40,-18
860,-144,-1976,-96,52,38,-18
865,-144,-1992,-48,52,36,-19
870,-136,-1984,-64,55,35,-23
875,-160,-1976,-64,54,35,-23
880,-128,-1992,-56,48,32,-22
885,-144,-1992,-72,39,31,-18
890,-144,-2000,-56,35,29,-19
895,-160,-1968,-88,34,30,-21
900,-144,-1960,-80,34,33,-22
905,-128,-1992,-64,34,31,-21
910,-152,-1976,-48,36,28,-21
915,-160,-1992,-80,41,28,-21
920,-144,-1968,-64,50,28,-23
925,-168,-1976,-72,57,27,-24
930,-176,-1976,-88,59,27,-23
935,-152,-1968,-104,60,28,-23
940,-152,-1968,-112,61,29,-21
945,-128,-1968,-80,60,27,-20
950,-168,-1968,-96,61,23,-19
955,-144,-1960,-112,61,21,-19
960,-120,-1984,-88,65,14,-20
965,-144,-2000,-104,68,9,-19
970,-160,-1968,-80,70,5,-18
975,-152,-2000,-104,71,1,-19
980,-136,-2000,-64,72,-1,-19
985,-160,-1992,-56,72,-2,-19
990,-136,-2000,-56,72,-1,-20
995,-176,-1976,-64,69,-1,-22
1000,-160,-1952,-48,68,-2,-22
1005,-144,-2000,-64,67,-3,-23
1010,-160,-1976,-64,68,-3,-23
1015,-176,-1976,-56,68,-3,-21
1020,-144,-1984,-96,69,-4,-22
1025,-152,-2000,-80,69,-4,-23
1030,-112,-1992,-104,72,-5,-21
1035,-120,-1960,-72,75,-4,-22
1040,-136,-1992,-96,76,-5,-23
1045,-128,-1984,-80,75,-3,-22
1050,-128,-1984,-56,73,-2,-22
1055,-136,-1968,-56,73,0,-21
1060,-136,-1992,-72,72,2,-20
1065,-136,-1984,-56,71,5,-20
1070,-112,-2000,-72,69,8,-20
1075,-128,-1952,-64,68,11,-18
1080,-144,-1960,-72,66,14,-16
1085,-112,-1968,-48,65,16,-14
1090,-144,-2000,-64,63,16,-13
1095,-112,-1976,-72,62,16,-12
1100,-120,-1968,-80,63,15,-11
1105,-64,-1992,-56,65,16,-13
1110,-104,-1984,-88,66,17,-12
1115,-120,-1976,-72,66,17,-13
1120,-120,-1992,-112,64,17,-13
1125,-112,-1976,-80,60,19,-13
1130,-112,-1984,-48,55,20,-14
1135,-152,-1968,-56,53,21,-13
1140,-136,-1984,-80,51,24,-14
1145,-168,-1952,-88,51,24,-14
1150,-120,-1984,-56,51,23,-13
1155,-120,-1984,-80,52,23,-15
1160,-128,-1968,-64,53,23,-15
1165,-120,-1976,-56,54,23,-13
1170,-136,-1976,-72,56,24,-14
1175,-160,-1968,-96,57,24,-14
1180,-152,-1984,-64,58,24,-12
1185,-120,-1976,-56,58,24,-12
1190,-136,-1976,-48,59,22,-11
1195,-160,-2000,-56,58,21,-12
1200,-152,-1992,-48,59,21,-12
1205,-144,-1992,-48,59,20,-13
1210,-144,-1992,-64,60,20,-11
1215,-144,-1960,-40,61,19,-11
1220,-152,-1976,-64,61,20,-11
1225,-136,-2008,-72,62,19,-13
1230,-168,-1968,-72,62,19,-11
1235,-160,-1984,-64,62,16,-10
1240,-144,-1968,-64,61,16,-10
1245,-104,-1976,-48,62,16,-11
1250,-136,-2016,-40,62,15,-11
1255,-136,-1968,-56,62,13,-10
1260,-136,-1976,-48,64,11,-11
1265,-144,-1976,-56,65,12,-9
1270,-120,-1984,-48,68,11,-11
1275,-144,-1968,-48,69,10,-11
1280,-136,-1984,-80,71,9,-10
1285,-136,-1976,-64,72,8,-12
1290,-88,-1992,-56,72,6,-11
1295,-152,-1992,-88,73,6,-10
1300,-128,-2000,-64,73,5,-10
1305,-120,-1968,-24,73,4,-11
1310,-136,-1968,-88,70,5,-12
1315,-144,-1976,-64,68,5,-11
1320,-144,-1976,-56,66,5,-14
1325,-160,-1992,-56,63,4,-16
1330,-152,-1984,-72,63,3,-15
1335,-136,-2000,-56,60,5,-15
1340,-144,-1976,-56,60,6,-18
1345,-128,-1976,-56,61,6,-19
1350,-136,-1960,-64,61,6,-19
1355,-136,-1952,-72,63,5,-21
1360,-144,-1968,-56,63,6,-20
1365,-160,-1960,-48,63,6,-20
1370,-136,-1960,-48,65,6,-20
1375,-136,-1976,-64,66,5,-16
1380,-144,-1960,-72,68,4,-14
1385,-144,-1952,-56,68,4,-15
1390,-152,-1976,-72,65,3,-14
1395,-176,-1976,-64,63,3,-12
1400,-136,-1976,-80,59,3,-12
1405,-112,-1992,-40,58,5,-14
1410,-112,-1976,-80,54,4,-18
1415,-144,-1952,-64,50,4,-18
1420,-128,-1976,-40,45,6,-19
1425,-144,-1968,-64,39,9,-18
1430,-136,-1944,-72,39,13,-18
1435,-136,-1992,-72,41,17,-17
1440,-104,-1976,-48,47,18,-14
1445,-120,-1984,-48,52,23,-15
1450,-128,-2000,-64,53,24,-15
1455,-112,-1976,-80,55,24,-15
1460,-128,-2000,-72,56,21,-16
1465,-104,-2000,-88,58,19,-16
1470,-120,-1976,-88,60,15,-17
1475,-120,-2016,-56,62,11,-16
1480,-144,-1992,-80,63,9,-16
1485,-128,-2000,-64,63,8,-14
1490,-120,-1992,-64,65,5,-14
1495,-128,-1992,-80,63,6,-17
1500,-136,-2008,-96,61,7,-17
1505,-112,-2008,-48,58,6,-21
1510,-160,-1984,-40,55,8,-24
1515,-160,-1960,-48,52,6,-24
1520,-152,-1976,-32,50,6,-25
1525,-144,-1968,-48,51,4,-27
1530,-152,-1984,-16,54,5,-28
1535,-160,-1968,-56,56,5,-28
1540,-120,-1984,-56,55,5,-27
1545,-128,-1992,-64,56,7,-26
1550,-120,-2000,-56,52,8,-26
1555,-144,-2008,-40,50,8,-27
1560,-120,-2000,-64,47,8,-26
1565,-144,-1944,-32,46,9,-22
1570,-152,-2000,-24,44,8,-21
1575,-152,-1984,-48,46,7,-21
1580,-112,-1984,-48,44,5,-21
1585,-104,-1976,-56,41,4,-19
1590,-112,-1984,-56,42,2,-19
1595,-144,-1960,-56,44,0,-19
1600,-128,-1952,-48,44,-1,-21
1605,-128,-1976,-56,46,-2,-21
1610,-120,-1960,-56,48,-2,-19
1615,-160,-1984,-32,48,-3,-19
1620,-128,-1976,-64,50,-4,-19
1625,-120,-1992,-72,51,0,-19
1630,-96,-2048,-80,52,3,-19
1635,-120,-1968,-56,53,5,-20
1640,-136,-2008,-56,53,5,-18
1645,-104,-1984,-48,54,5,-19
1650,-184,-1944,-80,52,4,-21
1655,-112,-1984,-8,50,3,-20
1660,-168,-2024,-112,46,2,-19
1665,-160,-1976,-64,42,-1,-21
1670,-128,-2008,-32,43,0,-22
1675,-120,-2032,-80,45,4,-21
1680,-104,-1984,-64,48,6,-22
1685,-152,-2000,-96,50,9,-19
1690,-120,-1992,0,47,9,-18
1695,-120,-2016,-16,43,9,-16
1700,-152,-1936,-88,40,7,-15
1705,-120,-2024,-72,38,5,-14
1710,-112,-1992,-88,40,2,-14
1715,-80,-2032,-72,43,-2,-14
1720,-112,-1984,-56,47,-2,-13
1725,-160,-1960,-56,48,-3,-12
1730,-88,-1992,-96,49,-4,-14
1735,-144,-2008,-56,50,-5,-16
1740,-80,-2000,8,51,-6,-17
1745,-144,-1944,-96,52,-4,-18
1750,-168,-1968,-40,53,-1,-21
1755,-96,-2024,-48,52,1,-21
1760,-144,-2032,-32,52,1,-23
1765,-112,-1976,-104,50,0,-25
1770,-136,-1976,-48,50,3,-24
1775,-112,-1984,-56,51,4,-24
1780,-96,-1976,-56,53,5,-24
1785,-112,-1976,-64,55,5,-24
1790,-136,-1992,-128,57,5,-24
1795,-120,-2016,-56,58,6,-24
1800,-144,-1984,-56,61,5,-24
1805,-96,-1992,-64,62,5,-21
1810,-104,-2008,-24,62,4,-17
1815,-120,-1976,-64,65,4,-17
1820,-128,-1952,-56,66,2,-15
1825,-136,-1984,-40,67,4,-12
1830,-128,-1976,-88,69,3,-15
1835,-168,-1976,-96,72,1,-15
1840,-144,-1952,-48,74,1,-18
1845,-112,-1984,-104,75,1,-18
1850,-96,-1984,-64,76,3,-19
1855,-120,-1952,-72,76,5,-19
1860,-104,-1992,-48,73,5,-21
1865,-136,-1968,-56,71,6,-21
1870,-112,-1992,-56,71,7,-22
1875,-136,-1968,-56,71,7,-24
1880,-128,-1984,-64,71,8,-22
1885,-104,-2000,-64,69,9,-21
1890,-144,-1976,-64,71,9,-21
1895,-120,-2000,-64,71,13,-21
1900,-112,-2000,-56,72,13,-21
1905,-112,-1976,-64,74,15,-20
1910,-112,-1976,-64,74,15,-21
1915,-120,-1992,-56,76,15,-19
1920,-128,-1968,-64,76,14,-19
1925,-112,-1984,-40,75,14,-20
1930,-136,-1968,-56,74,13,-17
1935,-136,-2024,-56,75,11,-17
1940,-112,-1984,-40,75,10,-16
1945,-112,-1968,-88,75,9,-15
1950,-112,-2008,-80,76,8,-14
1955,-120,-1976,-32,76,8,-14
1960,-128,-1992,-24,77,7,-12
1965,-128,-1984,-40,77,6,-15
1970,-128,-1992,-32,78,6,-15
1975,-104,-2000,-56,78,5,-16
1980,-104,-2008,-24,79,7,-17
1985,-144,-1984,-16,80,7,-18
1990,-128,-1992,-32,84,9,-19
1995,-160,-1968,-48,84,9,-19
2000,-128,-1992,32,86,9,-18
2005,-112,-2016,-16,85,9,-19
2010,-104,-1992,-32,85,9,-18
2015,-104,-1984,-56,85,7,-19
2020,-120,-1992,-48,87,5,-19
2025,-96,-1968,-48,87,3,-19
2030,-112,-1928,-40,85,3,-20
2035,-112,-1960,-48,82,4,-17
2040,-112,-1976,-56,79,5,-19
2045,-120,-1944,-56,79,8,-19
2050,-104,-1960,-88,79,10,-20
2055,-120,-1992,-40,80,12,-20
2060,-88,-1992,-56,82,13,-21
2065,-112,-1976,-56,79,10,-20
2070,-112,-1992,-56,78,8,-20
2075,-128,-1992,-40,82,6,-20
2080,-96,-1976,-48,83,3,-19
2085,-96,-2008,-32,88,0,-18
2090,-120,-1992,-56,94,0,-16
2095,-112,-1992,-40,99,-2,-17
2100,-120,-2008,-56,102,-2,-18
2105,-128,-1992,-48,105,-4,-17
2110,-120,-2000,-56,105,-4,-18
2115,-120,-1992,-56,101,-2,-20
2120,-120,-1984,-48,99,3,-25
2125,-104,-1976,-48,97,6,-25
2130,-136,-1952,-56,92,8,-27
2135,-120,-1944,-24,91,9,-25
2140,-120,-1984,-32,90,10,-27
2145,-88,-2000,-48,89,13,-27
2150,-112,-1984,-16,90,16,-27
2155,-104,-1992,-40,90,19,-27
2160,-112,-1976,-64,90,22,-25
2165,-120,-1968,0,93,22,-24
2170,-112,-1992,-24,94,20,-22
2175,-136,-1992,-32,95,17,-21
2180,-104,-1984,-24,96,14,-21
2185,-128,-1984,-24,96,10,-20
2190,-120,-2000,-48,100,7,-18
2195,-112,-1976,-56,102,4,-19
2200,-96,-1976,-48,101,3,-16
2205,-104,-1976,-32,103,2,-18
2210,-80,-1992,-56,102,3,-19
2215,-112,-1968,-56,101,4,-21
2220,-120,-1976,-40,102,6,-24
2225,-104,-1976,-32,104,9,-23
2230,-112,-1984,-24,103,11,-23
2235,-120,-1968,-24,103,14,-22
2240,-112,-1984,-16,104,15,-20
2245,-136,-1952,-32,103,16,-17
2250,-120,-1984,-32,102,19,-17
2255,-112,-1992,-16,102,17,-16
2260,-88,-1984,-24,105,16,-15
2265,-168,-2000,8,107,16,-15
2270,-112,-2000,0,111,16,-15
2275,-104,-1992,-16,112,18,-16
2280,-104,-1984,-40,109,18,-12
2285,-104,-1992,-24,105,17,-12
2290,-112,-1968,-40,98,18,-10
2295,-104,-1968,-32,92,17,-7
2300,-96,-1968,-16,87,16,-5
2305,-120,-1992,-24,84,15,-5
2310,-120,-1992,-24,84,14,-5
2315,-96,-2000,-24,87,13,-5
2320,-56,-2016,48,91,13,-3
2325,-88,-1984,0,95,12,-3
2330,-112,-1984,-16,102,11,-5
2335,-104,-1992,-32,107,11,-6
2340,-88,-1984,-24,112,13,-7
2345,-96,-2000,-16,114,14,-10
2350,-120,-1984,-16,117,16,-13
2355,-120,-1968,-24,120,17,-15
2360,-104,-1984,-40,120,18,-18
2365,-88,-2008,-16,116,18,-19
2370,-112,-1960,-16,116,18,-21
2375,-112,-1968,0,116,19,-20
2380,-112,-1968,8,114,18,-21
2385,-104,-1984,-8,112,16,-20
2390,-96,-1968,8,109,14,-19
2395,-104,-1968,8,108,12,-20
2400,-96,-2000,8,106,9,-20
2405,-112,-1960,0,105,5,-18
2410,-120,-2000,0,102,2,-18
2415,-120,-1952,-8,101,2,-18
2420,-96,-1960,-16,99,-2,-19
2425,-120,-1952,24,97,-5,-19
2430,-120,-1984,16,95,-5,-22
2435,-120,-1976,-16,92,-6,-23
2440,-112,-1960,-8,91,-6,-22
2445,-88,-2000,32,89,-5,-23
2450,-128,-1984,-8,90,-6,-24
2455,-80,-1976,16,91,-6,-23
2460,-88,-1984,-8,91,-6,-23
2465,-96,-1992,16,91,-5,-23
2470,-112,-1984,16,91,-4,-21
2475,-120,-1992,-16,90,-3,-21
2480,-160,-1984,0,91,-5,-21
2485,-120,-1984,16,91,-7,-22
2490,-144,-1952,-8,90,-6,-22
2495,-136,-1992,-24,91,-7,-21
2500,-120,-1968,8,91,-8,-22
2505,-112,-1952,8,92,-7,-22
2510,-120,-1936,32,94,-6,-21
2515,-112,-1984,40,93,-4,-23
2520,-88,-1968,-8,97,-2,-24
2525,-88,-1984,8,100,0,-25
2530,-88,-2008,112,102,2,-26
2535,-120,-1960,24,105,3,-26
2540,-88,-1984,8,108,7,-28
2545,-120,-2000,16,110,10,-27
2550,-128,-1968,8,111,10,-27
2555,-96,-1984,-16,111,11,-28
2560,-88,-1984,40,109,11,-26
2565,-104,-2008,16,105,10,-25
2570,-96,-1984,56,104,8,-23
2575,-120,-1992,-8,101,8,-23
2580,-80,-1984,24,97,8,-19
2585,-112,-2008,16,96,9,-19
2590,-112,-1968,32,95,8,-19
2595,-104,-1992,8,96,11,-19
2600,-120,-1992,-8,97,10,-18
2605,-96,-1992,-8,98,12,-18
2610,-104,-1960,16,100,16,-21
2615,-80,-1992,32,102,17,-23
2620,-96,-1968,24,103,18,-24
2625,-96,-2008,40,102,20,-24
2630,-96,-1968,32,103,21,-26
2635,-144,-1960,48,104,21,-23
2640,-128,-1944,16,104,21,-24
2645,-96,-1968,24,103,22,-25
2650,-96,-2000,16,103,21,-24
2655,-112,-1952,24,102,19,-23
2660,-80,-1984,24,101,17,-25
2665,-104,-1992,16,101,17,-25
2670,-120,-1968,24,102,17,-26
2675,-104,-1992,64,101,20,-27
2680,-88,-2000,48,99,22,-30
2685,-80,-1976,32,96,27,-30
2690,-160,-1984,72,91,30,-29
2695,-96,-1968,0,86,31,-32
2700,-112,-1960,32,82,32,-32
2705,-96,-1976,48,77,29,-31
2710,-96,-1984,48,76,26,-31
2715,-96,-1984,56,76,22,-28
2720,-104,-1984,24,80,18,-28
2725,-112,-1984,32,83,15,-25
2730,-136,-1984,48,85,12,-22
2735,-144,-1992,24,91,13,-21
2740,-112,-2000,32,93,12,-22
2745,-72,-2040,8,93,13,-22
2750,-96,-2000,24,90,14,-21
2755,-120,-1992,40,87,15,-26
2760,-80,-1992,16,86,14,-27
2765,-96,-1968,32,84,15,-28
2770,-104,-1984,48,84,15,-28
2775,-112,-1984,40,84,15,-29
2780,-80,-1976,64,85,16,-29
2785,-104,-1944,48,88,17,-30
2790,-88,-2016,32,91,19,-28
2795,-72,-1976,48,95,22,-27
2800,-128,-2008,32,99,22,-27
2805,-96,-1984,40,102,21,-25
2810,-96,-1992,56,104,17,-25
2815,-104,-1968,48,105,13,-23
2820,-80,-2008,24,107,7,-21
2825,-96,-1992,40,107,2,-21
2830,-72,-2008,24,109,-1,-23
2835,-72,-1960,48,110,-4,-22
2840,-96,-1976,48,110,-3,-24
2845,-72,-2000,24,110,-3,-27
2850,-88,-1968,32,109,-1,-27
2855,-104,-1960,64,106,2,-28
2860,-56,-1960,32,101,4,-28
2865,-80,-1960,24,96,5,-27
2870,-72,-1960,64,91,6,-26
2875,-96,-1960,48,87,6,-25
2880,-56,-1968,56,83,7,-24
2885,-104,-1960,16,81,5,-25
2890,-104,-1984,72,80,4,-22
2895,-80,-2000,48,81,6,-22
2900,-120,-1984,48,82,5,-21
2905,-96,-1984,72,84,6,-20
2910,-64,-1984,40,82,7,-20
2915,-96,-1992,40,79,7,-18
2920,-88,-1984,16,76,8,-20
2925,-48,-1976,32,70,9,-20
2930,-88,-1984,72,68,8,-20
2935,-80,-1976,24,65,8,-19
2940,-56,-2008,56,65,8,-20
2945,-88,-1976,40,67,7,-20
2950,-80,-1968,40,71,8,-20
2955,-56,-1992,16,75,9,-20
2960,-48,-1992,56,81,10,-18
2965,-80,-1992,72,85,10,-21
2970,-80,-1984,64,85,11,-21
2975,-88,-1968,72,86,12,-21
2980,-88,-1984,72,85,11,-21
2985,-88,-1968,56,83,11,-21
2990,-112,-1976,40,81,11,-21
2995,-96,-1984,40,80,12,-20
3000,-104,-1984,88,81,15,-22
3005,-88,-1976,64,81,15,-23
3010,-80,-2016,72,82,17,-24
3015,-88,-1968,56,83,19,-25
3020,-96,-1992,80,84,22,-27
3025,-96,-1992,56,86,22,-27
3030,-72,-1992,56,88,22,-29
3035,-120,-1984,64,89,22,-30
3040,-72,-1984,56,90,20,-29
3045,-136,-1960,64,90,20,-30
3050,-80,-1952,72,89,18,-29
3055,-64,-1984,88,89,17,-28
3060,-80,-1976,80,88,13,-27
3065,-104,-2000,48,86,11,-29
3070,-88,-2000,112,83,9,-30
3075,-72,-2008,72,82,8,-30
3080,-96,-1984,48,81,7,-29
3085,-72,-1976,80,81,8,-29
3090,-128,-1968,72,81,8,-26
3095,-104,-1968,72,83,9,-27
3100,-64,-2000,72,86,10,-27
3105,-88,-1968,64,85,11,-26
3110,-112,-1944,72,87,12,-27
3115,-48,-1936,56,87,14,-29
3120,-48,-1984,64,83,16,-28
3125,-104,-1968,96,81,15,-28
3130,-72,-1984,56,79,15,-30
3135,-72,-1960,56,76,13,-32
3140,-104,-1984,64,70,13,-31
3145,-64,-2000,72,69,10,-31
3150,-80,-1968,56,66,9,-29
3155,-80,-1952,104,65,7,-28
3160,-64,-1984,48,63,5,-29
3165,-96,-1968,96,63,5,-32
3170,-64,-1984,40,62,4,-31
3175,-96,-1984,64,60,6,-31
3180,-48,-2016,48,59,5,-30
3185,-64,-1976,72,58,5,-32
3190,-72,-1984,56,56,4,-32
3195,-88,-1976,72,57,2,-33
3200,-96,-1984,104,55,1,-34
3205,-48,-1984,80,56,0,-34
3210,-88,-2000,64,55,0,-36
3215,-64,-2000,80,54,-1,-37
3220,-56,-1992,88,51,-1,-37
3225,-96,-1920,72,49,-2,-36
3230,-96,-1992,112,45,-1,-38
3235,-80,-1992,104,40,-1,-35
3240,-56,-1992,80,35,2,-38
3245,-56,-1968,72,31,2,-38
3250,-64,-1968,64,27,2,-38
3255,-88,-1960,48,22,3,-35
3260,-48,-1976,56,20,4,-36
3265,-48,-2000,56,15,5,-36
3270,-56,-1992,72,11,5,-34
3275,-32,-1976,56,8,7,-33
3280,-56,-1960,96,7,9,-32
3285,-56,-1944,64,6,9,-31
3290,-32,-1984,56,5,12,-29
3295,-48,-1976,48,4,14,-29
3300,-80,-1952,64,0,14,-29
3305,-32,-1976,48,-4,14,-26
3310,-56,-1992,64,-10,14,-25
3315,-80,-1960,80,-17,15,-27
3320,-72,-1976,72,-25,14,-26
3325,-80,-1960,64,-35,13,-27
3330,-48,-2016,56,-44,11,-31
3335,-64,-1960,80,-52,11,-32
3340,-56,-1968,72,-57,11,-35
3345,-56,-1960,56,-61,14,-37
3350,-72,-1952,72,-66,18,-39
3355,-40,-1992,56,-69,22,-43
3360,-88,-1944,80,-67,25,-44
3365,-88,-2000,8,-68,26,-45
3370,-64,-1968,48,-69,27,-47
3375,-88,-1984,64,-69,28,-47
3380,-32,-2016,32,-68,26,-46
3385,-40,-2008,40,-66,21,-46
3390,-32,-2016,64,-62,19,-45
3395,-48,-2000,64,-57,19,-44
3400,-48,-2016,40,-50,20,-43
3405,-72,-2024,16,-42,21,-45
3410,-64,-1992,56,-39,20,-48
3415,-96,-2008,64,-35,22,-50
3420,-80,-1984,64,-35,24,-48
3425,-104,-1976,64,-38,24,-51
3430,-72,-1976,48,-44,26,-53
3435,-48,-1952,56,-48,30,-55
3440,-120,-1952,48,-53,32,-55
3445,-72,-1944,24,-58,33,-55
3450,-88,-1936,40,-61,38,-55
3455,-88,-1936,48,-63,42,-53
3460,-32,-1960,40,-64,46,-50
3465,-56,-1960,32,-63,48,-50
3470,-40,-1968,24,-65,49,-48
3475,-64,-1960,24,-66,47,-43
3480,-72,-1960,32,-67,40,-41
3485,-48,-1992,40,-72,30,-37
3490,-40,-1960,24,-78,18,-35
3495,-64,-1920,-24,-80,12,-34
3500,-32,-1992,-8,-79,9,-32
3505,-48,-1984,8,-74,9,-30
3510,-40,-1992,0,-69,12,-33
3515,-56,-1960,-8,-63,17,-33
3520,-48,-1968,-24,-58,20,-33
3525,-40,-1976,-16,-54,21,-35
3530,-64,-2008,-8,-52,23,-37
3535,-72,-1992,0,-49,23,-39
3540,-64,-1984,32,-45,27,-39
3545,-40,-2000,32,-39,30,-39
3550,-40,-2008,32,-35,33,-40
3555,-56,-1984,8,-29,32,-39
3560,-48,-1992,0,-26,30,-39
3565,-40,-1984,16,-25,27,-38
3570,-48,-1976,8,-27,27,-39
3575,-56,-1992,0,-32,27,-39
3580,-40,-1984,8,-37,27,-39
3585,-56,-1968,0,-42,31,-40
3590,-40,-2008,8,-44,33,-40
3595,-24,-2016,24,-48,34,-39
3600,0,-1968,-40,-54,33,-38
3605,-64,-2000,-40,-57,31,-38
3610,-40,-1992,-32,-57,25,-36
3615,-24,-2016,0,-55,19,-35
3620,-40,-2016,-40,-49,20,-37
3625,-40,-2000,-40,-42,23,-40
3630,-48,-1984,-48,-34,21,-42
3635,-32,-1992,-32,-27,18,-43
3640,-56,-2024,0,-23,19,-44
3645,-56,-2016,-40,-21,21,-47
3650,-32,-2008,-64,-21,20,-50
3655,-48,-1960,-64,-22,17,-53
3660,-8,-2000,-16,-24,14,-55
3665,-40,-1976,-32,-25,16,-59
3670,-40,-1976,-40,-29,14,-58
3675,-72,-1992,-24,-31,12,-58
3680,-64,-1984,-32,-28,11,-61
3685,-40,-1960,-32,-27,11,-61
3690,-56,-1984,-32,-23,11,-62
3695,-40,-1976,-24,-20,13,-62
3700,-24,-1992,-16,-17,13,-62
3705,-40,-1968,8,-15,10,-60
3710,-48,-1968,-56,-11,10,-62
3715,-40,-1984,-16,-9,12,-61
3720,-24,-1984,-48,-9,13,-60
3725,-32,-1984,-40,-9,14,-61
3730,-32,-1984,-48,-8,14,-61
3735,-8,-1976,-48,-7,13,-61
3740,-32,-1984,-48,-11,17,-61
3745,-16,-1992,-16,-13,20,-59
3750,-56,-1936,-32,-13,24,-59
3755,-32,-1968,-56,-12,25,-59
3760,-40,-2008,-24,-13,22,-58
3765,-40,-1960,-32,-14,21,-57
3770,-24,-2000,-40,-12,23,-55
3775,-48,-1976,-24,-9,25,-55
3780,-64,-1968,-40,-8,26,-53
3785,-32,-1992,-40,-6,28,-54
3790,-40,-1968,-48,-5,30,-52
3795,-32,-1984,-32,-5,31,-50
3800,-24,-1984,-40,-6,32,-51
3805,-32,-1984,-56,-6,33,-49
3810,-8,-1984,-32,-7,37,-49
3815,0,-1960,-56,-9,33,-47
3820,-16,-2016,-32,-7,34,-44
3825,-24,-1984,-56,-8,32,-45
3830,-32,-1976,-32,-6,31,-47
3835,-32,-2008,-48,-7,32,-46
3840,-16,-1976,-64,-6,32,-48
3845,-16,-1976,-32,-6,30,-48
3850,-16,-1984,0,-7,28,-49
3855,-24,-2000,-8,-7,27,-49
3860,-8,-2000,-48,-7,31,-52
3865,-16,-2032,-24,-5,32,-52
3870,-16,-1992,-56,-3,34,-54
3875,-16,-2000,-56,-2,38,-54
3880,-24,-1992,-40,-4,33,-55
3885,-32,-2008,-48,-5,26,-55
3890,-32,-2000,-64,-6,21,-56
3895,-32,-2008,-64,-5,21,-57
3900,-16,-2016,-64,-2,20,-57
3905,-8,-1984,-88,0,20,-57
3910,-8,-2008,-48,2,19,-57
3915,-8,-1984,-56,3,19,-61
3920,0,-2032,-88,5,19,-61
3925,-16,-1976,-40,5,20,-62
3930,-8,-2000,-72,7,21,-65
3935,-16,-2000,-64,8,21,-66
3940,-8,-1992,-48,7,21,-67
3945,-16,-1968,-56,10,20,-68
3950,-16,-1984,-64,10,21,-66
3955,0,-1984,-56,9,20,-66
3960,-24,-1960,-56,10,20,-68
3965,-16,-1992,-56,11,21,-66
3970,-24,-1984,-64,11,20,-65
3975,-8,-1976,-88,10,20,-63
3980,-32,-1976,-40,6,18,-62
3985,-16,-1968,-56,5,18,-63
3990,-8,-1984,-56,2,15,-62
3995,-32,-1984,-56,0,13,-62
4000,-32,-1952,-56,-3,12,-66
4005,-8,-1992,-48,-6,12,-66
4010,-24,-1984,-56,-6,13,-66
4015,-8,-1968,-48,-3,15,-65
4020,-24,-1976,-72,0,13,-67
4025,-16,-1952,-80,4,15,-69
4030,-40,-1968,-72,12,20,-71
4035,-16,-1984,-64,21,23,-72
4040,-16,-1984,-64,29,21,-74
4045,0,-1992,-88,36,21,-75
4050,-24,-1992,-56,41,19,-76
4055,8,-1968,-88,46,18,-75
4060,-32,-2008,-88,51,19,-76
4065,0,-2016,-64,55,14,-75
4070,8,-2024,-80,56,12,-76
4075,-16,-2008,-64,56,11,-76
4080,0,-2032,-64,55,10,-77
4085,-8,-1992,-72,51,9,-77
4090,-16,-1984,-56,47,10,-79
4095,-16,-1984,-64,43,12,-80
4100,-16,-1976,-64,42,11,-82
4105,-8,-1984,-72,41,11,-83
4110,-8,-1984,-64,43,11,-81
4115,8,-1960,-80,48,12,-81
4120,-8,-1968,-56,53,13,-82
4125,-8,-1976,-80,59,16,-83
4130,-8,-1960,-80,62,18,-82
4135,0,-2024,-56,65,19,-83
4140,8,-2000,-64,69,22,-82
4145,0,-1984,-64,71,23,-80
4150,-8,-1968,-80,75,21,-79
4155,0,-1992,-72,78,20,-78
4160,16,-1992,-80,79,19,-79
4165,24,-1976,-64,81,18,-79
4170,-16,-1960,-80,81,16,-79
4175,24,-1968,-80,81,16,-79
4180,32,-2000,-56,78,15,-81
4185,0,-1984,-72,77,12,-83
4190,8,-1992,-56,73,11,-85
4195,8,-1992,-72,72,9,-86
4200,-8,-1968,-64,72,8,-88
4205,24,-1992,-48,71,7,-87
4210,32,-2000,-56,72,5,-87
4215,40,-1992,-64,73,3,-88
4220,24,-1992,-64,73,0,-87
4225,8,-1992,-56,74,-1,-85
4230,24,-1976,-48,75,-1,-84
4235,0,-1984,-64,78,-1,-84
4240,24,-2000,-104,81,0,-84
4245,48,-1984,-64,82,1,-84
4250,32,-1984,-56,83,4,-87
4255,48,-1976,-64,82,5,-87
4260,8,-1976,-72,81,10,-86
4265,8,-1968,-40,79,13,-87
4270,32,-2000,-48,77,16,-87
4275,48,-1984,-80,74,18,-85
4280,48,-2000,-56,71,19,-85
4285,40,-1992,-64,68,19,-83
4290,56,-2000,-96,65,18,-83
4295,72,-2008,-24,65,14,-81
4300,48,-2016,-64,66,12,-83
4305,80,-2008,-56,71,10,-80
4310,88,-2000,-72,77,9,-79
4315,48,-1968,-80,81,6,-81
4320,56,-1984,-72,85,5,-84
4325,16,-1984,-80,87,5,-84
4330,48,-1984,-56,88,4,-85
4335,56,-1992,-56,88,6,-88
4340,40,-1976,-56,86,5,-89
4345,24,-2000,-32,85,6,-91
4350,24,-2000,-72,84,7,-91
4355,80,-1984,-64,82,7,-92
4360,16,-1952,-72,82,7,-93
4365,24,-1960,-64,82,6,-94
4370,40,-2000,-48,84,6,-92
4375,80,-2008,-48,86,5,-94
4380,48,-2000,-40,88,6,-93
4385,88,-2024,-72,89,4,-94
4390,88,-2000,-64,90,6,-93
4395,80,-1992,-56,92,7,-94
4400,32,-2032,-80,92,5,-93
4405,64,-2000,-56,93,5,-94
4410,64,-1976,-64,93,5,-94
4415,56,-2008,-40,93,5,-95
4420,104,-1992,-56,93,4,-97
4425,48,-1968,-72,93,3,-99
4430,56,-1984,-32,95,4,-100
4435,72,-1992,-24,95,4,-100
4440,64,-2000,-40,94,5,-100
4445,72,-2000,-72,94,6,-101
4450,88,-1984,-8,95,7,-102
4455,80,-2008,-64,96,7,-105
4460,72,-1992,-64,97,6,-105
4465,72,-1992,-64,97,7,-105
4470,80,-2000,-24,98,7,-105
4475,64,-1992,-40,95,7,-104
4480,80,-2000,-48,93,8,-103
4485,64,-1976,-64,93,9,-103
4490,64,-1968,-48,92,11,-103
4495,80,-1992,-64,92,15,-105
4500,96,-2000,-40,92,16,-104
4505,80,-1976,-40,93,18,-104
4510,72,-1984,-40,96,18,-106
4515,80,-1968,-48,98,19,-106
4520,80,-1976,-32,101,18,-107
4525,88,-1984,-24,104,17,-107
4530,88,-1984,-48,106,16,-109
4535,80,-2000,-24,108,16,-107
4540,80,-1992,-24,110,14,-109
4545,104,-2008,-40,112,12,-108
4550,96,-1976,-40,112,12,-107
4555,96,-2008,-64,110,10,-104
4560,96,-1992,-32,109,9,-104
4565,104,-2000,-16,105,10,-104
4570,96,-1968,-40,105,12,-104
4575,88,-1992,-32,105,12,-103
4580,96,-1968,-40,103,13,-104
4585,96,-1992,-48,104,13,-103
4590,104,-1992,-40,108,14,-104
4595,96,-1984,-48,108,13,-104
4600,88,-1984,-32,111,14,-103
4605,120,-1976,-24,113,14,-106
4610,104,-1952,-48,113,14,-105
4615,152,-2008,-32,113,15,-106
4620,112,-1992,-24,114,14,-107
4625,120,-1992,-16,115,15,-105
4630,112,-1984,-40,116,16,-105
4635,144,-1976,-56,116,16,-103
4640,120,-1984,-16,116,18,-105
4645,112,-1960,-32,115,16,-104
4650,136,-1992,-24,114,16,-105
4655,88,-1968,-40,113,14,-109
4660,120,-1976,-32,110,13,-108
4665,144,-1936,-56,109,10,-110
4670,120,-1960,-16,109,8,-112
4675,120,-1952,-32,107,8,-113
4680,128,-1944,-40,106,9,-112
4685,88,-1976,-32,105,10,-112
4690,104,-1960,-16,104,12,-113
4695,128,-1968,-16,104,14,-112
4700,128,-1968,-16,103,13,-115
4705,136,-2000,0,104,13,-115
4710,152,-1976,-32,106,11,-115
4715,144,-1976,-8,108,9,-114
4720,112,-1968,-24,115,4,-115
4725,144,-1960,-8,122,0,-117
4730,128,-1984,-40,127,-5,-119
4735,168,-2032,0,129,-8,-118
4740,152,-1992,0,129,-9,-122
4745,136,-2008,-16,131,-10,-125
4750,136,-1992,0,127,-11,-129
4755,96,-1992,0,124,-11,-135
4760,160,-1976,24,123,-12,-138
4765,144,-1960,-24,123,-12,-141
4770,120,-2000,0,124,-10,-143
4775,176,-1984,0,122,-11,-142
4780,144,-1976,8,122,-11,-142
4785,104,-1968,-16,121,-8,-141
4790,128,-1984,16,120,-5,-140
4795,128,-1984,8,119,-5,-139
4800,128,-1984,32,122,-5,-138
4805,136,-1992,56,124,-8,-137
4810,160,-1976,0,126,-8,-136
4815,144,-1984,16,125,-13,-136
4820,120,-1960,8,124,-16,-136
4825,128,-1984,64,124,-20,-136
4830,144,-2000,24,127,-27,-136
4835,152,-2000,16,134,-33,-134
4840,160,-1992,32,137,-38,-137
4845,192,-2000,0,134,-41,-141
4850,176,-1984,16,133,-44,-145
4855,152,-1960,-16,130,-48,-149
4860,184,-1984,24,126,-47,-153
4865,184,-1944,0,123,-46,-156
4870,160,-1952,40,123,-40,-156
4875,184,-1984,24,122,-39,-156
4880,160,-1984,0,123,-35,-159
4885,168,-1968,40,125,-31,-159
4890,184,-1984,48,126,-31,-159
4895,192,-2008,32,130,-30,-156
4900,192,-1968,0,136,-30,-154
4905,184,-1968,16,140,-31,-154
4910,184,-1952,16,142,-32,-154
4915,208,-2000,40,142,-33,-156
4920,192,-1992,32,139,-34,-156
4925,176,-1984,8,134,-36,-157
4930,152,-1968,0,129,-38,-156
4935,168,-1976,16,121,-38,-158
4940,200,-1968,32,112,-38,-156
4945,184,-1968,24,105,-38,-157
4950,184,-1976,32,100,-39,-159
4955,200,-1976,56,97,-41,-160
4960,224,-1960,8,99,-44,-161
4965,192,-1976,56,104,-45,-162
4970,208,-1992,48,109,-49,-164
4975,216,-1960,24,117,-50,-168
4980,240,-1992,32,121,-48,-170
4985,216,-1984,56,123,-47,-174
4990,216,-1960,8,126,-47,-177
4995,216,-1968,8,125,-46,-177
5000,200,-1976,24,123,-44,-177
5005,208,-1952,0,119,-43,-181
5010,208,-1992,24,116,-41,-179
5015,224,-1960,32,112,-40,-181
5020,216,-1936,48,109,-39,-182
5025,232,-1968,48,107,-37,-183
5030,248,-1968,56,104,-37,-183
5035,240,-1976,40,104,-35,-183
5040,184,-2008,40,104,-31,-185
5045,216,-1992,16,106,-27,-186
5050,224,-1952,40,110,-25,-189
5055,232,-2000,64,109,-20,-190
5060,232,-1992,72,113,-19,-192
5065,232,-1976,64,116,-20,-195
5070,224,-1968,64,119,-23,-197
5075,216,-1952,24,117,-26,-199
5080,232,-1976,16,113,-32,-202
5085,240,-1960,56,113,-37,-205
5090,208,-1952,80,112,-43,-209
5095,256,-1960,40,112,-47,-211
5100,208,-1952,120,112,-48,-211
5105,240,-1968,64,112,-47,-213
5110,224,-1952,64,111,-45,-215
5115,264,-1968,56,113,-41,-217
5120,256,-1944,80,112,-36,-218
5125,272,-1936,48,110,-32,-220
5130,272,-1952,64,108,-29,-220
5135,256,-1960,72,108,-26,-220
5140,256,-1952,64,108,-26,-220
5145,264,-1976,40,108,-27,-220
5150,240,-1936,40,111,-28,-220
5155,264,-1960,48,113,-28,-220
5160,272,-1984,56,113,-28,-221
5165,288,-1952,48,111,-28,-221
5170,280,-1952,40,107,-29,-223
5175,280,-1984,72,104,-29,-226
5180,280,-1976,40,102,-30,-228
5185,288,-1968,40,103,-32,-232
5190,296,-1936,56,102,-31,-236
5195,248,-1936,48,103,-34,-238
5200,216,-1896,88,103,-39,-240
5205,280,-1968,48,106,-45,-244
5210,272,-1944,88,107,-53,-248
5215,272,-1944,88,106,-58,-252
5220,296,-1928,64,102,-65,-255
5225,312,-1920,72,97,-71,-261
5230,320,-1928,64,94,-74,-267
5235,352,-1944,72,93,-73,-273
5240,336,-1920,56,93,-77,-277
5245,344,-1944,56,91,-75,-280
5250,368,-1936,64,90,-73,-285
5255,368,-1936,80,89,-66,-287
5260,360,-1920,72,85,-63,-289
5265,376,-1936,64,79,-59,-291
5270,336,-1936,56,76,-56,-294
5275,336,-1944,48,72,-55,-296
5280,352,-1960,112,70,-54,-298
5285,352,-1968,64,66,-52,-301
5290,360,-1968,72,65,-52,-304
5295,336,-1928,56,62,-51,-310
5300,368,-1936,56,60,-53,-319
5305,360,-1912,72,57,-54,-326
5310,360,-1944,40,55,-56,-334
5315,352,-1928,48,52,-57,-341
5320,384,-1912,64,49,-59,-346
5325,368,-1904,72,46,-60,-356
5330,384,-1880,72,43,-61,-361
5335,392,-1888,64,37,-62,-368
5340,376,-1872,96,31,-64,-375
5345,416,-1856,80,21,-62,-385
5350,408,-1856,48,10,-61,-391
5355,416,-1848,72,-3,-55,-402
5360,408,-1864,48,-15,-50,-412
5365,376,-1872,8,-24,-46,-419
5370,416,-1912,80,-34,-40,-430
5375,416,-1912,48,-43,-38,-445
5380,408,-1968,32,-49,-39,-459
5385,408,-1992,56,-50,-41,-477
5390,400,-2000,56,-44,-44,-494
5395,400,-2016,24,-34,-46,-511
5400,376,-2024,56,-19,-49,-526
5405,368,-2040,64,0,-51,-543
5410,376,-2032,48,17,-52,-558
5415,360,-2032,64,33,-51,-572
5420,384,-2008,104,45,-51,-584
5425,368,-1968,48,55,-50,-596
5430,408,-1928,56,56,-51,-607
5435,392,-1912,56,57,-49,-616
5440,432,-1888,48,53,-49,-619
5445,440,-1848,48,45,-47,-625
5450,448,-1848,64,34,-46,-628
5455,472,-1808,72,20,-45,-629
5460,488,-1832,72,7,-47,-630
5465,504,-1792,56,-5,-47,-634
5470,496,-1840,72,-18,-49,-642
5475,504,-1816,72,-35,-50,-648
5480,528,-1808,72,-53,-44,-659
5485,496,-1792,72,-74,-41,-671
5490,528,-1832,56,-93,-36,-683
5495,528,-1800,80,-107,-31,-693
5500,504,-1816,40,-117,-26,-704
5505,496,-1800,64,-125,-21,-717
5510,496,-1800,64,-128,-15,-727
5515,496,-1808,40,-128,-5,-734
5520,528,-1800,64,-129,6,-746
5525,504,-1808,48,-129,24,-756
5530,544,-1832,48,-126,41,-768
5535,520,-1792,64,-127,54,-781
5540,504,-1824,32,-128,64,-796
5545,520,-1776,64,-134,71,-811
5550,528,-1816,40,-138,76,-827
5555,544,-1808,16,-146,80,-843
5560,536,-1832,24,-152,81,-857
5565,528,-1832,8,-148,88,-869
5570,504,-1856,32,-141,94,-886
5575,520,-1872,16,-133,96,-906
5580,480,-1832,32,-127,98,-927
5585,528,-1792,136,-117,101,-948
5590,448,-1816,-24,-108,105,-971
5595,440,-1752,0,-97,107,-989
5600,440,-1736,-8,-93,102,-1010
5605,416,-1696,-16,-95,97,-1029
5610,400,-1696,0,-100,95,-1044
5615,384,-1680,8,-109,93,-1055
5620,392,-1616,-8,-122,92,-1061
5625,408,-1552,16,-133,93,-1069
5630,400,-1520,40,-142,92,-1077
5635,432,-1472,8,-147,92,-1077
5640,448,-1448,88,-147,101,-1077
5645,472,-1384,40,-149,113,-1074
5650,504,-1360,48,-156,118,-1071
5655,520,-1328,16,-172,126,-1072
5660,536,-1312,32,-197,133,-1080
5665,528,-1296,48,-231,139,-1087
5670,496,-1240,0,-269,147,-1097
5675,504,-1248,-8,-311,152,-1105
5680,464,-1184,-16,-349,161,-1111
5685,416,-1144,-72,-378,171,-1114
5690,424,-1128,-72,-398,186,-1112
5695,376,-1064,-80,-412,204,-1110
5700,352,-1032,-80,-416,227,-1104
5705,368,-1032,-128,-412,256,-1100
5710,408,-1016,-120,-401,290,-1096
5715,376,-960,-152,-383,325,-1097
5720,360,-896,-152,-363,360,-1101
5725,384,-880,-176,-344,393,-1107
5730,472,-856,-144,-327,428,-1120
5735,456,-816,-160,-308,467,-1132
5740,528,-768,-216,-285,512,-1148
5745,552,-856,-192,-250,564,-1169
5750,616,-840,-176,-207,616,-1198
5755,664,-872,-216,-164,666,-1238
5760,712,-896,-224,-125,707,-1291
5765,752,-952,-256,-96,736,-1351
5770,792,-976,-288,-83,747,-1420
5775,816,-1056,-280,-80,748,-1490
5780,872,-1128,-320,-72,741,-1563
5785,904,-1216,-328,-57,728,-1638
5790,968,-1288,-288,-38,711,-1723
5795,1040,-1408,-280,-10,698,-1817
5800,1096,-1560,-264,37,698,-1913
5805,1216,-1704,-232,107,715,-2012
5810,1368,-1848,-192,214,752,-2130
5815,1416,-1936,-176,359,802,-2262
5820,1488,-1968,-120,534,850,-2430
5825,1544,-1960,-56,729,892,-2568
5830,1576,-1928,48,934,898,-2693
5835,1552,-1808,120,1131,850,-2795
5840,1544,-1624,248,1297,754,-2869
5845,1536,-1464,344,1431,623,-2904
5850,1448,-1216,440,1469,459,-2906
5855,1424,-1088,392,1431,271,-2887
5860,1440,-1008,352,1315,80,-2849
5865,1376,-944,280,1138,-105,-2813
5870,1384,-960,104,942,-287,-2771
5875,1408,-1064,-48,771,-452,-2740
5880,1392,-1144,-176,660,-581,-2716
5885,1368,-1232,-272,629,-666,-2685
5890,1304,-1296,-336,662,-719,-2638
5895,1336,-1304,-408,727,-750,-2582
5900,1200,-1216,-464,796,-759,-2528
5905,1200,-1176,-424,842,-768,-2484
5910,1112,-1008,-408,866,-758,-2449
5915,1016,-792,-352,867,-747,-2414
5920,976,-664,-200,833,-778,-2371
5925,872,-520,-40,779,-809,-2321
5930,872,-408,56,702,-818,-2258
5935,752,-288,128,610,-817,-2189
5940,720,-208,232,518,-837,-2115
5945,696,-192,184,447,-877,-2046
5950,616,-112,120,412,-928,-1994
5955,560,-96,16,401,-948,-1950
5960,464,-32,16,393,-921,-1924
5965,352,-8,-16,401,-842,-1912
5970,264,32,-40,415,-705,-1894
5975,240,0,24,440,-522,-1866
5980,216,48,-8,490,-334,-1851
5985,248,24,-56,561,-182,-1834
5990,216,48,64,622,-78,-1806
5995,224,72,176,655,-13,-1774
6000,288,120,312,639,53,-1728
6005,376,192,528,563,153,-1704
6010,328,288,688,437,320,-1680
6015,152,456,704,289,516,-1625
6020,72,464,576,188,719,-1547
6025,-160,512,360,171,904,-1456
6030,-464,488,152,262,1051,-1359
6035,-328,440,-136,422,1078,-1273
6040,-184,448,-272,561,1012,-1292
6045,-64,456,-416,582,908,-1362
6050,528,328,-536,466,760,-1456
6055,1248,64,-416,309,686,-1591
6060,1728,-152,-248,236,765,-1768
6065,1984,-336,-80,256,942,-1925
6070,2464,-720,152,353,1169,-2032
6075,2696,-992,312,506,1430,-2089
6080,2872,-1376,216,677,1720,-1999
6085,3664,-1776,264,721,1965,-1835
6090,4208,-2184,416,668,2386,-1763
6095,4144,-2584,416,601,2746,-1659
6100,4912,-2928,704,533,2956,-1414
6105,4792,-3232,304,772,3316,-1296
6110,4248,-3296,-456,1083,3483,-1095
6115,3616,-2792,-816,1178,3289,-771
6120,3416,-1712,-1032,1070,2987,-576
6125,3352,-504,-992,751,2646,-650
6130,4056,1104,-400,269,2353,-900
6135,4744,2040,248,-143,2090,-1448
6140,6200,2992,1048,-287,2109,-2225
6145,8832,3904,2000,-237,2536,-3028
6150,12232,4280,2776,24,3071,-3764
6155,14952,4488,3080,555,3575,-4414
6160,15944,4464,2984,1279,3835,-4934
6165,15024,4368,2720,1828,3742,-5237
6170,14256,3136,1816,2035,3506,-4976
6175,12544,1272,872,1862,3312,-4535
6180,8712,-192,768,1540,2885,-4230
6185,5920,-1088,944,1577,1916,-3758
6190,2832,-1664,1752,2213,774,-2779
6195,1384,-1448,2688,3136,-208,-1452
6200,1168,-928,3568,3896,-785,-95
6205,616,480,3648,4372,-978,880
6210,-664,2008,4144,4171,-1035,1452
6215,-2496,3024,4024,3345,-1222,1857
6220,-3504,3224,3584,2382,-1375,2199
6225,-4088,2768,2816,1492,-1441,2285
6230,-4064,2112,2176,704,-1382,2108
6235,-3600,848,1320,28,-1361,1705
6240,-2552,-392,736,-453,-1452,1199
6245,-1528,-1032,176,-710,-1704,747
6250,-744,-1192,-88,-785,-2017,470
6255,112,-1232,-8,-675,-2273,369
6260,992,-1032,96,-392,-2512,378
6265,1880,-648,256,-3,-2705,423
6270,2496,-16,624,375,-2824,448
6275,2920,448,744,695,-2885,521
6280,3160,936,920,947,-2879,663
6285,3648,1176,744,1077,-2785,844
6290,3648,1280,416,1019,-2538,927
6295,3864,1040,48,797,-2152,918
6300,3520,816,-208,493,-1608,845
6305,2864,528,-288,169,-905,654
6310,1872,464,-120,-110,-167,425
6315,1192,288,312,-326,485,265
6320,792,232,480,-394,1065,197
6325,320,296,744,-344,1526,148
6330,16,400,856,-236,1777,93
6335,-40,656,800,-113,1789,34
6340,-168,880,760,-27,1645,-5
6345,-376,1072,656,30,1337,-33
6350,-400,1248,432,35,1013,-24
6355,-296,1384,272,10,699,1
6360,-128,1504,136,-11,468,21
6365,-32,1528,80,-21,320,54
6370,136,1520,16,-30,223,88
6375,192,1448,40,-51,169,109
6380,216,1368,48,-58,157,162
6385,256,1240,120,-53,158,273
6390,672,1176,168,-42,163,416
6395,664,1048,416,-42,192,484
6400,1016,1032,504,-20,202,579
6405,1240,1016,640,26,203,677
6410,1672,1088,656,87,205,812
6415,1920,1120,744,120,223,906
6420,2232,1272,704,111,254,975
6425,2512,1368,608,40,307,1014
6430,2824,1304,488,-90,379,976
6435,2832,1344,432,-254,449,869
6440,2856,1232,328,-373,509,802
6445,2944,1152,200,-447,602,756
6450,2768,1120,112,-486,698,701
6455,2696,1160,88,-497,761,626
6460,2672,1184,160,-509,808,517
6465,2672,1144,160,-538,849,403
6470,2656,1072,168,-573,867,326
6475,2664,1016,240,-625,877,284
6480,2504,1016,352,-689,894,241
6485,2432,1016,456,-742,885,215
6490,2464,992,568,-757,831,207
6495,2472,1016,640,-723,754,192
6500,2520,1024,664,-630,676,168
6505,2632,1024,736,-502,607,141
6510,2696,984,800,-369,554,110
6515,2624,880,792,-270,510,84
6520,2496,784,816,-218,469,65
6525,2328,688,872,-199,441,51
6530,2192,648,936,-186,424,40
6535,2064,568,992,-159,406,33
6540,1984,480,992,-111,380,23
6545,1864,400,1032,-50,345,1
6550,1832,352,1000,21,293,-22
6555,1760,304,992,97,238,-49
6560,1736,248,936,167,181,-80
6565,1736,168,896,220,117,-106
6570,1720,160,776,256,60,-127
6575,1696,136,744,267,10,-150
6580,1616,144,704,255,-27,-168
6585,1624,144,712,250,-44,-161
6590,1640,184,656,244,-65,-149
6595,1688,208,592,231,-78,-137
6600,1736,232,536,186,-84,-134
6605,1816,280,616,124,-60,-115
6610,1816,288,656,78,-28,-94
6615,1848,272,696,24,3,-79
6620,1888,272,760,-23,37,-63
6625,1864,216,792,-82,69,-42
6630,1848,192,880,-123,104,-13
6635,1856,88,944,-145,143,28
6640,1760,48,960,-144,188,62
6645,1744,0,984,-131,228,95
6650,1616,0,968,-114,259,136
6655,1592,-72,888,-89,274,188
6660,1528,-88,968,-65,285,240
6665,1472,-64,960,-37,293,287
6670,1400,-64,976,-8,297,324
6675,1456,-88,1024,22,298,359
6680,1480,-120,1016,42,310,368
6685,1496,-96,1064,68,313,348
6690,1512,-88,1048,94,296,330
6695,1560,-88,1064,128,273,314
6700,1592,-72,1104,163,253,307
6705,1672,0,1032,191,235,295
6710,1744,0,1032,209,213,284
6715,1784,32,1016,210,191,270
6720,1856,32,1024,204,166,260
6725,1888,0,976,189,135,251
6730,1912,0,944,172,97,238
6735,1952,-16,936,154,55,227
6740,1976,0,944,138,9,209
6745,2000,16,856,132,-31,187
6750,2032,0,816,123,-63,165
6755,2016,0,816,112,-90,143
6760,2048,-16,792,104,-111,121
6765,2024,-40,816,95,-131,98
6770,2040,-16,744,88,-146,83
6775,2016,0,704,80,-159,69
6780,2008,0,696,70,-168,55
6785,2000,-24,712,58,-171,39
6790,1984,-32,736,53,-173,23
6795,1976,-40,656,60,-178,15
6800,1968,-72,688,77,-186,11
6805,1944,-64,736,99,-200,9
6810,1960,-80,712,119,-214,6
6815,1904,-64,728,138,-225,4
6820,1888,-32,704,153,-236,2
6825,1872,-24,704,164,-241,2
6830,1872,0,720,174,-243,1
6835,1816,32,704,178,-241,-1
6840,1832,56,720,173,-242,-1
6845,1840,80,712,168,-241,-6
6850,1840,112,696,160,-238,-11
6855,1824,120,688,148,-237,-19
6860,1816,128,680,132,-234,-25
6865,1840,152,680,110,-230,-34
6870,1848,144,616,82,-220,-41
6875,1840,208,664,59,-207,-49
6880,1832,192,648,35,-196,-57
6885,1824,208,680,8,-187,-63
6890,1864,192,672,-15,-171,-67
6895,1872,208,712,-36,-150,-77
6900,1872,192,720,-53,-129,-85
6905,1880,200,688,-67,-107,-89
6910,1872,152,696,-77,-87,-95
6915,1896,144,672,-86,-70,-98
6920,1920,112,704,-91,-60,-102
6925,1896,136,616,-90,-49,-104
6930,1912,144,632,-90,-40,-103
6935,1904,160,600,-87,-34,-103
6940,1920,168,600,-88,-28,-104
6945,1944,192,560,-91,-18,-104
6950,1984,208,544,-95,-9,-105
6955,1984,200,592,-101,2,-110
6960,2016,232,592,-105,11,-120
6965,2032,240,592,-107,16,-130
6970,2048,240,608,-101,15,-141
6975,2016,264,632,-85,8,-153
6980,2016,288,664,-62,1,-157
6985,1976,256,648,-31,-3,-155
6990,1976,280,648,5,-7,-149
6995,1976,280,664,37,-7,-143
7000,1936,304,688,60,-5,-135
7005,1944,288,696,74,0,-125
7010,1936,296,728,82,5,-113
7015,1936,304,744,86,7,-101
7020,1928,288,744,91,9,-92
7025,1944,264,760,95,6,-79
7030,1928,336,736,100,-2,-63
7035,1936,312,736,102,-17,-48
7040,1952,320,728,107,-38,-34
7045,1944,320,736,119,-54,-24
7050,1944,320,720,133,-62,-24
7055,1920,320,712,150,-61,-28
7060,1960,336,728,167,-63,-30
7065,1912,328,712,182,-65,-28
7070,1912,352,680,196,-65,-25
7075,1904,336,712,205,-63,-17
7080,1896,352,696,211,-64,-10
7085,1880,344,760,213,-56,-8
7090,1856,312,744,210,-49,-6
7095,1856,352,744,201,-45,-4
7100,1848,352,720,187,-42,-1
7105,1848,328,712,174,-42,4
7110,1840,288,752,162,-43,12
7115,1840,288,720,155,-47,21
7120,1832,264,728,155,-49,28
7125,1856,240,736,157,-49,36
7130,1856,288,728,162,-49,39
7135,1864,296,704,163,-51,43
7140,1880,248,688,167,-55,48
7145,1840,256,712,168,-56,53
7150,1856,240,680,168,-61,56
7155,1880,232,672,163,-66,59
7160,1888,232,664,164,-72,60
7165,1912,248,640,169,-77,60
7170,1928,200,656,172,-83,58
7175,1944,200,640,178,-86,57
7180,1944,200,664,186,-86,56
7185,1920,200,664,197,-81,51
7190,1960,200,664,205,-75,46
7195,1944,176,680,209,-69,40
7200,1880,208,648,214,-64,38
7205,1936,160,696,216,-63,38
7210,1952,168,664,215,-67,41
7215,1960,168,688,211,-72,42
7220,1944,184,664,211,-79,45
7225,1968,168,664,207,-86,44
7230,1960,160,648,200,-91,46
7235,1992,168,616,199,-94,43
7240,1976,144,672,198,-94,40
7245,1976,168,656,194,-95,37
7250,1976,192,648,190,-93,31
7255,2024,192,672,182,-92,28
7260,1944,184,648,172,-92,19
7265,1936,192,624,163,-89,17
7270,1944,152,616,151,-82,16
7275,1944,168,632,141,-77,16
7280,1944,168,648,131,-75,13
7285,1920,184,632,124,-77,15
7290,1936,200,616,118,-76,19
7295,1952,184,608,116,-74,23
7300,1952,184,616,113,-72,23
7305,1976,160,624,110,-69,25
7310,1920,144,632,106,-69,25
7315,1960,216,616,98,-67,25
7320,1944,208,608,88,-67,24
7325,1928,224,608,76,-68,22
7330,1936,232,624,61,-70,20
7335,1912,224,624,47,-70,15
7340,1904,216,616,31,-71,8
7345,1920,200,640,16,-73,5
7350,1944,192,664,-3,-77,0
7355,1928,168,632,-22,-76,-9
7360,1920,168,624,-45,-73,-20
7365,1872,176,704,-67,-80,-25
7370,1872,168,656,-97,-89,-26
7375,1896,160,640,-112,-105,-3
7380,1976,144,608,-115,-112,10
7385,1984,144,608,-107,-112,7
7390,2000,144,568,-92,-105,0
7395,2016,160,552,-71,-98,-2
7400,2016,152,576,-42,-86,-1
7405,2000,152,576,-13,-72,3
7410,2000,176,584,14,-60,7
7415,1976,224,544,37,-43,12
7420,1952,192,624,56,-24,14
7425,1992,232,576,72,-2,11
7430,1968,240,520,83,18,8
7435,1960,232,560,91,36,3
7440,1944,240,544,94,49,-3
7445,1976,232,576,96,60,-10
7450,1952,224,560,98,68,-15
7455,1952,240,560,100,75,-16
7460,1960,232,560,99,80,-16
7465,1976,208,616,97,84,-12
7470,1960,232,584,93,84,-9
7475,1984,216,600,86,85,-4
7480,1960,248,584,80,83,0
7485,1960,232,584,78,77,5
7490,1984,232,616,80,73,12
7495,1952,200,576,80,71,13
7500,1936,224,600,82,67,10
7505,1952,232,568,80,69,10
7510,1952,240,616,76,72,6
7515,1952,248,600,72,79,1
7520,1960,224,624,66,89,-5
7525,1944,240,624,64,99,-7
7530,1936,208,584,60,106,-4
7535,1944,224,632,57,116,-2
7540,1944,208,624,54,122,-1
7545,1928,192,592,53,124,0
7550,1952,176,624,52,123,1
7555,1952,208,616,52,122,-1
7560,1952,176,648,51,122,-2
7565,1904,192,640,50,119,-5
7570,1936,192,656,49,115,-8
7575,1920,200,664,46,110,-9
7580,1936,200,680,45,106,-7
7585,1928,176,624,43,103,-11
7590,1944,208,648,41,101,-15
7595,1928,200,680,40,98,-16
7600,1928,200,648,41,98,-18
7605,1936,192,664,44,98,-18
7610,1912,184,648,49,97,-16
7615,1904,216,600,55,101,-10
7620,1912,208,656,56,98,-11
7625,1920,184,608,55,97,-11
7630,1928,224,632,55,96,-13
7635,1936,168,640,55,100,-10
7640,1928,184,672,57,103,-7
7645,1920,168,672,62,106,-1
7650,1928,200,688,66,102,2
7655,1944,168,672,65,97,2
7660,1912,216,664,65,92,2
7665,1936,184,696,65,88,6
7670,1960,200,672,62,84,7
7675,1912,216,680,52,77,5
7680,1928,192,696,46,74,3
7685,1912,240,664,40,69,5
7690,1928,216,688,33,63,4
7695,1928,192,680,29,58,8
7700,1880,216,680,31,52,9
7705,1912,200,672,29,46,10
7710,1904,192,688,29,39,10
7715,1912,200,680,29,36,13
7720,1888,200,680,29,30,17
7725,1920,168,672,32,27,22
7730,1912,152,696,35,24,26
7735,1912,160,688,39,22,27
7740,1896,160,640,44,24,27
7745,1912,176,688,51,27,25
7750,1944,208,648,56,31,22
7755,1896,208,656,58,37,19
7760,1912,224,664,57,41,14
7765,1888,224,672,54,44,11
7770,1904,224,720,49,45,7
7775,1896,240,656,44,44,4
7780,1896,240,672,42,44,5
7785,1872,240,656,38,43,6
7790,1920,216,680,40,43,7
7795,1888,232,672,43,42,8
7800,1904,184,680,49,44,6
7805,1904,192,672,60,44,8
7810,1936,176,720,69,46,10
7815,1920,208,672,78,47,13
7820,1936,232,648,86,49,14
7825,1920,240,664,90,49,19
7830,1912,224,712,93,51,26
7835,1928,224,704,94,51,34
7840,1920,224,680,92,52,40
7845,1928,248,680,90,53,46
7850,1904,232,696,87,54,51
7855,1944,176,656,86,52,56
7860,1920,200,680,90,50,61
7865,1912,216,696,92,48,66
7870,1888,200,672,95,46,69
7875,1920,200,728,94,40,66
7880,1912,192,680,92,36,64
7885,1904,176,664,92,32,61
7890,1944,152,648,93,26,54
7895,1912,160,656,90,22,48
7900,1928,176,664,85,19,37
7905,1912,192,680,81,19,29
7910,1928,192,648,76,18,28
7915,1928,208,672,72,21,24
7920,1928,200,672,72,25,18
7925,1912,208,664,76,31,18
7930,1912,208,664,85,35,20
7935,1896,192,688,92,37,18
7940,1904,176,648,97,40,18
7945,1888,200,680,103,42,19
7950,1888,184,664,109,43,18
7955,1920,184,688,116,46,17
7960,1864,240,672,120,49,15
7965,1928,240,664,125,53,14
7970,1912,160,672,126,55,15
7975,1896,200,704,124,56,14
7980,1928,168,696,122,56,15
7985,1912,168,712,118,55,15
7990,1928,176,696,114,52,17
7995,1944,192,736,111,46,19
8000,1944,192,680,111,41,18
8005,1888,216,712,105,33,20
8010,1928,200,720,102,25,20
8015,1904,176,696,98,17,20
8020,1896,128,704,96,10,22
8025,1904,168,696,98,2,24
8030,1936,168,672,103,-3,23
8035,1904,168,656,109,-5,23
8040,1920,184,640,115,-5,23
8045,1896,184,656,123,-2,23
8050,1904,176,720,128,-1,23
8055,1920,208,688,125,2,22
8060,1880,216,688,121,5,18
8065,1896,192,672,118,7,17
8070,1944,200,624,113,8,16
8075,1928,192,688,105,9,13
8080,1920,192,672,94,7,11
8085,1928,200,680,85,4,11
8090,1936,152,712,80,2,12
8095,1888,184,736,79,-2,13
8100,1904,176,736,82,-6,14
8105,1912,176,680,87,-13,16
8110,1920,144,688,95,-17,19
8115,1912,184,672,102,-21,21
8120,1936,216,672,108,-24,21
8125,1896,152,640,113,-24,18
8130,1912,192,664,115,-22,17
8135,1912,200,688,114,-20,11
8140,1896,200,632,108,-15,6
8145,1888,184,656,103,-10,-2
8150,1896,216,624,101,-6,-10
8155,1888,208,672,99,-2,-16
8160,1880,208,664,98,2,-18
8165,1928,168,664,99,7,-24
8170,1904,184,672,99,12,-25
8175,1928,184,640,96,20,-27
8180,1912,160,648,93,26,-26
8185,1936,176,664,90,32,-22
8190,1944,160,656,91,36,-15
8195,1936,136,640,91,39,-14
8200,1984,136,648,91,41,-9
8205,1952,152,656,89,41,-3
8210,1944,168,672,90,41,-2
8215,1960,160,648,90,40,-3
8220,1952,160,648,90,37,-2
8225,1920,168,640,93,36,-4
8230,1952,192,608,97,37,-7
8235,1960,192,624,98,36,-10
8240,1944,216,624,99,36,-12
8245,1968,208,664,103,38,-11
8250,1952,232,664,104,41,-10
8255,1952,256,656,100,42,-8
8260,1936,224,672,93,41,-10
8265,1928,232,656,90,39,-13
8270,1912,232,608,91,41,-14
8275,1952,192,672,91,42,-13
8280,1912,224,656,87,40,-9
8285,1912,256,640,84,40,-9
8290,1904,232,648,79,38,-10
8295,1920,200,680,79,35,-9
8300,1928,200,680,82,34,-8
8305,1920,240,672,80,36,-6
8310,1888,232,696,72,35,-4
8315,1904,224,656,68,37,-2
8320,1920,216,680,61,39,2
8325,1928,200,680,57,40,3
8330,1896,208,704,55,39,5
8335,1896,224,688,56,38,6
8340,1920,240,696,49,36,6
8345,1912,184,720,45,34,8
8350,1904,216,720,41,31,7
8355,1888,216,672,38,30,8
8360,1912,224,696,35,27,6
8365,1896,200,704,33,23,7
8370,1888,208,696,30,22,4
8375,1872,216,712,28,19,5
8380,1880,192,712,26,17,4
8385,1880,200,712,21,17,1
8390,1880,200,688,17,16,-1
8395,1864,200,712,12,15,-2
8400,1872,200,680,7,14,-1
8405,1912,176,696,2,14,-3
8410,1904,176,712,-2,15,-6
8415,1904,184,712,-2,15,-4
8420,1912,168,696,-2,15,-4
8425,1912,160,712,-2,12,-2
8430,1928,152,672,3,10,-2
8435,1944,136,696,8,9,-3
8440,1920,160,688,16,6,-4
8445,1944,152,680,23,5,-5
8450,1920,176,688,26,6,-5
8455,1984,176,680,31,6,-7
8460,1936,200,672,32,7,-7
8465,1928,184,656,33,6,-6
8470,1904,176,664,34,5,-9
8475,1920,168,664,35,4,-8
8480,1912,152,656,40,3,-7
8485,1888,168,672,43,4,-4
8490,1928,152,672,47,3,-5
8495,1896,168,656,51,6,-1
8500,1888,200,680,54,5,0
8505,1928,184,720,54,6,1
8510,1896,144,672,54,6,3
8515,1920,192,696,57,7,4
8520,1888,184,688,60,7,6
8525,1904,192,672,66,9,7
8530,1904,184,656,71,11,5
8535,1928,168,696,70,14,6
8540,1896,216,656,71,17,5
8545,1888,184,672,73,20,2
8550,1920,184,680,78,24,3
8555,1888,184,656,79,29,-1
8560,1872,184,656,79,34,-1
8565,1912,168,664,78,37,-3
8570,1904,168,656,78,39,-4
8575,1936,200,672,79,42,-6
8580,1904,192,672,80,44,-6
8585,1912,200,680,80,46,-6
8590,1928,192,704,78,48,-5
8595,1904,192,696,77,48,-5
8600,1928,184,688,76,47,-1
8605,1952,184,712,75,47,2
8610,1936,208,656,72,43,0
8615,1856,208,728,71,39,0
8620,1904,200,712,73,37,1
8625,1936,192,712,75,34,3
8630,1904,208,704,76,28,4
8635,1928,144,720,75,23,9
8640,1904,176,720,72,17,9
8645,1896,208,720,70,11,9
8650,1912,184,712,68,5,8
8655,1912,184,728,67,1,8
8660,1904,176,696,68,-2,7
8665,1880,208,712,72,-7,4
8670,1880,168,672,74,-9,5
8675,1880,192,680,78,-11,4
8680,1920,184,672,82,-9,3
8685,1896,200,672,86,-8,3
8690,1912,200,672,87,-7,-2
8695,1912,208,648,90,-4,-3
8700,1920,192,656,92,3,-4
8705,1912,184,656,90,8,-3
8710,1896,192,664,87,16,-3
8715,1912,200,672,81,21,-5
8720,1936,168,688,76,25,-5
8725,1872,200,664,74,30,-5
8730,1912,160,688,77,35,-5
8735,1928,184,688,80,40,-2
8740,1936,176,672,83,42,0
8745,1944,176,640,86,46,0
8750,1928,200,672,88,47,1
8755,1936,176,672,86,47,3
8760,1928,176,680,84,46,4
8765,1952,208,688,81,47,1
8770,1944,200,696,80,47,-2
8775,1952,184,664,78,45,-6
8780,1912,200,704,75,42,-5
8785,1904,216,688,73,38,-6
8790,1912,208,680,74,37,-9
8795,1912,216,696,75,35,-7
8800,1904,176,728,80,30,-7
8805,1904,208,680,85,27,-4
8810,1936,176,704,88,25,-3
8815,1912,200,656,87,25,-3
8820,1920,216,696,86,24,-3
8825,1928,224,688,83,27,-4
8830,1888,216,688,77,29,-7
8835,1840,240,648,72,33,-12
8840,1904,176,696,64,37,-16
8845,1888,208,688,59,42,-19
8850,1912,224,696,53,47,-21
8855,1904,200,664,50,49,-25
8860,1904,200,672,48,52,-26
8865,1920,184,688,47,55,-29
8870,1888,216,680,44,58,-29
8875,1896,200,696,42,58,-28
8880,1928,216,720,37,58,-27
8885,1904,208,656,30,57,-28
8890,1928,192,680,29,55,-28
8895,1928,184,672,25,51,-31
8900,1928,152,712,22,45,-31
8905,1944,176,720,20,40,-31
8910,1928,176,704,18,35,-32
8915,1920,168,664,17,29,-32
8920,1928,184,720,13,25,-33
8925,1904,184,696,10,24,-31
8930,1896,184,688,10,24,-32
8935,1920,200,704,13,25,-32
8940,1944,176,696,19,25,-31
8945,1896,128,680,24,27,-28
8950,1912,168,688,29,26,-26
8955,1896,192,688,36,27,-28
8960,1912,184,696,37,29,-19
8965,1912,192,680,40,35,-20
8970,1920,232,720,38,33,-21
8975,1912,192,712,43,34,-21
8980,1896,224,688,47,37,-19
8985,1912,184,688,47,38,-18
8990,1904,192,688,46,37,-20
8995,1912,200,720,48,36,-18
9000,1872,280,680,50,36,-15
9005,1920,200,720,52,34,-13
9010,1880,216,712,55,34,-14
9015,1904,200,736,56,32,-13
9020,1904,200,696,57,30,-11
9025,1904,216,704,58,29,-12
9030,1904,200,704,57,26,-10
9035,1888,184,696,56,24,-9
9040,1888,232,728,58,19,-5
9045,1880,208,720,55,19,-3
9050,1872,248,736,50,16,-2
9055,1856,208,696,50,14,-2
9060,1880,216,712,52,12,-2
9065,1888,192,712,56,13,-3
9070,1888,192,696,59,15,-2
9075,1904,192,704,62,18,-3
9080,1888,192,720,62,18,-1
9085,1888,184,704,62,20,-3
9090,1896,216,688,60,23,-4
9095,1872,184,680,59,26,-3
9100,1880,192,728,55,27,-2
9105,1872,240,672,53,29,-2
9110,1896,200,728,51,31,-4
9115,1896,216,688,50,29,-2
9120,1904,224,720,52,28,-1
9125,1896,184,704,53,23,-2
9130,1920,200,704,56,22,-1
9135,1904,208,688,58,19,0
9140,1944,176,712,61,14,0
9145,1936,184,712,66,9,-1
9150,1896,160,696,67,6,-4
9155,1928,216,712,66,4,-5
9160,1896,208,696,62,2,-6
9165,1896,224,696,55,1,-7
9170,1904,200,712,48,-1,-11
9175,1872,232,728,39,-3,-8
9180,1896,192,712,33,-4,-8
9185,1888,184,704,30,-4,-10
9190,1904,184,720,29,-5,-9
9195,1896,144,688,29,-6,-10
9200,1888,168,688,32,-5,-11
9205,1904,184,680,34,-5,-9
9210,1880,192,696,36,-4,-9
9215,1904,176,664,38,-4,-9
9220,1928,184,688,43,-3,-9
9225,1880,192,696,45,-4,-9
9230,1920,160,704,48,-3,-8
9235,1904,192,696,53,-2,-9
9240,1896,200,688,59,-1,-9
9245,1912,176,696,63,4,-11
9250,1896,176,704,66,6,-11
9255,1920,200,680,70,11,-11
9260,1896,216,680,72,15,-13
9265,1928,200,672,74,17,-12
9270,1904,216,680,76,19,-13
9275,1912,184,704,78,20,-12
9280,1904,200,720,79,20,-13
9285,1896,176,704,80,20,-14
9290,1912,184,720,80,19,-10
9295,1928,192,688,81,17,-10
9300,1920,168,704,84,14,-8
9305,1896,160,736,84,11,-7
9310,1904,192,696,89,8,-7
9315,1880,192,728,90,5,-6
9320,1912,208,720,91,3,-7
9325,1864,232,736,90,1,-7
9330,1904,192,704,91,-3,-5
9335,1904,200,696,89,-4,-5
9340,1912,168,704,90,-4,-4
9345,1888,184,688,94,-3,-7
9350,1888,184,688,99,-4,-7
9355,1904,176,688,104,-2,-8
9360,1896,176,672,107,1,-8
9365,1880,184,688,112,3,-7
9370,1872,176,656,114,5,-8
9375,1936,152,688,113,9,-8
9380,1896,168,656,114,11,-8
9385,1896,208,704,116,12,-9
9390,1896,208,688,119,13,-10
9395,1912,200,672,120,15,-12
9400,1888,208,696,121,16,-13
9405,1920,200,688,119,15,-9
9410,1896,224,696,116,16,-12
9415,1928,224,712,110,18,-13
9420,1912,232,712,105,18,-14
9425,1888,240,680,101,16,-14
9430,1936,176,696,100,14,-14
9435,1944,160,696,103,9,-15
9440,1896,200,680,108,5,-14
9445,1896,192,688,111,1,-17
9450,1904,216,680,114,-2,-16
9455,1912,184,688,116,-5,-17
9460,1912,200,696,118,-4,-16
9465,1928,224,680,120,-5,-15
9470,1904,200,672,120,-4,-11
9475,1928,208,704,119,-3,-13
9480,1912,192,688,117,-1,-14
9485,1896,200,680,115,-2,-14
9490,1872,240,688,116,-2,-13
9495,1920,192,664,116,-1,-12
9500,1920,192,656,116,-2,-12
9505,1928,184,704,117,-1,-12
9510,1880,208,672,116,0,-13
9515,1936,200,704,118,2,-14
9520,1912,240,656,120,6,-14
9525,1896,216,672,124,10,-16
9530,1920,240,672,126,13,-18
9535,1928,240,656,127,17,-22
9540,1920,224,672,125,22,-23
9545,1848,184,712,129,26,-27
9550,1904,224,672,133,27,-29
9555,1880,240,688,133,30,-28
9560,1912,224,736,135,33,-29
9565,1904,208,688,138,32,-29
9570,1928,208,712,140,29,-30
9575,1912,216,776,145,27,-28
9580,1920,240,768,150,21,-27
9585,1936,176,736,156,14,-27
9590,1944,168,736,161,4,-28
9595,1904,200,760,163,-9,-25
9600,1928,200,720,162,-23,-24
9605,1912,216,712,157,-36,-25
9610,1904,224,736,146,-52,-21
9615,1920,192,704,134,-63,-19
9620,1896,208,728,124,-74,-19
9625,1896,224,672,115,-86,-13
9630,1936,192,664,112,-95,-7
9635,1920,240,656,109,-93,-10
9640,1888,216,648,111,-89,-10
9645,1896,216,664,118,-80,-11
9650,1880,232,648,124,-66,-16
9655,1872,240,664,130,-53,-21
9660,1904,264,664,135,-35,-28
9665,1904,272,656,139,-18,-32
9670,1904,240,656,141,-4,-35
9675,1896,248,656,142,7,-36
9680,1912,256,672,141,14,-37
9685,1904,272,664,137,22,-35
9690,1936,248,672,131,27,-33
9695,1928,248,640,123,28,-35
9700,1920,256,680,114,28,-33
9705,1952,200,776,106,27,-32
9710,1920,256,680,98,23,-31
9715,1928,224,688,90,20,-30
9720,1912,248,704,85,18,-29
9725,1904,240,664,80,15,-28
9730,1912,248,696,74,13,-27
9735,1904,232,688,71,9,-26
9740,1912,224,672,70,9,-25
9745,1920,216,696,73,8,-25
9750,1880,240,688,72,6,-26
9755,1912,216,696,71,6,-24
9760,1880,208,672,70,7,-24
9765,1880,256,688,72,9,-24
9770,1896,232,680,70,11,-23
9775,1920,264,672,70,14,-22
9780,1896,224,680,70,15,-23
9785,1912,256,680,69,18,-22
9790,1912,248,680,66,21,-21
9795,1928,264,688,63,22,-22
9800,1904,264,664,63,24,-20
9805,1936,256,680,60,23,-19
9810,1912,256,672,58,21,-17
9815,1912,232,648,58,19,-16
9820,1928,224,656,60,17,-14
9825,1912,256,696,62,17,-12
9830,1920,216,704,66,13,-11
9835,1920,224,688,70,11,-11
9840,1920,208,648,76,9,-11
9845,1936,216,680,82,7,-9
9850,1944,216,680,86,5,-11
9855,1912,240,704,87,6,-11
9860,1920,240,680,85,5,-12
9865,1904,240,696,81,6,-14
9870,1896,248,664,74,6,-17
9875,1904,240,680,68,10,-16
9880,1880,248,704,63,11,-17
9885,1904,248,688,58,10,-15
9890,1896,232,680,54,10,-13
9895,1880,240,664,51,9,-14
9900,1896,240,704,48,8,-11
9905,1904,240,656,48,6,-9
9910,1888,256,704,45,2,-7
9915,1896,232,704,40,-3,-3
9920,1928,264,704,39,-7,-1
9925,1896,216,728,38,-9,-1
9930,1912,240,648,40,-9,-1
9935,1912,240,696,41,-9,-1
9940,1912,224,688,40,-7,-2
9945,1928,216,672,40,-5,-4
9950,1928,216,664,40,0,-6
9955,1888,240,648,43,4,-10
9960,1944,216,680,45,8,-7
9965,1896,256,688,47,11,-8
9970,1920,232,696,45,12,-9
9975,1920,240,688,48,16,-10
9980,1920,192,720,47,16,-11
9985,1928,248,688,47,16,-8
9990,1920,232,656,45,15,-8
9995,1928,216,672,46,14,-11
10000,1936,208,672,49,13,-10
10005,1912,208,648,49,11,-13
10010,1896,232,680,50,12,-12
10015,1936,240,648,53,9,-13
10020,1936,208,656,55,10,-15
10025,1928,216,680,55,9,-12
10030,1912,240,696,55,7,-14
10035,1896,224,664,56,9,-16
10040,1904,248,672,57,8,-16
10045,1928,248,632,56,9,-16
10050,1936,248,704,55,8,-15
10055,1912,248,672,55,7,-15
10060,1904,248,680,53,6,-15
10065,1920,248,656,54,6,-13
10070,1944,232,704,55,5,-14
10075,1912,264,648,56,3,-12
10080,1936,248,728,54,2,-11
10085,1896,248,704,55,0,-10
10090,1896,240,672,54,-6,-8
10095,1912,264,680,53,-8,-8
10100,1904,272,672,54,-9,-10
10105,1928,256,664,52,-11,-12
10110,1928,264,672,51,-12,-11
10115,1896,264,656,47,-14,-9
10120,1904,264,688,44,-14,-8
10125,1912,200,656,43,-17,-7
10130,1896,248,664,42,-20,-4
10135,1912,232,688,38,-24,-1
10140,1888,208,728,38,-27,3
10145,1936,224,664,41,-31,1
10150,1904,248,688,42,-34,3
10155,1904,272,656,40,-37,5
10160,1896,240,664,37,-39,4
10165,1896,272,680,33,-42,2
10170,1904,256,672,29,-46,2
10175,1888,256,680,28,-44,2
10180,1904,232,664,31,-41,-1
10185,1888,256,672,35,-34,-2
10190,1880,240,680,35,-32,0
10195,1920,208,616,35,-30,1
10200,1928,256,656,34,-23,0
10205,1920,224,664,34,-20,0
10210,1936,224,672,32,-15,-3
10215,1944,216,672,27,-11,-6
10220,1928,240,664,22,-7,-7
10225,1928,240,656,15,-7,-7
10230,1928,208,688,11,-5,-8
10235,1904,200,656,7,-6,-7
10240,1920,208,672,8,-7,-5
10245,1920,240,680,8,-8,-4
10250,1912,208,688,8,-10,-2
10255,1920,240,656,6,-10,-1
10260,1920,232,664,3,-10,1
10265,1936,224,664,1,-10,4
10270,1912,232,688,-2,-10,4
10275,1904,216,672,1,-9,3
10280,1920,184,648,4,-7,-2
10285,1928,200,688,10,-6,-3
10290,1896,200,688,15,-4,-5
10295,1904,208,680,24,-3,-4
10300,1944,232,656,29,-2,-5
10305,1944,224,608,32,-2,-5
10310,1936,256,640,28,3,-4
10315,1936,224,664,24,6,-6
10320,1936,232,648,17,10,-6
10325,1920,208,672,9,12,-3
10330,1920,200,648,1,13,-2
10335,1920,200,704,-6,14,1
10340,1936,200,672,-10,13,4
10345,1920,200,680,-11,10,10
10350,1904,200,672,-11,9,12
10355,1936,200,664,-11,7,18
10360,1912,168,664,-8,4,20
10365,1944,208,632,-4,4,23
10370,1936,192,656,-1,5,22
10375,1928,224,648,2,5,20
10380,1944,240,672,4,7,21
10385,1920,224,664,8,8,20
10390,1920,232,648,12,9,19
10395,1888,200,656,15,12,18
10400,1944,208,640,16,13,18
10405,1952,216,648,18,15,20
10410,1936,176,640,22,13,25
10415,1992,224,656,27,12,27
10420,1936,240,656,32,11,28
10425,1920,216,656,39,9,27
10430,1912,232,664,45,8,27
10435,1904,216,656,49,7,26
10440,1904,224,648,51,8,24
10445,1936,208,656,54,6,23
10450,1912,240,672,54,7,21
10455,1904,224,664,55,6,19
10460,1888,232,680,53,10,17
10465,1896,240,664,49,10,16
10470,1896,216,632,44,13,18
10475,1912,248,664,40,13,17
10480,1928,216,656,37,14,18
10485,1904,224,640,31,14,18
10490,1920,232,696,27,14,19
10495,1912,200,688,23,14,20
10500,1944,208,664,18,12,21
10505,1920,200,696,15,7,20
10510,1920,200,664,15,7,18
10515,1920,216,632,14,6,15
10520,1904,264,664,14,5,13
10525,1952,200,672,13,3,8
10530,1920,232,672,13,4,6
10535,1920,224,648,12,5,5
10540,1952,208,624,9,7,3
10545,1928,216,640,8,9,1
10550,1920,232,624,5,9,1
10555,1912,200,632,5,12,2
10560,1920,168,640,7,13,3
10565,1928,184,640,10,12,5
10570,1936,208,680,20,13,5
10575,1944,184,656,28,14,4
10580,1880,176,616,36,14,4
10585,1936,256,648,41,15,2
10590,1920,192,672,44,18,1
10595,1904,192,640,44,21,-2
10600,1920,208,672,42,20,-3
10605,1928,216,672,39,22,-8
10610,1912,232,672,35,24,-11
10615,1928,192,688,31,28,-14
10620,1928,192,640,28,29,-15
10625,1936,208,640,25,29,-12
10630,1952,192,656,25,30,-13
10635,1928,176,680,26,28,-11
10640,1936,192,672,27,25,-9
10645,1936,208,640,27,23,-6
10650,1936,208,680,29,21,-5
10655,1928,216,672,28,19,-1
10660,1960,208,640,26,17,-1
10665,1920,208,672,25,13,0
10670,1944,224,696,21,11,1
10675,1936,208,664,20,11,2
10680,1936,248,672,19,13,2
10685,1864,152,600,17,12,0
10690,1944,216,632,16,11,-1
10695,1928,208,688,15,9,-1
10700,1928,192,656,15,10,-3
10705,1920,192,680,16,10,-1
10710,1904,200,672,19,11,-1
10715,1904,192,656,19,12,0
10720,1912,208,664,20,11,-2
10725,1928,184,656,23,9,0
10730,1920,184,688,27,8,3
10735,1888,192,664,30,10,4
10740,1880,176,736,35,9,5
10745,1904,208,640,40,10,7
10750,1920,232,656,43,11,5
10755,1896,216,672,46,12,5
10760,1920,216,688,47,14,6
10765,1928,216,656,47,16,3
10770,1888,224,672,43,17,2
10775,1880,216,632,42,17,3
10780,1864,224,664,41,15,1
10785,1896,200,728,39,14,2
10790,1936,176,656,38,12,3
10795,1888,192,656,35,9,3
10800,1936,216,672,31,10,2
10805,1920,224,688,31,9,1
10810,1928,200,656,32,7,1
10815,1912,208,656,35,3,-2
10820,1936,176,672,37,1,-2
10825,1920,200,648,39,0,-1
10830,1912,208,672,42,-3,-2
10835,1896,208,680,45,-5,-5
10840,1920,160,664,48,-6,-2
10845,1920,176,640,50,-9,-4
10850,1952,248,680,48,-9,-4
10855,1920,216,632,48,-8,-5
10860,1904,200,664,44,-6,-5
10865,1944,208,656,40,-1,-4
10870,1912,200,680,36,-2,-4
10875,1920,176,656,33,-4,-6
10880,1936,176,648,33,-7,-4
10885,1912,192,696,35,-8,-4
10890,1904,200,688,35,-9,-1
10895,1944,208,664,36,-9,-2
10900,1912,192,648,35,-9,-3
10905,1944,168,632,35,-10,0
10910,1928,184,672,35,-10,-1
10915,1920,192,664,38,-11,-2
10920,1920,192,656,38,-11,-3
10925,1912,192,680,38,-11,-6
10930,1920,192,672,38,-11,-6
10935,1912,192,680,37,-10,-7
10940,1960,152,648,37,-10,-6
10945,1952,176,648,37,-8,-5
10950,1920,192,648,39,-10,-6
10955,1920,152,664,41,-10,-5
10960,1904,176,648,45,-12,-4
10965,1952,160,632,51,-12,-2
10970,1944,192,624,56,-15,-4
10975,1936,200,648,61,-18,-3
10980,1912,208,672,65,-14,-3
10985,1896,224,624,66,-11,-6
10990,1912,224,656,63,-7,-10
10995,1912,216,664,60,-4,-14
11000,1880,216,640,59,-3,-15
11005,1912,192,672,59,-2,-14
11010,1904,224,616,60,0,-14
11015,1920,216,720,60,0,-12
11020,1936,208,624,60,-1,-11
11025,1920,200,656,59,1,-9
11030,1936,208,624,58,3,-8
11035,1920,200,648,57,2,-7
11040,1928,208,664,56,0,-3
11045,1920,192,672,58,-1,-3
11050,1920,176,648,60,-2,-1
11055,1912,208,616,64,-2,-3
11060,1920,208,632,66,-3,-4
11065,1936,192,656,69,0,-6
11070,1896,216,568,71,4,-8
11075,1928,208,592,71,11,-12
11080,1944,200,616,71,18,-11
11085,1936,208,624,70,23,-14
11090,1936,208,640,70,27,-16
11095,1936,224,656,71,31,-15
11100,1944,208,608,69,35,-16
11105,1944,240,584,71,37,-17
11110,1952,192,608,71,39,-15
11115,1936,184,664,72,41,-14
11120,1952,200,648,74,41,-14
11125,1960,176,688,75,40,-13
11130,1928,208,656,75,40,-13
11135,1936,200,672,76,41,-13
11140,1944,176,664,75,39,-13
11145,1928,192,648,75,38,-12
11150,1928,192,648,75,38,-11
11155,1912,192,640,73,38,-12
11160,1896,208,680,74,37,-12
11165,1920,184,656,74,37,-12
11170,1896,216,672,71,39,-11
11175,1880,208,680,67,41,-12
11180,1936,200,656,63,44,-13
11185,1928,200,664,61,47,-15
11190,1912,208,608,58,49,-15
11195,1920,216,640,55,51,-14
11200,1920,200,664,54,52,-13
11205,1944,192,648,54,53,-14
11210,1928,184,680,57,52,-12
11215,1912,208,672,60,53,-13
11220,1904,232,632,65,51,-12
11225,1960,184,688,67,47,-13
11230,1920,200,616,69,45,-14
11235,1928,208,656,73,44,-16
11240,1912,224,680,74,42,-15
11245,1904,224,656,73,41,-15
11250,1920,216,672,69,41,-15
11255,1920,216,680,65,41,-14
11260,1928,216,680,60,40,-13
11265,1920,216,688,56,39,-12
11270,1912,216,688,52,38,-11
11275,1936,200,664,52,34,-11
11280,1952,184,728,52,32,-7
11285,1952,200,664,54,29,-5
11290,1920,184,672,59,26,-4
11295,1944,176,704,65,23,-5
11300,1928,224,640,71,20,-7
11305,1928,216,648,73,18,-9
11310,1920,200,672,71,16,-12
11315,1912,216,640,67,16,-13
11320,1896,216,648,62,18,-15
11325,1912,200,680,57,20,-18
11330,1904,224,624,53,22,-19
11335,1912,192,664,51,23,-19
11340,1912,160,712,50,25,-22
11345,1904,200,656,50,25,-21
11350,1904,200,664,52,25,-19
11355,1904,192,664,53,28,-20
11360,1936,192,664,55,28,-19
11365,1928,160,648,57,29,-18
11370,1928,192,672,60,30,-15
11375,1920,192,696,60,32,-15
11380,1952,160,656,62,32,-14
11385,1920,216,680,65,33,-15
11390,1936,168,680,66,33,-16
11395,1920,160,656,66,34,-17
11400,1928,208,672,67,35,-17
11405,1912,184,672,66,37,-16
11410,1928,216,648,65,37,-18
11415,1928,200,680,65,39,-18
11420,1936,208,656,63,38,-18
11425,1912,200,640,66,38,-17
11430,1936,200,616,67,38,-16
11435,1920,192,672,68,36,-14
11440,1912,192,664,70,34,-12
11445,1880,216,664,71,33,-14
11450,1912,200,664,71,30,-16
11455,1936,192,672,74,31,-12
11460,1920,184,704,72,33,-14
11465,1936,232,680,70,34,-15
11470,1920,208,656,71,34,-15
11475,1920,192,656,71,35,-15
11480,1904,216,672,71,38,-16
11485,1920,224,688,72,39,-16
11490,1912,184,656,73,38,-16
11495,1912,200,704,73,38,-14
11500,1904,240,656,76,38,-12
11505,1880,240,632,79,38,-13
11510,1880,208,672,81,38,-12
11515,1912,208,664,89,37,-11
11520,1904,216,672,86,36,-13
11525,1928,208,688,84,36,-9
11530,1920,208,648,84,38,-9
11535,1912,200,680,80,37,-9
11540,1912,216,664,77,39,-11
11545,1904,216,656,74,38,-12
11550,1936,240,688,70,40,-15
11555,1912,248,712,67,44,-14
11560,1888,256,672,60,45,-15
11565,1952,208,704,53,45,-14
11570,1920,224,712,47,44,-15
11575,1936,200,672,43,40,-13
11580,1912,192,688,39,38,-13
11585,1928,200,688,40,33,-13
11590,1920,200,720,42,28,-13
11595,1904,216,680,47,23,-11
11600,1920,192,688,52,19,-12
11605,1912,184,704,55,14,-13
11610,1928,232,696,58,8,-13
11615,1888,176,760,59,4,-14
11620,1928,192,696,58,3,-15
11625,1904,240,680,58,2,-15
11630,1928,192,664,57,1,-14
11635,1928,200,680,55,1,-14
11640,1912,224,664,58,-1,-14
11645,1912,168,712,59,-2,-13
11650,1928,208,680,61,-1,-13
11655,1928,224,704,63,1,-13
11660,1928,224,696,63,2,-11
11665,1920,216,704,62,4,-7
11670,1920,224,672,62,3,-7
11675,1896,232,672,61,6,-10
11680,1912,216,672,60,9,-9
11685,1904,224,672,60,10,-10
11690,1904,208,672,64,12,-10
11695,1928,208,656,69,12,-13
11700,1912,240,632,75,14,-14
11705,1920,224,664,80,16,-16
11710,1904,224,640,83,19,-17
11715,1936,200,632,83,23,-18
11720,1912,208,688,81,27,-19
11725,1936,216,656,78,31,-19
11730,1928,208,696,74,32,-20
11735,1904,200,656,71,33,-16
11740,1928,192,688,67,31,-16
11745,1936,184,688,64,29,-16
11750,1904,216,696,64,26,-16
11755,1896,184,640,63,24,-17
11760,1896,224,672,62,22,-15
11765,1920,192,672,58,21,-15
11770,1856,224,648,58,21,-16
11775,1856,232,704,53,19,-12
11780,1936,192,680,50,20,-13
11785,1912,216,672,48,23,-17
11790,1912,216,608,50,26,-15
11795,1920,216,656,51,27,-16
11800,1936,192,664,52,30,-16
11805,1928,200,672,55,31,-17
11810,1920,200,680,55,32,-16
11815,1896,208,656,56,33,-15
11820,1928,200,648,56,36,-16
11825,1928,200,688,58,38,-15
11830,1952,208,664,58,39,-15
11835,1928,224,672,61,40,-17
11840,1928,216,688,61,40,-17
11845,1936,200,680,61,40,-17
11850,1944,208,688,62,36,-18
11855,1912,216,688,64,35,-18
11860,1912,224,680,64,33,-19
11865,1912,208,688,65,32,-17
11870,1896,240,656,66,33,-16
11875,1888,184,688,67,33,-16
11880,1888,192,656,66,33,-16
11885,1896,224,696,66,34,-16
11890,1912,224,680,65,34,-13
11895,1904,216,688,65,37,-11
11900,1904,208,688,66,36,-10
11905,1912,208,720,65,35,-10
11910,1904,232,680,63,34,-9
11915,1904,216,680,63,32,-10
11920,1912,248,712,59,29,-7
11925,1904,240,696,57,26,-6
11930,1912,208,680,55,21,-7
11935,1904,232,672,52,17,-8
11940,1888,240,664,48,13,-6
11945,1904,224,664,44,12,-8
11950,1936,232,696,44,11,-9
11955,1920,232,688,41,12,-9
11960,1912,208,672,38,13,-10
11965,1912,208,688,36,12,-10
11970,1928,200,672,34,15,-13
11975,1880,216,648,36,16,-10
11980,1912,184,624,40,19,-12
11985,1920,192,680,46,21,-10
11990,1936,152,656,52,22,-11
11995,1888,192,680,56,25,-12
12000,1896,216,656,58,27,-14
12005,1928,208,688,59,28,-14
12010,1864,224,704,59,29,-16
12015,1904,232,640,58,30,-18
12020,1912,208,704,56,31,-21
12025,1888,240,680,54,33,-22
12030,1864,248,720,52,33,-27
12035,1880,224,688,50,34,-28
12040,1880,232,712,49,34,-30
12045,1944,200,688,46,33,-26
12050,1928,184,744,45,32,-24
12055,1904,200,728,46,30,-24
12060,1912,192,704,44,30,-24
12065,1912,192,696,43,30,-20
12070,1912,208,680,42,29,-18
12075,1928,192,680,42,26,-15
12080,1944,200,656,42,26,-15
12085,1912,224,656,43,24,-14
12090,1944,216,696,43,23,-14
12095,1888,248,696,45,22,-14
12100,1944,224,728,46,20,-14
12105,1904,248,720,46,19,-14
12110,1928,200,688,48,19,-14
12115,1912,208,696,46,17,-16
12120,1920,240,680,47,17,-16
12125,1896,216,712,48,16,-18
12130,1920,216,688,47,15,-17
12135,1920,216,688,49,13,-15
12140,1912,200,720,52,11,-15
12145,1912,216,680,56,10,-16
12150,1888,200,680,60,9,-15
12155,1856,200,664,64,8,-14
12160,1904,232,704,64,5,-12
12165,1912,224,696,65,4,-14
12170,1912,232,696,69,4,-14
12175,1912,240,680,71,4,-15
12180,1880,232,680,73,5,-13
12185,1912,224,688,73,6,-12
12190,1888,240,696,73,6,-13
12195,1880,224,688,73,5,-12
12200,1896,208,648,74,6,-13
12205,1888,240,680,73,7,-11
12210,1904,200,712,73,8,-9
12215,1928,216,664,72,9,-8
12220,1896,248,664,72,9,-8
12225,1920,216,672,72,8,-7
12230,1904,232,680,70,7,-8
12235,1912,232,680,66,5,-7
12240,1936,224,680,64,4,-9
12245,1912,224,664,61,1,-9
12250,1928,208,680,58,2,-8
12255,1944,224,704,55,2,-11
12260,1904,240,680,51,0,-10
12265,1920,224,688,48,-1,-7
12270,1904,232,664,44,-1,-8
12275,1920,232,672,44,2,-10
12280,1920,216,672,43,4,-12
12285,1912,184,704,42,4,-10
12290,1912,200,672,43,6,-9
12295,1896,200,656,46,4,-7
12300,1912,184,712,52,5,-7
12305,1912,224,688,58,6,-8
12310,1912,208,648,63,7,-9
12315,1896,216,672,67,7,-9
12320,1904,280,712,69,6,-10
12325,1864,216,656,71,7,-11
12330,1912,224,696,72,7,-12
12335,1928,192,688,72,7,-12
12340,1896,224,688,75,7,-13
12345,1920,200,680,74,7,-16
12350,1928,192,664,76,6,-16
12355,1920,216,688,75,7,-16
12360,1928,216,712,75,5,-16
12365,1936,192,664,74,5,-13
12370,1920,224,672,73,5,-15
12375,1872,216,640,71,6,-15
12380,1920,224,672,68,5,-15
12385,1904,224,680,65,6,-16
12390,1904,216,720,64,6,-18
12395,1904,232,672,64,7,-18
12400,1904,216,680,69,7,-19
12405,1888,216,696,73,6,-16
12410,1912,224,704,78,8,-18
12415,1920,200,704,81,9,-18
12420,1896,240,680,85,9,-17
12425,1920,240,720,85,11,-18
12430,1896,200,720,83,10,-18
12435,1904,160,688,82,10,-18
12440,1904,232,680,80,8,-18
12445,1888,280,672,78,6,-17
12450,1864,216,672,74,2,-19
12455,1944,184,776,70,0,-17
12460,1888,240,712,67,-3,-18
12465,1896,256,688,65,-3,-17
12470,1872,224,656,62,-3,-18
12475,1896,264,664,61,-2,-19
12480,1912,256,712,63,-1,-16
12485,1912,216,728,60,-1,-15
12490,1904,248,664,59,-1,-16
12495,1944,192,640,59,0,-15
12500,1928,200,584,59,2,-13
12505,1912,240,632,59,3,-15
12510,1928,192,664,60,4,-14
12515,1904,216,640,61,7,-13
12520,1904,240,688,62,8,-14
12525,1872,248,640,62,9,-14
12530,1904,240,656,62,10,-13
12535,1848,240,656,61,10,-15
12540,1952,200,648,63,11,-15
12545,1928,200,720,62,10,-16
12550,1880,248,640,59,11,-16
12555,1896,216,664,59,10,-15
12560,1896,240,680,61,11,-16
12565,1888,232,704,59,13,-16
12570,1888,208,688,58,14,-14
12575,1928,248,664,57,15,-13
12580,1896,248,672,56,17,-13
12585,1912,208,664,54,18,-12
12590,1928,216,672,56,18,-10
12595,1904,232,680,56,19,-10
12600,1920,248,656,57,17,-10
12605,1904,232,704,58,18,-9
12610,1912,240,688,59,17,-8
12615,1936,264,704,59,18,-8
12620,1960,192,704,59,17,-8
12625,1896,224,672,59,17,-6
12630,1944,200,688,60,17,-7
12635,1952,224,672,60,17,-9
12640,1960,232,688,59,17,-11
12645,1920,264,704,57,18,-11
12650,1904,248,656,52,19,-11
12655,1904,248,688,49,19,-9
12660,1904,224,672,46,19,-8
12665,1928,232,656,44,19,-7
12670,1904,216,736,43,17,-6
12675,1912,224,648,45,16,-4
12680,1936,240,688,50,13,-3
12685,1928,208,680,52,12,-5
12690,1904,248,688,55,13,-4
12695,1904,224,696,53,12,-3
12700,1848,272,648,52,13,-5
12705,1928,216,672,46,14,-9
12710,1880,240,696,42,13,-12
12715,1896,224,680,36,13,-13
12720,1888,224,704,30,15,-15
12725,1888,232,720,24,15,-16
12730,1880,272,688,19,17,-16
12735,1896,224,712,17,16,-16
12740,1864,256,688,14,14,-16
12745,1912,208,712,12,13,-14
12750,1904,232,672,10,11,-10
12755,1904,208,656,10,10,-10
12760,1904,224,680,13,8,-5
12765,1936,208,696,14,5,-2
12770,1920,208,672,16,1,1
12775,1920,216,672,18,-3,4
12780,1928,240,688,16,-3,4
12785,1936,232,720,15,-2,2
12790,1904,232,680,15,-2,1
12795,1912,232,672,12,-2,1
12800,1936,208,712,11,-1,1
12805,1944,216,712,10,-2,0
12810,1896,224,656,9,-1,-1
12815,1912,224,680,10,-2,1
12820,1904,256,680,11,-1,2
12825,1896,232,672,11,0,0
12830,1904,248,664,12,-1,2
12835,1928,224,696,11,0,3
12840,1896,232,688,10,0,5
12845,1912,232,680,9,2,4
12850,1936,224,672,7,4,5
12855,1920,256,648,5,4,5
12860,1904,208,680,6,6,6
12865,1896,216,632,4,9,6
12870,1936,232,672,4,11,8
12875,1912,224,672,4,14,7
12880,1920,224,688,4,16,9
12885,1920,232,680,3,18,8
12890,1888,224,656,1,21,8
12895,1936,232,680,0,22,7
12900,1888,232,696,0,23,10
12905,1920,224,696,1,24,8
12910,1912,224,688,2,22,8
12915,1928,184,696,2,22,10
12920,1904,168,720,4,20,6
12925,1920,200,680,4,19,7
12930,1936,192,696,4,17,6
12935,1904,240,656,6,15,4
12940,1936,224,688,6,15,3
12945,1920,208,704,4,13,4
12950,1912,208,696,2,13,3
12955,1920,224,664,1,11,6
12960,1928,224,696,0,10,4
12965,1888,248,680,-2,10,4
12970,1912,208,696,-2,12,5
12975,1848,168,656,-2,13,4
12980,1912,216,656,-3,13,3
12985,1904,200,672,-1,14,3
12990,1936,184,672,-2,16,3
12995,1904,192,664,1,16,4
13000,1920,192,672,4,17,5
13005,1912,192,680,6,18,5
13010,1936,192,656,10,18,5
13015,1912,192,648,12,17,4
13020,1920,216,664,15,16,2
13025,1904,224,672,16,17,2
13030,1912,136,640,15,18,0
13035,1928,184,672,14,15,0
13040,1928,208,664,13,14,-1
13045,1904,208,664,9,14,2
13050,1928,192,720,9,15,1
13055,1920,192,712,9,13,2
13060,1904,224,672,10,10,2
13065,1928,160,696,13,9,5
13070,1936,152,672,18,6,7
13075,1912,200,672,25,6,7
13080,1928,192,688,30,6,5
13085,1888,288,640,31,8,2
13090,1920,240,680,30,12,-2
13095,1912,208,696,30,15,-4
13100,1880,208,680,28,18,-8
13105,1904,208,680,31,19,-11
13110,1896,200,656,34,21,-13
13115,1912,192,688,37,23,-15
13120,1896,200,648,38,24,-16
13125,1912,224,688,36,25,-13
13130,1912,192,672,33,27,-13
13135,1904,200,688,27,28,-11
13140,1888,224,624,21,27,-9
13145,1928,168,696,16,24,-6
13150,1904,184,696,12,21,-6
13155,1936,184,720,10,16,-5
13160,1936,168,696,8,14,-3
13165,1920,192,712,6,10,-1
13170,1920,192,680,5,6,2
13175,1912,216,696,5,5,5
13180,1944,184,704,3,4,7
13185,1944,184,696,5,4,8
13190,1888,208,640,6,2,9
13195,1936,184,688,9,2,9
13200,1912,224,648,13,0,8
13205,1928,216,672,17,-1,6
13210,1928,216,680,21,1,8
13215,1912,200,688,25,-2,8
13220,1928,200,696,30,-1,8
13225,1912,216,688,32,0,5
13230,1912,240,672,34,1,5
13235,1904,192,680,36,1,4
13240,1920,160,648,38,0,4
13245,1912,176,768,39,-1,3
13250,1896,208,672,40,-2,4
13255,1912,208,672,40,-8,4
13260,1920,224,688,40,-10,4
13265,1888,224,688,39,-11,2
13270,1904,184,688,39,-11,3
13275,1896,200,680,39,-9,3
13280,1928,200,640,36,-7,1
13285,1912,232,672,35,-4,0
13290,1896,224,696,33,-1,-1
13295,1896,216,688,34,1,0
13300,1912,176,672,33,2,0
13305,1896,224,664,33,0,1
13310,1904,200,680,33,1,1
13315,1928,208,696,34,0,2
13320,1896,216,696,35,-2,4
13325,1928,208,672,35,-3,5
13330,1928,192,688,33,-3,3
13335,1920,224,672,32,-3,2
13340,1888,216,680,30,-3,-1
13345,1896,232,664,27,-4,-3
13350,1920,200,720,25,-4,-2
13355,1920,184,664,22,-4,0
13360,1936,200,664,19,-4,-1
13365,1936,192,696,16,-5,0
13370,1928,192,664,16,-4,0
13375,1928,176,664,17,-3,0
13380,1912,200,680,20,-4,1
13385,1936,168,680,24,-5,1
13390,1936,168,632,33,-6,1
13395,1928,200,672,38,-9,1
13400,1928,176,680,43,-10,1
13405,1944,192,696,45,-12,1
13410,1920,272,712,46,-11,1
13415,1920,192,680,46,-11,-2
13420,1912,216,688,43,-12,-2
13425,1904,184,688,43,-12,-6
13430,1888,216,656,40,-11,-7
13435,1912,200,696,39,-10,-8
13440,1896,208,656,38,-8,-6
13445,1888,184,656,36,-7,-7
13450,1912,184,696,35,-6,-5
13455,1936,168,680,34,-4,-4
13460,1896,160,696,34,-2,-2
13465,1912,152,656,34,0,0
13470,1920,184,624,33,2,1
13475,1920,168,648,32,4,2
13480,1920,200,656,32,7,2
13485,1944,168,696,33,10,1
13490,1936,184,656,34,12,-1
13495,1952,168,640,36,14,-1
13500,1920,184,624,37,16,-3
13505,1920,176,672,38,15,-5
13510,1936,184,656,40,17,-5
13515,1928,176,624,39,17,-7
13520,1960,160,624,40,18,-6
13525,1936,152,680,40,19,-7
13530,1928,184,680,41,20,-8
13535,1920,200,664,43,21,-9
13540,1920,168,656,47,21,-8
13545,1904,176,656,52,22,-7
13550,1928,176,664,56,23,-8
13555,1912,144,672,60,25,-9
13560,1928,184,696,63,27,-9
13565,1920,200,672,63,29,-8
13570,1888,208,648,64,31,-11
13575,1880,216,696,63,33,-11
13580,1904,192,704,61,36,-13
13585,1920,160,664,59,38,-13
13590,1928,192,696,59,38,-14
13595,1920,176,648,58,39,-14
13600,1928,200,688,58,37,-13
13605,1904,192,688,59,38,-13
13610,1920,176,680,59,37,-10
13615,1960,176,664,61,36,-11
13620,1920,208,648,62,34,-13
13625,1904,216,696,63,33,-11
13630,1920,144,656,63,32,-12
13635,1920,200,672,65,32,-11
13640,1912,208,688,63,34,-12
13645,1912,216,672,60,34,-12
13650,1920,224,688,56,34,-14
13655,1912,224,656,52,37,-13
13660,1904,200,696,48,35,-13
13665,1904,184,712,45,35,-12
13670,1904,200,656,44,35,-10
13675,1936,168,704,47,34,-8
13680,1920,160,672,49,34,-8
13685,1896,224,632,52,32,-6
13690,1936,184,712,54,32,-5
13695,1912,192,680,56,30,-5
13700,1928,184,680,57,31,-4
13705,1928,192,672,59,30,-4
13710,1936,192,680,58,30,-5
13715,1920,216,688,58,28,-5
13720,1920,168,720,55,30,-7
13725,1920,176,688,54,29,-5
13730,1920,152,688,54,28,-6
13735,1880,168,672,55,29,-6
13740,1928,184,688,55,29,-4
13745,1920,184,680,57,28,-6
13750,1912,176,672,59,30,-5
13755,1936,176,688,64,30,-5
13760,1920,200,680,69,31,-6
13765,1928,200,648,67,33,-6
13770,1944,200,672,63,38,-8
13775,1928,216,696,60,38,-11
13780,1888,216,664,57,40,-12
13785,1904,200,688,54,41,-12
13790,1880,176,600,52,42,-15
13795,1904,176,664,51,43,-16
13800,1904,192,680,55,44,-17
13805,1896,192,672,57,45,-19
13810,1928,200,696,58,46,-19
13815,1896,216,680,59,47,-19
13820,1912,216,696,60,47,-18
13825,1896,216,680,59,46,-17
13830,1928,192,664,56,45,-16
13835,1912,216,680,55,45,-14
13840,1896,168,680,51,43,-15
13845,1872,176,688,51,43,-12
13850,1936,160,696,50,37,-12
13855,1928,192,696,52,34,-11
13860,1936,168,696,53,31,-11
13865,1904,176,704,53,29,-13
13870,1904,208,688,54,27,-13
13875,1912,200,672,53,28,-12
13880,1920,168,688,53,27,-13
13885,1928,208,656,54,28,-14
13890,1920,192,688,49,27,-17
13895,1920,200,688,50,29,-16
13900,1888,216,656,49,28,-19
13905,1928,208,672,53,29,-17
13910,1896,200,656,55,30,-19
13915,1920,208,672,59,30,-18
13920,1896,216,680,61,31,-18
13925,1896,208,712,61,32,-17
13930,1920,184,704,62,33,-16
13935,1920,184,704,63,32,-15
13940,1888,200,704,63,32,-14
13945,1880,224,696,63,31,-13
13950,1888,208,688,63,29,-11
13955,1920,152,752,64,30,-12
13960,1888,192,712,66,28,-11
13965,1912,184,688,67,29,-11
13970,1888,192,712,68,28,-10
13975,1896,200,704,68,27,-10
13980,1904,184,672,67,27,-11
13985,1920,192,712,67,27,-10
13990,1896,208,688,66,27,-10
13995,1888,224,696,65,28,-10
14000,1896,184,672,65,29,-10
14005,1880,184,672,64,28,-9
14010,1920,176,688,64,29,-11
14015,1912,184,680,63,29,-13
14020,1928,208,720,63,28,-12
14025,1912,216,696,64,27,-12
14030,1920,192,712,64,28,-11
14035,1896,192,696,65,27,-12
14040,1912,208,696,65,28,-11
14045,1888,168,704,62,27,-12
14050,1904,200,672,59,28,-12
14055,1936,192,688,55,27,-13
14060,1920,184,672,52,28,-11
14065,1872,240,640,50,28,-11
14070,1896,208,688,49,27,-9
14075,1936,176,712,47,25,-8
14080,1904,192,688,51,24,-8
14085,1912,176,680,55,22,-6
14090,1920,176,704,60,22,-6
14095,1896,184,680,67,20,-7
14100,1928,200,704,71,18,-9
14105,1904,184,664,74,19,-11
14110,1856,208,704,74,19,-13
14115,1864,208,712,72,20,-15
14120,1912,168,656,68,20,-14
14125,1880,200,704,65,23,-18
14130,1912,208,696,62,26,-21
14135,1896,200,680,61,29,-23
14140,1904,184,728,60,30,-24
14145,1904,184,664,60,32,-23
14150,1904,176,696,61,33,-23
14155,1880,200,688,60,32,-23
14160,1880,208,680,59,33,-21
14165,1920,184,688,59,34,-21
14170,1896,200,672,60,34,-20
14175,1928,240,736,59,35,-20
14180,1936,200,680,59,34,-19
14185,1920,192,712,58,34,-17
14190,1912,184,696,59,33,-17
14195,1912,184,720,59,32,-16
14200,1912,200,680,61,31,-19
14205,1880,248,672,62,29,-17
14210,1928,200,696,63,28,-17
14215,1896,200,672,63,27,-16
14220,1904,184,728,64,28,-17
14225,1960,200,688,65,26,-16
14230,1904,216,696,66,26,-18
14235,1896,200,712,65,26,-15
14240,1904,192,688,66,25,-14
14245,1904,208,720,69,26,-14
14250,1928,184,680,70,26,-14
14255,1896,200,688,73,27,-13
14260,1904,184,696,74,26,-12
14265,1904,208,712,76,27,-11
14270,1896,224,696,78,28,-12
14275,1888,208,704,80,29,-12
14280,1904,200,760,79,27,-12
14285,1888,208,712,80,28,-12
14290,1920,208,664,79,28,-12
14295,1904,192,680,76,30,-11
14300,1920,176,680,77,29,-14
14305,1920,192,688,77,31,-15
14310,1904,184,696,78,31,-16
14315,1872,200,728,78,33,-15
14320,1928,176,720,77,34,-16
14325,1904,224,696,78,34,-15
14330,1928,208,720,75,33,-16
14335,1912,232,704,74,34,-15
14340,1912,232,672,71,35,-15
14345,1896,216,720,68,36,-17
14350,1904,216,704,67,36,-15
14355,1912,224,688,62,36,-16
14360,1896,200,704,60,35,-16
14365,1896,216,704,55,34,-15
14370,1904,200,704,54,32,-16
14375,1912,192,680,53,30,-17
14380,1912,208,696,56,28,-15
14385,1904,200,704,59,28,-16
14390,1912,192,736,62,26,-15
14395,1904,192,728,63,24,-13
14400,1928,200,704,64,23,-13
14405,1904,192,720,66,23,-13
14410,1904,200,688,67,23,-17
14415,1936,192,680,67,23,-16
14420,1928,208,712,66,21,-18
14425,1912,184,728,66,19,-16
14430,1896,216,696,65,17,-16
14435,1936,208,720,64,16,-16
14440,1928,192,712,65,16,-15
14445,1928,216,744,65,16,-15
14450,1896,224,736,65,17,-16
14455,1904,224,688,64,17,-15
14460,1912,216,720,63,19,-15
14465,1928,208,680,63,21,-16
14470,1912,200,688,63,23,-17
14475,1888,200,696,65,22,-18
14480,1896,160,720,66,23,-20
14485,1872,192,688,72,23,-22
14490,1904,200,688,77,24,-23
14495,1912,208,712,84,24,-24
14500,1856,224,704,88,25,-24
14505,1904,184,704,88,26,-25
14510,1880,232,688,85,29,-23
14515,1896,216,720,80,28,-26
14520,1896,216,704,75,27,-25
14525,1896,200,712,70,26,-25
14530,1888,208,688,67,27,-23
14535,1888,224,752,64,24,-23
14540,1912,160,728,62,21,-24
14545,1904,192,680,61,19,-21
14550,1888,216,720,60,18,-20
14555,1888,184,768,60,16,-21
14560,1856,216,688,57,16,-21
14565,1928,200,696,53,13,-16
14570,1920,216,712,52,15,-19
14575,1912,232,712,52,16,-22
14580,1912,240,688,54,18,-22
14585,1896,232,688,57,19,-22
14590,1920,216,664,59,20,-21
14595,1896,200,704,62,19,-19
14600,1912,200,728,63,19,-19
14605,1904,224,712,64,21,-18
14610,1880,256,680,65,21,-15
14615,1904,232,704,66,23,-15
14620,1904,216,712,66,23,-14
14625,1912,240,696,66,23,-15
14630,1912,216,680,65,21,-15
14635,1920,216,680,64,19,-13
14640,1864,216,728,64,17,-15
14645,1880,208,736,63,16,-16
14650,1896,208,720,63,16,-16
14655,1896,200,720,63,17,-19
14660,1920,208,752,63,17,-19
14665,1944,176,712,63,18,-18
14670,1888,216,712,61,19,-17
14675,1888,232,720,62,18,-16
14680,1936,184,712,62,19,-17
14685,1896,216,728,60,22,-15
14690,1912,216,704,61,21,-13
14695,1904,240,696,61,21,-13
14700,1904,224,736,61,20,-12
14705,1912,216,696,61,21,-11
14710,1920,224,688,59,19,-13
14715,1888,224,768,59,17,-13
14720,1928,232,728,60,16,-12
14725,1896,224,712,61,16,-16
14730,1912,224,728,59,16,-16
14735,1880,224,712,57,15,-14
14740,1888,224,728,55,16,-14
14745,1880,216,736,54,16,-12
14750,1896,224,728,53,15,-10
14755,1896,208,696,53,16,-10
14760,1912,240,696,53,16,-10
14765,1912,232,688,58,14,-8
14770,1880,176,680,63,13,-9
14775,1912,200,720,68,13,-10
14780,1888,232,704,70,14,-12
14785,1904,216,696,72,14,-13
14790,1896,224,704,73,13,-13
14795,1920,216,696,71,14,-16
14800,1872,240,688,67,15,-20
14805,1880,216,696,63,16,-22
14810,1896,224,736,60,16,-25
14815,1912,264,728,57,18,-26
14820,1872,240,752,55,16,-26
14825,1888,224,736,53,16,-28
14830,1896,216,728,49,15,-31
14835,1880,224,704,47,13,-28
14840,1896,224,704,48,11,-27
14845,1904,208,696,48,9,-27
14850,1912,200,688,48,6,-25
14855,1920,216,728,50,5,-25
14860,1912,200,696,52,4,-23
14865,1936,208,712,53,5,-22
14870,1912,192,712,56,6,-20
14875,1896,216,672,58,7,-20
14880,1888,224,664,60,9,-20
14885,1896,240,704,61,12,-21
14890,1920,200,712,61,12,-20
14895,1904,232,688,59,13,-19
14900,1920,224,672,58,13,-20
14905,1920,240,656,58,15,-17
14910,1912,224,696,57,14,-17
14915,1896,224,688,55,15,-16
14920,1912,224,728,54,14,-15
14925,1896,232,696,54,13,-15
14930,1920,192,704,54,13,-14
14935,1896,208,720,54,10,-13
14940,1920,224,720,56,10,-12
14945,1896,232,752,56,7,-12
14950,1896,224,704,60,7,-10
14955,1880,232,704,62,7,-10
14960,1896,208,704,64,6,-10
14965,1896,240,696,64,6,-9
14970,1944,200,696,66,7,-10
14975,1880,224,712,65,7,-9
14980,1904,216,696,65,10,-10
14985,1920,224,744,65,10,-10
14990,1952,184,720,65,12,-11
14995,1896,240,704,66,12,-12
