timestamp,accel_x,accel_y,accel_z,gyro_x,gyro_y,gyro_z
0,-96,-2040,-16,-19,77,-15
5,-96,-2048,16,-18,77,-19
10,-88,-2024,-24,-19,77,-17
15,-96,-2056,-16,-19,76,-20
20,-96,-2024,-16,-18,76,-17
25,-96,-2088,64,-21,75,-16
30,-120,-2016,24,-24,75,-12
35,-96,-2032,24,-26,71,-12
40,-112,-2032,-16,-25,68,-9
45,-112,-2032,0,-22,64,-9
50,-120,-2040,-8,-18,64,-6
55,-104,-2064,-16,-16,62,-7
60,-160,-2040,-16,-14,62,-4
65,-128,-2048,-8,-13,61,-5
70,-120,-2048,-16,-10,61,-2
75,-136,-2032,-16,-7,61,-2
80,-128,-2048,32,-3,63,4
85,-160,-2032,16,-2,64,3
90,-136,-2008,-8,-2,66,5
95,-128,-2048,24,-4,67,5
100,-152,-2024,8,-5,68,7
105,-112,-2024,-8,-6,67,4
110,-144,-2024,16,-7,66,8
115,-128,-2056,32,-8,64,6
120,-152,-2016,-40,-8,62,11
125,-168,-2056,0,-7,61,9
130,-160,-2040,0,-7,62,11
135,-136,-2048,0,-9,60,10
140,-152,-2032,24,-9,59,13
145,-160,-2024,24,-8,58,12
150,-128,-2048,-16,-8,57,13
155,-176,-2008,8,-6,58,13
160,-152,-2048,-24,-6,56,14
165,-176,-2056,48,-4,57,12
170,-144,-2072,0,-1,58,14
175,-152,-2032,40,0,59,12
180,-152,-2048,-32,2,61,13
185,-160,-2032,-16,2,64,12
190,-152,-2016,8,0,66,12
195,-152,-2024,48,-2,66,11
200,-120,-2040,-16,-4,70,11
205,-168,-2024,-16,-9,71,9
210,-136,-2040,-8,-10,71,9
215,-160,-2024,-40,-10,71,8
220,-160,-2032,16,-10,72,9
225,-144,-2048,8,-9,71,6
230,-112,-2072,8,-8,73,7
235,-160,-2056,16,-6,73,8
240,-144,-2032,16,-4,76,7
245,-128,-2040,-8,-3,78,8
250,-136,-2048,-16,0,79,8
255,-160,-2040,-8,2,76,8
260,-128,-2032,24,3,76,7
265,-112,-2048,-24,3,75,5
270,-120,-2048,8,3,75,3
275,-120,-2048,32,0,77,1
280,-160,-2040,-24,-4,79,-1
285,-120,-2056,40,-10,80,-2
290,-104,-2064,40,-14,82,-6
295,-128,-2024,-8,-15,82,-6
300,-144,-2040,-8,-13,81,-7
305,-96,-2048,-16,-9,80,-8
310,-128,-2048,-16,-6,79,-9
315,-96,-2056,8,-3,78,-9
320,-104,-2040,0,-5,78,-10
325,-112,-2032,8,-5,76,-8
330,-120,-2064,16,-10,79,-10
335,-120,-2040,40,-14,75,-10
340,-112,-2056,48,-14,75,-12
345,-104,-2032,0,-8,72,-10
350,-128,-2048,-8,-1,72,-12
355,-104,-2040,-8,2,72,-12
360,-120,-2024,32,-2,72,-13
365,-136,-2032,-16,-7,75,-14
370,-128,-2048,8,-10,76,-17
375,-112,-2048,-8,-6,76,-16
380,-136,-2024,-8,-3,78,-18
385,-96,-2048,8,0,80,-17
390,-96,-2064,48,2,81,-19
395,-104,-2064,32,3,80,-17
400,-96,-2040,-16,3,81,-17
405,-96,-2072,8,6,80,-16
410,-112,-2040,-16,8,78,-16
415,-96,-2032,0,9,74,-15
420,-112,-2048,16,10,71,-16
425,-96,-2040,-16,11,70,-12
430,-96,-2040,-24,11,67,-13
435,-96,-2056,8,10,66,-9
440,-112,-2048,16,11,66,-10
445,-104,-2040,8,13,67,-8
450,-104,-2016,32,11,66,-9
455,-120,-2032,0,10,67,-7
460,-136,-2016,0,6,66,-9
465,-144,-2024,-16,3,64,-9
470,-112,-2048,56,0,63,-11
475,-128,-2032,-8,-3,63,-8
480,-136,-2040,8,-5,63,-10
485,-112,-2056,16,-3,64,-8
490,-136,-2032,8,0,62,-10
495,-112,-2040,-8,4,65,-9
500,-120,-2048,-8,7,64,-10
505,-120,-2048,-8,10,65,-7
510,-128,-2016,40,11,65,-9
515,-120,-2040,-8,12,63,-7
520,-120,-2032,32,13,62,-9
525,-112,-2032,32,12,62,-7
530,-104,-2040,40,11,58,-11
535,-104,-2032,0,9,56,-8
540,-120,-2016,32,5,54,-10
545,-112,-2024,-24,3,52,-8
550,-104,-2024,0,0,51,-10
555,-104,-2040,24,1,52,-8
560,-112,-2024,8,-1,52,-10
565,-104,-2048,-8,-1,53,-7
570,-96,-2040,32,-1,54,-9
575,-128,-2024,8,-1,56,-6
580,-112,-2040,0,-1,56,-9
585,-144,-2032,16,-1,57,-7
590,-128,-2008,48,-2,59,-9
595,-120,-2056,8,-2,58,-7
600,-120,-2040,32,-2,59,-9
605,-112,-2056,40,-1,59,-6
610,-112,-2048,16,-1,58,-9
615,-96,-2040,-16,0,59,-6
620,-120,-2040,24,1,61,-9
625,-96,-2040,8,0,59,-5
630,-120,-2024,32,2,59,-7
635,-104,-2040,32,3,58,-5
640,-104,-2032,16,3,58,-9
645,-96,-2032,24,5,58,-8
650,-128,-2008,48,5,59,-12
655,-112,-2016,-16,3,61,-8
660,-120,-2008,16,-3,62,-11
665,-136,-2040,48,-11,63,-7
670,-120,-2048,48,-16,61,-10
675,-112,-2056,16,-17,63,-7
680,-120,-2048,40,-13,59,-9
685,-120,-2024,24,-6,59,-6
690,-120,-2016,32,-6,57,-10
695,-112,-2016,56,-4,59,-7
700,-120,-2040,8,-6,62,-9
705,-120,-2024,-16,-6,66,-6
710,-128,-2024,-32,-6,67,-6
715,-96,-2032,0,-4,68,-3
720,-136,-2032,24,0,69,-4
725,-128,-2048,0,3,70,0
730,-128,-2056,-40,3,68,-3
735,-80,-2080,-32,5,66,0
740,-200,-2032,40,4,65,-3
745,-144,-2040,160,3,63,-2
750,-112,-2032,16,3,61,-3
755,-128,-2056,-16,3,57,0
760,-120,-2048,0,3,56,-3
765,-96,-2048,16,5,55,-2
770,-128,-2048,-24,7,55,-3
775,-112,-2056,16,10,55,0
780,-128,-2024,40,10,55,-2
785,-104,-2056,48,11,57,1
790,-128,-2024,48,12,58,-2
795,-128,-2024,40,12,57,-1
800,-104,-2032,16,11,58,-3
805,-128,-2040,40,11,57,-2
810,-104,-2032,24,8,57,-4
815,-96,-2032,8,6,56,-2
820,-136,-2024,40,4,54,-4
825,-88,-2016,0,2,52,-3
830,-136,-2032,16,2,50,-5
835,-128,-2016,16,-1,48,-5
840,-112,-2048,64,-3,45,-7
845,-96,-2048,16,-3,45,-6
850,-96,-2032,16,-3,45,-9
855,-144,-2040,32,-3,43,-8
860,-112,-2040,24,-3,45,-11
865,-104,-2032,8,-1,45,-10
870,-112,-2024,-8,2,45,-11
875,-96,-2032,24,1,46,-10
880,-112,-1992,32,2,47,-12
885,-112,-2056,24,1,48,-11
890,-120,-2032,16,0,47,-12
895,-112,-2048,32,-1,45,-11
900,-112,-2064,32,0,45,-11
905,-120,-2032,32,3,45,-11
910,-112,-2024,24,6,44,-10
915,-96,-2024,64,6,45,-11
920,-128,-2016,32,3,46,-13
925,-112,-2008,48,-2,48,-14
930,-136,-2024,56,-6,50,-15
935,-112,-2040,48,-12,51,-15
940,-104,-2048,16,-16,55,-14
945,-120,-2064,32,-16,55,-13
950,-104,-2040,48,-15,55,-13
955,-136,-2040,8,-13,55,-12
960,-128,-2032,24,-10,55,-13
965,-128,-2048,48,-9,54,-12
970,-144,-2024,16,-9,53,-13
975,-120,-2024,56,-12,53,-12
980,-112,-2048,72,-15,54,-12
985,-128,-2032,56,-16,55,-12
990,-112,-2056,16,-15,51,-10
995,-104,-2040,56,-9,52,-12
1000,-136,-2008,24,-7,52,-11
1005,-104,-2024,56,-9,53,-12
1010,-112,-2024,56,-17,55,-14
1015,-120,-2032,40,-25,57,-16
1020,-112,-2032,48,-28,60,-18
1025,-120,-2048,32,-27,61,-19
1030,-104,-2040,24,-24,63,-20
1035,-120,-2048,32,-21,64,-20
1040,-96,-2032,56,-21,67,-20
1045,-112,-2008,40,-18,67,-20
1050,-120,-2040,24,-18,67,-20
1055,-96,-2032,-8,-18,67,-22
1060,-112,-2024,8,-18,66,-23
1065,-96,-2040,56,-19,65,-24
1070,-96,-2032,24,-19,66,-25
1075,-104,-2040,0,-19,66,-25
1080,-104,-2016,56,-21,67,-22
1085,-112,-2016,48,-22,67,-24
1090,-104,-2032,40,-24,66,-22
1095,-96,-2048,16,-26,65,-22
1100,-96,-2040,8,-29,65,-22
1105,-96,-2008,32,-34,65,-23
1110,-96,-2016,24,-35,64,-23
1115,-120,-2024,32,-38,64,-25
1120,-104,-2048,24,-39,64,-25
1125,-96,-2040,16,-39,66,-26
1130,-120,-2032,24,-39,66,-25
1135,-104,-2048,24,-36,67,-26
1140,-104,-2056,40,-34,69,-24
1145,-112,-2024,8,-31,71,-25
1150,-96,-2040,32,-29,71,-23
1155,-96,-2000,8,-25,71,-24
1160,-128,-2040,16,-25,70,-22
1165,-96,-2032,24,-24,68,-24
1170,-104,-2040,64,-23,68,-23
1175,-104,-2040,0,-23,67,-24
1180,-112,-2024,8,-23,64,-21
1185,-96,-2064,0,-23,65,-24
1190,-88,-2032,24,-24,63,-23
1195,-96,-2056,-24,-25,63,-26
1200,-112,-2032,24,-26,61,-24
1205,-112,-2016,24,-28,61,-26
1210,-96,-2040,0,-28,62,-25
1215,-96,-2016,32,-27,63,-26
1220,-96,-2040,24,-27,64,-25
1225,-120,-2040,32,-28,65,-25
1230,-104,-2056,0,-29,64,-22
1235,-112,-2040,24,-29,63,-24
1240,-96,-2048,-16,-25,62,-23
1245,-96,-2016,-16,-22,64,-23
1250,-112,-2032,24,-21,64,-21
1255,-112,-2048,16,-19,65,-23
1260,-104,-2024,32,-19,65,-21
1265,-104,-2056,-16,-17,64,-24
1270,-96,-2048,0,-16,62,-20
1275,-96,-2032,-8,-15,61,-22
1280,-96,-2040,40,-15,61,-20
1285,-112,-2024,-8,-18,59,-24
1290,-96,-2056,24,-18,60,-20
1295,-96,-2040,24,-21,58,-24
1300,-96,-2048,24,-18,58,-22
1305,-96,-2064,-8,-16,59,-23
1310,-96,-2056,16,-15,57,-19
1315,-104,-2040,40,-15,56,-21
1320,-104,-2040,16,-16,55,-18
1325,-112,-2032,0,-17,54,-21
1330,-88,-2064,24,-16,52,-18
1335,-104,-2040,32,-17,52,-21
1340,-96,-2040,48,-14,52,-18
1345,-104,-2032,16,-15,52,-21
1350,-104,-2040,32,-12,54,-20
1355,-96,-2064,-8,-10,55,-21
1360,-96,-2056,0,-11,58,-17
1365,-96,-2040,24,-10,59,-20
1370,-104,-2032,8,-9,59,-17
1375,-104,-2040,32,-8,59,-19
1380,-96,-2040,48,-8,60,-17
1385,-104,-2056,16,-7,58,-19
1390,-104,-2048,-16,-7,59,-17
1395,-96,-2032,32,-8,57,-22
1400,-88,-2048,48,-10,58,-20
1405,-96,-2056,8,-13,57,-23
1410,-96,-2048,16,-13,56,-22
1415,-96,-2032,48,-14,56,-25
1420,-96,-2056,16,-16,55,-22
1425,-88,-2064,32,-14,56,-25
1430,-96,-2048,32,-13,57,-22
1435,-88,-2040,0,-10,57,-25
1440,-88,-2040,8,-9,59,-22
1445,-104,-2024,24,-8,58,-24
1450,-96,-2048,16,-9,58,-22
1455,-88,-2032,-8,-9,59,-24
1460,-96,-2056,8,-8,58,-23
1465,-88,-2056,16,-9,60,-25
1470,-88,-2032,24,-7,60,-23
1475,-96,-2040,24,-7,59,-26
1480,-80,-2040,16,-9,58,-25
1485,-96,-2024,0,-9,58,-26
1490,-96,-2040,-8,-7,57,-24
1495,-96,-2040,32,-7,56,-27
1500,-88,-2048,8,-7,57,-24
1505,-88,-2040,48,-8,56,-27
1510,-96,-2024,40,-9,58,-24
1515,-104,-2024,-8,-10,58,-26
1520,-96,-2032,0,-11,58,-24
1525,-80,-2024,0,-15,59,-27
1530,-88,-2040,0,-15,60,-23
1535,-80,-2016,24,-17,61,-25
1540,-88,-2040,32,-18,61,-23
1545,-96,-2048,32,-17,60,-25
1550,-96,-2024,40,-15,58,-25
1555,-88,-2048,48,-17,58,-29
1560,-88,-2040,0,-18,56,-27
1565,-112,-2032,24,-18,55,-28
1570,-96,-2016,16,-19,53,-27
1575,-88,-2048,24,-18,53,-28
1580,-80,-2048,32,-17,51,-25
1585,-96,-2032,-16,-13,51,-26
1590,-96,-2032,16,-10,51,-24
1595,-88,-2048,56,-10,53,-26
1600,-88,-2048,40,-12,55,-25
1605,-88,-2032,40,-15,57,-26
1610,-96,-2024,8,-21,57,-27
1615,-80,-2048,16,-25,59,-27
1620,-88,-2056,8,-28,59,-25
1625,-88,-2032,56,-30,58,-27
1630,-88,-2056,16,-28,57,-25
1635,-104,-2032,24,-26,57,-25
1640,-88,-2056,16,-24,53,-23
1645,-88,-2048,24,-21,50,-25
1650,-88,-2032,40,-19,46,-23
1655,-88,-2040,8,-22,44,-26
1660,-96,-2040,24,-26,42,-24
1665,-80,-2048,0,-29,39,-25
1670,-88,-2064,8,-30,35,-26
1675,-88,-2040,-8,-28,33,-26
1680,-96,-2024,24,-22,32,-25
1685,-96,-2024,16,-21,33,-26
1690,-88,-2024,32,-25,33,-27
1695,-96,-2032,0,-28,36,-28
1700,-64,-2064,24,-31,38,-27
1705,-80,-2056,24,-28,39,-28
1710,-72,-2072,32,-22,40,-25
1715,-80,-2064,16,-17,40,-25
1720,-80,-2032,-16,-14,41,-23
1725,-88,-2056,8,-13,41,-22
1730,-88,-2032,0,-11,41,-21
1735,-88,-2040,0,-11,41,-21
1740,-88,-2016,0,-10,38,-22
1745,-96,-2024,32,-13,39,-21
1750,-80,-2032,8,-14,38,-22
1755,-88,-2040,24,-16,38,-22
1760,-72,-2016,8,-18,40,-19
1765,-96,-2032,24,-18,42,-18
1770,-88,-2024,24,-20,43,-16
1775,-96,-2024,16,-21,44,-15
1780,-88,-2040,0,-25,45,-15
1785,-88,-2032,0,-26,46,-14
1790,-80,-2048,24,-28,45,-18
1795,-88,-2048,0,-30,44,-18
1800,-96,-2040,24,-29,45,-20
1805,-96,-2048,0,-28,45,-22
1810,-96,-2040,0,-25,44,-22
1815,-80,-2064,24,-23,44,-25
1820,-96,-2032,0,-22,46,-25
1825,-80,-2032,8,-19,47,-24
1830,-96,-2032,0,-18,46,-25
1835,-96,-2016,40,-15,44,-25
1840,-96,-2032,40,-14,43,-26
1845,-96,-2048,8,-14,43,-25
1850,-88,-2024,24,-13,42,-25
1855,-88,-2032,8,-15,40,-27
1860,-88,-2024,16,-16,41,-27
1865,-88,-2024,0,-19,40,-28
1870,-72,-2032,-32,-19,41,-30
1875,-72,-2032,16,-21,42,-29
1880,-72,-2032,32,-21,42,-31
1885,-72,-2032,24,-20,43,-29
1890,-48,-2048,24,-21,45,-30
1895,-56,-2040,16,-20,48,-30
1900,-72,-2032,0,-19,49,-31
1905,-80,-2032,8,-21,50,-30
1910,-56,-2040,8,-24,53,-29
1915,-56,-2032,0,-24,53,-29
1920,-80,-2032,8,-25,51,-29
1925,-64,-2032,40,-24,50,-29
1930,-80,-2040,16,-24,48,-29
1935,-88,-2048,0,-24,48,-28
1940,-72,-2064,8,-23,47,-28
1945,-80,-2040,24,-22,46,-28
1950,-88,-2032,24,-20,47,-29
1955,-72,-2048,16,-20,49,-29
1960,-72,-2048,-16,-19,49,-31
1965,-72,-2040,8,-18,51,-29
1970,-80,-2032,16,-20,51,-30
1975,-88,-2032,48,-23,51,-30
1980,-80,-2040,24,-26,51,-32
1985,-72,-2040,-16,-29,53,-29
1990,-64,-2032,-8,-34,53,-29
1995,-80,-2040,16,-36,52,-26
2000,-64,-2048,24,-37,50,-27
2005,-80,-2056,16,-35,46,-26
2010,-64,-2040,8,-32,46,-30
2015,-64,-2032,24,-31,45,-28
2020,-64,-2048,0,-32,44,-32
2025,-64,-2048,-8,-31,45,-30
2030,-72,-2048,-8,-33,48,-31
2035,-72,-2032,-16,-32,48,-31
2040,-72,-2032,24,-30,49,-32
2045,-88,-2032,8,-29,50,-30
2050,-72,-2032,8,-29,50,-30
2055,-72,-2048,24,-29,51,-28
2060,-72,-2040,16,-30,48,-30
2065,-64,-2048,16,-34,47,-29
2070,-48,-2048,32,-36,45,-32
2075,-64,-2072,-8,-36,47,-30
2080,-64,-2048,16,-37,44,-33
2085,-72,-2032,0,-35,45,-32
2090,-56,-2048,16,-33,46,-34
2095,-56,-2064,24,-33,44,-32
2100,-64,-2048,24,-29,45,-33
2105,-72,-2056,48,-28,46,-31
2110,-64,-2040,32,-28,47,-33
2115,-56,-2056,-8,-26,48,-27
2120,-48,-2040,16,-27,50,-29
2125,-72,-2024,-8,-31,48,-26
2130,-64,-2056,8,-32,47,-29
2135,-48,-2040,32,-33,46,-27
2140,-64,-2040,-24,-34,46,-28
2145,-64,-2064,24,-35,45,-27
2150,-72,-2056,8,-35,43,-30
2155,-56,-2040,40,-34,42,-28
2160,-64,-2040,0,-35,43,-31
2165,-64,-2056,0,-35,42,-28
2170,-64,-2024,0,-36,42,-31
2175,-72,-2040,-8,-36,42,-29
2180,-32,-2056,24,-36,44,-33
2185,-72,-2024,48,-36,45,-30
2190,-72,-2048,24,-36,44,-32
2195,-72,-2048,0,-37,46,-31
2200,-40,-2032,16,-40,45,-34
2205,-56,-2032,-16,-40,44,-33
2210,-56,-2048,-8,-40,44,-35
2215,-64,-2056,-32,-40,44,-32
2220,-64,-2032,24,-38,43,-34
2225,-64,-2048,-8,-37,43,-32
2230,-64,-2048,-8,-35,44,-35
2235,-72,-2016,-16,-34,42,-32
2240,-64,-2032,-8,-31,43,-36
2245,-72,-2040,8,-27,44,-33
2250,-72,-2024,24,-24,43,-33
2255,-48,-2064,-8,-20,44,-31
2260,-80,-2024,-8,-18,45,-32
2265,-64,-2032,-24,-21,47,-32
2270,-48,-2040,-32,-25,50,-36
2275,-56,-2032,8,-28,52,-35
2280,-56,-2032,0,-34,54,-37
2285,-48,-2040,-8,-36,56,-36
2290,-48,-2048,8,-36,58,-38
2295,-56,-2056,-32,-36,58,-36
2300,-56,-2056,16,-32,58,-35
2305,-40,-2056,8,-28,57,-34
2310,-48,-2056,-32,-22,55,-36
2315,-40,-2048,0,-21,54,-34
2320,-24,-2040,-32,-20,53,-37
2325,-48,-2024,-24,-19,53,-34
2330,-40,-2056,8,-22,54,-38
2335,-72,-2040,-8,-25,55,-37
2340,-40,-2072,-32,-27,53,-39
2345,-40,-2048,-8,-22,51,-37
2350,-48,-2072,-8,-12,53,-39
2355,-40,-2040,-16,-5,53,-39
2360,-40,-2056,-8,-2,58,-44
2365,-56,-2008,-8,-3,61,-45
2370,-32,-2032,-24,-2,66,-51
2375,-24,-2008,-16,0,71,-52
2380,-32,-2040,-32,0,74,-56
2385,-40,-2032,-16,-2,77,-54
2390,-16,-2032,-8,-4,79,-54
2395,-24,-2048,-24,-6,79,-51
2400,-40,-2048,-16,-8,78,-50
2405,-48,-2056,-16,-9,72,-46
2410,-24,-2032,-8,-6,70,-47
2415,-48,-2040,8,-4,67,-45
2420,-32,-2016,-24,-3,65,-46
2425,-32,-2056,-16,-5,65,-44
2430,-40,-2048,16,-7,64,-47
2435,-40,-2040,-8,-8,65,-45
2440,-32,-2040,8,-9,66,-46
2445,-48,-2040,8,-9,69,-44
2450,-48,-2024,-8,-8,73,-46
2455,-64,-2040,-8,-6,75,-45
2460,-40,-2024,-24,-6,77,-48
2465,-32,-2056,8,-4,78,-47
2470,-56,-2032,-8,-1,80,-50
2475,-48,-2056,0,1,80,-50
2480,-16,-2048,-8,3,81,-51
2485,-16,-2056,-16,3,81,-50
2490,-32,-2048,-16,4,81,-52
2495,-32,-2032,-16,6,81,-50
2500,-32,-2008,-8,5,81,-50
2505,-40,-2032,-16,6,80,-49
2510,-16,-2040,16,4,76,-52
2515,-16,-2040,0,4,74,-52
2520,-56,-2040,-16,3,71,-54
2525,-8,-2032,16,1,71,-55
2530,-16,-2032,0,1,68,-56
2535,-16,-2064,-16,-1,68,-57
2540,-24,-2056,-16,-4,68,-60
2545,-16,-2048,16,-6,68,-60
2550,0,-2040,-8,-6,68,-61
2555,-24,-2040,0,-4,67,-61
2560,-40,-2040,-16,-5,69,-61
2565,-24,-2032,32,-4,71,-62
2570,-24,-2040,32,-5,71,-63
2575,-24,-2064,8,-5,74,-63
2580,-16,-2048,8,-4,74,-63
2585,-32,-2056,8,-3,75,-62
2590,-16,-2056,24,-3,72,-63
2595,-8,-2032,8,-1,71,-63
2600,-32,-2024,24,-3,72,-65
2605,-8,-2032,-16,-3,70,-64
2610,-16,-2056,-24,-4,70,-63
2615,0,-2048,8,-5,69,-64
2620,-32,-2056,-8,-4,68,-64
2625,-16,-2048,24,-5,66,-66
2630,-32,-2032,0,-6,64,-67
2635,-48,-2040,-32,-7,63,-71
2640,0,-2040,-8,-9,63,-72
2645,-8,-2032,-8,-14,64,-72
2650,0,-2048,0,-18,67,-73
2655,0,-2024,8,-20,68,-71
2660,-8,-2040,16,-19,67,-69
2665,8,-2056,8,-17,66,-68
2670,0,-2056,16,-13,66,-69
2675,0,-2056,-16,-10,67,-70
2680,8,-2040,-48,-9,68,-72
2685,-16,-2064,0,-9,70,-73
2690,8,-2048,0,-8,74,-72
2695,0,-2048,-8,-6,78,-72
2700,0,-2048,-40,-3,78,-72
2705,32,-2048,0,0,78,-72
2710,-8,-2040,16,2,78,-72
2715,0,-2040,-24,3,78,-73
2720,16,-2024,24,3,76,-72
2725,8,-2048,0,1,74,-73
2730,16,-2024,0,0,71,-74
2735,-8,-2048,0,-1,72,-73
2740,8,-2048,8,-2,71,-74
2745,8,-2016,0,-3,72,-75
2750,16,-2032,0,-3,72,-75
2755,8,-2032,0,-3,74,-75
2760,-8,-2024,8,-4,75,-72
2765,8,-2040,-16,-6,76,-74
2770,32,-2056,32,-7,76,-72
2775,0,-2032,0,-8,78,-73
2780,16,-2032,0,-8,77,-73
2785,40,-2056,8,-6,75,-74
2790,0,-2024,-16,-6,76,-74
2795,24,-2040,24,-5,76,-76
2800,40,-2024,0,-5,74,-75
2805,32,-2048,-16,-5,72,-78
2810,32,-2056,-8,-4,70,-77
2815,24,-2040,0,-5,68,-79
2820,24,-2048,32,-5,70,-78
2825,32,-2040,-8,-5,69,-82
2830,16,-2032,16,-5,69,-81
2835,32,-2024,-16,-7,70,-85
2840,40,-2040,0,-11,70,-84
2845,24,-2040,32,-12,69,-88
2850,56,-2024,-24,-13,71,-87
2855,40,-2048,0,-14,72,-89
2860,24,-2032,0,-16,71,-87
2865,56,-2056,8,-16,69,-90
2870,32,-2032,0,-16,70,-88
2875,32,-2040,16,-16,68,-91
2880,48,-2032,24,-15,67,-89
2885,24,-2056,16,-14,66,-91
2890,24,-2040,24,-15,66,-89
2895,40,-2056,16,-16,65,-93
2900,24,-2040,-24,-18,63,-91
2905,32,-2024,0,-20,63,-95
2910,48,-2064,0,-21,64,-95
2915,48,-2016,16,-23,63,-98
2920,56,-2032,32,-24,62,-96
2925,32,-2040,40,-22,61,-99
2930,56,-2056,0,-22,62,-97
2935,32,-2040,8,-20,63,-99
2940,48,-2032,0,-14,62,-95
2945,72,-2032,-24,-14,65,-97
2950,32,-2048,-16,-11,65,-94
2955,64,-2048,-64,-11,67,-97
2960,56,-2008,0,-13,70,-96
2965,40,-2040,0,-18,73,-100
2970,48,-2048,-8,-20,74,-98
2975,40,-2024,40,-22,74,-101
2980,56,-2040,40,-22,71,-100
2985,40,-2040,0,-20,71,-101
2990,48,-2056,0,-16,70,-97
2995,64,-2048,16,-12,68,-99
3000,56,-2040,24,-8,68,-98
3005,64,-2040,-8,-6,68,-100
3010,56,-2008,24,-9,71,-97
3015,88,-2048,-32,-12,70,-100
3020,56,-2032,-8,-17,71,-100
3025,104,-2040,0,-24,70,-102
3030,96,-2032,24,-24,68,-100
3035,88,-2040,24,-19,67,-104
3040,80,-2040,-16,-12,65,-102
3045,80,-2048,24,-12,64,-105
3050,88,-2040,8,-15,66,-105
3055,72,-2024,-8,-19,66,-108
3060,120,-2056,16,-22,68,-109
3065,96,-2056,8,-20,69,-114
3070,72,-2024,-8,-18,71,-113
3075,88,-2048,0,-15,73,-115
3080,104,-2024,8,-16,74,-113
3085,88,-2024,0,-15,76,-115
3090,88,-2048,-8,-15,78,-114
3095,96,-2032,-16,-14,79,-117
3100,80,-2016,0,-13,77,-115
3105,96,-2024,16,-11,77,-119
3110,104,-2032,-8,-12,77,-117
3115,88,-2024,8,-9,77,-120
3120,144,-2048,24,-7,77,-115
3125,104,-2056,0,-4,80,-115
3130,72,-2032,-8,0,83,-112
3135,96,-2032,16,3,84,-114
3140,112,-2032,0,4,86,-111
3145,104,-2040,16,4,86,-113
3150,104,-2024,0,3,86,-112
3155,96,-2040,32,1,87,-117
3160,96,-2040,24,-1,84,-115
3165,112,-2032,0,-3,86,-117
3170,112,-2056,16,-4,87,-117
3175,112,-2032,8,-6,87,-121
3180,104,-2040,-24,-7,88,-119
3185,128,-2080,0,-8,87,-123
3190,96,-2032,-16,-7,87,-123
3195,128,-2056,0,-4,86,-125
3200,96,-2040,-24,-1,84,-124
3205,120,-2040,0,3,83,-126
3210,112,-2024,40,6,79,-124
3215,136,-2064,32,8,76,-127
3220,128,-2032,8,7,73,-123
3225,112,-2024,8,5,72,-127
3230,128,-2016,0,-1,70,-127
3235,104,-2016,0,-6,67,-131
3240,120,-2024,-8,-13,64,-128
3245,128,-2024,40,-14,63,-132
3250,136,-2024,16,-17,63,-132
3255,128,-2016,40,-21,64,-133
3260,128,-2032,24,-21,66,-132
3265,136,-2032,-8,-22,66,-136
3270,152,-2032,16,-25,70,-134
3275,152,-2040,16,-24,70,-137
3280,176,-2040,24,-26,74,-135
3285,144,-2032,32,-26,74,-138
3290,152,-2024,40,-27,75,-137
3295,152,-2016,16,-28,77,-139
3300,152,-2024,-16,-27,77,-139
3305,160,-2056,-8,-25,77,-140
3310,160,-2048,8,-23,77,-139
3315,152,-2056,0,-20,76,-141
3320,176,-2048,16,-17,73,-139
3325,176,-2056,8,-15,70,-140
3330,176,-2048,16,-12,69,-140
3335,176,-2048,0,-9,69,-143
3340,152,-2024,-16,-4,69,-141
3345,176,-2056,48,-1,67,-143
3350,184,-2048,-16,-2,67,-142
3355,160,-2024,24,-4,64,-141
3360,168,-2040,-8,-5,60,-141
3365,184,-2056,0,-5,57,-141
3370,168,-2040,-16,-2,52,-140
3375,192,-2032,16,1,50,-143
3380,176,-2016,16,3,49,-142
3385,184,-2048,0,1,49,-145
3390,176,-2024,16,0,51,-145
3395,184,-2032,32,-2,52,-146
3400,200,-2040,-8,-3,55,-146
3405,200,-2040,8,-5,56,-147
3410,200,-2064,24,-5,57,-147
3415,184,-2032,0,-6,59,-149
3420,208,-2016,8,-5,62,-147
3425,208,-2032,8,-4,64,-148
3430,200,-2024,16,-4,66,-148
3435,200,-2016,32,-4,68,-149
3440,200,-2048,0,-4,68,-146
3445,200,-2016,16,-3,68,-145
3450,208,-2032,0,0,68,-144
3455,208,-2008,24,2,68,-143
3460,208,-2040,0,3,66,-143
3465,224,-2032,-8,3,65,-145
3470,224,-2032,8,5,65,-145
3475,216,-2040,40,5,65,-147
3480,216,-2008,24,2,66,-148
3485,232,-2016,24,-4,66,-150
3490,208,-2032,32,-13,64,-154
3495,248,-2048,32,-20,65,-157
3500,224,-2040,32,-25,66,-159
3505,240,-2024,40,-28,65,-161
3510,232,-2016,16,-30,64,-162
3515,248,-2040,32,-29,64,-162
3520,248,-2032,40,-28,64,-163
3525,264,-2032,48,-30,65,-164
3530,240,-2008,24,-29,66,-163
3535,256,-2024,0,-30,67,-164
3540,256,-2016,0,-29,67,-164
3545,272,-2032,40,-28,70,-164
3550,232,-2016,16,-28,70,-166
3555,272,-2024,40,-30,70,-168
3560,240,-2008,24,-31,71,-169
3565,256,-2024,8,-32,72,-170
3570,256,-2024,-16,-32,72,-173
3575,272,-2032,16,-30,72,-174
3580,264,-2016,8,-32,71,-177
3585,280,-2016,16,-35,69,-177
3590,240,-2000,16,-40,65,-182
3595,280,-2024,16,-42,62,-179
3600,272,-2024,24,-43,60,-181
3605,272,-2008,40,-42,59,-182
3610,288,-2024,16,-42,59,-182
3615,264,-2040,16,-42,58,-183
3620,288,-2024,8,-43,60,-185
3625,280,-2016,16,-44,61,-186
3630,264,-2024,48,-43,64,-189
3635,288,-2032,-8,-44,67,-190
3640,312,-2008,40,-43,68,-191
3645,304,-2048,-16,-41,68,-192
3650,312,-2032,-16,-38,67,-192
3655,296,-2024,-32,-34,64,-189
3660,328,-2016,16,-29,63,-190
3665,320,-2040,0,-26,60,-189
3670,328,-2032,-8,-24,58,-191
3675,312,-2016,8,-23,61,-192
3680,320,-2000,8,-24,64,-196
3685,304,-2000,0,-24,67,-196
3690,328,-2008,48,-28,69,-200
3695,336,-2000,8,-34,73,-199
3700,328,-2024,40,-35,75,-203
3705,320,-2032,-8,-37,76,-204
3710,304,-2024,40,-38,75,-206
3715,328,-2016,16,-39,72,-205
3720,328,-2032,56,-39,70,-207
3725,352,-2032,0,-41,67,-208
3730,352,-2056,0,-44,65,-211
3735,328,-2032,16,-46,62,-211
3740,328,-2008,8,-51,58,-214
3745,336,-2032,-16,-51,58,-213
3750,336,-2024,0,-52,53,-216
3755,352,-2008,8,-50,52,-213
3760,336,-2000,-16,-48,51,-217
3765,344,-2000,8,-45,48,-217
3770,344,-2024,0,-46,47,-221
3775,344,-2016,32,-52,46,-220
3780,320,-2008,16,-55,43,-223
3785,360,-2000,48,-57,42,-222
3790,344,-2000,32,-59,40,-226
3795,352,-2024,0,-60,39,-224
3800,344,-2032,16,-60,38,-228
3805,368,-2032,8,-59,36,-225
3810,360,-1992,-8,-58,35,-227
3815,392,-2032,8,-57,33,-226
3820,360,-2024,8,-53,31,-230
3825,384,-2016,24,-49,30,-227
3830,384,-2008,16,-48,30,-232
3835,392,-2016,0,-49,30,-230
3840,392,-2016,0,-51,28,-233
3845,392,-2000,24,-52,31,-230
3850,400,-2008,8,-54,33,-232
3855,400,-1992,-8,-58,35,-230
3860,400,-2016,32,-61,37,-233
3865,392,-2000,0,-64,38,-231
3870,408,-2024,-8,-65,39,-235
3875,392,-2008,-8,-68,40,-236
3880,392,-2032,8,-69,38,-239
3885,432,-2008,48,-68,36,-237
3890,400,-1992,32,-70,33,-242
3895,416,-2008,8,-73,27,-244
3900,400,-1984,8,-74,21,-250
3905,408,-2032,16,-76,14,-250
3910,424,-2000,0,-77,9,-254
3915,432,-2024,8,-78,5,-253
3920,416,-2008,-8,-80,3,-259
3925,432,-2000,0,-82,5,-256
3930,424,-2008,-8,-85,5,-261
3935,432,-2008,32,-86,3,-262
3940,440,-2008,-16,-86,3,-267
3945,416,-2000,0,-85,3,-265
3950,432,-1984,0,-81,4,-267
3955,456,-1992,-32,-77,3,-266
3960,480,-2000,-16,-73,5,-268
3965,448,-1976,-64,-71,6,-269
3970,464,-1984,-32,-75,8,-276
3975,456,-2000,-32,-79,8,-276
3980,480,-1992,8,-80,8,-277
3985,472,-1976,-24,-78,8,-276
3990,464,-1976,-40,-74,10,-278
3995,496,-1976,-16,-71,8,-279
4000,464,-1968,-72,-73,11,-286
4005,488,-1976,-24,-75,12,-286
4010,480,-2000,-32,-78,8,-292
4015,480,-2000,-24,-84,7,-295
4020,472,-1992,-24,-87,7,-298
4025,504,-1976,-48,-88,5,-296
4030,464,-1968,-24,-90,3,-302
4035,496,-1992,-32,-90,2,-302
4040,480,-1960,-40,-87,-1,-308
4045,504,-1984,-56,-85,-3,-308
4050,528,-1968,-56,-85,-5,-312
4055,504,-1968,-48,-86,-8,-313
4060,488,-1984,-80,-88,-10,-319
4065,496,-1984,-72,-87,-11,-319
4070,496,-1976,-40,-92,-13,-323
4075,488,-1968,-40,-95,-12,-322
4080,528,-2000,-64,-95,-13,-324
4085,528,-1984,-104,-98,-12,-327
4090,504,-1984,-48,-101,-14,-335
4095,480,-1976,-56,-97,-17,-335
4100,464,-2000,-64,-90,-20,-337
4105,512,-1984,-56,-81,-31,-333
4110,520,-1976,-56,-73,-37,-336
4115,536,-1984,-72,-72,-46,-333
4120,504,-1960,-56,-76,-54,-336
4125,536,-1944,-80,-79,-62,-330
4130,544,-1960,-72,-82,-67,-330
4135,576,-1944,-96,-93,-72,-330
4140,552,-1920,-96,-103,-74,-329
4145,576,-1936,-72,-118,-74,-330
4150,592,-1936,-64,-128,-70,-333
4155,608,-1944,-104,-143,-66,-335
4160,624,-1968,-80,-154,-61,-338
4165,656,-1976,-88,-158,-53,-338
4170,632,-1984,-88,-160,-50,-342
4175,648,-2000,-88,-161,-46,-347
4180,640,-2000,-72,-160,-41,-359
4185,608,-2000,-80,-156,-37,-360
4190,656,-1984,-112,-144,-34,-360
4195,640,-1976,-104,-134,-34,-364
4200,672,-1976,-80,-128,-36,-370
4205,688,-1976,-80,-125,-37,-372
4210,648,-1928,-104,-121,-40,-378
4215,648,-1960,-72,-116,-43,-374
4220,640,-1936,-64,-108,-42,-373
4225,680,-1936,-88,-102,-39,-373
4230,640,-1944,-88,-102,-38,-379
4235,680,-1928,-64,-102,-38,-379
4240,672,-1944,-48,-98,-37,-384
4245,648,-1936,-96,-96,-36,-383
4250,680,-1944,-96,-92,-35,-383
4255,648,-1912,-72,-88,-29,-382
4260,688,-1944,-64,-84,-25,-380
4265,680,-1928,-96,-81,-21,-378
4270,680,-1944,-80,-80,-14,-380
4275,672,-1936,-64,-80,-10,-377
4280,696,-1936,-120,-76,-8,-377
4285,664,-1928,-80,-76,-1,-380
4290,672,-1928,-64,-74,1,-380
4295,704,-1936,-104,-64,3,-374
4300,688,-1896,-96,-57,5,-376
4305,720,-1912,-80,-49,4,-373
4310,720,-1904,-88,-44,3,-376
4315,728,-1936,-88,-41,0,-379
4320,728,-1912,-104,-37,-2,-380
4325,752,-1896,-96,-32,-2,-383
4330,784,-1904,-80,-30,-2,-391
4335,752,-1888,-88,-30,-2,-396
4340,792,-1896,-96,-26,0,-399
4345,760,-1904,-80,-22,2,-401
4350,768,-1888,-96,-17,8,-404
4355,800,-1896,-128,-9,14,-405
4360,776,-1880,-104,-3,22,-408
4365,824,-1888,-112,4,29,-409
4370,784,-1888,-128,8,38,-414
4375,808,-1872,-112,10,47,-419
4380,800,-1880,-120,12,60,-427
4385,848,-1880,-120,13,68,-428
4390,824,-1864,-112,11,75,-437
4395,800,-1840,-104,4,77,-445
4400,808,-1840,-112,-4,79,-452
4405,840,-1824,-128,-10,79,-459
4410,832,-1840,-152,-19,80,-466
4415,840,-1848,-144,-27,78,-474
4420,872,-1848,-128,-33,77,-481
4425,856,-1840,-128,-40,74,-484
4430,864,-1848,-104,-43,71,-487
4435,864,-1848,-136,-44,68,-493
4440,864,-1848,-152,-46,65,-499
4445,856,-1848,-88,-49,60,-504
4450,872,-1848,-88,-51,55,-506
4455,872,-1856,-72,-56,48,-509
4460,872,-1856,-80,-64,37,-513
4465,840,-1880,-80,-79,26,-518
4470,872,-1872,-32,-94,8,-523
4475,864,-1896,-56,-102,-6,-525
4480,872,-1912,-88,-99,-17,-527
4485,880,-1872,-72,-93,-26,-528
4490,888,-1880,-120,-82,-33,-530
4495,904,-1888,-56,-71,-39,-535
4500,888,-1832,-56,-58,-47,-538
4505,896,-1864,-56,-45,-52,-543
4510,928,-1832,-72,-31,-55,-545
4515,944,-1824,-96,-24,-59,-548
4520,936,-1800,-80,-26,-61,-547
4525,928,-1800,-24,-29,-59,-545
4530,944,-1784,-16,-32,-55,-541
4535,968,-1792,-32,-32,-53,-541
4540,952,-1808,48,-32,-50,-542
4545,952,-1832,0,-31,-48,-544
4550,960,-1816,-16,-31,-41,-546
4555,944,-1832,-24,-32,-37,-549
4560,968,-1824,-8,-36,-31,-549
4565,936,-1824,-48,-42,-23,-550
4570,952,-1840,-64,-44,-12,-547
4575,936,-1832,-112,-43,-3,-546
4580,960,-1848,-96,-38,6,-545
4585,960,-1840,-96,-24,9,-543
4590,984,-1824,-144,-5,10,-542
4595,960,-1808,-136,11,7,-550
4600,960,-1760,-88,23,-3,-551
4605,1048,-1832,-88,32,-14,-557
4610,1000,-1736,-168,34,-32,-560
4615,1040,-1704,-112,33,-43,-564
4620,1000,-1768,-144,29,-49,-570
4625,1000,-1760,-160,21,-53,-582
4630,992,-1736,-176,12,-53,-593
4635,984,-1744,-168,4,-54,-602
4640,1000,-1736,-152,-3,-55,-608
4645,1008,-1744,-160,-10,-58,-619
4650,1024,-1744,-152,-15,-60,-627
4655,1016,-1728,-168,-15,-69,-638
4660,1024,-1720,-160,-12,-76,-645
4665,1032,-1680,-184,-11,-86,-655
4670,1032,-1696,-160,-16,-97,-662
4675,1016,-1680,-152,-24,-105,-672
4680,1008,-1688,-136,-32,-109,-673
4685,1040,-1656,-160,-42,-110,-678
4690,1032,-1664,-144,-54,-103,-687
4695,1048,-1648,-120,-74,-95,-699
4700,1080,-1624,-120,-97,-83,-701
4705,1072,-1592,-120,-123,-69,-707
4710,1120,-1592,-160,-156,-54,-712
4715,1112,-1592,-160,-192,-37,-721
4720,1112,-1592,-200,-228,-20,-727
4725,1112,-1576,-208,-259,2,-738
4730,1104,-1576,-256,-282,24,-744
4735,1120,-1616,-240,-300,46,-753
4740,1128,-1592,-280,-310,61,-759
4745,1128,-1584,-272,-317,66,-772
4750,1168,-1592,-280,-320,63,-779
4755,1128,-1576,-240,-327,56,-795
4760,1152,-1568,-248,-330,45,-808
4765,1144,-1568,-208,-334,33,-829
4770,1168,-1584,-192,-336,22,-846
4775,1136,-1584,-176,-337,14,-862
4780,1120,-1576,-208,-342,13,-872
4785,1152,-1576,-200,-347,21,-881
4790,1128,-1576,-208,-353,38,-886
4795,1128,-1568,-216,-360,56,-892
4800,1136,-1576,-240,-362,70,-891
4805,1136,-1576,-256,-355,78,-895
4810,1168,-1576,-256,-336,76,-896
4815,1176,-1568,-272,-308,70,-900
4820,1200,-1512,-248,-280,62,-908
4825,1208,-1456,-272,-254,56,-928
4830,1232,-1376,-224,-241,50,-947
4835,1264,-1312,-224,-244,45,-982
4840,1280,-1256,-224,-265,45,-1011
4845,1272,-1232,-216,-299,48,-1053
4850,1304,-1216,-224,-341,56,-1094
4855,1288,-1200,-208,-382,68,-1139
4860,1296,-1184,-184,-415,84,-1178
4865,1296,-1232,-216,-439,99,-1223
4870,1272,-1240,-208,-459,116,-1263
4875,1264,-1272,-192,-477,138,-1308
4880,1248,-1320,-184,-498,166,-1358
4885,1280,-1328,-160,-518,190,-1398
4890,1272,-1304,-152,-521,213,-1427
4895,1296,-1288,-176,-522,226,-1453
4900,1256,-1232,-152,-522,231,-1474
4905,1288,-1224,-176,-524,224,-1498
4910,1296,-1200,-168,-529,205,-1520
4915,1288,-1232,-192,-537,180,-1556
4920,1280,-1256,-176,-540,154,-1594
4925,1288,-1256,-144,-536,125,-1652
4930,1280,-1256,-112,-528,107,-1690
4935,1280,-1248,-80,-530,90,-1725
4940,1264,-1240,-16,-539,67,-1752
4945,1232,-1240,32,-551,34,-1789
4950,1192,-1200,0,-574,-1,-1824
4955,1136,-1184,56,-617,-30,-1859
4960,1128,-1160,48,-668,-41,-1888
4965,1120,-1168,24,-728,-36,-1919
4970,1080,-1160,-8,-784,-3,-1958
4975,1056,-1216,-112,-819,45,-1986
4980,1048,-1232,-136,-822,94,-1999
4985,1104,-1224,-176,-800,127,-2006
4990,1184,-1216,-264,-764,139,-2007
4995,1240,-1200,-328,-746,131,-2011
5000,1328,-1184,-360,-753,98,-2006
5005,1368,-1144,-328,-783,38,-2013
5010,1432,-1120,-312,-832,-41,-2010
5015,1416,-1104,-240,-872,-148,-2028
5020,1432,-1072,-200,-928,-237,-2032
5025,1408,-992,-192,-981,-302,-2044
5030,1344,-896,-80,-1053,-349,-2040
5035,1320,-856,-8,-1135,-376,-2040
5040,1320,-864,-8,-1214,-386,-2040
5045,1320,-864,8,-1264,-365,-2055
5050,1376,-888,-16,-1258,-310,-2070
5055,1432,-904,-40,-1192,-236,-2074
5060,1440,-904,48,-1086,-182,-2051
5065,1456,-880,64,-939,-203,-2007
5070,1536,-840,72,-831,-273,-1936
5075,1552,-792,64,-748,-342,-1896
5080,1552,-720,32,-691,-381,-1901
5085,1544,-672,-48,-666,-392,-1938
5090,1496,-608,-40,-669,-386,-1980
5095,1488,-568,-32,-683,-370,-2015
5100,1512,-544,48,-691,-357,-2046
5105,1464,-536,64,-682,-336,-2081
5110,1504,-544,64,-649,-307,-2106
5115,1400,-536,64,-616,-283,-2137
5120,1424,-544,72,-585,-256,-2153
5125,1432,-576,80,-543,-206,-2181
5130,1408,-568,160,-488,-144,-2225
5135,1280,-544,104,-425,-96,-2278
5140,1192,-544,32,-365,-79,-2319
5145,1120,-544,-56,-310,-84,-2345
5150,1056,-536,-128,-260,-99,-2349
5155,1008,-552,-216,-217,-124,-2336
5160,1024,-544,-264,-204,-158,-2318
5165,1032,-544,-304,-188,-194,-2322
5170,1088,-480,-256,-184,-228,-2316
5175,1152,-440,-104,-177,-249,-2328
5180,1208,-320,-40,-150,-268,-2359
5185,1240,-248,-8,-120,-288,-2393
5190,1344,-144,48,-112,-312,-2406
5195,1464,-56,56,-119,-295,-2399
5200,1568,-24,72,-104,-228,-2393
5205,1584,-32,88,-50,-128,-2406
5210,1592,-88,128,69,-4,-2430
5215,1488,-192,56,279,135,-2456
5220,1400,-192,-152,581,231,-2464
5225,1336,-208,-528,883,264,-2435
5230,1248,-176,-968,1110,219,-2377
5235,1152,-136,-1384,1202,91,-2311
5240,992,-136,-1640,1144,-75,-2187
5245,888,-192,-1752,997,-223,-2042
5250,832,-280,-1512,913,-279,-1870
5255,864,-376,-1232,892,-290,-1688
5260,976,-584,-872,962,-277,-1507
5265,1096,-760,-864,1131,-281,-1344
5270,1256,-888,-992,1371,-347,-1188
5275,1504,-920,-1192,1642,-445,-1053
5280,1832,-928,-1416,1925,-507,-955
5285,2128,-824,-1640,2194,-444,-912
5290,2296,-712,-1776,2453,-297,-927
5295,2456,-496,-1912,2614,-148,-985
5300,2528,-216,-1840,2731,-30,-1060
5305,2488,144,-1712,2782,63,-1123
5310,2432,528,-1416,2762,199,-1152
5315,2480,840,-1344,2688,421,-1163
5320,2664,1088,-1544,2605,687,-1157
5325,2944,1312,-1944,2535,998,-1141
5330,3144,1448,-2248,2460,1472,-1057
5335,3384,1584,-2512,2347,1903,-914
5340,3384,1560,-2576,2177,2367,-717
5345,3272,1280,-2592,1941,2825,-537
5350,3176,968,-2464,1677,3221,-381
5355,3104,720,-2192,1466,3521,-289
5360,2976,456,-1712,1386,3769,-279
5365,2808,560,-1688,1595,3937,-484
5370,2384,768,-1912,1786,4060,-713
5375,2344,1000,-2000,1777,4077,-865
5380,1936,1320,-2696,1629,4083,-938
5385,2392,1448,-2560,1267,4210,-740
5390,2488,1696,-2440,1113,4573,-652
5395,2792,1936,-1984,1011,5115,-513
5400,3016,2016,-1536,981,5473,-310
5405,3160,2296,-1352,1064,5590,-187
5410,3168,2848,-1264,1026,5453,-94
5415,3552,3560,-976,930,4857,-144
5420,3008,4512,-1272,925,4226,-407
5425,3144,5072,-1464,634,3625,-307
5430,3768,5056,-1208,323,3418,364
5435,4432,4896,-1080,326,3328,1270
5440,4776,4872,-1160,532,3115,2031
5445,4912,4536,-800,735,2678,2624
5450,5448,4032,-504,1069,2198,3017
5455,4968,3536,-480,1397,2019,3195
5460,4024,3104,-560,1379,2104,3280
5465,3568,2488,-224,851,2187,3333
5470,2392,1728,-104,114,2254,3050
5475,1224,712,152,-294,2210,2597
5480,368,72,376,-399,2154,2121
5485,-184,-472,824,-288,2194,1651
5490,-320,-584,1296,-66,2233,1213
5495,64,-616,1928,118,2195,844
5500,856,-448,2728,262,2040,539
5505,1688,-112,3248,493,1832,290
5510,2152,152,3432,857,1611,76
5515,2288,776,3120,1373,1251,-11
5520,2688,1160,2728,1672,806,12
5525,2976,1416,2320,1860,337,91
5530,2856,1456,1720,1961,-115,173
5535,2816,1264,1320,1972,-556,290
5540,2440,1200,848,1919,-859,380
5545,2016,1064,648,1769,-985,484
5550,1608,816,792,1587,-973,591
5555,1336,632,912,1434,-913,727
5560,1432,536,1152,1346,-826,816
5565,1072,496,1088,1358,-781,845
5570,952,560,1136,1343,-846,915
5575,1168,584,1224,1274,-975,997
5580,1296,568,1176,1192,-1102,1030
5585,1432,568,1112,1098,-1190,1044
5590,1592,584,1104,1003,-1272,1040
5595,1624,624,1064,958,-1356,1019
5600,1808,648,896,955,-1446,997
5605,1896,736,792,963,-1515,964
5610,1912,832,640,952,-1530,919
5615,1936,880,536,920,-1549,871
5620,1832,888,464,865,-1556,815
5625,1744,784,488,815,-1522,766
5630,1656,632,448,764,-1449,721
5635,1528,528,560,709,-1329,668
5640,1392,480,600,678,-1196,611
5645,1232,440,624,661,-1088,581
5650,1176,400,624,644,-1022,606
5655,1200,376,640,642,-1007,658
5660,1288,376,688,655,-1017,701
5665,1360,368,752,682,-1026,737
5670,1448,368,712,713,-1038,779
5675,1656,336,640,738,-1053,811
5680,1848,328,544,753,-1071,814
5685,1960,336,384,747,-1085,785
5690,1952,384,240,706,-1095,691
5695,1784,464,72,621,-1141,611
5700,1640,472,-80,532,-1210,551
5705,1464,416,-160,439,-1277,522
5710,1360,256,-184,364,-1340,509
5715,1328,24,-200,328,-1404,507
5720,1360,-112,-192,332,-1448,508
5725,1440,-152,-224,358,-1462,505
5730,1568,-256,-288,369,-1445,505
5735,1768,-264,-264,349,-1404,501
5740,1984,-248,-376,291,-1331,456
5745,2048,-144,-448,209,-1251,405
5750,2304,-96,-472,93,-1183,369
5755,2480,-48,-512,-24,-1127,332
5760,2560,0,-488,-116,-1103,283
5765,2584,32,-568,-182,-1105,233
5770,2608,112,-624,-246,-1119,180
5775,2520,152,-712,-308,-1132,144
5780,2448,160,-768,-367,-1144,132
5785,2408,168,-872,-456,-1151,150
5790,2312,120,-920,-563,-1140,169
5795,2384,40,-928,-657,-1131,200
5800,2464,-32,-992,-747,-1104,215
5805,2536,-144,-976,-819,-1060,213
5810,2568,-304,-936,-858,-1008,197
5815,2544,-488,-1000,-858,-988,171
5820,2528,-560,-1000,-833,-983,144
5825,2544,-688,-1000,-784,-961,130
5830,2520,-728,-952,-695,-889,121
5835,2432,-712,-936,-591,-793,119
5840,2320,-656,-856,-484,-682,116
5845,2208,-528,-816,-379,-565,111
5850,2096,-344,-840,-295,-453,91
5855,2024,-160,-808,-241,-351,75
5860,1952,-16,-800,-221,-254,56
5865,1944,72,-768,-234,-173,49
5870,1928,136,-704,-271,-110,55
5875,1960,152,-608,-334,-54,63
5880,1960,104,-576,-382,-18,68
5885,1984,16,-520,-417,9,82
5890,2016,-72,-496,-437,30,89
5895,2000,-144,-424,-442,57,93
5900,2016,-216,-408,-429,88,83
5905,2000,-280,-424,-403,125,71
5910,2024,-336,-448,-364,175,51
5915,2000,-344,-440,-312,229,24
5920,1968,-320,-456,-232,299,-7
5925,1984,-272,-480,-164,357,-33
5930,1984,-168,-488,-103,433,-58
5935,2024,-88,-520,-53,518,-72
5940,2072,-24,-536,-21,599,-81
5945,2152,32,-504,-3,672,-80
5950,2232,72,-536,-4,734,-75
5955,2256,120,-488,-17,777,-61
5960,2328,160,-488,-32,801,-45
5965,2328,152,-520,-46,820,-26
5970,2328,144,-488,-59,821,-16
5975,2312,128,-440,-71,821,-3
5980,2288,144,-432,-88,823,5
5985,2280,112,-448,-102,829,21
5990,2280,88,-400,-114,835,33
5995,2272,64,-360,-118,844,51
6000,2264,-8,-336,-113,855,64
6005,2256,-24,-328,-94,867,80
6010,2248,-32,-296,-60,883,93
6015,2280,-32,-272,-25,898,107
6020,2264,-40,-256,9,914,115
6025,2256,-16,-240,38,929,122
6030,2216,-24,-232,60,938,124
6035,2216,0,-232,73,940,128
6040,2184,40,-176,72,940,131
6045,2168,24,-176,64,938,138
6050,2168,32,-112,55,930,141
6055,2128,16,-120,43,911,153
6060,2144,32,-72,37,895,158
6065,2128,32,-96,31,878,170
6070,2088,8,-64,22,863,174
6075,2104,-16,-16,7,844,180
6080,2056,0,-16,-11,825,177
6085,2056,-8,8,-28,812,177
6090,2032,-32,24,-38,801,173
6095,2000,-32,48,-40,791,176
6100,1984,-40,56,-37,782,177
6105,1984,-56,72,-24,781,183
6110,1984,-40,72,-3,783,179
6115,2000,-32,72,23,794,181
6120,2000,-24,72,49,807,180
6125,2000,-8,72,65,817,179
6130,2024,0,104,69,820,173
6135,2048,0,120,59,812,172
6140,2032,16,136,27,796,181
6145,2032,-16,160,-31,753,200
6150,2064,-40,192,-70,709,210
6155,2088,-72,192,-88,668,214
6160,2048,-80,240,-81,624,209
6165,2032,-120,240,-59,580,200
6170,2008,-128,208,-41,537,190
6175,1976,-88,208,-34,500,188
6180,1968,-136,168,-42,470,191
6185,1960,-128,192,-58,444,197
6190,1984,-152,248,-68,423,197
6195,1944,-192,296,-60,407,193
6200,1920,-160,296,-46,393,183
6205,1880,-184,328,-30,377,180
6210,1872,-184,344,-17,353,177
6215,1856,-192,360,-7,329,176
6220,1880,-208,368,5,295,169
6225,1864,-216,376,12,267,165
6230,1896,-240,376,18,241,161
6235,1880,-224,384,31,207,158
6240,1880,-232,320,52,180,148
6245,1920,-232,352,70,157,147
6250,1912,-248,280,96,133,141
6255,1936,-224,312,124,112,138
6260,1952,-216,280,147,97,136
6265,1960,-200,224,165,87,135
6270,2008,-184,272,177,77,132
6275,2064,-160,312,182,64,128
6280,2104,-184,248,182,44,121
6285,2128,-152,232,175,21,120
6290,2144,-160,208,164,-4,114
6295,2168,-184,168,154,-32,105
6300,2144,-176,176,139,-61,90
6305,2144,-184,176,125,-87,76
6310,2144,-176,128,113,-111,62
6315,2088,-176,104,100,-131,48
6320,2096,-176,80,90,-142,38
6325,2080,-160,72,84,-141,28
6330,2064,-184,72,85,-128,20
6335,2072,-192,64,86,-106,15
6340,2064,-192,64,87,-82,10
6345,2072,-168,64,89,-54,2
6350,2064,-184,72,89,-28,-3
6355,2056,-144,88,85,-7,-7
6360,2040,-168,96,80,9,-12
6365,2040,-168,96,78,15,-17
6370,2040,-176,104,77,15,-24
6375,2064,-216,136,77,13,-31
6380,2048,-176,160,77,7,-40
6385,2016,-176,104,76,4,-48
6390,2000,-160,104,76,3,-56
6395,2008,-144,88,70,6,-64
6400,1984,-136,88,62,13,-70
6405,1992,-112,80,52,21,-79
6410,1968,-120,88,42,30,-82
6415,1976,-128,64,33,42,-86
6420,1992,-104,96,24,52,-88
6425,2008,-120,136,19,59,-90
6430,2016,-120,120,16,65,-89
6435,2048,-144,128,13,68,-91
6440,2056,-136,112,15,67,-90
6445,2080,-136,136,16,66,-92
6450,2072,-152,112,20,63,-92
6455,2096,-128,96,24,60,-93
6460,2096,-112,112,29,57,-93
6465,2104,-112,80,32,54,-93
6470,2120,-96,120,34,53,-91
6475,2120,-88,64,32,54,-91
6480,2104,-80,88,31,57,-90
6485,2104,-72,72,28,63,-90
6490,2128,-96,64,28,69,-88
6495,2056,-56,64,30,77,-87
6500,2080,-64,32,31,81,-81
6505,2088,-56,64,28,87,-76
6510,2096,-72,64,20,91,-71
6515,2080,-80,96,11,93,-64
6520,2072,-40,88,0,93,-57
6525,2080,-56,104,-9,92,-53
6530,2104,-64,104,-17,89,-47
6535,2104,-72,104,-22,86,-43
6540,2080,-72,112,-22,84,-34
6545,2080,-56,136,-18,82,-27
6550,2088,-80,160,-13,78,-19
6555,2088,-80,104,-9,77,-17
6560,2056,-88,104,-9,81,-13
6565,2096,-64,96,-10,85,-11
6570,2096,-80,64,-8,93,-7
6575,2088,-48,64,-6,102,-7
6580,2088,-48,104,-6,110,0
6585,2112,-80,120,-5,115,1
6590,2088,-56,120,0,117,8
6595,2088,-64,80,-2,115,13
6600,2072,-80,136,-2,112,21
6605,2080,-48,128,-5,107,24
6610,2064,-32,144,-8,102,33
6615,2056,-48,136,-11,93,38
6620,2056,-72,168,-13,87,47
6625,2064,-72,112,-15,84,50
6630,2048,-80,144,-16,78,57
6635,2032,-88,136,-17,75,57
6640,2008,-56,104,-18,82,62
6645,2032,-104,88,-18,89,64
6650,2024,-112,112,-16,94,69
6655,2008,-104,112,-8,98,70
6660,2048,-128,88,3,103,73
6665,2032,-112,120,12,114,74
6670,2072,-152,112,20,123,80
6675,2072,-136,144,23,131,80
6680,2056,-120,104,24,131,83
6685,2064,-120,128,28,125,83
6690,2008,-120,168,25,112,85
6695,2032,-128,176,20,94,85
6700,2048,-128,168,18,79,83
6705,2056,-120,176,20,72,79
6710,2064,-144,144,22,68,82
6715,2032,-144,152,24,64,85
6720,2056,-128,144,31,58,89
6725,2064,-160,152,38,54,89
6730,2064,-144,128,46,50,90
6735,2064,-120,144,51,46,86
6740,2080,-144,120,55,49,84
6745,2072,-136,120,57,53,77
6750,2056,-136,112,55,53,78
6755,2088,-152,112,49,52,72
6760,2096,-136,104,43,49,69
6765,2112,-152,72,32,46,60
6770,2104,-112,88,15,45,55
6775,2080,-112,136,-7,44,48
6780,2088,-112,112,-26,43,45
6785,2096,-136,120,-41,41,39
6790,2112,-136,120,-44,39,41
6795,2112,-176,112,-38,42,42
6800,2112,-184,104,-24,43,48
6805,2120,-176,112,-5,46,50
6810,2112,-184,80,17,48,55
6815,2096,-192,104,31,46,50
6820,2088,-168,88,39,48,48
6825,2096,-152,80,33,52,36
6830,2104,-168,88,20,59,28
6835,2088,-152,88,3,70,16
6840,2072,-136,96,-16,82,11
6845,2104,-144,104,-29,97,2
6850,2096,-152,112,-36,108,0
6855,2072,-160,128,-38,117,-4
6860,2096,-192,120,-34,123,-4
6865,2072,-184,88,-25,128,-8
6870,2064,-152,72,-15,128,-5
6875,2072,-144,104,-8,132,-9
6880,2048,-136,88,-6,137,-7
6885,2096,-168,80,-7,147,-10
6890,2104,-168,112,-7,159,-10
6895,2096,-168,104,-9,169,-15
6900,2096,-184,96,-5,173,-15
6905,2096,-176,120,2,175,-21
6910,2088,-160,128,11,164,-18
6915,2080,-136,136,14,153,-22
6920,2048,-152,168,13,145,-22
6925,2024,-128,168,5,138,-26
6930,2016,-136,144,-5,134,-27
6935,2008,-128,152,-19,136,-31
6940,2016,-144,168,-32,140,-29
6945,1992,-128,184,-39,143,-31
6950,2016,-120,184,-46,148,-26
6955,2024,-120,192,-51,153,-27
6960,2056,-136,192,-51,156,-21
6965,2040,-152,192,-45,157,-20
6970,2072,-144,176,-38,153,-14
6975,2072,-160,168,-31,146,-16
6980,2064,-152,208,-22,139,-13
6985,2096,-160,184,-15,126,-14
6990,2104,-176,168,-8,107,-13
6995,2072,-160,160,-1,87,-18
7000,2048,-144,192,5,63,-18
7005,2040,-136,176,9,49,-26
7010,2008,-128,184,13,41,-29
7015,1984,-104,120,14,42,-36
7020,1992,-128,136,14,51,-37
7025,1968,-112,152,15,66,-39
7030,1976,-120,192,17,81,-36
7035,1968,-88,160,21,97,-36
7040,1984,-88,200,21,110,-29
7045,2000,-48,208,17,117,-24
7050,1976,-56,192,10,120,-17
7055,2008,-48,184,-3,118,-16
7060,2008,-88,192,-23,115,-11
7065,2008,-96,176,-42,110,-11
7070,2008,-112,208,-63,105,-8
7075,2016,-120,176,-80,99,-11
7080,2024,-136,168,-92,91,-13
7085,2024,-128,208,-97,84,-18
7090,2032,-152,200,-94,75,-18
7095,2048,-160,168,-87,68,-21
7100,2048,-136,192,-74,62,-20
7105,2048,-168,184,-64,56,-22
7110,2048,-128,168,-51,51,-19
7115,2064,-128,144,-39,43,-18
7120,2072,-128,184,-26,35,-15
7125,2072,-112,176,-15,31,-13
7130,2088,-120,144,-9,30,-10
7135,2072,-128,136,-9,30,-9
7140,2048,-96,136,-17,33,-5
7145,2088,-96,128,-27,39,-4
7150,2080,-112,112,-40,44,-2
7155,2096,-128,96,-51,52,-4
7160,2064,-120,152,-60,63,-4
7165,2072,-136,160,-65,73,-5
7170,2056,-136,152,-66,83,-4
7175,2080,-144,128,-63,91,-5
7180,2080,-168,144,-55,94,-1
7185,2056,-152,160,-45,94,-1
7190,2080,-160,152,-32,95,0
7195,2072,-168,152,-20,98,-2
7200,2072,-152,152,-7,103,0
7205,2080,-152,128,4,110,-2
7210,2048,-120,160,14,118,-1
7215,2096,-152,152,18,124,2
7220,2080,-120,176,21,130,4
7225,2064,-120,144,21,131,3
7230,2072,-144,136,17,132,2
7235,2032,-112,168,12,133,2
7240,2064,-128,160,4,134,2
7245,2064,-128,192,0,135,1
7250,2072,-112,168,-4,137,0
7255,2072,-136,176,-5,138,0
7260,2080,-168,192,-3,141,-1
7265,2064,-144,192,5,144,-5
7270,2088,-144,144,14,148,-8
7275,2080,-144,136,22,151,-10
7280,2096,-136,152,27,156,-8
7285,2072,-136,152,32,161,-5
7290,2088,-128,136,39,163,-5
7295,2080,-128,152,49,164,-3
7300,2072,-120,128,55,167,-3
7305,2056,-128,152,58,169,0
7310,2088,-120,200,54,176,2
7315,2056,-104,192,47,182,0
7320,2080,-112,168,40,187,0
7325,2048,-88,160,31,192,2
7330,2064,-104,176,25,194,4
7335,2064,-104,208,18,194,7
7340,2064,-112,216,14,191,11
7345,2048,-104,264,12,186,15
7350,2064,-128,216,10,179,17
7355,2048,-120,216,10,172,24
7360,2072,-112,224,9,167,27
7365,2040,-112,216,12,162,29
7370,2056,-96,232,10,153,33
7375,2032,-128,200,8,145,35
7380,2032,-128,264,6,136,35
7385,2056,-160,240,1,126,35
7390,2024,-136,232,-2,117,33
7395,2016,-104,240,-8,109,32
7400,2016,-144,240,-15,104,29
7405,2032,-128,256,-22,100,28
7410,2024,-152,240,-29,97,25
7415,2016,-144,248,-34,94,26
7420,2048,-144,232,-35,89,25
7425,2032,-160,240,-38,84,24
7430,2032,-152,248,-38,76,22
7435,2000,-136,264,-40,70,22
7440,2048,-152,232,-42,66,19
7445,2032,-160,224,-43,61,19
7450,2040,-136,248,-47,55,15
7455,2040,-152,248,-50,47,14
7460,2032,-176,232,-52,40,11
7465,2016,-152,256,-51,30,8
7470,2040,-160,248,-53,24,4
7475,2024,-160,232,-48,19,2
7480,2008,-160,232,-45,16,-5
7485,2016,-144,248,-40,13,-7
7490,2016,-160,208,-39,10,-11
7495,2024,-152,240,-38,8,-12
7500,2016,-144,256,-37,2,-14
7505,2048,-152,256,-36,-2,-15
7510,2016,-144,224,-38,-7,-18
7515,2048,-144,200,-36,-12,-17
7520,2048,-144,248,-31,-17,-19
7525,2048,-128,200,-29,-22,-17
7530,2040,-136,200,-28,-25,-19
7535,2056,-120,192,-24,-29,-19
7540,2040,-152,184,-22,-31,-21
7545,2048,-144,192,-23,-30,-20
7550,2056,-152,224,-26,-31,-20
7555,2096,-136,200,-28,-31,-18
7560,2040,-112,232,-31,-32,-20
7565,2040,-112,200,-35,-34,-16
7570,2048,-112,200,-37,-34,-17
7575,2040,-128,208,-37,-35,-13
7580,2072,-120,184,-38,-37,-13
7585,2040,-112,168,-36,-37,-11
7590,2056,-128,208,-33,-36,-9
7595,2048,-136,208,-30,-37,-5
7600,2048,-144,192,-29,-38,-7
7605,2064,-144,144,-28,-38,-4
7610,2056,-120,168,-27,-37,-6
7615,2032,-104,176,-27,-37,-3
7620,2048,-72,192,-28,-35,-7
7625,2064,-128,184,-30,-32,-4
7630,2048,-152,168,-33,-31,-6
7635,2056,-136,160,-35,-31,-4
7640,2048,-136,168,-37,-29,-5
7645,2056,-136,176,-37,-29,-2
7650,2040,-136,160,-33,-28,-4
7655,2056,-152,160,-30,-27,-1
7660,2048,-152,136,-30,-26,-3
7665,2064,-136,168,-30,-24,0
7670,2072,-136,152,-29,-21,-4
7675,2040,-144,160,-28,-17,-2
7680,2056,-136,160,-27,-14,-3
7685,2048,-128,168,-28,-13,-2
7690,2080,-144,152,-26,-10,-5
7695,2040,-136,144,-26,-7,-3
7700,2040,-128,120,-27,-4,-4
7705,2048,-152,144,-28,-3,-3
7710,2056,-136,160,-31,0,-6
7715,2056,-152,184,-35,0,-5
7720,2056,-120,152,-39,-1,-7
7725,2048,-152,184,-43,-3,-7
7730,2032,-128,176,-45,-6,-8
7735,2064,-136,120,-44,-9,-6
7740,2056,-144,192,-42,-12,-6
7745,2064,-160,192,-34,-13,-3
7750,2072,-160,144,-29,-12,-6
7755,2048,-152,144,-28,-13,-4
7760,2048,-144,176,-28,-14,-9
7765,2056,-128,160,-31,-14,-8
7770,2080,-152,144,-36,-14,-13
7775,2096,-168,136,-38,-12,-13
7780,2080,-136,128,-39,-8,-16
7785,2072,-136,112,-36,-4,-15
7790,2080,-160,136,-32,-2,-15
7795,2088,-152,136,-27,0,-12
7800,2080,-120,112,-23,2,-14
7805,2080,-160,136,-22,5,-12
7810,2064,-120,160,-21,9,-15
7815,2080,-112,128,-23,13,-14
7820,2064,-136,144,-23,22,-15
7825,2080,-112,152,-22,29,-10
7830,2056,-112,144,-17,35,-9
7835,2072,-120,120,-12,38,-4
7840,2056,-128,136,-8,38,-5
7845,2040,-136,120,-4,39,-1
7850,2048,-128,120,-2,43,-3
7855,2048,-120,128,-4,47,1
7860,2048,-112,184,-6,48,-1
7865,2056,-136,144,-12,53,1
7870,2064,-120,176,-15,55,-1
7875,2048,-112,152,-20,53,0
7880,2056,-120,144,-24,50,-4
7885,2040,-136,160,-29,48,-2
7890,2072,-144,160,-33,43,-4
7895,2064,-160,144,-36,38,-3
7900,2056,-120,160,-41,33,-7
7905,2064,-160,144,-42,31,-7
7910,2064,-160,144,-43,27,-10
7915,2024,-152,152,-40,25,-7
7920,2048,-144,168,-33,23,-9
7925,2056,-160,160,-26,20,-6
7930,2064,-144,168,-18,18,-10
7935,2056,-128,144,-13,19,-9
7940,2048,-120,120,-7,20,-11
7945,2024,-104,144,-7,18,-8
7950,2056,-112,144,-9,16,-11
7955,2056,-128,112,-11,19,-8
7960,2040,-120,160,-14,22,-8
7965,2056,-120,144,-17,23,-6
7970,2056,-112,136,-20,24,-8
7975,2056,-128,128,-21,23,-6
7980,2048,-128,144,-24,22,-7
7985,2056,-128,152,-25,19,-4
7990,2056,-120,136,-26,16,-6
7995,2072,-144,160,-25,13,-4
8000,2064,-128,152,-23,9,-6
8005,2080,-136,136,-22,5,-3
8010,2064,-128,112,-21,2,-5
8015,2040,-120,136,-22,0,-4
8020,2048,-120,104,-22,-3,-8
8025,2064,-136,128,-22,-5,-7
8030,2056,-136,160,-23,-9,-8
8035,2072,-136,112,-20,-7,-7
8040,2056,-144,168,-20,-8,-7
8045,2064,-128,160,-22,-11,-6
8050,2072,-136,88,-24,-12,-8
8055,2080,-112,120,-23,-11,-6
8060,2072,-144,120,-24,-8,-7
8065,2080,-144,120,-24,-5,-5
8070,2048,-136,136,-22,-6,-7
8075,2056,-144,144,-23,-6,-6
8080,2048,-144,104,-25,-6,-8
8085,2032,-136,96,-27,-7,-8
8090,2072,-136,136,-25,-4,-9
8095,2064,-144,112,-22,-2,-8
8100,2072,-120,96,-22,0,-8
8105,2072,-144,96,-20,0,-6
8110,2080,-136,128,-18,2,-6
8115,2056,-136,136,-16,4,-5
8120,2064,-144,104,-15,5,-6
8125,2072,-120,112,-15,6,-6
8130,2080,-128,96,-16,7,-8
8135,2064,-144,128,-19,8,-8
8140,2048,-104,128,-26,5,-10
8145,2064,-136,160,-30,5,-8
8150,2040,-96,80,-30,8,-8
8155,2056,-136,96,-27,10,-5
8160,2056,-120,120,-24,11,-6
8165,2056,-112,128,-24,9,-4
8170,2080,-128,120,-22,8,-4
8175,2064,-128,120,-20,9,-4
8180,2048,-112,128,-19,9,-5
8185,2072,-136,88,-19,10,-4
8190,2064,-120,104,-20,12,-5
8195,2048,-128,96,-25,12,-5
8200,2072,-144,112,-26,14,-6
8205,2056,-128,80,-29,15,-6
8210,2072,-136,96,-27,17,-8
8215,2088,-152,88,-26,18,-7
8220,2064,-144,96,-25,20,-7
8225,2056,-104,80,-25,20,-8
8230,2072,-144,112,-24,23,-8
8235,2072,-152,72,-20,26,-5
8240,2072,-128,72,-17,29,-6
8245,2088,-136,88,-14,32,-5
8250,2048,-112,104,-14,38,-5
8255,2072,-128,88,-13,40,-4
8260,2088,-128,88,-12,45,-5
8265,2032,-104,96,-13,49,-3
8270,2056,-152,104,-13,55,-4
8275,2064,-112,112,-14,60,-3
8280,2072,-120,80,-13,65,-2
8285,2080,-144,104,-14,69,-2
8290,2040,-104,64,-14,73,0
8295,2080,-144,96,-14,78,0
8300,2056,-112,88,-16,79,2
8305,2080,-120,136,-18,81,1
8310,2080,-120,96,-20,82,4
8315,2072,-120,104,-20,84,4
8320,2080,-136,112,-21,84,4
8325,2072,-128,72,-20,79,4
8330,2056,-152,120,-18,77,3
8335,2072,-112,104,-19,75,2
8340,2056,-144,128,-20,72,2
8345,2144,-120,128,-21,72,0
8350,2144,-144,104,-23,69,0
8355,2072,-136,32,-22,68,-1
8360,2120,-120,24,-20,67,0
8365,2080,-128,80,-18,66,-1
8370,2072,-128,80,-13,67,0
8375,2072,-136,88,-11,66,0
8380,2072,-120,120,-8,66,2
8385,2088,-144,64,-6,68,4
8390,2064,-120,80,-6,68,3
8395,2056,-136,88,-10,71,2
8400,2080,-128,88,-14,74,2
8405,2072,-120,112,-16,78,2
8410,2080,-128,104,-20,80,2
8415,2064,-128,104,-21,81,2
8420,2064,-144,112,-21,82,4
8425,2048,-144,96,-15,81,6
8430,2072,-152,120,-7,79,7
8435,2048,-136,104,1,77,6
8440,2064,-152,88,5,77,5
8445,2088,-152,96,6,79,3
8450,2048,-144,88,4,84,0
8455,2056,-112,96,2,92,-2
8460,2056,-136,104,-2,100,0
8465,2048,-112,112,-8,107,0
8470,2072,-112,88,-10,112,4
8475,2048,-136,136,-8,115,5
8480,2096,-144,128,-3,116,9
8485,2056,-112,120,0,117,11
8490,2048,-128,128,3,117,14
8495,2048,-144,88,3,120,12
8500,2064,-136,96,0,122,12
8505,2072,-128,104,-6,125,9
8510,2080,-128,112,-11,125,8
8515,2056,-120,144,-15,126,7
8520,2080,-136,136,-15,126,9
8525,2072,-136,160,-14,122,7
8530,2064,-144,136,-14,116,8
8535,2088,-160,144,-14,112,6
8540,2072,-120,120,-16,110,7
8545,2072,-136,152,-17,108,5
8550,2048,-136,144,-17,107,6
8555,2072,-128,136,-16,107,3
8560,2064,-144,112,-14,107,6
8565,2056,-144,128,-11,107,4
8570,2048,-128,120,-5,106,5
8575,2072,-128,152,-4,105,2
8580,2056,-128,120,-3,107,4
8585,2064,-120,168,-2,109,1
8590,2064,-144,120,0,112,4
8595,2064,-120,120,1,116,1
8600,2056,-120,112,2,118,6
8605,2056,-144,96,2,121,5
8610,2048,-128,96,2,122,8
8615,2056,-152,120,0,123,6
8620,2048,-128,104,-1,122,9
8625,2064,-136,128,-2,122,7
8630,2064,-128,120,-4,120,11
8635,2064,-144,160,-3,120,8
8640,2048,-152,144,-5,117,10
8645,2072,-152,152,-4,115,7
8650,2072,-120,144,-4,115,10
8655,2080,-136,128,-4,114,8
8660,2048,-120,128,-4,115,11
8665,2072,-128,104,-2,114,9
8670,2064,-144,160,-2,114,12
8675,2072,-144,136,-2,115,10
8680,2056,-128,144,0,117,13
8685,2064,-136,136,0,118,11
8690,2080,-128,160,-2,121,14
8695,2064,-144,104,-3,124,12
8700,2072,-120,144,-4,127,13
8705,2048,-120,136,-5,130,12
8710,2056,-144,144,-4,131,15
8715,2064,-144,128,-5,133,14
8720,2056,-152,112,-4,134,17
8725,2056,-144,152,-5,134,13
8730,2064,-128,160,-7,135,17
8735,2072,-128,160,-6,135,15
8740,2072,-144,144,-8,134,19
8745,2064,-120,176,-12,132,15
8750,2072,-144,160,-16,128,17
8755,2056,-136,168,-19,125,14
8760,2056,-136,168,-20,124,15
8765,2064,-160,184,-21,121,13
8770,2056,-168,152,-22,118,14
8775,2040,-136,192,-22,115,11
8780,2072,-152,176,-22,114,11
8785,2056,-160,176,-20,114,7
8790,2088,-152,152,-18,112,8
8795,2048,-168,168,-19,111,5
8800,2056,-120,184,-19,107,6
8805,2056,-120,152,-17,105,3
8810,2064,-136,152,-17,99,5
8815,2048,-128,152,-15,97,3
8820,2064,-144,152,-14,94,4
8825,2048,-136,184,-15,91,2
8830,2064,-152,160,-15,91,3
8835,2032,-120,168,-17,90,-1
8840,2056,-144,168,-22,89,3
8845,2072,-128,184,-25,87,-2
8850,2040,-136,160,-29,85,0
8855,2040,-144,176,-32,83,-3
8860,2056,-136,184,-36,81,-1
8865,2040,-120,208,-40,79,-4
8870,2064,-120,128,-43,78,1
8875,2080,-104,192,-50,77,0
8880,2072,-112,152,-56,79,7
8885,2080,-120,112,-65,78,8
8890,2056,-96,144,-74,81,12
8895,2080,-120,128,-86,85,14
8900,2088,-120,120,-98,92,18
8905,2072,-104,136,-110,99,17
8910,2088,-136,120,-118,107,20
8915,2056,-144,88,-122,117,22
8920,2056,-152,112,-122,125,26
8925,2080,-168,128,-121,133,24
8930,2064,-176,152,-115,140,27
8935,2048,-168,136,-109,148,24
8940,2040,-144,120,-109,156,23
8945,2056,-176,176,-108,167,19
8950,2056,-144,200,-109,175,16
8955,2056,-168,208,-109,177,10
8960,2040,-136,208,-110,172,8
8965,2032,-160,192,-108,163,3
8970,2040,-152,208,-103,152,3
8975,2040,-152,240,-98,140,1
8980,2040,-184,256,-93,127,4
8985,2040,-160,256,-88,114,2
8990,2048,-176,208,-82,101,4
8995,2024,-152,208,-77,88,2
9000,2032,-152,232,-72,76,3
9005,2032,-160,200,-70,65,-1
9010,2056,-176,216,-68,58,-3
9015,2040,-168,224,-72,53,-7
9020,2032,-160,224,-75,48,-7
9025,2024,-136,192,-77,46,-11
9030,2000,-120,208,-77,45,-9
9035,2040,-152,176,-75,45,-11
9040,2056,-168,192,-69,46,-10
9045,2056,-160,192,-62,46,-9
9050,2040,-152,168,-53,49,-5
9055,2048,-160,160,-42,52,-6
9060,2032,-152,176,-35,58,-5
9065,2032,-128,168,-34,61,-6
9070,2040,-136,176,-35,65,-3
9075,2048,-152,168,-36,70,-4
9080,2056,-152,192,-38,77,-2
9085,2048,-152,184,-40,83,0
9090,2080,-136,176,-41,84,0
9095,2080,-136,168,-39,86,2
9100,2032,-144,152,-39,85,3
9105,2064,-160,160,-41,82,3
9110,2048,-144,192,-43,78,5
9115,2064,-152,184,-43,75,4
9120,2064,-144,160,-46,71,5
9125,2064,-168,176,-45,71,4
9130,2088,-152,200,-45,74,4
9135,2056,-152,160,-45,72,4
9140,2056,-168,208,-43,75,4
9145,2056,-152,192,-42,76,1
9150,2064,-168,160,-40,77,1
9155,2024,-136,184,-37,81,-2
9160,2040,-168,160,-35,84,-2
9165,2040,-136,168,-35,88,-5
9170,2072,-136,192,-39,90,-6
9175,2032,-152,200,-42,92,-6
9180,2056,-160,200,-48,93,-6
9185,2024,-136,208,-53,91,-6
9190,2032,-128,232,-56,91,-3
9195,2040,-136,192,-58,90,-4
9200,2040,-144,208,-58,87,-3
9205,2040,-152,184,-57,86,-3
9210,2048,-176,208,-52,86,-5
9215,2056,-176,192,-46,87,-5
9220,2048,-160,160,-41,88,-4
9225,2040,-152,160,-32,92,-6
9230,2024,-160,160,-24,95,-7
9235,2064,-160,184,-15,97,-10
9240,2040,-152,192,-6,101,-8
9245,2064,-152,200,1,105,-9
9250,2040,-160,192,7,108,-8
9255,2056,-144,184,8,109,-6
9260,2064,-136,200,8,110,-4
9265,2056,-120,200,4,112,-5
9270,2064,-120,208,-5,110,-4
9275,2064,-120,192,-15,107,-1
9280,2024,-128,208,-28,100,0
9285,2064,-152,216,-39,90,0
9290,2064,-152,192,-46,78,1
9295,2088,-176,224,-48,69,1
9300,2056,-168,216,-46,62,2
9305,2024,-144,224,-39,57,3
9310,2040,-160,208,-31,52,3
9315,2032,-160,192,-22,50,4
9320,2048,-184,176,-14,49,2
9325,2032,-152,224,-8,51,0
9330,2040,-168,176,-6,52,-1
9335,2024,-144,184,-6,53,-1
9340,2032,-160,152,-7,56,-4
9345,2048,-176,200,-8,58,-4
9350,2048,-160,184,-9,60,-5
9355,2056,-176,176,-10,60,-4
9360,2048,-136,192,-11,62,-5
9365,2056,-144,224,-12,62,-4
9370,2032,-144,192,-13,64,-5
9375,2048,-136,232,-17,62,-4
9380,2040,-136,192,-18,59,-5
9385,2032,-136,200,-20,53,-3
9390,2056,-152,224,-23,51,-4
9395,2056,-152,192,-26,46,-2
9400,2064,-160,200,-27,45,-3
9405,2072,-160,200,-28,44,-1
9410,2064,-176,192,-27,45,-2
9415,2040,-136,184,-25,47,-1
9420,2040,-160,176,-24,51,0
9425,2056,-152,160,-20,53,0
9430,2064,-160,200,-16,58,-1
9435,2064,-184,200,-10,63,0
9440,2040,-176,160,-3,69,0
9445,2040,-168,184,5,76,2
9450,2064,-176,184,13,83,0
9455,2072,-152,192,19,91,2
9460,2016,-136,184,24,99,2
9465,2024,-144,208,27,104,3
9470,2032,-136,184,30,108,2
9475,2072,-136,192,31,112,5
9480,2072,-176,192,33,113,3
9485,2032,-160,208,35,115,7
9490,2040,-144,176,36,117,6
9495,2040,-160,216,41,119,7
9500,2056,-168,192,42,121,6
9505,2048,-160,192,43,124,9
9510,2040,-176,216,43,126,7
9515,2032,-176,208,43,129,9
9520,2040,-136,200,43,129,7
9525,2056,-144,216,41,129,8
9530,2032,-136,224,37,129,6
9535,2048,-144,208,34,128,7
9540,2064,-168,232,30,127,4
9545,2032,-136,248,26,125,5
9550,2032,-152,216,23,120,2
9555,2048,-168,232,21,119,4
9560,2048,-160,192,20,116,3
9565,2048,-144,240,19,113,4
9570,2056,-176,208,18,110,3
9575,2048,-168,224,21,107,4
9580,2056,-160,208,22,104,3
9585,2048,-160,240,25,100,7
9590,2056,-144,216,26,100,5
9595,2040,-152,224,27,99,8
9600,2056,-160,216,26,98,6
9605,2080,-184,224,26,98,8
9610,2024,-128,224,25,99,5
9615,2056,-152,248,23,99,7
9620,2048,-160,240,23,98,4
9625,2064,-160,232,23,99,7
9630,2056,-128,208,21,99,5
9635,2024,-128,208,19,98,8
9640,2040,-176,256,16,95,6
9645,2024,-144,232,15,94,8
9650,2040,-104,200,14,95,6
9655,2048,-160,216,12,94,9
9660,2048,-168,232,11,92,7
9665,2056,-160,232,10,89,10
9670,2048,-136,248,11,88,7
9675,2056,-160,240,13,87,10
9680,2040,-168,216,15,85,6
9685,2064,-160,240,18,83,8
9690,2040,-168,224,19,83,4
9695,2024,-160,224,19,81,6
9700,2048,-160,224,17,79,2
9705,2032,-152,256,13,78,4
9710,2032,-152,224,8,78,1
9715,2032,-160,224,4,77,5
9720,2056,-136,208,0,76,3
9725,2056,-152,200,-2,73,6
9730,2040,-144,216,-3,70,3
9735,2024,-144,240,-4,68,6
9740,2064,-160,240,-3,67,2
9745,2040,-160,232,-4,67,4
9750,2064,-184,232,-3,67,1
9755,2056,-160,216,-4,66,3
9760,2040,-160,216,-4,67,0
9765,2056,-168,208,-6,67,2
9770,2024,-128,224,-4,70,-2
9775,2032,-136,216,-1,72,-1
9780,2032,-160,240,0,76,-2
9785,2056,-168,232,2,77,-1
9790,2040,-160,224,1,77,-3
9795,2040,-144,208,-1,74,1
9800,2048,-144,240,-4,73,-1
9805,2040,-144,264,-6,72,0
9810,2032,-168,224,-9,71,-2
9815,2056,-152,232,-10,73,1
9820,2040,-160,232,-8,72,-1
9825,2048,-160,224,-7,73,1
9830,2064,-160,232,-4,71,-3
9835,2048,-168,232,2,74,1
9840,2040,-176,248,6,73,-3
9845,2040,-168,224,11,75,-2
9850,2024,-184,232,16,78,-6
9855,2040,-152,232,16,81,-3
9860,2016,-136,232,16,84,-6
9865,2040,-176,240,15,88,-4
9870,2024,-160,264,13,91,-7
9875,2040,-144,264,11,93,-2
9880,2040,-144,208,9,93,-4
9885,2056,-144,216,8,92,0
9890,2040,-152,248,6,92,-1
9895,2032,-152,232,4,94,2
9900,2056,-160,224,1,96,0
9905,2056,-144,248,-1,95,1
9910,2040,-152,264,-3,94,-3
9915,2040,-168,272,-3,93,-2
9920,2064,-168,248,-2,91,-4
9925,2048,-152,256,-1,88,-2
9930,2048,-144,240,2,84,-6
9935,2056,-168,296,6,81,-3
9940,2048,-120,264,8,78,-5
9945,2024,-160,240,9,75,-3
9950,2016,-144,264,8,72,-3
9955,2040,-144,200,5,70,1
9960,2016,-152,248,3,67,-1
9965,2024,-128,224,-1,65,2
9970,2048,-152,248,-4,63,0
9975,2032,-144,232,-8,60,1
9980,2032,-160,216,-8,61,-1
9985,2040,-168,224,-9,61,2
9990,2032,-152,272,-8,61,0
9995,2024,-168,216,-7,61,1
10000,2032,-168,240,-5,61,0
10005,2024,-160,256,-4,61,1
10010,2040,-168,256,-2,60,-3
10015,2040,-160,256,-1,60,-1
10020,2040,-160,264,1,59,-2
10025,2016,-136,232,-1,58,0
10030,2048,-160,272,0,56,-1
10035,2040,-152,264,0,56,0
10040,2040,-144,240,-2,54,-1
10045,2040,-152,256,-4,53,2
10050,2032,-144,272,-5,51,0
10055,2032,-144,232,-6,51,2
10060,2024,-128,240,-7,49,1
10065,2024,-144,248,-6,49,2
10070,2032,-168,240,-6,48,1
10075,2040,-160,264,-7,46,1
10080,2024,-136,240,-8,42,0
10085,2032,-152,248,-6,42,3
10090,2040,-152,240,-7,41,1
10095,2064,-152,232,-7,43,3
10100,2048,-144,248,-10,43,2
10105,2032,-152,208,-13,43,2
10110,2048,-136,224,-15,41,2
10115,2040,-152,240,-14,42,2
10120,2056,-168,232,-12,42,1
10125,2024,-160,264,-7,42,2
10130,2056,-168,256,-4,41,2
10135,2040,-144,248,-1,40,2
10140,2040,-136,264,-2,43,-2
10145,2008,-144,256,-4,43,-1
10150,2032,-144,256,-5,44,-4
10155,2008,-168,240,-5,43,-2
10160,2040,-152,256,-9,39,-2
10165,2040,-168,240,-10,38,-1
10170,2056,-160,224,-9,37,-1
10175,2040,-144,240,-8,35,-1
10180,2048,-160,208,-5,36,-1
10185,2040,-168,264,-6,37,-3
10190,2056,-168,264,-5,39,-3
10195,2048,-168,232,-4,41,-3
10200,2040,-144,232,-6,43,-5
10205,2040,-160,264,-8,44,-4
10210,2032,-152,224,-8,44,-3
10215,2024,-152,232,-8,45,-4
10220,2032,-160,224,-8,43,-5
10225,2040,-160,224,-9,42,-4
10230,2040,-168,240,-10,39,-5
10235,2048,-136,240,-8,38,-3
10240,2064,-152,216,-8,37,-4
10245,2048,-128,200,-6,37,-4
10250,2056,-152,224,-6,37,-3
10255,2072,-128,224,-7,37,-2
10260,2048,-144,224,-5,37,-1
10265,2064,-152,256,-5,36,-2
10270,2064,-128,224,-4,38,-2
10275,2024,-152,232,-6,38,-1
10280,2040,-152,208,-4,40,0
10285,2048,-160,248,-5,41,0
10290,2040,-152,256,-5,40,1
10295,2040,-144,240,-7,39,1
10300,2032,-136,232,-8,38,3
10305,2040,-152,232,-11,37,3
10310,2040,-144,248,-12,35,2
10315,2048,-136,248,-15,33,1
10320,2024,-136,216,-18,29,1
10325,2016,-152,216,-20,27,1
10330,2032,-160,240,-21,24,2
10335,2056,-152,248,-21,20,2
10340,2024,-144,248,-21,16,3
10345,2040,-152,256,-19,14,1
10350,2056,-176,240,-17,12,1
10355,2056,-160,232,-14,8,-1
10360,2048,-152,224,-9,6,-1
10365,2048,-152,240,-7,3,-3
10370,2040,-160,232,-6,2,-3
10375,2000,-144,256,-8,0,-5
10380,2016,-160,224,-10,-2,-5
10385,2040,-152,232,-14,-3,-6
10390,2032,-144,248,-18,-6,-6
10395,2056,-168,264,-22,-8,-8
10400,2064,-184,232,-22,-10,-5
10405,2032,-160,208,-22,-14,-6
10410,2064,-160,232,-20,-18,-4
10415,2040,-128,200,-17,-22,-6
10420,2048,-144,208,-16,-25,-5
10425,2064,-160,216,-14,-27,-7
10430,2048,-152,192,-13,-28,-6
10435,2048,-192,216,-15,-28,-9
10440,2032,-152,200,-18,-29,-9
10445,2056,-176,232,-20,-28,-13
10450,2056,-152,216,-20,-29,-12
10455,2072,-160,192,-20,-27,-14
10460,2048,-144,200,-17,-27,-12
10465,2072,-160,184,-13,-28,-13
10470,2064,-144,208,-12,-30,-11
10475,2048,-152,208,-10,-34,-13
10480,2048,-144,192,-10,-36,-11
10485,2040,-136,184,-9,-36,-13
10490,2064,-152,200,-10,-34,-11
10495,2064,-152,160,-9,-27,-14
10500,2048,-136,152,-9,-23,-12
10505,2040,-152,208,-9,-18,-14
10510,2048,-144,176,-6,-17,-12
10515,2064,-144,216,-3,-13,-13
10520,2056,-136,184,0,-11,-12
10525,2040,-152,168,2,-8,-14
10530,2032,-152,192,0,-6,-11
10535,2040,-160,192,-2,-3,-12
10540,2040,-144,224,-8,1,-11
10545,2032,-152,192,-12,2,-12
10550,2064,-152,208,-16,3,-8
10555,2056,-144,200,-20,0,-10
10560,2056,-152,192,-22,-5,-6
10565,2032,-160,224,-23,-10,-10
10570,2040,-160,168,-25,-12,-8
10575,2032,-160,216,-26,-14,-12
10580,2048,-168,176,-27,-15,-13
10585,2056,-176,200,-25,-14,-15
10590,2048,-152,176,-26,-12,-15
10595,2064,-168,192,-22,-11,-20
10600,2048,-128,176,-16,-12,-18
10605,2048,-136,208,-10,-8,-22
10610,2064,-152,168,-4,-8,-20
10615,2056,-152,144,1,-7,-22
10620,2032,-120,136,7,-7,-19
10625,2048,-144,184,6,-6,-22
10630,2056,-128,168,3,-5,-18
10635,2040,-136,192,-1,-4,-19
10640,2024,-128,120,-4,-4,-15
10645,2056,-136,160,-8,-4,-16
10650,2064,-160,192,-11,-4,-12
10655,2048,-128,144,-15,-5,-13
10660,2048,-136,192,-15,-5,-9
10665,2048,-144,152,-16,-5,-12
10670,2056,-144,152,-17,-7,-9
10675,2056,-176,168,-13,-6,-9
10680,2056,-152,168,-12,-4,-7
10685,2064,-136,176,-11,-4,-11
10690,2056,-160,192,-10,-3,-9
10695,2040,-144,184,-10,-4,-10
10700,2048,-120,144,-11,-3,-10
10705,2040,-128,160,-10,-3,-12
10710,2040,-160,136,-11,-3,-10
10715,2064,-152,184,-14,-2,-12
10720,2064,-152,144,-13,-2,-9
10725,2056,-144,144,-13,-4,-12
10730,2056,-144,152,-15,-4,-9
10735,2056,-136,168,-16,-3,-11
10740,2056,-152,160,-16,-4,-9
10745,2040,-136,160,-15,-4,-11
10750,2072,-168,176,-15,-2,-8
10755,2048,-128,184,-15,-3,-11
10760,2048,-136,152,-15,-4,-10
10765,2048,-152,144,-16,-1,-13
10770,2064,-152,168,-16,0,-10
10775,2080,-136,160,-17,1,-11
10780,2072,-152,144,-18,1,-7
10785,2056,-136,176,-20,1,-11
10790,2072,-136,152,-21,-1,-6
10795,2072,-128,160,-20,-1,-8
10800,2048,-136,136,-20,0,-7
10805,2064,-120,176,-14,2,-10
10810,2064,-128,144,-10,3,-9
10815,2048,-160,152,-9,7,-11
10820,2048,-120,152,-9,9,-10
10825,2072,-144,152,-12,13,-13
10830,2040,-152,128,-14,14,-12
10835,2064,-120,160,-16,14,-13
10840,2056,-152,136,-17,16,-12
10845,2048,-128,152,-17,17,-13
10850,2064,-136,120,-16,19,-10
10855,2056,-144,160,-14,21,-12
10860,2064,-128,160,-13,23,-9
10865,2048,-160,120,-11,24,-13
10870,2056,-128,152,-11,26,-10
10875,2064,-144,152,-12,27,-13
10880,2064,-144,160,-14,25,-12
10885,2056,-120,136,-14,24,-15
10890,2072,-144,136,-16,22,-14
10895,2048,-136,136,-16,20,-15
10900,2032,-128,208,-17,15,-15
10905,2064,-120,168,-15,12,-15
10910,2048,-136,152,-14,11,-13
10915,2072,-144,144,-12,9,-14
10920,2056,-128,144,-11,6,-13
10925,2064,-144,136,-10,4,-14
10930,2048,-128,104,-9,4,-12
10935,2048,-144,160,-8,4,-15
10940,2064,-120,120,-9,6,-14
10945,2048,-128,144,-9,7,-15
10950,2056,-128,136,-9,6,-13
10955,2056,-120,96,-11,9,-15
10960,2048,-112,104,-12,11,-11
10965,2048,-144,144,-13,11,-14
10970,2056,-136,144,-12,13,-12
10975,2040,-120,120,-10,15,-10
10980,2056,-136,136,-11,15,-8
10985,2072,-136,104,-12,13,-9
10990,2072,-144,112,-11,13,-8
10995,2056,-128,120,-11,12,-9
11000,2056,-120,128,-11,13,-7
11005,2056,-136,120,-11,11,-7
11010,2072,-144,120,-12,11,-6
11015,2088,-144,104,-11,12,-8
11020,2040,-120,112,-9,15,-7
11025,2080,-136,120,-5,19,-8
11030,2072,-136,160,-2,21,-6
11035,2096,-152,112,-2,23,-6
11040,2048,-128,120,-2,25,-4
11045,2048,-136,112,-5,28,-5
11050,2056,-136,112,-4,29,-5
11055,2072,-120,112,-7,30,-7
11060,2032,-128,144,-10,31,-6
11065,2056,-128,168,-14,31,-5
11070,2056,-128,104,-19,31,-4
11075,2064,-128,128,-24,27,-5
11080,2072,-120,120,-23,26,-4
11085,2056,-144,112,-19,24,-3
11090,2064,-128,104,-18,24,-1
11095,2088,-152,136,-15,21,-3
11100,2080,-144,112,-14,23,-3
11105,2072,-176,136,-12,21,-4
11110,2056,-128,104,-10,24,-4
11115,2048,-136,88,-12,24,-6
11120,2048,-120,80,-13,25,-5
11125,2064,-120,112,-18,24,-7
11130,2080,-128,144,-21,23,-7
11135,2064,-136,104,-23,24,-6
11140,2096,-136,136,-20,25,-5
11145,2064,-144,96,-13,27,-5
11150,2088,-160,104,-4,29,-3
11155,2072,-144,96,0,33,-4
11160,2056,-136,112,3,41,-5
11165,2056,-104,112,3,50,-8
11170,2056,-112,120,0,58,-7
11175,2064,-120,80,-6,65,-6
11180,2080,-136,112,-8,72,-5
11185,2064,-112,80,-9,76,-2
11190,2088,-136,112,-6,77,-1
11195,2048,-128,112,-3,79,2
11200,2064,-128,120,2,79,3
11205,2056,-144,72,2,82,4
11210,2048,-128,104,-1,84,4
11215,2072,-152,112,-4,86,3
11220,2056,-120,128,-8,88,2
11225,2032,-144,104,-11,87,3
11230,2064,-136,96,-13,85,3
11235,2056,-128,112,-15,82,3
11240,2040,-128,120,-14,81,2
11245,2056,-136,112,-16,81,1
11250,2080,-128,104,-19,85,0
11255,2080,-160,80,-19,87,-2
11260,2056,-120,88,-20,93,-4
11265,2072,-128,120,-21,98,-4
11270,2072,-136,96,-20,101,-4
11275,2048,-144,88,-14,102,-4
11280,2064,-136,96,-9,102,-5
11285,2072,-136,104,-3,102,-4
11290,2048,-120,104,2,101,-2
11295,2080,-128,136,14,103,0
11300,2080,-160,144,21,107,2
11305,2080,-176,144,27,107,3
11310,2064,-128,128,28,106,3
11315,2080,-112,112,27,107,5
11320,2064,-136,128,29,108,6
11325,2056,-112,120,31,107,11
11330,2064,-136,136,31,102,12
11335,2088,-136,152,30,98,13
11340,2072,-136,128,30,97,13
11345,2080,-136,112,30,101,16
11350,2040,-104,168,30,106,16
11355,2064,-136,152,30,109,18
11360,2072,-136,144,27,109,17
11365,2048,-120,160,24,106,19
11370,2080,-128,136,23,105,19
11375,2040,-88,120,22,102,22
11380,2040,-64,152,21,98,23
11385,2048,-112,152,17,95,26
11390,2056,-128,144,11,90,29
11395,2048,-128,160,5,87,31
11400,2024,-96,184,-1,83,30
11405,2048,-144,184,-6,81,30
11410,2008,-152,152,-12,76,29
11415,2016,-136,168,-19,71,33
11420,2024,-136,160,-23,66,31
11425,2008,-152,176,-25,60,31
11430,2000,-144,160,-26,56,28
11435,2024,-160,120,-26,55,26
11440,2024,-136,152,-25,53,25
11445,2032,-152,168,-26,50,26
11450,2040,-152,128,-27,45,24
11455,2040,-144,120,-31,41,27
11460,2048,-160,128,-34,38,22
11465,2072,-160,144,-36,38,22
11470,2040,-168,128,-37,39,17
11475,2040,-144,128,-37,39,16
11480,2040,-144,136,-40,42,13
11485,2080,-160,136,-42,46,13
11490,2064,-136,144,-44,52,8
11495,2056,-144,120,-43,57,9
11500,2072,-152,112,-41,61,7
11505,2064,-144,144,-38,63,10
11510,2040,-144,120,-35,63,9
11515,2072,-136,128,-32,62,12
11520,2088,-152,104,-27,62,11
11525,2088,-136,112,-25,64,15
11530,2064,-136,128,-25,67,13
11535,2064,-152,112,-25,71,15
11540,2072,-144,96,-27,77,11
11545,2088,-144,128,-30,81,13
11550,2088,-160,128,-32,86,11
11555,2088,-168,128,-36,91,12
11560,2080,-192,128,-37,95,7
11565,2080,-144,136,-37,99,6
11570,2080,-160,136,-36,102,2
11575,2072,-144,120,-34,104,2
11580,2072,-136,112,-30,105,0
11585,2088,-152,128,-28,108,-1
11590,2072,-152,128,-26,113,-5
11595,2072,-136,144,-24,114,-3
11600,2072,-144,104,-24,116,-7
11605,2064,-160,136,-22,117,-4
11610,2064,-152,128,-22,117,-6
11615,2056,-120,136,-23,119,-5
11620,2032,-128,120,-23,121,-6
11625,2064,-144,144,-22,122,-3
11630,2072,-144,120,-19,123,-4
11635,2064,-152,136,-19,124,1
11640,2064,-136,120,-17,124,-1
11645,2056,-144,144,-16,125,3
11650,2072,-152,160,-17,125,2
11655,2056,-144,144,-18,125,4
11660,2064,-152,168,-19,125,1
11665,2072,-144,176,-20,126,3
11670,2056,-136,176,-21,126,3
11675,2072,-152,168,-23,130,6
11680,2056,-136,136,-27,130,6
11685,2064,-160,152,-30,131,10
11690,2056,-144,184,-32,129,10
11695,2048,-144,184,-33,125,13
11700,2056,-168,168,-35,121,10
11705,2048,-136,144,-37,116,13
11710,2064,-152,184,-40,112,11
11715,2056,-144,144,-44,107,14
11720,2056,-152,152,-47,101,10
11725,2040,-168,200,-48,94,11
11730,2048,-168,184,-49,88,7
11735,2048,-144,176,-47,83,6
11740,2016,-152,160,-46,80,4
11745,2040,-152,168,-46,80,5
11750,2056,-168,184,-46,81,2
11755,2016,-152,184,-46,84,4
11760,2040,-152,152,-46,88,2
11765,2040,-152,168,-42,86,7
11770,2048,-144,144,-39,85,6
11775,2048,-128,200,-33,81,9
11780,2040,-144,160,-29,74,7
11785,2056,-144,176,-25,68,8
11790,2008,-136,208,-23,65,4
11795,2040,-144,176,-24,59,4
11800,2016,-152,176,-24,57,1
11805,2040,-136,200,-24,56,1
11810,2008,-136,184,-26,57,-2
11815,2048,-160,192,-26,54,0
11820,2056,-128,200,-26,53,-2
11825,2056,-152,192,-21,52,-1
11830,2032,-160,192,-14,50,-2
11835,2056,-144,200,-11,45,2
11840,2032,-144,160,-7,40,3
11845,2064,-160,184,-3,34,9
11850,2056,-144,136,-2,31,9
11855,2064,-160,168,2,30,13
11860,2056,-136,176,4,30,13
11865,2072,-128,160,8,26,17
11870,2048,-168,200,9,25,16
11875,2064,-128,184,5,25,19
11880,2064,-144,152,3,25,16
11885,2056,-176,128,3,27,14
11890,2048,-168,152,3,31,9
11895,2048,-184,160,5,38,8
11900,2040,-152,144,4,47,4
11905,2016,-144,144,3,54,6
11910,2064,-128,136,3,61,6
11915,2056,-160,144,2,67,9
11920,2040,-128,168,4,70,9
11925,2064,-152,160,5,74,14
11930,2064,-160,136,6,78,16
11935,2080,-168,168,5,78,16
11940,2064,-160,160,3,77,14
11945,2072,-160,152,-2,77,16
11950,2064,-168,160,-9,76,13
11955,2056,-144,160,-13,76,12
11960,2040,-176,168,-18,72,6
11965,2048,-176,176,-22,73,6
11970,2064,-176,176,-22,73,0
11975,2056,-168,160,-21,74,1
11980,2048,-168,168,-19,73,-1
11985,2064,-152,160,-16,73,-1
11990,2024,-160,240,-15,74,-2
11995,2056,-152,144,-12,72,-1
12000,2120,-192,48,-12,72,-3
12005,2056,-200,216,-10,69,-1
12010,2240,-176,152,-11,67,-3
12015,2088,-168,136,-11,66,-1
12020,2048,-168,168,-10,66,-2
12025,2088,-168,168,-13,66,-3
12030,2064,-152,160,-14,68,-4
12035,2072,-152,136,-13,70,-5
12040,2064,-160,128,-14,74,-7
12045,2040,-144,176,-13,79,-6
12050,2096,-144,112,-12,84,-7
12055,2080,-192,152,-10,89,-6
12060,2056,-136,160,-10,91,-8
12065,2040,-152,168,-10,93,-7
12070,2072,-168,168,-9,96,-6
12075,2040,-128,144,-9,98,-6
12080,2064,-152,184,-10,100,-4
12085,2048,-152,184,-8,101,-2
12090,2048,-152,152,-8,102,-1
12095,2040,-144,152,-8,101,1
12100,2056,-152,168,-8,101,2
12105,2056,-144,184,-9,101,5
12110,2056,-160,160,-9,99,4
12115,2056,-144,160,-9,96,5
12120,2056,-168,184,-10,92,6
12125,2056,-152,200,-8,88,5
12130,2056,-184,184,-10,86,3
12135,2064,-144,168,-12,84,3
12140,2056,-160,160,-14,83,2
12145,2072,-152,176,-15,84,3
12150,2056,-152,176,-17,85,3
12155,2040,-152,160,-18,85,4
12160,2064,-152,176,-20,84,6
12165,2048,-144,176,-20,82,6
12170,2080,-160,200,-18,80,8
12175,2048,-152,176,-15,79,9
12180,2056,-160,192,-11,77,10
12185,2048,-176,192,-8,76,12
12190,2048,-160,216,-6,77,10
12195,2056,-152,176,-9,78,9
12200,2056,-160,184,-11,77,8
12205,2056,-152,192,-15,74,6
12210,2064,-160,184,-20,74,6
12215,2048,-160,192,-22,70,4
12220,2056,-152,176,-22,69,5
12225,2032,-160,168,-21,68,5
12230,2048,-160,192,-19,67,5
12235,2056,-160,184,-18,68,6
12240,2040,-176,176,-16,68,5
12245,2032,-152,176,-14,69,3
12250,2024,-168,184,-12,68,3
12255,2048,-176,160,-11,69,0
12260,2048,-160,184,-9,69,-1
12265,2064,-176,216,-9,69,-3
12270,2064,-168,192,-9,67,-4
12275,2040,-168,176,-11,66,-5
12280,2064,-168,216,-12,64,-4
12285,2024,-128,168,-13,65,-5
12290,2072,-176,176,-15,63,-5
12295,2032,-144,168,-16,63,-5
12300,2072,-168,176,-17,63,-4
12305,2032,-136,168,-19,60,-5
12310,2064,-152,176,-17,61,-2
12315,2040,-160,200,-15,61,-4
12320,2064,-160,152,-14,63,-2
12325,2064,-160,160,-12,65,-3
12330,2048,-160,168,-11,67,-4
12335,2080,-160,176,-10,71,-6
12340,2048,-168,192,-9,75,-5
12345,2048,-176,168,-7,76,-6
12350,2064,-160,184,-5,77,-4
12355,2064,-168,168,-2,79,-6
12360,2048,-176,208,-3,78,-5
12365,2024,-136,192,-2,78,-5
12370,2032,-136,152,-3,77,-2
12375,2056,-144,184,-5,78,-4
12380,2024,-144,184,-9,80,-1
12385,2056,-168,176,-13,82,-6
12390,2040,-160,168,-16,84,-4
12395,2048,-152,192,-17,84,-4
12400,2048,-184,184,-14,86,-1
12405,2040,-152,200,-11,90,0
12410,2064,-144,136,-9,90,3
12415,2048,-160,232,-7,91,2
12420,2048,-192,176,-3,92,4
12425,2048,-160,184,0,90,4
12430,2064,-168,160,3,88,4
12435,2048,-144,184,3,88,1
12440,2064,-160,176,1,88,3
12445,2072,-144,184,-2,89,1
12450,2064,-152,208,-5,89,2
12455,2072,-144,192,-8,91,1
12460,2056,-160,176,-10,91,4
12465,2040,-144,176,-11,91,3
12470,2048,-168,208,-12,89,6
12475,2056,-152,208,-12,89,6
12480,2064,-160,184,-11,86,9
12485,2064,-176,200,-12,84,5
12490,2040,-176,192,-11,82,6
12495,2048,-176,192,-12,82,3
12500,2064,-168,224,-13,80,5
12505,2048,-176,208,-14,79,3
12510,2048,-168,192,-15,78,4
12515,2056,-176,216,-15,74,-2
12520,2064,-168,224,-13,72,1
12525,2064,-192,200,-10,69,-3
12530,2064,-160,216,-8,64,-3
12535,2064,-160,216,-11,57,-8
12540,2040,-168,200,-14,52,-7
12545,2056,-168,192,-17,49,-10
12550,2032,-176,208,-21,47,-9
12555,2056,-176,200,-23,43,-12
12560,2056,-152,200,-25,44,-10
12565,2040,-160,200,-25,45,-12
12570,2056,-168,216,-22,44,-10
12575,2072,-176,192,-18,43,-12
12580,2048,-160,208,-11,42,-9
12585,2064,-176,200,-3,41,-10
12590,2048,-168,168,2,42,-8
12595,2056,-152,176,5,43,-11
12600,2040,-160,200,7,46,-9
12605,2040,-160,192,3,50,-12
12610,2056,-144,200,0,52,-9
12615,2048,-160,184,-4,54,-13
12620,2048,-144,200,-7,52,-10
12625,2040,-144,200,-11,50,-12
12630,2056,-144,208,-15,48,-10
12635,2048,-160,192,-21,46,-11
12640,2056,-152,176,-22,45,-8
12645,2040,-176,176,-25,43,-13
12650,2064,-176,176,-27,43,-10
12655,2056,-152,192,-25,42,-14
12660,2056,-160,192,-22,38,-12
12665,2064,-168,176,-18,36,-14
12670,2080,-160,200,-15,33,-13
12675,2040,-160,200,-11,30,-15
12680,2064,-136,200,-7,29,-11
12685,2048,-160,200,-6,25,-12
12690,2040,-152,160,-8,19,-10
12695,2032,-128,200,-9,18,-11
12700,2040,-128,200,-11,15,-8
12705,2040,-160,208,-12,15,-9
12710,2056,-168,200,-13,15,-6
12715,2040,-152,200,-14,15,-8
12720,2040,-152,208,-14,16,-6
12725,2040,-176,176,-12,17,-10
12730,2064,-168,200,-9,18,-5
12735,2064,-144,168,-8,18,-7
12740,2048,-152,184,-7,17,-5
12745,2056,-144,192,-8,14,-6
12750,2064,-152,168,-7,9,-3
12755,2032,-144,176,-4,8,-5
12760,2048,-168,168,0,7,-4
12765,2048,-152,176,1,5,-7
12770,2032,-144,176,4,3,-5
12775,2048,-152,144,7,8,-9
12780,2048,-160,136,10,13,-8
12785,2072,-176,152,15,17,-10
12790,2048,-144,152,17,24,-6
12795,2048,-176,168,22,33,-8
12800,2056,-136,168,24,43,-5
12805,2064,-144,136,26,55,-7
12810,2080,-168,128,25,65,-4
12815,2072,-144,136,24,74,-7
12820,2072,-136,160,22,80,-4
12825,2088,-168,160,19,84,-4
12830,2072,-104,168,14,85,-1
12835,2072,-120,160,9,86,-3
12840,2048,-136,192,7,83,0
12845,2048,-144,200,4,80,0
12850,2064,-136,200,3,76,4
12855,2064,-128,184,0,68,3
12860,2064,-192,176,1,59,5
12865,2064,-168,200,1,51,3
12870,2064,-160,176,4,43,5
12875,2032,-144,200,7,36,2
12880,2040,-168,176,11,34,1
12885,2032,-160,176,14,34,-1
12890,2040,-184,200,14,34,2
12895,2032,-160,184,19,36,0
12900,2056,-192,152,22,36,1
12905,2040,-168,168,25,39,-3
12910,2024,-144,176,26,41,-2
12915,2048,-152,184,29,44,-6
12920,2080,-192,168,28,44,-5
12925,2056,-152,160,27,45,-6
12930,2048,-128,152,24,46,-7
12935,2032,-152,168,23,46,-10
12940,2032,-136,184,20,45,-8
12945,2040,-128,200,16,44,-12
12950,2056,-136,160,12,43,-11
12955,2040,-136,160,8,43,-13
12960,2040,-144,192,6,43,-14
12965,2056,-144,168,4,45,-16
12970,2048,-152,184,4,45,-16
12975,2048,-144,184,2,45,-17
12980,2048,-168,184,1,44,-14
12985,2040,-144,208,-1,43,-14
12990,2072,-160,184,0,41,-11
12995,2032,-136,216,-1,40,-12
13000,2048,-160,176,0,36,-9
13005,2056,-160,168,3,34,-8
13010,2032,-120,184,5,33,-5
13015,2032,-128,224,7,32,-6
13020,2056,-160,200,5,30,-4
13025,2056,-152,200,6,33,-5
13030,2048,-160,200,6,31,-3
13035,2032,-136,176,4,29,-2
13040,2048,-160,176,2,29,-2
13045,2064,-160,184,0,28,-4
13050,2048,-136,184,-2,25,-3
13055,2064,-144,184,-2,25,-4
13060,2064,-160,160,-2,24,-4
13065,2056,-144,184,0,22,-5
13070,2064,-160,192,1,22,-4
13075,2064,-160,152,2,21,-6
13080,2064,-152,168,3,19,-7
13085,2040,-152,144,6,18,-5
13090,2064,-144,184,11,17,-3
13095,2064,-136,184,16,18,-3
13100,2040,-152,168,20,16,0
13105,2056,-160,176,24,17,0
13110,2072,-128,160,27,19,0
13115,2048,-128,168,30,23,1
13120,2056,-184,144,32,27,3
13125,2032,-128,136,30,31,2
13130,2016,-120,128,27,33,2
13135,2064,-160,152,26,38,4
13140,2064,-136,128,24,42,5
13145,2064,-168,120,23,47,7
13150,2072,-144,128,21,48,6
13155,2072,-152,144,24,52,5
13160,2072,-144,136,25,54,7
13165,2088,-160,152,24,52,8
13170,2072,-168,184,23,51,9
13175,2064,-152,136,21,49,9
13180,2064,-160,176,20,49,8
13185,2056,-160,152,21,53,7
13190,2016,-120,144,22,52,2
13195,2040,-144,160,20,55,0
13200,2056,-144,152,20,57,-1
13205,2064,-168,168,20,59,-1
13210,2048,-168,152,23,62,-1
13215,2080,-144,136,25,65,1
13220,2088,-160,176,30,67,0
13225,2064,-176,152,36,70,1
13230,2064,-160,120,40,74,1
13235,2056,-136,128,41,77,4
13240,2056,-144,136,43,79,2
13245,2072,-144,136,38,86,-1
13250,2056,-136,168,32,90,-4
13255,2040,-152,168,26,92,-4
13260,2048,-136,152,27,98,-2
13265,2040,-144,152,33,103,1
13270,2056,-168,152,37,106,3
13275,2048,-152,200,35,108,6
13280,2064,-136,144,33,109,6
13285,2024,-104,160,29,111,7
13290,2048,-160,160,24,114,8
13295,2056,-144,176,20,113,10
13300,2032,-144,184,20,113,9
13305,2032,-144,200,21,113,10
13310,2064,-160,168,22,111,9
13315,2048,-152,184,20,108,9
13320,2088,-160,192,18,105,8
13325,2064,-176,192,18,102,8
13330,2048,-152,224,17,97,3
13335,2048,-144,208,17,94,1
13340,2040,-144,184,14,94,-3
13345,2056,-144,200,12,94,-2
13350,2048,-120,176,8,94,-5
13355,2024,-128,176,5,92,-6
13360,2016,-144,200,3,93,-9
13365,2016,-144,200,1,93,-8
13370,2000,-144,192,1,91,-11
13375,2024,-128,176,1,89,-9
13380,2024,-136,192,1,89,-11
13385,2032,-160,176,2,90,-9
13390,2040,-136,152,3,92,-8
13395,2048,-128,192,4,94,-4
13400,2048,-136,184,5,93,-6
13405,2040,-104,176,2,94,-3
13410,2024,-128,176,1,94,-4
13415,2048,-136,192,0,94,-1
13420,2040,-128,176,-3,96,-3
13425,2064,-120,168,-6,97,0
13430,2056,-112,216,-10,98,-2
13435,2040,-136,176,-12,96,1
13440,2032,-120,176,-14,95,1
13445,2016,-128,224,-14,94,2
13450,2056,-144,216,-15,90,2
13455,2048,-160,176,-15,88,4
13460,2040,-136,232,-14,83,2
13465,2032,-144,208,-13,77,3
13470,2080,-168,192,-13,74,2
13475,2040,-152,168,-11,71,4
13480,2032,-144,192,-12,68,0
13485,2040,-144,200,-13,65,2
13490,2040,-144,168,-13,64,-1
13495,2040,-136,216,-13,65,1
13500,2040,-128,200,-17,67,-2
13505,2032,-136,184,-19,66,-1
13510,2040,-136,192,-22,67,-3
13515,2064,-152,168,-24,68,0
13520,2048,-160,208,-23,67,-3
13525,2064,-136,192,-25,65,0
13530,2056,-160,208,-24,63,-1
13535,2048,-160,208,-24,64,1
13540,2048,-152,184,-24,62,-2
13545,2056,-144,192,-22,60,1
13550,2064,-160,184,-20,61,-2
13555,2072,-152,176,-20,60,-1
13560,2064,-160,192,-20,61,-4
13565,2064,-136,168,-21,61,-4
13570,2056,-144,208,-20,62,-4
13575,2048,-144,200,-21,60,-2
13580,2048,-160,168,-24,60,-5
13585,2016,-144,184,-27,59,-3
13590,2040,-168,200,-27,59,-7
13595,2032,-152,200,-26,58,-7
13600,2040,-152,160,-28,57,-11
13605,2032,-144,208,-29,57,-12
13610,2064,-168,176,-30,57,-15
13615,2008,-152,200,-31,61,-15
13620,2032,-160,200,-32,60,-19
13625,2056,-184,160,-33,61,-16
13630,2032,-120,208,-33,63,-19
13635,2048,-152,168,-33,62,-17
13640,2040,-120,184,-33,62,-20
13645,2040,-144,176,-32,63,-18
13650,2056,-152,176,-32,65,-22
13655,2024,-144,176,-30,65,-20
13660,2056,-152,176,-28,68,-22
13665,2072,-144,208,-25,69,-20
13670,2104,-136,176,-23,73,-22
13675,2064,-128,152,-22,75,-20
13680,2072,-136,200,-22,79,-23
13685,2056,-136,160,-22,84,-19
13690,2072,-144,168,-22,88,-21
13695,2056,-136,192,-20,91,-19
13700,2056,-136,168,-23,94,-20
13705,2064,-136,168,-25,98,-18
13710,2048,-112,176,-26,100,-21
13715,2072,-136,160,-24,104,-19
13720,2064,-144,176,-24,107,-20
13725,2056,-136,200,-21,112,-16
13730,2048,-128,208,-20,115,-16
13735,2064,-112,176,-20,117,-11
13740,2056,-136,200,-19,117,-12
13745,2056,-112,208,-18,117,-8
13750,2056,-120,184,-17,117,-7
13755,2056,-128,192,-16,117,-3
13760,2048,-136,184,-15,115,-2
13765,2048,-128,200,-14,113,3
13770,2064,-128,184,-15,110,2
13775,2048,-144,216,-14,108,6
13780,2032,-144,216,-14,107,3
13785,2072,-120,184,-12,105,8
13790,2048,-144,200,-9,104,8
13795,2064,-152,208,-8,103,10
13800,2072,-152,192,-5,105,8
13805,2064,-128,216,-6,105,8
13810,2064,-136,200,-6,106,7
13815,2048,-136,208,-7,108,9
13820,2024,-128,240,-7,113,6
13825,2064,-160,216,-12,115,8
13830,2048,-144,216,-17,117,7
13835,2048,-128,192,-20,117,7
13840,2072,-152,208,-22,119,6
13845,2048,-160,224,-18,117,9
13850,2072,-168,224,-16,115,7
13855,2064,-160,208,-16,111,9
13860,2056,-144,224,-13,107,6
13865,2032,-160,184,-11,103,7
13870,2056,-160,248,-10,99,4
13875,2024,-168,216,-10,97,7
13880,2032,-144,232,-12,96,5
13885,2048,-152,200,-16,95,5
13890,2032,-168,232,-19,91,0
13895,2016,-168,232,-22,90,-2
13900,1976,-232,248,-19,86,-3
13905,2056,-184,216,-15,81,-3
13910,2040,-144,208,-7,80,-7
13915,2056,-168,216,-7,78,-8
13920,2040,-160,216,-10,80,-14
13925,2040,-136,192,-14,80,-14
13930,2048,-160,240,-20,77,-19
13935,2040,-136,224,-24,77,-19
13940,2048,-168,240,-24,76,-23
13945,2024,-120,240,-23,77,-22
13950,2024,-112,216,-22,78,-23
13955,2040,-144,232,-21,78,-21
13960,2048,-120,224,-19,79,-22
13965,2032,-120,216,-18,80,-17
13970,2048,-112,216,-15,81,-16
13975,2032,-112,200,-12,82,-13
13980,2040,-120,224,-10,84,-11
13985,2040,-128,216,-8,88,-6
13990,2056,-128,208,-6,92,-5
13995,2040,-128,224,-3,98,0
14000,2056,-144,240,-1,103,0
14005,2056,-136,224,1,108,4
14010,2072,-136,200,2,111,4
14015,2048,-128,216,0,115,6
14020,2056,-144,192,-1,121,5
14025,2064,-112,200,-7,123,5
14030,2064,-120,200,-9,129,4
14035,2072,-136,208,-13,134,3
14040,2056,-144,216,-15,141,1
14045,2056,-128,232,-19,145,0
14050,2072,-160,224,-22,148,-1
14055,2056,-176,280,-23,149,-2
14060,2064,-152,248,-25,147,-4
14065,2048,-120,264,-27,143,-2
14070,2048,-144,256,-27,135,-2
14075,2048,-128,264,-27,128,-1
14080,2056,-152,296,-27,119,-1
14085,2048,-144,264,-28,110,1
14090,2040,-136,256,-27,101,1
14095,2048,-136,224,-27,94,2
14100,2040,-120,272,-29,87,3
14105,2032,-136,256,-29,82,5
14110,2056,-152,264,-29,78,5
14115,2040,-160,224,-29,75,5
14120,2024,-160,264,-29,72,5
14125,2024,-144,248,-30,70,5
14130,2032,-136,264,-31,68,5
14135,2000,-136,256,-32,68,5
14140,2024,-136,264,-31,68,7
14145,2040,-120,248,-31,68,7
14150,2016,-128,264,-31,68,8
14155,2024,-136,248,-29,70,11
14160,2024,-152,264,-28,70,14
14165,2040,-160,232,-28,70,15
14170,2048,-152,272,-27,67,15
14175,2056,-152,256,-24,64,14
14180,2040,-160,232,-22,63,14
14185,2040,-152,248,-19,61,13
14190,2048,-136,240,-19,60,13
14195,2056,-136,232,-15,58,12
14200,2048,-136,232,-14,60,13
14205,2064,-144,232,-12,62,11
14210,2048,-144,200,-10,67,13
14215,2040,-160,208,-9,72,10
14220,2072,-144,240,-7,78,9
14225,2064,-144,208,-6,84,12
14230,2056,-136,216,-5,89,13
14235,2064,-112,208,0,93,16
14240,2064,-152,240,0,95,17
14245,2080,-160,240,1,96,18
14250,2056,-160,224,4,95,21
14255,2064,-144,224,8,95,20
14260,2072,-144,208,14,95,21
14265,2056,-160,200,17,98,19
14270,2056,-120,208,18,103,19
14275,2040,-144,256,14,109,17
14280,2056,-152,248,8,115,19
14285,2040,-168,248,2,121,19
14290,2040,-152,232,-4,124,20
14295,2032,-136,232,-7,123,18
14300,2024,-144,280,-9,120,19
14305,2032,-136,288,-10,117,16
14310,2040,-152,248,-11,114,16
14315,2040,-168,272,-11,112,12
14320,2016,-152,280,-15,110,10
14325,2024,-160,264,-17,107,7
14330,2040,-176,272,-20,105,6
14335,2024,-160,288,-24,102,2
14340,2024,-152,272,-26,99,1
14345,2016,-168,280,-28,95,-3
14350,2016,-168,296,-27,92,-3
14355,2008,-184,272,-25,86,-7
14360,2016,-152,288,-22,83,-6
14365,2008,-112,264,-17,77,-8
14370,2056,-176,232,-14,73,-7
14375,2048,-168,256,-12,69,-8
14380,2056,-152,280,-11,68,-6
14385,2040,-144,256,-11,65,-9
14390,2056,-152,248,-9,65,-6
14395,2048,-128,224,-9,65,-9
14400,2048,-176,248,-8,67,-6
14405,2064,-152,232,-8,71,-7
14410,2040,-144,256,-8,75,-6
14415,2040,-152,224,-6,76,-5
14420,2048,-152,232,-8,79,-2
14425,2032,-128,264,-8,82,-5
14430,2064,-160,272,-12,82,-4
14435,2040,-144,264,-17,85,-9
14440,2048,-152,256,-21,86,-7
14445,2032,-136,232,-19,88,-9
14450,2064,-168,272,-15,89,-7
14455,2040,-168,312,-12,91,-8
14460,2032,-136,296,-12,91,-5
14465,2016,-152,280,-10,92,-5
14470,2040,-144,264,-11,93,-1
14475,2048,-128,240,-10,92,-1
14480,2024,-136,280,-9,91,2
14485,2040,-152,280,-7,90,1
14490,2032,-152,272,-7,91,5
14495,2040,-136,280,-8,89,5
14500,2024,-128,296,-7,88,8
14505,2032,-136,272,-7,86,7
14510,2032,-136,296,-8,84,12
14515,2032,-152,304,-6,82,10
14520,2032,-136,272,-5,83,11
14525,2032,-152,312,-6,79,9
14530,2032,-160,280,-11,77,12
14535,2024,-152,272,-13,76,8
14540,2008,-144,280,-17,72,8
14545,2024,-160,296,-16,70,5
14550,2048,-144,280,-16,66,8
14555,2032,-168,312,-14,60,6
14560,2056,-144,272,-11,57,6
14565,2048,-168,288,-11,54,3
14570,2056,-128,272,-12,52,4
14575,2056,-152,240,-13,50,2
14580,2032,-152,280,-14,49,6
14585,2048,-152,288,-15,49,2
14590,2040,-152,264,-14,48,5
14595,2048,-160,240,-12,50,4
14600,2032,-160,232,-9,51,7
14605,2032,-152,232,-6,51,3
14610,2040,-144,264,0,55,7
14615,2056,-160,232,5,60,5
14620,2056,-144,232,9,66,6
14625,2056,-176,256,9,77,1
14630,2032,-144,232,5,86,1
14635,2016,-152,248,1,95,-4
14640,2008,-136,232,-2,103,-1
14645,2032,-144,248,-4,110,-4
14650,2032,-152,256,-6,114,0
14655,2040,-136,272,-8,116,-3
14660,2024,-144,288,-9,120,0
14665,2040,-160,272,-12,120,-2
14670,2016,-144,296,-10,120,1
14675,2024,-152,272,-11,117,0
14680,2016,-120,312,-9,115,4
14685,2008,-120,304,-12,114,0
14690,2032,-160,304,-15,111,4
14695,2016,-136,304,-18,108,3
14700,2040,-144,328,-21,106,6
14705,2008,-144,320,-26,101,2
14710,2008,-160,304,-27,95,4
14715,2016,-168,336,-27,88,0
14720,2016,-168,320,-27,81,0
14725,2008,-160,344,-27,74,-4
14730,2008,-152,296,-27,70,-3
14735,2024,-160,312,-27,66,-8
14740,2008,-144,288,-27,65,-8
14745,2032,-168,328,-30,61,-9
14750,1992,-144,312,-31,58,-8
14755,1992,-144,328,-32,55,-11
14760,2032,-176,336,-30,48,-9
14765,1992,-168,336,-29,41,-13
14770,2008,-168,344,-27,35,-11
14775,2016,-168,312,-26,30,-14
14780,2024,-152,296,-24,25,-13
14785,2024,-168,288,-23,22,-15
14790,2040,-160,304,-22,18,-13
14795,2032,-152,296,-20,16,-14
14800,2008,-168,296,-20,13,-13
14805,2032,-144,296,-20,11,-13
14810,2032,-144,256,-22,9,-9
14815,2032,-136,264,-21,5,-11
14820,2024,-136,280,-19,3,-9
14825,2048,-136,288,-18,1,-10
14830,2032,-144,256,-16,3,-6
14835,2040,-144,264,-14,5,-7
14840,2056,-144,256,-13,6,-4
14845,2040,-144,264,-11,10,-5
14850,2040,-152,256,-10,13,-3
14855,2048,-152,248,-10,16,-3
14860,2048,-152,264,-9,20,-3
14865,2056,-152,264,-8,23,-3
14870,2032,-152,256,-7,27,-1
14875,2056,-152,248,-5,29,-2
14880,2048,-136,264,-5,32,-2
14885,2040,-152,224,-4,36,-2
14890,2040,-144,264,-4,39,0
14895,2064,-152,264,-5,41,-1
14900,2056,-144,232,-7,43,2
14905,2048,-144,248,-6,42,3
14910,2032,-128,256,-8,40,5
14915,2056,-160,288,-7,39,5
14920,2056,-136,280,-8,37,6
14925,2056,-176,256,-9,34,5
14930,2048,-160,264,-10,33,5
14935,2072,-168,272,-11,28,4
14940,2056,-144,256,-13,23,6
14945,2056,-152,256,-14,18,7
14950,2040,-160,304,-13,12,8
14955,2040,-144,256,-11,10,7
14960,2056,-160,280,-9,5,8
14965,2032,-160,280,-4,1,7
14970,2024,-136,256,0,-7,8
14975,2032,-168,248,3,-10,6
14980,2040,-160,216,4,-4,5
14985,2048,-168,256,1,1,0
14990,2040,-168,232,-2,6,0
14995,2040,-144,224,-3,11,-2
