timestamp,accel_x,accel_y,accel_z,gyro_x,gyro_y,gyro_z
0,-136,-1992,376,31,69,-4
5,-128,-1992,352,33,67,-4
10,-136,-1984,352,32,64,-5
15,-112,-2016,368,32,63,-6
20,-104,-2024,352,29,64,-7
25,-128,-1992,360,26,67,-7
30,-128,-2024,360,23,68,-6
35,-112,-2024,360,21,71,-6
40,-136,-2000,392,21,70,-6
45,-128,-2000,320,20,71,-6
50,-112,-2008,344,20,73,-7
55,-120,-2000,376,20,72,-6
60,-144,-1976,392,22,71,-7
65,-120,-2000,368,20,71,-9
70,-136,-1992,344,20,72,-10
75,-144,-1992,376,17,72,-12
80,-112,-2016,352,17,69,-11
85,-136,-1984,360,16,70,-10
90,-40,-1992,400,14,70,-11
95,-128,-1984,352,14,68,-11
100,-152,-1984,392,15,69,-12
105,-112,-1984,384,15,67,-11
110,-120,-2000,384,15,68,-9
115,-128,-2000,392,16,65,-7
120,-112,-2016,376,17,64,-6
125,-112,-1992,384,16,64,-7
130,-112,-2008,384,17,63,-7
135,-128,-2016,400,15,62,-8
140,-120,-2016,400,13,62,-8
145,-152,-2000,376,11,61,-9
150,-112,-2008,368,8,60,-8
155,-144,-2000,376,3,59,-10
160,-120,-1992,408,-1,61,-10
165,-120,-1992,384,-4,62,-10
170,-96,-1984,376,-5,64,-10
175,-88,-2016,368,-9,63,-10
180,-96,-1992,376,-11,63,-10
185,-112,-1992,376,-11,65,-11
190,-112,-1992,384,-11,66,-9
195,-120,-1984,368,-11,65,-9
200,-120,-2008,376,-12,65,-8
205,-120,-1992,376,-15,64,-8
210,-96,-2008,384,-16,63,-9
215,-112,-1992,376,-17,61,-10
220,-104,-2040,384,-20,61,-9
225,-136,-2008,360,-23,61,-9
230,-104,-1984,376,-24,61,-8
235,-136,-2008,392,-27,60,-8
240,-112,-2000,384,-30,59,-7
245,-128,-2000,360,-32,59,-7
250,-112,-2008,392,-33,59,-9
255,-104,-2000,376,-36,59,-9
260,-104,-1992,376,-39,60,-10
265,-112,-1984,376,-42,62,-7
270,-88,-2000,384,-44,63,-8
275,-88,-1984,392,-46,63,-8
280,-120,-1984,376,-49,64,-7
285,-120,-1984,384,-51,64,-8
290,-120,-1992,368,-51,64,-9
295,-80,-1960,360,-52,63,-10
300,-96,-1984,360,-53,62,-9
305,-120,-2000,368,-56,61,-9
310,-104,-1984,360,-57,60,-9
315,-112,-2000,376,-59,59,-9
320,-120,-2008,376,-61,58,-9
325,-104,-2000,360,-65,58,-8
330,-96,-2016,384,-67,59,-8
335,-128,-1992,392,-71,58,-6
340,-104,-2000,360,-74,58,-8
345,-104,-2000,360,-76,59,-7
350,-128,-2008,360,-78,59,-5
355,-112,-2008,376,-80,59,-5
360,-112,-2016,376,-81,61,-6
365,-136,-1992,376,-83,62,-7
370,-128,-2000,360,-87,62,-9
375,-144,-2000,408,-90,62,-8
380,-120,-2016,384,-94,62,-9
385,-96,-2016,352,-99,63,-9
390,-96,-2008,360,-101,64,-10
395,-80,-2016,352,-103,65,-8
400,-96,-1992,352,-105,66,-5
405,-128,-1992,344,-106,68,-3
410,-120,-2024,352,-108,66,-1
415,-112,-1992,360,-110,63,-1
420,-120,-1992,376,-116,61,-1
425,-104,-1992,360,-123,58,0
430,-136,-1992,368,-130,58,0
435,-104,-1992,360,-139,59,-1
440,-120,-1992,368,-147,62,-2
445,-104,-2000,344,-152,67,-4
450,-104,-1984,360,-156,71,-2
455,-104,-2024,344,-155,73,0
460,-104,-2016,344,-152,77,2
465,-104,-2032,368,-146,78,3
470,-112,-2040,336,-137,80,3
475,-120,-2024,352,-125,82,3
480,-104,-2048,328,-118,82,5
485,-104,-2024,336,-111,79,4
490,-120,-2040,328,-108,79,5
495,-136,-2024,328,-107,75,5
500,-128,-2000,296,-106,73,7
505,-144,-2024,328,-105,73,8
510,-120,-2008,320,-102,72,6
515,-120,-2008,336,-97,72,5
520,-112,-2024,328,-88,70,4
525,-128,-1992,312,-82,68,0
530,-120,-1992,328,-76,69,-3
535,-120,-1992,344,-72,69,-7
540,-120,-2016,312,-71,71,-10
545,-120,-2016,336,-71,74,-12
550,-104,-1976,296,-73,78,-13
555,-104,-2016,344,-76,83,-14
560,-96,-2016,328,-80,85,-15
565,-96,-2032,320,-81,87,-15
570,-112,-2024,320,-82,89,-13
575,-112,-2040,296,-80,88,-10
580,-112,-2016,352,-76,86,-8
585,-104,-2008,328,-71,85,-6
590,-96,-2016,336,-66,83,-2
595,-112,-2008,320,-62,81,-1
600,-120,-2008,328,-60,82,0
605,-96,-2008,304,-59,78,3
610,-112,-2000,304,-61,77,3
615,-96,-2016,336,-63,75,3
620,-112,-1992,280,-65,74,3
625,-128,-1992,312,-68,73,5
630,-104,-1984,328,-70,73,5
635,-128,-1992,304,-72,72,4
640,-112,-1992,320,-71,70,5
645,-128,-1992,312,-71,70,5
650,-120,-1984,288,-69,71,4
655,-112,-2032,296,-67,71,6
660,-120,-2024,304,-66,71,8
665,-120,-2040,328,-66,73,6
670,-120,-2024,320,-69,73,7
675,-128,-2040,328,-72,75,7
680,-128,-2040,312,-75,76,6
685,-104,-2032,288,-79,77,6
690,-112,-2024,304,-81,76,9
695,-104,-2032,328,-83,76,8
700,-88,-2032,336,-82,76,9
705,-112,-2008,296,-80,74,10
710,-120,-2016,328,-76,71,9
715,-128,-2008,288,-71,67,9
720,-112,-2024,296,-66,66,8
725,-152,-1984,240,-63,63,7
730,-112,-2008,312,-62,64,6
735,-120,-2032,288,-63,64,8
740,-120,-2000,296,-66,64,8
745,-120,-2008,328,-68,66,7
750,-112,-2032,304,-71,67,8
755,-120,-2032,312,-73,68,7
760,-136,-2008,304,-75,69,6
765,-128,-2032,320,-74,68,5
770,-96,-2032,272,-73,70,4
775,-96,-2008,280,-72,70,5
780,-104,-2008,272,-69,68,3
785,-104,-2024,336,-66,67,3
790,-112,-2032,296,-65,66,3
795,-112,-2008,280,-63,67,2
800,-128,-2008,280,-62,66,3
805,-136,-2008,320,-62,67,5
810,-128,-2016,280,-61,68,4
815,-112,-2024,288,-60,69,5
820,-104,-2032,304,-59,67,5
825,-128,-2032,312,-58,65,5
830,-88,-2008,288,-57,66,5
835,-104,-2008,280,-54,66,5
840,-112,-2048,320,-55,68,5
845,-120,-2008,288,-54,67,5
850,-120,-2024,288,-52,67,6
855,-128,-2008,296,-52,68,5
860,-128,-2024,296,-52,68,5
865,-136,-2024,272,-52,69,4
870,-136,-2008,272,-54,71,5
875,-120,-2032,288,-55,70,7
880,-120,-2000,304,-55,70,6
885,-128,-2024,288,-57,69,6
890,-152,-2032,248,-56,69,5
895,-112,-2008,304,-57,68,4
900,-128,-2008,288,-57,70,3
905,-112,-2008,288,-58,70,3
910,-120,-2000,272,-59,69,4
915,-120,-2024,280,-59,71,5
920,-128,-2008,264,-63,71,3
925,-112,-2024,256,-62,71,3
930,-136,-2040,248,-63,73,3
935,-144,-2008,288,-62,72,3
940,-128,-2032,272,-62,72,5
945,-112,-2024,264,-63,71,4
950,-120,-2008,264,-63,70,5
955,-112,-2016,256,-64,69,6
960,-112,-2032,288,-63,69,7
965,-120,-2032,240,-64,69,6
970,-96,-2024,256,-63,70,6
975,-136,-2008,272,-63,71,5
980,-128,-2016,264,-60,70,4
985,-152,-2016,272,-58,71,3
990,-136,-2024,272,-55,71,1
995,-136,-2016,264,-54,71,0
1000,-120,-2032,240,-52,71,-1
1005,-112,-2024,264,-51,73,-1
1010,-120,-2016,264,-52,72,0
1015,-136,-2032,248,-52,72,0
1020,-128,-2016,288,-54,72,-1
1025,-152,-2008,256,-56,72,2
1030,-136,-1992,288,-54,71,3
1035,-144,-2000,256,-51,71,4
1040,-120,-2000,264,-50,70,4
1045,-112,-2024,288,-48,69,5
1050,-144,-1992,280,-45,67,4
1055,-168,-2008,264,-44,66,4
1060,-128,-2000,280,-43,66,3
1065,-128,-2024,264,-43,66,3
1070,-112,-2008,280,-44,68,4
1075,-136,-2008,248,-46,69,4
1080,-120,-2056,280,-48,68,6
1085,-128,-2008,272,-52,69,5
1090,-120,-2016,264,-51,71,7
1095,-112,-2016,296,-53,70,8
1100,-120,-2040,264,-53,69,9
1105,-136,-2016,232,-54,67,9
1110,-144,-2000,264,-55,68,9
1115,-144,-2000,272,-55,71,9
1120,-120,-2000,272,-54,72,6
1125,-120,-2016,256,-54,74,5
1130,-120,-2016,240,-49,77,2
1135,-128,-2016,232,-45,80,1
1140,-128,-2008,248,-42,82,0
1145,-136,-2032,248,-40,85,2
1150,-144,-2016,248,-39,86,3
1155,-128,-2024,248,-36,86,4
1160,-136,-2016,264,-35,87,5
1165,-104,-2072,256,-35,86,6
1170,-136,-2048,256,-34,82,6
1175,-152,-2056,224,-36,79,7
1180,-136,-2040,256,-40,72,8
1185,-136,-2048,264,-41,69,8
1190,-128,-2040,256,-45,65,8
1195,-128,-2032,256,-47,63,6
1200,-120,-2048,224,-47,62,4
1205,-128,-2032,256,-43,62,3
1210,-144,-2016,240,-37,62,2
1215,-112,-2016,248,-27,61,0
1220,-128,-2008,200,-19,63,-3
1225,-144,-2008,216,-14,65,-4
1230,-128,-2008,240,-12,67,-5
1235,-128,-2016,264,-14,70,-5
1240,-128,-2008,280,-18,72,-6
1245,-152,-2016,256,-21,73,-5
1250,-120,-2040,248,-23,74,-4
1255,-120,-2016,248,-25,73,-4
1260,-104,-2040,264,-22,72,-2
1265,-112,-2024,288,-20,69,0
1270,-112,-2048,264,-15,68,0
1275,-144,-2024,240,-10,66,-1
1280,-128,-2008,232,-7,63,-1
1285,-112,-2016,240,-4,60,-1
1290,-128,-2016,256,-1,59,1
1295,-136,-2000,232,2,61,1
1300,-112,-2008,264,3,59,0
1305,-128,-2000,232,5,61,0
1310,-104,-2000,264,6,62,0
1315,-128,-2000,248,6,62,-1
1320,-128,-2000,248,5,61,-1
1325,-112,-1992,248,7,62,0
1330,-112,-2008,256,6,64,2
1335,-112,-2016,224,5,66,3
1340,-152,-2016,232,6,67,3
1345,-120,-2040,248,7,69,4
1350,-128,-2024,272,6,69,4
1355,-120,-2032,272,6,67,3
1360,-120,-2032,256,6,68,3
1365,-120,-2000,256,8,69,3
1370,-136,-2024,256,10,69,3
1375,-136,-2024,232,13,69,3
1380,-120,-2024,248,12,71,5
1385,-184,-1992,184,11,73,3
1390,-120,-1992,248,9,74,4
1395,-112,-2040,264,8,73,6
1400,-136,-2008,240,8,73,6
1405,-136,-2032,264,10,71,7
1410,-144,-2000,248,12,68,5
1415,-120,-2016,248,13,67,4
1420,-120,-2032,264,12,66,3
1425,-120,-2024,272,11,66,4
1430,-96,-2024,256,11,66,5
1435,-88,-2024,224,7,67,4
1440,-144,-2040,272,6,67,4
1445,-112,-2040,248,6,68,5
1450,-144,-2008,256,7,69,6
1455,-136,-2024,256,8,69,7
1460,-136,-2008,256,7,69,7
1465,-120,-2000,240,9,70,7
1470,-152,-2024,256,10,69,6
1475,-128,-2024,240,12,68,5
1480,-112,-2016,256,12,67,4
1485,-104,-2008,272,14,66,3
1490,-136,-2024,256,15,66,2
1495,-112,-2024,240,15,68,1
1500,-136,-2000,288,15,67,2
1505,-128,-2016,240,14,67,1
1510,-112,-2024,288,15,68,1
1515,-136,-2024,240,17,67,2
1520,-128,-2016,288,18,66,3
1525,-128,-2000,264,19,66,4
1530,-128,-2032,264,22,66,5
1535,-128,-2008,264,23,68,4
1540,-144,-2008,256,24,66,5
1545,-136,-2016,280,24,67,5
1550,-144,-2000,280,26,67,5
1555,-112,-2040,280,27,66,7
1560,-160,-1992,256,28,65,6
1565,-128,-2016,264,30,63,7
1570,-128,-2016,256,31,64,7
1575,-120,-2000,288,30,63,6
1580,-168,-2008,272,29,63,8
1585,-152,-2016,280,29,63,7
1590,-152,-2016,240,29,64,8
1595,-144,-2024,256,29,63,9
1600,-144,-2024,264,28,63,9
1605,-152,-2008,272,29,63,11
1610,-144,-2040,272,29,64,12
1615,-144,-2008,248,28,64,12
1620,-128,-2032,232,29,63,12
1625,-160,-2032,256,28,62,12
1630,-136,-2016,280,27,64,12
1635,-128,-2024,272,26,62,10
1640,-128,-2000,248,27,63,9
1645,-128,-2008,280,26,63,7
1650,-152,-2008,256,27,61,5
1655,-136,-2016,288,29,61,4
1660,-136,-2008,272,29,62,3
1665,-112,-1992,288,31,64,3
1670,-120,-2000,256,31,65,1
1675,-136,-2016,280,31,64,0
1680,-144,-2016,272,29,66,0
1685,-136,-2024,288,26,65,1
1690,-128,-2016,312,25,63,0
1695,-128,-2024,296,22,63,0
1700,-128,-2040,280,20,62,1
1705,-144,-2024,272,19,61,2
1710,-176,-2072,304,18,59,1
1715,-136,-2000,288,20,58,1
1720,-128,-2024,296,19,59,0
1725,-152,-1992,272,21,59,-3
1730,-112,-2008,288,24,60,-3
1735,-120,-2024,288,25,60,-4
1740,-128,-2032,304,29,61,-4
1745,-120,-2016,280,27,65,-4
1750,-144,-2024,296,27,66,-3
1755,-152,-2040,272,27,67,-2
1760,-144,-2016,272,28,65,-1
1765,-128,-2000,288,29,63,0
1770,-120,-2016,280,29,61,0
1775,-112,-2000,296,28,60,-1
1780,-136,-2016,272,26,59,-2
1785,-144,-2008,280,22,61,-3
1790,-144,-2008,320,22,63,-4
1795,-128,-2008,304,20,66,-6
1800,-136,-2008,296,19,68,-6
1805,-136,-2008,296,20,71,-5
1810,-104,-2024,296,24,74,-5
1815,-136,-2016,288,26,75,-3
1820,-128,-2000,304,30,76,-4
1825,-128,-2048,288,35,77,-5
1830,-120,-2048,312,40,76,-4
1835,-120,-2056,296,44,76,-4
1840,-120,-2032,296,44,73,-2
1845,-128,-2032,304,44,71,-2
1850,-152,-2000,304,39,68,0
1855,-144,-2016,312,35,67,-1
1860,-128,-2016,312,31,67,-1
1865,-152,-2008,304,28,64,-1
1870,-128,-2000,280,27,64,0
1875,-120,-2016,312,29,65,-2
1880,-120,-2000,296,32,66,-3
1885,-120,-2000,312,36,66,-5
1890,-128,-2008,304,42,67,-7
1895,-144,-2000,304,44,68,-11
1900,-160,-2000,304,46,70,-13
1905,-128,-2008,296,45,70,-13
1910,-136,-2000,328,43,70,-14
1915,-136,-2000,312,39,70,-13
1920,-136,-2024,296,35,71,-11
1925,-152,-2016,304,33,71,-13
1930,-104,-2016,312,32,68,-11
1935,-128,-2016,336,32,67,-11
1940,-128,-2024,288,34,66,-10
1945,-120,-2024,312,38,64,-9
1950,-112,-2008,328,41,62,-7
1955,-136,-2000,296,44,63,-7
1960,-128,-2016,304,44,62,-6
1965,-120,-2008,288,43,62,-5
1970,-128,-2008,296,43,63,-6
1975,-136,-2016,320,42,64,-6
1980,-144,-1968,304,42,64,-4
1985,-152,-2008,288,42,65,-6
1990,-136,-2000,312,43,65,-8
1995,-128,-1992,312,44,64,-8
2000,-136,-1992,304,45,64,-8
2005,-136,-2000,304,45,65,-8
2010,-128,-2008,312,45,64,-6
2015,-120,-2008,320,42,66,-6
2020,-128,-2016,344,40,66,-5
2025,-128,-2008,304,37,64,-6
2030,-112,-2024,304,36,65,-5
2035,-152,-1984,312,35,66,-6
2040,-128,-2024,320,34,65,-5
2045,-112,-2032,304,31,66,-5
2050,-160,-1992,312,28,67,-3
2055,-136,-2000,320,23,67,-3
2060,-120,-1992,320,18,67,-3
2065,-104,-2016,336,16,66,-2
2070,-136,-2000,320,15,63,-1
2075,-152,-1992,320,14,64,-1
2080,-136,-2008,312,15,62,-1
2085,-136,-2024,312,15,62,-2
2090,-128,-2048,312,16,61,-1
2095,-152,-2024,320,18,61,-2
2100,-120,-2048,328,19,62,-3
2105,-152,-1992,336,21,61,-2
2110,-136,-2032,336,22,63,-3
2115,-136,-1992,296,23,62,-3
2120,-128,-2016,328,23,64,-2
2125,-128,-2000,304,24,64,-3
2130,-128,-2032,320,24,65,-3
2135,-128,-2008,344,24,64,-4
2140,-104,-1992,336,27,64,-5
2145,-152,-2016,320,28,65,-6
2150,-144,-2000,312,29,64,-7
2155,-144,-1968,312,28,64,-9
2160,-144,-2000,320,28,63,-10
2165,-120,-1992,336,27,62,-10
2170,-136,-2008,304,27,62,-11
2175,-112,-2016,328,29,62,-13
2180,-128,-2008,328,28,61,-13
2185,-136,-1992,328,29,61,-12
2190,-104,-2008,336,31,60,-10
2195,-128,-2008,352,34,61,-11
2200,-136,-2008,336,36,62,-11
2205,-120,-2008,336,36,62,-9
2210,-152,-2000,336,36,64,-8
2215,-144,-2000,344,38,65,-8
2220,-144,-2016,320,37,65,-9
2225,-120,-2000,352,38,66,-8
2230,-120,-2000,336,35,68,-9
2235,-136,-1992,336,34,68,-9
2240,-136,-2000,352,31,68,-8
2245,-136,-2008,344,31,68,-7
2250,-128,-2000,352,31,69,-5
2255,-144,-2000,304,28,68,-6
2260,-120,-2024,328,29,69,-4
2265,-104,-2000,352,30,70,-4
2270,-120,-2008,344,29,70,-3
2275,-104,-2024,344,29,69,-4
2280,-112,-2016,344,31,68,-4
2285,-128,-2008,368,29,70,-4
2290,-144,-2024,352,29,71,-4
2295,-144,-2024,344,28,70,-6
2300,-120,-2016,344,28,71,-6
2305,-136,-2000,376,29,71,-6
2310,-136,-2008,352,29,72,-6
2315,-112,-2008,352,30,73,-7
2320,-144,-2000,352,30,74,-6
2325,-128,-1992,336,30,75,-6
2330,-152,-1992,336,30,75,-5
2335,-112,-2000,360,30,72,-5
2340,-128,-2000,336,29,71,-6
2345,-112,-2008,352,27,70,-4
2350,-112,-1992,344,24,70,-3
2355,-120,-2016,352,22,70,-3
2360,-136,-2000,368,21,69,-4
2365,-120,-1976,344,20,66,-5
2370,-104,-2008,352,21,67,-3
2375,-120,-2000,352,22,66,-2
2380,-128,-2008,368,23,66,-3
2385,-136,-2008,352,24,65,-3
2390,-136,-2024,344,25,66,-5
2395,-136,-2008,344,26,65,-5
2400,-128,-1992,352,26,66,-6
2405,-152,-1992,352,26,67,-5
2410,-120,-2016,360,24,67,-5
2415,-152,-1992,352,23,67,-4
2420,-120,-2000,344,22,66,-5
2425,-136,-1992,376,19,67,-6
2430,-128,-2008,352,17,67,-5
2435,-136,-1992,344,15,67,-6
2440,-136,-2000,352,14,67,-6
2445,-120,-2000,368,15,68,-6
2450,-128,-2008,368,18,69,-7
2455,-136,-2032,344,21,69,-7
2460,-144,-2000,344,22,69,-7
2465,-152,-1984,352,25,67,-9
2470,-128,-2008,352,25,66,-9
2475,-88,-2064,336,25,65,-10
2480,-128,-2016,344,26,65,-11
2485,-136,-2016,328,25,67,-9
2490,-128,-1992,344,26,68,-8
2495,-136,-2000,360,27,67,-10
2500,-120,-1984,352,27,68,-9
2505,-120,-2000,368,27,67,-8
2510,-136,-2000,352,24,65,-7
2515,-112,-1984,352,20,64,-7
2520,-152,-1984,352,16,63,-7
2525,-136,-2000,368,12,62,-9
2530,-104,-2000,360,7,65,-12
2535,-112,-1984,376,1,66,-12
2540,-96,-2008,384,-1,67,-11
2545,-112,-2000,368,-2,68,-11
2550,-128,-2000,400,-3,69,-12
2555,-128,-2016,360,-1,72,-10
2560,-112,-2032,360,3,74,-10
2565,-104,-2032,352,7,73,-9
2570,-136,-2048,352,11,74,-8
2575,-144,-2032,360,15,74,-7
2580,-152,-2016,352,16,73,-8
2585,-144,-2024,336,16,72,-8
2590,-128,-2024,336,17,73,-8
2595,-128,-2008,352,20,75,-7
2600,-120,-2008,352,23,76,-6
2605,-128,-2008,344,27,79,-8
2610,-128,-1992,352,32,79,-10
2615,-104,-2008,344,37,81,-11
2620,-128,-2008,368,41,81,-10
2625,-96,-2000,368,43,80,-11
2630,-120,-1984,360,45,81,-13
2635,-128,-1984,368,45,80,-14
2640,-120,-1984,360,42,78,-13
2645,-112,-2000,376,35,75,-13
2650,-128,-2016,368,30,74,-14
2655,-112,-2016,352,24,73,-13
2660,-112,-2008,384,23,70,-12
2665,-144,-1976,344,21,68,-11
2670,-120,-2016,368,25,67,-12
2675,-128,-2024,376,31,64,-11
2680,-120,-1984,376,36,65,-10
2685,-120,-2000,368,43,65,-10
2690,-112,-2000,344,47,67,-11
2695,-80,-2008,376,50,67,-10
2700,-120,-2000,376,49,68,-10
2705,-128,-1984,376,50,69,-10
2710,-112,-2000,376,51,70,-11
2715,-120,-2000,392,49,72,-10
2720,-120,-1984,400,46,72,-10
2725,-152,-1984,368,44,71,-10
2730,-104,-1984,376,42,71,-12
2735,-144,-1992,344,40,72,-11
2740,-112,-1992,360,40,72,-9
2745,-136,-2024,328,40,71,-10
2750,-96,-2008,384,41,71,-9
2755,-104,-2000,344,42,72,-10
2760,-104,-2008,376,43,72,-9
2765,-112,-1992,352,45,73,-9
2770,-120,-1984,368,45,73,-9
2775,-120,-2008,368,46,73,-9
2780,-152,-1984,344,47,73,-9
2785,-120,-1992,352,45,74,-9
2790,-120,-2008,368,43,72,-8
2795,-112,-1984,376,40,72,-7
2800,-128,-2008,360,36,72,-6
2805,-128,-2008,392,35,71,-5
2810,-128,-2008,384,34,69,-5
2815,-136,-1984,368,34,67,-4
2820,-136,-2016,416,34,65,-3
2825,-144,-1992,392,35,63,-5
2830,-136,-1984,400,36,62,-6
2835,-104,-2000,368,37,64,-9
2840,-112,-2000,368,36,66,-10
2845,-144,-1992,384,34,69,-11
2850,-112,-1976,416,34,70,-11
2855,-112,-1992,384,34,72,-13
2860,-104,-2000,408,31,73,-12
2865,-120,-2000,392,30,73,-12
2870,-112,-2000,416,29,72,-14
2875,-112,-2000,392,29,74,-15
2880,-112,-2000,360,29,75,-15
2885,-128,-2000,376,30,73,-15
2890,-88,-2000,376,28,73,-16
2895,-96,-1992,400,27,72,-16
2900,-112,-1984,408,25,72,-15
2905,-128,-1984,424,23,70,-14
2910,-120,-1984,456,19,69,-14
2915,-104,-2008,392,18,67,-13
2920,-128,-1984,392,18,67,-15
2925,-112,-2000,400,19,66,-13
2930,-88,-1992,376,20,67,-13
2935,-120,-1992,392,23,66,-13
2940,-128,-1984,400,24,67,-13
2945,-96,-2024,432,26,68,-11
2950,-112,-1992,408,26,67,-11
2955,-120,-1992,432,26,68,-10
2960,-112,-1984,392,26,67,-9
2965,-152,-1992,440,24,68,-9
2970,-104,-2008,400,22,68,-8
2975,-96,-2008,400,19,68,-6
2980,-128,-1984,384,16,69,-8
2985,-120,-2008,392,13,71,-7
2990,-112,-2000,392,9,72,-7
2995,-136,-1992,424,6,74,-8
3000,-128,-1992,416,2,73,-8
3005,-104,-1984,408,0,73,-8
3010,-112,-1984,416,-3,75,-8
3015,-104,-2000,408,-4,75,-8
3020,-104,-1976,456,-5,73,-6
3025,-120,-1992,424,-5,72,-5
3030,-128,-1992,376,-6,71,-5
3035,-104,-1992,408,-7,71,-3
3040,-128,-1992,416,-10,68,-2
3045,-120,-2000,440,-10,66,-1
3050,-104,-1992,400,-10,65,-2
3055,-128,-1984,416,-11,65,-2
3060,-136,-2008,424,-13,63,-3
3065,-144,-1984,392,-12,63,-4
3070,-128,-2000,392,-14,62,-4
3075,-88,-2000,424,-16,64,-5
3080,-104,-1984,376,-18,66,-5
3085,-128,-2000,400,-20,68,-5
3090,-112,-1992,416,-22,69,-5
3095,-112,-1992,384,-24,71,-6
3100,-104,-1984,384,-27,70,-6
3105,-104,-2000,416,-28,69,-5
3110,-136,-1992,384,-31,70,-5
3115,-120,-1984,392,-33,69,-4
3120,-104,-1992,392,-35,66,-4
3125,-136,-1992,384,-37,64,-3
3130,-128,-1984,400,-39,61,-4
3135,-112,-1992,416,-41,59,-4
3140,-104,-2000,416,-44,59,-1
3145,-128,-1968,368,-46,55,-1
3150,-136,-1992,392,-47,53,0
3155,-120,-1992,376,-49,53,0
3160,-128,-2000,400,-51,53,3
3165,-128,-2000,408,-52,54,3
3170,-136,-2008,392,-54,53,4
3175,-112,-1984,392,-58,55,5
3180,-128,-1976,416,-63,57,4
3185,-136,-1976,384,-68,58,6
3190,-128,-1968,400,-71,60,8
3195,-120,-1992,392,-74,59,7
3200,-120,-1992,408,-78,60,7
3205,-136,-2000,408,-79,60,9
3210,-120,-1968,416,-81,59,9
3215,-136,-1984,400,-85,58,11
3220,-120,-1992,400,-87,59,13
3225,-128,-2016,392,-90,58,12
3230,-120,-1984,424,-93,58,13
3235,-152,-1984,376,-96,57,14
3240,-128,-1992,392,-98,56,14
3245,-128,-1984,392,-101,56,12
3250,-128,-1992,384,-102,56,12
3255,-128,-1992,392,-104,55,10
3260,-96,-2000,376,-105,55,9
3265,-120,-2024,392,-106,56,10
3270,-112,-2008,392,-107,56,10
3275,-120,-2000,368,-109,57,13
3280,-112,-2000,392,-111,58,13
3285,-104,-1984,376,-112,57,14
3290,-104,-1984,360,-116,54,11
3295,-120,-1992,360,-119,51,8
3300,-120,-1984,360,-122,50,5
3305,-136,-1992,368,-123,51,3
3310,-96,-2008,360,-126,53,2
3315,-120,-2000,352,-125,56,0
3320,-120,-2008,376,-126,60,-1
3325,-128,-2016,376,-126,65,0
3330,-104,-2008,376,-126,67,2
3335,-120,-2016,352,-127,71,2
3340,-112,-2016,360,-125,72,5
3345,-96,-2040,376,-124,71,5
3350,-112,-2032,368,-123,72,6
3355,-120,-2024,368,-122,69,8
3360,-128,-2016,344,-126,68,8
3365,-136,-1992,344,-129,68,7
3370,-136,-2000,352,-132,66,5
3375,-112,-2032,360,-134,65,5
3380,-112,-2008,328,-132,65,5
3385,-128,-2008,360,-126,64,4
3390,-112,-1992,320,-118,67,4
3395,-104,-2008,312,-110,70,3
3400,-120,-2000,344,-101,71,0
3405,-96,-1984,360,-94,70,-3
3410,-120,-2000,344,-88,72,-5
3415,-128,-2000,344,-87,71,-7
3420,-128,-1992,376,-89,71,-9
3425,-120,-2008,352,-93,72,-11
3430,-120,-2024,344,-97,74,-10
3435,-120,-2016,328,-100,73,-9
3440,-136,-2008,352,-101,74,-8
3445,-112,-2040,360,-102,74,-8
3450,-112,-2024,352,-98,76,-6
3455,-128,-2008,344,-92,75,-5
3460,-104,-2008,344,-87,77,-3
3465,-88,-2008,336,-82,77,-2
3470,-96,-2008,312,-78,78,0
3475,-112,-2008,360,-74,79,0
3480,-128,-1984,344,-73,80,1
3485,-128,-1992,352,-73,80,0
3490,-104,-1984,320,-74,82,-1
3495,-88,-2000,320,-76,82,-2
3500,-104,-1992,336,-79,83,-2
3505,-128,-1992,328,-81,83,-2
3510,-112,-1984,336,-84,85,-4
3515,-104,-2016,336,-84,81,-5
3520,-128,-2016,320,-83,80,-4
3525,-128,-2024,336,-82,80,-6
3530,-112,-2008,336,-83,81,-5
3535,-120,-2024,336,-82,78,-5
3540,-136,-2000,288,-83,79,-6
3545,-128,-2024,328,-83,78,-5
3550,-144,-2016,336,-84,79,-6
3555,-144,-2016,272,-85,77,-6
3560,-128,-2000,320,-84,76,-5
3565,-120,-1992,312,-84,76,-3
3570,-96,-2016,336,-84,76,-2
3575,-112,-2040,312,-84,77,0
3580,-112,-1992,336,-83,79,1
3585,-120,-2016,312,-81,77,2
3590,-96,-2016,328,-78,73,3
3595,-120,-2024,296,-77,72,4
3600,-104,-2016,320,-77,71,1
3605,-144,-2032,304,-75,68,0
3610,-104,-2048,312,-74,66,1
3615,-88,-2016,296,-73,65,-3
3620,-120,-2024,320,-73,65,-5
3625,-136,-2040,304,-72,64,-7
3630,-120,-2032,312,-72,66,-8
3635,-128,-1992,320,-72,66,-8
3640,-120,-2000,320,-73,68,-10
3645,-120,-2008,336,-74,68,-9
3650,-112,-2040,312,-75,69,-9
3655,-112,-2016,304,-76,69,-10
3660,-112,-2008,328,-77,69,-12
3665,-112,-2008,328,-78,69,-10
3670,-96,-1992,304,-76,69,-11
3675,-120,-2024,304,-75,68,-12
3680,-112,-2016,312,-74,68,-11
3685,-120,-2032,320,-71,65,-12
3690,-96,-2032,328,-67,64,-11
3695,-120,-2000,312,-63,64,-11
3700,-96,-2024,328,-60,63,-11
3705,-128,-2000,312,-56,60,-11
3710,-96,-2008,304,-54,61,-11
3715,-120,-2032,320,-51,61,-9
3720,-104,-2000,312,-50,63,-8
3725,-128,-2008,320,-51,66,-7
3730,-120,-2000,312,-52,68,-8
3735,-136,-2000,296,-52,70,-6
3740,-104,-2008,304,-53,73,-5
3745,-120,-2016,296,-52,74,-4
3750,-120,-2000,272,-51,74,-4
3755,-136,-2008,304,-52,75,-4
3760,-112,-1992,304,-50,77,-2
3765,-120,-2000,304,-49,76,-1
3770,-144,-1992,304,-49,76,0
3775,-120,-2000,320,-47,76,-1
3780,-128,-2024,320,-47,76,-1
3785,-128,-2008,312,-48,78,0
3790,-128,-2000,280,-50,78,0
3795,-104,-2024,296,-52,79,-1
3800,-128,-2000,320,-51,80,1
3805,-144,-2000,256,-52,79,1
3810,-120,-2016,312,-52,78,1
3815,-120,-2032,304,-50,78,2
3820,-112,-2024,288,-49,77,0
3825,-120,-2040,280,-47,75,0
3830,-120,-2032,272,-47,73,0
3835,-112,-2016,288,-48,72,0
3840,-136,-2032,272,-48,70,-1
3845,-144,-2016,272,-49,69,-4
3850,-136,-1992,304,-52,67,-3
3855,-96,-2024,320,-53,67,-3
3860,-128,-2024,288,-54,65,-3
3865,-136,-2008,312,-58,63,-4
3870,-120,-2016,296,-59,61,-5
3875,-112,-2008,248,-59,62,-6
3880,-120,-2032,304,-61,61,-7
3885,-136,-2008,264,-59,59,-9
3890,-112,-2016,240,-59,59,-11
3895,-96,-2016,272,-59,59,-10
3900,-88,-2008,312,-58,58,-8
3905,-96,-2016,272,-56,58,-10
3910,-112,-1992,280,-56,60,-10
3915,-96,-2024,280,-56,60,-11
3920,-120,-2024,272,-56,60,-12
3925,-104,-2024,264,-57,61,-11
3930,-136,-2000,288,-56,63,-11
3935,-96,-2024,312,-55,62,-8
3940,-128,-2016,280,-55,62,-8
3945,-112,-2040,272,-52,63,-9
3950,-136,-2016,280,-49,63,-9
3955,-104,-2008,312,-47,64,-8
3960,-120,-2032,280,-46,64,-8
3965,-96,-2016,288,-44,66,-9
3970,-88,-2032,288,-43,66,-8
3975,-120,-2000,256,-43,68,-9
3980,-96,-2032,272,-41,69,-8
3985,-112,-2024,312,-41,72,-8
3990,-120,-1992,272,-41,73,-8
3995,-88,-2016,264,-39,74,-8
4000,-120,-2016,248,-38,73,-10
4005,-136,-2000,280,-35,72,-10
4010,-120,-2048,288,-31,71,-9
4015,-128,-2032,264,-30,70,-11
4020,-104,-2048,264,-28,70,-12
4025,-96,-2032,272,-26,70,-10
4030,-128,-2008,280,-24,69,-11
4035,-120,-2024,288,-18,67,-9
4040,-120,-2016,256,-15,66,-8
4045,-120,-2032,256,-12,64,-8
4050,-112,-2008,272,-11,61,-5
4055,-104,-2024,256,-12,62,-4
4060,-112,-2024,264,-11,65,-5
4065,-120,-2024,264,-8,66,-6
4070,-112,-2008,248,-6,68,-8
4075,-88,-2016,264,0,69,-8
4080,-128,-2008,272,5,72,-9
4085,-128,-2024,280,7,73,-10
4090,-104,-2032,272,7,74,-9
4095,-96,-2008,272,8,76,-8
4100,-104,-2032,280,8,78,-7
4105,-96,-2016,264,8,80,-7
4110,-128,-2024,272,10,77,-6
4115,-120,-2000,264,13,75,-2
4120,-112,-2016,264,14,74,-1
4125,-120,-2032,264,14,69,1
4130,-112,-2008,272,10,67,2
4135,-104,-2016,288,4,64,3
4140,-120,-2016,264,-1,62,4
4145,-112,-2032,272,-6,61,5
4150,-104,-2040,288,-6,60,6
4155,-112,-2000,288,-2,58,5
4160,-120,-2032,288,4,58,3
4165,-112,-2032,264,12,57,3
4170,-120,-2008,272,20,58,1
4175,-112,-2040,272,26,61,-1
4180,-104,-2024,296,27,63,-3
4185,-120,-2024,304,27,67,-4
4190,-112,-2008,272,24,69,-4
4195,-96,-2016,264,24,71,-4
4200,-88,-2032,272,21,72,-4
4205,-120,-2032,264,20,72,-3
4210,-112,-1992,248,22,72,-2
4215,-96,-2048,280,24,71,-2
4220,-120,-2016,264,28,67,-1
4225,-128,-2008,280,33,63,0
4230,-96,-2024,264,35,59,0
4235,-128,-2000,280,39,56,0
4240,-136,-2008,280,39,54,0
4245,-128,-2008,256,40,53,1
4250,-104,-1984,264,38,54,0
4255,-136,-2016,288,38,53,-1
4260,-112,-2008,264,38,55,1
4265,-112,-2000,304,37,57,0
4270,-120,-2008,296,35,58,0
4275,-136,-2000,296,33,59,2
4280,-104,-2000,288,31,63,2
4285,-104,-2032,312,29,64,2
4290,-112,-2040,312,26,65,2
4295,-128,-2024,280,27,63,2
4300,-128,-2064,280,26,58,0
4305,-120,-2048,296,26,55,0
4310,-112,-2016,280,27,50,-2
4315,-120,-2032,280,26,48,-6
4320,-120,-2000,288,27,44,-9
4325,-96,-2008,280,28,45,-11
4330,-104,-2000,264,26,47,-13
4335,-128,-2008,288,26,52,-13
4340,-112,-2008,312,25,55,-17
4345,-96,-2000,304,23,61,-17
4350,-120,-2016,288,21,64,-16
4355,-128,-2008,312,19,66,-16
4360,-128,-2008,280,16,66,-16
4365,-104,-2024,288,13,64,-16
4370,-136,-1992,304,11,61,-17
4375,-120,-2032,304,9,57,-16
4380,-128,-2040,312,8,57,-16
4385,-136,-2024,288,9,56,-16
4390,-128,-2032,296,10,56,-15
4395,-120,-2016,296,10,57,-14
4400,-104,-2008,304,11,60,-14
4405,-120,-2016,320,16,61,-13
4410,-96,-2016,296,17,62,-13
4415,-96,-1992,296,20,63,-14
4420,-96,-2008,288,22,64,-14
4425,-104,-2008,328,25,65,-14
4430,-120,-2000,336,26,66,-16
4435,-96,-2016,280,26,67,-17
4440,-128,-1992,304,25,68,-18
4445,-136,-1976,336,24,69,-18
4450,-112,-2008,312,22,71,-17
4455,-136,-1992,320,21,70,-17
4460,-112,-2032,304,20,71,-17
4465,-128,-2000,312,19,71,-19
4470,-144,-2008,312,23,72,-19
4475,-144,-2016,312,26,72,-20
4480,-128,-2032,312,29,71,-18
4485,-104,-2040,344,33,71,-20
4490,-120,-2016,304,39,69,-20
4495,-120,-2008,304,41,68,-20
4500,-128,-2024,312,41,66,-21
4505,-136,-2000,344,41,66,-22
4510,-128,-2000,304,40,64,-22
4515,-112,-2000,312,38,64,-22
4520,-152,-1984,328,36,64,-23
4525,-104,-2016,336,33,64,-24
4530,-128,-1992,328,32,63,-23
4535,-96,-2008,328,31,65,-23
4540,-128,-2016,288,30,64,-24
4545,-80,-2024,296,30,67,-24
4550,-136,-2016,328,31,66,-26
4555,-136,-1992,280,33,66,-26
4560,-112,-2000,280,32,66,-26
4565,-128,-2000,328,32,67,-29
4570,-120,-2024,344,32,66,-29
4575,-112,-2016,312,31,65,-29
4580,-112,-2016,304,31,64,-30
4585,-120,-2032,336,30,64,-30
4590,-112,-2032,304,31,63,-29
4595,-120,-2024,304,32,62,-31
4600,-104,-2000,312,34,60,-32
4605,-120,-2024,312,35,60,-30
4610,-136,-2000,336,38,60,-33
4615,-136,-2016,328,37,58,-32
4620,-88,-2008,328,39,57,-34
4625,-112,-2024,320,40,57,-34
4630,-104,-2016,328,42,58,-35
4635,-112,-2008,344,43,60,-36
4640,-96,-2008,312,41,60,-37
4645,-96,-2008,336,40,61,-38
4650,-120,-2032,360,39,63,-38
4655,-96,-2008,336,39,64,-38
4660,-80,-2032,320,37,63,-39
4665,-104,-1992,312,37,63,-40
4670,-112,-2008,320,36,61,-39
4675,-80,-2016,352,36,59,-39
4680,-80,-2000,328,37,58,-40
4685,-96,-1984,352,36,56,-41
4690,-80,-2016,328,37,55,-41
4695,-80,-2000,344,36,53,-41
4700,-96,-2000,328,35,52,-41
4705,-96,-2016,320,35,53,-39
4710,-96,-1992,320,34,55,-39
4715,-80,-2008,336,36,54,-39
4720,-112,-1992,320,37,53,-38
4725,-96,-2016,328,38,55,-39
4730,-96,-2016,336,42,55,-38
4735,-64,-2024,352,43,55,-39
4740,-64,-2032,352,46,57,-40
4745,-72,-2024,336,48,57,-41
4750,-104,-2008,328,50,58,-42
4755,-80,-2016,328,50,61,-42
4760,-72,-2024,376,52,62,-43
4765,-104,-2008,352,50,63,-45
4770,-80,-2016,344,50,64,-47
4775,-104,-2008,352,50,65,-47
4780,-96,-2000,352,50,65,-46
4785,-88,-1992,360,51,64,-45
4790,-80,-2008,328,52,63,-46
4795,-80,-2008,352,55,62,-46
4800,-80,-2000,336,57,62,-44
4805,-104,-2000,368,58,60,-44
4810,-88,-2016,352,57,57,-44
4815,-80,-2024,320,55,55,-43
4820,-96,-2000,352,50,51,-44
4825,-80,-2008,336,47,51,-45
4830,-64,-2016,344,44,51,-46
4835,-80,-2000,352,43,51,-48
4840,-72,-1992,328,41,55,-48
4845,-88,-2000,320,41,58,-48
4850,-56,-2016,320,43,60,-50
4855,-80,-2008,360,46,63,-50
4860,-96,-1992,352,48,65,-50
4865,-72,-2048,376,50,69,-48
4870,-80,-2024,328,53,70,-48
4875,-88,-2024,352,55,72,-48
4880,-88,-2008,344,55,72,-49
4885,-72,-2008,360,54,71,-49
4890,-80,-1992,360,48,70,-50
4895,-72,-2048,360,41,69,-51
4900,-80,-2032,352,36,69,-51
4905,-88,-2016,336,32,69,-54
4910,-88,-2016,352,30,68,-56
4915,-88,-2016,328,34,69,-57
4920,-72,-2024,352,43,69,-59
4925,-96,-1984,344,52,68,-61
4930,-80,-2000,368,62,70,-64
4935,-88,-1976,336,71,69,-68
4940,-72,-1984,360,78,68,-70
4945,-56,-1992,352,82,66,-73
4950,-96,-2000,376,81,63,-76
4955,-64,-1984,384,76,60,-78
4960,-72,-1992,352,70,58,-78
4965,-40,-2008,376,62,55,-79
4970,-64,-2008,368,54,55,-76
4975,-64,-2008,376,48,57,-75
4980,-16,-2008,360,45,56,-73
4985,-48,-2016,384,45,55,-73
4990,-24,-2008,384,48,56,-73
4995,-80,-2008,360,54,56,-70
5000,-48,-2032,360,60,57,-69
5005,-24,-1992,368,65,58,-69
5010,-40,-1992,384,69,60,-69
5015,-72,-1992,368,71,61,-70
5020,-48,-1992,360,71,61,-71
5025,-48,-1992,368,69,62,-72
5030,-56,-2000,424,67,61,-73
5035,-64,-1992,360,65,60,-73
5040,-56,-1984,368,63,60,-73
5045,-24,-2008,384,60,59,-73
5050,-72,-2000,368,58,59,-73
5055,-56,-1992,384,57,60,-73
5060,-64,-1992,408,56,59,-74
5065,-56,-2024,384,54,59,-75
5070,-64,-2008,384,54,58,-76
5075,-48,-2008,360,54,57,-78
5080,-48,-1992,376,52,57,-78
5085,-48,-1992,368,54,57,-81
5090,-16,-2016,352,56,57,-84
5095,-64,-2000,376,60,58,-83
5100,-40,-1992,400,62,58,-86
5105,-32,-2008,384,63,58,-87
5110,-56,-1992,400,62,57,-88
5115,-8,-2016,368,61,57,-87
5120,-40,-2000,368,61,56,-87
5125,-16,-2008,384,61,54,-88
5130,-56,-2016,384,63,48,-88
5135,-24,-2024,392,66,46,-89
5140,-16,-2024,384,73,40,-89
5145,-8,-2008,400,80,39,-92
5150,0,-2000,392,87,36,-94
5155,-16,-1992,400,95,36,-99
5160,-8,-1992,368,102,36,-99
5165,-24,-2016,376,105,36,-104
5170,-24,-2016,384,107,35,-107
5175,-8,-2040,408,109,32,-109
5180,-48,-2008,400,111,31,-111
5185,-40,-2008,440,116,31,-112
5190,-40,-1984,384,120,28,-115
5195,-24,-1976,432,118,25,-120
5200,-24,-2016,408,115,23,-123
5205,-48,-1984,392,116,22,-125
5210,-8,-1992,384,116,20,-127
5215,-8,-2000,408,117,20,-131
5220,-24,-2000,400,118,18,-132
5225,-40,-1992,416,119,19,-134
5230,0,-2000,424,119,18,-137
5235,-16,-1992,408,118,19,-140
5240,-16,-1976,408,119,20,-141
5245,0,-1992,432,120,25,-144
5250,0,-1984,408,120,29,-147
5255,8,-1992,440,120,31,-149
5260,8,-1984,424,122,34,-155
5265,0,-1992,432,126,36,-159
5270,8,-2008,440,130,37,-163
5275,8,-2024,456,138,37,-166
5280,8,-1984,456,146,35,-171
5285,0,-1976,448,153,32,-177
5290,0,-1968,456,157,29,-183
5295,0,-1960,432,158,28,-187
5300,-8,-1960,448,152,28,-191
5305,8,-1984,440,142,28,-194
5310,0,-1968,416,128,31,-198
5315,0,-1968,464,114,34,-203
5320,0,-1976,464,104,39,-206
5325,16,-1992,456,99,45,-211
5330,0,-1984,456,98,50,-213
5335,0,-2000,456,102,52,-217
5340,8,-1992,464,108,52,-220
5345,-16,-2016,488,117,51,-224
5350,0,-2008,448,123,50,-228
5355,24,-1984,472,126,48,-233
5360,16,-2016,464,127,47,-237
5365,16,-1984,464,126,49,-242
5370,8,-1976,472,124,52,-244
5375,8,-1968,448,123,55,-246
5380,8,-1968,456,123,58,-247
5385,32,-2000,456,125,59,-247
5390,8,-1952,472,129,57,-249
5395,48,-1960,488,131,54,-250
5400,24,-1944,472,133,49,-253
5405,8,-1952,472,135,45,-256
5410,24,-1944,472,131,40,-262
5415,-8,-1944,472,125,41,-267
5420,24,-1944,480,119,40,-271
5425,32,-1936,480,112,43,-275
5430,16,-1976,504,105,47,-280
5435,32,-1984,496,98,50,-285
5440,48,-1992,472,96,51,-290
5445,24,-1960,464,96,52,-291
5450,32,-1968,512,100,50,-294
5455,40,-1952,512,106,44,-293
5460,56,-1984,480,113,39,-292
5465,0,-1944,504,121,31,-291
5470,24,-1944,536,126,23,-292
5475,32,-1960,512,127,16,-295
5480,40,-1960,520,127,10,-297
5485,56,-1976,504,129,9,-300
5490,40,-1952,504,133,10,-303
5495,80,-1960,488,138,10,-304
5500,80,-1920,480,144,14,-303
5505,96,-1936,488,150,21,-300
5510,104,-1936,480,152,26,-296
5515,104,-1944,480,148,33,-300
5520,128,-1960,504,142,38,-303
5525,144,-1960,504,132,40,-306
5530,128,-1952,496,118,40,-309
5535,128,-1960,536,106,38,-310
5540,144,-1944,520,95,34,-311
5545,128,-1976,544,89,29,-312
5550,144,-1976,536,89,21,-308
5555,120,-1992,536,93,16,-307
5560,128,-1976,560,101,10,-303
5565,160,-1976,536,113,5,-298
5570,128,-1968,504,126,-2,-294
5575,144,-1944,520,135,-7,-291
5580,152,-1952,536,140,-15,-288
5585,152,-1936,488,140,-20,-289
5590,152,-1928,536,133,-25,-290
5595,168,-1936,520,121,-30,-292
5600,224,-1920,520,105,-33,-294
5605,192,-1944,512,89,-36,-296
5610,200,-1944,544,75,-36,-298
5615,208,-1952,512,63,-36,-298
5620,224,-1952,536,54,-36,-299
5625,232,-1944,552,49,-38,-300
5630,216,-1976,552,47,-37,-299
5635,208,-1952,560,46,-39,-300
5640,232,-1944,560,46,-42,-298
5645,232,-1952,552,43,-48,-300
5650,264,-1944,568,39,-54,-300
5655,264,-1952,552,30,-60,-303
5660,264,-1928,536,21,-67,-304
5665,256,-1936,552,11,-71,-304
5670,264,-1928,520,-1,-75,-304
5675,264,-1912,536,-9,-74,-304
5680,280,-1920,528,-18,-75,-303
5685,288,-1864,536,-25,-72,-303
5690,296,-1880,536,-31,-69,-302
5695,320,-1896,536,-37,-69,-303
5700,312,-1912,552,-45,-68,-304
5705,320,-1920,544,-55,-68,-308
5710,304,-1896,584,-67,-72,-308
5715,312,-1928,576,-79,-77,-311
5720,312,-1904,584,-92,-82,-312
5725,336,-1904,584,-107,-89,-311
5730,288,-1904,552,-120,-95,-312
5735,304,-1904,576,-133,-101,-313
5740,296,-1936,544,-144,-107,-312
5745,328,-1928,584,-154,-111,-313
5750,344,-1920,544,-161,-115,-315
5755,352,-1920,568,-168,-119,-317
5760,352,-1912,560,-175,-121,-319
5765,344,-1928,560,-185,-125,-322
5770,368,-1928,592,-193,-126,-323
5775,368,-1944,584,-201,-128,-323
5780,352,-1944,568,-206,-130,-321
5785,360,-1936,584,-209,-133,-322
5790,400,-1968,552,-210,-139,-323
5795,392,-1960,584,-207,-146,-324
5800,368,-1960,568,-202,-153,-326
5805,384,-1952,568,-191,-162,-326
5810,368,-1944,544,-182,-166,-326
5815,376,-1936,552,-175,-171,-325
5820,376,-1928,536,-173,-174,-325
5825,384,-1912,496,-177,-177,-325
5830,384,-1920,520,-185,-174,-323
5835,376,-1928,472,-196,-172,-320
5840,392,-1904,504,-208,-169,-317
5845,384,-1912,520,-218,-170,-315
5850,376,-1928,488,-226,-174,-315
5855,376,-1888,488,-234,-179,-318
5860,376,-1904,488,-236,-184,-320
5865,408,-1904,480,-240,-189,-323
5870,392,-1880,504,-247,-195,-328
5875,424,-1920,488,-255,-199,-335
5880,440,-1912,504,-265,-202,-338
5885,456,-1912,456,-273,-203,-346
5890,472,-1928,480,-278,-203,-352
5895,496,-1912,472,-281,-202,-355
5900,464,-1920,432,-276,-204,-359
5905,488,-1912,432,-268,-204,-362
5910,464,-1888,432,-253,-203,-364
5915,472,-1872,432,-239,-202,-364
5920,488,-1880,392,-226,-197,-365
5925,472,-1880,392,-218,-193,-367
5930,472,-1872,400,-213,-190,-368
5935,480,-1888,432,-215,-187,-371
5940,480,-1856,432,-220,-191,-372
5945,472,-1888,432,-227,-195,-374
5950,464,-1880,432,-237,-202,-378
5955,480,-1888,440,-247,-213,-381
5960,456,-1912,416,-257,-221,-384
5965,480,-1936,408,-262,-228,-384
5970,472,-1936,456,-265,-232,-384
5975,488,-1912,432,-262,-237,-385
5980,488,-1928,432,-257,-242,-384
5985,496,-1944,400,-252,-244,-382
5990,512,-1912,392,-245,-244,-380
5995,520,-1912,424,-236,-239,-382
6000,544,-1928,392,-228,-231,-380
6005,544,-1912,400,-221,-220,-381
6010,544,-1936,392,-212,-209,-381
6015,600,-1912,376,-205,-198,-381
6020,616,-1888,360,-201,-188,-383
6025,640,-1928,368,-200,-178,-382
6030,672,-1872,352,-201,-166,-382
6035,672,-1880,368,-202,-156,-383
6040,680,-1888,376,-199,-149,-382
6045,688,-1880,400,-194,-147,-380
6050,696,-1832,376,-187,-152,-380
6055,680,-1800,376,-183,-163,-383
6060,672,-1776,360,-183,-178,-385
6065,664,-1776,368,-191,-199,-389
6070,624,-1736,416,-207,-218,-396
6075,632,-1736,384,-233,-235,-406
6080,600,-1736,368,-265,-253,-414
6085,616,-1736,360,-301,-267,-420
6090,600,-1768,352,-334,-280,-425
6095,600,-1792,360,-366,-289,-427
6100,584,-1792,352,-393,-298,-429
6105,584,-1840,336,-417,-306,-430
6110,568,-1872,344,-437,-317,-430
6115,576,-1896,360,-455,-328,-433
6120,584,-1904,288,-471,-342,-437
6125,584,-1920,264,-482,-358,-441
6130,576,-1928,264,-491,-375,-445
6135,536,-1920,256,-493,-393,-447
6140,552,-1928,216,-490,-411,-450
6145,552,-1968,224,-484,-429,-454
6150,528,-1920,224,-476,-451,-454
6155,528,-1896,208,-466,-475,-453
6160,552,-1896,232,-458,-499,-450
6165,520,-1880,240,-453,-526,-447
6170,528,-1880,192,-449,-550,-443
6175,464,-1912,280,-446,-571,-440
6180,576,-1872,264,-444,-592,-436
6185,560,-1856,248,-439,-611,-434
6190,568,-1848,240,-436,-629,-430
6195,584,-1840,272,-433,-643,-430
6200,592,-1832,264,-432,-658,-431
6205,648,-1832,240,-435,-671,-433
6210,672,-1832,224,-439,-684,-434
6215,664,-1832,240,-448,-693,-434
6220,696,-1840,216,-459,-701,-437
6225,720,-1832,200,-470,-709,-440
6230,696,-1816,232,-478,-717,-443
6235,696,-1800,192,-488,-721,-448
6240,720,-1816,208,-495,-725,-453
6245,720,-1776,168,-502,-728,-459
6250,672,-1776,160,-510,-733,-466
6255,680,-1752,144,-518,-734,-474
6260,688,-1744,144,-527,-735,-481
6265,696,-1776,144,-537,-738,-491
6270,680,-1760,104,-549,-742,-502
6275,672,-1768,112,-562,-745,-516
6280,656,-1760,96,-578,-748,-532
6285,680,-1768,16,-592,-754,-547
6290,656,-1752,80,-606,-761,-561
6295,632,-1776,64,-619,-767,-576
6300,608,-1720,64,-629,-773,-594
6305,616,-1736,16,-641,-780,-610
6310,632,-1776,16,-651,-784,-626
6315,624,-1736,24,-658,-788,-642
6320,632,-1760,16,-667,-795,-660
6325,664,-1768,-24,-674,-802,-679
6330,656,-1744,-16,-681,-809,-697
6335,648,-1800,-40,-685,-817,-715
6340,632,-1760,-48,-689,-825,-734
6345,648,-1768,-40,-692,-833,-750
6350,648,-1760,-48,-693,-842,-768
6355,632,-1728,-64,-699,-852,-786
6360,640,-1744,-56,-708,-865,-803
6365,608,-1712,-56,-719,-879,-819
6370,616,-1688,-80,-736,-896,-837
6375,608,-1672,-72,-751,-913,-852
6380,592,-1632,-104,-768,-930,-869
6385,616,-1656,-88,-784,-948,-889
6390,600,-1616,-112,-800,-969,-910
6395,576,-1576,-128,-821,-991,-934
6400,600,-1560,-112,-844,-1015,-957
6405,600,-1560,-200,-868,-1040,-986
6410,624,-1552,-192,-892,-1061,-1012
6415,592,-1544,-184,-915,-1077,-1044
6420,608,-1504,-240,-938,-1090,-1075
6425,656,-1528,-256,-961,-1103,-1108
6430,656,-1488,-264,-987,-1115,-1142
6435,680,-1488,-240,-1013,-1127,-1171
6440,696,-1488,-248,-1037,-1140,-1197
6445,712,-1472,-216,-1066,-1155,-1220
6450,696,-1464,-200,-1086,-1169,-1240
6455,728,-1456,-184,-1103,-1181,-1251
6460,760,-1424,-160,-1119,-1184,-1263
6465,784,-1408,-168,-1137,-1176,-1276
6470,792,-1448,-160,-1152,-1158,-1283
6475,792,-1464,-240,-1163,-1130,-1285
6480,824,-1512,-272,-1164,-1104,-1286
6485,792,-1632,-368,-1149,-1089,-1278
6490,752,-1744,-496,-1109,-1091,-1266
6495,728,-1896,-632,-1047,-1114,-1252
6500,688,-2024,-696,-967,-1150,-1230
6505,736,-2160,-728,-871,-1190,-1207
6510,752,-2280,-760,-768,-1226,-1186
6515,776,-2368,-768,-654,-1259,-1172
6520,816,-2432,-728,-560,-1297,-1159
6525,832,-2408,-656,-507,-1328,-1146
6530,792,-2320,-528,-528,-1358,-1120
6535,712,-2120,-336,-650,-1386,-1083
6540,648,-1872,-168,-886,-1410,-1030
6545,600,-1552,-112,-1206,-1460,-950
6550,608,-1368,-8,-1555,-1574,-831
6555,592,-1168,-48,-1839,-1741,-657
6560,664,-1112,-200,-1958,-1895,-421
6565,728,-1160,-352,-1874,-1969,-141
6570,720,-1232,-536,-1624,-1949,149
6575,736,-1344,-728,-1282,-1849,405
6580,608,-1408,-896,-924,-1701,593
6585,608,-1440,-1000,-632,-1546,718
6590,560,-1440,-1000,-410,-1385,785
6595,544,-1360,-976,-259,-1228,807
6600,536,-1320,-912,-192,-1107,800
6605,616,-1312,-864,-198,-1036,782
6610,688,-1264,-848,-264,-993,745
6615,824,-1272,-760,-342,-963,702
6620,960,-1352,-808,-391,-942,670
6625,1152,-1432,-776,-416,-923,653
6630,1312,-1512,-816,-409,-896,647
6635,1376,-1656,-784,-369,-846,636
6640,1456,-1696,-752,-315,-780,623
6645,1408,-1728,-728,-264,-707,623
6650,1384,-1776,-688,-227,-628,640
6655,1320,-1768,-672,-203,-533,667
6660,1264,-1832,-680,-192,-403,690
6665,1088,-1784,-720,-188,-245,705
6670,928,-1800,-840,-173,-75,722
6675,776,-1784,-912,-141,88,753
6680,608,-1776,-1008,-81,217,802
6685,488,-1760,-1064,-3,315,864
6690,352,-1728,-1144,81,387,935
6695,328,-1640,-1176,160,448,995
6700,280,-1560,-1128,219,505,1031
6705,296,-1464,-1056,258,560,1047
6710,352,-1224,-1032,287,613,1049
6715,368,-1248,-872,310,665,1049
6720,400,-1208,-832,335,726,1041
6725,552,-1288,-768,363,800,1020
6730,624,-1368,-704,410,904,950
6735,648,-1472,-696,488,1033,850
6740,704,-1528,-736,590,1167,772
6745,824,-1688,-800,715,1309,728
6750,1040,-1816,-968,856,1462,707
6755,1280,-1848,-1176,1005,1630,678
6760,1464,-1840,-1360,1126,1817,643
6765,1608,-1776,-1512,1207,2012,616
6770,1856,-1656,-1568,1242,2218,598
6775,2056,-1488,-1680,1231,2447,574
6780,2072,-1208,-1656,1171,2727,516
6785,2048,-888,-1608,1069,3032,428
6790,2024,-544,-1568,957,3315,327
6795,1968,-240,-1576,843,3580,216
6800,1976,16,-1640,720,3833,94
6805,2024,160,-1704,585,4079,-41
6810,2128,192,-1848,430,4314,-192
6815,2376,112,-2080,264,4519,-370
6820,2704,-96,-2280,88,4683,-588
6825,3064,-312,-2488,-95,4795,-862
6830,3392,-632,-2608,-286,4848,-1190
6835,3736,-1024,-2720,-474,4817,-1568
6840,4000,-1392,-2768,-665,4704,-1996
6845,4128,-1736,-2760,-843,4504,-2426
6850,4216,-1984,-2648,-997,4225,-2830
6855,3944,-2248,-2488,-1119,3902,-3193
6860,3456,-2424,-2264,-1192,3532,-3467
6865,2696,-2488,-2016,-1220,3110,-3628
6870,2128,-2504,-1800,-1202,2662,-3678
6875,1704,-2424,-1696,-1167,2290,-3698
6880,1376,-2264,-1488,-1150,2013,-3702
6885,976,-2120,-1312,-1149,1795,-3657
6890,696,-1888,-1144,-1170,1605,-3564
6895,520,-1672,-912,-1210,1433,-3450
6900,320,-1488,-560,-1236,1273,-3325
6905,480,-1392,-456,-1209,1133,-3189
6910,664,-1240,-368,-1132,1056,-3085
6915,784,-1048,-200,-1030,1021,-3025
6920,1064,-944,-104,-893,962,-2978
6925,1328,-840,40,-730,874,-2959
6930,1680,-704,144,-561,757,-2964
6935,1920,-624,224,-410,632,-2996
6940,2128,-544,224,-315,526,-3046
6945,2280,-544,224,-303,460,-3106
6950,2224,-504,232,-372,457,-3171
6955,2216,-520,280,-488,506,-3208
6960,2248,-624,280,-611,617,-3226
6965,2296,-736,216,-695,793,-3219
6970,2376,-856,144,-699,1016,-3184
6975,2432,-968,88,-618,1245,-3121
6980,2464,-1040,16,-465,1429,-3031
6985,2488,-1056,8,-279,1540,-2925
6990,2448,-1024,96,-106,1566,-2805
6995,2440,-992,112,28,1502,-2673
7000,2416,-912,216,120,1358,-2536
7005,2432,-816,296,161,1173,-2409
7010,2296,-512,440,133,992,-2329
7015,2216,-440,360,51,830,-2245
7020,2008,-360,416,-107,739,-2180
7025,1728,-192,512,-263,727,-2178
7030,1512,-136,512,-415,794,-2192
7035,1496,0,544,-592,898,-2204
7040,1536,144,376,-767,1025,-2225
7045,1552,264,296,-913,1162,-2236
7050,1712,240,128,-945,1262,-2238
7055,1992,248,-128,-843,1312,-2259
7060,2224,304,-336,-689,1310,-2300
7065,2456,312,-448,-563,1232,-2355
7070,2680,256,-592,-463,1112,-2393
7075,2848,192,-576,-385,998,-2339
7080,3240,-24,-568,-345,894,-2147
7085,3648,-128,-384,-318,789,-1843
7090,3808,-208,-264,-270,681,-1486
7095,3968,-360,-136,-161,569,-1157
7100,3936,-280,-8,16,505,-844
7105,3896,-88,24,159,438,-638
7110,3816,-8,136,223,382,-499
7115,3624,168,128,274,343,-415
7120,3512,376,96,329,310,-344
7125,3400,512,0,398,295,-264
7130,3280,640,-40,496,315,-153
7135,3184,784,-80,615,346,-44
7140,2920,920,-104,708,379,42
7145,2624,1056,-128,743,415,110
7150,2392,1048,-64,726,451,148
7155,2136,1104,8,739,493,131
7160,1800,1184,8,791,529,74
7165,1320,1224,-48,858,537,23
7170,864,1160,-112,900,488,6
7175,616,1024,-136,887,394,38
7180,600,856,-120,822,260,114
7185,1000,656,-128,701,123,219
7190,1392,616,-120,520,52,280
7195,1624,632,-8,284,60,284
7200,1872,632,104,46,140,278
7205,2128,672,192,-126,311,240
7210,2096,728,184,-211,541,143
7215,1864,848,40,-270,735,15
7220,1680,768,-8,-346,800,-82
7225,1648,680,16,-360,766,-158
7230,1560,600,0,-280,693,-228
7235,1520,504,-16,-136,607,-285
7240,1392,464,-56,16,515,-326
7245,1280,424,-96,133,423,-339
7250,1240,408,-64,177,330,-313
7255,1256,400,32,138,258,-249
7260,1272,360,232,70,236,-175
7265,1336,408,280,11,253,-86
7270,1416,416,320,-53,304,8
7275,1480,432,328,-130,364,96
7280,1600,392,352,-197,411,178
7285,1760,368,344,-223,442,256
7290,1832,328,296,-204,463,317
7295,1944,288,328,-161,475,362
7300,1968,272,272,-89,486,397
7305,1928,272,344,-9,495,431
7310,1912,264,376,79,496,455
7315,1832,248,448,171,492,464
7320,1744,304,616,280,490,468
7325,1672,400,712,386,474,471
7330,1624,480,744,481,433,472
7335,1696,544,712,563,380,472
7340,1672,648,704,626,319,452
7345,1688,784,576,684,250,418
7350,1680,848,480,721,177,377
7355,1784,968,280,717,105,346
7360,1800,1008,224,638,40,306
7365,1792,1048,152,529,-8,273
7370,1792,992,120,394,-43,240
7375,1768,920,152,264,-54,214
7380,1800,808,216,162,-49,192
7385,1800,688,248,90,-45,164
7390,1792,600,256,46,-53,136
7395,1808,536,248,20,-68,110
7400,1840,440,224,5,-96,94
7405,1872,344,176,-13,-141,78
7410,1928,264,112,-28,-195,64
7415,1944,184,88,-33,-252,43
7420,1984,112,72,-20,-310,25
7425,2008,64,24,8,-368,-1
7430,2000,56,0,37,-432,-41
7435,1976,24,0,68,-494,-82
7440,2032,-24,8,97,-556,-119
7445,1816,56,-160,119,-596,-157
7450,2032,-32,0,135,-604,-189
7455,2128,-64,64,137,-597,-212
7460,2160,-64,120,137,-564,-222
7465,2208,-40,160,136,-525,-213
7470,2264,-48,160,137,-493,-204
7475,2344,-40,224,142,-461,-193
7480,2384,-48,288,165,-423,-178
7485,2416,-64,320,203,-387,-154
7490,2480,-64,328,243,-357,-121
7495,2480,-24,320,280,-321,-86
7500,2448,24,312,305,-292,-53
7505,2448,48,288,319,-275,-21
7510,2432,104,264,331,-262,5
7515,2360,128,200,339,-251,31
7520,2304,152,144,342,-233,58
7525,2248,176,112,337,-210,88
7530,2208,184,56,322,-181,114
7535,2136,192,32,298,-139,138
7540,2072,160,-16,266,-97,159
7545,2048,104,-24,233,-49,181
7550,2016,120,-56,195,-1,199
7555,2008,64,-64,163,48,216
7560,2016,40,-96,141,94,234
7565,2024,0,-96,125,141,249
7570,2032,-40,-80,118,180,262
7575,2048,-56,-40,122,206,272
7580,2080,-40,-88,133,212,276
7585,2136,-80,-72,147,201,274
7590,2152,-80,-56,157,178,262
7595,2152,-104,-48,163,144,248
7600,2168,-80,-80,161,99,232
7605,2200,-112,-128,158,50,218
7610,2224,-104,-152,159,9,202
7615,2192,-144,-192,161,-27,192
7620,2216,-144,-248,162,-58,185
7625,2200,-144,-328,163,-80,180
7630,2144,-152,-288,164,-96,174
7635,2120,-144,-296,152,-114,167
7640,2120,-144,-352,129,-130,160
7645,2072,-104,-336,99,-139,148
7650,2072,-96,-312,69,-142,131
7655,2048,-64,-328,44,-136,110
7660,2064,-80,-320,26,-126,87
7665,2048,-48,-312,18,-112,61
7670,2032,-64,-312,14,-105,41
7675,2016,-88,-280,13,-104,24
7680,2008,-104,-264,15,-114,9
7685,2016,-120,-248,21,-128,-5
7690,2000,-120,-240,28,-145,-21
7695,1984,-136,-184,35,-165,-33
7700,1976,-152,-152,40,-187,-46
7705,1968,-160,-104,39,-206,-58
7710,1968,-160,-112,35,-218,-69
7715,1968,-128,-48,33,-218,-80
7720,1976,-136,-32,38,-206,-86
7725,2000,-160,-40,49,-185,-93
7730,2040,-112,-16,60,-161,-99
7735,2048,-104,-16,70,-133,-105
7740,2072,-112,-40,79,-103,-109
7745,2056,-80,-80,83,-76,-115
7750,2072,-64,-64,82,-49,-116
7755,2088,-32,-56,83,-24,-117
7760,2112,-16,-80,85,5,-120
7765,2120,16,-112,85,38,-122
7770,2128,64,-80,84,70,-126
7775,2128,56,-120,81,99,-126
7780,2144,48,-96,80,127,-123
7785,2152,48,-96,77,153,-119
7790,2144,64,-88,72,177,-112
7795,2120,64,-88,66,199,-102
7800,2136,80,-88,60,220,-90
7805,2128,72,-96,54,237,-79
7810,2096,88,-40,48,255,-74
7815,2112,96,-80,43,276,-69
7820,2104,96,-88,45,296,-66
7825,2120,136,-72,47,317,-69
7830,2096,160,-80,45,333,-72
7835,2128,176,-96,36,347,-76
7840,2152,168,-104,17,358,-80
7845,2152,192,-56,-7,362,-83
7850,2160,208,-96,-33,367,-85
7855,2168,224,-112,-59,370,-86
7860,2176,216,-80,-86,373,-86
7865,2144,208,-64,-109,374,-82
7870,2136,192,-80,-124,377,-72
7875,2136,160,-48,-134,379,-60
7880,2128,160,-48,-140,375,-47
7885,2088,136,-32,-145,369,-36
7890,2048,128,-48,-151,356,-30
7895,2072,120,-24,-159,335,-24
7900,2000,64,-48,-166,310,-24
7905,2040,72,-16,-170,283,-26
7910,2056,64,-56,-165,260,-31
7915,2032,56,-48,-154,244,-35
7920,2048,16,-48,-134,233,-37
7925,2024,56,-56,-109,227,-40
7930,2016,48,-40,-80,226,-44
7935,2000,48,-56,-47,233,-45
7940,2024,72,-64,-18,247,-49
7945,2048,40,-8,8,263,-53
7950,2032,72,-40,29,284,-59
7955,2040,72,-40,47,307,-64
7960,2024,88,-32,66,326,-66
7965,2056,72,-8,83,341,-64
7970,2040,88,-8,100,350,-62
7975,2032,88,32,117,349,-58
7980,2040,72,32,133,343,-57
7985,2032,72,72,148,333,-55
7990,2040,80,56,160,323,-54
7995,2008,88,96,169,310,-52
8000,1984,96,72,176,297,-51
8005,1984,80,72,178,286,-47
8010,1992,112,64,179,275,-43
8015,1976,80,104,177,269,-40
8020,1976,112,128,174,267,-35
8025,1984,136,112,171,266,-27
8030,2008,104,120,163,264,-22
8035,2016,128,104,154,262,-17
8040,2056,144,120,140,258,-10
8045,2048,168,128,123,253,-5
8050,2072,160,144,103,244,-1
8055,2056,160,128,79,229,2
8060,2064,160,168,52,216,1
8065,2056,136,152,25,203,1
8070,2056,136,152,-1,186,-1
8075,2056,112,192,-26,173,0
8080,2048,128,200,-48,160,1
8085,2056,104,216,-69,145,7
8090,2056,112,192,-84,126,12
8095,2048,88,176,-93,108,17
8100,2064,96,192,-91,86,22
8105,2056,64,152,-88,64,27
8110,2048,64,168,-79,43,29
8115,2040,64,112,-68,22,29
8120,2024,32,136,-55,4,30
8125,2048,64,128,-48,-12,30
8130,2040,48,128,-41,-23,25
8135,2024,48,128,-37,-27,22
8140,2016,40,128,-36,-24,21
8145,2024,56,104,-34,-17,20
8150,2032,48,152,-32,-8,19
8155,2008,64,112,-31,1,20
8160,2040,48,112,-25,8,23
8165,2024,56,88,-20,11,26
8170,2000,40,120,-10,11,28
8175,2024,48,104,0,8,28
8180,2032,56,80,13,-2,29
8185,2016,64,96,26,-11,28
8190,2016,56,56,35,-21,27
8195,2008,64,64,39,-32,27
8200,2016,64,88,38,-40,27
8205,2032,72,72,36,-47,29
8210,2024,88,112,30,-50,30
8215,2016,72,80,24,-51,31
8220,2032,64,56,20,-51,32
8225,2032,72,48,16,-49,31
8230,2064,72,72,12,-47,27
8235,2032,80,80,9,-42,24
8240,2048,88,64,7,-40,22
8245,2048,96,48,5,-37,19
8250,2040,64,32,2,-36,17
8255,2056,80,24,-1,-35,16
8260,2056,72,48,-4,-37,15
8265,2064,96,72,-6,-36,15
8270,2080,80,32,-8,-35,17
8275,2088,80,16,-9,-34,16
8280,2080,80,24,-13,-32,18
8285,2080,64,56,-18,-29,20
8290,2064,80,32,-23,-27,23
8295,2096,80,8,-31,-23,24
8300,2096,80,40,-37,-22,23
8305,2080,64,8,-46,-20,23
8310,2080,64,24,-52,-20,21
8315,2088,64,16,-58,-18,15
8320,2104,56,-8,-61,-16,12
8325,2096,64,0,-57,-12,8
8330,2096,40,32,-49,-8,6
8335,2064,80,56,-41,-3,6
8340,2104,40,16,-29,1,8
8345,2080,56,-8,-18,5,14
8350,2088,40,16,-7,10,19
8355,2104,40,0,1,15,22
8360,2112,40,-16,8,19,23
8365,2136,-16,24,13,26,20
8370,2144,-24,-40,18,34,16
8375,2136,-8,-24,21,41,8
8380,2128,-48,-8,29,49,1
8385,2136,-16,8,38,54,-5
8390,2112,0,24,52,59,-6
8395,2088,-16,48,69,56,-6
8400,2080,16,64,89,53,-4
8405,2048,32,48,110,47,1
8410,2008,72,80,128,42,8
8415,2024,40,64,144,37,17
8420,1976,64,48,149,34,24
8425,2008,80,56,144,36,31
8430,2000,88,40,132,41,31
8435,2008,80,8,112,51,29
8440,2000,96,0,87,62,23
8445,2008,72,-32,55,72,17
8450,2040,96,8,21,81,9
8455,2048,96,0,-13,85,0
8460,2024,104,0,-46,86,-8
8465,2040,88,8,-79,83,-14
8470,2040,96,8,-106,81,-21
8475,2040,104,8,-130,79,-23
8480,2040,72,32,-152,77,-24
8485,2040,96,-8,-169,78,-25
8490,2040,64,32,-180,79,-25
8495,2048,72,-16,-188,77,-23
8500,2072,72,-8,-190,77,-22
8505,2056,48,-8,-188,76,-22
8510,2072,32,16,-180,74,-21
8515,2072,56,16,-171,71,-21
8520,2072,24,24,-157,65,-19
8525,2064,64,56,-140,61,-21
8530,2072,48,56,-123,55,-23
8535,2080,48,80,-106,50,-25
8540,2040,64,40,-88,47,-26
8545,2056,72,24,-72,44,-26
8550,2104,64,56,-59,44,-25
8555,2080,72,48,-47,46,-23
8560,2048,64,56,-35,49,-20
8565,2072,64,8,-25,52,-17
8570,2048,80,40,-14,55,-14
8575,2072,64,32,-5,59,-11
8580,2080,48,8,4,60,-9
8585,2072,64,56,13,64,-8
8590,2064,88,0,22,65,-7
8595,2048,88,40,30,65,-8
8600,2064,88,56,37,64,-6
8605,2072,80,72,41,59,-3
8610,2056,96,40,42,54,-1
8615,2048,80,48,40,43,2
8620,2024,112,32,37,31,4
8625,2024,104,32,34,17,6
8630,2008,112,40,27,7,5
8635,2008,88,48,23,-2,4
8640,2016,88,32,21,-8,3
8645,2016,80,8,19,-10,2
8650,2016,88,0,19,-9,2
8655,2032,80,24,17,-6,0
8660,2024,88,24,14,-2,0
8665,1992,88,96,10,4,1
8670,2040,72,16,7,10,0
8675,2040,72,48,-1,13,1
8680,2056,96,24,-9,14,1
8685,2056,96,8,-19,10,2
8690,2040,104,16,-29,3,3
8695,2048,72,64,-41,-7,2
8700,2040,96,48,-54,-21,3
8705,2056,80,32,-65,-37,4
8710,2040,88,56,-76,-54,6
8715,2064,48,112,-83,-69,8
8720,2064,56,40,-87,-83,9
8725,2072,32,24,-84,-97,11
8730,2088,40,40,-75,-115,13
8735,2112,-8,0,-59,-132,14
8740,2088,32,-16,-40,-151,15
8745,2096,32,0,-19,-166,13
8750,2096,24,-8,3,-179,12
8755,2088,40,-48,22,-185,9
8760,2080,32,-96,37,-183,6
8765,2080,64,-64,46,-173,2
8770,2088,56,-80,48,-156,-2
8775,2088,72,-56,43,-134,-2
8780,2080,64,-72,34,-109,-4
8785,2080,88,-104,24,-82,-4
8790,2064,88,-96,17,-60,-3
8795,2088,72,-96,11,-38,2
8800,2096,72,-64,11,-19,7
8805,2064,80,-120,10,-5,11
8810,2056,80,-56,10,8,14
8815,2072,56,-56,13,16,16
8820,2056,72,-40,18,21,19
8825,2072,64,-64,22,22,20
8830,2056,88,-48,20,17,18
8835,2048,80,-56,15,10,15
8840,2056,72,-40,6,3,14
8845,2048,80,-40,-2,-3,15
8850,2040,88,-64,-12,-5,14
8855,2056,104,-104,-25,-5,12
8860,2048,80,-80,-39,-1,12
8865,2032,80,-72,-49,4,12
8870,2040,72,-104,-57,11,15
8875,2048,72,-48,-62,19,16
8880,2120,96,-40,-65,25,17
8885,2048,64,-64,-67,32,18
8890,2032,64,-64,-65,37,19
8895,2040,80,-56,-65,42,16
8900,2032,80,-72,-63,47,12
8905,2048,64,-96,-63,51,8
8910,2048,80,-64,-63,57,5
8915,2040,80,-72,-62,62,4
8920,2048,56,-56,-63,71,3
8925,2048,80,-64,-63,76,2
8930,2048,72,-48,-63,81,4
8935,2056,64,-48,-59,85,5
8940,2056,64,-80,-56,87,5
8945,2056,64,-32,-52,88,6
8950,2072,72,-72,-48,87,5
8955,2056,72,-40,-45,87,1
8960,2056,48,-32,-46,85,-1
8965,2064,72,-40,-47,81,-1
8970,2056,64,-56,-49,77,1
8975,2048,64,-24,-54,73,1
8980,2048,64,-48,-58,70,0
8985,2048,80,-16,-66,67,1
8990,2048,72,-8,-74,62,2
8995,2032,96,-32,-83,56,5
9000,2040,96,-40,-94,49,6
9005,2032,88,-48,-109,44,7
9010,2032,88,-32,-128,38,8
9015,2032,104,-40,-148,34,9
9020,2024,96,-32,-169,26,10
9025,2016,80,-48,-186,19,12
9030,2024,80,-24,-196,11,15
9035,2048,72,0,-203,3,17
9040,2048,88,-56,-203,-4,17
9045,2064,72,-48,-199,-10,18
9050,2064,64,-72,-188,-10,19
9055,2072,40,-72,-173,-4,19
9060,2080,64,-72,-156,5,22
9065,2088,48,-56,-140,12,24
9070,2072,64,-64,-130,18,25
9075,2064,56,-32,-125,23,26
9080,2080,64,-64,-123,25,24
9085,2056,64,0,-125,28,22
9090,2056,64,-40,-131,26,20
9095,2048,96,-72,-140,24,15
9100,2072,64,0,-147,28,11
9105,2080,48,-32,-154,29,9
9110,2088,56,-48,-156,31,8
9115,2080,40,-80,-157,35,10
9120,2096,40,-72,-150,41,11
9125,2080,48,-88,-140,47,14
9130,2080,24,-88,-128,52,15
9135,2064,40,-56,-116,55,14
9140,2040,40,-56,-106,57,13
9145,2056,56,-48,-98,56,13
9150,2056,40,-72,-92,55,14
9155,2056,32,-32,-86,52,13
9160,2048,56,-48,-81,49,11
9165,2048,40,-72,-74,49,10
9170,2048,40,-72,-69,46,10
9175,2064,56,-80,-62,41,9
9180,2088,48,-80,-55,39,7
9185,2048,48,-104,-50,37,4
9190,2032,56,-112,-45,36,2
9195,2040,64,-80,-42,35,-1
9200,2048,48,-72,-41,34,-5
9205,2032,72,-96,-41,36,-7
9210,2040,64,-96,-43,37,-9
9215,2048,80,-48,-46,39,-9
9220,2032,72,-64,-51,42,-8
9225,2056,72,-72,-54,43,-7
9230,2048,48,-104,-56,43,-4
9235,2056,64,-88,-56,42,-1
9240,2064,56,-48,-55,44,1
9245,2048,72,-64,-53,43,3
9250,2048,64,-56,-51,41,5
9255,2056,56,-56,-46,39,6
9260,2048,64,-88,-43,38,3
9265,2088,48,-64,-42,36,1
9270,2072,32,-72,-41,35,-2
9275,2056,64,-80,-43,36,-7
9280,2048,64,-64,-44,38,-9
9285,2040,72,-72,-45,40,-10
9290,2056,72,-72,-47,43,-9
9295,2072,64,-80,-47,43,-7
9300,2048,64,-64,-45,44,-6
9305,2048,40,-72,-41,43,-4
9310,2064,64,-72,-34,43,0
9315,2056,96,-144,-25,45,1
9320,2056,64,-104,-15,48,3
9325,2040,64,-112,-5,52,3
9330,2040,56,-104,3,56,-1
9335,2040,64,-112,6,63,-4
9340,2040,72,-112,5,73,-8
9345,2032,72,-128,2,86,-13
9350,2056,48,-112,-1,96,-15
9355,2048,72,-88,-5,109,-14
9360,2040,64,-80,-6,117,-14
9365,2056,56,-80,-6,124,-13
9370,2040,56,-80,-4,125,-13
9375,2064,64,-56,-3,125,-10
9380,2064,64,-88,-3,121,-10
9385,2056,64,-56,-2,119,-8
9390,2048,32,-48,-4,118,-5
9395,2056,56,-40,-5,117,-4
9400,2056,32,-72,-2,117,-3
9405,2056,24,-24,5,117,-3
9410,2072,16,-64,13,113,-3
9415,2080,8,-80,23,109,-7
9420,2056,32,-80,33,104,-11
9425,2064,-24,-56,39,99,-16
9430,2072,56,-72,43,98,-25
9435,2048,48,-56,48,101,-32
9440,2056,64,-88,51,104,-38
9445,2048,72,-88,51,109,-39
9450,2048,72,-96,51,116,-39
9455,2048,64,-72,52,121,-38
9460,2048,80,-48,54,126,-35
9465,2040,96,-64,59,132,-29
9470,2040,72,-64,62,135,-25
9475,2032,80,-96,57,135,-19
9480,2048,72,-72,53,135,-16
9485,2056,88,-64,45,133,-14
9490,2056,96,-32,38,132,-11
9495,2080,64,-40,31,129,-11
9500,2056,72,-48,25,125,-11
9505,2056,80,-48,18,122,-11
9510,2064,64,-48,15,118,-13
9515,2056,72,-32,14,113,-14
9520,2048,64,-72,15,108,-16
9525,2048,72,-56,14,106,-16
9530,2056,64,-56,14,103,-17
9535,2040,72,-32,14,101,-16
9540,2048,72,-56,15,104,-16
9545,2056,72,-64,15,102,-14
9550,2048,56,-56,13,102,-14
9555,2048,40,-56,13,101,-15
9560,2048,64,-48,12,100,-15
9565,2056,64,-72,12,100,-14
9570,2048,72,-56,13,99,-16
9575,2056,64,-48,12,99,-16
9580,2056,64,-56,11,98,-19
9585,2056,72,-16,13,97,-19
9590,2040,88,-80,13,97,-20
9595,2056,64,-72,15,100,-20
9600,2048,88,-64,14,101,-22
9605,2048,64,-64,14,105,-20
9610,2072,72,-64,15,108,-17
9615,2064,88,-56,14,108,-15
9620,2056,72,-40,13,109,-13
9625,2064,72,-8,11,109,-12
9630,2056,72,-56,10,108,-11
9635,2040,72,-80,11,106,-10
9640,2072,48,-40,10,105,-10
9645,2048,64,-40,9,103,-11
9650,2064,64,-56,9,101,-11
9655,2040,72,-48,7,99,-11
9660,2056,64,-40,5,98,-13
9665,2048,72,-64,5,96,-13
9670,2088,64,-16,4,96,-15
9675,2048,80,-64,5,99,-14
9680,2032,72,-40,8,99,-16
9685,2056,64,-56,10,99,-18
9690,2048,72,-24,12,99,-18
9695,2024,96,-24,14,100,-18
9700,2048,64,-32,12,100,-16
9705,2048,64,-56,10,104,-18
9710,2040,80,-32,8,106,-17
9715,2032,72,-48,5,107,-16
9720,2048,80,-32,4,107,-15
9725,2040,80,-16,4,109,-16
9730,2048,64,-24,5,109,-14
9735,2064,80,-40,7,109,-12
9740,2056,72,-48,7,110,-11
9745,2080,80,-40,8,111,-10
9750,2064,64,-32,8,112,-10
9755,2008,56,-16,7,114,-9
9760,2088,72,-16,5,115,-9
9765,2072,48,-56,2,115,-9
9770,2064,72,-40,2,114,-10
9775,2064,72,-16,3,114,-9
9780,2080,64,-24,5,114,-10
9785,2072,64,-8,8,114,-10
9790,2072,72,0,12,113,-10
9795,2040,80,-32,14,111,-11
9800,2072,72,-48,15,106,-9
9805,2064,80,-40,18,103,-7
9810,2064,64,-8,21,103,-6
9815,2056,80,-72,26,101,-4
9820,2064,72,-32,34,101,-2
9825,2048,80,-16,41,101,-2
9830,2080,48,-24,47,102,-2
9835,2080,64,-32,51,101,-3
9840,2040,80,-32,52,102,-5
9845,2072,64,-24,52,103,-7
9850,2056,72,-24,51,106,-7
9855,2048,72,-40,50,108,-6
9860,2024,80,-24,46,109,-8
9865,2056,64,-8,39,111,-8
9870,2064,64,-32,32,109,-8
9875,2072,72,-8,27,109,-9
9880,2048,64,8,24,109,-10
9885,2056,56,-24,22,110,-9
9890,2048,64,-16,21,111,-12
9895,2056,64,-8,20,110,-15
9900,2064,72,-16,20,110,-15
9905,2048,72,-24,20,110,-16
9910,2056,72,-32,18,111,-18
9915,2056,72,-16,17,111,-18
9920,2056,72,-32,20,116,-17
9925,2048,80,-16,24,120,-16
9930,2056,80,-40,21,121,-15
9935,2072,80,-16,20,123,-12
9940,2048,72,-32,18,124,-11
9945,2048,64,-24,15,124,-9
9950,2048,64,-24,11,125,-8
9955,2064,72,-8,9,124,-9
9960,2072,72,8,7,123,-12
9965,2056,80,16,5,122,-14
9970,2128,0,16,7,121,-16
9975,2040,72,8,9,120,-19
9980,2064,64,-24,7,119,-20
9985,2056,64,0,7,117,-21
9990,2064,80,-24,4,116,-18
9995,2048,96,0,3,116,-16
10000,2040,72,-8,4,113,-14
10005,2064,64,-16,9,110,-12
10010,2056,72,0,11,104,-15
10015,2072,88,8,16,101,-15
10020,2088,80,24,21,101,-15
10025,2048,80,-16,26,100,-16
10030,2072,72,-16,31,106,-18
10035,2048,88,0,35,112,-19
10040,2048,72,-16,38,119,-20
10045,2072,64,8,42,125,-22
10050,2064,48,0,45,130,-24
10055,2048,72,8,48,136,-24
10060,2048,72,32,50,137,-21
10065,2048,72,-8,50,137,-21
10070,2040,72,16,49,137,-19
10075,2048,80,40,46,135,-19
10080,2024,80,16,41,130,-18
10085,2040,72,32,32,125,-16
10090,2040,72,24,24,121,-16
10095,2040,72,32,14,115,-15
10100,2016,72,56,5,113,-13
10105,2040,72,40,-1,108,-13
10110,2048,80,56,-3,104,-10
10115,2040,48,24,-2,100,-12
10120,2048,72,56,3,95,-12
10125,2048,80,40,8,90,-15
10130,2064,72,-8,15,89,-15
10135,2056,72,24,21,89,-16
10140,2064,64,24,29,89,-18
10145,2048,80,24,32,88,-19
10150,2072,72,16,36,90,-18
10155,2048,80,24,40,88,-18
10160,2056,88,8,44,84,-17
10165,2048,80,8,49,81,-15
10170,2056,64,32,55,79,-13
10175,2072,80,40,61,76,-11
10180,2048,72,8,69,72,-8
10185,2064,104,8,74,67,-6
10190,2056,88,8,77,64,-3
10195,2056,64,8,79,56,-3
10200,2056,88,16,80,51,-5
10205,2048,88,40,78,46,-5
10210,2056,88,0,75,41,-9
10215,2064,80,-8,71,37,-12
10220,2064,80,0,68,36,-13
10225,2048,88,8,66,37,-16
10230,2056,88,-24,63,39,-15
10235,2056,88,-16,58,44,-13
10240,2056,96,-40,54,52,-13
10245,2056,96,0,48,58,-11
10250,2056,88,-16,44,64,-10
10255,2064,96,-24,38,71,-8
10260,2056,96,-32,31,76,-6
10265,2056,96,-16,23,81,-4
10270,2056,96,-32,17,85,-3
10275,2048,80,24,13,86,-4
10280,2072,96,8,9,87,-2
10285,2056,72,-8,8,88,-3
10290,2056,64,-16,10,88,-3
10295,2048,56,0,13,86,-5
10300,2064,72,0,18,84,-4
10305,2064,72,-16,22,81,-5
10310,2056,88,24,27,82,-5
10315,2056,72,8,31,82,-7
10320,2040,72,8,34,84,-6
10325,2056,80,16,35,86,-6
10330,2056,72,16,37,85,-6
10335,2056,80,-24,37,83,-8
10340,2064,80,8,36,83,-6
10345,2032,88,-40,35,82,-6
10350,2080,72,8,32,82,-6
10355,2048,72,-8,27,83,-6
10360,2056,72,8,24,83,-8
10365,2056,64,-16,24,83,-10
10370,2056,88,-8,23,86,-14
10375,2048,64,-24,24,88,-17
10380,2040,88,0,24,89,-19
10385,2032,96,16,24,93,-20
10390,2032,88,8,22,96,-23
10395,2040,80,0,20,99,-21
10400,2040,88,-8,17,105,-20
10405,2048,64,8,11,108,-18
10410,2048,104,32,6,109,-17
10415,2040,104,24,-1,110,-14
10420,2056,80,32,-9,108,-14
10425,2056,96,8,-14,107,-12
10430,2064,88,16,-20,101,-12
10435,2048,104,64,-22,97,-12
10440,2072,72,40,-22,93,-13
10445,2088,64,16,-21,88,-13
10450,2056,72,8,-19,86,-14
10455,2072,80,56,-14,84,-13
10460,2056,64,8,-11,81,-12
10465,2056,96,24,-5,76,-12
10470,2048,88,0,0,74,-11
10475,2048,88,40,3,72,-9
10480,2048,88,32,5,70,-8
10485,2048,96,-8,3,68,-9
10490,2048,104,24,-2,69,-9
10495,2056,104,32,-7,73,-8
10500,2048,96,-8,-12,73,-7
10505,2056,80,24,-19,75,-7
10510,2064,72,0,-22,77,-7
10515,2024,80,0,-24,76,-8
10520,2072,80,40,-23,74,-8
10525,2072,80,8,-21,71,-6
10530,2056,104,40,-18,68,-6
10535,2056,72,-8,-13,64,-5
10540,2048,96,0,-7,62,-5
10545,2064,64,32,-2,60,-3
10550,2032,104,0,0,58,-6
10555,2048,104,16,3,56,-3
10560,2048,80,16,4,56,-2
10565,2048,72,48,3,59,-3
10570,2056,88,8,2,62,-3
10575,2056,80,16,0,67,-4
10580,2048,80,0,-2,71,-5
10585,2064,80,0,-2,74,-4
10590,2056,112,40,-3,78,-7
10595,2048,96,0,-1,79,-7
10600,2072,72,24,-2,80,-9
10605,2056,88,16,0,80,-7
10610,2072,80,16,-1,77,-7
10615,2056,96,-16,-2,76,-5
10620,2048,112,0,-4,75,-6
10625,2056,96,32,-6,75,-5
10630,2056,80,72,-8,74,-4
10635,2048,88,0,-10,73,-3
10640,2040,80,40,-13,74,-4
10645,2064,64,0,-15,73,-3
10650,2064,96,32,-15,73,0
10655,2056,80,24,-13,74,0
10660,2056,88,24,-12,75,-2
10665,2080,56,16,-10,77,-2
10670,2056,96,16,-6,77,-3
10675,2040,88,-16,-5,78,-5
10680,2056,72,0,-3,79,-7
10685,2048,80,16,-1,80,-8
10690,2048,72,-8,-1,81,-11
10695,2048,104,16,-2,84,-13
10700,2056,88,24,-5,85,-13
10705,2064,88,16,-9,88,-12
10710,2048,96,0,-12,91,-9
10715,2056,72,32,-14,94,-6
10720,2056,80,0,-15,96,-5
10725,2056,64,32,-15,96,-5
10730,2056,56,24,-13,91,-2
10735,2056,80,8,-5,86,0
10740,2056,56,32,2,83,-1
10745,2040,80,8,9,78,-4
10750,2056,72,16,18,73,-5
10755,2056,80,16,25,69,-8
10760,2040,96,8,30,68,-11
10765,2048,72,8,31,65,-15
10770,2056,88,8,30,67,-14
10775,2040,104,8,25,68,-14
10780,2064,80,0,20,72,-12
10785,2064,80,-32,15,77,-10
10790,2056,72,40,12,81,-10
10795,2048,96,8,13,84,-11
10800,2064,72,-16,15,85,-14
10805,2048,104,16,20,86,-16
10810,2048,88,32,25,86,-19
10815,2056,80,0,31,88,-21
10820,2064,88,40,34,90,-23
10825,2072,80,24,38,95,-24
10830,2056,88,16,39,100,-23
10835,2056,80,24,39,106,-25
10840,2072,72,16,41,112,-25
10845,2056,80,88,42,117,-24
10850,2064,88,32,42,121,-23
10855,2048,72,0,40,125,-23
10860,2056,72,8,38,124,-20
10865,2056,88,40,35,122,-19
10870,2048,96,40,27,120,-17
10875,2048,104,64,17,119,-17
10880,2056,104,32,6,115,-16
10885,2032,120,24,-4,115,-15
10890,2048,88,72,-12,112,-14
10895,2032,104,56,-15,109,-13
10900,2024,88,72,-15,104,-14
10905,2048,88,56,-14,100,-15
10910,2040,104,64,-11,95,-15
10915,2056,104,56,-10,91,-16
10920,2072,88,40,-9,88,-17
10925,2048,96,16,-11,86,-18
10930,2056,96,48,-17,85,-18
10935,2072,96,72,-25,84,-17
10940,2048,112,48,-34,81,-16
10945,2048,120,72,-42,81,-13
10950,2056,112,64,-50,80,-10
10955,2056,104,56,-56,75,-9
10960,2048,120,24,-62,72,-7
10965,2056,104,56,-64,69,-6
10970,2032,120,64,-64,63,-2
10975,2048,120,40,-65,57,-1
10980,2064,112,48,-65,51,2
10985,2064,80,56,-66,45,2
10990,2064,80,48,-67,38,4
10995,2064,88,72,-70,30,3
11000,2056,104,56,-71,23,2
11005,2048,88,40,-72,19,3
11010,2056,88,72,-73,14,4
11015,2048,96,32,-71,11,5
11020,2048,104,48,-71,10,6
11025,2064,72,40,-70,10,6
11030,2048,72,48,-69,12,8
11035,2048,120,8,-66,14,8
11040,2040,96,16,-63,16,10
11045,2040,104,16,-60,20,9
11050,2072,80,48,-58,24,9
11055,2040,88,16,-56,27,11
11060,2080,96,-24,-55,30,10
11065,2056,80,48,-53,33,9
11070,2048,96,16,-56,34,7
11075,2056,96,32,-59,37,6
11080,2056,72,32,-60,38,6
11085,2064,88,32,-65,40,6
11090,2048,96,32,-68,39,4
11095,2040,88,48,-70,41,2
11100,2048,104,16,-71,41,2
11105,2048,96,24,-71,40,3
11110,2064,104,80,-73,40,5
11115,2048,80,24,-73,38,7
11120,2048,104,24,-74,37,8
11125,2040,96,40,-75,34,8
11130,2048,120,24,-81,32,10
11135,2064,96,-16,-87,31,9
11140,2064,112,0,-98,28,12
11145,2080,120,8,-109,26,13
11150,2072,104,-16,-118,28,16
11155,2088,96,8,-125,26,17
11160,2064,88,40,-129,28,19
11165,2064,80,32,-128,26,21
11170,2064,72,40,-126,24,21
11175,2040,88,40,-122,21,21
11180,2032,72,24,-118,17,22
11185,2040,96,16,-114,12,23
11190,2056,80,56,-111,7,22
11195,2032,64,40,-109,6,21
11200,2048,56,48,-107,2,18
11205,2024,80,56,-105,2,17
11210,2056,88,32,-105,-1,16
11215,2040,80,32,-102,1,14
11220,2064,64,56,-101,0,10
11225,2056,64,48,-98,1,6
11230,2056,96,24,-93,5,6
11235,2064,96,16,-87,5,5
11240,2056,72,32,-80,5,6
11245,2040,96,-8,-74,1,9
11250,2056,80,0,-69,0,12
11255,2056,72,-8,-67,-4,15
11260,2064,80,0,-67,-8,16
11265,2032,80,-8,-68,-11,17
11270,2056,88,-8,-69,-13,16
11275,2064,56,-24,-73,-14,15
11280,2032,104,-8,-76,-14,14
11285,2056,88,16,-80,-11,12
11290,2072,80,-16,-86,-7,11
11295,2048,72,0,-88,-6,11
11300,2072,80,-8,-88,-4,10
11305,2056,80,-32,-88,-3,10
11310,2056,64,-8,-83,0,11
11315,2056,80,-16,-78,0,13
11320,2056,88,-24,-72,-3,14
11325,2056,80,-24,-66,-5,16
11330,2064,72,-16,-57,-6,15
11335,2072,64,-32,-50,-9,16
11340,2056,72,-24,-45,-10,16
11345,2072,72,0,-39,-10,15
11350,2072,72,8,-37,-10,13
11355,2056,88,0,-35,-9,14
11360,2040,72,-8,-34,-7,13
11365,2032,72,-32,-32,-2,13
11370,2056,72,-8,-29,3,11
11375,2056,88,0,-29,7,12
11380,2048,88,0,-28,10,13
11385,2048,120,-16,-28,13,12
11390,2056,64,-8,-29,14,13
11395,2064,104,-32,-28,14,14
11400,2040,80,-8,-28,13,16
11405,2072,88,-8,-28,11,15
11410,2040,96,-8,-27,12,13
11415,2056,88,-8,-27,10,13
11420,2048,72,0,-27,9,13
11425,2072,72,-8,-25,9,15
11430,2048,72,-32,-24,11,15
11435,2056,88,-32,-23,10,14
11440,2048,80,-48,-22,11,15
11445,2048,80,-32,-23,10,14
11450,2048,56,-56,-21,11,15
11455,2056,64,-16,-20,14,15
11460,2064,72,-88,-18,17,14
11465,2064,64,-32,-18,19,13
11470,2040,64,-64,-17,19,12
11475,2056,88,-32,-15,21,11
11480,2056,48,-32,-15,23,10
11485,2056,88,-24,-14,27,7
11490,2080,64,-24,-15,31,4
11495,2040,96,-72,-17,37,4
11500,2048,72,-40,-19,43,3
11505,2056,72,-48,-23,47,3
11510,2048,64,-80,-27,51,3
11515,2048,80,-24,-28,51,4
11520,2080,56,-72,-31,53,8
11525,2056,64,-48,-32,51,11
11530,2072,64,-24,-31,48,12
11535,2056,64,-40,-28,45,12
11540,2056,56,-56,-22,41,12
11545,2056,72,-32,-15,38,12
11550,2056,72,-72,-7,36,10
11555,2040,72,-32,-1,34,5
11560,2064,64,-32,3,35,1
11565,2040,64,-56,5,36,0
11570,2048,72,-40,5,38,0
11575,2048,72,-48,2,39,0
11580,2056,64,-24,-1,42,5
11585,2056,72,-32,-1,41,7
11590,2048,72,-32,1,40,9
11595,2040,88,-56,3,37,11
11600,2056,72,-40,6,34,9
11605,2112,104,-32,9,34,5
11610,2072,80,-96,12,33,3
11615,2048,88,-88,13,36,0
11620,2048,72,-56,11,42,-3
11625,2048,80,-48,4,49,-5
11630,2056,96,-56,-4,61,-6
11635,2048,104,-40,-11,69,-5
11640,2048,80,-24,-18,76,-1
11645,2056,88,-24,-23,81,2
11650,2032,88,-16,-29,81,7
11655,2056,88,-32,-32,74,11
11660,2032,88,-16,-35,69,15
11665,2048,72,-8,-39,61,18
11670,2072,72,-16,-43,53,20
11675,2048,88,0,-49,46,21
11680,2048,72,16,-54,36,23
11685,2056,72,8,-59,29,24
11690,2064,64,-8,-67,21,21
11695,2064,56,-32,-71,17,20
11700,2088,40,-16,-70,12,18
11705,2056,64,-24,-61,14,13
11710,2080,48,-16,-49,10,10
11715,2056,56,-32,-41,5,8
11720,2040,48,-40,-35,-3,7
11725,2056,64,-48,-31,-8,2
11730,2064,72,-96,-28,-8,-3
11735,2064,72,-80,-24,-1,-6
11740,2024,88,-88,-25,6,-6
11745,2048,64,-88,-28,12,-4
11750,2048,64,-112,-30,17,-2
11755,2048,64,-56,-28,21,-1
11760,2056,72,-48,-26,26,0
11765,2048,72,-72,-23,31,2
11770,2056,72,-64,-22,34,1
11775,2048,72,-72,-20,37,3
11780,2032,112,-72,-20,37,4
11785,2048,80,-72,-20,39,7
11790,2064,80,-56,-22,37,9
11795,2072,72,-56,-24,35,10
11800,2056,96,-64,-27,32,11
11805,2064,80,-48,-30,29,10
11810,2064,64,-40,-31,25,10
11815,2056,80,-56,-33,22,10
11820,2040,64,-40,-33,21,11
11825,1992,96,-96,-33,22,11
11830,2072,88,-56,-32,21,10
11835,2072,64,-64,-31,25,10
11840,2056,72,-80,-30,25,10
11845,2064,72,-56,-28,28,12
11850,2040,72,-80,-26,30,12
11855,2080,64,-80,-24,29,12
11860,2040,72,-80,-19,33,13
11865,2064,72,-56,-16,35,15
11870,2072,64,-80,-14,35,15
11875,2072,64,-80,-13,35,14
11880,2040,64,-88,-13,37,14
11885,2048,64,-80,-13,37,11
11890,2056,64,-64,-14,37,5
11895,2056,88,-80,-14,39,4
11900,2048,72,-96,-15,41,2
11905,2064,64,-64,-17,45,1
11910,2040,64,-72,-19,48,1
11915,2056,80,-64,-19,53,-1
11920,2040,96,-88,-20,56,0
11925,2072,72,-88,-19,58,1
11930,2040,64,-88,-18,59,2
11935,2064,48,-72,-17,61,2
11940,2056,64,-80,-18,60,3
11945,2048,56,-48,-18,61,3
11950,2056,56,-64,-18,60,4
11955,2072,72,-48,-17,60,4
11960,2072,64,-56,-18,60,3
11965,2040,72,-64,-15,59,1
11970,2056,64,-64,-16,59,-1
11975,2048,64,-80,-15,60,-5
11980,2040,64,-88,-14,60,-6
11985,2040,64,-80,-13,61,-9
11990,2040,64,-80,-13,63,-10
11995,2040,48,-56,-15,65,-10
12000,2048,48,-112,-15,69,-12
12005,2056,80,-72,-15,72,-11
12010,2040,72,-56,-15,73,-14
12015,2048,72,-72,-15,75,-15
12020,2048,64,-48,-15,78,-15
12025,2056,64,-56,-16,80,-14
12030,2064,64,-72,-17,84,-12
12035,2040,72,-88,-17,87,-10
12040,2040,96,-64,-17,88,-9
12045,2048,64,-40,-17,89,-9
12050,2048,72,-40,-16,87,-10
12055,2056,72,-48,-14,86,-9
12060,2056,80,-56,-15,85,-12
12065,2064,64,-80,-14,83,-12
12070,2072,64,-72,-14,83,-12
12075,2088,40,-56,-15,82,-11
12080,2064,88,-64,-16,84,-12
12085,2056,72,-112,-17,81,-11
12090,2080,64,-56,-16,78,-13
12095,2056,64,-56,-14,77,-11
12100,2056,72,-56,-11,76,-10
12105,2056,72,-64,-10,75,-9
12110,2064,64,-64,-8,73,-8
12115,2056,80,-88,-5,74,-9
12120,2048,80,-80,-4,74,-8
12125,2056,88,-72,-3,75,-9
12130,2056,64,-72,-3,78,-9
12135,2048,80,-96,-2,82,-8
12140,2040,96,-88,-4,86,-8
12145,2032,88,-72,-4,91,-6
12150,2040,80,-112,-4,96,-7
12155,2056,72,-88,-4,99,-7
12160,2080,56,-104,-4,102,-7
12165,2072,64,-80,-5,105,-6
12170,2064,72,-40,-4,108,-5
12175,2064,72,-56,-2,109,-4
12180,2048,64,-48,-1,111,-4
12185,2056,80,-72,1,110,-5
12190,2064,80,-56,1,109,-4
12195,2056,80,-56,2,111,-4
12200,2056,72,-56,2,112,-4
12205,2056,56,-56,-1,115,-5
12210,2056,72,-72,-4,119,-5
12215,2056,72,-72,-7,120,-5
12220,2064,72,-88,-8,124,-5
12225,2056,64,-56,-10,125,-4
12230,2056,72,-72,-13,126,-1
12235,2056,72,-48,-11,127,0
12240,2056,72,-80,-9,127,2
12245,2064,64,-72,-7,124,4
12250,2064,64,-72,-5,120,4
12255,2088,120,-88,-2,118,4
12260,2056,64,-56,2,114,1
12265,2064,64,-80,2,112,0
12270,2040,72,-48,3,111,-2
12275,2048,56,-40,1,110,-6
12280,2064,64,-56,-1,111,-7
12285,2056,64,-64,-3,111,-9
12290,2056,64,-40,-5,113,-9
12295,2064,64,-64,-5,117,-8
12300,2064,64,-48,-5,116,-6
12305,2056,64,-56,-2,120,-7
12310,2040,64,-48,1,119,-7
12315,2072,64,-56,5,119,-11
12320,2056,64,-88,7,121,-13
12325,2056,56,-40,10,124,-15
12330,2072,64,-56,11,128,-18
12335,2064,72,-56,10,134,-17
12340,2056,88,-72,9,140,-17
12345,2064,72,-64,6,146,-19
12350,2056,80,-40,5,153,-17
12355,2048,72,-56,5,158,-16
12360,2024,72,-16,8,160,-15
12365,2048,72,-40,9,160,-15
12370,2056,64,-32,9,157,-12
12375,2048,80,-48,9,154,-11
12380,2056,64,-8,7,150,-12
12385,2040,72,-40,1,145,-13
12390,2048,80,-40,-6,141,-14
12395,2040,80,8,-12,138,-15
12400,2048,104,-8,-17,135,-14
12405,2024,96,-8,-20,130,-13
12410,2056,80,-24,-20,126,-14
12415,2056,80,-24,-18,119,-14
12420,2064,72,-16,-14,113,-13
12425,2056,64,-8,-10,105,-11
12430,2064,48,0,-7,98,-10
12435,2056,64,-32,-2,95,-10
12440,2048,72,0,-2,93,-10
12445,2056,64,-24,-2,91,-9
12450,2048,64,-40,-3,94,-8
12455,2040,80,-32,-4,94,-8
12460,2048,64,-16,-5,94,-9
12465,2064,64,-40,-2,93,-9
12470,2048,56,-48,0,94,-11
12475,2064,80,-40,3,95,-12
12480,2056,80,-40,6,95,-17
12485,2048,64,-40,7,94,-18
12490,2040,88,-32,9,97,-19
12495,2056,88,-40,11,98,-19
12500,2032,80,-16,12,100,-18
12505,2064,72,-32,12,99,-17
12510,2048,80,-40,11,100,-16
12515,2048,96,-8,11,101,-14
12520,2056,96,-16,12,101,-15
12525,2056,72,-8,13,101,-13
12530,2048,96,-40,12,101,-13
12535,2048,64,-40,13,102,-12
12540,2040,104,-24,13,102,-10
12545,2040,88,-24,9,104,-10
12550,2056,96,0,8,102,-9
12555,2056,72,-24,5,100,-7
12560,2056,72,-16,5,102,-6
12565,2056,80,-24,3,102,-6
12570,2048,72,-8,3,103,-6
12575,2040,80,-8,4,104,-6
12580,2056,72,-16,4,104,-4
12585,2040,88,-56,4,103,-4
12590,2048,64,-24,4,103,-5
12595,2032,96,-24,4,102,-4
12600,2056,72,-8,5,102,-4
12605,2064,72,-24,5,98,-7
12610,2056,88,-8,6,100,-8
12615,2048,72,0,6,99,-7
12620,2080,72,8,6,101,-7
12625,2064,72,-16,4,102,-8
12630,2056,96,0,1,103,-8
12635,2096,64,-40,-1,106,-6
12640,2064,88,-48,-5,104,-5
12645,2072,64,24,-7,105,-6
12650,2056,80,-16,-9,103,-5
12655,2040,80,0,-8,101,-4
12660,2064,72,-8,-7,97,-4
12665,2056,72,24,-6,94,-4
12670,2072,64,0,-5,92,-6
12675,2040,72,-8,-2,91,-9
12680,2048,64,-8,1,89,-9
12685,2048,88,0,5,89,-12
12690,2040,72,8,9,90,-14
12695,2056,72,-8,12,90,-15
12700,2032,80,-48,13,93,-15
12705,2056,72,24,12,94,-14
12710,2056,64,8,13,97,-14
12715,2056,72,16,9,98,-13
12720,2040,64,0,6,101,-13
12725,2040,80,32,2,103,-14
12730,2056,72,0,-2,105,-14
12735,2064,80,-16,-3,105,-15
12740,2048,72,-8,-3,107,-13
12745,2072,80,24,-3,106,-13
12750,2088,64,-16,-2,104,-13
12755,2072,80,16,-2,100,-13
12760,2056,96,0,-2,100,-11
12765,2064,88,-16,-1,98,-10
12770,2072,88,0,1,95,-9
12775,2048,88,16,0,91,-9
12780,2064,88,8,-2,89,-10
12785,2072,64,0,-4,87,-10
12790,2056,96,0,-7,87,-11
12795,2048,96,16,-10,89,-11
12800,2064,72,-24,-16,91,-12
12805,2024,80,-64,-20,91,-11
12810,2072,88,-8,-23,92,-12
12815,2072,72,16,-27,95,-10
12820,2064,72,-8,-27,95,-10
12825,2056,88,-8,-25,95,-9
12830,2064,72,16,-22,95,-9
12835,2056,72,8,-17,95,-9
12840,2056,72,0,-12,94,-8
12845,2048,88,8,-6,95,-7
12850,2048,96,16,-3,94,-5
12855,2072,80,0,0,94,-7
12860,2032,80,-32,3,95,-7
12865,2072,80,-8,3,98,-7
12870,2064,72,-8,3,98,-8
12875,2064,88,-8,2,99,-9
12880,2048,64,-16,1,101,-9
12885,2064,88,32,1,101,-9
12890,2048,80,16,0,102,-9
12895,2056,88,16,0,102,-10
12900,2048,88,32,1,102,-9
12905,2056,88,32,1,98,-8
12910,2064,104,-8,3,99,-7
12915,2048,88,32,1,97,-8
12920,2048,104,8,0,96,-7
12925,2056,80,24,-2,94,-7
12930,2056,72,16,-2,93,-7
12935,2064,88,16,-5,95,-9
12940,2064,80,24,-8,93,-7
12945,2048,88,0,-10,94,-5
12950,2048,64,-8,-12,93,-5
12955,2056,88,40,-14,93,-3
12960,2048,64,8,-14,92,-3
12965,2072,64,40,-13,90,-2
12970,2048,80,48,-9,89,-1
12975,2048,80,8,-7,87,-3
12980,2056,72,8,-4,85,-4
12985,2048,80,48,0,83,-6
12990,2056,88,-16,4,81,-6
12995,2056,72,32,8,80,-7
13000,2056,88,32,11,79,-8
13005,2064,80,-8,13,80,-9
13010,2048,88,32,14,81,-12
13015,2048,72,16,10,83,-11
13020,2056,104,-8,5,86,-10
13025,2048,104,16,-1,89,-9
13030,2056,80,16,-12,92,-7
13035,2056,80,24,-18,93,-6
13040,2064,88,48,-24,93,-4
13045,2056,80,16,-28,91,-1
13050,2056,72,32,-30,88,-3
13055,2048,72,56,-30,84,-3
13060,2072,80,24,-27,81,-2
13065,2048,64,40,-26,78,-4
13070,2056,80,24,-20,74,-2
13075,2048,64,48,-17,69,-4
13080,2048,96,8,-13,68,-5
13085,2048,80,0,-11,66,-5
13090,2056,64,-8,-13,66,-4
13095,2048,80,0,-12,65,-3
13100,2048,72,16,-12,65,-1
13105,2048,88,16,-8,65,-2
13110,2056,56,-16,-1,65,-2
13115,2048,72,0,7,66,-4
13120,2048,80,-8,16,66,-7
13125,2048,80,0,26,68,-10
13130,2048,16,48,35,73,-11
13135,2048,72,16,41,80,-12
13140,2048,88,0,44,87,-14
13145,2056,80,-8,46,97,-12
13150,2064,72,-16,44,104,-13
13155,2056,72,0,44,112,-12
13160,2064,72,-16,43,119,-10
13165,2072,80,24,40,122,-7
13170,2064,96,24,38,122,-7
13175,2056,96,32,36,121,-7
13180,2072,88,32,33,117,-6
13185,2040,96,40,30,113,-7
13190,2040,88,56,28,109,-7
13195,2048,88,40,24,104,-5
13200,2056,80,16,19,100,-5
13205,2040,88,48,15,97,-4
13210,2048,72,48,14,97,-4
13215,2048,72,48,16,96,-6
13220,2040,64,-8,20,95,-6
13225,2056,80,40,25,94,-9
13230,2072,64,24,33,91,-13
13235,2056,72,40,39,92,-14
13240,2064,80,8,44,93,-17
13245,2072,80,8,44,98,-19
13250,2064,96,32,44,103,-21
13255,2048,88,24,38,106,-22
13260,2048,104,32,34,110,-23
13265,2048,80,8,28,112,-22
13270,2080,88,24,21,115,-20
13275,2040,120,24,16,115,-17
13280,2048,104,-8,9,113,-14
13285,2056,112,24,4,110,-11
13290,2056,104,40,-1,108,-7
13295,2056,96,16,-5,106,-7
13300,2064,96,40,-13,104,-7
13305,2048,88,56,-17,102,-6
13310,2048,72,48,-20,100,-9
13315,2048,96,72,-23,97,-10
13320,2056,72,8,-24,94,-10
13325,2048,72,32,-23,93,-13
13330,2064,88,48,-21,89,-15
13335,2040,80,64,-17,88,-15
13340,2040,80,48,-10,86,-15
13345,2048,96,32,-4,88,-13
13350,2056,104,104,3,88,-11
13355,2032,72,48,8,88,-11
13360,2064,80,24,13,90,-11
13365,2088,88,32,16,93,-10
13370,2048,80,40,19,96,-9
13375,2080,72,32,22,99,-9
13380,2056,88,48,21,102,-9
13385,2056,96,40,20,106,-10
13390,2056,72,48,20,108,-12
13395,2048,72,56,20,110,-11
13400,2072,88,48,22,111,-12
13405,2072,80,48,20,110,-15
13410,2072,88,24,20,108,-15
13415,2056,112,48,20,107,-14
13420,2048,72,40,17,104,-15
13425,2048,112,40,15,105,-15
13430,2056,112,40,12,104,-13
13435,2048,104,56,12,102,-12
13440,2064,88,16,9,100,-11
13445,2064,88,56,8,98,-8
13450,2056,104,48,6,96,-8
13455,2064,120,16,3,94,-5
13460,2072,96,56,1,93,-3
13465,2040,80,32,-2,92,-4
13470,2048,88,32,-4,90,-5
13475,2064,88,40,-4,90,-8
13480,2048,88,48,-1,89,-10
13485,2072,72,48,3,91,-14
13490,2040,88,48,6,94,-17
13495,2056,96,64,11,95,-20
13500,2048,96,96,15,100,-20
13505,2048,72,56,18,102,-20
13510,2032,80,64,19,104,-18
13515,2032,88,56,20,104,-16
13520,2056,80,72,17,106,-15
13525,2048,80,80,14,107,-16
13530,2048,96,80,10,107,-13
13535,2048,80,56,7,107,-13
13540,2064,104,48,5,103,-14
13545,2064,80,40,1,101,-13
13550,2064,72,56,-1,96,-14
13555,2088,96,64,-2,91,-14
13560,2048,96,72,-1,87,-13
13565,2056,88,48,-2,83,-13
13570,2056,96,48,-2,80,-12
13575,2048,112,48,-1,78,-13
13580,2064,104,72,0,75,-12
13585,2064,104,104,1,75,-13
13590,2056,112,72,3,74,-12
13595,2040,104,72,4,74,-13
13600,2048,88,32,6,74,-12
13605,2048,96,48,6,75,-14
13610,2048,104,72,7,75,-13
13615,2056,72,56,7,76,-12
13620,2056,104,88,6,78,-12
13625,2040,88,72,5,80,-12
13630,2048,96,48,6,82,-10
13635,2056,96,24,5,82,-9
13640,2048,96,72,7,84,-8
13645,2056,120,32,7,84,-7
13650,2032,88,40,8,83,-10
13655,2064,88,88,9,81,-8
13660,2048,104,40,11,80,-8
13665,2072,80,24,10,79,-9
13670,2072,72,40,11,77,-7
13675,2056,80,-24,10,76,-8
13680,2048,96,40,10,78,-9
13685,2056,112,56,7,78,-10
13690,2040,120,72,8,80,-10
13695,2032,88,56,6,81,-10
13700,2056,104,56,7,81,-9
13705,2048,96,64,6,81,-9
13710,2056,96,72,7,82,-8
13715,2064,96,72,5,81,-8
13720,2064,96,40,4,80,-6
13725,2064,96,88,1,78,-4
13730,2048,104,56,-1,75,-5
13735,2056,96,64,-3,75,-3
13740,2056,88,64,-6,73,-4
13745,2048,88,48,-6,72,-5
13750,2056,96,56,-9,72,-4
13755,2048,72,48,-10,71,-4
13760,2048,80,96,-9,72,-4
13765,2064,88,80,-8,72,-6
13770,2048,96,40,-7,72,-5
13775,2048,104,64,-4,73,-6
13780,2032,96,88,-2,72,-7
13785,2080,88,40,2,72,-6
13790,2032,104,56,4,72,-5
13795,2048,96,56,6,71,-5
13800,2040,88,48,7,70,-6
13805,2048,88,56,6,71,-6
13810,2056,104,56,4,70,-5
13815,2048,88,64,2,70,-5
13820,2056,88,48,-2,71,-5
13825,2040,88,64,-5,72,-6
13830,2056,120,56,-7,71,-7
13835,2048,96,48,-9,72,-6
13840,2048,104,72,-10,72,-8
13845,2040,104,40,-11,73,-7
13850,2056,104,40,-12,72,-6
13855,2056,88,56,-13,71,-5
13860,2032,104,56,-14,71,-7
13865,2056,112,64,-18,71,-6
13870,2072,96,64,-24,72,-6
13875,2040,88,72,-29,70,-5
13880,2056,96,64,-34,71,-3
13885,2064,96,72,-38,71,-2
13890,2056,112,56,-41,70,1
13895,2040,152,104,-43,65,0
13900,2040,104,72,-43,65,-1
13905,2064,104,72,-41,61,-2
13910,2056,120,64,-37,58,-4
13915,2032,96,48,-34,57,-6
13920,2040,112,80,-32,53,-6
13925,2048,104,72,-29,53,-9
13930,2040,96,48,-30,54,-9
13935,2040,112,64,-34,55,-8
13940,2048,104,80,-40,58,-5
13945,2056,104,32,-49,61,0
13950,2064,96,56,-55,62,3
13955,2072,96,48,-57,60,4
13960,2056,104,80,-56,55,7
13965,2064,104,72,-51,49,7
13970,2056,96,72,-46,42,5
13975,2032,112,64,-40,33,4
13980,2056,104,48,-35,28,2
13985,2056,112,64,-35,23,3
13990,2064,96,32,-36,23,3
13995,2056,104,64,-38,23,5
14000,2040,88,32,-42,26,6
14005,2064,88,56,-45,30,7
14010,2056,88,72,-45,33,7
14015,2056,80,40,-45,36,9
14020,2040,72,48,-44,35,8
14025,2048,104,48,-40,35,7
14030,2048,104,64,-37,34,8
14035,2040,96,88,-35,32,9
14040,2040,88,40,-34,30,6
14045,2048,80,32,-35,30,6
14050,2048,96,64,-33,31,8
14055,2040,88,48,-35,32,8
14060,2056,64,40,-32,35,10
14065,2056,104,32,-30,38,7
14070,2048,104,56,-27,41,7
14075,2040,88,48,-24,43,6
14080,2048,88,16,-20,44,6
14085,2048,96,56,-20,44,5
14090,2064,80,40,-21,43,3
14095,2080,104,48,-26,43,1
14100,2040,112,48,-33,42,2
14105,2072,112,32,-40,47,1
14110,2024,96,48,-50,47,4
14115,2056,112,56,-56,51,4
14120,2040,128,40,-63,53,4
14125,2048,96,32,-66,53,6
14130,2056,120,40,-68,50,8
14135,2056,96,56,-70,47,9
14140,2048,88,24,-71,44,11
14145,2048,96,48,-73,39,12
14150,2056,104,56,-73,36,12
14155,2048,88,56,-74,32,11
14160,2056,72,96,-73,28,11
14165,2048,104,40,-73,25,10
14170,2056,96,48,-73,23,9
14175,2056,104,40,-72,20,8
14180,2064,72,64,-70,19,9
14185,2056,88,56,-70,18,9
14190,2056,112,40,-70,18,11
14195,2064,96,40,-67,19,12
14200,2056,88,32,-65,23,14
14205,2056,88,24,-64,26,15
14210,2048,88,24,-60,31,16
14215,2056,72,40,-57,34,15
14220,2040,88,40,-53,34,14
14225,2040,80,32,-47,34,15
14230,2048,80,24,-40,34,13
14235,2056,72,32,-36,35,11
14240,2064,80,8,-32,36,9
14245,2040,104,8,-31,36,9
14250,2056,72,48,-30,35,8
14255,2048,88,56,-31,36,8
14260,2048,96,24,-33,33,10
14265,2056,120,8,-37,31,10
14270,2064,120,8,-42,29,11
14275,2040,96,56,-46,28,15
14280,2048,104,24,-50,26,16
14285,2072,96,-24,-53,24,17
14290,2072,72,40,-55,21,18
14295,2064,104,24,-54,18,18
14300,2064,80,40,-55,17,17
14305,2056,80,32,-55,16,18
14310,2056,80,16,-52,16,16
14315,2064,88,16,-49,16,14
14320,2056,72,16,-46,15,12
14325,2096,72,24,-41,15,7
14330,2064,80,24,-36,16,4
14335,2040,88,16,-31,18,2
14340,2032,88,24,-26,18,2
14345,2048,96,24,-23,18,4
14350,2048,88,32,-22,17,6
14355,2040,80,0,-22,17,8
14360,2056,80,0,-21,15,10
14365,2032,72,0,-25,12,12
14370,2056,88,32,-27,8,11
14375,2056,88,24,-31,6,10
14380,2072,80,24,-35,4,8
14385,2064,96,16,-39,2,3
14390,2080,88,0,-45,0,0
14395,2064,104,0,-48,-3,-2
14400,2048,96,32,-51,-3,-4
14405,2056,104,8,-52,-6,-1
14410,2072,80,0,-54,-8,0
14415,2080,80,16,-53,-9,3
14420,2064,80,16,-53,-12,4
14425,2056,64,0,-51,-14,6
14430,2048,104,0,-47,-15,7
14435,2064,72,32,-42,-17,8
14440,2056,88,24,-34,-16,7
14445,2056,80,0,-29,-15,6
14450,2040,80,16,-26,-13,5
14455,2056,64,8,-22,-8,4
14460,2048,88,-8,-19,-4,2
14465,2048,80,8,-19,1,2
14470,2056,88,-16,-17,5,2
14475,2056,96,-32,-17,8,2
14480,2048,64,8,-15,11,3
14485,2040,80,-8,-17,12,6
14490,2056,96,0,-15,13,7
14495,2048,104,-8,-15,13,8
14500,2032,80,0,-16,11,10
14505,2040,104,-8,-15,11,12
14510,2048,96,-8,-18,9,11
14515,2048,72,-16,-19,6,12
14520,2064,88,-32,-20,5,10
14525,2056,72,-24,-20,5,10
14530,2048,64,-8,-17,8,8
14535,2040,72,-48,-16,10,6
14540,2056,80,-16,-15,11,4
14545,2064,72,-24,-15,14,5
14550,2072,72,-16,-15,16,5
14555,2064,96,-24,-16,20,4
14560,2056,80,-32,-14,19,6
14565,2064,64,-32,-13,22,7
14570,2064,80,-24,-14,24,9
14575,2072,80,-24,-14,25,9
14580,2040,112,-48,-15,27,7
14585,2056,72,-24,-18,30,6
14590,2056,88,-24,-18,32,9
14595,2048,72,-48,-18,33,6
14600,2064,72,-24,-20,35,6
14605,2056,80,0,-21,37,5
14610,2064,88,-40,-21,39,7
14615,2048,72,-16,-21,40,8
14620,2064,72,-24,-19,39,9
14625,2056,80,-16,-19,39,11
14630,2048,80,-16,-18,39,10
14635,2056,88,-32,-18,38,8
14640,2048,88,-48,-19,38,6
14645,2056,72,-32,-22,39,4
14650,2056,88,-16,-24,41,3
14655,2048,96,-8,-28,43,3
14660,2048,64,-24,-31,44,1
14665,2064,88,-24,-36,46,3
14670,2056,88,-40,-37,46,3
14675,2048,72,-8,-38,45,6
14680,2048,72,-24,-36,44,7
14685,2048,72,0,-33,40,7
14690,2072,64,16,-31,35,9
14695,2048,64,-32,-28,32,10
14700,2048,88,8,-24,30,7
14705,2048,96,-24,-22,28,6
14710,2056,80,-8,-22,26,5
14715,2048,80,-24,-23,27,4
14720,2048,72,-40,-24,27,3
14725,2048,88,8,-25,32,2
14730,2064,72,-40,-28,32,3
14735,2056,80,-8,-28,35,4
14740,2064,72,-32,-26,33,7
14745,2064,80,-16,-25,33,7
14750,2080,80,-32,-21,31,6
14755,2048,88,-32,-17,26,6
14760,2080,64,-32,-11,22,3
14765,2056,64,-48,-6,21,-3
14770,2048,88,-16,-3,20,-5
14775,2056,88,-64,-1,22,-6
14780,2088,80,-48,-2,29,-8
14785,2080,72,-32,-5,38,-7
14790,2032,88,-56,-10,48,-6
14795,2064,72,-40,-16,58,-4
14800,2072,80,-56,-19,64,1
14805,2080,72,-40,-20,68,5
14810,2072,88,-32,-20,67,7
14815,2056,80,-16,-20,64,10
14820,2064,80,-16,-22,59,10
14825,2048,80,-16,-25,54,10
14830,2064,80,-16,-31,47,9
14835,2056,88,-8,-37,44,9
14840,2048,72,16,-44,40,7
14845,2056,64,0,-49,35,8
14850,2064,72,8,-50,31,9
14855,2048,72,-8,-46,27,10
14860,2080,80,-24,-39,20,9
14865,2064,48,-16,-33,14,10
14870,2040,64,0,-24,9,8
14875,2024,88,-16,-16,5,6
14880,2040,72,-48,-11,1,4
14885,2056,64,-56,-7,4,1
14890,2056,80,-40,-4,8,-2
14895,2056,96,-32,0,17,-6
14900,2056,72,-72,1,27,-10
14905,2048,96,-56,0,36,-11
14910,2072,72,-104,-1,44,-11
14915,2048,88,-96,-1,49,-10
14920,2048,80,-56,0,56,-8
14925,2064,72,-64,1,60,-7
14930,2040,80,-72,1,64,-5
14935,2048,88,-64,1,68,-4
14940,2064,96,-64,-1,67,-3
14945,2032,96,-80,-2,67,-2
14950,2056,96,-80,-3,64,-1
14955,2080,88,-72,-4,62,-1
14960,2064,96,-56,-5,60,-1
14965,2048,88,-96,-6,58,-2
14970,2072,72,-40,-7,55,-2
14975,2056,88,-40,-7,55,-1
14980,2064,88,-96,-9,57,-2
14985,2072,72,-64,-10,59,-1
14990,2064,64,-72,-12,62,0
14995,2048,72,-80,-11,67,2
