timestamp,accel_x,accel_y,accel_z,gyro_x,gyro_y,gyro_z
0,296,-1920,472,-19,16,-4
5,272,-1896,504,-18,17,-5
10,312,-1912,520,-17,16,-4
15,280,-1912,512,-16,15,-4
20,272,-1904,496,-14,14,-4
25,280,-1888,504,-13,15,-5
30,280,-1912,504,-13,14,-4
35,304,-1920,536,-12,13,-6
40,296,-1912,480,-14,13,-5
45,320,-1904,504,-11,12,-5
50,296,-1896,512,-9,13,-4
55,288,-1904,512,-9,12,-4
60,296,-1928,512,-7,13,-4
65,304,-1944,512,-7,13,-2
70,288,-1912,512,-7,11,-3
75,296,-1928,536,-6,12,-1
80,320,-1928,496,-6,12,-1
85,296,-1904,512,-5,11,1
90,288,-1904,504,-5,12,1
95,304,-1912,520,-4,12,1
100,288,-1920,520,-4,13,0
105,288,-1896,528,-4,13,1
110,288,-1888,528,-4,12,1
115,288,-1888,520,-5,13,2
120,288,-1912,528,-5,11,3
125,272,-1880,520,-4,11,3
130,272,-1896,536,-4,11,2
135,288,-1888,512,-5,10,2
140,280,-1872,520,-7,10,2
145,280,-1872,512,-12,12,1
150,272,-1896,496,-16,12,-1
155,320,-1904,480,-18,13,-2
160,280,-1904,528,-21,13,-2
165,288,-1880,544,-19,13,-4
170,304,-1904,528,-17,12,-3
175,296,-1896,544,-13,14,-4
180,280,-1896,520,-11,13,-4
185,288,-1872,528,-9,15,-5
190,304,-1880,488,-8,13,-5
195,280,-1864,512,-10,13,-3
200,264,-1848,512,-15,14,-4
205,288,-1904,520,-19,14,-3
210,320,-1904,512,-24,15,-2
215,296,-1912,536,-24,16,-2
220,264,-1904,528,-23,14,-4
225,272,-1944,536,-20,13,-5
230,296,-1912,520,-15,12,-7
235,288,-1936,528,-9,12,-8
240,272,-1920,568,-3,13,-8
245,296,-1920,560,5,13,-5
250,296,-1936,544,10,14,-2
255,280,-1928,520,15,15,2
260,296,-1928,520,21,17,3
265,304,-1888,528,24,19,5
270,280,-1880,512,26,21,6
275,288,-1888,528,21,22,7
280,296,-1888,496,16,21,6
285,296,-1864,496,13,18,5
290,280,-1856,504,11,14,5
295,296,-1880,528,7,11,5
300,304,-1840,544,5,8,4
305,296,-1848,512,4,6,5
310,272,-1856,552,3,6,5
315,280,-1840,528,0,6,4
320,296,-1856,512,-2,7,4
325,264,-1856,544,-5,9,4
330,272,-1848,552,-7,11,3
335,264,-1864,528,-9,13,4
340,280,-1880,520,-11,14,2
345,296,-1856,536,-15,15,1
350,280,-1888,544,-14,16,0
355,288,-1864,560,-15,18,-1
360,296,-1880,592,-16,18,-1
365,288,-1896,544,-17,18,0
370,296,-1888,560,-18,16,-1
375,312,-1896,536,-17,16,-1
380,296,-1888,552,-16,16,-1
385,296,-1896,520,-17,15,0
390,312,-1896,536,-15,16,-1
395,288,-1888,552,-13,14,0
400,288,-1896,520,-11,17,-1
405,264,-1904,536,-10,16,0
410,304,-1912,520,-7,15,-2
415,280,-1888,536,-7,16,-1
420,288,-1888,552,-5,15,0
425,288,-1856,512,-5,16,1
430,320,-1872,528,-5,16,2
435,272,-1880,536,-9,16,0
440,296,-1872,520,-12,16,1
445,288,-1864,568,-15,15,1
450,272,-1864,544,-16,14,-1
455,280,-1880,544,-16,14,-1
460,288,-1896,520,-19,12,-1
465,296,-1904,544,-21,11,-1
470,296,-1888,528,-22,12,1
475,304,-1888,544,-23,12,1
480,288,-1888,552,-24,12,0
485,288,-1896,552,-25,14,1
490,304,-1896,520,-24,15,1
495,304,-1904,552,-23,16,0
500,272,-1888,528,-23,16,2
505,288,-1920,552,-22,16,0
510,288,-1904,576,-21,17,-1
515,304,-1912,520,-20,17,-2
520,288,-1912,520,-19,16,-1
525,272,-1872,528,-18,18,-2
530,272,-1880,528,-16,18,0
535,272,-1872,560,-16,16,-2
540,288,-1888,536,-16,16,-2
545,272,-1880,528,-15,16,-2
550,296,-1880,552,-14,16,-1
555,288,-1864,544,-15,17,-2
560,280,-1880,544,-17,15,2
565,296,-1896,544,-15,15,1
570,296,-1872,536,-17,16,1
575,296,-1912,560,-16,16,2
580,304,-1912,504,-16,14,1
585,288,-1888,552,-14,13,2
590,280,-1856,520,-12,13,2
595,280,-1880,528,-13,13,2
600,280,-1880,544,-14,15,2
605,264,-1864,552,-15,14,1
610,272,-1880,576,-15,14,1
615,296,-1856,528,-17,15,1
620,288,-1856,552,-18,16,0
625,280,-1880,552,-20,16,1
630,280,-1872,552,-20,17,1
635,304,-1880,560,-22,16,1
640,288,-1864,552,-24,15,0
645,288,-1864,576,-24,17,-1
650,288,-1904,560,-26,16,-1
655,280,-1872,552,-25,16,-1
660,280,-1880,584,-26,18,-1
665,296,-1864,560,-27,19,-2
670,280,-1896,560,-26,19,-1
675,288,-1856,560,-25,20,0
680,280,-1848,568,-25,19,-1
685,288,-1880,544,-27,20,1
690,304,-1888,544,-27,21,1
695,296,-1880,528,-27,20,0
700,280,-1856,544,-23,19,1
705,288,-1864,536,-25,20,1
710,280,-1872,560,-20,19,0
715,272,-1856,568,-24,19,-1
720,280,-1864,536,-24,18,-1
725,272,-1864,592,-26,18,-3
730,272,-1856,552,-29,18,-3
735,288,-1880,560,-30,18,-3
740,272,-1880,544,-31,17,-3
745,288,-1880,536,-28,16,-5
750,296,-1896,576,-28,16,-3
755,272,-1872,544,-25,17,-2
760,280,-1856,568,-22,15,-2
765,312,-1880,544,-22,14,-2
770,280,-1840,544,-23,15,-2
775,304,-1856,576,-28,16,-1
780,296,-1872,560,-34,18,-2
785,288,-1864,544,-39,17,-1
790,288,-1864,568,-41,17,-1
795,264,-1856,552,-43,16,-3
800,280,-1888,544,-44,16,-4
805,264,-1904,568,-42,16,-4
810,296,-1920,592,-38,16,-6
815,288,-1920,608,-33,17,-4
820,280,-1920,576,-28,18,-4
825,280,-1944,552,-23,19,-2
830,280,-1904,560,-16,20,0
835,304,-1880,552,-14,21,2
840,264,-1856,496,-13,24,3
845,288,-1888,512,-16,27,2
850,280,-1856,528,-20,25,2
855,296,-1880,544,-24,22,2
860,280,-1864,544,-26,20,2
865,256,-1848,536,-28,19,3
870,256,-1832,568,-31,14,3
875,280,-1864,568,-34,11,3
880,264,-1824,584,-37,12,2
885,272,-1840,576,-38,11,2
890,280,-1872,568,-39,11,2
895,280,-1848,560,-40,12,3
900,280,-1872,576,-41,13,2
905,280,-1856,560,-42,15,1
910,296,-1856,560,-43,15,1
915,288,-1856,560,-47,15,0
920,280,-1864,576,-47,15,-2
925,288,-1856,584,-44,17,-2
930,264,-1832,552,-42,19,-3
935,288,-1856,576,-46,17,-4
940,280,-1864,552,-49,15,-2
945,296,-1872,568,-49,14,-3
950,280,-1880,624,-49,15,-2
955,280,-1864,576,-44,15,-2
960,296,-1848,552,-44,15,0
965,288,-1888,568,-44,14,1
970,280,-1872,560,-46,13,2
975,288,-1864,544,-48,14,2
980,288,-1872,584,-49,14,4
985,296,-1864,552,-49,13,3
990,288,-1888,568,-50,13,2
995,288,-1872,568,-52,13,2
1000,272,-1880,528,-52,13,1
1005,272,-1880,536,-51,12,1
1010,312,-1864,568,-50,12,2
1015,280,-1872,552,-51,13,1
1020,264,-1872,568,-51,13,0
1025,288,-1880,552,-53,14,1
1030,272,-1856,544,-54,15,1
1035,288,-1872,536,-56,15,0
1040,280,-1896,576,-60,15,-1
1045,288,-1864,568,-61,15,-1
1050,288,-1888,552,-63,13,-2
1055,280,-1864,568,-67,12,-1
1060,280,-1872,576,-70,11,-1
1065,280,-1848,544,-74,13,-3
1070,304,-1872,560,-77,14,-3
1075,280,-1896,544,-79,15,-2
1080,280,-1856,552,-83,16,-4
1085,272,-1856,544,-86,16,-3
1090,288,-1848,568,-90,16,-4
1095,272,-1848,536,-95,17,-4
1100,264,-1840,552,-99,17,-4
1105,280,-1856,576,-102,19,-4
1110,312,-1864,528,-105,19,-4
1115,304,-1856,568,-106,19,-4
1120,296,-1864,576,-109,19,-4
1125,272,-1856,560,-108,19,-3
1130,280,-1880,552,-107,18,-2
1135,288,-1872,552,-104,17,-2
1140,280,-1872,552,-102,16,-3
1145,304,-1896,560,-101,17,-2
1150,280,-1872,568,-100,17,-2
1155,264,-1872,568,-97,16,-1
1160,296,-1896,544,-93,16,-1
1165,280,-1856,592,-92,18,-2
1170,280,-1896,568,-89,20,-2
1175,296,-1888,552,-86,20,-3
1180,288,-1864,552,-84,20,-4
1185,264,-1872,560,-83,21,-3
1190,312,-1872,520,-80,22,-4
1195,280,-1872,536,-79,22,-5
1200,296,-1872,576,-80,22,-5
1205,288,-1904,520,-78,22,-6
1210,280,-1880,560,-78,24,-7
1215,296,-1872,536,-77,24,-7
1220,296,-1888,544,-77,23,-7
1225,264,-1872,552,-79,24,-8
1230,280,-1904,560,-79,22,-7
1235,304,-1856,536,-82,22,-7
1240,240,-1864,544,-83,22,-7
1245,280,-1888,528,-82,22,-6
1250,288,-1848,552,-85,20,-5
1255,288,-1864,528,-85,18,-6
1260,296,-1880,552,-86,19,-6
1265,280,-1888,536,-86,21,-6
1270,264,-1888,560,-87,22,-8
1275,304,-1896,520,-89,21,-6
1280,280,-1872,552,-88,21,-5
1285,296,-1896,552,-90,22,-6
1290,312,-1896,528,-89,21,-6
1295,296,-1896,520,-88,22,-6
1300,296,-1872,576,-88,21,-8
1305,288,-1872,528,-88,21,-8
1310,256,-1872,552,-90,20,-9
1315,280,-1888,520,-91,18,-9
1320,272,-1896,544,-92,19,-8
1325,296,-1904,520,-91,18,-9
1330,264,-1904,536,-88,19,-10
1335,296,-1920,520,-83,18,-10
1340,280,-1904,528,-78,19,-11
1345,280,-1912,552,-74,20,-12
1350,288,-1880,528,-71,20,-12
1355,288,-1864,520,-71,19,-11
1360,280,-1896,528,-72,22,-11
1365,320,-1896,544,-75,23,-11
1370,272,-1880,520,-82,23,-8
1375,288,-1872,536,-85,22,-7
1380,280,-1904,552,-87,22,-7
1385,256,-1896,528,-88,20,-9
1390,264,-1896,536,-87,19,-10
1395,272,-1912,552,-83,18,-13
1400,264,-1936,560,-80,16,-14
1405,304,-1944,552,-76,15,-14
1410,272,-1928,552,-73,16,-12
1415,264,-1928,528,-72,18,-10
1420,264,-1920,552,-69,21,-7
1425,280,-1904,520,-65,23,-5
1430,288,-1888,528,-67,26,-5
1435,264,-1864,528,-71,26,-6
1440,280,-1864,528,-73,27,-6
1445,280,-1888,512,-75,24,-6
1450,280,-1888,512,-79,23,-8
1455,264,-1856,496,-78,20,-8
1460,280,-1880,520,-78,17,-8
1465,288,-1880,528,-80,17,-8
1470,288,-1888,520,-79,17,-8
1475,288,-1880,512,-79,15,-8
1480,264,-1880,568,-77,14,-6
1485,280,-1904,496,-75,15,-5
1490,280,-1872,528,-73,15,-7
1495,312,-1888,504,-72,17,-6
1500,248,-1880,528,-72,18,-5
1505,272,-1880,512,-72,19,-7
1510,272,-1872,512,-72,17,-7
1515,296,-1888,544,-70,16,-7
1520,288,-1872,520,-70,15,-8
1525,288,-1896,504,-69,15,-8
1530,280,-1896,520,-69,14,-7
1535,288,-1904,512,-67,13,-9
1540,280,-1888,536,-67,12,-8
1545,296,-1888,520,-66,11,-8
1550,272,-1888,512,-65,10,-8
1555,312,-1880,512,-67,11,-8
1560,296,-1936,528,-67,11,-8
1565,280,-1888,504,-65,11,-9
1570,288,-1888,512,-66,12,-10
1575,312,-1896,528,-66,11,-9
1580,272,-1896,496,-67,12,-9
1585,264,-1912,520,-68,12,-10
1590,280,-1912,504,-68,12,-8
1595,304,-1904,504,-70,12,-8
1600,272,-1896,496,-70,12,-10
1605,296,-1896,520,-70,11,-9
1610,296,-1896,496,-71,11,-9
1615,264,-1896,536,-70,8,-11
1620,280,-1904,528,-72,7,-10
1625,272,-1896,536,-73,6,-11
1630,296,-1920,520,-72,6,-12
1635,280,-1888,504,-74,6,-13
1640,280,-1912,512,-74,4,-12
1645,288,-1920,520,-76,5,-13
1650,280,-1904,504,-76,6,-12
1655,272,-1920,520,-75,7,-11
1660,288,-1912,544,-75,6,-10
1665,288,-1896,520,-76,7,-11
1670,304,-1912,536,-75,6,-12
1675,280,-1912,520,-76,7,-12
1680,312,-1888,504,-75,8,-12
1685,264,-1920,536,-76,7,-12
1690,296,-1896,496,-74,9,-11
1695,272,-1912,512,-73,10,-11
1700,272,-1896,536,-73,10,-11
1705,304,-1912,512,-71,9,-10
1710,280,-1888,512,-72,8,-10
1715,296,-1880,496,-71,7,-10
1720,296,-1904,536,-66,9,-10
1725,304,-1912,512,-65,8,-9
1730,280,-1904,512,-64,7,-8
1735,272,-1912,520,-65,8,-10
1740,280,-1912,512,-64,8,-11
1745,288,-1888,496,-63,9,-10
1750,304,-1896,528,-63,8,-10
1755,296,-1888,520,-63,9,-11
1760,280,-1896,504,-64,11,-10
1765,304,-1920,528,-65,9,-9
1770,288,-1904,512,-64,10,-9
1775,296,-1896,528,-62,11,-10
1780,304,-1904,512,-63,12,-11
1785,280,-1904,512,-61,11,-12
1790,288,-1896,528,-60,10,-11
1795,304,-1896,512,-59,11,-12
1800,288,-1912,536,-57,12,-12
1805,288,-1888,512,-57,12,-12
1810,312,-1912,520,-56,12,-14
1815,272,-1912,512,-54,10,-14
1820,288,-1904,520,-53,12,-13
1825,304,-1936,520,-51,12,-14
1830,280,-1912,480,-51,11,-14
1835,296,-1896,520,-50,13,-14
1840,272,-1920,528,-48,12,-14
1845,304,-1896,488,-48,12,-12
1850,296,-1920,504,-49,12,-11
1855,304,-1896,496,-46,11,-12
1860,296,-1888,520,-48,12,-11
1865,312,-1888,520,-48,11,-12
1870,272,-1896,512,-50,10,-10
1875,304,-1880,504,-52,11,-10
1880,304,-1928,512,-57,10,-11
1885,272,-1928,520,-62,10,-11
1890,296,-1928,504,-64,11,-11
1895,296,-1912,528,-63,11,-11
1900,272,-1904,488,-55,10,-10
1905,296,-1904,488,-49,12,-9
1910,280,-1920,504,-44,9,-8
1915,296,-1896,496,-41,9,-7
1920,280,-1864,496,-42,10,-8
1925,288,-1880,504,-45,12,-8
1930,296,-1888,488,-50,13,-7
1935,304,-1896,512,-52,13,-7
1940,304,-1928,520,-54,17,-7
1945,288,-1896,528,-54,18,-8
1950,296,-1920,544,-51,18,-9
1955,312,-1936,528,-45,17,-10
1960,288,-1936,512,-39,16,-11
1965,296,-1936,512,-33,15,-11
1970,312,-1936,504,-26,15,-11
1975,304,-1944,504,-25,14,-10
1980,304,-1920,496,-22,12,-8
1985,288,-1936,544,-20,12,-7
1990,296,-1904,512,-21,13,-4
1995,304,-1904,528,-20,14,-2
2000,288,-1912,512,-18,14,-3
2005,280,-1896,520,-15,15,-4
2010,296,-1888,488,-17,17,-6
2015,272,-1880,496,-17,18,-9
2020,280,-1872,504,-17,19,-10
2025,296,-1880,504,-16,18,-11
2030,288,-1896,504,-14,18,-9
2035,296,-1896,520,-12,18,-7
2040,296,-1920,528,-11,17,-5
2045,304,-1904,520,-11,17,-3
2050,304,-1896,512,-9,16,1
2055,304,-1880,528,-8,15,2
2060,304,-1888,504,-7,15,2
2065,296,-1888,520,-4,13,4
2070,280,-1880,528,-4,14,3
2075,312,-1880,512,-6,15,3
2080,288,-1888,520,-6,16,3
2085,288,-1896,520,-6,16,5
2090,288,-1888,496,-8,16,3
2095,272,-1896,496,-10,15,3
2100,304,-1912,504,-11,17,1
2105,288,-1872,472,-11,18,1
2110,280,-1880,544,-9,17,-1
2115,288,-1888,528,-9,16,-1
2120,272,-1888,544,-9,17,-3
2125,312,-1920,536,-8,18,-2
2130,296,-1896,536,-8,17,-2
2135,288,-1904,520,-6,15,-2
2140,320,-1896,512,-7,15,-5
2145,280,-1896,512,-5,15,-3
2150,280,-1872,528,-5,16,-3
2155,304,-1872,528,-8,16,-2
2160,280,-1888,512,-11,16,-3
2165,288,-1888,520,-14,15,-3
2170,288,-1888,512,-16,15,-4
2175,288,-1872,536,-17,14,-4
2180,280,-1888,512,-19,14,-4
2185,312,-1904,544,-19,14,-2
2190,288,-1896,560,-21,11,-4
2195,288,-1896,472,-20,12,-5
2200,280,-1928,520,-19,12,-6
2205,280,-1888,520,-18,12,-5
2210,304,-1904,528,-19,11,-6
2215,288,-1904,520,-21,12,-7
2220,280,-1880,536,-20,13,-5
2225,304,-1920,528,-22,13,-6
2230,280,-1872,512,-21,14,-5
2235,280,-1912,496,-24,15,-6
2240,288,-1888,520,-23,17,-7
2245,296,-1888,520,-21,16,-5
2250,344,-1872,592,-22,15,-5
2255,312,-1912,512,-23,17,-5
2260,288,-1896,544,-23,16,-5
2265,304,-1880,504,-25,16,-3
2270,288,-1888,544,-24,14,-5
2275,296,-1880,496,-23,13,-4
2280,304,-1880,544,-22,14,-3
2285,296,-1864,528,-21,14,-2
2290,264,-1880,568,-19,14,0
2295,288,-1896,512,-18,14,0
2300,296,-1888,520,-17,15,0
2305,272,-1792,448,-16,14,-1
2310,264,-1872,512,-15,15,1
2315,280,-1896,504,-15,15,-2
2320,288,-1872,528,-12,16,0
2325,304,-1872,552,-15,15,-1
2330,288,-1864,552,-15,14,-1
2335,280,-1872,528,-14,15,-2
2340,288,-1880,520,-13,14,-1
2345,304,-1904,536,-13,16,-1
2350,296,-1872,520,-13,15,0
2355,296,-1888,552,-12,14,0
2360,264,-1808,496,-12,15,-1
2365,296,-1896,520,-12,13,-2
2370,288,-1904,536,-12,15,-1
2375,304,-1888,536,-15,15,0
2380,296,-1888,536,-14,15,0
2385,288,-1880,552,-15,15,-1
2390,288,-1888,536,-14,15,0
2395,296,-1888,536,-14,15,-1
2400,288,-1896,528,-15,15,0
2405,296,-1880,544,-15,16,1
2410,280,-1872,528,-14,17,2
2415,192,-1888,568,-15,17,2
2420,272,-1896,528,-15,16,2
2425,280,-1888,520,-16,15,1
2430,304,-1888,520,-15,15,2
2435,304,-1880,528,-15,15,1
2440,288,-1888,536,-14,17,1
2445,272,-1864,536,-15,15,0
2450,288,-1864,536,-18,15,-1
2455,280,-1880,544,-20,15,-1
2460,304,-1872,528,-21,14,0
2465,288,-1888,544,-20,15,-1
2470,224,-1968,592,-18,15,-2
2475,280,-1904,536,-14,13,-1
2480,304,-1888,544,-8,13,-1
2485,264,-1872,512,-6,12,-2
2490,296,-1832,528,-6,12,-1
2495,280,-1856,520,-9,13,0
2500,280,-1864,560,-15,15,1
2505,288,-1864,576,-21,15,2
2510,296,-1864,560,-30,15,2
2515,280,-1880,584,-31,15,1
2520,288,-1896,552,-34,15,0
2525,336,-2016,640,-31,15,-2
2530,280,-1904,568,-26,14,-5
2535,256,-1888,544,-21,13,-5
2540,312,-1896,560,-15,12,-6
2545,264,-1912,568,-8,14,-5
2550,280,-1904,568,-4,15,-2
2555,296,-1936,536,2,16,-1
2560,304,-1904,544,5,17,2
2565,304,-1880,560,9,20,4
2570,312,-1896,536,13,21,6
2575,304,-1872,512,11,23,7
2580,256,-1896,552,8,24,6
2585,280,-1848,544,3,22,6
2590,280,-1872,520,1,19,6
2595,288,-1872,544,1,16,6
2600,304,-1872,552,-3,14,5
2605,280,-1840,520,-5,12,5
2610,288,-1856,528,-7,11,4
2615,312,-1832,560,-8,11,2
2620,304,-1856,544,-11,10,2
2625,304,-1872,544,-12,12,1
2630,384,-1904,552,-13,13,2
2635,296,-1856,592,-12,15,2
2640,264,-1872,560,-13,15,3
2645,240,-1856,528,-15,18,2
2650,264,-1856,536,-14,18,2
2655,288,-1872,544,-16,19,2
2660,288,-1864,560,-17,18,1
2665,272,-1880,544,-16,18,2
2670,296,-1880,568,-15,17,2
2675,304,-1880,560,-15,16,0
2680,288,-1880,544,-15,16,1
2685,336,-1888,576,-16,15,1
2690,288,-1872,560,-15,14,1
2695,272,-1848,552,-13,15,1
2700,288,-1888,544,-12,13,1
2705,280,-1888,544,-10,13,2
2710,288,-1864,552,-10,13,4
2715,280,-1848,560,-10,14,3
2720,304,-1888,520,-11,14,4
2725,264,-1840,544,-14,15,4
2730,296,-1880,536,-17,13,5
2735,296,-1864,576,-18,14,5
2740,296,-1864,568,-20,13,3
2745,288,-1848,568,-23,12,3
2750,288,-1880,576,-26,13,2
2755,296,-1872,560,-27,13,3
2760,304,-1872,568,-28,13,1
2765,256,-1872,568,-27,12,0
2770,288,-1888,552,-26,12,1
2775,288,-1888,568,-27,13,1
2780,280,-1904,568,-26,13,1
2785,296,-1896,536,-25,14,-1
2790,280,-1872,560,-24,14,0
2795,288,-1888,584,-23,15,1
2800,288,-1880,536,-22,15,0
2805,272,-1880,560,-22,16,0
2810,304,-1880,568,-23,18,0
2815,280,-1888,576,-23,17,0
2820,288,-1896,568,-24,17,0
2825,280,-1888,552,-23,18,1
2830,272,-1872,552,-23,18,0
2835,280,-1880,568,-21,18,-1
2840,280,-1904,552,-20,17,0
2845,264,-1864,544,-20,16,0
2850,280,-1880,560,-18,17,1
2855,296,-1904,568,-18,17,1
2860,288,-1880,576,-18,18,2
2865,280,-1864,576,-16,17,1
2870,296,-1856,552,-15,16,2
2875,296,-1872,552,-15,16,1
2880,272,-1872,576,-15,16,1
2885,280,-1872,576,-14,15,1
2890,280,-1872,576,-16,15,2
2895,280,-1880,584,-16,14,3
2900,288,-1848,576,-17,15,2
2905,288,-1864,584,-16,15,4
2910,296,-1872,600,-16,14,2
2915,288,-1856,560,-17,15,2
2920,312,-1864,568,-16,16,1
2925,272,-1848,592,-16,17,1
2930,288,-1856,592,-17,17,-1
2935,256,-1840,568,-20,17,-1
2940,288,-1840,584,-19,16,-2
2945,296,-1880,576,-19,17,0
2950,288,-1872,576,-21,16,1
2955,280,-1848,560,-21,17,1
2960,288,-1864,584,-22,17,0
2965,296,-1864,576,-23,18,2
2970,288,-1872,576,-24,18,0
2975,280,-1856,608,-24,17,0
2980,272,-1864,584,-24,18,1
2985,280,-1848,568,-23,18,2
2990,272,-1888,592,-23,18,2
2995,256,-1864,576,-22,19,3
3000,296,-1880,608,-20,19,1
3005,264,-1864,576,-20,19,0
3010,288,-1880,584,-20,18,-1
3015,288,-1848,568,-21,19,-2
3020,304,-1864,576,-23,17,-2
3025,296,-1856,544,-25,18,-3
3030,288,-1872,576,-26,17,-2
3035,280,-1872,592,-24,17,-3
3040,256,-1872,592,-24,16,-4
3045,288,-1888,544,-19,14,-4
3050,296,-1872,576,-17,14,-2
3055,264,-1856,544,-15,14,-2
3060,288,-1832,600,-15,14,-2
3065,304,-1848,576,-16,15,-1
3070,288,-1832,568,-21,16,-1
3075,272,-1824,608,-24,18,2
3080,280,-1864,592,-32,17,1
3085,296,-1840,576,-36,17,1
3090,280,-1864,592,-40,18,0
3095,288,-1904,616,-39,17,-3
3100,272,-1896,584,-37,16,-3
3105,280,-1904,616,-31,16,-6
3110,256,-1888,600,-26,16,-6
3115,296,-1912,600,-18,17,-5
3120,288,-1904,592,-11,17,-2
3125,296,-1928,600,-4,19,-2
3130,280,-1872,584,2,20,1
3135,296,-1864,536,4,22,4
3140,288,-1856,544,4,23,3
3145,264,-1880,552,2,23,5
3150,280,-1872,560,-1,22,6
3155,288,-1832,584,-3,19,6
3160,288,-1848,552,-5,15,6
3165,264,-1840,600,-7,12,5
3170,272,-1856,568,-7,11,4
3175,280,-1816,592,-8,9,4
3180,264,-1824,584,-11,7,5
3185,280,-1840,592,-13,8,5
3190,264,-1832,616,-15,7,3
3195,264,-1840,632,-17,8,2
3200,288,-1840,616,-18,10,2
3205,272,-1832,616,-21,14,3
3210,264,-1840,568,-22,15,2
3215,264,-1816,608,-23,17,1
3220,288,-1848,576,-25,18,0
3225,280,-1848,584,-27,19,0
3230,296,-1856,576,-28,19,-1
3235,256,-1832,552,-29,18,1
3240,288,-1856,616,-29,17,0
3245,288,-1856,608,-27,16,1
3250,280,-1832,616,-28,14,1
3255,304,-1856,552,-27,14,3
3260,288,-1848,592,-24,12,2
3265,256,-1872,584,-25,12,3
3270,312,-1840,584,-24,13,4
3275,280,-1832,568,-25,13,7
3280,296,-1856,592,-25,12,6
3285,296,-1864,552,-26,12,6
3290,264,-1856,592,-24,12,5
3295,288,-1856,584,-25,15,5
3300,272,-1848,552,-23,16,5
3305,280,-1864,600,-24,14,4
3310,288,-1840,584,-24,11,3
3315,304,-1872,600,-25,13,4
3320,264,-1832,600,-24,15,4
3325,296,-1872,600,-26,14,3
3330,288,-1856,600,-28,13,4
3335,280,-1848,552,-30,14,3
3340,272,-1856,592,-30,15,3
3345,296,-1872,608,-32,15,3
3350,288,-1856,568,-32,15,2
3355,296,-1856,560,-33,16,1
3360,288,-1840,608,-33,16,0
3365,288,-1856,592,-35,18,3
3370,312,-1880,584,-33,18,2
3375,280,-1864,600,-34,17,1
3380,376,-1664,520,-36,18,2
3385,312,-1920,632,-34,18,2
3390,320,-1856,592,-35,16,1
3395,280,-1840,584,-37,16,2
3400,296,-1872,592,-35,17,3
3405,272,-1848,600,-34,16,4
3410,272,-1832,608,-35,15,5
3415,288,-1864,568,-36,15,6
3420,280,-1840,576,-36,15,6
3425,288,-1840,568,-35,14,7
3430,280,-1864,600,-33,14,7
3435,264,-1856,584,-33,13,7
3440,296,-1856,608,-31,13,8
3445,272,-1848,592,-31,14,9
3450,280,-1864,592,-29,14,9
3455,288,-1856,592,-27,12,9
3460,296,-1856,600,-27,13,9
3465,272,-1848,592,-28,14,8
3470,272,-1864,592,-29,14,8
3475,296,-1848,608,-31,13,8
3480,288,-1848,600,-30,15,9
3485,272,-1832,560,-31,13,7
3490,272,-1864,600,-30,12,8
3495,256,-1856,608,-32,14,8
3500,248,-1824,600,-32,15,8
3505,264,-1824,584,-31,16,7
3510,256,-1848,624,-32,16,7
3515,256,-1848,600,-35,18,7
3520,272,-1856,648,-35,18,7
3525,272,-1824,592,-32,19,6
3530,272,-1848,592,-32,18,7
3535,272,-1864,576,-32,20,7
3540,272,-1864,592,-32,19,7
3545,288,-1832,592,-30,21,5
3550,296,-1848,592,-31,21,7
3555,256,-1848,600,-30,21,7
3560,304,-1856,608,-29,21,7
3565,296,-1872,600,-30,21,7
3570,264,-1856,584,-32,20,8
3575,280,-1856,608,-32,21,8
3580,280,-1848,584,-31,22,7
3585,296,-1832,608,-31,21,6
3590,280,-1864,584,-33,21,7
3595,296,-1832,592,-37,21,6
3600,272,-1848,608,-37,22,7
3605,280,-1840,584,-39,21,7
3610,272,-1880,624,-37,20,6
3615,280,-1880,600,-35,20,6
3620,272,-1888,600,-32,19,6
3625,256,-1848,616,-29,18,5
3630,256,-1840,584,-28,18,6
3635,264,-1832,576,-28,19,8
3640,280,-1816,592,-31,20,9
3645,264,-1800,608,-36,19,9
3650,272,-1824,600,-41,20,7
3655,272,-1840,568,-47,20,8
3660,256,-1832,592,-51,20,9
3665,280,-1872,592,-52,20,8
3670,248,-1840,616,-52,20,7
3675,264,-1872,600,-50,19,5
3680,272,-1888,600,-47,19,4
3685,264,-1896,632,-41,18,4
3690,288,-1920,600,-38,19,4
3695,280,-1888,648,-32,21,7
3700,256,-1872,624,-30,23,10
3705,264,-1872,600,-27,24,10
3710,280,-1848,624,-25,26,11
3715,256,-1848,616,-27,27,12
3720,232,-1840,568,-30,26,12
3725,272,-1832,576,-34,23,11
3730,240,-1824,584,-37,20,11
3735,272,-1824,600,-40,16,12
3740,264,-1816,544,-44,16,11
3745,272,-1824,576,-49,15,10
3750,264,-1832,640,-53,15,10
3755,248,-1800,600,-55,15,9
3760,264,-1824,608,-57,16,8
3765,272,-1824,616,-60,17,7
3770,272,-1816,600,-60,19,6
3775,264,-1832,600,-60,20,7
3780,264,-1848,592,-63,22,5
3785,232,-1832,616,-63,24,5
3790,264,-1832,584,-68,24,6
3795,272,-1832,576,-68,24,7
3800,272,-1848,616,-71,22,8
3805,296,-1832,616,-74,22,9
3810,240,-1840,576,-77,21,8
3815,256,-1824,600,-79,19,9
3820,240,-1824,584,-81,18,9
3825,272,-1840,584,-81,18,10
3830,272,-1832,616,-82,16,9
3835,272,-1856,576,-83,17,9
3840,280,-1848,632,-83,18,9
3845,280,-1864,616,-83,18,9
3850,272,-1840,584,-85,20,7
3855,288,-1840,584,-83,19,8
3860,280,-1856,568,-84,18,8
3865,280,-1848,616,-83,18,8
3870,280,-1848,616,-83,18,8
3875,280,-1864,616,-84,18,8
3880,272,-1840,576,-83,17,6
3885,264,-1864,600,-83,17,8
3890,240,-1864,568,-82,16,7
3895,240,-1856,568,-82,18,6
3900,280,-1864,584,-80,18,5
3905,280,-1888,592,-80,18,5
3910,288,-1896,600,-79,21,5
3915,256,-1872,576,-76,22,4
3920,280,-1880,592,-77,23,4
3925,248,-1872,576,-78,26,4
3930,288,-1888,592,-76,28,2
3935,288,-1872,600,-75,28,2
3940,264,-1856,584,-74,29,3
3945,280,-1872,584,-73,28,3
3950,256,-1872,560,-72,28,4
3955,256,-1872,600,-72,27,5
3960,264,-1880,608,-72,25,4
3965,272,-1848,544,-71,24,4
3970,272,-1888,560,-72,25,4
3975,272,-1856,568,-73,25,6
3980,272,-1872,592,-71,25,6
3985,256,-1872,600,-71,26,8
3990,256,-1872,576,-71,27,8
3995,280,-1856,584,-69,27,8
4000,248,-1856,600,-70,29,9
4005,264,-1856,568,-70,29,10
4010,288,-1840,592,-72,31,9
4015,256,-1848,600,-71,32,10
4020,256,-1856,544,-73,33,9
4025,264,-1848,576,-74,34,9
4030,264,-1880,576,-75,32,10
4035,248,-1840,568,-75,32,11
4040,256,-1832,584,-74,30,10
4045,232,-1872,560,-74,29,11
4050,256,-1840,608,-77,30,12
4055,208,-1848,600,-75,28,11
4060,248,-1864,584,-75,28,13
4065,248,-1840,576,-75,29,15
4070,256,-1848,568,-77,27,16
4075,264,-1840,592,-79,27,17
4080,224,-1856,576,-80,27,17
4085,248,-1856,584,-83,29,18
4090,264,-1832,576,-82,29,17
4095,248,-1856,600,-81,31,19
4100,248,-1872,600,-84,30,18
4105,232,-1880,560,-85,28,18
4110,240,-1872,552,-86,29,19
4115,248,-1856,608,-88,28,19
4120,264,-1880,584,-89,28,18
4125,248,-1880,584,-89,28,19
4130,240,-1856,576,-91,29,19
4135,200,-1864,584,-89,27,19
4140,240,-1864,584,-92,28,20
4145,240,-1880,584,-93,27,22
4150,224,-1872,608,-95,26,22
4155,224,-1824,592,-95,21,21
4160,208,-1832,592,-96,16,22
4165,216,-1864,568,-99,13,23
4170,240,-1840,608,-102,10,25
4175,224,-1832,560,-108,7,23
4180,224,-1856,560,-114,6,26
4185,232,-1832,600,-120,6,26
4190,240,-1832,592,-127,6,25
4195,240,-1872,608,-129,7,25
4200,288,-1896,536,-126,11,25
4205,256,-1888,576,-120,16,21
4210,280,-1880,560,-114,22,17
4215,256,-1864,584,-109,27,14
4220,272,-1888,584,-105,32,9
4225,280,-1864,560,-106,35,8
4230,280,-1872,608,-110,39,7
4235,264,-1848,536,-117,44,8
4240,240,-1840,576,-124,48,9
4245,280,-1872,552,-131,51,10
4250,232,-1856,560,-134,55,11
4255,248,-1880,544,-136,60,12
4260,256,-1888,576,-136,64,15
4265,256,-1888,560,-132,66,18
4270,256,-1888,552,-125,68,23
4275,256,-1888,544,-123,69,30
4280,248,-1904,568,-124,70,38
4285,264,-1904,560,-126,74,47
4290,288,-1872,552,-129,76,56
4295,272,-1840,576,-131,82,63
4300,288,-1840,544,-135,85,69
4305,288,-1840,576,-141,90,70
4310,312,-1840,544,-146,95,71
4315,296,-1832,528,-153,98,70
4320,344,-1840,528,-157,101,66
4325,296,-1840,544,-159,104,63
4330,320,-1848,528,-160,109,60
4335,312,-1864,544,-163,114,58
4340,336,-1824,544,-165,120,58
4345,304,-1832,536,-166,126,58
4350,304,-1848,528,-169,132,59
4355,296,-1856,512,-170,138,60
4360,312,-1872,512,-174,145,63
4365,320,-1880,520,-177,152,65
4370,304,-1864,528,-176,159,67
4375,312,-1864,544,-178,165,68
4380,312,-1880,512,-179,171,69
4385,304,-1872,536,-177,174,72
4390,288,-1880,560,-175,177,74
4395,304,-1864,520,-175,178,77
4400,256,-1896,528,-177,180,81
4405,280,-1888,536,-176,183,83
4410,264,-1880,528,-176,186,86
4415,304,-1904,528,-176,190,89
4420,256,-1880,504,-176,192,90
4425,240,-1904,512,-178,194,94
4430,256,-1888,528,-178,197,96
4435,240,-1896,512,-179,197,98
4440,232,-1864,512,-177,197,101
4445,208,-1912,496,-177,200,102
4450,224,-1872,480,-179,205,105
4455,224,-1888,496,-177,207,106
4460,240,-1896,504,-179,209,109
4465,248,-1920,512,-177,212,112
4470,256,-1896,504,-176,214,112
4475,256,-1880,512,-176,217,115
4480,248,-1872,504,-175,221,115
4485,232,-1888,488,-178,224,117
4490,256,-1888,496,-178,225,116
4495,264,-1904,528,-182,227,115
4500,248,-1912,504,-187,229,114
4505,256,-1880,488,-194,235,111
4510,240,-1872,472,-199,241,111
4515,256,-1912,472,-209,247,110
4520,240,-1880,480,-218,253,108
4525,208,-1904,480,-224,259,109
4530,232,-1904,464,-231,267,107
4535,208,-1904,480,-239,275,110
4540,200,-1936,448,-247,282,111
4545,208,-1936,472,-250,289,114
4550,192,-1920,456,-252,294,114
4555,192,-1936,480,-253,299,115
4560,208,-1944,472,-255,305,116
4565,200,-1960,472,-255,310,115
4570,216,-1936,464,-255,313,115
4575,200,-1952,480,-257,316,114
4580,208,-1928,480,-258,317,111
4585,192,-1944,464,-260,318,108
4590,152,-1912,496,-264,319,103
4595,192,-1904,448,-266,320,101
4600,216,-1920,464,-271,322,99
4605,208,-1920,440,-280,326,95
4610,160,-1904,456,-286,327,95
4615,192,-1896,448,-294,328,92
4620,168,-1872,472,-307,330,88
4625,152,-1872,448,-319,331,85
4630,136,-1848,424,-336,333,83
4635,96,-1848,456,-360,335,80
4640,136,-1840,432,-388,338,77
4645,80,-1816,424,-420,340,74
4650,88,-1808,432,-452,338,73
4655,80,-1832,440,-485,335,73
4660,80,-1840,408,-514,333,72
4665,64,-1856,392,-543,330,72
4670,56,-1872,392,-568,329,74
4675,48,-1864,392,-592,326,74
4680,40,-1872,424,-616,325,78
4685,40,-1888,392,-634,324,80
4690,16,-1896,408,-651,324,83
4695,8,-1912,392,-664,326,88
4700,32,-1960,376,-668,330,90
4705,32,-1952,408,-668,331,91
4710,40,-1952,392,-667,334,93
4715,24,-1968,384,-664,337,95
4720,48,-1976,352,-663,340,95
4725,32,-1968,360,-662,345,97
4730,32,-1968,328,-662,350,101
4735,8,-1968,352,-661,357,104
4740,8,-1968,376,-658,366,110
4745,32,-1960,368,-657,377,117
4750,16,-1976,368,-654,384,127
4755,-8,-1968,376,-647,389,138
4760,8,-2000,360,-641,392,153
4765,0,-2032,328,-636,395,169
4770,-16,-2032,344,-629,395,187
4775,-48,-2032,352,-620,395,202
4780,-24,-2024,344,-608,392,221
4785,-64,-2024,304,-599,390,241
4790,-64,-2032,304,-590,388,259
4795,-72,-2032,280,-584,385,277
4800,-96,-2032,280,-579,378,295
4805,-80,-2032,280,-576,367,312
4810,-72,-2000,272,-572,358,326
4815,-88,-2032,296,-568,348,340
4820,-80,-2056,320,-561,341,355
4825,-88,-2080,304,-549,332,366
4830,-104,-2104,280,-541,324,376
4835,-96,-2104,264,-530,316,388
4840,-96,-2112,272,-517,308,397
4845,-104,-2112,248,-507,301,407
4850,-112,-2096,216,-499,293,413
4855,-120,-2136,224,-490,285,420
4860,-120,-2088,232,-482,279,427
4865,-120,-2080,232,-476,273,433
4870,-104,-2080,192,-473,265,438
4875,-96,-2056,160,-470,261,439
4880,-96,-2048,88,-470,258,439
4885,-56,-2048,112,-474,255,436
4890,-72,-2040,128,-482,255,431
4895,-8,-2040,96,-489,253,422
4900,0,-2040,112,-498,254,416
4905,8,-2024,120,-508,255,410
4910,8,-2048,112,-518,255,405
4915,16,-2048,80,-528,254,400
4920,56,-2048,72,-538,254,393
4925,64,-2040,80,-550,254,386
4930,24,-2048,48,-564,253,379
4935,16,-2072,56,-577,250,375
4940,24,-2056,56,-596,248,369
4945,16,-2064,48,-612,244,359
4950,-8,-2056,24,-632,238,350
4955,0,-2064,24,-652,231,339
4960,0,-2080,40,-673,223,328
4965,0,-2064,0,-690,217,319
4970,-40,-2056,8,-705,213,314
4975,-32,-2040,-8,-717,209,309
4980,-32,-2064,-16,-727,205,304
4985,-56,-2072,0,-738,204,298
4990,-64,-2048,-8,-748,203,291
4995,-56,-2048,-24,-759,202,286
5000,-40,-2048,0,-767,200,279
5005,-32,-2048,-16,-780,201,273
5010,-16,-2056,-48,-794,200,262
5015,-40,-2064,-16,-810,195,247
5020,0,-2088,-16,-828,194,233
5025,0,-2112,-8,-844,191,215
5030,16,-2136,-16,-854,193,195
5035,40,-2152,-16,-861,201,171
5040,48,-2184,-8,-869,212,148
5045,80,-2224,-64,-876,228,123
5050,112,-2232,-56,-880,249,100
5055,136,-2256,-72,-879,273,75
5060,128,-2288,-72,-877,299,55
5065,152,-2328,-104,-874,323,41
5070,120,-2320,-104,-869,342,33
5075,88,-2296,-128,-862,352,35
5080,96,-2344,-128,-856,357,44
5085,80,-2360,-152,-848,356,57
5090,40,-2336,-176,-839,353,76
5095,24,-2280,-152,-832,344,98
5100,0,-2256,-152,-823,330,119
5105,-56,-2264,-152,-817,314,143
5110,-24,-2224,-200,-813,297,168
5115,-48,-2192,-224,-811,279,193
5120,-72,-2224,-216,-810,264,219
5125,-64,-2184,-216,-806,252,243
5130,-72,-2144,-256,-802,244,268
5135,-80,-2120,-224,-797,236,288
5140,-88,-2096,-288,-794,223,312
5145,-96,-2080,-256,-797,210,336
5150,-80,-2048,-320,-801,192,359
5155,-72,-2040,-304,-805,175,381
5160,-120,-2032,-336,-814,160,401
5165,-144,-2016,-352,-824,143,420
5170,-168,-2040,-376,-831,126,437
5175,-224,-2000,-384,-834,109,450
5180,-224,-1992,-424,-835,91,461
5185,-336,-1960,-432,-837,75,468
5190,-312,-1984,-464,-835,52,481
5195,-328,-1952,-440,-835,32,479
5200,-336,-1952,-464,-835,16,473
5205,-320,-2000,-496,-838,6,469
5210,-312,-1976,-528,-833,-2,460
5215,-328,-1888,-544,-828,-5,454
5220,-344,-1864,-536,-824,5,452
5225,-272,-1816,-552,-818,15,452
5230,-264,-1824,-576,-818,30,443
5235,-248,-1808,-600,-823,52,426
5240,-304,-1824,-544,-822,71,409
5245,-320,-1832,-568,-818,86,398
5250,-264,-1896,-560,-816,94,378
5255,-264,-1856,-600,-811,97,349
5260,-184,-1904,-624,-806,100,322
5265,-144,-1880,-656,-801,110,299
5270,-112,-1848,-664,-795,121,283
5275,-96,-1848,-664,-790,127,271
5280,-64,-1848,-704,-789,132,263
5285,0,-1832,-688,-784,130,254
5290,0,-1840,-696,-778,123,248
5295,8,-1824,-712,-770,108,244
5300,48,-1816,-712,-764,87,242
5305,64,-1784,-688,-753,56,240
5310,96,-1800,-720,-744,21,237
5315,152,-1744,-728,-735,-17,237
5320,136,-1736,-696,-727,-55,237
5325,160,-1688,-696,-720,-91,236
5330,176,-1680,-680,-712,-128,237
5335,168,-1640,-624,-700,-165,240
5340,168,-1648,-648,-690,-198,245
5345,160,-1584,-664,-676,-227,252
5350,144,-1552,-680,-664,-251,257
5355,120,-1528,-680,-653,-270,265
5360,128,-1528,-680,-644,-287,274
5365,136,-1480,-680,-637,-300,285
5370,112,-1440,-704,-631,-308,292
5375,128,-1424,-648,-622,-308,301
5380,104,-1432,-640,-608,-300,308
5385,144,-1448,-592,-582,-294,316
5390,168,-1432,-568,-548,-291,319
5395,200,-1472,-544,-508,-292,320
5400,232,-1496,-536,-466,-293,320
5405,288,-1488,-536,-420,-296,322
5410,280,-1512,-512,-374,-301,323
5415,320,-1472,-496,-329,-315,324
5420,360,-1528,-536,-287,-329,325
5425,376,-1488,-544,-247,-339,322
5430,376,-1488,-640,-215,-343,320
5435,384,-1480,-664,-189,-338,321
5440,408,-1480,-720,-166,-323,324
5445,392,-1440,-768,-143,-303,328
5450,376,-1472,-800,-112,-287,343
5455,368,-1464,-736,-76,-277,362
5460,360,-1528,-776,-31,-275,386
5465,352,-1560,-776,13,-280,416
5470,360,-1544,-744,53,-290,445
5475,336,-1552,-760,90,-302,472
5480,336,-1552,-760,127,-308,503
5485,256,-1528,-752,158,-306,541
5490,208,-1480,-776,187,-293,590
5495,152,-1464,-888,208,-282,649
5500,48,-1352,-936,220,-269,714
5505,-40,-1272,-960,233,-255,782
5510,-104,-1192,-992,239,-240,867
5515,-216,-1064,-936,237,-220,946
5520,-376,-1032,-848,228,-194,1034
5525,-536,-960,-784,221,-174,1119
5530,-768,-784,-760,208,-171,1198
5535,-976,-624,-776,164,-195,1275
5540,-1056,-536,-792,74,-248,1349
5545,-1168,-448,-872,-69,-293,1411
5550,-1288,-416,-920,-266,-317,1473
5555,-1256,-432,-904,-506,-330,1524
5560,-1232,-480,-880,-797,-342,1557
5565,-1176,-528,-816,-1014,-358,1582
5570,-1104,-616,-728,-1196,-381,1598
5575,-1016,-736,-744,-1346,-414,1602
5580,-936,-832,-792,-1476,-459,1596
5585,-760,-968,-744,-1603,-507,1573
5590,-656,-1080,-720,-1708,-550,1533
5595,-560,-1064,-696,-1772,-596,1474
5600,-512,-1160,-648,-1802,-661,1415
5605,-496,-1240,-584,-1776,-743,1364
5610,-512,-1240,-504,-1690,-829,1321
5615,-440,-1216,-440,-1568,-917,1267
5620,-520,-1120,-336,-1445,-1016,1214
5625,-552,-1168,-256,-1318,-1130,1185
5630,-576,-1168,-88,-1179,-1218,1178
5635,-536,-1152,-56,-1006,-1297,1182
5640,-552,-1144,-112,-845,-1362,1197
5645,-536,-1168,-128,-737,-1414,1206
5650,-528,-1296,-160,-650,-1477,1212
5655,-560,-1328,-256,-532,-1564,1212
5660,-608,-1304,-368,-382,-1670,1220
5665,-696,-1200,-496,-216,-1776,1240
5670,-712,-1080,-600,-63,-1877,1274
5675,-688,-944,-728,27,-1973,1306
5680,-648,-888,-752,25,-2057,1328
5685,-696,-888,-728,-32,-2106,1336
5690,-760,-904,-728,-116,-2129,1332
5695,-720,-1264,-728,-204,-2133,1314
5700,-840,-1600,-728,-240,-2160,1275
5705,-1008,-1904,-760,-199,-2210,1267
5710,-1368,-2072,-888,-101,-2288,1319
5715,-1808,-2264,-888,-11,-2392,1410
5720,-2344,-2472,-960,53,-2519,1536
5725,-2920,-2512,-1104,103,-2648,1689
5730,-3456,-2536,-1192,89,-2753,1841
5735,-4040,-2672,-1432,27,-2803,2027
5740,-4808,-3224,-1528,-6,-2819,2236
5745,-5960,-3632,-1904,86,-2877,2443
5750,-6880,-4032,-2248,249,-2964,2682
5755,-7960,-4272,-2232,404,-3005,2909
5760,-8960,-4248,-2096,553,-2999,3131
5765,-9232,-3888,-1832,684,-2906,3432
5770,-8768,-3400,-1448,790,-2685,3756
5775,-7928,-2632,-832,869,-2436,4045
5780,-6560,-2056,-168,942,-2226,4289
5785,-4824,-1536,368,968,-2062,4378
5790,-3048,-1368,688,920,-1876,4359
5795,-1816,-1400,832,818,-1675,4245
5800,-1064,-1536,720,736,-1498,4043
5805,-672,-1568,416,681,-1360,3799
5810,-664,-1696,136,687,-1243,3616
5815,-904,-1752,-8,718,-1119,3488
5820,-1424,-1816,32,714,-939,3392
5825,-1504,-1920,16,713,-725,3324
5830,-1904,-1872,184,761,-481,3233
5835,-1928,-1600,192,885,-320,3156
5840,-1800,-1256,8,1047,-280,3151
5845,-1616,-968,-88,1173,-341,3158
5850,-1488,-800,-184,1235,-463,3104
5855,-1712,-624,-24,1285,-574,3008
5860,-1872,-464,192,1338,-700,2945
5865,-1872,-320,440,1390,-850,2946
5870,-1552,-240,208,1450,-1015,2985
5875,-1328,-272,280,1445,-1108,3026
5880,-1056,-152,88,1422,-1191,3051
5885,-720,-32,160,1394,-1186,3067
5890,-552,64,208,1332,-1146,3048
5895,-384,136,144,1268,-1097,3005
5900,-384,128,176,1191,-1004,2945
5905,-464,224,136,1135,-910,2862
5910,-568,336,112,1099,-836,2765
5915,-600,384,96,1060,-793,2658
5920,-648,464,80,1031,-753,2553
5925,-840,520,120,1022,-731,2455
5930,-1048,528,176,1042,-718,2371
5935,-1232,528,224,1074,-731,2273
5940,-1296,560,176,1120,-774,2157
5945,-1440,672,304,1167,-805,2022
5950,-1592,816,368,1216,-832,1890
5955,-1792,1000,496,1229,-852,1759
5960,-1960,1240,544,1218,-879,1629
5965,-2080,1424,608,1198,-908,1520
5970,-2200,1608,512,1177,-953,1395
5975,-2216,1624,448,1155,-981,1259
5980,-2208,1928,488,1122,-1003,1092
5985,-2320,2144,496,1104,-1009,935
5990,-2320,2296,456,1078,-1002,797
5995,-2368,2320,416,1049,-976,667
6000,-2256,2368,312,1014,-924,493
6005,-2128,2232,312,968,-845,337
6010,-2064,2200,208,926,-777,158
6015,-2112,2088,176,897,-728,2
6020,-2056,2056,216,854,-679,-134
6025,-2112,1936,184,837,-637,-222
6030,-2080,1792,272,820,-620,-287
6035,-2072,1584,240,780,-606,-309
6040,-1872,1416,288,737,-607,-325
6045,-1840,1208,408,691,-622,-339
6050,-1872,1000,544,665,-639,-354
6055,-1752,912,648,614,-598,-392
6060,-1632,920,784,529,-511,-402
6065,-1472,864,840,425,-432,-348
6070,-1256,800,808,341,-421,-252
6075,-1184,792,696,307,-478,-142
6080,-1104,784,536,326,-565,-36
6085,-1008,800,456,376,-639,47
6090,-1016,824,360,441,-692,111
6095,-1048,936,352,509,-735,153
6100,-1120,1056,296,562,-758,176
6105,-1176,1160,328,588,-764,180
6110,-1288,1256,344,592,-754,173
6115,-1304,1248,384,582,-735,161
6120,-1272,1368,320,568,-713,143
6125,-1312,1448,368,529,-679,123
6130,-1384,1464,376,474,-634,103
6135,-1392,1488,384,409,-596,80
6140,-1352,1408,392,341,-572,54
6145,-1336,1304,400,273,-552,35
6150,-1400,1240,464,200,-528,-10
6155,-1408,1160,496,117,-520,-52
6160,-1432,1080,592,33,-518,-83
6165,-1408,984,608,-56,-515,-107
6170,-1440,872,680,-139,-498,-127
6175,-1424,768,712,-211,-477,-139
6180,-1440,640,720,-259,-453,-147
6185,-1488,536,736,-275,-424,-144
6190,-1536,424,704,-261,-396,-140
6195,-1624,400,728,-218,-370,-134
6200,-1616,344,704,-160,-351,-126
6205,-1608,288,704,-97,-326,-122
6210,-1592,360,584,-36,-297,-129
6215,-1648,376,632,12,-272,-141
6220,-1656,440,616,39,-247,-161
6225,-1680,488,624,45,-225,-185
6230,-1632,512,648,37,-205,-212
6235,-1616,592,696,21,-185,-237
6240,-1624,648,640,2,-165,-258
6245,-1632,688,664,-18,-147,-275
6250,-1616,752,696,-31,-126,-284
6255,-1600,776,712,-34,-101,-297
6260,-1592,808,680,-43,-81,-315
6265,-1608,800,704,-61,-56,-331
6270,-1512,800,632,-95,-25,-354
6275,-1512,776,632,-152,14,-382
6280,-1464,720,624,-216,52,-423
6285,-1504,672,608,-284,100,-458
6290,-1480,624,640,-347,153,-486
6295,-1464,528,648,-402,207,-508
6300,-1464,480,624,-445,252,-516
6305,-1448,432,600,-481,291,-524
6310,-1504,424,576,-512,331,-538
6315,-1512,344,576,-546,375,-552
6320,-1464,384,504,-583,419,-560
6325,-1512,240,648,-616,453,-558
6330,-1520,200,632,-629,473,-548
6335,-1480,104,664,-620,486,-533
6340,-1496,48,616,-591,482,-517
6345,-1488,0,552,-541,468,-496
6350,-1520,32,544,-484,448,-475
6355,-1536,8,496,-426,415,-448
6360,-1536,-24,416,-374,385,-429
6365,-1584,-16,344,-336,373,-420
6370,-1672,0,488,-277,384,-405
6375,-1744,88,280,-217,349,-381
6380,-1800,24,360,-168,335,-354
6385,-1856,72,336,-130,335,-329
6390,-1904,96,352,-100,333,-320
6395,-1936,112,368,-73,344,-310
6400,-1976,88,392,-53,358,-303
6405,-1952,56,408,-42,377,-296
6410,-1976,128,488,-34,405,-292
6415,-1952,136,480,-23,431,-291
6420,-1936,112,504,-17,453,-288
6425,-1928,112,520,-21,475,-281
6430,-1824,72,592,-28,498,-264
6435,-1784,80,496,-34,523,-238
6440,-1720,88,560,-42,548,-214
6445,-1680,40,552,-46,582,-184
6450,-1640,64,560,-39,614,-157
6455,-1608,64,528,-27,633,-139
6460,-1616,72,544,-14,645,-126
6465,-1560,80,552,1,653,-113
6470,-1560,120,512,19,664,-99
6475,-1576,160,480,31,676,-89
6480,-1616,136,464,39,689,-82
6485,-1608,192,312,43,708,-66
6490,-1672,168,400,50,738,-59
6495,-1752,168,376,59,769,-60
6500,-1824,184,376,67,800,-61
6505,-1864,168,352,81,822,-51
6510,-1968,192,336,98,836,-49
6515,-1968,168,328,122,854,-48
6520,-2040,120,312,153,869,-45
6525,-2072,136,328,185,887,-43
6530,-2104,136,288,216,908,-41
6535,-2032,144,160,249,933,-43
6540,-2128,136,200,275,959,-46
6545,-2096,168,136,293,981,-54
6550,-2104,216,136,301,1002,-69
6555,-2064,208,120,301,1018,-77
6560,-2008,200,80,293,1031,-85
6565,-1968,240,56,280,1037,-89
6570,-1936,208,64,263,1033,-89
6575,-1960,272,56,237,1015,-95
6580,-1904,192,80,214,976,-96
6585,-1872,192,64,190,928,-105
6590,-1848,192,72,164,874,-110
6595,-1848,200,64,148,820,-109
6600,-1840,184,40,141,765,-104
6605,-1864,192,8,144,719,-98
6610,-1872,192,-40,141,679,-92
6615,-1888,168,-96,136,649,-92
6620,-1944,144,-104,130,620,-95
6625,-1992,184,-152,124,593,-97
6630,-2008,208,-152,119,567,-97
6635,-2024,200,-160,112,543,-97
6640,-2016,216,-168,103,519,-98
6645,-2040,144,-40,97,495,-96
6650,-2080,200,-136,96,473,-98
6655,-2064,200,-112,99,446,-103
6660,-2064,168,-120,104,419,-106
6665,-2048,184,-144,110,392,-107
6670,-2040,192,-120,114,369,-104
6675,-2056,184,-96,116,350,-97
6680,-2024,168,-160,119,341,-90
6685,-2048,184,-112,124,336,-81
6690,-2048,208,-144,130,334,-74
6695,-2048,232,-136,139,329,-70
6700,-2088,272,-80,152,322,-66
6705,-2024,248,-112,162,312,-64
6710,-1992,224,-128,166,303,-63
6715,-1992,264,-96,170,291,-64
6720,-2000,248,-128,176,278,-63
6725,-1976,256,-96,178,262,-63
6730,-1960,232,-136,177,248,-64
6735,-1984,256,-120,175,233,-63
6740,-2000,248,-96,174,221,-64
6745,-1984,208,-88,179,209,-62
6750,-1976,208,-88,189,198,-62
6755,-1976,248,-144,196,193,-59
6760,-1952,248,-120,200,189,-57
6765,-1944,224,-104,199,191,-57
6770,-1968,248,-96,201,198,-58
6775,-1976,256,-112,202,204,-61
6780,-1928,232,-96,209,214,-66
6785,-1936,240,-72,213,225,-73
6790,-1960,248,-72,219,236,-77
6795,-1952,232,-40,226,248,-84
6800,-1904,232,-80,227,261,-84
6805,-1912,280,-104,219,278,-83
6810,-1896,240,-64,206,298,-85
6815,-1936,280,-88,195,316,-84
6820,-1888,256,-72,180,328,-81
6825,-1920,256,-96,158,333,-78
6830,-1904,240,-96,135,332,-77
6835,-1920,224,-128,114,326,-75
6840,-1912,224,-128,95,319,-72
6845,-1928,224,-136,84,311,-67
6850,-1944,216,-144,74,300,-63
6855,-1944,216,-160,67,286,-55
6860,-1976,224,-176,58,270,-50
6865,-1984,240,-192,53,253,-44
6870,-1992,232,-248,51,233,-42
6875,-1984,224,-208,47,214,-39
6880,-1976,224,-216,46,197,-38
6885,-2008,224,-256,45,179,-35
6890,-2032,256,-216,43,162,-33
6895,-2024,240,-264,42,146,-32
6900,-2016,232,-264,40,130,-31
6905,-2040,240,-256,36,113,-31
6910,-2032,224,-272,37,92,-30
6915,-2040,248,-256,36,70,-28
6920,-2040,232,-264,36,49,-27
6925,-2064,224,-248,36,24,-22
6930,-2064,256,-272,38,-2,-18
6935,-2072,248,-272,38,-28,-16
6940,-2088,256,-288,40,-53,-11
6945,-2072,240,-296,42,-79,-6
6950,-2072,256,-288,46,-103,-6
6955,-2104,240,-312,46,-122,-6
6960,-2096,216,-288,44,-138,-3
6965,-2064,208,-248,42,-149,2
6970,-2064,216,-256,44,-156,3
6975,-2040,200,-224,51,-157,3
6980,-2024,224,-224,65,-150,6
6985,-1960,200,-176,80,-138,10
6990,-1936,208,-136,94,-120,13
6995,-1928,232,-168,104,-106,14
7000,-1880,232,-144,110,-90,15
7005,-1848,256,-136,113,-79,16
7010,-1840,256,-80,115,-69,16
7015,-1816,272,-96,121,-62,14
7020,-1792,240,-72,128,-64,8
7025,-1800,248,-64,135,-66,4
7030,-1784,272,-40,135,-67,-1
7035,-1864,280,-32,134,-77,-3
7040,-1824,256,-80,130,-96,-4
7045,-1888,296,-72,125,-119,-5
7050,-1952,264,-24,116,-151,-6
7055,-1968,272,-64,101,-189,-2
7060,-2000,272,-48,80,-227,4
7065,-1992,256,-64,58,-253,5
7070,-1976,248,-72,41,-265,5
7075,-1976,248,-96,32,-262,4
7080,-1992,280,-80,29,-251,-3
7085,-1968,272,-120,35,-234,-15
7090,-1984,288,-112,45,-216,-30
7095,-1968,288,-128,54,-193,-51
7100,-2000,344,-128,63,-168,-76
7105,-1984,312,-152,71,-143,-97
7110,-1992,328,-144,73,-120,-116
7115,-2040,336,-128,68,-104,-134
7120,-2024,296,-120,55,-100,-147
7125,-2040,304,-136,38,-98,-149
7130,-2000,272,-104,18,-100,-145
7135,-1984,248,-96,-1,-102,-138
7140,-1968,224,-120,-19,-99,-131
7145,-1936,232,-128,-37,-98,-125
7150,-1904,216,-88,-53,-98,-119
7155,-1912,216,-96,-63,-99,-111
7160,-1872,248,-104,-71,-99,-106
7165,-1848,264,-96,-71,-99,-99
7170,-1808,264,-88,-75,-96,-99
7175,-1784,280,-48,-80,-92,-101
7180,-1752,224,-40,-85,-87,-110
7185,-1728,208,-8,-92,-85,-123
7190,-1728,184,8,-94,-82,-132
7195,-1752,208,16,-94,-82,-134
7200,-1760,176,0,-92,-88,-135
7205,-1808,176,8,-93,-95,-133
7210,-1856,168,32,-95,-102,-133
7215,-1856,160,32,-102,-114,-131
7220,-1928,160,8,-106,-129,-126
7225,-1952,168,-8,-107,-143,-119
7230,-1936,160,-16,-109,-153,-109
7235,-1992,192,0,-108,-156,-97
7240,-2000,192,-48,-110,-152,-91
7245,-2016,200,-40,-111,-147,-90
7250,-2032,200,-104,-112,-143,-92
7255,-2040,208,-96,-113,-140,-97
7260,-2056,224,-112,-113,-140,-102
7265,-2064,208,-128,-109,-142,-108
7270,-2088,248,-104,-107,-149,-119
7275,-2112,240,-112,-107,-161,-128
7280,-2088,248,-120,-108,-172,-133
7285,-2080,216,-120,-107,-181,-139
7290,-2080,240,-144,-103,-185,-144
7295,-2056,248,-160,-103,-187,-145
7300,-2072,224,-144,-107,-184,-151
7305,-2000,208,-104,-117,-175,-153
7310,-1952,216,-72,-126,-162,-165
7315,-2016,216,-56,-128,-150,-182
7320,-1952,168,-80,-132,-144,-194
7325,-1968,232,-48,-136,-140,-203
7330,-1888,208,-96,-135,-139,-209
7335,-1920,192,-48,-146,-140,-231
7340,-1944,200,-64,-154,-152,-249
7345,-1968,208,-80,-154,-176,-261
7350,-1984,208,-88,-153,-208,-271
7355,-2040,248,-152,-162,-249,-273
7360,-2008,216,-176,-178,-292,-265
7365,-1992,168,-152,-214,-314,-263
7370,-2032,144,-168,-259,-323,-252
7375,-2024,80,-168,-302,-325,-232
7380,-2032,56,-144,-340,-313,-213
7385,-2000,56,-72,-368,-296,-179
7390,-1904,40,-56,-387,-277,-148
7395,-1864,32,0,-405,-252,-124
7400,-1800,16,8,-420,-227,-103
7405,-1752,16,56,-420,-198,-81
7410,-1704,8,80,-409,-189,-65
7415,-1640,-24,192,-403,-196,-56
7420,-1624,-24,248,-403,-213,-50
7425,-1624,-24,264,-391,-223,-33
7430,-1648,8,344,-366,-224,-14
7435,-1672,0,344,-332,-225,10
7440,-1704,16,336,-307,-223,25
7445,-1776,48,344,-290,-218,36
7450,-1784,96,328,-271,-214,47
7455,-1768,112,272,-259,-209,61
7460,-1816,112,224,-259,-199,66
7465,-1864,168,192,-272,-192,63
7470,-1880,160,168,-273,-182,66
7475,-1912,192,128,-271,-163,68
7480,-1944,144,72,-275,-139,59
7485,-1952,160,56,-281,-116,44
7490,-2000,184,48,-281,-88,32
7495,-1960,192,24,-271,-61,21
7500,-2016,136,48,-267,-36,-7
7505,-2032,96,64,-275,-15,-35
7510,-2008,96,72,-278,1,-57
7515,-2032,120,88,-271,18,-69
7520,-2048,96,80,-260,29,-78
7525,-2016,104,80,-248,33,-81
7530,-2000,48,120,-247,37,-97
7535,-1968,40,152,-248,45,-109
7540,-1992,40,136,-239,53,-108
7545,-1952,40,144,-219,66,-104
7550,-1920,64,128,-192,82,-95
7555,-1880,16,152,-175,105,-96
7560,-1872,16,72,-172,127,-111
7565,-1880,24,112,-169,145,-120
7570,-1904,112,144,-156,157,-112
7575,-1824,88,120,-140,160,-101
7580,-1784,112,120,-134,162,-96
7585,-1752,24,64,-136,165,-97
7590,-1784,32,120,-146,172,-109
7595,-1800,32,168,-148,171,-109
7600,-1768,0,160,-138,164,-102
7605,-1808,-16,184,-128,159,-98
7610,-1832,0,216,-117,151,-91
7615,-1848,0,232,-101,139,-79
7620,-1888,0,232,-81,132,-63
7625,-1864,8,232,-65,130,-47
7630,-1896,8,240,-50,137,-33
7635,-1872,16,168,-38,158,-22
7640,-1888,24,208,-24,185,-16
7645,-1872,64,152,-13,216,-14
7650,-1904,104,96,-7,250,-12
7655,-1904,112,96,-4,281,-11
7660,-1944,168,88,-11,305,-15
7665,-1928,104,40,-23,321,-23
7670,-1888,96,24,-52,338,-41
7675,-1936,88,32,-79,354,-51
7680,-1944,72,56,-97,365,-55
7685,-1944,112,32,-103,370,-44
7690,-1880,40,8,-104,371,-43
7695,-1888,24,16,-114,375,-54
7700,-1896,48,24,-116,376,-56
7705,-1896,16,32,-110,372,-54
7710,-1960,64,32,-101,367,-54
7715,-1912,56,8,-97,356,-49
7720,-1944,96,0,-99,351,-48
7725,-1928,24,0,-100,344,-41
7730,-1896,8,-16,-102,335,-43
7735,-1912,16,-40,-106,324,-44
7740,-1896,0,-16,-109,311,-36
7745,-1928,-16,0,-102,295,-27
7750,-1952,-8,-40,-96,275,-24
7755,-1968,0,-40,-85,257,-20
7760,-1960,24,-8,-72,236,-16
7765,-1952,16,-72,-52,214,-12
7770,-1920,16,-72,-42,198,-6
7775,-1920,24,-56,-34,182,-4
7780,-1936,48,-88,-32,168,-5
7785,-1936,24,-96,-34,159,-7
7790,-1944,64,-64,-39,154,-6
7795,-1976,56,-80,-43,153,-1
7800,-1960,80,-56,-43,152,4
7805,-1920,48,-48,-44,152,7
7810,-1920,48,-64,-49,149,4
7815,-1936,40,-88,-53,147,4
7820,-1944,72,-80,-55,142,6
7825,-1960,64,-64,-57,136,12
7830,-1944,32,-72,-58,128,15
7835,-1968,24,-96,-57,117,21
7840,-1984,56,-96,-53,107,26
7845,-1984,56,-120,-53,100,30
7850,-1992,24,-120,-50,94,35
7855,-2000,56,-96,-48,85,40
7860,-2000,64,-112,-50,79,45
7865,-2000,72,-104,-48,74,49
7870,-2008,88,-136,-45,71,51
7875,-1984,88,-88,-43,67,55
7880,-2000,88,-136,-42,65,56
7885,-2000,88,-144,-45,60,55
7890,-2008,96,-168,-50,51,53
7895,-2016,88,-168,-56,44,47
7900,-1968,80,-152,-61,35,43
7905,-1992,64,-168,-67,28,40
7910,-1960,80,-168,-72,19,34
7915,-1976,72,-152,-79,14,30
7920,-1968,64,-112,-86,5,23
7925,-1928,56,-136,-86,-4,14
7930,-1960,88,-136,-89,-14,9
7935,-1952,88,-120,-89,-26,1
7940,-1952,104,-96,-89,-37,-7
7945,-1968,104,-56,-89,-48,-15
7950,-1952,112,-88,-90,-58,-22
7955,-1936,104,-112,-97,-63,-27
7960,-1976,112,-104,-103,-69,-32
7965,-1952,88,-88,-113,-74,-33
7970,-1976,88,-96,-123,-75,-36
7975,-1976,96,-112,-136,-78,-40
7980,-1984,104,-144,-145,-78,-42
7985,-2000,96,-80,-150,-79,-45
7990,-1992,96,-120,-152,-83,-49
7995,-1984,88,-72,-154,-85,-51
8000,-1984,48,-112,-153,-88,-54
8005,-1992,56,-144,-151,-93,-54
8010,-1992,48,-120,-153,-100,-57
8015,-1984,32,-88,-152,-107,-58
8020,-1976,32,-104,-149,-116,-57
8025,-1992,56,-80,-149,-125,-59
8030,-1984,40,-72,-148,-132,-57
8035,-1960,56,-72,-148,-139,-57
8040,-1968,32,-48,-150,-142,-56
8045,-1952,32,-72,-150,-141,-52
8050,-1968,16,-48,-153,-142,-50
8055,-1944,48,-8,-156,-138,-48
8060,-1976,40,-16,-157,-132,-47
8065,-1944,40,-16,-159,-126,-44
8070,-1960,56,-32,-161,-120,-42
8075,-1928,56,-32,-167,-115,-39
8080,-1904,32,-16,-168,-111,-37
8085,-1920,40,0,-166,-110,-35
8090,-1912,24,16,-165,-111,-34
8095,-1920,32,0,-164,-114,-31
8100,-1920,40,24,-161,-119,-25
8105,-1904,8,8,-159,-123,-21
8110,-1952,64,8,-161,-126,-15
8115,-1928,40,8,-162,-130,-12
8120,-1904,16,0,-163,-129,-9
8125,-1920,32,0,-163,-128,-8
8130,-1936,8,16,-162,-124,-5
8135,-1904,8,8,-152,-121,-6
8140,-1928,40,-8,-140,-117,-5
8145,-1936,16,8,-128,-113,0
8150,-1920,24,0,-117,-113,2
8155,-1952,24,-8,-105,-113,5
8160,-1936,40,0,-96,-114,9
8165,-1928,8,8,-92,-117,14
8170,-1912,8,0,-91,-123,11
8175,-1928,8,-24,-91,-126,7
8180,-1912,0,-8,-86,-127,5
8185,-1936,24,16,-80,-129,4
8190,-1904,40,0,-73,-132,11
8195,-1880,8,16,-67,-133,15
8200,-1896,8,24,-72,-136,14
8205,-1904,24,80,-75,-138,10
8210,-1896,40,88,-71,-138,10
8215,-1904,48,80,-67,-139,11
8220,-1880,24,80,-64,-137,11
8225,-1896,0,104,-65,-135,8
8230,-1920,16,56,-61,-131,10
8235,-1904,48,64,-50,-126,18
8240,-1880,56,80,-40,-118,20
8245,-1888,56,40,-39,-110,18
8250,-1896,40,64,-40,-101,13
8255,-1888,32,24,-37,-92,10
8260,-1920,56,32,-35,-84,9
8265,-1912,40,56,-34,-77,10
8270,-1912,56,72,-35,-74,8
8275,-1880,56,64,-36,-71,6
8280,-1912,40,56,-35,-68,3
8285,-1904,40,72,-35,-63,1
8290,-1920,72,72,-32,-56,1
8295,-1912,64,72,-31,-49,3
8300,-1880,32,64,-30,-43,-2
8305,-1920,40,80,-32,-38,-7
8310,-1904,40,72,-29,-32,-10
8315,-1920,56,64,-25,-28,-11
8320,-1928,48,88,-25,-24,-13
8325,-1928,48,48,-26,-19,-15
8330,-1944,48,56,-26,-15,-15
8335,-1904,40,48,-27,-11,-17
8340,-1936,40,56,-28,-7,-16
8345,-1928,40,48,-28,-4,-17
8350,-1928,48,48,-28,-1,-17
8355,-1928,16,16,-27,0,-17
8360,-1936,24,40,-28,-2,-14
8365,-1912,24,56,-27,0,-14
8370,-1920,8,16,-26,-2,-14
8375,-1912,32,40,-25,-4,-11
8380,-1936,32,32,-25,-3,-9
8385,-1888,8,72,-24,-2,-8
8390,-1920,16,64,-24,-2,-5
8395,-1896,32,80,-22,-1,-3
8400,-1912,48,40,-21,1,-4
8405,-1896,16,72,-20,4,0
8410,-1896,40,32,-20,8,1
8415,-1912,48,64,-20,11,1
8420,-1904,48,64,-19,13,5
8425,-1920,48,96,-18,16,7
8430,-1904,32,32,-21,20,10
8435,-1888,56,88,-23,20,9
8440,-1920,32,72,-24,23,10
8445,-1880,48,64,-24,28,10
8450,-1912,56,112,-21,31,12
8455,-1928,56,96,-21,34,14
8460,-1912,24,80,-22,39,14
8465,-1928,48,48,-22,42,14
8470,-1928,56,80,-23,48,14
8475,-1896,48,32,-25,54,14
8480,-1928,32,64,-26,59,15
8485,-1920,64,40,-28,61,15
8490,-1928,64,56,-31,62,12
8495,-1896,56,64,-33,62,15
8500,-1952,48,16,-36,61,13
8505,-1928,32,16,-38,61,13
8510,-1928,72,24,-38,60,12
8515,-1944,48,16,-41,61,10
8520,-1944,64,24,-41,61,8
8525,-1920,56,24,-44,58,6
8530,-1920,40,8,-46,55,5
8535,-1920,40,32,-49,51,5
8540,-1928,48,16,-50,49,5
8545,-1944,40,16,-50,44,3
8550,-1936,48,24,-49,39,3
8555,-1944,48,24,-49,33,1
8560,-1952,56,8,-49,28,0
8565,-1928,40,8,-48,21,0
8570,-1952,40,0,-49,16,-2
8575,-1944,72,48,-47,10,-3
8580,-1952,32,16,-43,6,-3
8585,-1976,40,16,-45,3,-3
8590,-1960,56,16,-44,-4,-3
8595,-1952,56,24,-45,-10,-3
8600,-1944,48,32,-44,-15,-2
8605,-1960,56,16,-43,-17,-3
8610,-1952,56,16,-44,-20,-3
8615,-1952,56,24,-45,-25,-2
8620,-1936,48,8,-43,-27,-3
8625,-1920,32,32,-41,-29,-3
8630,-1944,40,32,-42,-32,-2
8635,-1944,48,24,-40,-33,-3
8640,-1928,56,48,-38,-35,-1
8645,-1952,56,24,-38,-39,-1
8650,-1928,48,32,-34,-42,-1
8655,-1896,40,16,-32,-47,-1
8660,-1936,56,40,-30,-50,-1
8665,-1912,32,56,-29,-53,-2
8670,-1912,48,24,-31,-54,0
8675,-1920,64,48,-33,-52,-2
8680,-1928,48,32,-34,-52,-4
8685,-1952,48,80,-38,-50,-3
8690,-1920,80,64,-40,-49,-5
8695,-1944,64,72,-40,-47,-5
8700,-1920,48,56,-43,-43,-5
8705,-1936,40,72,-45,-41,-5
8710,-1888,48,72,-45,-38,-5
8715,-1928,40,48,-44,-36,-5
8720,-1880,32,56,-45,-30,-5
8725,-1920,48,56,-45,-26,-4
8730,-1904,48,40,-45,-25,-5
8735,-1928,40,56,-46,-24,-3
8740,-1928,32,80,-48,-24,-2
8745,-1912,72,104,-47,-25,-2
8750,-1904,24,64,-48,-23,-1
8755,-1912,32,72,-45,-22,-1
8760,-1904,40,80,-42,-22,0
8765,-1920,56,72,-39,-21,-1
8770,-1936,64,88,-38,-21,1
8775,-1920,48,56,-39,-22,2
8780,-1928,40,32,-40,-23,2
8785,-1928,32,40,-39,-24,3
8790,-1920,72,48,-42,-24,2
8795,-1920,40,48,-41,-22,2
8800,-1936,16,56,-38,-20,1
8805,-1928,32,64,-36,-19,0
8810,-1936,24,56,-30,-19,0
8815,-1896,24,72,-28,-19,1
8820,-1936,48,104,-27,-18,3
8825,-1912,40,64,-28,-16,2
8830,-1904,32,104,-32,-12,3
8835,-1912,24,88,-36,-8,7
8840,-1896,16,80,-36,-4,9
8845,-1912,24,80,-34,-1,11
8850,-1936,32,64,-31,3,13
8855,-1888,24,64,-27,3,15
8860,-1920,48,72,-24,3,18
8865,-1920,56,56,-22,3,20
8870,-1920,64,80,-24,-1,22
8875,-1904,48,40,-27,-6,21
8880,-1904,24,32,-32,-11,22
8885,-1928,56,56,-34,-16,23
8890,-1928,24,64,-36,-18,24
8895,-1928,48,64,-37,-22,24
8900,-1912,32,40,-38,-24,26
8905,-1920,72,40,-37,-26,25
8910,-1912,24,48,-38,-29,24
8915,-1912,72,80,-37,-31,24
8920,-1920,40,80,-35,-30,21
8925,-1928,64,64,-37,-28,21
8930,-1928,72,72,-39,-26,20
8935,-1928,56,88,-36,-23,20
8940,-1928,80,80,-33,-22,18
8945,-1920,56,72,-34,-20,17
8950,-1912,48,32,-35,-19,16
8955,-1896,80,56,-35,-17,15
8960,-1920,80,72,-36,-15,16
8965,-1920,64,48,-38,-14,15
8970,-1936,40,64,-39,-15,14
8975,-1896,64,56,-39,-18,15
8980,-1896,72,80,-37,-21,14
8985,-1920,56,56,-37,-24,13
8990,-1912,64,56,-34,-24,10
8995,-1904,88,80,-31,-26,9
9000,-1928,64,56,-31,-29,7
9005,-1904,64,56,-27,-29,5
9010,-1928,64,56,-27,-31,4
9015,-1888,56,32,-25,-30,3
9020,-1936,72,72,-28,-30,1
9025,-1904,64,64,-29,-26,3
9030,-1944,80,88,-31,-23,3
9035,-1912,48,40,-36,-20,3
9040,-1928,56,104,-38,-18,5
9045,-1920,80,104,-40,-18,4
9050,-1896,56,112,-43,-18,3
9055,-1912,64,88,-42,-20,3
9060,-1920,40,56,-44,-23,2
9065,-1904,56,48,-43,-26,1
9070,-1944,72,56,-42,-30,1
9075,-1912,64,88,-41,-32,0
9080,-1928,88,72,-41,-34,0
9085,-1936,64,96,-39,-33,0
9090,-1928,80,88,-40,-33,-2
9095,-1904,48,64,-40,-31,-4
9100,-1912,56,80,-41,-30,-6
9105,-1928,40,64,-42,-28,-5
9110,-1920,56,104,-41,-26,-6
9115,-1912,64,72,-42,-24,-6
9120,-1912,40,88,-43,-24,-6
9125,-1896,40,88,-43,-23,-6
9130,-1912,40,96,-41,-24,-4
9135,-1920,56,104,-41,-25,-4
9140,-1904,72,48,-43,-28,-3
9145,-1920,72,72,-44,-29,-4
9150,-1928,72,88,-44,-29,-3
9155,-1888,32,88,-44,-28,-3
9160,-1896,72,104,-46,-29,-4
9165,-1912,48,80,-48,-30,-2
9170,-1928,72,88,-47,-30,-3
9175,-1912,56,128,-47,-31,-1
9180,-1896,48,104,-49,-32,-1
9185,-1928,72,80,-49,-33,-1
9190,-1920,72,104,-49,-31,1
9195,-1888,72,64,-49,-31,1
9200,-1912,56,72,-49,-31,-1
9205,-1920,64,80,-51,-31,-1
9210,-1944,64,88,-51,-31,1
9215,-1904,64,64,-50,-30,0
9220,-1896,64,72,-49,-31,1
9225,-1896,64,104,-45,-30,2
9230,-1952,72,96,-44,-32,0
9235,-1920,40,120,-44,-32,-1
9240,-1912,32,88,-42,-32,-2
9245,-1920,72,96,-43,-32,0
9250,-1912,72,96,-43,-32,2
9255,-1912,88,112,-44,-32,3
9260,-1920,72,112,-44,-33,4
9265,-1928,72,96,-43,-31,3
9270,-1904,48,96,-43,-30,3
9275,-1920,80,112,-44,-30,4
9280,-1896,48,96,-45,-28,5
9285,-1904,48,144,-46,-25,4
9290,-1912,64,104,-46,-22,4
9295,-1912,72,80,-46,-18,4
9300,-1904,88,136,-50,-15,3
9305,-1896,64,104,-50,-12,1
9310,-1904,88,128,-52,-11,1
9315,-1896,72,112,-53,-9,0
9320,-1928,80,112,-53,-8,-3
9325,-1896,72,112,-53,-7,-3
9330,-1888,40,112,-53,-6,-5
9335,-1912,64,112,-54,-7,-3
9340,-1888,72,128,-53,-7,-2
9345,-1904,56,112,-53,-6,-2
9350,-1920,64,128,-53,-4,-3
9355,-1920,80,96,-53,-3,-1
9360,-1928,48,112,-54,-3,-1
9365,-1888,32,128,-54,-2,-1
9370,-1904,56,120,-55,-2,-2
9375,-1912,56,104,-56,0,-2
9380,-1904,48,80,-53,-1,0
9385,-1904,64,80,-55,-2,-1
9390,-1904,72,128,-54,-4,-1
9395,-1928,64,112,-51,-1,-1
9400,-1904,64,120,-50,0,-1
9405,-1928,56,120,-49,-1,-2
9410,-1904,48,88,-48,1,-4
9415,-1912,48,96,-48,1,-4
9420,-1912,72,112,-48,2,-4
9425,-1912,64,128,-48,2,-3
9430,-1920,64,112,-49,4,-3
9435,-1912,56,160,-49,6,-2
9440,-1904,56,128,-49,6,-2
9445,-1896,56,120,-50,5,-1
9450,-1912,48,112,-48,4,-2
9455,-1928,56,120,-50,4,-1
9460,-1936,48,112,-54,5,-1
9465,-1896,56,120,-54,5,-3
9470,-1920,64,152,-53,6,-2
9475,-1920,80,112,-50,9,-3
9480,-1912,40,120,-47,10,-2
9485,-1896,56,104,-43,11,-3
9490,-1912,64,128,-43,11,-2
9495,-1912,80,96,-42,8,0
9500,-1896,80,120,-45,6,-2
9505,-1904,80,112,-48,2,-1
9510,-1896,64,104,-49,0,-2
9515,-1896,32,96,-48,0,-4
9520,-1888,56,112,-45,0,-4
9525,-1896,48,128,-41,-1,-3
9530,-1912,64,136,-36,-1,-5
9535,-1920,64,136,-32,-1,-5
9540,-1920,48,144,-31,0,-3
9545,-1904,56,120,-32,1,-4
9550,-1888,48,136,-34,3,-4
9555,-1896,32,120,-37,6,-3
9560,-1896,40,168,-39,9,-2
9565,-1912,24,152,-38,13,0
9570,-1936,64,104,-30,15,3
9575,-1920,56,104,-23,12,5
9580,-1912,64,88,-17,9,7
9585,-1936,72,80,-14,5,8
9590,-1936,72,88,-16,-1,10
9595,-1904,72,128,-20,-4,12
9600,-1928,80,88,-28,-8,13
9605,-1920,72,80,-33,-12,12
9610,-1928,80,104,-39,-16,14
9615,-1928,56,112,-44,-22,16
9620,-1912,72,136,-46,-25,19
9625,-1920,104,136,-50,-28,18
9630,-1896,88,120,-53,-29,15
9635,-1920,88,96,-51,-29,12
9640,-1944,96,120,-50,-27,9
9645,-1912,96,112,-50,-25,7
9650,-1920,56,136,-48,-22,4
9655,-1904,80,136,-48,-18,2
9660,-1912,88,128,-46,-16,1
9665,-1896,48,160,-47,-13,-2
9670,-1928,72,160,-48,-11,-2
9675,-1920,64,120,-48,-8,-2
9680,-1904,64,96,-49,-4,-3
9685,-1888,56,128,-48,-1,-5
9690,-1904,72,120,-48,3,-4
9695,-1904,72,136,-47,6,-6
9700,-1904,88,144,-44,7,-9
9705,-1888,64,144,-46,8,-7
9710,-1896,80,112,-45,8,-10
9715,-1864,56,128,-46,10,-11
9720,-1912,80,144,-47,10,-13
9725,-1896,88,112,-49,14,-14
9730,-1880,64,168,-50,17,-15
9735,-1896,64,128,-52,21,-16
9740,-1896,72,120,-56,24,-17
9745,-1904,56,128,-57,27,-17
9750,-1904,64,112,-60,29,-18
9755,-1888,64,120,-64,28,-18
9760,-1904,48,160,-65,31,-18
9765,-1904,80,104,-65,30,-18
9770,-1920,88,112,-67,32,-18
9775,-1880,48,104,-66,33,-17
9780,-1920,40,104,-68,33,-17
9785,-1904,72,104,-68,32,-18
9790,-1896,72,152,-66,30,-19
9795,-1912,72,104,-64,29,-18
9800,-1888,64,144,-64,28,-17
9805,-1912,72,136,-64,29,-18
9810,-1904,48,136,-65,27,-19
9815,-1912,56,120,-64,26,-18
9820,-1904,64,104,-64,25,-19
9825,-1912,48,112,-64,24,-17
9830,-1912,48,72,-64,22,-16
9835,-1912,56,112,-63,21,-14
9840,-1912,56,104,-62,21,-15
9845,-1920,56,120,-62,20,-13
9850,-1888,32,152,-63,18,-13
9855,-1904,64,128,-65,17,-12
9860,-1904,96,112,-66,17,-13
9865,-1888,72,96,-69,19,-13
9870,-1928,64,112,-70,21,-15
9875,-1928,72,96,-73,22,-17
9880,-1880,40,104,-75,24,-16
9885,-1904,72,112,-76,27,-16
9890,-1896,64,152,-76,28,-16
9895,-1896,56,128,-76,28,-15
9900,-1904,64,88,-78,29,-17
9905,-1880,32,136,-79,27,-16
9910,-1904,56,128,-79,28,-16
9915,-1904,80,80,-79,26,-16
9920,-1904,48,120,-78,24,-14
9925,-1912,40,128,-78,22,-15
9930,-1904,32,128,-76,18,-15
9935,-1904,40,120,-73,20,-14
9940,-1912,48,104,-72,21,-14
9945,-1936,64,120,-70,21,-12
9950,-1880,40,128,-68,21,-11
9955,-1912,64,120,-67,19,-12
9960,-1920,64,104,-64,19,-11
9965,-1928,72,128,-64,16,-10
9970,-1912,48,80,-63,16,-9
9975,-1928,72,128,-65,16,-9
9980,-1904,48,80,-66,15,-9
9985,-1904,56,104,-68,16,-8
9990,-1872,56,112,-68,17,-9
9995,-1888,48,128,-67,20,-10
10000,-1896,64,128,-67,23,-12
10005,-1888,80,104,-67,25,-12
10010,-1912,72,104,-68,27,-13
10015,-1904,72,120,-69,29,-13
10020,-1904,72,128,-72,30,-15
10025,-1912,64,144,-74,32,-17
10030,-1872,64,120,-76,36,-17
10035,-1896,72,144,-78,37,-17
10040,-1920,56,136,-80,37,-18
10045,-1896,48,112,-81,38,-19
10050,-1896,48,128,-81,40,-19
10055,-1912,40,112,-79,40,-21
10060,-1888,32,144,-77,39,-19
10065,-1904,48,120,-74,42,-18
10070,-1896,40,128,-73,42,-18
10075,-1920,56,144,-72,42,-19
10080,-1912,56,120,-69,41,-19
10085,-1904,72,112,-69,42,-20
10090,-1912,48,128,-70,44,-21
10095,-1904,40,136,-71,46,-19
10100,-1880,56,128,-72,46,-21
10105,-1904,56,96,-72,47,-21
10110,-1920,72,120,-72,49,-22
10115,-1912,56,112,-72,53,-22
10120,-1920,56,128,-72,53,-20
10125,-1904,40,104,-73,54,-21
10130,-1904,40,80,-73,55,-21
10135,-1912,16,120,-70,54,-21
10140,-1920,64,112,-69,51,-19
10145,-1912,40,96,-68,48,-20
10150,-1904,40,104,-68,47,-20
10155,-1920,56,120,-68,46,-19
10160,-1904,48,104,-65,46,-22
10165,-1912,56,120,-66,44,-20
10170,-1928,48,88,-65,43,-19
10175,-1920,32,112,-66,41,-20
10180,-1928,24,88,-66,41,-20
10185,-1920,40,88,-64,38,-19
10190,-1912,32,88,-63,35,-18
10195,-1928,40,96,-59,32,-18
10200,-1920,48,88,-56,29,-18
10205,-1936,48,112,-54,28,-17
10210,-1936,48,56,-52,26,-18
10215,-1904,56,88,-52,22,-18
10220,-1920,64,104,-50,22,-20
10225,-1904,48,96,-51,20,-19
10230,-1912,56,96,-51,20,-18
10235,-1928,64,96,-52,19,-17
10240,-1888,32,112,-51,19,-16
10245,-1904,32,80,-51,19,-17
10250,-1904,48,96,-54,18,-16
10255,-1896,40,144,-56,16,-16
10260,-1920,40,88,-60,18,-15
10265,-1896,48,112,-63,18,-16
10270,-1896,48,96,-68,20,-15
10275,-1896,48,120,-70,22,-15
10280,-1912,64,112,-65,24,-15
10285,-1888,24,128,-64,24,-16
10290,-1904,32,112,-64,24,-16
10295,-1888,24,96,-66,26,-18
10300,-1904,56,104,-70,28,-18
10305,-1912,72,88,-72,28,-17
10310,-1912,40,120,-76,29,-18
10315,-1912,8,64,-79,32,-19
10320,-1904,32,112,-81,33,-20
10325,-1896,24,96,-79,34,-19
10330,-1888,24,208,-74,34,-21
10335,-1936,40,80,-69,36,-20
10340,-1896,16,120,-63,35,-18
10345,-1928,32,96,-62,35,-17
10350,-1888,56,136,-59,36,-16
10355,-1912,40,96,-63,37,-13
10360,-1904,40,112,-72,39,-11
10365,-1904,16,136,-76,39,-10
10370,-1904,24,168,-80,39,-9
10375,-1912,24,120,-78,43,-6
10380,-1904,32,104,-73,45,-6
10385,-1920,24,208,-64,48,-4
10390,-1912,64,120,-58,50,-5
10395,-1912,48,88,-52,53,-5
10400,-1928,16,80,-51,55,-6
10405,-1904,24,88,-52,58,-6
10410,-1904,48,88,-58,57,-7
10415,-1904,48,88,-63,54,-5
10420,-1920,56,88,-69,50,-5
10425,-1888,48,80,-72,45,-4
10430,-1928,40,80,-76,39,-4
10435,-1928,48,80,-78,34,-5
10440,-1912,40,104,-77,32,-5
10445,-1904,40,96,-78,31,-7
10450,-1944,56,88,-78,31,-8
10455,-1920,24,88,-74,33,-10
10460,-1936,48,80,-71,34,-12
10465,-1920,32,112,-66,36,-14
10470,-1936,24,96,-62,40,-15
10475,-1920,40,104,-56,42,-16
10480,-1920,48,104,-52,42,-18
10485,-1928,48,88,-49,43,-19
10490,-1904,40,104,-48,45,-17
10495,-1912,32,104,-48,45,-19
10500,-1896,40,104,-49,45,-21
10505,-1896,16,72,-50,45,-19
10510,-1912,72,80,-52,46,-19
10515,-1936,40,72,-55,45,-18
10520,-1912,40,80,-57,42,-19
10525,-1896,24,96,-58,41,-18
10530,-1920,32,120,-62,40,-18
10535,-1928,40,88,-63,39,-18
10540,-1928,40,112,-61,40,-18
10545,-1928,32,112,-61,38,-20
10550,-1904,8,112,-61,38,-19
10555,-1936,32,104,-61,36,-19
10560,-1920,48,104,-59,37,-17
10565,-1920,40,64,-56,37,-17
10570,-1912,64,56,-56,38,-18
10575,-1920,32,80,-57,35,-19
10580,-1944,64,40,-56,33,-16
10585,-1920,56,72,-60,30,-15
10590,-1912,48,88,-63,27,-14
10595,-1896,32,144,-59,24,-14
10600,-1928,32,80,-58,21,-12
10605,-1920,24,64,-55,17,-11
10610,-1904,8,72,-54,13,-13
10615,-1904,24,88,-55,10,-13
10620,-1928,16,72,-53,8,-12
10625,-1896,8,64,-50,7,-11
10630,-1928,24,88,-47,8,-9
10635,-1920,24,88,-47,6,-8
10640,-1912,8,64,-47,8,-5
10645,-1912,16,88,-47,6,-3
10650,-1912,8,200,-44,7,-2
10655,-1920,32,88,-43,5,0
10660,-1888,16,80,-45,2,0
10665,-1904,16,80,-43,1,1
10670,-1912,24,96,-43,-1,1
10675,-1920,8,104,-42,-2,1
10680,-1928,24,80,-42,-4,3
10685,-1928,32,40,-41,-5,4
10690,-1920,24,64,-42,-8,4
10695,-1912,32,48,-39,-12,6
10700,-1936,40,88,-37,-15,8
10705,-1920,-56,112,-35,-18,9
10710,-1904,0,72,-35,-22,10
10715,-1920,16,64,-30,-24,10
10720,-1928,24,88,-26,-26,11
10725,-1944,56,96,-25,-27,12
10730,-1936,32,80,-21,-28,14
10735,-1896,24,120,-18,-28,13
10740,-1912,32,72,-16,-30,14
10745,-1904,40,80,-16,-29,15
10750,-1912,48,128,-16,-28,16
10755,-1896,88,128,-19,-27,15
10760,-1904,48,120,-19,-25,14
10765,-1888,24,96,-19,-23,14
10770,-1912,48,120,-20,-21,12
10775,-1904,24,112,-20,-18,12
10780,-1904,40,112,-21,-17,12
10785,-1912,40,120,-21,-15,11
10790,-1920,56,128,-21,-16,11
10795,-1888,32,112,-19,-16,11
10800,-1896,48,104,-20,-16,11
10805,-1904,24,80,-21,-15,9
10810,-1912,-8,192,-23,-14,8
10815,-1936,56,104,-22,-13,9
10820,-1920,48,112,-23,-11,8
10825,-1904,32,136,-24,-10,7
10830,-1920,48,136,-26,-9,6
10835,-1904,48,88,-27,-8,5
10840,-1912,48,64,-29,-6,5
10845,-1896,64,88,-33,-4,5
10850,-1904,48,88,-35,-4,3
10855,-1928,24,128,-33,-5,4
10860,-1912,40,120,-32,-4,3
10865,-1848,24,200,-31,-4,0
10870,-1928,32,88,-30,-5,2
10875,-1912,40,104,-29,-7,2
10880,-1904,48,112,-26,-8,4
10885,-1912,24,176,-26,-10,5
10890,-1920,32,112,-27,-12,4
10895,-1912,24,128,-26,-15,6
10900,-1920,48,80,-25,-16,6
10905,-1904,24,64,-24,-18,6
10910,-1920,56,120,-23,-20,5
10915,-1992,80,160,-22,-20,3
10920,-1920,48,72,-21,-21,2
10925,-1904,32,80,-21,-24,0
10930,-1912,56,64,-23,-26,0
10935,-1928,48,96,-24,-25,-2
10940,-1928,32,104,-28,-25,-3
10945,-1928,48,96,-28,-25,-5
10950,-1912,24,104,-29,-25,-3
10955,-1912,56,104,-30,-25,-1
10960,-1912,24,96,-31,-25,-1
10965,-1912,48,128,-32,-26,-1
10970,-2032,16,192,-33,-31,0
10975,-1920,40,128,-34,-32,0
10980,-1904,48,128,-36,-35,0
10985,-1912,40,112,-37,-34,1
10990,-1912,48,120,-39,-35,0
10995,-1912,56,120,-40,-33,1
11000,-1896,40,144,-36,-30,-1
11005,-1888,48,144,-35,-26,-4
11010,-1888,40,96,-34,-23,-4
11015,-1920,48,120,-32,-22,-3
11020,-1912,48,80,-33,-21,-3
11025,-1960,40,104,-36,-21,-3
11030,-1920,48,96,-36,-20,-2
11035,-1896,40,120,-39,-19,-3
11040,-1912,32,104,-41,-20,-5
11045,-1920,40,88,-41,-20,-5
11050,-1888,40,112,-39,-20,-6
11055,-1896,24,112,-36,-22,-4
11060,-1912,16,128,-32,-24,-4
11065,-1896,48,120,-28,-24,-5
11070,-1936,40,152,-27,-24,-5
11075,-1960,32,192,-26,-23,-3
11080,-1888,16,176,-29,-22,-2
11085,-1880,32,136,-32,-18,0
11090,-1864,16,152,-35,-13,2
11095,-1936,56,136,-37,-8,4
11100,-1904,40,160,-34,-4,6
11105,-1912,24,160,-31,0,6
11110,-1920,40,144,-26,2,8
11115,-1904,40,144,-25,2,9
11120,-1912,48,104,-24,3,9
11125,-1896,40,128,-27,4,8
11130,-1912,64,112,-30,2,9
11135,-1912,24,144,-33,0,9
11140,-1912,40,120,-36,-3,12
11145,-1888,32,136,-37,-5,13
11150,-1904,48,128,-39,-7,11
11155,-1896,72,112,-40,-9,12
11160,-1896,48,136,-41,-12,11
11165,-1888,64,120,-39,-13,12
11170,-1904,48,136,-39,-13,11
11175,-1912,96,96,-38,-12,10
11180,-1888,40,128,-34,-11,9
11185,-1904,48,128,-29,-10,7
11190,-1896,32,136,-26,-10,5
11195,-1912,64,88,-24,-8,6
11200,-1912,64,152,-19,-8,5
11205,-1904,32,136,-19,-9,4
11210,-1904,48,144,-19,-7,4
11215,-1912,56,152,-19,-6,5
11220,-1896,32,128,-20,-6,5
11225,-1896,72,104,-20,-4,5
11230,-1912,32,128,-20,-3,4
11235,-1880,48,176,-20,-2,4
11240,-1920,40,128,-18,-1,3
11245,-1872,24,136,-19,-1,3
11250,-1888,40,128,-20,1,3
11255,-1928,64,120,-19,-1,3
11260,-1896,48,128,-20,0,1
11265,-1896,40,136,-22,1,1
11270,-1864,32,112,-23,3,-2
11275,-1888,48,112,-22,3,-2
11280,-1904,40,136,-22,3,-1
11285,-1912,64,104,-22,3,-1
11290,-1912,48,152,-23,2,-1
11295,-1912,72,136,-24,2,1
11300,-1912,40,104,-26,-2,2
11305,-1928,40,144,-27,-4,3
11310,-1888,48,144,-28,-6,3
11315,-1920,56,112,-32,-8,4
11320,-1896,40,120,-34,-11,2
11325,-1888,40,136,-34,-15,3
11330,-1904,48,120,-32,-16,2
11335,-1896,40,112,-30,-18,2
11340,-1912,32,128,-29,-20,3
11345,-1912,56,136,-27,-19,2
11350,-1896,56,128,-27,-18,1
11355,-1904,56,144,-29,-16,0
11360,-1920,48,120,-32,-14,0
11365,-1896,40,128,-34,-13,1
11370,-1904,72,128,-33,-12,1
11375,-1912,40,128,-35,-11,1
11380,-1896,56,152,-35,-12,1
11385,-1904,40,136,-37,-14,2
11390,-1904,40,128,-37,-14,1
11395,-1912,48,136,-38,-14,2
11400,-1896,48,144,-36,-15,4
11405,-1920,40,152,-38,-16,2
11410,-1904,56,120,-40,-16,4
11415,-1888,16,144,-40,-16,4
11420,-1888,56,160,-42,-16,5
11425,-1896,40,128,-41,-18,5
11430,-1904,56,208,-43,-18,5
11435,-1872,48,152,-40,-20,6
11440,-1904,56,152,-41,-21,6
11445,-1896,48,144,-38,-20,8
11450,-1944,48,128,-37,-20,7
11455,-1904,72,144,-36,-23,8
11460,-1896,80,152,-35,-22,7
11465,-1928,64,136,-36,-21,7
11470,-1912,48,136,-36,-22,7
11475,-1880,48,128,-33,-22,6
11480,-1896,48,120,-34,-21,5
11485,-1904,48,168,-32,-20,2
11490,-1904,56,128,-33,-19,4
11495,-1896,72,152,-31,-18,2
11500,-1896,64,144,-30,-17,2
11505,-1896,72,144,-31,-19,1
11510,-1912,32,136,-33,-19,1
11515,-1872,32,192,-32,-17,1
11520,-1896,48,160,-34,-18,2
11525,-1888,64,176,-32,-18,2
11530,-1888,40,136,-32,-18,1
11535,-1904,64,152,-33,-17,1
11540,-1896,40,176,-35,-16,1
11545,-1904,64,160,-34,-14,1
11550,-1880,48,136,-36,-12,1
11555,-1888,56,160,-35,-11,0
11560,-1896,64,152,-34,-9,-1
11565,-1896,56,144,-33,-8,-2
11570,-1904,72,184,-33,-7,-1
11575,-1896,40,160,-33,-9,-1
11580,-1896,40,160,-34,-9,-2
11585,-1904,72,160,-32,-9,-1
11590,-1912,72,160,-30,-10,0
11595,-1888,32,136,-30,-11,1
11600,-1896,64,176,-31,-10,0
11605,-1912,64,168,-28,-10,2
11610,-1888,48,160,-28,-10,2
11615,-1904,48,176,-28,-12,3
11620,-1912,40,160,-30,-12,5
11625,-1904,56,176,-30,-14,6
11630,-1888,32,160,-31,-17,6
11635,-1888,80,168,-31,-18,7
11640,-1904,64,136,-33,-18,5
11645,-1880,56,176,-35,-21,5
11650,-1872,48,176,-37,-24,4
11655,-1904,88,136,-38,-22,1
11660,-1896,48,176,-39,-22,0
11665,-1904,40,176,-39,-19,0
11670,-1904,48,168,-40,-18,-1
11675,-1896,72,184,-41,-14,0
11680,-1880,32,136,-43,-11,-1
11685,-1880,72,184,-41,-9,0
11690,-1896,64,160,-43,-8,-3
11695,-1904,72,168,-43,-5,-2
11700,-1888,40,168,-42,-6,-2
11705,-1896,48,144,-43,-6,0
11710,-1872,48,160,-43,-9,3
11715,-1872,32,136,-46,-10,2
11720,-1920,56,160,-45,-12,4
11725,-1864,24,152,-44,-14,4
11730,-1880,56,152,-44,-13,5
11735,-1872,56,160,-41,-12,4
11740,-1896,72,160,-38,-12,5
11745,-1888,40,184,-35,-12,4
11750,-1888,64,168,-33,-12,6
11755,-1920,80,144,-33,-11,5
11760,-1904,80,168,-33,-12,4
11765,-1896,80,168,-36,-14,5
11770,-1880,40,152,-38,-15,4
11775,-1904,48,152,-40,-14,2
11780,-1904,48,184,-38,-12,1
11785,-1896,40,184,-38,-12,-2
11790,-1888,48,184,-31,-10,-3
11795,-1896,48,152,-29,-11,-4
11800,-1896,56,200,-25,-9,-5
11805,-1872,48,176,-23,-8,-5
11810,-1880,48,192,-23,-5,-6
11815,-1912,40,176,-25,-2,-5
11820,-1912,40,192,-29,3,-5
11825,-1888,32,208,-31,8,-2
11830,-1880,24,176,-30,9,1
11835,-1872,56,184,-25,11,4
11840,-1880,48,144,-16,11,6
11845,-1888,72,152,-9,9,8
11850,-1880,48,168,-6,5,11
11855,-1896,80,160,-6,2,12
11860,-1872,80,136,-7,-2,13
11865,-1896,64,160,-12,-6,14
11870,-1896,80,128,-18,-10,15
11875,-1920,48,152,-23,-14,16
11880,-1880,72,160,-29,-18,17
11885,-1896,56,184,-32,-22,16
11890,-1872,88,144,-34,-24,16
11895,-1896,72,160,-35,-25,16
11900,-1896,64,144,-37,-26,15
11905,-1904,56,160,-39,-26,15
11910,-1864,80,192,-41,-28,14
11915,-1880,64,168,-39,-29,12
11920,-1912,80,168,-38,-30,10
11925,-1896,80,176,-34,-28,8
11930,-1888,72,152,-32,-28,7
11935,-1920,72,104,-29,-28,6
11940,-1904,56,192,-29,-28,6
11945,-1904,72,168,-28,-28,4
11950,-1888,88,176,-28,-28,4
11955,-1904,56,168,-27,-28,4
11960,-1880,48,152,-26,-28,4
11965,-1904,72,192,-25,-26,3
11970,-1912,72,184,-25,-28,4
11975,-1904,64,200,-25,-29,3
11980,-1888,64,200,-23,-28,2
11985,-1880,56,168,-24,-29,1
11990,-1912,80,224,-25,-29,0
11995,-1904,80,192,-25,-26,-1
12000,-1872,64,192,-29,-27,-3
12005,-1888,80,168,-31,-26,-2
12010,-1872,80,160,-37,-27,-2
12015,-1888,88,184,-39,-27,-3
12020,-1856,64,200,-42,-26,-3
12025,-1896,96,192,-45,-24,-4
12030,-1888,56,184,-46,-23,-3
12035,-1888,80,200,-50,-20,-2
12040,-1880,88,184,-53,-18,-1
12045,-1896,88,200,-55,-17,-1
12050,-1872,56,192,-53,-17,-1
12055,-1872,40,192,-54,-19,0
12060,-1912,64,208,-55,-19,-1
12065,-1880,72,200,-53,-21,2
12070,-1880,72,176,-50,-24,0
12075,-1864,48,184,-48,-25,1
12080,-1896,72,224,-47,-23,0
12085,-1896,64,200,-47,-25,-1
12090,-1896,88,208,-46,-24,0
12095,-1880,72,200,-46,-23,0
12100,-1888,80,192,-46,-22,1
12105,-1896,80,224,-46,-21,0
12110,-1896,72,208,-46,-20,0
12115,-1872,56,264,-47,-17,-1
12120,-1888,72,216,-47,-17,-1
12125,-1872,88,176,-49,-13,-2
12130,-1888,80,216,-52,-10,-2
12135,-1872,80,208,-55,-10,-4
12140,-1896,64,208,-59,-7,-5
12145,-1888,104,232,-60,-3,-5
12150,-1888,72,208,-63,1,-5
12155,-1896,56,208,-66,7,-7
12160,-1872,72,232,-67,11,-8
12165,-1872,80,216,-70,15,-10
12170,-1848,56,184,-71,19,-9
12175,-1896,56,216,-72,22,-9
12180,-1848,64,224,-74,26,-10
12185,-1864,64,216,-76,28,-11
12190,-1896,56,176,-76,30,-11
12195,-1872,80,216,-76,29,-11
12200,-1880,72,208,-76,30,-12
12205,-1864,48,176,-74,30,-12
12210,-1904,40,184,-73,32,-12
12215,-1880,64,208,-75,34,-12
12220,-1872,40,192,-72,35,-12
12225,-1880,32,152,-71,38,-14
12230,-1888,64,208,-67,39,-13
12235,-1880,48,208,-66,42,-14
12240,-1880,48,200,-66,44,-14
12245,-1856,80,200,-67,46,-14
12250,-1880,64,224,-68,46,-14
12255,-1864,72,200,-67,47,-15
12260,-1904,56,240,-69,47,-15
12265,-1872,56,184,-70,49,-14
12270,-1872,72,184,-70,48,-14
12275,-1896,48,192,-71,50,-15
12280,-1864,40,184,-71,51,-17
12285,-1896,88,160,-72,51,-16
12290,-1896,56,200,-73,52,-16
12295,-1880,64,232,-74,52,-17
12300,-1880,64,152,-74,52,-16
12305,-1896,56,152,-74,52,-17
12310,-1872,48,176,-75,53,-18
12315,-1840,40,184,-75,53,-20
12320,-1904,72,200,-76,54,-20
12325,-1880,64,184,-76,54,-21
12330,-1904,64,216,-76,56,-20
12335,-1880,56,200,-75,58,-20
12340,-1888,48,216,-76,59,-20
12345,-1864,72,168,-76,60,-21
12350,-1912,80,184,-77,60,-21
12355,-1888,48,208,-76,60,-20
12360,-1904,64,176,-75,61,-21
12365,-1880,40,160,-74,62,-21
12370,-1880,40,168,-74,62,-19
12375,-1888,32,176,-74,60,-18
12380,-1880,56,200,-76,61,-19
12385,-1880,72,192,-76,61,-21
12390,-1896,56,224,-74,61,-20
12395,-1904,64,184,-75,60,-21
12400,-1896,56,184,-77,61,-20
12405,-1880,72,208,-78,62,-18
12410,-1912,64,184,-79,61,-18
12415,-1896,56,176,-80,59,-19
12420,-1872,32,152,-81,59,-18
12425,-1904,48,176,-80,57,-16
12430,-1896,56,184,-79,56,-17
12435,-1920,48,192,-77,53,-17
12440,-1904,80,192,-77,53,-18
12445,-1904,48,152,-73,53,-19
12450,-1896,56,144,-74,54,-20
12455,-1904,72,152,-75,56,-21
12460,-1888,48,184,-74,56,-21
12465,-1888,48,160,-73,55,-23
12470,-1904,56,160,-73,56,-23
12475,-1904,48,160,-75,57,-23
12480,-1896,48,184,-77,58,-24
12485,-1912,64,192,-76,58,-21
12490,-1880,64,184,-79,57,-21
12495,-1896,48,160,-80,56,-19
12500,-1896,56,168,-82,56,-19
12505,-1888,64,176,-84,57,-20
12510,-1912,56,200,-86,57,-19
12515,-1864,48,192,-85,58,-21
12520,-1896,32,152,-82,58,-20
12525,-1912,40,152,-82,60,-21
12530,-1896,48,176,-77,61,-21
12535,-1904,48,152,-77,60,-21
12540,-1896,48,168,-76,59,-20
12545,-1904,56,160,-77,59,-19
12550,-1904,40,184,-77,59,-21
12555,-1912,48,176,-77,58,-20
12560,-1912,48,168,-78,57,-21
12565,-1904,64,160,-78,56,-23
12570,-1896,32,152,-73,55,-23
12575,-1904,56,144,-67,55,-24
12580,-1912,48,168,-60,54,-23
12585,-1864,8,176,-57,53,-23
12590,-1912,40,192,-55,52,-23
12595,-1872,16,184,-57,53,-23
12600,-1896,32,184,-59,53,-23
12605,-1888,40,176,-64,55,-21
12610,-1880,48,176,-69,57,-19
12615,-1896,32,192,-74,60,-16
12620,-1872,24,192,-71,62,-14
12625,-1888,48,184,-68,63,-10
12630,-1912,24,152,-63,66,-9
12635,-1864,32,160,-55,66,-8
12640,-1880,32,160,-52,64,-9
12645,-1896,40,136,-50,65,-8
12650,-1904,40,128,-53,64,-9
12655,-1880,24,120,-58,64,-10
12660,-1896,64,136,-66,61,-10
12665,-1904,40,136,-73,58,-9
12670,-1888,32,160,-78,54,-9
12675,-1896,40,152,-84,50,-9
12680,-1904,24,104,-87,48,-9
12685,-1880,64,144,-91,48,-9
12690,-1896,56,160,-90,47,-8
12695,-1920,48,152,-88,47,-9
12700,-1928,56,152,-85,46,-10
12705,-1920,56,136,-83,47,-12
12710,-1896,16,152,-78,49,-14
12715,-1888,24,136,-74,52,-16
12720,-1920,48,152,-68,56,-19
12725,-1904,32,152,-65,59,-18
12730,-1888,48,144,-65,61,-19
12735,-1888,32,176,-65,63,-21
12740,-1904,40,168,-64,65,-22
12745,-1888,32,152,-67,67,-23
12750,-1880,56,176,-67,67,-24
12755,-1904,56,160,-72,65,-23
12760,-1896,32,144,-73,68,-23
12765,-1904,40,128,-73,68,-24
12770,-1880,40,144,-76,69,-23
12775,-1904,24,168,-79,68,-24
12780,-1888,48,152,-77,68,-24
12785,-1904,56,144,-77,68,-22
12790,-1896,56,128,-77,67,-25
12795,-1888,16,152,-78,66,-23
12800,-1896,32,128,-80,64,-24
12805,-1888,32,136,-79,61,-22
12810,-1904,48,88,-77,62,-22
12815,-1904,24,112,-78,62,-23
12820,-1912,40,136,-77,63,-23
12825,-1904,40,136,-77,60,-23
12830,-1904,40,128,-76,59,-21
12835,-1920,24,136,-78,56,-22
12840,-1928,40,96,-75,53,-20
12845,-1912,16,96,-75,50,-21
12850,-1896,16,112,-73,50,-21
12855,-1904,32,120,-72,49,-21
12860,-1896,0,112,-70,48,-20
12865,-1904,8,120,-71,46,-19
12870,-1904,16,136,-70,45,-19
12875,-1912,8,144,-68,42,-17
12880,-1912,48,136,-69,37,-14
12885,-1928,32,128,-74,34,-12
12890,-1896,16,152,-72,31,-13
12895,-1928,24,96,-73,32,-10
12900,-1888,8,112,-71,31,-7
12905,-1912,24,144,-72,32,-9
12910,-1912,24,160,-74,30,-9
12915,-1912,24,120,-74,31,-9
12920,-1896,24,136,-75,35,-9
12925,-1896,32,104,-74,38,-10
12930,-1928,48,120,-77,42,-11
12935,-1912,40,144,-79,43,-11
12940,-1920,40,128,-81,43,-12
12945,-1896,24,120,-83,41,-13
12950,-1920,16,112,-83,40,-13
12955,-1896,32,144,-83,39,-13
12960,-1880,16,136,-82,38,-11
12965,-1912,16,112,-79,36,-11
12970,-1912,8,96,-76,36,-11
12975,-1904,24,96,-72,34,-9
12980,-1888,16,136,-70,34,-8
12985,-1920,24,104,-64,32,-7
12990,-1880,32,112,-63,29,-4
12995,-1928,24,128,-62,28,-5
13000,-1888,16,160,-61,26,-4
13005,-1920,40,144,-59,26,-3
13010,-1904,16,104,-57,27,-4
13015,-1904,24,88,-56,27,-4
13020,-1904,24,136,-53,28,-3
13025,-1920,56,104,-52,28,-2
13030,-1904,24,136,-52,30,-3
13035,-1896,8,136,-49,30,-3
13040,-1912,40,96,-48,29,-5
13045,-1904,40,104,-48,29,-4
13050,-1888,16,112,-45,28,-6
13055,-1912,40,112,-47,28,-7
13060,-1896,24,104,-46,26,-6
13065,-1888,8,120,-44,27,-6
13070,-1888,48,88,-46,25,-6
13075,-1896,16,96,-45,23,-6
13080,-1888,8,104,-44,21,-5
13085,-1920,24,144,-44,20,-5
13090,-1904,24,120,-42,17,-4
13095,-1912,32,136,-38,16,-4
13100,-1912,8,120,-38,13,-4
13105,-1904,0,144,-37,11,-3
13110,-1912,24,120,-36,9,-1
13115,-1944,24,120,-33,4,-2
13120,-1912,24,104,-33,2,-1
13125,-1904,8,104,-33,2,1
13130,-1912,16,104,-34,0,0
13135,-1912,16,88,-32,-1,-1
13140,-1888,8,104,-31,-1,0
13145,-1888,8,112,-28,-2,0
13150,-1920,48,112,-25,-3,1
13155,-1920,40,136,-22,-4,1
13160,-1896,24,128,-23,-4,1
13165,-1912,40,136,-22,-4,3
13170,-1904,16,120,-24,-4,3
13175,-1904,40,104,-25,-4,3
13180,-1888,16,160,-26,-6,6
13185,-1880,32,136,-26,-8,7
13190,-1904,32,144,-26,-11,10
13195,-1896,48,112,-25,-14,12
13200,-1920,0,144,-23,-16,13
13205,-1912,24,144,-24,-19,13
13210,-1904,32,136,-24,-21,13
13215,-1920,56,120,-26,-23,15
13220,-1896,32,112,-29,-22,14
13225,-1912,16,128,-30,-19,13
13230,-1904,24,136,-28,-17,12
13235,-1888,24,136,-26,-12,11
13240,-1896,8,144,-21,-10,11
13245,-1912,24,136,-18,-10,11
13250,-1904,32,104,-17,-8,11
13255,-1912,16,112,-19,-8,11
13260,-1944,56,120,-24,-9,12
13265,-1888,64,136,-29,-11,13
13270,-1920,48,136,-37,-11,13
13275,-1920,48,120,-41,-12,12
13280,-1904,24,160,-46,-11,11
13285,-1896,48,152,-47,-9,9
13290,-1896,16,120,-49,-9,8
13295,-1896,24,144,-49,-7,8
13300,-1896,16,120,-46,-4,5
13305,-1888,8,160,-43,-1,6
13310,-1904,40,136,-43,1,5
13315,-1880,16,168,-42,3,5
13320,-1896,16,160,-42,5,7
13325,-1880,8,160,-41,6,8
13330,-1912,40,160,-38,7,9
13335,-1896,8,120,-33,8,11
13340,-1896,32,160,-28,8,12
13345,-1904,8,136,-20,8,13
13350,-1912,56,112,-17,6,14
13355,-1896,40,120,-14,5,14
13360,-1936,40,128,-12,1,14
13365,-1912,48,136,-15,-1,15
13370,-1912,48,136,-20,-4,14
13375,-1904,16,112,-26,-9,15
13380,-1912,40,112,-27,-14,15
13385,-1936,48,96,-30,-19,16
13390,-1928,48,160,-32,-22,15
13395,-1920,48,136,-32,-25,12
13400,-1904,40,176,-34,-28,12
13405,-1904,40,128,-35,-28,9
13410,-1896,40,128,-32,-29,8
13415,-1904,40,176,-28,-27,8
13420,-1928,64,144,-25,-27,7
13425,-1912,56,144,-22,-24,6
13430,-1904,40,152,-18,-21,5
13435,-1912,40,136,-17,-19,4
13440,-1880,24,120,-18,-18,2
13445,-1896,48,168,-17,-17,2
13450,-1896,32,144,-17,-16,3
13455,-1896,40,144,-17,-15,1
13460,-1888,40,128,-16,-15,1
13465,-1920,48,136,-17,-14,1
13470,-1872,40,160,-17,-14,2
13475,-1872,40,168,-18,-13,1
13480,-1888,32,160,-17,-12,0
13485,-1904,40,152,-19,-12,0
13490,-1864,16,176,-20,-12,1
13495,-1896,56,176,-21,-13,1
13500,-1904,40,144,-21,-13,2
13505,-1896,48,152,-23,-13,2
13510,-1896,48,168,-26,-14,2
13515,-1928,48,144,-29,-11,2
13520,-1904,56,128,-29,-9,1
13525,-1912,40,152,-31,-8,0
13530,-1880,48,152,-34,-5,1
13535,-1912,64,152,-35,-4,1
13540,-1928,64,160,-37,-2,0
13545,-1888,32,136,-40,-2,2
13550,-1888,32,152,-39,-3,1
13555,-1856,16,168,-39,-4,-1
13560,-1880,24,144,-39,-4,0
13565,-1896,32,160,-37,-4,0
13570,-1920,48,152,-33,-3,-1
13575,-1896,48,152,-32,-2,-1
13580,-1888,24,168,-30,-1,-1
13585,-1896,40,160,-31,1,-2
13590,-1896,56,168,-32,3,-1
13595,-1904,40,168,-34,3,0
13600,-1896,40,144,-33,3,1
13605,-1888,48,160,-33,2,1
13610,-1896,32,176,-34,1,3
13615,-1888,48,168,-33,0,3
13620,-1896,24,152,-31,-4,4
13625,-1904,48,160,-30,-6,6
13630,-1880,40,128,-27,-6,6
13635,-1896,40,136,-23,-8,6
13640,-1912,32,168,-22,-10,5
13645,-1880,40,152,-20,-10,5
13650,-1904,48,176,-21,-14,7
13655,-1896,56,144,-23,-15,7
13660,-1920,88,160,-23,-15,7
13665,-1896,40,160,-24,-17,7
13670,-1904,48,128,-26,-14,8
13675,-1896,48,160,-28,-11,7
13680,-1896,72,152,-31,-10,5
13685,-1912,56,152,-32,-9,3
13690,-1904,64,152,-34,-8,3
13695,-1920,48,136,-35,-8,4
13700,-1904,32,160,-35,-7,2
13705,-1928,64,152,-35,-6,2
13710,-1888,48,144,-34,-6,1
13715,-1872,16,144,-34,-6,0
13720,-1896,48,160,-33,-8,1
13725,-1880,24,144,-31,-9,2
13730,-1896,32,120,-29,-11,2
13735,-1880,40,152,-28,-13,4
13740,-1896,48,192,-28,-15,4
13745,-1904,48,144,-27,-18,4
13750,-1888,40,136,-25,-17,6
13755,-1896,56,160,-25,-17,5
13760,-1896,48,144,-25,-18,5
13765,-1912,40,144,-24,-17,5
13770,-1896,40,184,-24,-16,5
13775,-1872,72,184,-25,-16,4
13780,-1904,48,168,-24,-14,5
13785,-1880,48,136,-26,-11,3
13790,-1880,72,160,-27,-9,1
13795,-1896,48,184,-27,-8,1
13800,-1880,56,144,-28,-7,2
13805,-1888,56,200,-29,-7,2
13810,-1904,40,192,-31,-7,2
13815,-1872,48,176,-30,-8,2
13820,-1896,48,168,-28,-10,1
13825,-1896,48,192,-27,-12,2
13830,-1880,32,184,-26,-12,3
13835,-1936,56,184,-24,-14,4
13840,-1896,48,176,-22,-15,5
13845,-1896,56,152,-22,-17,6
13850,-1904,56,168,-22,-16,7
13855,-1904,64,160,-21,-18,7
13860,-1896,80,160,-22,-18,8
13865,-1880,56,184,-21,-18,8
13870,-1896,24,144,-22,-18,8
13875,-1920,72,168,-22,-19,7
13880,-1904,88,192,-23,-19,6
13885,-1904,40,144,-22,-18,3
13890,-1896,56,160,-24,-18,5
13895,-1880,40,184,-25,-17,4
13900,-1920,40,168,-29,-16,4
13905,-1896,48,192,-32,-16,5
13910,-1888,64,208,-33,-14,4
13915,-1888,64,176,-33,-12,5
13920,-1896,48,192,-34,-10,4
13925,-1888,64,144,-36,-10,4
13930,-1888,48,160,-39,-9,4
13935,-1896,48,168,-42,-7,4
13940,-1888,40,192,-39,-5,3
13945,-1896,48,192,-39,-3,2
13950,-1872,56,176,-38,-1,3
13955,-1888,64,208,-36,2,2
13960,-1888,48,184,-32,4,3
13965,-1944,16,240,-29,3,2
13970,-1904,48,152,-31,1,3
13975,-1904,88,208,-35,-1,4
13980,-1904,56,184,-37,-1,4
13985,-1888,72,168,-37,-3,4
13990,-1880,24,184,-38,-2,5
13995,-1880,40,152,-37,-2,3
14000,-1888,56,168,-34,-2,3
14005,-1888,56,192,-29,-3,2
14010,-1920,72,168,-24,-4,1
14015,-1800,160,80,-21,-4,1
14020,-1872,56,192,-21,-4,1
14025,-1896,48,160,-21,-2,2
14030,-1880,40,200,-22,0,2
14035,-1864,32,184,-26,6,4
14040,-1888,56,176,-29,9,4
14045,-1880,40,224,-29,12,7
14050,-1896,48,152,-25,15,9
14055,-1880,32,184,-17,14,10
14060,-1880,80,144,-14,15,11
14065,-1888,56,152,-10,13,12
14070,-1792,88,168,-11,10,13
14075,-1896,72,136,-15,6,14
14080,-1904,72,160,-20,3,14
14085,-1904,64,176,-24,-1,14
14090,-1896,56,176,-31,-5,16
14095,-1872,56,184,-33,-8,15
14100,-1896,48,192,-35,-12,15
14105,-1896,88,208,-34,-15,15
14110,-1896,72,184,-36,-18,13
14115,-1912,64,192,-36,-20,13
14120,-1888,72,200,-33,-20,12
14125,-1832,120,72,-31,-22,10
14130,-1904,72,160,-29,-21,8
14135,-1920,88,176,-25,-21,8
14140,-1880,72,168,-22,-20,6
14145,-1888,80,192,-20,-20,6
14150,-1904,88,160,-17,-19,4
14155,-1904,80,160,-16,-18,4
14160,-1880,80,168,-15,-16,3
14165,-1904,72,216,-14,-14,2
14170,-1896,88,184,-15,-12,1
14175,-1872,72,200,-15,-11,1
14180,-1824,144,120,-13,-9,0
14185,-1904,48,208,-14,-9,-1
14190,-1888,48,160,-14,-8,-1
14195,-1896,72,192,-15,-9,-1
14200,-1888,96,200,-17,-9,-3
14205,-1896,80,200,-18,-10,-3
14210,-1904,88,184,-17,-10,-1
14215,-1896,72,176,-18,-12,-1
14220,-1896,56,160,-20,-12,-2
14225,-1904,96,176,-20,-14,-3
14230,-1880,96,72,-21,-14,-2
14235,-1864,88,200,-22,-14,-1
14240,-1896,80,216,-24,-15,1
14245,-1888,56,184,-24,-16,2
14250,-1904,56,168,-26,-16,1
14255,-1896,80,192,-29,-15,0
14260,-1880,72,176,-29,-16,1
14265,-1880,56,184,-29,-15,1
14270,-1904,56,184,-28,-16,1
14275,-1896,64,176,-27,-17,0
14280,-1872,40,144,-27,-17,-1
14285,-1872,32,280,-27,-17,1
14290,-1888,48,208,-27,-20,1
14295,-1872,48,192,-25,-22,-1
14300,-1888,64,192,-24,-22,0
14305,-1880,48,200,-26,-22,1
14310,-1888,48,192,-26,-23,2
14315,-1904,56,184,-26,-24,1
14320,-1880,48,200,-26,-24,3
14325,-1888,40,176,-26,-24,3
14330,-1880,72,192,-26,-24,4
14335,-1872,64,184,-28,-25,4
14340,-1920,64,272,-29,-25,3
14345,-1896,96,184,-29,-25,4
14350,-1880,72,200,-30,-25,4
14355,-1888,72,240,-33,-24,3
14360,-1864,88,192,-36,-20,4
14365,-1904,72,184,-38,-19,5
14370,-1896,56,216,-39,-17,5
14375,-1888,64,216,-39,-14,4
14380,-1904,72,216,-38,-13,4
14385,-1888,56,216,-37,-11,5
14390,-1904,72,192,-37,-10,7
14395,-1824,56,288,-36,-11,7
14400,-1888,64,192,-36,-11,6
14405,-1872,56,224,-38,-10,7
14410,-1872,64,168,-37,-10,7
14415,-1888,72,168,-38,-10,6
14420,-1896,88,200,-40,-10,6
14425,-1904,80,208,-42,-10,5
14430,-1864,72,176,-39,-11,4
14435,-1888,72,224,-39,-8,3
14440,-1872,88,232,-38,-7,3
14445,-1888,40,184,-36,-7,2
14450,-1832,88,176,-37,-5,0
14455,-1880,72,240,-35,-4,1
14460,-1880,48,216,-36,-3,0
14465,-1864,64,248,-36,-3,1
14470,-1872,48,224,-37,-1,2
14475,-1880,72,184,-39,1,1
14480,-1888,96,264,-39,2,0
14485,-1872,96,200,-38,0,0
14490,-1880,96,240,-39,0,-2
14495,-1880,80,192,-38,1,-1
14500,-1792,96,152,-40,3,-3
14505,-1864,56,208,-42,3,-4
14510,-1880,112,160,-40,3,-4
14515,-1896,88,208,-41,3,-3
14520,-1872,88,200,-43,4,-3
14525,-1880,72,232,-44,5,-5
14530,-1864,72,216,-43,6,-5
14535,-1888,96,216,-45,6,-6
14540,-1880,64,216,-45,6,-5
14545,-1880,64,224,-46,7,-5
14550,-1880,96,232,-46,9,-5
14555,-1896,88,200,-45,9,-6
14560,-1888,80,232,-45,8,-4
14565,-1896,56,224,-44,9,-4
14570,-1880,64,216,-44,9,-4
14575,-1880,72,208,-43,8,-3
14580,-1880,56,200,-45,8,-4
14585,-1880,64,240,-44,7,-4
14590,-1864,64,224,-46,6,-4
14595,-1888,72,224,-46,5,-3
14600,-1904,72,200,-47,4,-4
14605,-1872,48,192,-48,4,-4
14610,-1896,80,224,-50,3,-3
14615,-1888,88,224,-49,4,-4
14620,-1928,96,208,-48,3,-4
14625,-1880,80,208,-49,3,-5
14630,-1888,88,192,-49,5,-7
14635,-1880,56,184,-49,7,-7
14640,-1872,72,176,-49,9,-8
14645,-1864,48,168,-50,10,-9
14650,-1880,72,216,-51,10,-7
14655,-1872,72,200,-51,11,-8
14660,-1904,72,208,-54,10,-7
14665,-1880,56,192,-52,12,-7
14670,-1888,64,232,-55,13,-7
14675,-1888,80,232,-56,15,-7
14680,-1880,88,200,-57,15,-8
14685,-1872,64,192,-60,17,-7
14690,-1888,64,224,-63,20,-8
14695,-1888,80,216,-64,22,-8
14700,-1864,64,224,-62,24,-10
14705,-1856,64,240,-62,26,-10
14710,-1864,88,192,-60,29,-10
14715,-1888,88,208,-59,31,-9
14720,-1888,72,208,-60,30,-8
14725,-1896,72,184,-62,30,-9
14730,-1872,56,168,-65,30,-9
14735,-1896,72,192,-69,29,-10
14740,-1880,80,200,-69,31,-13
14745,-1864,56,224,-72,34,-16
14750,-1856,72,216,-68,34,-15
14755,-1872,64,248,-65,35,-16
14760,-1856,48,208,-58,36,-17
14765,-1880,48,216,-55,37,-17
14770,-1864,48,224,-52,40,-18
14775,-1872,72,232,-51,41,-17
14780,-1888,64,224,-54,45,-16
14785,-1864,48,248,-56,48,-15
14790,-1880,80,232,-59,51,-14
14795,-1872,48,256,-63,54,-13
14800,-1872,40,224,-60,57,-13
14805,-1888,56,192,-55,58,-10
14810,-1856,64,216,-51,56,-8
14815,-1888,96,152,-46,53,-5
14820,-1880,64,192,-45,51,-3
14825,-1896,80,176,-45,47,-3
14830,-1888,88,168,-51,43,-4
14835,-1880,72,168,-55,41,-3
14840,-1888,80,184,-62,37,-4
14845,-1888,64,176,-66,33,-4
14850,-1880,56,192,-69,31,-3
14855,-1880,64,200,-72,29,-4
14860,-1888,80,208,-74,27,-5
14865,-1912,88,232,-74,28,-5
14870,-1888,80,224,-74,30,-7
14875,-1888,64,192,-73,31,-8
14880,-1896,80,176,-69,30,-12
14885,-1912,80,216,-67,32,-12
14890,-1880,64,184,-66,34,-14
14895,-1880,56,232,-65,35,-15
14900,-1904,72,184,-63,35,-16
14905,-1896,48,184,-61,35,-17
14910,-1888,88,160,-63,35,-17
14915,-1896,64,160,-62,35,-17
14920,-1888,48,200,-60,37,-17
14925,-1880,72,192,-59,39,-17
14930,-1880,56,184,-58,40,-17
14935,-1896,56,192,-58,40,-18
14940,-1856,80,184,-57,42,-18
14945,-1856,56,200,-56,42,-18
14950,-1872,64,232,-57,42,-19
14955,-1856,64,216,-60,43,-20
14960,-1872,88,200,-60,45,-19
14965,-1880,72,200,-61,45,-20
14970,-1888,64,224,-64,46,-21
14975,-1880,80,184,-67,46,-23
14980,-1880,96,208,-69,48,-21
14985,-1888,72,184,-73,48,-21
14990,-1888,80,232,-75,48,-21
14995,-1888,64,184,-75,48,-22
