timestamp,accel_x,accel_y,accel_z,gyro_x,gyro_y,gyro_z
0,-96,-2056,-240,50,81,16
5,-96,-2024,-224,50,78,12
10,-96,-2048,-256,51,78,12
15,-96,-2048,-224,54,84,9
20,-80,-2064,-248,59,87,11
25,-104,-2016,-256,63,92,8
30,-136,-2040,-216,64,92,8
35,-96,-2008,-240,63,91,7
40,-112,-2056,-224,60,91,8
45,-96,-2040,-240,56,89,6
50,-96,-2048,-256,54,86,7
55,-96,-2048,-240,51,84,4
60,-96,-2048,-240,48,82,6
65,-88,-2056,-248,45,78,5
70,-96,-2040,-240,46,75,9
75,-104,-2032,-208,49,73,6
80,-88,-2032,-264,49,71,10
85,-88,-2056,-248,49,69,10
90,-96,-2024,-208,49,67,12
95,-96,-2032,-200,49,68,10
100,-104,-2032,-208,49,70,12
105,-96,-2024,-216,47,69,10
110,-112,-2048,-208,43,72,9
115,-96,-2024,-216,40,75,5
120,-96,-2048,-224,38,78,6
125,-104,-2040,-232,36,78,3
130,-96,-2040,-256,38,78,6
135,-96,-2048,-208,36,80,4
140,-80,-2048,-232,37,79,5
145,-96,-2040,-216,37,75,5
150,-120,-2024,-256,38,74,5
155,-96,-2040,-192,38,70,4
160,-88,-2040,-248,39,69,6
165,-112,-2056,-200,39,66,4
170,-96,-2032,-216,39,63,5
175,-96,-2040,-208,37,60,5
180,-96,-2048,-224,37,57,7
185,-104,-2032,-224,36,56,5
190,-96,-2032,-216,34,54,6
195,-96,-2040,-208,32,55,5
200,-104,-2032,-224,29,56,5
205,-88,-2024,-216,27,58,4
210,-96,-2024,-192,23,59,5
215,-104,-2040,-216,20,58,4
220,-88,-2048,-200,16,60,5
225,-96,-2048,-224,14,58,4
230,-96,-2048,-200,12,57,4
235,-112,-2032,-200,12,58,5
240,-112,-2024,-240,8,59,3
245,-96,-2056,-232,7,60,4
250,-88,-2032,-240,9,59,4
255,-88,-2024,-240,9,61,4
260,-96,-2056,-224,9,61,4
265,-96,-2032,-208,9,61,4
270,-104,-2048,-224,10,58,4
275,-96,-2048,-232,11,58,4
280,-96,-2056,-200,13,58,4
285,-104,-2040,-216,13,58,5
290,-96,-2024,-208,12,58,4
295,-88,-2048,-216,11,60,4
300,-96,-2048,-208,11,60,1
305,-96,-2024,-208,12,62,2
310,-112,-2056,-192,8,62,3
315,-104,-2032,-232,5,61,3
320,-128,-2040,-216,3,59,3
325,-96,-2040,-200,4,56,4
330,-104,-2024,-224,5,55,3
335,-96,-2040,-208,6,55,4
340,-112,-2032,-184,5,54,2
345,-104,-2032,-208,5,53,3
350,-96,-2016,-200,4,57,4
355,-112,-2024,-224,3,58,5
360,-96,-2032,-208,2,60,3
365,-88,-2040,-200,2,59,5
370,-112,-2040,-208,2,60,5
375,-96,-2024,-192,0,59,6
380,-96,-2040,-216,-1,58,5
385,-104,-2040,-192,-2,57,5
390,-88,-2048,-184,-2,57,3
395,-112,-2048,-192,-1,57,4
400,-96,-2048,-224,-3,58,3
405,-96,-2056,-232,-3,56,5
410,-96,-2032,-192,-3,57,3
415,-96,-2056,-200,-2,59,5
420,-96,-2048,-200,-4,58,4
425,-112,-2032,-208,-1,58,6
430,-96,-2032,-208,-3,57,5
435,-96,-2048,-224,-1,59,8
440,-120,-2032,-224,0,59,7
445,-96,-2040,-184,0,59,9
450,-96,-2048,-208,-1,60,7
455,-96,-2040,-208,0,59,8
460,-96,-2024,-184,1,58,6
465,-96,-2048,-208,1,58,9
470,-104,-2024,-200,3,59,6
475,-96,-2040,-216,3,56,9
480,-120,-2032,-200,3,57,7
485,-104,-2024,-208,4,56,9
490,-104,-2064,-192,4,58,7
495,-96,-2040,-224,5,58,11
500,-96,-2040,-232,5,59,8
505,-96,-2040,-232,6,59,10
510,-120,-2040,-208,8,58,9
515,-96,-2024,-200,9,59,11
520,-88,-2024,-200,10,56,10
525,-96,-2048,-216,13,55,13
530,-96,-2056,-216,14,57,10
535,-112,-2032,-216,14,56,12
540,-104,-2040,-184,15,55,10
545,-104,-2024,-200,16,56,12
550,-96,-2056,-216,17,55,9
555,-96,-2040,-208,17,57,11
560,-72,-2048,-192,18,57,8
565,-96,-2016,-200,18,57,9
570,-96,-2048,-192,19,57,5
575,-96,-2032,-208,19,58,9
580,-96,-2048,-192,19,58,6
585,-112,-2016,-192,17,58,8
590,-96,-2040,-200,15,56,5
595,-112,-2048,-224,14,58,8
600,-96,-2040,-192,13,57,5
605,-104,-2048,-192,14,56,6
610,-104,-2040,-224,13,53,3
615,-120,-2024,-232,13,53,5
620,-128,-2064,-168,14,52,3
625,-96,-2032,-184,14,51,5
630,-96,-2040,-200,12,50,5
635,-96,-2048,-208,14,47,8
640,-88,-2040,-208,15,46,6
645,-104,-2032,-208,13,49,7
650,-96,-2056,-192,11,49,5
655,-96,-2040,-216,8,50,6
660,-104,-2016,-176,4,53,4
665,-96,-2064,-160,1,54,4
670,-96,-2016,-160,0,55,4
675,-112,-2032,-208,0,54,5
680,-112,-2064,-224,2,51,5
685,-96,-2064,-192,4,46,11
690,-112,-2056,-224,6,44,9
695,-128,-2040,-176,7,42,11
700,-112,-2064,-208,6,39,10
705,-96,-2032,-168,3,37,12
710,-128,-2024,-216,0,37,10
715,-112,-2032,-152,-3,35,10
720,-112,-2048,-200,-3,36,8
725,-112,-2048,-152,-3,37,10
730,-96,-2048,-168,0,37,8
735,-120,-2008,-192,-3,33,10
740,-120,-2016,-200,-6,32,6
745,-104,-2048,-176,-11,33,5
750,-104,-2024,-144,-14,34,1
755,-104,-2032,-160,-16,37,0
760,-112,-2048,-200,-20,38,-3
765,-128,-2056,-168,-22,40,-3
770,-104,-2064,-184,-24,41,-5
775,-112,-2048,-168,-26,40,-3
780,-96,-2040,-200,-23,39,-6
785,-96,-2040,-224,-20,37,-4
790,-96,-2064,-160,-18,32,-6
795,-96,-2064,-208,-16,29,-5
800,-112,-2032,-208,-15,28,-6
805,-88,-2072,-208,-11,27,-5
810,-112,-2040,-176,-5,29,-5
815,-112,-2056,-184,0,28,-3
820,-120,-2024,-208,6,29,0
825,-112,-2032,-192,10,31,4
830,-96,-2048,-176,14,31,5
835,-120,-2024,-200,11,30,5
840,-112,-2024,-200,6,29,3
845,-112,-2040,-152,1,30,5
850,-104,-2024,-176,-5,31,4
855,-120,-2056,-168,-10,30,4
860,-96,-2040,-192,-12,32,3
865,-112,-2056,-192,-9,36,3
870,-128,-2032,-200,-5,39,1
875,-96,-2048,-192,-2,42,3
880,-104,-2048,-184,0,44,3
885,-96,-2080,-176,0,42,2
890,-96,-2032,-208,3,42,2
895,-96,-2040,-192,6,42,2
900,-96,-2032,-168,9,41,2
905,-112,-2016,-168,12,39,1
910,-112,-2048,-184,15,34,1
915,-96,-2048,-176,16,32,1
920,-104,-2040,-168,16,31,-1
925,-112,-2056,-144,16,30,-2
930,-128,-2016,-192,15,30,-1
935,-128,-2024,-192,13,29,-2
940,-104,-2032,-168,11,30,-3
945,-128,-2032,-176,7,30,-4
950,-144,-2016,-184,4,29,-3
955,-120,-2008,-208,2,28,-5
960,-112,-2048,-176,-3,27,-5
965,-128,-2024,-184,-7,27,-3
970,-104,-2048,-176,-11,27,-4
975,-120,-2048,-192,-14,27,-6
980,-120,-2048,-208,-15,30,-2
985,-112,-2024,-184,-14,33,-2
990,-112,-2040,-184,-13,34,-1
995,-120,-2056,-192,-12,35,-3
1000,-96,-2040,-168,-10,36,-2
1005,-96,-2056,-168,-6,36,-3
1010,-104,-2032,-168,-3,37,-1
1015,-112,-2032,-184,-3,36,-2
1020,-96,-2040,-168,-3,36,-1
1025,-104,-2056,-168,-7,35,-2
1030,-104,-2056,-176,-7,35,-1
1035,-120,-2032,-184,-11,34,-5
1040,-112,-2048,-192,-17,30,-6
1045,-96,-2048,-160,-18,29,-8
1050,-112,-2032,-160,-19,30,-4
1055,-96,-2056,-168,-19,30,-5
1060,-112,-2048,-160,-18,31,-3
1065,-96,-2032,-176,-18,28,-4
1070,-104,-2048,-184,-18,25,-3
1075,-120,-2032,-192,-17,23,-4
1080,-104,-2048,-152,-20,21,-4
1085,-112,-2048,-184,-24,21,-5
1090,-112,-2040,-184,-23,23,-3
1095,-104,-2048,-200,-19,27,-4
1100,-104,-2024,-184,-14,29,-1
1105,-112,-2024,-144,-11,31,-2
1110,-96,-2040,-176,-9,32,-1
1115,-96,-2048,-216,-7,35,-1
1120,-96,-2032,-176,-7,36,1
1125,-112,-2032,-160,-9,37,-2
1130,-112,-2032,-176,-14,37,-2
1135,-120,-2040,-168,-17,37,-4
1140,-120,-2024,-192,-22,34,-4
1145,-88,-2032,-152,-30,33,-9
1150,-104,-2048,-176,-34,32,-6
1155,-96,-2032,-184,-35,33,-9
1160,-96,-2040,-200,-37,31,-7
1165,-112,-2048,-184,-39,32,-9
1170,-104,-2056,-208,-36,31,-5
1175,-136,-2032,-192,-33,32,-6
1180,-112,-2048,-176,-28,32,-3
1185,-104,-2048,-200,-26,32,-5
1190,-104,-2032,-208,-22,34,0
1195,-96,-2040,-200,-18,35,-3
1200,-104,-2040,-176,-15,35,3
1205,-112,-2032,-200,-14,36,0
1210,-104,-2032,-208,-12,35,3
1215,-96,-2040,-168,-11,32,2
1220,-96,-2032,-192,-10,34,3
1225,-112,-2024,-200,-13,35,1
1230,-88,-2040,-184,-13,34,3
1235,-120,-2032,-184,-14,35,1
1240,-96,-2040,-192,-15,35,1
1245,-96,-2040,-200,-17,36,-2
1250,-96,-2024,-192,-19,35,0
1255,-112,-2048,-216,-21,35,-2
1260,-104,-2056,-184,-23,37,0
1265,-120,-2032,-184,-25,39,-3
1270,-96,-2016,-224,-25,39,0
1275,-104,-2040,-208,-22,40,-1
1280,-96,-2040,-208,-22,40,0
1285,-96,-2040,-184,-24,40,-2
1290,-112,-2024,-176,-24,39,2
1295,-104,-2040,-192,-26,40,1
1300,-128,-2032,-184,-28,40,2
1305,-104,-2040,-184,-29,38,1
1310,-120,-2040,-208,-27,39,3
1315,-104,-2032,-208,-26,39,3
1320,-96,-2048,-208,-23,37,5
1325,-96,-2048,-200,-23,37,4
1330,-112,-2032,-184,-20,38,6
1335,-120,-2040,-152,-18,39,4
1340,-120,-2032,-192,-15,40,6
1345,-112,-2032,-200,-14,41,5
1350,-112,-2056,-176,-15,39,6
1355,-96,-2040,-176,-15,39,4
1360,-120,-2032,-200,-16,39,6
1365,-96,-2032,-192,-19,39,4
1370,-96,-2040,-192,-20,39,7
1375,-96,-2040,-176,-20,39,5
1380,-88,-2048,-184,-20,42,8
1385,-120,-2024,-176,-20,41,7
1390,-88,-2032,-168,-19,42,9
1395,-96,-2032,-152,-20,43,7
1400,-120,-2016,-184,-22,42,9
1405,-96,-2032,-192,-24,43,8
1410,-112,-2000,-208,-25,45,9
1415,-104,-2048,-192,-26,45,8
1420,-96,-2048,-200,-26,45,9
1425,-96,-2040,-224,-26,43,7
1430,-96,-2048,-192,-24,43,10
1435,-112,-2024,-192,-23,43,9
1440,-96,-2048,-200,-21,42,12
1445,-120,-2040,-184,-19,43,12
1450,-96,-2040,-208,-16,40,15
1455,-128,-2056,-224,-12,41,16
1460,-120,-2032,-168,-7,42,17
1465,-112,-2032,-200,-7,43,16
1470,-112,-2016,-184,-7,43,15
1475,-120,-2040,-192,-7,44,14
1480,-144,-2032,-192,-10,47,15
1485,-96,-2040,-200,-10,47,14
1490,-120,-2032,-208,-11,50,16
1495,-96,-2056,-232,-9,49,17
1500,-104,-2032,-192,-8,48,18
1505,-96,-2040,-176,-6,46,20
1510,-96,-2056,-224,-6,44,20
1515,-96,-2024,-192,-8,43,20
1520,-104,-2048,-192,-10,42,22
1525,-112,-2032,-160,-11,43,20
1530,-104,-2032,-208,-15,44,20
1535,-120,-2048,-168,-16,46,20
1540,-112,-2056,-208,-17,46,22
1545,-104,-2064,-184,-15,45,21
1550,-104,-2056,-224,-10,44,23
1555,-104,-2048,-176,-4,43,24
1560,-112,-2040,-216,-1,43,22
1565,-112,-2032,-200,2,44,19
1570,-128,-2040,-216,5,48,18
1575,-144,-2016,-208,8,52,15
1580,-120,-2040,-240,8,56,14
1585,-96,-2016,-184,6,61,14
1590,-104,-2016,-184,2,63,14
1595,-128,-2040,-192,0,64,16
1600,-120,-2048,-176,2,62,17
1605,-136,-2040,-192,2,61,19
1610,-144,-2016,-184,5,59,21
1615,-120,-2032,-208,5,55,22
1620,-104,-2048,-168,6,54,23
1625,-96,-2040,-192,2,55,25
1630,-144,-2032,-192,0,54,24
1635,-104,-2024,-184,-2,53,26
1640,-128,-2056,-160,0,54,24
1645,-128,-2032,-208,0,55,25
1650,-120,-2032,-200,1,57,23
1655,-136,-2048,-168,1,57,23
1660,-128,-2024,-216,3,60,22
1665,-112,-2048,-192,6,61,23
1670,-136,-2048,-184,8,64,21
1675,-120,-2040,-208,9,64,22
1680,-128,-2048,-208,12,65,22
1685,-144,-2032,-208,14,66,24
1690,-120,-2056,-200,17,65,21
1695,-120,-2032,-176,19,65,24
1700,-96,-2048,-192,23,65,23
1705,-136,-2048,-216,26,65,24
1710,-104,-2016,-192,26,63,23
1715,-120,-2008,-168,27,64,24
1720,-104,-2016,-160,25,63,24
1725,-112,-2024,-176,24,63,25
1730,-144,-2024,-192,22,62,24
1735,-112,-2016,-152,20,63,25
1740,-152,-2032,-168,18,62,25
1745,-128,-2016,-184,17,63,26
1750,-120,-2016,-176,17,62,27
1755,-120,-2056,-192,16,62,29
1760,-136,-2024,-176,15,61,29
1765,-112,-2032,-168,16,61,33
1770,-152,-2040,-168,18,61,33
1775,-160,-2032,-184,18,62,36
1780,-136,-2032,-160,19,63,35
1785,-144,-2040,-184,20,64,39
1790,-136,-2048,-160,20,66,38
1795,-104,-2064,-208,20,65,41
1800,-152,-2048,-200,20,66,39
1805,-104,-2056,-192,21,67,43
1810,-128,-2056,-176,22,68,42
1815,-144,-2032,-176,23,66,44
1820,-120,-2056,-184,23,66,44
1825,-136,-2032,-192,24,67,48
1830,-136,-2032,-192,24,66,46
1835,-128,-2040,-160,24,64,49
1840,-152,-2024,-176,24,63,46
1845,-104,-2024,-152,24,63,48
1850,-128,-2032,-176,23,62,45
1855,-176,-2024,-152,20,63,47
1860,-160,-2024,-176,15,65,47
1865,-104,-2040,-184,8,65,49
1870,-136,-2032,-152,1,66,48
1875,-136,-2040,-160,-4,64,51
1880,-128,-2048,-168,-4,62,47
1885,-144,-2056,-176,-4,58,51
1890,-160,-2040,-184,1,56,48
1895,-144,-2064,-184,7,52,51
1900,-136,-2064,-168,9,54,47
1905,-128,-2048,-160,11,54,50
1910,-136,-2064,-192,12,56,48
1915,-152,-2040,-168,13,57,50
1920,-152,-2040,-168,14,59,50
1925,-176,-2032,-120,14,59,53
1930,-152,-2120,-104,15,59,52
1935,-136,-2040,-200,15,59,54
1940,-104,-2040,-112,13,60,54
1945,-176,-2040,-72,13,59,55
1950,-152,-2000,-128,11,59,53
1955,-176,-1976,-232,10,56,55
1960,-200,-1992,-192,7,56,54
1965,-192,-2008,-80,5,55,57
1970,-144,-2048,-144,4,54,53
1975,-72,-2048,-184,2,53,56
1980,-152,-2040,-216,0,54,54
1985,-120,-2080,-184,1,54,58
1990,-384,-2048,-128,2,54,56
1995,-312,-2056,-184,3,56,61
2000,-248,-1976,-152,4,55,59
2005,-104,-2008,-72,5,56,63
2010,-208,-2000,-152,6,57,60
2015,-152,-2016,-192,6,58,62
2020,-200,-2000,-176,6,55,62
2025,-120,-2032,-224,6,55,65
2030,-176,-2072,-80,7,53,64
2035,-112,-1992,-152,8,51,66
2040,-136,-2040,-128,9,51,66
2045,-264,-2032,-64,9,51,68
2050,-160,-2064,-192,10,51,66
2055,-208,-2072,-16,11,51,69
2060,-200,-2008,-128,10,52,67
2065,-192,-2040,-184,9,53,69
2070,-168,-1992,-136,8,53,68
2075,-200,-2024,-144,7,54,73
2080,-160,-2008,-144,6,56,71
2085,-168,-2096,-200,4,55,76
2090,-104,-2024,-160,4,55,75
2095,-168,-2056,-32,3,52,78
2100,-176,-2008,-168,2,52,76
2105,-184,-1944,-176,2,50,78
2110,-256,-2056,-136,3,50,79
2115,-40,-2040,-152,2,49,80
2120,-104,-2040,-184,2,48,80
2125,-200,-1944,-128,4,50,83
2130,-208,-2040,-136,3,50,79
2135,-264,-2048,-120,6,52,81
2140,-288,-2088,-136,7,52,80
2145,-208,-2024,-200,8,53,80
2150,-240,-2088,-112,9,54,79
2155,-152,-2088,-128,12,53,78
2160,-232,-2072,-144,10,50,76
2165,-168,-2024,-256,12,46,78
2170,-248,-2120,-144,9,43,77
2175,-248,-2032,-216,8,40,79
2180,-160,-2048,-216,6,37,78
2185,-200,-2040,-40,5,33,81
2190,-216,-2016,-72,6,26,81
2195,-112,-1928,-248,6,20,80
2200,-280,-2000,-240,7,17,81
2205,-200,-2040,-112,8,15,79
2210,-152,-2008,-136,8,12,75
2215,-216,-2008,-120,6,15,74
2220,-200,-2016,-160,3,16,71
2225,-208,-2016,-144,-3,20,69
2230,-208,-2040,-136,-8,21,66
2235,-240,-2000,-128,-11,21,67
2240,-200,-2048,-24,-15,24,66
2245,-200,-1984,-96,-17,26,66
2250,-192,-2064,-40,-17,27,68
2255,-256,-2136,-112,-19,25,68
2260,-232,-2072,-176,-23,24,70
2265,-248,-2016,-336,-30,23,70
2270,-240,-2056,-168,-34,24,70
2275,-256,-2000,-96,-39,25,71
2280,-216,-2008,-112,-42,26,71
2285,-240,-2000,-240,-41,30,72
2290,-216,-2024,-72,-35,33,75
2295,-168,-2048,-120,-30,35,75
2300,-184,-2024,-288,-24,37,82
2305,-224,-1992,-232,-18,36,88
2310,-208,-2032,-104,-13,35,91
2315,-232,-2016,-224,-10,34,95
2320,-272,-2056,-128,-6,33,96
2325,-224,-1960,-184,-4,33,98
2330,-216,-2048,-104,-9,30,99
2335,-200,-2056,-64,-19,25,100
2340,-288,-2048,-112,-28,22,103
2345,-208,-2016,-120,-37,22,103
2350,-288,-2032,-208,-43,26,107
2355,-264,-1976,-200,-41,30,110
2360,-200,-1944,-256,-37,32,114
2365,-248,-1976,-312,-33,36,114
2370,-256,-2064,-112,-27,35,117
2375,-320,-2096,-64,-22,36,118
2380,-240,-1992,-160,-22,37,118
2385,-232,-2000,-240,-24,40,115
2390,-216,-1984,-208,-29,46,115
2395,-256,-1984,-192,-35,52,112
2400,-264,-1976,-192,-41,60,111
2405,-168,-1992,-296,-44,67,111
2410,-256,-2000,-256,-46,72,113
2415,-216,-2024,-264,-49,75,111
2420,-216,-1960,-224,-55,77,108
2425,-232,-2032,-224,-62,81,105
2430,-232,-2048,-152,-66,86,104
2435,-280,-2016,-224,-71,92,101
2440,-248,-1984,-272,-76,95,102
2445,-240,-1984,-280,-79,94,98
2450,-224,-1920,-168,-81,92,96
2455,-264,-2000,-136,-82,95,91
2460,-168,-2024,-216,-85,100,89
2465,-304,-2048,-144,-85,106,87
2470,-328,-2056,-264,-83,115,89
2475,-256,-2032,-152,-80,120,88
2480,-272,-2008,-184,-77,122,92
2485,-312,-2008,-128,-78,120,92
2490,-336,-1976,-272,-77,115,95
2495,-320,-2024,-208,-72,114,97
2500,-272,-2104,-152,-71,113,101
2505,-288,-1880,-240,-71,112,102
2510,-256,-1920,-168,-73,115,105
2515,-464,-1992,-272,-73,119,105
2520,-248,-1872,-320,-74,126,109
2525,-256,-1952,-240,-75,132,109
2530,-280,-2040,-144,-75,140,115
2535,-280,-2000,-216,-73,149,119
2540,-272,-2048,-200,-68,156,125
2545,-304,-2000,-176,-62,157,129
2550,-296,-2016,-144,-53,159,135
2555,-288,-2072,-120,-40,157,139
2560,-296,-2064,-104,-26,152,146
2565,-272,-1984,-184,-13,147,147
2570,-336,-1992,-104,-3,140,152
2575,-264,-2048,-96,2,131,151
2580,-256,-1992,-192,0,124,154
2585,-264,-2096,-112,-5,121,153
2590,-304,-2016,-104,-8,120,155
2595,-352,-2008,-136,-13,120,152
2600,-272,-2016,-216,-14,120,153
2605,-312,-1968,-224,-9,125,152
2610,-328,-2048,-168,2,132,157
2615,-352,-2016,-152,21,136,158
2620,-288,-2040,-216,38,141,163
2625,-304,-2024,-216,54,141,164
2630,-336,-1960,-200,63,142,167
2635,-336,-2048,-88,63,140,167
2640,-328,-2048,56,54,136,167
2645,-264,-1928,-168,37,131,163
2650,-408,-2000,-176,23,130,164
2655,-360,-1992,-104,15,127,162
2660,-352,-2016,-136,15,125,160
2665,-408,-2048,-184,19,120,153
2670,-376,-1920,-88,22,117,154
2675,-360,-1992,-208,20,108,152
2680,-360,-2032,-296,17,101,154
2685,-320,-2000,-200,17,91,153
2690,-392,-1976,-256,20,88,156
2695,-392,-2040,-184,25,89,152
2700,-352,-2032,-192,28,93,153
2705,-368,-2040,-176,32,98,149
2710,-376,-2056,-168,33,106,148
2715,-392,-2048,-160,32,115,143
2720,-312,-2016,-160,34,120,143
2725,-352,-2024,-168,45,120,138
2730,-424,-2056,-120,52,117,140
2735,-344,-1952,-232,52,113,136
2740,-448,-1952,-248,50,110,137
2745,-424,-1992,-224,47,107,133
2750,-408,-1984,-152,47,101,133
2755,-416,-2080,-184,48,94,130
2760,-448,-1976,-120,42,93,132
2765,-376,-2016,-160,38,95,133
2770,-360,-1968,-232,33,91,134
2775,-416,-2064,-96,27,92,133
2780,-432,-1944,-272,22,91,137
2785,-304,-1984,-216,20,90,132
2790,-416,-1992,-104,11,88,136
2795,-328,-1968,-192,8,83,135
2800,-320,-2000,-96,6,79,139
2805,-464,-1968,-200,6,80,138
2810,-384,-1968,-128,4,81,141
2815,-424,-1976,-128,-1,84,141
2820,-352,-1944,-176,0,83,146
2825,-440,-2064,-56,3,83,145
2830,-360,-1976,-136,7,84,148
2835,-464,-1968,-144,5,83,146
2840,-456,-2056,-160,1,82,150
2845,-424,-2056,-32,0,79,147
2850,-416,-2016,-160,3,75,150
2855,-408,-1984,-128,7,69,150
2860,-408,-2000,-144,8,68,150
2865,-416,-1984,-160,4,66,149
2870,-416,-1960,-152,-2,66,152
2875,-408,-1984,-168,-9,64,150
2880,-408,-1992,-152,-17,65,151
2885,-424,-1984,-144,-23,68,151
2890,-440,-2008,-120,-27,67,154
2895,-416,-2032,-184,-23,66,156
2900,-424,-1992,-184,-20,67,159
2905,-400,-2000,-192,-21,68,159
2910,-424,-1992,-168,-17,70,162
2915,-440,-2016,-112,-15,71,161
2920,-440,-2000,-136,-15,70,162
2925,-440,-1984,-176,-16,72,163
2930,-432,-1984,-184,-18,72,165
2935,-448,-2032,-160,-18,68,165
2940,-456,-2000,-176,-16,65,168
2945,-440,-2008,-176,-11,61,168
2950,-424,-2016,-168,-11,59,168
2955,-440,-2008,-160,-12,59,169
2960,-456,-2024,-112,-12,61,169
2965,-440,-2008,-152,-12,61,170
2970,-448,-2008,-144,-9,61,171
2975,-440,-1992,-168,-7,58,172
2980,-464,-1984,-160,-8,59,172
2985,-440,-1992,-288,-11,58,171
2990,-456,-1992,-160,-7,56,172
2995,-432,-2000,-144,-6,55,173
3000,-440,-1984,-160,-5,56,174
3005,-448,-1984,-176,-7,56,172
3010,-512,-1968,-208,-12,58,174
3015,-464,-2000,-160,-12,57,174
3020,-456,-1960,-160,-12,55,175
3025,-456,-1992,-176,-12,53,176
3030,-472,-1976,-152,-15,52,176
3035,-472,-1984,-168,-13,50,179
3040,-480,-1976,-160,-12,46,181
3045,-480,-1984,-160,-8,44,182
3050,-464,-1984,-184,-7,43,183
3055,-440,-1968,-160,-5,43,182
3060,-472,-1992,-176,-4,43,184
3065,-456,-2000,-152,-3,45,186
3070,-496,-2000,-176,-3,47,185
3075,-496,-2008,-144,-2,48,186
3080,-488,-1936,-216,-1,51,185
3085,-480,-1992,-176,0,51,186
3090,-488,-1976,-208,1,49,187
3095,-480,-2000,-160,-1,49,189
3100,-464,-1968,-184,-3,49,190
3105,-488,-1968,-160,-7,51,191
3110,-496,-1976,-184,-12,55,188
3115,-496,-1976,-184,-16,59,191
3120,-512,-1960,-184,-14,61,190
3125,-512,-1968,-168,-12,63,193
3130,-512,-1984,-184,-8,65,191
3135,-496,-1960,-152,-4,66,192
3140,-504,-1984,-184,1,66,192
3145,-536,-1976,-176,4,66,194
3150,-616,-1936,-224,5,65,194
3155,-520,-1960,-168,1,63,196
3160,-512,-1984,-168,-2,64,193
3165,-520,-1984,-152,-6,64,195
3170,-552,-1968,-176,-8,65,191
3175,-528,-1984,-168,-8,64,192
3180,-504,-1960,-176,-5,62,191
3185,-528,-1992,-192,4,62,193
3190,-552,-1984,-216,12,64,191
3195,-528,-1968,-176,20,67,191
3200,-560,-1944,-200,27,70,188
3205,-568,-1960,-176,30,72,187
3210,-576,-1936,-200,30,72,183
3215,-568,-1968,-184,29,73,182
3220,-544,-1968,-184,31,76,178
3225,-584,-1968,-192,30,79,179
3230,-560,-1976,-192,36,81,179
3235,-576,-2008,-160,42,82,179
3240,-576,-2000,-176,51,84,178
3245,-560,-2000,-160,60,84,181
3250,-576,-1968,-152,69,86,177
3255,-544,-1984,-184,75,88,179
3260,-560,-1952,-176,76,91,177
3265,-568,-1944,-160,77,95,180
3270,-544,-1912,-144,77,101,180
3275,-536,-1912,-168,82,107,183
3280,-568,-1944,-168,88,112,183
3285,-592,-1928,-136,96,117,186
3290,-592,-1928,-184,103,120,185
3295,-600,-1920,-152,110,121,189
3300,-600,-1920,-200,112,117,188
3305,-584,-1960,-176,107,116,190
3310,-600,-1936,-128,104,114,189
3315,-608,-1952,-136,103,114,192
3320,-592,-1976,-120,102,116,191
3325,-616,-1952,-176,105,116,195
3330,-608,-1952,-136,110,119,197
3335,-616,-1944,-152,114,122,201
3340,-600,-1960,-160,120,126,200
3345,-600,-1976,-184,123,129,204
3350,-632,-1968,-136,132,134,205
3355,-624,-1968,-120,143,136,212
3360,-632,-1968,-184,157,137,211
3365,-616,-1968,-152,167,136,217
3370,-624,-1936,-136,172,138,216
3375,-616,-1928,-120,176,134,218
3380,-616,-1960,-120,178,130,216
3385,-624,-1936,-136,179,126,218
3390,-648,-1944,-104,179,130,218
3395,-648,-1952,-120,180,135,221
3400,-648,-1896,-96,186,137,222
3405,-640,-1928,-112,191,139,225
3410,-648,-1936,-128,194,137,224
3415,-640,-1928,-112,192,135,226
3420,-656,-1896,-112,184,132,225
3425,-664,-1912,-80,175,127,229
3430,-672,-1904,-120,168,123,226
3435,-696,-1896,-112,161,121,229
3440,-672,-1928,-80,160,122,227
3445,-712,-1888,-80,162,119,231
3450,-688,-1920,-88,165,114,229
3455,-688,-1920,-88,169,110,229
3460,-688,-1944,-88,178,108,227
3465,-712,-1912,-80,183,106,230
3470,-696,-1912,-64,185,104,226
3475,-688,-1928,-72,181,102,226
3480,-696,-1928,-80,180,101,222
3485,-696,-1920,-64,180,104,224
3490,-680,-1920,-96,181,110,221
3495,-688,-1912,-72,183,114,220
3500,-688,-1904,-80,185,119,213
3505,-688,-1920,-56,188,124,212
3510,-696,-1888,-64,184,124,207
3515,-712,-1912,-64,174,127,207
3520,-720,-1888,-24,168,127,204
3525,-704,-1888,-72,161,126,208
3530,-728,-1888,-56,152,122,208
3535,-704,-1904,-64,148,117,208
3540,-712,-1904,-40,144,113,205
3545,-752,-1888,-32,143,109,207
3550,-736,-1880,-64,139,105,206
3555,-720,-1944,-32,136,102,209
3560,-768,-1872,-56,135,102,209
3565,-744,-1880,-32,130,100,215
3570,-744,-1896,-40,121,95,216
3575,-728,-1904,-64,115,93,219
3580,-760,-1896,-56,110,91,219
3585,-760,-1880,-72,109,90,221
3590,-752,-1912,-56,113,90,219
3595,-768,-1912,-56,118,94,221
3600,-736,-1888,-40,122,101,218
3605,-744,-1904,-56,118,105,219
3610,-736,-1896,-80,108,113,218
3615,-736,-1880,-72,94,123,218
3620,-744,-1856,-80,77,133,217
3625,-736,-1856,-56,62,141,215
3630,-752,-1896,-64,49,150,216
3635,-776,-1864,-24,40,157,219
3640,-792,-1856,-16,33,163,222
3645,-792,-1864,-56,21,165,228
3650,-784,-1872,-40,15,168,230
3655,-784,-1888,-16,10,171,237
3660,-816,-1880,-16,8,173,243
3665,-792,-1880,-32,8,174,249
3670,-824,-1872,-56,7,174,255
3675,-792,-1872,-24,5,171,263
3680,-824,-1864,0,5,166,264
3685,-792,-1880,8,4,158,272
3690,-800,-1864,32,7,149,275
3695,-800,-1872,0,10,138,283
3700,-792,-1864,-32,14,130,285
3705,-792,-1864,-40,13,122,289
3710,-776,-1864,-24,13,118,287
3715,-784,-1856,-16,8,116,286
3720,-776,-1856,-32,5,119,285
3725,-776,-1872,-24,3,121,287
3730,-776,-1864,-64,3,125,291
3735,-800,-1888,-8,2,129,293
3740,-824,-1880,-56,-2,133,292
3745,-808,-1880,-72,-10,138,292
3750,-824,-1856,-56,-14,142,289
3755,-848,-1880,-72,-16,143,291
3760,-848,-1832,-32,-13,143,295
3765,-832,-1864,-56,-9,145,301
3770,-856,-1840,-64,-5,143,304
3775,-864,-1848,-88,-4,140,309
3780,-888,-1840,-64,0,139,310
3785,-864,-1856,-56,3,138,314
3790,-888,-1832,-64,8,136,320
3795,-888,-1832,-64,12,134,323
3800,-888,-1832,-24,14,132,329
3805,-864,-1840,-64,17,129,333
3810,-880,-1840,-56,16,129,335
3815,-880,-1832,-56,17,130,336
3820,-896,-1832,-72,17,129,339
3825,-880,-1824,-40,17,128,338
3830,-896,-1808,-56,15,126,342
3835,-920,-1824,-56,14,122,347
3840,-904,-1832,-64,12,118,349
3845,-904,-1824,-24,11,115,349
3850,-904,-1808,-56,11,112,350
3855,-920,-1784,-56,10,112,350
3860,-912,-1824,-16,9,114,352
3865,-920,-1776,-8,10,119,353
3870,-888,-1800,-24,5,125,352
3875,-904,-1784,-40,0,133,355
3880,-912,-1776,-32,-7,142,360
3885,-912,-1792,-48,-13,151,366
3890,-888,-1776,-56,-22,157,373
3895,-848,-1648,-112,-32,163,379
3900,-912,-1768,-24,-39,164,389
3905,-912,-1752,-24,-44,163,399
3910,-904,-1776,-56,-45,161,412
3915,-912,-1784,-56,-46,159,422
3920,-888,-1792,-72,-43,156,435
3925,-888,-1816,-32,-39,150,444
3930,-920,-1808,-88,-32,144,455
3935,-920,-1808,-32,-23,140,463
3940,-912,-1808,-56,-11,136,472
3945,-944,-1816,-48,1,130,481
3950,-960,-1784,-56,12,128,490
3955,-968,-1792,-56,19,127,498
3960,-968,-1792,-40,27,126,506
3965,-968,-1792,-40,41,131,513
3970,-984,-1792,-16,53,136,525
3975,-992,-1760,-40,64,135,534
3980,-1032,-1768,-24,72,136,544
3985,-1016,-1736,-40,81,136,550
3990,-1008,-1760,-16,82,138,556
3995,-1040,-1712,-16,77,141,557
4000,-1032,-1744,-48,65,145,565
4005,-1040,-1728,-16,51,146,568
4010,-1016,-1760,-16,33,146,574
4015,-1064,-1752,-24,23,147,577
4020,-1040,-1752,-40,12,147,582
4025,-1056,-1744,-16,1,146,583
4030,-1032,-1728,-32,-10,148,589
4035,-1064,-1720,-40,-14,153,591
4040,-1056,-1728,-40,-18,158,598
4045,-1048,-1728,-24,-20,163,599
4050,-1056,-1720,-40,-23,167,601
4055,-1048,-1720,-88,-20,169,603
4060,-1032,-1696,-48,-25,166,609
4065,-1056,-1712,-88,-29,163,607
4070,-1056,-1680,-56,-40,161,607
4075,-1016,-1696,-88,-53,157,605
4080,-992,-1720,-64,-58,161,609
4085,-992,-1728,-56,-57,167,605
4090,-1008,-1728,-72,-49,181,607
4095,-1016,-1720,-48,-43,200,605
4100,-984,-1704,-88,-47,234,607
4105,-992,-1680,-48,-58,262,607
4110,-984,-1720,-48,-70,284,609
4115,-1000,-1728,-24,-75,297,607
4120,-1008,-1704,-48,-67,306,611
4125,-1024,-1688,-56,-45,312,613
4130,-1032,-1704,-40,-18,315,623
4135,-1072,-1672,-56,15,319,630
4140,-1088,-1672,-72,44,323,641
4145,-1120,-1640,-72,67,332,654
4150,-1112,-1664,-96,88,342,671
4155,-1128,-1616,-64,103,358,685
4160,-1104,-1608,-72,112,379,701
4165,-1136,-1568,-56,115,404,711
4170,-1112,-1568,-56,110,431,727
4175,-1120,-1552,-40,97,462,736
4180,-1144,-1560,0,78,488,750
4185,-1160,-1528,-40,59,509,760
4190,-1184,-1560,-24,38,528,778
4195,-1232,-1544,-24,11,530,788
4200,-1216,-1544,-32,-13,525,806
4205,-1200,-1544,-64,-36,515,821
4210,-1184,-1560,-48,-55,505,844
4215,-1200,-1576,-64,-59,503,864
4220,-1216,-1560,-80,-42,511,890
4225,-1200,-1568,-112,-16,523,908
4230,-1192,-1568,-88,10,536,928
4235,-1192,-1576,-128,24,547,941
4240,-1192,-1552,-184,25,557,956
4245,-1184,-1544,-184,19,572,964
4250,-1160,-1544,-176,6,592,976
4255,-1144,-1528,-200,-5,620,982
4260,-1168,-1504,-216,-16,654,997
4265,-1168,-1496,-224,-27,685,1004
4270,-1184,-1480,-224,-32,714,1018
4275,-1184,-1488,-264,-39,742,1030
4280,-1208,-1456,-288,-40,768,1050
4285,-1232,-1448,-288,-33,779,1063
4290,-1224,-1424,-320,-21,789,1080
4295,-1224,-1416,-304,-10,805,1095
4300,-1216,-1416,-296,0,827,1113
4305,-1232,-1392,-320,2,854,1127
4310,-1248,-1400,-296,-5,881,1140
4315,-1248,-1392,-296,-14,903,1148
4320,-1240,-1376,-280,-22,917,1159
4325,-1240,-1360,-304,-30,927,1167
4330,-1256,-1360,-296,-35,935,1179
4335,-1240,-1352,-304,-44,941,1186
4340,-1256,-1320,-304,-52,953,1195
4345,-1288,-1272,-304,-55,967,1204
4350,-1304,-1272,-280,-59,980,1218
4355,-1320,-1272,-320,-57,989,1230
4360,-1296,-1248,-344,-54,994,1247
4365,-1272,-1224,-328,-49,995,1260
4370,-1280,-1224,-352,-45,997,1274
4375,-1288,-1184,-360,-52,1008,1281
4380,-1240,-1160,-336,-66,1023,1294
4385,-1256,-1112,-352,-87,1041,1302
4390,-1272,-1104,-360,-114,1061,1314
4395,-1208,-1080,-376,-139,1079,1318
4400,-1208,-1048,-360,-166,1095,1325
4405,-1200,-984,-376,-193,1103,1325
4410,-1216,-952,-424,-216,1103,1331
4415,-1208,-928,-432,-239,1093,1336
4420,-1240,-936,-448,-260,1071,1349
4425,-1256,-920,-448,-274,1048,1361
4430,-1288,-912,-488,-290,1023,1376
4435,-1328,-880,-480,-318,1004,1387
4440,-1344,-856,-496,-357,995,1399
4445,-1328,-888,-456,-414,991,1404
4450,-1368,-864,-456,-484,997,1407
4455,-1368,-848,-448,-556,1007,1407
4460,-1376,-816,-440,-619,1012,1409
4465,-1376,-784,-480,-690,1015,1407
4470,-1360,-760,-464,-750,1021,1410
4475,-1312,-688,-496,-816,1035,1411
4480,-1320,-680,-496,-893,1053,1419
4485,-1248,-672,-496,-975,1073,1424
4490,-1240,-640,-520,-1050,1089,1438
4495,-1232,-640,-512,-1126,1095,1448
4500,-1224,-640,-560,-1209,1088,1458
4505,-1184,-608,-552,-1302,1080,1467
4510,-1192,-608,-592,-1426,1077,1479
4515,-1144,-624,-608,-1541,1088,1493
4520,-1136,-656,-544,-1650,1108,1509
4525,-1128,-680,-560,-1742,1141,1528
4530,-1120,-720,-504,-1814,1175,1557
4535,-1104,-784,-480,-1863,1204,1586
4540,-1048,-832,-448,-1876,1222,1618
4545,-1048,-840,-464,-1863,1230,1650
4550,-976,-832,-464,-1832,1241,1683
4555,-928,-864,-496,-1800,1274,1704
4560,-856,-872,-464,-1792,1320,1727
4565,-800,-896,-440,-1796,1379,1748
4570,-728,-912,-368,-1793,1439,1774
4575,-688,-928,-288,-1767,1486,1796
4580,-584,-952,-264,-1711,1510,1815
4585,-536,-920,-216,-1635,1518,1825
4590,-480,-888,-240,-1538,1524,1835
4595,-456,-816,-280,-1445,1546,1845
4600,-448,-784,-272,-1374,1591,1850
4605,-400,-728,-248,-1346,1635,1843
4610,-320,-664,-176,-1341,1676,1827
4615,-216,-648,-128,-1337,1715,1802
4620,-200,-648,8,-1331,1756,1763
4625,-208,-696,48,-1335,1789,1705
4630,-96,-728,184,-1367,1788,1621
4635,-64,-744,240,-1412,1762,1486
4640,-88,-752,376,-1465,1716,1295
4645,-96,-720,504,-1541,1620,1040
4650,-216,-688,616,-1587,1522,818
4655,-376,-624,608,-1575,1404,601
4660,-496,-544,608,-1536,1224,420
4665,-624,-552,592,-1475,944,267
4670,-880,-552,344,-1450,586,107
4675,-1112,-536,128,-1508,208,-37
4680,-1280,-552,64,-1614,-168,-157
4685,-1480,-608,48,-1709,-503,-280
4690,-1720,-648,8,-1711,-743,-431
4695,-1856,-688,8,-1592,-720,-504
4700,-1984,-808,-8,-1397,-515,-515
4705,-2032,-800,-24,-1151,-186,-484
4710,-1864,-808,120,-913,181,-431
4715,-1848,-736,224,-704,523,-392
4720,-1840,-480,576,-561,762,-350
4725,-1896,-184,920,-495,871,-241
4730,-1728,-160,1040,-531,800,-105
4735,-1624,-88,984,-718,428,98
4740,-1536,-96,680,-977,-103,251
4745,-1568,-16,392,-1032,-758,334
4750,-1608,-104,-216,-808,-1465,288
4755,-1696,-8,-624,-306,-2217,63
4760,-2768,880,-2616,364,-2819,-343
4765,-3480,2112,-6440,1466,-2439,-607
4770,-16840,15384,-16272,3847,2182,752
4775,-12904,10128,-872,4149,8508,4733
4780,-8440,11320,-3952,1368,9883,6451
4785,11192,2584,2560,534,9899,6007
4790,10680,1640,-48,2142,6119,3268
4795,-2336,-968,-9040,3309,1448,630
4800,-9712,-88,-9704,1302,-833,-643
4805,-8168,1736,-8176,-1261,-834,-337
4810,-5024,1600,-6312,-2415,169,221
4815,-6048,1632,-6928,-2064,880,381
4820,-5768,-312,-6936,-1441,914,806
4825,-5408,-952,-6704,-1027,870,1433
4830,-4816,-816,-5080,-719,929,1728
4835,-3768,-120,-3544,-148,920,1786
4840,-2784,152,-3184,524,718,1734
4845,-2584,1328,-2920,951,531,1527
4850,-1664,984,-2184,1022,437,1254
4855,-952,1112,-2000,980,457,906
4860,-1192,1792,-2032,937,561,529
4865,-560,1248,-2064,730,648,247
4870,-672,1376,-2088,525,783,-146
4875,-856,992,-1920,209,949,-474
4880,-1144,488,-1664,15,1060,-753
4885,-1712,744,-1568,-179,1241,-975
4890,-1592,272,-1032,-463,1494,-1012
4895,-1648,-8,-712,-678,1772,-972
4900,-1536,112,-776,-853,1981,-896
4905,-1176,48,-464,-944,2121,-700
4910,-1040,-24,-456,-855,2099,-414
4915,-1112,288,-592,-641,1862,-33
4920,-1176,136,-560,-328,1550,269
4925,-1544,640,-928,-101,1288,423
4930,-1592,888,-1160,47,1147,517
4935,-1536,768,-1104,111,1154,586
4940,-1552,944,-1232,103,1004,478
4945,-1624,1000,-1240,107,752,296
4950,-1608,512,-1152,206,453,121
4955,-1728,584,-1256,297,48,-123
4960,-1728,624,-1352,260,-345,-371
4965,-1544,616,-1392,134,-661,-523
4970,-1376,552,-1552,49,-825,-674
4975,-1280,544,-1720,-60,-959,-824
4980,-1056,536,-1432,-218,-1040,-932
4985,-784,888,-1512,-408,-1134,-1017
4990,-624,1048,-1312,-580,-1166,-968
4995,-624,1104,-1224,-614,-1130,-804
5000,-512,944,-1224,-563,-1059,-659
5005,-640,944,-1248,-508,-1008,-626
5010,-456,1048,-1520,-419,-932,-594
5015,-336,936,-1520,-433,-824,-510
5020,-272,904,-1528,-462,-773,-468
5025,-360,888,-1592,-499,-768,-467
5030,-432,1112,-1664,-497,-752,-455
5035,-208,1088,-1760,-477,-704,-391
5040,-88,1184,-1760,-463,-643,-378
5045,-8,992,-1736,-441,-616,-348
5050,-88,1256,-1944,-433,-654,-369
5055,-72,1136,-1904,-501,-547,-318
5060,-160,1128,-2024,-561,-481,-341
5065,-368,1024,-1992,-590,-376,-325
5070,-536,1072,-2032,-566,-303,-303
5075,-720,992,-2064,-557,-256,-234
5080,-1136,744,-1984,-509,-216,-144
5085,-1376,656,-2088,-405,-221,-65
5090,-1416,648,-2144,-346,-215,-2
5095,-1520,752,-2176,-346,-186,33
5100,-1480,816,-2208,-350,-165,64
5105,-1456,808,-2256,-347,-172,75
5110,-1488,824,-2248,-343,-214,55
5115,-1520,768,-2200,-336,-274,24
5120,-1528,768,-2168,-326,-340,-25
5125,-1520,728,-2088,-319,-404,-80
5130,-1520,688,-2008,-316,-475,-136
5135,-1488,656,-2008,-306,-555,-180
5140,-1400,624,-1960,-314,-637,-240
5145,-1480,600,-1912,-333,-725,-308
5150,-1416,544,-1824,-336,-787,-334
5155,-1488,552,-1704,-333,-843,-352
5160,-1488,488,-1576,-338,-908,-389
5165,-1504,536,-1552,-336,-950,-418
5170,-1488,496,-1472,-339,-975,-439
5175,-1496,512,-1448,-324,-1002,-449
5180,-1456,464,-1400,-290,-1035,-455
5185,-1560,496,-1376,-244,-1077,-482
5190,-1552,464,-1360,-202,-1131,-523
5195,-1536,416,-1360,-149,-1157,-538
5200,-1464,432,-1400,-116,-1175,-564
5205,-1512,480,-1344,-108,-1172,-582
5210,-1584,552,-1216,-96,-1206,-607
5215,-1528,472,-1208,-51,-1247,-624
5220,-1544,496,-1296,28,-1258,-611
5225,-1584,400,-1272,68,-1241,-598
5230,-1640,312,-1168,119,-1212,-573
5235,-1616,272,-1176,169,-1216,-553
5240,-1600,304,-1184,197,-1209,-539
5245,-1632,368,-1200,196,-1193,-536
5250,-1600,432,-1184,166,-1187,-546
5255,-1552,424,-1112,133,-1172,-565
5260,-1512,368,-1152,119,-1166,-599
5265,-1616,280,-1080,126,-1133,-624
5270,-1696,208,-1088,169,-1073,-599
5275,-1736,264,-1104,214,-1007,-555
5280,-1768,256,-1104,228,-905,-498
5285,-1816,376,-1168,199,-828,-469
5290,-1768,296,-1088,132,-753,-479
5295,-1752,232,-1080,154,-679,-469
5300,-1864,216,-1096,206,-618,-447
5305,-1848,256,-1128,231,-562,-432
5310,-1816,280,-1112,187,-511,-451
5315,-1792,288,-1136,130,-449,-464
5320,-1816,232,-1048,105,-385,-458
5325,-1824,232,-1080,102,-320,-447
5330,-1824,232,-1056,118,-268,-436
5335,-1768,248,-1064,125,-200,-410
5340,-1848,248,-1088,122,-113,-382
5345,-1840,184,-1192,123,-47,-375
5350,-1896,192,-1208,113,3,-382
5355,-1824,184,-1224,85,40,-382
5360,-1880,152,-1176,56,69,-368
5365,-1808,168,-1240,31,65,-365
5370,-1816,144,-1288,26,63,-336
5375,-1872,96,-1288,13,59,-300
5380,-1840,88,-1248,-15,45,-265
5385,-1736,72,-1208,-39,32,-233
5390,-1752,136,-1152,-54,25,-207
5395,-1744,120,-1112,-58,23,-160
5400,-1760,128,-1088,-53,42,-109
5405,-1808,104,-1104,-47,77,-75
5410,-1768,104,-1112,-48,115,-45
5415,-1744,136,-1136,-49,165,2
5420,-1704,160,-1112,-58,205,35
5425,-1704,168,-1104,-66,234,53
5430,-1704,184,-1128,-68,256,60
5435,-1664,168,-1168,-73,277,65
5440,-1656,144,-1136,-78,297,72
5445,-1664,168,-1152,-87,314,83
5450,-1656,184,-1120,-97,331,98
5455,-1656,200,-1144,-107,347,111
5460,-1648,168,-1192,-117,363,126
5465,-1664,192,-1200,-125,380,139
5470,-1632,192,-1152,-126,394,146
5475,-1648,192,-1184,-128,406,154
5480,-1656,200,-1160,-126,418,161
5485,-1640,232,-1208,-124,433,167
5490,-1648,208,-1192,-124,446,173
5495,-1656,232,-1224,-122,459,178
5500,-1640,232,-1240,-124,468,184
5505,-1640,272,-1280,-128,473,187
5510,-1640,264,-1248,-134,477,187
5515,-1640,264,-1288,-141,475,183
5520,-1640,288,-1336,-141,466,182
5525,-1632,280,-1304,-143,453,182
5530,-1640,296,-1304,-143,433,183
5535,-1656,280,-1360,-141,412,183
5540,-1640,296,-1344,-137,389,185
5545,-1672,312,-1400,-132,370,178
5550,-1680,312,-1344,-130,353,173
5555,-1680,336,-1352,-126,335,167
5560,-1680,336,-1360,-123,318,165
5565,-1672,344,-1352,-120,299,162
5570,-1688,328,-1336,-117,281,161
5575,-1672,320,-1344,-114,266,154
5580,-1680,328,-1360,-108,249,152
5585,-1664,328,-1376,-102,232,148
5590,-1680,344,-1352,-98,220,147
5595,-1704,344,-1376,-94,211,142
5600,-1680,352,-1360,-90,207,142
5605,-1672,352,-1360,-86,204,138
5610,-1688,368,-1344,-83,196,135
5615,-1664,344,-1384,-78,186,129
5620,-1656,368,-1368,-75,174,123
5625,-1648,376,-1344,-69,163,112
5630,-1648,392,-1344,-63,150,104
5635,-1640,360,-1336,-57,137,92
5640,-1640,360,-1336,-53,124,80
5645,-1648,376,-1352,-43,108,70
5650,-1680,392,-1320,-36,100,63
5655,-1648,368,-1360,-31,91,53
5660,-1640,344,-1344,-27,88,47
5665,-1640,360,-1320,-24,84,38
5670,-1632,368,-1344,-20,79,32
5675,-1648,376,-1312,-20,74,23
5680,-1640,360,-1328,-18,70,19
5685,-1624,376,-1328,-16,69,9
5690,-1632,368,-1344,-15,68,3
5695,-1632,368,-1320,-13,68,-4
5700,-1632,376,-1312,-10,66,-8
5705,-1640,368,-1320,-5,62,-16
5710,-1640,360,-1320,-2,59,-21
5715,-1632,368,-1312,0,55,-30
5720,-1640,360,-1312,4,52,-34
5725,-1632,344,-1288,8,47,-41
5730,-1648,344,-1336,10,46,-44
5735,-1640,360,-1328,13,41,-47
5740,-1640,336,-1320,13,40,-48
5745,-1648,344,-1320,12,38,-50
5750,-1648,328,-1320,12,37,-49
5755,-1632,320,-1328,12,35,-53
5760,-1640,320,-1304,10,35,-53
5765,-1656,336,-1328,9,35,-59
5770,-1656,344,-1312,8,36,-56
5775,-1664,352,-1352,6,35,-60
5780,-1640,336,-1368,5,33,-58
5785,-1656,352,-1336,2,33,-61
5790,-1640,312,-1312,-3,31,-59
5795,-1656,352,-1336,-10,24,-58
5800,-1656,336,-1344,-3,17,-55
5805,-1664,320,-1336,8,11,-60
5810,-1648,312,-1328,9,4,-57
5815,-1648,312,-1296,8,-1,-57
5820,-1640,304,-1320,8,-6,-53
5825,-1648,304,-1296,10,-11,-51
5830,-1640,304,-1312,10,-10,-45
5835,-1672,304,-1312,9,-8,-42
5840,-1656,312,-1328,9,-4,-34
5845,-1656,328,-1288,7,-2,-34
5850,-1632,288,-1312,5,-1,-30
5855,-1664,320,-1296,2,6,-26
5860,-1640,336,-1352,1,5,-23
5865,-1656,320,-1304,1,6,-26
5870,-1648,288,-1304,-3,7,-22
5875,-1656,296,-1336,-7,9,-23
5880,-1656,288,-1304,-10,9,-17
5885,-1664,296,-1272,-14,9,-16
5890,-1648,312,-1304,-15,9,-11
5895,-1664,312,-1312,-16,11,-12
5900,-1648,296,-1280,-18,16,-7
5905,-1672,320,-1296,-20,21,-5
5910,-1680,328,-1256,-25,26,-2
5915,-1656,296,-1256,-27,36,0
5920,-1664,320,-1296,-32,45,6
5925,-1664,296,-1304,-36,54,5
5930,-1680,336,-1288,-40,64,9
5935,-1696,320,-1304,-44,75,5
5940,-1680,320,-1304,-50,88,7
5945,-1704,320,-1352,-57,97,5
5950,-1648,312,-1344,-61,103,7
5955,-1648,312,-1312,-62,107,5
5960,-1656,320,-1312,-65,104,7
5965,-1648,312,-1320,-64,98,6
5970,-1640,304,-1296,-63,90,8
5975,-1648,320,-1336,-60,81,8
5980,-1648,304,-1304,-57,74,12
5985,-1640,320,-1280,-56,67,14
5990,-1664,336,-1272,-55,64,18
5995,-1656,328,-1280,-53,63,17
6000,-1640,304,-1304,-51,62,19
6005,-1640,304,-1288,-52,64,19
6010,-1648,320,-1304,-50,62,21
6015,-1640,336,-1304,-48,64,21
6020,-1656,336,-1312,-45,65,23
6025,-1640,328,-1288,-43,66,22
6030,-1632,336,-1304,-39,66,23
6035,-1648,328,-1296,-36,65,20
6040,-1632,328,-1272,-33,63,21
6045,-1648,352,-1320,-31,62,19
6050,-1648,328,-1312,-30,61,21
6055,-1664,360,-1312,-28,62,17
6060,-1632,328,-1280,-28,66,19
6065,-1632,344,-1272,-29,68,16
6070,-1648,328,-1280,-31,70,18
6075,-1640,304,-1288,-33,75,17
6080,-1656,336,-1304,-33,79,19
6085,-1632,320,-1280,-32,79,19
6090,-1656,336,-1304,-32,77,20
6095,-1632,336,-1336,-29,74,20
6100,-1672,344,-1336,-28,68,22
6105,-1648,336,-1304,-27,64,21
6110,-1632,320,-1304,-26,60,23
6115,-1672,352,-1312,-25,55,21
6120,-1640,336,-1312,-26,53,24
6125,-1656,352,-1288,-26,52,22
6130,-1656,328,-1320,-27,53,22
6135,-1648,304,-1312,-26,53,22
6140,-1656,352,-1304,-23,52,22
6145,-1656,344,-1312,-18,52,21
6150,-1648,344,-1336,-16,51,21
6155,-1640,352,-1336,-15,50,18
6160,-1648,368,-1328,-14,43,16
6165,-1680,344,-1320,-14,39,16
6170,-1680,360,-1312,-13,31,15
6175,-1640,336,-1328,-12,29,16
6180,-1640,344,-1296,-13,27,16
6185,-1656,328,-1296,-14,26,18
6190,-1672,328,-1296,-14,25,20
6195,-1672,360,-1304,-14,25,18
6200,-1672,328,-1344,-12,26,19
6205,-1688,336,-1296,-11,27,20
6210,-1656,344,-1344,-11,27,21
6215,-1648,336,-1296,-11,27,22
6220,-1672,344,-1328,-13,27,22
6225,-1656,320,-1304,-14,25,23
6230,-1656,344,-1280,-16,23,25
6235,-1648,360,-1296,-18,24,26
6240,-1648,344,-1280,-19,27,29
6245,-1664,336,-1296,-20,33,31
6250,-1648,328,-1296,-20,35,33
6255,-1656,352,-1304,-17,38,34
6260,-1672,344,-1312,-14,36,34
6265,-1656,344,-1328,-13,35,35
6270,-1656,352,-1304,-13,34,32
6275,-1656,360,-1304,-12,33,31
6280,-1648,344,-1304,-12,32,32
6285,-1648,320,-1296,-14,31,33
6290,-1632,320,-1288,-15,31,32
6295,-1640,344,-1264,-17,31,35
6300,-1656,344,-1280,-18,33,37
6305,-1672,352,-1312,-18,34,40
6310,-1656,336,-1296,-18,38,40
6315,-1656,352,-1296,-18,38,44
6320,-1632,328,-1272,-17,42,44
6325,-1664,344,-1304,-18,45,46
6330,-1632,352,-1288,-18,47,46
6335,-1640,344,-1288,-18,47,45
6340,-1656,360,-1328,-17,49,42
6345,-1672,336,-1312,-15,50,42
6350,-1664,344,-1296,-14,50,41
6355,-1656,360,-1288,-16,51,43
6360,-1648,352,-1280,-17,53,43
6365,-1656,352,-1272,-18,56,42
6370,-1664,352,-1288,-18,57,41
6375,-1648,360,-1288,-18,59,41
6380,-1672,392,-1256,-19,64,40
6385,-1656,368,-1288,-17,68,41
6390,-1640,344,-1280,-16,75,39
6395,-1656,352,-1296,-15,82,42
6400,-1640,336,-1272,-14,85,39
6405,-1664,344,-1304,-10,87,42
6410,-1640,352,-1296,-10,91,42
6415,-1640,352,-1280,-12,93,44
6420,-1640,368,-1328,-13,95,42
6425,-1656,352,-1288,-13,98,42
6430,-1640,376,-1328,-12,100,39
6435,-1664,344,-1312,-11,105,37
6440,-1648,360,-1296,-9,104,35
6445,-1656,360,-1304,-7,104,37
6450,-1648,368,-1336,-4,103,36
6455,-1648,376,-1328,-3,103,37
6460,-1648,384,-1328,-5,102,35
6465,-1656,368,-1304,-3,100,37
6470,-1648,368,-1312,-2,97,34
6475,-1656,392,-1304,0,92,34
6480,-1640,376,-1320,1,89,30
6485,-1648,360,-1288,1,86,29
6490,-1648,368,-1320,0,85,23
6495,-1664,368,-1328,-1,83,23
6500,-1648,368,-1320,-2,80,20
6505,-1640,344,-1336,-5,80,22
6510,-1648,360,-1296,-9,79,19
6515,-1648,352,-1312,-10,76,20
6520,-1640,368,-1320,-9,78,18
6525,-1640,384,-1288,-9,79,18
6530,-1648,368,-1304,-7,80,15
6535,-1656,376,-1328,-6,81,17
6540,-1656,384,-1328,-6,81,14
6545,-1640,368,-1288,-6,81,14
6550,-1656,352,-1312,-7,79,12
6555,-1648,360,-1296,-7,79,14
6560,-1640,352,-1288,-8,78,12
6565,-1632,344,-1272,-7,77,14
6570,-1656,384,-1336,-6,76,14
6575,-1680,360,-1304,-8,77,17
6580,-1656,360,-1304,-7,77,15
6585,-1672,384,-1312,-10,79,20
6590,-1640,376,-1328,-9,82,17
6595,-1680,368,-1264,-8,82,20
6600,-1640,384,-1312,-5,82,18
6605,-1624,360,-1328,-6,82,20
6610,-1648,360,-1304,-5,83,18
6615,-1648,384,-1344,-5,81,20
6620,-1624,344,-1352,-7,80,17
6625,-1640,384,-1312,-8,76,18
6630,-1656,352,-1320,-5,72,16
6635,-1664,352,-1328,-5,68,18
6640,-1632,352,-1312,-4,66,15
6645,-1640,368,-1288,-2,64,17
6650,-1664,360,-1328,-1,63,13
6655,-1640,352,-1320,-3,62,17
6660,-1632,376,-1328,-5,63,14
6665,-1640,368,-1336,-6,64,18
6670,-1656,360,-1352,-8,61,16
6675,-1632,376,-1312,-8,60,17
6680,-1640,352,-1312,-8,59,15
6685,-1640,392,-1320,-8,58,17
6690,-1656,360,-1344,-7,58,13
6695,-1648,400,-1344,-8,61,14
6700,-1640,400,-1304,-9,60,11
6705,-1632,368,-1344,-10,63,11
6710,-1640,344,-1312,-12,66,10
6715,-1648,352,-1328,-13,67,13
6720,-1640,360,-1296,-14,67,11
6725,-1632,368,-1312,-12,67,13
6730,-1624,360,-1288,-10,68,10
6735,-1632,360,-1312,-8,70,14
6740,-1640,376,-1328,-6,69,11
6745,-1640,376,-1296,-6,72,14
6750,-1656,360,-1312,-6,72,13
6755,-1632,360,-1328,-7,73,16
6760,-1656,400,-1336,-6,71,15
6765,-1640,368,-1328,-6,70,19
6770,-1648,376,-1304,-8,66,18
6775,-1648,352,-1312,-7,61,19
6780,-1656,384,-1328,-6,55,15
6785,-1656,376,-1320,-3,52,17
6790,-1648,376,-1312,0,54,15
6795,-1640,360,-1328,1,55,18
6800,-1640,376,-1328,0,58,11
6805,-1632,384,-1312,-3,62,9
6810,-1656,392,-1296,-4,64,5
6815,-1624,376,-1304,-5,69,3
6820,-1632,368,-1312,-7,71,-1
6825,-1640,368,-1304,-7,70,2
6830,-1656,368,-1320,-8,69,1
6835,-1648,368,-1336,-9,67,3
6840,-1640,352,-1304,-7,64,-1
6845,-1656,376,-1352,-7,60,2
6850,-1640,360,-1320,-8,59,1
6855,-1648,384,-1272,-10,58,3
6860,-1640,384,-1336,-11,58,1
6865,-1632,376,-1312,-12,60,2
6870,-1640,384,-1328,-12,62,0
6875,-1640,376,-1320,-12,66,3
6880,-1632,360,-1312,-12,69,0
6885,-1640,376,-1328,-12,71,2
6890,-1640,368,-1360,-12,75,0
6895,-1632,352,-1312,-12,75,1
6900,-1624,368,-1320,-11,73,-2
6905,-1640,360,-1312,-11,71,0
6910,-1632,368,-1312,-10,68,-3
6915,-1632,360,-1336,-9,67,0
6920,-1608,352,-1344,-10,63,-3
6925,-1656,384,-1336,-9,61,-3
6930,-1632,368,-1312,-10,60,-6
6935,-1648,344,-1336,-10,61,-5
6940,-1640,376,-1296,-10,62,-5
6945,-1640,352,-1304,-10,62,-4
6950,-1648,368,-1328,-10,65,-5
6955,-1632,368,-1320,-11,66,-5
6960,-1640,368,-1344,-11,68,-8
6965,-1656,368,-1304,-12,71,-6
6970,-1640,360,-1312,-13,72,-7
6975,-1624,376,-1312,-13,74,-7
6980,-1632,272,-1320,-12,74,-8
6985,-1608,368,-1352,-11,74,-8
6990,-1688,368,-1520,-10,74,-9
6995,-1680,272,-1304,-12,73,-9
7000,-1592,376,-1320,-11,72,-9
7005,-1656,496,-1368,-12,71,-7
7010,-1600,352,-1296,-13,72,-7
7015,-1608,400,-1248,-15,71,-5
7020,-1592,360,-1328,-20,71,-7
7025,-1640,440,-1376,-23,73,-9
7030,-1720,416,-1368,-25,73,-13
7035,-1704,336,-1376,-27,74,-15
7040,-1560,360,-1280,-31,72,-15
7045,-1648,432,-1392,-34,70,-17
7050,-1656,408,-1232,-37,65,-20
7055,-1504,392,-1304,-39,61,-19
7060,-1648,400,-1264,-40,59,-20
7065,-1640,376,-1304,-39,55,-21
7070,-1640,376,-1328,-38,56,-21
7075,-1632,344,-1288,-39,56,-21
7080,-1648,360,-1328,-40,56,-21
7085,-1648,368,-1304,-40,54,-21
7090,-1632,352,-1280,-39,51,-20
7095,-1648,352,-1320,-35,50,-19
7100,-1632,328,-1360,-33,51,-16
7105,-1616,480,-1288,-31,50,-15
7110,-1640,424,-1392,-28,52,-12
7115,-1648,352,-1336,-27,55,-9
7120,-1632,256,-1312,-27,58,-6
7125,-1632,312,-1208,-30,59,-5
7130,-1672,360,-1280,-28,62,-4
7135,-1672,392,-1272,-27,64,-3
7140,-1600,344,-1336,-27,67,-4
7145,-1624,384,-1352,-29,70,-2
7150,-1680,352,-1360,-29,73,-1
7155,-1704,344,-1328,-30,74,-2
7160,-1672,336,-1288,-28,76,-1
7165,-1608,312,-1296,-25,79,-2
7170,-1480,328,-1320,-25,81,-2
7175,-1632,408,-1344,-26,82,-3
7180,-1768,360,-1360,-24,83,-5
7185,-1632,368,-1280,-25,81,-6
7190,-1680,352,-1208,-26,83,-5
7195,-1632,368,-1352,-24,83,-7
7200,-1632,368,-1304,-25,85,-7
7205,-1632,384,-1328,-25,87,-9
7210,-1632,368,-1320,-23,87,-9
7215,-1640,368,-1336,-23,85,-11
7220,-1640,360,-1320,-22,85,-10
7225,-1632,376,-1344,-21,84,-12
7230,-1640,360,-1352,-21,83,-11
7235,-1640,368,-1328,-23,85,-11
7240,-1696,384,-1384,-23,86,-11
7245,-1608,376,-1376,-24,86,-12
7250,-1624,336,-1304,-25,85,-13
7255,-1624,384,-1328,-27,85,-15
7260,-1632,368,-1320,-29,83,-16
7265,-1640,392,-1360,-29,82,-19
7270,-1640,448,-1304,-27,81,-17
7275,-1624,376,-1344,-24,82,-19
7280,-1640,376,-1312,-24,82,-17
7285,-1632,360,-1336,-24,83,-19
7290,-1640,368,-1336,-24,81,-19
7295,-1624,368,-1312,-23,79,-21
7300,-1632,360,-1344,-21,76,-21
7305,-1648,368,-1320,-21,74,-23
7310,-1616,352,-1336,-19,71,-20
7315,-1632,368,-1296,-20,68,-22
7320,-1632,360,-1344,-22,64,-22
7325,-1640,368,-1312,-23,62,-24
7330,-1640,376,-1296,-21,61,-21
7335,-1624,408,-1376,-21,64,-20
7340,-1632,352,-1296,-23,65,-17
7345,-1640,376,-1304,-23,67,-18
7350,-1648,360,-1312,-21,67,-12
7355,-1632,344,-1304,-21,68,-12
7360,-1560,360,-1384,-21,69,-9
7365,-1648,368,-1328,-20,69,-9
7370,-1640,360,-1320,-17,67,-5
7375,-1632,360,-1304,-16,70,-8
7380,-1632,360,-1328,-15,71,-4
7385,-1624,336,-1304,-18,72,-5
7390,-1632,360,-1304,-16,74,-3
7395,-1616,360,-1296,-15,76,-4
7400,-1616,352,-1304,-14,74,1
7405,-1640,368,-1304,-15,72,0
7410,-1640,384,-1336,-13,72,3
7415,-1640,376,-1328,-12,74,-1
7420,-1632,352,-1352,-12,75,0
7425,-1640,368,-1304,-15,74,-3
7430,-1648,408,-1344,-17,72,1
7435,-1640,368,-1336,-15,73,-1
7440,-1624,384,-1336,-15,74,1
7445,-1632,352,-1336,-14,73,-2
7450,-1632,368,-1328,-13,71,1
7455,-1632,352,-1336,-15,71,0
7460,-1640,344,-1360,-15,68,4
7465,-1624,368,-1328,-16,63,2
7470,-1632,368,-1312,-16,60,6
7475,-1640,368,-1304,-18,55,7
7480,-1632,320,-1320,-20,55,9
7485,-1632,352,-1336,-21,55,6
7490,-1640,368,-1328,-22,55,12
7495,-1648,360,-1352,-22,57,10
7500,-1632,368,-1312,-24,59,14
7505,-1656,360,-1320,-26,61,13
7510,-1632,392,-1336,-24,60,17
7515,-1616,352,-1312,-24,61,17
7520,-1640,384,-1336,-23,59,19
7525,-1704,392,-1280,-19,56,17
7530,-1640,392,-1304,-14,54,21
7535,-1632,368,-1336,-12,52,18
7540,-1648,376,-1304,-9,52,21
7545,-1632,360,-1328,-6,54,21
7550,-1632,392,-1360,-5,55,22
7555,-1632,384,-1344,-5,54,19
7560,-1624,360,-1328,-5,57,20
7565,-1632,360,-1336,-3,57,16
7570,-1640,392,-1336,-2,58,18
7575,-1632,368,-1336,-3,57,17
7580,-1664,368,-1264,-2,58,17
7585,-1632,360,-1352,-2,57,14
7590,-1584,368,-1104,-2,59,17
7595,-1648,376,-1304,-1,57,14
7600,-1632,376,-1336,-2,56,18
7605,-1632,376,-1320,-1,56,16
7610,-1632,384,-1320,-2,54,18
7615,-1632,376,-1296,-1,53,16
7620,-1632,352,-1328,1,54,18
7625,-1624,368,-1312,2,55,16
7630,-1640,368,-1336,-1,57,18
7635,-1640,392,-1328,3,59,14
7640,-1640,392,-1288,1,61,16
7645,-1632,368,-1344,2,65,13
7650,-1624,376,-1312,3,66,13
7655,-1640,392,-1344,3,67,12
7660,-1640,368,-1360,2,67,12
7665,-1624,376,-1344,1,70,11
7670,-1624,352,-1320,1,70,13
7675,-1632,368,-1312,1,70,12
7680,-1632,400,-1328,-1,69,15
7685,-1640,384,-1344,0,69,14
7690,-1640,392,-1344,0,68,16
7695,-1640,376,-1336,1,67,14
7700,-1640,376,-1336,1,65,17
7705,-1640,368,-1344,0,66,15
7710,-1640,376,-1320,0,65,17
7715,-1624,360,-1312,-1,66,15
7720,-1640,376,-1328,-3,64,17
7725,-1648,376,-1312,-4,67,16
7730,-1624,408,-1328,-7,67,21
7735,-1624,360,-1328,-8,67,20
7740,-1648,392,-1312,-5,68,22
7745,-1656,384,-1336,-4,67,19
7750,-1640,392,-1360,-2,68,22
7755,-1648,400,-1328,1,70,19
7760,-1640,368,-1344,1,73,19
7765,-1632,376,-1304,-2,73,17
7770,-1632,368,-1344,-4,73,18
7775,-1608,352,-1352,-6,74,16
7780,-1616,376,-1352,-9,74,16
7785,-1624,376,-1328,-8,74,16
7790,-1624,368,-1320,-9,75,18
7795,-1624,368,-1360,-8,76,16
7800,-1600,312,-1272,-8,77,17
7805,-1624,360,-1328,-8,78,16
7810,-1624,376,-1336,-7,77,16
7815,-1616,376,-1344,-7,79,15
7820,-1640,368,-1344,-9,78,16
7825,-1632,376,-1320,-8,77,16
7830,-1624,400,-1376,-8,74,17
7835,-1632,400,-1336,-8,74,16
7840,-1640,392,-1368,-9,73,17
7845,-1632,408,-1352,-7,72,16
7850,-1624,368,-1344,-9,72,17
7855,-1624,408,-1336,-9,70,17
7860,-1640,376,-1352,-8,72,18
7865,-1624,360,-1336,-7,71,17
7870,-1640,368,-1344,-8,72,16
7875,-1640,408,-1304,-8,72,14
7880,-1624,392,-1336,-8,72,14
7885,-1616,392,-1360,-7,70,14
7890,-1632,392,-1376,-8,68,12
7895,-1632,392,-1368,-9,68,10
7900,-1624,384,-1336,-10,64,10
7905,-1608,384,-1344,-11,63,8
7910,-1632,368,-1320,-10,62,7
7915,-1640,392,-1328,-11,62,6
7920,-1632,384,-1320,-12,63,7
7925,-1640,384,-1320,-11,62,6
7930,-1624,384,-1336,-9,63,6
7935,-1632,384,-1360,-10,64,7
7940,-1624,376,-1360,-9,65,5
7945,-1632,376,-1336,-10,65,4
7950,-1608,400,-1344,-9,65,5
7955,-1616,392,-1336,-8,68,4
7960,-1608,376,-1320,-8,69,4
7965,-1632,384,-1344,-8,69,2
7970,-1632,392,-1328,-8,70,1
7975,-1616,376,-1336,-9,70,1
7980,-1616,384,-1336,-8,68,2
7985,-1616,392,-1320,-8,66,3
7990,-1632,384,-1336,-8,64,1
7995,-1632,376,-1352,-7,60,0
8000,-1632,376,-1352,-9,58,0
8005,-1624,392,-1352,-10,58,-1
8010,-1616,400,-1368,-10,56,-2
8015,-1632,368,-1352,-13,53,-1
8020,-1624,392,-1344,-14,50,-3
8025,-1632,384,-1368,-14,46,-1
8030,-1640,368,-1360,-13,42,-1
8035,-1648,376,-1328,-12,39,0
8040,-1624,376,-1344,-8,36,0
8045,-1648,384,-1360,-8,34,-1
8050,-1632,360,-1352,-9,38,-3
8055,-1640,376,-1320,-8,42,-3
8060,-1616,384,-1344,-8,45,-5
8065,-1640,376,-1304,-7,49,-3
8070,-1632,360,-1344,-9,55,-6
8075,-1624,368,-1336,-9,58,-4
8080,-1624,368,-1328,-11,61,-5
8085,-1624,368,-1336,-13,61,-4
8090,-1624,376,-1352,-13,58,-3
8095,-1648,400,-1344,-11,56,-2
8100,-1616,368,-1336,-12,51,-2
8105,-1640,368,-1336,-11,48,-2
8110,-1624,384,-1328,-15,46,-4
8115,-1616,368,-1320,-15,45,-1
8120,-1616,376,-1304,-18,47,-1
8125,-1640,392,-1336,-18,51,2
8130,-1632,376,-1312,-18,53,0
8135,-1640,392,-1344,-18,57,2
8140,-1616,384,-1328,-17,61,0
8145,-1624,392,-1304,-16,65,0
8150,-1608,376,-1352,-17,63,-2
8155,-1632,368,-1352,-16,63,-1
8160,-1632,376,-1344,-13,62,-3
8165,-1632,392,-1320,-14,61,-2
8170,-1624,384,-1352,-15,61,-2
8175,-1616,376,-1328,-16,59,0
8180,-1632,376,-1328,-16,58,-2
8185,-1632,384,-1320,-16,57,1
8190,-1624,360,-1328,-15,60,0
8195,-1624,392,-1312,-16,61,4
8200,-1632,376,-1344,-16,64,-1
8205,-1624,384,-1352,-16,65,1
8210,-1624,360,-1328,-16,64,-2
8215,-1632,384,-1344,-14,64,1
8220,-1616,368,-1296,-14,63,-1
8225,-1624,376,-1336,-13,63,1
8230,-1632,384,-1312,-13,61,-1
8235,-1600,376,-1336,-12,60,1
8240,-1616,376,-1352,-12,60,-2
8245,-1624,392,-1328,-13,60,1
8250,-1632,384,-1344,-13,60,0
8255,-1624,376,-1336,-12,58,0
8260,-1624,376,-1352,-12,56,-3
8265,-1632,392,-1344,-13,55,-1
8270,-1632,384,-1376,-14,54,-2
8275,-1632,400,-1328,-14,51,0
8280,-1632,368,-1344,-15,50,-3
8285,-1640,384,-1336,-15,48,-2
8290,-1632,408,-1328,-14,46,-4
8295,-1616,376,-1352,-14,45,-2
8300,-1608,376,-1336,-15,45,-5
8305,-1632,376,-1336,-16,41,-3
8310,-1640,392,-1344,-16,40,-5
8315,-1632,368,-1336,-15,38,-4
8320,-1616,360,-1328,-14,38,-6
8325,-1608,392,-1288,-14,37,-6
8330,-1632,376,-1320,-12,41,-10
8335,-1632,352,-1328,-13,43,-6
8340,-1656,392,-1304,-13,50,-9
8345,-1608,384,-1304,-13,51,-6
8350,-1632,384,-1344,-15,54,-7
8355,-1640,376,-1352,-14,54,-5
8360,-1624,384,-1328,-15,50,-9
8365,-1632,392,-1336,-14,48,-7
8370,-1616,376,-1344,-12,49,-11
8375,-1632,368,-1328,-13,46,-8
8380,-1632,392,-1360,-13,45,-9
8385,-1624,368,-1352,-14,43,-6
8390,-1640,368,-1352,-14,45,-8
8395,-1640,392,-1312,-14,44,-6
8400,-1632,400,-1360,-16,45,-8
8405,-1632,384,-1320,-14,49,-5
8410,-1624,376,-1344,-15,53,-9
8415,-1624,376,-1336,-15,55,-7
8420,-1624,392,-1304,-14,59,-8
8425,-1640,400,-1320,-16,61,-6
8430,-1632,408,-1352,-16,61,-9
8435,-1640,368,-1328,-15,61,-6
8440,-1632,384,-1344,-16,57,-8
8445,-1640,368,-1304,-16,56,-6
8450,-1640,384,-1304,-16,55,-6
8455,-1624,368,-1336,-16,53,-2
8460,-1648,376,-1328,-17,54,-4
8465,-1632,392,-1352,-16,54,-1
8470,-1624,376,-1304,-17,55,-4
8475,-1640,368,-1352,-17,54,-1
8480,-1632,384,-1360,-15,54,-3
8485,-1632,352,-1328,-16,56,0
8490,-1632,368,-1352,-17,57,-2
8495,-1640,400,-1328,-14,58,-1
8500,-1640,384,-1376,-13,58,-3
8505,-1640,376,-1336,-14,60,-2
8510,-1648,384,-1344,-14,59,-4
8515,-1640,400,-1344,-15,60,-2
8520,-1632,368,-1304,-16,60,-4
8525,-1632,384,-1336,-16,60,-3
8530,-1632,376,-1336,-14,60,-6
8535,-1632,368,-1336,-14,59,-3
8540,-1632,376,-1296,-15,59,-6
8545,-1624,384,-1328,-16,60,-3
8550,-1632,376,-1336,-15,60,-5
8555,-1632,400,-1328,-15,60,-4
8560,-1624,392,-1320,-15,60,-5
8565,-1624,376,-1312,-16,59,-3
8570,-1632,392,-1328,-13,59,-5
8575,-1632,368,-1328,-14,57,-3
8580,-1624,392,-1320,-15,56,-5
8585,-1640,400,-1352,-13,56,-4
8590,-1640,376,-1344,-14,56,-7
8595,-1656,384,-1320,-14,60,-7
8600,-1640,384,-1328,-14,61,-9
8605,-1632,368,-1352,-14,62,-7
8610,-1608,368,-1304,-15,64,-9
8615,-1616,368,-1344,-16,65,-7
8620,-1624,384,-1328,-13,65,-7
8625,-1640,392,-1328,-12,61,-5
8630,-1632,392,-1312,-13,58,-7
8635,-1632,360,-1344,-13,56,-6
8640,-1616,384,-1352,-12,54,-7
8645,-1640,368,-1352,-15,52,-5
8650,-1616,376,-1368,-16,49,-5
8655,-1624,392,-1352,-16,48,-4
8660,-1624,384,-1320,-19,47,-6
8665,-1600,368,-1344,-17,45,-4
8670,-1648,392,-1352,-15,43,-6
8675,-1632,408,-1328,-13,42,-6
8680,-1624,376,-1344,-11,42,-8
8685,-1616,376,-1336,-12,45,-11
8690,-1640,400,-1304,-12,48,-13
8695,-1632,392,-1312,-14,51,-12
8700,-1616,368,-1312,-11,53,-12
8705,-1624,384,-1344,-10,57,-12
8710,-1640,392,-1368,-8,59,-13
8715,-1632,384,-1344,-8,59,-11
8720,-1632,368,-1360,-9,57,-12
8725,-1656,376,-1328,-9,52,-10
8730,-1640,384,-1344,-12,47,-10
8735,-1632,376,-1352,-12,42,-7
8740,-1624,360,-1360,-13,39,-6
8745,-1624,360,-1312,-16,37,-6
8750,-1632,360,-1296,-17,35,-6
8755,-1624,384,-1296,-18,35,-5
8760,-1632,344,-1312,-17,37,-3
8765,-1632,384,-1320,-20,43,-3
8770,-1632,376,-1296,-19,46,-2
8775,-1632,400,-1360,-19,51,0
8780,-1640,392,-1336,-19,52,-1
8785,-1632,376,-1312,-17,51,-2
8790,-1632,384,-1344,-16,49,-2
8795,-1632,368,-1352,-16,46,-2
8800,-1624,400,-1328,-15,45,-2
8805,-1632,352,-1336,-14,43,-1
8810,-1640,368,-1304,-15,41,-2
8815,-1640,376,-1312,-13,41,-1
8820,-1640,384,-1328,-15,44,0
8825,-1592,360,-1304,-14,46,0
8830,-1640,392,-1320,-14,49,0
8835,-1624,384,-1336,-15,49,-1
8840,-1648,368,-1328,-15,49,0
8845,-1640,384,-1304,-13,49,-1
8850,-1640,392,-1336,-13,50,-1
8855,-1640,408,-1312,-13,53,-1
8860,-1632,352,-1320,-13,55,-2
8865,-1632,368,-1336,-13,57,-2
8870,-1640,392,-1360,-14,59,-2
8875,-1632,384,-1352,-10,59,-3
8880,-1632,360,-1312,-11,60,-2
8885,-1632,384,-1328,-12,60,-4
8890,-1632,376,-1320,-11,60,-4
8895,-1616,376,-1280,-11,61,-6
8900,-1632,384,-1320,-11,62,-5
8905,-1632,360,-1344,-10,64,-6
8910,-1624,360,-1336,-10,64,-6
8915,-1632,376,-1336,-10,65,-7
8920,-1632,360,-1328,-10,64,-5
8925,-1624,368,-1328,-10,66,-8
8930,-1632,376,-1352,-10,66,-7
8935,-1632,384,-1360,-12,65,-9
8940,-1632,376,-1336,-12,67,-7
8945,-1648,384,-1328,-13,67,-8
8950,-1624,384,-1344,-11,67,-6
8955,-1624,392,-1344,-11,68,-7
8960,-1624,376,-1328,-13,67,-7
8965,-1632,384,-1320,-13,66,-7
8970,-1632,384,-1336,-12,64,-7
8975,-1624,360,-1312,-14,64,-8
8980,-1632,368,-1360,-14,63,-6
8985,-1624,376,-1336,-13,61,-6
8990,-1632,376,-1312,-14,59,-4
8995,-1632,384,-1320,-15,56,-4
9000,-1632,376,-1336,-16,54,-2
9005,-1640,376,-1320,-17,53,-5
9010,-1632,392,-1296,-15,52,-5
9015,-1632,384,-1352,-13,51,-7
9020,-1624,360,-1328,-12,51,-5
9025,-1640,384,-1328,-11,51,-6
9030,-1616,360,-1360,-10,50,-5
9035,-1632,376,-1328,-11,51,-6
9040,-1632,384,-1320,-14,51,-6
9045,-1640,384,-1320,-16,52,-6
9050,-1640,368,-1320,-18,53,-4
9055,-1640,384,-1360,-18,54,-6
9060,-1640,368,-1304,-18,55,-5
9065,-1648,392,-1336,-17,54,-6
9070,-1624,368,-1328,-17,57,-4
9075,-1640,376,-1312,-16,59,-6
9080,-1632,400,-1320,-15,57,-4
9085,-1632,392,-1336,-16,58,-5
9090,-1632,368,-1328,-17,58,-4
9095,-1632,384,-1312,-16,59,-5
9100,-1632,368,-1312,-16,59,-4
9105,-1632,368,-1352,-15,59,-5
9110,-1664,384,-1296,-15,60,-1
9115,-1632,376,-1344,-17,59,-4
9120,-1632,368,-1336,-16,60,-1
9125,-1632,368,-1336,-17,60,-2
9130,-1632,368,-1328,-17,62,0
9135,-1640,368,-1320,-17,62,-3
9140,-1632,384,-1288,-17,61,-1
9145,-1640,392,-1328,-16,63,-3
9150,-1640,368,-1328,-15,63,-1
9155,-1624,384,-1352,-16,62,-3
9160,-1624,384,-1336,-17,61,-1
9165,-1632,368,-1336,-15,62,-2
9170,-1640,384,-1344,-16,62,1
9175,-1624,368,-1320,-16,62,-1
9180,-1648,376,-1320,-17,62,1
9185,-1616,352,-1352,-15,62,-1
9190,-1632,384,-1336,-16,60,1
9195,-1672,392,-1328,-15,60,-2
9200,-1640,376,-1328,-15,62,1
9205,-1640,376,-1328,-14,64,-2
9210,-1632,368,-1328,-14,65,0
9215,-1640,392,-1328,-14,65,-2
9220,-1632,384,-1328,-11,62,1
9225,-1640,376,-1336,-12,60,-1
9230,-1632,384,-1344,-11,60,0
9235,-1632,384,-1336,-10,59,-3
9240,-1632,384,-1280,-13,60,-1
9245,-1632,376,-1312,-13,59,-4
9250,-1624,360,-1336,-12,59,-2
9255,-1624,384,-1328,-12,61,-5
9260,-1632,376,-1312,-13,61,-3
9265,-1640,400,-1312,-13,62,-4
9270,-1640,376,-1304,-12,61,-2
9275,-1632,376,-1304,-10,61,-3
9280,-1632,392,-1328,-11,59,-1
9285,-1632,368,-1328,-11,58,-3
9290,-1640,376,-1296,-12,58,0
9295,-1632,360,-1288,-15,59,-3
9300,-1632,368,-1312,-14,59,0
9305,-1640,376,-1320,-17,61,-3
9310,-1624,376,-1296,-16,63,0
9315,-1632,368,-1352,-16,62,-1
9320,-1648,384,-1352,-12,60,0
9325,-1640,392,-1312,-12,57,-2
9330,-1648,384,-1328,-11,56,0
9335,-1640,376,-1320,-10,58,-5
9340,-1640,376,-1352,-12,60,-2
9345,-1640,368,-1336,-14,60,-2
9350,-1640,392,-1312,-13,61,0
9355,-1640,368,-1320,-11,61,-5
9360,-1632,376,-1320,-9,62,-3
9365,-1648,376,-1328,-8,64,-6
9370,-1640,376,-1336,-8,63,-5
9375,-1640,376,-1336,-9,64,-6
9380,-1632,376,-1320,-8,62,-4
9385,-1632,368,-1328,-9,62,-6
9390,-1640,384,-1336,-11,58,-3
9395,-1632,384,-1304,-11,57,-6
9400,-1632,384,-1328,-11,58,-4
9405,-1632,360,-1336,-11,59,-5
9410,-1640,392,-1296,-12,63,-1
9415,-1640,400,-1312,-13,66,-3
9420,-1624,368,-1328,-13,69,-2
9425,-1640,376,-1336,-15,72,-5
9430,-1640,384,-1304,-14,72,-4
9435,-1632,376,-1336,-15,71,-7
9440,-1616,344,-1320,-14,69,-5
9445,-1640,384,-1320,-13,66,-7
9450,-1640,384,-1360,-13,64,-5
9455,-1624,360,-1336,-11,62,-5
9460,-1632,392,-1320,-12,62,-2
9465,-1640,376,-1360,-15,62,-3
9470,-1624,360,-1344,-14,62,-2
9475,-1648,400,-1328,-13,63,-5
9480,-1624,376,-1304,-12,62,-5
9485,-1616,368,-1328,-14,63,-6
9490,-1640,368,-1328,-16,63,-5
9495,-1632,384,-1328,-14,63,-7
9500,-1632,368,-1344,-14,63,-6
9505,-1632,376,-1336,-16,62,-8
9510,-1632,376,-1304,-17,60,-7
9515,-1640,392,-1312,-15,59,-8
9520,-1632,384,-1312,-14,57,-7
9525,-1624,352,-1312,-13,57,-9
9530,-1632,368,-1328,-11,55,-6
9535,-1624,368,-1336,-12,54,-8
9540,-1632,384,-1320,-14,54,-9
9545,-1632,368,-1344,-13,50,-9
9550,-1632,384,-1312,-12,49,-7
9555,-1632,368,-1336,-11,45,-7
9560,-1624,352,-1368,-11,42,-4
9565,-1632,368,-1320,-13,41,-4
9570,-1632,376,-1280,-15,38,-1
9575,-1632,376,-1320,-14,36,-1
9580,-1632,360,-1304,-15,36,1
9585,-1632,400,-1296,-16,36,0
9590,-1640,368,-1312,-13,35,0
9595,-1632,376,-1320,-13,35,-1
9600,-1640,400,-1320,-14,35,0
9605,-1640,408,-1336,-12,37,1
9610,-1624,360,-1336,-15,38,2
9615,-1640,392,-1336,-15,40,-1
9620,-1632,392,-1296,-17,38,-1
9625,-1648,368,-1296,-16,38,-5
9630,-1640,376,-1312,-16,38,-3
9635,-1632,376,-1328,-16,43,-3
9640,-1632,368,-1344,-16,43,0
9645,-1648,392,-1304,-17,47,1
9650,-1632,384,-1312,-19,47,2
9655,-1640,376,-1336,-20,43,0
9660,-1648,376,-1336,-17,43,2
9665,-1648,392,-1312,-14,43,0
9670,-1632,384,-1328,-12,42,0
9675,-1640,368,-1344,-12,43,-3
9680,-1632,384,-1304,-14,44,-2
9685,-1632,376,-1312,-13,46,-1
9690,-1648,384,-1312,-15,46,0
9695,-1632,376,-1312,-14,49,0
9700,-1640,360,-1304,-17,51,2
9705,-1632,392,-1344,-14,52,0
9710,-1640,384,-1304,-14,55,0
9715,-1640,368,-1328,-14,57,-1
9720,-1648,384,-1328,-15,57,1
9725,-1640,352,-1344,-15,58,1
9730,-1648,368,-1352,-16,57,1
9735,-1640,360,-1328,-17,57,3
9740,-1632,384,-1328,-17,57,2
9745,-1640,352,-1304,-17,58,3
9750,-1632,360,-1312,-16,58,3
9755,-1632,352,-1328,-17,60,3
9760,-1648,392,-1320,-16,61,4
9765,-1632,384,-1328,-15,62,5
9770,-1632,376,-1304,-15,62,5
9775,-1632,408,-1320,-16,63,6
9780,-1632,376,-1328,-16,61,6
9785,-1624,376,-1336,-16,61,7
9790,-1640,376,-1320,-16,60,5
9795,-1640,384,-1320,-17,60,7
9800,-1632,368,-1376,-16,60,6
9805,-1648,400,-1312,-14,60,8
9810,-1632,376,-1352,-15,60,7
9815,-1632,376,-1304,-14,60,8
9820,-1640,392,-1328,-15,61,7
9825,-1640,376,-1304,-15,61,8
9830,-1640,360,-1304,-13,59,7
9835,-1624,352,-1312,-15,60,9
9840,-1624,368,-1312,-14,59,9
9845,-1648,400,-1320,-16,59,10
9850,-1640,352,-1320,-16,58,10
9855,-1640,408,-1312,-16,57,11
9860,-1624,360,-1312,-15,59,11
9865,-1632,384,-1336,-14,57,10
9870,-1648,360,-1336,-14,57,8
9875,-1624,368,-1320,-13,57,11
9880,-1648,400,-1336,-12,58,9
9885,-1632,408,-1320,-12,58,9
9890,-1640,384,-1336,-11,54,8
9895,-1632,376,-1336,-11,54,8
9900,-1648,384,-1352,-12,55,7
9905,-1648,368,-1320,-11,56,7
9910,-1640,384,-1320,-10,57,6
9915,-1640,384,-1336,-11,59,7
9920,-1640,368,-1304,-12,60,4
9925,-1640,384,-1312,-12,63,7
9930,-1640,376,-1304,-10,63,7
9935,-1648,400,-1344,-8,63,8
9940,-1632,368,-1328,-8,60,6
9945,-1648,408,-1352,-9,57,9
9950,-1632,400,-1344,-9,54,5
9955,-1632,376,-1344,-11,51,7
9960,-1640,384,-1328,-10,50,6
9965,-1640,392,-1320,-10,49,7
9970,-1640,392,-1336,-11,51,7
9975,-1632,384,-1344,-11,51,8
9980,-1632,384,-1320,-11,49,7
9985,-1624,392,-1336,-12,47,10
9990,-1648,376,-1320,-10,45,7
9995,-1640,376,-1312,-9,43,8
10000,-1632,392,-1360,-8,41,6
10005,-1640,376,-1320,-9,41,7
10010,-1632,376,-1312,-13,41,3
10015,-1632,392,-1328,-13,40,3
10020,-1648,408,-1368,-13,39,3
10025,-1640,416,-1304,-14,40,5
10030,-1632,360,-1336,-14,40,0
10035,-1624,376,-1328,-15,40,2
10040,-1648,384,-1344,-15,40,0
10045,-1656,392,-1312,-14,39,2
10050,-1640,384,-1336,-13,39,0
10055,-1632,408,-1336,-13,37,2
10060,-1632,360,-1312,-11,35,0
10065,-1640,392,-1312,-14,34,1
10070,-1640,360,-1288,-13,34,0
10075,-1640,376,-1320,-15,38,2
10080,-1640,376,-1280,-17,42,2
10085,-1632,376,-1288,-16,47,5
10090,-1632,384,-1312,-16,52,3
10095,-1640,376,-1312,-17,54,5
10100,-1648,368,-1320,-16,54,1
10105,-1632,384,-1320,-14,54,2
10110,-1640,368,-1320,-13,52,0
10115,-1640,384,-1312,-14,51,3
10120,-1640,376,-1296,-13,49,1
10125,-1648,384,-1344,-13,48,3
10130,-1648,384,-1312,-13,48,3
10135,-1640,368,-1336,-13,51,6
10140,-1640,384,-1304,-14,54,3
10145,-1632,400,-1320,-14,54,5
10150,-1632,400,-1320,-13,59,3
10155,-1632,376,-1336,-14,60,6
10160,-1640,376,-1336,-13,63,2
10165,-1624,384,-1312,-12,63,4
10170,-1640,416,-1288,-12,63,2
10175,-1640,408,-1360,-12,63,4
10180,-1624,368,-1320,-11,63,3
10185,-1640,376,-1312,-11,62,5
10190,-1640,368,-1360,-11,61,3
10195,-1640,384,-1328,-10,59,5
10200,-1640,384,-1320,-9,59,2
10205,-1640,384,-1320,-9,58,5
10210,-1632,360,-1304,-10,59,3
10215,-1632,368,-1328,-10,60,4
10220,-1640,384,-1312,-10,62,4
10225,-1632,376,-1312,-10,62,4
10230,-1640,376,-1328,-10,64,1
10235,-1640,360,-1336,-11,64,5
10240,-1632,368,-1320,-11,64,3
10245,-1648,384,-1344,-10,64,4
10250,-1632,384,-1280,-11,63,2
10255,-1640,400,-1360,-9,62,3
10260,-1656,384,-1320,-10,61,0
10265,-1624,376,-1304,-10,61,3
10270,-1648,376,-1328,-11,61,0
10275,-1640,384,-1312,-11,61,1
10280,-1656,368,-1320,-12,58,1
10285,-1648,376,-1296,-11,58,5
10290,-1648,384,-1336,-13,59,2
10295,-1632,376,-1320,-12,59,3
10300,-1640,376,-1328,-12,59,0
10305,-1648,392,-1320,-12,59,4
10310,-1640,408,-1336,-15,58,2
10315,-1648,376,-1328,-18,55,6
10320,-1648,376,-1296,-17,52,4
10325,-1632,368,-1320,-15,50,6
10330,-1632,368,-1312,-13,50,3
10335,-1632,400,-1312,-12,47,6
10340,-1640,384,-1360,-11,48,4
10345,-1648,392,-1336,-9,49,5
10350,-1640,368,-1344,-11,51,3
10355,-1640,392,-1280,-12,51,7
10360,-1624,376,-1304,-13,52,5
10365,-1640,384,-1312,-15,52,7
10370,-1632,408,-1312,-15,56,4
10375,-1640,408,-1320,-13,57,7
10380,-1624,392,-1320,-13,58,3
10385,-1624,392,-1344,-12,57,6
10390,-1640,392,-1312,-11,59,4
10395,-1648,392,-1352,-9,58,5
10400,-1640,392,-1304,-11,57,3
10405,-1640,400,-1320,-13,57,6
10410,-1648,400,-1304,-12,58,4
10415,-1640,384,-1312,-13,59,6
10420,-1640,384,-1328,-13,58,5
10425,-1640,408,-1312,-12,57,6
10430,-1648,400,-1320,-13,56,5
10435,-1640,368,-1328,-12,54,6
10440,-1640,400,-1352,-13,55,8
10445,-1648,368,-1304,-13,55,9
10450,-1664,376,-1320,-12,56,6
10455,-1640,384,-1320,-13,57,8
10460,-1648,392,-1320,-11,58,6
10465,-1632,408,-1336,-12,59,7
10470,-1640,384,-1328,-12,62,5
10475,-1632,376,-1304,-11,62,7
10480,-1632,376,-1304,-11,63,5
10485,-1560,368,-1248,-10,62,6
10490,-1640,392,-1280,-10,64,5
10495,-1640,384,-1312,-11,64,5
10500,-1632,376,-1280,-11,63,4
10505,-1648,392,-1320,-10,64,7
10510,-1624,368,-1328,-11,61,6
10515,-1640,376,-1328,-11,62,7
10520,-1632,400,-1360,-12,61,7
10525,-1640,360,-1304,-12,61,8
10530,-1640,384,-1336,-13,61,6
10535,-1616,392,-1296,-13,61,6
10540,-1640,392,-1312,-11,61,6
10545,-1648,392,-1336,-11,62,7
10550,-1608,376,-1320,-10,61,5
10555,-1640,376,-1312,-10,60,6
10560,-1648,416,-1336,-10,60,5
10565,-1640,384,-1312,-12,59,6
10570,-1632,392,-1320,-10,58,5
10575,-1632,400,-1336,-11,59,6
10580,-1648,392,-1312,-12,58,4
10585,-1656,392,-1280,-13,59,3
10590,-1648,392,-1328,-12,62,3
10595,-1632,392,-1304,-13,64,4
10600,-1632,400,-1328,-13,63,2
10605,-1656,416,-1328,-12,64,4
10610,-1648,376,-1344,-11,63,3
10615,-1648,392,-1328,-10,60,3
10620,-1640,400,-1296,-10,58,1
10625,-1640,384,-1304,-8,58,2
10630,-1640,384,-1336,-8,58,4
10635,-1632,368,-1304,-9,57,4
10640,-1632,384,-1320,-11,59,2
10645,-1640,376,-1312,-10,59,2
10650,-1632,384,-1328,-10,60,2
10655,-1632,376,-1328,-13,60,2
10660,-1632,400,-1304,-13,57,2
10665,-1632,400,-1280,-13,56,2
10670,-1632,400,-1336,-8,53,3
10675,-1656,416,-1328,-6,51,2
10680,-1648,384,-1328,-6,50,-1
10685,-1640,392,-1336,-6,54,-3
10690,-1648,392,-1320,-8,55,-4
10695,-1648,384,-1320,-8,57,-5
10700,-1640,400,-1320,-7,62,-5
10705,-1648,400,-1328,-6,67,-7
10710,-1632,368,-1360,-7,68,-7
10715,-1640,368,-1336,-9,68,-8
10720,-1648,408,-1344,-8,67,-6
10725,-1640,408,-1320,-8,66,-7
10730,-1656,376,-1360,-8,63,-6
10735,-1632,408,-1320,-8,60,-6
10740,-1632,376,-1312,-7,59,-7
10745,-1624,368,-1304,-8,58,-7
10750,-1640,392,-1320,-10,60,-4
10755,-1632,376,-1328,-13,62,-4
10760,-1640,400,-1320,-13,63,-1
10765,-1632,376,-1288,-13,67,-3
10770,-1640,400,-1320,-13,71,-2
10775,-1648,392,-1312,-13,73,-3
10780,-1648,392,-1320,-11,73,-5
10785,-1640,400,-1280,-12,74,-5
10790,-1624,400,-1320,-10,70,-4
10795,-1640,400,-1328,-11,66,-5
10800,-1640,408,-1312,-11,65,-3
10805,-1640,384,-1320,-11,64,-4
10810,-1640,392,-1328,-12,64,-3
10815,-1640,400,-1328,-13,65,-4
10820,-1648,368,-1328,-13,66,-3
10825,-1632,376,-1328,-15,67,-2
10830,-1624,400,-1312,-14,65,-1
10835,-1632,376,-1328,-14,66,-3
10840,-1640,392,-1304,-14,66,-1
10845,-1624,384,-1328,-14,67,-3
10850,-1640,376,-1352,-13,66,-1
10855,-1616,384,-1304,-15,66,-4
10860,-1640,384,-1352,-14,65,-2
10865,-1656,400,-1328,-14,64,-4
10870,-1632,392,-1312,-16,64,-4
10875,-1624,384,-1312,-14,63,-6
10880,-1632,376,-1320,-13,66,-4
10885,-1640,360,-1320,-12,67,-7
10890,-1640,368,-1304,-12,64,-6
10895,-1648,384,-1304,-12,64,-9
10900,-1640,368,-1320,-12,63,-7
10905,-1632,376,-1336,-11,63,-9
10910,-1648,392,-1312,-12,63,-9
10915,-1640,392,-1336,-11,63,-10
10920,-1632,384,-1296,-10,63,-9
10925,-1632,360,-1304,-11,62,-11
10930,-1624,376,-1352,-11,61,-10
10935,-1632,376,-1304,-10,61,-11
10940,-1640,360,-1336,-11,60,-10
10945,-1624,376,-1336,-10,59,-11
10950,-1656,392,-1360,-10,60,-9
10955,-1648,400,-1328,-12,59,-11
10960,-1640,376,-1328,-13,59,-9
10965,-1616,360,-1304,-12,57,-12
10970,-1640,392,-1304,-13,58,-8
10975,-1640,392,-1328,-12,58,-9
10980,-1640,400,-1304,-14,58,-7
10985,-1632,392,-1320,-15,58,-7
10990,-1632,376,-1304,-16,56,-5
10995,-1632,368,-1328,-16,52,-7
11000,-1632,408,-1328,-15,52,-5
11005,-1616,384,-1336,-13,52,-8
11010,-1632,392,-1312,-12,53,-6
11015,-1640,384,-1328,-11,51,-8
11020,-1632,392,-1328,-13,52,-4
11025,-1632,376,-1320,-12,53,-7
11030,-1648,384,-1328,-13,54,-6
11035,-1640,400,-1304,-14,57,-9
11040,-1640,392,-1344,-14,60,-7
11045,-1632,376,-1312,-15,61,-8
11050,-1640,400,-1312,-17,62,-4
11055,-1640,376,-1304,-16,64,-8
11060,-1640,392,-1312,-14,64,-7
11065,-1624,376,-1320,-14,64,-9
11070,-1648,392,-1328,-16,62,-6
11075,-1624,392,-1288,-15,62,-10
11080,-1632,376,-1328,-16,62,-8
11085,-1632,392,-1344,-15,60,-8
11090,-1648,400,-1328,-17,60,-7
11095,-1640,392,-1320,-14,62,-8
11100,-1640,368,-1320,-15,62,-4
11105,-1640,384,-1288,-15,64,-7
11110,-1632,376,-1336,-14,63,-4
11115,-1632,376,-1312,-14,63,-8
11120,-1640,408,-1352,-14,63,-4
11125,-1640,376,-1336,-15,63,-5
11130,-1632,384,-1320,-15,64,-4
11135,-1648,376,-1304,-16,63,-6
11140,-1624,400,-1304,-13,62,-5
11145,-1640,376,-1312,-14,62,-7
11150,-1648,376,-1328,-12,61,-5
11155,-1648,384,-1336,-14,61,-6
11160,-1640,392,-1352,-12,61,-4
11165,-1640,360,-1328,-13,63,-6
11170,-1632,376,-1328,-13,63,-4
11175,-1632,360,-1312,-13,63,-5
11180,-1632,392,-1296,-14,62,-3
11185,-1640,408,-1312,-14,63,-5
11190,-1640,384,-1344,-15,62,-3
11195,-1632,376,-1320,-15,62,-5
11200,-1656,384,-1304,-14,62,-5
11205,-1624,344,-1296,-14,61,-6
11210,-1632,376,-1296,-13,61,-3
11215,-1632,384,-1328,-13,62,-5
11220,-1624,368,-1368,-14,62,-1
11225,-1632,376,-1312,-15,62,-4
11230,-1640,376,-1312,-13,61,-2
11235,-1632,376,-1328,-12,61,-4
11240,-1640,384,-1336,-10,61,-4
11245,-1648,376,-1320,-8,60,-7
11250,-1640,408,-1352,-8,58,-6
11255,-1640,408,-1352,-8,58,-8
11260,-1632,376,-1296,-10,58,-7
11265,-1632,392,-1320,-9,56,-10
11270,-1656,408,-1312,-12,55,-7
11275,-1608,400,-1296,-11,54,-9
11280,-1632,368,-1312,-11,56,-8
11285,-1640,376,-1320,-11,58,-12
11290,-1632,368,-1320,-12,60,-9
11295,-1640,384,-1336,-14,61,-10
11300,-1624,392,-1328,-12,63,-8
11305,-1624,376,-1320,-12,64,-10
11310,-1640,384,-1328,-12,60,-6
11315,-1632,384,-1304,-12,59,-10
11320,-1640,392,-1320,-11,57,-8
11325,-1632,384,-1336,-12,53,-11
11330,-1640,368,-1328,-12,54,-8
11335,-1632,392,-1352,-13,55,-10
11340,-1632,376,-1336,-14,58,-7
11345,-1648,376,-1328,-15,60,-9
11350,-1632,376,-1328,-15,62,-6
11355,-1640,384,-1312,-15,60,-6
11360,-1632,376,-1320,-13,59,-4
11365,-1648,400,-1328,-12,59,-5
11370,-1640,392,-1352,-11,59,-5
11375,-1640,400,-1304,-11,61,-9
11380,-1624,384,-1320,-14,63,-8
11385,-1640,376,-1344,-15,62,-9
11390,-1632,376,-1344,-12,60,-7
11395,-1640,392,-1336,-11,63,-9
11400,-1656,368,-1328,-11,64,-7
11405,-1640,368,-1312,-12,64,-10
11410,-1632,360,-1320,-13,65,-8
11415,-1640,416,-1320,-14,63,-11
11420,-1632,368,-1304,-13,62,-10
11425,-1632,384,-1312,-12,60,-10
11430,-1640,376,-1304,-12,61,-7
11435,-1632,368,-1328,-13,62,-8
11440,-1632,368,-1312,-12,63,-6
11445,-1632,392,-1304,-13,65,-7
11450,-1640,368,-1280,-14,67,-6
11455,-1632,392,-1336,-14,70,-6
11460,-1616,368,-1328,-15,73,-6
11465,-1632,368,-1336,-16,74,-8
11470,-1640,376,-1328,-17,77,-7
11475,-1640,376,-1336,-17,74,-7
11480,-1632,384,-1312,-14,71,-5
11485,-1632,384,-1336,-16,70,-7
11490,-1632,392,-1312,-15,68,-6
11495,-1632,392,-1344,-13,67,-6
11500,-1640,384,-1344,-12,65,-6
11505,-1632,392,-1304,-11,65,-6
11510,-1648,392,-1344,-12,64,-5
11515,-1640,368,-1336,-13,65,-5
11520,-1632,392,-1320,-11,67,-4
11525,-1632,392,-1328,-13,66,-4
11530,-1632,384,-1336,-12,67,-3
11535,-1632,376,-1312,-16,67,-5
11540,-1632,384,-1352,-15,66,-6
11545,-1648,392,-1320,-14,64,-8
11550,-1632,376,-1280,-12,63,-7
11555,-1624,368,-1320,-13,63,-7
11560,-1632,400,-1328,-12,63,-9
11565,-1624,360,-1320,-12,64,-8
11570,-1640,376,-1336,-11,64,-7
11575,-1656,376,-1320,-10,64,-8
11580,-1632,384,-1352,-10,63,-7
11585,-1632,368,-1296,-13,63,-9
11590,-1640,384,-1304,-11,62,-10
11595,-1648,384,-1328,-11,61,-7
11600,-1632,384,-1296,-13,60,-7
11605,-1632,368,-1320,-14,59,-8
11610,-1616,368,-1328,-13,57,-8
11615,-1632,392,-1304,-13,55,-9
11620,-1648,376,-1312,-13,55,-8
11625,-1632,376,-1312,-13,56,-8
11630,-1632,392,-1328,-12,56,-8
11635,-1640,400,-1352,-13,58,-8
11640,-1640,360,-1352,-14,59,-8
11645,-1624,376,-1320,-16,58,-7
11650,-1640,392,-1320,-21,59,-9
11655,-1632,384,-1328,-19,57,-8
11660,-1656,368,-1304,-14,57,-8
11665,-1632,376,-1296,-13,57,-9
11670,-1632,384,-1336,-13,56,-10
11675,-1624,360,-1320,-14,56,-10
11680,-1632,376,-1336,-15,54,-10
11685,-1648,376,-1336,-17,53,-7
11690,-1632,376,-1344,-20,53,-7
11695,-1624,368,-1328,-20,52,-3
11700,-1640,368,-1296,-21,50,-3
11705,-1664,392,-1312,-14,50,-3
11710,-1640,400,-1320,-13,50,-4
11715,-1640,384,-1352,-12,50,-5
11720,-1632,368,-1328,-12,51,-6
11725,-1624,368,-1352,-13,51,-4
11730,-1632,384,-1344,-15,54,-4
11735,-1640,384,-1320,-16,53,-1
11740,-1624,376,-1312,-16,54,-1
11745,-1640,384,-1272,-16,59,-1
11750,-1640,376,-1320,-16,59,-2
11755,-1640,368,-1320,-16,61,-1
11760,-1640,344,-1328,-17,62,-4
11765,-1648,384,-1328,-17,64,-2
11770,-1640,376,-1320,-15,65,-3
11775,-1592,512,-1360,-14,66,0
11780,-1632,320,-1272,-14,67,-2
11785,-1536,336,-1248,-15,66,0
11790,-1632,392,-1296,-16,67,-2
11795,-1648,360,-1320,-16,68,0
11800,-1648,384,-1336,-15,68,-1
11805,-1648,392,-1312,-14,67,0
11810,-1624,376,-1328,-15,68,-2
11815,-1624,368,-1288,-14,68,-1
11820,-1632,384,-1336,-13,67,-2
11825,-1648,400,-1312,-13,64,0
11830,-1632,376,-1272,-15,66,-2
11835,-1640,400,-1336,-14,67,1
11840,-1624,352,-1312,-12,68,-2
11845,-1632,384,-1328,-13,70,0
11850,-1624,360,-1344,-12,70,-1
11855,-1640,376,-1336,-13,71,0
11860,-1632,384,-1304,-13,71,-2
11865,-1640,400,-1336,-11,72,0
11870,-1632,392,-1336,-10,73,-3
11875,-1648,392,-1328,-10,74,-3
11880,-1648,376,-1352,-10,72,-5
11885,-1632,376,-1344,-10,70,-5
11890,-1632,408,-1352,-8,70,-7
11895,-1632,376,-1328,-9,70,-4
11900,-1632,392,-1336,-10,70,-5
11905,-1624,392,-1336,-10,70,-4
11910,-1632,384,-1328,-9,71,-6
11915,-1640,408,-1336,-10,70,-4
11920,-1632,368,-1328,-12,68,-7
11925,-1616,368,-1336,-11,70,-4
11930,-1624,384,-1320,-13,70,-5
11935,-1640,392,-1344,-12,69,-2
11940,-1592,416,-1232,-13,69,-3
11945,-1632,376,-1336,-14,68,0
11950,-1640,384,-1352,-12,67,-2
11955,-1648,376,-1344,-12,66,-1
11960,-1632,376,-1320,-12,66,-5
11965,-1624,376,-1344,-12,66,-3
11970,-1640,376,-1344,-11,64,-3
11975,-1632,368,-1304,-11,62,-3
11980,-1632,360,-1344,-10,62,-5
11985,-1640,376,-1336,-9,61,-3
11990,-1632,392,-1344,-9,60,-5
11995,-1632,360,-1328,-9,60,-2
12000,-1640,360,-1296,-11,59,-5
12005,-1632,392,-1368,-13,59,-2
12010,-1624,368,-1336,-13,61,-4
12015,-1632,384,-1328,-16,62,-3
12020,-1624,376,-1344,-17,62,-3
12025,-1624,352,-1312,-17,62,-1
12030,-1656,376,-1344,-15,61,-4
12035,-1624,392,-1304,-14,61,0
12040,-1632,368,-1344,-13,60,-3
12045,-1632,392,-1320,-13,60,-1
12050,-1632,384,-1320,-13,60,-4
12055,-1616,376,-1336,-13,61,0
12060,-1632,368,-1312,-17,61,-2
12065,-1624,376,-1320,-18,61,0
12070,-1632,352,-1312,-18,62,0
12075,-1632,384,-1352,-19,62,3
12080,-1632,376,-1320,-20,62,1
12085,-1648,384,-1304,-17,62,4
12090,-1640,384,-1360,-14,62,2
12095,-1632,368,-1328,-16,63,3
12100,-1640,400,-1352,-19,66,1
12105,-1640,384,-1336,-22,68,5
12110,-1640,392,-1328,-24,68,3
12115,-1640,392,-1352,-23,69,4
12120,-1632,392,-1336,-22,72,0
12125,-1632,392,-1312,-19,74,0
12130,-1648,400,-1336,-18,75,-2
12135,-1632,360,-1328,-17,76,-2
12140,-1632,376,-1320,-15,77,-3
12145,-1632,368,-1376,-14,77,-1
12150,-1632,392,-1328,-13,74,-5
12155,-1624,376,-1312,-12,70,-3
12160,-1632,376,-1304,-13,67,-4
12165,-1632,376,-1320,-14,66,0
12170,-1624,368,-1320,-14,65,-2
12175,-1640,376,-1312,-17,67,1
12180,-1632,360,-1312,-18,67,1
12185,-1648,368,-1320,-18,70,3
12190,-1616,368,-1312,-19,73,2
12195,-1624,384,-1336,-19,74,4
12200,-1624,392,-1360,-19,73,1
12205,-1632,392,-1304,-19,71,4
12210,-1624,384,-1344,-19,70,3
12215,-1648,376,-1336,-19,67,5
12220,-1624,376,-1312,-20,66,3
12225,-1624,400,-1336,-20,64,7
12230,-1632,384,-1336,-19,61,5
12235,-1632,376,-1336,-19,60,6
12240,-1640,376,-1320,-18,58,4
12245,-1624,392,-1312,-19,58,8
12250,-1632,384,-1304,-18,57,6
12255,-1624,376,-1336,-18,57,9
12260,-1624,376,-1336,-17,60,7
12265,-1616,376,-1344,-18,58,9
12270,-1632,400,-1368,-18,58,9
12275,-1640,376,-1312,-17,57,11
12280,-1624,384,-1336,-16,57,9
12285,-1640,392,-1336,-15,57,10
12290,-1640,368,-1328,-14,56,7
12295,-1624,400,-1304,-15,57,8
12300,-1632,400,-1336,-15,58,7
12305,-1632,384,-1344,-16,56,9
12310,-1624,368,-1344,-16,57,7
12315,-1632,384,-1336,-17,55,8
12320,-1632,384,-1328,-16,55,8
12325,-1624,376,-1336,-16,56,10
12330,-1640,392,-1344,-16,55,7
12335,-1624,376,-1336,-14,56,8
12340,-1624,368,-1320,-13,54,7
12345,-1624,392,-1352,-13,52,9
12350,-1624,392,-1360,-13,53,8
12355,-1640,392,-1328,-13,52,9
12360,-1632,368,-1352,-13,53,7
12365,-1624,376,-1376,-15,51,9
12370,-1624,376,-1328,-15,49,7
12375,-1632,392,-1352,-14,49,8
12380,-1624,384,-1344,-12,51,7
12385,-1632,400,-1344,-14,51,9
12390,-1640,384,-1312,-13,51,8
12395,-1632,392,-1328,-13,50,9
12400,-1616,376,-1320,-13,49,8
12405,-1632,392,-1344,-13,49,11
12410,-1632,384,-1336,-13,47,9
12415,-1640,368,-1344,-15,46,11
12420,-1632,392,-1320,-15,47,12
12425,-1640,384,-1328,-14,44,13
12430,-1648,376,-1328,-12,43,12
12435,-1624,376,-1320,-9,43,12
12440,-1640,400,-1344,-9,45,12
12445,-1632,376,-1320,-10,45,12
12450,-1624,408,-1328,-10,44,10
12455,-1648,408,-1320,-9,43,12
12460,-1632,384,-1336,-10,46,10
12465,-1624,392,-1344,-11,49,11
12470,-1624,376,-1296,-10,50,10
12475,-1632,384,-1312,-9,49,11
12480,-1632,352,-1328,-11,52,11
12485,-1632,360,-1320,-11,52,12
12490,-1632,376,-1304,-11,52,14
12495,-1632,376,-1336,-11,53,14
12500,-1640,368,-1336,-10,54,13
12505,-1624,376,-1360,-11,54,15
12510,-1640,400,-1280,-8,54,15
12515,-1632,384,-1328,-9,57,14
12520,-1632,384,-1352,-8,56,14
12525,-1624,400,-1352,-7,56,15
12530,-1624,376,-1320,-7,56,16
12535,-1624,384,-1336,-8,57,16
12540,-1632,392,-1336,-9,57,17
12545,-1640,384,-1296,-10,58,16
12550,-1632,376,-1304,-9,60,15
12555,-1640,384,-1360,-10,61,15
12560,-1632,392,-1320,-8,61,15
12565,-1632,408,-1360,-9,63,15
12570,-1648,400,-1344,-9,62,15
12575,-1624,376,-1336,-10,62,14
12580,-1616,392,-1288,-9,63,14
12585,-1616,376,-1328,-9,63,14
12590,-1624,384,-1328,-8,63,14
12595,-1624,400,-1328,-9,63,14
12600,-1624,384,-1312,-8,63,13
12605,-1632,392,-1328,-8,63,13
12610,-1624,400,-1320,-9,63,13
12615,-1624,384,-1328,-9,61,13
12620,-1640,384,-1336,-7,62,14
12625,-1640,400,-1328,-7,60,14
12630,-1648,384,-1336,-6,60,14
12635,-1632,392,-1344,-9,60,14
12640,-1632,400,-1344,-9,59,15
12645,-1632,400,-1328,-9,59,14
12650,-1640,408,-1304,-9,60,14
12655,-1632,416,-1344,-9,59,14
12660,-1632,392,-1312,-9,59,14
12665,-1648,408,-1336,-9,60,14
12670,-1624,392,-1312,-9,60,14
12675,-1616,376,-1320,-8,62,14
12680,-1632,384,-1328,-7,61,14
12685,-1640,400,-1376,-6,63,12
12690,-1632,400,-1320,-4,63,12
12695,-1640,392,-1328,-5,63,10
12700,-1624,408,-1336,-5,61,12
12705,-1640,416,-1320,-5,59,9
12710,-1624,408,-1312,-7,59,11
12715,-1632,400,-1344,-8,61,10
12720,-1640,392,-1344,-10,62,10
12725,-1624,392,-1328,-10,63,8
12730,-1632,368,-1344,-9,64,10
12735,-1640,400,-1312,-9,66,8
12740,-1632,368,-1328,-8,66,10
12745,-1632,408,-1320,-7,65,9
12750,-1632,384,-1344,-6,65,12
12755,-1640,416,-1328,-6,63,10
12760,-1640,408,-1336,-7,62,12
12765,-1624,400,-1304,-7,61,10
12770,-1632,400,-1328,-8,60,11
12775,-1624,392,-1328,-9,59,9
12780,-1632,384,-1320,-9,61,10
12785,-1632,384,-1336,-10,62,9
12790,-1632,376,-1344,-11,63,12
12795,-1624,408,-1328,-13,64,11
12800,-1632,416,-1336,-11,62,13
12805,-1656,392,-1320,-11,61,13
12810,-1624,384,-1312,-9,59,15
12815,-1624,392,-1328,-6,61,12
12820,-1632,392,-1312,-4,62,13
12825,-1624,392,-1320,-2,65,9
12830,-1624,400,-1352,-4,67,9
12835,-1632,400,-1320,-4,69,5
12840,-1624,400,-1344,-5,70,6
12845,-1624,400,-1304,-9,73,4
12850,-1624,376,-1336,-8,75,6
12855,-1632,392,-1360,-9,75,5
12860,-1632,392,-1320,-7,71,6
12865,-1624,392,-1328,-7,69,4
12870,-1624,376,-1352,-7,68,7
12875,-1600,400,-1336,-5,66,4
12880,-1624,392,-1320,-8,64,7
12885,-1624,368,-1304,-8,64,5
12890,-1632,384,-1336,-8,67,8
12895,-1632,392,-1320,-10,68,7
12900,-1624,400,-1336,-11,71,11
12905,-1648,408,-1320,-12,75,9
12910,-1632,400,-1336,-12,76,12
12915,-1632,424,-1336,-12,77,8
12920,-1632,408,-1376,-11,78,11
12925,-1632,400,-1344,-9,78,8
12930,-1624,392,-1336,-10,76,12
12935,-1624,384,-1352,-11,73,9
12940,-1624,400,-1368,-9,70,12
12945,-1632,408,-1336,-11,69,10
12950,-1616,400,-1376,-11,68,12
12955,-1632,424,-1320,-10,67,8
12960,-1624,400,-1328,-9,67,10
12965,-1616,384,-1344,-9,67,9
12970,-1640,400,-1360,-9,67,11
12975,-1640,424,-1352,-9,68,9
12980,-1624,416,-1312,-9,69,9
12985,-1616,408,-1320,-10,68,6
12990,-1624,400,-1352,-8,68,8
12995,-1616,392,-1328,-7,68,6
13000,-1632,424,-1336,-8,67,7
13005,-1656,416,-1320,-8,68,6
13010,-1608,384,-1344,-10,67,8
13015,-1632,392,-1328,-9,65,5
13020,-1632,384,-1304,-8,64,6
13025,-1632,392,-1352,-9,63,5
13030,-1632,400,-1352,-6,63,7
13035,-1624,392,-1360,-7,62,5
13040,-1648,408,-1328,-8,62,7
13045,-1632,392,-1344,-8,62,3
13050,-1632,408,-1360,-7,62,6
13055,-1624,408,-1336,-8,61,3
13060,-1624,384,-1344,-8,60,3
13065,-1640,416,-1376,-10,60,1
13070,-1616,408,-1368,-8,60,4
13075,-1624,416,-1312,-9,60,3
13080,-1632,400,-1336,-9,59,4
13085,-1624,432,-1336,-9,58,1
13090,-1632,384,-1304,-9,60,4
13095,-1632,376,-1336,-10,57,3
13100,-1624,384,-1304,-11,56,4
13105,-1624,408,-1336,-10,56,2
13110,-1624,400,-1352,-10,57,3
13115,-1632,400,-1352,-10,56,2
13120,-1624,392,-1336,-12,56,5
13125,-1624,384,-1320,-13,56,4
13130,-1624,392,-1352,-14,55,8
13135,-1624,408,-1336,-14,53,6
13140,-1632,392,-1344,-13,52,6
13145,-1640,408,-1304,-10,51,4
13150,-1632,400,-1320,-10,53,5
13155,-1624,408,-1328,-8,53,3
13160,-1624,400,-1328,-8,54,6
13165,-1624,368,-1360,-7,55,5
13170,-1616,384,-1312,-9,57,6
13175,-1624,400,-1336,-9,58,4
13180,-1624,400,-1368,-12,60,7
13185,-1624,408,-1328,-12,60,5
13190,-1632,400,-1328,-10,60,6
13195,-1632,384,-1368,-11,61,4
13200,-1640,392,-1328,-9,62,5
13205,-1616,392,-1360,-8,62,2
13210,-1624,392,-1344,-9,62,4
13215,-1648,400,-1360,-10,60,2
13220,-1624,400,-1336,-11,60,3
13225,-1632,392,-1344,-12,60,3
13230,-1624,408,-1320,-12,59,4
13235,-1640,392,-1352,-12,56,4
13240,-1632,400,-1352,-12,56,3
13245,-1608,400,-1336,-11,56,3
13250,-1616,408,-1312,-11,58,4
13255,-1632,400,-1312,-10,58,3
13260,-1632,416,-1344,-9,58,5
13265,-1624,400,-1352,-10,59,3
13270,-1640,400,-1344,-9,59,4
13275,-1640,416,-1360,-8,59,3
13280,-1616,408,-1344,-8,61,2
13285,-1624,416,-1352,-8,62,1
13290,-1616,408,-1352,-8,61,2
13295,-1608,376,-1384,-8,61,-2
13300,-1616,408,-1368,-8,61,1
13305,-1624,400,-1328,-10,61,-2
13310,-1632,424,-1360,-10,62,-1
13315,-1624,384,-1360,-9,60,0
13320,-1640,400,-1328,-9,61,0
13325,-1632,400,-1336,-10,61,-3
13330,-1624,400,-1344,-10,60,-1
13335,-1632,400,-1328,-11,61,-4
13340,-1640,376,-1360,-11,61,-2
13345,-1616,400,-1288,-10,60,-5
13350,-1632,384,-1336,-10,60,-4
13355,-1608,416,-1344,-10,58,-4
13360,-1624,408,-1344,-11,59,-3
13365,-1608,376,-1360,-12,59,-4
13370,-1632,400,-1320,-12,57,-3
13375,-1648,408,-1336,-12,57,-4
13380,-1632,392,-1336,-11,58,-1
13385,-1624,392,-1328,-12,59,-4
13390,-1616,408,-1336,-11,59,-3
13395,-1616,384,-1336,-11,60,-4
13400,-1616,408,-1360,-11,57,-3
13405,-1624,384,-1336,-12,58,-4
13410,-1616,400,-1344,-13,58,-3
13415,-1624,400,-1312,-12,58,-3
13420,-1632,416,-1336,-11,58,-3
13425,-1632,400,-1352,-14,60,-4
13430,-1624,408,-1320,-14,62,-3
13435,-1600,400,-1336,-12,64,-3
13440,-1608,400,-1320,-13,64,-4
13445,-1624,400,-1312,-13,64,-3
13450,-1624,408,-1328,-12,63,-2
13455,-1624,400,-1296,-12,63,-2
13460,-1616,400,-1336,-11,61,-2
13465,-1632,400,-1336,-12,60,-3
13470,-1616,408,-1352,-12,60,-2
13475,-1624,424,-1328,-11,62,-4
13480,-1632,424,-1344,-13,61,-4
13485,-1640,384,-1360,-13,63,-4
13490,-1624,392,-1328,-14,67,-3
13495,-1632,400,-1352,-14,67,-2
13500,-1624,400,-1328,-16,67,-2
13505,-1608,408,-1352,-17,68,-1
13510,-1624,400,-1360,-15,64,-1
13515,-1624,392,-1360,-10,61,-2
13520,-1624,416,-1352,-8,60,-4
13525,-1640,416,-1352,-6,60,-6
13530,-1640,400,-1336,-6,61,-9
13535,-1624,384,-1352,-6,62,-9
13540,-1632,384,-1352,-8,63,-9
13545,-1632,384,-1368,-7,65,-9
13550,-1640,392,-1368,-9,66,-11
13555,-1632,408,-1328,-10,67,-11
13560,-1632,376,-1336,-9,67,-10
13565,-1632,384,-1360,-11,66,-9
13570,-1632,408,-1344,-10,65,-8
13575,-1632,400,-1328,-9,64,-6
13580,-1600,400,-1376,-9,62,-8
13585,-1624,392,-1328,-8,60,-9
13590,-1616,392,-1312,-9,58,-10
13595,-1632,392,-1352,-11,57,-8
13600,-1632,392,-1344,-12,58,-8
13605,-1624,376,-1344,-13,60,-7
13610,-1632,376,-1352,-14,63,-6
13615,-1624,384,-1344,-13,65,-6
13620,-1632,408,-1368,-13,67,-7
13625,-1608,384,-1336,-14,69,-7
13630,-1616,408,-1352,-13,68,-9
13635,-1632,416,-1360,-13,65,-8
13640,-1608,392,-1328,-14,61,-9
13645,-1624,416,-1328,-14,61,-9
13650,-1632,392,-1328,-14,59,-8
13655,-1632,392,-1352,-13,59,-7
13660,-1640,384,-1344,-14,58,-9
13665,-1632,384,-1328,-14,60,-8
13670,-1616,384,-1328,-12,62,-9
13675,-1632,416,-1344,-15,64,-7
13680,-1632,400,-1312,-13,65,-9
13685,-1624,392,-1344,-13,66,-8
13690,-1632,416,-1344,-14,66,-7
13695,-1632,408,-1320,-14,65,-6
13700,-1632,408,-1344,-14,64,-8
13705,-1632,400,-1344,-15,63,-7
13710,-1632,416,-1320,-13,61,-10
13715,-1624,384,-1360,-12,61,-7
13720,-1632,400,-1336,-12,63,-9
13725,-1624,400,-1336,-12,60,-7
13730,-1624,400,-1328,-10,61,-10
13735,-1616,376,-1328,-12,62,-10
13740,-1624,400,-1344,-12,63,-11
13745,-1632,384,-1336,-11,65,-11
13750,-1632,400,-1344,-12,68,-13
13755,-1632,392,-1360,-13,68,-12
13760,-1616,384,-1320,-10,69,-14
13765,-1632,416,-1336,-12,66,-13
13770,-1624,376,-1344,-12,67,-15
13775,-1616,376,-1344,-12,64,-14
13780,-1632,400,-1328,-13,64,-15
13785,-1616,408,-1336,-14,63,-15
13790,-1632,384,-1336,-14,64,-14
13795,-1632,376,-1352,-14,63,-12
13800,-1640,376,-1336,-14,64,-14
13805,-1624,400,-1328,-15,65,-10
13810,-1624,416,-1368,-14,65,-13
13815,-1632,392,-1328,-14,65,-13
13820,-1608,400,-1336,-15,62,-14
13825,-1624,376,-1344,-17,62,-13
13830,-1624,376,-1312,-19,62,-14
13835,-1608,384,-1328,-22,63,-10
13840,-1616,400,-1320,-23,62,-12
13845,-1632,384,-1368,-25,60,-9
13850,-1624,384,-1336,-23,58,-11
13855,-1624,400,-1336,-23,57,-8
13860,-1632,400,-1336,-19,55,-13
13865,-1632,384,-1336,-17,55,-11
13870,-1624,392,-1320,-17,55,-12
13875,-1632,384,-1352,-17,56,-9
13880,-1616,368,-1376,-17,57,-13
13885,-1616,400,-1336,-19,59,-10
13890,-1632,400,-1312,-23,61,-13
13895,-1624,424,-1352,-23,63,-9
13900,-1624,384,-1352,-23,62,-11
13905,-1624,376,-1320,-22,62,-8
13910,-1616,392,-1328,-23,62,-10
13915,-1632,384,-1360,-20,62,-9
13920,-1632,408,-1312,-19,63,-9
13925,-1624,400,-1336,-19,62,-8
13930,-1616,392,-1320,-18,62,-11
13935,-1632,376,-1360,-17,62,-9
13940,-1624,392,-1360,-19,60,-9
13945,-1624,392,-1360,-18,61,-7
13950,-1616,376,-1312,-17,59,-9
13955,-1632,400,-1352,-17,61,-6
13960,-1624,416,-1328,-17,60,-9
13965,-1632,384,-1320,-18,59,-6
13970,-1640,392,-1304,-18,58,-8
13975,-1624,400,-1344,-18,58,-4
13980,-1632,400,-1344,-18,60,-6
13985,-1632,376,-1328,-17,60,-3
13990,-1624,392,-1320,-18,60,-6
13995,-1632,424,-1344,-17,62,-5
14000,-1624,400,-1360,-16,64,-7
14005,-1608,376,-1376,-14,64,-6
14010,-1576,360,-1312,-14,63,-9
14015,-1624,360,-1320,-14,64,-6
14020,-1576,496,-1416,-15,61,-9
14025,-1592,360,-1416,-15,60,-7
14030,-1648,352,-1304,-15,59,-11
14035,-1632,408,-1256,-15,58,-10
14040,-1608,408,-1352,-16,56,-13
14045,-1576,392,-1328,-15,56,-11
14050,-1632,384,-1344,-14,55,-12
14055,-1624,368,-1304,-14,55,-11
14060,-1624,400,-1320,-15,55,-12
14065,-1624,392,-1328,-17,57,-9
14070,-1616,392,-1368,-16,56,-11
14075,-1624,400,-1368,-15,56,-10
14080,-1632,408,-1328,-15,55,-14
14085,-1624,392,-1336,-15,55,-12
14090,-1624,384,-1304,-14,56,-14
14095,-1616,376,-1344,-16,55,-12
14100,-1616,408,-1344,-15,57,-14
14105,-1632,392,-1360,-16,56,-11
14110,-1624,408,-1328,-17,56,-13
14115,-1632,416,-1336,-17,56,-10
14120,-1624,400,-1376,-15,56,-12
14125,-1632,384,-1376,-17,54,-12
14130,-1624,408,-1336,-17,54,-15
14135,-1624,392,-1336,-16,54,-14
14140,-1632,392,-1384,-18,51,-15
14145,-1640,408,-1328,-17,52,-12
14150,-1616,392,-1304,-16,53,-13
14155,-1632,384,-1352,-15,53,-12
14160,-1624,384,-1336,-15,54,-16
14165,-1624,392,-1368,-15,56,-16
14170,-1632,392,-1368,-15,56,-17
14175,-1624,384,-1328,-17,59,-14
14180,-1616,376,-1328,-17,61,-16
14185,-1624,392,-1304,-17,60,-11
14190,-1624,376,-1320,-18,57,-10
14195,-1608,360,-1344,-17,57,-8
14200,-1616,392,-1368,-16,54,-10
14205,-1632,400,-1336,-14,53,-10
14210,-1624,392,-1328,-15,53,-10
14215,-1648,392,-1336,-15,51,-7
14220,-1632,392,-1344,-16,53,-9
14225,-1632,392,-1320,-17,54,-6
14230,-1632,392,-1320,-17,56,-8
14235,-1616,384,-1296,-17,58,-7
14240,-1624,368,-1344,-17,60,-7
14245,-1616,376,-1328,-16,65,-5
14250,-1632,400,-1376,-15,66,-3
14255,-1632,376,-1360,-14,66,-1
14260,-1624,400,-1368,-12,68,-4
14265,-1624,392,-1352,-13,69,-4
14270,-1640,392,-1344,-14,68,-5
14275,-1632,368,-1352,-15,68,-3
14280,-1640,392,-1368,-15,65,-5
14285,-1616,392,-1344,-12,65,-3
14290,-1624,400,-1320,-12,66,-5
14295,-1624,368,-1352,-9,67,-3
14300,-1632,392,-1344,-7,70,-6
14305,-1616,392,-1312,-7,73,-5
14310,-1640,392,-1352,-7,75,-6
14315,-1616,384,-1320,-9,74,-3
14320,-1624,392,-1344,-10,73,-3
14325,-1608,384,-1336,-8,72,-1
14330,-1632,368,-1352,-9,72,-2
14335,-1632,368,-1360,-9,70,-2
14340,-1632,360,-1352,-9,72,-3
14345,-1632,400,-1352,-9,74,-2
14350,-1624,408,-1336,-11,74,-3
14355,-1624,408,-1328,-12,77,-2
14360,-1632,376,-1344,-14,77,-4
14365,-1624,400,-1352,-13,75,-3
14370,-1616,384,-1344,-13,74,-6
14375,-1624,384,-1320,-14,70,-5
14380,-1608,392,-1336,-15,68,-4
14385,-1624,368,-1352,-15,66,-3
14390,-1632,400,-1352,-14,63,-5
14395,-1632,376,-1360,-14,61,-4
14400,-1632,392,-1360,-12,61,-3
14405,-1624,400,-1352,-13,60,-4
14410,-1624,392,-1336,-12,61,-4
14415,-1624,376,-1368,-13,62,-1
14420,-1632,384,-1360,-12,61,-3
14425,-1616,376,-1320,-12,59,-2
14430,-1608,392,-1336,-13,58,-3
14435,-1624,392,-1304,-13,58,-2
14440,-1624,408,-1328,-13,59,-4
14445,-1608,376,-1336,-13,57,-1
14450,-1608,408,-1344,-14,58,-3
14455,-1616,384,-1320,-14,57,-2
14460,-1632,384,-1352,-15,57,-1
14465,-1624,392,-1336,-15,56,0
14470,-1616,376,-1336,-16,57,0
14475,-1632,384,-1344,-15,58,0
14480,-1632,384,-1376,-15,58,0
14485,-1616,384,-1328,-16,56,2
14490,-1624,408,-1328,-16,56,3
14495,-1616,392,-1344,-15,56,2
14500,-1624,384,-1376,-16,57,3
14505,-1616,368,-1352,-16,57,3
14510,-1608,400,-1352,-15,54,3
14515,-1608,368,-1344,-14,55,2
14520,-1632,384,-1336,-15,54,4
14525,-1616,392,-1336,-16,53,4
14530,-1640,424,-1360,-16,53,3
14535,-1616,368,-1352,-18,53,5
14540,-1624,376,-1344,-17,52,6
14545,-1624,384,-1328,-17,52,5
14550,-1632,376,-1336,-18,51,5
14555,-1616,376,-1336,-19,50,6
14560,-1632,392,-1352,-20,51,7
14565,-1624,384,-1312,-20,50,6
14570,-1616,360,-1312,-19,49,7
14575,-1616,392,-1336,-20,49,8
14580,-1624,376,-1344,-19,47,9
14585,-1632,376,-1360,-19,47,10
14590,-1632,384,-1320,-21,48,11
14595,-1624,392,-1352,-20,48,11
14600,-1632,400,-1360,-18,47,10
14605,-1624,400,-1328,-17,48,10
14610,-1616,384,-1344,-15,48,10
14615,-1616,392,-1336,-14,50,8
14620,-1616,392,-1336,-15,50,9
14625,-1608,376,-1360,-15,52,9
14630,-1624,416,-1344,-14,51,10
14635,-1608,408,-1336,-14,51,10
14640,-1616,360,-1376,-15,51,10
14645,-1632,408,-1344,-13,50,8
14650,-1624,376,-1368,-13,51,11
14655,-1632,400,-1344,-13,52,8
14660,-1624,408,-1352,-13,53,8
14665,-1632,400,-1336,-13,52,9
14670,-1616,384,-1328,-12,53,9
14675,-1616,376,-1336,-12,53,9
14680,-1616,384,-1336,-12,52,9
14685,-1624,392,-1336,-11,53,6
14690,-1616,408,-1344,-10,54,9
14695,-1624,384,-1360,-11,54,7
14700,-1616,368,-1352,-12,55,8
14705,-1616,376,-1360,-11,55,9
14710,-1616,384,-1360,-11,54,10
14715,-1640,416,-1368,-11,54,7
14720,-1640,392,-1344,-11,55,9
14725,-1600,392,-1320,-12,54,9
14730,-1616,400,-1312,-10,55,11
14735,-1632,384,-1336,-10,53,9
14740,-1624,384,-1336,-9,54,11
14745,-1632,400,-1344,-8,53,10
14750,-1632,392,-1360,-8,53,12
14755,-1640,408,-1384,-8,53,10
14760,-1624,400,-1344,-8,54,11
14765,-1648,408,-1376,-8,53,11
14770,-1640,376,-1328,-10,52,12
14775,-1608,384,-1352,-10,52,9
14780,-1608,384,-1352,-9,51,13
14785,-1640,400,-1352,-9,52,11
14790,-1624,392,-1344,-10,52,11
14795,-1616,400,-1344,-9,50,10
14800,-1632,416,-1352,-9,49,12
14805,-1608,400,-1336,-10,51,10
14810,-1608,392,-1336,-10,50,11
14815,-1632,408,-1328,-8,52,10
14820,-1624,392,-1328,-8,54,12
14825,-1632,408,-1328,-8,55,11
14830,-1616,368,-1344,-9,57,12
14835,-1632,400,-1296,-8,56,9
14840,-1624,392,-1336,-8,56,11
14845,-1616,368,-1352,-6,56,11
14850,-1616,392,-1352,-7,55,12
14855,-1624,416,-1368,-8,55,11
14860,-1632,384,-1328,-8,55,13
14865,-1632,392,-1344,-8,54,10
14870,-1616,408,-1352,-8,53,11
14875,-1632,368,-1376,-9,51,10
14880,-1624,400,-1344,-9,51,11
14885,-1608,400,-1352,-9,53,11
14890,-1624,376,-1344,-9,53,13
14895,-1632,400,-1344,-9,53,10
14900,-1640,400,-1336,-7,54,12
14905,-1632,392,-1384,-6,55,9
14910,-1632,400,-1336,-4,54,12
14915,-1640,400,-1368,-5,54,9
14920,-1640,408,-1344,-5,54,11
14925,-1632,400,-1304,-6,55,8
14930,-1624,400,-1328,-7,53,11
14935,-1624,392,-1376,-7,54,10
14940,-1624,400,-1376,-9,57,11
14945,-1616,400,-1336,-6,58,9
14950,-1624,384,-1336,-9,60,10
14955,-1632,384,-1336,-8,62,7
14960,-1640,376,-1328,-8,62,10
14965,-1608,376,-1320,-11,66,9
14970,-1616,392,-1336,-8,66,11
14975,-1624,400,-1368,-7,66,8
14980,-1608,416,-1328,-7,66,9
14985,-1608,400,-1336,-7,64,7
14990,-1624,400,-1336,-8,64,11
14995,-1616,376,-1360,-8,62,8
