timestamp,accel_x,accel_y,accel_z,gyro_x,gyro_y,gyro_z
0,-40,-2048,80,11,84,-5
5,-32,-2032,48,14,86,-4
10,-40,-2048,40,15,85,-4
15,-72,-2032,24,15,86,-4
20,-56,-2040,56,16,86,-4
25,-88,-1928,96,14,86,-3
30,-40,-2048,56,13,85,-3
35,-56,-2000,40,10,85,-2
40,-64,-2056,56,8,84,-2
45,-48,-2080,48,6,84,-2
50,-64,-2040,56,4,84,0
55,-64,-2048,56,4,84,-1
60,-56,-2056,40,5,82,1
65,-56,-2056,32,6,82,0
70,-80,-2072,56,7,82,2
75,-64,-2056,40,7,81,0
80,-40,-2040,24,9,81,1
85,-40,-2064,40,9,81,0
90,-64,-2064,24,10,80,1
95,-104,-2032,40,10,81,2
100,-40,-2064,40,10,79,3
105,-80,-2032,56,10,79,2
110,-56,-2032,40,9,79,3
115,-56,-2056,40,9,79,4
120,-64,-2032,40,7,79,6
125,-72,-2040,64,5,77,5
130,-64,-2024,48,5,77,6
135,-56,-2056,56,4,75,5
140,-56,-2024,56,2,75,5
145,-40,-2048,40,0,72,4
150,-56,-2048,56,1,71,5
155,-64,-2040,48,2,71,4
160,-64,-2048,64,4,69,3
165,-56,-2032,40,7,69,5
170,-56,-2024,72,7,69,4
175,-80,-2032,56,7,68,4
180,-56,-2048,48,8,68,4
185,-88,-2016,56,8,68,2
190,-64,-2024,72,8,69,3
195,-32,-2064,48,6,68,3
200,-64,-2048,40,5,69,2
205,-64,-2048,72,6,68,3
210,-48,-2048,80,5,70,3
215,-56,-2032,48,4,70,1
220,-32,-2072,40,4,72,1
225,-56,-2024,32,3,72,1
230,-56,-2056,56,1,71,0
235,-56,-2032,80,0,71,0
240,-24,-2048,56,1,69,0
245,-48,-2048,96,1,69,1
250,-56,-2040,48,2,68,2
255,-56,-2048,48,4,66,3
260,-64,-2064,64,3,67,4
265,-64,-2040,64,0,67,6
270,-72,-2032,80,-2,67,3
275,-72,-2024,64,-6,66,3
280,-56,-2040,48,-9,66,0
285,-32,-2040,64,-10,67,-2
290,-72,-2048,112,-11,69,-3
295,-64,-2032,64,-10,72,-3
300,-72,-2008,72,-8,73,-4
305,-56,-2064,56,-7,73,-3
310,-64,-2048,64,-2,75,-3
315,-40,-2080,64,-1,75,-2
320,-48,-2064,64,3,76,-2
325,-56,-2064,24,8,77,-3
330,-56,-2088,80,11,78,-2
335,-48,-2072,64,14,77,-3
340,-64,-2088,56,13,78,-1
345,-64,-2040,56,11,77,-1
350,-40,-2056,72,9,79,-1
355,-48,-2040,24,6,78,-1
360,-72,-2048,80,3,79,-1
365,-64,-2048,64,6,80,-1
370,-64,-2040,80,9,81,-2
375,-40,-2048,48,12,82,-3
380,-48,-2040,64,17,80,-6
385,-32,-2024,96,20,81,-8
390,-80,-2056,88,21,80,-10
395,-48,-2040,56,25,80,-12
400,-24,-2040,56,24,79,-15
405,-24,-2024,88,22,77,-13
410,-64,-2056,88,21,78,-15
415,-16,-2072,72,19,76,-15
420,-56,-2064,40,18,76,-13
425,-16,-2056,80,15,77,-13
430,-48,-2056,56,13,78,-13
435,-64,-2040,80,14,78,-13
440,-40,-2032,80,15,77,-12
445,-56,-2048,48,17,76,-12
450,-40,-2040,72,20,76,-11
455,-48,-2040,48,23,76,-11
460,-64,-2016,56,25,76,-11
465,-48,-2040,56,26,74,-12
470,-64,-2040,72,26,76,-10
475,-48,-2032,72,26,76,-11
480,-32,-2040,72,25,75,-10
485,-56,-2032,64,23,74,-9
490,-64,-2056,56,22,72,-9
495,-56,-2032,88,20,72,-8
500,-56,-2040,80,17,72,-8
505,-40,-2056,104,15,72,-6
510,-48,-2064,40,13,71,-5
515,-72,-2048,72,9,71,-3
520,-32,-2056,72,7,70,-4
525,-48,-2032,72,7,71,-3
530,-48,-2072,96,6,71,-3
535,-56,-2032,64,7,72,-2
540,-40,-2056,48,7,71,-2
545,-56,-2040,40,7,72,-4
550,-40,-2056,72,9,72,-4
555,-72,-2024,80,10,73,-5
560,-56,-2016,64,10,73,-5
565,-56,-2016,64,11,72,-5
570,-80,-2040,96,10,71,-4
575,-48,-2024,96,9,71,-4
580,-56,-2024,120,7,71,-3
585,-72,-2040,120,4,71,-1
590,-48,-2048,88,4,70,0
595,-40,-2048,80,4,70,0
600,-56,-2056,80,6,68,0
605,-56,-2048,80,7,68,0
610,-32,-2064,104,8,66,-2
615,-48,-2048,96,8,67,-1
620,-64,-2056,120,8,68,-2
625,-48,-2048,80,9,68,-1
630,-48,-2032,64,9,67,-3
635,-16,-2088,88,10,69,-5
640,-32,-2048,88,12,68,-5
645,-56,-2040,96,14,68,-6
650,-64,-2032,80,15,69,-7
655,-48,-2016,88,15,70,-9
660,-32,-2048,96,13,72,-9
665,-64,-2048,88,10,72,-9
670,-56,-2032,112,7,73,-10
675,-40,-2048,72,5,73,-9
680,-40,-2056,80,5,73,-10
685,-48,-2048,88,5,73,-7
690,-56,-2072,80,7,71,-7
695,-32,-2048,72,10,71,-7
700,-24,-2048,88,14,69,-6
705,-56,-2056,88,19,68,-8
710,-32,-2040,80,21,69,-7
715,-48,-2048,96,23,70,-8
720,-40,-2048,64,25,68,-7
725,-56,-2040,104,26,68,-9
730,-72,-2064,120,27,69,-11
735,-48,-2040,88,27,70,-8
740,-64,-2048,80,27,71,-10
745,-32,-2056,120,25,72,-7
750,-40,-2040,72,24,74,-9
755,-48,-2072,96,23,74,-8
760,-48,-2040,72,21,75,-9
765,-48,-2040,88,19,74,-9
770,-48,-2040,88,21,74,-7
775,-48,-2048,96,21,76,-6
780,-24,-2064,96,20,76,-7
785,-40,-2056,88,20,76,-7
790,-48,-2064,40,20,77,-7
795,-40,-2040,80,20,77,-6
800,-56,-2048,88,20,76,-5
805,-16,-2056,80,20,76,-4
810,-64,-2048,88,22,75,-5
815,-56,-2040,96,23,76,-6
820,-32,-2048,72,23,74,-6
825,-24,-2048,96,24,76,-6
830,-64,-2032,112,22,74,-7
835,-56,-2072,64,21,74,-6
840,-8,-2032,104,19,74,-4
845,-48,-2024,96,17,74,-6
850,-48,-2016,72,16,74,-4
855,-24,-2056,104,14,74,-4
860,-56,-2048,88,13,75,-3
865,-64,-2032,120,15,74,-2
870,-40,-2040,104,16,76,-1
875,-56,-2032,96,16,76,-2
880,-64,-2032,88,15,76,-2
885,-32,-2056,80,15,75,-1
890,-56,-2056,88,14,75,-1
895,-80,-2040,104,15,75,0
900,-64,-2024,88,14,76,-2
905,-56,-2040,112,14,74,-1
910,-40,-2064,88,15,76,-1
915,-64,-2048,120,15,73,1
920,-40,-2056,104,15,73,1
925,-64,-2048,112,17,75,0
930,-72,-2040,120,19,73,0
935,-64,-2048,96,20,74,1
940,-48,-2048,128,19,76,1
945,-112,-2040,168,19,76,2
950,-56,-2040,104,17,75,2
955,-64,-2032,96,16,76,2
960,-40,-2072,96,16,75,1
965,-56,-2032,104,18,74,2
970,-64,-2056,96,18,75,5
975,-64,-2024,104,17,75,4
980,-40,-2056,96,17,75,5
985,-56,-2048,120,15,75,4
990,-48,-2040,136,13,75,6
995,-48,-2040,104,14,74,5
1000,-64,-2024,112,14,73,6
1005,-40,-2040,88,16,72,6
1010,-48,-2072,128,17,70,4
1015,-64,-2008,120,17,70,5
1020,-64,-2040,112,17,69,3
1025,-56,-2024,96,18,68,3
1030,-80,-2032,144,16,67,3
1035,-24,-2032,136,14,67,2
1040,-40,-2048,128,10,66,0
1045,-40,-2048,128,8,66,-1
1050,-64,-2024,136,5,66,-1
1055,-40,-2056,104,3,68,-3
1060,-72,-2040,120,5,69,-3
1065,-56,-2056,112,4,68,-4
1070,-64,-2040,120,6,68,-6
1075,-32,-2040,120,10,69,-6
1080,-56,-2024,88,13,69,-6
1085,-80,-2056,104,16,70,-8
1090,-64,-2040,128,16,70,-8
1095,-72,-2040,120,15,71,-7
1100,-48,-2048,136,14,72,-8
1105,-56,-2056,128,14,71,-9
1110,-48,-2048,136,15,72,-8
1115,-56,-2048,104,15,73,-6
1120,-64,-2032,136,16,72,-5
1125,-32,-2032,104,14,71,-5
1130,-24,-2016,136,14,69,-7
1135,-48,-2016,80,12,70,-7
1140,-32,-2024,96,9,69,-7
1145,-40,-2032,128,6,69,-9
1150,-16,-2040,88,3,68,-9
1155,-8,-2040,72,-1,67,-10
1160,-80,-2040,144,-4,70,-11
1165,-48,-2064,136,-7,73,-9
1170,-48,-2056,88,-8,73,-8
1175,-64,-2072,120,-9,74,-6
1180,-72,-2072,120,-7,76,-5
1185,-56,-2064,120,-4,76,-4
1190,-40,-2080,96,-1,76,-4
1195,-48,-2056,104,2,76,-6
1200,-40,-2056,112,6,77,-9
1205,-40,-2064,88,10,75,-8
1210,-64,-2032,104,15,75,-9
1215,-32,-2048,88,19,77,-8
1220,-40,-2048,128,24,78,-6
1225,-56,-2040,128,30,78,-6
1230,-48,-2032,96,35,78,-5
1235,-56,-2024,112,39,78,-5
1240,-24,-2032,120,42,78,-7
1245,-48,-2056,136,44,79,-4
1250,-24,-2040,112,41,79,-3
1255,-56,-2056,128,39,78,-3
1260,-48,-2048,160,35,78,-3
1265,-56,-2008,128,30,77,-1
1270,-96,-2120,40,26,77,-3
1275,-56,-2040,136,22,77,-2
1280,-64,-2032,128,21,79,-2
1285,-48,-2048,120,19,78,-1
1290,-48,-2032,160,22,78,0
1295,-64,-2024,128,24,78,2
1300,-40,-2032,128,28,76,3
1305,-72,-2032,152,33,76,4
1310,-32,-2048,136,36,74,5
1315,-40,-2048,160,38,73,4
1320,-48,-2024,144,37,72,2
1325,-64,-2008,128,33,71,2
1330,-64,-2040,144,31,71,2
1335,-72,-2040,128,27,71,1
1340,-64,-2024,144,24,71,0
1345,-72,-2024,136,17,71,-1
1350,-16,-2040,144,15,73,-1
1355,-64,-2056,136,13,72,-2
1360,-64,-2032,136,11,71,-2
1365,-64,-2024,144,10,70,-3
1370,-56,-2016,160,11,69,-5
1375,-64,-2032,160,12,67,-5
1380,-56,-2064,144,13,68,-4
1385,-48,-2056,152,12,68,-5
1390,-32,-2072,112,11,68,-5
1395,-80,-2032,120,10,69,-6
1400,-40,-2040,112,8,68,-6
1405,-56,-2048,144,7,67,-7
1410,-32,-2032,128,7,68,-7
1415,-24,-2040,120,9,68,-8
1420,-72,-2016,120,9,69,-7
1425,-40,-2024,176,7,68,-7
1430,-48,-2056,128,6,68,-7
1435,-48,-2040,144,5,67,-6
1440,-40,-2064,136,4,68,-7
1445,-64,-2040,128,3,67,-9
1450,-32,-2048,120,1,66,-8
1455,-48,-2032,144,0,65,-9
1460,-48,-2040,128,-2,65,-9
1465,-32,-2064,136,-3,66,-11
1470,-48,-2032,120,-2,65,-12
1475,-64,-2040,144,-2,66,-11
1480,-40,-2048,152,-3,68,-11
1485,-48,-2056,128,-2,69,-11
1490,-40,-2016,216,-1,70,-10
1495,-48,-2048,160,3,70,-10
1500,-32,-2040,144,4,72,-11
1505,-32,-2048,144,8,74,-11
1510,-24,-2048,152,11,73,-12
1515,-32,-2032,168,11,76,-12
1520,-40,-2032,144,10,76,-14
1525,-24,-2032,152,8,78,-14
1530,-56,-2032,128,6,80,-15
1535,-64,-2024,168,4,82,-13
1540,-16,-2040,144,2,83,-13
1545,-32,-2032,144,2,84,-12
1550,-48,-2032,168,-1,85,-11
1555,-40,-2056,160,-2,85,-11
1560,-48,-2032,120,-1,81,-10
1565,-56,-2032,136,2,80,-9
1570,-32,-2040,136,2,79,-10
1575,-40,-2040,152,4,78,-9
1580,-40,-2024,128,5,78,-8
1585,-56,-2032,168,7,77,-8
1590,-32,-2040,144,5,76,-9
1595,0,-2048,120,4,76,-8
1600,0,-2000,136,5,77,-9
1605,-56,-2048,160,4,76,-8
1610,-32,-2024,160,4,77,-8
1615,-56,-2032,152,5,78,-9
1620,-48,-2032,128,5,78,-9
1625,-8,-2040,128,6,78,-6
1630,-48,-2024,136,6,81,-5
1635,-48,-2032,136,8,79,-5
1640,-40,-2032,128,9,80,-6
1645,-40,-2016,160,10,78,-7
1650,-48,-2048,136,11,77,-6
1655,-56,-2040,160,12,76,-7
1660,-40,-2064,160,11,75,-7
1665,-56,-2032,136,11,74,-6
1670,-64,-2024,152,12,75,-5
1675,-64,-2064,152,11,74,-5
1680,-72,-2008,144,12,71,-3
1685,-56,-2064,160,12,71,-2
1690,-48,-2040,144,12,70,-2
1695,-32,-2040,152,11,70,-1
1700,-72,-2008,136,10,70,-1
1705,-72,-2032,144,9,69,-1
1710,-80,-2048,240,8,70,0
1715,-40,-2032,160,7,69,-2
1720,-64,-2040,168,6,69,-2
1725,-16,-2040,168,5,66,-2
1730,-56,-2024,176,2,66,-1
1735,-32,-2024,152,0,64,-2
1740,-80,-2032,152,-2,64,-2
1745,-64,-2016,144,-6,62,-1
1750,-48,-2048,200,-9,62,-1
1755,-64,-2032,160,-13,61,1
1760,-64,-2048,160,-17,59,2
1765,-56,-2048,168,-19,62,3
1770,-64,-2048,192,-19,60,2
1775,-64,-2024,152,-17,59,2
1780,-32,-2056,176,-17,60,1
1785,-64,-2040,144,-17,60,0
1790,-56,-2000,144,-18,59,-1
1795,-56,-2024,160,-18,58,0
1800,-8,-2024,160,-17,59,0
1805,-32,-2040,128,-18,59,0
1810,-48,-2024,136,-18,57,-1
1815,48,-2192,88,-19,59,0
1820,-24,-2056,168,-22,60,1
1825,-8,-2064,144,-24,61,2
1830,-40,-2040,160,-26,59,2
1835,-24,-2024,144,-26,59,2
1840,-40,-2048,136,-26,58,2
1845,-48,-2048,160,-25,58,1
1850,-24,-2016,152,-23,57,1
1855,-16,-2072,120,-25,57,0
1860,-48,-2032,160,-26,59,-2
1865,-8,-2048,128,-26,59,-2
1870,-40,-2032,168,-28,61,-3
1875,-48,-2032,160,-31,61,-4
1880,-64,-2032,208,-35,62,-5
1885,-56,-2040,152,-36,62,-4
1890,-32,-2032,152,-41,62,-4
1895,-32,-2032,152,-45,62,-5
1900,-56,-2032,160,-50,62,-5
1905,-32,-2008,176,-54,60,-4
1910,-16,-2056,152,-59,59,-4
1915,-32,-2016,184,-64,56,-3
1920,-24,-2032,144,-68,55,-3
1925,-16,-1968,240,-73,54,-3
1930,-64,-2016,160,-78,54,-2
1935,-56,-2008,136,-86,55,-1
1940,-56,-2032,136,-93,58,0
1945,-64,-2032,128,-99,59,0
1950,-32,-2048,168,-105,60,2
1955,-48,-2032,176,-109,60,2
1960,-32,-2048,152,-111,61,1
1965,-48,-2048,168,-113,62,2
1970,-40,-2040,176,-114,59,2
1975,-8,-2048,152,-114,58,3
1980,-56,-2040,152,-115,58,4
1985,-64,-2040,144,-117,56,5
1990,-32,-2056,152,-119,55,6
1995,-48,-2024,128,-120,53,8
2000,-40,-2048,120,-121,54,8
2005,-48,-2040,136,-120,53,8
2010,-56,-2024,112,-118,55,6
2015,-56,-2024,128,-116,55,5
2020,-56,-2048,152,-113,55,4
2025,-64,-2032,144,-113,54,3
2030,-56,-2032,112,-112,55,2
2035,-16,-2024,168,-109,53,3
2040,-64,-2032,120,-108,54,3
2045,-32,-2048,128,-111,54,6
2050,-64,-2032,88,-116,54,7
2055,-24,-2048,104,-119,55,8
2060,-48,-2032,80,-126,55,7
2065,-64,-2024,128,-132,56,6
2070,-56,-2024,88,-138,58,5
2075,-48,-2016,56,-144,61,1
2080,-56,-2008,96,-150,66,0
2085,-56,-2032,88,-155,71,-1
2090,-72,-2008,88,-156,72,-1
2095,-48,-2032,96,-155,77,-1
2100,-32,-2040,88,-151,80,2
2105,-56,-2064,104,-144,80,4
2110,-48,-2072,104,-135,81,4
2115,-16,-2072,120,-122,78,5
2120,-56,-2080,104,-107,77,5
2125,-40,-2088,96,-93,73,4
2130,-56,-2072,96,-83,70,3
2135,-16,-2048,64,-79,66,3
2140,-64,-2048,72,-80,63,1
2145,-8,-2048,120,-85,62,2
2150,-64,-2032,56,-89,59,1
2155,-56,-2032,88,-94,58,3
2160,-48,-2048,56,-98,59,3
2165,-80,-2016,104,-96,60,1
2170,-64,-2048,120,-94,62,-1
2175,-48,-2024,48,-90,61,-2
2180,-80,-2024,120,-86,60,-3
2185,-72,-2048,96,-83,59,-3
2190,-56,-2040,72,-82,60,-4
2195,-80,-2024,64,-85,62,-3
2200,-64,-2048,48,-88,65,-1
2205,-64,-2056,56,-91,65,-1
2210,-56,-2040,80,-93,68,0
2215,-64,-2032,88,-94,70,0
2220,-64,-2032,80,-92,70,1
2225,-64,-2040,80,-89,70,-1
2230,-80,-2024,56,-86,69,0
2235,-24,-2024,56,-80,67,1
2240,-48,-2032,64,-74,65,3
2245,-56,-2024,48,-69,63,4
2250,-24,-2112,120,-67,61,4
2255,-40,-2032,56,-66,61,5
2260,-56,-2016,32,-66,59,4
2265,-32,-2040,64,-67,59,4
2270,-88,-2032,24,-69,57,5
2275,-64,-2024,88,-73,58,5
2280,-32,-2040,56,-76,56,6
2285,-48,-2048,80,-78,56,6
2290,-72,-2048,48,-81,54,6
2295,-48,-2072,64,-81,55,5
2300,-32,-2072,48,-83,56,4
2305,-56,-2056,64,-82,56,5
2310,-48,-2048,48,-82,56,5
2315,-48,-2032,40,-81,58,6
2320,-56,-2064,40,-85,60,8
2325,-40,-2040,56,-88,64,8
2330,-48,-2056,40,-88,67,7
2335,-48,-2064,32,-89,68,5
2340,-24,-2040,72,-87,67,4
2345,-40,-2064,48,-84,68,4
2350,-64,-2024,32,-81,67,3
2355,-40,-2064,56,-76,66,2
2360,-80,-2056,32,-74,67,2
2365,-32,-2056,32,-71,66,3
2370,-56,-2064,56,-67,65,4
2375,-48,-2056,48,-67,65,4
2380,-64,-2072,56,-64,64,3
2385,-64,-2048,32,-63,64,4
2390,-24,-2040,64,-61,62,4
2395,-48,-2056,24,-59,61,4
2400,-72,-2032,64,-60,62,4
2405,-40,-2040,48,-61,62,6
2410,-56,-2024,32,-63,62,5
2415,-40,-2032,40,-64,62,6
2420,-40,-2064,88,-64,61,4
2425,-64,-2024,48,-64,62,5
2430,-40,-2056,48,-64,61,5
2435,-64,-2032,56,-61,60,3
2440,-80,-2016,40,-61,60,2
2445,-40,-2032,56,-60,61,1
2450,-64,-2032,48,-60,62,0
2455,-56,-2040,48,-61,60,2
2460,-48,-2048,48,-64,60,6
2465,-40,-2024,56,-68,58,9
2470,-96,-2064,-32,-69,59,7
2475,-32,-2064,8,-67,62,3
2480,-56,-2056,24,-65,64,1
2485,-56,-2080,32,-65,64,0
2490,-48,-2072,8,-63,64,-4
2495,-88,-2008,48,-61,64,-2
2500,-64,-2064,32,-58,64,-3
2505,-72,-2040,40,-57,64,-2
2510,-72,-2048,48,-56,64,-1
2515,-48,-2008,64,-57,65,0
2520,-56,-2064,56,-58,65,2
2525,-48,-2032,16,-61,65,2
2530,-56,-2056,8,-64,63,4
2535,-56,-2056,32,-66,63,2
2540,-64,-2048,-8,-67,64,-1
2545,-64,-2024,16,-69,66,-3
2550,-72,-2008,32,-67,66,-5
2555,-80,-2024,24,-67,65,-5
2560,-48,-2016,24,-67,64,-5
2565,-48,-2056,16,-69,63,-4
2570,-56,-2032,32,-70,63,-4
2575,-24,-2008,16,-71,63,-4
2580,-64,-2064,32,-73,63,-4
2585,-56,-2040,16,-71,63,-4
2590,-32,-2048,-8,-70,62,-5
2595,-72,-2056,-8,-66,62,-7
2600,-56,-2072,0,-69,63,-7
2605,-16,-2040,-8,-70,65,-6
2610,-72,-2040,8,-70,68,-5
2615,-56,-2056,16,-68,68,-5
2620,-56,-2048,24,-65,70,-6
2625,-48,-2048,16,-63,71,-6
2630,-40,-2056,0,-62,69,-4
2635,-56,-2048,24,-62,68,-5
2640,-40,-2064,0,-62,66,-4
2645,-64,-2040,-24,-59,65,-3
2650,-56,-2040,16,-59,66,-3
2655,-56,-2048,16,-58,67,-4
2660,-56,-2056,8,-56,64,-6
2665,-40,-2064,32,-54,64,-5
2670,-56,-2040,8,-52,63,-5
2675,-32,-2056,24,-49,63,-4
2680,-56,-2064,32,-49,64,-4
2685,-40,-2024,24,-51,63,-4
2690,-72,-2040,-24,-54,62,-2
2695,-64,-2056,-8,-59,59,-2
2700,-64,-2024,-16,-62,56,-2
2705,-64,-2040,8,-64,56,-2
2710,-48,-2040,8,-62,57,-2
2715,-80,-2032,32,-60,57,-3
2720,-24,-2048,40,-54,55,-5
2725,-24,-2040,24,-49,55,-4
2730,-8,-2024,0,-43,54,-4
2735,-40,-2016,16,-42,54,-7
2740,-64,-2024,-8,-41,55,-10
2745,-40,-2032,-8,-41,57,-12
2750,-24,-2048,32,-41,60,-13
2755,-24,-2056,-8,-40,62,-14
2760,-40,-2064,-24,-41,64,-13
2765,-24,-2064,-32,-41,65,-14
2770,-40,-2080,-16,-40,68,-12
2775,-40,-2056,0,-40,70,-13
2780,-48,-2048,0,-40,69,-12
2785,-56,-2032,-8,-40,70,-11
2790,-56,-2072,24,-40,71,-12
2795,-40,-2072,-16,-39,70,-11
2800,-72,-2056,0,-37,70,-9
2805,-64,-2056,8,-37,69,-8
2810,-64,-2032,-8,-36,68,-7
2815,-72,-2040,-32,-35,67,-5
2820,-48,-2064,-32,-34,66,-6
2825,-40,-2056,0,-32,64,-4
2830,-64,-2056,0,-29,62,-2
2835,-56,-2056,8,-27,61,-4
2840,-48,-2048,0,-27,61,-3
2845,-24,-2072,-16,-28,60,-2
2850,-64,-2032,-24,-28,60,-2
2855,-56,-2072,-16,-27,62,0
2860,-64,-2040,-24,-29,62,0
2865,-48,-2056,16,-28,60,2
2870,-56,-2056,-8,-27,59,2
2875,-40,-2032,0,-27,60,1
2880,-56,-2040,-16,-27,60,1
2885,-48,-2032,-48,-26,63,-1
2890,-56,-2040,-8,-22,63,-4
2895,-56,-2056,-24,-17,65,-5
2900,-64,-2040,16,-10,68,-7
2905,-64,-2024,0,-5,66,-7
2910,-48,-2024,-8,-3,69,-8
2915,-56,-2032,-40,-1,71,-7
2920,-64,-2024,-16,-4,74,-7
2925,-48,-2064,24,-7,76,-6
2930,-56,-2064,-16,-8,75,-4
2935,-48,-2072,0,-4,74,0
2940,-48,-2048,0,-3,74,2
2945,-64,-2048,-8,-1,70,4
2950,-48,-2072,0,0,67,3
2955,-32,-2056,-8,-2,66,4
2960,-88,-2056,-24,-8,63,4
2965,-72,-2040,16,-13,63,4
2970,-40,-2040,-8,-16,62,3
2975,-48,-2072,0,-16,60,2
2980,-72,-2048,16,-13,60,2
2985,-72,-2064,24,-9,62,0
2990,-72,-2040,0,-5,62,1
2995,-64,-2040,8,-1,62,0
3000,-64,-2072,16,3,63,-3
3005,-40,-2056,0,5,63,-4
3010,-8,-2016,32,7,66,-5
3015,-72,-2064,-8,6,67,-5
3020,-32,-2056,-8,6,69,-6
3025,-32,-2080,40,4,70,-5
3030,-64,-2056,0,3,71,-4
3035,-56,-2048,8,3,71,-4
3040,-48,-2032,-8,4,71,-4
3045,-48,-2048,-16,4,72,-3
3050,-48,-2048,16,4,71,-3
3055,-40,-2072,8,6,73,-3
3060,-56,-2056,-16,8,72,-3
3065,-48,-2040,0,9,71,-3
3070,-40,-2048,24,11,70,-3
3075,-64,-2048,-16,14,70,-4
3080,-56,-2056,0,16,69,-3
3085,-72,-2048,0,15,70,-3
3090,-40,-2040,0,17,71,-6
3095,-64,-2040,0,17,72,-7
3100,-56,-2064,0,16,73,-7
3105,-48,-2080,0,16,72,-6
3110,-56,-2040,-16,15,74,-6
3115,-64,-2056,8,14,74,-7
3120,-80,-2168,24,14,76,-5
3125,-72,-2056,0,14,78,-5
3130,-56,-2056,0,15,78,-4
3135,-64,-2064,0,17,78,-3
3140,-56,-2072,0,18,77,-1
3145,-56,-2056,24,19,76,-2
3150,-80,-2032,-8,21,75,-2
3155,-56,-2056,0,22,75,-3
3160,-64,-2064,24,23,74,-3
3165,-80,-2040,24,23,74,-4
3170,-16,-2048,-24,23,75,-5
3175,-56,-2056,0,21,74,-5
3180,-32,-2040,-8,19,72,-5
3185,-56,-2032,0,16,73,-4
3190,-56,-2040,24,12,73,-4
3195,-40,-2056,16,8,72,-4
3200,-48,-2064,24,7,72,-5
3205,-56,-2056,0,7,69,-5
3210,-72,-2024,24,8,67,-4
3215,-56,-2056,16,9,66,-3
3220,-56,-2064,16,11,64,-3
3225,-64,-2056,8,11,64,-2
3230,-32,-2104,48,13,64,-2
3235,-56,-2048,-8,14,65,-1
3240,-24,-2040,8,14,68,-2
3245,-48,-2048,8,13,68,-4
3250,-8,-2072,-8,13,69,-7
3255,-48,-2056,-24,14,70,-9
3260,-40,-2048,16,15,69,-10
3265,-56,-2040,24,16,70,-14
3270,-40,-2040,40,16,71,-15
3275,-64,-2040,32,17,70,-15
3280,-40,-2064,0,17,67,-16
3285,-56,-2024,-8,15,69,-18
3290,-56,-2048,24,14,69,-18
3295,-48,-2048,-8,12,68,-18
3300,-40,-2064,24,11,69,-17
3305,-48,-2056,8,9,70,-17
3310,-32,-2040,8,10,70,-16
3315,-64,-2040,16,12,70,-15
3320,-56,-2040,24,14,70,-15
3325,-24,-2048,40,16,71,-14
3330,-8,-2048,24,20,71,-13
3335,-64,-2080,64,21,70,-13
3340,-48,-2056,48,23,71,-12
3345,-40,-2056,8,26,71,-12
3350,-32,-2048,32,27,72,-12
3355,-48,-2032,16,29,70,-11
3360,-56,-2056,32,29,70,-10
3365,-16,-2056,24,28,69,-11
3370,-48,-2040,16,24,71,-11
3375,-48,-2048,16,21,72,-13
3380,-32,-2048,8,20,73,-11
3385,-40,-2064,24,19,74,-10
3390,-56,-2040,32,18,76,-11
3395,-48,-2040,40,19,75,-10
3400,-56,-2048,0,19,75,-11
3405,-56,-2040,32,22,76,-10
3410,-56,-2040,16,23,75,-11
3415,-48,-2040,24,23,75,-11
3420,-24,-2064,32,26,74,-12
3425,-40,-2048,0,26,76,-13
3430,-8,-2072,0,25,73,-13
3435,-32,-2072,48,25,75,-15
3440,-48,-2048,24,22,74,-13
3445,-64,-2072,32,19,75,-13
3450,-24,-2040,32,17,75,-14
3455,-64,-2032,16,15,76,-14
3460,-48,-2056,24,13,76,-14
3465,-56,-2040,48,13,76,-15
3470,-32,-2056,8,11,75,-14
3475,-40,-2048,0,12,72,-13
3480,-24,-2048,32,12,72,-14
3485,-32,-2032,32,13,73,-12
3490,-32,-2024,32,17,72,-13
3495,-72,-2040,16,17,72,-13
3500,-32,-2048,48,18,72,-14
3505,-48,-2048,8,18,70,-14
3510,-48,-2056,32,18,70,-13
3515,-48,-2048,40,16,70,-13
3520,-56,-2064,24,16,72,-14
3525,-48,-2040,8,14,73,-12
3530,-24,-2056,48,12,76,-14
3535,-48,-2040,24,13,78,-12
3540,-16,-2040,40,14,78,-11
3545,-72,-2040,32,16,77,-11
3550,-48,-2048,24,17,79,-11
3555,-64,-2040,24,19,80,-8
3560,-48,-2032,64,20,80,-9
3565,-40,-2056,24,21,79,-9
3570,-56,-2056,64,22,77,-8
3575,-64,-2040,48,20,77,-7
3580,-48,-2056,40,21,76,-6
3585,-32,-2040,56,20,75,-6
3590,-80,-2040,48,22,74,-3
3595,-80,-2040,48,20,74,-5
3600,-64,-2024,32,21,73,-4
3605,-48,-2048,48,20,72,-4
3610,-24,-2056,32,20,71,-6
3615,-56,-2032,16,23,70,-5
3620,-56,-2032,64,25,69,-5
3625,-40,-2040,48,27,70,-5
3630,-32,-2048,32,29,70,-7
3635,-48,-2056,56,30,71,-7
3640,-40,-2040,48,32,71,-8
3645,-24,-2048,40,33,73,-8
3650,-64,-2032,64,36,73,-8
3655,-40,-2056,56,36,74,-7
3660,-48,-2056,56,36,73,-7
3665,-80,-2024,48,37,74,-9
3670,-56,-2040,48,35,73,-10
3675,-56,-2040,48,33,72,-10
3680,-56,-2040,80,33,73,-11
3685,-32,-2032,40,34,72,-9
3690,-32,-2072,40,35,70,-9
3695,-48,-2064,24,38,71,-7
3700,-32,-2048,64,40,69,-7
3705,-48,-2056,48,41,69,-7
3710,-32,-2040,64,41,68,-8
3715,-32,-2032,48,37,67,-9
3720,-32,-2032,72,33,68,-9
3725,-56,-2008,48,29,67,-12
3730,-8,-2056,48,23,68,-13
3735,-40,-2024,80,19,70,-15
3740,-8,-2040,48,16,71,-16
3745,-24,-2032,72,12,74,-15
3750,-72,-2048,48,11,75,-13
3755,-16,-2056,64,12,76,-13
3760,-24,-2056,32,14,77,-12
3765,-16,-2072,80,20,76,-10
3770,-32,-2072,64,26,76,-10
3775,-16,-2032,72,31,73,-10
3780,-32,-2048,56,34,72,-9
3785,-40,-2048,48,36,70,-10
3790,-48,-2024,48,36,71,-11
3795,-24,-2048,48,34,70,-12
3800,-8,-2064,32,34,72,-10
3805,-40,-2048,56,35,73,-11
3810,-24,-2040,88,39,76,-11
3815,-56,-2032,80,44,79,-13
3820,-32,-2040,56,49,82,-13
3825,-24,-2032,80,53,85,-12
3830,-16,-2032,80,56,86,-14
3835,-48,-2032,72,59,85,-14
3840,-40,-2040,88,60,86,-14
3845,-64,-2032,72,60,84,-14
3850,-24,-2064,64,57,83,-14
3855,0,-2064,64,53,81,-15
3860,-40,-2064,80,49,81,-15
3865,-48,-2064,72,45,81,-15
3870,-40,-2048,88,44,80,-16
3875,-24,-2064,56,44,80,-14
3880,-8,-2056,88,45,81,-13
3885,-16,-2048,64,48,80,-11
3890,-40,-2056,96,53,82,-9
3895,-32,-2032,40,57,81,-8
3900,-16,-2048,72,61,80,-7
3905,-48,-2016,80,64,80,-6
3910,-32,-2024,48,68,80,-6
3915,-32,-2048,104,70,80,-6
3920,-40,-2040,96,71,79,-7
3925,-40,-2040,88,70,78,-7
3930,-8,-2040,96,67,78,-7
3935,-40,-2032,104,62,77,-6
3940,-40,-2048,112,58,76,-6
3945,-40,-2040,64,53,75,-5
3950,-32,-2040,104,50,74,-4
3955,-40,-2040,112,46,75,-5
3960,-40,-2040,80,45,75,-6
3965,-48,-2040,96,45,77,-6
3970,-72,-2048,96,47,77,-5
3975,-24,-2056,56,46,78,-6
3980,-24,-2024,64,46,77,-5
3985,-16,-2040,96,49,78,-5
3990,-64,-2088,80,50,78,-6
3995,-24,-2040,80,51,78,-6
4000,-48,-2040,72,50,77,-8
4005,-16,-2032,72,52,75,-7
4010,-72,-2048,88,51,75,-7
4015,-48,-2048,88,50,74,-8
4020,-16,-2040,112,46,73,-7
4025,-8,-2040,96,43,72,-7
4030,-48,-2024,80,39,72,-4
4035,-8,-2048,96,37,73,-4
4040,-32,-2032,112,36,72,-5
4045,-32,-2056,120,35,70,-4
4050,-48,-2016,88,37,68,-7
4055,-48,-2056,80,38,67,-7
4060,-40,-2032,104,38,67,-8
4065,-40,-2080,96,39,68,-8
4070,-56,-2072,112,40,68,-9
4075,-40,-2064,120,40,70,-10
4080,-16,-2024,96,40,69,-11
4085,-8,-2064,104,40,68,-11
4090,-24,-2040,112,40,70,-11
4095,-32,-2032,120,41,71,-12
4100,-32,-2080,88,41,72,-13
4105,-24,-2056,104,42,73,-14
4110,-40,-2048,120,43,74,-15
4115,-40,-2056,104,46,76,-17
4120,-32,-2032,104,49,76,-17
4125,-40,-2056,104,53,79,-17
4130,-16,-2048,112,57,80,-16
4135,-16,-2056,112,59,82,-16
4140,-8,-2032,96,63,83,-16
4145,-8,-2040,120,66,83,-15
4150,0,-2072,128,66,83,-14
4155,-8,-2032,104,65,81,-15
4160,-40,-2048,152,64,80,-12
4165,-32,-2040,136,62,79,-12
4170,-56,-2040,112,59,79,-11
4175,-24,-2008,136,56,77,-9
4180,-56,-2024,152,54,75,-9
4185,-56,-2048,112,54,72,-8
4190,-40,-2048,144,51,71,-8
4195,-16,-2016,144,49,71,-7
4200,-16,-2032,120,47,69,-7
4205,24,-2008,112,46,69,-7
4210,-8,-2024,144,45,69,-8
4215,-40,-2040,128,46,69,-8
4220,-8,-2024,112,47,70,-8
4225,-24,-2024,112,45,71,-8
4230,-8,-2056,144,45,71,-9
4235,-16,-2024,120,46,71,-9
4240,-24,-2064,144,46,72,-11
4245,-8,-2056,144,43,72,-10
4250,-32,-2056,128,44,74,-13
4255,-24,-2032,120,43,74,-12
4260,-32,-2048,144,41,74,-13
4265,-24,-2032,112,41,75,-14
4270,-8,-2040,136,40,74,-12
4275,-8,-2064,120,41,74,-11
4280,-24,-2032,136,42,72,-10
4285,-16,-2024,120,43,72,-11
4290,-32,-2048,144,42,70,-10
4295,-16,-2040,120,43,70,-10
4300,-24,-2048,136,44,69,-12
4305,-16,-2008,152,43,69,-14
4310,-40,-2056,112,40,70,-16
4315,-24,-2032,160,39,71,-16
4320,-40,-2032,144,37,71,-18
4325,0,-2056,128,35,72,-19
4330,-16,-2072,128,33,72,-18
4335,-8,-2040,144,34,72,-18
4340,-16,-2048,152,34,69,-18
4345,-24,-2040,136,35,68,-18
4350,-40,-2056,152,38,66,-18
4355,-24,-2072,120,41,66,-19
4360,-16,-2032,176,44,64,-19
4365,-8,-2048,168,47,66,-21
4370,-8,-2056,144,49,67,-21
4375,-16,-2032,144,51,69,-21
4380,-16,-2056,144,52,69,-19
4385,-16,-2040,136,50,70,-20
4390,-16,-2024,136,49,72,-19
4395,-16,-2040,184,45,73,-18
4400,-8,-2008,160,40,74,-16
4405,0,-2040,152,35,75,-15
4410,-8,-2016,160,32,76,-14
4415,-32,-2024,152,31,75,-14
4420,-16,-2024,152,29,77,-16
4425,-24,-2008,96,30,77,-16
4430,-24,-2024,144,31,77,-17
4435,-8,-2040,184,35,78,-20
4440,-16,-2032,144,40,77,-20
4445,-48,-2032,152,46,78,-22
4450,-24,-2024,184,46,79,-25
4455,-24,-2040,160,46,77,-26
4460,-24,-2056,176,44,76,-27
4465,-40,-2040,176,43,74,-27
4470,-8,-2056,120,42,71,-31
4475,-56,-2040,160,45,70,-31
4480,-32,-2048,144,45,68,-33
4485,-48,-2032,168,47,67,-32
4490,-40,-2016,176,48,65,-35
4495,-16,-2032,136,50,65,-37
4500,-40,-2024,152,49,64,-40
4505,-32,-2040,160,50,64,-42
4510,-32,-2040,168,49,63,-44
4515,-48,-2040,184,49,62,-46
4520,-24,-2024,184,50,61,-47
4525,-56,-2048,176,50,59,-52
4530,-32,-2056,144,50,58,-53
4535,8,-2056,136,49,58,-56
4540,-48,-2048,168,47,59,-61
4545,-32,-2040,184,47,59,-62
4550,-40,-2024,200,46,61,-66
4555,0,-2032,160,44,61,-67
4560,-32,-2032,184,43,61,-71
4565,-48,-2032,160,37,62,-74
4570,-24,-2040,168,33,62,-75
4575,-8,-2032,168,30,62,-74
4580,-24,-2032,192,30,61,-74
4585,-24,-2040,184,31,61,-76
4590,-48,-2024,176,35,60,-76
4595,-8,-2040,184,39,61,-77
4600,-8,-2048,176,41,61,-79
4605,-8,-2040,184,47,62,-84
4610,-8,-2040,176,52,64,-88
4615,0,-2048,184,55,65,-93
4620,-8,-2032,176,55,67,-97
4625,-8,-2016,176,56,68,-103
4630,0,-2048,216,57,67,-107
4635,-16,-2024,192,58,68,-111
4640,0,-2024,192,56,71,-114
4645,32,-2056,200,54,72,-117
4650,0,-1992,176,51,73,-120
4655,0,-2024,184,47,75,-122
4660,0,-2008,176,42,78,-123
4665,24,-2024,200,36,79,-123
4670,8,-2016,208,32,83,-123
4675,8,-2040,184,30,85,-122
4680,0,-2032,176,28,87,-124
4685,8,-2032,176,29,89,-122
4690,8,-2056,208,31,89,-124
4695,8,-2040,208,34,89,-127
4700,0,-2024,176,38,87,-130
4705,8,-2056,192,38,84,-133
4710,-8,-2048,200,38,82,-138
4715,0,-2032,184,36,80,-143
4720,0,-2032,152,35,80,-146
4725,-16,-2064,192,34,79,-151
4730,0,-2032,208,31,81,-154
4735,-16,-2048,216,27,83,-156
4740,0,-2016,192,23,83,-160
4745,-16,-2024,176,18,83,-163
4750,32,-2056,200,13,79,-167
4755,24,-2032,200,8,78,-172
4760,32,-2024,208,5,74,-177
4765,8,-2008,208,2,73,-180
4770,16,-2040,224,-2,68,-185
4775,0,-2000,200,-3,65,-187
4780,32,-1992,240,-2,64,-187
4785,32,-2040,208,0,66,-185
4790,32,-2048,192,2,68,-185
4795,32,-2048,208,4,70,-184
4800,16,-2064,200,6,71,-182
4805,16,-2056,200,5,74,-184
4810,40,-2048,216,3,76,-185
4815,24,-2040,184,0,78,-186
4820,56,-2048,192,-4,78,-191
4825,32,-2040,184,-5,77,-193
4830,24,-2048,208,-7,73,-195
4835,16,-2040,200,-6,70,-195
4840,16,-2032,216,-9,66,-198
4845,24,-2056,232,-9,60,-201
4850,40,-2040,224,-11,52,-208
4855,40,-2048,208,-10,45,-211
4860,16,-2048,264,-9,38,-216
4865,40,-2032,240,-9,33,-221
4870,48,-2032,216,-13,34,-225
4875,40,-2024,224,-17,32,-226
4880,72,-2008,200,-22,35,-226
4885,56,-1992,224,-26,39,-227
4890,40,-2000,192,-31,42,-228
4895,64,-2024,224,-34,42,-228
4900,80,-2040,200,-36,43,-231
4905,80,-2048,224,-44,43,-233
4910,64,-2032,224,-51,37,-237
4915,64,-2016,232,-60,29,-240
4920,56,-2032,240,-69,19,-244
4925,104,-2072,240,-69,4,-246
4930,96,-2032,216,-71,-6,-248
4935,104,-2016,192,-68,-14,-248
4940,112,-2040,184,-62,-16,-246
4945,120,-2000,176,-61,-11,-244
4950,96,-1968,152,-60,0,-240
4955,112,-1984,128,-64,19,-236
4960,128,-1992,160,-68,38,-238
4965,144,-2024,176,-62,55,-237
4970,96,-2072,144,-52,67,-239
4975,136,-2008,184,-43,76,-242
4980,120,-2016,184,-43,86,-246
4985,144,-2000,200,-48,91,-249
4990,152,-2016,200,-65,99,-252
4995,160,-2032,192,-90,101,-255
5000,160,-2024,240,-110,97,-256
5005,168,-2048,208,-110,83,-259
5010,176,-2024,168,-109,73,-259
5015,160,-2040,176,-107,66,-258
5020,192,-2056,176,-105,59,-261
5025,160,-2056,184,-107,56,-262
5030,168,-2024,160,-105,52,-266
5035,160,-2040,136,-100,47,-269
5040,176,-2064,192,-88,41,-272
5045,176,-2056,168,-69,37,-275
5050,184,-2056,152,-54,37,-276
5055,184,-2040,176,-46,39,-279
5060,184,-2048,184,-47,40,-280
5065,200,-2048,208,-47,40,-279
5070,176,-2024,208,-46,34,-278
5075,216,-2024,184,-45,28,-280
5080,296,-1984,200,-49,22,-284
5085,176,-2008,208,-55,17,-284
5090,224,-2024,208,-60,10,-285
5095,216,-2024,176,-66,5,-290
5100,208,-2016,176,-78,4,-296
5105,208,-2032,176,-92,4,-305
5110,224,-2032,168,-100,7,-312
5115,216,-2048,184,-95,6,-315
5120,200,-2040,184,-76,0,-318
5125,224,-2040,184,-55,-3,-321
5130,240,-2040,200,-33,-4,-323
5135,232,-2024,168,-14,-6,-324
5140,232,-2008,160,-2,-14,-324
5145,232,-1992,168,-1,-19,-324
5150,208,-1984,152,-11,-23,-325
5155,216,-1992,176,-26,-34,-323
5160,240,-2008,184,-35,-47,-324
5165,256,-2008,144,-41,-55,-326
5170,264,-2024,184,-52,-60,-329
5175,256,-2024,136,-65,-60,-330
5180,272,-2024,136,-80,-56,-336
5185,288,-1992,208,-95,-50,-343
5190,280,-2008,160,-107,-46,-346
5195,280,-2040,168,-107,-42,-349
5200,296,-2048,152,-98,-40,-353
5205,312,-2040,192,-83,-39,-356
5210,328,-2056,184,-64,-38,-358
5215,352,-2048,184,-43,-38,-362
5220,352,-2040,176,-26,-41,-367
5225,336,-2040,224,-14,-47,-377
5230,344,-2008,168,2,-60,-388
5235,384,-2032,160,16,-69,-398
5240,384,-1976,128,19,-74,-400
5245,408,-1992,152,11,-74,-404
5250,400,-1976,96,-5,-70,-408
5255,384,-1944,112,-27,-55,-409
5260,400,-1952,136,-45,-41,-412
5265,392,-1976,144,-58,-28,-412
5270,384,-1976,144,-58,-18,-413
5275,384,-1968,144,-50,-9,-413
5280,368,-2000,168,-37,-7,-413
5285,416,-2016,168,-20,-3,-413
5290,384,-1992,208,-13,2,-419
5295,368,-2000,144,-13,1,-421
5300,392,-1984,184,-17,-4,-421
5305,368,-1968,176,-18,-13,-425
5310,344,-1984,192,-19,-20,-423
5315,360,-1984,168,-19,-26,-414
5320,368,-1976,184,-26,-29,-408
5325,328,-1984,160,-40,-24,-402
5330,320,-1976,168,-53,-22,-394
5335,304,-2000,160,-67,-22,-388
5340,328,-2008,168,-72,-25,-388
5345,320,-2008,208,-68,-29,-390
5350,328,-2024,200,-52,-43,-391
5355,360,-1984,168,-36,-55,-390
5360,344,-1992,176,-30,-63,-389
5365,392,-1992,160,-25,-70,-390
5370,392,-1984,176,-32,-77,-388
5375,400,-1992,176,-44,-85,-393
5380,416,-2000,152,-51,-94,-396
5385,416,-2016,176,-56,-105,-397
5390,440,-2048,176,-64,-117,-390
5395,432,-2000,184,-63,-129,-395
5400,384,-1992,184,-63,-133,-401
5405,336,-1984,168,-56,-144,-401
5410,432,-1992,136,-53,-160,-394
5415,416,-2000,160,-47,-175,-393
5420,424,-2008,128,-31,-194,-395
5425,408,-1976,144,-20,-211,-394
5430,464,-1984,128,-21,-218,-395
5435,456,-1992,136,-26,-227,-405
5440,472,-1992,168,-26,-239,-407
5445,488,-1992,160,-24,-248,-411
5450,488,-1992,144,-24,-256,-420
5455,488,-2000,168,-23,-264,-426
5460,520,-1984,152,-24,-266,-432
5465,528,-1992,160,-22,-272,-441
5470,528,-2000,152,-10,-284,-447
5475,544,-1976,160,7,-292,-448
5480,560,-1984,120,16,-296,-450
5485,560,-1968,144,21,-295,-451
5490,584,-1984,144,26,-289,-454
5495,608,-1952,112,30,-282,-456
5500,608,-1952,112,32,-267,-453
5505,600,-1936,104,25,-251,-455
5510,632,-1936,96,20,-248,-461
5515,696,-1928,184,12,-246,-468
5520,648,-1944,104,-1,-244,-475
5525,656,-1952,96,-6,-248,-482
5530,616,-1936,104,-4,-255,-484
5535,616,-1920,168,-3,-254,-480
5540,608,-1928,136,2,-249,-476
5545,624,-1944,128,6,-243,-473
5550,672,-1896,136,9,-232,-470
5555,664,-1912,120,7,-215,-465
5560,704,-1920,152,3,-202,-461
5565,744,-1920,136,-9,-188,-463
5570,736,-1904,144,-18,-184,-471
5575,776,-1928,136,-27,-183,-474
5580,792,-1888,128,-42,-182,-481
5585,776,-1872,136,-62,-176,-485
5590,792,-1880,120,-82,-168,-486
5595,760,-1864,120,-101,-167,-496
5600,752,-1856,128,-112,-165,-501
5605,744,-1848,144,-120,-163,-498
5610,744,-1808,96,-131,-161,-496
5615,728,-1808,128,-148,-160,-493
5620,688,-1800,80,-168,-158,-495
5625,680,-1792,128,-190,-157,-492
5630,680,-1792,80,-210,-154,-492
5635,688,-1824,64,-229,-153,-489
5640,672,-1808,64,-244,-151,-488
5645,688,-1856,72,-260,-153,-491
5650,688,-1864,88,-270,-154,-498
5655,688,-1872,56,-278,-152,-499
5660,712,-1832,48,-286,-149,-501
5665,704,-1856,64,-297,-149,-503
5670,736,-1848,32,-308,-151,-506
5675,760,-1856,8,-315,-152,-503
5680,776,-1864,24,-322,-151,-498
5685,800,-1848,24,-332,-152,-495
5690,824,-1848,8,-345,-152,-490
5695,808,-1848,32,-362,-159,-487
5700,840,-1880,16,-378,-162,-484
5705,824,-1896,-8,-393,-165,-482
5710,848,-1888,40,-407,-166,-480
5715,832,-1904,40,-414,-165,-477
5720,848,-1928,24,-414,-155,-473
5725,848,-1880,16,-409,-144,-470
5730,856,-1920,-8,-409,-136,-464
5735,880,-1904,-48,-415,-131,-460
5740,840,-1864,-96,-425,-133,-457
5745,832,-1872,-64,-438,-139,-457
5750,832,-1864,-48,-454,-148,-454
5755,808,-1864,-64,-468,-159,-450
5760,792,-1864,-56,-481,-170,-445
5765,784,-1856,-16,-489,-177,-436
5770,768,-1864,-8,-494,-181,-427
5775,776,-1864,-24,-497,-180,-414
5780,800,-1864,0,-498,-176,-402
5785,824,-1880,-24,-500,-174,-391
5790,840,-1896,-32,-504,-172,-382
5795,824,-1880,-8,-510,-174,-376
5800,832,-1880,-24,-514,-177,-371
5805,840,-1936,-32,-508,-179,-364
5810,824,-1976,-16,-482,-181,-352
5815,824,-1944,-24,-449,-186,-337
5820,848,-1912,-80,-408,-195,-327
5825,832,-1864,-128,-371,-194,-326
5830,856,-1840,-120,-348,-186,-328
5835,880,-1760,-120,-338,-166,-336
5840,856,-1776,-128,-334,-138,-347
5845,888,-1776,-128,-331,-109,-361
5850,896,-1768,-168,-337,-83,-379
5855,936,-1712,-152,-350,-65,-398
5860,944,-1736,-192,-375,-60,-414
5865,1008,-1712,-184,-420,-77,-430
5870,992,-1656,-248,-485,-109,-451
5875,1056,-1600,-264,-560,-151,-476
5880,976,-1544,-312,-640,-196,-512
5885,928,-1536,-304,-714,-244,-554
5890,904,-1472,-312,-781,-290,-597
5895,856,-1480,-304,-821,-325,-640
5900,776,-1544,-216,-830,-346,-671
5905,792,-1688,-160,-793,-355,-676
5910,744,-1824,-128,-717,-351,-653
5915,840,-1904,-72,-604,-324,-613
5920,864,-1888,-144,-511,-292,-611
5925,896,-1776,-208,-477,-280,-656
5930,920,-1672,-272,-516,-287,-730
5935,944,-1624,-312,-600,-294,-777
5940,976,-1688,-304,-699,-288,-774
5945,944,-1848,-176,-773,-265,-737
5950,1032,-1960,-232,-778,-241,-674
5955,1032,-1960,-192,-762,-225,-643
5960,1104,-1944,-264,-741,-233,-622
5965,1032,-1872,-288,-717,-257,-620
5970,1056,-1792,-304,-690,-278,-614
5975,1032,-1736,-304,-695,-281,-645
5980,1024,-1640,-304,-696,-299,-680
5985,1016,-1624,-304,-687,-323,-698
5990,1000,-1616,-368,-680,-341,-714
5995,992,-1656,-352,-668,-357,-728
6000,984,-1632,-360,-643,-380,-731
6005,976,-1672,-344,-608,-383,-723
6010,1000,-1640,-376,-577,-371,-720
6015,992,-1616,-376,-566,-366,-731
6020,1008,-1616,-376,-576,-362,-743
6025,1040,-1640,-368,-588,-352,-744
6030,1024,-1632,-360,-602,-340,-746
6035,1032,-1624,-352,-617,-331,-750
6040,1016,-1616,-400,-631,-325,-754
6045,1032,-1592,-416,-640,-319,-759
6050,1016,-1584,-400,-645,-315,-758
6055,1024,-1552,-400,-646,-315,-762
6060,1016,-1536,-472,-646,-316,-768
6065,1032,-1544,-448,-643,-320,-779
6070,1032,-1560,-448,-643,-325,-791
6075,1048,-1536,-464,-647,-331,-807
6080,1016,-1552,-456,-655,-339,-828
6085,1032,-1552,-480,-666,-348,-854
6090,1032,-1552,-480,-685,-354,-872
6095,1032,-1568,-528,-704,-358,-886
6100,1024,-1544,-504,-719,-362,-899
6105,1016,-1528,-576,-726,-369,-914
6110,1000,-1496,-600,-733,-377,-928
6115,992,-1488,-568,-742,-388,-942
6120,968,-1472,-576,-752,-400,-958
6125,944,-1464,-560,-756,-413,-979
6130,944,-1456,-552,-763,-425,-1002
6135,960,-1448,-560,-767,-440,-1028
6140,952,-1440,-576,-779,-454,-1058
6145,912,-1376,-616,-799,-464,-1093
6150,904,-1360,-592,-827,-470,-1126
6155,920,-1352,-640,-854,-475,-1158
6160,888,-1328,-624,-876,-488,-1194
6165,896,-1312,-584,-896,-507,-1228
6170,848,-1304,-624,-913,-531,-1263
6175,872,-1248,-592,-931,-556,-1298
6180,880,-1216,-576,-954,-584,-1335
6185,864,-1184,-616,-989,-610,-1376
6190,840,-1160,-608,-1037,-627,-1423
6195,864,-1136,-640,-1089,-633,-1469
6200,872,-1128,-640,-1138,-618,-1523
6205,856,-1144,-616,-1169,-586,-1591
6210,888,-1200,-672,-1182,-552,-1663
6215,888,-1168,-728,-1186,-520,-1733
6220,1016,-1184,-768,-1183,-496,-1798
6225,1064,-1184,-840,-1174,-476,-1879
6230,1160,-1192,-912,-1149,-458,-1969
6235,1192,-1208,-1008,-1080,-450,-2038
6240,1256,-1192,-992,-976,-438,-2064
6245,1296,-1160,-976,-827,-447,-2042
6250,1368,-1072,-864,-677,-454,-2008
6255,1248,-1000,-744,-562,-452,-1986
6260,1168,-928,-672,-507,-473,-1953
6265,1024,-840,-536,-513,-494,-1900
6270,1008,-808,-416,-581,-522,-1855
6275,944,-800,-336,-670,-544,-1831
6280,792,-792,-208,-748,-561,-1828
6285,776,-832,-160,-830,-602,-1828
6290,672,-920,-128,-902,-651,-1828
6295,584,-952,-192,-920,-705,-1862
6300,536,-936,-248,-912,-758,-1890
6305,520,-896,-384,-894,-806,-1916
6310,520,-848,-480,-881,-827,-1938
6315,552,-776,-512,-890,-824,-1946
6320,640,-760,-544,-919,-806,-1938
6325,656,-704,-488,-976,-777,-1923
6330,776,-696,-376,-1055,-732,-1896
6335,872,-712,-256,-1159,-671,-1860
6340,1032,-704,0,-1269,-604,-1825
6345,1104,-712,176,-1369,-550,-1791
6350,1176,-728,296,-1442,-520,-1759
6355,1192,-664,384,-1476,-493,-1722
6360,1208,-600,400,-1478,-452,-1682
6365,1144,-544,328,-1467,-391,-1643
6370,1104,-448,320,-1477,-328,-1622
6375,1032,-408,216,-1499,-271,-1623
6380,776,-520,176,-1519,-215,-1608
6385,688,-648,80,-1459,-214,-1596
6390,672,-720,-16,-1343,-207,-1593
6395,688,-872,-160,-1207,-155,-1566
6400,760,-1112,-400,-990,-104,-1511
6405,912,-1312,-624,-673,-48,-1386
6410,1024,-1456,-776,-348,24,-1198
6415,1208,-1552,-856,-63,65,-991
6420,1360,-1552,-936,127,68,-778
6425,1400,-1480,-1080,229,29,-546
6430,1488,-1352,-1216,264,-32,-262
6435,1568,-1224,-1392,288,-98,51
6440,1712,-1144,-1584,355,-154,361
6445,1840,-1064,-1680,458,-170,584
6450,1984,-960,-1720,581,-119,731
6455,2152,-872,-1720,678,-8,850
6460,2416,-800,-1784,727,148,961
6465,2816,-816,-1896,752,334,1066
6470,3256,-752,-2000,781,548,1146
6475,3712,-664,-2064,820,804,1188
6480,4168,-560,-2184,861,1097,1187
6485,4600,-496,-2352,877,1408,1143
6490,4888,-312,-2304,854,1736,1076
6495,5104,-192,-2328,781,2052,984
6500,5112,-16,-2280,683,2337,871
6505,5040,80,-2304,565,2606,763
6510,4744,200,-2416,431,2884,678
6515,4408,208,-2584,285,3190,637
6520,4152,144,-2696,125,3544,616
6525,4008,48,-2848,-8,3921,533
6530,3744,72,-3000,-92,4295,344
6535,3576,160,-3096,-178,4636,125
6540,3344,208,-3224,-320,4870,-89
6545,3160,216,-3000,-520,4920,-286
6550,2760,224,-2744,-648,4833,-477
6555,2064,216,-2320,-654,4591,-643
6560,1360,104,-1808,-543,4189,-733
6565,840,40,-1512,-344,3675,-787
6570,496,-120,-1200,-167,3172,-862
6575,280,-208,-1128,-45,2738,-960
6580,224,-240,-1200,7,2405,-1098
6585,112,-264,-1232,-43,2124,-1273
6590,368,-328,-1192,-203,1820,-1421
6595,520,-312,-1088,-387,1494,-1559
6600,1096,-240,-856,-552,1121,-1699
6605,1592,-24,-536,-629,795,-1923
6610,1736,240,-384,-551,527,-2203
6615,1856,656,-408,-391,228,-2371
6620,2032,1056,-416,-243,-116,-2396
6625,2488,1552,-424,-145,-471,-2317
6630,2920,1992,-336,-176,-717,-2199
6635,3240,2416,-328,-338,-796,-2069
6640,3352,2672,-480,-605,-798,-2052
6645,3280,2872,-752,-888,-765,-2156
6650,2960,2032,-2952,-1283,-829,-2253
6655,3096,2136,-1512,-1350,-705,-2230
6660,2928,1528,-1560,-1234,-457,-2043
6665,2656,1000,-1512,-945,-274,-1782
6670,2464,576,-1424,-642,-251,-1504
6675,2344,288,-1168,-394,-355,-1217
6680,2464,88,-944,-210,-555,-940
6685,2600,16,-848,-81,-760,-704
6690,2760,16,-672,18,-897,-511
6695,2784,64,-528,79,-996,-324
6700,2912,152,-488,135,-1096,-154
6705,2880,272,-472,206,-1178,-49
6710,2848,440,-504,292,-1246,-2
6715,2832,584,-576,372,-1296,24
6720,2792,792,-536,417,-1316,68
6725,2752,976,-520,404,-1288,114
6730,2584,1128,-456,340,-1206,115
6735,2456,1120,-488,260,-1095,108
6740,2392,1064,-592,214,-984,112
6745,2328,976,-680,224,-869,119
6750,2296,880,-640,265,-724,137
6755,2240,776,-600,303,-554,175
6760,2176,648,-488,304,-367,234
6765,2160,528,-432,256,-182,317
6770,2192,440,-368,165,-13,412
6775,2232,328,-288,59,159,517
6780,2232,240,-216,-31,315,606
6785,2192,216,-160,-116,444,677
6790,2136,120,-152,-188,548,746
6795,2064,32,-112,-220,630,798
6800,1944,0,-80,-194,697,813
6805,1784,56,-72,-113,752,786
6810,1680,112,-24,3,815,743
6815,1528,224,-96,134,896,699
6820,1440,352,-144,255,955,656
6825,1376,496,-144,353,980,594
6830,1352,656,-160,420,998,527
6835,1344,784,-200,470,1033,470
6840,1416,848,-200,509,1070,425
6845,1376,912,-240,542,1094,383
6850,1368,872,-216,564,1074,346
6855,1408,816,-216,569,1021,310
6860,1328,752,-216,571,958,277
6865,1336,656,-216,559,882,246
6870,1336,568,-200,536,807,220
6875,1376,504,-208,504,734,200
6880,1360,456,-168,471,671,185
6885,1360,400,-208,443,615,168
6890,1352,384,-224,422,564,156
6895,1360,408,-304,412,513,148
6900,1376,432,-352,405,470,142
6905,1384,464,-392,400,423,145
6910,1464,536,-408,384,369,153
6915,1552,536,-408,353,323,155
6920,1624,600,-472,304,291,147
6925,1720,600,-480,247,263,135
6930,1824,632,-536,182,229,126
6935,1920,640,-568,120,194,116
6940,2024,600,-576,63,158,103
6945,2096,544,-648,13,112,89
6950,2144,520,-664,-30,59,71
6955,2240,456,-688,-63,1,56
6960,2320,392,-728,-88,-55,42
6965,2392,344,-728,-109,-101,28
6970,2456,280,-784,-136,-140,14
6975,2488,224,-760,-166,-166,8
6980,2504,144,-704,-193,-189,5
6985,2544,88,-712,-206,-207,2
6990,2544,64,-720,-208,-208,7
6995,2512,24,-696,-199,-203,8
7000,2448,-16,-632,-183,-198,4
7005,2376,-16,-592,-152,-202,2
7010,2344,-40,-584,-114,-211,10
7015,2256,-32,-576,-74,-225,22
7020,2200,-32,-560,-35,-239,34
7025,2296,-128,-560,2,-246,46
7030,2120,-56,-552,27,-246,63
7035,2064,-64,-520,41,-231,80
7040,2048,-104,-512,45,-205,111
7045,2000,-144,-480,38,-171,142
7050,1992,-184,-496,27,-145,166
7055,2000,-232,-464,18,-116,183
7060,2032,-304,-480,13,-89,188
7065,2024,-360,-496,14,-68,187
7070,2024,-360,-496,20,-50,178
7075,2048,-344,-536,30,-31,162
7080,2040,-368,-552,36,-2,146
7085,2016,-344,-560,43,38,137
7090,2040,-328,-560,52,79,132
7095,2024,-296,-576,64,128,128
7100,2040,-304,-616,76,173,128
7105,2008,-272,-616,84,215,131
7110,2008,-184,-640,81,241,129
7115,1968,-216,-608,50,254,112
7120,1872,-328,-544,31,264,114
7125,1864,-392,-520,64,272,154
7130,1776,-400,-520,108,265,180
7135,1704,-424,-584,134,245,186
7140,1752,-336,-528,137,225,173
7145,1768,-312,-528,122,208,152
7150,1816,-288,-496,99,197,132
7155,1816,-248,-536,70,189,111
7160,1840,-240,-528,37,182,93
7165,1872,-232,-552,6,177,81
7170,1888,-240,-584,-29,169,71
7175,1936,-240,-576,-61,166,62
7180,1944,-256,-568,-90,157,54
7185,1976,-272,-576,-115,148,43
7190,2000,-312,-568,-132,140,32
7195,2008,-328,-600,-141,133,25
7200,1976,-352,-544,-144,127,17
7205,2016,-368,-520,-139,115,10
7210,1992,-360,-520,-127,101,-3
7215,1984,-376,-488,-110,82,-18
7220,1968,-376,-472,-88,63,-35
7225,1984,-400,-480,-59,42,-50
7230,1984,-368,-456,-32,12,-63
7235,1960,-328,-496,-2,-17,-75
7240,1976,-304,-488,24,-44,-85
7245,2016,-264,-440,50,-69,-94
7250,2000,-192,-528,65,-85,-102
7255,2008,-184,-504,74,-99,-109
7260,2024,-144,-504,72,-103,-116
7265,2040,-136,-528,61,-99,-119
7270,2040,-112,-504,46,-88,-116
7275,2048,-96,-528,32,-68,-110
7280,2064,-88,-512,17,-44,-98
7285,2064,-96,-536,2,-21,-84
7290,2048,-88,-512,-8,0,-72
7295,2080,-128,-496,-15,14,-61
7300,2080,-112,-544,-16,32,-57
7305,2096,-88,-520,-16,49,-55
7310,2072,-88,-552,-16,69,-58
7315,2088,-80,-544,-20,88,-60
7320,2096,-64,-560,-20,109,-64
7325,2056,-64,-544,-14,128,-64
7330,2056,-56,-552,-7,144,-65
7335,2064,-32,-536,1,159,-64
7340,2032,-8,-520,8,172,-63
7345,2040,24,-536,9,185,-58
7350,1984,56,-496,5,198,-54
7355,1992,48,-464,-3,208,-48
7360,2008,48,-464,-13,215,-39
7365,1992,64,-440,-22,218,-28
7370,1992,64,-424,-28,217,-16
7375,2024,72,-400,-36,210,-7
7380,2024,64,-400,-42,196,2
7385,2032,72,-392,-49,176,11
7390,2040,64,-408,-58,149,20
7395,2016,72,-440,-64,121,29
7400,2016,72,-464,-70,92,38
7405,2024,56,-432,-76,67,46
7410,2032,56,-448,-84,43,53
7415,2008,56,-456,-92,22,59
7420,2040,24,-504,-102,6,62
7425,2024,24,-512,-111,-4,66
7430,2008,8,-504,-126,-13,68
7435,2016,-24,-496,-141,-20,72
7440,2000,-56,-512,-154,-23,75
7445,2024,-80,-496,-161,-22,79
7450,2048,-112,-504,-163,-19,79
7455,2032,-112,-464,-158,-13,74
7460,2056,-120,-488,-148,-7,69
7465,2048,-120,-504,-134,1,61
7470,2048,-112,-496,-119,6,56
7475,2048,-128,-504,-103,5,52
7480,2064,-160,-536,-87,-1,49
7485,2064,-136,-528,-71,-6,48
7490,2048,-152,-520,-51,-7,44
7495,2048,-168,-536,-32,-10,43
7500,2048,-144,-520,-17,-12,42
7505,2008,-136,-536,-3,-11,39
7510,1992,-104,-520,10,-2,39
7515,1952,-120,-552,22,5,39
7520,1952,-120,-520,35,12,39
7525,1944,-104,-528,43,15,39
7530,1944,-96,-544,49,16,41
7535,1920,-64,-576,53,20,43
7540,1928,-80,-576,55,28,46
7545,1928,-72,-584,49,35,48
7550,1920,-56,-568,40,42,53
7555,1912,-72,-576,29,53,55
7560,1952,-72,-600,23,65,56
7565,1912,-72,-576,20,76,59
7570,1880,-72,-632,15,86,64
7575,1960,-56,-576,13,98,66
7580,1976,-64,-584,12,109,64
7585,1976,-56,-560,16,116,62
7590,1960,-40,-584,16,120,61
7595,2008,-72,-544,6,133,65
7600,2008,-80,-576,-6,143,69
7605,2008,-96,-584,-18,151,73
7610,2016,-88,-568,-36,155,74
7615,2016,-72,-560,-56,160,77
7620,2008,-64,-528,-76,166,78
7625,2016,-80,-544,-96,169,82
7630,2000,-104,-520,-115,168,85
7635,2032,-120,-512,-132,163,86
7640,2024,-128,-544,-138,162,88
7645,2000,-112,-496,-137,159,87
7650,2040,-128,-512,-132,154,80
7655,2040,-144,-512,-130,147,71
7660,2016,-120,-512,-126,136,67
7665,2032,-136,-520,-121,120,58
7670,2016,-128,-536,-116,103,49
7675,2024,-120,-512,-113,88,44
7680,2032,-120,-456,-113,82,41
7685,2008,-128,-544,-112,78,39
7690,2032,-128,-536,-108,77,36
7695,1984,-120,-544,-114,75,33
7700,1992,-96,-544,-126,75,31
7705,1984,-136,-512,-137,78,30
7710,1992,-168,-496,-132,86,34
7715,2016,-152,-472,-111,100,37
7720,1984,-136,-488,-86,108,36
7725,2008,-160,-496,-65,111,34
7730,2000,-136,-488,-55,110,28
7735,2000,-152,-520,-49,110,26
7740,1984,-136,-504,-41,116,27
7745,1992,-144,-480,-32,124,30
7750,1992,-152,-488,-22,127,29
7755,2008,-120,-488,-18,125,25
7760,2008,-128,-488,-19,118,20
7765,2016,-128,-512,-35,109,14
7770,2000,-144,-488,-50,100,10
7775,2008,-120,-464,-51,89,5
7780,2008,-120,-464,-44,89,6
7785,2000,-160,-464,-39,94,9
7790,1984,-168,-480,-40,93,5
7795,2016,-144,-472,-33,91,5
7800,2008,-136,-448,-29,95,10
7805,2000,-136,-456,-26,98,16
7810,2024,-144,-496,-27,97,19
7815,2032,-160,-464,-31,91,18
7820,2000,-144,-448,-33,84,19
7825,2016,-160,-456,-32,75,18
7830,1992,-136,-472,-31,65,17
7835,2008,-152,-496,-29,57,15
7840,1992,-144,-488,-29,48,12
7845,2024,-152,-472,-29,42,9
7850,2008,-152,-496,-26,38,6
7855,1984,-112,-488,-19,34,6
7860,1976,-120,-496,-19,34,8
7865,2000,-152,-504,-21,34,10
7870,2008,-128,-472,-22,31,10
7875,1976,-120,-464,-21,27,10
7880,2008,-128,-488,-17,24,11
7885,2024,-136,-512,-14,20,12
7890,2032,-136,-512,-13,18,12
7895,2040,-152,-400,-8,18,10
7900,2008,-152,-488,-6,19,6
7905,2024,-160,-528,-2,20,4
7910,1992,-128,-536,1,22,2
7915,2032,-128,-528,2,23,-1
7920,2024,-128,-520,-1,30,-3
7925,2008,-144,-512,-5,39,-4
7930,2024,-128,-504,-8,46,-5
7935,1992,-128,-544,-9,54,-4
7940,2000,-120,-520,-10,62,-3
7945,1992,-112,-528,-12,69,-2
7950,2000,-152,-536,-14,73,0
7955,2000,-136,-504,-14,77,2
7960,1984,-160,-496,-16,80,1
7965,2008,-168,-488,-18,81,2
7970,2000,-128,-488,-19,81,3
7975,2000,-152,-504,-22,81,1
7980,1992,-160,-512,-25,77,-2
7985,1984,-120,-512,-25,74,-6
7990,1976,-144,-512,-26,70,-7
7995,1992,-128,-496,-25,66,-11
8000,2008,-128,-536,-25,61,-14
8005,1968,-208,-528,-25,59,-15
8010,2008,-152,-496,-31,56,-17
8015,2000,-136,-544,-36,56,-19
8020,1992,-120,-512,-40,58,-20
8025,2008,-136,-544,-44,60,-22
8030,2000,-88,-504,-46,64,-22
8035,2008,-120,-504,-46,67,-24
8040,2032,-120,-528,-44,67,-25
8045,2008,-128,-512,-42,67,-25
8050,2000,-104,-504,-40,67,-23
8055,2024,-160,-480,-37,66,-22
8060,2000,-128,-512,-36,66,-21
8065,2000,-136,-504,-35,65,-19
8070,1976,-136,-512,-34,62,-18
8075,2016,-120,-480,-33,59,-19
8080,1992,-120,-480,-30,54,-19
8085,2008,-152,-488,-28,50,-19
8090,1992,-96,-512,-25,48,-21
8095,2024,-120,-528,-23,46,-21
8100,2016,-136,-488,-23,47,-23
8105,2016,-136,-528,-21,46,-23
8110,1984,-136,-512,-19,48,-23
8115,2008,-144,-440,-18,51,-22
8120,2008,-128,-552,-19,54,-22
8125,1984,-104,-520,-17,59,-20
8130,2016,-128,-544,-17,62,-18
8135,2008,-128,-544,-16,65,-18
8140,2024,-96,-552,-14,68,-17
8145,2008,-128,-520,-14,73,-17
8150,2008,-128,-520,-13,77,-18
8155,2008,-104,-528,-11,83,-18
8160,2000,-96,-552,-8,85,-21
8165,2000,-104,-536,-8,89,-22
8170,2000,-136,-536,-7,94,-23
8175,2008,-112,-504,-8,100,-23
8180,1992,-120,-528,-8,105,-23
8185,1984,-104,-528,-7,110,-21
8190,1984,-120,-496,-6,115,-19
8195,1992,-104,-488,-2,118,-15
8200,1984,-96,-496,1,122,-13
8205,1992,-96,-504,1,123,-12
8210,1992,-96,-536,0,125,-11
8215,2016,-120,-512,-3,126,-10
8220,2008,-72,-512,-5,127,-11
8225,2024,-64,-544,-9,124,-11
8230,2032,-120,-496,-12,121,-12
8235,2008,-80,-528,-13,119,-13
8240,2024,-128,-512,-16,116,-15
8245,2024,-96,-536,-18,116,-16
8250,2024,-104,-504,-17,116,-18
8255,2008,-112,-504,-17,116,-19
8260,2024,-104,-520,-18,117,-17
8265,2016,-120,-496,-18,118,-16
8270,1992,-80,-472,-23,120,-15
8275,2000,-104,-488,-26,124,-12
8280,1968,-104,-504,-29,126,-9
8285,1992,-104,-504,-30,129,-6
8290,1992,-128,-496,-30,130,-2
8295,2000,-120,-496,-25,132,0
8300,1992,-136,-480,-19,134,1
8305,2016,-120,-504,-13,136,-1
8310,2016,-128,-504,-8,138,-3
8315,2024,-112,-528,-5,138,-4
8320,1992,-112,-504,-3,139,-7
8325,2024,-104,-504,-3,140,-9
8330,2008,-88,-520,-7,140,-12
8335,1992,-168,-568,-11,141,-11
8340,2008,-104,-504,-14,141,-12
8345,2024,-104,-480,-17,140,-10
8350,2032,-88,-480,-19,139,-8
8355,2032,-104,-464,-23,138,-6
8360,2024,-112,-496,-24,137,-5
8365,2016,-104,-496,-25,135,-1
8370,1992,-120,-504,-26,132,2
8375,2008,-88,-448,-25,129,3
8380,1992,-112,-488,-28,125,5
8385,2008,-112,-472,-28,122,6
8390,2040,-128,-464,-25,119,6
8395,2016,-128,-480,-22,118,6
8400,2032,-120,-496,-20,116,5
8405,2040,-128,-480,-19,115,4
8410,2024,-112,-472,-17,114,1
8415,2000,-120,-456,-16,114,-1
8420,2024,-128,-496,-16,112,-2
8425,2016,-128,-472,-16,112,-4
8430,2032,-128,-456,-17,110,-5
8435,2008,-96,-480,-20,109,-5
8440,2040,-88,-496,-20,107,-7
8445,2024,-136,-472,-19,106,-6
8450,2008,-128,-480,-17,104,-8
8455,2032,-136,-472,-16,102,-6
8460,2016,-136,-440,-14,101,-5
8465,1992,-128,-456,-10,99,-6
8470,2032,-120,-464,-8,97,-6
8475,2016,-136,-432,-5,97,-6
8480,1992,-104,-464,-4,98,-6
8485,2024,-136,-448,-3,97,-8
8490,2016,-128,-480,-1,97,-7
8495,2016,-128,-448,0,95,-9
8500,2000,-104,-464,2,95,-10
8505,2016,-120,-488,3,95,-10
8510,2016,-136,-472,4,96,-13
8515,2000,-96,-456,5,95,-14
8520,2008,-104,-472,6,98,-15
8525,2000,-112,-480,6,99,-16
8530,2000,-104,-480,7,101,-19
8535,1992,-112,-464,8,101,-20
8540,2000,-88,-504,7,102,-20
8545,2008,-104,-464,8,103,-19
8550,1960,-64,-464,8,105,-18
8555,1992,-96,-472,7,108,-17
8560,2008,-96,-480,7,108,-15
8565,1992,-104,-456,6,110,-15
8570,2008,-112,-464,9,110,-12
8575,2000,-96,-456,10,111,-12
8580,2024,-104,-464,12,109,-11
8585,2024,-104,-456,13,108,-10
8590,2008,-104,-472,13,109,-10
8595,2008,-88,-448,13,105,-12
8600,2032,-80,-448,11,104,-15
8605,2008,-88,-464,9,101,-13
8610,1984,-96,-448,8,99,-12
8615,2008,-80,-448,7,97,-9
8620,2024,-104,-480,5,95,-8
8625,2032,-112,-456,5,93,-7
8630,2008,-72,-464,5,90,-6
8635,2000,-80,-424,8,86,-4
8640,2032,-104,-464,7,81,-3
8645,2008,-88,-480,8,79,0
8650,2016,-104,-440,8,76,0
8655,2000,-96,-472,9,77,-1
8660,2016,-128,-496,8,77,0
8665,2024,-88,-464,6,78,-1
8670,2016,-104,-440,5,79,-2
8675,2016,-96,-480,4,82,-1
8680,2016,-96,-448,2,83,1
8685,2024,-104,-456,2,86,0
8690,2024,-88,-456,3,87,1
8695,2024,-112,-456,3,88,3
8700,1976,-96,-456,3,88,3
8705,2008,-88,-440,0,88,0
8710,1984,-72,-456,-3,87,2
8715,2016,-104,-440,-7,87,0
8720,1984,-104,-456,-12,85,0
8725,1984,-96,-464,-17,83,2
8730,2000,-112,-416,-20,80,3
8735,1968,-112,-432,-21,76,5
8740,2000,-128,-456,-21,74,6
8745,2008,-136,-424,-21,71,6
8750,2008,-128,-440,-24,68,5
8755,2016,-120,-440,-27,63,5
8760,2016,-128,-456,-31,58,3
8765,1992,-136,-456,-34,55,1
8770,2016,-96,-368,-37,52,2
8775,2000,-128,-432,-38,49,0
8780,2008,-128,-448,-40,49,1
8785,2040,-120,-488,-39,49,0
8790,2008,-120,-448,-38,48,-1
8795,2032,-128,-464,-39,48,0
8800,2016,-136,-488,-36,49,-2
8805,2040,-136,-472,-32,49,-1
8810,2008,-112,-480,-28,48,-4
8815,2032,-136,-472,-26,48,-4
8820,2032,-128,-472,-25,48,-6
8825,2024,-120,-488,-23,49,-6
8830,2024,-128,-488,-19,49,-8
8835,2008,-104,-456,-16,47,-9
8840,2024,-112,-488,-12,47,-12
8845,2032,-120,-488,-10,49,-13
8850,2000,-120,-512,-7,50,-13
8855,2040,-112,-472,-6,50,-14
8860,2016,-104,-432,-4,54,-15
8865,2032,-128,-472,-2,54,-16
8870,2000,-104,-432,-3,55,-16
8875,2000,-128,-504,-2,57,-16
8880,2008,-112,-448,-1,60,-17
8885,2008,-104,-488,1,61,-17
8890,2008,-88,-464,3,62,-17
8895,2000,-112,-456,1,65,-19
8900,2008,-120,-472,1,68,-20
8905,1992,-88,-488,2,72,-19
8910,2024,-104,-480,2,74,-19
8915,2016,-112,-456,0,74,-19
8920,2016,-96,-424,-1,76,-19
8925,2024,-104,-464,-3,77,-20
8930,2016,-104,-448,-6,77,-19
8935,2016,-104,-432,-9,78,-18
8940,2008,-120,-440,-11,76,-15
8945,1984,-80,-472,-14,73,-13
8950,2008,-96,-448,-16,70,-12
8955,2016,-88,-480,-20,66,-10
8960,1984,-96,-448,-23,62,-8
8965,2016,-104,-440,-25,59,-6
8970,2008,-96,-472,-27,55,-2
8975,2008,-104,-456,-30,52,2
8980,2000,-88,-432,-29,47,4
8985,2040,-104,-376,-29,45,5
8990,2000,-120,-464,-29,42,6
8995,2024,-96,-448,-28,42,6
9000,2016,-104,-464,-24,41,5
9005,2000,-104,-472,-23,39,4
9010,2008,-88,-424,-23,37,0
9015,2016,-104,-440,-23,36,-1
9020,2008,-120,-456,-25,36,-3
9025,2008,-88,-432,-28,33,-1
9030,2000,-96,-440,-32,32,-1
9035,2000,-104,-440,-37,30,1
9040,1976,-16,-472,-40,27,3
9045,1984,-128,-448,-43,24,7
9050,2008,-72,-456,-45,22,8
9055,2000,-96,-448,-47,19,9
9060,2008,-104,-440,-46,16,9
9065,2008,-112,-448,-47,15,9
9070,2024,-88,-472,-46,12,8
9075,2024,-96,-448,-43,11,10
9080,2008,-128,-480,-41,11,10
9085,2040,-120,-440,-39,11,10
9090,2016,-112,-496,-35,11,10
9095,1992,-120,-408,-34,11,13
9100,2016,-104,-432,-34,10,12
9105,2016,-96,-480,-35,9,14
9110,2008,-72,-504,-36,7,15
9115,2000,-112,-472,-37,5,17
9120,2008,-96,-472,-39,1,19
9125,2016,-112,-472,-40,-2,22
9130,1936,-120,-480,-42,-4,23
9135,2016,-104,-496,-42,-3,24
9140,2040,-120,-496,-40,3,20
9145,2024,-104,-480,-39,-3,21
9150,2016,-120,-488,-41,-8,21
9155,2024,-128,-480,-40,-11,21
9160,2008,-112,-464,-38,-13,18
9165,2016,-96,-520,-36,-13,16
9170,2008,-96,-464,-34,-12,16
9175,2008,-128,-464,-32,-10,14
9180,2008,-112,-480,-33,-5,12
9185,2008,-128,-464,-32,1,12
9190,2016,-120,-480,-31,8,11
9195,1992,-96,-480,-30,11,10
9200,2000,-120,-504,-30,9,11
9205,2040,-104,-552,-30,8,10
9210,2016,-112,-480,-32,8,9
9215,1992,-104,-496,-32,11,10
9220,2008,-120,-464,-34,13,10
9225,2008,-112,-504,-35,11,10
9230,2008,-104,-488,-35,10,10
9235,1992,-104,-496,-37,11,11
9240,2024,-96,-496,-37,9,10
9245,2016,-104,-504,-37,10,11
9250,1992,-80,-456,-37,9,11
9255,2008,-128,-472,-37,6,11
9260,2008,-152,-520,-35,4,12
9265,1992,-128,-520,-34,3,13
9270,2008,-152,-496,-32,0,14
9275,2016,-120,-496,-31,0,12
9280,2008,-128,-528,-28,0,11
9285,1992,-144,-504,-26,1,8
9290,1992,-136,-536,-25,3,6
9295,1992,-104,-512,-24,3,3
9300,2040,-120,-504,-25,3,2
9305,2008,-120,-568,-26,2,-3
9310,1992,-96,-520,-26,4,-5
9315,1960,-96,-520,-28,5,-5
9320,1992,-120,-528,-28,3,-6
9325,2008,-120,-536,-28,2,-5
9330,1984,-128,-520,-28,3,-3
9335,2008,-136,-520,-28,7,0
9340,2016,-120,-512,-25,8,2
9345,2000,-128,-520,-21,11,2
9350,2008,-136,-536,-20,9,4
9355,1984,-80,-520,-19,6,6
9360,1992,-112,-536,-17,3,7
9365,2000,-136,-520,-18,4,6
9370,1976,-88,-496,-20,2,5
9375,2000,-120,-496,-20,1,5
9380,2008,-104,-528,-20,1,4
9385,1984,-112,-520,-21,1,5
9390,2000,-136,-520,-22,0,6
9395,1976,-112,-520,-22,-2,7
9400,2024,-104,-512,-23,-4,8
9405,1976,-120,-536,-19,-5,9
9410,2000,-120,-528,-16,-8,9
9415,2016,-136,-504,-12,-9,8
9420,2008,-64,-560,-8,-10,8
9425,1984,-120,-544,-5,-7,7
9430,2008,-112,-544,0,-3,4
9435,1976,-112,-544,4,1,1
9440,2000,-104,-544,4,6,0
9445,2008,-120,-536,4,14,-2
9450,2000,-104,-592,3,22,-2
9455,2016,-112,-552,4,31,-1
9460,2000,-96,-536,4,43,-2
9465,1992,-136,-528,2,53,0
9470,2008,-120,-552,0,58,1
9475,1984,-120,-536,-6,61,1
9480,2000,-136,-504,-12,57,1
9485,1984,-128,-520,-17,54,3
9490,1984,-136,-512,-21,48,3
9495,2000,-112,-504,-25,45,5
9500,1984,-96,-504,-24,39,7
9505,1992,-128,-496,-23,30,10
9510,1992,-136,-512,-20,20,10
9515,2000,-136,-512,-19,10,9
9520,1968,-144,-488,-18,1,9
9525,1976,-128,-520,-18,-7,7
9530,1968,-168,-504,-19,-14,6
9535,1992,-120,-472,-20,-21,4
9540,2008,-136,-536,-21,-25,3
9545,2000,-136,-528,-22,-27,2
9550,1992,-104,-536,-21,-27,0
9555,2016,-120,-544,-20,-25,-3
9560,1992,-136,-552,-15,-18,-4
9565,1976,-112,-536,-12,-11,-5
9570,1992,-128,-560,-9,-7,-7
9575,1976,-88,-560,-8,-5,-6
9580,1976,-88,-592,-6,0,-8
9585,2008,-112,-576,-6,4,-6
9590,2000,-112,-560,-8,5,-2
9595,2000,-120,-576,-10,7,-2
9600,2000,-80,-536,-11,8,-1
9605,1984,-96,-600,-13,9,1
9610,1992,-120,-560,-16,8,3
9615,2000,-104,-552,-17,5,3
9620,1984,-128,-560,-19,3,3
9625,2016,-120,-568,-19,2,5
9630,1984,-112,-568,-21,0,7
9635,2016,-112,-536,-21,-2,9
9640,1984,-176,-568,-20,-2,9
9645,1992,-128,-544,-20,-1,11
9650,1976,-120,-544,-19,-1,12
9655,1976,-120,-576,-18,-3,12
9660,2016,-136,-560,-18,-8,13
9665,1976,-128,-584,-15,-9,11
9670,1984,-120,-552,-16,-12,10
9675,1984,-120,-576,-16,-13,10
9680,1976,-136,-576,-19,-10,10
9685,1968,-128,-560,-21,-7,7
9690,1960,-120,-560,-22,-1,4
9695,1992,-112,-576,-22,3,3
9700,2000,-128,-552,-23,6,-1
9705,1968,-104,-576,-20,14,-5
9710,2000,-128,-552,-19,12,-5
9715,1968,-88,-584,-21,8,-4
9720,1976,-112,-576,-23,6,-2
9725,1984,-96,-584,-23,8,-2
9730,1984,-120,-576,-23,13,0
9735,2008,-136,-592,-23,20,4
9740,1992,-128,-560,-22,27,8
9745,1984,-128,-592,-21,34,10
9750,1920,-136,-592,-18,38,11
9755,2000,-136,-584,-17,41,11
9760,1968,-120,-576,-15,44,9
9765,2016,-136,-560,-14,47,6
9770,2000,-128,-560,-10,51,0
9775,1968,-96,-600,-10,48,-1
9780,1976,-96,-600,-16,41,-4
9785,1968,-96,-600,-18,39,-7
9790,1992,-128,-608,-25,36,-6
9795,1992,-120,-576,-29,33,-7
9800,1944,-128,-568,-30,32,-6
9805,1976,-120,-584,-32,30,-5
9810,1952,-120,-560,-30,30,-4
9815,1976,-104,-576,-30,28,-2
9820,1960,-104,-560,-27,25,-2
9825,1976,-104,-568,-25,23,-1
9830,1952,-112,-584,-24,20,0
9835,1976,-144,-592,-24,19,-1
9840,1976,-120,-552,-22,19,-1
9845,1984,-120,-600,-21,21,-2
9850,2000,-136,-560,-19,23,-2
9855,2016,-144,-592,-18,24,-4
9860,1968,-88,-528,-16,25,-3
9865,1992,-112,-576,-15,26,-5
9870,1992,-136,-600,-15,30,-6
9875,2008,-136,-600,-14,34,-7
9880,1984,-104,-592,-14,38,-6
9885,1968,-112,-600,-14,40,-7
9890,1984,-128,-632,-14,44,-5
9895,1992,-112,-600,-13,48,-4
9900,2016,-96,-584,-13,52,-4
9905,1976,-112,-584,-12,55,-4
9910,1976,-136,-608,-12,57,-2
9915,1984,-112,-592,-10,58,-3
9920,1976,-104,-600,-12,58,-2
9925,1992,-112,-608,-10,59,-4
9930,1960,-96,-616,-11,60,-4
9935,1968,-88,-608,-10,60,-4
9940,1976,-120,-616,-10,62,-6
9945,2000,-112,-592,-9,66,-5
9950,1992,-104,-616,-12,70,-5
9955,1976,-88,-592,-13,74,-5
9960,1984,-96,-568,-14,77,-3
9965,1976,-160,-592,-13,80,-3
9970,1976,-136,-592,-14,82,-3
9975,1960,-112,-584,-13,84,0
9980,1976,-136,-576,-11,87,0
9985,1976,-120,-624,-9,87,-1
9990,1976,-96,-600,-7,89,-2
9995,1984,-120,-616,-5,90,-2
10000,1976,-136,-584,-4,90,-1
10005,2000,-152,-600,-3,96,-1
10010,1960,-88,-600,-4,98,-3
10015,1992,-120,-568,-6,100,-4
10020,1968,-112,-592,-8,103,-3
10025,2000,-112,-600,-11,107,-5
10030,1960,-112,-592,-14,109,-3
10035,2008,-136,-568,-14,110,-2
10040,1976,-136,-560,-15,108,-1
10045,2000,-144,-592,-17,106,1
10050,1984,-136,-544,-16,102,1
10055,1984,-128,-552,-13,99,0
10060,1968,-136,-544,-11,95,0
10065,1976,-112,-584,-9,92,1
10070,1984,-120,-576,-8,89,-2
10075,1992,-96,-640,-7,85,-6
10080,1968,-112,-576,-8,83,-7
10085,1960,-104,-560,-10,83,-8
10090,1968,-128,-584,-12,85,-8
10095,2000,-120,-584,-14,85,-7
10100,1968,-136,-568,-14,85,-5
10105,1984,-120,-560,-13,84,-3
10110,1976,-136,-584,-12,83,-2
10115,1976,-120,-616,-8,80,0
10120,2008,-120,-568,-4,76,0
10125,2000,-152,-576,2,73,-2
10130,1976,-128,-584,6,73,-2
10135,1992,-112,-592,8,75,-4
10140,1976,-112,-608,11,80,-7
10145,2000,-104,-576,12,87,-10
10150,1992,-128,-632,10,96,-12
10155,1992,-120,-576,7,106,-13
10160,1976,-112,-592,3,116,-13
10165,1984,-112,-576,2,124,-12
10170,1984,-96,-600,0,131,-11
10175,2000,-120,-576,1,138,-11
10180,1976,-112,-592,2,143,-8
10185,1992,-32,-568,0,145,-8
10190,1968,-112,-576,-4,146,-7
10195,1976,-136,-576,-6,144,-7
10200,1976,-112,-544,-12,143,-9
10205,1976,-96,-528,-16,142,-8
10210,1952,-136,-560,-19,135,-7
10215,1976,-120,-528,-20,132,-6
10220,1984,-144,-560,-18,125,-4
10225,2000,-136,-528,-13,120,-4
10230,1984,-120,-528,-9,113,-5
10235,1992,-152,-560,-4,109,-7
10240,1976,-120,-568,-1,104,-9
10245,1976,-128,-568,0,102,-12
10250,1976,-120,-584,0,101,-12
10255,1984,-104,-568,2,104,-14
10260,1992,-96,-544,-1,107,-16
10265,2000,-104,-592,-1,109,-16
10270,2000,-104,-576,0,112,-18
10275,1984,-112,-568,0,117,-18
10280,1968,-112,-584,2,123,-17
10285,1968,-96,-608,2,128,-17
10290,1984,-96,-584,3,135,-17
10295,1984,-56,-576,5,141,-17
10300,2008,-120,-584,6,148,-16
10305,1984,-104,-584,7,153,-16
10310,1984,-136,-576,9,159,-16
10315,2008,-120,-584,10,162,-15
10320,1984,-96,-584,11,165,-13
10325,2000,-128,-584,12,169,-12
10330,1976,-112,-576,13,172,-13
10335,1992,-112,-528,12,174,-12
10340,2000,-112,-544,12,176,-13
10345,2008,-96,-552,13,178,-13
10350,1984,-104,-560,14,180,-13
10355,1984,-80,-544,12,180,-13
10360,1992,-112,-536,11,182,-12
10365,2008,-112,-528,7,181,-12
10370,1984,-104,-504,3,181,-11
10375,1984,-104,-536,-1,178,-10
10380,2008,-128,-552,-3,175,-9
10385,1984,-112,-544,-5,170,-9
10390,2000,-104,-520,-7,167,-7
10395,1992,-112,-520,-7,165,-5
10400,1976,-96,-488,-6,161,-6
10405,2008,-104,-544,-6,159,-3
10410,2016,-104,-520,-6,156,-4
10415,1984,-120,-512,-7,154,-3
10420,1992,-96,-512,-7,151,-3
10425,2000,-96,-528,-8,148,-3
10430,2016,-120,-520,-12,145,-5
10435,2000,-104,-536,-15,143,-4
10440,2016,-104,-536,-17,139,-5
10445,2000,-88,-552,-19,137,-4
10450,1992,-96,-504,-21,133,-2
10455,2016,-128,-496,-22,129,-1
10460,1984,-128,-488,-21,125,2
10465,2000,-136,-512,-20,121,3
10470,1976,-128,-480,-16,118,4
10475,2024,-128,-520,-14,114,5
10480,2000,-144,-488,-13,113,4
10485,1992,-120,-520,-10,111,1
10490,2008,-120,-536,-10,109,-1
10495,2008,-144,-536,-11,108,-4
10500,2008,-128,-544,-11,108,-8
10505,1984,-128,-544,-11,110,-11
10510,2008,-72,-512,-13,112,-13
10515,2000,-104,-520,-13,113,-15
10520,1984,-128,-496,-14,115,-16
10525,2000,-136,-512,-16,117,-15
10530,1992,-112,-496,-17,119,-14
10535,2008,-128,-512,-16,121,-12
10540,2008,-112,-520,-15,120,-12
10545,1992,-96,-512,-14,120,-12
10550,1992,-96,-512,-13,121,-12
10555,1984,-96,-512,-13,122,-11
10560,2000,-104,-544,-11,120,-11
10565,1992,-120,-544,-10,121,-9
10570,2008,-104,-504,-10,119,-9
10575,1992,-104,-520,-9,117,-10
10580,1992,-104,-504,-11,117,-11
10585,1984,-104,-536,-13,115,-10
10590,2008,-112,-512,-14,113,-11
10595,1984,-120,-488,-14,112,-11
10600,2016,-96,-528,-13,112,-10
10605,2008,-104,-512,-13,112,-9
10610,1992,-104,-504,-13,110,-8
10615,2000,-104,-520,-10,109,-7
10620,2032,-112,-552,-10,109,-6
10625,1992,-120,-480,-7,107,-5
10630,2008,-104,-520,-5,108,-3
10635,2008,-104,-488,-5,109,-4
10640,1984,-88,-512,-4,109,-6
10645,1984,-104,-512,-3,108,-5
10650,2000,-128,-480,-5,108,-5
10655,1992,-88,-536,-6,107,-6
10660,2000,-112,-488,-8,110,-5
10665,1968,-112,-488,-9,110,-5
10670,1984,-80,-488,-11,110,-6
10675,2000,-112,-512,-10,110,-5
10680,2000,-80,-496,-11,112,-4
10685,1984,-120,-488,-12,113,-5
10690,2000,-96,-504,-13,113,-3
10695,2000,-112,-488,-13,113,-1
10700,2008,-104,-504,-13,111,1
10705,2008,-104,-488,-13,111,1
10710,2000,-104,-432,-15,111,1
10715,2000,-104,-480,-15,110,2
10720,2008,-104,-472,-18,105,3
10725,2008,-88,-496,-20,104,4
10730,1984,-128,-512,-22,102,4
10735,2008,-112,-448,-23,98,4
10740,2016,-128,-472,-25,95,4
10745,2000,-104,-480,-24,92,5
10750,2016,-104,-496,-25,89,6
10755,2024,-120,-488,-24,86,5
10760,2040,-128,-488,-24,84,5
10765,2008,-96,-488,-23,81,5
10770,2000,-120,-472,-22,80,4
10775,2000,-96,-480,-20,77,3
10780,2016,-128,-504,-17,76,6
10785,2008,-128,-480,-15,76,5
10790,2000,-120,-464,-16,74,6
10795,2008,-112,-488,-18,73,6
10800,2000,-120,-520,-21,75,3
10805,2008,-120,-520,-21,75,2
10810,2008,-128,-464,-21,78,2
10815,2000,-112,-472,-19,81,2
10820,1992,-128,-480,-16,81,2
10825,2016,-120,-488,-17,82,0
10830,2016,-104,-472,-17,85,0
10835,2016,-112,-480,-17,85,-3
10840,2000,-144,-472,-17,87,-3
10845,1992,-112,-496,-17,87,-4
10850,2000,-104,-520,-17,88,-5
10855,2008,-128,-464,-18,87,-6
10860,2008,-112,-488,-18,89,-6
10865,2000,-136,-488,-18,86,-5
10870,2016,-128,-472,-16,87,-6
10875,2000,-120,-488,-16,87,-5
10880,2008,-136,-504,-14,85,-5
10885,2000,-120,-472,-12,83,-5
10890,2016,-104,-456,-10,83,-6
10895,2008,-136,-512,-9,82,-6
10900,2016,-120,-464,-7,81,-6
10905,1992,-112,-472,-8,80,-9
10910,1992,-120,-488,-9,79,-12
10915,1984,-88,-472,-11,76,-13
10920,2008,-112,-472,-13,78,-14
10925,2032,-136,-480,-14,78,-13
10930,2008,-96,-488,-16,78,-12
10935,1984,-128,-432,-15,77,-10
10940,2016,-120,-448,-11,76,-7
10945,2040,-112,-472,-8,76,-5
10950,2008,-112,-480,-5,73,-5
10955,2008,-112,-472,-3,72,-5
10960,2008,-104,-488,-1,71,-5
10965,2024,-104,-464,0,70,-8
10970,2008,-120,-504,-2,71,-8
10975,2024,-120,-488,-2,73,-8
10980,2000,-104,-488,-2,76,-9
10985,2000,-104,-496,-4,80,-8
10990,2024,-120,-512,-2,82,-6
10995,2016,-88,-480,0,88,-5
11000,2000,-112,-504,2,91,-4
11005,2016,-120,-488,7,96,-2
11010,2000,-136,-488,9,99,-3
11015,2016,-128,-512,11,102,-3
11020,1984,-96,-504,10,105,-6
11025,2024,-96,-504,8,107,-10
11030,2016,-112,-488,4,108,-14
11035,2008,-96,-488,-1,108,-15
11040,2000,-112,-488,-3,110,-18
11045,1976,-120,-472,-5,108,-19
11050,2008,-112,-440,-6,109,-17
11055,2016,-144,-456,-5,108,-15
11060,2016,-120,-472,-5,108,-15
11065,2000,-96,-480,-5,106,-16
11070,1992,-112,-488,-6,105,-15
11075,2024,-120,-480,-6,103,-15
11080,2000,-104,-496,-6,102,-15
11085,2016,-96,-496,-7,103,-16
11090,2008,-96,-448,-8,103,-15
11095,2024,-112,-488,-10,103,-13
11100,2024,-120,-472,-12,104,-11
11105,2024,-112,-480,-12,103,-11
11110,2016,-80,-448,-14,102,-10
11115,2008,-96,-480,-14,101,-9
11120,2032,-112,-448,-14,98,-10
11125,2024,-112,-472,-13,95,-9
11130,2032,-120,-456,-10,94,-8
11135,2016,-120,-456,-10,93,-9
11140,2024,-112,-504,-10,92,-8
11145,2024,-120,-488,-10,90,-9
11150,2032,-104,-464,-9,90,-9
11155,2040,-120,-464,-9,91,-10
11160,2016,-104,-480,-9,93,-12
11165,2040,-72,-568,-9,96,-14
11170,2032,-112,-496,-9,100,-15
11175,2032,-88,-504,-10,103,-18
11180,2024,-120,-464,-10,108,-18
11185,2016,-120,-480,-9,114,-19
11190,2016,-104,-520,-9,118,-19
11195,2016,-104,-440,-10,121,-20
11200,2024,-112,-464,-12,124,-18
11205,2000,-96,-472,-10,126,-16
11210,2000,-96,-456,-11,127,-16
11215,2016,-104,-432,-10,127,-16
11220,1984,-104,-456,-12,126,-14
11225,2016,-80,-464,-12,122,-13
11230,2000,-96,-440,-12,119,-11
11235,1984,-56,-488,-12,115,-9
11240,2000,-80,-432,-10,111,-7
11245,1992,-80,-456,-11,108,-6
11250,1992,-104,-456,-12,104,-5
11255,2024,-104,-464,-11,100,-4
11260,2000,-96,-456,-13,96,-4
11265,2008,-96,-448,-13,93,-3
11270,2008,-120,-448,-13,90,-1
11275,1968,-40,-480,-13,88,-2
11280,2008,-104,-440,-15,85,-1
11285,2024,-128,-464,-15,84,1
11290,2008,-96,-456,-15,85,3
11295,1992,-104,-464,-13,84,6
11300,2024,-112,-504,-12,83,7
11305,2008,-104,-432,-10,82,6
11310,2024,-96,-456,-10,83,5
11315,2008,-88,-456,-10,80,2
11320,2008,-120,-440,-9,80,1
11325,2008,-120,-448,-8,79,-2
11330,2024,-120,-472,-10,79,-4
11335,2024,-128,-448,-10,78,-7
11340,2016,-96,-448,-9,78,-9
11345,2008,-112,-440,-10,78,-10
11350,2000,-104,-456,-10,78,-12
11355,2000,-80,-448,-15,80,-12
11360,2024,-96,-432,-16,80,-13
11365,2008,-112,-448,-18,79,-11
11370,1984,-80,-440,-20,79,-8
11375,2000,-104,-424,-21,79,-5
11380,2000,-112,-464,-20,78,-3
11385,2016,-96,-416,-20,78,-1
11390,2024,-112,-456,-20,75,1
11395,2016,-104,-472,-20,75,1
11400,2024,-120,-456,-18,72,2
11405,2040,-96,-432,-17,72,0
11410,2016,-120,-464,-14,71,-1
11415,2000,-96,-432,-12,68,0
11420,2000,-104,-440,-12,69,-3
11425,2024,-104,-456,-12,67,-3
11430,2024,-80,-480,-12,65,-3
11435,2008,-88,-456,-12,66,-4
11440,2024,-88,-464,-14,66,-4
11445,2008,-96,-456,-14,67,-3
11450,2008,-104,-480,-16,69,-3
11455,2008,-88,-448,-15,68,-2
11460,2016,-104,-464,-14,69,-1
11465,2016,-128,-456,-13,72,-2
11470,2016,-112,-448,-12,72,0
11475,2016,-88,-472,-11,74,-2
11480,2024,-112,-448,-9,75,-5
11485,2000,-112,-472,-8,76,-6
11490,2024,-96,-488,-7,78,-7
11495,2000,-96,-472,-5,79,-8
11500,2016,-104,-448,-6,81,-10
11505,2032,-104,-488,-8,82,-10
11510,2008,-88,-472,-10,82,-9
11515,2008,-104,-456,-11,84,-8
11520,2008,-104,-432,-13,86,-7
11525,2016,-96,-424,-14,87,-5
11530,2024,-88,-432,-15,88,-3
11535,2040,-104,-448,-16,89,-1
11540,2008,-96,-456,-15,88,0
11545,2016,-96,-408,-14,89,0
11550,2024,-104,-432,-14,87,0
11555,2016,-112,-432,-14,84,2
11560,2000,-104,-432,-14,80,3
11565,2008,-96,-432,-15,77,2
11570,2024,-104,-432,-15,75,1
11575,2008,-120,-432,-14,70,0
11580,2016,-112,-408,-17,67,0
11585,2008,-128,-456,-16,65,1
11590,2016,-104,-448,-16,65,1
11595,2008,-112,-440,-17,63,1
11600,2016,-136,-480,-16,63,1
11605,2016,-112,-440,-15,63,1
11610,2016,-128,-448,-15,63,1
11615,2040,-104,-416,-14,62,-1
11620,2040,-120,-464,-14,62,1
11625,2024,-120,-432,-13,61,1
11630,2024,-72,-480,-13,61,1
11635,2000,-88,-448,-13,62,1
11640,2000,-112,-448,-12,62,0
11645,2024,-104,-464,-14,63,0
11650,2016,-96,-424,-13,62,-3
11655,2024,-96,-440,-13,61,0
11660,2008,-72,-464,-14,61,-1
11665,2008,-88,-472,-14,61,-1
11670,2000,-120,-424,-14,60,-1
11675,2000,-104,-464,-14,58,-2
11680,2024,-104,-440,-14,59,-2
11685,2024,-128,-456,-12,58,-3
11690,2000,-96,-448,-12,58,-2
11695,2032,-112,-440,-10,58,-5
11700,2008,-120,-424,-10,57,-3
11705,2000,-88,-472,-9,58,-4
11710,2032,-176,-528,-6,60,-4
11715,2008,-104,-464,-5,62,-4
11720,2016,-104,-456,-5,62,-5
11725,2000,-96,-456,-6,62,-3
11730,2024,-88,-472,-5,62,-3
11735,2024,-120,-440,-6,63,-6
11740,1992,-104,-440,-7,63,-7
11745,2008,-96,-456,-9,63,-7
11750,2008,-80,-456,-9,64,-6
11755,1992,-120,-456,-12,65,-6
11760,2000,-96,-472,-14,64,-4
11765,2008,-112,-448,-13,66,-2
11770,2016,-104,-448,-10,66,0
11775,2016,-112,-416,-9,64,-1
11780,2032,-112,-456,-7,62,-2
11785,2016,-120,-440,-5,62,-1
11790,2024,-104,-456,-4,63,0
11795,2000,-96,-456,-4,61,0
11800,1992,-104,-424,-5,60,-2
11805,2016,-104,-448,-6,59,-5
11810,2000,-112,-424,-8,60,-7
11815,1992,-96,-432,-11,58,-9
11820,2032,-104,-528,-15,58,-8
11825,1992,-120,-464,-16,60,-6
11830,2016,-88,-456,-14,61,-5
11835,2024,-104,-456,-11,61,-1
11840,2016,-96,-456,-8,59,1
11845,2016,-96,-416,-4,58,0
11850,2024,-112,-440,-1,56,0
11855,2032,-128,-448,-1,53,1
11860,2000,-104,-464,-1,52,-1
11865,2032,-96,-448,-1,52,0
11870,2000,-80,-464,-2,53,0
11875,2024,-96,-472,-3,54,1
11880,2032,-104,-488,-5,57,2
11885,2024,-88,-488,-5,61,3
11890,2008,-112,-472,-3,64,3
11895,2016,-120,-464,-1,68,4
11900,2024,-112,-472,3,71,5
11905,2024,-144,-464,5,76,5
11910,2008,-120,-456,8,81,4
11915,2032,-112,-440,7,85,1
11920,2016,-112,-456,4,87,-4
11925,2024,-120,-448,0,89,-8
11930,2024,-88,-384,-7,92,-10
11935,1992,-88,-424,-10,92,-12
11940,2000,-104,-440,-13,92,-11
11945,2000,-88,-448,-14,88,-8
11950,2016,-104,-448,-13,86,-7
11955,2016,-112,-440,-12,83,-7
11960,2016,-104,-432,-11,81,-9
11965,2016,-128,-448,-10,75,-9
11970,2024,-88,-416,-11,72,-8
11975,2032,-88,-448,-11,69,-7
11980,2016,-96,-440,-12,66,-8
11985,2016,-128,-432,-12,64,-7
11990,1992,-104,-472,-14,65,-8
11995,2016,-120,-432,-13,63,-8
12000,2024,-104,-432,-13,63,-9
12005,2016,-104,-432,-14,61,-9
12010,2016,-96,-472,-14,59,-7
12015,2024,-112,-440,-14,56,-7
12020,2024,-112,-440,-14,52,-7
12025,2008,-112,-448,-14,48,-5
12030,2016,-104,-448,-15,46,-3
12035,2016,-80,-488,-15,43,-3
12040,2016,-80,-456,-14,40,-2
12045,2024,-96,-448,-14,36,-1
12050,2008,-80,-432,-16,33,1
12055,2000,-80,-432,-17,31,2
12060,2016,-96,-464,-18,29,1
12065,2016,-112,-448,-19,26,2
12070,2016,-96,-472,-18,26,3
12075,2024,-88,-440,-17,25,3
12080,2024,-120,-472,-18,23,5
12085,2008,-88,-448,-17,21,5
12090,2008,-128,-448,-17,20,4
12095,2008,-104,-472,-16,18,4
12100,2000,-104,-456,-17,17,5
12105,2016,-96,-440,-15,15,5
12110,2016,-104,-472,-15,14,4
12115,2008,-112,-456,-16,15,3
12120,2008,-96,-496,-15,13,6
12125,2016,-112,-464,-16,14,5
12130,2024,-96,-464,-17,12,7
12135,2008,-80,-448,-18,12,8
12140,2024,-96,-480,-18,10,9
12145,2024,-112,-464,-18,9,8
12150,2016,-96,-488,-19,4,10
12155,1984,-104,-456,-20,2,12
12160,2032,-128,-456,-22,-1,14
12165,2016,-96,-488,-24,-3,16
12170,2000,-112,-464,-25,-5,17
12175,2008,-96,-480,-27,-5,16
12180,2000,-96,-488,-28,-7,16
12185,2008,-104,-464,-27,-8,18
12190,2016,-128,-504,-25,-9,20
12195,2016,-120,-496,-23,-8,23
12200,2040,-136,-488,-20,-7,22
12205,2040,-120,-456,-16,-7,20
12210,2016,-120,-472,-14,-6,19
12215,2008,-120,-480,-14,-4,15
12220,2008,-120,-512,-14,-2,13
12225,2000,-96,-480,-16,-1,11
12230,2016,-112,-512,-17,1,9
12235,2008,-112,-488,-19,3,8
12240,1992,-72,-480,-20,3,6
12245,2000,-104,-488,-22,3,6
12250,2000,-120,-456,-23,1,5
12255,2024,-160,-632,-24,-1,7
12260,1984,-112,-480,-25,-4,8
12265,1984,-112,-496,-26,-8,11
12270,1992,-112,-472,-27,-11,15
12275,1992,-112,-480,-26,-14,17
12280,2000,-112,-496,-24,-17,17
12285,2024,-112,-496,-23,-20,17
12290,1992,-112,-488,-22,-23,16
12295,2016,-136,-472,-19,-25,14
12300,2024,-120,-488,-18,-27,9
12305,2016,-120,-504,-18,-26,6
12310,2032,-96,-496,-16,-26,6
12315,2032,-128,-512,-15,-25,6
12320,2016,-112,-520,-14,-22,4
12325,2000,-104,-528,-12,-20,3
12330,1976,-112,-520,-13,-19,3
12335,1984,-96,-520,-13,-18,5
12340,2000,-112,-520,-13,-16,6
12345,2008,-112,-512,-13,-16,8
12350,1984,-96,-504,-13,-13,9
12355,2016,-136,-528,-13,-13,10
12360,2000,-112,-496,-12,-11,12
12365,2048,-136,-464,-11,-9,11
12370,2000,-112,-496,-12,-9,8
12375,2008,-136,-528,-12,-9,9
12380,2008,-120,-504,-12,-7,9
12385,2008,-128,-544,-12,-6,8
12390,2008,-128,-512,-13,-4,7
12395,2016,-120,-544,-14,-4,7
12400,2000,-120,-504,-13,-3,5
12405,2000,-104,-480,-14,-2,4
12410,2000,-120,-496,-13,-1,5
12415,2000,-112,-528,-12,1,4
12420,2000,-128,-512,-11,1,5
12425,2000,-120,-520,-10,1,5
12430,1992,-120,-552,-11,1,6
12435,2008,-112,-528,-11,3,6
12440,1984,-128,-504,-13,2,6
12445,1992,-96,-552,-11,2,9
12450,1992,-112,-528,-11,0,9
12455,2000,-128,-552,-11,-2,9
12460,1992,-128,-520,-11,-3,10
12465,1992,-128,-520,-11,-4,10
12470,1984,-104,-528,-10,-4,9
12475,2000,-128,-544,-12,-3,9
12480,1992,-128,-520,-12,-3,9
12485,1952,-96,-520,-15,-3,8
12490,1976,-104,-552,-12,-2,8
12495,1984,-120,-560,-13,-2,6
12500,1984,-136,-544,-12,-3,6
12505,1984,-120,-520,-12,-1,6
12510,2000,-104,-536,-13,1,6
12515,2008,-120,-528,-13,0,6
12520,1992,-112,-536,-13,0,8
12525,1992,-96,-552,-12,-2,8
12530,1992,-96,-528,-12,-2,10
12535,2000,-112,-496,-12,-2,8
12540,1992,-128,-552,-13,-2,9
12545,1984,-104,-528,-13,-2,8
12550,1976,-96,-544,-14,-3,6
12555,1976,-112,-512,-13,-4,6
12560,2016,-120,-552,-13,-5,7
12565,1992,-128,-560,-13,-5,7
12570,2024,-144,-568,-12,-8,8
12575,1984,-120,-536,-11,-9,9
12580,1992,-128,-584,-10,-10,9
12585,1984,-136,-520,-9,-11,8
12590,1984,-120,-536,-6,-11,7
12595,1968,-112,-536,-5,-12,6
12600,2008,-136,-560,-4,-12,6
12605,1968,-128,-536,-2,-12,6
12610,1984,-104,-552,-3,-10,3
12615,1976,-152,-568,-3,-8,1
12620,1992,-112,-576,-4,-7,0
12625,2008,-152,-560,-7,-5,0
12630,1984,-128,-544,-7,-1,-1
12635,1960,-96,-560,-9,0,0
12640,1976,-120,-552,-10,3,1
12645,2008,-120,-560,-10,4,2
12650,2000,-128,-560,-9,6,3
12655,1992,-136,-576,-8,5,6
12660,1992,-152,-560,-7,4,8
12665,1976,-136,-576,-5,2,9
12670,1960,-144,-576,-3,1,8
12675,1984,-104,-584,-2,1,6
12680,1984,-136,-576,-2,-1,6
12685,2000,-104,-584,-2,-1,4
12690,1992,-144,-504,-5,-2,2
12695,1992,-112,-568,-6,-3,2
12700,1976,-120,-568,-8,-4,2
12705,1976,-112,-544,-12,-3,4
12710,1976,-120,-560,-13,-4,3
12715,1984,-128,-560,-15,-6,6
12720,1984,-136,-616,-12,-8,8
12725,2008,-168,-552,-9,-10,10
12730,1992,-136,-584,-5,-12,12
12735,1976,-144,-608,0,-13,9
12740,1960,-104,-608,3,-13,8
12745,1984,-144,-624,7,-9,4
12750,1992,-136,-600,10,-3,1
12755,1976,-128,-624,11,3,0
12760,1984,-112,-624,11,11,-3
12765,1968,-96,-592,9,19,-6
12770,1968,-104,-600,7,28,-4
12775,1992,-120,-616,3,36,-3
12780,1976,-112,-576,3,41,-1
12785,1992,-120,-600,1,47,0
12790,1968,-136,-592,0,49,0
12795,2000,-120,-568,-3,50,1
12800,1984,-136,-608,-9,51,-1
12805,1984,-112,-560,-15,51,1
12810,1984,-120,-536,-20,48,2
12815,1968,-120,-560,-24,43,3
12820,1976,-120,-520,-27,36,5
12825,1984,-136,-544,-26,29,7
12830,2000,-152,-528,-23,20,9
12835,1976,-160,-536,-19,12,11
12840,1992,-152,-576,-15,4,10
12845,1984,-152,-576,-12,-3,7
12850,1976,-144,-600,-7,-11,5
12855,1968,-120,-584,-6,-18,4
12860,1984,-136,-608,-6,-23,1
12865,1984,-128,-592,-4,-27,-1
12870,1992,-144,-624,-2,-28,-4
12875,1984,-128,-600,-2,-26,-6
12880,1984,-128,-592,1,-22,-7
12885,1960,-120,-600,3,-16,-11
12890,2000,-144,-624,5,-8,-11
12895,1992,-120,-640,6,2,-10
12900,1984,-112,-616,7,11,-10
12905,1960,-112,-616,7,19,-9
12910,1960,-56,-592,6,26,-8
12915,1968,-120,-632,5,31,-6
12920,2000,-120,-592,4,34,-3
12925,1992,-104,-640,4,36,-1
12930,1976,-96,-632,4,37,1
12935,1984,-112,-600,2,38,2
12940,1984,-120,-568,1,36,3
12945,1976,-88,-616,-1,34,3
12950,1976,-104,-600,-2,34,3
12955,1960,-128,-600,-3,32,3
12960,1992,-144,-584,-6,30,1
12965,1976,-136,-600,-10,30,3
12970,1960,-120,-616,-10,28,4
12975,1984,-136,-600,-11,27,4
12980,1960,-112,-608,-11,27,5
12985,1992,-144,-624,-12,24,6
12990,1952,-112,-616,-13,24,7
12995,1968,-112,-584,-12,24,7
13000,1968,-128,-616,-12,24,7
13005,1976,-128,-600,-12,24,10
13010,1952,-112,-584,-12,23,10
13015,1952,-120,-584,-12,23,8
13020,1944,-112,-616,-13,24,7
13025,1952,-120,-624,-13,23,5
13030,1960,-104,-624,-15,24,5
13035,1952,-120,-592,-16,25,7
13040,1984,-136,-592,-17,24,5
13045,1976,-136,-624,-18,24,5
13050,1960,-104,-632,-17,25,5
13055,1960,-112,-624,-17,25,5
13060,1976,-128,-624,-16,25,6
13065,1968,-128,-624,-15,24,7
13070,1984,-128,-624,-13,25,7
13075,1968,-104,-624,-12,25,7
13080,1968,-112,-624,-10,25,8
13085,1976,-144,-640,-9,25,7
13090,1976,-152,-640,-9,26,4
13095,1976,-112,-624,-11,29,3
13100,1960,-128,-600,-10,28,1
13105,1960,-112,-624,-11,30,1
13110,1960,-120,-624,-13,31,-3
13115,1952,-128,-616,-15,33,-6
13120,1952,-120,-648,-17,37,-5
13125,1976,-96,-632,-19,39,-5
13130,1968,-152,-624,-21,38,-3
13135,1992,-144,-616,-22,37,-2
13140,1944,-112,-592,-23,37,-2
13145,1976,-136,-624,-24,35,0
13150,1968,-112,-616,-24,34,-1
13155,1952,-128,-616,-24,33,0
13160,1960,-120,-608,-24,33,-1
13165,1984,-152,-600,-24,32,-1
13170,1976,-144,-640,-22,32,-1
13175,1968,-128,-616,-22,33,1
13180,1952,-152,-624,-20,36,0
13185,1952,-136,-648,-18,35,0
13190,1968,-144,-624,-17,37,-2
13195,1952,-112,-648,-16,40,-2
13200,1992,-152,-664,-15,43,-2
13205,1984,-128,-624,-14,46,-2
13210,1960,-120,-632,-14,52,-3
13215,1984,-136,-656,-15,53,-2
13220,1992,-144,-640,-14,58,-1
13225,1960,-120,-600,-13,61,0
13230,1952,-104,-608,-13,61,-1
13235,1952,-168,-656,-12,64,-1
13240,1944,-120,-632,-10,65,-3
13245,1952,-136,-640,-10,67,-3
13250,1944,-120,-600,-13,66,-3
13255,1952,-120,-624,-12,66,-3
13260,1952,-112,-640,-13,66,-2
13265,1960,-136,-624,-16,68,-3
13270,1960,-120,-624,-15,70,-3
13275,1976,-144,-648,-14,71,-2
13280,1936,-120,-616,-12,73,-2
13285,1936,-120,-632,-13,76,-2
13290,1960,-152,-632,-11,77,-3
13295,1968,-120,-648,-8,80,-2
13300,1960,-144,-648,-8,83,-2
13305,1960,-120,-632,-8,85,-2
13310,1976,-112,-640,-8,88,-1
13315,1976,-120,-616,-9,91,-2
13320,1968,-128,-592,-10,92,-2
13325,1968,-144,-632,-12,95,-1
13330,1952,-128,-632,-12,95,-1
13335,1968,-128,-632,-13,96,-1
13340,1968,-136,-616,-13,96,1
13345,1960,-56,-648,-13,95,0
13350,1960,-128,-632,-12,95,0
13355,1984,-128,-616,-12,95,-1
13360,1976,-120,-624,-10,96,0
13365,1984,-120,-616,-9,95,-1
13370,1968,-120,-632,-10,95,-1
13375,1968,-96,-632,-9,96,-2
13380,1984,-160,-624,-9,98,-2
13385,1976,-136,-616,-8,97,-1
13390,1960,-136,-640,-8,97,-2
13395,1976,-128,-616,-9,98,-5
13400,1968,-120,-616,-11,98,-7
13405,1992,-128,-648,-13,100,-6
13410,1944,-112,-640,-14,100,-7
13415,1984,-136,-616,-17,100,-7
13420,1984,-120,-632,-19,101,-8
13425,1968,-112,-624,-18,101,-7
13430,1944,-120,-600,-20,103,-6
13435,1960,-136,-624,-20,102,-4
13440,1976,-160,-616,-18,101,-3
13445,1976,-128,-632,-15,98,-2
13450,1976,-160,-616,-13,97,-1
13455,1952,-112,-528,-12,95,0
13460,1976,-136,-616,-10,95,0
13465,1960,-128,-624,-9,95,-1
13470,1976,-152,-624,-9,94,-1
13475,1984,-136,-616,-10,94,-4
13480,1952,-136,-624,-12,97,-5
13485,1976,-136,-624,-14,99,-7
13490,1952,-120,-608,-15,97,-8
13495,1992,-128,-624,-16,98,-8
13500,1984,-144,-608,-16,98,-7
13505,2000,-64,-656,-15,99,-5
13510,1968,-128,-616,-13,99,-4
13515,1968,-152,-624,-10,98,-2
13520,1976,-144,-600,-8,96,-2
13525,1984,-136,-624,-5,97,-2
13530,1976,-128,-624,-2,97,-3
13535,1984,-144,-616,-1,98,-2
13540,1976,-144,-648,-1,101,-5
13545,1968,-120,-584,-3,106,-7
13550,1984,-120,-624,-2,112,-10
13555,1984,-120,-624,-5,117,-10
13560,1944,-112,-592,-6,120,-10
13565,1968,-112,-600,-6,126,-8
13570,1968,-128,-616,-7,129,-6
13575,1968,-136,-592,-6,132,-3
13580,1976,-144,-608,-5,133,-1
13585,1976,-120,-600,-5,133,-1
13590,1976,-136,-600,-4,133,-2
13595,1960,-144,-560,-5,131,-2
13600,1976,-120,-616,-10,131,-2
13605,1976,-136,-584,-14,129,-3
13610,1968,-136,-576,-20,127,-6
13615,1968,-104,-560,-24,121,-5
13620,1968,-136,-584,-26,117,-5
13625,1984,-160,-608,-24,111,-3
13630,1976,-128,-552,-21,105,-3
13635,1960,-160,-576,-16,100,-3
13640,2000,-136,-560,-12,96,-2
13645,1984,-152,-592,-8,91,-4
13650,1984,-144,-624,-7,86,-6
13655,1960,-128,-584,-5,83,-9
13660,1984,-152,-576,-6,81,-10
13665,1984,-136,-608,-6,80,-12
13670,1928,-160,-592,-6,80,-12
13675,1960,-128,-608,-6,83,-14
13680,1984,-128,-600,-7,86,-14
13685,1984,-88,-648,-5,89,-13
13690,1976,-136,-616,-6,94,-14
13695,1952,-96,-608,-4,99,-14
13700,1968,-112,-632,-2,106,-13
13705,1976,-120,-624,-2,110,-13
13710,1976,-120,-624,-1,115,-11
13715,1992,-152,-608,0,120,-10
13720,1992,-144,-608,1,124,-9
13725,1968,-104,-608,0,127,-12
13730,2000,-120,-560,0,129,-11
13735,1976,-104,-616,-2,130,-10
13740,1984,-104,-600,-3,131,-10
13745,1968,-136,-600,-4,132,-11
13750,1992,-104,-568,-7,134,-10
13755,1992,-120,-616,-9,134,-11
13760,1968,-128,-600,-10,132,-10
13765,2000,-104,-608,-12,132,-10
13770,1976,-104,-592,-13,131,-9
13775,1984,-128,-608,-15,131,-8
13780,1968,-80,-584,-13,129,-5
13785,1968,-128,-584,-14,127,-6
13790,1968,-104,-584,-13,128,-5
13795,1984,-136,-560,-13,125,-3
13800,1984,-128,-576,-13,124,-2
13805,1968,-104,-576,-11,125,-3
13810,1976,-120,-568,-11,124,-2
13815,1968,-136,-576,-12,122,-2
13820,1960,-112,-568,-11,122,-3
13825,1968,-112,-560,-11,121,-5
13830,1992,-144,-576,-10,118,-5
13835,1992,-128,-584,-13,119,-6
13840,1976,-112,-576,-13,120,-5
13845,1984,-128,-560,-17,120,-6
13850,1992,-120,-584,-20,119,-5
13855,1992,-120,-568,-21,118,-4
13860,1984,-136,-560,-22,117,-1
13865,1976,-128,-560,-22,114,-2
13870,1984,-128,-600,-20,110,1
13875,1984,-120,-560,-19,106,4
13880,1968,-112,-576,-16,100,5
13885,2008,-152,-592,-13,95,8
13890,2000,-104,-528,-10,91,8
13895,1984,-144,-544,-8,88,6
13900,1984,-128,-544,-9,84,2
13905,1984,-104,-560,-9,83,-1
13910,1976,-112,-568,-11,81,-3
13915,1984,-136,-584,-12,81,-6
13920,1968,-120,-568,-14,82,-6
13925,1960,-88,-576,-17,85,-8
13930,1968,-120,-584,-19,85,-9
13935,1984,-128,-560,-17,86,-8
13940,1984,-152,-576,-18,86,-7
13945,1992,-128,-552,-17,88,-7
13950,1984,-120,-576,-14,88,-7
13955,1984,-120,-568,-12,90,-8
13960,1984,-144,-568,-11,92,-5
13965,1984,-136,-584,-9,94,-6
13970,2000,-136,-544,-9,96,-6
13975,1976,-136,-536,-9,100,-5
13980,1984,-128,-568,-7,102,-5
13985,1968,-104,-544,-6,103,-6
13990,1976,-128,-560,-7,104,-8
13995,2008,-200,-544,-8,104,-7
14000,1968,-120,-544,-9,103,-7
14005,1992,-136,-552,-12,105,-7
14010,1992,-96,-584,-12,104,-6
14015,1992,-128,-560,-13,104,-6
14020,2000,-144,-544,-13,104,-4
14025,1968,-128,-552,-12,104,-4
14030,2000,-128,-560,-11,103,-2
14035,2016,-112,-544,-9,104,-3
14040,1992,-144,-584,-10,103,-2
14045,1992,-136,-560,-8,101,-3
14050,1984,-144,-552,-7,101,-4
14055,1968,-120,-560,-8,101,-5
14060,1976,-128,-544,-6,101,-6
14065,2000,-120,-568,-5,101,-7
14070,1976,-120,-560,-7,102,-8
14075,1992,-120,-576,-10,103,-9
14080,1976,-88,-592,-11,105,-10
14085,1976,-112,-568,-11,107,-8
14090,1992,-136,-560,-11,108,-7
14095,1984,-104,-528,-11,108,-7
14100,1984,-128,-560,-9,112,-8
14105,1984,-168,-592,-8,113,-8
14110,1984,-112,-576,-9,115,-8
14115,1976,-144,-560,-7,117,-8
14120,1992,-136,-552,-8,119,-7
14125,2008,-136,-576,-8,121,-8
14130,1992,-136,-584,-7,123,-8
14135,1976,-104,-560,-9,124,-9
14140,1984,-96,-552,-10,125,-10
14145,2000,-112,-528,-11,125,-7
14150,1984,-136,-560,-13,124,-8
14155,1968,-112,-552,-14,125,-8
14160,1992,-120,-528,-14,124,-9
14165,2016,-144,-536,-16,124,-8
14170,1992,-120,-560,-16,120,-8
14175,1984,-120,-528,-18,118,-9
14180,2000,-120,-520,-17,116,-9
14185,1968,-104,-536,-16,114,-9
14190,1984,-128,-536,-17,112,-9
14195,1976,-136,-528,-17,110,-8
14200,1984,-120,-552,-18,109,-9
14205,1984,-120,-552,-18,106,-7
14210,2000,-104,-568,-18,105,-7
14215,1896,-168,-528,-18,105,-7
14220,2000,-112,-560,-19,105,-7
14225,1976,-120,-536,-17,104,-6
14230,1976,-112,-552,-17,103,-6
14235,1984,-112,-544,-19,102,-6
14240,1984,-112,-536,-19,104,-6
14245,2000,-128,-568,-20,102,-6
14250,1976,-120,-528,-19,103,-6
14255,1960,-136,-552,-18,103,-7
14260,1968,-136,-504,-18,103,-6
14265,1992,-120,-568,-16,103,-7
14270,2000,-120,-552,-16,103,-7
14275,2000,-152,-544,-16,105,-8
14280,1984,-136,-552,-14,106,-8
14285,1992,-96,-528,-14,106,-9
14290,1984,-144,-528,-14,107,-9
14295,2000,-112,-544,-14,109,-9
14300,1976,-104,-512,-12,111,-9
14305,1992,-136,-552,-12,108,-9
14310,1984,-128,-544,-12,107,-10
14315,1968,-120,-544,-12,110,-10
14320,2016,-136,-552,-14,110,-10
14325,1928,-136,-560,-13,110,-10
14330,2016,-136,-536,-12,110,-8
14335,1960,-80,-520,-13,108,-9
14340,1992,-112,-544,-12,107,-8
14345,1976,-96,-512,-13,107,-7
14350,2000,-136,-512,-13,108,-9
14355,1984,-120,-512,-12,107,-8
14360,1992,-112,-520,-11,106,-8
14365,1992,-104,-520,-9,106,-7
14370,1984,-96,-536,-9,106,-8
14375,2000,-136,-512,-9,107,-8
14380,2000,-136,-528,-10,106,-8
14385,1992,-128,-528,-12,106,-7
14390,1992,-128,-528,-13,106,-7
14395,1992,-152,-552,-12,106,-7
14400,1992,-104,-520,-12,106,-7
14405,2008,-128,-544,-11,108,-7
14410,1992,-136,-520,-11,110,-6
14415,1992,-120,-528,-12,109,-6
14420,1976,-104,-520,-11,108,-8
14425,1992,-112,-536,-11,108,-6
14430,1984,-112,-512,-10,109,-8
14435,2024,-104,-512,-11,109,-7
14440,1992,-144,-512,-11,108,-7
14445,1992,-128,-512,-11,107,-7
14450,2000,-144,-536,-10,108,-7
14455,1976,-112,-512,-11,107,-7
14460,2008,-128,-552,-10,107,-8
14465,2016,-128,-560,-9,111,-9
14470,2000,-120,-528,-10,110,-8
14475,1992,-112,-544,-8,112,-9
14480,2000,-96,-520,-7,112,-9
14485,2000,-144,-528,-6,114,-9
14490,2008,-136,-544,-5,115,-9
14495,2008,-112,-512,-5,117,-9
14500,1992,-112,-520,-6,117,-8
14505,2000,-136,-512,-7,116,-10
14510,1992,-120,-520,-6,116,-11
14515,2000,-128,-504,-6,114,-11
14520,2008,-120,-520,-6,113,-10
14525,2000,-120,-496,-7,110,-12
14530,1992,-128,-512,-8,108,-12
14535,1984,-104,-496,-7,104,-12
14540,2000,-136,-504,-7,103,-14
14545,2008,-128,-480,-6,103,-13
14550,2008,-152,-488,-7,102,-13
14555,2000,-112,-520,-6,102,-12
14560,2000,-112,-504,-6,101,-12
14565,2000,-128,-496,-6,99,-11
14570,1984,-120,-488,-6,99,-10
14575,1976,-112,-504,-7,101,-8
14580,1992,-104,-488,-7,100,-9
14585,1992,-144,-528,-5,99,-9
14590,2008,-128,-488,-6,98,-9
14595,1992,-112,-504,-7,98,-8
14600,1984,-104,-512,-6,97,-8
14605,2016,-120,-520,-6,98,-7
14610,2000,-112,-520,-5,98,-6
14615,2016,-112,-512,-4,98,-7
14620,2024,-112,-512,-3,100,-8
14625,2008,-104,-496,-1,100,-11
14630,1992,-120,-504,-2,102,-12
14635,2000,-104,-496,-2,102,-12
14640,2008,-128,-512,-3,103,-12
14645,1992,-120,-512,-5,104,-13
14650,2016,-120,-456,-6,105,-11
14655,2008,-104,-512,-9,105,-10
14660,1992,-120,-496,-10,105,-8
14665,2008,-120,-504,-11,105,-6
14670,1992,-128,-464,-11,104,-5
14675,2008,-144,-480,-9,102,-4
14680,2000,-104,-456,-7,99,-4
14685,2016,-104,-520,-6,98,-5
14690,1984,-112,-488,-6,95,-6
14695,2008,-120,-496,-6,93,-7
14700,1992,-104,-504,-9,93,-9
14705,1992,-112,-488,-10,92,-10
14710,1984,-104,-504,-14,91,-9
14715,2000,-120,-496,-16,89,-8
14720,2016,-120,-472,-15,88,-6
14725,1992,-104,-488,-12,85,-5
14730,1992,-128,-472,-11,82,-5
14735,2000,-104,-520,-10,81,-5
14740,2008,-120,-496,-8,78,-6
14745,2000,-128,-512,-7,78,-6
14750,2016,-112,-496,-5,77,-6
14755,2008,-96,-504,-3,78,-5
14760,1984,-160,-464,-2,78,-4
14765,2008,-96,-504,-1,81,-4
14770,2008,-120,-488,1,84,-4
14775,2000,-128,-504,4,87,-4
14780,1992,-112,-504,9,91,-4
14785,2000,-96,-520,13,96,-5
14790,1992,-128,-496,16,98,-6
14795,2008,-144,-520,18,100,-10
14800,2000,-112,-488,17,103,-13
14805,1984,-120,-512,17,106,-16
14810,2000,-128,-456,14,108,-19
14815,1984,-104,-488,11,111,-20
14820,2008,-120,-448,7,111,-20
14825,1984,-128,-464,5,111,-19
14830,1984,-136,-480,6,110,-16
14835,2008,-120,-480,5,109,-13
14840,2000,-112,-488,6,107,-14
14845,2016,-112,-472,5,106,-14
14850,2000,-104,-472,5,102,-15
14855,2000,-128,-472,5,101,-14
14860,2016,-120,-488,2,100,-14
14865,2008,-112,-488,1,98,-13
14870,1992,-184,-440,-2,97,-13
14875,2016,-120,-504,-4,98,-13
14880,2000,-96,-464,-7,98,-14
14885,2016,-112,-464,-8,99,-15
14890,2040,-128,-472,-7,100,-15
14895,2008,-88,-488,-6,99,-14
14900,2000,-104,-496,-6,99,-14
14905,2024,-112,-488,-5,98,-15
14910,2024,-120,-488,-5,98,-13
14915,2032,-104,-464,-4,98,-11
14920,2000,-120,-464,-4,95,-8
14925,2040,-112,-464,-4,92,-8
14930,2008,-96,-464,-4,89,-5
14935,2024,-120,-464,-5,86,-4
14940,2008,-96,-464,-5,84,-4
14945,2000,-96,-472,-4,84,-2
14950,2008,-120,-472,-5,83,-1
14955,2032,-112,-488,-4,84,-2
14960,2000,-88,-480,-6,84,-5
14965,2024,-120,-480,-6,84,-5
14970,1992,-104,-488,-8,85,-5
14975,2000,-88,-464,-7,86,-5
14980,2040,-104,-520,-8,87,-5
14985,2008,-120,-488,-8,89,-3
14990,2032,-112,-480,-6,90,-2
14995,2008,-136,-480,-7,92,1
