timestamp,accel_x,accel_y,accel_z,gyro_x,gyro_y,gyro_z
0,24,-1992,-544,-6,65,-10
5,8,-2008,-520,-8,66,-11
10,8,-1992,-544,-7,67,-13
15,8,-2000,-568,-6,68,-12
20,8,-1992,-528,-4,68,-13
25,-8,-2016,-512,-3,68,-12
30,0,-1984,-544,2,68,-11
35,-8,-1992,-512,4,66,-12
40,0,-1992,-504,7,66,-9
45,0,-1984,-528,9,63,-10
50,0,-1984,-528,9,61,-10
55,0,-1984,-504,8,60,-9
60,0,-2008,-544,6,60,-7
65,0,-1992,-504,5,59,-7
70,-32,-1984,-520,3,58,-6
75,-16,-1992,-512,0,60,-7
80,0,-1984,-552,-3,63,-7
85,8,-1992,-544,-6,65,-8
90,8,-1992,-536,-9,69,-8
95,0,-2024,-544,-11,72,-8
100,8,-2008,-544,-13,75,-8
105,0,-1992,-536,-13,80,-9
110,0,-2032,-568,-13,82,-7
115,0,-2024,-544,-12,84,-9
120,-16,-2000,-560,-8,85,-6
125,0,-2008,-552,-4,86,-3
130,8,-1984,-560,0,83,1
135,8,-2040,-576,4,84,2
140,0,-1984,-568,5,83,5
145,-8,-1984,-552,6,82,7
150,-16,-1984,-520,5,82,7
155,-8,-1968,-552,2,82,9
160,-16,-1984,-528,-2,82,11
165,-16,-1968,-552,-5,79,11
170,-32,-1984,-528,-8,78,11
175,-16,-1984,-536,-11,77,13
180,-24,-1968,-544,-16,76,12
185,-24,-2008,-592,-20,75,14
190,-32,-2000,-528,-22,76,12
195,-24,-1992,-520,-26,76,12
200,-8,-1992,-536,-26,76,11
205,-16,-1992,-552,-26,75,11
210,0,-1984,-528,-24,74,9
215,-24,-1984,-544,-23,72,8
220,-8,-2000,-544,-19,69,6
225,0,-1984,-544,-15,66,6
230,0,-1992,-528,-10,64,5
235,-16,-1992,-520,-7,62,3
240,-16,-1960,-560,-3,62,1
245,0,-2000,-504,1,61,0
250,0,-2000,-536,3,61,0
255,0,-2008,-536,4,60,1
260,0,-2008,-568,6,60,0
265,8,-2000,-520,5,59,-1
270,0,-1992,-552,3,58,-1
275,8,-1984,-560,2,57,0
280,-16,-2000,-512,2,56,-2
285,-16,-1992,-528,2,57,-3
290,0,-2008,-512,0,57,-4
295,-16,-2016,-520,3,57,-5
300,0,-2008,-528,4,58,-5
305,8,-2024,-528,6,58,-4
310,-16,-2000,-528,8,59,-3
315,0,-1992,-528,9,59,-3
320,0,-1992,-536,9,58,-3
325,-8,-2000,-536,11,59,-2
330,-8,-1984,-512,12,59,-1
335,0,-1992,-504,10,59,-3
340,0,-1992,-536,9,60,-2
345,0,-2000,-520,8,61,-3
350,-16,-2008,-552,8,61,-4
355,0,-2000,-536,6,64,-4
360,0,-2000,-528,5,63,-4
365,0,-2024,-512,4,64,-5
370,8,-1984,-528,2,63,-3
375,0,-1984,-560,0,65,-2
380,0,-1984,-544,-3,67,-1
385,8,-2016,-568,-5,70,1
390,0,-1984,-528,-7,71,1
395,0,-1984,-520,-9,72,0
400,-16,-1992,-544,-10,73,0
405,32,-1960,-496,-11,74,2
410,8,-1984,-576,-14,74,4
415,8,-1984,-552,-17,74,4
420,-8,-2000,-528,-16,74,3
425,-8,-1968,-512,-17,74,2
430,-8,-1992,-536,-17,73,3
435,-8,-1984,-544,-18,73,3
440,-24,-1992,-520,-18,73,5
445,-8,-1976,-568,-17,72,6
450,0,-2000,-544,-17,72,6
455,0,-2024,-560,-16,70,6
460,-8,-1984,-536,-15,69,6
465,-16,-1992,-544,-16,69,7
470,0,-1992,-544,-15,68,8
475,-24,-1992,-520,-13,67,9
480,0,-2000,-536,-14,68,8
485,8,-2000,-520,-13,68,7
490,0,-2008,-536,-12,70,8
495,8,-1992,-520,-11,69,8
500,0,-2000,-520,-11,71,9
505,0,-2000,-544,-12,70,8
510,8,-1992,-496,-11,70,7
515,0,-2008,-536,-12,72,8
520,0,-1984,-560,-11,73,6
525,-16,-1976,-528,-10,73,7
530,0,-2000,-520,-11,73,6
535,-8,-2008,-520,-11,73,5
540,16,-1992,-512,-11,72,5
545,-8,-1976,-488,-10,71,5
550,-16,-2008,-528,-9,72,4
555,0,-2000,-528,-9,70,5
560,0,-1984,-536,-7,68,4
565,8,-1968,-552,-7,68,5
570,-24,-2000,-512,-6,67,5
575,-24,-1992,-536,-3,65,5
580,-16,-2008,-536,-2,64,7
585,-8,-1992,-528,-1,61,7
590,-32,-1984,-520,-1,61,6
595,-24,-1984,-536,0,61,4
600,-8,-1984,-568,0,59,4
605,-8,-2000,-504,-1,60,5
610,-24,-1984,-488,-2,60,4
615,0,-1992,-552,-4,61,4
620,-24,-1984,-528,-3,63,3
625,-8,-2000,-528,-4,64,4
630,-8,-2016,-552,-3,65,4
635,-16,-1984,-528,-2,65,3
640,0,-2000,-552,-2,66,5
645,-8,-2024,-560,-2,65,4
650,-8,-1992,-528,-1,64,4
655,-40,-2000,-544,1,62,3
660,-8,-2008,-536,2,62,4
665,0,-2000,-528,4,62,6
670,-40,-1984,-544,4,62,6
675,-32,-2000,-520,5,61,6
680,-32,-2008,-536,6,61,6
685,-24,-1984,-520,4,60,4
690,-8,-2000,-512,4,62,4
695,-16,-2008,-528,3,63,3
700,-8,-1992,-520,2,65,2
705,-24,-2000,-528,0,67,4
710,-24,-1992,-496,-2,67,3
715,-16,-1992,-528,-4,67,2
720,-24,-1984,-552,-6,67,1
725,-32,-1976,-528,-10,65,1
730,-16,-1984,-512,-10,67,0
735,-16,-1976,-520,-13,68,0
740,-24,-1984,-528,-15,69,-3
745,0,-1992,-544,-19,73,-3
750,0,-1984,-528,-19,75,-3
755,0,-1976,-528,-21,77,-3
760,0,-1968,-544,-23,80,-2
765,-8,-1984,-552,-26,80,-2
770,-8,-1992,-536,-26,80,-2
775,-24,-1984,-536,-27,79,-2
780,-8,-1992,-504,-27,77,-1
785,8,-2048,-464,-27,75,-1
790,0,-2008,-552,-27,73,-3
795,-8,-2016,-536,-26,72,-3
800,-8,-2008,-496,-22,70,-3
805,-16,-2000,-512,-19,68,-5
810,-8,-2000,-536,-13,67,-5
815,-24,-2000,-520,-7,67,-5
820,-40,-2000,-512,-4,66,-4
825,0,-2008,-496,-1,67,-2
830,-8,-2000,-512,3,69,-3
835,0,-1992,-568,5,69,-4
840,-8,-1984,-520,6,70,-4
845,0,-2008,-528,7,71,-4
850,-8,-1984,-512,8,72,-5
855,-16,-1984,-536,8,73,-4
860,-8,-1984,-552,5,74,-4
865,-16,-1960,-496,4,73,-2
870,-32,-1976,-552,-2,75,-3
875,0,-1976,-528,-4,76,-2
880,0,-1976,-560,-7,74,-5
885,-8,-1992,-512,-12,73,-6
890,-32,-1984,-544,-16,73,-7
895,-8,-2072,-512,-21,71,-8
900,8,-2000,-528,-25,69,-9
905,0,-2000,-568,-29,66,-9
910,-24,-2000,-536,-29,64,-10
915,0,-2008,-568,-29,61,-11
920,-16,-2000,-536,-29,60,-11
925,8,-2032,-592,-27,57,-10
930,0,-2016,-568,-23,56,-12
935,0,-2024,-568,-19,56,-13
940,0,-2016,-552,-11,56,-13
945,-16,-1992,-536,-4,57,-14
950,0,-2008,-552,2,58,-13
955,0,-2000,-560,9,61,-11
960,0,-1984,-568,12,63,-10
965,-32,-1984,-536,14,64,-9
970,0,-1984,-496,14,65,-8
975,-24,-1992,-544,13,65,-9
980,-16,-1984,-528,11,68,-10
985,0,-1992,-528,6,70,-9
990,-8,-1984,-520,2,71,-7
995,0,-1992,-536,-2,70,-7
1000,-8,-2008,-496,-6,71,-8
1005,8,-2032,-584,-6,71,-7
1010,-24,-2000,-528,-6,72,-7
1015,0,-2024,-520,-4,73,-7
1020,0,-2024,-528,0,73,-5
1025,0,-2024,-528,6,75,-2
1030,0,-2040,-520,12,74,0
1035,-16,-2016,-488,19,73,2
1040,-24,-2024,-536,26,73,6
1045,16,-2024,-488,31,68,6
1050,16,-1984,-504,38,71,5
1055,24,-2008,-488,40,74,6
1060,8,-1992,-512,41,76,8
1065,8,-1992,-496,44,78,8
1070,8,-2000,-480,44,80,9
1075,16,-1984,-488,41,82,9
1080,8,-1992,-472,37,84,6
1085,0,-1984,-512,35,87,6
1090,0,-1984,-480,31,89,5
1095,0,-2000,-480,26,88,5
1100,0,-2000,-488,21,88,7
1105,-8,-1984,-520,16,88,5
1110,-8,-1952,-432,11,87,5
1115,0,-2000,-512,5,84,3
1120,0,-2008,-528,-1,84,1
1125,0,-1992,-536,-6,82,0
1130,-24,-1984,-504,-10,80,0
1135,-32,-2000,-504,-13,80,-2
1140,-32,-1984,-520,-16,77,-2
1145,-32,-1984,-528,-17,76,-2
1150,-40,-1992,-552,-20,73,-2
1155,-8,-1992,-536,-24,72,-4
1160,-8,-1984,-536,-27,70,-5
1165,-32,-2000,-536,-28,68,-6
1170,-24,-1992,-552,-30,68,-5
1175,-24,-2008,-520,-30,65,-8
1180,-40,-2000,-544,-30,63,-7
1185,-72,-2000,-536,-31,59,-8
1190,-48,-1992,-552,-31,55,-7
1195,0,-2000,-536,-32,52,-8
1200,-24,-2008,-544,-31,51,-7
1205,-8,-2008,-544,-32,51,-7
1210,-8,-2000,-568,-31,49,-7
1215,-8,-1992,-576,-32,51,-8
1220,-24,-1944,-632,-31,52,-9
1225,-8,-2008,-544,-29,53,-8
1230,-24,-2000,-528,-29,54,-7
1235,-8,-1992,-544,-27,56,-7
1240,-24,-1984,-520,-27,55,-5
1245,-8,-1976,-528,-26,56,-7
1250,-16,-1992,-504,-24,57,-7
1255,0,-1992,-528,-22,59,-7
1260,-16,-2008,-488,-21,62,-7
1265,0,-2008,-528,-19,62,-7
1270,-16,-2016,-496,-18,63,-7
1275,8,-2016,-464,-14,64,-8
1280,0,-2008,-504,-11,64,-7
1285,-16,-2000,-504,-10,63,-5
1290,-16,-2000,-488,-6,66,-7
1295,8,-2016,-480,-3,62,-9
1300,8,-2008,-480,1,62,-10
1305,8,-1992,-488,1,60,-10
1310,8,-1992,-488,2,58,-10
1315,-8,-1984,-488,1,57,-9
1320,8,-2000,-504,0,59,-9
1325,0,-1992,-480,-3,59,-9
1330,-80,-1920,-544,-4,59,-8
1335,-16,-1984,-496,-7,58,-6
1340,-16,-2000,-480,-11,58,-5
1345,-32,-1976,-528,-16,57,-4
1350,-16,-2024,-496,-19,56,-4
1355,-8,-2000,-512,-21,56,-4
1360,24,-2008,-496,-23,55,-5
1365,8,-2024,-504,-24,57,-4
1370,-8,-2008,-536,-22,61,-4
1375,24,-2024,-528,-21,64,-4
1380,0,-2008,-520,-18,67,-4
1385,0,-2016,-520,-18,70,-5
1390,0,-2000,-528,-14,72,-4
1395,-24,-1976,-512,-13,73,-5
1400,-8,-2000,-504,-13,74,-2
1405,-32,-2000,-536,-16,72,-1
1410,-16,-1992,-520,-20,72,1
1415,-48,-1984,-536,-23,72,2
1420,-56,-1992,-544,-27,70,2
1425,-24,-1976,-552,-31,69,3
1430,-40,-2000,-520,-33,69,4
1435,-40,-1976,-528,-37,69,5
1440,-56,-1944,-560,-39,70,5
1445,-24,-1968,-560,-40,70,4
1450,0,-1984,-528,-41,69,4
1455,-16,-1984,-552,-40,68,4
1460,-24,-1992,-544,-38,69,2
1465,-16,-1976,-552,-39,69,0
1470,-8,-1984,-552,-36,71,-1
1475,-16,-1976,-528,-36,70,1
1480,0,-2016,-536,-34,71,-1
1485,0,-2000,-552,-34,72,-3
1490,0,-1984,-568,-32,73,-4
1495,16,-1992,-504,-29,74,-6
1500,8,-1984,-536,-30,75,-6
1505,0,-1984,-520,-30,76,-7
1510,8,-1992,-552,-27,75,-5
1515,8,-2000,-528,-26,76,-8
1520,0,-2008,-512,-24,73,-9
1525,0,-2008,-504,-23,71,-10
1530,0,-2008,-504,-21,67,-10
1535,-8,-1992,-512,-19,62,-12
1540,8,-1992,-512,-19,62,-11
1545,-8,-1976,-528,-17,58,-12
1550,40,-1976,-416,-17,55,-12
1555,-16,-2000,-536,-16,54,-10
1560,-32,-1992,-496,-16,53,-11
1565,0,-1992,-528,-16,54,-11
1570,-24,-1984,-528,-17,53,-10
1575,0,-2000,-488,-17,53,-10
1580,-8,-1992,-528,-20,52,-11
1585,-8,-1984,-520,-22,54,-12
1590,0,-1984,-536,-23,57,-11
1595,0,-1992,-512,-26,58,-10
1600,0,-1992,-528,-26,59,-10
1605,0,-2008,-536,-28,62,-11
1610,-8,-1992,-552,-28,64,-9
1615,0,-2000,-528,-28,65,-9
1620,0,-2000,-536,-29,66,-7
1625,0,-2016,-544,-31,65,-6
1630,-16,-2000,-536,-31,66,-5
1635,8,-2000,-536,-31,67,-4
1640,-8,-1992,-520,-31,67,-1
1645,-8,-1992,-528,-32,67,0
1650,-16,-1992,-536,-34,65,1
1655,-8,-1952,-576,-36,64,2
1660,-48,-1984,-536,-40,62,4
1665,-24,-1992,-552,-41,61,5
1670,-32,-1976,-512,-44,60,5
1675,-24,-1992,-552,-47,58,3
1680,-16,-1984,-544,-52,58,3
1685,0,-1976,-536,-56,58,3
1690,-24,-1968,-576,-57,57,3
1695,-16,-1976,-536,-58,59,1
1700,0,-1992,-544,-58,61,0
1705,0,-1984,-568,-59,64,-2
1710,-8,-1984,-544,-61,64,-1
1715,16,-2000,-520,-60,64,0
1720,16,-2016,-520,-59,66,-1
1725,0,-2000,-512,-58,67,-2
1730,0,-2000,-528,-58,68,-2
1735,0,-2000,-488,-57,65,-2
1740,0,-2000,-496,-55,64,-4
1745,0,-2008,-512,-54,65,-6
1750,0,-1992,-536,-53,64,-9
1755,8,-2000,-552,-56,64,-7
1760,0,-2000,-568,-58,63,-10
1765,56,-1960,-536,-61,64,-11
1770,0,-1992,-520,-64,65,-12
1775,0,-1992,-544,-66,67,-13
1780,0,-1984,-544,-69,68,-14
1785,8,-1984,-528,-72,68,-15
1790,-16,-1976,-552,-74,65,-16
1795,-8,-1984,-536,-77,64,-14
1800,-16,-1984,-536,-80,62,-14
1805,-24,-1976,-544,-82,60,-16
1810,-8,-1984,-544,-84,57,-18
1815,0,-1992,-568,-86,55,-17
1820,-8,-2008,-544,-87,54,-18
1825,-8,-1984,-544,-90,54,-19
1830,-24,-1984,-552,-91,53,-18
1835,0,-2000,-552,-91,52,-17
1840,0,-1992,-536,-92,52,-18
1845,-24,-1984,-552,-91,50,-20
1850,-16,-2008,-528,-90,50,-17
1855,-16,-2000,-552,-90,49,-17
1860,-48,-2008,-568,-87,48,-16
1865,-24,-1992,-568,-86,47,-14
1870,-48,-1984,-544,-85,47,-14
1875,-48,-1992,-584,-84,47,-14
1880,-24,-1976,-568,-87,49,-15
1885,-24,-1984,-560,-89,50,-13
1890,-8,-1968,-536,-91,53,-15
1895,0,-1976,-568,-92,56,-14
1900,0,-2000,-544,-93,61,-13
1905,-16,-1992,-584,-90,63,-14
1910,8,-2000,-584,-87,67,-13
1915,-16,-1992,-560,-85,67,-11
1920,-24,-2000,-592,-82,69,-11
1925,-16,-1992,-576,-79,70,-9
1930,-32,-1992,-576,-76,69,-9
1935,-24,-1984,-584,-72,68,-7
1940,-24,-1984,-560,-72,66,-7
1945,-8,-1976,-568,-69,65,-6
1950,-40,-1984,-560,-67,64,-4
1955,0,-1984,-600,-66,60,-6
1960,0,-1984,-584,-66,59,-7
1965,0,-1984,-584,-65,58,-8
1970,16,-1968,-584,-64,59,-9
1975,16,-1992,-592,-63,60,-9
1980,8,-1984,-592,-62,61,-9
1985,-16,-1984,-592,-61,63,-11
1990,24,-1992,-568,-59,66,-13
1995,8,-1968,-560,-57,68,-14
2000,8,-1984,-576,-54,69,-13
2005,0,-1984,-584,-51,70,-13
2010,0,-1992,-600,-49,71,-12
2015,0,-2008,-600,-46,70,-10
2020,-8,-1984,-624,-44,72,-9
2025,-8,-1992,-584,-40,71,-9
2030,-8,-1992,-600,-38,70,-8
2035,0,-1992,-616,-35,69,-7
2040,0,-1984,-600,-32,69,-4
2045,-48,-1976,-640,-26,69,-4
2050,0,-1976,-640,-23,69,-4
2055,8,-1984,-624,-18,71,-2
2060,0,-1984,-592,-15,71,-2
2065,-16,-1992,-592,-10,71,1
2070,8,-1984,-600,-7,72,1
2075,-16,-2000,-592,-5,72,1
2080,8,-1992,-568,-3,73,1
2085,-8,-1984,-600,1,74,2
2090,24,-1960,-624,6,75,3
2095,-16,-1992,-600,9,75,4
2100,8,-1984,-584,12,75,4
2105,0,-1984,-600,16,74,4
2110,-24,-1976,-584,17,75,4
2115,-8,-1976,-592,16,76,5
2120,0,-1976,-600,15,77,5
2125,-16,-1976,-584,13,76,7
2130,0,-1984,-624,12,76,5
2135,0,-1976,-600,10,76,4
2140,0,-1960,-592,7,76,5
2145,0,-1976,-600,6,75,4
2150,0,-1960,-592,5,76,3
2155,0,-2000,-584,4,76,2
2160,0,-1992,-616,4,75,2
2165,0,-1960,-608,4,74,1
2170,0,-1984,-608,5,73,1
2175,8,-1984,-600,7,73,1
2180,-24,-1968,-584,7,73,2
2185,0,-1976,-616,9,73,1
2190,0,-1976,-584,11,73,1
2195,0,-1984,-592,12,72,0
2200,16,-2016,-568,14,73,0
2205,8,-1992,-600,17,75,-1
2210,8,-1984,-592,21,75,-2
2215,8,-1992,-592,24,75,-1
2220,0,-2000,-568,27,74,0
2225,0,-1992,-584,30,75,-1
2230,-8,-2000,-560,33,73,0
2235,0,-1992,-568,35,73,1
2240,-24,-1960,-568,37,71,2
2245,-16,-1984,-568,38,70,4
2250,0,-1984,-552,39,69,5
2255,-48,-1976,-592,39,69,5
2260,0,-1984,-528,38,68,5
2265,0,-1984,-568,36,69,6
2270,-8,-1992,-552,35,70,5
2275,-8,-1992,-536,34,73,7
2280,0,-2000,-560,33,72,8
2285,-8,-1984,-560,31,72,7
2290,-8,-1984,-560,30,72,6
2295,0,-2008,-536,29,71,7
2300,-16,-1976,-528,28,72,6
2305,-24,-1984,-576,28,73,6
2310,0,-2016,-528,27,73,5
2315,-16,-1992,-560,25,75,5
2320,-16,-1984,-544,25,73,4
2325,-16,-1976,-544,25,74,3
2330,0,-1976,-544,25,73,2
2335,-24,-1968,-560,24,71,3
2340,-8,-1976,-560,23,70,2
2345,-16,-1984,-552,23,71,1
2350,-40,-1992,-552,22,70,0
2355,-8,-1984,-576,22,70,-1
2360,-16,-2000,-552,23,68,-1
2365,-16,-2008,-544,23,69,0
2370,-8,-1992,-576,23,68,-1
2375,-8,-2000,-592,23,69,-2
2380,0,-1992,-576,26,70,-4
2385,8,-1992,-544,28,72,-4
2390,-8,-2008,-560,29,74,-4
2395,8,-2000,-552,32,76,-4
2400,-16,-1984,-536,33,76,-4
2405,0,-2000,-552,37,76,-3
2410,0,-2000,-560,38,75,-3
2415,-8,-2008,-552,42,75,-3
2420,-48,-2008,-520,43,76,0
2425,0,-1984,-600,46,75,0
2430,-16,-1992,-528,46,73,1
2435,0,-1984,-568,49,72,0
2440,0,-1984,-552,50,72,1
2445,-8,-1992,-584,51,73,0
2450,-8,-1984,-512,51,73,2
2455,8,-1992,-560,51,74,2
2460,0,-2000,-536,50,75,1
2465,0,-1984,-536,50,77,-1
2470,0,-1992,-568,50,79,-1
2475,0,-1984,-560,49,78,0
2480,0,-1992,-544,48,79,3
2485,0,-1992,-536,47,77,3
2490,8,-1976,-552,43,77,3
2495,-8,-1984,-560,41,77,2
2500,-8,-2008,-528,37,74,2
2505,-32,-1984,-512,33,73,2
2510,0,-1984,-560,30,72,3
2515,8,-1992,-520,27,70,3
2520,8,-1992,-536,24,71,0
2525,-16,-1984,-544,23,70,1
2530,-32,-2008,-544,20,68,-1
2535,-8,-1992,-544,19,68,-1
2540,0,-1984,-536,18,67,-1
2545,0,-2016,-552,16,69,-1
2550,0,-1984,-568,15,70,-2
2555,8,-1976,-536,14,71,0
2560,8,-2000,-544,14,70,0
2565,0,-1984,-544,15,71,-1
2570,8,-1984,-520,13,70,2
2575,0,-1984,-528,13,71,1
2580,0,-1976,-536,12,72,2
2585,0,-1992,-552,12,71,2
2590,-16,-1992,-536,12,73,1
2595,-8,-1984,-544,10,72,3
2600,-8,-1992,-528,10,72,1
2605,-8,-2000,-560,10,70,1
2610,-8,-1992,-496,9,71,0
2615,0,-2008,-560,8,70,0
2620,0,-2000,-536,8,70,0
2625,0,-1992,-536,10,71,-1
2630,0,-1984,-520,11,72,0
2635,-16,-1960,-560,12,71,0
2640,0,-1992,-528,14,72,-1
2645,0,-1992,-504,13,73,-1
2650,0,-2000,-528,13,72,-2
2655,0,-1992,-520,13,72,-2
2660,0,-1984,-496,10,70,-3
2665,-24,-2000,-504,8,69,-3
2670,0,-2000,-520,4,68,-4
2675,-8,-2000,-512,1,66,-5
2680,0,-2008,-520,-2,64,-6
2685,-8,-2008,-496,-4,65,-8
2690,-16,-2016,-512,-7,65,-9
2695,-24,-2000,-536,-9,65,-8
2700,-24,-1992,-520,-7,66,-9
2705,0,-1992,-552,-7,65,-9
2710,-16,-2024,-520,-7,66,-8
2715,-16,-1984,-552,-5,66,-8
2720,0,-1992,-528,-2,66,-8
2725,-16,-2024,-544,0,66,-8
2730,-16,-1984,-528,3,66,-6
2735,-8,-1984,-528,4,67,-3
2740,0,-2000,-544,5,69,-5
2745,8,-2008,-552,7,70,-4
2750,0,-1992,-528,6,71,0
2755,0,-1984,-544,6,73,-1
2760,-16,-2000,-544,5,73,1
2765,-8,-2000,-544,5,74,-2
2770,-8,-1984,-512,8,76,0
2775,-16,-2008,-528,11,75,0
2780,-8,-2000,-504,13,75,1
2785,-24,-1992,-512,15,75,1
2790,-8,-2000,-520,15,75,2
2795,-8,-2000,-512,20,75,2
2800,0,-2000,-512,21,74,2
2805,-8,-1976,-512,21,74,2
2810,-24,-2000,-528,20,72,3
2815,-24,-1992,-520,20,70,3
2820,0,-1976,-552,18,70,3
2825,-16,-1992,-488,16,69,2
2830,0,-2000,-520,13,66,2
2835,0,-1992,-520,11,69,2
2840,-16,-2008,-496,8,67,0
2845,0,-1968,-536,5,66,1
2850,16,-1992,-520,3,66,0
2855,16,-1968,-472,1,67,1
2860,0,-2000,-504,1,67,1
2865,-16,-1976,-528,0,67,0
2870,0,-1992,-520,-1,67,-1
2875,16,-2000,-544,-2,65,-1
2880,8,-1984,-528,-4,65,-1
2885,-8,-1984,-528,-5,64,0
2890,0,-2000,-536,-7,63,-2
2895,-8,-1984,-512,-7,62,-1
2900,-8,-1992,-528,-5,62,-1
2905,0,-2008,-528,-6,61,-2
2910,0,-2000,-520,-2,62,-2
2915,8,-1992,-528,-2,63,-1
2920,0,-1984,-568,0,62,0
2925,0,-1992,-544,2,63,0
2930,0,-1992,-536,1,63,2
2935,-24,-1992,-520,2,64,3
2940,-8,-1992,-536,1,64,2
2945,0,-1984,-528,2,64,2
2950,0,-1984,-528,3,62,2
2955,0,-1984,-544,2,63,0
2960,0,-2024,-536,3,63,1
2965,-32,-2040,-424,5,62,2
2970,0,-2000,-520,7,63,2
2975,-32,-1984,-520,9,63,4
2980,0,-2016,-544,11,64,5
2985,0,-1984,-560,9,64,3
2990,0,-1984,-552,6,66,4
2995,0,-1992,-512,4,67,4
3000,0,-1984,-520,1,68,5
3005,0,-1984,-512,-1,70,4
3010,0,-1984,-536,-3,71,3
3015,0,-1984,-512,-5,71,2
3020,0,-2000,-520,-7,70,2
3025,0,-1984,-528,-8,70,2
3030,8,-2000,-488,-8,70,2
3035,-16,-2000,-528,-8,69,2
3040,0,-2016,-512,-8,68,2
3045,-24,-1984,-504,-7,70,4
3050,0,-2000,-520,-6,70,3
3055,-8,-2008,-512,-4,68,3
3060,-16,-2000,-496,-3,68,4
3065,-24,-2000,-512,-1,68,5
3070,-40,-2000,-504,-2,69,5
3075,8,-2080,-392,-1,71,6
3080,-8,-1984,-496,-1,70,5
3085,-8,-1984,-496,-1,69,5
3090,0,-2008,-496,-3,69,6
3095,0,-1992,-504,-5,70,4
3100,0,-2016,-512,-5,70,4
3105,-8,-1976,-488,-7,68,6
3110,0,-1992,-496,-10,69,5
3115,8,-2024,-520,-10,69,5
3120,0,-2008,-520,-10,68,4
3125,-16,-2016,-496,-11,67,4
3130,-24,-2000,-512,-11,66,6
3135,0,-1984,-512,-13,67,7
3140,-24,-1984,-496,-12,68,5
3145,-16,-1992,-504,-12,67,5
3150,-16,-1992,-512,-12,67,4
3155,-24,-2008,-528,-12,67,5
3160,0,-2016,-496,-13,66,6
3165,-16,-1992,-520,-11,67,5
3170,0,-1992,-536,-11,67,4
3175,-16,-1992,-512,-12,68,4
3180,-24,-2016,-512,-11,70,5
3185,-8,-1992,-496,-10,71,5
3190,-16,-2000,-520,-8,69,5
3195,-16,-1984,-496,-8,68,5
3200,0,-2008,-504,-9,67,5
3205,-24,-1992,-464,-11,67,5
3210,-8,-2032,-520,-12,68,5
3215,0,-2000,-520,-13,66,5
3220,0,-2008,-504,-12,67,4
3225,0,-2008,-512,-12,66,5
3230,-16,-1992,-520,-12,65,4
3235,-16,-2008,-512,-12,66,1
3240,0,-2000,-496,-12,66,2
3245,0,-2000,-504,-12,68,2
3250,0,-2008,-552,-13,69,1
3255,-24,-1992,-536,-13,70,0
3260,-16,-2000,-512,-12,70,2
3265,-24,-2008,-496,-11,71,3
3270,-16,-1976,-496,-11,72,2
3275,-16,-1984,-528,-11,71,4
3280,16,-1984,-496,-12,72,3
3285,0,-1976,-512,-13,71,2
3290,-56,-1992,-568,-15,71,3
3295,-8,-1992,-520,-17,69,2
3300,-8,-2008,-512,-19,68,1
3305,0,-1992,-504,-22,67,1
3310,0,-2000,-496,-24,66,2
3315,0,-1984,-512,-28,64,1
3320,0,-1992,-528,-30,63,1
3325,-32,-1984,-504,-30,62,-1
3330,-16,-1992,-520,-33,61,-1
3335,0,-2000,-536,-34,62,2
3340,0,-1992,-528,-35,62,0
3345,-16,-2000,-536,-35,61,-2
3350,-16,-2008,-512,-35,62,-4
3355,-16,-2008,-544,-35,63,-3
3360,0,-2008,-536,-36,63,-2
3365,0,-2008,-536,-35,63,-2
3370,-16,-2000,-496,-32,63,-2
3375,16,-2008,-520,-32,64,0
3380,-40,-1984,-528,-31,62,0
3385,0,-1992,-504,-29,61,1
3390,0,-1992,-504,-30,61,1
3395,-32,-1992,-520,-30,60,3
3400,-32,-1984,-544,-30,61,3
3405,-24,-1984,-520,-30,61,3
3410,-40,-1992,-528,-31,60,3
3415,-32,-2000,-488,-31,60,3
3420,-8,-2000,-512,-33,61,3
3425,-16,-2008,-520,-35,62,3
3430,-40,-1984,-496,-37,64,4
3435,-24,-2000,-512,-38,63,3
3440,0,-1984,-504,-38,65,2
3445,-16,-2008,-512,-39,66,2
3450,-8,-1992,-528,-43,65,1
3455,-8,-2016,-528,-41,66,0
3460,-16,-1984,-544,-42,68,1
3465,0,-2008,-512,-41,68,0
3470,-40,-1992,-496,-39,67,0
3475,-16,-1984,-536,-37,67,-1
3480,-8,-2008,-528,-38,67,0
3485,-24,-2000,-504,-38,65,0
3490,-16,-2000,-520,-37,65,-2
3495,-16,-1992,-528,-35,65,-3
3500,0,-1976,-528,-35,64,-4
3505,-16,-2000,-528,-36,63,-3
3510,-16,-1992,-512,-40,63,-4
3515,-8,-1992,-520,-41,63,-6
3520,0,-1992,-504,-44,64,-6
3525,-8,-1992,-528,-45,66,-5
3530,0,-2000,-544,-48,65,-4
3535,0,-2016,-536,-50,65,-4
3540,-8,-2008,-536,-52,62,-3
3545,-40,-2008,-536,-53,63,-2
3550,-48,-1984,-544,-54,61,-2
3555,-24,-1992,-488,-55,59,-2
3560,-24,-2000,-552,-56,56,-2
3565,-56,-1976,-528,-57,55,-1
3570,-32,-2000,-536,-56,54,-1
3575,-32,-2000,-520,-57,54,-1
3580,-24,-1992,-536,-57,55,-2
3585,-16,-1984,-560,-58,57,-4
3590,-16,-1992,-536,-56,59,-2
3595,-8,-2000,-528,-58,61,-3
3600,-40,-1984,-528,-60,62,-3
3605,0,-1984,-552,-60,63,-6
3610,0,-1992,-536,-62,64,-5
3615,-40,-1976,-568,-64,63,-4
3620,-8,-2008,-520,-67,64,-4
3625,-16,-1992,-560,-70,63,-5
3630,-32,-1984,-512,-75,63,-4
3635,-24,-2016,-568,-78,63,-2
3640,-16,-1992,-536,-81,63,-3
3645,0,-2000,-568,-85,62,0
3650,-24,-2000,-536,-87,62,0
3655,-24,-2008,-536,-88,62,-2
3660,-8,-2000,-536,-89,61,-1
3665,-24,-1984,-520,-88,61,-3
3670,0,-1984,-568,-86,63,-3
3675,0,-1992,-544,-86,63,-4
3680,0,-2000,-552,-85,63,-3
3685,-8,-2000,-552,-82,65,-1
3690,-8,-2008,-544,-79,68,0
3695,-8,-1992,-568,-77,70,4
3700,0,-1984,-568,-75,72,7
3705,-16,-1984,-600,-76,72,10
3710,-24,-1984,-552,-76,71,11
3715,-16,-1968,-544,-80,71,15
3720,0,-1984,-584,-83,72,16
3725,-24,-1960,-592,-87,73,16
3730,0,-1976,-544,-91,73,19
3735,-8,-1984,-544,-96,73,20
3740,-16,-1992,-568,-99,74,20
3745,0,-1984,-576,-103,73,22
3750,-8,-1976,-560,-106,74,24
3755,0,-1992,-568,-107,72,24
3760,-8,-1992,-552,-108,70,26
3765,-24,-1992,-528,-107,68,25
3770,-16,-1968,-592,-107,66,27
3775,-8,-1992,-568,-108,65,29
3780,-8,-1984,-544,-108,62,31
3785,16,-2008,-560,-108,59,32
3790,-24,-1992,-560,-109,57,35
3795,-16,-1984,-568,-111,58,36
3800,-8,-1968,-576,-114,58,38
3805,-8,-1976,-576,-116,57,39
3810,0,-1968,-568,-119,59,42
3815,8,-1984,-552,-123,60,45
3820,-8,-1992,-536,-125,61,49
3825,-8,-1992,-576,-128,62,52
3830,0,-1984,-560,-128,62,54
3835,-48,-2008,-576,-126,62,55
3840,0,-1992,-560,-122,62,55
3845,0,-1984,-576,-119,58,55
3850,0,-1984,-568,-118,57,54
3855,-24,-1984,-560,-117,57,56
3860,8,-2000,-576,-117,56,58
3865,0,-1984,-576,-117,57,60
3870,-16,-1976,-592,-116,57,62
3875,0,-1984,-584,-115,59,63
3880,-24,-1968,-608,-114,58,67
3885,0,-1984,-592,-113,56,70
3890,0,-1976,-576,-112,55,72
3895,-16,-1984,-592,-110,55,74
3900,0,-1960,-568,-111,56,73
3905,-24,-1976,-568,-112,54,75
3910,-8,-1984,-584,-113,52,77
3915,-24,-1968,-568,-115,51,79
3920,-8,-1976,-616,-118,50,82
3925,-16,-1992,-608,-122,49,83
3930,0,-1984,-608,-125,50,86
3935,0,-1984,-592,-127,49,88
3940,-24,-2000,-608,-129,50,89
3945,-40,-1928,-568,-131,50,92
3950,-32,-1968,-592,-133,50,94
3955,-16,-1984,-600,-136,53,96
3960,-24,-1976,-592,-139,51,98
3965,-16,-1992,-624,-142,53,100
3970,-40,-1968,-592,-144,55,105
3975,-40,-1968,-608,-145,56,108
3980,-24,-1968,-624,-148,57,112
3985,-56,-1976,-616,-148,58,117
3990,-40,-1968,-616,-150,57,121
3995,-8,-1992,-576,-149,58,122
4000,-32,-2000,-608,-145,59,125
4005,-16,-1984,-608,-141,61,127
4010,0,-2008,-600,-136,60,129
4015,-24,-1992,-592,-130,61,132
4020,-8,-1968,-624,-126,62,135
4025,-8,-1968,-616,-123,60,139
4030,-72,-1976,-632,-120,59,142
4035,-64,-1968,-632,-118,57,146
4040,-40,-1976,-616,-117,55,149
4045,-40,-1976,-656,-119,55,151
4050,-24,-1960,-616,-120,57,155
4055,-16,-1992,-592,-121,56,158
4060,-48,-1976,-648,-121,58,158
4065,-48,-1976,-624,-122,57,161
4070,-64,-1968,-640,-123,57,161
4075,-80,-1976,-608,-126,54,161
4080,-72,-1968,-648,-128,52,165
4085,-64,-1960,-640,-126,49,165
4090,-80,-1960,-624,-126,49,165
4095,-56,-1968,-624,-126,52,169
4100,-56,-1968,-656,-129,55,169
4105,-80,-1976,-632,-129,60,169
4110,-96,-1968,-656,-132,61,173
4115,-112,-1952,-656,-133,63,175
4120,-80,-1968,-648,-136,63,178
4125,-104,-1952,-640,-139,63,182
4130,-88,-1952,-648,-140,64,185
4135,-152,-1944,-624,-140,66,188
4140,-128,-1976,-640,-141,67,189
4145,-128,-1936,-640,-141,68,191
4150,-144,-1952,-656,-143,68,192
4155,-144,-1952,-672,-146,66,197
4160,-128,-1936,-624,-149,67,196
4165,-120,-1944,-688,-152,68,199
4170,-104,-1984,-672,-157,67,199
4175,-120,-1952,-696,-159,65,201
4180,-144,-1952,-704,-156,65,201
4185,-144,-1976,-672,-153,65,203
4190,-144,-1960,-672,-152,62,206
4195,-144,-1968,-664,-151,61,210
4200,-152,-1944,-680,-151,58,212
4205,-136,-1968,-688,-152,55,218
4210,-136,-1960,-704,-150,54,219
4215,-160,-1952,-696,-150,53,220
4220,-176,-1952,-680,-148,51,222
4225,-128,-1960,-696,-146,49,223
4230,-160,-1968,-680,-142,46,223
4235,-176,-1936,-696,-138,48,225
4240,-184,-1944,-704,-135,48,222
4245,-184,-1960,-680,-132,48,222
4250,-184,-1960,-696,-131,46,221
4255,-208,-1944,-688,-130,45,220
4260,-168,-1952,-712,-131,44,217
4265,-208,-1936,-720,-131,41,215
4270,-192,-1928,-728,-132,38,216
4275,-200,-1904,-704,-131,35,213
4280,-192,-1928,-688,-129,30,213
4285,-216,-1936,-680,-129,30,214
4290,-184,-1920,-688,-129,29,214
4295,-192,-1936,-728,-126,28,213
4300,-176,-1928,-688,-123,28,212
4305,-184,-1936,-696,-123,26,212
4310,-192,-1936,-704,-123,22,211
4315,-184,-1912,-696,-122,22,211
4320,-176,-1944,-712,-122,25,212
4325,-192,-1936,-704,-124,32,213
4330,-184,-1960,-728,-123,39,214
4335,-200,-1936,-696,-123,44,216
4340,-200,-1976,-704,-123,47,218
4345,-208,-1968,-744,-124,49,220
4350,-216,-1960,-728,-127,49,222
4355,-200,-1952,-760,-126,50,224
4360,-208,-1952,-704,-128,46,225
4365,-232,-1960,-720,-125,42,226
4370,-232,-1952,-696,-120,38,227
4375,-256,-1936,-712,-117,34,228
4380,-224,-1944,-720,-116,35,229
4385,-232,-1920,-720,-113,29,225
4390,-264,-1888,-704,-110,24,228
4395,-280,-1896,-680,-113,24,233
4400,-256,-1888,-696,-116,27,234
4405,-264,-1880,-704,-120,28,234
4410,-272,-1864,-696,-127,32,236
4415,-280,-1872,-728,-131,34,236
4420,-272,-1896,-712,-140,36,237
4425,-288,-1888,-736,-151,43,239
4430,-280,-1880,-704,-165,50,240
4435,-296,-1920,-736,-175,55,241
4440,-304,-1896,-760,-186,57,239
4445,-312,-1896,-728,-200,61,239
4450,-304,-1912,-704,-211,65,241
4455,-304,-1912,-744,-220,66,243
4460,-312,-1920,-736,-225,66,242
4465,-304,-1912,-728,-225,65,240
4470,-296,-1904,-752,-226,63,239
4475,-312,-1912,-760,-225,61,236
4480,-312,-1920,-744,-222,59,240
4485,-336,-1904,-768,-216,57,239
4490,-344,-1896,-744,-209,56,239
4495,-312,-1904,-776,-203,53,239
4500,-280,-1928,-800,-195,46,240
4505,-344,-1904,-808,-190,45,238
4510,-312,-1936,-768,-187,51,238
4515,-328,-1936,-832,-184,59,234
4520,-312,-1904,-760,-183,62,232
4525,-328,-1912,-784,-180,66,226
4530,-328,-1896,-776,-179,68,224
4535,-352,-1904,-752,-180,69,222
4540,-368,-1904,-760,-181,68,222
4545,-344,-1912,-776,-180,69,220
4550,-344,-1920,-752,-179,70,219
4555,-344,-1896,-776,-179,72,216
4560,-352,-1896,-800,-177,76,215
4565,-352,-1896,-792,-178,76,216
4570,-336,-1920,-792,-179,78,216
4575,-328,-1880,-792,-179,82,215
4580,-336,-1880,-768,-176,83,213
4585,-352,-1888,-784,-178,86,210
4590,-328,-1848,-792,-179,88,208
4595,-336,-1864,-760,-182,92,207
4600,-360,-1872,-752,-187,93,208
4605,-336,-1880,-792,-197,91,208
4610,-344,-1840,-808,-208,86,209
4615,-360,-1840,-832,-217,77,211
4620,-368,-1848,-808,-224,67,214
4625,-368,-1848,-848,-231,59,212
4630,-376,-1832,-824,-238,54,212
4635,-376,-1832,-856,-242,51,210
4640,-392,-1832,-840,-246,52,211
4645,-392,-1864,-840,-250,55,212
4650,-400,-1848,-864,-248,60,214
4655,-376,-1864,-816,-245,66,217
4660,-376,-1848,-824,-239,72,216
4665,-384,-1864,-832,-231,78,215
4670,-368,-1856,-840,-226,89,215
4675,-368,-1856,-800,-222,99,218
4680,-352,-1872,-864,-217,105,222
4685,-376,-1856,-832,-213,108,225
4690,-376,-1848,-816,-213,116,229
4695,-376,-1864,-888,-211,123,235
4700,-368,-1848,-856,-213,128,240
4705,-416,-1872,-856,-209,131,243
4710,-400,-1856,-848,-209,131,249
4715,-440,-1856,-832,-208,128,254
4720,-432,-1832,-872,-204,123,259
4725,-456,-1848,-896,-204,120,266
4730,-464,-1824,-856,-206,116,272
4735,-440,-1832,-872,-204,109,279
4740,-472,-1816,-880,-203,99,288
4745,-472,-1816,-864,-212,94,296
4750,-464,-1808,-872,-219,92,303
4755,-448,-1776,-840,-219,86,307
4760,-440,-1760,-928,-213,68,316
4765,-480,-1808,-864,-210,50,318
4770,-480,-1792,-912,-213,40,319
4775,-448,-1800,-928,-212,41,324
4780,-472,-1808,-920,-207,43,325
4785,-440,-1832,-912,-205,50,324
4790,-448,-1832,-912,-203,59,319
4795,-464,-1808,-912,-197,66,316
4800,-472,-1808,-912,-196,70,315
4805,-456,-1816,-904,-200,71,315
4810,-448,-1800,-896,-201,75,317
4815,-448,-1808,-872,-200,73,318
4820,-448,-1776,-912,-201,73,319
4825,-480,-1792,-952,-204,73,317
4830,-496,-1792,-904,-211,78,315
4835,-488,-1768,-896,-214,82,314
4840,-496,-1792,-928,-214,82,313
4845,-496,-1800,-920,-213,79,312
4850,-512,-1768,-928,-214,78,312
4855,-504,-1776,-928,-213,78,310
4860,-504,-1776,-944,-217,74,309
4865,-496,-1784,-896,-223,70,306
4870,-520,-1768,-952,-228,66,308
4875,-512,-1760,-936,-230,62,312
4880,-512,-1760,-952,-231,60,314
4885,-520,-1760,-968,-231,57,313
4890,-504,-1752,-952,-232,56,316
4895,-512,-1720,-944,-235,58,318
4900,-512,-1736,-968,-241,60,319
4905,-512,-1728,-928,-248,61,321
4910,-544,-1728,-952,-258,61,323
4915,-528,-1728,-944,-273,62,324
4920,-528,-1712,-960,-287,69,326
4925,-600,-1720,-976,-300,76,327
4930,-528,-1728,-992,-312,83,331
4935,-536,-1736,-992,-324,90,333
4940,-544,-1744,-976,-334,94,337
4945,-576,-1720,-1000,-343,94,344
4950,-528,-1728,-960,-352,95,350
4955,-560,-1728,-1008,-360,93,356
4960,-560,-1752,-968,-369,90,361
4965,-560,-1760,-960,-368,85,364
4970,-592,-1752,-984,-360,80,371
4975,-592,-1728,-968,-353,75,377
4980,-576,-1744,-976,-348,70,383
4985,-584,-1712,-976,-343,67,388
4990,-568,-1712,-1008,-336,64,396
4995,-600,-1696,-968,-332,60,400
5000,-592,-1696,-984,-324,54,406
5005,-600,-1696,-976,-321,48,410
5010,-632,-1696,-1032,-322,42,415
5015,-592,-1712,-1016,-325,36,420
5020,-640,-1656,-1056,-330,31,423
5025,-624,-1656,-1000,-334,25,423
5030,-624,-1664,-1016,-339,22,424
5035,-528,-1696,-1048,-345,22,426
5040,-656,-1672,-1048,-351,23,428
5045,-608,-1648,-1040,-351,19,429
5050,-608,-1688,-1008,-350,17,429
5055,-600,-1664,-1072,-349,17,431
5060,-664,-1656,-1024,-355,19,431
5065,-648,-1624,-1080,-362,19,431
5070,-632,-1696,-1040,-371,19,435
5075,-632,-1688,-1024,-375,18,438
5080,-664,-1664,-1048,-371,16,440
5085,-656,-1616,-1032,-365,15,441
5090,-656,-1632,-1064,-364,19,444
5095,-656,-1624,-1040,-368,22,448
5100,-680,-1632,-1024,-367,20,452
5105,-656,-1608,-992,-359,17,458
5110,-680,-1608,-1048,-352,15,464
5115,-656,-1576,-1056,-350,16,463
5120,-648,-1616,-1064,-353,15,474
5125,-672,-1632,-1056,-362,15,481
5130,-680,-1616,-1080,-371,13,487
5135,-696,-1632,-1072,-374,16,493
5140,-712,-1608,-1056,-376,15,501
5145,-648,-1600,-1048,-378,18,508
5150,-680,-1584,-1080,-381,20,514
5155,-704,-1576,-1088,-385,20,523
5160,-680,-1560,-1080,-387,14,533
5165,-688,-1576,-1104,-394,14,549
5170,-696,-1616,-1096,-405,17,560
5175,-680,-1592,-1128,-412,18,570
5180,-672,-1592,-1144,-405,11,580
5185,-704,-1560,-1168,-398,9,590
5190,-704,-1560,-1128,-392,8,600
5195,-704,-1560,-1152,-383,1,611
5200,-696,-1544,-1152,-376,-5,620
5205,-704,-1544,-1104,-374,-10,632
5210,-720,-1512,-1136,-370,-22,644
5215,-736,-1512,-1120,-366,-30,655
5220,-736,-1512,-1136,-365,-35,665
5225,-704,-1496,-1160,-367,-42,677
5230,-768,-1504,-1136,-369,-49,690
5235,-744,-1488,-1144,-373,-54,703
5240,-728,-1496,-1152,-380,-63,712
5245,-712,-1480,-1160,-384,-72,723
5250,-680,-1528,-1152,-386,-79,735
5255,-728,-1472,-1160,-387,-89,745
5260,-688,-1456,-1176,-382,-95,756
5265,-712,-1448,-1136,-379,-92,758
5270,-792,-1408,-1184,-368,-94,768
5275,-752,-1440,-1192,-392,-106,785
5280,-776,-1424,-1192,-414,-111,800
5285,-784,-1392,-1184,-433,-116,819
5290,-776,-1376,-1200,-453,-121,834
5295,-752,-1352,-1192,-466,-127,850
5300,-784,-1352,-1208,-479,-126,864
5305,-752,-1360,-1240,-503,-115,884
5310,-776,-1328,-1248,-524,-100,902
5315,-760,-1344,-1232,-533,-85,916
5320,-744,-1288,-1232,-537,-73,932
5325,-768,-1280,-1224,-547,-60,948
5330,-752,-1280,-1184,-564,-50,965
5335,-768,-1280,-1192,-583,-44,978
5340,-744,-1232,-1176,-612,-38,988
5345,-744,-1232,-1192,-638,-30,1004
5350,-736,-1232,-1192,-664,-29,1019
5355,-760,-1200,-1184,-691,-30,1029
5360,-832,-1296,-1232,-709,-36,1058
5365,-800,-1240,-1232,-725,-46,1083
5370,-896,-1240,-1232,-748,-58,1105
5375,-928,-1216,-1216,-770,-73,1123
5380,-928,-1200,-1216,-799,-91,1139
5385,-920,-1144,-1224,-828,-106,1153
5390,-928,-1136,-1224,-865,-118,1162
5395,-912,-1160,-1240,-905,-122,1179
5400,-920,-1112,-1240,-947,-125,1199
5405,-880,-1120,-1248,-990,-130,1220
5410,-864,-1112,-1240,-1025,-133,1241
5415,-880,-1096,-1256,-1057,-132,1264
5420,-864,-1088,-1248,-1087,-139,1280
5425,-856,-1128,-1264,-1110,-145,1307
5430,-888,-1144,-1256,-1122,-148,1334
5435,-928,-1040,-1296,-1127,-159,1360
5440,-936,-1048,-1304,-1136,-177,1381
5445,-1032,-1080,-1264,-1171,-183,1405
5450,-1024,-1120,-1288,-1177,-219,1420
5455,-1032,-1104,-1264,-1156,-274,1420
5460,-1064,-1096,-1312,-1122,-324,1422
5465,-992,-1072,-1352,-1081,-363,1412
5470,-1104,-968,-1264,-1066,-387,1385
5475,-1168,-1032,-1400,-1083,-412,1382
5480,-1136,-1024,-1368,-1107,-439,1381
5485,-1096,-1008,-1352,-1145,-452,1391
5490,-1112,-1064,-1288,-1188,-458,1409
5495,-1104,-1064,-1296,-1209,-489,1399
5500,-1072,-1080,-1288,-1214,-522,1381
5505,-1048,-1064,-1256,-1211,-539,1378
5510,-1032,-1000,-1264,-1214,-551,1371
5515,-976,-960,-1256,-1215,-556,1372
5520,-920,-960,-1256,-1219,-558,1377
5525,-808,-968,-1264,-1206,-554,1383
5530,-872,-984,-1240,-1193,-520,1410
5535,-872,-960,-1280,-1167,-524,1424
5540,-888,-952,-1248,-1133,-552,1415
5545,-872,-960,-1232,-1097,-570,1411
5550,-872,-864,-1328,-1070,-580,1404
5555,-1000,-976,-1184,-1064,-568,1427
5560,-1024,-824,-1224,-1044,-598,1407
5565,-1096,-824,-1192,-1011,-619,1403
5570,-1144,-600,-1224,-929,-670,1370
5575,-1160,-504,-1096,-827,-732,1336
5580,-1384,-432,-1032,-717,-796,1314
5585,-1216,-512,-1008,-600,-876,1285
5590,-1064,-592,-1008,-508,-929,1195
5595,-968,-696,-1016,-461,-957,1074
5600,-824,-744,-984,-442,-974,955
5605,-816,-696,-944,-417,-1002,848
5610,-712,-736,-856,-376,-1056,763
5615,-720,-808,-808,-319,-1135,690
5620,-680,-872,-840,-243,-1231,630
5625,-656,-824,-872,-179,-1351,587
5630,-696,-768,-824,-135,-1499,565
5635,-680,-680,-768,-116,-1651,554
5640,-696,-592,-728,-138,-1786,549
5645,-656,-616,-672,-189,-1900,551
5650,-688,-600,-704,-251,-1981,558
5655,-664,-616,-816,-316,-2045,569
5660,-656,-672,-912,-367,-2088,583
5665,-656,-840,-984,-371,-2107,615
5670,-496,-960,-1064,-288,-2153,640
5675,-392,-896,-1232,-126,-2228,645
5680,-296,-848,-1248,22,-2311,653
5685,-184,-784,-1208,116,-2387,674
5690,-152,-808,-1032,170,-2442,714
5695,-312,-864,-928,174,-2472,773
5700,-376,-928,-864,120,-2513,830
5705,-360,-864,-888,14,-2527,913
5710,-328,-768,-944,-99,-2513,1000
5715,-280,-608,-960,-190,-2499,1064
5720,-280,-480,-888,-248,-2487,1122
5725,-296,-472,-744,-258,-2475,1193
5730,-344,-464,-648,-210,-2480,1268
5735,-352,-480,-648,-132,-2511,1344
5740,-376,-416,-656,-62,-2558,1417
5745,-272,-408,-600,-32,-2584,1501
5750,-160,-424,-592,-9,-2567,1608
5755,-152,-392,-552,32,-2521,1704
5760,-56,-408,-688,81,-2460,1796
5765,-104,-360,-792,121,-2395,1863
5770,-128,-296,-888,159,-2346,1925
5775,-128,-312,-952,207,-2291,2021
5780,24,-408,-968,254,-2186,2128
5785,16,-528,-928,303,-2026,2224
5790,-48,-520,-848,335,-1845,2288
5795,-208,-544,-824,327,-1704,2307
5800,-288,-448,-776,313,-1571,2303
5805,-440,-336,-736,309,-1459,2296
5810,-584,-232,-712,343,-1336,2299
5815,-664,-96,-640,387,-1195,2303
5820,-768,88,-656,422,-1081,2292
5825,-768,280,-680,422,-983,2284
5830,-832,480,-480,410,-882,2289
5835,-816,432,-256,432,-801,2310
5840,-800,448,-168,459,-741,2323
5845,-728,512,-136,424,-698,2321
5850,-632,544,-144,318,-669,2303
5855,-560,584,-120,196,-646,2278
5860,-504,632,-96,110,-625,2249
5865,-520,744,-152,86,-607,2205
5870,-664,960,-168,98,-590,2124
5875,-760,1040,-152,161,-596,2032
5880,-872,1272,-568,220,-599,1870
5885,-1720,1840,-560,199,-547,1680
5890,-2136,2448,-464,276,-528,1560
5895,-2656,3056,-632,492,-484,1439
5900,-3136,3960,-568,688,-422,1244
5905,-4192,4744,112,761,-363,906
5910,-5472,5528,-96,919,-398,471
5915,-7032,5800,-184,929,-634,-236
5920,-8888,5944,-304,857,-765,-1318
5925,-10920,6400,-1296,837,-661,-2916
5930,-12320,7040,-1360,803,-460,-4897
5935,-12536,7832,-1424,997,-214,-6749
5940,-10968,8240,-1528,951,40,-7785
5945,-8256,7352,-744,322,131,-7332
5950,-6552,5560,96,-545,-289,-5949
5955,-3880,3776,472,-1279,-1183,-4484
5960,-3776,2416,848,-1893,-1905,-3565
5965,-3440,1480,1464,-2435,-2187,-3186
5970,-3072,1056,2128,-2896,-2116,-3050
5975,-2840,304,2704,-3260,-1964,-2697
5980,-3008,-512,2768,-3448,-2017,-2201
5985,-3680,-904,2208,-3448,-2318,-1677
5990,-3856,-1072,1768,-3407,-2745,-1141
5995,-2328,-1312,2024,-2973,-2978,-792
6000,-2448,-1016,1736,-1587,-2723,-641
6005,-2872,-920,1320,111,-2312,-210
6010,-3216,-976,1096,1401,-1982,305
6015,-3248,-976,1120,2052,-1707,694
6020,-3176,-608,1160,2176,-1441,899
6025,-2976,-128,1000,1960,-1221,945
6030,-2672,288,832,1552,-1056,875
6035,-2344,568,688,1154,-927,727
6040,-2024,856,560,915,-808,565
6045,-1688,1232,448,853,-699,455
6050,-1568,1480,496,867,-613,407
6055,-1512,1504,520,908,-570,401
6060,-1472,1336,504,936,-560,381
6065,-1376,1112,480,928,-554,307
6070,-1264,840,456,886,-534,210
6075,-1120,472,368,807,-506,133
6080,-992,232,440,702,-496,75
6085,-824,16,528,602,-492,42
6090,-656,-152,592,547,-502,11
6095,-472,-248,672,533,-546,-29
6100,-320,-232,744,561,-585,-119
6105,-128,-184,784,586,-603,-160
6110,-248,-152,952,569,-606,-177
6115,-456,16,952,587,-631,-229
6120,-528,72,1032,614,-613,-260
6125,-752,64,1200,628,-539,-282
6130,-1000,40,1304,639,-451,-322
6135,-1152,0,1272,625,-362,-386
6140,-1312,-24,1240,549,-277,-469
6145,-1432,-48,1128,408,-208,-537
6150,-1576,-88,1136,226,-184,-571
6155,-1752,-168,1016,94,-232,-582
6160,-1800,-216,888,30,-314,-586
6165,-1872,-184,760,13,-380,-585
6170,-2016,-168,688,21,-405,-562
6175,-2128,-128,704,49,-385,-527
6180,-2248,-56,712,96,-348,-499
6185,-2320,32,728,144,-306,-472
6190,-2408,128,800,186,-253,-441
6195,-2488,224,808,219,-191,-401
6200,-2504,304,976,241,-123,-358
6205,-2480,376,992,258,-60,-326
6210,-2448,384,960,256,21,-295
6215,-2352,320,880,232,122,-257
6220,-2304,312,920,193,213,-235
6225,-2272,248,848,167,281,-224
6230,-2208,176,768,165,331,-215
6235,-2088,96,648,171,374,-203
6240,-2040,64,560,174,415,-187
6245,-1904,32,528,189,435,-166
6250,-1840,16,536,217,438,-147
6255,-1752,-16,536,249,437,-134
6260,-1736,-40,512,293,440,-114
6265,-1752,-104,528,339,454,-87
6270,-1728,-160,480,373,470,-65
6275,-1832,-112,528,384,495,-49
6280,-1848,-104,512,369,534,-15
6285,-1880,-136,504,316,575,34
6290,-1936,-176,496,230,599,68
6295,-2024,-240,384,148,599,72
6300,-2064,-304,248,102,584,65
6305,-2064,-280,240,75,576,41
6310,-2080,-240,224,55,564,10
6315,-2072,-208,216,34,546,12
6320,-1968,-224,136,6,516,34
6325,-1896,-304,176,-37,491,47
6330,-1816,-232,184,-74,473,43
6335,-1752,-216,192,-91,475,57
6340,-1744,-160,248,-97,488,73
6345,-1840,-32,232,-97,499,79
6350,-1848,8,280,-117,501,79
6355,-1864,64,304,-121,482,75
6360,-1888,88,288,-113,454,72
6365,-1904,72,288,-122,419,60
6370,-1952,40,304,-147,391,44
6375,-2024,48,240,-182,367,36
6380,-2032,-24,192,-234,354,49
6385,-2072,-32,184,-293,354,53
6390,-2104,-112,160,-337,369,54
6395,-2168,-96,144,-361,388,47
6400,-2160,-120,160,-370,417,51
6405,-2088,-176,176,-365,446,53
6410,-2120,-128,184,-347,480,55
6415,-2040,-104,160,-330,511,66
6420,-2064,-24,160,-321,541,60
6425,-2048,0,184,-320,570,76
6430,-2024,8,104,-317,584,96
6435,-2064,0,184,-299,586,110
6440,-2064,40,192,-275,586,117
6445,-2096,64,184,-252,588,123
6450,-2072,64,184,-227,588,134
6455,-2088,96,136,-205,586,146
6460,-2104,112,176,-187,580,159
6465,-2112,112,168,-165,576,178
6470,-2112,88,200,-148,574,197
6475,-2104,64,184,-131,573,211
6480,-2104,56,176,-116,570,226
6485,-2096,56,176,-115,571,236
6490,-2080,32,168,-117,573,244
6495,-2104,64,184,-125,575,254
6500,-2072,88,192,-137,573,265
6505,-2088,96,176,-145,562,275
6510,-2056,72,144,-149,546,282
6515,-2064,80,144,-152,536,289
6520,-2048,88,112,-144,536,293
6525,-2056,80,112,-123,536,295
6530,-2056,64,144,-97,543,293
6535,-2032,72,112,-68,544,284
6540,-2056,128,104,-49,543,273
6545,-2040,88,112,-37,542,269
6550,-2056,96,96,-28,535,267
6555,-2056,120,80,-22,526,265
6560,-2048,104,104,-20,521,263
6565,-2064,200,88,-16,514,253
6570,-2080,216,88,-10,507,241
6575,-2112,256,96,-12,497,236
6580,-2096,272,88,-12,480,233
6585,-2088,280,80,-20,467,231
6590,-2088,256,72,-23,457,219
6595,-2096,232,64,-17,451,209
6600,-2080,224,48,-8,447,198
6605,-2120,224,64,2,447,189
6610,-2136,216,24,11,449,181
6615,-2176,240,56,11,448,185
6620,-2168,248,24,17,436,187
6625,-2136,248,0,9,428,184
6630,-2128,280,-16,7,416,160
6635,-2096,288,-16,16,401,140
6640,-2096,288,-64,32,377,134
6645,-2040,328,-80,36,354,133
6650,-2080,256,-56,40,332,131
6655,-2136,280,-40,40,317,128
6660,-2160,272,-56,36,307,126
6665,-2160,272,-24,37,298,132
6670,-2152,216,-8,39,287,128
6675,-2192,256,-32,45,273,107
6680,-2152,232,0,53,263,104
6685,-2112,256,8,60,254,93
6690,-2120,232,-48,66,243,69
6695,-2128,256,0,51,246,61
6700,-2120,232,-24,48,248,69
6705,-2112,224,-32,54,242,70
6710,-2072,192,-72,60,235,65
6715,-2112,224,-32,64,228,64
6720,-2096,216,-88,70,210,57
6725,-2120,240,-88,70,195,45
6730,-2072,208,-88,75,182,43
6735,-2088,184,-88,80,169,36
6740,-2080,176,-136,92,156,25
6745,-2096,184,-136,94,157,33
6750,-2064,200,-128,100,156,40
6755,-2056,192,-136,111,153,37
6760,-2072,184,-104,125,148,38
6765,-2096,160,-144,144,132,33
6770,-2128,176,-128,159,113,27
6775,-2120,160,-104,166,98,35
6780,-2080,192,-96,171,78,33
6785,-2112,192,-120,177,49,15
6790,-2160,224,-104,173,23,-2
6795,-2136,192,-144,171,-2,-14
6800,-2144,168,-112,165,-12,-15
6805,-2144,160,-120,157,-18,-19
6810,-2104,144,-136,148,-21,-29
6815,-2104,128,-144,140,-19,-37
6820,-2080,144,-88,133,-19,-42
6825,-2080,168,-96,123,-16,-43
6830,-2064,168,-96,112,-8,-39
6835,-2064,160,-64,101,1,-34
6840,-2088,176,-80,87,4,-24
6845,-2088,200,-48,73,7,-14
6850,-2088,152,-64,62,4,-7
6855,-2080,168,-56,51,-3,-9
6860,-2104,112,-24,48,-12,-11
6865,-2088,160,-64,50,-18,-13
6870,-2104,176,-16,54,-25,-17
6875,-2096,168,-16,55,-31,-26
6880,-2096,184,-8,56,-44,-38
6885,-2064,168,0,56,-61,-50
6890,-2048,160,24,52,-74,-58
6895,-2056,168,40,48,-78,-58
6900,-2056,168,56,41,-77,-57
6905,-2048,192,48,30,-67,-51
6910,-2048,176,64,15,-52,-45
6915,-2064,168,56,2,-40,-39
6920,-2072,176,56,-4,-33,-34
6925,-2080,192,48,-4,-31,-34
6930,-2064,136,48,0,-28,-32
6935,-2048,168,80,5,-25,-29
6940,-2048,152,48,10,-21,-30
6945,-2056,152,16,10,-15,-32
6950,-2048,176,40,5,-10,-33
6955,-2040,168,48,0,-3,-33
6960,-2024,168,56,-6,9,-34
6965,-2024,176,32,-9,22,-32
6970,-2040,232,72,-17,34,-27
6975,-2032,240,96,-26,40,-28
6980,-2032,208,88,-37,40,-30
6985,-2048,192,80,-43,34,-32
6990,-2048,184,64,-45,25,-35
6995,-2048,176,56,-44,16,-37
7000,-2072,200,64,-44,11,-36
7005,-2064,168,16,-43,9,-34
7010,-2064,184,48,-38,9,-33
7015,-2088,176,40,-30,11,-35
7020,-2080,168,48,-18,14,-35
7025,-2088,152,40,-5,17,-36
7030,-2072,160,24,8,22,-35
7035,-2080,168,0,18,34,-33
7040,-2056,168,-8,26,47,-31
7045,-2048,176,48,30,56,-28
7050,-2072,200,16,35,60,-28
7055,-2048,208,32,37,59,-25
7060,-2032,184,40,39,59,-21
7065,-1992,200,40,40,59,-17
7070,-2056,160,88,43,58,-16
7075,-2072,160,56,43,60,-10
7080,-2056,168,40,46,62,-14
7085,-2072,136,80,48,59,-19
7090,-2040,184,56,48,52,-24
7095,-2056,176,48,46,43,-26
7100,-2064,168,32,48,34,-25
7105,-2040,152,24,50,29,-25
7110,-2056,160,40,47,24,-28
7115,-2072,200,16,36,29,-23
7120,-2080,168,40,22,39,-17
7125,-2080,144,40,10,46,-15
7130,-2104,152,64,4,54,-12
7135,-2064,136,72,6,61,-11
7140,-2080,160,56,6,63,-9
7145,-2080,144,40,6,62,-7
7150,-2064,168,16,5,64,-8
7155,-2088,184,48,6,63,-9
7160,-2080,176,40,8,61,-11
7165,-2056,168,16,11,60,-16
7170,-2080,192,16,15,59,-20
7175,-2064,168,32,18,59,-25
7180,-2056,136,-24,21,58,-25
7185,-2072,160,24,25,56,-27
7190,-2032,176,24,26,53,-27
7195,-2056,152,56,30,52,-30
7200,-2048,160,56,28,54,-23
7205,-2048,160,48,21,55,-22
7210,-2064,160,32,20,54,-24
7215,-2088,152,16,15,55,-18
7220,-2056,176,48,12,58,-15
7225,-2080,128,48,10,58,-19
7230,-2064,144,32,6,60,-17
7235,-2056,168,48,4,57,-17
7240,-2056,144,24,2,54,-15
7245,-2048,136,32,-5,49,-17
7250,-2056,152,0,-9,46,-18
7255,-2072,168,24,-11,49,-14
7260,-2064,200,0,-13,52,-15
7265,-2064,176,56,-11,51,-19
7270,-2072,168,24,-3,48,-24
7275,-2056,160,24,3,45,-27
7280,-2080,168,8,8,45,-24
7285,-2024,184,16,11,48,-20
7290,-2072,152,40,16,48,-19
7295,-2128,144,24,17,52,-11
7300,-2096,128,32,21,57,-7
7305,-2088,144,64,25,63,-6
7310,-2048,128,40,31,65,-10
7315,-2064,136,72,36,61,-11
7320,-2032,160,64,40,60,-9
7325,-2040,136,56,41,59,-3
7330,-2064,128,64,38,60,0
7335,-2088,120,32,35,59,2
7340,-2072,88,8,34,58,0
7345,-2088,152,56,36,56,-4
7350,-2072,136,24,37,54,-7
7355,-2072,128,24,39,50,-12
7360,-2040,160,16,43,48,-14
7365,-2056,192,56,46,46,-15
7370,-2064,168,72,46,47,-12
7375,-2040,160,40,39,50,-8
7380,-2048,152,64,34,54,-6
7385,-2088,168,48,28,55,-6
7390,-1976,208,112,22,53,-6
7395,-2048,96,40,23,59,-5
7400,-2048,184,200,26,66,-2
7405,-2056,192,-32,24,76,4
7410,-2048,152,48,23,83,11
7415,-1952,168,104,24,87,10
7420,-2168,168,-96,24,88,6
7425,-2056,152,144,22,84,2
7430,-2064,160,32,25,80,0
7435,-2072,168,32,32,71,-4
7440,-1904,152,104,39,59,-9
7445,-2072,152,40,46,47,-14
7450,-2072,160,64,50,42,-8
7455,-2048,152,48,60,40,-9
7460,-2096,152,72,70,40,-10
7465,-2056,176,48,68,40,-5
7470,-2064,208,64,62,43,-4
7475,-2048,160,8,49,46,-5
7480,-2080,160,8,38,49,-3
7485,-2088,192,64,28,56,-3
7490,-2064,144,24,23,63,-2
7495,-2064,192,32,21,70,-1
7500,-2088,208,192,21,76,-4
7505,-2104,96,16,20,82,-3
7510,-2016,184,192,18,85,-2
7515,-1968,128,72,12,87,-2
7520,-2064,152,32,9,83,0
7525,-2048,136,24,12,78,3
7530,-2072,152,24,17,74,4
7535,-2056,152,64,24,68,3
7540,-2088,192,-72,29,63,2
7545,-2088,144,-24,28,65,2
7550,-2056,216,40,25,67,-3
7555,-2120,104,16,24,70,5
7560,-2088,136,32,16,67,-2
7565,-2040,208,56,3,61,-5
7570,-2024,144,96,-5,55,-6
7575,-2088,144,88,-6,49,-5
7580,-2056,176,-80,-2,45,-4
7585,-2032,136,-56,1,43,-6
7590,-2096,200,0,6,47,-4
7595,-2064,152,32,11,48,-5
7600,-2064,152,32,16,48,-6
7605,-2072,168,40,18,51,-9
7610,-2056,160,40,21,56,-10
7615,-2040,264,24,25,58,-10
7620,-2064,88,120,28,60,-11
7625,-2048,136,-48,30,57,-12
7630,-2032,176,40,37,53,-10
7635,-2024,184,-16,47,49,-9
7640,-2048,216,48,54,43,-11
7645,-2056,168,24,54,41,-14
7650,-2072,152,16,45,43,-18
7655,-2080,176,88,36,47,-14
7660,-2136,184,0,30,56,-10
7665,-1968,168,-8,22,66,-8
7670,-2056,144,80,13,75,-5
7675,-2072,160,64,5,81,-5
7680,-2072,152,24,2,82,-5
7685,-2064,120,72,1,80,-6
7690,-2008,144,88,3,75,-7
7695,-2064,120,72,12,68,-8
7700,-2000,144,24,22,62,-6
7705,-1864,192,32,31,59,-6
7710,-1960,208,64,36,55,-4
7715,-2056,232,-48,37,52,-3
7720,-2056,128,72,35,53,-5
7725,-2024,192,0,32,56,-9
7730,-2016,184,-8,29,61,-13
7735,-2024,112,32,19,66,-11
7740,-2208,168,72,9,65,-9
7745,-2104,232,0,0,63,-9
7750,-2048,176,48,-6,58,-10
7755,-2064,160,64,-12,51,-6
7760,-2080,152,48,-12,50,-3
7765,-2096,152,56,-9,54,1
7770,-2048,160,24,-1,59,2
7775,-2128,192,216,2,64,1
7780,-2080,152,40,2,66,0
7785,-2048,160,96,1,67,0
7790,-2064,200,-8,7,66,-2
7795,-2120,112,56,7,63,-3
7800,-2040,128,32,13,60,-6
7805,-2104,128,184,18,59,-8
7810,-2112,232,16,21,59,-13
7815,-2056,312,16,19,61,-13
7820,-2064,128,56,13,67,-9
7825,-2064,152,48,7,71,-7
7830,-2048,144,56,4,74,-8
7835,-2056,176,72,1,77,-10
7840,-2016,184,64,-1,75,-9
7845,-2104,160,32,-2,72,-7
7850,-2048,144,64,-1,72,-5
7855,-2080,144,80,-3,71,-3
7860,-2048,128,8,-4,71,-3
7865,-2048,200,-8,-7,69,-2
7870,-2080,128,24,-11,69,-2
7875,-2072,144,48,-14,70,-1
7880,-2080,160,56,-11,70,4
7885,-2072,152,56,-6,69,4
7890,-2064,160,32,-4,69,2
7895,-2080,168,88,1,66,2
7900,-2072,160,64,3,64,0
7905,-2064,160,72,-1,60,-1
7910,-2048,136,56,-3,57,-3
7915,-2120,192,48,-4,55,-3
7920,-2040,136,48,-4,49,-3
7925,-2096,136,48,-3,49,-2
7930,-2056,120,40,0,49,-3
7935,-2072,136,48,1,51,-3
7940,-1984,216,104,3,53,-1
7945,-2048,128,56,3,54,-2
7950,-2064,144,48,7,58,-3
7955,-2056,168,72,9,60,-2
7960,-2056,176,64,10,63,-2
7965,-2056,144,32,11,63,-3
7970,-2064,168,24,10,63,-5
7975,-2056,160,40,9,60,-6
7980,-2048,144,32,7,59,-6
7985,-2080,168,72,6,55,-7
7990,-2072,144,72,3,51,-3
7995,-2056,136,40,2,50,0
8000,-2088,152,48,2,50,-1
8005,-2072,152,56,0,52,0
8010,-2080,168,24,-1,53,-2
8015,-2056,144,24,0,53,-4
8020,-2056,152,32,2,51,-7
8025,-2056,136,40,4,49,-6
8030,-2112,152,-40,12,50,-5
8035,-2064,144,72,19,52,-6
8040,-2048,144,32,21,53,-4
8045,-2064,128,72,20,56,-4
8050,-2048,176,40,18,58,-4
8055,-2072,160,64,16,60,-2
8060,-2072,152,48,13,60,0
8065,-2056,160,80,11,62,3
8070,-2056,168,88,7,63,2
8075,-2064,160,64,3,64,2
8080,-2064,152,72,3,64,0
8085,-2088,160,56,4,68,1
8090,-2056,176,56,2,67,0
8095,-2056,152,64,3,67,0
8100,-2064,152,72,3,71,1
8105,-2064,160,72,1,69,1
8110,-2048,168,40,-2,69,3
8115,-2072,168,48,-3,67,4
8120,-2056,176,48,-5,71,7
8125,-2072,176,64,-2,72,6
8130,-2080,160,96,0,72,3
8135,-2064,152,56,-1,73,3
8140,-2032,176,-16,-3,74,2
8145,-2056,176,32,-6,75,0
8150,-2048,160,56,-9,75,-6
8155,-2080,152,56,-10,76,-5
8160,-2080,144,40,-10,78,-1
8165,-2056,144,32,-10,81,2
8170,-2072,144,40,-8,84,0
8175,-2080,152,32,-7,83,-1
8180,-2064,152,56,-7,81,-3
8185,-2080,152,56,-5,82,-2
8190,-2088,184,48,-4,84,-3
8195,-2064,168,32,-3,86,-3
8200,-2072,168,72,-3,87,-4
8205,-2064,184,40,-3,85,-5
8210,-2048,184,72,-3,78,-6
8215,-2040,168,16,-4,74,-9
8220,-2064,152,56,-4,66,-10
8225,-2064,120,64,-7,62,-4
8230,-2072,160,56,-7,61,-4
8235,-2056,152,56,-9,58,-4
8240,-2064,152,64,-11,57,-5
8245,-2080,144,88,-14,58,-5
8250,-2056,136,40,-16,61,-3
8255,-2056,152,64,-19,62,-3
8260,-2048,152,64,-20,63,-2
8265,-2056,136,40,-19,64,-2
8270,-2056,160,56,-19,65,-2
8275,-2064,168,48,-19,65,-1
8280,-2048,152,48,-18,63,-2
8285,-2056,176,24,-21,63,-1
8290,-2056,152,48,-23,64,-1
8295,-2072,160,40,-24,64,-2
8300,-2056,152,40,-25,63,-4
8305,-2056,160,48,-25,63,-5
8310,-2048,144,40,-24,62,-5
8315,-2072,152,40,-26,63,-4
8320,-2064,184,56,-28,62,-4
8325,-2072,176,40,-29,62,-4
8330,-2056,144,40,-29,63,-4
8335,-2072,160,64,-27,63,-4
8340,-2080,176,32,-24,64,-5
8345,-2104,176,48,-22,65,-6
8350,-2064,176,0,-21,66,-5
8355,-2080,168,48,-21,66,-5
8360,-2048,144,40,-19,66,-7
8365,-2048,136,64,-18,68,-7
8370,-2048,112,72,-17,70,-8
8375,-2080,144,56,-19,71,-8
8380,-2056,168,56,-23,73,-8
8385,-2064,152,48,-25,75,-7
8390,-2032,144,56,-28,77,-6
8395,-2056,152,40,-29,78,-7
8400,-2056,136,48,-30,76,-8
8405,-2064,152,56,-29,72,-7
8410,-2056,176,56,-28,71,-7
8415,-2072,168,72,-26,69,-5
8420,-2056,152,16,-23,69,-4
8425,-2064,168,48,-21,69,-2
8430,-2064,176,56,-19,72,-1
8435,-2048,128,40,-18,74,-2
8440,-2064,168,48,-21,73,-2
8445,-2056,144,48,-27,72,0
8450,-2056,152,48,-30,71,-1
8455,-2048,176,56,-30,72,-3
8460,-2080,168,16,-30,71,-5
8465,-2056,160,32,-28,72,-7
8470,-2032,160,64,-28,73,-9
8475,-2072,184,80,-26,75,-10
8480,-2096,160,32,-28,76,-7
8485,-2088,152,64,-27,76,-3
8490,-2072,152,40,-25,78,-2
8495,-2072,168,72,-26,78,-2
8500,-2064,168,48,-27,78,-2
8505,-2056,136,48,-27,76,-2
8510,-2048,144,56,-27,74,-3
8515,-2056,136,32,-23,73,-3
8520,-2064,128,48,-22,72,-1
8525,-2080,144,72,-20,71,-1
8530,-2072,144,24,-21,70,-3
8535,-2048,144,32,-22,68,-5
8540,-2064,160,40,-22,67,-5
8545,-2080,152,88,-22,66,-4
8550,-2072,168,40,-21,67,-3
8555,-2056,160,48,-22,69,-3
8560,-2048,144,56,-23,69,-4
8565,-2072,144,64,-25,70,-3
8570,-2064,176,64,-27,72,-2
8575,-2048,160,64,-27,76,-2
8580,-2048,168,56,-28,81,-3
8585,-2056,168,32,-30,84,-2
8590,-2064,168,64,-31,83,-3
8595,-2064,152,32,-32,81,-6
8600,-2056,168,56,-33,78,-6
8605,-2072,160,32,-31,75,-4
8610,-2080,160,88,-33,70,-5
8615,-2064,168,24,-35,68,-4
8620,-2072,176,40,-38,66,-3
8625,-2064,144,40,-40,65,-4
8630,-2056,144,72,-41,67,-5
8635,-2056,160,56,-42,70,-4
8640,-2072,136,88,-41,73,-4
8645,-2072,168,64,-40,75,-5
8650,-2056,152,24,-42,79,-4
8655,-2072,144,56,-44,82,-5
8660,-2056,160,40,-50,79,-5
8665,-2064,160,64,-56,75,-4
8670,-2048,168,56,-59,76,-6
8675,-2080,152,40,-60,76,-6
8680,-2056,160,48,-66,73,-6
8685,-2048,160,32,-67,72,-3
8690,-2056,152,32,-61,69,-3
8695,-2064,144,40,-55,69,-3
8700,-2064,144,24,-50,71,-5
8705,-2064,144,64,-49,73,-3
8710,-2056,128,48,-46,77,-4
8715,-2080,168,40,-45,78,-5
8720,-2064,168,48,-47,78,-5
8725,-2072,160,56,-50,79,-6
8730,-2072,136,72,-50,77,-8
8735,-2056,152,64,-49,76,-7
8740,-2056,144,32,-49,74,-8
8745,-2064,160,40,-47,71,-7
8750,-2056,152,32,-48,64,-7
8755,-2064,160,40,-49,61,-5
8760,-2064,136,40,-48,60,-6
8765,-2080,184,8,-53,61,-5
8770,-2072,168,64,-56,61,-6
8775,-2064,160,40,-58,62,-7
8780,-2120,152,56,-58,65,-7
8785,-2064,144,40,-62,67,-7
8790,-2056,160,64,-66,70,-6
8795,-2072,168,48,-66,75,-6
8800,-2064,144,40,-66,75,-5
8805,-2064,152,24,-65,75,-4
8810,-2064,160,8,-66,76,-4
8815,-2056,176,8,-65,77,-3
8820,-2064,168,48,-67,78,-5
8825,-2048,128,48,-67,76,-6
8830,-2072,136,48,-65,76,-9
8835,-2056,128,64,-63,75,-10
8840,-2064,136,48,-63,72,-10
8845,-2056,128,32,-64,69,-11
8850,-2064,152,24,-66,63,-11
8855,-2048,144,56,-69,59,-11
8860,-2048,152,24,-70,56,-11
8865,-2088,176,72,-69,53,-12
8870,-2048,144,48,-67,50,-12
8875,-2072,152,56,-68,46,-12
8880,-2072,152,40,-65,43,-12
8885,-2064,144,32,-59,40,-14
8890,-2064,160,40,-53,39,-15
8895,-2064,120,24,-49,38,-15
8900,-2056,144,40,-46,42,-14
8905,-2072,168,48,-48,48,-14
8910,-2056,168,56,-49,52,-14
8915,-2072,176,64,-50,60,-13
8920,-2056,160,56,-54,68,-12
8925,-2056,168,40,-57,76,-12
8930,-2032,160,48,-65,81,-9
8935,-2072,176,56,-69,85,-8
8940,-2056,136,80,-71,86,-6
8945,-2064,144,56,-69,84,-6
8950,-2056,144,48,-67,79,-7
8955,-2048,128,40,-64,75,-7
8960,-2056,136,56,-61,73,-5
8965,-2064,128,56,-62,70,-5
8970,-2048,120,24,-65,68,-3
8975,-2064,136,64,-67,68,-2
8980,-2064,120,80,-65,68,-1
8985,-2056,160,80,-61,70,-2
8990,-2056,144,72,-60,69,-1
8995,-2048,152,80,-62,71,0
9000,-2056,152,80,-63,75,1
9005,-2056,152,48,-66,78,2
9010,-2048,176,40,-71,82,1
9015,-2080,160,40,-76,82,1
9020,-2056,144,48,-80,82,2
9025,-2048,176,56,-85,82,1
9030,-2056,120,32,-89,79,3
9035,-2056,128,32,-86,77,3
9040,-2080,144,48,-79,74,2
9045,-2056,128,48,-73,73,2
9050,-2056,136,32,-68,73,2
9055,-2064,152,56,-65,71,1
9060,-2080,160,40,-62,72,1
9065,-2072,144,56,-53,72,0
9070,-2080,152,48,-47,72,0
9075,-2056,176,48,-44,71,-1
9080,-2064,168,32,-43,73,-2
9085,-2072,184,8,-43,72,-3
9090,-2056,152,32,-47,72,-1
9095,-2056,152,24,-50,73,-2
9100,-2048,136,24,-53,73,-2
9105,-2080,168,56,-54,72,-1
9110,-2080,144,48,-54,71,-1
9115,-2080,152,48,-56,71,1
9120,-2064,136,48,-57,72,1
9125,-2056,168,32,-51,74,2
9130,-2088,160,56,-50,75,2
9135,-2056,152,40,-49,77,3
9140,-2064,152,24,-51,78,2
9145,-2064,160,24,-53,76,4
9150,-2048,136,24,-51,74,5
9155,-2064,128,40,-45,72,5
9160,-2048,152,8,-38,69,4
9165,-2056,128,24,-32,68,4
9170,-2064,144,32,-28,71,2
9175,-2072,152,32,-24,71,1
9180,-2064,152,16,-18,68,1
9185,-2056,152,40,-13,67,1
9190,-2056,152,56,-7,65,-2
9195,-2072,160,24,-3,65,-2
9200,-2064,168,56,-1,63,-3
9205,-2088,200,40,0,63,-3
9210,-2056,136,40,1,63,-3
9215,-2064,152,56,2,64,-4
9220,-2072,152,48,3,64,-5
9225,-2088,168,56,3,63,-5
9230,-2064,120,72,3,64,-3
9235,-2048,144,64,4,64,-5
9240,-2064,152,48,5,65,-5
9245,-2080,144,56,8,65,-3
9250,-2072,144,48,11,68,-5
9255,-2080,144,40,13,68,-5
9260,-2072,152,48,14,68,-6
9265,-2072,144,40,16,63,-6
9270,-2080,160,72,19,59,-7
9275,-2080,160,40,22,56,-10
9280,-2056,136,32,25,51,-10
9285,-2056,136,40,28,50,-10
9290,-2064,144,48,30,48,-12
9295,-2080,144,72,32,42,-12
9300,-2048,120,24,36,40,-15
9305,-2064,136,48,42,42,-16
9310,-2048,152,96,47,43,-14
9315,-2064,176,48,47,45,-15
9320,-2064,176,72,46,47,-14
9325,-2056,160,48,43,49,-12
9330,-2072,152,48,41,50,-11
9335,-2048,144,56,39,49,-11
9340,-2072,144,56,36,48,-11
9345,-2048,144,40,36,49,-13
9350,-2064,144,48,37,48,-13
9355,-2064,128,80,37,48,-10
9360,-2064,136,24,39,47,-10
9365,-2080,160,32,40,45,-13
9370,-2048,120,80,42,45,-13
9375,-2056,160,56,45,42,-14
9380,-2064,144,8,46,43,-16
9385,-2040,136,96,46,46,-14
9390,-2056,168,64,45,45,-13
9395,-2072,136,72,44,46,-14
9400,-2056,144,56,42,47,-12
9405,-2072,152,64,39,47,-11
9410,-2064,152,48,35,48,-10
9415,-2056,144,64,31,48,-9
9420,-2160,104,104,27,47,-8
9425,-2072,160,64,24,46,-10
9430,-2072,152,48,23,46,-10
9435,-2048,136,56,22,46,-9
9440,-2080,160,72,22,44,-8
9445,-2080,160,64,22,43,-8
9450,-2064,128,72,22,46,-9
9455,-2048,128,48,20,49,-8
9460,-2056,144,80,18,51,-9
9465,-2072,136,72,17,53,-7
9470,-2064,152,56,16,55,-7
9475,-2072,152,64,16,57,-6
9480,-2048,136,80,18,56,-5
9485,-2064,120,56,20,59,-7
9490,-2080,136,64,17,59,-7
9495,-2072,168,104,15,59,-6
9500,-2072,160,72,12,60,-5
9505,-2040,152,64,11,60,-4
9510,-2056,144,80,11,63,-5
9515,-2072,128,88,10,66,-4
9520,-2056,152,64,5,70,-3
9525,-2072,160,112,1,73,-1
9530,-2064,144,64,-1,74,-1
9535,-2072,144,40,0,73,0
9540,-2064,152,64,5,69,0
9545,-2064,160,48,9,69,0
9550,-2080,144,56,11,65,2
9555,-2072,152,72,11,67,0
9560,-2048,144,48,9,66,0
9565,-2048,144,64,7,65,0
9570,-2088,152,48,6,61,1
9575,-2056,112,40,8,60,2
9580,-2064,120,72,10,60,-1
9585,-2048,120,56,16,60,-3
9590,-2072,168,56,17,60,-5
9595,-2056,152,48,19,59,-6
9600,-2056,144,64,21,59,-7
9605,-2056,160,64,26,59,-7
9610,-2056,136,64,30,59,-7
9615,-2064,120,56,32,59,-7
9620,-2064,160,64,34,59,-5
9625,-2072,136,32,32,61,-4
9630,-2056,216,0,28,66,-2
9635,-2056,144,80,21,67,-5
9640,-2072,168,56,18,67,-4
9645,-2056,144,56,14,67,-2
9650,-2072,144,72,10,68,-2
9655,-2064,152,64,8,69,-3
9660,-2064,152,64,6,67,-2
9665,-2064,152,24,6,65,-3
9670,-2056,144,48,7,65,-3
9675,-2056,120,72,11,64,-3
9680,-2056,120,64,15,64,-3
9685,-2064,128,56,16,66,-4
9690,-2072,160,48,14,64,-3
9695,-2056,128,72,12,65,-1
9700,-2064,136,64,8,66,0
9705,-2056,144,56,3,63,-1
9710,-2064,160,56,-1,61,-3
9715,-2080,144,72,-2,58,-2
9720,-2056,144,40,-4,57,-2
9725,-2048,128,64,-3,56,-3
9730,-2056,136,56,0,57,-2
9735,-2064,136,40,5,62,-1
9740,-2072,168,96,8,66,-4
9745,-2064,144,48,10,71,-5
9750,-2064,152,64,10,74,-5
9755,-2072,144,32,8,74,-5
9760,-2056,136,48,7,72,-4
9765,-2064,144,48,8,69,-5
9770,-2064,144,56,12,63,-7
9775,-2064,160,56,12,56,-8
9780,-2032,160,64,14,50,-8
9785,-2072,152,40,18,43,-11
9790,-2064,152,48,20,40,-7
9795,-2072,144,56,25,40,-5
9800,-2056,152,72,32,42,-7
9805,-2056,120,80,33,46,-7
9810,-2064,144,72,34,55,-8
9815,-2072,152,104,32,63,-8
9820,-2048,128,64,25,70,-7
9825,-2056,144,72,18,76,-5
9830,-2048,128,64,15,79,-5
9835,-2048,128,104,13,77,-6
9840,-2048,136,48,11,72,-4
9845,-2032,136,48,11,68,-2
9850,-2040,144,32,12,65,-1
9855,-2056,152,40,15,63,-1
9860,-2064,168,64,19,63,-3
9865,-2048,160,72,20,63,-3
9870,-2056,168,56,18,63,-4
9875,-2048,144,56,19,65,-4
9880,-2064,144,72,18,65,-4
9885,-2072,144,72,12,63,-5
9890,-2064,160,56,6,63,-2
9895,-2048,144,48,1,60,0
9900,-2056,152,64,-1,56,0
9905,-2072,168,72,1,51,-2
9910,-2072,136,32,4,46,-3
9915,-2064,128,64,8,44,-1
9920,-2048,144,72,12,45,-4
9925,-2088,168,80,13,46,-2
9930,-2048,152,96,10,47,0
9935,-2072,160,48,12,49,-1
9940,-2056,144,88,11,53,-1
9945,-2056,160,56,8,54,-4
9950,-2144,160,32,12,51,-5
9955,-2064,136,72,16,50,-5
9960,-2088,152,72,17,53,-6
9965,-2072,152,48,18,58,-5
9970,-2048,152,56,14,66,-5
9975,-2064,144,64,8,71,-7
9980,-2072,128,88,2,76,-5
9985,-2056,112,64,-1,77,-6
9990,-2056,144,48,0,76,-5
9995,-2064,136,40,-1,77,-5
10000,-2064,152,80,-1,77,-6
10005,-2056,128,104,0,76,-5
10010,-2056,128,72,1,72,-6
10015,-2064,136,80,1,69,-6
10020,-2056,136,48,2,66,-5
10025,-2040,144,80,4,63,-5
10030,-2056,144,72,3,59,-4
10035,-2064,144,72,-1,57,-3
10040,-2080,152,56,-3,56,-4
10045,-2040,160,56,-4,55,-5
10050,-2056,128,88,-4,55,-5
10055,-2064,152,72,-8,60,-4
10060,-2096,144,136,-11,64,-3
10065,-2064,128,56,-17,69,0
10070,-2072,128,64,-21,71,1
10075,-2048,144,72,-22,73,2
10080,-2048,144,56,-20,70,2
10085,-2064,136,72,-18,67,0
10090,-2056,112,88,-13,65,0
10095,-2056,152,40,-8,64,-3
10100,-2064,144,48,-6,60,-4
10105,-2064,120,64,-1,58,-3
10110,-2080,152,48,2,55,-3
10115,-2080,160,64,1,56,-4
10120,-2072,144,64,1,58,-5
10125,-2048,136,64,1,60,-6
10130,-2056,160,88,-2,63,-5
10135,-2072,160,72,-3,63,-6
10140,-2048,136,88,-8,64,-5
10145,-2040,136,56,-11,66,-4
10150,-2064,136,64,-14,67,-3
10155,-2064,160,64,-20,69,-2
10160,-2056,128,48,-23,71,-2
10165,-2032,128,176,-22,72,-1
10170,-2064,160,72,-19,71,-3
10175,-2048,136,40,-15,69,-3
10180,-2072,160,80,-11,68,-3
10185,-2056,144,32,-8,68,-2
10190,-2088,136,96,-5,66,-4
10195,-2072,136,104,-4,64,-3
10200,-2064,152,64,-3,63,-4
10205,-2072,136,88,-3,62,-4
10210,-2056,152,64,-3,61,-4
10215,-2056,152,64,0,61,-5
10220,-2040,128,72,0,61,-5
10225,-2072,152,72,-2,63,-5
10230,-2048,128,56,-5,65,-5
10235,-2064,160,72,-8,68,-3
10240,-2056,168,80,-9,71,-3
10245,-2048,152,80,-12,73,-3
10250,-2048,144,72,-12,74,-4
10255,-2048,136,72,-10,74,-3
10260,-2048,120,72,-8,73,-3
10265,-2056,136,80,-4,74,-3
10270,-2096,160,64,-1,75,-2
10275,-2064,136,64,4,74,-2
10280,-2056,136,64,6,75,-1
10285,-2064,160,80,5,75,0
10290,-2056,152,88,1,78,3
10295,-2064,152,88,-2,79,4
10300,-2048,152,88,-4,79,4
10305,-2056,152,80,-6,78,5
10310,-2056,144,72,-9,77,5
10315,-2032,120,88,-11,75,3
10320,-2032,144,56,-13,73,4
10325,-2080,168,56,-16,73,4
10330,-2080,160,56,-16,71,4
10335,-2080,152,56,-15,70,4
10340,-2064,168,72,-12,71,0
10345,-2064,136,96,-11,71,1
10350,-2048,160,64,-12,71,0
10355,-2056,152,64,-12,73,-3
10360,-2064,144,72,-14,72,-3
10365,-2056,128,64,-16,72,-2
10370,-2080,152,80,-17,70,-3
10375,-2064,160,80,-19,73,-3
10380,-2080,160,80,-22,77,-5
10385,-2064,144,56,-25,79,-5
10390,-2056,128,80,-29,81,-3
10395,-2088,152,40,-34,80,-3
10400,-2056,136,88,-35,77,-2
10405,-2040,120,64,-33,73,-2
10410,-2064,152,64,-29,70,-1
10415,-2064,128,56,-28,69,-2
10420,-2064,152,56,-27,69,-3
10425,-2080,160,48,-29,66,-3
10430,-2056,128,56,-29,65,-4
10435,-2048,152,64,-29,67,-2
10440,-2080,160,72,-29,67,-3
10445,-2056,136,88,-30,70,-3
10450,-2040,152,64,-31,72,-3
10455,-2080,176,88,-36,72,-2
10460,-2064,160,72,-42,71,-2
10465,-2064,192,56,-48,73,-2
10470,-2048,144,72,-52,72,-1
10475,-2072,144,48,-53,74,-3
10480,-2048,136,48,-53,75,-2
10485,-2040,160,128,-52,75,-4
10490,-2072,128,72,-50,73,-5
10495,-2056,152,56,-47,72,-6
10500,-2064,136,80,-46,73,-4
10505,-2056,128,72,-45,73,-4
10510,-2048,144,32,-46,75,-6
10515,-2048,136,64,-46,74,-7
10520,-2048,144,48,-46,76,-5
10525,-2056,136,80,-47,77,-7
10530,-2072,176,48,-49,78,-5
10535,-2048,144,72,-55,78,-4
10540,-2064,160,80,-61,79,-2
10545,-2072,168,80,-67,80,-1
10550,-2048,144,80,-70,80,-2
10555,-2064,136,64,-72,77,-2
10560,-2056,152,80,-73,75,-2
10565,-2056,152,96,-74,77,0
10570,-2072,144,56,-73,80,1
10575,-2056,128,72,-76,83,2
10580,-2064,152,56,-78,86,3
10585,-2072,136,80,-78,89,2
10590,-2072,136,64,-79,90,2
10595,-2064,136,40,-78,91,3
10600,-2056,128,64,-76,92,5
10605,-2080,144,32,-72,92,5
10610,-2064,152,48,-71,90,6
10615,-2064,120,64,-70,90,6
10620,-2056,152,40,-68,89,6
10625,-2040,160,56,-65,87,8
10630,-2080,168,80,-63,87,10
10635,-2032,128,80,-64,89,10
10640,-2056,168,104,-66,92,13
10645,-2048,152,72,-68,93,11
10650,-2064,160,80,-72,91,12
10655,-2056,160,56,-76,91,11
10660,-2080,160,64,-81,91,12
10665,-2072,168,48,-87,91,14
10670,-2072,144,72,-92,90,14
10675,-2064,152,48,-95,87,12
10680,-2080,144,40,-90,86,11
10685,-2056,128,48,-83,83,11
10690,-2064,152,64,-77,82,9
10695,-2064,152,40,-69,84,9
10700,-2128,200,-24,-64,84,8
10705,-2064,160,88,-62,84,10
10710,-2064,152,32,-62,88,10
10715,-2064,144,32,-60,89,9
10720,-2072,152,48,-59,89,7
10725,-2064,144,32,-59,90,5
10730,-2072,168,56,-62,88,6
10735,-2064,136,88,-66,85,5
10740,-2072,176,56,-65,82,3
10745,-2064,160,56,-65,79,1
10750,-2088,176,40,-65,78,1
10755,-2080,152,40,-65,77,-1
10760,-2064,168,48,-64,72,-3
10765,-2072,136,40,-66,70,-2
10770,-2056,152,40,-65,68,-1
10775,-2064,152,56,-63,69,-1
10780,-2064,152,48,-66,72,-1
10785,-2048,152,40,-65,74,-2
10790,-2056,136,72,-62,77,-3
10795,-2064,128,64,-59,82,-4
10800,-2064,168,56,-57,85,-3
10805,-2104,192,80,-59,86,0
10810,-2072,176,40,-62,87,1
10815,-2056,144,56,-67,87,1
10820,-2072,160,40,-68,83,-2
10825,-2048,152,56,-66,82,-4
10830,-2064,136,48,-62,76,-4
10835,-2064,128,48,-58,71,-5
10840,-2064,176,40,-52,64,-6
10845,-2064,144,48,-45,62,-6
10850,-2064,144,56,-40,63,-6
10855,-2056,136,64,-36,67,-4
10860,-2088,152,56,-34,69,-4
10865,-2072,144,32,-35,73,-5
10870,-2056,144,40,-36,78,-4
10875,-2048,144,64,-36,81,-2
10880,-2056,144,40,-38,83,-1
10885,-2040,112,8,-38,80,-2
10890,-2072,144,40,-39,77,0
10895,-2064,136,48,-39,72,-1
10900,-2064,168,48,-36,69,-1
10905,-2072,144,40,-35,64,-1
10910,-2096,160,48,-34,63,0
10915,-2080,176,48,-35,64,1
10920,-2048,152,24,-36,64,0
10925,-2048,144,40,-38,66,1
10930,-2056,160,56,-41,67,2
10935,-2064,160,64,-43,67,2
10940,-2064,144,56,-45,66,3
10945,-2088,152,48,-44,65,3
10950,-2056,128,24,-42,65,2
10955,-2096,160,32,-36,64,1
10960,-2048,144,64,-29,63,1
10965,-2056,152,48,-24,61,-2
10970,-2072,128,56,-20,61,-2
10975,-2056,128,48,-18,61,-4
10980,-2072,152,40,-16,60,-5
10985,-2056,160,40,-13,61,-4
10990,-2064,176,80,-11,62,-5
10995,-2064,160,72,-11,63,-7
11000,-2056,144,48,-9,65,-7
11005,-2056,144,48,-9,66,-7
11010,-2056,168,72,-11,70,-6
11015,-2064,160,64,-12,71,-6
11020,-2064,128,96,-11,71,-7
11025,-2064,136,64,-9,72,-7
11030,-2048,136,48,-9,71,-7
11035,-2072,152,32,-6,72,-6
11040,-2072,136,48,-4,70,-5
11045,-2048,152,32,-2,68,-3
11050,-2072,152,32,-1,66,-2
11055,-2056,160,48,2,66,-2
11060,-2064,168,80,3,66,-2
11065,-2064,136,72,6,65,-3
11070,-2072,152,48,8,65,0
11075,-2072,144,48,7,66,0
11080,-2056,168,48,7,67,-1
11085,-2064,160,40,8,66,1
11090,-2064,144,16,9,67,2
11095,-2048,160,24,11,65,-2
11100,-2072,160,56,11,66,-2
11105,-2056,168,80,8,65,-2
11110,-2080,160,48,4,67,-2
11115,-2048,136,24,2,66,-5
11120,-2056,160,40,3,62,-4
11125,-2032,168,88,7,60,-3
11130,-2064,144,24,10,57,-1
11135,-2064,168,64,13,58,-1
11140,-2072,144,48,17,57,-1
11145,-2064,128,48,21,56,-2
11150,-2072,144,64,24,55,-2
11155,-2072,160,56,27,57,-3
11160,-2072,136,40,30,58,-3
11165,-2064,152,16,33,58,-7
11170,-2056,168,48,34,57,-10
11175,-2056,152,40,35,55,-10
11180,-2048,160,40,33,55,-8
11185,-2056,152,56,31,55,-9
11190,-2072,152,56,25,56,-9
11195,-2072,136,80,21,55,-6
11200,-2064,152,64,18,54,-8
11205,-2056,168,40,16,52,-7
11210,-2048,128,64,18,52,-7
11215,-2048,128,48,19,53,-7
11220,-2064,168,72,22,56,-6
11225,-2072,152,64,23,58,-3
11230,-2160,136,48,22,61,-5
11235,-2056,144,48,22,59,-5
11240,-2056,152,64,22,59,-6
11245,-2056,152,56,22,57,-8
11250,-2064,160,64,23,56,-8
11255,-2064,168,56,24,55,-9
11260,-2064,144,56,24,55,-9
11265,-2064,152,32,26,57,-8
11270,-2056,144,48,25,60,-7
11275,-2064,144,32,27,62,-8
11280,-2064,136,56,26,63,-7
11285,-2056,144,48,28,63,-8
11290,-2056,152,56,28,61,-8
11295,-2048,160,40,31,60,-8
11300,-2064,120,88,30,58,-8
11305,-2064,152,48,31,57,-8
11310,-2064,136,40,32,58,-8
11315,-2048,152,80,33,55,-9
11320,-2056,168,56,35,54,-9
11325,-2056,144,56,37,53,-11
11330,-2080,144,48,33,53,-8
11335,-2064,168,72,30,52,-8
11340,-2032,160,88,28,55,-7
11345,-2064,144,88,24,56,-7
11350,-2048,128,40,20,58,-7
11355,-2064,136,56,18,60,-5
11360,-2072,144,32,17,60,-5
11365,-2064,160,40,13,58,-7
11370,-2096,184,56,14,56,-7
11375,-2064,144,64,15,53,-10
11380,-2072,144,40,19,52,-12
11385,-2072,160,48,17,51,-11
11390,-2064,168,48,14,47,-13
11395,-2064,128,32,14,45,-9
11400,-2040,168,64,14,44,-10
11405,-2064,160,88,16,45,-11
11410,-2072,160,48,16,46,-10
11415,-2064,192,16,10,48,-9
11420,-2080,144,72,4,50,-9
11425,-2080,160,88,-3,55,-7
11430,-2072,152,80,-9,59,-6
11435,-2064,128,48,-13,64,-7
11440,-2072,160,56,-17,68,-6
11445,-2016,144,16,-18,70,-5
11450,-2056,128,40,-19,73,-6
11455,-2056,144,88,-18,76,-5
11460,-2056,136,72,-16,76,-3
11465,-2056,136,80,-16,76,-3
11470,-2048,152,48,-13,76,-1
11475,-2056,128,80,-13,77,1
11480,-2056,136,64,-13,77,3
11485,-2048,144,48,-12,78,3
11490,-2056,144,80,-10,76,3
11495,-2072,144,64,-12,74,3
11500,-2072,128,64,-12,70,3
11505,-2088,144,32,-10,68,2
11510,-2056,144,72,-9,68,1
11515,-2064,160,56,-7,70,1
11520,-2056,136,48,-9,72,1
11525,-2072,144,64,-10,73,0
11530,-2048,152,72,-9,73,-3
11535,-2040,136,40,-8,73,-4
11540,-2056,168,40,-6,73,-4
11545,-2064,176,48,-6,71,-5
11550,-2064,128,152,-6,72,-5
11555,-2064,160,56,-8,72,-8
11560,-2056,152,32,-7,69,-10
11565,-2080,152,48,-6,68,-10
11570,-2072,160,56,-4,66,-11
11575,-2056,152,64,-2,64,-10
11580,-2056,152,32,-1,64,-9
11585,-2064,144,24,-3,63,-10
11590,-2040,136,96,-5,62,-9
11595,-2064,160,56,-6,60,-9
11600,-2072,160,40,-5,60,-10
11605,-2048,144,24,-3,59,-8
11610,-2056,136,72,-4,59,-6
11615,-2072,152,32,-5,61,-7
11620,-2048,160,56,-6,60,-7
11625,-2056,120,72,-6,60,-6
11630,-2056,160,8,-6,59,-5
11635,-2056,152,64,-7,56,-3
11640,-2048,144,40,-7,53,-2
11645,-2048,112,80,-8,51,-3
11650,-2064,144,64,-7,47,-1
11655,-2072,152,96,-7,46,-2
11660,-2032,104,40,-6,46,-4
11665,-2088,168,80,-7,46,-4
11670,-2056,152,56,-6,46,-3
11675,-2032,120,64,-6,48,-5
11680,-2056,152,96,-9,50,-3
11685,-2048,160,80,-14,53,-4
11690,-2056,160,64,-20,54,-3
11695,-2056,184,56,-27,55,-4
11700,-2056,120,80,-30,56,-5
11705,-2048,128,56,-30,59,-4
11710,-2088,160,64,-33,62,-2
11715,-2096,160,40,-38,64,0
11720,-2080,152,40,-43,68,2
11725,-2064,120,64,-46,72,1
11730,-2072,152,72,-47,74,-1
11735,-2040,144,72,-46,76,1
11740,-2056,152,72,-43,78,2
11745,-2048,112,72,-40,82,3
11750,-2056,136,64,-38,84,4
11755,-2048,152,72,-38,85,5
11760,-2056,128,72,-37,86,6
11765,-2040,128,64,-34,83,6
11770,-2056,144,64,-31,81,6
11775,-2048,144,80,-25,78,6
11780,-2056,152,56,-21,76,6
11785,-2056,136,80,-17,73,4
11790,-2056,136,48,-12,72,5
11795,-2072,128,32,-7,72,2
11800,-2048,128,48,-4,72,2
11805,-2064,128,48,-2,73,1
11810,-2056,136,64,-2,74,2
11815,-2064,144,80,-3,74,2
11820,-2048,128,56,-4,74,2
11825,-2064,120,72,-5,72,2
11830,-2056,152,72,-6,73,1
11835,-2048,152,40,-6,71,2
11840,-2056,144,56,-5,71,0
11845,-2056,128,56,-6,71,-1
11850,-2064,128,40,-9,69,-1
11855,-2080,152,56,-9,69,-2
11860,-2072,152,56,-8,65,-1
11865,-2080,144,56,-7,62,-1
11870,-2120,152,24,-4,57,-3
11875,-2072,152,48,-1,55,-3
11880,-2056,152,72,3,52,-3
11885,-2072,160,64,9,50,-4
11890,-2056,144,72,13,49,-4
11895,-2056,176,48,18,50,-6
11900,-2056,160,48,20,52,-9
11905,-2064,152,40,23,55,-10
11910,-2048,168,72,21,55,-8
11915,-2064,176,64,19,54,-7
11920,-2056,160,88,20,54,-9
11925,-2080,152,64,19,52,-9
11930,-2056,160,56,19,53,-10
11935,-2056,160,104,19,53,-10
11940,-2056,160,56,15,53,-10
11945,-2072,160,72,12,52,-11
11950,-2048,152,40,9,51,-8
11955,-2048,120,72,8,53,-8
11960,-2064,152,56,9,55,-7
11965,-2056,144,40,10,55,-7
11970,-2056,144,88,11,56,-8
11975,-2064,168,80,11,55,-8
11980,-2056,224,120,10,54,-7
11985,-2056,136,72,9,55,-6
11990,-2056,152,48,7,57,-6
11995,-2056,152,72,6,57,-7
12000,-2056,120,72,4,59,-6
12005,-2048,144,64,2,61,-6
12010,-2048,136,72,1,61,-5
12015,-2056,152,80,-1,63,-3
12020,-2048,136,56,0,64,-2
12025,-2048,120,80,1,64,-1
12030,-2064,136,72,3,65,-1
12035,-2048,144,80,2,64,-1
12040,-2056,120,96,2,63,0
12045,-2056,144,64,1,60,2
12050,-2040,128,48,1,56,4
12055,-2048,120,56,5,55,9
12060,-2056,152,64,10,54,13
12065,-2032,112,56,16,54,17
12070,-2056,144,56,23,55,19
12075,-2056,128,64,30,57,21
12080,-2056,152,56,35,64,22
12085,-2016,200,80,37,69,21
12090,-2072,160,72,39,72,21
12095,-2072,176,72,35,76,18
12100,-2096,176,64,31,76,15
12105,-2072,184,64,25,78,12
12110,-2072,160,56,17,78,10
12115,-2072,160,64,7,76,10
12120,-2064,184,64,-2,76,10
12125,-2080,152,64,-11,74,10
12130,-2064,160,96,-15,73,11
12135,-2064,144,64,-17,74,11
12140,-2032,152,48,-17,77,13
12145,-2048,136,48,-17,80,12
12150,-2064,160,64,-17,81,12
12155,-2056,152,32,-16,83,12
12160,-2064,160,72,-12,84,11
12165,-2064,152,80,-8,84,10
12170,-2072,160,48,-5,88,9
12175,-2056,144,72,-5,88,7
12180,-2048,144,72,-4,90,6
12185,-2072,152,80,-6,92,4
12190,-2072,168,80,-10,92,5
12195,-2056,160,72,-15,93,5
12200,-2048,144,72,-17,91,4
12205,-2064,144,64,-19,90,3
12210,-2048,160,80,-21,89,4
12215,-2072,144,64,-21,89,4
12220,-2056,136,80,-21,88,5
12225,-2056,152,96,-19,87,5
12230,-2072,184,72,-16,85,6
12235,-2064,144,48,-14,86,8
12240,-2064,160,80,-12,86,8
12245,-2056,160,40,-10,85,8
12250,-2072,176,48,-8,84,8
12255,-2072,192,72,-7,82,7
12260,-2056,184,64,-6,81,8
12265,-2056,160,64,-6,79,9
12270,-2056,152,56,-3,76,6
12275,-2072,168,48,-2,74,4
12280,-2072,168,56,-3,75,2
12285,-2056,152,64,-5,75,0
12290,-2080,176,72,-7,75,0
12295,-2056,176,56,-9,76,-1
12300,-2016,120,96,-11,77,-3
12305,-2072,168,72,-11,79,-2
12310,-2064,176,48,-12,81,-3
12315,-2056,152,72,-12,80,-1
12320,-2056,144,32,-13,77,-1
12325,-2048,152,64,-13,78,-3
12330,-2072,168,56,-12,77,-3
12335,-2064,160,72,-12,76,-5
12340,-2064,128,24,-13,75,-5
12345,-2056,160,72,-15,74,-6
12350,-2048,120,32,-16,72,-6
12355,-2064,168,40,-16,68,-7
12360,-2072,144,72,-14,66,-5
12365,-2080,168,48,-13,63,-8
12370,-2064,160,64,-11,60,-7
12375,-2080,168,56,-9,57,-7
12380,-2080,176,0,-9,55,-7
12385,-2072,184,72,-11,56,-6
12390,-2072,144,88,-13,58,-8
12395,-2056,144,64,-15,59,-7
12400,-2056,136,72,-17,63,-6
12405,-2056,192,64,-19,64,-6
12410,-2056,152,72,-20,67,-4
12415,-2056,144,56,-23,67,-3
12420,-2072,168,56,-23,65,-3
12425,-2088,160,48,-23,66,-5
12430,-2048,152,64,-24,66,-5
12435,-2048,144,96,-26,65,-3
12440,-2072,168,64,-26,65,-3
12445,-2056,136,56,-25,63,-3
12450,-2056,144,56,-27,61,-3
12455,-2056,152,72,-25,59,-2
12460,-2088,160,56,-24,58,-4
12465,-2056,152,56,-23,57,-3
12470,-2048,168,48,-23,57,-3
12475,-2080,160,80,-23,57,-5
12480,-2072,168,32,-23,58,-5
12485,-2056,160,72,-22,58,-4
12490,-2072,160,48,-21,58,-6
12495,-2064,152,56,-21,59,-5
12500,-2056,152,56,-20,59,-5
12505,-2080,168,64,-20,58,-5
12510,-2112,120,56,-21,59,-5
12515,-2072,152,72,-19,60,-5
12520,-2056,128,64,-19,61,-3
12525,-2048,152,72,-18,62,-2
12530,-2064,152,32,-18,64,-3
12535,-2040,136,64,-18,65,-2
12540,-2056,144,88,-16,65,-3
12545,-2056,144,48,-16,64,-3
12550,-2040,144,80,-17,63,-1
12555,-2072,160,80,-18,65,0
12560,-2056,144,48,-20,65,-2
12565,-2056,160,40,-20,66,-2
12570,-2072,144,40,-21,67,-4
12575,-2072,168,96,-21,69,-3
12580,-2048,144,24,-21,70,-3
12585,-2080,160,80,-22,73,-2
12590,-2064,160,64,-22,74,-1
12595,-2064,176,56,-24,76,0
12600,-2064,168,64,-24,78,-1
12605,-2056,152,48,-24,76,-1
12610,-2048,152,72,-26,75,-2
12615,-2040,128,72,-27,75,-3
12620,-2080,160,56,-26,74,-4
12625,-2056,144,80,-28,74,-4
12630,-2064,152,88,-29,73,-1
12635,-2064,152,80,-30,75,-1
12640,-2064,144,72,-29,74,-2
12645,-2080,136,56,-30,77,-3
12650,-2048,152,72,-31,76,-3
12655,-2056,152,80,-33,77,-5
12660,-2056,152,40,-35,78,-5
12665,-2072,144,80,-37,78,-4
12670,-2056,168,48,-38,78,-4
12675,-2056,176,56,-39,76,-2
12680,-2048,136,72,-41,76,-3
12685,-2056,176,64,-42,76,-3
12690,-2048,160,48,-48,78,-3
12695,-2072,168,40,-54,76,-3
12700,-2056,112,56,-56,76,-2
12705,-2056,160,56,-57,78,-1
12710,-2064,152,64,-57,78,-1
12715,-2064,144,48,-57,80,-1
12720,-2056,136,64,-56,80,-1
12725,-2128,152,48,-53,78,-4
12730,-2056,144,32,-49,76,-4
12735,-2064,136,48,-48,74,-6
12740,-2056,160,56,-46,71,-7
12745,-2064,160,32,-47,70,-7
12750,-2088,168,72,-47,69,-7
12755,-2080,152,64,-46,68,-7
12760,-2072,128,72,-44,68,-9
12765,-2056,136,64,-44,67,-9
12770,-2056,144,80,-44,67,-11
12775,-2088,136,48,-46,68,-10
12780,-2080,152,56,-45,69,-10
12785,-2056,144,72,-43,73,-9
12790,-2048,144,88,-43,74,-10
12795,-2048,136,48,-46,76,-8
12800,-2064,160,112,-50,80,-7
12805,-2072,168,96,-58,84,-6
12810,-2048,160,56,-63,83,-6
12815,-2064,120,56,-66,82,-4
12820,-2064,144,80,-65,80,-3
12825,-2064,176,40,-63,80,-3
12830,-2064,128,80,-64,82,2
12835,-2064,160,40,-66,83,2
12840,-2064,176,104,-68,83,1
12845,-2072,152,48,-72,81,2
12850,-2056,152,32,-76,79,4
12855,-2048,144,64,-76,77,5
12860,-2056,144,24,-76,75,7
12865,-2056,144,64,-74,73,6
12870,-2064,144,96,-74,69,6
12875,-2072,160,40,-71,67,5
12880,-2056,152,80,-67,66,2
12885,-2056,152,80,-63,67,1
12890,-2072,160,48,-61,69,2
12895,-2088,176,56,-61,72,-1
12900,-2064,160,72,-62,76,0
12905,-2064,160,48,-60,76,-2
12910,-2080,152,64,-59,74,-3
12915,-2064,184,64,-56,70,-3
12920,-2064,144,48,-55,71,-4
12925,-2056,176,56,-58,72,-5
12930,-2064,168,64,-59,73,-5
12935,-2056,144,80,-60,75,-4
12940,-2056,168,48,-61,75,-3
12945,-2056,160,64,-66,77,-1
12950,-2072,168,48,-69,83,1
12955,-2064,152,64,-66,81,-4
12960,-2048,128,120,-62,84,-4
12965,-2056,144,64,-63,86,-2
12970,-2064,160,56,-64,85,-4
12975,-2064,152,56,-64,82,-4
12980,-2056,144,48,-61,79,-3
12985,-2056,144,88,-56,78,-3
12990,-2056,160,80,-51,75,-3
12995,-2072,144,56,-49,73,-3
13000,-2056,112,56,-48,74,-2
13005,-2080,152,56,-47,71,-4
13010,-2056,136,56,-47,71,-3
13015,-2056,136,56,-46,70,-2
13020,-2048,152,56,-45,71,-2
13025,-2080,152,16,-46,73,-1
13030,-2072,168,64,-51,74,0
13035,-2056,136,40,-55,74,-1
13040,-2064,152,48,-59,74,-1
13045,-1896,160,72,-60,71,-3
13050,-2064,136,48,-58,68,-3
13055,-2072,136,64,-53,65,-3
13060,-2056,144,32,-49,64,-3
13065,-2064,136,8,-44,63,-2
13070,-2072,128,24,-39,63,-2
13075,-2088,136,48,-34,63,-2
13080,-2064,136,16,-30,63,0
13085,-2072,176,56,-27,65,0
13090,-2048,136,64,-25,65,-1
13095,-2080,168,40,-24,67,-2
13100,-2072,136,32,-23,69,-3
13105,-2048,160,40,-22,69,-5
13110,-2064,152,56,-24,70,-5
13115,-2048,128,64,-27,72,-4
13120,-2072,160,56,-31,73,-4
13125,-2056,136,56,-33,72,-5
13130,-2056,152,80,-33,71,-5
13135,-2056,160,56,-30,68,-4
13140,-2056,136,48,-27,67,-3
13145,-2048,136,80,-22,65,-2
13150,-2064,144,-40,-19,66,-2
13155,-2056,152,56,-19,68,-1
13160,-2056,144,48,-17,67,-1
13165,-2048,144,16,-16,66,0
13170,-2064,168,72,-13,64,0
13175,-2072,136,48,-10,65,-2
13180,-2064,136,64,-8,65,0
13185,-2080,168,96,-7,64,0
13190,-2072,144,48,-4,64,-2
13195,-2064,152,32,-1,64,0
13200,-2080,136,32,2,64,-1
13205,-2088,136,72,6,63,-3
13210,-2088,152,56,10,65,-3
13215,-2080,152,32,13,64,-2
13220,-2056,152,72,16,64,-1
13225,-2072,160,56,18,65,0
13230,-2072,144,32,20,66,-1
13235,-2080,160,64,23,65,0
13240,-2072,184,48,24,63,0
13245,-2048,160,48,25,62,1
13250,-2064,192,56,26,61,1
13255,-2056,160,56,26,59,0
13260,-2008,216,56,26,59,0
13265,-2056,152,56,26,59,2
13270,-2056,128,64,28,60,1
13275,-2072,168,56,28,61,0
13280,-2056,168,64,27,60,-1
13285,-2064,152,64,25,60,-2
13290,-2080,152,64,23,59,-4
13295,-2064,144,32,22,63,-3
13300,-2064,152,64,23,67,-2
13305,-2080,160,56,21,70,-2
13310,-2064,144,40,21,74,-2
13315,-2072,152,48,18,76,-1
13320,-2072,160,48,19,78,-1
13325,-2064,168,40,18,78,0
13330,-2048,144,48,18,78,-2
13335,-2064,168,48,18,74,-4
13340,-2064,160,72,18,70,-6
13345,-2080,152,56,20,68,-6
13350,-2056,144,32,20,67,-8
13355,-2056,168,32,20,67,-7
13360,-2056,136,56,22,64,-7
13365,-2064,168,56,21,63,-7
13370,-2056,184,24,19,61,-8
13375,-2080,144,48,17,59,-10
13380,-2072,160,72,16,58,-10
13385,-2080,160,56,14,58,-10
13390,-2056,152,32,12,58,-10
13395,-2056,144,88,12,58,-10
13400,-2056,168,64,10,59,-9
13405,-2056,144,80,10,57,-10
13410,-2056,160,56,8,57,-7
13415,-2064,152,96,7,59,-7
13420,-2104,144,48,6,62,-6
13425,-2088,168,96,3,60,-6
13430,-2080,144,64,0,60,-7
13435,-2056,120,32,-1,59,-6
13440,-2080,160,40,-1,57,-6
13445,-2080,144,40,3,55,-6
13450,-2048,128,48,5,54,-7
13455,-2064,136,48,7,51,-7
13460,-2080,152,64,8,49,-8
13465,-2064,160,64,10,49,-8
13470,-2112,192,64,11,48,-6
13475,-2080,160,72,13,49,-5
13480,-2056,184,40,16,49,-4
13485,-2064,128,64,16,50,-5
13490,-2056,144,48,16,50,-7
13495,-2048,136,32,16,51,-9
13500,-2096,152,56,15,50,-10
13505,-2064,152,48,14,48,-9
13510,-2064,152,56,15,46,-10
13515,-2056,144,56,16,46,-9
13520,-2048,160,80,17,48,-10
13525,-2064,160,72,17,52,-10
13530,-2048,168,56,17,54,-8
13535,-2056,152,80,16,57,-9
13540,-2072,152,64,13,61,-7
13545,-2064,144,72,11,68,-5
13550,-2072,144,48,9,71,-6
13555,-2064,152,64,9,73,-5
13560,-2056,176,48,7,72,-3
13565,-2056,144,72,7,71,-4
13570,-2072,144,80,5,72,-4
13575,-2064,168,64,3,73,-4
13580,-2056,96,64,0,75,-4
13585,-2056,160,24,-3,76,-3
13590,-2080,160,72,-2,76,-4
13595,-2056,168,48,0,75,-5
13600,-2056,160,48,4,76,-5
13605,-2056,160,72,6,75,-6
13610,-2064,152,48,7,74,-7
13615,-2048,144,64,8,72,-6
13620,-2072,160,72,8,69,-8
13625,-2048,152,48,10,66,-8
13630,-2048,144,64,10,60,-10
13635,-2064,160,32,10,56,-8
13640,-2072,152,40,12,54,-8
13645,-2048,136,56,11,50,-11
13650,-2064,168,24,13,50,-8
13655,-2056,144,56,14,50,-9
13660,-2056,152,72,14,51,-10
13665,-2064,144,48,15,53,-9
13670,-2056,152,40,15,57,-10
13675,-2064,168,80,14,61,-9
13680,-2048,160,72,11,62,-8
13685,-2072,200,80,10,65,-9
13690,-2056,136,48,7,66,-9
13695,-2056,152,64,4,66,-9
13700,-2088,136,80,2,64,-8
13705,-2048,136,40,1,61,-7
13710,-2072,136,56,2,59,-6
13715,-2056,120,48,3,57,-7
13720,-2072,144,48,6,57,-7
13725,-2056,144,80,8,57,-7
13730,-2080,160,72,9,58,-7
13735,-2056,160,32,8,58,-7
13740,-2072,152,80,10,59,-7
13745,-2048,144,80,9,58,-9
13750,-2080,144,48,7,56,-8
13755,-2080,136,56,7,54,-6
13760,-2048,144,40,10,53,-8
13765,-2048,144,32,13,49,-9
13770,-2056,144,48,16,51,-9
13775,-2024,120,64,19,51,-10
13780,-2072,144,64,22,54,-10
13785,-2064,152,64,22,61,-10
13790,-2088,136,40,22,65,-10
13795,-2064,160,72,20,69,-9
13800,-2048,128,96,18,73,-7
13805,-2056,136,88,15,72,-5
13810,-2064,144,88,12,72,-5
13815,-2072,144,88,12,70,-4
13820,-2064,152,80,11,68,-4
13825,-2072,160,48,10,65,-3
13830,-2056,168,32,10,64,-5
13835,-2064,160,88,9,62,-3
13840,-2064,168,72,11,62,-2
13845,-2064,136,48,8,59,0
13850,-2064,176,56,3,58,0
13855,-2064,168,72,1,56,-3
13860,-2064,176,80,-1,55,-1
13865,-2064,136,56,-3,51,0
13870,-2056,160,56,-5,51,-1
13875,-2072,176,88,-7,53,0
13880,-2072,168,72,-7,55,2
13885,-2056,184,56,-6,59,0
13890,-2072,160,80,-4,62,0
13895,-2048,168,72,0,63,-2
13900,-2096,152,72,5,64,-3
13905,-2048,144,56,10,64,-5
13910,-2064,168,64,14,64,-7
13915,-2080,160,112,15,67,-8
13920,-2064,152,64,15,69,-9
13925,-2080,176,80,15,72,-8
13930,-2072,160,64,15,77,-7
13935,-2056,152,80,15,81,-4
13940,-2040,152,64,14,86,-4
13945,-2048,168,88,13,90,-3
13950,-2080,176,64,11,91,-4
13955,-2064,160,40,9,92,-4
13960,-2072,160,40,9,91,-4
13965,-2064,152,56,7,90,-7
13970,-2072,144,80,4,87,-7
13975,-2072,136,72,3,86,-8
13980,-2064,160,80,1,85,-8
13985,-2080,136,64,0,82,-8
13990,-2088,168,72,-1,80,-9
13995,-2056,152,48,-4,78,-8
14000,-2072,136,56,-5,75,-7
14005,-2064,120,88,-6,74,-9
14010,-2064,152,32,-5,71,-10
14015,-2080,168,56,-3,69,-9
14020,-2064,144,32,-3,68,-10
14025,-2088,168,32,-5,70,-9
14030,-2056,136,8,-8,72,-11
14035,-2064,144,64,-13,71,-12
14040,-2064,136,64,-15,71,-11
14045,-2056,152,56,-17,70,-10
14050,-2064,160,88,-19,69,-7
14055,-2056,136,48,-20,66,-6
14060,-2056,136,56,-22,61,-6
14065,-2072,128,32,-21,59,-4
14070,-2056,136,32,-19,54,-4
14075,-2056,136,72,-17,50,-5
14080,-2072,136,32,-12,49,-5
14085,-2072,104,64,-9,46,-5
14090,-2048,128,64,-6,44,-6
14095,-2064,152,40,-4,41,-7
14100,-2064,160,64,-2,40,-8
14105,-2088,144,56,-2,41,-8
14110,-2048,136,144,-1,46,-5
14115,-2056,128,72,-4,54,-5
14120,-2048,128,72,-9,64,-3
14125,-2032,152,48,-16,71,-2
14130,-2048,168,88,-21,77,-2
14135,-2048,128,80,-24,79,-1
14140,-2040,136,88,-24,78,1
14145,-2056,152,88,-21,74,1
14150,-2056,136,64,-19,71,1
14155,-2048,144,48,-18,67,-1
14160,-2056,96,80,-17,66,-1
14165,-2072,112,56,-14,64,-2
14170,-2056,144,88,-14,62,-1
14175,-2056,168,72,-14,63,0
14180,-2056,160,72,-13,63,-1
14185,-2096,184,40,-13,63,2
14190,-2064,160,56,-14,66,1
14195,-2072,176,80,-14,69,0
14200,-2064,184,56,-15,69,0
14205,-2072,160,48,-16,72,-2
14210,-2072,152,64,-15,72,-4
14215,-2072,144,72,-13,72,-5
14220,-2080,152,56,-11,71,-5
14225,-2056,136,72,-10,72,-6
14230,-2064,152,88,-5,74,-6
14235,-2056,136,96,-3,75,-6
14240,-2048,152,56,-4,77,-6
14245,-2048,144,40,-3,78,-6
14250,-2072,152,64,-1,77,-4
14255,-2048,128,64,0,76,-4
14260,-2048,160,40,1,76,-5
14265,-2064,144,64,1,73,-4
14270,-2064,136,56,1,71,-4
14275,-2056,168,72,-1,69,-5
14280,-2048,144,40,-1,67,-6
14285,-2048,152,80,-4,66,-6
14290,-2048,144,72,-5,62,-7
14295,-2056,136,40,-7,63,-6
14300,-2064,160,48,-8,65,-7
14305,-2048,160,56,-9,64,-6
14310,-2080,152,88,-9,65,-5
14315,-2056,136,56,-9,65,-5
14320,-2056,168,56,-7,64,-6
14325,-2016,144,56,-11,64,-5
14330,-2080,120,24,-14,62,-4
14335,-2064,128,64,-16,62,-5
14340,-2056,136,56,-15,62,-5
14345,-2072,136,56,-13,62,-5
14350,-2048,128,88,-10,62,-5
14355,-2064,136,40,-10,64,-4
14360,-2072,144,88,-11,64,-4
14365,-2072,152,56,-13,62,-5
14370,-2056,128,24,-14,59,-4
14375,-2056,144,80,-14,58,-4
14380,-2072,168,64,-12,57,-5
14385,-2056,144,72,-13,59,-5
14390,-2048,136,72,-14,60,-4
14395,-2056,144,64,-15,61,-2
14400,-2064,136,80,-17,62,-3
14405,-2056,152,88,-17,65,-4
14410,-2048,160,72,-16,65,-3
14415,-2064,144,56,-15,67,-5
14420,-2064,128,88,-12,68,-5
14425,-2056,152,80,-13,69,-6
14430,-2056,208,24,-13,69,-4
14435,-2056,160,40,-14,69,-5
14440,-2056,144,80,-14,67,-5
14445,-2048,152,64,-13,68,-2
14450,-2064,184,88,-13,67,-3
14455,-2064,144,80,-13,67,-1
14460,-2056,160,72,-14,67,-2
14465,-2040,144,56,-14,67,-2
14470,-2056,160,80,-15,68,-3
14475,-2048,144,48,-15,68,-1
14480,-2064,144,40,-14,69,-3
14485,-2048,136,88,-14,68,-2
14490,-2072,168,104,-14,70,-3
14495,-2048,152,88,-12,71,-3
14500,-2056,120,48,-13,72,-3
14505,-2056,120,48,-13,73,-2
14510,-2064,152,96,-12,72,-2
14515,-2040,112,56,-10,71,-2
14520,-2048,144,72,-11,70,-2
14525,-2048,144,80,-11,68,-1
14530,-2056,136,40,-13,67,-2
14535,-2064,160,64,-14,67,-2
14540,-2072,144,48,-12,67,-3
14545,-2056,160,72,-11,67,-3
14550,-2064,144,48,-10,68,-4
14555,-2056,144,64,-11,69,-2
14560,-2072,152,72,-11,70,-1
14565,-2056,160,32,-12,69,-1
14570,-2056,120,64,-13,70,-3
14575,-2064,136,64,-12,69,-2
14580,-2056,152,64,-13,70,-2
14585,-2048,128,96,-12,69,-1
14590,-2064,160,56,-11,70,-1
14595,-2064,144,80,-12,68,-2
14600,-2072,144,72,-12,69,-1
14605,-2080,160,48,-13,69,0
14610,-2072,128,40,-13,69,0
14615,-2056,152,72,-12,67,1
14620,-2064,160,88,-9,64,0
14625,-2064,136,48,-7,64,-1
14630,-2072,136,72,-7,65,1
14635,-2072,168,80,-9,67,0
14640,-2064,144,64,-11,70,0
14645,-2096,152,96,-10,72,-3
14650,-2056,144,80,-11,73,-2
14655,-2048,144,64,-11,75,-2
14660,-2056,144,56,-12,72,-1
14665,-2064,120,80,-11,72,-1
14670,-2072,128,72,-10,68,-3
14675,-2056,128,64,-8,68,-3
14680,-2064,144,72,-7,68,-4
14685,-2056,136,64,-7,68,-4
14690,-2056,152,56,-8,70,-5
14695,-2048,152,80,-10,71,-3
14700,-2056,136,88,-10,72,-4
14705,-2048,160,64,-12,72,-4
14710,-2048,128,64,-11,72,-5
14715,-2056,160,56,-10,70,-2
14720,-2056,152,48,-11,70,-2
14725,-2064,144,88,-13,68,-2
14730,-2048,160,72,-14,67,-2
14735,-2064,144,56,-12,66,-3
14740,-2064,152,88,-12,67,-2
14745,-2072,144,80,-10,65,-2
14750,-1992,256,40,-9,65,-2
14755,-2056,128,88,-9,66,-3
14760,-2056,152,104,-10,67,-3
14765,-2056,152,56,-9,68,-1
14770,-2072,152,56,-9,70,-1
14775,-2056,104,32,-9,70,0
14780,-2064,128,56,-10,70,0
14785,-2064,176,56,-8,72,-2
14790,-2064,168,48,-7,71,-2
14795,-2056,144,88,-8,71,-1
14800,-2048,144,48,-7,71,-1
14805,-2064,160,80,-6,70,-1
14810,-2064,160,56,-6,69,-1
14815,-2064,160,72,-6,69,-2
14820,-2080,136,64,-7,69,-1
14825,-2056,144,72,-8,69,0
14830,-2064,168,56,-7,68,0
14835,-2056,144,80,-4,67,-1
14840,-2072,144,80,-4,65,0
14845,-2064,136,40,-2,67,-2
14850,-2064,144,56,-2,68,-1
14855,-2064,152,72,-3,69,-2
14860,-2032,200,80,-4,71,-2
14865,-2056,160,64,-5,72,-1
14870,-2072,168,88,-6,73,-1
14875,-2056,152,32,-5,76,-2
14880,-2064,152,72,-8,79,-2
14885,-2080,160,64,-10,80,-2
14890,-2056,144,72,-13,81,-1
14895,-2064,128,56,-15,81,-2
14900,-2056,136,56,-15,79,-1
14905,-2056,152,56,-15,78,1
14910,-2080,152,64,-13,76,0
14915,-2056,152,72,-12,75,1
14920,-2056,176,56,-9,73,0
14925,-2080,176,72,-8,73,-2
14930,-2056,144,48,-8,72,-3
14935,-2056,152,40,-7,73,-4
14940,-2064,144,40,-7,71,-4
14945,-2072,160,40,-6,72,-5
14950,-2064,176,56,-6,71,-6
14955,-2056,160,72,-4,70,-5
14960,-2064,152,72,-3,68,-5
14965,-2032,232,64,-1,64,-6
14970,-2048,136,64,0,63,-5
14975,-2064,104,64,3,63,-4
14980,-2048,144,72,6,62,-4
14985,-2048,152,64,6,63,-3
14990,-2048,160,48,6,64,-4
14995,-2064,136,72,6,64,-3
