timestamp,accel_x,accel_y,accel_z,gyro_x,gyro_y,gyro_z
0,360,-2016,-96,6,57,-9
5,368,-2024,-72,6,59,-8
10,352,-2040,-64,6,59,-8
15,344,-2032,-56,7,60,-7
20,352,-2016,-72,8,61,-9
25,360,-2016,-72,12,62,-7
30,360,-2008,-48,13,61,-8
35,368,-2024,-56,12,62,-9
40,336,-2024,-64,14,62,-7
45,384,-2016,-64,17,63,-7
50,352,-1984,-48,15,63,-6
55,360,-2000,-56,16,62,-8
60,352,-2016,-48,14,62,-7
65,376,-2032,-80,14,62,-6
70,344,-2016,-72,12,61,-5
75,336,-2016,-80,10,62,-5
80,336,-2016,-72,9,63,-3
85,312,-1992,-40,7,63,-2
90,328,-2008,-40,5,62,-1
95,328,-2024,-40,4,61,-3
100,328,-2016,-40,4,63,0
105,360,-2016,-40,2,64,-1
110,336,-2008,-80,3,62,1
115,344,-2008,-56,3,61,-1
120,320,-2008,-56,3,61,0
125,344,-2016,-40,3,61,-2
130,360,-2024,-48,4,59,-2
135,336,-2016,-64,5,59,-5
140,336,-2000,-80,5,57,-2
145,344,-2008,-80,5,58,-5
150,336,-2016,-72,5,57,-3
155,336,-2024,-72,4,60,-6
160,360,-2016,-56,6,60,-5
165,344,-2000,-48,6,59,-5
170,376,-2016,-80,7,60,-3
175,352,-2000,-40,7,61,-5
180,336,-2000,-48,6,61,-3
185,376,-2040,-48,7,61,-4
190,376,-2040,-48,8,61,-2
195,368,-2008,-56,10,62,-3
200,384,-2008,-64,11,63,-1
205,368,-2016,-48,13,63,-3
210,368,-2008,-64,14,64,0
215,368,-2000,-96,15,65,-3
220,360,-2024,-72,17,64,-1
225,336,-2008,-56,16,66,-2
230,336,-2024,-64,15,66,2
235,360,-2008,-48,13,68,-1
240,336,-2024,-48,12,68,3
245,352,-2032,-48,11,67,2
250,352,-2000,-64,9,68,5
255,328,-1992,-56,7,70,4
260,344,-2024,-56,4,71,7
265,336,-2008,-56,3,71,5
270,336,-2000,-40,3,71,7
275,320,-2032,-64,1,72,4
280,328,-2024,-48,1,72,7
285,336,-2032,-64,3,72,4
290,344,-2024,-48,6,73,6
295,336,-2032,-48,7,70,2
300,352,-2032,-40,8,69,5
305,328,-2032,-56,11,70,1
310,352,-2024,-56,11,68,1
315,344,-2016,-48,12,65,-2
320,368,-2048,-48,12,65,-1
325,360,-2032,-48,12,64,-5
330,328,-2016,-104,10,65,-4
335,376,-2008,-72,9,64,-6
340,352,-2024,-88,7,63,-4
345,368,-1992,-72,5,63,-9
350,344,-1976,-56,3,64,-7
355,360,-2008,-88,0,63,-9
360,328,-2008,-48,1,63,-5
365,352,-2000,-56,-1,62,-5
370,320,-2000,-48,-1,59,-3
375,344,-2000,-40,0,58,-4
380,328,-1992,-40,3,56,-3
385,336,-2000,-56,3,56,-4
390,360,-2024,-80,6,56,-2
395,352,-2016,-40,7,54,-4
400,368,-2024,-40,9,57,-1
405,360,-2000,-40,10,58,-4
410,352,-2008,-40,9,58,-4
415,360,-2000,-32,9,59,-5
420,336,-2008,-40,6,59,-4
425,360,-2032,-48,6,60,-6
430,352,-2000,-40,4,58,-5
435,352,-2008,-56,3,58,-7
440,344,-2008,-64,1,58,-5
445,336,-2000,-16,-1,57,-7
450,336,-1992,-48,-2,59,-5
455,344,-2008,-24,-5,58,-6
460,344,-2016,-32,-7,59,-5
465,336,-2000,-56,-10,60,-6
470,328,-2008,-48,-11,58,-4
475,344,-2016,-32,-13,59,-6
480,344,-2016,-48,-16,58,-6
485,328,-2024,-40,-16,59,-5
490,312,-2016,-48,-15,57,-6
495,328,-2016,-8,-14,58,-6
500,312,-2016,-56,-13,56,-5
505,328,-2032,-40,-12,55,-6
510,320,-1992,-80,-8,58,-6
515,344,-2008,-40,-7,58,-5
520,376,-2040,-40,-5,59,-7
525,344,-2040,-48,-4,60,-8
530,360,-2024,-32,-3,60,-10
535,352,-2008,-40,-2,61,-9
540,360,-2016,-56,-2,58,-10
545,352,-2008,-56,-3,56,-11
550,336,-1992,-48,-4,55,-11
555,344,-2032,-56,-4,55,-12
560,344,-2032,-80,-4,52,-12
565,352,-2016,-40,-4,52,-10
570,336,-2016,-56,-3,50,-11
575,336,-2000,-64,-4,47,-10
580,320,-1984,-56,-4,46,-10
585,344,-2008,-48,-4,46,-10
590,352,-2024,-32,-7,46,-11
595,352,-2000,-64,-10,44,-11
600,360,-2024,-64,-9,45,-12
605,336,-2000,-72,-10,44,-13
610,368,-2040,-24,-10,42,-13
615,344,-1992,-88,-10,44,-13
620,392,-2024,-8,-12,43,-16
625,352,-2056,-56,-10,42,-14
630,368,-2040,-48,-9,42,-17
635,376,-2032,-32,-8,42,-17
640,344,-2000,-40,-5,41,-18
645,360,-2016,-56,-4,40,-16
650,368,-2032,-72,-3,40,-20
655,344,-2016,-56,-3,39,-16
660,368,-2016,-48,-2,39,-18
665,344,-2024,-48,-1,40,-14
670,368,-1984,-40,-1,42,-16
675,392,-2016,-80,-1,42,-13
680,416,-2024,-72,-1,45,-15
685,408,-2032,-72,0,50,-12
690,368,-2016,-72,-1,57,-14
695,336,-2000,-40,-3,57,-12
700,304,-2024,-72,-3,57,-13
705,280,-2016,-56,-8,53,-9
710,296,-2040,-48,-9,47,-11
715,312,-2008,-64,-9,43,-8
720,312,-2008,-72,-6,42,-7
725,312,-2016,-104,-5,42,-2
730,360,-2016,-80,-2,44,-4
735,352,-2016,-48,-2,46,-2
740,344,-2008,-40,-2,46,-4
745,368,-2008,-72,-2,47,-4
750,376,-1992,-40,-1,47,-10
755,400,-2016,-80,-1,44,-11
760,376,-2008,-56,-1,47,-17
765,384,-1976,-40,0,45,-17
770,400,-2000,-56,-1,45,-22
775,400,-2008,-56,0,46,-19
780,376,-2008,-80,-1,47,-22
785,400,-2016,-32,-1,47,-21
790,392,-2000,-48,-2,47,-24
795,400,-2016,-24,-3,47,-21
800,392,-2008,-56,-2,47,-22
805,376,-2016,-56,-4,47,-17
810,360,-2024,-48,-4,47,-17
815,360,-2008,-24,-3,46,-13
820,360,-2024,-32,-4,46,-13
825,368,-2000,-48,-3,46,-8
830,344,-2016,-48,-2,49,-8
835,368,-2016,-24,-2,48,-5
840,360,-2016,-40,0,51,-6
845,368,-2000,-24,-1,52,-4
850,368,-2016,-16,-2,53,-7
855,352,-2016,-32,-2,55,-4
860,392,-2040,-72,-2,58,-6
865,360,-2000,-48,0,58,-4
870,384,-2024,-80,0,60,-6
875,376,-2032,-48,4,59,-4
880,344,-2040,-40,5,60,-6
885,352,-2024,-56,6,59,-1
890,376,-2000,-64,5,60,-3
895,360,-2024,-56,7,61,0
900,376,-2000,-16,7,61,0
905,376,-2008,-32,7,62,2
910,384,-1984,-64,9,64,0
915,376,-1984,-64,11,66,2
920,384,-2016,-48,12,67,0
925,352,-1992,-32,12,71,2
930,408,-2008,-40,11,71,-2
935,384,-2000,-32,11,73,1
940,392,-2008,-48,11,73,-2
945,400,-2024,-40,11,74,-1
950,368,-2008,-48,9,74,-2
955,376,-2016,-32,8,74,0
960,384,-2024,-72,7,75,-1
965,376,-2000,-64,8,79,0
970,384,-2024,-56,6,80,1
975,360,-2000,-48,3,82,3
980,368,-2000,-40,3,83,1
985,392,-2016,-56,2,84,4
990,360,-2024,-40,2,86,3
995,368,-2040,-48,2,86,4
1000,360,-2024,-16,3,85,3
1005,360,-1992,0,3,85,4
1010,352,-2000,-24,5,85,3
1015,344,-1992,-40,5,83,5
1020,352,-2024,-32,6,85,5
1025,368,-2016,-40,7,83,6
1030,336,-2024,-32,7,84,6
1035,344,-2016,-40,6,83,8
1040,352,-2024,-32,6,83,8
1045,352,-2008,-24,6,83,9
1050,352,-1992,-16,7,81,10
1055,360,-2008,-48,6,81,11
1060,368,-2016,-72,7,79,13
1065,360,-2008,-56,7,76,13
1070,336,-2032,-48,7,74,14
1075,336,-2008,-8,7,73,15
1080,336,-2016,-40,7,71,16
1085,336,-2000,-48,6,68,17
1090,328,-1984,-80,7,67,18
1095,336,-2016,-32,7,66,17
1100,336,-2016,-32,6,63,20
1105,352,-2008,-24,6,66,17
1110,312,-2016,-24,7,67,16
1115,352,-2016,-40,8,66,15
1120,360,-2024,-72,8,65,15
1125,352,-2016,-16,8,65,14
1130,352,-2024,-24,11,66,15
1135,392,-2016,-48,11,68,13
1140,376,-2016,-24,13,68,13
1145,360,-2016,-24,13,71,11
1150,376,-2032,-8,15,72,13
1155,384,-2032,-16,18,70,12
1160,360,-2024,-24,19,71,13
1165,368,-2032,-24,21,69,11
1170,352,-2016,-24,21,69,12
1175,352,-2024,-24,22,69,11
1180,376,-2016,-32,22,67,13
1185,352,-2008,-32,21,68,11
1190,344,-2016,8,21,69,13
1195,368,-2008,-32,22,69,13
1200,352,-2000,16,21,68,15
1205,368,-2016,16,20,68,12
1210,352,-1992,8,19,67,14
1215,368,-2032,-48,20,66,11
1220,352,-2016,-8,20,66,13
1225,352,-2024,-40,20,65,10
1230,360,-2016,-16,22,66,13
1235,344,-2008,-16,21,69,11
1240,352,-2016,-16,21,68,13
1245,352,-2024,0,20,66,10
1250,344,-2016,-48,18,66,12
1255,328,-1992,16,17,65,9
1260,336,-2000,-8,16,66,12
1265,360,-2008,-8,12,69,10
1270,344,-1992,-8,11,70,12
1275,336,-2016,-16,9,69,9
1280,360,-2032,-16,8,69,10
1285,304,-2000,-16,7,67,8
1290,352,-2024,-24,6,67,10
1295,352,-2016,-24,6,66,8
1300,320,-2000,-24,5,66,11
1305,344,-2024,-8,4,66,8
1310,344,-2016,-8,4,66,10
1315,320,-2008,-32,5,65,6
1320,336,-2008,-40,3,65,9
1325,328,-2000,-32,2,65,6
1330,344,-2032,-8,1,64,9
1335,312,-1992,-8,-1,63,7
1340,352,-2024,0,-1,62,9
1345,336,-2000,-16,-3,62,4
1350,336,-2016,0,-3,60,5
1355,360,-2024,16,-4,62,2
1360,328,-2000,-24,-5,61,3
1365,328,-2008,-24,-6,62,-1
1370,360,-2008,16,-8,61,1
1375,352,-2008,-8,-10,61,-1
1380,360,-1992,-16,-10,62,1
1385,352,-2016,-32,-13,64,-1
1390,344,-2024,0,-14,62,0
1395,344,-2008,-16,-16,62,-2
1400,352,-2008,-16,-17,64,-1
1405,352,-2016,16,-20,64,-4
1410,360,-2008,-8,-21,62,-1
1415,344,-2000,-40,-21,64,-3
1420,320,-2016,-8,-24,63,-2
1425,320,-2016,-40,-25,61,-4
1430,344,-2040,-16,-25,61,-2
1435,344,-2040,-24,-25,61,-3
1440,360,-2024,0,-22,60,-1
1445,328,-2040,-8,-20,59,-4
1450,360,-2016,-16,-19,60,-2
1455,312,-1984,-32,-20,59,-4
1460,352,-2024,16,-20,59,-3
1465,352,-2024,-16,-20,62,-4
1470,352,-2008,-16,-19,60,-5
1475,368,-2016,24,-20,60,-6
1480,360,-2024,-16,-21,60,-6
1485,336,-2008,0,-20,61,-8
1490,344,-2000,-24,-19,61,-7
1495,352,-2008,0,-20,61,-9
1500,344,-2008,-16,-22,60,-9
1505,344,-2008,16,-23,61,-9
1510,344,-2024,16,-24,62,-10
1515,352,-2000,16,-25,61,-9
1520,352,-2016,-16,-27,60,-8
1525,336,-2032,-8,-28,59,-8
1530,352,-2016,0,-29,58,-7
1535,320,-2016,-16,-30,58,-9
1540,320,-2032,0,-31,57,-8
1545,328,-2016,-8,-31,56,-6
1550,352,-2032,-24,-32,55,-6
1555,344,-2024,-24,-34,53,-7
1560,344,-2016,-8,-34,54,-8
1565,344,-2024,0,-34,50,-9
1570,336,-1992,0,-35,52,-10
1575,352,-2016,24,-35,52,-9
1580,320,-2008,-24,-37,52,-12
1585,344,-2008,-16,-37,52,-14
1590,344,-2016,-24,-39,53,-15
1595,352,-2000,-24,-39,54,-16
1600,328,-2000,-24,-40,53,-16
1605,352,-2016,0,-43,56,-16
1610,344,-2008,-8,-46,56,-15
1615,344,-2000,-8,-49,55,-14
1620,336,-2000,-48,-51,54,-14
1625,328,-1992,-16,-51,54,-12
1630,360,-2000,16,-52,53,-11
1635,352,-2016,-32,-50,53,-9
1640,344,-2000,0,-49,52,-9
1645,312,-2016,-24,-48,52,-8
1650,368,-2008,-16,-46,51,-7
1655,336,-1984,8,-46,50,-7
1660,368,-2000,-16,-45,50,-8
1665,304,-2024,40,-44,51,-7
1670,240,-2016,-32,-43,50,-10
1675,376,-1976,8,-42,50,-11
1680,240,-2016,-96,-39,49,-13
1685,384,-1992,112,-40,50,-12
1690,360,-2032,-32,-39,51,-15
1695,352,-2024,-8,-39,52,-15
1700,360,-2008,-48,-40,52,-17
1705,352,-2000,-40,-41,53,-15
1710,336,-1992,-16,-43,55,-19
1715,368,-1984,-24,-45,56,-17
1720,360,-2000,-24,-51,57,-20
1725,360,-1984,-8,-58,58,-16
1730,360,-1976,-16,-63,60,-17
1735,368,-2000,-16,-68,61,-15
1740,344,-1992,-24,-72,63,-15
1745,376,-2032,-16,-72,63,-13
1750,376,-2016,0,-72,65,-15
1755,368,-2040,-24,-69,65,-11
1760,368,-2040,8,-63,64,-13
1765,352,-2024,-16,-55,62,-9
1770,392,-2024,-56,-48,61,-11
1775,368,-2024,-64,-38,59,-9
1780,384,-2056,-64,-30,57,-9
1785,392,-2040,-72,-26,55,-6
1790,360,-2008,-48,-25,55,-7
1795,352,-2000,-104,-26,54,-2
1800,344,-2032,-48,-26,51,-4
1805,352,-2008,-88,-29,51,-2
1810,328,-2000,-72,-31,51,-2
1815,352,-2008,-64,-35,52,0
1820,328,-2000,-56,-38,52,-2
1825,352,-2024,-56,-40,56,-1
1830,344,-2008,-64,-43,57,-3
1835,368,-2024,-64,-45,58,-2
1840,352,-2016,-48,-45,61,-6
1845,352,-2016,-56,-46,59,-3
1850,376,-2024,-56,-46,60,-9
1855,336,-2024,-32,-45,60,-6
1860,360,-2032,-24,-43,61,-12
1865,360,-2024,-56,-42,61,-10
1870,352,-2024,-80,-40,60,-13
1875,352,-2016,-32,-41,60,-10
1880,368,-2032,-80,-42,59,-13
1885,344,-2008,-48,-41,60,-10
1890,376,-2032,-64,-41,60,-12
1895,344,-2016,-48,-42,58,-8
1900,360,-2008,-48,-42,58,-9
1905,360,-2000,-64,-45,57,-6
1910,360,-2000,-64,-47,56,-9
1915,344,-2016,-72,-47,56,-7
1920,336,-2000,-48,-50,53,-9
1925,344,-2024,-64,-49,54,-6
1930,344,-2008,-48,-50,53,-9
1935,352,-2000,-56,-50,52,-6
1940,352,-2000,-24,-50,52,-8
1945,344,-1976,-56,-51,53,-7
1950,344,-2008,-80,-51,53,-9
1955,368,-2008,-32,-53,53,-7
1960,352,-2024,-48,-54,53,-10
1965,368,-2008,-56,-53,54,-10
1970,344,-2008,-40,-55,55,-12
1975,360,-2008,-40,-55,55,-10
1980,336,-2016,-56,-56,54,-13
1985,352,-2000,-48,-57,55,-12
1990,336,-2024,-24,-58,55,-14
1995,384,-2024,-56,-58,53,-12
2000,352,-2008,-32,-59,52,-15
2005,368,-2024,-72,-61,52,-14
2010,344,-2000,-64,-63,52,-17
2015,376,-2008,-64,-65,53,-15
2020,376,-2000,-48,-69,53,-18
2025,376,-1992,-40,-70,54,-18
2030,384,-2024,-48,-74,55,-21
2035,352,-1992,-24,-78,55,-21
2040,360,-2000,-56,-81,56,-22
2045,352,-2008,-56,-85,56,-22
2050,360,-2016,-56,-90,57,-25
2055,352,-1992,-80,-95,59,-23
2060,368,-2000,-56,-100,59,-25
2065,376,-2008,-64,-103,59,-25
2070,360,-1992,-48,-106,59,-27
2075,352,-2024,-48,-107,57,-26
2080,360,-2024,-32,-107,57,-26
2085,376,-2016,-64,-106,55,-26
2090,344,-2024,-56,-102,55,-26
2095,352,-2024,-72,-99,53,-25
2100,360,-2040,-80,-94,52,-23
2105,352,-2024,-80,-89,52,-20
2110,336,-2032,-88,-85,50,-19
2115,368,-2040,-72,-80,48,-17
2120,376,-2016,-80,-75,48,-16
2125,360,-2016,-72,-70,47,-13
2130,360,-2016,-64,-65,46,-10
2135,400,-2048,-104,-59,48,-9
2140,392,-2040,-96,-54,47,-6
2145,400,-2032,-88,-49,49,-6
2150,408,-2024,-112,-43,47,-6
2155,392,-2024,-128,-42,47,-7
2160,392,-1992,-96,-37,47,-7
2165,392,-2008,-72,-37,47,-9
2170,384,-2016,-88,-36,46,-9
2175,360,-2016,-96,-38,47,-10
2180,376,-2008,-88,-39,47,-10
2185,344,-2000,-104,-41,49,-11
2190,376,-2016,-72,-42,48,-11
2195,336,-2000,-64,-44,50,-12
2200,368,-2016,-64,-44,50,-13
2205,352,-2000,-88,-44,51,-14
2210,344,-2016,-80,-44,53,-14
2215,368,-2016,-112,-43,56,-15
2220,368,-2032,-80,-42,59,-15
2225,384,-2024,-80,-40,59,-16
2230,352,-2016,-88,-37,59,-15
2235,368,-2032,-104,-34,61,-15
2240,352,-2008,-64,-31,62,-13
2245,376,-2040,-88,-28,64,-13
2250,392,-2024,-120,-28,64,-10
2255,360,-2008,-104,-26,64,-10
2260,376,-2008,-128,-26,63,-8
2265,368,-2024,-104,-28,63,-8
2270,384,-2016,-120,-26,61,-5
2275,376,-2024,-48,-26,60,-4
2280,360,-2000,-120,-25,59,-2
2285,376,-2000,-104,-26,59,-2
2290,376,-2016,-96,-22,58,0
2295,392,-2040,-72,-20,58,-2
2300,376,-2040,-112,-14,58,-1
2305,360,-2008,-136,-10,57,-3
2310,376,-2040,-88,-5,58,-1
2315,384,-2024,-96,-1,57,-3
2320,360,-2016,-96,4,58,0
2325,368,-2040,-104,7,58,-3
2330,384,-2024,-64,9,60,-2
2335,352,-2024,-88,9,58,-4
2340,360,-1976,-96,8,57,-3
2345,368,-1992,-104,10,57,-4
2350,376,-2008,-80,9,56,-2
2355,360,-2016,-112,9,56,-6
2360,360,-2008,-72,9,56,-4
2365,376,-2024,-88,7,55,-8
2370,352,-2008,-104,7,54,-6
2375,376,-2040,-88,9,53,-8
2380,352,-2024,-80,11,54,-7
2385,368,-2016,-88,13,55,-10
2390,352,-2008,-104,14,55,-8
2395,352,-2024,-104,15,53,-10
2400,360,-2008,-88,18,53,-7
2405,376,-2016,-96,20,54,-8
2410,352,-2024,-88,21,55,-6
2415,344,-2016,-88,22,55,-8
2420,360,-2032,-120,24,55,-5
2425,400,-2032,-72,21,56,-7
2430,376,-2008,-72,22,54,-4
2435,384,-2016,-80,22,55,-9
2440,376,-2000,-96,22,56,-5
2445,360,-2016,-96,20,54,-6
2450,368,-2024,-88,20,53,-3
2455,360,-2008,-88,19,54,-4
2460,376,-2024,-80,20,53,-2
2465,344,-2032,-64,19,55,-5
2470,376,-2016,-88,18,54,-1
2475,384,-2000,-80,18,53,-3
2480,368,-2008,-64,18,54,1
2485,384,-2016,-72,19,55,-1
2490,368,-2016,-88,18,56,2
2495,384,-2024,-96,19,55,-1
2500,368,-2008,-88,17,55,2
2505,376,-2008,-96,18,57,-1
2510,360,-2008,-64,19,56,1
2515,352,-2016,-96,19,53,0
2520,368,-2024,-80,17,54,2
2525,360,-2016,-80,16,56,-1
2530,352,-2040,-80,15,56,2
2535,368,-2016,-80,16,55,-1
2540,376,-2024,-56,15,56,1
2545,376,-2016,-64,15,55,-2
2550,368,-2008,-80,16,54,1
2555,384,-2016,-72,16,55,0
2560,384,-2024,-64,16,54,1
2565,368,-2016,-40,19,56,0
2570,384,-2016,-80,18,55,3
2575,384,-2016,-80,20,57,1
2580,376,-2016,-72,20,57,2
2585,400,-2016,-56,21,57,1
2590,400,-2016,-72,22,57,2
2595,368,-2008,-72,23,57,2
2600,376,-2000,-80,25,56,4
2605,408,-2024,-64,24,57,3
2610,392,-2032,-96,25,56,3
2615,400,-2008,-72,25,57,3
2620,384,-2016,-72,24,58,6
2625,392,-1984,-32,23,57,5
2630,376,-2008,-56,22,58,7
2635,352,-2016,-64,21,59,7
2640,376,-2008,-80,23,59,9
2645,384,-1992,-104,22,60,9
2650,368,-1992,-64,22,61,9
2655,376,-2008,-40,21,60,9
2660,352,-2008,-32,20,61,12
2665,376,-2008,-72,18,64,12
2670,376,-2032,-72,19,63,13
2675,368,-1992,-72,19,65,11
2680,376,-2024,-88,18,67,11
2685,376,-2008,-64,18,68,12
2690,368,-1992,-64,18,68,13
2695,368,-2016,-56,18,69,11
2700,368,-2016,-56,18,70,12
2705,384,-2024,-80,19,68,11
2710,400,-2016,-48,21,69,12
2715,392,-2008,-56,20,68,12
2720,344,-2008,-56,17,68,12
2725,368,-2008,-24,16,68,12
2730,376,-2000,-48,15,68,12
2735,376,-2024,-56,15,67,13
2740,376,-2000,-48,14,67,12
2745,368,-2000,-40,12,67,12
2750,376,-2000,-48,10,65,11
2755,376,-2008,-40,8,66,13
2760,368,-2016,-56,6,66,13
2765,368,-2008,-40,5,66,15
2770,384,-2008,-72,6,67,14
2775,368,-2024,-64,6,68,14
2780,376,-2008,-40,5,66,14
2785,368,-2000,-32,7,66,15
2790,360,-2000,-40,6,66,14
2795,360,-2016,-48,7,66,15
2800,360,-2000,-24,7,65,15
2805,360,-2008,-32,6,64,16
2810,360,-2000,-56,5,66,16
2815,368,-2016,-48,7,68,18
2820,360,-2016,-40,6,69,16
2825,368,-2024,-24,4,68,17
2830,368,-2024,-48,5,67,15
2835,360,-2032,-24,4,66,15
2840,360,-2032,-64,5,65,13
2845,360,-2008,-56,7,64,14
2850,352,-2040,-72,9,66,13
2855,376,-2040,-56,12,66,15
2860,344,-2016,-48,12,67,13
2865,352,-1992,-24,14,66,15
2870,352,-2024,-72,13,68,13
2875,344,-1992,-80,12,68,15
2880,352,-2016,-64,13,68,12
2885,352,-2016,-56,11,67,15
2890,360,-2008,-88,12,67,14
2895,336,-1992,-72,12,67,16
2900,368,-1984,-64,9,67,14
2905,360,-2016,-40,9,67,17
2910,368,-2040,-56,9,66,14
2915,376,-2016,-8,8,67,16
2920,352,-2008,-48,8,68,13
2925,368,-2000,-48,9,67,15
2930,376,-2000,-64,7,68,14
2935,344,-2008,-32,7,69,15
2940,368,-2024,-48,6,68,11
2945,352,-2008,-32,6,68,13
2950,376,-2032,-40,6,67,12
2955,344,-2040,-48,5,67,14
2960,352,-2024,-88,4,66,11
2965,368,-2008,-40,2,67,16
2970,304,-2048,-48,0,68,13
2975,352,-2008,-48,-1,68,16
2980,352,-2016,-48,-1,67,13
2985,344,-2016,-64,-3,67,16
2990,336,-2000,-32,-3,67,14
2995,344,-2040,-40,-4,64,16
3000,360,-2056,-56,-2,64,11
3005,352,-2008,-64,-2,64,14
3010,360,-2000,-48,0,65,11
3015,360,-2008,-56,-2,64,13
3020,360,-2024,-48,2,65,9
3025,328,-2024,-48,3,64,13
3030,368,-2008,-64,3,64,10
3035,344,-1984,-48,3,64,12
3040,344,-2016,-24,4,63,9
3045,344,-2000,-56,2,63,10
3050,344,-2032,-32,4,64,8
3055,336,-2016,-56,4,63,11
3060,352,-2024,-64,4,62,9
3065,328,-2024,-48,4,63,11
3070,352,-2032,-24,6,61,8
3075,344,-2016,-80,6,61,10
3080,352,-2024,-56,6,62,6
3085,328,-2008,-56,7,61,8
3090,328,-2016,-56,7,61,5
3095,352,-2032,-16,7,61,7
3100,336,-2000,-40,7,62,6
3105,344,-2016,-56,8,61,8
3110,360,-2024,-48,7,62,6
3115,344,-2032,-8,5,62,9
3120,352,-2008,-40,5,62,7
3125,376,-2024,-40,4,62,9
3130,352,-2008,-32,3,62,6
3135,352,-2008,-40,4,62,8
3140,360,-2024,-56,3,62,6
3145,344,-2024,-40,1,61,7
3150,360,-2000,-32,2,61,5
3155,336,-2024,-56,1,60,5
3160,352,-2000,-40,2,59,2
3165,328,-2008,-24,2,57,3
3170,344,-2016,-56,2,57,1
3175,336,-2016,-32,1,57,2
3180,352,-2024,-32,1,58,1
3185,344,-2016,-24,-1,58,2
3190,328,-1992,-40,-1,58,1
3195,328,-2008,-56,-1,58,0
3200,344,-2024,-32,-1,57,0
3205,296,-2008,-48,-1,58,0
3210,352,-2032,-8,-1,58,-2
3215,336,-2032,-16,-1,58,2
3220,344,-2040,-24,0,58,-1
3225,344,-2040,-24,1,58,1
3230,336,-2000,-40,2,57,1
3235,376,-2040,-32,3,56,2
3240,376,-2024,-16,2,56,3
3245,344,-2008,-24,2,56,2
3250,344,-2032,-24,3,56,1
3255,352,-2024,-40,1,56,1
3260,352,-2016,-8,2,56,-1
3265,360,-2024,-64,1,56,0
3270,352,-2008,-48,1,53,-2
3275,344,-2000,-24,1,55,-1
3280,344,-2008,-40,0,55,-2
3285,352,-2008,-16,1,55,-1
3290,352,-2016,-32,0,56,-1
3295,328,-2016,-40,0,57,0
3300,360,-2016,-48,0,58,1
3305,352,-2008,0,-2,57,-1
3310,336,-2016,-8,-1,56,-1
3315,360,-1992,-32,-2,55,0
3320,344,-2016,-32,-1,55,0
3325,344,-2016,-40,-2,56,0
3330,344,-2008,-40,0,55,2
3335,328,-2016,-56,-2,55,0
3340,344,-2008,0,-1,54,1
3345,352,-2032,-32,-2,54,2
3350,336,-2016,-32,-1,56,1
3355,344,-2032,-48,-1,56,1
3360,320,-2000,-56,-2,57,2
3365,352,-2024,-40,-3,56,1
3370,344,-2024,-40,-5,58,2
3375,360,-2024,-8,-4,58,-1
3380,368,-2008,-48,-5,59,1
3385,328,-1984,-48,-5,58,0
3390,360,-2008,-16,-5,58,0
3395,320,-1992,-72,-5,59,1
3400,336,-2024,-32,-4,56,1
3405,320,-2008,-72,-4,55,0
3410,344,-2008,-24,-3,56,1
3415,352,-2008,-24,-2,56,0
3420,336,-2016,-40,-2,55,0
3425,360,-2040,-40,-2,54,-1
3430,360,-2024,-64,-2,53,1
3435,368,-2032,-48,-2,53,-1
3440,336,-2016,-32,-2,52,-1
3445,344,-2024,0,-1,52,-1
3450,368,-2032,-32,0,53,0
3455,344,-2024,-40,1,53,-2
3460,376,-2024,-56,3,55,0
3465,368,-2016,-32,4,56,-1
3470,360,-2008,-40,3,56,1
3475,352,-2008,-72,1,55,-2
3480,360,-2000,-24,-1,55,1
3485,352,-1992,-16,-2,53,-1
3490,360,-2008,-40,-3,53,1
3495,352,-2000,-40,-4,55,0
3500,360,-2016,-48,-6,54,3
3505,368,-2016,-40,-6,54,0
3510,344,-2024,8,-7,53,3
3515,344,-2032,-16,-7,54,-1
3520,344,-2016,0,-8,53,1
3525,360,-2024,-40,-9,54,-3
3530,336,-2024,0,-10,55,-3
3535,360,-2008,-8,-10,55,-4
3540,336,-2016,0,-10,57,-3
3545,328,-2016,-16,-11,57,-5
3550,344,-2032,-16,-12,57,-2
3555,352,-2000,-16,-12,58,-4
3560,336,-2000,-24,-13,58,-2
3565,360,-2008,-32,-14,61,-5
3570,352,-2032,-24,-14,60,-3
3575,336,-2008,-24,-15,58,-5
3580,344,-2024,-32,-17,60,-2
3585,344,-2024,-8,-18,60,-4
3590,328,-2016,-32,-20,59,-2
3595,352,-2024,-32,-20,59,-4
3600,344,-2024,-32,-21,61,-2
3605,360,-2040,-24,-21,59,-5
3610,360,-2016,-48,-20,58,-2
3615,352,-2008,-24,-19,57,-5
3620,344,-2024,-32,-21,56,-2
3625,360,-2032,-48,-19,57,-3
3630,336,-2032,-56,-20,56,-1
3635,352,-2016,-32,-19,57,-4
3640,352,-1992,-32,-19,58,-2
3645,344,-2016,8,-18,57,-5
3650,352,-2024,-48,-19,57,-3
3655,336,-2024,-40,-19,56,-5
3660,360,-2024,-48,-20,57,-3
3665,360,-2024,-64,-20,57,-6
3670,344,-2000,-32,-22,59,-2
3675,360,-2016,-40,-24,60,-4
3680,344,-2008,-40,-26,59,-2
3685,352,-2000,-32,-28,60,-6
3690,360,-1992,-40,-30,59,-4
3695,352,-2016,-24,-30,59,-5
3700,352,-2000,-40,-30,60,-3
3705,368,-2008,-32,-31,62,-4
3710,352,-1984,-32,-33,62,-3
3715,352,-2016,-48,-36,60,-4
3720,352,-2008,-24,-36,60,-1
3725,360,-2000,-40,-37,60,-4
3730,352,-2008,-32,-36,60,0
3735,344,-1976,-32,-35,60,-3
3740,344,-2008,-8,-36,58,-1
3745,352,-2024,-24,-37,58,-3
3750,336,-2024,-24,-36,59,-2
3755,368,-2032,-32,-36,58,-3
3760,352,-1992,-48,-37,58,-2
3765,352,-2048,-48,-37,58,-4
3770,344,-2016,-16,-38,62,-3
3775,344,-2008,-32,-37,60,-5
3780,328,-2000,-40,-38,61,-4
3785,320,-2008,-32,-38,59,-5
3790,368,-2032,-32,-38,61,-4
3795,352,-2024,-24,-39,61,-5
3800,336,-2008,-32,-40,63,-2
3805,352,-2016,-40,-38,62,-5
3810,352,-2024,-48,-38,61,-2
3815,336,-2016,-16,-38,60,-2
3820,360,-2016,-40,-36,59,-2
3825,368,-2024,-24,-35,59,-4
3830,360,-2000,-40,-34,60,-2
3835,376,-2008,-24,-34,60,-4
3840,368,-2016,-48,-35,60,-1
3845,344,-2032,-24,-35,60,-1
3850,352,-2008,-24,-34,59,-1
3855,376,-2024,-48,-36,60,-3
3860,352,-2024,-48,-38,59,0
3865,368,-2024,-56,-39,59,-2
3870,352,-2008,-32,-40,59,-1
3875,368,-2032,-48,-40,58,-3
3880,352,-2024,-32,-40,59,-1
3885,352,-1992,-32,-41,59,-3
3890,344,-2016,-48,-42,59,-3
3895,344,-1992,-24,-45,60,-3
3900,344,-1992,-56,-45,60,-1
3905,336,-2024,-56,-47,60,-1
3910,344,-2016,-64,-46,60,-2
3915,336,-2000,-64,-44,61,-2
3920,352,-2024,-56,-44,60,-1
3925,328,-2016,-32,-42,61,-2
3930,352,-2024,-72,-40,62,-3
3935,352,-2048,-32,-40,61,-2
3940,352,-2032,-32,-38,60,-3
3945,352,-2040,-48,-36,59,-3
3950,352,-2040,-72,-35,58,-4
3955,328,-2000,-32,-35,58,-3
3960,336,-2000,-64,-34,58,-5
3965,360,-2000,-72,-35,58,-4
3970,344,-2008,-40,-35,58,-5
3975,360,-1992,-64,-37,56,-4
3980,360,-2032,-80,-36,56,-6
3985,336,-2008,-56,-36,57,-4
3990,344,-2008,-80,-37,57,-5
3995,328,-1984,-56,-37,57,-5
4000,352,-2024,-48,-37,56,-6
4005,360,-2000,-40,-36,57,-5
4010,360,-2016,-24,-35,56,-5
4015,344,-2016,-48,-35,56,-5
4020,360,-2024,-24,-35,56,-6
4025,344,-2008,-40,-37,55,-6
4030,344,-2008,-32,-40,55,-7
4035,376,-2024,-56,-39,55,-6
4040,344,-2024,-48,-39,54,-7
4045,368,-2008,-72,-40,54,-4
4050,360,-2000,-56,-40,55,-5
4055,368,-2016,-48,-40,57,-4
4060,360,-2008,-40,-42,58,-5
4065,368,-2024,-96,-41,59,-3
4070,352,-1992,-48,-40,59,-5
4075,368,-2016,-48,-40,57,-2
4080,344,-2008,-32,-39,57,-3
4085,336,-2008,-24,-38,57,-1
4090,352,-2016,-56,-37,57,-3
4095,328,-2000,-80,-37,57,0
4100,352,-2016,-56,-37,56,-2
4105,344,-2024,-80,-35,58,0
4110,360,-2024,-64,-34,58,-3
4115,360,-2000,-56,-34,59,0
4120,352,-2024,-56,-34,59,-3
4125,352,-2016,-40,-33,58,0
4130,336,-2032,-40,-33,58,-4
4135,352,-1992,-64,-34,59,-2
4140,344,-2000,-48,-36,59,-3
4145,344,-2008,-72,-36,58,-3
4150,344,-2016,-80,-38,58,-4
4155,344,-2016,-48,-40,58,-4
4160,384,-1992,-72,-41,59,-4
4165,336,-2000,-64,-42,59,-3
4170,344,-2000,-80,-44,59,-6
4175,360,-1992,-64,-44,60,-2
4180,360,-2008,-72,-43,59,-5
4185,384,-2032,-64,-42,59,-3
4190,376,-2016,-72,-39,59,-4
4195,368,-2024,-40,-37,59,-2
4200,368,-2016,-64,-34,58,-4
4205,368,-2024,-72,-33,58,-1
4210,368,-2016,-72,-32,58,-3
4215,352,-2000,-80,-31,56,-2
4220,352,-2000,-56,-30,57,-4
4225,360,-2008,-72,-30,57,-1
4230,352,-2008,-56,-28,58,-3
4235,344,-2000,-64,-27,57,-1
4240,368,-2008,-48,-27,57,-4
4245,352,-2000,-64,-25,57,-1
4250,336,-2000,-80,-26,57,-4
4255,368,-2032,-80,-25,58,0
4260,328,-2000,-64,-24,59,-3
4265,360,-2040,-80,-25,60,-1
4270,352,-2024,-72,-24,59,-2
4275,352,-2024,-80,-23,60,1
4280,360,-2024,-72,-23,59,-1
4285,336,-2008,-72,-22,59,1
4290,344,-2008,-72,-22,59,-2
4295,336,-2016,-96,-20,59,0
4300,352,-2032,-88,-19,58,-1
4305,352,-2000,-64,-18,58,0
4310,352,-2040,-96,-15,58,-1
4315,352,-2016,-72,-13,59,0
4320,336,-2040,-88,-11,59,-3
4325,352,-2008,-64,-10,61,-1
4330,352,-2016,-80,-7,62,-2
4335,344,-2024,-88,-5,62,1
4340,336,-2016,-96,-4,62,-3
4345,352,-2008,-72,-2,63,-1
4350,360,-2000,-88,-2,63,-4
4355,352,-2016,-80,1,61,-3
4360,368,-2008,-80,0,62,-5
4365,352,-2008,-88,-2,60,-2
4370,344,-2000,-56,-3,60,-4
4375,368,-2008,-72,-5,60,-2
4380,336,-2000,-48,-5,59,-4
4385,336,-2024,-104,-6,59,-3
4390,360,-2024,-64,-6,59,-5
4395,352,-2032,-88,-7,56,-4
4400,352,-2032,-72,-7,57,-6
4405,368,-2032,-64,-6,57,-4
4410,336,-2024,-80,-6,58,-6
4415,320,-2008,-72,-4,57,-5
4420,344,-2016,-72,-3,57,-6
4425,352,-2016,-56,-3,56,-4
4430,344,-2016,-64,-2,55,-7
4435,336,-2016,-56,-4,55,-5
4440,336,-2008,-88,-2,56,-5
4445,384,-2024,-80,-2,55,-4
4450,360,-2016,-48,-4,54,-4
4455,368,-2032,-64,-4,55,-2
4460,368,-2024,-88,-4,55,-3
4465,360,-2040,-80,-3,56,-2
4470,352,-2008,-72,-5,56,-3
4475,360,-2016,-56,-6,56,0
4480,360,-2032,-88,-5,58,0
4485,376,-2032,-64,-5,61,1
4490,352,-2016,-56,-4,62,2
4495,368,-2008,-56,-3,63,2
4500,336,-2000,-40,-4,64,3
4505,344,-2008,-64,-3,66,4
4510,336,-2016,-80,-2,68,4
4515,376,-2000,-56,-3,67,4
4520,352,-2024,-80,-5,68,6
4525,360,-2008,-72,-6,70,8
4530,360,-2032,-72,-10,71,11
4535,368,-2000,-80,-13,76,14
4540,384,-2000,-40,-16,79,18
4545,376,-1968,-64,-19,83,24
4550,384,-1992,-80,-24,87,29
4555,416,-1960,-80,-30,92,32
4560,400,-1968,-80,-37,93,37
4565,392,-1968,-64,-44,98,42
4570,400,-1968,-72,-54,102,46
4575,416,-1976,-64,-63,105,48
4580,400,-1960,-56,-73,109,50
4585,416,-1976,-88,-80,113,49
4590,416,-2000,-88,-84,121,48
4595,416,-2000,-88,-85,132,49
4600,424,-2016,-64,-86,146,51
4605,416,-2016,-64,-87,158,54
4610,416,-2008,-104,-84,168,56
4615,408,-2040,-56,-83,172,54
4620,416,-2056,-40,-77,171,55
4625,416,-2064,-24,-68,168,52
4630,408,-2048,-48,-57,163,54
4635,392,-2032,-40,-50,159,55
4640,392,-2024,-104,-44,158,58
4645,408,-2048,-104,-45,160,60
4650,376,-2024,-128,-52,164,64
4655,408,-2016,-168,-58,168,66
4660,408,-2016,-72,-67,173,69
4665,400,-2096,-112,-73,175,69
4670,352,-2032,-64,-79,175,71
4675,384,-2104,-120,-81,174,70
4680,288,-2032,-16,-81,173,71
4685,384,-2016,-72,-76,173,70
4690,352,-2032,-24,-71,174,72
4695,376,-2032,-64,-67,174,71
4700,336,-2008,-48,-62,174,73
4705,336,-1976,-48,-60,173,70
4710,344,-2000,-40,-58,171,70
4715,352,-2008,-72,-58,167,66
4720,344,-2016,-48,-57,164,66
4725,328,-2000,-32,-58,162,61
4730,328,-2016,-48,-55,158,61
4735,344,-2016,-56,-51,157,60
4740,328,-1992,-64,-45,155,59
4745,336,-2008,-40,-41,155,58
4750,352,-2008,-16,-35,158,61
4755,336,-2000,-40,-30,162,58
4760,328,-1984,-24,-27,165,60
4765,328,-1984,-16,-26,167,56
4770,320,-1992,-48,-30,169,56
4775,328,-1984,-40,-33,170,51
4780,312,-2000,-32,-36,170,53
4785,296,-1976,-8,-38,168,49
4790,296,-1976,-24,-41,165,54
4795,312,-1984,-8,-44,163,52
4800,288,-1976,-48,-47,158,57
4805,296,-1984,-64,-51,154,57
4810,288,-1968,-56,-56,151,64
4815,296,-1976,-88,-62,149,67
4820,280,-1968,-64,-70,147,75
4825,304,-1984,-56,-78,148,77
4830,312,-2016,-56,-85,149,84
4835,312,-1992,-40,-92,148,84
4840,304,-2000,-32,-96,148,91
4845,296,-2008,-56,-99,148,91
4850,288,-2016,-64,-100,148,99
4855,280,-2016,-56,-99,148,99
4860,288,-2008,-48,-95,149,107
4865,280,-2048,-72,-94,153,109
4870,296,-1992,-80,-94,157,117
4875,312,-2008,-112,-95,161,120
4880,304,-2000,-112,-99,166,125
4885,320,-2008,-88,-101,172,126
4890,312,-2016,-96,-103,176,131
4895,328,-2024,-104,-103,180,131
4900,304,-2024,-80,-104,183,133
4905,336,-2016,-72,-105,185,135
4910,352,-2016,-64,-105,185,141
4915,312,-2040,-64,-100,185,142
4920,296,-2000,-96,-95,184,149
4925,296,-1976,-96,-92,182,152
4930,304,-1984,-80,-92,179,158
4935,320,-2000,-56,-92,173,161
4940,288,-2016,-88,-90,167,168
4945,280,-2008,-56,-89,162,170
4950,280,-2040,-56,-85,152,174
4955,248,-2032,-72,-80,139,173
4960,224,-2016,-64,-72,129,175
4965,232,-2000,-96,-66,119,174
4970,224,-2008,-88,-62,111,176
4975,208,-2008,-64,-59,105,175
4980,232,-1976,-104,-57,101,179
4985,184,-2016,-80,-59,99,179
4990,176,-2008,-40,-61,93,180
4995,184,-2024,-72,-62,87,176
5000,184,-2024,-88,-65,78,176
5005,200,-2016,-88,-64,67,174
5010,208,-2048,-120,-65,58,177
5015,152,-2024,-88,-63,49,175
5020,200,-2064,-80,-56,42,176
5025,160,-2056,-88,-50,33,174
5030,168,-2072,-104,-44,24,174
5035,104,-2064,-96,-40,16,173
5040,160,-2080,-96,-36,7,174
5045,152,-2056,-128,-30,-4,174
5050,144,-2040,-120,-25,-15,175
5055,136,-2048,-120,-20,-25,174
5060,112,-2040,-120,-17,-36,174
5065,112,-2024,-104,-17,-47,176
5070,176,-2008,-104,-18,-52,181
5075,136,-2000,-112,-18,-50,186
5080,184,-2000,-144,-18,-47,190
5085,200,-1992,-128,-17,-43,192
5090,192,-1976,-160,-18,-38,192
5095,256,-2016,-136,-23,-33,192
5100,248,-2008,-136,-27,-29,191
5105,168,-2008,-128,-31,-23,187
5110,136,-2008,-152,-36,-25,184
5115,184,-2024,-104,-44,-33,182
5120,192,-2000,-128,-53,-36,182
5125,184,-2000,-152,-63,-37,184
5130,192,-2000,-176,-73,-38,185
5135,208,-1984,-184,-86,-38,189
5140,192,-1992,-168,-101,-36,193
5145,192,-2000,-168,-120,-37,195
5150,200,-2008,-176,-132,-37,199
5155,232,-2000,-216,-143,-39,201
5160,232,-2016,-176,-150,-37,203
5165,208,-2000,-176,-157,-34,205
5170,200,-2008,-176,-163,-30,210
5175,208,-2016,-184,-168,-27,219
5180,200,-2016,-160,-171,-29,226
5185,216,-2008,-176,-175,-32,236
5190,184,-1992,-160,-177,-34,243
5195,256,-2008,-168,-176,-38,252
5200,240,-2000,-176,-180,-39,257
5205,208,-2016,-160,-180,-42,264
5210,184,-2032,-160,-177,-43,268
5215,192,-2008,-184,-176,-45,276
5220,224,-2016,-192,-174,-47,281
5225,200,-2008,-192,-172,-47,289
5230,216,-2008,-192,-172,-50,294
5235,216,-2016,-208,-173,-53,298
5240,288,-2032,-224,-173,-50,302
5245,192,-2016,-216,-171,-41,306
5250,128,-1984,-232,-170,-39,308
5255,208,-1984,-240,-173,-39,313
5260,248,-1992,-248,-179,-34,318
5265,184,-1976,-232,-182,-24,324
5270,144,-1952,-248,-184,-15,328
5275,192,-1960,-248,-187,-9,338
5280,240,-1952,-296,-196,0,349
5285,200,-1952,-232,-203,9,362
5290,176,-1928,-264,-211,16,372
5295,192,-1936,-288,-219,19,386
5300,168,-1912,-264,-225,18,396
5305,240,-1920,-248,-231,17,415
5310,176,-1896,-304,-236,22,430
5315,200,-1936,-256,-244,23,450
5320,216,-1928,-264,-253,23,472
5325,192,-1936,-248,-265,28,494
5330,168,-1928,-264,-274,33,511
5335,152,-1944,-280,-281,34,532
5340,240,-1976,-256,-290,31,549
5345,176,-1920,-248,-298,36,567
5350,136,-1944,-248,-303,38,578
5355,88,-1920,-280,-310,36,587
5360,112,-1896,-304,-322,35,596
5365,48,-1864,-296,-340,41,615
5370,40,-1856,-328,-369,49,629
5375,96,-1896,-328,-395,52,650
5380,64,-1856,-320,-422,59,668
5385,80,-1888,-304,-446,58,686
5390,120,-1920,-312,-475,55,691
5395,48,-1920,-296,-509,54,696
5400,8,-1944,-344,-540,51,695
5405,56,-1968,-304,-570,49,698
5410,-8,-2000,-312,-596,45,695
5415,-24,-2000,-320,-619,35,696
5420,-40,-2040,-336,-635,28,693
5425,-32,-2056,-400,-645,20,699
5430,-64,-2064,-408,-650,18,704
5435,-48,-2048,-416,-651,13,715
5440,-96,-2064,-416,-647,7,725
5445,-112,-2064,-432,-641,3,738
5450,-96,-2040,-424,-632,-8,748
5455,-80,-2040,-456,-622,-17,768
5460,-104,-2016,-432,-609,-26,789
5465,-160,-1976,-496,-596,-33,813
5470,-200,-1968,-496,-588,-38,835
5475,-88,-1944,-512,-584,-50,862
5480,-168,-1872,-536,-583,-56,887
5485,-88,-1872,-512,-585,-65,915
5490,-152,-1824,-520,-586,-73,937
5495,-120,-1840,-488,-585,-82,963
5500,-120,-1856,-448,-584,-85,979
5505,-64,-1840,-480,-581,-89,1001
5510,-80,-1840,-464,-580,-87,1015
5515,-152,-1824,-448,-579,-83,1029
5520,-104,-1832,-496,-578,-80,1043
5525,-152,-1824,-456,-582,-74,1062
5530,-192,-1816,-472,-588,-66,1080
5535,-200,-1800,-464,-595,-61,1102
5540,-216,-1800,-440,-606,-57,1118
5545,-288,-1784,-432,-622,-52,1136
5550,-312,-1792,-416,-636,-55,1153
5555,-320,-1800,-408,-657,-64,1175
5560,-344,-1800,-408,-679,-71,1198
5565,-560,-1768,-448,-703,-82,1232
5570,-488,-1736,-432,-743,-108,1272
5575,-480,-1704,-376,-785,-130,1306
5580,-456,-1704,-368,-824,-146,1337
5585,-432,-1680,-336,-868,-161,1374
5590,-424,-1632,-376,-915,-175,1410
5595,-416,-1648,-368,-968,-187,1455
5600,-480,-1640,-360,-1038,-196,1485
5605,-480,-1648,-368,-1096,-204,1516
5610,-496,-1648,-344,-1154,-220,1545
5615,-536,-1680,-344,-1205,-239,1577
5620,-528,-1704,-336,-1245,-260,1610
5625,-552,-1744,-360,-1276,-279,1644
5630,-584,-1744,-392,-1307,-297,1675
5635,-592,-1776,-416,-1345,-315,1708
5640,-600,-1784,-424,-1381,-333,1747
5645,-648,-1800,-424,-1419,-357,1782
5650,-672,-1832,-456,-1443,-374,1817
5655,-680,-1800,-520,-1465,-389,1856
5660,-696,-1808,-544,-1483,-404,1893
5665,-720,-1824,-584,-1506,-413,1934
5670,-736,-1800,-560,-1528,-417,1973
5675,-752,-1816,-624,-1543,-422,2010
5680,-792,-1768,-600,-1553,-427,2042
5685,-872,-1760,-568,-1552,-433,2077
5690,-880,-1776,-544,-1538,-445,2101
5695,-912,-1752,-592,-1524,-457,2126
5700,-928,-1744,-592,-1510,-469,2145
5705,-960,-1672,-656,-1498,-482,2161
5710,-976,-1648,-624,-1486,-495,2171
5715,-992,-1648,-664,-1474,-508,2176
5720,-976,-1632,-656,-1458,-520,2176
5725,-1000,-1584,-624,-1436,-532,2176
5730,-1016,-1568,-608,-1412,-546,2185
5735,-1008,-1552,-608,-1378,-561,2203
5740,-960,-1512,-624,-1351,-572,2223
5745,-920,-1456,-592,-1333,-582,2250
5750,-856,-1408,-616,-1326,-592,2276
5755,-824,-1312,-608,-1330,-604,2294
5760,-744,-1224,-672,-1347,-622,2304
5765,-720,-1128,-728,-1382,-645,2304
5770,-696,-1120,-744,-1442,-664,2307
5775,-656,-1144,-688,-1528,-669,2325
5780,-544,-1144,-672,-1618,-675,2350
5785,-496,-1040,-680,-1711,-698,2354
5790,-400,-1000,-680,-1782,-727,2344
5795,-312,-936,-680,-1856,-752,2321
5800,-296,-856,-776,-1909,-806,2298
5805,-304,-832,-808,-1961,-876,2258
5810,-312,-880,-832,-2020,-939,2223
5815,-344,-848,-792,-2082,-995,2191
5820,-368,-840,-784,-2131,-1045,2153
5825,-336,-960,-664,-2162,-1113,2118
5830,-400,-1024,-552,-2167,-1191,2105
5835,-424,-1120,-376,-2142,-1267,2081
5840,-496,-1192,-224,-2087,-1338,2049
5845,-648,-1056,32,-1988,-1392,1990
5850,-480,-1264,-56,-1835,-1438,1941
5855,-664,-1184,-72,-1644,-1506,1961
5860,-712,-1096,-176,-1421,-1562,1952
5865,-760,-976,-320,-1189,-1610,1927
5870,-928,-864,-520,-972,-1647,1889
5875,-552,-680,-592,-759,-1666,1836
5880,-552,-552,-696,-644,-1706,1846
5885,-432,-544,-768,-567,-1717,1828
5890,-304,-480,-808,-507,-1710,1800
5895,-224,-536,-752,-462,-1697,1753
5900,-128,-576,-712,-418,-1674,1693
5905,-112,-664,-664,-353,-1641,1617
5910,-120,-712,-640,-269,-1606,1536
5915,-120,-744,-640,-172,-1575,1432
5920,-96,-808,-648,-67,-1535,1349
5925,-120,-808,-712,15,-1496,1272
5930,-104,-760,-728,103,-1457,1211
5935,-80,-712,-744,197,-1423,1167
5940,0,-616,-744,286,-1397,1136
5945,24,-504,-784,362,-1366,1108
5950,160,-400,-784,423,-1327,1093
5955,224,-328,-848,466,-1272,1074
5960,288,-264,-904,503,-1211,1046
5965,288,-240,-1000,538,-1132,1000
5970,336,-200,-1104,562,-1058,972
5975,248,-192,-1200,567,-986,945
5980,304,-272,-1248,561,-917,915
5985,304,-416,-1312,560,-855,867
5990,256,-512,-1376,578,-793,814
5995,128,-656,-1440,616,-721,738
6000,16,-848,-1688,665,-621,649
6005,-96,-1000,-1888,706,-494,555
6010,-384,-1120,-2000,721,-307,452
6015,-1176,-1184,-2032,688,-149,370
6020,-1888,-1448,-1856,594,-38,283
6025,-2312,-1576,-1720,526,44,179
6030,-2560,-1456,-1528,574,96,167
6035,-3096,-1208,-1496,694,90,258
6040,-3384,-880,-1272,816,-8,392
6045,-4184,-640,-664,966,-237,528
6050,-5000,-128,-568,1189,-591,669
6055,-5968,664,-616,1321,-987,881
6060,-6432,960,-848,1075,-1442,1027
6065,-7336,1072,-528,470,-1756,970
6070,-8640,1056,-88,-102,-2009,914
6075,-9256,1584,8,-380,-2197,1047
6080,-9904,2168,88,-345,-2342,1322
6085,-10416,2936,-40,-127,-2547,1668
6090,-11056,3696,0,22,-2760,1918
6095,-11408,3984,-168,14,-2944,2050
6100,-11168,3896,-968,63,-3078,2221
6105,-10696,3728,-1768,316,-3063,2342
6110,-10328,3360,-1704,426,-2992,2329
6115,-9584,2392,-1360,311,-2901,2175
6120,-8344,992,-1336,273,-2721,1862
6125,-7040,24,-1288,410,-2466,1505
6130,-5520,-240,-1312,601,-2210,1218
6135,-4920,-304,-1200,717,-1996,1101
6140,-4336,-368,-720,697,-1745,975
6145,-3616,-560,-200,647,-1494,765
6150,-2800,-592,176,588,-1240,578
6155,-2152,-560,384,543,-1003,404
6160,-1512,-408,456,509,-717,275
6165,-1000,-384,448,536,-402,213
6170,-648,-320,360,624,-105,161
6175,-296,-208,88,707,145,95
6180,248,-232,-136,762,352,57
6185,96,-200,-336,806,505,-27
6190,-32,-40,-560,832,593,-82
6195,-48,120,-664,787,647,-64
6200,-288,136,-712,699,631,13
6205,-456,184,-704,588,586,122
6210,-768,136,-592,498,526,255
6215,-1008,152,-376,455,446,378
6220,-1120,200,-240,457,348,476
6225,-1136,264,-104,488,246,545
6230,-1208,376,-32,523,162,604
6235,-1312,440,64,554,103,660
6240,-1584,488,80,590,69,693
6245,-1592,448,8,622,32,713
6250,-1304,408,-104,664,11,735
6255,-1200,408,-144,702,30,720
6260,-1104,320,-136,759,65,683
6265,-1056,296,-120,879,100,658
6270,-1128,336,-48,1047,139,638
6275,-1336,416,72,1213,129,646
6280,-1056,464,96,1350,60,689
6285,-696,480,32,1436,-23,748
6290,-744,472,104,1417,-46,744
6295,-736,456,192,1342,-82,722
6300,-608,464,272,1245,-123,688
6305,-704,408,400,1139,-184,639
6310,-808,472,432,1067,-246,583
6315,-744,512,472,1042,-308,536
6320,-656,568,472,1058,-368,495
6325,-600,672,424,1077,-423,437
6330,-608,776,432,1104,-472,343
6335,-608,792,504,1110,-511,250
6340,-528,816,480,1082,-552,162
6345,-648,800,496,1025,-559,62
6350,-760,808,536,973,-538,-46
6355,-848,904,528,901,-505,-139
6360,-896,952,664,791,-476,-193
6365,-1168,1168,800,633,-459,-226
6370,-1400,1176,1032,443,-451,-278
6375,-1472,1192,1104,222,-454,-362
6380,-1464,1136,1016,79,-452,-431
6385,-1336,992,928,-38,-424,-485
6390,-1368,896,880,-110,-384,-546
6395,-1536,792,896,-138,-339,-591
6400,-1672,712,840,-103,-319,-641
6405,-1568,696,768,-46,-300,-700
6410,-1616,584,808,5,-283,-699
6415,-1576,640,816,63,-254,-722
6420,-1584,568,752,136,-217,-764
6425,-1560,680,680,188,-181,-800
6430,-1584,832,736,210,-135,-836
6435,-1672,880,720,206,-87,-872
6440,-1848,1048,776,186,-42,-903
6445,-1752,1240,856,158,-10,-937
6450,-2056,1256,856,81,30,-980
6455,-1560,1176,608,4,83,-1025
6460,-1888,1072,592,-53,147,-1056
6465,-2056,1064,744,-44,177,-1049
6470,-2296,952,696,-49,156,-1047
6475,-2512,1136,768,-99,124,-1052
6480,-2592,728,824,-106,135,-992
6485,-2752,576,904,-69,113,-961
6490,-3024,504,696,-20,70,-953
6495,-2992,400,768,61,39,-902
6500,-3120,328,640,87,-23,-836
6505,-3336,360,568,52,-89,-790
6510,-3136,424,496,22,-144,-709
6515,-3256,528,280,-108,-185,-694
6520,-2824,464,328,-247,-211,-609
6525,-3152,968,320,-471,-240,-589
6530,-2664,656,440,-688,-257,-561
6535,-2856,888,384,-926,-280,-499
6540,-2672,696,296,-1118,-269,-443
6545,-2520,760,584,-1280,-251,-418
6550,-2656,600,656,-1397,-257,-355
6555,-2456,448,808,-1399,-200,-304
6560,-2320,336,872,-1315,-143,-270
6565,-2208,208,912,-1178,-86,-227
6570,-2192,96,848,-1002,-40,-181
6575,-2192,-8,816,-801,17,-157
6580,-2224,-64,824,-585,81,-164
6585,-2272,-96,752,-356,145,-170
6590,-2336,-136,712,-123,217,-172
6595,-2352,-208,648,114,280,-149
6600,-2344,-312,592,372,368,-139
6605,-2352,-352,488,569,440,-135
6610,-2304,-328,448,767,492,-122
6615,-2264,-352,320,936,537,-103
6620,-2272,-352,272,1097,569,-81
6625,-2224,-352,88,1261,586,-33
6630,-2168,-288,24,1359,619,-19
6635,-2128,-224,-56,1407,649,-10
6640,-2112,-112,-112,1443,666,3
6645,-2136,-64,-136,1439,667,3
6650,-2120,24,-160,1382,656,-10
6655,-2112,104,-176,1306,636,-13
6660,-2088,136,-232,1227,610,-14
6665,-2064,184,-240,1136,574,-20
6670,-1944,216,-304,1045,531,-33
6675,-1968,232,-296,943,480,-49
6680,-1880,264,-328,837,433,-86
6685,-1816,320,-288,730,383,-119
6690,-1816,272,-296,597,329,-176
6695,-1800,264,-296,483,286,-225
6700,-1816,248,-248,368,254,-279
6705,-1816,184,-256,270,221,-322
6710,-1800,192,-272,189,194,-361
6715,-1888,112,-272,116,177,-397
6720,-1936,56,-256,67,161,-428
6725,-2008,16,-280,27,150,-446
6730,-2032,-48,-240,-12,138,-457
6735,-2056,-88,-264,-44,128,-465
6740,-2120,-136,-288,-72,114,-461
6745,-2128,-144,-280,-93,100,-446
6750,-2176,-224,-288,-111,81,-438
6755,-2136,-232,-296,-131,56,-423
6760,-2280,-304,-256,-145,27,-410
6765,-2320,-344,-264,-143,-13,-387
6770,-2376,-344,-176,-138,-54,-373
6775,-2208,-312,-216,-122,-98,-348
6780,-2264,-320,-224,-105,-134,-321
6785,-2248,-312,-272,-86,-152,-295
6790,-2224,-312,-248,-75,-176,-273
6795,-2224,-328,-176,-60,-203,-249
6800,-2184,-288,-184,-45,-229,-226
6805,-2168,-280,-152,-33,-258,-197
6810,-2144,-280,-104,-27,-288,-174
6815,-2152,-272,-96,-27,-318,-148
6820,-2120,-256,-96,-36,-343,-128
6825,-2112,-208,-112,-55,-369,-91
6830,-2048,-168,-96,-95,-389,-68
6835,-2032,-136,-56,-137,-413,-43
6840,-2024,-176,-40,-189,-430,-23
6845,-2000,-168,-8,-248,-444,-8
6850,-2024,-192,16,-313,-453,-7
6855,-2064,-192,80,-376,-455,-4
6860,-2080,-200,72,-429,-449,-6
6865,-2080,-176,120,-470,-440,-3
6870,-2056,-160,136,-503,-419,-11
6875,-2064,-144,160,-529,-400,-15
6880,-2112,-144,184,-536,-383,-19
6885,-2032,-144,200,-536,-363,-10
6890,-2080,-168,160,-529,-339,-10
6895,-2040,-168,248,-509,-315,1
6900,-2040,-144,264,-478,-293,4
6905,-2048,-184,296,-446,-275,9
6910,-2032,-192,280,-404,-253,15
6915,-2032,-208,320,-357,-233,26
6920,-2056,-248,320,-296,-211,31
6925,-2056,-216,352,-244,-190,39
6930,-2088,-248,344,-193,-173,45
6935,-2064,-248,360,-141,-155,54
6940,-2064,-272,320,-92,-140,60
6945,-2088,-280,336,-48,-126,68
6950,-2040,-296,328,-3,-112,72
6955,-2024,-288,312,39,-97,78
6960,-2040,-272,296,76,-81,79
6965,-2000,-256,288,117,-63,82
6970,-1992,-208,296,143,-49,79
6975,-1960,-200,272,162,-37,78
6980,-1944,-160,296,175,-25,73
6985,-1944,-136,272,181,-13,71
6990,-1912,-112,288,183,-2,66
6995,-1912,-96,280,183,8,64
7000,-1920,-112,280,179,16,60
7005,-1928,-72,296,176,27,55
7010,-1936,-64,304,171,41,47
7015,-1936,-48,296,169,52,43
7020,-1928,-48,312,169,63,36
7025,-1952,-56,304,170,76,30
7030,-1968,-48,312,172,88,23
7035,-1952,-72,288,172,99,18
7040,-1984,-80,304,171,112,10
7045,-1976,-80,296,171,121,8
7050,-2000,-72,312,171,131,3
7055,-2000,-80,304,173,144,1
7060,-2008,-104,312,174,152,-1
7065,-2024,-96,288,177,159,3
7070,-2016,-128,264,180,168,2
7075,-2024,-112,256,184,175,5
7080,-2008,-136,248,188,181,8
7085,-2032,-112,224,189,189,10
7090,-2024,-104,192,186,194,10
7095,-2032,-104,208,181,197,15
7100,-2048,-120,200,177,204,16
7105,-2048,-112,192,177,209,23
7110,-2048,-120,160,178,212,28
7115,-2032,-112,168,182,215,37
7120,-2056,-88,192,189,217,44
7125,-2056,-88,144,196,219,53
7130,-2056,-48,128,204,219,60
7135,-2072,-32,104,205,219,69
7140,-2080,0,56,201,217,78
7145,-2056,-32,104,186,213,84
7150,-2048,0,112,164,209,87
7155,-2056,8,128,136,204,93
7160,-2064,24,112,100,199,100
7165,-2064,32,112,60,193,104
7170,-2088,8,104,19,190,109
7175,-2064,16,136,-19,187,112
7180,-2088,-8,96,-51,182,120
7185,-2072,0,96,-79,179,122
7190,-2080,-24,120,-108,176,124
7195,-2056,-24,112,-129,172,124
7200,-2064,-32,88,-145,169,125
7205,-2056,-48,128,-157,168,124
7210,-2064,-32,160,-168,167,125
7215,-2056,-24,168,-174,166,122
7220,-2040,-32,136,-180,164,123
7225,-2048,-48,144,-180,164,119
7230,-2040,-48,128,-179,165,119
7235,-2040,-56,152,-176,165,117
7240,-2048,-48,168,-172,167,116
7245,-2032,-48,176,-168,166,115
7250,-2056,-48,184,-162,167,114
7255,-2032,-56,168,-154,169,112
7260,-2048,-80,176,-146,171,114
7265,-2048,-32,176,-137,173,113
7270,-2040,-40,208,-127,176,114
7275,-2032,-32,144,-118,178,112
7280,-2056,-32,152,-111,181,113
7285,-2032,-56,176,-103,183,113
7290,-2056,-32,136,-97,184,115
7295,-2072,-24,184,-92,188,114
7300,-2088,-32,128,-87,189,117
7305,-2056,-32,128,-85,191,117
7310,-2088,-16,112,-83,190,119
7315,-2088,-24,144,-82,191,116
7320,-2080,-24,128,-82,192,119
7325,-2112,-16,96,-81,195,117
7330,-2080,-24,152,-79,195,118
7335,-2072,-24,96,-78,196,116
7340,-2120,-8,96,-77,197,115
7345,-2112,-32,88,-75,198,111
7350,-2112,-24,72,-73,199,111
7355,-2080,-32,112,-68,199,105
7360,-2120,-8,72,-65,200,105
7365,-2112,0,88,-62,199,99
7370,-2104,-16,56,-56,198,100
7375,-2096,-24,72,-50,196,95
7380,-2072,-32,64,-44,194,96
7385,-2120,-24,64,-40,190,93
7390,-2080,-24,56,-36,186,93
7395,-2112,-8,48,-33,180,90
7400,-2104,-24,64,-32,173,92
7405,-2104,-8,40,-29,165,87
7410,-2112,-8,16,-27,157,88
7415,-2120,-8,56,-23,145,82
7420,-2128,-8,32,-22,136,85
7425,-2104,0,8,-17,124,77
7430,-2128,32,0,-15,117,76
7435,-2112,8,16,-12,107,70
7440,-2128,0,-8,-12,100,70
7445,-2120,-8,48,-10,91,64
7450,-2136,24,64,-12,84,61
7455,-2128,0,24,-15,75,55
7460,-2136,8,24,-18,69,50
7465,-2144,24,16,-21,64,43
7470,-2144,48,48,-24,59,41
7475,-2144,40,24,-25,56,33
7480,-2144,32,16,-26,52,30
7485,-2112,-8,16,-29,49,25
7490,-2136,16,40,-30,48,25
7495,-2112,24,40,-32,49,22
7500,-2104,16,40,-35,48,24
7505,-2144,24,56,-39,46,23
7510,-2064,8,56,-44,41,27
7515,-2128,-8,48,-45,40,25
7520,-2096,120,-56,-48,37,26
7525,-2088,24,104,-47,34,23
7530,-2072,-32,0,-44,31,24
7535,-2080,-72,40,-37,26,19
7540,-2136,16,72,-28,23,18
7545,-2088,32,64,-16,21,12
7550,-2072,0,56,-1,19,12
7555,-2064,-16,64,18,15,5
7560,-2064,-32,48,33,12,5
7565,-2072,-24,64,48,8,3
7570,-2080,16,72,59,4,4
7575,-2064,16,72,70,0,-2
7580,-2056,8,56,79,-5,-1
7585,-2072,-24,72,87,-9,-6
7590,-2056,-16,72,94,-11,-9
7595,-2048,-16,56,103,-10,-17
7600,-2096,8,72,110,-13,-19
7605,-2096,-8,72,113,-17,-24
7610,-2104,16,88,116,-17,-24
7615,-2112,32,80,118,-17,-28
7620,-2112,24,64,120,-16,-30
7625,-2104,8,72,119,-15,-33
7630,-2112,8,88,118,-13,-35
7635,-2104,8,80,117,-10,-38
7640,-2096,16,96,115,-5,-38
7645,-2072,8,96,113,-1,-41
7650,-2104,32,80,110,2,-42
7655,-2072,16,88,107,2,-45
7660,-2088,32,88,104,5,-44
7665,-2096,40,88,101,4,-48
7670,-2080,32,80,96,4,-48
7675,-2088,40,104,90,3,-52
7680,-2104,32,80,83,1,-55
7685,-2088,32,96,78,0,-60
7690,-2120,16,96,72,-1,-64
7695,-2104,40,120,67,0,-71
7700,-2112,48,128,65,4,-74
7705,-2120,32,104,65,7,-81
7710,-2104,24,96,67,10,-84
7715,-2088,8,88,70,15,-87
7720,-2112,8,88,74,22,-89
7725,-2104,16,96,77,26,-90
7730,-2080,-16,120,83,31,-89
7735,-2072,-16,112,89,40,-92
7740,-2064,-16,104,95,45,-89
7745,-2016,-24,112,97,50,-88
7750,-2040,-16,152,97,54,-84
7755,-2048,-16,160,95,58,-83
7760,-2032,-8,160,88,62,-78
7765,-2024,-24,152,80,62,-74
7770,-2040,-24,144,73,64,-68
7775,-1976,-32,152,62,63,-60
7780,-2000,-24,144,48,60,-53
7785,-1992,-16,160,34,59,-48
7790,-2008,-24,168,20,57,-40
7795,-2000,-32,152,5,56,-34
7800,-2000,-32,176,-7,56,-29
7805,-2024,-32,160,-17,59,-25
7810,-2000,-32,136,-23,63,-20
7815,-2048,-48,120,-27,69,-15
7820,-2048,-48,144,-28,75,-9
7825,-2048,-48,128,-28,83,-7
7830,-2072,-64,136,-27,90,-4
7835,-2056,-64,136,-25,96,0
7840,-2040,-88,128,-22,102,5
7845,-2056,-88,104,-16,109,9
7850,-2064,-56,96,-8,114,14
7855,-2064,-48,128,-4,118,21
7860,-2080,-56,120,2,122,25
7865,-2072,-32,104,7,125,31
7870,-2088,-32,112,8,131,36
7875,-2080,-32,88,9,136,42
7880,-2088,-24,104,10,139,46
7885,-2072,-32,96,11,144,49
7890,-2096,-24,88,8,147,52
7895,-2096,-16,88,6,149,56
7900,-2096,0,80,4,149,57
7905,-2088,-24,96,1,150,61
7910,-2088,8,72,-2,150,61
7915,-2088,0,80,-7,150,63
7920,-2104,16,96,-13,150,63
7925,-2064,24,96,-19,147,63
7930,-2072,-8,112,-24,145,62
7935,-2064,8,72,-29,144,64
7940,-2096,24,72,-34,139,62
7945,-2080,0,88,-37,139,60
7950,-2072,8,72,-37,138,56
7955,-2064,0,88,-36,136,53
7960,-2088,-16,96,-30,135,47
7965,-2072,-16,96,-27,131,44
7970,-2088,16,80,-22,131,37
7975,-2096,-16,64,-17,129,35
7980,-2080,-8,64,-11,127,28
7985,-2096,0,88,-7,124,26
7990,-2080,-8,72,-6,121,20
7995,-2064,16,48,-3,120,19
8000,-2096,16,40,1,116,11
8005,-2088,16,56,4,113,11
8010,-2112,8,64,6,111,7
8015,-2088,0,64,8,108,5
8020,-2112,8,40,10,107,0
8025,-2104,8,80,11,105,0
8030,-2088,0,72,12,103,-5
8035,-2104,8,40,13,102,-4
8040,-2112,16,64,13,99,-9
8045,-2080,8,64,13,96,-9
8050,-2104,16,64,12,95,-11
8055,-2096,-16,72,12,94,-10
8060,-2104,8,48,15,95,-12
8065,-2096,8,64,16,96,-12
8070,-2096,-8,64,17,97,-15
8075,-2072,-16,40,18,99,-12
8080,-2104,-16,48,21,103,-15
8085,-2096,24,64,24,105,-13
8090,-2088,-8,88,25,106,-14
8095,-2064,-16,56,26,107,-11
8100,-2064,0,72,25,106,-11
8105,-2056,-16,48,23,107,-6
8110,-2064,-8,64,21,106,-6
8115,-2064,-16,80,18,104,-3
8120,-2064,-8,80,13,101,-3
8125,-2048,0,64,9,98,1
8130,-2056,8,48,6,94,1
8135,-2080,0,56,1,94,0
8140,-2088,8,56,-6,92,-4
8145,-2072,0,48,-11,90,-3
8150,-2096,0,64,-16,88,-10
8155,-2088,0,56,-21,85,-9
8160,-2104,8,72,-25,84,-13
8165,-2088,8,56,-30,83,-12
8170,-2104,24,64,-33,81,-16
8175,-2104,-8,48,-36,79,-13
8180,-2088,-24,32,-38,77,-17
8185,-2104,8,40,-40,74,-15
8190,-2112,0,8,-40,72,-17
8195,-2088,-24,32,-40,69,-17
8200,-2088,-24,56,-37,67,-20
8205,-2088,-16,40,-34,66,-18
8210,-2088,-8,64,-30,64,-20
8215,-2104,-8,48,-26,61,-18
8220,-2088,-8,56,-21,60,-22
8225,-2072,-16,40,-19,57,-20
8230,-2096,-8,40,-15,56,-23
8235,-2080,-24,64,-12,54,-22
8240,-2088,-24,48,-12,52,-23
8245,-2080,-8,72,-13,51,-20
8250,-2080,-32,16,-14,51,-21
8255,-2096,-16,80,-17,51,-18
8260,-2080,-24,64,-20,51,-19
8265,-2080,-8,72,-22,52,-14
8270,-2056,-16,64,-24,53,-14
8275,-2048,-16,64,-27,57,-9
8280,-2048,-24,72,-28,57,-7
8285,-2080,-32,88,-29,58,-2
8290,-2048,-16,64,-33,60,-1
8295,-2048,-24,56,-34,60,3
8300,-2064,-32,64,-34,61,4
8305,-2024,-32,64,-33,61,8
8310,-2056,-32,80,-33,63,8
8315,-2072,-24,64,-32,63,12
8320,-2064,-16,80,-30,63,12
8325,-2056,-16,88,-32,61,17
8330,-2064,-16,72,-32,61,17
8335,-2056,-24,64,-30,61,20
8340,-2088,-16,72,-28,64,20
8345,-2064,-8,80,-25,65,23
8350,-2080,0,72,-24,67,22
8355,-2064,-24,80,-23,66,24
8360,-2080,-8,80,-21,70,24
8365,-2056,-8,104,-22,73,26
8370,-2080,8,72,-19,73,25
8375,-2064,-8,88,-18,75,26
8380,-2072,0,72,-17,77,25
8385,-2088,8,64,-17,79,26
8390,-2056,-16,72,-16,81,24
8395,-2064,-24,80,-19,84,24
8400,-2072,24,72,-20,87,23
8405,-2072,8,72,-22,88,24
8410,-2088,16,72,-23,90,23
8415,-2064,24,40,-26,91,24
8420,-2072,48,64,-27,90,23
8425,-2048,16,48,-29,90,25
8430,-2080,16,64,-31,89,23
8435,-2040,0,72,-30,88,24
8440,-2056,24,64,-31,87,22
8445,-2056,16,64,-31,86,22
8450,-2040,16,72,-31,85,22
8455,-2048,0,64,-33,83,21
8460,-2056,-8,64,-32,80,18
8465,-2064,0,64,-33,78,17
8470,-2064,-8,64,-32,78,15
8475,-2072,8,32,-34,76,13
8480,-2072,-8,64,-33,75,11
8485,-2088,24,48,-32,76,9
8490,-2080,32,64,-28,75,8
8495,-2088,8,56,-26,73,6
8500,-2088,0,40,-24,71,3
8505,-2080,0,40,-19,69,3
8510,-2088,-24,72,-18,66,0
8515,-2096,-16,40,-15,63,-2
8520,-2120,8,32,-15,59,-3
8525,-2104,0,24,-14,55,-4
8530,-2104,8,56,-14,50,-7
8535,-2088,0,-8,-16,47,-13
8540,-2120,32,40,-15,43,-15
8545,-2112,16,24,-16,38,-20
8550,-2128,0,16,-15,36,-24
8555,-2104,48,0,-14,34,-28
8560,-2104,24,16,-14,32,-30
8565,-2104,-16,48,-14,31,-34
8570,-2128,0,56,-15,32,-33
8575,-2120,8,48,-14,32,-36
8580,-2112,16,40,-17,30,-34
8585,-2072,-8,64,-18,31,-36
8590,-2080,-16,64,-20,30,-33
8595,-2080,-8,72,-22,29,-33
8600,-2064,-24,64,-25,29,-30
8605,-2048,-32,72,-26,30,-28
8610,-2064,-32,72,-28,30,-23
8615,-2056,-24,88,-29,30,-22
8620,-2056,-32,72,-29,31,-18
8625,-2072,-32,88,-30,31,-16
8630,-2072,-32,56,-28,29,-11
8635,-2088,-32,88,-28,31,-9
8640,-2080,-32,80,-27,31,-5
8645,-2096,-32,64,-24,30,-2
8650,-2080,-32,72,-20,30,2
8655,-2072,-32,64,-17,31,5
8660,-2096,-24,64,-15,32,9
8665,-2096,-32,56,-12,32,11
8670,-2096,-32,72,-11,33,17
8675,-2096,-24,48,-7,35,17
8680,-2088,-32,64,-7,38,23
8685,-2096,-16,64,-3,40,24
8690,-2112,-8,56,-1,43,26
8695,-2080,-16,64,-2,46,26
8700,-2088,-8,72,-1,48,29
8705,-2096,8,64,1,51,27
8710,-2088,0,72,2,56,29
8715,-2088,-16,64,5,59,27
8720,-2056,-16,72,8,62,30
8725,-2080,-8,56,9,68,27
8730,-2088,0,80,10,71,28
8735,-2072,0,64,9,73,26
8740,-2064,8,64,10,77,26
8745,-2072,0,72,12,80,24
8750,-2072,24,80,13,81,27
8755,-2056,16,56,10,83,24
8760,-2048,0,80,10,84,27
8765,-2056,24,72,8,85,22
8770,-2080,8,48,6,86,23
8775,-2072,24,88,3,87,19
8780,-2072,24,88,1,88,22
8785,-2064,0,80,-1,89,19
8790,-2056,-8,88,-2,89,22
8795,-2072,-8,72,-2,90,19
8800,-2064,8,64,-3,91,21
8805,-2080,32,64,-4,91,17
8810,-2088,8,72,-2,92,19
8815,-2080,8,40,-2,92,16
8820,-2064,16,80,0,94,16
8825,-2088,32,72,1,94,14
8830,-2072,24,56,2,96,17
8835,-2096,8,64,3,94,15
8840,-2056,8,64,3,94,18
8845,-2080,16,72,2,93,16
8850,-2072,16,56,2,92,18
8855,-2072,16,64,1,92,15
8860,-2088,40,72,0,90,17
8865,-2072,16,56,-3,89,14
8870,-2096,24,88,-4,89,17
8875,-2096,8,40,-5,87,13
8880,-2080,0,56,-6,85,14
8885,-2072,-16,40,-8,86,11
8890,-2080,8,56,-9,85,11
8895,-2064,0,64,-10,85,6
8900,-2080,-8,40,-10,84,9
8905,-2072,0,72,-11,84,5
8910,-2080,0,40,-11,82,6
8915,-2112,8,56,-13,83,2
8920,-2080,8,40,-13,81,3
8925,-2096,8,64,-13,80,1
8930,-2080,0,40,-16,77,3
8935,-2080,0,32,-18,77,1
8940,-2080,16,40,-16,75,3
8945,-2096,8,40,-18,72,3
8950,-2104,32,56,-19,71,3
8955,-2104,8,48,-22,69,1
8960,-2096,0,32,-23,68,3
8965,-2096,-8,48,-25,67,2
8970,-2104,-8,24,-25,65,3
8975,-2096,0,8,-23,64,2
8980,-2088,0,16,-22,63,4
8985,-2096,-8,32,-21,62,3
8990,-2096,8,48,-20,63,3
8995,-2080,8,56,-19,62,2
9000,-2096,8,32,-18,61,5
9005,-2112,8,48,-15,60,3
9010,-2080,0,56,-15,59,5
9015,-2088,24,64,-14,57,2
9020,-2080,16,48,-15,56,4
9025,-2096,0,48,-14,55,1
9030,-2080,24,32,-16,54,3
9035,-2088,0,48,-16,53,1
9040,-2088,8,32,-15,52,3
9045,-2080,-8,32,-16,51,0
9050,-2112,8,64,-17,49,0
9055,-2080,0,48,-18,49,-2
9060,-2088,8,64,-18,47,0
9065,-2096,24,40,-17,46,-2
9070,-2104,24,64,-19,46,0
9075,-2072,8,64,-19,47,-1
9080,-2088,24,64,-19,48,0
9085,-2080,16,32,-20,48,-2
9090,-2072,-8,24,-20,47,0
9095,-2088,-16,48,-18,47,-2
9100,-2088,24,64,-18,47,-3
9105,-2072,0,56,-18,47,-3
9110,-2080,24,48,-16,49,-2
9115,-2088,-8,56,-14,49,-4
9120,-2080,-8,72,-13,49,-3
9125,-2088,-8,56,-12,49,-4
9130,-2080,8,64,-11,50,-3
9135,-2104,16,64,-10,51,-4
9140,-2080,8,48,-9,53,-3
9145,-2088,0,64,-4,54,-4
9150,-2064,0,48,-3,56,-4
9155,-2088,16,32,-1,59,-3
9160,-2088,8,56,0,59,-3
9165,-2088,24,72,2,60,-3
9170,-2064,16,80,3,62,-2
9175,-2104,16,64,2,60,-3
9180,-2064,8,56,2,62,-2
9185,-2080,0,56,2,61,-2
9190,-2080,16,40,1,61,-2
9195,-2088,24,24,1,61,-3
9200,-2096,24,64,2,62,-4
9205,-2080,0,24,3,65,-4
9210,-2096,8,56,5,67,-5
9215,-2080,-8,56,7,69,-5
9220,-2064,-8,56,9,71,-4
9225,-2080,8,40,10,74,-6
9230,-2088,0,40,13,76,-6
9235,-2088,24,48,13,79,-6
9240,-2104,16,56,15,81,-5
9245,-2104,0,64,16,83,-4
9250,-2088,16,48,19,85,-6
9255,-2080,-8,48,21,88,-4
9260,-2088,0,56,25,91,-5
9265,-2072,16,32,28,94,-5
9270,-2072,24,72,28,96,-4
9275,-2072,16,48,29,97,-4
9280,-2072,-8,64,30,98,-5
9285,-2072,-8,56,31,97,-5
9290,-2096,8,64,31,97,-5
9295,-2088,16,56,30,94,-4
9300,-2080,8,48,30,93,-4
9305,-2072,0,48,28,92,-3
9310,-2080,0,56,28,92,-2
9315,-2072,0,56,26,91,1
9320,-2088,16,64,24,90,0
9325,-2072,16,72,21,87,4
9330,-2072,-16,40,18,86,5
9335,-2064,-16,40,14,86,7
9340,-2096,8,64,13,84,6
9345,-2104,0,40,10,83,7
9350,-2072,0,40,8,82,4
9355,-2072,0,48,7,80,4
9360,-2072,16,40,6,78,5
9365,-2056,0,80,7,79,3
9370,-2080,-8,48,6,79,2
9375,-2072,8,64,5,76,4
9380,-2072,16,40,2,75,2
9385,-2072,-8,64,1,72,6
9390,-2080,24,32,1,70,5
9395,-2064,-8,48,0,69,8
9400,-2072,0,56,-2,68,8
9405,-2064,-8,40,-4,66,10
9410,-2072,-16,64,-6,66,10
9415,-2080,-16,64,-7,64,10
9420,-2080,8,48,-9,63,9
9425,-2080,-16,48,-12,61,12
9430,-2096,16,64,-12,61,9
9435,-2080,8,24,-13,59,12
9440,-2112,8,24,-13,56,9
9445,-2088,16,24,-12,56,12
9450,-2080,0,24,-13,57,11
9455,-2088,0,32,-11,58,13
9460,-2112,32,64,-10,58,12
9465,-2112,24,48,-9,58,13
9470,-2072,16,32,-7,58,12
9475,-2096,32,24,-7,61,13
9480,-2088,32,56,-8,60,11
9485,-2064,32,48,-7,59,12
9490,-2072,16,64,-6,59,9
9495,-2080,16,48,-8,59,11
9500,-2056,24,48,-7,60,8
9505,-2080,8,16,-7,60,9
9510,-2088,8,48,-9,58,6
9515,-2048,24,48,-10,56,7
9520,-2080,24,48,-10,58,4
9525,-2080,40,48,-11,56,6
9530,-2088,32,40,-11,55,4
9535,-2064,16,56,-13,56,4
9540,-2080,24,40,-13,57,1
9545,-2048,-16,24,-14,57,3
9550,-2072,16,32,-15,55,1
9555,-2088,16,56,-15,54,1
9560,-2080,16,40,-17,54,-1
9565,-2072,16,32,-19,54,-1
9570,-2088,40,48,-19,53,-4
9575,-2096,24,64,-20,53,-3
9580,-2072,8,32,-20,53,-5
9585,-2088,24,56,-21,54,-4
9590,-2080,16,40,-21,54,-7
9595,-2088,8,24,-21,53,-3
9600,-2088,16,48,-21,53,-7
9605,-2088,-8,8,-21,52,-5
9610,-2064,8,72,-21,52,-7
9615,-2096,16,16,-22,53,-5
9620,-2104,32,32,-21,54,-8
9625,-2088,24,56,-22,53,-5
9630,-2104,24,56,-21,55,-7
9635,-2088,8,48,-21,55,-5
9640,-2056,8,32,-19,56,-8
9645,-2088,8,40,-17,55,-5
9650,-2096,0,64,-14,56,-8
9655,-2088,-8,56,-14,56,-5
9660,-2088,24,56,-14,55,-6
9665,-2072,16,32,-15,54,-3
9670,-2072,8,64,-15,54,-5
9675,-2080,16,56,-16,51,-2
9680,-2064,24,32,-15,50,-4
9685,-2088,8,48,-15,50,-2
9690,-2064,16,56,-15,51,-4
9695,-2088,0,56,-16,51,-2
9700,-2072,8,64,-17,49,-5
9705,-2096,-16,56,-17,49,-3
9710,-2072,16,48,-17,50,-5
9715,-2088,0,24,-17,50,-2
9720,-2064,8,56,-18,51,-4
9725,-2080,0,32,-15,51,-1
9730,-2072,0,64,-16,51,-2
9735,-2080,8,48,-17,53,1
9740,-2080,-8,24,-16,53,-1
9745,-2088,8,48,-18,53,2
9750,-2080,8,24,-16,54,1
9755,-2064,16,24,-16,53,1
9760,-2080,-8,16,-16,55,0
9765,-2088,0,56,-16,56,3
9770,-2088,24,64,-16,56,2
9775,-2064,8,40,-18,56,5
9780,-2072,8,56,-18,56,4
9785,-2064,8,64,-17,56,5
9790,-2072,24,24,-18,57,6
9795,-2088,8,64,-18,57,6
9800,-2088,0,48,-19,56,5
9805,-2064,8,64,-20,56,6
9810,-2088,8,56,-19,56,5
9815,-2088,0,24,-21,56,7
9820,-2080,-8,64,-21,54,6
9825,-2088,24,72,-20,55,7
9830,-2088,8,48,-21,55,7
9835,-2096,16,16,-20,55,8
9840,-2080,8,64,-19,57,8
9845,-2096,8,64,-17,58,10
9850,-2088,8,56,-17,59,9
9855,-2088,-8,64,-16,61,10
9860,-2096,16,56,-13,62,10
9865,-2112,-16,56,-12,62,11
9870,-2096,8,72,-10,62,11
9875,-2096,16,40,-8,63,11
9880,-2088,-16,64,-6,65,12
9885,-2088,16,48,-6,64,12
9890,-2080,-8,32,-4,63,11
9895,-2104,24,56,-5,64,11
9900,-2096,0,64,-4,64,10
9905,-2096,0,24,-6,64,9
9910,-2088,32,48,-6,65,9
9915,-2096,32,32,-5,63,9
9920,-2072,8,56,-6,64,8
9925,-2096,24,24,-6,65,9
9930,-2072,32,64,-8,65,9
9935,-2088,24,40,-6,65,8
9940,-2080,0,56,-6,65,7
9945,-2088,40,40,-6,64,7
9950,-2096,16,16,-8,65,7
9955,-2072,24,40,-8,64,6
9960,-2088,24,64,-9,65,5
9965,-2088,24,48,-9,63,5
9970,-2088,16,56,-9,63,4
9975,-2080,40,64,-10,63,2
9980,-2104,32,48,-12,62,1
9985,-2104,32,64,-13,61,-1
9990,-2088,32,16,-13,60,-1
9995,-2096,8,64,-15,58,-5
10000,-2080,32,40,-15,57,-4
10005,-2096,40,56,-17,57,-5
10010,-2080,40,64,-19,57,-5
10015,-2072,16,40,-21,56,-8
10020,-2096,48,8,-22,54,-6
10025,-2088,24,64,-25,53,-9
10030,-2096,32,56,-25,53,-9
10035,-2080,32,40,-27,51,-11
10040,-2072,-8,48,-28,51,-11
10045,-2096,32,24,-29,50,-12
10050,-2088,32,32,-28,49,-11
10055,-2096,24,56,-30,49,-12
10060,-2096,24,24,-29,49,-12
10065,-2072,24,40,-29,50,-13
10070,-2096,16,32,-28,48,-11
10075,-2072,32,8,-30,46,-14
10080,-2096,32,32,-29,46,-14
10085,-2088,16,56,-29,46,-15
10090,-2072,16,56,-30,45,-13
10095,-2080,0,40,-30,45,-13
10100,-2072,8,64,-28,45,-12
10105,-2064,16,32,-28,45,-14
10110,-2104,16,48,-29,44,-13
10115,-2088,-16,64,-29,44,-13
10120,-2088,8,32,-29,45,-11
10125,-2064,0,64,-27,47,-13
10130,-2072,-16,8,-26,48,-12
10135,-2080,-16,56,-24,47,-13
10140,-2064,-8,64,-22,48,-11
10145,-2080,-8,40,-22,49,-13
10150,-2072,-8,40,-19,49,-9
10155,-2064,16,56,-18,51,-11
10160,-2088,16,64,-17,50,-7
10165,-2072,0,64,-18,52,-9
10170,-2072,0,64,-18,52,-6
10175,-2072,-16,64,-18,51,-6
10180,-2072,-16,40,-18,50,-3
10185,-2080,0,56,-17,51,-5
10190,-2048,0,64,-17,52,-3
10195,-2088,0,96,-18,52,-4
10200,-2072,-8,40,-16,54,0
10205,-2072,-16,56,-15,55,-1
10210,-2080,16,64,-15,55,2
10215,-2072,-8,64,-13,57,1
10220,-2080,-16,64,-14,56,4
10225,-2080,-16,48,-12,57,3
10230,-2080,-8,56,-12,58,6
10235,-2104,0,80,-10,59,4
10240,-2072,-24,88,-10,57,7
10245,-2248,40,-24,-9,58,6
10250,-2032,16,64,-7,58,8
10255,-1936,-16,32,-7,58,6
10260,-2096,-16,64,-6,57,10
10265,-2040,32,184,-5,58,8
10270,-2072,0,40,-4,59,12
10275,-2048,0,40,-5,57,9
10280,-2080,8,64,-4,57,11
10285,-2112,40,32,-4,55,9
10290,-2080,24,64,-4,53,10
10295,-2096,24,8,-5,52,10
10300,-2048,-8,56,-6,51,12
10305,-2064,16,48,-6,50,10
10310,-2072,24,0,-6,48,11
10315,-2080,32,24,-8,46,8
10320,-2072,16,40,-8,44,9
10325,-2072,24,40,-9,44,5
10330,-2096,8,64,-11,42,7
10335,-2072,0,56,-13,41,5
10340,-2080,8,-8,-14,41,7
10345,-2072,8,48,-16,40,4
10350,-2088,8,48,-17,39,7
10355,-2080,8,48,-17,39,4
10360,-2064,40,24,-16,39,5
10365,-2072,16,40,-16,40,2
10370,-2088,8,48,-18,40,5
10375,-2088,8,32,-18,40,3
10380,-2080,16,64,-19,40,5
10385,-2072,24,64,-20,40,3
10390,-2088,24,48,-20,39,6
10395,-2088,40,64,-22,39,4
10400,-2096,8,64,-24,37,7
10405,-2096,8,64,-26,37,6
10410,-2096,40,48,-26,36,7
10415,-2088,16,64,-27,36,5
10420,-2104,40,56,-26,37,7
10425,-2088,24,64,-27,37,5
10430,-2064,0,64,-26,38,7
10435,-2088,16,48,-25,38,5
10440,-2072,16,64,-23,39,7
10445,-2088,16,64,-23,39,5
10450,-2088,8,32,-23,40,8
10455,-2096,24,56,-22,40,6
10460,-2072,24,64,-22,39,8
10465,-2080,32,56,-22,39,7
10470,-2080,24,56,-22,38,7
10475,-2088,24,64,-21,37,7
10480,-2048,0,64,-22,38,8
10485,-2080,24,40,-21,36,5
10490,-2096,16,72,-20,37,8
10495,-2088,24,48,-20,39,4
10500,-2080,24,72,-19,38,6
10505,-2088,-8,64,-20,40,3
10510,-2072,8,56,-18,39,4
10515,-2080,8,64,-18,41,3
10520,-2088,16,56,-17,42,5
10525,-2080,0,72,-16,43,2
10530,-2064,8,64,-18,45,4
10535,-2096,0,80,-17,47,2
10540,-2080,32,64,-16,48,4
10545,-2088,32,64,-13,48,3
10550,-2080,32,56,-13,47,4
10555,-2072,0,64,-14,48,4
10560,-2064,-24,64,-15,49,5
10565,-2088,24,64,-15,50,4
10570,-2096,16,64,-14,49,4
10575,-2096,0,64,-14,50,2
10580,-2088,32,64,-13,52,4
10585,-2088,32,48,-11,54,3
10590,-2072,16,56,-10,54,4
10595,-2096,24,64,-9,55,3
10600,-2088,24,64,-9,55,2
10605,-2080,8,64,-7,54,2
10610,-2096,40,72,-8,55,1
10615,-2088,16,64,-7,55,-1
10620,-2080,32,72,-7,56,-1
10625,-2080,0,48,-7,56,-2
10630,-2072,40,48,-7,55,-3
10635,-2080,40,72,-9,55,-1
10640,-2104,24,48,-10,55,-3
10645,-2096,0,72,-11,56,-2
10650,-2080,8,48,-14,56,-2
10655,-2088,16,72,-16,56,-1
10660,-2080,8,64,-18,57,-1
10665,-2096,16,72,-19,57,-3
10670,-2080,40,48,-20,57,-2
10675,-2080,16,64,-22,57,-2
10680,-2072,8,64,-21,55,-2
10685,-2104,24,40,-22,59,-1
10690,-2104,24,8,-23,58,-3
10695,-2072,24,64,-23,60,-1
10700,-2064,32,48,-22,59,-3
10705,-2080,16,48,-21,60,-2
10710,-2088,16,64,-22,61,-1
10715,-2072,0,40,-21,61,-1
10720,-2096,32,48,-19,62,-1
10725,-2088,24,56,-19,61,-1
10730,-2080,16,72,-16,62,-1
10735,-2072,16,56,-14,61,-1
10740,-2064,24,64,-14,61,-1
10745,-2080,32,32,-13,60,2
10750,-2088,0,64,-11,60,-1
10755,-2088,24,48,-8,60,-2
10760,-2104,40,64,-5,59,-3
10765,-2080,24,72,-6,57,-2
10770,-2064,0,80,-6,57,-3
10775,-2080,16,56,-10,56,-2
10780,-2080,16,48,-12,55,-3
10785,-2072,0,64,-15,55,-1
10790,-2088,24,64,-16,53,-4
10795,-2088,0,64,-16,53,-3
10800,-2088,16,64,-16,54,-6
10805,-2088,24,72,-16,54,-6
10810,-2112,48,48,-18,54,-8
10815,-2056,16,40,-17,55,-9
10820,-2072,8,64,-15,55,-11
10825,-2104,16,48,-12,57,-10
10830,-2104,16,64,-11,58,-12
10835,-2112,0,40,-8,59,-11
10840,-2064,0,64,-8,58,-11
10845,-2072,0,72,-7,56,-11
10850,-2088,8,72,-8,56,-10
10855,-2088,0,64,-8,56,-7
10860,-2088,16,64,-7,57,-9
10865,-2088,8,64,-8,57,-6
10870,-2096,24,56,-6,59,-7
10875,-2096,24,64,-8,60,-5
10880,-2080,24,64,-8,62,-7
10885,-2072,16,72,-8,64,-5
10890,-2064,8,56,-10,64,-5
10895,-2072,0,64,-9,65,-2
10900,-2080,24,64,-10,64,-5
10905,-2072,16,48,-9,64,-2
10910,-2080,24,32,-9,63,-4
10915,-2088,16,40,-9,62,-1
10920,-2080,24,48,-8,62,-3
10925,-2088,16,64,-8,61,-2
10930,-2112,24,72,-7,60,-4
10935,-2056,-8,64,-7,59,-3
10940,-2088,24,40,-8,61,-6
10945,-2088,8,64,-6,60,-4
10950,-2096,0,56,-4,60,-7
10955,-2104,24,64,-3,61,-5
10960,-2064,16,56,-4,60,-7
10965,-2104,32,40,-4,60,-4
10970,-2064,16,40,-4,58,-6
10975,-2088,24,72,-4,60,-3
10980,-2064,8,56,-6,61,-6
10985,-2096,48,32,-7,60,-3
10990,-2096,32,64,-8,59,-6
10995,-2088,16,64,-9,58,-4
11000,-2096,24,48,-8,56,-7
11005,-2088,24,64,-10,58,-5
11010,-2080,-8,56,-12,58,-8
11015,-2080,8,64,-11,57,-7
11020,-2072,16,64,-10,58,-7
11025,-2080,40,64,-9,58,-6
11030,-2080,8,64,-10,57,-8
11035,-2056,8,64,-11,57,-4
11040,-2072,0,80,-13,57,-6
11045,-2064,24,80,-14,55,-3
11050,-2056,-8,64,-18,55,-5
11055,-2056,-16,64,-18,55,-2
11060,-2064,16,80,-17,55,-4
11065,-2072,32,64,-17,57,-1
11070,-2072,-8,64,-17,59,-3
11075,-2072,16,80,-16,60,-1
11080,-2064,-8,64,-16,61,-3
11085,-2080,16,48,-15,62,1
11090,-2072,16,72,-14,61,0
11095,-2096,24,48,-13,63,2
11100,-2080,24,40,-13,62,1
11105,-2064,16,64,-12,61,4
11110,-2088,32,64,-11,61,2
11115,-2096,32,80,-12,60,5
11120,-2096,40,40,-12,60,3
11125,-2104,32,64,-12,59,6
11130,-2104,24,56,-13,59,5
11135,-2072,8,48,-14,60,7
11140,-2080,24,24,-13,60,4
11145,-2088,24,64,-14,59,5
11150,-2064,32,32,-14,57,4
11155,-2056,24,64,-15,57,6
11160,-2072,16,64,-13,57,4
11165,-2072,0,64,-13,57,6
11170,-2088,24,40,-15,57,4
11175,-2080,24,56,-15,57,7
11180,-2056,-8,56,-14,58,5
11185,-2104,8,56,-15,58,6
11190,-2072,8,64,-15,59,4
11195,-2032,160,-16,-15,58,8
11200,-2072,32,56,-14,59,6
11205,-2056,24,72,-14,59,7
11210,-2096,-8,56,-14,58,6
11215,-2048,0,64,-14,58,8
11220,-2064,16,32,-12,57,7
11225,-2072,-16,40,-12,57,8
11230,-2088,16,56,-13,57,8
11235,-2096,24,64,-14,55,9
11240,-2056,24,64,-13,56,6
11245,-2088,40,56,-12,55,7
11250,-2080,40,80,-12,56,7
11255,-2088,24,64,-11,55,9
11260,-2088,8,48,-10,55,8
11265,-2096,0,32,-10,56,10
11270,-2072,8,48,-9,56,8
11275,-2088,16,64,-10,55,8
11280,-2088,16,56,-10,54,7
11285,-2112,24,64,-9,53,7
11290,-2088,40,56,-9,54,6
11295,-2080,24,64,-8,53,6
11300,-2072,24,40,-9,53,5
11305,-2120,24,64,-10,52,8
11310,-2088,32,32,-12,51,7
11315,-2040,8,40,-13,49,8
11320,-2072,16,64,-15,48,7
11325,-2080,40,40,-17,47,7
11330,-2096,32,72,-18,47,6
11335,-2088,32,72,-20,46,7
11340,-2080,0,48,-22,46,4
11345,-2120,48,64,-22,43,5
11350,-2088,32,64,-21,43,4
11355,-2072,16,72,-20,43,5
11360,-2080,24,48,-20,43,3
11365,-2056,24,56,-21,43,2
11370,-2088,32,56,-19,42,2
11375,-2080,24,24,-19,42,2
11380,-2080,16,48,-18,40,2
11385,-2072,16,48,-18,40,2
11390,-2064,16,64,-17,40,1
11395,-2080,16,64,-17,41,2
11400,-2104,48,64,-18,40,2
11405,-2072,32,64,-17,40,1
11410,-2088,16,80,-19,40,2
11415,-2080,48,48,-20,39,1
11420,-2088,24,56,-19,40,2
11425,-2080,0,64,-19,41,2
11430,-2064,32,56,-18,40,2
11435,-2088,24,64,-19,39,1
11440,-2088,16,72,-19,40,1
11445,-2080,48,72,-19,41,1
11450,-2104,32,64,-20,42,1
11455,-2080,32,64,-19,43,1
11460,-2080,0,80,-19,43,2
11465,-2056,8,80,-19,45,1
11470,-2080,8,72,-19,47,1
11475,-2072,0,64,-18,46,4
11480,-2088,16,72,-17,47,5
11485,-2080,32,96,-19,48,4
11490,-2080,24,64,-18,48,6
11495,-2080,8,72,-19,49,2
11500,-2080,24,72,-20,49,4
11505,-2080,-8,56,-20,50,3
11510,-2088,40,48,-20,51,4
11515,-2088,32,64,-21,50,4
11520,-2088,24,64,-19,53,5
11525,-2080,24,72,-19,53,4
11530,-2064,16,56,-18,52,5
11535,-2088,8,48,-18,54,3
11540,-2088,24,80,-17,53,5
11545,-2080,24,40,-16,55,3
11550,-2072,0,64,-15,54,5
11555,-2104,48,72,-15,53,4
11560,-2064,32,72,-16,54,7
11565,-2072,32,72,-16,54,5
11570,-2088,8,64,-17,53,7
11575,-2080,32,56,-17,53,4
11580,-2104,32,72,-18,52,7
11585,-2080,32,64,-17,54,6
11590,-2072,24,64,-18,53,7
11595,-2088,8,72,-18,53,6
11600,-2072,0,64,-17,53,8
11605,-2072,8,72,-17,53,6
11610,-2096,24,72,-17,54,7
11615,-2080,24,64,-18,54,7
11620,-2112,32,64,-17,55,9
11625,-2104,32,72,-18,54,6
11630,-2088,0,64,-16,54,8
11635,-2088,16,72,-16,55,5
11640,-2096,56,64,-15,57,8
11645,-2088,8,72,-15,56,6
11650,-2080,8,64,-15,57,7
11655,-2080,16,80,-14,60,6
11660,-2088,24,72,-15,60,8
11665,-2072,0,72,-14,62,6
11670,-2064,24,64,-14,61,9
11675,-2072,24,72,-14,62,6
11680,-2072,16,64,-15,62,9
11685,-2064,40,56,-17,62,7
11690,-2080,24,80,-16,62,8
11695,-2072,24,88,-17,61,7
11700,-2080,48,64,-19,62,10
11705,-2088,24,72,-18,60,9
11710,-2072,16,80,-18,59,10
11715,-2096,24,56,-17,58,6
11720,-2088,8,40,-16,59,9
11725,-2088,24,64,-17,59,7
11730,-2088,32,88,-16,58,8
11735,-2088,16,56,-13,58,5
11740,-2080,8,72,-14,59,6
11745,-2064,24,88,-11,61,1
11750,-2080,8,72,-12,62,3
11755,-2096,24,48,-11,64,1
11760,-2088,32,64,-9,66,3
11765,-2088,24,72,-8,67,1
11770,-2088,8,72,-7,68,3
11775,-2088,24,80,-8,69,1
11780,-2088,16,72,-9,70,4
11785,-2080,16,64,-9,70,2
11790,-2088,40,72,-9,70,7
11795,-2096,16,72,-11,70,3
11800,-2120,40,80,-13,71,7
11805,-2088,16,72,-14,72,4
11810,-2072,40,72,-15,72,6
11815,-2096,8,64,-15,73,4
11820,-2072,32,64,-17,73,6
11825,-2064,16,56,-18,74,4
11830,-2096,48,64,-17,75,6
11835,-2080,8,56,-20,73,3
11840,-2088,16,64,-21,73,5
11845,-2096,32,64,-22,73,3
11850,-2072,24,64,-23,73,3
11855,-2072,40,72,-23,72,2
11860,-2088,56,56,-22,72,2
11865,-2104,24,64,-22,72,0
11870,-2096,40,48,-21,70,0
11875,-2088,32,40,-18,69,-4
11880,-2104,32,48,-18,68,-2
11885,-2088,40,64,-14,69,-7
11890,-2072,32,56,-11,68,-8
11895,-2104,32,48,-11,66,-9
11900,-2088,32,64,-10,65,-6
11905,-2104,24,72,-10,63,-10
11910,-2080,16,72,-9,63,-9
11915,-2088,16,40,-9,59,-11
11920,-2072,16,72,-9,57,-8
11925,-2072,0,40,-10,53,-10
11930,-2080,8,56,-12,51,-9
11935,-2096,8,56,-11,50,-12
11940,-2072,16,64,-10,49,-11
11945,-2080,16,56,-9,47,-14
11950,-2080,16,56,-6,48,-13
11955,-2096,40,48,-6,47,-15
11960,-2120,32,56,-5,47,-13
11965,-2096,40,56,-5,47,-15
11970,-2072,24,64,-3,46,-14
11975,-2088,24,56,-2,46,-14
11980,-2096,24,48,0,45,-14
11985,-2104,16,72,1,45,-16
11990,-2080,16,48,0,45,-15
11995,-2096,32,56,1,44,-15
12000,-2096,0,64,1,46,-15
12005,-2096,40,72,1,45,-16
12010,-2080,16,56,0,43,-15
12015,-2080,24,80,-1,42,-16
12020,-2064,24,96,-2,41,-14
12025,-2088,40,80,-3,40,-16
12030,-2088,16,80,-4,38,-16
12035,-2064,16,88,-5,39,-17
12040,-2064,0,72,-6,39,-18
12045,-2096,24,80,-6,38,-20
12050,-2096,32,64,-5,40,-20
12055,-2080,40,72,-2,40,-20
12060,-2088,16,56,1,41,-20
12065,-2096,32,48,5,43,-21
12070,-2080,24,56,7,44,-21
12075,-2072,8,48,9,45,-22
12080,-2080,24,56,10,46,-22
12085,-2088,32,64,9,49,-22
12090,-2064,16,80,9,48,-23
12095,-2064,16,72,8,50,-23
12100,-2088,32,72,6,52,-22
12105,-2080,40,64,3,53,-23
12110,-2064,16,72,0,56,-23
12115,-2088,32,56,-3,59,-24
12120,-2104,40,64,-5,62,-23
12125,-2064,8,64,-7,65,-22
12130,-2072,16,72,-9,66,-23
12135,-2072,32,64,-10,69,-22
12140,-2072,48,96,-14,73,-20
12145,-2080,32,80,-17,75,-19
12150,-2080,0,104,-18,76,-18
12155,-2072,16,64,-22,79,-18
12160,-2048,16,64,-22,81,-18
12165,-2056,24,72,-22,82,-16
12170,-2072,0,64,-23,84,-16
12175,-2072,16,80,-24,86,-13
12180,-2064,24,64,-24,87,-13
12185,-2072,16,64,-24,88,-10
12190,-2040,-8,64,-25,89,-8
12195,-2064,16,80,-27,89,-5
12200,-2064,-8,96,-28,89,-4
12205,-2056,0,64,-29,89,-1
12210,-2072,24,72,-31,88,-1
12215,-2080,24,64,-31,89,2
12220,-2104,32,64,-32,90,0
12225,-2080,8,64,-31,89,2
12230,-2080,24,48,-31,88,2
12235,-2072,24,40,-30,90,3
12240,-2096,-8,64,-29,89,1
12245,-2072,32,64,-29,88,3
12250,-2080,16,56,-27,90,2
12255,-2104,0,48,-26,88,5
12260,-2088,16,40,-23,89,2
12265,-2096,16,48,-22,89,4
12270,-2096,24,64,-20,90,5
12275,-2080,16,72,-19,90,7
12280,-2088,8,32,-18,90,6
12285,-2088,16,64,-17,89,8
12290,-2072,24,16,-16,89,7
12295,-2104,32,24,-15,87,9
12300,-2080,24,48,-14,86,8
12305,-2056,8,64,-14,82,11
12310,-2080,24,64,-15,80,9
12315,-2080,16,64,-15,77,10
12320,-2080,32,40,-15,74,10
12325,-2080,32,24,-18,71,11
12330,-2088,24,48,-17,68,10
12335,-2072,16,48,-18,67,12
12340,-2080,24,40,-18,63,10
12345,-2080,24,16,-18,62,11
12350,-2080,0,32,-18,58,10
12355,-2072,8,56,-17,57,11
12360,-2072,24,56,-17,54,9
12365,-2096,-8,40,-17,53,10
12370,-2088,8,64,-17,49,9
12375,-2064,0,24,-18,50,11
12380,-2072,0,40,-17,48,9
12385,-2104,8,64,-16,47,9
12390,-2096,8,72,-16,45,7
12395,-2088,8,48,-16,44,10
12400,-2072,24,48,-16,43,8
12405,-2080,40,32,-16,41,11
12410,-2080,8,56,-18,40,8
12415,-2088,8,64,-19,39,9
12420,-2104,48,64,-19,38,6
12425,-2064,8,56,-21,36,9
12430,-2104,24,40,-21,37,6
12435,-2096,24,16,-19,36,8
12440,-2080,-8,16,-20,37,6
12445,-2080,8,56,-19,36,7
12450,-2104,24,48,-19,37,5
12455,-2088,8,56,-17,37,7
12460,-2064,16,72,-17,39,4
12465,-2064,16,64,-16,39,7
12470,-2064,0,72,-16,37,5
12475,-2104,16,72,-14,37,7
12480,-2088,8,72,-14,39,5
12485,-2096,0,56,-14,38,7
12490,-2104,40,56,-12,39,4
12495,-2064,8,72,-11,41,7
12500,-2088,24,72,-9,43,4
12505,-2112,40,48,-9,43,5
12510,-2080,0,64,-9,45,3
12515,-2088,32,64,-9,45,4
12520,-2104,24,72,-9,46,1
12525,-2088,32,64,-9,47,4
12530,-2064,16,72,-10,46,2
12535,-2072,16,72,-11,46,3
12540,-2080,8,72,-13,47,0
12545,-2072,40,64,-14,48,2
12550,-2088,32,64,-15,48,-1
12555,-2096,56,56,-16,49,2
12560,-2080,24,72,-15,51,-2
12565,-2080,0,72,-14,52,-1
12570,-2072,24,72,-14,53,-2
12575,-2048,32,72,-13,56,-2
12580,-2088,16,80,-12,55,-4
12585,-2080,16,64,-11,56,-3
12590,-2096,8,64,-11,57,-6
12595,-2096,56,64,-9,58,-4
12600,-2080,24,48,-11,59,-7
12605,-2088,32,80,-10,60,-5
12610,-2080,32,72,-11,61,-8
12615,-2064,8,72,-14,61,-5
12620,-2080,32,64,-14,61,-8
12625,-2072,56,64,-15,61,-5
12630,-2080,16,72,-16,61,-8
12635,-2080,24,64,-18,61,-7
12640,-2072,48,64,-19,61,-9
12645,-2088,40,64,-20,62,-8
12650,-2056,32,56,-22,60,-10
12655,-2088,40,48,-21,60,-10
12660,-2080,24,64,-21,60,-11
12665,-2064,40,24,-22,61,-6
12670,-2056,24,48,-22,60,-8
12675,-2088,24,64,-22,60,-6
12680,-2088,8,72,-24,58,-9
12685,-2088,24,64,-25,58,-7
12690,-2080,16,64,-24,59,-10
12695,-2080,8,64,-22,59,-7
12700,-2072,-8,64,-22,60,-9
12705,-2072,8,56,-20,60,-9
12710,-2080,40,0,-19,59,-10
12715,-2072,16,72,-20,59,-8
12720,-2080,16,72,-17,59,-11
12725,-2080,24,72,-16,59,-7
12730,-2080,24,56,-16,57,-7
12735,-2088,32,48,-18,56,-4
12740,-2104,16,56,-18,55,-5
12745,-2088,16,64,-19,56,-4
12750,-2072,16,64,-19,54,-3
12755,-2064,0,72,-22,52,-2
12760,-2080,16,64,-23,52,-3
12765,-2096,8,88,-21,51,0
12770,-2064,-48,56,-22,52,-2
12775,-2080,0,48,-21,54,2
12780,-2088,32,64,-20,56,1
12785,-2096,24,48,-18,57,3
12790,-2080,0,72,-19,57,3
12795,-2080,0,40,-17,59,6
12800,-2112,24,64,-15,59,6
12805,-2064,-16,40,-14,59,6
12810,-2096,32,48,-13,59,6
12815,-2096,0,64,-11,60,9
12820,-2112,32,64,-10,61,8
12825,-2088,8,16,-9,62,9
12830,-2096,16,56,-7,64,10
12835,-2096,24,88,-5,64,10
12840,-2088,16,40,-3,65,11
12845,-2072,0,48,-2,65,11
12850,-2080,24,40,-1,65,11
12855,-2088,8,72,-1,65,11
12860,-2080,32,72,-1,65,11
12865,-2088,-8,64,-1,64,12
12870,-2080,32,64,1,63,9
12875,-2072,8,64,1,63,8
12880,-2072,56,88,0,62,8
12885,-2088,16,80,-1,62,9
12890,-2088,24,64,-2,61,9
12895,-2088,24,64,-3,60,8
12900,-2128,16,160,-2,62,7
12905,-2064,32,-64,-2,63,5
12910,-2024,24,48,-2,63,4
12915,-2080,40,72,-3,63,3
12920,-2112,8,128,-4,64,4
12925,-2072,0,32,-4,63,3
12930,-2016,32,152,-4,63,5
12935,-2088,24,48,-5,62,1
12940,-2064,32,64,-8,61,3
12945,-2080,40,64,-10,60,3
12950,-2080,24,56,-12,59,2
12955,-2048,56,152,-13,59,0
12960,-2080,16,64,-15,58,1
12965,-2080,0,56,-16,57,0
12970,-2064,8,56,-16,58,2
12975,-2080,24,64,-17,58,0
12980,-2088,32,24,-17,58,2
12985,-2096,32,64,-16,57,-1
12990,-2080,24,32,-17,57,0
12995,-2080,32,56,-17,56,-2
13000,-2080,8,48,-14,56,1
13005,-2088,24,32,-14,57,-2
13010,-2080,32,48,-14,58,-1
13015,-2080,24,56,-14,57,-2
13020,-2088,-8,40,-15,56,-1
13025,-2072,40,40,-16,54,-2
13030,-2064,32,56,-18,54,-1
13035,-2080,16,64,-20,53,0
13040,-2096,40,64,-20,52,-2
13045,-2072,32,56,-22,51,-4
13050,-2072,24,88,-21,49,-2
13055,-2072,24,40,-23,50,-5
13060,-2080,40,80,-21,49,-3
13065,-2080,24,64,-23,48,-5
13070,-2072,24,64,-24,47,-4
13075,-2080,40,56,-22,48,-5
13080,-2064,16,64,-22,46,-3
13085,-2096,24,72,-21,47,-6
13090,-2104,16,64,-21,46,-2
13095,-2080,8,56,-21,47,-3
13100,-2088,16,56,-18,47,0
13105,-2064,0,72,-19,47,-2
13110,-2064,8,72,-18,46,-1
13115,-2088,16,64,-17,47,-2
13120,-2096,32,56,-17,49,0
13125,-2088,8,72,-18,49,-2
13130,-2080,0,64,-17,49,1
13135,-2104,-8,80,-17,50,1
13140,-2088,0,64,-16,51,3
13145,-2088,8,64,-16,52,2
13150,-2056,0,64,-14,50,4
13155,-2072,8,72,-14,53,3
13160,-2088,16,64,-13,55,5
13165,-2088,24,96,-12,56,4
13170,-2088,8,80,-12,56,6
13175,-2096,8,64,-12,56,4
13180,-2088,8,64,-11,55,7
13185,-2088,8,64,-11,56,4
13190,-2096,16,40,-11,57,6
13195,-2088,24,80,-9,57,4
13200,-2096,32,32,-10,57,7
13205,-2088,24,64,-9,59,5
13210,-2080,24,64,-7,59,8
13215,-2088,16,64,-7,60,5
13220,-2080,24,80,-7,59,8
13225,-2104,32,72,-6,59,5
13230,-2080,56,48,-5,60,7
13235,-2064,16,72,-4,60,4
13240,-2080,16,72,-3,62,6
13245,-2096,48,88,-2,62,3
13250,-2080,48,64,-1,60,6
13255,-2072,24,80,-3,60,4
13260,-2088,32,56,-3,60,5
13265,-2080,32,64,-2,60,2
13270,-2072,40,72,-3,59,4
13275,-2080,40,72,-5,61,0
13280,-2080,24,64,-8,58,2
13285,-2072,32,80,-8,59,-1
13290,-2080,56,56,-10,58,-1
13295,-2064,8,64,-10,57,-3
13300,-2088,40,80,-13,55,-1
13305,-2048,24,56,-15,54,-3
13310,-2080,48,64,-16,55,-1
13315,-2088,48,64,-15,54,-4
13320,-2072,24,56,-18,55,-3
13325,-2072,40,64,-20,54,-5
13330,-2064,40,64,-20,53,-4
13335,-2088,40,56,-21,53,-6
13340,-2096,40,72,-20,53,-3
13345,-2064,32,72,-22,51,-5
13350,-2072,24,72,-23,52,-2
13355,-2104,40,48,-23,51,-5
13360,-2080,40,64,-24,50,-3
13365,-2072,8,64,-24,50,-5
13370,-2072,40,64,-24,50,-3
13375,-2088,16,72,-25,50,-4
13380,-2096,24,56,-23,52,-2
13385,-2088,8,72,-22,51,-3
13390,-2088,0,64,-23,50,-1
13395,-2064,0,48,-22,50,-3
13400,-2088,0,64,-21,50,0
13405,-2088,40,80,-20,50,-3
13410,-2080,-8,56,-19,51,1
13415,-2088,24,40,-19,51,-1
13420,-2072,8,64,-18,51,2
13425,-2080,24,80,-17,51,1
13430,-2064,24,48,-16,51,2
13435,-2088,16,72,-14,50,1
13440,-2080,8,64,-15,52,3
13445,-2096,16,80,-15,51,0
13450,-2080,24,40,-14,52,2
13455,-2080,16,48,-14,53,1
13460,-2088,8,64,-13,53,2
13465,-2072,0,64,-13,56,2
13470,-2056,16,72,-13,56,4
13475,-2080,48,48,-13,56,2
13480,-2088,16,64,-11,56,3
13485,-2088,24,64,-11,57,2
13490,-2088,8,64,-10,58,5
13495,-2080,24,64,-10,60,4
13500,-2080,56,64,-12,59,5
13505,-2104,48,72,-10,60,4
13510,-2096,24,64,-11,60,4
13515,-2088,8,64,-11,60,2
13520,-2088,56,32,-9,62,4
13525,-2080,32,80,-8,62,1
13530,-2088,32,56,-8,62,3
13535,-2064,24,64,-8,62,1
13540,-2072,24,64,-8,63,2
13545,-2080,40,64,-9,63,0
13550,-2056,-8,72,-7,61,0
13555,-2080,32,72,-9,62,0
13560,-2080,24,88,-9,62,0
13565,-2080,32,48,-8,61,1
13570,-2096,40,64,-11,60,1
13575,-2088,0,80,-12,59,2
13580,-2096,16,64,-13,58,3
13585,-2088,32,80,-15,57,2
13590,-2096,8,64,-16,55,1
13595,-2080,8,48,-17,55,2
13600,-2064,32,64,-16,55,2
13605,-2072,24,80,-15,57,2
13610,-2072,8,64,-16,57,4
13615,-2056,40,64,-14,57,2
13620,-2088,24,72,-14,56,3
13625,-2080,32,56,-12,57,2
13630,-2088,24,40,-13,57,3
13635,-2088,40,64,-13,56,2
13640,-2080,32,64,-11,56,2
13645,-2064,32,64,-10,54,2
13650,-2080,24,40,-9,55,2
13655,-2096,32,48,-9,55,3
13660,-2088,32,64,-8,54,3
13665,-2096,32,64,-7,54,4
13670,-2056,32,56,-10,53,3
13675,-2072,24,72,-10,53,4
13680,-2080,40,64,-10,52,4
13685,-2072,40,56,-11,51,5
13690,-2080,32,56,-13,51,2
13695,-2064,32,64,-10,50,3
13700,-2088,40,72,-12,49,2
13705,-2088,32,56,-11,50,3
13710,-2080,16,64,-12,50,1
13715,-2080,40,80,-9,50,1
13720,-2072,24,56,-10,50,1
13725,-2064,8,80,-10,51,2
13730,-2088,64,72,-9,50,0
13735,-2096,32,48,-9,51,0
13740,-2072,8,56,-9,51,-2
13745,-2056,32,64,-9,50,0
13750,-2080,16,64,-8,49,-1
13755,-2072,16,56,-8,50,-2
13760,-2080,40,72,-8,49,-4
13765,-2064,0,72,-7,49,-2
13770,-2088,16,48,-9,48,-3
13775,-2088,32,48,-10,47,-2
13780,-2064,32,56,-10,47,-3
13785,-2080,32,64,-11,47,0
13790,-2088,16,64,-14,47,-1
13795,-2080,24,56,-15,47,1
13800,-2088,8,40,-15,48,1
13805,-2088,8,80,-14,48,3
13810,-2064,24,64,-16,50,2
13815,-2088,8,56,-16,48,5
13820,-2096,32,64,-16,50,3
13825,-2064,32,64,-16,50,6
13830,-2072,16,56,-12,52,3
13835,-2080,24,64,-11,52,5
13840,-2080,32,72,-10,53,4
13845,-2080,8,72,-7,53,6
13850,-2072,32,48,-7,53,5
13855,-2056,16,64,-7,52,7
13860,-2064,24,56,-7,51,7
13865,-2072,8,64,-8,52,9
13870,-2080,8,72,-9,50,6
13875,-2096,48,96,-8,50,10
13880,-2080,16,72,-10,50,8
13885,-2072,24,64,-10,49,9
13890,-2080,16,80,-11,49,6
13895,-2072,0,72,-12,50,9
13900,-2056,48,72,-11,50,4
13905,-2072,48,72,-11,50,7
13910,-2080,16,64,-11,51,4
13915,-2072,8,88,-9,51,7
13920,-2088,32,64,-9,51,5
13925,-2064,32,96,-9,51,8
13930,-2096,24,80,-9,51,5
13935,-2088,40,48,-9,53,7
13940,-2080,16,88,-9,52,3
13945,-2088,16,64,-10,53,5
13950,-2104,40,48,-10,53,3
13955,-2088,32,64,-11,55,5
13960,-2096,48,80,-10,55,3
13965,-2096,32,72,-11,56,5
13970,-2072,32,48,-12,57,3
13975,-2072,32,64,-13,56,6
13980,-2072,40,72,-13,57,3
13985,-2064,8,80,-14,56,4
13990,-2088,40,64,-14,56,3
13995,-2104,24,80,-14,57,5
14000,-2064,32,72,-15,57,3
14005,-2080,24,56,-15,57,4
14010,-2096,56,32,-15,57,1
14015,-2072,32,72,-14,57,3
14020,-2080,32,72,-13,58,1
14025,-2072,40,64,-12,58,3
14030,-2088,24,88,-11,56,0
14035,-2072,24,64,-13,58,2
14040,-2064,32,72,-11,58,0
14045,-2072,32,64,-10,58,2
14050,-2072,32,48,-10,57,-2
14055,-2088,24,32,-11,56,-1
14060,-2088,32,72,-10,56,-4
14065,-2104,48,64,-11,56,-1
14070,-2104,56,64,-13,55,-3
14075,-2104,40,72,-11,55,-1
14080,-2096,48,56,-12,53,-4
14085,-2080,16,72,-12,53,-2
14090,-2080,32,80,-11,52,-4
14095,-2088,16,48,-12,53,-2
14100,-2088,16,64,-13,52,-4
14105,-2072,24,56,-14,52,0
14110,-2072,16,80,-12,52,-2
14115,-2080,48,96,-12,51,0
14120,-2064,8,64,-13,50,-2
14125,-2088,48,64,-14,49,-1
14130,-2088,32,80,-14,51,-3
14135,-2088,8,72,-14,49,-1
14140,-2088,32,64,-14,50,-3
14145,-2088,48,72,-14,50,-2
14150,-2072,16,64,-12,51,-4
14155,-2088,56,64,-13,51,-2
14160,-2064,32,88,-11,52,-3
14165,-2088,40,56,-12,52,-2
14170,-2048,8,64,-12,52,-4
14175,-2072,16,64,-12,52,-3
14180,-2096,40,64,-12,54,-3
14185,-2080,32,56,-13,54,-2
14190,-2056,16,72,-13,53,-4
14195,-2080,32,64,-14,54,-3
14200,-2096,32,80,-16,54,-3
14205,-2080,24,40,-15,54,-2
14210,-2080,32,64,-14,53,-5
14215,-2064,64,96,-14,51,-3
14220,-2096,16,72,-15,52,-5
14225,-2088,24,80,-15,52,-5
14230,-2080,16,88,-13,52,-5
14235,-2064,32,72,-13,52,-4
14240,-2088,32,72,-14,54,-5
14245,-2072,32,64,-15,53,-4
14250,-2088,32,96,-13,53,-4
14255,-2080,32,80,-13,54,-1
14260,-2080,16,80,-13,53,-3
14265,-2088,16,48,-14,55,-2
14270,-2080,32,64,-13,55,-3
14275,-2088,32,72,-12,55,-1
14280,-2088,8,72,-12,56,-2
14285,-2096,8,64,-11,55,0
14290,-2096,24,80,-9,55,-1
14295,-2088,24,72,-8,57,0
14300,-2088,32,80,-7,58,-1
14305,-2096,8,72,-5,59,0
14310,-2088,16,72,-5,60,1
14315,-2088,24,80,-4,61,1
14320,-2072,32,72,-3,63,0
14325,-2088,24,48,-1,64,1
14330,-2080,24,64,1,64,0
14335,-2072,32,88,-1,65,-1
14340,-2080,40,64,-1,65,0
14345,-2064,48,80,-3,66,-1
14350,-2080,40,96,-5,67,-1
14355,-2064,48,64,-7,65,-2
14360,-2080,40,80,-9,65,-2
14365,-2088,24,64,-9,65,-3
14370,-2088,56,48,-11,67,-4
14375,-2080,40,64,-12,68,-6
14380,-2088,24,72,-11,69,-7
14385,-2072,24,64,-13,69,-8
14390,-2072,40,64,-13,70,-8
14395,-2080,48,72,-13,71,-10
14400,-2080,56,72,-14,70,-9
14405,-2088,24,72,-15,71,-11
14410,-2080,56,56,-14,69,-10
14415,-2064,32,56,-14,71,-10
14420,-2072,8,80,-15,72,-9
14425,-2080,40,88,-15,71,-9
14430,-2088,8,64,-17,71,-8
14435,-2064,24,80,-18,71,-8
14440,-2072,24,64,-19,71,-7
14445,-2096,24,72,-19,70,-8
14450,-2080,24,72,-18,71,-7
14455,-2072,40,64,-18,74,-8
14460,-2056,24,56,-17,76,-7
14465,-2064,8,48,-15,78,-7
14470,-2080,24,72,-14,78,-7
14475,-2096,16,64,-13,79,-8
14480,-2104,48,72,-12,80,-8
14485,-2088,24,72,-11,81,-10
14490,-2072,16,64,-9,80,-7
14495,-2112,40,64,-8,80,-9
14500,-2088,16,64,-8,80,-9
14505,-2112,40,64,-5,79,-10
14510,-2104,40,40,-5,78,-7
14515,-2088,40,48,-5,79,-9
14520,-2080,24,64,-6,78,-7
14525,-2088,32,56,-5,77,-10
14530,-2072,24,56,-7,79,-9
14535,-2096,24,72,-7,77,-10
14540,-2080,16,56,-8,75,-8
14545,-2096,32,56,-8,75,-11
14550,-2064,16,64,-9,74,-10
14555,-2056,24,56,-9,73,-10
14560,-2064,24,56,-8,73,-9
14565,-2080,24,72,-8,70,-11
14570,-2096,40,56,-7,72,-9
14575,-2088,24,72,-5,69,-14
14580,-2104,32,64,-5,68,-10
14585,-2080,32,48,-3,68,-13
14590,-2080,24,24,-2,68,-11
14595,-2072,24,64,-1,69,-13
14600,-2072,40,64,1,68,-12
14605,-2088,16,48,2,68,-14
14610,-2072,24,32,1,67,-11
14615,-2080,32,64,1,66,-13
14620,-2096,48,64,2,67,-11
14625,-2096,16,64,0,67,-12
14630,-2088,16,56,0,66,-8
14635,-2096,16,72,-1,66,-10
14640,-2080,0,64,-3,64,-9
14645,-2096,40,56,-3,64,-12
14650,-2096,32,72,-3,62,-10
14655,-2096,8,56,-4,62,-12
14660,-2096,8,64,-4,61,-10
14665,-2080,24,64,-6,62,-13
14670,-2080,40,64,-7,63,-10
14675,-2088,16,56,-9,63,-14
14680,-2088,40,40,-8,63,-12
14685,-2072,0,64,-8,64,-13
14690,-2080,24,40,-6,64,-10
14695,-2080,0,56,-6,64,-12
14700,-2080,24,56,-5,64,-9
14705,-2080,24,64,-5,63,-11
14710,-2072,8,88,-7,64,-6
14715,-2080,16,64,-7,62,-7
14720,-2080,24,32,-7,63,-6
14725,-2064,32,96,-9,62,-7
14730,-2072,0,80,-9,62,-3
14735,-2088,24,72,-9,63,-7
14740,-2088,16,72,-8,65,-5
14745,-2072,8,80,-6,65,-6
14750,-2096,8,56,-4,67,-6
14755,-2080,16,72,-4,66,-7
14760,-2088,-8,64,-2,68,-5
14765,-2088,32,64,-1,69,-8
14770,-2080,8,64,0,70,-5
14775,-2072,0,80,2,72,-8
14780,-2080,32,64,2,72,-7
14785,-2080,32,64,2,74,-7
14790,-2088,24,64,2,75,-4
14795,-2072,16,64,1,76,-6
14800,-2120,40,64,1,76,-4
14805,-2088,32,56,-2,76,-5
14810,-2072,40,80,-2,77,-5
14815,-2080,8,64,-4,79,-6
14820,-2080,32,72,-6,77,-4
14825,-2072,8,80,-8,80,-9
14830,-2080,16,88,-10,80,-5
14835,-2096,56,64,-10,81,-8
14840,-2080,40,72,-12,82,-6
14845,-2088,16,48,-12,83,-8
14850,-2064,24,48,-11,82,-6
14855,-2088,32,48,-12,82,-8
14860,-2080,24,64,-11,82,-5
14865,-2080,32,64,-9,83,-6
14870,-2088,24,64,-10,82,-4
14875,-2096,8,64,-9,83,-8
14880,-2072,48,72,-9,81,-5
14885,-2072,8,72,-7,80,-7
14890,-2064,32,40,-9,79,-6
14895,-2096,56,56,-9,77,-7
14900,-2080,16,56,-11,77,-6
14905,-2072,16,64,-12,75,-7
14910,-2064,8,72,-13,74,-7
14915,-2056,32,40,-14,76,-10
14920,-2064,0,56,-16,74,-9
14925,-2064,16,32,-17,75,-11
14930,-2088,32,64,-17,74,-10
14935,-2064,8,24,-19,77,-11
14940,-2080,16,48,-20,76,-10
14945,-2072,16,72,-20,77,-12
14950,-2072,16,64,-20,79,-10
14955,-2088,8,64,-20,78,-12
14960,-2088,16,56,-20,80,-11
14965,-2096,16,48,-21,79,-12
14970,-2080,40,48,-21,80,-10
14975,-2096,24,56,-21,80,-10
14980,-2104,24,64,-21,78,-8
14985,-2080,16,80,-20,77,-8
14990,-2096,24,56,-21,77,-6
14995,-2088,8,48,-22,77,-7
